File: Data/GaN_130K_350ms/GaN_sample F_spot6_UVVIS_130 K_200um_350 ms 2x2mm1_113.txt
340.368	1	0
340.710	1	13
341.052	1	-2
341.394	1	-8
341.737	1	11
342.079	1	1
342.421	1	15
342.763	1	6
343.105	1	10
343.447	1	6
343.789	1	6
344.131	1	2
344.473	1	-3
344.815	1	-2
345.157	1	-13
345.499	1	-1
345.841	1	-3
346.183	1	14
346.526	1	4
346.868	1	6
347.210	1	0
347.552	1	4
347.894	1	1
348.236	1	10
348.578	1	2
348.920	1	7
349.262	1	6
349.604	1	14
349.946	1	11
350.288	1	-13
350.630	1	6
350.972	1	13
351.314	1	4
351.656	1	13
351.998	1	2
352.340	1	11
352.682	1	5
353.024	1	8
353.366	1	5
353.708	1	0
354.050	1	8
354.392	1	8
354.734	1	4
355.076	1	1
355.418	1	18
355.760	1	11
356.102	1	5
356.444	1	0
356.785	1	15
357.127	1	12
357.469	1	6
357.811	1	22
358.153	1	13
358.495	1	8
358.837	1	17
359.179	1	14
359.521	1	19
359.863	1	19
360.205	1	10
360.547	1	9
360.889	1	22
361.231	1	19
361.572	1	40
361.914	1	25
362.256	1	22
362.598	1	34
362.940	1	37
363.282	1	47
363.624	1	48
363.966	1	60
364.308	1	61
364.649	1	59
364.991	1	57
365.333	1	61
365.675	1	70
366.017	1	68
366.359	1	86
366.701	1	73
367.042	1	77
367.384	1	81
367.726	1	77
368.068	1	75
368.410	1	75
368.752	1	99
369.093	1	70
369.435	1	67
369.777	1	74
370.119	1	79
370.461	1	71
370.803	1	75
371.144	1	50
371.486	1	65
371.828	1	55
372.170	1	58
372.512	1	55
372.853	1	36
373.195	1	58
373.537	1	51
373.879	1	46
374.220	1	37
374.562	1	37
374.904	1	42
375.246	1	55
375.588	1	43
375.929	1	28
376.271	1	29
376.613	1	38
376.955	1	43
377.296	1	27
377.638	1	2
377.980	1	21
378.321	1	29
378.663	1	32
379.005	1	28
379.347	1	23
379.688	1	24
380.030	1	18
380.372	1	16
380.714	1	49
381.055	1	13
381.397	1	19
381.739	1	29
382.080	1	13
382.422	1	31
382.764	1	25
383.105	1	19
383.447	1	20
383.789	1	27
384.130	1	20
384.472	1	27
384.814	1	16
385.156	1	21
385.497	1	26
385.839	1	25
386.180	1	32
386.522	1	11
386.864	1	17
387.205	1	16
387.547	1	19
387.889	1	21
388.230	1	12
388.572	1	21
388.914	1	14
389.255	1	17
389.597	1	7
389.939	1	19
390.280	1	26
390.622	1	19
390.963	1	10
391.305	1	15
391.647	1	10
391.988	1	18
392.330	1	12
392.671	1	7
393.013	1	13
393.355	1	21
393.696	1	12
394.038	1	11
394.379	1	22
394.721	1	7
395.062	1	2
395.404	1	-4
395.746	1	22
396.087	1	23
396.429	1	14
396.770	1	18
397.112	1	23
397.453	1	15
397.795	1	8
398.136	1	15
398.478	1	9
398.819	1	2
399.161	1	13
399.503	1	31
399.844	1	18
400.186	1	12
400.527	1	23
400.869	1	11
401.210	1	10
401.552	1	22
401.893	1	1
402.235	1	11
402.576	1	19
402.918	1	24
403.259	1	5
403.601	1	10
403.942	1	7
404.284	1	2
404.625	1	19
404.967	1	3
405.308	1	11
405.649	1	5
405.991	1	9
406.332	1	12
406.674	1	19
407.015	1	14
407.357	1	4
407.698	1	10
408.040	1	9
408.381	1	20
408.722	1	10
409.064	1	13
409.405	1	12
409.747	1	7
410.088	1	13
410.430	1	23
410.771	1	5
411.112	1	13
411.454	1	11
411.795	1	10
412.137	1	-3
412.478	1	11
412.819	1	8
413.161	1	16
413.502	1	13
413.844	1	9
414.185	1	6
414.526	1	2
414.868	1	6
415.209	1	-3
415.550	1	4
415.892	1	7
416.233	1	12
416.575	1	13
416.916	1	3
417.257	1	10
417.599	1	1
417.940	1	7
418.281	1	16
418.623	1	7
418.964	1	10
419.305	1	-1
419.647	1	18
419.988	1	25
420.329	1	17
420.671	1	3
421.012	1	10
421.353	1	1
421.695	1	8
422.036	1	12
422.377	1	18
422.718	1	11
423.060	1	1
423.401	1	6
423.742	1	11
424.084	1	13
424.425	1	-3
424.766	1	3
425.107	1	13
425.449	1	8
425.790	1	13
426.131	1	15
426.472	1	4
426.814	1	15
427.155	1	1
427.496	1	16
427.837	1	5
428.179	1	7
428.520	1	7
428.861	1	-2
429.202	1	6
429.544	1	2
429.885	1	13
430.226	1	-3
430.567	1	7
430.909	1	8
431.250	1	20
431.591	1	8
431.932	1	7
432.273	1	13
432.615	1	15
432.956	1	7
433.297	1	15
433.638	1	4
433.979	1	5
434.320	1	2
434.662	1	7
435.003	1	16
435.344	1	6
435.685	1	-7
436.026	1	1
436.368	1	4
436.709	1	-5
437.050	1	5
437.391	1	15
437.732	1	14
438.073	1	21
438.414	1	5
438.756	1	10
439.097	1	4
439.438	1	14
439.779	1	19
440.120	1	6
440.461	1	13
440.802	1	-4
441.143	1	4
441.485	1	13
441.826	1	4
442.167	1	7
442.508	1	-1
442.849	1	10
443.190	1	12
443.531	1	13
443.872	1	16
444.213	1	10
444.554	1	5
444.895	1	2
445.237	1	0
445.578	1	-9
445.919	1	2
446.260	1	13
446.601	1	8
446.942	1	13
447.283	1	11
447.624	1	5
447.965	1	6
448.306	1	15
448.647	1	18
448.988	1	7
449.329	1	7
449.670	1	2
450.011	1	6
450.352	1	5
450.693	1	6
451.034	1	-3
451.375	1	10
451.716	1	-5
452.057	1	21
452.398	1	-2
452.739	1	17
453.080	1	1
453.421	1	6
453.762	1	10
454.103	1	5
454.444	1	5
454.785	1	10
455.126	1	-6
455.467	1	4
455.808	1	12
456.149	1	1
456.490	1	9
456.831	1	5
457.172	1	9
457.513	1	0
457.854	1	8
458.195	1	-8
458.536	1	7
458.877	1	25
459.218	1	12
459.559	1	0
459.899	1	4
460.240	1	25
460.581	1	-3
460.922	1	12
461.263	1	9
461.604	1	-7
461.945	1	11
462.286	1	13
462.627	1	3
462.968	1	4
463.309	1	7
463.649	1	-1
463.990	1	4
464.331	1	8
464.672	1	12
465.013	1	-3
465.354	1	9
465.695	1	4
466.036	1	6
466.376	1	14
466.717	1	9
467.058	1	4
467.399	1	5
467.740	1	24
468.081	1	12
468.422	1	8
468.762	1	0
469.103	1	8
469.444	1	10
469.785	1	1
470.126	1	0
470.467	1	10
470.807	1	8
471.148	1	7
471.489	1	-2
471.830	1	7
472.171	1	4
472.511	1	8
472.852	1	8
473.193	1	4
473.534	1	2
473.875	1	21
474.215	1	6
474.556	1	3
474.897	1	0
475.238	1	15
475.578	1	12
475.919	1	2
476.260	1	-2
476.601	1	3
476.942	1	10
477.282	1	9
477.623	1	-5
477.964	1	0
478.305	1	9
478.645	1	6
478.986	1	2
479.327	1	3
479.667	1	11
480.008	1	9
480.349	1	1
480.690	1	9
481.030	1	5
481.371	1	11
481.712	1	6
482.053	1	4
482.393	1	15
482.734	1	9
483.075	1	13
483.415	1	8
483.756	1	9
484.097	1	9
484.437	1	3
484.778	1	13
485.119	1	18
485.459	1	-4
485.800	1	12
486.141	1	5
486.481	1	6
486.822	1	22
487.163	1	5
487.503	1	5
487.844	1	8
488.185	1	2
488.525	1	5
488.866	1	8
489.207	1	0
489.547	1	8
489.888	1	11
490.228	1	6
490.569	1	8
490.910	1	8
491.250	1	15
491.591	1	8
491.932	1	11
492.272	1	2
492.613	1	9
492.953	1	6
493.294	1	19
493.635	1	13
493.975	1	19
494.316	1	17
494.656	1	19
494.997	1	17
495.337	1	10
495.678	1	8
496.019	1	7
496.359	1	18
496.700	1	12
497.040	1	22
497.381	1	17
497.721	1	13
498.062	1	6
498.403	1	10
498.743	1	30
499.084	1	15
499.424	1	5
499.765	1	15
500.105	1	13
500.446	1	20
500.786	1	18
501.127	1	14
501.467	1	18
501.808	1	17
502.148	1	13
502.489	1	21
502.829	1	15
503.170	1	7
503.510	1	12
503.851	1	13
504.191	1	16
504.532	1	28
504.872	1	19
505.213	1	22
505.553	1	7
505.894	1	29
506.234	1	16
506.575	1	16
506.915	1	20
507.256	1	28
507.596	1	17
507.936	1	10
508.277	1	21
508.617	1	10
508.958	1	20
509.298	1	20
509.639	1	27
509.979	1	10
510.319	1	24
510.660	1	21
511.000	1	18
511.341	1	13
511.681	1	28
512.022	1	28
512.362	1	9
512.702	1	29
513.043	1	27
513.383	1	27
513.724	1	23
514.064	1	16
514.404	1	27
514.745	1	29
515.085	1	37
515.425	1	33
515.766	1	35
516.106	1	25
516.447	1	17
516.787	1	35
517.127	1	24
517.468	1	34
517.808	1	32
518.148	1	27
518.489	1	30
518.829	1	38
519.169	1	36
519.510	1	32
519.850	1	39
520.190	1	47
520.531	1	26
520.871	1	24
521.211	1	32
521.552	1	38
521.892	1	32
522.232	1	20
522.573	1	29
522.913	1	35
523.253	1	28
523.593	1	42
523.934	1	29
524.274	1	19
524.614	1	38
524.955	1	35
525.295	1	36
525.635	1	22
525.975	1	38
526.316	1	35
526.656	1	38
526.996	1	33
527.337	1	38
527.677	1	35
528.017	1	41
528.357	1	35
528.698	1	25
529.038	1	26
529.378	1	33
529.718	1	34
530.058	1	31
530.399	1	31
530.739	1	33
531.079	1	36
531.419	1	42
531.760	1	32
532.100	1	24
532.440	1	31
532.780	1	30
533.120	1	42
533.461	1	27
533.801	1	52
534.141	1	40
534.481	1	39
534.821	1	44
535.162	1	33
535.502	1	32
535.842	1	44
536.182	1	35
536.522	1	26
536.862	1	40
537.203	1	27
537.543	1	33
537.883	1	8
538.223	1	29
538.563	1	43
538.903	1	39
539.243	1	17
539.584	1	43
539.924	1	29
540.264	1	20
540.604	1	40
540.944	1	38
541.284	1	31
541.624	1	33
541.964	1	22
542.305	1	25
542.645	1	23
542.985	1	42
543.325	1	35
543.665	1	32
544.005	1	22
544.345	1	25
544.685	1	32
545.025	1	23
545.365	1	23
545.705	1	17
546.045	1	42
546.386	1	25
546.726	1	20
547.066	1	25
547.406	1	18
547.746	1	27
548.086	1	17
548.426	1	35
548.766	1	25
549.106	1	22
549.446	1	22
549.786	1	28
550.126	1	33
550.466	1	38
550.806	1	20
551.146	1	20
551.486	1	30
551.826	1	23
552.166	1	24
552.506	1	27
552.846	1	21
553.186	1	20
553.526	1	20
553.866	1	18
554.206	1	17
554.546	1	28
554.886	1	28
555.226	1	17
555.566	1	30
555.906	1	18
556.246	1	26
556.586	1	30
556.926	1	22
557.266	1	19
557.606	1	20
557.946	1	24
558.286	1	22
558.626	1	11
558.966	1	18
559.306	1	14
559.646	1	19
559.986	1	20
560.325	1	14
560.665	1	21
561.005	1	22
561.345	1	18
561.685	1	21
562.025	1	17
562.365	1	20
562.705	1	18
563.045	1	16
563.385	1	19
563.725	1	24
564.064	1	25
564.404	1	15
564.744	1	24
565.084	1	13
565.424	1	2
565.764	1	16
566.104	1	13
566.444	1	23
566.783	1	17
567.123	1	16
567.463	1	10
567.803	1	20
568.143	1	22
568.483	1	14
568.823	1	12
569.162	1	13
569.502	1	13
569.842	1	11
570.182	1	13
570.522	1	3
570.862	1	23
571.201	1	15
571.541	1	5
571.881	1	12
572.221	1	18
572.561	1	24
572.900	1	21
573.240	1	7
573.580	1	14
573.920	1	26
574.260	1	22
574.599	1	16
574.939	1	22
575.279	1	5
575.619	1	22
575.959	1	16
576.298	1	11
576.638	1	-1
576.978	1	2
577.318	1	10
577.657	1	31
577.997	1	16
578.337	1	4
578.677	1	21
579.016	1	2
579.356	1	14
579.696	1	6
580.036	1	6
580.375	1	10
580.715	1	21
581.055	1	15
581.394	1	10
581.734	1	16
582.074	1	7
582.414	1	-9
582.753	1	10
583.093	1	9
583.433	1	17
583.772	1	16
584.112	1	16
584.452	1	25
584.791	1	16
585.131	1	19
585.471	1	9
585.811	1	11
586.150	1	13
586.490	1	19
586.830	1	2
587.169	1	16
587.509	1	13
587.849	1	6
588.188	1	17
588.528	1	12
588.867	1	-7
589.207	1	1
589.547	1	6
589.886	1	10
590.226	1	19
590.566	1	8
590.905	1	16
591.245	1	5
591.585	1	5
591.924	1	14
592.264	1	16
592.603	1	8
592.943	1	-1
593.283	1	-2
593.622	1	9
593.962	1	3
594.301	1	3
594.641	1	5
594.981	1	-7
595.320	1	10
595.660	1	5
595.999	1	10
596.339	1	8
596.678	1	5
597.018	1	-1
597.358	1	-5
597.697	1	3
598.037	1	7
598.376	1	9
598.716	1	7
599.055	1	6
599.395	1	4
599.734	1	0
600.074	1	2
600.413	1	13
600.753	1	2
601.092	1	7
601.432	1	-5
601.771	1	5
602.111	1	3
602.451	1	9
602.790	1	7
603.130	1	8
603.469	1	-2
603.809	1	9
604.148	1	17
604.487	1	24
604.827	1	11
605.166	1	10
605.506	1	14
605.845	1	-3
606.185	1	11
606.524	1	13
606.864	1	16
607.203	1	3
607.543	1	-2
607.882	1	17
608.222	1	-6
608.561	1	3
608.901	1	9
609.240	1	-6
609.579	1	23
609.919	1	14
610.258	1	8
610.598	1	10
610.937	1	13
611.277	1	7
611.616	1	-5
611.955	1	3
612.295	1	10
612.634	1	1
612.974	1	7
613.313	1	12
613.652	1	-3
613.992	1	2
614.331	1	-1
614.671	1	1
615.010	1	3
615.349	1	2
615.689	1	9
616.028	1	17
616.368	1	16
616.707	1	12
617.046	1	8
617.386	1	-4
617.725	1	16
618.064	1	9
618.404	1	1
618.743	1	10
619.082	1	1
619.422	1	8
619.761	1	5
620.100	1	1
620.440	1	11
620.779	1	4
621.118	1	8
621.458	1	12
621.797	1	5
622.136	1	6
622.476	1	17
622.815	1	3
623.154	1	1
623.494	1	9
623.833	1	10
624.172	1	-1
624.511	1	4
624.851	1	7
625.190	1	1
625.529	1	9
625.869	1	10
626.208	1	2
626.547	1	7
626.886	1	5
627.226	1	3
627.565	1	2
627.904	1	11
628.243	1	22
628.583	1	-3
628.922	1	-2
629.261	1	-3
629.600	1	11
629.940	1	6
630.279	1	14
630.618	1	-5
630.957	1	4
631.297	1	1
631.636	1	4
631.975	1	15
632.314	1	11
632.653	1	-3
632.993	1	10
633.332	1	10
633.671	1	7
634.010	1	5
634.349	1	6
634.689	1	8
635.028	1	9
635.367	1	6
635.706	1	0
636.045	1	10
636.384	1	9
636.724	1	11
637.063	1	9
637.402	1	-7
637.741	1	13
638.080	1	10
638.419	1	8
638.759	1	9
639.098	1	-2
639.437	1	12
639.776	1	-1
640.115	1	12
640.454	1	13
640.793	1	-5
641.132	1	19
641.472	1	6
641.811	1	4
642.150	1	-3
642.489	1	-11
642.828	1	11
643.167	1	4
643.506	1	11
643.845	1	-1
644.184	1	-1
644.524	1	-2
644.863	1	2
645.202	1	13
645.541	1	9
645.880	1	19
646.219	1	2
646.558	1	1
646.897	1	7
647.236	1	-3
647.575	1	-5
647.914	1	1
648.253	1	2
648.592	1	4
648.931	1	-4
649.270	1	-7
649.610	1	5
649.949	1	6
650.288	1	12
650.627	1	11
650.966	1	4
651.305	1	3
651.644	1	1
651.983	1	-10
652.322	1	2
652.661	1	6
653.000	1	-3
653.339	1	2
653.678	1	-2
654.017	1	5
654.356	1	10
654.695	1	-2
655.034	1	3
655.373	1	0
655.712	1	9
656.051	1	10
656.390	1	4
656.729	1	11
657.068	1	5
657.406	1	2
657.745	1	1
658.084	1	3
658.423	1	1
658.762	1	16
659.101	1	4
659.440	1	2
659.779	1	9
660.118	1	-1
660.457	1	-2
660.796	1	4
661.135	1	17
661.474	1	3
661.813	1	-7
662.152	1	-4
662.491	1	16
662.829	1	6
663.168	1	3
663.507	1	9
663.846	1	-1
664.185	1	-5
664.524	1	0
664.863	1	5
665.202	1	2
665.541	1	-2
665.879	1	-3
666.218	1	10
666.557	1	10
666.896	1	4
667.235	1	8
667.574	1	11
667.913	1	2
668.251	1	3
668.590	1	4
668.929	1	18
669.268	1	0
669.607	1	8
669.946	1	15
670.285	1	10
670.623	1	11
670.962	1	-1
671.301	1	0
671.640	1	-3
671.979	1	-1
672.317	1	9
672.656	1	-5
672.995	1	6
673.334	1	-8
673.673	1	13
674.011	1	3
674.350	1	-2
674.689	1	10
675.028	1	9
675.367	1	2
675.705	1	10
676.044	1	4
676.383	1	7
676.722	1	7
677.060	1	6
677.399	1	-1
677.738	1	0
678.077	1	5
678.416	1	1
678.754	1	9
679.093	1	5
679.432	1	9
679.771	1	7
680.109	1	0
680.448	1	15
680.787	1	5
681.125	1	11
681.464	1	3
681.803	1	-3
682.142	1	6
682.480	1	7
682.819	1	-5
683.158	1	4
683.496	1	1
683.835	1	-6
684.174	1	10
684.512	1	12
684.851	1	-3
685.190	1	0
685.529	1	-2
685.867	1	4
686.206	1	11
686.545	1	4
686.883	1	2
687.222	1	2
687.561	1	15
687.899	1	1
688.238	1	8
688.577	1	8
688.746	1	6