File: Data/GaN_130K_350ms/GaN_sample F_spot6_UVVIS_130 K_200um_350 ms 2x2mm1_124.txt
340.368	1	1
340.710	1	0
341.052	1	4
341.394	1	-1
341.737	1	1
342.079	1	-4
342.421	1	10
342.763	1	8
343.105	1	2
343.447	1	4
343.789	1	9
344.131	1	2
344.473	1	10
344.815	1	-2
345.157	1	-9
345.499	1	10
345.841	1	5
346.183	1	12
346.526	1	-3
346.868	1	13
347.210	1	2
347.552	1	2
347.894	1	1
348.236	1	4
348.578	1	3
348.920	1	4
349.262	1	15
349.604	1	15
349.946	1	16
350.288	1	-8
350.630	1	10
350.972	1	6
351.314	1	2
351.656	1	8
351.998	1	8
352.340	1	12
352.682	1	6
353.024	1	5
353.366	1	12
353.708	1	1
354.050	1	14
354.392	1	10
354.734	1	5
355.076	1	1
355.418	1	8
355.760	1	8
356.102	1	8
356.444	1	-3
356.785	1	11
357.127	1	9
357.469	1	2
357.811	1	5
358.153	1	3
358.495	1	8
358.837	1	14
359.179	1	18
359.521	1	18
359.863	1	23
360.205	1	7
360.547	1	14
360.889	1	19
361.231	1	21
361.572	1	25
361.914	1	27
362.256	1	17
362.598	1	29
362.940	1	27
363.282	1	42
363.624	1	35
363.966	1	38
364.308	1	49
364.649	1	48
364.991	1	43
365.333	1	42
365.675	1	45
366.017	1	54
366.359	1	53
366.701	1	56
367.042	1	69
367.384	1	62
367.726	1	53
368.068	1	51
368.410	1	41
368.752	1	62
369.093	1	60
369.435	1	45
369.777	1	44
370.119	1	53
370.461	1	54
370.803	1	55
371.144	1	50
371.486	1	44
371.828	1	45
372.170	1	33
372.512	1	47
372.853	1	34
373.195	1	32
373.537	1	45
373.879	1	47
374.220	1	32
374.562	1	27
374.904	1	40
375.246	1	42
375.588	1	30
375.929	1	19
376.271	1	32
376.613	1	18
376.955	1	28
377.296	1	27
377.638	1	14
377.980	1	9
378.321	1	25
378.663	1	27
379.005	1	42
379.347	1	19
379.688	1	11
380.030	1	13
380.372	1	22
380.714	1	27
381.055	1	21
381.397	1	22
381.739	1	17
382.080	1	1
382.422	1	24
382.764	1	17
383.105	1	17
383.447	1	13
383.789	1	21
384.130	1	9
384.472	1	22
384.814	1	22
385.156	1	15
385.497	1	12
385.839	1	18
386.180	1	18
386.522	1	23
386.864	1	23
387.205	1	11
387.547	1	20
387.889	1	9
388.230	1	11
388.572	1	16
388.914	1	16
389.255	1	17
389.597	1	8
389.939	1	10
390.280	1	20
390.622	1	12
390.963	1	21
391.305	1	7
391.647	1	9
391.988	1	20
392.330	1	17
392.671	1	6
393.013	1	8
393.355	1	9
393.696	1	13
394.038	1	16
394.379	1	10
394.721	1	8
395.062	1	7
395.404	1	5
395.746	1	7
396.087	1	17
396.429	1	15
396.770	1	14
397.112	1	9
397.453	1	15
397.795	1	1
398.136	1	11
398.478	1	14
398.819	1	-9
399.161	1	16
399.503	1	15
399.844	1	12
400.186	1	10
400.527	1	17
400.869	1	2
401.210	1	-3
401.552	1	14
401.893	1	-4
402.235	1	10
402.576	1	9
402.918	1	12
403.259	1	3
403.601	1	7
403.942	1	7
404.284	1	7
404.625	1	14
404.967	1	11
405.308	1	4
405.649	1	15
405.991	1	9
406.332	1	23
406.674	1	20
407.015	1	11
407.357	1	8
407.698	1	8
408.040	1	14
408.381	1	16
408.722	1	11
409.064	1	10
409.405	1	17
409.747	1	12
410.088	1	22
410.430	1	19
410.771	1	0
411.112	1	14
411.454	1	12
411.795	1	11
412.137	1	-1
412.478	1	14
412.819	1	13
413.161	1	11
413.502	1	25
413.844	1	8
414.185	1	16
414.526	1	3
414.868	1	0
415.209	1	-2
415.550	1	1
415.892	1	16
416.233	1	23
416.575	1	10
416.916	1	11
417.257	1	15
417.599	1	10
417.940	1	5
418.281	1	6
418.623	1	8
418.964	1	-2
419.305	1	-1
419.647	1	12
419.988	1	18
420.329	1	13
420.671	1	4
421.012	1	8
421.353	1	-5
421.695	1	2
422.036	1	10
422.377	1	19
422.718	1	10
423.060	1	6
423.401	1	13
423.742	1	12
424.084	1	6
424.425	1	15
424.766	1	7
425.107	1	10
425.449	1	10
425.790	1	16
426.131	1	17
426.472	1	7
426.814	1	11
427.155	1	-6
427.496	1	5
427.837	1	13
428.179	1	7
428.520	1	8
428.861	1	4
429.202	1	13
429.544	1	13
429.885	1	-1
430.226	1	5
430.567	1	12
430.909	1	7
431.250	1	8
431.591	1	5
431.932	1	-3
432.273	1	4
432.615	1	14
432.956	1	0
433.297	1	14
433.638	1	10
433.979	1	5
434.320	1	8
434.662	1	13
435.003	1	16
435.344	1	6
435.685	1	-1
436.026	1	5
436.368	1	-6
436.709	1	-2
437.050	1	5
437.391	1	11
437.732	1	6
438.073	1	11
438.414	1	4
438.756	1	-4
439.097	1	6
439.438	1	7
439.779	1	16
440.120	1	-1
440.461	1	13
440.802	1	-5
441.143	1	-8
441.485	1	10
441.826	1	-3
442.167	1	17
442.508	1	11
442.849	1	13
443.190	1	7
443.531	1	3
443.872	1	9
444.213	1	7
444.554	1	3
444.895	1	7
445.237	1	1
445.578	1	2
445.919	1	0
446.260	1	8
446.601	1	12
446.942	1	10
447.283	1	19
447.624	1	3
447.965	1	7
448.306	1	11
448.647	1	20
448.988	1	16
449.329	1	5
449.670	1	9
450.011	1	-3
450.352	1	10
450.693	1	11
451.034	1	2
451.375	1	14
451.716	1	0
452.057	1	11
452.398	1	-1
452.739	1	17
453.080	1	11
453.421	1	3
453.762	1	10
454.103	1	4
454.444	1	7
454.785	1	8
455.126	1	-12
455.467	1	-1
455.808	1	2
456.149	1	-9
456.490	1	2
456.831	1	13
457.172	1	3
457.513	1	-1
457.854	1	8
458.195	1	0
458.536	1	6
458.877	1	23
459.218	1	8
459.559	1	7
459.899	1	6
460.240	1	18
460.581	1	-6
460.922	1	2
461.263	1	6
461.604	1	-4
461.945	1	23
462.286	1	5
462.627	1	-3
462.968	1	-4
463.309	1	9
463.649	1	5
463.990	1	4
464.331	1	6
464.672	1	10
465.013	1	-6
465.354	1	9
465.695	1	9
466.036	1	11
466.376	1	5
466.717	1	9
467.058	1	12
467.399	1	3
467.740	1	16
468.081	1	17
468.422	1	5
468.762	1	-4
469.103	1	2
469.444	1	6
469.785	1	3
470.126	1	-9
470.467	1	7
470.807	1	10
471.148	1	2
471.489	1	3
471.830	1	8
472.171	1	4
472.511	1	1
472.852	1	15
473.193	1	4
473.534	1	14
473.875	1	14
474.215	1	3
474.556	1	11
474.897	1	-4
475.238	1	15
475.578	1	6
475.919	1	-4
476.260	1	12
476.601	1	6
476.942	1	15
477.282	1	10
477.623	1	-13
477.964	1	-3
478.305	1	15
478.645	1	4
478.986	1	4
479.327	1	7
479.667	1	3
480.008	1	3
480.349	1	7
480.690	1	11
481.030	1	7
481.371	1	8
481.712	1	9
482.053	1	9
482.393	1	14
482.734	1	9
483.075	1	21
483.415	1	2
483.756	1	6
484.097	1	15
484.437	1	11
484.778	1	14
485.119	1	10
485.459	1	2
485.800	1	14
486.141	1	4
486.481	1	-1
486.822	1	4
487.163	1	1
487.503	1	-1
487.844	1	2
488.185	1	4
488.525	1	13
488.866	1	-5
489.207	1	3
489.547	1	5
489.888	1	17
490.228	1	9
490.569	1	11
490.910	1	-2
491.250	1	16
491.591	1	6
491.932	1	12
492.272	1	15
492.613	1	-2
492.953	1	11
493.294	1	12
493.635	1	23
493.975	1	15
494.316	1	7
494.656	1	5
494.997	1	6
495.337	1	18
495.678	1	4
496.019	1	-2
496.359	1	21
496.700	1	13
497.040	1	16
497.381	1	19
497.721	1	12
498.062	1	12
498.403	1	12
498.743	1	14
499.084	1	27
499.424	1	-3
499.765	1	8
500.105	1	7
500.446	1	23
500.786	1	20
501.127	1	11
501.467	1	16
501.808	1	14
502.148	1	17
502.489	1	19
502.829	1	12
503.170	1	10
503.510	1	13
503.851	1	11
504.191	1	5
504.532	1	16
504.872	1	23
505.213	1	11
505.553	1	13
505.894	1	11
506.234	1	16
506.575	1	11
506.915	1	21
507.256	1	16
507.596	1	12
507.936	1	7
508.277	1	19
508.617	1	10
508.958	1	29
509.298	1	16
509.639	1	23
509.979	1	3
510.319	1	27
510.660	1	2
511.000	1	27
511.341	1	10
511.681	1	18
512.022	1	17
512.362	1	11
512.702	1	16
513.043	1	25
513.383	1	21
513.724	1	8
514.064	1	8
514.404	1	24
514.745	1	18
515.085	1	25
515.425	1	33
515.766	1	19
516.106	1	11
516.447	1	13
516.787	1	20
517.127	1	24
517.468	1	27
517.808	1	17
518.148	1	10
518.489	1	28
518.829	1	17
519.169	1	24
519.510	1	21
519.850	1	36
520.190	1	29
520.531	1	23
520.871	1	11
521.211	1	25
521.552	1	18
521.892	1	27
522.232	1	23
522.573	1	16
522.913	1	18
523.253	1	24
523.593	1	32
523.934	1	12
524.274	1	13
524.614	1	35
524.955	1	18
525.295	1	20
525.635	1	36
525.975	1	17
526.316	1	12
526.656	1	26
526.996	1	16
527.337	1	37
527.677	1	19
528.017	1	27
528.357	1	34
528.698	1	8
529.038	1	28
529.378	1	29
529.718	1	26
530.058	1	8
530.399	1	30
530.739	1	17
531.079	1	26
531.419	1	30
531.760	1	15
532.100	1	18
532.440	1	23
532.780	1	23
533.120	1	27
533.461	1	27
533.801	1	46
534.141	1	21
534.481	1	20
534.821	1	30
535.162	1	32
535.502	1	33
535.842	1	17
536.182	1	20
536.522	1	19
536.862	1	18
537.203	1	19
537.543	1	26
537.883	1	20
538.223	1	28
538.563	1	25
538.903	1	37
539.243	1	18
539.584	1	19
539.924	1	20
540.264	1	21
540.604	1	23
540.944	1	23
541.284	1	15
541.624	1	25
541.964	1	17
542.305	1	20
542.645	1	15
542.985	1	13
543.325	1	12
543.665	1	27
544.005	1	24
544.345	1	20
544.685	1	24
545.025	1	13
545.365	1	20
545.705	1	31
546.045	1	18
546.386	1	19
546.726	1	14
547.066	1	25
547.406	1	2
547.746	1	21
548.086	1	7
548.426	1	20
548.766	1	18
549.106	1	19
549.446	1	14
549.786	1	21
550.126	1	21
550.466	1	19
550.806	1	23
551.146	1	18
551.486	1	15
551.826	1	19
552.166	1	20
552.506	1	10
552.846	1	14
553.186	1	19
553.526	1	21
553.866	1	16
554.206	1	15
554.546	1	16
554.886	1	9
555.226	1	21
555.566	1	12
555.906	1	14
556.246	1	15
556.586	1	15
556.926	1	14
557.266	1	15
557.606	1	12
557.946	1	20
558.286	1	21
558.626	1	7
558.966	1	14
559.306	1	19
559.646	1	8
559.986	1	21
560.325	1	9
560.665	1	13
561.005	1	10
561.345	1	17
561.685	1	14
562.025	1	13
562.365	1	23
562.705	1	15
563.045	1	9
563.385	1	10
563.725	1	12
564.064	1	28
564.404	1	15
564.744	1	19
565.084	1	7
565.424	1	2
565.764	1	16
566.104	1	19
566.444	1	28
566.783	1	21
567.123	1	11
567.463	1	10
567.803	1	16
568.143	1	19
568.483	1	11
568.823	1	0
569.162	1	18
569.502	1	9
569.842	1	7
570.182	1	3
570.522	1	0
570.862	1	25
571.201	1	15
571.541	1	6
571.881	1	15
572.221	1	12
572.561	1	20
572.900	1	6
573.240	1	7
573.580	1	20
573.920	1	7
574.260	1	14
574.599	1	22
574.939	1	23
575.279	1	2
575.619	1	16
575.959	1	14
576.298	1	6
576.638	1	8
576.978	1	3
577.318	1	9
577.657	1	8
577.997	1	16
578.337	1	12
578.677	1	13
579.016	1	2
579.356	1	16
579.696	1	8
580.036	1	8
580.375	1	3
580.715	1	13
581.055	1	11
581.394	1	15
581.734	1	9
582.074	1	10
582.414	1	5
582.753	1	13
583.093	1	8
583.433	1	27
583.772	1	16
584.112	1	11
584.452	1	8
584.791	1	8
585.131	1	11
585.471	1	15
585.811	1	10
586.150	1	10
586.490	1	5
586.830	1	3
587.169	1	13
587.509	1	13
587.849	1	10
588.188	1	19
588.528	1	19
588.867	1	3
589.207	1	0
589.547	1	0
589.886	1	12
590.226	1	12
590.566	1	3
590.905	1	9
591.245	1	2
591.585	1	9
591.924	1	1
592.264	1	12
592.603	1	6
592.943	1	6
593.283	1	3
593.622	1	22
593.962	1	10
594.301	1	1
594.641	1	7
594.981	1	7
595.320	1	17
595.660	1	5
595.999	1	12
596.339	1	1
596.678	1	-6
597.018	1	8
597.358	1	3
597.697	1	0
598.037	1	8
598.376	1	4
598.716	1	4
599.055	1	4
599.395	1	-7
599.734	1	0
600.074	1	7
600.413	1	8
600.753	1	9
601.092	1	5
601.432	1	-13
601.771	1	14
602.111	1	8
602.451	1	5
602.790	1	4
603.130	1	12
603.469	1	2
603.809	1	14
604.148	1	6
604.487	1	21
604.827	1	14
605.166	1	18
605.506	1	8
605.845	1	0
606.185	1	2
606.524	1	9
606.864	1	10
607.203	1	3
607.543	1	2
607.882	1	15
608.222	1	9
608.561	1	0
608.901	1	17
609.240	1	-1
609.579	1	5
609.919	1	11
610.258	1	7
610.598	1	4
610.937	1	17
611.277	1	13
611.616	1	-1
611.955	1	4
612.295	1	19
612.634	1	-1
612.974	1	3
613.313	1	2
613.652	1	-1
613.992	1	7
614.331	1	2
614.671	1	5
615.010	1	0
615.349	1	9
615.689	1	16
616.028	1	10
616.368	1	12
616.707	1	8
617.046	1	6
617.386	1	0
617.725	1	10
618.064	1	1
618.404	1	5
618.743	1	9
619.082	1	6
619.422	1	1
619.761	1	6
620.100	1	6
620.440	1	8
620.779	1	-8
621.118	1	7
621.458	1	13
621.797	1	4
622.136	1	2
622.476	1	6
622.815	1	-2
623.154	1	-7
623.494	1	-1
623.833	1	9
624.172	1	-2
624.511	1	7
624.851	1	3
625.190	1	-2
625.529	1	-2
625.869	1	10
626.208	1	3
626.547	1	11
626.886	1	-1
627.226	1	3
627.565	1	6
627.904	1	12
628.243	1	14
628.583	1	-3
628.922	1	-8
629.261	1	-8
629.600	1	6
629.940	1	1
630.279	1	15
630.618	1	-1
630.957	1	9
631.297	1	6
631.636	1	5
631.975	1	6
632.314	1	1
632.653	1	5
632.993	1	5
633.332	1	8
633.671	1	-5
634.010	1	-3
634.349	1	8
634.689	1	10
635.028	1	11
635.367	1	5
635.706	1	1
636.045	1	22
636.384	1	16
636.724	1	7
637.063	1	-5
637.402	1	2
637.741	1	10
638.080	1	11
638.419	1	11
638.759	1	0
639.098	1	3
639.437	1	19
639.776	1	3
640.115	1	13
640.454	1	5
640.793	1	-6
641.132	1	9
641.472	1	3
641.811	1	-3
642.150	1	-4
642.489	1	-6
642.828	1	0
643.167	1	3
643.506	1	10
643.845	1	-8
644.184	1	1
644.524	1	-2
644.863	1	5
645.202	1	5
645.541	1	-3
645.880	1	4
646.219	1	10
646.558	1	2
646.897	1	-6
647.236	1	-4
647.575	1	2
647.914	1	-6
648.253	1	-5
648.592	1	-3
648.931	1	-2
649.270	1	-1
649.610	1	4
649.949	1	7
650.288	1	6
650.627	1	4
650.966	1	4
651.305	1	1
651.644	1	7
651.983	1	-7
652.322	1	0
652.661	1	2
653.000	1	4
653.339	1	-2
653.678	1	-2
654.017	1	-3
654.356	1	6
654.695	1	4
655.034	1	1
655.373	1	1
655.712	1	5
656.051	1	4
656.390	1	4
656.729	1	0
657.068	1	11
657.406	1	2
657.745	1	6
658.084	1	5
658.423	1	2
658.762	1	17
659.101	1	10
659.440	1	3
659.779	1	9
660.118	1	1
660.457	1	-1
660.796	1	1
661.135	1	16
661.474	1	14
661.813	1	4
662.152	1	1
662.491	1	15
662.829	1	13
663.168	1	-5
663.507	1	3
663.846	1	0
664.185	1	-8
664.524	1	0
664.863	1	10
665.202	1	1
665.541	1	-3
665.879	1	-3
666.218	1	2
666.557	1	7
666.896	1	2
667.235	1	9
667.574	1	19
667.913	1	9
668.251	1	3
668.590	1	17
668.929	1	9
669.268	1	0
669.607	1	3
669.946	1	14
670.285	1	3
670.623	1	17
670.962	1	-5
671.301	1	-2
671.640	1	-12
671.979	1	-1
672.317	1	2
672.656	1	2
672.995	1	1
673.334	1	-1
673.673	1	15
674.011	1	5
674.350	1	3
674.689	1	6
675.028	1	10
675.367	1	2
675.705	1	10
676.044	1	8
676.383	1	5
676.722	1	12
677.060	1	4
677.399	1	4
677.738	1	8
678.077	1	-1
678.416	1	11
678.754	1	4
679.093	1	1
679.432	1	5
679.771	1	10
680.109	1	-4
680.448	1	9
680.787	1	15
681.125	1	11
681.464	1	-2
681.803	1	2
682.142	1	-5
682.480	1	8
682.819	1	6
683.158	1	3
683.496	1	5
683.835	1	-1
684.174	1	10
684.512	1	15
684.851	1	0
685.190	1	7
685.529	1	-8
685.867	1	9
686.206	1	3
686.545	1	3
686.883	1	4
687.222	1	-1
687.561	1	16
687.899	1	14
688.238	1	6
688.577	1	8
688.746	1	12