File: Data/GaN_130K_350ms/GaN_sample F_spot6_UVVIS_130 K_200um_350 ms 2x2mm1_186.txt
340.368	1	1
340.710	1	14
341.052	1	-4
341.394	1	9
341.737	1	9
342.079	1	4
342.421	1	5
342.763	1	2
343.105	1	1
343.447	1	14
343.789	1	-6
344.131	1	13
344.473	1	-10
344.815	1	-8
345.157	1	-3
345.499	1	-6
345.841	1	7
346.183	1	9
346.526	1	-2
346.868	1	-4
347.210	1	-1
347.552	1	5
347.894	1	6
348.236	1	3
348.578	1	-1
348.920	1	7
349.262	1	3
349.604	1	-3
349.946	1	18
350.288	1	-14
350.630	1	9
350.972	1	3
351.314	1	1
351.656	1	15
351.998	1	4
352.340	1	17
352.682	1	2
353.024	1	-8
353.366	1	0
353.708	1	-1
354.050	1	8
354.392	1	10
354.734	1	2
355.076	1	8
355.418	1	3
355.760	1	-3
356.102	1	3
356.444	1	-5
356.785	1	10
357.127	1	11
357.469	1	0
357.811	1	4
358.153	1	-2
358.495	1	7
358.837	1	3
359.179	1	4
359.521	1	0
359.863	1	10
360.205	1	16
360.547	1	3
360.889	1	12
361.231	1	14
361.572	1	10
361.914	1	0
362.256	1	5
362.598	1	4
362.940	1	-10
363.282	1	17
363.624	1	15
363.966	1	13
364.308	1	21
364.649	1	12
364.991	1	17
365.333	1	9
365.675	1	18
366.017	1	21
366.359	1	20
366.701	1	29
367.042	1	23
367.384	1	30
367.726	1	26
368.068	1	17
368.410	1	4
368.752	1	35
369.093	1	21
369.435	1	19
369.777	1	22
370.119	1	20
370.461	1	25
370.803	1	19
371.144	1	13
371.486	1	16
371.828	1	23
372.170	1	6
372.512	1	9
372.853	1	12
373.195	1	12
373.537	1	19
373.879	1	14
374.220	1	5
374.562	1	9
374.904	1	10
375.246	1	13
375.588	1	11
375.929	1	1
376.271	1	12
376.613	1	16
376.955	1	11
377.296	1	6
377.638	1	3
377.980	1	-4
378.321	1	12
378.663	1	16
379.005	1	12
379.347	1	12
379.688	1	8
380.030	1	7
380.372	1	6
380.714	1	11
381.055	1	15
381.397	1	12
381.739	1	9
382.080	1	4
382.422	1	0
382.764	1	1
383.105	1	6
383.447	1	12
383.789	1	6
384.130	1	5
384.472	1	17
384.814	1	7
385.156	1	9
385.497	1	-3
385.839	1	9
386.180	1	10
386.522	1	0
386.864	1	9
387.205	1	6
387.547	1	8
387.889	1	3
388.230	1	9
388.572	1	14
388.914	1	13
389.255	1	4
389.597	1	-9
389.939	1	16
390.280	1	17
390.622	1	10
390.963	1	14
391.305	1	13
391.647	1	2
391.988	1	15
392.330	1	6
392.671	1	-8
393.013	1	4
393.355	1	2
393.696	1	2
394.038	1	13
394.379	1	4
394.721	1	15
395.062	1	4
395.404	1	-2
395.746	1	7
396.087	1	21
396.429	1	12
396.770	1	16
397.112	1	13
397.453	1	9
397.795	1	8
398.136	1	1
398.478	1	8
398.819	1	-5
399.161	1	8
399.503	1	19
399.844	1	0
400.186	1	3
400.527	1	11
400.869	1	17
401.210	1	-8
401.552	1	15
401.893	1	-9
402.235	1	12
402.576	1	10
402.918	1	14
403.259	1	1
403.601	1	9
403.942	1	6
404.284	1	9
404.625	1	14
404.967	1	4
405.308	1	-1
405.649	1	10
405.991	1	8
406.332	1	11
406.674	1	12
407.015	1	10
407.357	1	6
407.698	1	6
408.040	1	7
408.381	1	17
408.722	1	6
409.064	1	6
409.405	1	14
409.747	1	11
410.088	1	12
410.430	1	10
410.771	1	2
411.112	1	20
411.454	1	6
411.795	1	17
412.137	1	5
412.478	1	8
412.819	1	13
413.161	1	7
413.502	1	14
413.844	1	10
414.185	1	6
414.526	1	4
414.868	1	2
415.209	1	8
415.550	1	0
415.892	1	8
416.233	1	16
416.575	1	5
416.916	1	-4
417.257	1	12
417.599	1	4
417.940	1	4
418.281	1	7
418.623	1	13
418.964	1	6
419.305	1	-1
419.647	1	7
419.988	1	12
420.329	1	17
420.671	1	-9
421.012	1	0
421.353	1	0
421.695	1	0
422.036	1	3
422.377	1	5
422.718	1	-1
423.060	1	11
423.401	1	10
423.742	1	1
424.084	1	7
424.425	1	1
424.766	1	1
425.107	1	4
425.449	1	4
425.790	1	3
426.131	1	23
426.472	1	14
426.814	1	7
427.155	1	4
427.496	1	8
427.837	1	11
428.179	1	2
428.520	1	13
428.861	1	6
429.202	1	2
429.544	1	6
429.885	1	8
430.226	1	-3
430.567	1	9
430.909	1	4
431.250	1	20
431.591	1	6
431.932	1	3
432.273	1	8
432.615	1	6
432.956	1	2
433.297	1	17
433.638	1	12
433.979	1	16
434.320	1	4
434.662	1	12
435.003	1	14
435.344	1	4
435.685	1	-20
436.026	1	10
436.368	1	5
436.709	1	5
437.050	1	4
437.391	1	19
437.732	1	3
438.073	1	13
438.414	1	0
438.756	1	2
439.097	1	10
439.438	1	6
439.779	1	9
440.120	1	5
440.461	1	16
440.802	1	3
441.143	1	2
441.485	1	9
441.826	1	9
442.167	1	6
442.508	1	6
442.849	1	8
443.190	1	11
443.531	1	1
443.872	1	11
444.213	1	6
444.554	1	7
444.895	1	4
445.237	1	-2
445.578	1	4
445.919	1	-3
446.260	1	6
446.601	1	15
446.942	1	8
447.283	1	3
447.624	1	2
447.965	1	2
448.306	1	5
448.647	1	15
448.988	1	7
449.329	1	3
449.670	1	9
450.011	1	-4
450.352	1	10
450.693	1	-1
451.034	1	5
451.375	1	14
451.716	1	-7
452.057	1	22
452.398	1	0
452.739	1	12
453.080	1	-8
453.421	1	-5
453.762	1	6
454.103	1	3
454.444	1	7
454.785	1	10
455.126	1	-9
455.467	1	5
455.808	1	9
456.149	1	0
456.490	1	8
456.831	1	10
457.172	1	5
457.513	1	7
457.854	1	-2
458.195	1	-4
458.536	1	4
458.877	1	24
459.218	1	11
459.559	1	3
459.899	1	0
460.240	1	16
460.581	1	-1
460.922	1	7
461.263	1	9
461.604	1	-6
461.945	1	15
462.286	1	-1
462.627	1	-2
462.968	1	0
463.309	1	9
463.649	1	7
463.990	1	-5
464.331	1	12
464.672	1	2
465.013	1	3
465.354	1	-1
465.695	1	10
466.036	1	5
466.376	1	9
466.717	1	3
467.058	1	6
467.399	1	-4
467.740	1	11
468.081	1	5
468.422	1	6
468.762	1	1
469.103	1	2
469.444	1	1
469.785	1	2
470.126	1	-13
470.467	1	4
470.807	1	1
471.148	1	1
471.489	1	0
471.830	1	12
472.171	1	4
472.511	1	8
472.852	1	7
473.193	1	5
473.534	1	6
473.875	1	22
474.215	1	8
474.556	1	2
474.897	1	4
475.238	1	10
475.578	1	0
475.919	1	3
476.260	1	4
476.601	1	-1
476.942	1	10
477.282	1	6
477.623	1	-1
477.964	1	-5
478.305	1	16
478.645	1	1
478.986	1	-5
479.327	1	1
479.667	1	-3
480.008	1	-2
480.349	1	5
480.690	1	2
481.030	1	0
481.371	1	10
481.712	1	2
482.053	1	1
482.393	1	16
482.734	1	-3
483.075	1	15
483.415	1	0
483.756	1	3
484.097	1	4
484.437	1	3
484.778	1	8
485.119	1	1
485.459	1	-12
485.800	1	11
486.141	1	-6
486.481	1	5
486.822	1	10
487.163	1	-7
487.503	1	-10
487.844	1	1
488.185	1	4
488.525	1	8
488.866	1	13
489.207	1	-2
489.547	1	-1
489.888	1	5
490.228	1	3
490.569	1	4
490.910	1	-12
491.250	1	9
491.591	1	-1
491.932	1	1
492.272	1	5
492.613	1	0
492.953	1	4
493.294	1	7
493.635	1	7
493.975	1	9
494.316	1	13
494.656	1	5
494.997	1	2
495.337	1	3
495.678	1	1
496.019	1	4
496.359	1	9
496.700	1	-3
497.040	1	12
497.381	1	1
497.721	1	4
498.062	1	-3
498.403	1	0
498.743	1	10
499.084	1	20
499.424	1	-3
499.765	1	2
500.105	1	0
500.446	1	6
500.786	1	3
501.127	1	8
501.467	1	3
501.808	1	11
502.148	1	6
502.489	1	11
502.829	1	-2
503.170	1	-1
503.510	1	13
503.851	1	3
504.191	1	5
504.532	1	7
504.872	1	5
505.213	1	6
505.553	1	9
505.894	1	9
506.234	1	1
506.575	1	-3
506.915	1	0
507.256	1	13
507.596	1	2
507.936	1	-2
508.277	1	6
508.617	1	-6
508.958	1	11
509.298	1	9
509.639	1	9
509.979	1	5
510.319	1	13
510.660	1	-5
511.000	1	4
511.341	1	-4
511.681	1	11
512.022	1	12
512.362	1	-2
512.702	1	12
513.043	1	10
513.383	1	8
513.724	1	-3
514.064	1	1
514.404	1	14
514.745	1	3
515.085	1	17
515.425	1	9
515.766	1	-5
516.106	1	4
516.447	1	1
516.787	1	6
517.127	1	11
517.468	1	3
517.808	1	-2
518.148	1	9
518.489	1	8
518.829	1	14
519.169	1	4
519.510	1	0
519.850	1	17
520.190	1	5
520.531	1	10
520.871	1	3
521.211	1	12
521.552	1	11
521.892	1	6
522.232	1	1
522.573	1	-3
522.913	1	13
523.253	1	13
523.593	1	16
523.934	1	5
524.274	1	3
524.614	1	15
524.955	1	9
525.295	1	16
525.635	1	5
525.975	1	11
526.316	1	15
526.656	1	12
526.996	1	1
527.337	1	12
527.677	1	-4
528.017	1	6
528.357	1	17
528.698	1	2
529.038	1	-8
529.378	1	6
529.718	1	12
530.058	1	10
530.399	1	16
530.739	1	6
531.079	1	12
531.419	1	9
531.760	1	3
532.100	1	11
532.440	1	9
532.780	1	5
533.120	1	13
533.461	1	7
533.801	1	11
534.141	1	6
534.481	1	11
534.821	1	11
535.162	1	17
535.502	1	5
535.842	1	11
536.182	1	11
536.522	1	7
536.862	1	-2
537.203	1	1
537.543	1	18
537.883	1	-1
538.223	1	10
538.563	1	6
538.903	1	18
539.243	1	7
539.584	1	8
539.924	1	6
540.264	1	3
540.604	1	16
540.944	1	6
541.284	1	4
541.624	1	9
541.964	1	8
542.305	1	3
542.645	1	4
542.985	1	16
543.325	1	14
543.665	1	2
544.005	1	18
544.345	1	11
544.685	1	7
545.025	1	3
545.365	1	20
545.705	1	10
546.045	1	17
546.386	1	4
546.726	1	-2
547.066	1	1
547.406	1	0
547.746	1	11
548.086	1	2
548.426	1	4
548.766	1	11
549.106	1	-6
549.446	1	4
549.786	1	14
550.126	1	17
550.466	1	17
550.806	1	8
551.146	1	3
551.486	1	7
551.826	1	5
552.166	1	12
552.506	1	2
552.846	1	11
553.186	1	4
553.526	1	1
553.866	1	-3
554.206	1	5
554.546	1	11
554.886	1	2
555.226	1	13
555.566	1	2
555.906	1	6
556.246	1	5
556.586	1	-1
556.926	1	10
557.266	1	9
557.606	1	7
557.946	1	8
558.286	1	12
558.626	1	-5
558.966	1	6
559.306	1	8
559.646	1	12
559.986	1	6
560.325	1	1
560.665	1	11
561.005	1	7
561.345	1	10
561.685	1	-3
562.025	1	1
562.365	1	13
562.705	1	16
563.045	1	4
563.385	1	1
563.725	1	8
564.064	1	1
564.404	1	10
564.744	1	14
565.084	1	8
565.424	1	-1
565.764	1	1
566.104	1	1
566.444	1	12
566.783	1	13
567.123	1	4
567.463	1	-1
567.803	1	14
568.143	1	15
568.483	1	7
568.823	1	-3
569.162	1	16
569.502	1	3
569.842	1	4
570.182	1	5
570.522	1	-5
570.862	1	17
571.201	1	9
571.541	1	0
571.881	1	2
572.221	1	5
572.561	1	4
572.900	1	4
573.240	1	0
573.580	1	8
573.920	1	8
574.260	1	7
574.599	1	16
574.939	1	12
575.279	1	3
575.619	1	4
575.959	1	6
576.298	1	5
576.638	1	4
576.978	1	-8
577.318	1	5
577.657	1	18
577.997	1	13
578.337	1	15
578.677	1	17
579.016	1	1
579.356	1	6
579.696	1	-5
580.036	1	4
580.375	1	-3
580.715	1	-3
581.055	1	5
581.394	1	5
581.734	1	9
582.074	1	4
582.414	1	3
582.753	1	9
583.093	1	7
583.433	1	7
583.772	1	5
584.112	1	16
584.452	1	18
584.791	1	7
585.131	1	9
585.471	1	-7
585.811	1	9
586.150	1	4
586.490	1	4
586.830	1	-7
587.169	1	9
587.509	1	14
587.849	1	8
588.188	1	11
588.528	1	10
588.867	1	2
589.207	1	2
589.547	1	-2
589.886	1	10
590.226	1	7
590.566	1	7
590.905	1	10
591.245	1	2
591.585	1	-2
591.924	1	3
592.264	1	7
592.603	1	2
592.943	1	-1
593.283	1	-7
593.622	1	5
593.962	1	16
594.301	1	-4
594.641	1	2
594.981	1	-9
595.320	1	12
595.660	1	5
595.999	1	10
596.339	1	8
596.678	1	-6
597.018	1	5
597.358	1	-1
597.697	1	-1
598.037	1	10
598.376	1	9
598.716	1	15
599.055	1	7
599.395	1	-6
599.734	1	-3
600.074	1	6
600.413	1	4
600.753	1	6
601.092	1	-2
601.432	1	-3
601.771	1	6
602.111	1	-1
602.451	1	8
602.790	1	2
603.130	1	9
603.469	1	8
603.809	1	1
604.148	1	15
604.487	1	9
604.827	1	5
605.166	1	7
605.506	1	1
605.845	1	-1
606.185	1	10
606.524	1	5
606.864	1	9
607.203	1	-5
607.543	1	5
607.882	1	10
608.222	1	-8
608.561	1	2
608.901	1	8
609.240	1	7
609.579	1	14
609.919	1	10
610.258	1	-2
610.598	1	0
610.937	1	3
611.277	1	3
611.616	1	-7
611.955	1	-6
612.295	1	10
612.634	1	6
612.974	1	8
613.313	1	0
613.652	1	-10
613.992	1	1
614.331	1	4
614.671	1	1
615.010	1	0
615.349	1	5
615.689	1	7
616.028	1	5
616.368	1	4
616.707	1	10
617.046	1	7
617.386	1	9
617.725	1	-3
618.064	1	10
618.404	1	2
618.743	1	17
619.082	1	10
619.422	1	0
619.761	1	4
620.100	1	-1
620.440	1	13
620.779	1	6
621.118	1	10
621.458	1	5
621.797	1	1
622.136	1	-2
622.476	1	16
622.815	1	-2
623.154	1	0
623.494	1	-2
623.833	1	13
624.172	1	6
624.511	1	11
624.851	1	3
625.190	1	-11
625.529	1	4
625.869	1	2
626.208	1	10
626.547	1	1
626.886	1	0
627.226	1	-2
627.565	1	7
627.904	1	6
628.243	1	4
628.583	1	-11
628.922	1	-2
629.261	1	1
629.600	1	9
629.940	1	10
630.279	1	10
630.618	1	0
630.957	1	7
631.297	1	7
631.636	1	9
631.975	1	3
632.314	1	3
632.653	1	5
632.993	1	14
633.332	1	6
633.671	1	-1
634.010	1	-3
634.349	1	2
634.689	1	13
635.028	1	5
635.367	1	7
635.706	1	2
636.045	1	12
636.384	1	7
636.724	1	10
637.063	1	6
637.402	1	-7
637.741	1	14
638.080	1	7
638.419	1	10
638.759	1	-1
639.098	1	0
639.437	1	4
639.776	1	6
640.115	1	12
640.454	1	11
640.793	1	-12
641.132	1	8
641.472	1	3
641.811	1	-1
642.150	1	-2
642.489	1	-1
642.828	1	-3
643.167	1	-2
643.506	1	17
643.845	1	0
644.184	1	-5
644.524	1	1
644.863	1	7
645.202	1	13
645.541	1	3
645.880	1	0
646.219	1	10
646.558	1	-3
646.897	1	3
647.236	1	3
647.575	1	-14
647.914	1	-7
648.253	1	5
648.592	1	-3
648.931	1	-1
649.270	1	-11
649.610	1	-8
649.949	1	1
650.288	1	7
650.627	1	12
650.966	1	4
651.305	1	-3
651.644	1	11
651.983	1	-13
652.322	1	10
652.661	1	-6
653.000	1	1
653.339	1	-2
653.678	1	2
654.017	1	-4
654.356	1	-1
654.695	1	8
655.034	1	1
655.373	1	6
655.712	1	3
656.051	1	6
656.390	1	-1
656.729	1	7
657.068	1	-8
657.406	1	11
657.745	1	4
658.084	1	4
658.423	1	7
658.762	1	13
659.101	1	6
659.440	1	-10
659.779	1	10
660.118	1	-5
660.457	1	-5
660.796	1	9
661.135	1	7
661.474	1	5
661.813	1	1
662.152	1	-1
662.491	1	18
662.829	1	2
663.168	1	-8
663.507	1	6
663.846	1	4
664.185	1	-3
664.524	1	-4
664.863	1	8
665.202	1	-2
665.541	1	-5
665.879	1	-1
666.218	1	4
666.557	1	8
666.896	1	-1
667.235	1	1
667.574	1	11
667.913	1	2
668.251	1	0
668.590	1	-1
668.929	1	-2
669.268	1	0
669.607	1	2
669.946	1	4
670.285	1	6
670.623	1	12
670.962	1	-4
671.301	1	-11
671.640	1	-13
671.979	1	10
672.317	1	1
672.656	1	-1
672.995	1	1
673.334	1	-8
673.673	1	5
674.011	1	1
674.350	1	8
674.689	1	3
675.028	1	11
675.367	1	-3
675.705	1	8
676.044	1	7
676.383	1	2
676.722	1	0
677.060	1	9
677.399	1	1
677.738	1	4
678.077	1	10
678.416	1	6
678.754	1	5
679.093	1	12
679.432	1	2
679.771	1	-1
680.109	1	1
680.448	1	2
680.787	1	7
681.125	1	11
681.464	1	-3
681.803	1	0
682.142	1	0
682.480	1	4
682.819	1	-1
683.158	1	7
683.496	1	3
683.835	1	-9
684.174	1	5
684.512	1	12
684.851	1	-1
685.190	1	3
685.529	1	-1
685.867	1	1
686.206	1	8
686.545	1	-1
686.883	1	-9
687.222	1	3
687.561	1	11
687.899	1	5
688.238	1	8
688.577	1	-4
688.746	1	0