File: Data/GaN_130K_350ms/GaN_sample F_spot6_UVVIS_130 K_200um_350 ms 2x2mm1_273.txt
340.368	1	1
340.710	1	12
341.052	1	-5
341.394	1	3
341.737	1	8
342.079	1	-5
342.421	1	8
342.763	1	-4
343.105	1	4
343.447	1	14
343.789	1	-2
344.131	1	10
344.473	1	6
344.815	1	0
345.157	1	-9
345.499	1	-3
345.841	1	-2
346.183	1	3
346.526	1	-4
346.868	1	7
347.210	1	3
347.552	1	1
347.894	1	0
348.236	1	2
348.578	1	-2
348.920	1	2
349.262	1	2
349.604	1	6
349.946	1	-2
350.288	1	-10
350.630	1	7
350.972	1	6
351.314	1	-1
351.656	1	5
351.998	1	3
352.340	1	7
352.682	1	-2
353.024	1	-2
353.366	1	10
353.708	1	-7
354.050	1	8
354.392	1	7
354.734	1	8
355.076	1	-5
355.418	1	-3
355.760	1	0
356.102	1	0
356.444	1	-10
356.785	1	15
357.127	1	4
357.469	1	-4
357.811	1	1
358.153	1	-7
358.495	1	2
358.837	1	2
359.179	1	-2
359.521	1	-2
359.863	1	0
360.205	1	7
360.547	1	4
360.889	1	-1
361.231	1	-1
361.572	1	14
361.914	1	3
362.256	1	-1
362.598	1	15
362.940	1	-1
363.282	1	10
363.624	1	-4
363.966	1	13
364.308	1	8
364.649	1	2
364.991	1	6
365.333	1	-3
365.675	1	10
366.017	1	9
366.359	1	8
366.701	1	14
367.042	1	15
367.384	1	14
367.726	1	12
368.068	1	3
368.410	1	1
368.752	1	9
369.093	1	5
369.435	1	-1
369.777	1	2
370.119	1	14
370.461	1	10
370.803	1	16
371.144	1	3
371.486	1	15
371.828	1	7
372.170	1	5
372.512	1	11
372.853	1	3
373.195	1	3
373.537	1	0
373.879	1	-1
374.220	1	7
374.562	1	1
374.904	1	8
375.246	1	10
375.588	1	6
375.929	1	-8
376.271	1	8
376.613	1	0
376.955	1	4
377.296	1	0
377.638	1	-10
377.980	1	-3
378.321	1	5
378.663	1	7
379.005	1	16
379.347	1	2
379.688	1	9
380.030	1	7
380.372	1	2
380.714	1	17
381.055	1	9
381.397	1	1
381.739	1	8
382.080	1	-8
382.422	1	16
382.764	1	-1
383.105	1	1
383.447	1	2
383.789	1	8
384.130	1	20
384.472	1	14
384.814	1	-2
385.156	1	7
385.497	1	6
385.839	1	7
386.180	1	4
386.522	1	-1
386.864	1	15
387.205	1	-3
387.547	1	7
387.889	1	-3
388.230	1	-3
388.572	1	4
388.914	1	4
389.255	1	12
389.597	1	-10
389.939	1	7
390.280	1	11
390.622	1	7
390.963	1	9
391.305	1	7
391.647	1	2
391.988	1	13
392.330	1	4
392.671	1	-11
393.013	1	13
393.355	1	6
393.696	1	-6
394.038	1	11
394.379	1	6
394.721	1	6
395.062	1	12
395.404	1	-8
395.746	1	7
396.087	1	10
396.429	1	6
396.770	1	12
397.112	1	15
397.453	1	2
397.795	1	-4
398.136	1	6
398.478	1	8
398.819	1	-13
399.161	1	9
399.503	1	7
399.844	1	4
400.186	1	2
400.527	1	13
400.869	1	10
401.210	1	-13
401.552	1	12
401.893	1	-5
402.235	1	9
402.576	1	-1
402.918	1	15
403.259	1	-6
403.601	1	6
403.942	1	5
404.284	1	-1
404.625	1	13
404.967	1	8
405.308	1	4
405.649	1	13
405.991	1	-1
406.332	1	12
406.674	1	10
407.015	1	3
407.357	1	-4
407.698	1	3
408.040	1	6
408.381	1	15
408.722	1	2
409.064	1	3
409.405	1	11
409.747	1	1
410.088	1	10
410.430	1	6
410.771	1	-6
411.112	1	10
411.454	1	4
411.795	1	4
412.137	1	-4
412.478	1	-1
412.819	1	8
413.161	1	4
413.502	1	19
413.844	1	0
414.185	1	9
414.526	1	1
414.868	1	0
415.209	1	-8
415.550	1	4
415.892	1	9
416.233	1	7
416.575	1	6
416.916	1	-4
417.257	1	6
417.599	1	7
417.940	1	13
418.281	1	2
418.623	1	11
418.964	1	-2
419.305	1	-8
419.647	1	0
419.988	1	11
420.329	1	7
420.671	1	-4
421.012	1	0
421.353	1	-4
421.695	1	6
422.036	1	5
422.377	1	7
422.718	1	0
423.060	1	8
423.401	1	9
423.742	1	0
424.084	1	10
424.425	1	6
424.766	1	5
425.107	1	6
425.449	1	7
425.790	1	8
426.131	1	15
426.472	1	-3
426.814	1	-2
427.155	1	2
427.496	1	0
427.837	1	1
428.179	1	8
428.520	1	7
428.861	1	1
429.202	1	4
429.544	1	7
429.885	1	1
430.226	1	2
430.567	1	0
430.909	1	6
431.250	1	7
431.591	1	0
431.932	1	-8
432.273	1	0
432.615	1	7
432.956	1	-3
433.297	1	8
433.638	1	0
433.979	1	9
434.320	1	12
434.662	1	4
435.003	1	9
435.344	1	9
435.685	1	-13
436.026	1	6
436.368	1	-7
436.709	1	-3
437.050	1	3
437.391	1	13
437.732	1	4
438.073	1	11
438.414	1	-6
438.756	1	1
439.097	1	6
439.438	1	9
439.779	1	5
440.120	1	2
440.461	1	14
440.802	1	0
441.143	1	-1
441.485	1	12
441.826	1	3
442.167	1	3
442.508	1	5
442.849	1	6
443.190	1	4
443.531	1	2
443.872	1	7
444.213	1	9
444.554	1	8
444.895	1	6
445.237	1	0
445.578	1	-13
445.919	1	-2
446.260	1	0
446.601	1	13
446.942	1	-2
447.283	1	0
447.624	1	2
447.965	1	5
448.306	1	4
448.647	1	16
448.988	1	6
449.329	1	3
449.670	1	-3
450.011	1	2
450.352	1	1
450.693	1	-1
451.034	1	-1
451.375	1	-1
451.716	1	-3
452.057	1	9
452.398	1	-10
452.739	1	3
453.080	1	0
453.421	1	4
453.762	1	9
454.103	1	1
454.444	1	1
454.785	1	4
455.126	1	-4
455.467	1	5
455.808	1	7
456.149	1	-9
456.490	1	6
456.831	1	9
457.172	1	0
457.513	1	0
457.854	1	-4
458.195	1	-9
458.536	1	-4
458.877	1	19
459.218	1	4
459.559	1	-6
459.899	1	0
460.240	1	18
460.581	1	3
460.922	1	2
461.263	1	4
461.604	1	-8
461.945	1	14
462.286	1	3
462.627	1	0
462.968	1	4
463.309	1	2
463.649	1	-2
463.990	1	-1
464.331	1	6
464.672	1	5
465.013	1	-8
465.354	1	4
465.695	1	1
466.036	1	-2
466.376	1	10
466.717	1	8
467.058	1	10
467.399	1	0
467.740	1	10
468.081	1	11
468.422	1	6
468.762	1	-4
469.103	1	-1
469.444	1	5
469.785	1	9
470.126	1	0
470.467	1	3
470.807	1	7
471.148	1	6
471.489	1	-8
471.830	1	2
472.171	1	6
472.511	1	6
472.852	1	12
473.193	1	4
473.534	1	3
473.875	1	5
474.215	1	1
474.556	1	12
474.897	1	-7
475.238	1	19
475.578	1	1
475.919	1	-2
476.260	1	7
476.601	1	-4
476.942	1	7
477.282	1	5
477.623	1	-1
477.964	1	4
478.305	1	21
478.645	1	4
478.986	1	-15
479.327	1	4
479.667	1	11
480.008	1	1
480.349	1	8
480.690	1	1
481.030	1	-2
481.371	1	14
481.712	1	2
482.053	1	3
482.393	1	-7
482.734	1	6
483.075	1	18
483.415	1	-5
483.756	1	0
484.097	1	-11
484.437	1	8
484.778	1	9
485.119	1	6
485.459	1	-10
485.800	1	14
486.141	1	-3
486.481	1	-4
486.822	1	5
487.163	1	-5
487.503	1	-9
487.844	1	-5
488.185	1	9
488.525	1	4
488.866	1	2
489.207	1	9
489.547	1	3
489.888	1	9
490.228	1	-5
490.569	1	8
490.910	1	-4
491.250	1	9
491.591	1	-2
491.932	1	7
492.272	1	-4
492.613	1	-3
492.953	1	8
493.294	1	-3
493.635	1	5
493.975	1	14
494.316	1	7
494.656	1	-1
494.997	1	4
495.337	1	0
495.678	1	-1
496.019	1	-4
496.359	1	3
496.700	1	0
497.040	1	16
497.381	1	-4
497.721	1	-4
498.062	1	-2
498.403	1	3
498.743	1	6
499.084	1	12
499.424	1	0
499.765	1	-7
500.105	1	13
500.446	1	3
500.786	1	8
501.127	1	6
501.467	1	-2
501.808	1	7
502.148	1	3
502.489	1	5
502.829	1	3
503.170	1	-1
503.510	1	2
503.851	1	6
504.191	1	7
504.532	1	2
504.872	1	6
505.213	1	-3
505.553	1	2
505.894	1	7
506.234	1	4
506.575	1	-3
506.915	1	6
507.256	1	6
507.596	1	10
507.936	1	-5
508.277	1	-3
508.617	1	-3
508.958	1	6
509.298	1	9
509.639	1	3
509.979	1	0
510.319	1	12
510.660	1	-4
511.000	1	2
511.341	1	-6
511.681	1	1
512.022	1	4
512.362	1	-2
512.702	1	13
513.043	1	7
513.383	1	6
513.724	1	-5
514.064	1	-6
514.404	1	5
514.745	1	-4
515.085	1	2
515.425	1	0
515.766	1	7
516.106	1	-8
516.447	1	4
516.787	1	-2
517.127	1	5
517.468	1	-2
517.808	1	6
518.148	1	9
518.489	1	3
518.829	1	7
519.169	1	5
519.510	1	1
519.850	1	11
520.190	1	14
520.531	1	5
520.871	1	-12
521.211	1	8
521.552	1	12
521.892	1	8
522.232	1	-6
522.573	1	-3
522.913	1	9
523.253	1	7
523.593	1	17
523.934	1	-2
524.274	1	-3
524.614	1	8
524.955	1	13
525.295	1	6
525.635	1	-3
525.975	1	7
526.316	1	-6
526.656	1	3
526.996	1	5
527.337	1	11
527.677	1	9
528.017	1	1
528.357	1	9
528.698	1	5
529.038	1	-10
529.378	1	9
529.718	1	11
530.058	1	1
530.399	1	1
530.739	1	8
531.079	1	5
531.419	1	14
531.760	1	-5
532.100	1	6
532.440	1	3
532.780	1	4
533.120	1	2
533.461	1	-1
533.801	1	14
534.141	1	1
534.481	1	11
534.821	1	15
535.162	1	9
535.502	1	-1
535.842	1	7
536.182	1	4
536.522	1	-5
536.862	1	-3
537.203	1	4
537.543	1	10
537.883	1	-1
538.223	1	9
538.563	1	2
538.903	1	18
539.243	1	-2
539.584	1	11
539.924	1	-1
540.264	1	5
540.604	1	2
540.944	1	3
541.284	1	8
541.624	1	14
541.964	1	0
542.305	1	1
542.645	1	4
542.985	1	5
543.325	1	6
543.665	1	7
544.005	1	12
544.345	1	1
544.685	1	18
545.025	1	3
545.365	1	11
545.705	1	-1
546.045	1	6
546.386	1	3
546.726	1	-2
547.066	1	6
547.406	1	-6
547.746	1	1
548.086	1	-4
548.426	1	1
548.766	1	5
549.106	1	-6
549.446	1	4
549.786	1	0
550.126	1	14
550.466	1	15
550.806	1	12
551.146	1	6
551.486	1	-3
551.826	1	-3
552.166	1	7
552.506	1	4
552.846	1	0
553.186	1	-9
553.526	1	1
553.866	1	-9
554.206	1	1
554.546	1	-4
554.886	1	0
555.226	1	4
555.566	1	-2
555.906	1	2
556.246	1	8
556.586	1	-1
556.926	1	7
557.266	1	3
557.606	1	-1
557.946	1	8
558.286	1	9
558.626	1	-14
558.966	1	3
559.306	1	-4
559.646	1	1
559.986	1	-2
560.325	1	-8
560.665	1	12
561.005	1	6
561.345	1	5
561.685	1	-1
562.025	1	2
562.365	1	-2
562.705	1	10
563.045	1	-7
563.385	1	5
563.725	1	0
564.064	1	8
564.404	1	-1
564.744	1	2
565.084	1	-6
565.424	1	-4
565.764	1	3
566.104	1	-5
566.444	1	11
566.783	1	4
567.123	1	-1
567.463	1	1
567.803	1	10
568.143	1	9
568.483	1	4
568.823	1	1
569.162	1	9
569.502	1	1
569.842	1	-9
570.182	1	11
570.522	1	-11
570.862	1	22
571.201	1	5
571.541	1	9
571.881	1	-3
572.221	1	5
572.561	1	-5
572.900	1	6
573.240	1	1
573.580	1	-3
573.920	1	14
574.260	1	4
574.599	1	7
574.939	1	5
575.279	1	-3
575.619	1	4
575.959	1	5
576.298	1	4
576.638	1	-9
576.978	1	-4
577.318	1	0
577.657	1	13
577.997	1	10
578.337	1	-7
578.677	1	11
579.016	1	1
579.356	1	2
579.696	1	-1
580.036	1	-4
580.375	1	-1
580.715	1	0
581.055	1	6
581.394	1	3
581.734	1	5
582.074	1	-1
582.414	1	-6
582.753	1	-4
583.093	1	2
583.433	1	13
583.772	1	6
584.112	1	12
584.452	1	7
584.791	1	-7
585.131	1	14
585.471	1	4
585.811	1	-1
586.150	1	2
586.490	1	-5
586.830	1	-9
587.169	1	4
587.509	1	7
587.849	1	9
588.188	1	14
588.528	1	5
588.867	1	4
589.207	1	-5
589.547	1	1
589.886	1	4
590.226	1	11
590.566	1	4
590.905	1	4
591.245	1	1
591.585	1	0
591.924	1	-3
592.264	1	9
592.603	1	-1
592.943	1	0
593.283	1	-5
593.622	1	2
593.962	1	13
594.301	1	-6
594.641	1	0
594.981	1	-11
595.320	1	-4
595.660	1	5
595.999	1	5
596.339	1	11
596.678	1	-6
597.018	1	9
597.358	1	0
597.697	1	-4
598.037	1	5
598.376	1	3
598.716	1	9
599.055	1	-3
599.395	1	-5
599.734	1	-5
600.074	1	7
600.413	1	13
600.753	1	8
601.092	1	0
601.432	1	-2
601.771	1	6
602.111	1	-5
602.451	1	-5
602.790	1	-9
603.130	1	11
603.469	1	5
603.809	1	-8
604.148	1	3
604.487	1	9
604.827	1	4
605.166	1	10
605.506	1	7
605.845	1	-4
606.185	1	14
606.524	1	14
606.864	1	13
607.203	1	-1
607.543	1	1
607.882	1	7
608.222	1	-8
608.561	1	2
608.901	1	5
609.240	1	-2
609.579	1	9
609.919	1	7
610.258	1	-1
610.598	1	-2
610.937	1	10
611.277	1	2
611.616	1	-9
611.955	1	1
612.295	1	7
612.634	1	-2
612.974	1	-4
613.313	1	5
613.652	1	-8
613.992	1	5
614.331	1	9
614.671	1	3
615.010	1	-6
615.349	1	7
615.689	1	1
616.028	1	13
616.368	1	-3
616.707	1	14
617.046	1	3
617.386	1	-6
617.725	1	11
618.064	1	-3
618.404	1	-1
618.743	1	12
619.082	1	3
619.422	1	6
619.761	1	-4
620.100	1	-4
620.440	1	6
620.779	1	4
621.118	1	4
621.458	1	2
621.797	1	-3
622.136	1	7
622.476	1	10
622.815	1	-4
623.154	1	3
623.494	1	11
623.833	1	5
624.172	1	-1
624.511	1	2
624.851	1	1
625.190	1	3
625.529	1	-2
625.869	1	3
626.208	1	-1
626.547	1	-2
626.886	1	0
627.226	1	-5
627.565	1	12
627.904	1	-3
628.243	1	8
628.583	1	-6
628.922	1	-3
629.261	1	-14
629.600	1	4
629.940	1	-1
630.279	1	6
630.618	1	-1
630.957	1	3
631.297	1	2
631.636	1	13
631.975	1	13
632.314	1	2
632.653	1	-12
632.993	1	6
633.332	1	-1
633.671	1	5
634.010	1	-8
634.349	1	-1
634.689	1	5
635.028	1	9
635.367	1	-2
635.706	1	-1
636.045	1	9
636.384	1	2
636.724	1	9
637.063	1	4
637.402	1	-1
637.741	1	6
638.080	1	6
638.419	1	2
638.759	1	5
639.098	1	4
639.437	1	5
639.776	1	-1
640.115	1	7
640.454	1	5
640.793	1	-6
641.132	1	8
641.472	1	3
641.811	1	4
642.150	1	-7
642.489	1	2
642.828	1	-4
643.167	1	5
643.506	1	5
643.845	1	-3
644.184	1	-6
644.524	1	-5
644.863	1	-6
645.202	1	9
645.541	1	-3
645.880	1	8
646.219	1	5
646.558	1	2
646.897	1	-3
647.236	1	-1
647.575	1	-7
647.914	1	-7
648.253	1	7
648.592	1	-3
648.931	1	-6
649.270	1	-7
649.610	1	-4
649.949	1	-6
650.288	1	-2
650.627	1	8
650.966	1	2
651.305	1	-3
651.644	1	5
651.983	1	-12
652.322	1	0
652.661	1	-5
653.000	1	-2
653.339	1	7
653.678	1	-6
654.017	1	-4
654.356	1	8
654.695	1	0
655.034	1	10
655.373	1	2
655.712	1	0
656.051	1	9
656.390	1	4
656.729	1	7
657.068	1	-2
657.406	1	7
657.745	1	-2
658.084	1	6
658.423	1	-2
658.762	1	8
659.101	1	7
659.440	1	-13
659.779	1	8
660.118	1	-2
660.457	1	6
660.796	1	3
661.135	1	8
661.474	1	-6
661.813	1	-5
662.152	1	-11
662.491	1	20
662.829	1	3
663.168	1	-6
663.507	1	9
663.846	1	-1
664.185	1	-11
664.524	1	-5
664.863	1	7
665.202	1	5
665.541	1	-4
665.879	1	4
666.218	1	5
666.557	1	1
666.896	1	6
667.235	1	5
667.574	1	14
667.913	1	12
668.251	1	-6
668.590	1	9
668.929	1	0
669.268	1	1
669.607	1	-7
669.946	1	10
670.285	1	2
670.623	1	20
670.962	1	-3
671.301	1	1
671.640	1	-12
671.979	1	4
672.317	1	4
672.656	1	-3
672.995	1	-1
673.334	1	-8
673.673	1	10
674.011	1	4
674.350	1	-4
674.689	1	8
675.028	1	11
675.367	1	3
675.705	1	7
676.044	1	6
676.383	1	2
676.722	1	-3
677.060	1	12
677.399	1	1
677.738	1	-1
678.077	1	-7
678.416	1	1
678.754	1	4
679.093	1	5
679.432	1	4
679.771	1	3
680.109	1	-4
680.448	1	7
680.787	1	0
681.125	1	16
681.464	1	-1
681.803	1	-1
682.142	1	-2
682.480	1	15
682.819	1	5
683.158	1	3
683.496	1	-5
683.835	1	-1
684.174	1	6
684.512	1	7
684.851	1	-2
685.190	1	2
685.529	1	-7
685.867	1	1
686.206	1	11
686.545	1	-2
686.883	1	1
687.222	1	4
687.561	1	4
687.899	1	3
688.238	1	7
688.577	1	-2
688.746	1	-1