File: Data/GaN_130K_350ms/GaN_sample F_spot6_UVVIS_130 K_200um_350 ms 2x2mm1_228.txt
340.368	1	-2
340.710	1	10
341.052	1	-5
341.394	1	-2
341.737	1	4
342.079	1	2
342.421	1	10
342.763	1	-1
343.105	1	2
343.447	1	3
343.789	1	10
344.131	1	14
344.473	1	-6
344.815	1	-6
345.157	1	-1
345.499	1	-4
345.841	1	4
346.183	1	4
346.526	1	2
346.868	1	4
347.210	1	2
347.552	1	3
347.894	1	-7
348.236	1	1
348.578	1	-2
348.920	1	12
349.262	1	4
349.604	1	2
349.946	1	3
350.288	1	-8
350.630	1	10
350.972	1	11
351.314	1	4
351.656	1	12
351.998	1	6
352.340	1	15
352.682	1	4
353.024	1	5
353.366	1	5
353.708	1	0
354.050	1	4
354.392	1	14
354.734	1	5
355.076	1	-1
355.418	1	7
355.760	1	5
356.102	1	-1
356.444	1	1
356.785	1	12
357.127	1	9
357.469	1	-6
357.811	1	9
358.153	1	3
358.495	1	1
358.837	1	4
359.179	1	1
359.521	1	-10
359.863	1	1
360.205	1	1
360.547	1	4
360.889	1	7
361.231	1	-1
361.572	1	15
361.914	1	0
362.256	1	1
362.598	1	3
362.940	1	-5
363.282	1	14
363.624	1	14
363.966	1	19
364.308	1	14
364.649	1	10
364.991	1	14
365.333	1	5
365.675	1	4
366.017	1	16
366.359	1	16
366.701	1	20
367.042	1	19
367.384	1	20
367.726	1	10
368.068	1	0
368.410	1	9
368.752	1	25
369.093	1	16
369.435	1	2
369.777	1	7
370.119	1	19
370.461	1	13
370.803	1	14
371.144	1	20
371.486	1	9
371.828	1	10
372.170	1	14
372.512	1	7
372.853	1	1
373.195	1	5
373.537	1	13
373.879	1	13
374.220	1	2
374.562	1	6
374.904	1	3
375.246	1	7
375.588	1	5
375.929	1	0
376.271	1	15
376.613	1	5
376.955	1	-1
377.296	1	-1
377.638	1	-7
377.980	1	3
378.321	1	7
378.663	1	4
379.005	1	27
379.347	1	8
379.688	1	1
380.030	1	7
380.372	1	12
380.714	1	12
381.055	1	6
381.397	1	4
381.739	1	6
382.080	1	0
382.422	1	6
382.764	1	9
383.105	1	7
383.447	1	12
383.789	1	11
384.130	1	9
384.472	1	8
384.814	1	3
385.156	1	2
385.497	1	-3
385.839	1	8
386.180	1	11
386.522	1	2
386.864	1	7
387.205	1	0
387.547	1	14
387.889	1	6
388.230	1	-1
388.572	1	16
388.914	1	2
389.255	1	2
389.597	1	-11
389.939	1	7
390.280	1	17
390.622	1	3
390.963	1	10
391.305	1	8
391.647	1	8
391.988	1	5
392.330	1	-4
392.671	1	-7
393.013	1	8
393.355	1	7
393.696	1	-7
394.038	1	13
394.379	1	2
394.721	1	3
395.062	1	5
395.404	1	-3
395.746	1	7
396.087	1	14
396.429	1	7
396.770	1	3
397.112	1	2
397.453	1	23
397.795	1	-6
398.136	1	15
398.478	1	5
398.819	1	-14
399.161	1	8
399.503	1	5
399.844	1	4
400.186	1	2
400.527	1	14
400.869	1	12
401.210	1	7
401.552	1	1
401.893	1	-7
402.235	1	15
402.576	1	4
402.918	1	16
403.259	1	0
403.601	1	7
403.942	1	6
404.284	1	5
404.625	1	4
404.967	1	4
405.308	1	3
405.649	1	7
405.991	1	3
406.332	1	1
406.674	1	11
407.015	1	0
407.357	1	8
407.698	1	6
408.040	1	2
408.381	1	13
408.722	1	9
409.064	1	17
409.405	1	7
409.747	1	5
410.088	1	13
410.430	1	15
410.771	1	-10
411.112	1	10
411.454	1	10
411.795	1	8
412.137	1	2
412.478	1	-4
412.819	1	7
413.161	1	18
413.502	1	14
413.844	1	3
414.185	1	9
414.526	1	7
414.868	1	-3
415.209	1	5
415.550	1	11
415.892	1	7
416.233	1	7
416.575	1	8
416.916	1	-3
417.257	1	6
417.599	1	8
417.940	1	8
418.281	1	5
418.623	1	9
418.964	1	3
419.305	1	2
419.647	1	9
419.988	1	3
420.329	1	10
420.671	1	1
421.012	1	6
421.353	1	3
421.695	1	2
422.036	1	6
422.377	1	14
422.718	1	4
423.060	1	7
423.401	1	7
423.742	1	1
424.084	1	12
424.425	1	10
424.766	1	6
425.107	1	6
425.449	1	1
425.790	1	6
426.131	1	18
426.472	1	5
426.814	1	3
427.155	1	0
427.496	1	7
427.837	1	12
428.179	1	6
428.520	1	2
428.861	1	11
429.202	1	6
429.544	1	14
429.885	1	-3
430.226	1	5
430.567	1	1
430.909	1	3
431.250	1	2
431.591	1	0
431.932	1	5
432.273	1	13
432.615	1	8
432.956	1	-4
433.297	1	10
433.638	1	5
433.979	1	7
434.320	1	11
434.662	1	13
435.003	1	25
435.344	1	6
435.685	1	-1
436.026	1	8
436.368	1	1
436.709	1	-8
437.050	1	13
437.391	1	12
437.732	1	6
438.073	1	20
438.414	1	-9
438.756	1	0
439.097	1	9
439.438	1	6
439.779	1	11
440.120	1	4
440.461	1	11
440.802	1	-9
441.143	1	-6
441.485	1	8
441.826	1	4
442.167	1	11
442.508	1	0
442.849	1	5
443.190	1	4
443.531	1	0
443.872	1	7
444.213	1	2
444.554	1	-1
444.895	1	9
445.237	1	-6
445.578	1	0
445.919	1	4
446.260	1	2
446.601	1	9
446.942	1	6
447.283	1	8
447.624	1	-4
447.965	1	1
448.306	1	8
448.647	1	14
448.988	1	-1
449.329	1	3
449.670	1	-5
450.011	1	4
450.352	1	3
450.693	1	1
451.034	1	-6
451.375	1	4
451.716	1	-6
452.057	1	14
452.398	1	-6
452.739	1	6
453.080	1	-2
453.421	1	3
453.762	1	2
454.103	1	-4
454.444	1	2
454.785	1	12
455.126	1	-6
455.467	1	4
455.808	1	17
456.149	1	-5
456.490	1	2
456.831	1	6
457.172	1	-2
457.513	1	-9
457.854	1	0
458.195	1	-1
458.536	1	12
458.877	1	17
459.218	1	14
459.559	1	3
459.899	1	2
460.240	1	8
460.581	1	-10
460.922	1	-3
461.263	1	11
461.604	1	2
461.945	1	2
462.286	1	6
462.627	1	-5
462.968	1	10
463.309	1	11
463.649	1	-12
463.990	1	2
464.331	1	1
464.672	1	3
465.013	1	-2
465.354	1	-1
465.695	1	11
466.036	1	2
466.376	1	0
466.717	1	3
467.058	1	11
467.399	1	-1
467.740	1	11
468.081	1	12
468.422	1	6
468.762	1	-3
469.103	1	7
469.444	1	-1
469.785	1	10
470.126	1	0
470.467	1	0
470.807	1	5
471.148	1	1
471.489	1	-2
471.830	1	7
472.171	1	7
472.511	1	-2
472.852	1	12
473.193	1	3
473.534	1	1
473.875	1	12
474.215	1	10
474.556	1	11
474.897	1	3
475.238	1	11
475.578	1	10
475.919	1	-1
476.260	1	0
476.601	1	8
476.942	1	9
477.282	1	8
477.623	1	-7
477.964	1	-9
478.305	1	7
478.645	1	7
478.986	1	1
479.327	1	3
479.667	1	-2
480.008	1	0
480.349	1	3
480.690	1	5
481.030	1	-1
481.371	1	10
481.712	1	2
482.053	1	3
482.393	1	11
482.734	1	-2
483.075	1	11
483.415	1	0
483.756	1	-4
484.097	1	2
484.437	1	1
484.778	1	6
485.119	1	3
485.459	1	-8
485.800	1	10
486.141	1	6
486.481	1	-2
486.822	1	8
487.163	1	-1
487.503	1	-5
487.844	1	-3
488.185	1	1
488.525	1	2
488.866	1	3
489.207	1	10
489.547	1	4
489.888	1	11
490.228	1	3
490.569	1	5
490.910	1	3
491.250	1	7
491.591	1	-6
491.932	1	4
492.272	1	5
492.613	1	-6
492.953	1	-1
493.294	1	5
493.635	1	7
493.975	1	12
494.316	1	6
494.656	1	0
494.997	1	3
495.337	1	3
495.678	1	5
496.019	1	-3
496.359	1	12
496.700	1	3
497.040	1	12
497.381	1	8
497.721	1	3
498.062	1	0
498.403	1	-3
498.743	1	6
499.084	1	9
499.424	1	-1
499.765	1	0
500.105	1	6
500.446	1	1
500.786	1	2
501.127	1	0
501.467	1	-1
501.808	1	2
502.148	1	2
502.489	1	10
502.829	1	0
503.170	1	-8
503.510	1	10
503.851	1	-3
504.191	1	2
504.532	1	4
504.872	1	3
505.213	1	3
505.553	1	10
505.894	1	17
506.234	1	0
506.575	1	-6
506.915	1	-1
507.256	1	12
507.596	1	2
507.936	1	-2
508.277	1	-4
508.617	1	0
508.958	1	15
509.298	1	0
509.639	1	11
509.979	1	0
510.319	1	11
510.660	1	-4
511.000	1	10
511.341	1	7
511.681	1	11
512.022	1	15
512.362	1	-4
512.702	1	13
513.043	1	6
513.383	1	5
513.724	1	-9
514.064	1	-6
514.404	1	17
514.745	1	7
515.085	1	11
515.425	1	-3
515.766	1	6
516.106	1	6
516.447	1	5
516.787	1	11
517.127	1	10
517.468	1	12
517.808	1	4
518.148	1	13
518.489	1	3
518.829	1	8
519.169	1	5
519.510	1	6
519.850	1	11
520.190	1	17
520.531	1	15
520.871	1	6
521.211	1	9
521.552	1	10
521.892	1	2
522.232	1	0
522.573	1	2
522.913	1	8
523.253	1	8
523.593	1	6
523.934	1	10
524.274	1	0
524.614	1	3
524.955	1	10
525.295	1	9
525.635	1	2
525.975	1	16
526.316	1	2
526.656	1	8
526.996	1	1
527.337	1	5
527.677	1	0
528.017	1	4
528.357	1	3
528.698	1	4
529.038	1	-5
529.378	1	5
529.718	1	10
530.058	1	4
530.399	1	6
530.739	1	13
531.079	1	4
531.419	1	8
531.760	1	7
532.100	1	13
532.440	1	4
532.780	1	-2
533.120	1	11
533.461	1	5
533.801	1	13
534.141	1	6
534.481	1	3
534.821	1	14
535.162	1	8
535.502	1	7
535.842	1	0
536.182	1	12
536.522	1	-4
536.862	1	7
537.203	1	3
537.543	1	10
537.883	1	-6
538.223	1	11
538.563	1	3
538.903	1	17
539.243	1	5
539.584	1	9
539.924	1	4
540.264	1	2
540.604	1	6
540.944	1	5
541.284	1	8
541.624	1	16
541.964	1	0
542.305	1	6
542.645	1	8
542.985	1	14
543.325	1	1
543.665	1	9
544.005	1	9
544.345	1	6
544.685	1	16
545.025	1	0
545.365	1	12
545.705	1	7
546.045	1	8
546.386	1	3
546.726	1	7
547.066	1	5
547.406	1	-3
547.746	1	3
548.086	1	6
548.426	1	5
548.766	1	3
549.106	1	-2
549.446	1	0
549.786	1	4
550.126	1	16
550.466	1	10
550.806	1	19
551.146	1	5
551.486	1	11
551.826	1	5
552.166	1	13
552.506	1	-1
552.846	1	2
553.186	1	6
553.526	1	4
553.866	1	-8
554.206	1	-1
554.546	1	10
554.886	1	6
555.226	1	7
555.566	1	1
555.906	1	9
556.246	1	0
556.586	1	-1
556.926	1	7
557.266	1	13
557.606	1	1
557.946	1	4
558.286	1	17
558.626	1	-5
558.966	1	2
559.306	1	9
559.646	1	12
559.986	1	-1
560.325	1	0
560.665	1	12
561.005	1	10
561.345	1	11
561.685	1	2
562.025	1	-3
562.365	1	12
562.705	1	4
563.045	1	2
563.385	1	-6
563.725	1	4
564.064	1	3
564.404	1	2
564.744	1	3
565.084	1	2
565.424	1	-6
565.764	1	7
566.104	1	6
566.444	1	9
566.783	1	10
567.123	1	-3
567.463	1	2
567.803	1	16
568.143	1	17
568.483	1	4
568.823	1	1
569.162	1	11
569.502	1	8
569.842	1	-2
570.182	1	-1
570.522	1	-16
570.862	1	18
571.201	1	6
571.541	1	2
571.881	1	4
572.221	1	11
572.561	1	12
572.900	1	2
573.240	1	-2
573.580	1	0
573.920	1	4
574.260	1	7
574.599	1	16
574.939	1	9
575.279	1	-5
575.619	1	5
575.959	1	5
576.298	1	5
576.638	1	-7
576.978	1	-8
577.318	1	-3
577.657	1	8
577.997	1	7
578.337	1	3
578.677	1	18
579.016	1	1
579.356	1	9
579.696	1	2
580.036	1	2
580.375	1	-1
580.715	1	4
581.055	1	2
581.394	1	-1
581.734	1	3
582.074	1	-7
582.414	1	2
582.753	1	6
583.093	1	3
583.433	1	4
583.772	1	2
584.112	1	8
584.452	1	15
584.791	1	3
585.131	1	12
585.471	1	4
585.811	1	5
586.150	1	7
586.490	1	3
586.830	1	-6
587.169	1	8
587.509	1	7
587.849	1	6
588.188	1	8
588.528	1	16
588.867	1	9
589.207	1	-4
589.547	1	-5
589.886	1	-6
590.226	1	4
590.566	1	7
590.905	1	-1
591.245	1	-1
591.585	1	1
591.924	1	4
592.264	1	1
592.603	1	-2
592.943	1	5
593.283	1	-6
593.622	1	6
593.962	1	0
594.301	1	-2
594.641	1	4
594.981	1	-8
595.320	1	13
595.660	1	0
595.999	1	2
596.339	1	5
596.678	1	-11
597.018	1	5
597.358	1	3
597.697	1	10
598.037	1	0
598.376	1	-4
598.716	1	1
599.055	1	4
599.395	1	-4
599.734	1	0
600.074	1	2
600.413	1	10
600.753	1	4
601.092	1	0
601.432	1	-2
601.771	1	4
602.111	1	-8
602.451	1	6
602.790	1	9
603.130	1	11
603.469	1	14
603.809	1	2
604.148	1	0
604.487	1	5
604.827	1	-2
605.166	1	9
605.506	1	1
605.845	1	4
606.185	1	9
606.524	1	3
606.864	1	11
607.203	1	-5
607.543	1	7
607.882	1	14
608.222	1	-5
608.561	1	-2
608.901	1	10
609.240	1	-3
609.579	1	4
609.919	1	11
610.258	1	2
610.598	1	6
610.937	1	1
611.277	1	-5
611.616	1	-2
611.955	1	-4
612.295	1	5
612.634	1	3
612.974	1	10
613.313	1	6
613.652	1	-8
613.992	1	6
614.331	1	7
614.671	1	9
615.010	1	2
615.349	1	-7
615.689	1	5
616.028	1	9
616.368	1	6
616.707	1	13
617.046	1	4
617.386	1	-6
617.725	1	3
618.064	1	-1
618.404	1	-9
618.743	1	6
619.082	1	14
619.422	1	7
619.761	1	5
620.100	1	-4
620.440	1	4
620.779	1	12
621.118	1	3
621.458	1	11
621.797	1	0
622.136	1	6
622.476	1	6
622.815	1	-5
623.154	1	4
623.494	1	5
623.833	1	8
624.172	1	7
624.511	1	7
624.851	1	2
625.190	1	-3
625.529	1	-3
625.869	1	5
626.208	1	-2
626.547	1	-5
626.886	1	-1
627.226	1	8
627.565	1	6
627.904	1	6
628.243	1	15
628.583	1	-5
628.922	1	-2
629.261	1	-9
629.600	1	-1
629.940	1	15
630.279	1	8
630.618	1	-2
630.957	1	5
631.297	1	-1
631.636	1	14
631.975	1	3
632.314	1	2
632.653	1	-6
632.993	1	2
633.332	1	6
633.671	1	-1
634.010	1	-6
634.349	1	-2
634.689	1	-2
635.028	1	3
635.367	1	2
635.706	1	-2
636.045	1	13
636.384	1	3
636.724	1	13
637.063	1	8
637.402	1	-6
637.741	1	-1
638.080	1	6
638.419	1	2
638.759	1	5
639.098	1	-3
639.437	1	7
639.776	1	3
640.115	1	20
640.454	1	10
640.793	1	-5
641.132	1	12
641.472	1	-1
641.811	1	-1
642.150	1	-10
642.489	1	-2
642.828	1	-5
643.167	1	9
643.506	1	2
643.845	1	0
644.184	1	-5
644.524	1	-1
644.863	1	9
645.202	1	40
645.541	1	0
645.880	1	11
646.219	1	3
646.558	1	-2
646.897	1	3
647.236	1	-3
647.575	1	5
647.914	1	0
648.253	1	-3
648.592	1	-9
648.931	1	-9
649.270	1	-3
649.610	1	-1
649.949	1	1
650.288	1	4
650.627	1	0
650.966	1	5
651.305	1	-5
651.644	1	1
651.983	1	-10
652.322	1	-3
652.661	1	0
653.000	1	-1
653.339	1	-7
653.678	1	1
654.017	1	-3
654.356	1	-1
654.695	1	9
655.034	1	0
655.373	1	6
655.712	1	8
656.051	1	2
656.390	1	-3
656.729	1	7
657.068	1	-4
657.406	1	6
657.745	1	6
658.084	1	-3
658.423	1	8
658.762	1	14
659.101	1	6
659.440	1	-7
659.779	1	11
660.118	1	-6
660.457	1	3
660.796	1	1
661.135	1	12
661.474	1	5
661.813	1	3
662.152	1	-3
662.491	1	12
662.829	1	11
663.168	1	-5
663.507	1	4
663.846	1	8
664.185	1	-4
664.524	1	-4
664.863	1	7
665.202	1	-8
665.541	1	2
665.879	1	-5
666.218	1	3
666.557	1	7
666.896	1	6
667.235	1	9
667.574	1	13
667.913	1	11
668.251	1	7
668.590	1	4
668.929	1	2
669.268	1	-3
669.607	1	4
669.946	1	8
670.285	1	8
670.623	1	13
670.962	1	2
671.301	1	2
671.640	1	-10
671.979	1	-1
672.317	1	-1
672.656	1	-7
672.995	1	-2
673.334	1	-4
673.673	1	7
674.011	1	3
674.350	1	-2
674.689	1	6
675.028	1	5
675.367	1	-3
675.705	1	16
676.044	1	9
676.383	1	8
676.722	1	-7
677.060	1	-2
677.399	1	4
677.738	1	-6
678.077	1	1
678.416	1	5
678.754	1	7
679.093	1	13
679.432	1	8
679.771	1	2
680.109	1	-3
680.448	1	6
680.787	1	3
681.125	1	5
681.464	1	-8
681.803	1	-4
682.142	1	1
682.480	1	15
682.819	1	5
683.158	1	3
683.496	1	-5
683.835	1	-10
684.174	1	4
684.512	1	1
684.851	1	-1
685.190	1	15
685.529	1	-1
685.867	1	4
686.206	1	-3
686.545	1	-1
686.883	1	6
687.222	1	0
687.561	1	13
687.899	1	6
688.238	1	10
688.577	1	1
688.746	1	7