File: Data/GaN_130K_350ms/GaN_sample F_spot6_UVVIS_130 K_200um_350 ms 2x2mm1_18.txt
340.368	1	2
340.710	1	3
341.052	1	-4
341.394	1	7
341.737	1	3
342.079	1	5
342.421	1	2
342.763	1	1
343.105	1	13
343.447	1	9
343.789	1	3
344.131	1	0
344.473	1	2
344.815	1	-11
345.157	1	-14
345.499	1	2
345.841	1	2
346.183	1	12
346.526	1	-2
346.868	1	-1
347.210	1	-5
347.552	1	-3
347.894	1	1
348.236	1	4
348.578	1	2
348.920	1	5
349.262	1	10
349.604	1	8
349.946	1	7
350.288	1	-5
350.630	1	7
350.972	1	8
351.314	1	-6
351.656	1	12
351.998	1	3
352.340	1	10
352.682	1	0
353.024	1	0
353.366	1	3
353.708	1	-10
354.050	1	-1
354.392	1	11
354.734	1	3
355.076	1	-4
355.418	1	6
355.760	1	6
356.102	1	-1
356.444	1	-7
356.785	1	5
357.127	1	5
357.469	1	2
357.811	1	-4
358.153	1	3
358.495	1	2
358.837	1	0
359.179	1	-1
359.521	1	-16
359.863	1	4
360.205	1	-2
360.547	1	-8
360.889	1	-3
361.231	1	-1
361.572	1	0
361.914	1	11
362.256	1	-4
362.598	1	-2
362.940	1	-5
363.282	1	6
363.624	1	3
363.966	1	10
364.308	1	9
364.649	1	14
364.991	1	3
365.333	1	-11
365.675	1	2
366.017	1	7
366.359	1	7
366.701	1	-2
367.042	1	7
367.384	1	5
367.726	1	-4
368.068	1	-6
368.410	1	-7
368.752	1	4
369.093	1	2
369.435	1	-2
369.777	1	2
370.119	1	9
370.461	1	-4
370.803	1	-4
371.144	1	-4
371.486	1	7
371.828	1	4
372.170	1	-5
372.512	1	-2
372.853	1	-4
373.195	1	-6
373.537	1	4
373.879	1	7
374.220	1	0
374.562	1	-6
374.904	1	2
375.246	1	4
375.588	1	-7
375.929	1	-7
376.271	1	4
376.613	1	-7
376.955	1	1
377.296	1	5
377.638	1	-18
377.980	1	-5
378.321	1	-2
378.663	1	1
379.005	1	16
379.347	1	-7
379.688	1	-11
380.030	1	-9
380.372	1	18
380.714	1	13
381.055	1	2
381.397	1	-4
381.739	1	4
382.080	1	-8
382.422	1	8
382.764	1	-2
383.105	1	-5
383.447	1	8
383.789	1	3
384.130	1	0
384.472	1	8
384.814	1	-6
385.156	1	2
385.497	1	-6
385.839	1	2
386.180	1	8
386.522	1	-8
386.864	1	10
387.205	1	-7
387.547	1	-2
387.889	1	-7
388.230	1	-2
388.572	1	4
388.914	1	4
389.255	1	-9
389.597	1	-11
389.939	1	-2
390.280	1	4
390.622	1	7
390.963	1	3
391.305	1	0
391.647	1	9
391.988	1	4
392.330	1	-10
392.671	1	-10
393.013	1	4
393.355	1	7
393.696	1	0
394.038	1	-1
394.379	1	5
394.721	1	7
395.062	1	-2
395.404	1	-9
395.746	1	6
396.087	1	10
396.429	1	5
396.770	1	9
397.112	1	1
397.453	1	1
397.795	1	-7
398.136	1	2
398.478	1	1
398.819	1	-11
399.161	1	6
399.503	1	11
399.844	1	-5
400.186	1	-6
400.527	1	11
400.869	1	-3
401.210	1	-12
401.552	1	3
401.893	1	-4
402.235	1	4
402.576	1	3
402.918	1	4
403.259	1	0
403.601	1	6
403.942	1	4
404.284	1	-10
404.625	1	-2
404.967	1	7
405.308	1	-11
405.649	1	-1
405.991	1	-8
406.332	1	6
406.674	1	9
407.015	1	2
407.357	1	1
407.698	1	-5
408.040	1	-5
408.381	1	15
408.722	1	7
409.064	1	3
409.405	1	0
409.747	1	-5
410.088	1	7
410.430	1	14
410.771	1	-13
411.112	1	12
411.454	1	-2
411.795	1	2
412.137	1	-7
412.478	1	-5
412.819	1	0
413.161	1	8
413.502	1	11
413.844	1	3
414.185	1	4
414.526	1	4
414.868	1	-6
415.209	1	0
415.550	1	4
415.892	1	1
416.233	1	7
416.575	1	4
416.916	1	-8
417.257	1	5
417.599	1	1
417.940	1	-3
418.281	1	-11
418.623	1	6
418.964	1	-6
419.305	1	-6
419.647	1	7
419.988	1	5
420.329	1	-4
420.671	1	-11
421.012	1	6
421.353	1	-11
421.695	1	4
422.036	1	4
422.377	1	2
422.718	1	-1
423.060	1	-11
423.401	1	2
423.742	1	8
424.084	1	0
424.425	1	4
424.766	1	-4
425.107	1	0
425.449	1	10
425.790	1	13
426.131	1	4
426.472	1	-1
426.814	1	0
427.155	1	-6
427.496	1	9
427.837	1	2
428.179	1	-2
428.520	1	-2
428.861	1	-2
429.202	1	12
429.544	1	7
429.885	1	11
430.226	1	0
430.567	1	-6
430.909	1	-6
431.250	1	2
431.591	1	-4
431.932	1	6
432.273	1	8
432.615	1	3
432.956	1	-2
433.297	1	8
433.638	1	2
433.979	1	4
434.320	1	-4
434.662	1	11
435.003	1	7
435.344	1	-2
435.685	1	-9
436.026	1	10
436.368	1	-5
436.709	1	-2
437.050	1	1
437.391	1	14
437.732	1	2
438.073	1	5
438.414	1	-7
438.756	1	6
439.097	1	2
439.438	1	1
439.779	1	11
440.120	1	2
440.461	1	1
440.802	1	-11
441.143	1	-4
441.485	1	11
441.826	1	-3
442.167	1	-1
442.508	1	-1
442.849	1	5
443.190	1	-2
443.531	1	-6
443.872	1	6
444.213	1	-2
444.554	1	4
444.895	1	-3
445.237	1	-2
445.578	1	-8
445.919	1	-3
446.260	1	1
446.601	1	6
446.942	1	4
447.283	1	6
447.624	1	-1
447.965	1	2
448.306	1	-1
448.647	1	11
448.988	1	5
449.329	1	6
449.670	1	-1
450.011	1	-4
450.352	1	7
450.693	1	3
451.034	1	-6
451.375	1	9
451.716	1	-2
452.057	1	16
452.398	1	-9
452.739	1	5
453.080	1	-6
453.421	1	1
453.762	1	6
454.103	1	-6
454.444	1	1
454.785	1	11
455.126	1	-15
455.467	1	9
455.808	1	6
456.149	1	6
456.490	1	6
456.831	1	-3
457.172	1	3
457.513	1	-12
457.854	1	-7
458.195	1	1
458.536	1	2
458.877	1	25
459.218	1	9
459.559	1	2
459.899	1	4
460.240	1	12
460.581	1	-3
460.922	1	4
461.263	1	9
461.604	1	-6
461.945	1	5
462.286	1	2
462.627	1	7
462.968	1	2
463.309	1	0
463.649	1	-4
463.990	1	2
464.331	1	11
464.672	1	6
465.013	1	-14
465.354	1	2
465.695	1	9
466.036	1	5
466.376	1	6
466.717	1	14
467.058	1	1
467.399	1	4
467.740	1	14
468.081	1	4
468.422	1	-3
468.762	1	-4
469.103	1	5
469.444	1	0
469.785	1	5
470.126	1	-8
470.467	1	-1
470.807	1	-4
471.148	1	-3
471.489	1	-9
471.830	1	4
472.171	1	9
472.511	1	3
472.852	1	15
473.193	1	4
473.534	1	1
473.875	1	8
474.215	1	10
474.556	1	3
474.897	1	2
475.238	1	12
475.578	1	4
475.919	1	-6
476.260	1	3
476.601	1	-8
476.942	1	9
477.282	1	14
477.623	1	-6
477.964	1	0
478.305	1	4
478.645	1	3
478.986	1	2
479.327	1	-5
479.667	1	6
480.008	1	-4
480.349	1	-3
480.690	1	3
481.030	1	-7
481.371	1	7
481.712	1	11
482.053	1	-1
482.393	1	6
482.734	1	2
483.075	1	16
483.415	1	-3
483.756	1	2
484.097	1	4
484.437	1	-6
484.778	1	7
485.119	1	0
485.459	1	-12
485.800	1	3
486.141	1	-3
486.481	1	4
486.822	1	10
487.163	1	1
487.503	1	-1
487.844	1	0
488.185	1	1
488.525	1	5
488.866	1	1
489.207	1	6
489.547	1	0
489.888	1	12
490.228	1	6
490.569	1	4
490.910	1	-2
491.250	1	8
491.591	1	-13
491.932	1	1
492.272	1	2
492.613	1	9
492.953	1	4
493.294	1	8
493.635	1	7
493.975	1	4
494.316	1	0
494.656	1	-3
494.997	1	-1
495.337	1	-3
495.678	1	-7
496.019	1	-9
496.359	1	3
496.700	1	-2
497.040	1	8
497.381	1	-8
497.721	1	-1
498.062	1	-9
498.403	1	-2
498.743	1	2
499.084	1	12
499.424	1	-11
499.765	1	-6
500.105	1	-4
500.446	1	5
500.786	1	12
501.127	1	2
501.467	1	-2
501.808	1	6
502.148	1	-5
502.489	1	4
502.829	1	-5
503.170	1	-8
503.510	1	2
503.851	1	2
504.191	1	3
504.532	1	6
504.872	1	6
505.213	1	2
505.553	1	-2
505.894	1	-1
506.234	1	-1
506.575	1	1
506.915	1	-6
507.256	1	7
507.596	1	-3
507.936	1	-7
508.277	1	-6
508.617	1	-8
508.958	1	2
509.298	1	4
509.639	1	3
509.979	1	-2
510.319	1	11
510.660	1	0
511.000	1	0
511.341	1	-5
511.681	1	6
512.022	1	5
512.362	1	-3
512.702	1	13
513.043	1	-1
513.383	1	3
513.724	1	-7
514.064	1	-1
514.404	1	2
514.745	1	4
515.085	1	16
515.425	1	-1
515.766	1	-4
516.106	1	-3
516.447	1	-2
516.787	1	1
517.127	1	-1
517.468	1	1
517.808	1	-3
518.148	1	4
518.489	1	2
518.829	1	8
519.169	1	-3
519.510	1	-13
519.850	1	9
520.190	1	11
520.531	1	1
520.871	1	-7
521.211	1	-6
521.552	1	-3
521.892	1	2
522.232	1	-10
522.573	1	1
522.913	1	2
523.253	1	-2
523.593	1	6
523.934	1	3
524.274	1	-8
524.614	1	-2
524.955	1	4
525.295	1	1
525.635	1	0
525.975	1	8
526.316	1	-2
526.656	1	6
526.996	1	-3
527.337	1	2
527.677	1	-5
528.017	1	5
528.357	1	-2
528.698	1	-6
529.038	1	-2
529.378	1	2
529.718	1	7
530.058	1	-3
530.399	1	7
530.739	1	0
531.079	1	-3
531.419	1	-1
531.760	1	4
532.100	1	6
532.440	1	8
532.780	1	4
533.120	1	7
533.461	1	0
533.801	1	12
534.141	1	0
534.481	1	-4
534.821	1	4
535.162	1	0
535.502	1	5
535.842	1	1
536.182	1	1
536.522	1	-9
536.862	1	-6
537.203	1	-10
537.543	1	17
537.883	1	-11
538.223	1	4
538.563	1	5
538.903	1	13
539.243	1	4
539.584	1	-4
539.924	1	-3
540.264	1	0
540.604	1	-4
540.944	1	5
541.284	1	5
541.624	1	15
541.964	1	-8
542.305	1	-7
542.645	1	-5
542.985	1	0
543.325	1	0
543.665	1	13
544.005	1	14
544.345	1	4
544.685	1	4
545.025	1	1
545.365	1	7
545.705	1	-5
546.045	1	-4
546.386	1	-2
546.726	1	-11
547.066	1	1
547.406	1	-19
547.746	1	3
548.086	1	-12
548.426	1	6
548.766	1	12
549.106	1	0
549.446	1	1
549.786	1	-2
550.126	1	6
550.466	1	0
550.806	1	-3
551.146	1	-5
551.486	1	7
551.826	1	-7
552.166	1	3
552.506	1	1
552.846	1	2
553.186	1	-2
553.526	1	2
553.866	1	-14
554.206	1	2
554.546	1	-1
554.886	1	2
555.226	1	4
555.566	1	4
555.906	1	2
556.246	1	-3
556.586	1	3
556.926	1	-3
557.266	1	5
557.606	1	-4
557.946	1	12
558.286	1	7
558.626	1	-6
558.966	1	-8
559.306	1	4
559.646	1	3
559.986	1	6
560.325	1	-7
560.665	1	9
561.005	1	3
561.345	1	9
561.685	1	0
562.025	1	1
562.365	1	1
562.705	1	5
563.045	1	0
563.385	1	4
563.725	1	-9
564.064	1	7
564.404	1	-2
564.744	1	3
565.084	1	-4
565.424	1	3
565.764	1	2
566.104	1	-7
566.444	1	2
566.783	1	18
567.123	1	1
567.463	1	-1
567.803	1	8
568.143	1	7
568.483	1	4
568.823	1	-12
569.162	1	6
569.502	1	-9
569.842	1	1
570.182	1	1
570.522	1	-13
570.862	1	16
571.201	1	-1
571.541	1	0
571.881	1	5
572.221	1	15
572.561	1	7
572.900	1	1
573.240	1	3
573.580	1	1
573.920	1	7
574.260	1	8
574.599	1	3
574.939	1	6
575.279	1	-11
575.619	1	-2
575.959	1	7
576.298	1	4
576.638	1	-1
576.978	1	-8
577.318	1	-4
577.657	1	3
577.997	1	7
578.337	1	1
578.677	1	4
579.016	1	-2
579.356	1	14
579.696	1	-1
580.036	1	7
580.375	1	-5
580.715	1	5
581.055	1	0
581.394	1	5
581.734	1	4
582.074	1	-2
582.414	1	-10
582.753	1	-1
583.093	1	4
583.433	1	6
583.772	1	-7
584.112	1	5
584.452	1	13
584.791	1	2
585.131	1	10
585.471	1	-3
585.811	1	4
586.150	1	-3
586.490	1	0
586.830	1	-4
587.169	1	9
587.509	1	3
587.849	1	-4
588.188	1	9
588.528	1	9
588.867	1	6
589.207	1	-5
589.547	1	-2
589.886	1	-6
590.226	1	10
590.566	1	2
590.905	1	5
591.245	1	0
591.585	1	7
591.924	1	3
592.264	1	-1
592.603	1	-9
592.943	1	6
593.283	1	-3
593.622	1	16
593.962	1	12
594.301	1	-5
594.641	1	-1
594.981	1	-5
595.320	1	15
595.660	1	1
595.999	1	8
596.339	1	8
596.678	1	-1
597.018	1	5
597.358	1	-12
597.697	1	-2
598.037	1	3
598.376	1	7
598.716	1	8
599.055	1	-5
599.395	1	-7
599.734	1	-5
600.074	1	12
600.413	1	7
600.753	1	1
601.092	1	-11
601.432	1	-6
601.771	1	-1
602.111	1	0
602.451	1	-2
602.790	1	-3
603.130	1	8
603.469	1	2
603.809	1	3
604.148	1	2
604.487	1	7
604.827	1	-2
605.166	1	3
605.506	1	5
605.845	1	-8
606.185	1	9
606.524	1	9
606.864	1	10
607.203	1	-4
607.543	1	5
607.882	1	8
608.222	1	-8
608.561	1	-7
608.901	1	10
609.240	1	-7
609.579	1	5
609.919	1	2
610.258	1	-2
610.598	1	0
610.937	1	1
611.277	1	4
611.616	1	0
611.955	1	-6
612.295	1	0
612.634	1	1
612.974	1	10
613.313	1	-2
613.652	1	-5
613.992	1	-4
614.331	1	2
614.671	1	2
615.010	1	-2
615.349	1	2
615.689	1	2
616.028	1	18
616.368	1	-2
616.707	1	10
617.046	1	15
617.386	1	-8
617.725	1	3
618.064	1	-2
618.404	1	9
618.743	1	8
619.082	1	-1
619.422	1	-1
619.761	1	9
620.100	1	-1
620.440	1	2
620.779	1	2
621.118	1	3
621.458	1	11
621.797	1	-1
622.136	1	2
622.476	1	5
622.815	1	5
623.154	1	7
623.494	1	11
623.833	1	5
624.172	1	0
624.511	1	5
624.851	1	-2
625.190	1	-10
625.529	1	6
625.869	1	1
626.208	1	3
626.547	1	0
626.886	1	1
627.226	1	-3
627.565	1	0
627.904	1	13
628.243	1	7
628.583	1	-12
628.922	1	-3
629.261	1	-7
629.600	1	-9
629.940	1	11
630.279	1	7
630.618	1	0
630.957	1	-5
631.297	1	2
631.636	1	4
631.975	1	4
632.314	1	2
632.653	1	7
632.993	1	8
633.332	1	-5
633.671	1	-3
634.010	1	-3
634.349	1	7
634.689	1	4
635.028	1	-3
635.367	1	5
635.706	1	-3
636.045	1	21
636.384	1	5
636.724	1	7
637.063	1	4
637.402	1	-12
637.741	1	4
638.080	1	14
638.419	1	2
638.759	1	2
639.098	1	-6
639.437	1	11
639.776	1	-10
640.115	1	2
640.454	1	6
640.793	1	-13
641.132	1	16
641.472	1	-1
641.811	1	1
642.150	1	-10
642.489	1	-8
642.828	1	-1
643.167	1	-2
643.506	1	12
643.845	1	-1
644.184	1	-9
644.524	1	-4
644.863	1	2
645.202	1	7
645.541	1	-1
645.880	1	5
646.219	1	3
646.558	1	-4
646.897	1	2
647.236	1	-6
647.575	1	-12
647.914	1	-8
648.253	1	8
648.592	1	5
648.931	1	-4
649.270	1	-11
649.610	1	6
649.949	1	2
650.288	1	5
650.627	1	-2
650.966	1	6
651.305	1	-2
651.644	1	0
651.983	1	-16
652.322	1	-5
652.661	1	-4
653.000	1	-4
653.339	1	4
653.678	1	-2
654.017	1	-3
654.356	1	4
654.695	1	-1
655.034	1	-4
655.373	1	-10
655.712	1	-1
656.051	1	7
656.390	1	5
656.729	1	4
657.068	1	-2
657.406	1	9
657.745	1	-4
658.084	1	1
658.423	1	2
658.762	1	12
659.101	1	3
659.440	1	-8
659.779	1	0
660.118	1	-2
660.457	1	-7
660.796	1	3
661.135	1	4
661.474	1	12
661.813	1	1
662.152	1	3
662.491	1	4
662.829	1	6
663.168	1	-3
663.507	1	-2
663.846	1	2
664.185	1	-8
664.524	1	0
664.863	1	2
665.202	1	-7
665.541	1	-4
665.879	1	-4
666.218	1	1
666.557	1	1
666.896	1	6
667.235	1	6
667.574	1	10
667.913	1	6
668.251	1	4
668.590	1	3
668.929	1	4
669.268	1	1
669.607	1	-3
669.946	1	8
670.285	1	0
670.623	1	18
670.962	1	-5
671.301	1	1
671.640	1	-1
671.979	1	-5
672.317	1	3
672.656	1	-1
672.995	1	3
673.334	1	-9
673.673	1	2
674.011	1	-2
674.350	1	3
674.689	1	9
675.028	1	12
675.367	1	2
675.705	1	17
676.044	1	6
676.383	1	3
676.722	1	-5
677.060	1	6
677.399	1	-8
677.738	1	2
678.077	1	-1
678.416	1	11
678.754	1	-3
679.093	1	-1
679.432	1	10
679.771	1	4
680.109	1	-1
680.448	1	5
680.787	1	8
681.125	1	10
681.464	1	-3
681.803	1	1
682.142	1	5
682.480	1	12
682.819	1	5
683.158	1	5
683.496	1	-3
683.835	1	-6
684.174	1	2
684.512	1	0
684.851	1	-9
685.190	1	3
685.529	1	-4
685.867	1	-1
686.206	1	8
686.545	1	1
686.883	1	-6
687.222	1	8
687.561	1	-1
687.899	1	-6
688.238	1	10
688.577	1	-3
688.746	1	1