File: Data/GaN_130K_350ms/GaN_sample F_spot6_UVVIS_130 K_200um_350 ms 2x2mm1_305.txt
340.368	1	9
340.710	1	6
341.052	1	-15
341.394	1	-2
341.737	1	-4
342.079	1	2
342.421	1	4
342.763	1	-3
343.105	1	-3
343.447	1	6
343.789	1	2
344.131	1	3
344.473	1	-1
344.815	1	-9
345.157	1	-4
345.499	1	-4
345.841	1	-1
346.183	1	9
346.526	1	2
346.868	1	-5
347.210	1	-4
347.552	1	-6
347.894	1	-1
348.236	1	0
348.578	1	-8
348.920	1	0
349.262	1	6
349.604	1	1
349.946	1	4
350.288	1	-6
350.630	1	2
350.972	1	14
351.314	1	-5
351.656	1	11
351.998	1	-6
352.340	1	12
352.682	1	-3
353.024	1	-4
353.366	1	6
353.708	1	5
354.050	1	1
354.392	1	10
354.734	1	7
355.076	1	-2
355.418	1	9
355.760	1	5
356.102	1	9
356.444	1	-15
356.785	1	13
357.127	1	8
357.469	1	-6
357.811	1	-4
358.153	1	12
358.495	1	5
358.837	1	5
359.179	1	4
359.521	1	-2
359.863	1	9
360.205	1	-12
360.547	1	7
360.889	1	-2
361.231	1	-3
361.572	1	14
361.914	1	9
362.256	1	2
362.598	1	3
362.940	1	-2
363.282	1	14
363.624	1	9
363.966	1	15
364.308	1	18
364.649	1	11
364.991	1	7
365.333	1	-2
365.675	1	3
366.017	1	12
366.359	1	14
366.701	1	7
367.042	1	17
367.384	1	14
367.726	1	9
368.068	1	6
368.410	1	3
368.752	1	9
369.093	1	14
369.435	1	1
369.777	1	6
370.119	1	6
370.461	1	11
370.803	1	3
371.144	1	2
371.486	1	11
371.828	1	-2
372.170	1	-1
372.512	1	8
372.853	1	2
373.195	1	-8
373.537	1	9
373.879	1	12
374.220	1	-3
374.562	1	-3
374.904	1	7
375.246	1	14
375.588	1	3
375.929	1	1
376.271	1	10
376.613	1	-7
376.955	1	3
377.296	1	6
377.638	1	1
377.980	1	-2
378.321	1	1
378.663	1	7
379.005	1	14
379.347	1	1
379.688	1	5
380.030	1	0
380.372	1	8
380.714	1	12
381.055	1	5
381.397	1	6
381.739	1	6
382.080	1	-6
382.422	1	11
382.764	1	1
383.105	1	12
383.447	1	3
383.789	1	7
384.130	1	-1
384.472	1	3
384.814	1	3
385.156	1	-1
385.497	1	-3
385.839	1	2
386.180	1	11
386.522	1	2
386.864	1	11
387.205	1	5
387.547	1	11
387.889	1	2
388.230	1	-4
388.572	1	8
388.914	1	7
389.255	1	1
389.597	1	-11
389.939	1	9
390.280	1	11
390.622	1	8
390.963	1	8
391.305	1	10
391.647	1	7
391.988	1	1
392.330	1	-8
392.671	1	-2
393.013	1	4
393.355	1	4
393.696	1	3
394.038	1	0
394.379	1	6
394.721	1	1
395.062	1	3
395.404	1	-7
395.746	1	6
396.087	1	13
396.429	1	6
396.770	1	6
397.112	1	5
397.453	1	17
397.795	1	-3
398.136	1	0
398.478	1	1
398.819	1	-7
399.161	1	2
399.503	1	10
399.844	1	0
400.186	1	1
400.527	1	10
400.869	1	1
401.210	1	-12
401.552	1	10
401.893	1	-2
402.235	1	-3
402.576	1	8
402.918	1	3
403.259	1	-7
403.601	1	11
403.942	1	2
404.284	1	-6
404.625	1	13
404.967	1	4
405.308	1	1
405.649	1	8
405.991	1	1
406.332	1	3
406.674	1	9
407.015	1	7
407.357	1	5
407.698	1	4
408.040	1	8
408.381	1	9
408.722	1	2
409.064	1	5
409.405	1	8
409.747	1	7
410.088	1	4
410.430	1	16
410.771	1	-7
411.112	1	15
411.454	1	-1
411.795	1	4
412.137	1	-2
412.478	1	-1
412.819	1	5
413.161	1	14
413.502	1	8
413.844	1	6
414.185	1	10
414.526	1	13
414.868	1	-1
415.209	1	4
415.550	1	5
415.892	1	3
416.233	1	4
416.575	1	0
416.916	1	-1
417.257	1	10
417.599	1	-3
417.940	1	-3
418.281	1	4
418.623	1	13
418.964	1	0
419.305	1	0
419.647	1	4
419.988	1	10
420.329	1	9
420.671	1	6
421.012	1	5
421.353	1	5
421.695	1	-3
422.036	1	4
422.377	1	9
422.718	1	11
423.060	1	3
423.401	1	9
423.742	1	2
424.084	1	2
424.425	1	7
424.766	1	8
425.107	1	2
425.449	1	5
425.790	1	10
426.131	1	8
426.472	1	4
426.814	1	7
427.155	1	-5
427.496	1	7
427.837	1	-1
428.179	1	1
428.520	1	8
428.861	1	1
429.202	1	3
429.544	1	9
429.885	1	-7
430.226	1	10
430.567	1	7
430.909	1	14
431.250	1	15
431.591	1	1
431.932	1	2
432.273	1	10
432.615	1	20
432.956	1	-7
433.297	1	12
433.638	1	1
433.979	1	1
434.320	1	10
434.662	1	4
435.003	1	14
435.344	1	2
435.685	1	-7
436.026	1	13
436.368	1	2
436.709	1	-3
437.050	1	2
437.391	1	2
437.732	1	4
438.073	1	14
438.414	1	-3
438.756	1	5
439.097	1	5
439.438	1	10
439.779	1	1
440.120	1	7
440.461	1	11
440.802	1	-9
441.143	1	-9
441.485	1	6
441.826	1	-8
442.167	1	5
442.508	1	3
442.849	1	11
443.190	1	-1
443.531	1	4
443.872	1	6
444.213	1	0
444.554	1	1
444.895	1	0
445.237	1	-7
445.578	1	-4
445.919	1	1
446.260	1	10
446.601	1	7
446.942	1	0
447.283	1	6
447.624	1	3
447.965	1	0
448.306	1	4
448.647	1	15
448.988	1	17
449.329	1	-4
449.670	1	-3
450.011	1	1
450.352	1	10
450.693	1	4
451.034	1	0
451.375	1	10
451.716	1	-1
452.057	1	16
452.398	1	2
452.739	1	7
453.080	1	-4
453.421	1	5
453.762	1	15
454.103	1	5
454.444	1	5
454.785	1	11
455.126	1	-5
455.467	1	-1
455.808	1	4
456.149	1	-4
456.490	1	1
456.831	1	-3
457.172	1	-2
457.513	1	-9
457.854	1	6
458.195	1	-4
458.536	1	9
458.877	1	11
459.218	1	9
459.559	1	2
459.899	1	-1
460.240	1	12
460.581	1	-3
460.922	1	3
461.263	1	4
461.604	1	-15
461.945	1	2
462.286	1	7
462.627	1	-4
462.968	1	0
463.309	1	3
463.649	1	-10
463.990	1	0
464.331	1	6
464.672	1	1
465.013	1	-6
465.354	1	5
465.695	1	10
466.036	1	2
466.376	1	7
466.717	1	3
467.058	1	5
467.399	1	-2
467.740	1	18
468.081	1	10
468.422	1	3
468.762	1	-3
469.103	1	7
469.444	1	2
469.785	1	5
470.126	1	-1
470.467	1	7
470.807	1	8
471.148	1	4
471.489	1	3
471.830	1	8
472.171	1	1
472.511	1	3
472.852	1	0
473.193	1	6
473.534	1	0
473.875	1	8
474.215	1	9
474.556	1	0
474.897	1	-4
475.238	1	8
475.578	1	-6
475.919	1	-5
476.260	1	3
476.601	1	-1
476.942	1	12
477.282	1	4
477.623	1	-3
477.964	1	-6
478.305	1	16
478.645	1	7
478.986	1	3
479.327	1	-1
479.667	1	6
480.008	1	-3
480.349	1	-2
480.690	1	1
481.030	1	2
481.371	1	10
481.712	1	3
482.053	1	9
482.393	1	15
482.734	1	7
483.075	1	15
483.415	1	6
483.756	1	-4
484.097	1	2
484.437	1	-5
484.778	1	7
485.119	1	7
485.459	1	2
485.800	1	10
486.141	1	-1
486.481	1	-8
486.822	1	6
487.163	1	3
487.503	1	-4
487.844	1	3
488.185	1	-2
488.525	1	3
488.866	1	4
489.207	1	6
489.547	1	-3
489.888	1	5
490.228	1	2
490.569	1	-1
490.910	1	-9
491.250	1	-3
491.591	1	-8
491.932	1	-3
492.272	1	-7
492.613	1	-10
492.953	1	-2
493.294	1	1
493.635	1	0
493.975	1	11
494.316	1	4
494.656	1	8
494.997	1	-5
495.337	1	-7
495.678	1	1
496.019	1	4
496.359	1	12
496.700	1	7
497.040	1	6
497.381	1	-2
497.721	1	-1
498.062	1	-1
498.403	1	-8
498.743	1	9
499.084	1	-2
499.424	1	-9
499.765	1	2
500.105	1	2
500.446	1	1
500.786	1	8
501.127	1	1
501.467	1	-1
501.808	1	-7
502.148	1	2
502.489	1	-4
502.829	1	-3
503.170	1	-8
503.510	1	10
503.851	1	7
504.191	1	6
504.532	1	7
504.872	1	3
505.213	1	4
505.553	1	3
505.894	1	10
506.234	1	8
506.575	1	2
506.915	1	2
507.256	1	13
507.596	1	8
507.936	1	-2
508.277	1	-6
508.617	1	-2
508.958	1	7
509.298	1	0
509.639	1	2
509.979	1	3
510.319	1	10
510.660	1	-3
511.000	1	8
511.341	1	4
511.681	1	9
512.022	1	1
512.362	1	4
512.702	1	5
513.043	1	11
513.383	1	4
513.724	1	-6
514.064	1	-2
514.404	1	16
514.745	1	-5
515.085	1	8
515.425	1	3
515.766	1	8
516.106	1	-7
516.447	1	-5
516.787	1	-3
517.127	1	4
517.468	1	1
517.808	1	-3
518.148	1	25
518.489	1	10
518.829	1	13
519.169	1	5
519.510	1	7
519.850	1	14
520.190	1	7
520.531	1	15
520.871	1	-4
521.211	1	2
521.552	1	11
521.892	1	4
522.232	1	2
522.573	1	-1
522.913	1	8
523.253	1	0
523.593	1	4
523.934	1	-2
524.274	1	-6
524.614	1	8
524.955	1	15
525.295	1	16
525.635	1	-6
525.975	1	9
526.316	1	1
526.656	1	8
526.996	1	-4
527.337	1	4
527.677	1	-2
528.017	1	5
528.357	1	-4
528.698	1	-4
529.038	1	-7
529.378	1	0
529.718	1	9
530.058	1	0
530.399	1	-1
530.739	1	2
531.079	1	3
531.419	1	12
531.760	1	3
532.100	1	12
532.440	1	1
532.780	1	2
533.120	1	0
533.461	1	-5
533.801	1	21
534.141	1	4
534.481	1	5
534.821	1	3
535.162	1	6
535.502	1	-4
535.842	1	12
536.182	1	12
536.522	1	-6
536.862	1	11
537.203	1	-2
537.543	1	11
537.883	1	-5
538.223	1	17
538.563	1	10
538.903	1	10
539.243	1	-6
539.584	1	9
539.924	1	-4
540.264	1	0
540.604	1	1
540.944	1	-6
541.284	1	13
541.624	1	9
541.964	1	-1
542.305	1	2
542.645	1	-1
542.985	1	8
543.325	1	-5
543.665	1	3
544.005	1	-2
544.345	1	3
544.685	1	11
545.025	1	7
545.365	1	7
545.705	1	-3
546.045	1	4
546.386	1	4
546.726	1	-1
547.066	1	8
547.406	1	-11
547.746	1	6
548.086	1	-15
548.426	1	-8
548.766	1	14
549.106	1	-9
549.446	1	1
549.786	1	1
550.126	1	17
550.466	1	8
550.806	1	7
551.146	1	9
551.486	1	0
551.826	1	6
552.166	1	1
552.506	1	1
552.846	1	-9
553.186	1	8
553.526	1	3
553.866	1	-5
554.206	1	1
554.546	1	7
554.886	1	-3
555.226	1	12
555.566	1	4
555.906	1	0
556.246	1	-1
556.586	1	2
556.926	1	-1
557.266	1	3
557.606	1	0
557.946	1	4
558.286	1	0
558.626	1	-6
558.966	1	-3
559.306	1	6
559.646	1	-3
559.986	1	-1
560.325	1	-13
560.665	1	5
561.005	1	-2
561.345	1	12
561.685	1	-2
562.025	1	-1
562.365	1	1
562.705	1	6
563.045	1	-3
563.385	1	15
563.725	1	4
564.064	1	10
564.404	1	0
564.744	1	-4
565.084	1	-3
565.424	1	2
565.764	1	0
566.104	1	5
566.444	1	8
566.783	1	12
567.123	1	-5
567.463	1	-1
567.803	1	7
568.143	1	9
568.483	1	1
568.823	1	-10
569.162	1	3
569.502	1	-2
569.842	1	-3
570.182	1	-4
570.522	1	-13
570.862	1	10
571.201	1	13
571.541	1	-5
571.881	1	-1
572.221	1	1
572.561	1	0
572.900	1	1
573.240	1	-1
573.580	1	-4
573.920	1	9
574.260	1	3
574.599	1	8
574.939	1	8
575.279	1	-4
575.619	1	3
575.959	1	2
576.298	1	-7
576.638	1	-2
576.978	1	-6
577.318	1	2
577.657	1	11
577.997	1	8
578.337	1	5
578.677	1	12
579.016	1	-1
579.356	1	-1
579.696	1	-3
580.036	1	-1
580.375	1	-5
580.715	1	9
581.055	1	0
581.394	1	5
581.734	1	10
582.074	1	6
582.414	1	-4
582.753	1	2
583.093	1	3
583.433	1	8
583.772	1	13
584.112	1	6
584.452	1	14
584.791	1	1
585.131	1	16
585.471	1	-1
585.811	1	-2
586.150	1	14
586.490	1	9
586.830	1	-2
587.169	1	1
587.509	1	4
587.849	1	5
588.188	1	7
588.528	1	14
588.867	1	5
589.207	1	7
589.547	1	-5
589.886	1	0
590.226	1	12
590.566	1	3
590.905	1	6
591.245	1	4
591.585	1	-4
591.924	1	4
592.264	1	9
592.603	1	-8
592.943	1	11
593.283	1	-1
593.622	1	12
593.962	1	9
594.301	1	-5
594.641	1	-1
594.981	1	-7
595.320	1	15
595.660	1	-3
595.999	1	4
596.339	1	12
596.678	1	3
597.018	1	2
597.358	1	-6
597.697	1	-3
598.037	1	-3
598.376	1	6
598.716	1	9
599.055	1	6
599.395	1	-10
599.734	1	1
600.074	1	3
600.413	1	12
600.753	1	-5
601.092	1	-4
601.432	1	-9
601.771	1	6
602.111	1	-5
602.451	1	5
602.790	1	-5
603.130	1	-3
603.469	1	6
603.809	1	-5
604.148	1	8
604.487	1	11
604.827	1	-13
605.166	1	8
605.506	1	-1
605.845	1	4
606.185	1	-1
606.524	1	-3
606.864	1	4
607.203	1	0
607.543	1	2
607.882	1	7
608.222	1	-6
608.561	1	4
608.901	1	9
609.240	1	-5
609.579	1	9
609.919	1	7
610.258	1	7
610.598	1	-5
610.937	1	5
611.277	1	12
611.616	1	-2
611.955	1	7
612.295	1	9
612.634	1	-4
612.974	1	0
613.313	1	7
613.652	1	-5
613.992	1	0
614.331	1	3
614.671	1	5
615.010	1	-3
615.349	1	2
615.689	1	1
616.028	1	7
616.368	1	8
616.707	1	7
617.046	1	13
617.386	1	-2
617.725	1	0
618.064	1	6
618.404	1	3
618.743	1	8
619.082	1	7
619.422	1	4
619.761	1	5
620.100	1	-4
620.440	1	5
620.779	1	5
621.118	1	3
621.458	1	4
621.797	1	3
622.136	1	3
622.476	1	5
622.815	1	-9
623.154	1	1
623.494	1	8
623.833	1	4
624.172	1	4
624.511	1	-3
624.851	1	0
625.190	1	1
625.529	1	5
625.869	1	4
626.208	1	1
626.547	1	8
626.886	1	-6
627.226	1	-5
627.565	1	3
627.904	1	7
628.243	1	8
628.583	1	-11
628.922	1	-5
629.261	1	-7
629.600	1	3
629.940	1	-3
630.279	1	1
630.618	1	-1
630.957	1	0
631.297	1	4
631.636	1	3
631.975	1	0
632.314	1	-1
632.653	1	0
632.993	1	6
633.332	1	-15
633.671	1	-5
634.010	1	-8
634.349	1	0
634.689	1	10
635.028	1	8
635.367	1	4
635.706	1	-2
636.045	1	12
636.384	1	3
636.724	1	14
637.063	1	7
637.402	1	-9
637.741	1	21
638.080	1	9
638.419	1	11
638.759	1	-3
639.098	1	1
639.437	1	10
639.776	1	4
640.115	1	9
640.454	1	7
640.793	1	-10
641.132	1	8
641.472	1	10
641.811	1	-4
642.150	1	-4
642.489	1	-7
642.828	1	-4
643.167	1	0
643.506	1	6
643.845	1	0
644.184	1	-3
644.524	1	-7
644.863	1	1
645.202	1	6
645.541	1	7
645.880	1	0
646.219	1	-5
646.558	1	-5
646.897	1	-5
647.236	1	-1
647.575	1	1
647.914	1	-1
648.253	1	4
648.592	1	-4
648.931	1	-1
649.270	1	5
649.610	1	-8
649.949	1	-1
650.288	1	-1
650.627	1	10
650.966	1	3
651.305	1	-9
651.644	1	6
651.983	1	-11
652.322	1	0
652.661	1	-5
653.000	1	-4
653.339	1	3
653.678	1	0
654.017	1	-6
654.356	1	7
654.695	1	-4
655.034	1	-7
655.373	1	6
655.712	1	5
656.051	1	6
656.390	1	-4
656.729	1	2
657.068	1	4
657.406	1	6
657.745	1	8
658.084	1	4
658.423	1	9
658.762	1	16
659.101	1	1
659.440	1	-4
659.779	1	4
660.118	1	-5
660.457	1	-4
660.796	1	3
661.135	1	13
661.474	1	9
661.813	1	4
662.152	1	2
662.491	1	10
662.829	1	12
663.168	1	-8
663.507	1	13
663.846	1	-3
664.185	1	-8
664.524	1	-10
664.863	1	7
665.202	1	0
665.541	1	-15
665.879	1	-5
666.218	1	3
666.557	1	1
666.896	1	-1
667.235	1	5
667.574	1	8
667.913	1	7
668.251	1	5
668.590	1	2
668.929	1	6
669.268	1	2
669.607	1	-2
669.946	1	15
670.285	1	9
670.623	1	11
670.962	1	-7
671.301	1	-11
671.640	1	-10
671.979	1	1
672.317	1	-6
672.656	1	3
672.995	1	-2
673.334	1	-11
673.673	1	-3
674.011	1	3
674.350	1	2
674.689	1	7
675.028	1	4
675.367	1	-3
675.705	1	6
676.044	1	6
676.383	1	3
676.722	1	-3
677.060	1	3
677.399	1	-7
677.738	1	-9
678.077	1	2
678.416	1	4
678.754	1	5
679.093	1	6
679.432	1	8
679.771	1	6
680.109	1	2
680.448	1	3
680.787	1	6
681.125	1	13
681.464	1	8
681.803	1	-3
682.142	1	0
682.480	1	11
682.819	1	5
683.158	1	0
683.496	1	0
683.835	1	-4
684.174	1	8
684.512	1	6
684.851	1	2
685.190	1	5
685.529	1	-9
685.867	1	-5
686.206	1	2
686.545	1	-2
686.883	1	2
687.222	1	-3
687.561	1	16
687.899	1	0
688.238	1	11
688.577	1	1
688.746	1	4