File: Data/GaN_130K_350ms/GaN_sample F_spot6_UVVIS_130 K_200um_350 ms 2x2mm1_152.txt
340.368	1	9
340.710	1	2
341.052	1	-1
341.394	1	0
341.737	1	0
342.079	1	6
342.421	1	8
342.763	1	14
343.105	1	6
343.447	1	1
343.789	1	-6
344.131	1	7
344.473	1	-2
344.815	1	-6
345.157	1	-11
345.499	1	-5
345.841	1	2
346.183	1	6
346.526	1	5
346.868	1	8
347.210	1	6
347.552	1	-8
347.894	1	5
348.236	1	4
348.578	1	0
348.920	1	7
349.262	1	7
349.604	1	9
349.946	1	10
350.288	1	-11
350.630	1	13
350.972	1	20
351.314	1	-3
351.656	1	11
351.998	1	5
352.340	1	5
352.682	1	9
353.024	1	5
353.366	1	8
353.708	1	-2
354.050	1	4
354.392	1	10
354.734	1	-1
355.076	1	-1
355.418	1	4
355.760	1	8
356.102	1	3
356.444	1	4
356.785	1	13
357.127	1	9
357.469	1	0
357.811	1	11
358.153	1	-2
358.495	1	15
358.837	1	8
359.179	1	12
359.521	1	4
359.863	1	7
360.205	1	14
360.547	1	6
360.889	1	4
361.231	1	4
361.572	1	22
361.914	1	14
362.256	1	24
362.598	1	12
362.940	1	8
363.282	1	24
363.624	1	19
363.966	1	36
364.308	1	27
364.649	1	18
364.991	1	26
365.333	1	17
365.675	1	35
366.017	1	39
366.359	1	37
366.701	1	40
367.042	1	40
367.384	1	44
367.726	1	37
368.068	1	30
368.410	1	36
368.752	1	46
369.093	1	32
369.435	1	33
369.777	1	34
370.119	1	28
370.461	1	36
370.803	1	38
371.144	1	29
371.486	1	37
371.828	1	25
372.170	1	31
372.512	1	29
372.853	1	15
373.195	1	20
373.537	1	33
373.879	1	30
374.220	1	25
374.562	1	13
374.904	1	20
375.246	1	18
375.588	1	26
375.929	1	15
376.271	1	19
376.613	1	1
376.955	1	12
377.296	1	17
377.638	1	6
377.980	1	-1
378.321	1	14
378.663	1	25
379.005	1	19
379.347	1	12
379.688	1	8
380.030	1	4
380.372	1	20
380.714	1	18
381.055	1	16
381.397	1	8
381.739	1	21
382.080	1	12
382.422	1	21
382.764	1	12
383.105	1	4
383.447	1	12
383.789	1	21
384.130	1	21
384.472	1	15
384.814	1	6
385.156	1	11
385.497	1	-1
385.839	1	12
386.180	1	18
386.522	1	9
386.864	1	11
387.205	1	3
387.547	1	14
387.889	1	8
388.230	1	-1
388.572	1	13
388.914	1	7
389.255	1	15
389.597	1	-3
389.939	1	11
390.280	1	17
390.622	1	8
390.963	1	9
391.305	1	14
391.647	1	17
391.988	1	6
392.330	1	8
392.671	1	-8
393.013	1	8
393.355	1	11
393.696	1	6
394.038	1	15
394.379	1	1
394.721	1	12
395.062	1	3
395.404	1	1
395.746	1	13
396.087	1	13
396.429	1	17
396.770	1	16
397.112	1	6
397.453	1	22
397.795	1	11
398.136	1	8
398.478	1	14
398.819	1	-11
399.161	1	12
399.503	1	20
399.844	1	9
400.186	1	1
400.527	1	11
400.869	1	9
401.210	1	0
401.552	1	16
401.893	1	-9
402.235	1	11
402.576	1	-2
402.918	1	14
403.259	1	8
403.601	1	5
403.942	1	3
404.284	1	12
404.625	1	21
404.967	1	-1
405.308	1	7
405.649	1	7
405.991	1	7
406.332	1	13
406.674	1	13
407.015	1	5
407.357	1	6
407.698	1	3
408.040	1	10
408.381	1	10
408.722	1	13
409.064	1	8
409.405	1	9
409.747	1	-5
410.088	1	17
410.430	1	12
410.771	1	-11
411.112	1	13
411.454	1	7
411.795	1	4
412.137	1	2
412.478	1	-3
412.819	1	7
413.161	1	14
413.502	1	14
413.844	1	9
414.185	1	15
414.526	1	7
414.868	1	5
415.209	1	2
415.550	1	-3
415.892	1	8
416.233	1	11
416.575	1	10
416.916	1	0
417.257	1	5
417.599	1	-1
417.940	1	12
418.281	1	8
418.623	1	10
418.964	1	3
419.305	1	4
419.647	1	11
419.988	1	11
420.329	1	19
420.671	1	-4
421.012	1	6
421.353	1	-3
421.695	1	1
422.036	1	14
422.377	1	18
422.718	1	1
423.060	1	8
423.401	1	6
423.742	1	8
424.084	1	12
424.425	1	6
424.766	1	8
425.107	1	0
425.449	1	4
425.790	1	13
426.131	1	24
426.472	1	-3
426.814	1	1
427.155	1	0
427.496	1	3
427.837	1	3
428.179	1	12
428.520	1	15
428.861	1	3
429.202	1	12
429.544	1	13
429.885	1	8
430.226	1	6
430.567	1	15
430.909	1	10
431.250	1	9
431.591	1	7
431.932	1	4
432.273	1	15
432.615	1	23
432.956	1	-8
433.297	1	11
433.638	1	3
433.979	1	10
434.320	1	2
434.662	1	13
435.003	1	17
435.344	1	12
435.685	1	-2
436.026	1	4
436.368	1	1
436.709	1	7
437.050	1	15
437.391	1	14
437.732	1	7
438.073	1	9
438.414	1	4
438.756	1	5
439.097	1	9
439.438	1	3
439.779	1	13
440.120	1	4
440.461	1	22
440.802	1	4
441.143	1	0
441.485	1	12
441.826	1	0
442.167	1	9
442.508	1	4
442.849	1	10
443.190	1	9
443.531	1	4
443.872	1	9
444.213	1	6
444.554	1	-4
444.895	1	6
445.237	1	4
445.578	1	4
445.919	1	3
446.260	1	-1
446.601	1	6
446.942	1	-3
447.283	1	8
447.624	1	5
447.965	1	0
448.306	1	6
448.647	1	17
448.988	1	8
449.329	1	3
449.670	1	-1
450.011	1	3
450.352	1	11
450.693	1	-1
451.034	1	-3
451.375	1	11
451.716	1	-2
452.057	1	19
452.398	1	-2
452.739	1	0
453.080	1	14
453.421	1	9
453.762	1	15
454.103	1	12
454.444	1	3
454.785	1	10
455.126	1	-5
455.467	1	-6
455.808	1	12
456.149	1	-6
456.490	1	11
456.831	1	10
457.172	1	8
457.513	1	-6
457.854	1	4
458.195	1	-4
458.536	1	2
458.877	1	24
459.218	1	0
459.559	1	1
459.899	1	-1
460.240	1	13
460.581	1	-4
460.922	1	11
461.263	1	13
461.604	1	-4
461.945	1	14
462.286	1	4
462.627	1	5
462.968	1	3
463.309	1	0
463.649	1	-1
463.990	1	-1
464.331	1	11
464.672	1	6
465.013	1	-2
465.354	1	6
465.695	1	1
466.036	1	4
466.376	1	-1
466.717	1	9
467.058	1	4
467.399	1	-4
467.740	1	21
468.081	1	8
468.422	1	8
468.762	1	-8
469.103	1	4
469.444	1	6
469.785	1	11
470.126	1	-7
470.467	1	11
470.807	1	7
471.148	1	2
471.489	1	-4
471.830	1	7
472.171	1	4
472.511	1	5
472.852	1	7
473.193	1	15
473.534	1	2
473.875	1	11
474.215	1	2
474.556	1	2
474.897	1	-6
475.238	1	6
475.578	1	3
475.919	1	1
476.260	1	-2
476.601	1	4
476.942	1	10
477.282	1	8
477.623	1	-3
477.964	1	-1
478.305	1	11
478.645	1	9
478.986	1	-2
479.327	1	9
479.667	1	10
480.008	1	-2
480.349	1	2
480.690	1	6
481.030	1	4
481.371	1	10
481.712	1	4
482.053	1	1
482.393	1	10
482.734	1	5
483.075	1	15
483.415	1	5
483.756	1	1
484.097	1	7
484.437	1	3
484.778	1	11
485.119	1	8
485.459	1	-9
485.800	1	11
486.141	1	4
486.481	1	1
486.822	1	10
487.163	1	3
487.503	1	0
487.844	1	3
488.185	1	7
488.525	1	5
488.866	1	5
489.207	1	4
489.547	1	4
489.888	1	16
490.228	1	10
490.569	1	6
490.910	1	0
491.250	1	9
491.591	1	-1
491.932	1	19
492.272	1	7
492.613	1	3
492.953	1	8
493.294	1	9
493.635	1	9
493.975	1	11
494.316	1	8
494.656	1	5
494.997	1	10
495.337	1	1
495.678	1	-1
496.019	1	2
496.359	1	13
496.700	1	4
497.040	1	14
497.381	1	2
497.721	1	9
498.062	1	0
498.403	1	-2
498.743	1	10
499.084	1	12
499.424	1	-1
499.765	1	-1
500.105	1	15
500.446	1	10
500.786	1	6
501.127	1	17
501.467	1	8
501.808	1	9
502.148	1	8
502.489	1	8
502.829	1	13
503.170	1	-4
503.510	1	12
503.851	1	9
504.191	1	6
504.532	1	12
504.872	1	6
505.213	1	8
505.553	1	9
505.894	1	17
506.234	1	8
506.575	1	2
506.915	1	-3
507.256	1	24
507.596	1	14
507.936	1	-1
508.277	1	10
508.617	1	7
508.958	1	25
509.298	1	9
509.639	1	9
509.979	1	4
510.319	1	15
510.660	1	7
511.000	1	14
511.341	1	4
511.681	1	6
512.022	1	17
512.362	1	8
512.702	1	22
513.043	1	11
513.383	1	17
513.724	1	0
514.064	1	4
514.404	1	23
514.745	1	11
515.085	1	11
515.425	1	1
515.766	1	13
516.106	1	11
516.447	1	5
516.787	1	5
517.127	1	14
517.468	1	16
517.808	1	10
518.148	1	12
518.489	1	12
518.829	1	19
519.169	1	17
519.510	1	9
519.850	1	22
520.190	1	19
520.531	1	19
520.871	1	8
521.211	1	10
521.552	1	17
521.892	1	22
522.232	1	4
522.573	1	9
522.913	1	19
523.253	1	22
523.593	1	21
523.934	1	10
524.274	1	6
524.614	1	17
524.955	1	13
525.295	1	19
525.635	1	-1
525.975	1	17
526.316	1	6
526.656	1	20
526.996	1	7
527.337	1	15
527.677	1	3
528.017	1	14
528.357	1	20
528.698	1	5
529.038	1	9
529.378	1	9
529.718	1	19
530.058	1	10
530.399	1	9
530.739	1	12
531.079	1	17
531.419	1	20
531.760	1	4
532.100	1	14
532.440	1	15
532.780	1	16
533.120	1	26
533.461	1	8
533.801	1	22
534.141	1	11
534.481	1	7
534.821	1	14
535.162	1	10
535.502	1	15
535.842	1	22
536.182	1	21
536.522	1	13
536.862	1	11
537.203	1	5
537.543	1	18
537.883	1	7
538.223	1	10
538.563	1	22
538.903	1	23
539.243	1	19
539.584	1	18
539.924	1	16
540.264	1	3
540.604	1	19
540.944	1	13
541.284	1	13
541.624	1	20
541.964	1	3
542.305	1	10
542.645	1	11
542.985	1	13
543.325	1	3
543.665	1	16
544.005	1	16
544.345	1	14
544.685	1	15
545.025	1	6
545.365	1	17
545.705	1	7
546.045	1	12
546.386	1	5
546.726	1	4
547.066	1	10
547.406	1	-2
547.746	1	11
548.086	1	-3
548.426	1	23
548.766	1	11
549.106	1	3
549.446	1	6
549.786	1	18
550.126	1	14
550.466	1	19
550.806	1	18
551.146	1	10
551.486	1	7
551.826	1	14
552.166	1	12
552.506	1	12
552.846	1	5
553.186	1	-1
553.526	1	17
553.866	1	2
554.206	1	3
554.546	1	7
554.886	1	10
555.226	1	16
555.566	1	13
555.906	1	16
556.246	1	17
556.586	1	16
556.926	1	5
557.266	1	11
557.606	1	10
557.946	1	9
558.286	1	20
558.626	1	-4
558.966	1	7
559.306	1	0
559.646	1	10
559.986	1	8
560.325	1	-4
560.665	1	12
561.005	1	5
561.345	1	11
561.685	1	6
562.025	1	7
562.365	1	17
562.705	1	11
563.045	1	0
563.385	1	13
563.725	1	11
564.064	1	8
564.404	1	-1
564.744	1	6
565.084	1	7
565.424	1	-4
565.764	1	5
566.104	1	8
566.444	1	14
566.783	1	19
567.123	1	14
567.463	1	7
567.803	1	14
568.143	1	18
568.483	1	15
568.823	1	-3
569.162	1	9
569.502	1	-1
569.842	1	2
570.182	1	-2
570.522	1	-12
570.862	1	21
571.201	1	6
571.541	1	8
571.881	1	2
572.221	1	9
572.561	1	6
572.900	1	8
573.240	1	-2
573.580	1	7
573.920	1	19
574.260	1	1
574.599	1	17
574.939	1	9
575.279	1	-1
575.619	1	4
575.959	1	10
576.298	1	-4
576.638	1	7
576.978	1	-13
577.318	1	6
577.657	1	23
577.997	1	16
578.337	1	1
578.677	1	15
579.016	1	10
579.356	1	16
579.696	1	4
580.036	1	2
580.375	1	1
580.715	1	12
581.055	1	7
581.394	1	1
581.734	1	10
582.074	1	6
582.414	1	4
582.753	1	3
583.093	1	2
583.433	1	10
583.772	1	3
584.112	1	8
584.452	1	14
584.791	1	5
585.131	1	5
585.471	1	-1
585.811	1	1
586.150	1	5
586.490	1	8
586.830	1	0
587.169	1	12
587.509	1	8
587.849	1	8
588.188	1	15
588.528	1	11
588.867	1	10
589.207	1	2
589.547	1	7
589.886	1	4
590.226	1	12
590.566	1	7
590.905	1	7
591.245	1	-1
591.585	1	9
591.924	1	1
592.264	1	10
592.603	1	0
592.943	1	8
593.283	1	-7
593.622	1	13
593.962	1	9
594.301	1	1
594.641	1	4
594.981	1	-3
595.320	1	4
595.660	1	9
595.999	1	3
596.339	1	13
596.678	1	0
597.018	1	0
597.358	1	-5
597.697	1	4
598.037	1	10
598.376	1	-5
598.716	1	13
599.055	1	9
599.395	1	-9
599.734	1	2
600.074	1	8
600.413	1	10
600.753	1	4
601.092	1	8
601.432	1	-2
601.771	1	5
602.111	1	4
602.451	1	5
602.790	1	-2
603.130	1	11
603.469	1	3
603.809	1	7
604.148	1	5
604.487	1	19
604.827	1	3
605.166	1	11
605.506	1	4
605.845	1	0
606.185	1	7
606.524	1	2
606.864	1	12
607.203	1	7
607.543	1	-1
607.882	1	12
608.222	1	-3
608.561	1	0
608.901	1	9
609.240	1	-7
609.579	1	14
609.919	1	13
610.258	1	-3
610.598	1	0
610.937	1	7
611.277	1	1
611.616	1	-4
611.955	1	2
612.295	1	9
612.634	1	-1
612.974	1	13
613.313	1	6
613.652	1	-3
613.992	1	3
614.331	1	9
614.671	1	9
615.010	1	5
615.349	1	4
615.689	1	3
616.028	1	10
616.368	1	2
616.707	1	9
617.046	1	13
617.386	1	9
617.725	1	12
618.064	1	6
618.404	1	9
618.743	1	6
619.082	1	10
619.422	1	-6
619.761	1	15
620.100	1	5
620.440	1	4
620.779	1	7
621.118	1	6
621.458	1	8
621.797	1	2
622.136	1	8
622.476	1	12
622.815	1	3
623.154	1	1
623.494	1	6
623.833	1	13
624.172	1	3
624.511	1	10
624.851	1	9
625.190	1	5
625.529	1	-2
625.869	1	13
626.208	1	-4
626.547	1	3
626.886	1	2
627.226	1	1
627.565	1	-1
627.904	1	9
628.243	1	11
628.583	1	0
628.922	1	5
629.261	1	-4
629.600	1	4
629.940	1	12
630.279	1	14
630.618	1	-4
630.957	1	9
631.297	1	6
631.636	1	5
631.975	1	9
632.314	1	5
632.653	1	8
632.993	1	8
633.332	1	-4
633.671	1	-2
634.010	1	-8
634.349	1	-7
634.689	1	8
635.028	1	10
635.367	1	3
635.706	1	-2
636.045	1	26
636.384	1	1
636.724	1	8
637.063	1	8
637.402	1	-4
637.741	1	8
638.080	1	11
638.419	1	3
638.759	1	9
639.098	1	-7
639.437	1	7
639.776	1	0
640.115	1	8
640.454	1	10
640.793	1	-10
641.132	1	11
641.472	1	-6
641.811	1	5
642.150	1	-7
642.489	1	-4
642.828	1	3
643.167	1	3
643.506	1	5
643.845	1	-1
644.184	1	-1
644.524	1	0
644.863	1	-2
645.202	1	17
645.541	1	0
645.880	1	5
646.219	1	7
646.558	1	2
646.897	1	7
647.236	1	-3
647.575	1	-8
647.914	1	0
648.253	1	11
648.592	1	0
648.931	1	-2
649.270	1	2
649.610	1	1
649.949	1	0
650.288	1	12
650.627	1	15
650.966	1	1
651.305	1	4
651.644	1	5
651.983	1	-13
652.322	1	2
652.661	1	1
653.000	1	2
653.339	1	7
653.678	1	0
654.017	1	2
654.356	1	11
654.695	1	9
655.034	1	3
655.373	1	5
655.712	1	4
656.051	1	11
656.390	1	-1
656.729	1	4
657.068	1	8
657.406	1	3
657.745	1	-3
658.084	1	2
658.423	1	2
658.762	1	15
659.101	1	9
659.440	1	-6
659.779	1	-2
660.118	1	-9
660.457	1	-1
660.796	1	8
661.135	1	9
661.474	1	0
661.813	1	-7
662.152	1	1
662.491	1	9
662.829	1	6
663.168	1	-5
663.507	1	2
663.846	1	-1
664.185	1	2
664.524	1	-1
664.863	1	5
665.202	1	3
665.541	1	5
665.879	1	0
666.218	1	6
666.557	1	0
666.896	1	4
667.235	1	4
667.574	1	9
667.913	1	2
668.251	1	3
668.590	1	0
668.929	1	8
669.268	1	-3
669.607	1	-1
669.946	1	12
670.285	1	11
670.623	1	12
670.962	1	2
671.301	1	6
671.640	1	-7
671.979	1	2
672.317	1	-1
672.656	1	-1
672.995	1	1
673.334	1	4
673.673	1	6
674.011	1	0
674.350	1	-2
674.689	1	6
675.028	1	6
675.367	1	-2
675.705	1	7
676.044	1	6
676.383	1	2
676.722	1	3
677.060	1	2
677.399	1	8
677.738	1	-1
678.077	1	7
678.416	1	0
678.754	1	3
679.093	1	3
679.432	1	1
679.771	1	10
680.109	1	5
680.448	1	7
680.787	1	2
681.125	1	8
681.464	1	-3
681.803	1	-1
682.142	1	-3
682.480	1	1
682.819	1	1
683.158	1	-4
683.496	1	7
683.835	1	1
684.174	1	11
684.512	1	16
684.851	1	0
685.190	1	9
685.529	1	6
685.867	1	-5
686.206	1	4
686.545	1	-4
686.883	1	-1
687.222	1	2
687.561	1	14
687.899	1	9
688.238	1	17
688.577	1	-5
688.746	1	1