File: Data/GaN_130K_350ms/GaN_sample F_spot6_UVVIS_130 K_200um_350 ms 2x2mm1_308.txt
340.368	1	6
340.710	1	0
341.052	1	3
341.394	1	-1
341.737	1	4
342.079	1	0
342.421	1	4
342.763	1	-5
343.105	1	-2
343.447	1	1
343.789	1	2
344.131	1	4
344.473	1	-1
344.815	1	-15
345.157	1	-13
345.499	1	-7
345.841	1	-1
346.183	1	3
346.526	1	1
346.868	1	5
347.210	1	0
347.552	1	-5
347.894	1	1
348.236	1	-3
348.578	1	-5
348.920	1	1
349.262	1	-2
349.604	1	11
349.946	1	5
350.288	1	-9
350.630	1	6
350.972	1	0
351.314	1	-4
351.656	1	1
351.998	1	0
352.340	1	4
352.682	1	1
353.024	1	4
353.366	1	2
353.708	1	1
354.050	1	8
354.392	1	8
354.734	1	1
355.076	1	2
355.418	1	4
355.760	1	1
356.102	1	-1
356.444	1	-5
356.785	1	11
357.127	1	-2
357.469	1	-7
357.811	1	3
358.153	1	3
358.495	1	0
358.837	1	-13
359.179	1	-5
359.521	1	0
359.863	1	-1
360.205	1	-5
360.547	1	1
360.889	1	-5
361.231	1	-11
361.572	1	12
361.914	1	8
362.256	1	-3
362.598	1	2
362.940	1	-7
363.282	1	11
363.624	1	4
363.966	1	14
364.308	1	11
364.649	1	9
364.991	1	6
365.333	1	3
365.675	1	17
366.017	1	13
366.359	1	1
366.701	1	10
367.042	1	14
367.384	1	24
367.726	1	8
368.068	1	-6
368.410	1	6
368.752	1	14
369.093	1	7
369.435	1	1
369.777	1	10
370.119	1	16
370.461	1	11
370.803	1	4
371.144	1	2
371.486	1	11
371.828	1	7
372.170	1	7
372.512	1	-1
372.853	1	2
373.195	1	-4
373.537	1	7
373.879	1	18
374.220	1	5
374.562	1	5
374.904	1	6
375.246	1	8
375.588	1	4
375.929	1	5
376.271	1	-1
376.613	1	4
376.955	1	6
377.296	1	-1
377.638	1	-8
377.980	1	0
378.321	1	-2
378.663	1	0
379.005	1	14
379.347	1	1
379.688	1	-1
380.030	1	-2
380.372	1	13
380.714	1	8
381.055	1	2
381.397	1	-1
381.739	1	3
382.080	1	-9
382.422	1	10
382.764	1	2
383.105	1	4
383.447	1	0
383.789	1	4
384.130	1	4
384.472	1	11
384.814	1	0
385.156	1	3
385.497	1	0
385.839	1	2
386.180	1	5
386.522	1	4
386.864	1	5
387.205	1	2
387.547	1	1
387.889	1	-8
388.230	1	-3
388.572	1	9
388.914	1	0
389.255	1	0
389.597	1	-14
389.939	1	13
390.280	1	16
390.622	1	8
390.963	1	9
391.305	1	12
391.647	1	5
391.988	1	13
392.330	1	-4
392.671	1	-1
393.013	1	6
393.355	1	2
393.696	1	-4
394.038	1	9
394.379	1	17
394.721	1	12
395.062	1	3
395.404	1	-10
395.746	1	14
396.087	1	2
396.429	1	4
396.770	1	3
397.112	1	4
397.453	1	-2
397.795	1	2
398.136	1	5
398.478	1	-1
398.819	1	-13
399.161	1	7
399.503	1	15
399.844	1	-3
400.186	1	-1
400.527	1	0
400.869	1	3
401.210	1	-6
401.552	1	6
401.893	1	-8
402.235	1	-2
402.576	1	-1
402.918	1	9
403.259	1	-3
403.601	1	-4
403.942	1	1
404.284	1	-3
404.625	1	22
404.967	1	4
405.308	1	2
405.649	1	6
405.991	1	9
406.332	1	9
406.674	1	6
407.015	1	5
407.357	1	6
407.698	1	-3
408.040	1	1
408.381	1	6
408.722	1	9
409.064	1	10
409.405	1	7
409.747	1	1
410.088	1	5
410.430	1	9
410.771	1	-4
411.112	1	9
411.454	1	9
411.795	1	4
412.137	1	-6
412.478	1	4
412.819	1	4
413.161	1	1
413.502	1	15
413.844	1	0
414.185	1	9
414.526	1	-2
414.868	1	1
415.209	1	-3
415.550	1	1
415.892	1	11
416.233	1	9
416.575	1	8
416.916	1	6
417.257	1	6
417.599	1	-3
417.940	1	-1
418.281	1	1
418.623	1	1
418.964	1	0
419.305	1	4
419.647	1	0
419.988	1	9
420.329	1	7
420.671	1	4
421.012	1	-1
421.353	1	3
421.695	1	1
422.036	1	1
422.377	1	13
422.718	1	1
423.060	1	5
423.401	1	1
423.742	1	12
424.084	1	9
424.425	1	5
424.766	1	5
425.107	1	10
425.449	1	13
425.790	1	17
426.131	1	9
426.472	1	-1
426.814	1	4
427.155	1	-5
427.496	1	10
427.837	1	14
428.179	1	1
428.520	1	13
428.861	1	-2
429.202	1	6
429.544	1	2
429.885	1	-2
430.226	1	3
430.567	1	2
430.909	1	8
431.250	1	11
431.591	1	1
431.932	1	-3
432.273	1	3
432.615	1	17
432.956	1	-9
433.297	1	15
433.638	1	4
433.979	1	3
434.320	1	4
434.662	1	-2
435.003	1	4
435.344	1	7
435.685	1	-11
436.026	1	9
436.368	1	-5
436.709	1	-4
437.050	1	11
437.391	1	7
437.732	1	0
438.073	1	15
438.414	1	3
438.756	1	0
439.097	1	9
439.438	1	3
439.779	1	6
440.120	1	6
440.461	1	9
440.802	1	-6
441.143	1	-4
441.485	1	5
441.826	1	10
442.167	1	4
442.508	1	0
442.849	1	6
443.190	1	1
443.531	1	-2
443.872	1	5
444.213	1	4
444.554	1	-5
444.895	1	-1
445.237	1	-2
445.578	1	0
445.919	1	-5
446.260	1	-8
446.601	1	2
446.942	1	2
447.283	1	10
447.624	1	5
447.965	1	8
448.306	1	1
448.647	1	11
448.988	1	6
449.329	1	1
449.670	1	-1
450.011	1	-8
450.352	1	14
450.693	1	-7
451.034	1	-2
451.375	1	7
451.716	1	-6
452.057	1	16
452.398	1	-2
452.739	1	13
453.080	1	6
453.421	1	6
453.762	1	7
454.103	1	0
454.444	1	-6
454.785	1	14
455.126	1	-5
455.467	1	-2
455.808	1	5
456.149	1	-5
456.490	1	1
456.831	1	12
457.172	1	4
457.513	1	-6
457.854	1	9
458.195	1	-5
458.536	1	3
458.877	1	14
459.218	1	-4
459.559	1	-10
459.899	1	0
460.240	1	14
460.581	1	2
460.922	1	7
461.263	1	4
461.604	1	-5
461.945	1	11
462.286	1	5
462.627	1	2
462.968	1	-6
463.309	1	4
463.649	1	-3
463.990	1	1
464.331	1	-3
464.672	1	9
465.013	1	-5
465.354	1	-2
465.695	1	2
466.036	1	3
466.376	1	4
466.717	1	4
467.058	1	1
467.399	1	1
467.740	1	17
468.081	1	8
468.422	1	5
468.762	1	-5
469.103	1	5
469.444	1	5
469.785	1	8
470.126	1	-6
470.467	1	4
470.807	1	-1
471.148	1	7
471.489	1	-3
471.830	1	9
472.171	1	3
472.511	1	1
472.852	1	15
473.193	1	5
473.534	1	6
473.875	1	10
474.215	1	-2
474.556	1	13
474.897	1	-3
475.238	1	16
475.578	1	-4
475.919	1	-4
476.260	1	7
476.601	1	3
476.942	1	8
477.282	1	15
477.623	1	-4
477.964	1	-5
478.305	1	10
478.645	1	5
478.986	1	5
479.327	1	-4
479.667	1	0
480.008	1	-4
480.349	1	-4
480.690	1	7
481.030	1	0
481.371	1	9
481.712	1	-2
482.053	1	-6
482.393	1	9
482.734	1	2
483.075	1	13
483.415	1	2
483.756	1	-4
484.097	1	2
484.437	1	-2
484.778	1	12
485.119	1	10
485.459	1	-8
485.800	1	9
486.141	1	2
486.481	1	3
486.822	1	2
487.163	1	-3
487.503	1	3
487.844	1	2
488.185	1	-1
488.525	1	5
488.866	1	3
489.207	1	0
489.547	1	1
489.888	1	10
490.228	1	2
490.569	1	6
490.910	1	-3
491.250	1	5
491.591	1	-10
491.932	1	0
492.272	1	-2
492.613	1	1
492.953	1	6
493.294	1	3
493.635	1	1
493.975	1	13
494.316	1	7
494.656	1	3
494.997	1	2
495.337	1	-1
495.678	1	6
496.019	1	4
496.359	1	9
496.700	1	3
497.040	1	15
497.381	1	-11
497.721	1	9
498.062	1	-1
498.403	1	-5
498.743	1	0
499.084	1	10
499.424	1	-6
499.765	1	-1
500.105	1	7
500.446	1	10
500.786	1	5
501.127	1	8
501.467	1	-9
501.808	1	3
502.148	1	3
502.489	1	0
502.829	1	0
503.170	1	-6
503.510	1	11
503.851	1	3
504.191	1	3
504.532	1	6
504.872	1	1
505.213	1	-1
505.553	1	3
505.894	1	1
506.234	1	-3
506.575	1	-1
506.915	1	0
507.256	1	0
507.596	1	2
507.936	1	-5
508.277	1	3
508.617	1	2
508.958	1	9
509.298	1	-6
509.639	1	-5
509.979	1	-6
510.319	1	14
510.660	1	2
511.000	1	2
511.341	1	-4
511.681	1	4
512.022	1	14
512.362	1	-7
512.702	1	6
513.043	1	2
513.383	1	9
513.724	1	5
514.064	1	-8
514.404	1	7
514.745	1	-9
515.085	1	11
515.425	1	1
515.766	1	4
516.106	1	3
516.447	1	2
516.787	1	7
517.127	1	5
517.468	1	-3
517.808	1	9
518.148	1	12
518.489	1	-1
518.829	1	6
519.169	1	5
519.510	1	-2
519.850	1	13
520.190	1	6
520.531	1	14
520.871	1	-7
521.211	1	9
521.552	1	4
521.892	1	0
522.232	1	-6
522.573	1	3
522.913	1	5
523.253	1	3
523.593	1	14
523.934	1	1
524.274	1	3
524.614	1	1
524.955	1	4
525.295	1	-2
525.635	1	2
525.975	1	9
526.316	1	2
526.656	1	9
526.996	1	-2
527.337	1	13
527.677	1	-1
528.017	1	2
528.357	1	8
528.698	1	1
529.038	1	5
529.378	1	6
529.718	1	10
530.058	1	1
530.399	1	7
530.739	1	1
531.079	1	13
531.419	1	3
531.760	1	2
532.100	1	10
532.440	1	6
532.780	1	-5
533.120	1	8
533.461	1	1
533.801	1	8
534.141	1	1
534.481	1	-4
534.821	1	10
535.162	1	0
535.502	1	-1
535.842	1	17
536.182	1	11
536.522	1	0
536.862	1	4
537.203	1	-8
537.543	1	1
537.883	1	-10
538.223	1	7
538.563	1	9
538.903	1	7
539.243	1	1
539.584	1	3
539.924	1	0
540.264	1	-3
540.604	1	2
540.944	1	2
541.284	1	4
541.624	1	4
541.964	1	-2
542.305	1	3
542.645	1	-1
542.985	1	12
543.325	1	-3
543.665	1	8
544.005	1	5
544.345	1	-1
544.685	1	8
545.025	1	2
545.365	1	10
545.705	1	1
546.045	1	2
546.386	1	-1
546.726	1	-1
547.066	1	4
547.406	1	-11
547.746	1	3
548.086	1	-8
548.426	1	9
548.766	1	5
549.106	1	-7
549.446	1	7
549.786	1	5
550.126	1	15
550.466	1	6
550.806	1	5
551.146	1	6
551.486	1	7
551.826	1	-2
552.166	1	2
552.506	1	10
552.846	1	-1
553.186	1	1
553.526	1	12
553.866	1	-10
554.206	1	-5
554.546	1	8
554.886	1	1
555.226	1	4
555.566	1	1
555.906	1	-1
556.246	1	1
556.586	1	2
556.926	1	-4
557.266	1	3
557.606	1	-3
557.946	1	2
558.286	1	6
558.626	1	-9
558.966	1	0
559.306	1	6
559.646	1	10
559.986	1	1
560.325	1	-12
560.665	1	5
561.005	1	0
561.345	1	6
561.685	1	2
562.025	1	-2
562.365	1	2
562.705	1	9
563.045	1	-5
563.385	1	2
563.725	1	-1
564.064	1	19
564.404	1	8
564.744	1	-4
565.084	1	-3
565.424	1	-6
565.764	1	6
566.104	1	-6
566.444	1	9
566.783	1	10
567.123	1	7
567.463	1	10
567.803	1	-1
568.143	1	3
568.483	1	4
568.823	1	-6
569.162	1	13
569.502	1	-6
569.842	1	4
570.182	1	0
570.522	1	-11
570.862	1	17
571.201	1	4
571.541	1	-5
571.881	1	-4
572.221	1	9
572.561	1	10
572.900	1	6
573.240	1	-5
573.580	1	3
573.920	1	7
574.260	1	8
574.599	1	9
574.939	1	12
575.279	1	-9
575.619	1	0
575.959	1	3
576.298	1	4
576.638	1	-1
576.978	1	-6
577.318	1	2
577.657	1	10
577.997	1	6
578.337	1	-5
578.677	1	13
579.016	1	1
579.356	1	12
579.696	1	-5
580.036	1	-4
580.375	1	-3
580.715	1	9
581.055	1	3
581.394	1	4
581.734	1	7
582.074	1	0
582.414	1	-5
582.753	1	6
583.093	1	2
583.433	1	-3
583.772	1	1
584.112	1	7
584.452	1	9
584.791	1	6
585.131	1	12
585.471	1	-1
585.811	1	8
586.150	1	0
586.490	1	-6
586.830	1	-8
587.169	1	0
587.509	1	15
587.849	1	-1
588.188	1	12
588.528	1	5
588.867	1	3
589.207	1	-5
589.547	1	-6
589.886	1	8
590.226	1	13
590.566	1	3
590.905	1	9
591.245	1	-1
591.585	1	12
591.924	1	-2
592.264	1	3
592.603	1	0
592.943	1	-3
593.283	1	2
593.622	1	7
593.962	1	9
594.301	1	-10
594.641	1	7
594.981	1	-5
595.320	1	16
595.660	1	-4
595.999	1	10
596.339	1	7
596.678	1	3
597.018	1	1
597.358	1	-4
597.697	1	-7
598.037	1	4
598.376	1	1
598.716	1	7
599.055	1	5
599.395	1	-12
599.734	1	0
600.074	1	11
600.413	1	3
600.753	1	6
601.092	1	3
601.432	1	-2
601.771	1	9
602.111	1	-4
602.451	1	2
602.790	1	-4
603.130	1	11
603.469	1	3
603.809	1	2
604.148	1	3
604.487	1	7
604.827	1	0
605.166	1	5
605.506	1	4
605.845	1	-7
606.185	1	1
606.524	1	1
606.864	1	14
607.203	1	-2
607.543	1	1
607.882	1	5
608.222	1	-1
608.561	1	-11
608.901	1	8
609.240	1	1
609.579	1	9
609.919	1	6
610.258	1	2
610.598	1	-1
610.937	1	6
611.277	1	4
611.616	1	-7
611.955	1	-4
612.295	1	10
612.634	1	-1
612.974	1	2
613.313	1	-7
613.652	1	-5
613.992	1	-6
614.331	1	6
614.671	1	9
615.010	1	1
615.349	1	0
615.689	1	2
616.028	1	12
616.368	1	4
616.707	1	6
617.046	1	2
617.386	1	0
617.725	1	7
618.064	1	5
618.404	1	-1
618.743	1	3
619.082	1	-3
619.422	1	2
619.761	1	6
620.100	1	-5
620.440	1	0
620.779	1	8
621.118	1	-2
621.458	1	9
621.797	1	6
622.136	1	5
622.476	1	8
622.815	1	-6
623.154	1	8
623.494	1	2
623.833	1	14
624.172	1	-3
624.511	1	6
624.851	1	1
625.190	1	1
625.529	1	-7
625.869	1	5
626.208	1	-2
626.547	1	-5
626.886	1	-3
627.226	1	-2
627.565	1	8
627.904	1	5
628.243	1	9
628.583	1	-6
628.922	1	-3
629.261	1	-9
629.600	1	2
629.940	1	8
630.279	1	4
630.618	1	6
630.957	1	0
631.297	1	-7
631.636	1	7
631.975	1	6
632.314	1	2
632.653	1	2
632.993	1	10
633.332	1	6
633.671	1	-6
634.010	1	-4
634.349	1	1
634.689	1	10
635.028	1	5
635.367	1	4
635.706	1	-5
636.045	1	5
636.384	1	11
636.724	1	11
637.063	1	-3
637.402	1	-10
637.741	1	10
638.080	1	11
638.419	1	11
638.759	1	7
639.098	1	-2
639.437	1	17
639.776	1	2
640.115	1	-2
640.454	1	5
640.793	1	-10
641.132	1	10
641.472	1	-3
641.811	1	0
642.150	1	-12
642.489	1	7
642.828	1	10
643.167	1	5
643.506	1	10
643.845	1	-3
644.184	1	-6
644.524	1	-3
644.863	1	6
645.202	1	10
645.541	1	-2
645.880	1	3
646.219	1	4
646.558	1	0
646.897	1	3
647.236	1	7
647.575	1	-9
647.914	1	-5
648.253	1	-4
648.592	1	-9
648.931	1	-4
649.270	1	-7
649.610	1	-6
649.949	1	-1
650.288	1	5
650.627	1	-11
650.966	1	-2
651.305	1	0
651.644	1	2
651.983	1	-15
652.322	1	-1
652.661	1	-4
653.000	1	1
653.339	1	5
653.678	1	-2
654.017	1	-5
654.356	1	6
654.695	1	0
655.034	1	5
655.373	1	-7
655.712	1	-4
656.051	1	8
656.390	1	-4
656.729	1	8
657.068	1	-5
657.406	1	6
657.745	1	-5
658.084	1	-5
658.423	1	-1
658.762	1	14
659.101	1	10
659.440	1	-4
659.779	1	6
660.118	1	1
660.457	1	-5
660.796	1	8
661.135	1	14
661.474	1	0
661.813	1	-5
662.152	1	-1
662.491	1	14
662.829	1	3
663.168	1	-1
663.507	1	-2
663.846	1	-1
664.185	1	-2
664.524	1	-7
664.863	1	-1
665.202	1	2
665.541	1	-8
665.879	1	4
666.218	1	3
666.557	1	3
666.896	1	0
667.235	1	5
667.574	1	17
667.913	1	3
668.251	1	5
668.590	1	9
668.929	1	2
669.268	1	-3
669.607	1	-5
669.946	1	10
670.285	1	8
670.623	1	13
670.962	1	1
671.301	1	5
671.640	1	-2
671.979	1	9
672.317	1	-5
672.656	1	-1
672.995	1	3
673.334	1	-8
673.673	1	4
674.011	1	-3
674.350	1	4
674.689	1	7
675.028	1	4
675.367	1	-3
675.705	1	8
676.044	1	2
676.383	1	5
676.722	1	3
677.060	1	-1
677.399	1	-2
677.738	1	0
678.077	1	-2
678.416	1	9
678.754	1	0
679.093	1	1
679.432	1	4
679.771	1	2
680.109	1	7
680.448	1	2
680.787	1	10
681.125	1	11
681.464	1	-7
681.803	1	4
682.142	1	-5
682.480	1	10
682.819	1	1
683.158	1	-2
683.496	1	2
683.835	1	-5
684.174	1	2
684.512	1	4
684.851	1	-6
685.190	1	8
685.529	1	-13
685.867	1	-1
686.206	1	12
686.545	1	-7
686.883	1	1
687.222	1	8
687.561	1	1
687.899	1	-1
688.238	1	12
688.577	1	4
688.746	1	7