File: Data/GaN_130K_350ms/GaN_sample F_spot6_UVVIS_130 K_200um_350 ms 2x2mm1_250.txt
340.368	1	3
340.710	1	8
341.052	1	-2
341.394	1	-2
341.737	1	4
342.079	1	-4
342.421	1	11
342.763	1	5
343.105	1	4
343.447	1	3
343.789	1	5
344.131	1	5
344.473	1	-3
344.815	1	-6
345.157	1	-8
345.499	1	-5
345.841	1	0
346.183	1	19
346.526	1	1
346.868	1	-2
347.210	1	2
347.552	1	2
347.894	1	0
348.236	1	-1
348.578	1	-4
348.920	1	-8
349.262	1	9
349.604	1	8
349.946	1	6
350.288	1	-10
350.630	1	-2
350.972	1	15
351.314	1	1
351.656	1	7
351.998	1	-2
352.340	1	7
352.682	1	2
353.024	1	3
353.366	1	6
353.708	1	2
354.050	1	7
354.392	1	1
354.734	1	1
355.076	1	5
355.418	1	10
355.760	1	6
356.102	1	2
356.444	1	-9
356.785	1	7
357.127	1	6
357.469	1	-5
357.811	1	-5
358.153	1	1
358.495	1	5
358.837	1	7
359.179	1	7
359.521	1	1
359.863	1	5
360.205	1	-5
360.547	1	-3
360.889	1	5
361.231	1	2
361.572	1	12
361.914	1	10
362.256	1	5
362.598	1	7
362.940	1	10
363.282	1	11
363.624	1	7
363.966	1	17
364.308	1	12
364.649	1	10
364.991	1	5
365.333	1	3
365.675	1	13
366.017	1	11
366.359	1	13
366.701	1	11
367.042	1	14
367.384	1	17
367.726	1	11
368.068	1	7
368.410	1	5
368.752	1	16
369.093	1	15
369.435	1	8
369.777	1	11
370.119	1	22
370.461	1	9
370.803	1	6
371.144	1	9
371.486	1	4
371.828	1	10
372.170	1	6
372.512	1	10
372.853	1	1
373.195	1	3
373.537	1	17
373.879	1	13
374.220	1	7
374.562	1	-10
374.904	1	4
375.246	1	4
375.588	1	12
375.929	1	-1
376.271	1	3
376.613	1	-5
376.955	1	9
377.296	1	1
377.638	1	-6
377.980	1	8
378.321	1	9
378.663	1	15
379.005	1	17
379.347	1	2
379.688	1	0
380.030	1	4
380.372	1	7
380.714	1	21
381.055	1	8
381.397	1	8
381.739	1	14
382.080	1	-6
382.422	1	11
382.764	1	5
383.105	1	1
383.447	1	2
383.789	1	10
384.130	1	6
384.472	1	11
384.814	1	10
385.156	1	6
385.497	1	3
385.839	1	10
386.180	1	4
386.522	1	-3
386.864	1	10
387.205	1	3
387.547	1	11
387.889	1	-1
388.230	1	-7
388.572	1	15
388.914	1	8
389.255	1	-4
389.597	1	-1
389.939	1	10
390.280	1	10
390.622	1	-3
390.963	1	7
391.305	1	9
391.647	1	11
391.988	1	6
392.330	1	-3
392.671	1	-2
393.013	1	4
393.355	1	-2
393.696	1	0
394.038	1	14
394.379	1	1
394.721	1	6
395.062	1	-1
395.404	1	-8
395.746	1	15
396.087	1	10
396.429	1	4
396.770	1	17
397.112	1	3
397.453	1	15
397.795	1	-12
398.136	1	7
398.478	1	7
398.819	1	-9
399.161	1	8
399.503	1	12
399.844	1	-4
400.186	1	1
400.527	1	17
400.869	1	0
401.210	1	3
401.552	1	5
401.893	1	-3
402.235	1	11
402.576	1	-1
402.918	1	4
403.259	1	0
403.601	1	9
403.942	1	0
404.284	1	2
404.625	1	5
404.967	1	1
405.308	1	0
405.649	1	3
405.991	1	7
406.332	1	8
406.674	1	6
407.015	1	7
407.357	1	3
407.698	1	5
408.040	1	14
408.381	1	9
408.722	1	10
409.064	1	6
409.405	1	15
409.747	1	-1
410.088	1	14
410.430	1	15
410.771	1	-4
411.112	1	6
411.454	1	7
411.795	1	8
412.137	1	-3
412.478	1	4
412.819	1	4
413.161	1	6
413.502	1	15
413.844	1	6
414.185	1	9
414.526	1	4
414.868	1	1
415.209	1	1
415.550	1	-2
415.892	1	6
416.233	1	8
416.575	1	-1
416.916	1	6
417.257	1	12
417.599	1	2
417.940	1	15
418.281	1	-5
418.623	1	5
418.964	1	-9
419.305	1	7
419.647	1	2
419.988	1	14
420.329	1	12
420.671	1	5
421.012	1	3
421.353	1	-7
421.695	1	8
422.036	1	3
422.377	1	9
422.718	1	-2
423.060	1	5
423.401	1	14
423.742	1	13
424.084	1	7
424.425	1	9
424.766	1	-7
425.107	1	-2
425.449	1	9
425.790	1	14
426.131	1	11
426.472	1	1
426.814	1	4
427.155	1	5
427.496	1	7
427.837	1	4
428.179	1	7
428.520	1	4
428.861	1	0
429.202	1	-1
429.544	1	16
429.885	1	-2
430.226	1	3
430.567	1	4
430.909	1	4
431.250	1	10
431.591	1	9
431.932	1	-1
432.273	1	7
432.615	1	13
432.956	1	-5
433.297	1	10
433.638	1	10
433.979	1	13
434.320	1	2
434.662	1	10
435.003	1	12
435.344	1	15
435.685	1	-8
436.026	1	1
436.368	1	3
436.709	1	2
437.050	1	3
437.391	1	14
437.732	1	4
438.073	1	11
438.414	1	-5
438.756	1	6
439.097	1	8
439.438	1	8
439.779	1	7
440.120	1	9
440.461	1	11
440.802	1	-1
441.143	1	1
441.485	1	11
441.826	1	-1
442.167	1	8
442.508	1	4
442.849	1	7
443.190	1	0
443.531	1	7
443.872	1	4
444.213	1	2
444.554	1	0
444.895	1	3
445.237	1	2
445.578	1	-2
445.919	1	10
446.260	1	2
446.601	1	4
446.942	1	0
447.283	1	12
447.624	1	3
447.965	1	1
448.306	1	5
448.647	1	10
448.988	1	3
449.329	1	0
449.670	1	-4
450.011	1	-4
450.352	1	12
450.693	1	4
451.034	1	-2
451.375	1	3
451.716	1	1
452.057	1	16
452.398	1	-3
452.739	1	4
453.080	1	9
453.421	1	3
453.762	1	-4
454.103	1	6
454.444	1	3
454.785	1	12
455.126	1	-9
455.467	1	-1
455.808	1	5
456.149	1	5
456.490	1	9
456.831	1	2
457.172	1	6
457.513	1	2
457.854	1	-4
458.195	1	-1
458.536	1	-7
458.877	1	23
459.218	1	6
459.559	1	8
459.899	1	4
460.240	1	21
460.581	1	0
460.922	1	2
461.263	1	9
461.604	1	-10
461.945	1	9
462.286	1	3
462.627	1	-1
462.968	1	1
463.309	1	-3
463.649	1	-1
463.990	1	-2
464.331	1	2
464.672	1	6
465.013	1	-4
465.354	1	7
465.695	1	2
466.036	1	8
466.376	1	-1
466.717	1	10
467.058	1	0
467.399	1	1
467.740	1	13
468.081	1	11
468.422	1	8
468.762	1	3
469.103	1	2
469.444	1	2
469.785	1	9
470.126	1	-10
470.467	1	0
470.807	1	2
471.148	1	2
471.489	1	-10
471.830	1	0
472.171	1	-1
472.511	1	6
472.852	1	-3
473.193	1	9
473.534	1	2
473.875	1	13
474.215	1	-1
474.556	1	9
474.897	1	-4
475.238	1	15
475.578	1	8
475.919	1	7
476.260	1	3
476.601	1	5
476.942	1	7
477.282	1	-1
477.623	1	-6
477.964	1	2
478.305	1	9
478.645	1	1
478.986	1	-1
479.327	1	-4
479.667	1	7
480.008	1	-2
480.349	1	-7
480.690	1	0
481.030	1	2
481.371	1	6
481.712	1	9
482.053	1	7
482.393	1	3
482.734	1	0
483.075	1	11
483.415	1	-6
483.756	1	1
484.097	1	-2
484.437	1	-5
484.778	1	9
485.119	1	-1
485.459	1	-6
485.800	1	4
486.141	1	0
486.481	1	-1
486.822	1	6
487.163	1	-2
487.503	1	-3
487.844	1	-10
488.185	1	7
488.525	1	9
488.866	1	3
489.207	1	5
489.547	1	-1
489.888	1	4
490.228	1	0
490.569	1	-5
490.910	1	2
491.250	1	10
491.591	1	-2
491.932	1	4
492.272	1	1
492.613	1	0
492.953	1	3
493.294	1	10
493.635	1	7
493.975	1	7
494.316	1	1
494.656	1	-2
494.997	1	3
495.337	1	1
495.678	1	-2
496.019	1	3
496.359	1	13
496.700	1	-2
497.040	1	14
497.381	1	-1
497.721	1	3
498.062	1	1
498.403	1	-6
498.743	1	19
499.084	1	9
499.424	1	-8
499.765	1	-4
500.105	1	-2
500.446	1	1
500.786	1	9
501.127	1	13
501.467	1	8
501.808	1	4
502.148	1	3
502.489	1	1
502.829	1	7
503.170	1	-8
503.510	1	8
503.851	1	8
504.191	1	0
504.532	1	10
504.872	1	7
505.213	1	2
505.553	1	5
505.894	1	4
506.234	1	0
506.575	1	10
506.915	1	2
507.256	1	12
507.596	1	3
507.936	1	-6
508.277	1	-3
508.617	1	-1
508.958	1	14
509.298	1	-4
509.639	1	5
509.979	1	4
510.319	1	14
510.660	1	1
511.000	1	-5
511.341	1	-1
511.681	1	4
512.022	1	5
512.362	1	-3
512.702	1	13
513.043	1	3
513.383	1	9
513.724	1	-4
514.064	1	0
514.404	1	19
514.745	1	-3
515.085	1	6
515.425	1	13
515.766	1	11
516.106	1	2
516.447	1	4
516.787	1	1
517.127	1	7
517.468	1	9
517.808	1	-13
518.148	1	3
518.489	1	5
518.829	1	16
519.169	1	10
519.510	1	5
519.850	1	15
520.190	1	14
520.531	1	13
520.871	1	-4
521.211	1	7
521.552	1	7
521.892	1	7
522.232	1	-2
522.573	1	10
522.913	1	11
523.253	1	11
523.593	1	6
523.934	1	4
524.274	1	-7
524.614	1	3
524.955	1	8
525.295	1	12
525.635	1	-4
525.975	1	14
526.316	1	0
526.656	1	-4
526.996	1	6
527.337	1	11
527.677	1	-4
528.017	1	1
528.357	1	11
528.698	1	0
529.038	1	-2
529.378	1	9
529.718	1	7
530.058	1	3
530.399	1	4
530.739	1	0
531.079	1	-5
531.419	1	3
531.760	1	-3
532.100	1	11
532.440	1	5
532.780	1	4
533.120	1	14
533.461	1	8
533.801	1	16
534.141	1	-3
534.481	1	9
534.821	1	7
535.162	1	14
535.502	1	1
535.842	1	8
536.182	1	6
536.522	1	-2
536.862	1	5
537.203	1	-4
537.543	1	6
537.883	1	1
538.223	1	15
538.563	1	11
538.903	1	15
539.243	1	-1
539.584	1	2
539.924	1	2
540.264	1	2
540.604	1	6
540.944	1	0
541.284	1	9
541.624	1	11
541.964	1	6
542.305	1	0
542.645	1	0
542.985	1	3
543.325	1	10
543.665	1	8
544.005	1	18
544.345	1	7
544.685	1	8
545.025	1	4
545.365	1	8
545.705	1	2
546.045	1	5
546.386	1	0
546.726	1	-3
547.066	1	10
547.406	1	-6
547.746	1	1
548.086	1	5
548.426	1	14
548.766	1	-1
549.106	1	2
549.446	1	3
549.786	1	10
550.126	1	10
550.466	1	15
550.806	1	3
551.146	1	-3
551.486	1	8
551.826	1	-5
552.166	1	10
552.506	1	5
552.846	1	-7
553.186	1	3
553.526	1	9
553.866	1	-8
554.206	1	-5
554.546	1	-2
554.886	1	7
555.226	1	6
555.566	1	3
555.906	1	0
556.246	1	2
556.586	1	4
556.926	1	-2
557.266	1	2
557.606	1	1
557.946	1	6
558.286	1	11
558.626	1	-4
558.966	1	-6
559.306	1	13
559.646	1	6
559.986	1	2
560.325	1	-6
560.665	1	10
561.005	1	1
561.345	1	14
561.685	1	5
562.025	1	2
562.365	1	8
562.705	1	5
563.045	1	1
563.385	1	11
563.725	1	5
564.064	1	10
564.404	1	8
564.744	1	-2
565.084	1	5
565.424	1	-8
565.764	1	15
566.104	1	4
566.444	1	9
566.783	1	8
567.123	1	-1
567.463	1	3
567.803	1	7
568.143	1	8
568.483	1	2
568.823	1	-3
569.162	1	9
569.502	1	9
569.842	1	2
570.182	1	0
570.522	1	-11
570.862	1	12
571.201	1	3
571.541	1	-7
571.881	1	3
572.221	1	5
572.561	1	0
572.900	1	6
573.240	1	11
573.580	1	1
573.920	1	10
574.260	1	7
574.599	1	5
574.939	1	4
575.279	1	-10
575.619	1	8
575.959	1	4
576.298	1	2
576.638	1	1
576.978	1	-1
577.318	1	9
577.657	1	14
577.997	1	10
578.337	1	-5
578.677	1	15
579.016	1	-3
579.356	1	12
579.696	1	-12
580.036	1	-2
580.375	1	-2
580.715	1	6
581.055	1	-2
581.394	1	4
581.734	1	7
582.074	1	6
582.414	1	-1
582.753	1	5
583.093	1	13
583.433	1	9
583.772	1	3
584.112	1	4
584.452	1	8
584.791	1	-3
585.131	1	9
585.471	1	-1
585.811	1	-1
586.150	1	11
586.490	1	2
586.830	1	-2
587.169	1	8
587.509	1	5
587.849	1	1
588.188	1	7
588.528	1	-3
588.867	1	-5
589.207	1	-4
589.547	1	-6
589.886	1	8
590.226	1	9
590.566	1	7
590.905	1	17
591.245	1	-11
591.585	1	9
591.924	1	4
592.264	1	-2
592.603	1	2
592.943	1	-1
593.283	1	-7
593.622	1	6
593.962	1	7
594.301	1	-8
594.641	1	3
594.981	1	-8
595.320	1	7
595.660	1	2
595.999	1	8
596.339	1	4
596.678	1	-2
597.018	1	-3
597.358	1	-1
597.697	1	13
598.037	1	9
598.376	1	0
598.716	1	14
599.055	1	-2
599.395	1	-1
599.734	1	-1
600.074	1	1
600.413	1	6
600.753	1	2
601.092	1	-2
601.432	1	-5
601.771	1	12
602.111	1	-1
602.451	1	7
602.790	1	-4
603.130	1	1
603.469	1	6
603.809	1	-1
604.148	1	3
604.487	1	9
604.827	1	-5
605.166	1	14
605.506	1	2
605.845	1	-11
606.185	1	2
606.524	1	-2
606.864	1	8
607.203	1	-4
607.543	1	-1
607.882	1	10
608.222	1	-5
608.561	1	1
608.901	1	8
609.240	1	-7
609.579	1	8
609.919	1	9
610.258	1	4
610.598	1	1
610.937	1	4
611.277	1	6
611.616	1	-4
611.955	1	-6
612.295	1	15
612.634	1	1
612.974	1	6
613.313	1	0
613.652	1	-6
613.992	1	3
614.331	1	6
614.671	1	3
615.010	1	-5
615.349	1	1
615.689	1	1
616.028	1	6
616.368	1	8
616.707	1	17
617.046	1	7
617.386	1	-7
617.725	1	11
618.064	1	4
618.404	1	-5
618.743	1	3
619.082	1	5
619.422	1	4
619.761	1	6
620.100	1	-3
620.440	1	2
620.779	1	5
621.118	1	-3
621.458	1	5
621.797	1	6
622.136	1	2
622.476	1	12
622.815	1	-8
623.154	1	4
623.494	1	7
623.833	1	7
624.172	1	-1
624.511	1	0
624.851	1	-1
625.190	1	-3
625.529	1	-2
625.869	1	1
626.208	1	3
626.547	1	1
626.886	1	-3
627.226	1	-4
627.565	1	7
627.904	1	9
628.243	1	5
628.583	1	-9
628.922	1	-7
629.261	1	-15
629.600	1	4
629.940	1	-1
630.279	1	11
630.618	1	-12
630.957	1	2
631.297	1	2
631.636	1	10
631.975	1	6
632.314	1	1
632.653	1	1
632.993	1	7
633.332	1	1
633.671	1	-5
634.010	1	-6
634.349	1	3
634.689	1	6
635.028	1	12
635.367	1	-5
635.706	1	1
636.045	1	9
636.384	1	-2
636.724	1	12
637.063	1	5
637.402	1	-10
637.741	1	20
638.080	1	7
638.419	1	-1
638.759	1	-1
639.098	1	1
639.437	1	16
639.776	1	4
640.115	1	11
640.454	1	12
640.793	1	0
641.132	1	10
641.472	1	0
641.811	1	7
642.150	1	-14
642.489	1	3
642.828	1	-6
643.167	1	3
643.506	1	7
643.845	1	-3
644.184	1	-2
644.524	1	3
644.863	1	3
645.202	1	0
645.541	1	3
645.880	1	7
646.219	1	-4
646.558	1	-2
646.897	1	-2
647.236	1	3
647.575	1	-5
647.914	1	-3
648.253	1	-1
648.592	1	-6
648.931	1	-3
649.270	1	1
649.610	1	-1
649.949	1	11
650.288	1	8
650.627	1	3
650.966	1	6
651.305	1	8
651.644	1	4
651.983	1	-4
652.322	1	0
652.661	1	-1
653.000	1	1
653.339	1	-1
653.678	1	0
654.017	1	-4
654.356	1	-2
654.695	1	-4
655.034	1	-4
655.373	1	0
655.712	1	-5
656.051	1	-1
656.390	1	-9
656.729	1	3
657.068	1	-1
657.406	1	0
657.745	1	2
658.084	1	2
658.423	1	5
658.762	1	10
659.101	1	6
659.440	1	-11
659.779	1	8
660.118	1	-1
660.457	1	1
660.796	1	0
661.135	1	9
661.474	1	13
661.813	1	-3
662.152	1	-1
662.491	1	13
662.829	1	12
663.168	1	-5
663.507	1	6
663.846	1	2
664.185	1	0
664.524	1	-2
664.863	1	10
665.202	1	-3
665.541	1	-1
665.879	1	3
666.218	1	0
666.557	1	4
666.896	1	11
667.235	1	6
667.574	1	16
667.913	1	7
668.251	1	1
668.590	1	0
668.929	1	3
669.268	1	0
669.607	1	2
669.946	1	10
670.285	1	3
670.623	1	9
670.962	1	-5
671.301	1	-5
671.640	1	-11
671.979	1	2
672.317	1	3
672.656	1	3
672.995	1	11
673.334	1	0
673.673	1	10
674.011	1	-1
674.350	1	-3
674.689	1	8
675.028	1	8
675.367	1	0
675.705	1	11
676.044	1	6
676.383	1	13
676.722	1	0
677.060	1	-3
677.399	1	0
677.738	1	5
678.077	1	5
678.416	1	10
678.754	1	0
679.093	1	-5
679.432	1	5
679.771	1	4
680.109	1	10
680.448	1	7
680.787	1	8
681.125	1	8
681.464	1	0
681.803	1	-1
682.142	1	-1
682.480	1	12
682.819	1	3
683.158	1	2
683.496	1	4
683.835	1	0
684.174	1	7
684.512	1	8
684.851	1	1
685.190	1	1
685.529	1	-7
685.867	1	-3
686.206	1	8
686.545	1	-7
686.883	1	-6
687.222	1	4
687.561	1	10
687.899	1	7
688.238	1	6
688.577	1	-1
688.746	1	5