File: Data/GaN_130K_350ms/GaN_sample F_spot6_UVVIS_130 K_200um_350 ms 2x2mm1_142.txt
340.368	1	13
340.710	1	11
341.052	1	-4
341.394	1	3
341.737	1	4
342.079	1	4
342.421	1	6
342.763	1	5
343.105	1	4
343.447	1	6
343.789	1	-3
344.131	1	4
344.473	1	3
344.815	1	-2
345.157	1	-9
345.499	1	-3
345.841	1	7
346.183	1	0
346.526	1	-1
346.868	1	5
347.210	1	7
347.552	1	-3
347.894	1	4
348.236	1	6
348.578	1	-3
348.920	1	9
349.262	1	14
349.604	1	8
349.946	1	-3
350.288	1	-14
350.630	1	-2
350.972	1	14
351.314	1	1
351.656	1	8
351.998	1	2
352.340	1	6
352.682	1	2
353.024	1	9
353.366	1	8
353.708	1	0
354.050	1	14
354.392	1	10
354.734	1	8
355.076	1	10
355.418	1	2
355.760	1	8
356.102	1	-7
356.444	1	-3
356.785	1	11
357.127	1	9
357.469	1	0
357.811	1	8
358.153	1	3
358.495	1	14
358.837	1	5
359.179	1	9
359.521	1	6
359.863	1	6
360.205	1	13
360.547	1	3
360.889	1	10
361.231	1	12
361.572	1	22
361.914	1	21
362.256	1	16
362.598	1	17
362.940	1	8
363.282	1	34
363.624	1	15
363.966	1	30
364.308	1	35
364.649	1	34
364.991	1	29
365.333	1	23
365.675	1	37
366.017	1	27
366.359	1	40
366.701	1	41
367.042	1	40
367.384	1	46
367.726	1	46
368.068	1	32
368.410	1	31
368.752	1	59
369.093	1	49
369.435	1	38
369.777	1	43
370.119	1	51
370.461	1	46
370.803	1	44
371.144	1	34
371.486	1	28
371.828	1	44
372.170	1	28
372.512	1	39
372.853	1	34
373.195	1	25
373.537	1	34
373.879	1	36
374.220	1	21
374.562	1	22
374.904	1	23
375.246	1	23
375.588	1	24
375.929	1	18
376.271	1	22
376.613	1	18
376.955	1	22
377.296	1	21
377.638	1	11
377.980	1	21
378.321	1	15
378.663	1	18
379.005	1	24
379.347	1	15
379.688	1	16
380.030	1	17
380.372	1	20
380.714	1	28
381.055	1	13
381.397	1	17
381.739	1	19
382.080	1	9
382.422	1	17
382.764	1	15
383.105	1	11
383.447	1	14
383.789	1	22
384.130	1	17
384.472	1	15
384.814	1	15
385.156	1	17
385.497	1	8
385.839	1	14
386.180	1	12
386.522	1	15
386.864	1	22
387.205	1	13
387.547	1	14
387.889	1	0
388.230	1	6
388.572	1	22
388.914	1	12
389.255	1	12
389.597	1	-3
389.939	1	18
390.280	1	17
390.622	1	9
390.963	1	21
391.305	1	13
391.647	1	16
391.988	1	21
392.330	1	6
392.671	1	3
393.013	1	11
393.355	1	5
393.696	1	6
394.038	1	10
394.379	1	10
394.721	1	11
395.062	1	3
395.404	1	5
395.746	1	7
396.087	1	18
396.429	1	10
396.770	1	13
397.112	1	12
397.453	1	17
397.795	1	1
398.136	1	10
398.478	1	10
398.819	1	2
399.161	1	12
399.503	1	14
399.844	1	11
400.186	1	12
400.527	1	9
400.869	1	8
401.210	1	4
401.552	1	16
401.893	1	1
402.235	1	6
402.576	1	8
402.918	1	17
403.259	1	11
403.601	1	11
403.942	1	10
404.284	1	7
404.625	1	15
404.967	1	14
405.308	1	4
405.649	1	4
405.991	1	12
406.332	1	9
406.674	1	19
407.015	1	-2
407.357	1	6
407.698	1	7
408.040	1	6
408.381	1	16
408.722	1	8
409.064	1	11
409.405	1	18
409.747	1	12
410.088	1	15
410.430	1	17
410.771	1	-11
411.112	1	17
411.454	1	9
411.795	1	14
412.137	1	1
412.478	1	9
412.819	1	11
413.161	1	15
413.502	1	12
413.844	1	14
414.185	1	26
414.526	1	2
414.868	1	-1
415.209	1	10
415.550	1	-1
415.892	1	5
416.233	1	12
416.575	1	12
416.916	1	2
417.257	1	5
417.599	1	10
417.940	1	7
418.281	1	-8
418.623	1	14
418.964	1	5
419.305	1	3
419.647	1	6
419.988	1	19
420.329	1	13
420.671	1	0
421.012	1	0
421.353	1	3
421.695	1	7
422.036	1	2
422.377	1	16
422.718	1	10
423.060	1	3
423.401	1	10
423.742	1	11
424.084	1	11
424.425	1	12
424.766	1	5
425.107	1	6
425.449	1	4
425.790	1	9
426.131	1	16
426.472	1	2
426.814	1	-1
427.155	1	11
427.496	1	2
427.837	1	11
428.179	1	5
428.520	1	5
428.861	1	2
429.202	1	13
429.544	1	14
429.885	1	6
430.226	1	4
430.567	1	13
430.909	1	4
431.250	1	8
431.591	1	-3
431.932	1	-1
432.273	1	19
432.615	1	15
432.956	1	-8
433.297	1	19
433.638	1	9
433.979	1	9
434.320	1	8
434.662	1	3
435.003	1	22
435.344	1	9
435.685	1	1
436.026	1	3
436.368	1	11
436.709	1	2
437.050	1	10
437.391	1	22
437.732	1	1
438.073	1	16
438.414	1	-4
438.756	1	4
439.097	1	0
439.438	1	5
439.779	1	11
440.120	1	7
440.461	1	18
440.802	1	-4
441.143	1	1
441.485	1	0
441.826	1	4
442.167	1	12
442.508	1	8
442.849	1	11
443.190	1	4
443.531	1	8
443.872	1	10
444.213	1	1
444.554	1	1
444.895	1	7
445.237	1	1
445.578	1	0
445.919	1	0
446.260	1	-1
446.601	1	2
446.942	1	2
447.283	1	8
447.624	1	9
447.965	1	4
448.306	1	5
448.647	1	11
448.988	1	11
449.329	1	8
449.670	1	-4
450.011	1	-6
450.352	1	16
450.693	1	11
451.034	1	3
451.375	1	6
451.716	1	2
452.057	1	18
452.398	1	-4
452.739	1	7
453.080	1	3
453.421	1	3
453.762	1	7
454.103	1	3
454.444	1	4
454.785	1	12
455.126	1	-2
455.467	1	-1
455.808	1	9
456.149	1	4
456.490	1	10
456.831	1	1
457.172	1	2
457.513	1	-4
457.854	1	9
458.195	1	-7
458.536	1	8
458.877	1	21
459.218	1	3
459.559	1	3
459.899	1	7
460.240	1	19
460.581	1	-6
460.922	1	4
461.263	1	14
461.604	1	-12
461.945	1	14
462.286	1	8
462.627	1	-4
462.968	1	7
463.309	1	3
463.649	1	10
463.990	1	3
464.331	1	11
464.672	1	0
465.013	1	7
465.354	1	3
465.695	1	5
466.036	1	-1
466.376	1	6
466.717	1	9
467.058	1	1
467.399	1	1
467.740	1	21
468.081	1	3
468.422	1	11
468.762	1	0
469.103	1	4
469.444	1	-6
469.785	1	8
470.126	1	-4
470.467	1	8
470.807	1	5
471.148	1	3
471.489	1	5
471.830	1	0
472.171	1	11
472.511	1	-1
472.852	1	10
473.193	1	-3
473.534	1	-6
473.875	1	7
474.215	1	1
474.556	1	8
474.897	1	-11
475.238	1	14
475.578	1	3
475.919	1	1
476.260	1	2
476.601	1	6
476.942	1	9
477.282	1	5
477.623	1	2
477.964	1	2
478.305	1	12
478.645	1	4
478.986	1	3
479.327	1	5
479.667	1	16
480.008	1	9
480.349	1	7
480.690	1	0
481.030	1	8
481.371	1	8
481.712	1	8
482.053	1	4
482.393	1	8
482.734	1	12
483.075	1	16
483.415	1	1
483.756	1	6
484.097	1	8
484.437	1	-4
484.778	1	18
485.119	1	9
485.459	1	-7
485.800	1	15
486.141	1	-1
486.481	1	3
486.822	1	13
487.163	1	4
487.503	1	-3
487.844	1	12
488.185	1	6
488.525	1	7
488.866	1	4
489.207	1	3
489.547	1	2
489.888	1	8
490.228	1	-1
490.569	1	8
490.910	1	-2
491.250	1	13
491.591	1	1
491.932	1	3
492.272	1	1
492.613	1	3
492.953	1	3
493.294	1	5
493.635	1	7
493.975	1	14
494.316	1	20
494.656	1	11
494.997	1	6
495.337	1	5
495.678	1	0
496.019	1	0
496.359	1	8
496.700	1	7
497.040	1	17
497.381	1	4
497.721	1	9
498.062	1	-3
498.403	1	-1
498.743	1	15
499.084	1	19
499.424	1	1
499.765	1	9
500.105	1	10
500.446	1	12
500.786	1	15
501.127	1	16
501.467	1	5
501.808	1	17
502.148	1	8
502.489	1	10
502.829	1	5
503.170	1	3
503.510	1	8
503.851	1	12
504.191	1	8
504.532	1	19
504.872	1	16
505.213	1	0
505.553	1	7
505.894	1	14
506.234	1	9
506.575	1	9
506.915	1	11
507.256	1	20
507.596	1	9
507.936	1	6
508.277	1	6
508.617	1	6
508.958	1	14
509.298	1	11
509.639	1	10
509.979	1	-1
510.319	1	12
510.660	1	9
511.000	1	12
511.341	1	11
511.681	1	12
512.022	1	9
512.362	1	7
512.702	1	18
513.043	1	12
513.383	1	7
513.724	1	4
514.064	1	6
514.404	1	21
514.745	1	13
515.085	1	24
515.425	1	12
515.766	1	22
516.106	1	9
516.447	1	15
516.787	1	20
517.127	1	12
517.468	1	17
517.808	1	11
518.148	1	18
518.489	1	16
518.829	1	23
519.169	1	21
519.510	1	1
519.850	1	23
520.190	1	19
520.531	1	18
520.871	1	15
521.211	1	18
521.552	1	19
521.892	1	22
522.232	1	16
522.573	1	6
522.913	1	21
523.253	1	19
523.593	1	23
523.934	1	15
524.274	1	11
524.614	1	14
524.955	1	16
525.295	1	18
525.635	1	13
525.975	1	21
526.316	1	13
526.656	1	20
526.996	1	21
527.337	1	25
527.677	1	16
528.017	1	13
528.357	1	16
528.698	1	11
529.038	1	3
529.378	1	24
529.718	1	19
530.058	1	17
530.399	1	13
530.739	1	8
531.079	1	15
531.419	1	13
531.760	1	16
532.100	1	21
532.440	1	22
532.780	1	16
533.120	1	24
533.461	1	14
533.801	1	31
534.141	1	17
534.481	1	13
534.821	1	29
535.162	1	17
535.502	1	17
535.842	1	27
536.182	1	17
536.522	1	9
536.862	1	15
537.203	1	11
537.543	1	27
537.883	1	8
538.223	1	18
538.563	1	14
538.903	1	24
539.243	1	23
539.584	1	13
539.924	1	6
540.264	1	9
540.604	1	23
540.944	1	20
541.284	1	15
541.624	1	30
541.964	1	10
542.305	1	5
542.645	1	10
542.985	1	24
543.325	1	18
543.665	1	15
544.005	1	18
544.345	1	18
544.685	1	26
545.025	1	10
545.365	1	19
545.705	1	8
546.045	1	13
546.386	1	8
546.726	1	7
547.066	1	15
547.406	1	12
547.746	1	16
548.086	1	3
548.426	1	18
548.766	1	11
549.106	1	13
549.446	1	14
549.786	1	11
550.126	1	24
550.466	1	17
550.806	1	17
551.146	1	8
551.486	1	12
551.826	1	26
552.166	1	17
552.506	1	15
552.846	1	10
553.186	1	17
553.526	1	18
553.866	1	-2
554.206	1	1
554.546	1	15
554.886	1	7
555.226	1	14
555.566	1	10
555.906	1	16
556.246	1	10
556.586	1	12
556.926	1	16
557.266	1	14
557.606	1	7
557.946	1	14
558.286	1	20
558.626	1	3
558.966	1	13
559.306	1	8
559.646	1	13
559.986	1	19
560.325	1	10
560.665	1	13
561.005	1	10
561.345	1	17
561.685	1	15
562.025	1	4
562.365	1	10
562.705	1	11
563.045	1	11
563.385	1	9
563.725	1	13
564.064	1	17
564.404	1	8
564.744	1	7
565.084	1	13
565.424	1	-2
565.764	1	15
566.104	1	1
566.444	1	15
566.783	1	16
567.123	1	11
567.463	1	12
567.803	1	17
568.143	1	9
568.483	1	14
568.823	1	2
569.162	1	17
569.502	1	5
569.842	1	6
570.182	1	11
570.522	1	-3
570.862	1	18
571.201	1	10
571.541	1	4
571.881	1	9
572.221	1	11
572.561	1	11
572.900	1	10
573.240	1	9
573.580	1	7
573.920	1	15
574.260	1	13
574.599	1	18
574.939	1	9
575.279	1	3
575.619	1	12
575.959	1	15
576.298	1	8
576.638	1	6
576.978	1	5
577.318	1	8
577.657	1	18
577.997	1	5
578.337	1	6
578.677	1	26
579.016	1	4
579.356	1	12
579.696	1	4
580.036	1	3
580.375	1	1
580.715	1	6
581.055	1	2
581.394	1	3
581.734	1	5
582.074	1	-1
582.414	1	-10
582.753	1	0
583.093	1	10
583.433	1	7
583.772	1	8
584.112	1	11
584.452	1	14
584.791	1	8
585.131	1	13
585.471	1	11
585.811	1	15
586.150	1	1
586.490	1	8
586.830	1	-6
587.169	1	10
587.509	1	6
587.849	1	3
588.188	1	7
588.528	1	11
588.867	1	14
589.207	1	4
589.547	1	6
589.886	1	13
590.226	1	17
590.566	1	5
590.905	1	7
591.245	1	8
591.585	1	9
591.924	1	2
592.264	1	5
592.603	1	4
592.943	1	8
593.283	1	2
593.622	1	17
593.962	1	10
594.301	1	-8
594.641	1	5
594.981	1	3
595.320	1	8
595.660	1	1
595.999	1	13
596.339	1	10
596.678	1	-8
597.018	1	-1
597.358	1	4
597.697	1	1
598.037	1	7
598.376	1	2
598.716	1	8
599.055	1	1
599.395	1	-3
599.734	1	3
600.074	1	11
600.413	1	7
600.753	1	7
601.092	1	6
601.432	1	0
601.771	1	7
602.111	1	0
602.451	1	7
602.790	1	8
603.130	1	14
603.469	1	1
603.809	1	6
604.148	1	9
604.487	1	20
604.827	1	1
605.166	1	9
605.506	1	1
605.845	1	-6
606.185	1	8
606.524	1	2
606.864	1	20
607.203	1	5
607.543	1	2
607.882	1	12
608.222	1	3
608.561	1	-1
608.901	1	4
609.240	1	3
609.579	1	5
609.919	1	15
610.258	1	5
610.598	1	9
610.937	1	10
611.277	1	18
611.616	1	10
611.955	1	3
612.295	1	8
612.634	1	2
612.974	1	13
613.313	1	6
613.652	1	-2
613.992	1	10
614.331	1	12
614.671	1	13
615.010	1	-2
615.349	1	10
615.689	1	1
616.028	1	15
616.368	1	6
616.707	1	20
617.046	1	8
617.386	1	4
617.725	1	5
618.064	1	5
618.404	1	8
618.743	1	15
619.082	1	5
619.422	1	8
619.761	1	7
620.100	1	-2
620.440	1	6
620.779	1	4
621.118	1	-2
621.458	1	6
621.797	1	3
622.136	1	6
622.476	1	6
622.815	1	-3
623.154	1	6
623.494	1	8
623.833	1	8
624.172	1	5
624.511	1	12
624.851	1	4
625.190	1	3
625.529	1	-2
625.869	1	8
626.208	1	-4
626.547	1	7
626.886	1	-5
627.226	1	1
627.565	1	-2
627.904	1	9
628.243	1	17
628.583	1	-4
628.922	1	0
629.261	1	-11
629.600	1	7
629.940	1	3
630.279	1	3
630.618	1	1
630.957	1	2
631.297	1	6
631.636	1	8
631.975	1	10
632.314	1	1
632.653	1	3
632.993	1	9
633.332	1	0
633.671	1	-4
634.010	1	2
634.349	1	9
634.689	1	1
635.028	1	10
635.367	1	4
635.706	1	2
636.045	1	6
636.384	1	6
636.724	1	8
637.063	1	1
637.402	1	-5
637.741	1	7
638.080	1	17
638.419	1	5
638.759	1	3
639.098	1	-3
639.437	1	2
639.776	1	5
640.115	1	6
640.454	1	6
640.793	1	-8
641.132	1	21
641.472	1	-2
641.811	1	4
642.150	1	-14
642.489	1	1
642.828	1	6
643.167	1	3
643.506	1	7
643.845	1	-2
644.184	1	-6
644.524	1	-1
644.863	1	4
645.202	1	13
645.541	1	-1
645.880	1	11
646.219	1	6
646.558	1	5
646.897	1	5
647.236	1	0
647.575	1	6
647.914	1	-11
648.253	1	-12
648.592	1	-1
648.931	1	-3
649.270	1	-4
649.610	1	6
649.949	1	4
650.288	1	13
650.627	1	7
650.966	1	9
651.305	1	-5
651.644	1	1
651.983	1	-6
652.322	1	-1
652.661	1	14
653.000	1	0
653.339	1	1
653.678	1	-1
654.017	1	7
654.356	1	4
654.695	1	6
655.034	1	8
655.373	1	4
655.712	1	0
656.051	1	-3
656.390	1	7
656.729	1	8
657.068	1	-9
657.406	1	15
657.745	1	8
658.084	1	1
658.423	1	4
658.762	1	9
659.101	1	12
659.440	1	-3
659.779	1	6
660.118	1	-10
660.457	1	5
660.796	1	1
661.135	1	15
661.474	1	13
661.813	1	-3
662.152	1	8
662.491	1	10
662.829	1	16
663.168	1	-3
663.507	1	8
663.846	1	2
664.185	1	-4
664.524	1	-3
664.863	1	5
665.202	1	0
665.541	1	-7
665.879	1	-1
666.218	1	6
666.557	1	5
666.896	1	7
667.235	1	12
667.574	1	22
667.913	1	10
668.251	1	5
668.590	1	1
668.929	1	8
669.268	1	0
669.607	1	0
669.946	1	9
670.285	1	6
670.623	1	7
670.962	1	8
671.301	1	4
671.640	1	-4
671.979	1	5
672.317	1	3
672.656	1	1
672.995	1	6
673.334	1	-7
673.673	1	10
674.011	1	2
674.350	1	4
674.689	1	4
675.028	1	14
675.367	1	-10
675.705	1	17
676.044	1	5
676.383	1	10
676.722	1	2
677.060	1	1
677.399	1	-3
677.738	1	5
678.077	1	0
678.416	1	10
678.754	1	2
679.093	1	8
679.432	1	16
679.771	1	2
680.109	1	9
680.448	1	9
680.787	1	7
681.125	1	5
681.464	1	-2
681.803	1	7
682.142	1	-1
682.480	1	12
682.819	1	7
683.158	1	10
683.496	1	-3
683.835	1	-2
684.174	1	12
684.512	1	12
684.851	1	-1
685.190	1	4
685.529	1	-2
685.867	1	9
686.206	1	0
686.545	1	4
686.883	1	4
687.222	1	1
687.561	1	12
687.899	1	10
688.238	1	6
688.577	1	9
688.746	1	10