File: Data/GaN_130K_350ms/GaN_sample F_spot6_UVVIS_130 K_200um_350 ms 2x2mm1_155.txt
340.368	1	-2
340.710	1	11
341.052	1	1
341.394	1	2
341.737	1	13
342.079	1	5
342.421	1	6
342.763	1	6
343.105	1	11
343.447	1	4
343.789	1	3
344.131	1	7
344.473	1	6
344.815	1	-5
345.157	1	-14
345.499	1	-7
345.841	1	-1
346.183	1	2
346.526	1	10
346.868	1	7
347.210	1	2
347.552	1	-1
347.894	1	-1
348.236	1	5
348.578	1	-1
348.920	1	4
349.262	1	12
349.604	1	5
349.946	1	5
350.288	1	-4
350.630	1	9
350.972	1	4
351.314	1	4
351.656	1	7
351.998	1	7
352.340	1	7
352.682	1	-2
353.024	1	0
353.366	1	6
353.708	1	7
354.050	1	7
354.392	1	9
354.734	1	6
355.076	1	5
355.418	1	3
355.760	1	15
356.102	1	-6
356.444	1	-3
356.785	1	6
357.127	1	8
357.469	1	6
357.811	1	9
358.153	1	2
358.495	1	17
358.837	1	4
359.179	1	4
359.521	1	14
359.863	1	2
360.205	1	2
360.547	1	2
360.889	1	10
361.231	1	8
361.572	1	28
361.914	1	8
362.256	1	8
362.598	1	9
362.940	1	10
363.282	1	21
363.624	1	18
363.966	1	19
364.308	1	26
364.649	1	23
364.991	1	27
365.333	1	26
365.675	1	31
366.017	1	38
366.359	1	23
366.701	1	42
367.042	1	34
367.384	1	35
367.726	1	38
368.068	1	36
368.410	1	24
368.752	1	40
369.093	1	26
369.435	1	31
369.777	1	36
370.119	1	34
370.461	1	32
370.803	1	31
371.144	1	28
371.486	1	30
371.828	1	31
372.170	1	24
372.512	1	26
372.853	1	23
373.195	1	14
373.537	1	25
373.879	1	23
374.220	1	17
374.562	1	18
374.904	1	19
375.246	1	25
375.588	1	18
375.929	1	8
376.271	1	17
376.613	1	16
376.955	1	17
377.296	1	7
377.638	1	5
377.980	1	4
378.321	1	15
378.663	1	15
379.005	1	22
379.347	1	7
379.688	1	9
380.030	1	8
380.372	1	13
380.714	1	22
381.055	1	10
381.397	1	10
381.739	1	21
382.080	1	7
382.422	1	14
382.764	1	14
383.105	1	9
383.447	1	10
383.789	1	14
384.130	1	16
384.472	1	9
384.814	1	5
385.156	1	8
385.497	1	5
385.839	1	10
386.180	1	8
386.522	1	15
386.864	1	17
387.205	1	8
387.547	1	12
387.889	1	5
388.230	1	11
388.572	1	16
388.914	1	0
389.255	1	4
389.597	1	-4
389.939	1	12
390.280	1	13
390.622	1	8
390.963	1	8
391.305	1	12
391.647	1	14
391.988	1	13
392.330	1	3
392.671	1	-1
393.013	1	10
393.355	1	2
393.696	1	-5
394.038	1	12
394.379	1	15
394.721	1	2
395.062	1	-3
395.404	1	1
395.746	1	16
396.087	1	15
396.429	1	15
396.770	1	12
397.112	1	14
397.453	1	25
397.795	1	-3
398.136	1	12
398.478	1	8
398.819	1	-2
399.161	1	13
399.503	1	14
399.844	1	2
400.186	1	2
400.527	1	9
400.869	1	5
401.210	1	1
401.552	1	14
401.893	1	10
402.235	1	10
402.576	1	4
402.918	1	14
403.259	1	4
403.601	1	5
403.942	1	1
404.284	1	1
404.625	1	16
404.967	1	3
405.308	1	13
405.649	1	5
405.991	1	5
406.332	1	13
406.674	1	7
407.015	1	15
407.357	1	8
407.698	1	5
408.040	1	9
408.381	1	22
408.722	1	18
409.064	1	14
409.405	1	10
409.747	1	7
410.088	1	12
410.430	1	15
410.771	1	-5
411.112	1	8
411.454	1	4
411.795	1	8
412.137	1	11
412.478	1	7
412.819	1	4
413.161	1	15
413.502	1	11
413.844	1	5
414.185	1	9
414.526	1	11
414.868	1	6
415.209	1	10
415.550	1	9
415.892	1	8
416.233	1	8
416.575	1	16
416.916	1	3
417.257	1	1
417.599	1	-1
417.940	1	10
418.281	1	4
418.623	1	7
418.964	1	6
419.305	1	9
419.647	1	12
419.988	1	11
420.329	1	17
420.671	1	3
421.012	1	12
421.353	1	1
421.695	1	1
422.036	1	9
422.377	1	6
422.718	1	3
423.060	1	7
423.401	1	9
423.742	1	10
424.084	1	9
424.425	1	6
424.766	1	2
425.107	1	4
425.449	1	8
425.790	1	14
426.131	1	10
426.472	1	2
426.814	1	8
427.155	1	4
427.496	1	12
427.837	1	8
428.179	1	14
428.520	1	17
428.861	1	2
429.202	1	3
429.544	1	5
429.885	1	12
430.226	1	7
430.567	1	10
430.909	1	9
431.250	1	17
431.591	1	2
431.932	1	-1
432.273	1	9
432.615	1	13
432.956	1	2
433.297	1	12
433.638	1	10
433.979	1	9
434.320	1	10
434.662	1	10
435.003	1	16
435.344	1	11
435.685	1	3
436.026	1	10
436.368	1	-4
436.709	1	5
437.050	1	7
437.391	1	21
437.732	1	6
438.073	1	17
438.414	1	-3
438.756	1	7
439.097	1	6
439.438	1	11
439.779	1	11
440.120	1	8
440.461	1	16
440.802	1	1
441.143	1	5
441.485	1	14
441.826	1	-2
442.167	1	10
442.508	1	-2
442.849	1	10
443.190	1	6
443.531	1	-2
443.872	1	10
444.213	1	3
444.554	1	7
444.895	1	2
445.237	1	-3
445.578	1	6
445.919	1	1
446.260	1	8
446.601	1	10
446.942	1	7
447.283	1	12
447.624	1	5
447.965	1	0
448.306	1	1
448.647	1	12
448.988	1	4
449.329	1	8
449.670	1	-1
450.011	1	-3
450.352	1	9
450.693	1	7
451.034	1	1
451.375	1	12
451.716	1	-4
452.057	1	6
452.398	1	-1
452.739	1	3
453.080	1	9
453.421	1	0
453.762	1	2
454.103	1	6
454.444	1	3
454.785	1	18
455.126	1	-2
455.467	1	0
455.808	1	1
456.149	1	6
456.490	1	8
456.831	1	2
457.172	1	2
457.513	1	-4
457.854	1	8
458.195	1	5
458.536	1	12
458.877	1	24
459.218	1	10
459.559	1	13
459.899	1	5
460.240	1	7
460.581	1	-1
460.922	1	2
461.263	1	1
461.604	1	-7
461.945	1	11
462.286	1	12
462.627	1	2
462.968	1	6
463.309	1	3
463.649	1	-4
463.990	1	-4
464.331	1	7
464.672	1	6
465.013	1	-2
465.354	1	8
465.695	1	11
466.036	1	8
466.376	1	13
466.717	1	14
467.058	1	3
467.399	1	-4
467.740	1	10
468.081	1	4
468.422	1	5
468.762	1	-9
469.103	1	-1
469.444	1	-2
469.785	1	7
470.126	1	-7
470.467	1	7
470.807	1	5
471.148	1	1
471.489	1	-3
471.830	1	-2
472.171	1	2
472.511	1	8
472.852	1	7
473.193	1	5
473.534	1	11
473.875	1	11
474.215	1	2
474.556	1	6
474.897	1	-2
475.238	1	10
475.578	1	1
475.919	1	-7
476.260	1	0
476.601	1	-3
476.942	1	2
477.282	1	14
477.623	1	-4
477.964	1	2
478.305	1	16
478.645	1	5
478.986	1	9
479.327	1	9
479.667	1	8
480.008	1	2
480.349	1	-2
480.690	1	0
481.030	1	7
481.371	1	6
481.712	1	2
482.053	1	0
482.393	1	8
482.734	1	1
483.075	1	11
483.415	1	7
483.756	1	1
484.097	1	2
484.437	1	4
484.778	1	9
485.119	1	11
485.459	1	-6
485.800	1	11
486.141	1	-1
486.481	1	8
486.822	1	11
487.163	1	-8
487.503	1	4
487.844	1	0
488.185	1	0
488.525	1	9
488.866	1	-1
489.207	1	4
489.547	1	8
489.888	1	2
490.228	1	13
490.569	1	3
490.910	1	-1
491.250	1	4
491.591	1	3
491.932	1	4
492.272	1	1
492.613	1	-5
492.953	1	10
493.294	1	10
493.635	1	9
493.975	1	16
494.316	1	17
494.656	1	1
494.997	1	-1
495.337	1	5
495.678	1	9
496.019	1	2
496.359	1	20
496.700	1	10
497.040	1	10
497.381	1	-2
497.721	1	4
498.062	1	-5
498.403	1	-1
498.743	1	16
499.084	1	23
499.424	1	-1
499.765	1	1
500.105	1	11
500.446	1	9
500.786	1	11
501.127	1	16
501.467	1	3
501.808	1	8
502.148	1	8
502.489	1	16
502.829	1	9
503.170	1	1
503.510	1	8
503.851	1	3
504.191	1	14
504.532	1	8
504.872	1	12
505.213	1	10
505.553	1	10
505.894	1	11
506.234	1	-1
506.575	1	-1
506.915	1	10
507.256	1	14
507.596	1	13
507.936	1	2
508.277	1	8
508.617	1	7
508.958	1	18
509.298	1	11
509.639	1	17
509.979	1	-2
510.319	1	14
510.660	1	3
511.000	1	12
511.341	1	2
511.681	1	15
512.022	1	12
512.362	1	22
512.702	1	18
513.043	1	11
513.383	1	12
513.724	1	8
514.064	1	9
514.404	1	15
514.745	1	0
515.085	1	15
515.425	1	11
515.766	1	14
516.106	1	6
516.447	1	16
516.787	1	9
517.127	1	13
517.468	1	13
517.808	1	9
518.148	1	15
518.489	1	13
518.829	1	15
519.169	1	15
519.510	1	7
519.850	1	28
520.190	1	10
520.531	1	22
520.871	1	8
521.211	1	19
521.552	1	7
521.892	1	19
522.232	1	4
522.573	1	7
522.913	1	20
523.253	1	16
523.593	1	16
523.934	1	9
524.274	1	4
524.614	1	14
524.955	1	23
525.295	1	12
525.635	1	10
525.975	1	21
526.316	1	22
526.656	1	24
526.996	1	10
527.337	1	19
527.677	1	2
528.017	1	14
528.357	1	18
528.698	1	6
529.038	1	4
529.378	1	11
529.718	1	23
530.058	1	11
530.399	1	8
530.739	1	10
531.079	1	15
531.419	1	16
531.760	1	5
532.100	1	14
532.440	1	21
532.780	1	9
533.120	1	9
533.461	1	10
533.801	1	21
534.141	1	16
534.481	1	17
534.821	1	19
535.162	1	21
535.502	1	8
535.842	1	14
536.182	1	18
536.522	1	4
536.862	1	7
537.203	1	4
537.543	1	16
537.883	1	6
538.223	1	11
538.563	1	15
538.903	1	23
539.243	1	17
539.584	1	12
539.924	1	5
540.264	1	9
540.604	1	21
540.944	1	9
541.284	1	16
541.624	1	17
541.964	1	8
542.305	1	9
542.645	1	11
542.985	1	9
543.325	1	6
543.665	1	15
544.005	1	12
544.345	1	14
544.685	1	19
545.025	1	7
545.365	1	25
545.705	1	7
546.045	1	5
546.386	1	13
546.726	1	-4
547.066	1	9
547.406	1	7
547.746	1	6
548.086	1	-4
548.426	1	6
548.766	1	13
549.106	1	5
549.446	1	14
549.786	1	11
550.126	1	19
550.466	1	12
550.806	1	13
551.146	1	6
551.486	1	12
551.826	1	5
552.166	1	5
552.506	1	16
552.846	1	0
553.186	1	12
553.526	1	7
553.866	1	-2
554.206	1	3
554.546	1	14
554.886	1	1
555.226	1	14
555.566	1	7
555.906	1	14
556.246	1	10
556.586	1	18
556.926	1	12
557.266	1	10
557.606	1	8
557.946	1	12
558.286	1	14
558.626	1	2
558.966	1	2
559.306	1	2
559.646	1	17
559.986	1	6
560.325	1	-7
560.665	1	12
561.005	1	8
561.345	1	15
561.685	1	11
562.025	1	10
562.365	1	13
562.705	1	13
563.045	1	1
563.385	1	9
563.725	1	2
564.064	1	15
564.404	1	5
564.744	1	10
565.084	1	16
565.424	1	-1
565.764	1	8
566.104	1	6
566.444	1	17
566.783	1	9
567.123	1	-1
567.463	1	8
567.803	1	11
568.143	1	9
568.483	1	8
568.823	1	3
569.162	1	12
569.502	1	9
569.842	1	1
570.182	1	9
570.522	1	-11
570.862	1	15
571.201	1	7
571.541	1	3
571.881	1	6
572.221	1	6
572.561	1	13
572.900	1	11
573.240	1	2
573.580	1	-4
573.920	1	15
574.260	1	8
574.599	1	13
574.939	1	12
575.279	1	-3
575.619	1	16
575.959	1	4
576.298	1	0
576.638	1	4
576.978	1	1
577.318	1	12
577.657	1	20
577.997	1	7
578.337	1	6
578.677	1	16
579.016	1	3
579.356	1	16
579.696	1	1
580.036	1	2
580.375	1	2
580.715	1	11
581.055	1	3
581.394	1	-8
581.734	1	7
582.074	1	5
582.414	1	-4
582.753	1	8
583.093	1	5
583.433	1	15
583.772	1	23
584.112	1	12
584.452	1	14
584.791	1	9
585.131	1	12
585.471	1	5
585.811	1	7
586.150	1	9
586.490	1	5
586.830	1	-2
587.169	1	7
587.509	1	5
587.849	1	4
588.188	1	12
588.528	1	11
588.867	1	2
589.207	1	5
589.547	1	7
589.886	1	1
590.226	1	23
590.566	1	8
590.905	1	10
591.245	1	6
591.585	1	5
591.924	1	9
592.264	1	2
592.603	1	7
592.943	1	5
593.283	1	-2
593.622	1	15
593.962	1	12
594.301	1	-3
594.641	1	4
594.981	1	-3
595.320	1	8
595.660	1	3
595.999	1	11
596.339	1	7
596.678	1	-7
597.018	1	5
597.358	1	-1
597.697	1	-1
598.037	1	8
598.376	1	5
598.716	1	0
599.055	1	3
599.395	1	2
599.734	1	-3
600.074	1	0
600.413	1	12
600.753	1	3
601.092	1	2
601.432	1	-9
601.771	1	11
602.111	1	10
602.451	1	14
602.790	1	7
603.130	1	2
603.469	1	4
603.809	1	-4
604.148	1	9
604.487	1	15
604.827	1	4
605.166	1	2
605.506	1	3
605.845	1	6
606.185	1	9
606.524	1	5
606.864	1	14
607.203	1	-4
607.543	1	-1
607.882	1	13
608.222	1	1
608.561	1	1
608.901	1	11
609.240	1	-8
609.579	1	15
609.919	1	11
610.258	1	6
610.598	1	9
610.937	1	13
611.277	1	4
611.616	1	4
611.955	1	-1
612.295	1	10
612.634	1	0
612.974	1	7
613.313	1	6
613.652	1	3
613.992	1	0
614.331	1	4
614.671	1	6
615.010	1	-2
615.349	1	-2
615.689	1	15
616.028	1	10
616.368	1	5
616.707	1	10
617.046	1	5
617.386	1	-4
617.725	1	6
618.064	1	6
618.404	1	6
618.743	1	3
619.082	1	0
619.422	1	-2
619.761	1	9
620.100	1	-2
620.440	1	3
620.779	1	-13
621.118	1	4
621.458	1	6
621.797	1	5
622.136	1	3
622.476	1	5
622.815	1	-4
623.154	1	1
623.494	1	6
623.833	1	14
624.172	1	1
624.511	1	3
624.851	1	4
625.190	1	1
625.529	1	-1
625.869	1	13
626.208	1	1
626.547	1	6
626.886	1	0
627.226	1	-3
627.565	1	12
627.904	1	6
628.243	1	0
628.583	1	-7
628.922	1	-2
629.261	1	-1
629.600	1	5
629.940	1	14
630.279	1	11
630.618	1	0
630.957	1	2
631.297	1	1
631.636	1	7
631.975	1	8
632.314	1	3
632.653	1	-3
632.993	1	8
633.332	1	-9
633.671	1	-3
634.010	1	-1
634.349	1	0
634.689	1	4
635.028	1	11
635.367	1	4
635.706	1	0
636.045	1	23
636.384	1	3
636.724	1	4
637.063	1	9
637.402	1	-4
637.741	1	9
638.080	1	-4
638.419	1	4
638.759	1	-5
639.098	1	-16
639.437	1	11
639.776	1	5
640.115	1	14
640.454	1	6
640.793	1	-10
641.132	1	12
641.472	1	5
641.811	1	1
642.150	1	-5
642.489	1	-5
642.828	1	5
643.167	1	11
643.506	1	5
643.845	1	6
644.184	1	5
644.524	1	-4
644.863	1	1
645.202	1	9
645.541	1	8
645.880	1	5
646.219	1	3
646.558	1	1
646.897	1	-5
647.236	1	7
647.575	1	-3
647.914	1	-8
648.253	1	-2
648.592	1	-1
648.931	1	3
649.270	1	2
649.610	1	4
649.949	1	-1
650.288	1	14
650.627	1	1
650.966	1	6
651.305	1	1
651.644	1	-2
651.983	1	-7
652.322	1	4
652.661	1	-6
653.000	1	-2
653.339	1	3
653.678	1	6
654.017	1	2
654.356	1	-2
654.695	1	3
655.034	1	7
655.373	1	11
655.712	1	-4
656.051	1	9
656.390	1	-1
656.729	1	0
657.068	1	-8
657.406	1	9
657.745	1	7
658.084	1	4
658.423	1	-1
658.762	1	15
659.101	1	4
659.440	1	-7
659.779	1	10
660.118	1	-5
660.457	1	-4
660.796	1	10
661.135	1	18
661.474	1	10
661.813	1	3
662.152	1	1
662.491	1	17
662.829	1	18
663.168	1	0
663.507	1	-2
663.846	1	3
664.185	1	-3
664.524	1	1
664.863	1	5
665.202	1	1
665.541	1	-9
665.879	1	-4
666.218	1	10
666.557	1	8
666.896	1	0
667.235	1	4
667.574	1	10
667.913	1	7
668.251	1	-4
668.590	1	3
668.929	1	13
669.268	1	3
669.607	1	-1
669.946	1	11
670.285	1	6
670.623	1	12
670.962	1	-3
671.301	1	6
671.640	1	-13
671.979	1	4
672.317	1	-2
672.656	1	-3
672.995	1	7
673.334	1	0
673.673	1	13
674.011	1	-5
674.350	1	-4
674.689	1	10
675.028	1	4
675.367	1	1
675.705	1	17
676.044	1	3
676.383	1	2
676.722	1	-3
677.060	1	3
677.399	1	3
677.738	1	-5
678.077	1	4
678.416	1	14
678.754	1	13
679.093	1	5
679.432	1	6
679.771	1	10
680.109	1	-5
680.448	1	-6
680.787	1	2
681.125	1	7
681.464	1	2
681.803	1	1
682.142	1	0
682.480	1	6
682.819	1	4
683.158	1	6
683.496	1	5
683.835	1	-6
684.174	1	6
684.512	1	11
684.851	1	-6
685.190	1	0
685.529	1	-3
685.867	1	8
686.206	1	11
686.545	1	0
686.883	1	5
687.222	1	-3
687.561	1	14
687.899	1	12
688.238	1	6
688.577	1	4
688.746	1	9