File: Data/GaN_130K_350ms/GaN_sample F_spot6_UVVIS_130 K_200um_350 ms 2x2mm1_102.txt
340.368	1	4
340.710	1	6
341.052	1	3
341.394	1	6
341.737	1	10
342.079	1	0
342.421	1	8
342.763	1	7
343.105	1	6
343.447	1	9
343.789	1	-1
344.131	1	5
344.473	1	3
344.815	1	-3
345.157	1	-2
345.499	1	1
345.841	1	2
346.183	1	9
346.526	1	5
346.868	1	1
347.210	1	8
347.552	1	4
347.894	1	1
348.236	1	3
348.578	1	-1
348.920	1	5
349.262	1	13
349.604	1	4
349.946	1	3
350.288	1	-2
350.630	1	14
350.972	1	13
351.314	1	4
351.656	1	10
351.998	1	15
352.340	1	7
352.682	1	6
353.024	1	4
353.366	1	11
353.708	1	12
354.050	1	6
354.392	1	16
354.734	1	7
355.076	1	13
355.418	1	13
355.760	1	16
356.102	1	7
356.444	1	2
356.785	1	15
357.127	1	20
357.469	1	13
357.811	1	15
358.153	1	10
358.495	1	20
358.837	1	18
359.179	1	20
359.521	1	8
359.863	1	27
360.205	1	23
360.547	1	23
360.889	1	24
361.231	1	28
361.572	1	42
361.914	1	40
362.256	1	43
362.598	1	49
362.940	1	45
363.282	1	60
363.624	1	58
363.966	1	74
364.308	1	85
364.649	1	66
364.991	1	85
365.333	1	77
365.675	1	90
366.017	1	103
366.359	1	107
366.701	1	101
367.042	1	111
367.384	1	121
367.726	1	120
368.068	1	105
368.410	1	112
368.752	1	135
369.093	1	112
369.435	1	105
369.777	1	108
370.119	1	108
370.461	1	108
370.803	1	87
371.144	1	90
371.486	1	81
371.828	1	87
372.170	1	70
372.512	1	71
372.853	1	54
373.195	1	61
373.537	1	65
373.879	1	68
374.220	1	51
374.562	1	66
374.904	1	51
375.246	1	54
375.588	1	61
375.929	1	51
376.271	1	53
376.613	1	36
376.955	1	52
377.296	1	45
377.638	1	25
377.980	1	23
378.321	1	41
378.663	1	37
379.005	1	51
379.347	1	25
379.688	1	30
380.030	1	30
380.372	1	32
380.714	1	44
381.055	1	23
381.397	1	34
381.739	1	31
382.080	1	17
382.422	1	39
382.764	1	38
383.105	1	29
383.447	1	29
383.789	1	31
384.130	1	33
384.472	1	32
384.814	1	30
385.156	1	26
385.497	1	27
385.839	1	35
386.180	1	34
386.522	1	33
386.864	1	33
387.205	1	21
387.547	1	29
387.889	1	23
388.230	1	25
388.572	1	31
388.914	1	13
389.255	1	24
389.597	1	13
389.939	1	33
390.280	1	27
390.622	1	28
390.963	1	31
391.305	1	22
391.647	1	28
391.988	1	28
392.330	1	12
392.671	1	9
393.013	1	22
393.355	1	12
393.696	1	7
394.038	1	22
394.379	1	20
394.721	1	27
395.062	1	9
395.404	1	5
395.746	1	15
396.087	1	31
396.429	1	28
396.770	1	20
397.112	1	18
397.453	1	21
397.795	1	5
398.136	1	20
398.478	1	19
398.819	1	-8
399.161	1	21
399.503	1	16
399.844	1	9
400.186	1	16
400.527	1	19
400.869	1	15
401.210	1	13
401.552	1	13
401.893	1	1
402.235	1	17
402.576	1	13
402.918	1	7
403.259	1	4
403.601	1	16
403.942	1	19
404.284	1	7
404.625	1	26
404.967	1	13
405.308	1	9
405.649	1	22
405.991	1	15
406.332	1	23
406.674	1	13
407.015	1	14
407.357	1	10
407.698	1	11
408.040	1	12
408.381	1	25
408.722	1	18
409.064	1	11
409.405	1	16
409.747	1	6
410.088	1	22
410.430	1	26
410.771	1	-1
411.112	1	15
411.454	1	0
411.795	1	15
412.137	1	16
412.478	1	7
412.819	1	21
413.161	1	18
413.502	1	16
413.844	1	17
414.185	1	7
414.526	1	11
414.868	1	10
415.209	1	6
415.550	1	10
415.892	1	20
416.233	1	22
416.575	1	6
416.916	1	12
417.257	1	14
417.599	1	9
417.940	1	14
418.281	1	4
418.623	1	5
418.964	1	-2
419.305	1	15
419.647	1	9
419.988	1	17
420.329	1	15
420.671	1	0
421.012	1	12
421.353	1	-2
421.695	1	3
422.036	1	8
422.377	1	16
422.718	1	18
423.060	1	6
423.401	1	12
423.742	1	15
424.084	1	13
424.425	1	9
424.766	1	15
425.107	1	10
425.449	1	10
425.790	1	11
426.131	1	26
426.472	1	11
426.814	1	5
427.155	1	2
427.496	1	11
427.837	1	6
428.179	1	14
428.520	1	15
428.861	1	-2
429.202	1	15
429.544	1	16
429.885	1	19
430.226	1	3
430.567	1	9
430.909	1	7
431.250	1	11
431.591	1	9
431.932	1	2
432.273	1	16
432.615	1	17
432.956	1	4
433.297	1	15
433.638	1	6
433.979	1	10
434.320	1	0
434.662	1	9
435.003	1	14
435.344	1	6
435.685	1	1
436.026	1	12
436.368	1	7
436.709	1	6
437.050	1	8
437.391	1	18
437.732	1	7
438.073	1	13
438.414	1	-4
438.756	1	4
439.097	1	11
439.438	1	8
439.779	1	8
440.120	1	2
440.461	1	19
440.802	1	-3
441.143	1	1
441.485	1	8
441.826	1	8
442.167	1	10
442.508	1	7
442.849	1	7
443.190	1	7
443.531	1	6
443.872	1	14
444.213	1	0
444.554	1	4
444.895	1	0
445.237	1	-3
445.578	1	1
445.919	1	1
446.260	1	6
446.601	1	5
446.942	1	9
447.283	1	17
447.624	1	12
447.965	1	-2
448.306	1	5
448.647	1	16
448.988	1	6
449.329	1	1
449.670	1	7
450.011	1	0
450.352	1	11
450.693	1	11
451.034	1	2
451.375	1	9
451.716	1	-4
452.057	1	13
452.398	1	9
452.739	1	6
453.080	1	8
453.421	1	0
453.762	1	3
454.103	1	2
454.444	1	8
454.785	1	12
455.126	1	4
455.467	1	4
455.808	1	17
456.149	1	-6
456.490	1	17
456.831	1	11
457.172	1	5
457.513	1	6
457.854	1	6
458.195	1	-6
458.536	1	12
458.877	1	29
459.218	1	13
459.559	1	5
459.899	1	4
460.240	1	13
460.581	1	9
460.922	1	1
461.263	1	10
461.604	1	-5
461.945	1	8
462.286	1	0
462.627	1	1
462.968	1	2
463.309	1	6
463.649	1	0
463.990	1	1
464.331	1	16
464.672	1	3
465.013	1	-2
465.354	1	9
465.695	1	13
466.036	1	1
466.376	1	2
466.717	1	-1
467.058	1	1
467.399	1	8
467.740	1	16
468.081	1	14
468.422	1	11
468.762	1	2
469.103	1	16
469.444	1	8
469.785	1	12
470.126	1	-7
470.467	1	5
470.807	1	0
471.148	1	4
471.489	1	-2
471.830	1	6
472.171	1	10
472.511	1	8
472.852	1	3
473.193	1	3
473.534	1	11
473.875	1	9
474.215	1	13
474.556	1	7
474.897	1	-2
475.238	1	18
475.578	1	7
475.919	1	3
476.260	1	10
476.601	1	4
476.942	1	15
477.282	1	10
477.623	1	5
477.964	1	5
478.305	1	22
478.645	1	9
478.986	1	3
479.327	1	0
479.667	1	6
480.008	1	2
480.349	1	1
480.690	1	5
481.030	1	0
481.371	1	17
481.712	1	14
482.053	1	12
482.393	1	17
482.734	1	5
483.075	1	12
483.415	1	6
483.756	1	14
484.097	1	2
484.437	1	11
484.778	1	13
485.119	1	12
485.459	1	3
485.800	1	17
486.141	1	9
486.481	1	6
486.822	1	10
487.163	1	9
487.503	1	9
487.844	1	6
488.185	1	11
488.525	1	15
488.866	1	18
489.207	1	11
489.547	1	14
489.888	1	16
490.228	1	15
490.569	1	6
490.910	1	11
491.250	1	19
491.591	1	7
491.932	1	11
492.272	1	13
492.613	1	11
492.953	1	19
493.294	1	14
493.635	1	15
493.975	1	27
494.316	1	12
494.656	1	13
494.997	1	13
495.337	1	6
495.678	1	22
496.019	1	15
496.359	1	28
496.700	1	12
497.040	1	33
497.381	1	16
497.721	1	16
498.062	1	13
498.403	1	12
498.743	1	26
499.084	1	25
499.424	1	23
499.765	1	6
500.105	1	20
500.446	1	24
500.786	1	29
501.127	1	18
501.467	1	22
501.808	1	35
502.148	1	18
502.489	1	30
502.829	1	21
503.170	1	23
503.510	1	36
503.851	1	16
504.191	1	24
504.532	1	22
504.872	1	31
505.213	1	16
505.553	1	31
505.894	1	32
506.234	1	33
506.575	1	32
506.915	1	24
507.256	1	41
507.596	1	31
507.936	1	30
508.277	1	37
508.617	1	23
508.958	1	36
509.298	1	33
509.639	1	43
509.979	1	28
510.319	1	47
510.660	1	28
511.000	1	34
511.341	1	30
511.681	1	35
512.022	1	45
512.362	1	29
512.702	1	24
513.043	1	39
513.383	1	42
513.724	1	36
514.064	1	33
514.404	1	38
514.745	1	34
515.085	1	38
515.425	1	27
515.766	1	50
516.106	1	36
516.447	1	33
516.787	1	48
517.127	1	44
517.468	1	43
517.808	1	33
518.148	1	45
518.489	1	33
518.829	1	51
519.169	1	43
519.510	1	37
519.850	1	53
520.190	1	48
520.531	1	50
520.871	1	34
521.211	1	50
521.552	1	52
521.892	1	44
522.232	1	54
522.573	1	46
522.913	1	48
523.253	1	43
523.593	1	47
523.934	1	41
524.274	1	33
524.614	1	47
524.955	1	46
525.295	1	45
525.635	1	48
525.975	1	51
526.316	1	40
526.656	1	42
526.996	1	36
527.337	1	49
527.677	1	45
528.017	1	56
528.357	1	52
528.698	1	36
529.038	1	31
529.378	1	53
529.718	1	52
530.058	1	44
530.399	1	42
530.739	1	47
531.079	1	58
531.419	1	48
531.760	1	38
532.100	1	51
532.440	1	46
532.780	1	49
533.120	1	53
533.461	1	41
533.801	1	51
534.141	1	48
534.481	1	46
534.821	1	51
535.162	1	41
535.502	1	47
535.842	1	52
536.182	1	43
536.522	1	44
536.862	1	39
537.203	1	42
537.543	1	52
537.883	1	40
538.223	1	55
538.563	1	51
538.903	1	48
539.243	1	41
539.584	1	50
539.924	1	37
540.264	1	32
540.604	1	46
540.944	1	49
541.284	1	44
541.624	1	41
541.964	1	39
542.305	1	41
542.645	1	32
542.985	1	33
543.325	1	46
543.665	1	41
544.005	1	46
544.345	1	34
544.685	1	46
545.025	1	41
545.365	1	45
545.705	1	34
546.045	1	43
546.386	1	35
546.726	1	31
547.066	1	35
547.406	1	27
547.746	1	50
548.086	1	34
548.426	1	27
548.766	1	48
549.106	1	26
549.446	1	34
549.786	1	34
550.126	1	46
550.466	1	40
550.806	1	43
551.146	1	37
551.486	1	35
551.826	1	39
552.166	1	37
552.506	1	44
552.846	1	27
553.186	1	42
553.526	1	36
553.866	1	30
554.206	1	31
554.546	1	39
554.886	1	37
555.226	1	38
555.566	1	36
555.906	1	39
556.246	1	34
556.586	1	29
556.926	1	36
557.266	1	36
557.606	1	28
557.946	1	27
558.286	1	46
558.626	1	29
558.966	1	27
559.306	1	32
559.646	1	34
559.986	1	35
560.325	1	24
560.665	1	40
561.005	1	20
561.345	1	27
561.685	1	28
562.025	1	28
562.365	1	21
562.705	1	28
563.045	1	25
563.385	1	23
563.725	1	22
564.064	1	27
564.404	1	28
564.744	1	21
565.084	1	22
565.424	1	24
565.764	1	20
566.104	1	25
566.444	1	31
566.783	1	24
567.123	1	31
567.463	1	20
567.803	1	26
568.143	1	23
568.483	1	12
568.823	1	14
569.162	1	36
569.502	1	22
569.842	1	11
570.182	1	24
570.522	1	6
570.862	1	37
571.201	1	20
571.541	1	18
571.881	1	24
572.221	1	27
572.561	1	23
572.900	1	18
573.240	1	13
573.580	1	10
573.920	1	22
574.260	1	16
574.599	1	24
574.939	1	30
575.279	1	11
575.619	1	23
575.959	1	15
576.298	1	14
576.638	1	13
576.978	1	9
577.318	1	20
577.657	1	29
577.997	1	17
578.337	1	14
578.677	1	22
579.016	1	18
579.356	1	20
579.696	1	11
580.036	1	14
580.375	1	9
580.715	1	17
581.055	1	10
581.394	1	11
581.734	1	17
582.074	1	12
582.414	1	8
582.753	1	15
583.093	1	14
583.433	1	18
583.772	1	17
584.112	1	2
584.452	1	24
584.791	1	15
585.131	1	22
585.471	1	6
585.811	1	16
586.150	1	10
586.490	1	12
586.830	1	5
587.169	1	19
587.509	1	8
587.849	1	18
588.188	1	11
588.528	1	20
588.867	1	11
589.207	1	9
589.547	1	9
589.886	1	8
590.226	1	17
590.566	1	17
590.905	1	18
591.245	1	4
591.585	1	8
591.924	1	2
592.264	1	12
592.603	1	11
592.943	1	12
593.283	1	-2
593.622	1	19
593.962	1	22
594.301	1	0
594.641	1	3
594.981	1	-1
595.320	1	11
595.660	1	15
595.999	1	9
596.339	1	27
596.678	1	-5
597.018	1	13
597.358	1	-1
597.697	1	8
598.037	1	4
598.376	1	11
598.716	1	15
599.055	1	12
599.395	1	2
599.734	1	6
600.074	1	7
600.413	1	10
600.753	1	9
601.092	1	5
601.432	1	-2
601.771	1	12
602.111	1	2
602.451	1	13
602.790	1	6
603.130	1	9
603.469	1	7
603.809	1	17
604.148	1	11
604.487	1	18
604.827	1	6
605.166	1	7
605.506	1	12
605.845	1	3
606.185	1	14
606.524	1	5
606.864	1	22
607.203	1	9
607.543	1	13
607.882	1	11
608.222	1	1
608.561	1	5
608.901	1	12
609.240	1	-8
609.579	1	13
609.919	1	18
610.258	1	2
610.598	1	7
610.937	1	1
611.277	1	17
611.616	1	6
611.955	1	5
612.295	1	6
612.634	1	4
612.974	1	3
613.313	1	4
613.652	1	-3
613.992	1	9
614.331	1	1
614.671	1	5
615.010	1	0
615.349	1	2
615.689	1	10
616.028	1	7
616.368	1	14
616.707	1	13
617.046	1	10
617.386	1	-4
617.725	1	-5
618.064	1	12
618.404	1	11
618.743	1	12
619.082	1	7
619.422	1	8
619.761	1	12
620.100	1	8
620.440	1	3
620.779	1	4
621.118	1	17
621.458	1	7
621.797	1	10
622.136	1	2
622.476	1	8
622.815	1	5
623.154	1	2
623.494	1	13
623.833	1	8
624.172	1	6
624.511	1	8
624.851	1	1
625.190	1	-5
625.529	1	6
625.869	1	1
626.208	1	12
626.547	1	11
626.886	1	5
627.226	1	2
627.565	1	12
627.904	1	7
628.243	1	12
628.583	1	-7
628.922	1	1
629.261	1	-3
629.600	1	-3
629.940	1	17
630.279	1	14
630.618	1	0
630.957	1	7
631.297	1	3
631.636	1	9
631.975	1	2
632.314	1	3
632.653	1	-1
632.993	1	17
633.332	1	1
633.671	1	-1
634.010	1	-4
634.349	1	5
634.689	1	14
635.028	1	6
635.367	1	9
635.706	1	-2
636.045	1	18
636.384	1	11
636.724	1	7
637.063	1	11
637.402	1	13
637.741	1	11
638.080	1	16
638.419	1	3
638.759	1	2
639.098	1	3
639.437	1	17
639.776	1	2
640.115	1	8
640.454	1	4
640.793	1	1
641.132	1	15
641.472	1	8
641.811	1	-4
642.150	1	-9
642.489	1	-4
642.828	1	8
643.167	1	10
643.506	1	21
643.845	1	-4
644.184	1	-6
644.524	1	1
644.863	1	0
645.202	1	16
645.541	1	3
645.880	1	15
646.219	1	6
646.558	1	0
646.897	1	0
647.236	1	3
647.575	1	2
647.914	1	-2
648.253	1	6
648.592	1	-6
648.931	1	-10
649.270	1	-3
649.610	1	-2
649.949	1	6
650.288	1	7
650.627	1	4
650.966	1	0
651.305	1	-1
651.644	1	7
651.983	1	-6
652.322	1	2
652.661	1	9
653.000	1	1
653.339	1	10
653.678	1	2
654.017	1	0
654.356	1	14
654.695	1	4
655.034	1	-1
655.373	1	5
655.712	1	8
656.051	1	6
656.390	1	0
656.729	1	8
657.068	1	1
657.406	1	5
657.745	1	-3
658.084	1	-8
658.423	1	13
658.762	1	12
659.101	1	5
659.440	1	-6
659.779	1	17
660.118	1	-1
660.457	1	1
660.796	1	8
661.135	1	5
661.474	1	11
661.813	1	1
662.152	1	1
662.491	1	19
662.829	1	11
663.168	1	-8
663.507	1	3
663.846	1	8
664.185	1	-2
664.524	1	10
664.863	1	5
665.202	1	3
665.541	1	5
665.879	1	6
666.218	1	8
666.557	1	10
666.896	1	8
667.235	1	10
667.574	1	16
667.913	1	8
668.251	1	2
668.590	1	11
668.929	1	8
669.268	1	5
669.607	1	7
669.946	1	9
670.285	1	-1
670.623	1	12
670.962	1	3
671.301	1	10
671.640	1	-2
671.979	1	-2
672.317	1	7
672.656	1	2
672.995	1	9
673.334	1	-11
673.673	1	6
674.011	1	5
674.350	1	4
674.689	1	5
675.028	1	8
675.367	1	-2
675.705	1	15
676.044	1	6
676.383	1	8
676.722	1	-2
677.060	1	10
677.399	1	11
677.738	1	0
678.077	1	7
678.416	1	13
678.754	1	7
679.093	1	4
679.432	1	14
679.771	1	5
680.109	1	3
680.448	1	9
680.787	1	11
681.125	1	14
681.464	1	4
681.803	1	5
682.142	1	-1
682.480	1	8
682.819	1	-9
683.158	1	7
683.496	1	7
683.835	1	-4
684.174	1	7
684.512	1	16
684.851	1	-2
685.190	1	1
685.529	1	-3
685.867	1	4
686.206	1	18
686.545	1	-1
686.883	1	10
687.222	1	-5
687.561	1	14
687.899	1	9
688.238	1	8
688.577	1	1
688.746	1	14