File: Data/GaN_130K_350ms/GaN_sample F_spot6_UVVIS_130 K_200um_350 ms 2x2mm1_182.txt
340.368	1	0
340.710	1	9
341.052	1	-8
341.394	1	8
341.737	1	-2
342.079	1	9
342.421	1	6
342.763	1	10
343.105	1	1
343.447	1	6
343.789	1	5
344.131	1	9
344.473	1	2
344.815	1	-2
345.157	1	-10
345.499	1	-1
345.841	1	-6
346.183	1	8
346.526	1	1
346.868	1	9
347.210	1	8
347.552	1	6
347.894	1	2
348.236	1	-3
348.578	1	0
348.920	1	8
349.262	1	4
349.604	1	2
349.946	1	5
350.288	1	-13
350.630	1	5
350.972	1	14
351.314	1	2
351.656	1	10
351.998	1	5
352.340	1	6
352.682	1	4
353.024	1	2
353.366	1	14
353.708	1	3
354.050	1	6
354.392	1	2
354.734	1	5
355.076	1	0
355.418	1	4
355.760	1	2
356.102	1	-1
356.444	1	-3
356.785	1	6
357.127	1	13
357.469	1	4
357.811	1	10
358.153	1	1
358.495	1	6
358.837	1	-3
359.179	1	9
359.521	1	-5
359.863	1	4
360.205	1	14
360.547	1	2
360.889	1	3
361.231	1	11
361.572	1	11
361.914	1	15
362.256	1	-3
362.598	1	12
362.940	1	5
363.282	1	14
363.624	1	16
363.966	1	21
364.308	1	19
364.649	1	15
364.991	1	18
365.333	1	4
365.675	1	16
366.017	1	19
366.359	1	17
366.701	1	24
367.042	1	23
367.384	1	28
367.726	1	21
368.068	1	14
368.410	1	19
368.752	1	25
369.093	1	28
369.435	1	15
369.777	1	22
370.119	1	20
370.461	1	27
370.803	1	10
371.144	1	22
371.486	1	23
371.828	1	22
372.170	1	22
372.512	1	20
372.853	1	16
373.195	1	18
373.537	1	13
373.879	1	15
374.220	1	5
374.562	1	11
374.904	1	12
375.246	1	17
375.588	1	3
375.929	1	1
376.271	1	10
376.613	1	10
376.955	1	12
377.296	1	3
377.638	1	-8
377.980	1	-2
378.321	1	9
378.663	1	5
379.005	1	23
379.347	1	5
379.688	1	11
380.030	1	7
380.372	1	14
380.714	1	19
381.055	1	5
381.397	1	5
381.739	1	16
382.080	1	4
382.422	1	13
382.764	1	12
383.105	1	4
383.447	1	4
383.789	1	15
384.130	1	7
384.472	1	19
384.814	1	10
385.156	1	4
385.497	1	9
385.839	1	9
386.180	1	12
386.522	1	10
386.864	1	12
387.205	1	4
387.547	1	14
387.889	1	1
388.230	1	8
388.572	1	19
388.914	1	12
389.255	1	7
389.597	1	-7
389.939	1	11
390.280	1	10
390.622	1	3
390.963	1	6
391.305	1	15
391.647	1	4
391.988	1	19
392.330	1	7
392.671	1	0
393.013	1	7
393.355	1	9
393.696	1	-5
394.038	1	8
394.379	1	17
394.721	1	12
395.062	1	2
395.404	1	-11
395.746	1	8
396.087	1	11
396.429	1	14
396.770	1	9
397.112	1	6
397.453	1	18
397.795	1	2
398.136	1	-1
398.478	1	10
398.819	1	-5
399.161	1	9
399.503	1	18
399.844	1	4
400.186	1	9
400.527	1	9
400.869	1	2
401.210	1	-8
401.552	1	6
401.893	1	3
402.235	1	10
402.576	1	18
402.918	1	12
403.259	1	-7
403.601	1	2
403.942	1	9
404.284	1	6
404.625	1	14
404.967	1	4
405.308	1	0
405.649	1	8
405.991	1	13
406.332	1	11
406.674	1	8
407.015	1	7
407.357	1	2
407.698	1	5
408.040	1	-2
408.381	1	9
408.722	1	4
409.064	1	8
409.405	1	5
409.747	1	0
410.088	1	19
410.430	1	17
410.771	1	-11
411.112	1	14
411.454	1	10
411.795	1	9
412.137	1	2
412.478	1	4
412.819	1	11
413.161	1	15
413.502	1	18
413.844	1	5
414.185	1	11
414.526	1	8
414.868	1	5
415.209	1	5
415.550	1	3
415.892	1	5
416.233	1	10
416.575	1	17
416.916	1	7
417.257	1	7
417.599	1	5
417.940	1	12
418.281	1	13
418.623	1	6
418.964	1	1
419.305	1	7
419.647	1	7
419.988	1	16
420.329	1	2
420.671	1	-1
421.012	1	14
421.353	1	10
421.695	1	-4
422.036	1	1
422.377	1	5
422.718	1	1
423.060	1	5
423.401	1	14
423.742	1	2
424.084	1	9
424.425	1	14
424.766	1	13
425.107	1	1
425.449	1	8
425.790	1	12
426.131	1	25
426.472	1	5
426.814	1	2
427.155	1	1
427.496	1	-1
427.837	1	10
428.179	1	-2
428.520	1	16
428.861	1	6
429.202	1	8
429.544	1	7
429.885	1	5
430.226	1	1
430.567	1	3
430.909	1	8
431.250	1	7
431.591	1	6
431.932	1	3
432.273	1	10
432.615	1	12
432.956	1	1
433.297	1	22
433.638	1	13
433.979	1	6
434.320	1	13
434.662	1	11
435.003	1	15
435.344	1	11
435.685	1	2
436.026	1	13
436.368	1	-2
436.709	1	5
437.050	1	16
437.391	1	11
437.732	1	3
438.073	1	12
438.414	1	-2
438.756	1	8
439.097	1	3
439.438	1	16
439.779	1	5
440.120	1	7
440.461	1	15
440.802	1	0
441.143	1	1
441.485	1	5
441.826	1	8
442.167	1	4
442.508	1	-6
442.849	1	11
443.190	1	2
443.531	1	14
443.872	1	13
444.213	1	11
444.554	1	3
444.895	1	1
445.237	1	1
445.578	1	1
445.919	1	8
446.260	1	3
446.601	1	8
446.942	1	7
447.283	1	5
447.624	1	3
447.965	1	6
448.306	1	5
448.647	1	13
448.988	1	12
449.329	1	-7
449.670	1	13
450.011	1	-2
450.352	1	16
450.693	1	1
451.034	1	0
451.375	1	10
451.716	1	-4
452.057	1	12
452.398	1	1
452.739	1	8
453.080	1	6
453.421	1	5
453.762	1	9
454.103	1	1
454.444	1	1
454.785	1	5
455.126	1	-1
455.467	1	1
455.808	1	8
456.149	1	-5
456.490	1	5
456.831	1	6
457.172	1	16
457.513	1	-4
457.854	1	1
458.195	1	-5
458.536	1	4
458.877	1	15
459.218	1	-3
459.559	1	7
459.899	1	9
460.240	1	12
460.581	1	-5
460.922	1	0
461.263	1	2
461.604	1	-10
461.945	1	16
462.286	1	7
462.627	1	1
462.968	1	7
463.309	1	5
463.649	1	-2
463.990	1	4
464.331	1	11
464.672	1	7
465.013	1	-5
465.354	1	-1
465.695	1	10
466.036	1	10
466.376	1	12
466.717	1	13
467.058	1	9
467.399	1	-6
467.740	1	16
468.081	1	8
468.422	1	5
468.762	1	0
469.103	1	6
469.444	1	7
469.785	1	3
470.126	1	-6
470.467	1	8
470.807	1	7
471.148	1	-4
471.489	1	2
471.830	1	12
472.171	1	4
472.511	1	9
472.852	1	13
473.193	1	8
473.534	1	5
473.875	1	9
474.215	1	6
474.556	1	8
474.897	1	9
475.238	1	22
475.578	1	12
475.919	1	-4
476.260	1	7
476.601	1	-2
476.942	1	5
477.282	1	5
477.623	1	2
477.964	1	-3
478.305	1	12
478.645	1	-3
478.986	1	1
479.327	1	1
479.667	1	4
480.008	1	8
480.349	1	-2
480.690	1	2
481.030	1	3
481.371	1	1
481.712	1	6
482.053	1	-2
482.393	1	14
482.734	1	6
483.075	1	14
483.415	1	6
483.756	1	6
484.097	1	0
484.437	1	0
484.778	1	11
485.119	1	10
485.459	1	-1
485.800	1	6
486.141	1	3
486.481	1	0
486.822	1	6
487.163	1	-1
487.503	1	2
487.844	1	1
488.185	1	9
488.525	1	-1
488.866	1	3
489.207	1	1
489.547	1	2
489.888	1	11
490.228	1	9
490.569	1	3
490.910	1	-6
491.250	1	8
491.591	1	-6
491.932	1	6
492.272	1	-5
492.613	1	6
492.953	1	5
493.294	1	3
493.635	1	8
493.975	1	10
494.316	1	4
494.656	1	7
494.997	1	-4
495.337	1	1
495.678	1	-5
496.019	1	9
496.359	1	14
496.700	1	-3
497.040	1	9
497.381	1	3
497.721	1	5
498.062	1	-7
498.403	1	-1
498.743	1	17
499.084	1	17
499.424	1	1
499.765	1	2
500.105	1	11
500.446	1	1
500.786	1	12
501.127	1	10
501.467	1	-6
501.808	1	1
502.148	1	-1
502.489	1	8
502.829	1	9
503.170	1	0
503.510	1	10
503.851	1	0
504.191	1	10
504.532	1	10
504.872	1	7
505.213	1	10
505.553	1	14
505.894	1	2
506.234	1	6
506.575	1	-3
506.915	1	2
507.256	1	18
507.596	1	2
507.936	1	-2
508.277	1	-2
508.617	1	3
508.958	1	20
509.298	1	-1
509.639	1	14
509.979	1	-4
510.319	1	14
510.660	1	-1
511.000	1	4
511.341	1	2
511.681	1	12
512.022	1	13
512.362	1	4
512.702	1	12
513.043	1	16
513.383	1	5
513.724	1	7
514.064	1	0
514.404	1	13
514.745	1	8
515.085	1	12
515.425	1	-3
515.766	1	10
516.106	1	8
516.447	1	7
516.787	1	5
517.127	1	11
517.468	1	7
517.808	1	-2
518.148	1	11
518.489	1	1
518.829	1	11
519.169	1	7
519.510	1	8
519.850	1	22
520.190	1	14
520.531	1	16
520.871	1	0
521.211	1	8
521.552	1	14
521.892	1	8
522.232	1	1
522.573	1	-4
522.913	1	16
523.253	1	13
523.593	1	8
523.934	1	-1
524.274	1	4
524.614	1	16
524.955	1	6
525.295	1	15
525.635	1	4
525.975	1	17
526.316	1	-3
526.656	1	10
526.996	1	2
527.337	1	7
527.677	1	10
528.017	1	13
528.357	1	16
528.698	1	-1
529.038	1	-4
529.378	1	4
529.718	1	15
530.058	1	1
530.399	1	11
530.739	1	10
531.079	1	13
531.419	1	10
531.760	1	5
532.100	1	6
532.440	1	10
532.780	1	-6
533.120	1	9
533.461	1	8
533.801	1	19
534.141	1	13
534.481	1	7
534.821	1	12
535.162	1	11
535.502	1	5
535.842	1	17
536.182	1	4
536.522	1	1
536.862	1	5
537.203	1	-3
537.543	1	13
537.883	1	6
538.223	1	16
538.563	1	16
538.903	1	14
539.243	1	7
539.584	1	13
539.924	1	0
540.264	1	-2
540.604	1	4
540.944	1	8
541.284	1	10
541.624	1	15
541.964	1	2
542.305	1	8
542.645	1	2
542.985	1	18
543.325	1	2
543.665	1	19
544.005	1	18
544.345	1	7
544.685	1	8
545.025	1	8
545.365	1	16
545.705	1	8
546.045	1	4
546.386	1	0
546.726	1	-3
547.066	1	0
547.406	1	-3
547.746	1	2
548.086	1	-8
548.426	1	12
548.766	1	13
549.106	1	-1
549.446	1	1
549.786	1	5
550.126	1	15
550.466	1	16
550.806	1	10
551.146	1	14
551.486	1	4
551.826	1	0
552.166	1	0
552.506	1	14
552.846	1	3
553.186	1	5
553.526	1	6
553.866	1	-7
554.206	1	5
554.546	1	13
554.886	1	6
555.226	1	9
555.566	1	2
555.906	1	4
556.246	1	7
556.586	1	12
556.926	1	4
557.266	1	6
557.606	1	9
557.946	1	7
558.286	1	8
558.626	1	0
558.966	1	9
559.306	1	7
559.646	1	2
559.986	1	9
560.325	1	-3
560.665	1	11
561.005	1	10
561.345	1	13
561.685	1	9
562.025	1	5
562.365	1	15
562.705	1	13
563.045	1	8
563.385	1	5
563.725	1	3
564.064	1	13
564.404	1	4
564.744	1	3
565.084	1	4
565.424	1	-9
565.764	1	5
566.104	1	4
566.444	1	18
566.783	1	8
567.123	1	-2
567.463	1	2
567.803	1	5
568.143	1	14
568.483	1	10
568.823	1	-11
569.162	1	14
569.502	1	9
569.842	1	5
570.182	1	3
570.522	1	-11
570.862	1	14
571.201	1	13
571.541	1	-2
571.881	1	9
572.221	1	11
572.561	1	1
572.900	1	7
573.240	1	-1
573.580	1	3
573.920	1	14
574.260	1	6
574.599	1	15
574.939	1	11
575.279	1	-6
575.619	1	1
575.959	1	1
576.298	1	7
576.638	1	-4
576.978	1	-5
577.318	1	5
577.657	1	15
577.997	1	7
578.337	1	9
578.677	1	10
579.016	1	4
579.356	1	2
579.696	1	-2
580.036	1	10
580.375	1	6
580.715	1	9
581.055	1	-3
581.394	1	8
581.734	1	13
582.074	1	-1
582.414	1	4
582.753	1	9
583.093	1	-4
583.433	1	6
583.772	1	10
584.112	1	4
584.452	1	12
584.791	1	-2
585.131	1	9
585.471	1	12
585.811	1	2
586.150	1	5
586.490	1	3
586.830	1	-1
587.169	1	15
587.509	1	11
587.849	1	-2
588.188	1	10
588.528	1	6
588.867	1	2
589.207	1	1
589.547	1	-4
589.886	1	5
590.226	1	3
590.566	1	5
590.905	1	0
591.245	1	3
591.585	1	8
591.924	1	5
592.264	1	5
592.603	1	-3
592.943	1	2
593.283	1	0
593.622	1	6
593.962	1	12
594.301	1	-6
594.641	1	-4
594.981	1	-3
595.320	1	7
595.660	1	1
595.999	1	16
596.339	1	13
596.678	1	3
597.018	1	5
597.358	1	-4
597.697	1	-4
598.037	1	0
598.376	1	3
598.716	1	4
599.055	1	0
599.395	1	-11
599.734	1	6
600.074	1	7
600.413	1	6
600.753	1	4
601.092	1	3
601.432	1	-2
601.771	1	3
602.111	1	0
602.451	1	8
602.790	1	0
603.130	1	10
603.469	1	4
603.809	1	9
604.148	1	15
604.487	1	11
604.827	1	5
605.166	1	8
605.506	1	-4
605.845	1	8
606.185	1	11
606.524	1	-5
606.864	1	1
607.203	1	-1
607.543	1	6
607.882	1	6
608.222	1	-5
608.561	1	-1
608.901	1	7
609.240	1	0
609.579	1	9
609.919	1	18
610.258	1	1
610.598	1	7
610.937	1	6
611.277	1	11
611.616	1	-2
611.955	1	2
612.295	1	9
612.634	1	-2
612.974	1	-2
613.313	1	1
613.652	1	-4
613.992	1	2
614.331	1	7
614.671	1	15
615.010	1	5
615.349	1	2
615.689	1	2
616.028	1	11
616.368	1	5
616.707	1	11
617.046	1	6
617.386	1	0
617.725	1	4
618.064	1	1
618.404	1	6
618.743	1	8
619.082	1	-4
619.422	1	-3
619.761	1	11
620.100	1	-7
620.440	1	8
620.779	1	5
621.118	1	-2
621.458	1	11
621.797	1	2
622.136	1	2
622.476	1	10
622.815	1	1
623.154	1	-1
623.494	1	11
623.833	1	6
624.172	1	1
624.511	1	-1
624.851	1	-2
625.190	1	1
625.529	1	3
625.869	1	7
626.208	1	2
626.547	1	-3
626.886	1	1
627.226	1	5
627.565	1	8
627.904	1	5
628.243	1	-5
628.583	1	-3
628.922	1	-8
629.261	1	-15
629.600	1	1
629.940	1	10
630.279	1	3
630.618	1	1
630.957	1	4
631.297	1	2
631.636	1	5
631.975	1	-1
632.314	1	-1
632.653	1	11
632.993	1	7
633.332	1	-7
633.671	1	-4
634.010	1	-6
634.349	1	-2
634.689	1	10
635.028	1	0
635.367	1	8
635.706	1	-1
636.045	1	20
636.384	1	1
636.724	1	4
637.063	1	10
637.402	1	-7
637.741	1	13
638.080	1	4
638.419	1	8
638.759	1	8
639.098	1	-6
639.437	1	13
639.776	1	0
640.115	1	1
640.454	1	6
640.793	1	-9
641.132	1	9
641.472	1	0
641.811	1	1
642.150	1	-8
642.489	1	1
642.828	1	4
643.167	1	7
643.506	1	13
643.845	1	-2
644.184	1	-4
644.524	1	-1
644.863	1	2
645.202	1	6
645.541	1	8
645.880	1	-2
646.219	1	4
646.558	1	3
646.897	1	3
647.236	1	2
647.575	1	-7
647.914	1	5
648.253	1	9
648.592	1	-9
648.931	1	-5
649.270	1	-1
649.610	1	-1
649.949	1	9
650.288	1	0
650.627	1	3
650.966	1	7
651.305	1	2
651.644	1	7
651.983	1	-10
652.322	1	2
652.661	1	-2
653.000	1	-2
653.339	1	4
653.678	1	0
654.017	1	-5
654.356	1	6
654.695	1	-2
655.034	1	2
655.373	1	7
655.712	1	3
656.051	1	3
656.390	1	-7
656.729	1	5
657.068	1	-1
657.406	1	6
657.745	1	-6
658.084	1	2
658.423	1	7
658.762	1	12
659.101	1	8
659.440	1	-8
659.779	1	5
660.118	1	-7
660.457	1	7
660.796	1	8
661.135	1	15
661.474	1	4
661.813	1	-2
662.152	1	4
662.491	1	22
662.829	1	14
663.168	1	-11
663.507	1	9
663.846	1	2
664.185	1	-6
664.524	1	-5
664.863	1	-1
665.202	1	0
665.541	1	-5
665.879	1	7
666.218	1	3
666.557	1	2
666.896	1	11
667.235	1	9
667.574	1	4
667.913	1	5
668.251	1	-2
668.590	1	4
668.929	1	2
669.268	1	0
669.607	1	3
669.946	1	8
670.285	1	9
670.623	1	10
670.962	1	-3
671.301	1	2
671.640	1	-2
671.979	1	3
672.317	1	-5
672.656	1	2
672.995	1	3
673.334	1	2
673.673	1	11
674.011	1	10
674.350	1	0
674.689	1	2
675.028	1	7
675.367	1	6
675.705	1	17
676.044	1	6
676.383	1	4
676.722	1	4
677.060	1	11
677.399	1	-3
677.738	1	3
678.077	1	4
678.416	1	6
678.754	1	8
679.093	1	5
679.432	1	8
679.771	1	5
680.109	1	-6
680.448	1	1
680.787	1	4
681.125	1	9
681.464	1	-2
681.803	1	-5
682.142	1	-3
682.480	1	8
682.819	1	4
683.158	1	3
683.496	1	-3
683.835	1	5
684.174	1	14
684.512	1	6
684.851	1	2
685.190	1	-2
685.529	1	-10
685.867	1	12
686.206	1	4
686.545	1	7
686.883	1	1
687.222	1	1
687.561	1	6
687.899	1	1
688.238	1	11
688.577	1	-4
688.746	1	7