File: Data/GaN_130K_350ms/GaN_sample F_spot6_UVVIS_130 K_200um_350 ms 2x2mm1_101.txt
340.368	1	15
340.710	1	2
341.052	1	0
341.394	1	7
341.737	1	7
342.079	1	-2
342.421	1	0
342.763	1	-7
343.105	1	2
343.447	1	18
343.789	1	8
344.131	1	12
344.473	1	3
344.815	1	-1
345.157	1	-14
345.499	1	-5
345.841	1	1
346.183	1	9
346.526	1	5
346.868	1	3
347.210	1	5
347.552	1	-5
347.894	1	12
348.236	1	10
348.578	1	1
348.920	1	12
349.262	1	7
349.604	1	7
349.946	1	11
350.288	1	-5
350.630	1	7
350.972	1	14
351.314	1	2
351.656	1	12
351.998	1	6
352.340	1	16
352.682	1	1
353.024	1	-6
353.366	1	6
353.708	1	-1
354.050	1	17
354.392	1	13
354.734	1	7
355.076	1	17
355.418	1	10
355.760	1	14
356.102	1	8
356.444	1	10
356.785	1	9
357.127	1	12
357.469	1	11
357.811	1	16
358.153	1	8
358.495	1	20
358.837	1	24
359.179	1	16
359.521	1	28
359.863	1	16
360.205	1	17
360.547	1	33
360.889	1	29
361.231	1	27
361.572	1	44
361.914	1	38
362.256	1	41
362.598	1	52
362.940	1	40
363.282	1	62
363.624	1	63
363.966	1	82
364.308	1	78
364.649	1	77
364.991	1	78
365.333	1	83
365.675	1	97
366.017	1	98
366.359	1	100
366.701	1	101
367.042	1	114
367.384	1	121
367.726	1	108
368.068	1	107
368.410	1	103
368.752	1	113
369.093	1	116
369.435	1	100
369.777	1	97
370.119	1	104
370.461	1	93
370.803	1	93
371.144	1	90
371.486	1	91
371.828	1	73
372.170	1	73
372.512	1	82
372.853	1	60
373.195	1	60
373.537	1	71
373.879	1	70
374.220	1	52
374.562	1	55
374.904	1	63
375.246	1	62
375.588	1	43
375.929	1	46
376.271	1	45
376.613	1	40
376.955	1	42
377.296	1	44
377.638	1	38
377.980	1	33
378.321	1	46
378.663	1	42
379.005	1	50
379.347	1	34
379.688	1	29
380.030	1	22
380.372	1	31
380.714	1	46
381.055	1	38
381.397	1	29
381.739	1	39
382.080	1	15
382.422	1	42
382.764	1	24
383.105	1	22
383.447	1	27
383.789	1	30
384.130	1	36
384.472	1	25
384.814	1	23
385.156	1	24
385.497	1	29
385.839	1	33
386.180	1	25
386.522	1	34
386.864	1	32
387.205	1	22
387.547	1	31
387.889	1	25
388.230	1	20
388.572	1	31
388.914	1	19
389.255	1	30
389.597	1	6
389.939	1	33
390.280	1	19
390.622	1	12
390.963	1	24
391.305	1	23
391.647	1	21
391.988	1	12
392.330	1	17
392.671	1	13
393.013	1	18
393.355	1	18
393.696	1	14
394.038	1	22
394.379	1	17
394.721	1	21
395.062	1	23
395.404	1	12
395.746	1	17
396.087	1	22
396.429	1	19
396.770	1	24
397.112	1	19
397.453	1	25
397.795	1	12
398.136	1	14
398.478	1	17
398.819	1	8
399.161	1	23
399.503	1	20
399.844	1	15
400.186	1	17
400.527	1	14
400.869	1	15
401.210	1	5
401.552	1	13
401.893	1	1
402.235	1	32
402.576	1	7
402.918	1	15
403.259	1	1
403.601	1	12
403.942	1	17
404.284	1	13
404.625	1	16
404.967	1	9
405.308	1	9
405.649	1	19
405.991	1	12
406.332	1	14
406.674	1	9
407.015	1	19
407.357	1	5
407.698	1	12
408.040	1	14
408.381	1	17
408.722	1	12
409.064	1	1
409.405	1	12
409.747	1	11
410.088	1	24
410.430	1	20
410.771	1	1
411.112	1	21
411.454	1	12
411.795	1	14
412.137	1	1
412.478	1	6
412.819	1	15
413.161	1	23
413.502	1	16
413.844	1	4
414.185	1	16
414.526	1	0
414.868	1	5
415.209	1	5
415.550	1	9
415.892	1	16
416.233	1	12
416.575	1	14
416.916	1	8
417.257	1	16
417.599	1	11
417.940	1	9
418.281	1	14
418.623	1	22
418.964	1	0
419.305	1	13
419.647	1	16
419.988	1	22
420.329	1	7
420.671	1	-5
421.012	1	6
421.353	1	1
421.695	1	16
422.036	1	15
422.377	1	7
422.718	1	8
423.060	1	13
423.401	1	14
423.742	1	5
424.084	1	14
424.425	1	12
424.766	1	13
425.107	1	14
425.449	1	15
425.790	1	11
426.131	1	18
426.472	1	6
426.814	1	12
427.155	1	6
427.496	1	2
427.837	1	4
428.179	1	10
428.520	1	17
428.861	1	16
429.202	1	10
429.544	1	14
429.885	1	-3
430.226	1	7
430.567	1	10
430.909	1	7
431.250	1	12
431.591	1	12
431.932	1	10
432.273	1	11
432.615	1	8
432.956	1	-3
433.297	1	19
433.638	1	13
433.979	1	9
434.320	1	15
434.662	1	9
435.003	1	20
435.344	1	14
435.685	1	-7
436.026	1	2
436.368	1	3
436.709	1	6
437.050	1	12
437.391	1	13
437.732	1	11
438.073	1	16
438.414	1	-1
438.756	1	6
439.097	1	6
439.438	1	11
439.779	1	17
440.120	1	-2
440.461	1	21
440.802	1	-3
441.143	1	3
441.485	1	11
441.826	1	2
442.167	1	-2
442.508	1	8
442.849	1	10
443.190	1	13
443.531	1	9
443.872	1	21
444.213	1	6
444.554	1	2
444.895	1	0
445.237	1	1
445.578	1	-5
445.919	1	5
446.260	1	6
446.601	1	12
446.942	1	6
447.283	1	11
447.624	1	1
447.965	1	3
448.306	1	8
448.647	1	20
448.988	1	12
449.329	1	15
449.670	1	3
450.011	1	3
450.352	1	9
450.693	1	6
451.034	1	-3
451.375	1	11
451.716	1	5
452.057	1	9
452.398	1	-3
452.739	1	12
453.080	1	3
453.421	1	4
453.762	1	8
454.103	1	-7
454.444	1	7
454.785	1	21
455.126	1	2
455.467	1	10
455.808	1	17
456.149	1	-5
456.490	1	10
456.831	1	9
457.172	1	-1
457.513	1	-4
457.854	1	5
458.195	1	1
458.536	1	9
458.877	1	26
459.218	1	10
459.559	1	7
459.899	1	0
460.240	1	9
460.581	1	8
460.922	1	14
461.263	1	8
461.604	1	-4
461.945	1	13
462.286	1	13
462.627	1	4
462.968	1	2
463.309	1	7
463.649	1	3
463.990	1	-2
464.331	1	19
464.672	1	11
465.013	1	-1
465.354	1	12
465.695	1	12
466.036	1	4
466.376	1	4
466.717	1	14
467.058	1	10
467.399	1	5
467.740	1	23
468.081	1	12
468.422	1	14
468.762	1	-9
469.103	1	8
469.444	1	11
469.785	1	16
470.126	1	5
470.467	1	4
470.807	1	15
471.148	1	0
471.489	1	6
471.830	1	13
472.171	1	8
472.511	1	13
472.852	1	8
473.193	1	9
473.534	1	7
473.875	1	9
474.215	1	13
474.556	1	2
474.897	1	-4
475.238	1	19
475.578	1	0
475.919	1	8
476.260	1	2
476.601	1	11
476.942	1	11
477.282	1	8
477.623	1	-3
477.964	1	5
478.305	1	14
478.645	1	-2
478.986	1	7
479.327	1	6
479.667	1	5
480.008	1	7
480.349	1	11
480.690	1	4
481.030	1	12
481.371	1	15
481.712	1	8
482.053	1	15
482.393	1	12
482.734	1	7
483.075	1	17
483.415	1	3
483.756	1	14
484.097	1	3
484.437	1	12
484.778	1	14
485.119	1	16
485.459	1	1
485.800	1	16
486.141	1	4
486.481	1	-1
486.822	1	7
487.163	1	6
487.503	1	-3
487.844	1	10
488.185	1	5
488.525	1	20
488.866	1	9
489.207	1	17
489.547	1	11
489.888	1	12
490.228	1	5
490.569	1	17
490.910	1	10
491.250	1	19
491.591	1	6
491.932	1	22
492.272	1	17
492.613	1	6
492.953	1	15
493.294	1	16
493.635	1	15
493.975	1	26
494.316	1	14
494.656	1	16
494.997	1	11
495.337	1	14
495.678	1	12
496.019	1	10
496.359	1	21
496.700	1	15
497.040	1	25
497.381	1	21
497.721	1	20
498.062	1	19
498.403	1	11
498.743	1	16
499.084	1	17
499.424	1	15
499.765	1	17
500.105	1	25
500.446	1	21
500.786	1	34
501.127	1	27
501.467	1	19
501.808	1	33
502.148	1	24
502.489	1	19
502.829	1	29
503.170	1	22
503.510	1	20
503.851	1	32
504.191	1	20
504.532	1	26
504.872	1	32
505.213	1	23
505.553	1	34
505.894	1	41
506.234	1	36
506.575	1	30
506.915	1	34
507.256	1	35
507.596	1	31
507.936	1	37
508.277	1	27
508.617	1	25
508.958	1	33
509.298	1	42
509.639	1	39
509.979	1	30
510.319	1	47
510.660	1	32
511.000	1	44
511.341	1	37
511.681	1	30
512.022	1	38
512.362	1	34
512.702	1	44
513.043	1	37
513.383	1	39
513.724	1	28
514.064	1	35
514.404	1	50
514.745	1	27
515.085	1	45
515.425	1	43
515.766	1	43
516.106	1	28
516.447	1	30
516.787	1	32
517.127	1	42
517.468	1	46
517.808	1	23
518.148	1	41
518.489	1	36
518.829	1	53
519.169	1	51
519.510	1	38
519.850	1	58
520.190	1	50
520.531	1	56
520.871	1	36
521.211	1	48
521.552	1	40
521.892	1	48
522.232	1	36
522.573	1	49
522.913	1	44
523.253	1	42
523.593	1	52
523.934	1	43
524.274	1	35
524.614	1	47
524.955	1	47
525.295	1	42
525.635	1	36
525.975	1	57
526.316	1	43
526.656	1	45
526.996	1	45
527.337	1	56
527.677	1	35
528.017	1	52
528.357	1	55
528.698	1	46
529.038	1	35
529.378	1	39
529.718	1	46
530.058	1	42
530.399	1	38
530.739	1	42
531.079	1	43
531.419	1	50
531.760	1	40
532.100	1	49
532.440	1	45
532.780	1	40
533.120	1	53
533.461	1	54
533.801	1	54
534.141	1	50
534.481	1	46
534.821	1	56
535.162	1	52
535.502	1	51
535.842	1	52
536.182	1	39
536.522	1	33
536.862	1	40
537.203	1	40
537.543	1	44
537.883	1	42
538.223	1	49
538.563	1	51
538.903	1	53
539.243	1	36
539.584	1	46
539.924	1	36
540.264	1	42
540.604	1	45
540.944	1	42
541.284	1	37
541.624	1	45
541.964	1	31
542.305	1	34
542.645	1	38
542.985	1	48
543.325	1	38
543.665	1	50
544.005	1	39
544.345	1	41
544.685	1	51
545.025	1	31
545.365	1	48
545.705	1	41
546.045	1	41
546.386	1	34
546.726	1	37
547.066	1	48
547.406	1	32
547.746	1	39
548.086	1	31
548.426	1	40
548.766	1	49
549.106	1	20
549.446	1	34
549.786	1	51
550.126	1	52
550.466	1	43
550.806	1	39
551.146	1	41
551.486	1	41
551.826	1	35
552.166	1	40
552.506	1	28
552.846	1	30
553.186	1	34
553.526	1	45
553.866	1	15
554.206	1	30
554.546	1	36
554.886	1	23
555.226	1	43
555.566	1	28
555.906	1	31
556.246	1	38
556.586	1	31
556.926	1	34
557.266	1	27
557.606	1	34
557.946	1	34
558.286	1	40
558.626	1	18
558.966	1	28
559.306	1	27
559.646	1	24
559.986	1	29
560.325	1	24
560.665	1	30
561.005	1	28
561.345	1	35
561.685	1	18
562.025	1	13
562.365	1	37
562.705	1	31
563.045	1	18
563.385	1	21
563.725	1	27
564.064	1	31
564.404	1	11
564.744	1	29
565.084	1	19
565.424	1	15
565.764	1	25
566.104	1	25
566.444	1	44
566.783	1	34
567.123	1	22
567.463	1	16
567.803	1	28
568.143	1	30
568.483	1	27
568.823	1	22
569.162	1	32
569.502	1	32
569.842	1	18
570.182	1	13
570.522	1	6
570.862	1	35
571.201	1	26
571.541	1	17
571.881	1	21
572.221	1	25
572.561	1	20
572.900	1	22
573.240	1	3
573.580	1	13
573.920	1	20
574.260	1	28
574.599	1	22
574.939	1	22
575.279	1	15
575.619	1	11
575.959	1	15
576.298	1	28
576.638	1	19
576.978	1	10
577.318	1	8
577.657	1	27
577.997	1	14
578.337	1	19
578.677	1	17
579.016	1	11
579.356	1	24
579.696	1	3
580.036	1	22
580.375	1	16
580.715	1	16
581.055	1	10
581.394	1	15
581.734	1	16
582.074	1	2
582.414	1	5
582.753	1	16
583.093	1	12
583.433	1	23
583.772	1	19
584.112	1	23
584.452	1	25
584.791	1	12
585.131	1	22
585.471	1	14
585.811	1	20
586.150	1	22
586.490	1	18
586.830	1	6
587.169	1	17
587.509	1	14
587.849	1	17
588.188	1	10
588.528	1	19
588.867	1	23
589.207	1	8
589.547	1	13
589.886	1	8
590.226	1	18
590.566	1	5
590.905	1	15
591.245	1	-1
591.585	1	14
591.924	1	15
592.264	1	14
592.603	1	3
592.943	1	8
593.283	1	2
593.622	1	16
593.962	1	20
594.301	1	2
594.641	1	10
594.981	1	-3
595.320	1	18
595.660	1	14
595.999	1	19
596.339	1	13
596.678	1	4
597.018	1	9
597.358	1	4
597.697	1	5
598.037	1	10
598.376	1	1
598.716	1	18
599.055	1	15
599.395	1	2
599.734	1	4
600.074	1	21
600.413	1	9
600.753	1	8
601.092	1	9
601.432	1	4
601.771	1	14
602.111	1	4
602.451	1	8
602.790	1	1
603.130	1	18
603.469	1	3
603.809	1	0
604.148	1	15
604.487	1	14
604.827	1	11
605.166	1	17
605.506	1	6
605.845	1	1
606.185	1	12
606.524	1	5
606.864	1	16
607.203	1	7
607.543	1	2
607.882	1	22
608.222	1	0
608.561	1	6
608.901	1	13
609.240	1	-2
609.579	1	11
609.919	1	16
610.258	1	1
610.598	1	6
610.937	1	21
611.277	1	10
611.616	1	2
611.955	1	-1
612.295	1	15
612.634	1	4
612.974	1	8
613.313	1	9
613.652	1	-3
613.992	1	-6
614.331	1	11
614.671	1	7
615.010	1	3
615.349	1	6
615.689	1	14
616.028	1	19
616.368	1	6
616.707	1	11
617.046	1	8
617.386	1	1
617.725	1	8
618.064	1	7
618.404	1	4
618.743	1	13
619.082	1	7
619.422	1	12
619.761	1	10
620.100	1	8
620.440	1	5
620.779	1	3
621.118	1	11
621.458	1	7
621.797	1	1
622.136	1	10
622.476	1	7
622.815	1	0
623.154	1	17
623.494	1	17
623.833	1	15
624.172	1	-2
624.511	1	3
624.851	1	12
625.190	1	3
625.529	1	2
625.869	1	9
626.208	1	-1
626.547	1	3
626.886	1	7
627.226	1	6
627.565	1	9
627.904	1	13
628.243	1	17
628.583	1	0
628.922	1	3
629.261	1	2
629.600	1	-3
629.940	1	6
630.279	1	13
630.618	1	2
630.957	1	5
631.297	1	0
631.636	1	0
631.975	1	10
632.314	1	-3
632.653	1	14
632.993	1	16
633.332	1	5
633.671	1	-6
634.010	1	4
634.349	1	12
634.689	1	8
635.028	1	2
635.367	1	15
635.706	1	4
636.045	1	23
636.384	1	1
636.724	1	10
637.063	1	10
637.402	1	-2
637.741	1	11
638.080	1	16
638.419	1	11
638.759	1	-2
639.098	1	5
639.437	1	2
639.776	1	9
640.115	1	2
640.454	1	13
640.793	1	-7
641.132	1	9
641.472	1	-5
641.811	1	5
642.150	1	-5
642.489	1	3
642.828	1	11
643.167	1	6
643.506	1	9
643.845	1	-1
644.184	1	5
644.524	1	1
644.863	1	5
645.202	1	7
645.541	1	-1
645.880	1	11
646.219	1	3
646.558	1	-6
646.897	1	15
647.236	1	9
647.575	1	-4
647.914	1	1
648.253	1	5
648.592	1	5
648.931	1	-3
649.270	1	2
649.610	1	-4
649.949	1	2
650.288	1	3
650.627	1	0
650.966	1	9
651.305	1	2
651.644	1	4
651.983	1	-1
652.322	1	1
652.661	1	4
653.000	1	5
653.339	1	6
653.678	1	-1
654.017	1	9
654.356	1	5
654.695	1	10
655.034	1	8
655.373	1	7
655.712	1	5
656.051	1	-1
656.390	1	4
656.729	1	-2
657.068	1	5
657.406	1	3
657.745	1	6
658.084	1	5
658.423	1	2
658.762	1	28
659.101	1	12
659.440	1	-1
659.779	1	-3
660.118	1	4
660.457	1	-2
660.796	1	11
661.135	1	10
661.474	1	9
661.813	1	-1
662.152	1	1
662.491	1	18
662.829	1	15
663.168	1	-11
663.507	1	10
663.846	1	-1
664.185	1	5
664.524	1	2
664.863	1	2
665.202	1	-4
665.541	1	2
665.879	1	2
666.218	1	9
666.557	1	6
666.896	1	13
667.235	1	10
667.574	1	12
667.913	1	11
668.251	1	12
668.590	1	7
668.929	1	10
669.268	1	9
669.607	1	6
669.946	1	19
670.285	1	6
670.623	1	10
670.962	1	4
671.301	1	10
671.640	1	0
671.979	1	6
672.317	1	2
672.656	1	-2
672.995	1	12
673.334	1	-6
673.673	1	6
674.011	1	1
674.350	1	5
674.689	1	11
675.028	1	11
675.367	1	1
675.705	1	21
676.044	1	10
676.383	1	10
676.722	1	2
677.060	1	7
677.399	1	7
677.738	1	-6
678.077	1	9
678.416	1	3
678.754	1	12
679.093	1	5
679.432	1	0
679.771	1	10
680.109	1	10
680.448	1	10
680.787	1	6
681.125	1	9
681.464	1	-7
681.803	1	3
682.142	1	-4
682.480	1	12
682.819	1	2
683.158	1	6
683.496	1	5
683.835	1	1
684.174	1	8
684.512	1	5
684.851	1	1
685.190	1	2
685.529	1	-2
685.867	1	-6
686.206	1	13
686.545	1	-2
686.883	1	3
687.222	1	-2
687.561	1	20
687.899	1	16
688.238	1	9
688.577	1	1
688.746	1	3