File: Data/GaN_130K_350ms/GaN_sample F_spot6_UVVIS_130 K_200um_350 ms 2x2mm1_272.txt
340.368	1	5
340.710	1	2
341.052	1	-6
341.394	1	6
341.737	1	-5
342.079	1	7
342.421	1	-1
342.763	1	8
343.105	1	6
343.447	1	7
343.789	1	9
344.131	1	12
344.473	1	-4
344.815	1	-11
345.157	1	-4
345.499	1	-7
345.841	1	2
346.183	1	4
346.526	1	-10
346.868	1	7
347.210	1	10
347.552	1	-3
347.894	1	7
348.236	1	16
348.578	1	-5
348.920	1	3
349.262	1	10
349.604	1	-2
349.946	1	2
350.288	1	-7
350.630	1	13
350.972	1	1
351.314	1	-6
351.656	1	4
351.998	1	-2
352.340	1	11
352.682	1	0
353.024	1	8
353.366	1	17
353.708	1	1
354.050	1	2
354.392	1	7
354.734	1	-5
355.076	1	-2
355.418	1	8
355.760	1	5
356.102	1	-7
356.444	1	-11
356.785	1	5
357.127	1	2
357.469	1	2
357.811	1	7
358.153	1	2
358.495	1	1
358.837	1	8
359.179	1	-5
359.521	1	-5
359.863	1	-1
360.205	1	1
360.547	1	6
360.889	1	-3
361.231	1	4
361.572	1	9
361.914	1	2
362.256	1	1
362.598	1	1
362.940	1	-3
363.282	1	6
363.624	1	7
363.966	1	25
364.308	1	21
364.649	1	3
364.991	1	8
365.333	1	1
365.675	1	17
366.017	1	11
366.359	1	15
366.701	1	11
367.042	1	20
367.384	1	18
367.726	1	14
368.068	1	4
368.410	1	4
368.752	1	22
369.093	1	8
369.435	1	1
369.777	1	5
370.119	1	17
370.461	1	2
370.803	1	8
371.144	1	11
371.486	1	4
371.828	1	13
372.170	1	7
372.512	1	7
372.853	1	3
373.195	1	9
373.537	1	3
373.879	1	16
374.220	1	-1
374.562	1	-1
374.904	1	9
375.246	1	13
375.588	1	-3
375.929	1	0
376.271	1	5
376.613	1	-1
376.955	1	12
377.296	1	10
377.638	1	2
377.980	1	-3
378.321	1	4
378.663	1	10
379.005	1	9
379.347	1	-4
379.688	1	-2
380.030	1	2
380.372	1	3
380.714	1	13
381.055	1	4
381.397	1	0
381.739	1	9
382.080	1	3
382.422	1	12
382.764	1	3
383.105	1	6
383.447	1	-1
383.789	1	11
384.130	1	10
384.472	1	8
384.814	1	-5
385.156	1	1
385.497	1	0
385.839	1	3
386.180	1	10
386.522	1	-4
386.864	1	13
387.205	1	0
387.547	1	11
387.889	1	-3
388.230	1	-2
388.572	1	7
388.914	1	3
389.255	1	-2
389.597	1	-8
389.939	1	4
390.280	1	12
390.622	1	10
390.963	1	10
391.305	1	5
391.647	1	8
391.988	1	4
392.330	1	-8
392.671	1	-5
393.013	1	5
393.355	1	5
393.696	1	-3
394.038	1	7
394.379	1	4
394.721	1	5
395.062	1	-6
395.404	1	-2
395.746	1	8
396.087	1	10
396.429	1	3
396.770	1	6
397.112	1	7
397.453	1	14
397.795	1	1
398.136	1	9
398.478	1	6
398.819	1	-11
399.161	1	11
399.503	1	12
399.844	1	-4
400.186	1	-7
400.527	1	8
400.869	1	10
401.210	1	-1
401.552	1	18
401.893	1	-12
402.235	1	4
402.576	1	4
402.918	1	5
403.259	1	2
403.601	1	7
403.942	1	4
404.284	1	-2
404.625	1	9
404.967	1	6
405.308	1	5
405.649	1	8
405.991	1	5
406.332	1	7
406.674	1	9
407.015	1	-4
407.357	1	-2
407.698	1	1
408.040	1	1
408.381	1	15
408.722	1	8
409.064	1	5
409.405	1	6
409.747	1	-1
410.088	1	17
410.430	1	9
410.771	1	-7
411.112	1	11
411.454	1	4
411.795	1	7
412.137	1	2
412.478	1	1
412.819	1	9
413.161	1	11
413.502	1	9
413.844	1	5
414.185	1	15
414.526	1	4
414.868	1	3
415.209	1	10
415.550	1	2
415.892	1	10
416.233	1	11
416.575	1	6
416.916	1	-1
417.257	1	4
417.599	1	-4
417.940	1	8
418.281	1	2
418.623	1	5
418.964	1	4
419.305	1	0
419.647	1	11
419.988	1	21
420.329	1	17
420.671	1	-2
421.012	1	7
421.353	1	2
421.695	1	-4
422.036	1	7
422.377	1	-1
422.718	1	-4
423.060	1	2
423.401	1	5
423.742	1	8
424.084	1	6
424.425	1	6
424.766	1	3
425.107	1	11
425.449	1	5
425.790	1	9
426.131	1	11
426.472	1	-5
426.814	1	1
427.155	1	2
427.496	1	1
427.837	1	6
428.179	1	7
428.520	1	4
428.861	1	-4
429.202	1	4
429.544	1	9
429.885	1	3
430.226	1	2
430.567	1	2
430.909	1	6
431.250	1	2
431.591	1	2
431.932	1	0
432.273	1	10
432.615	1	14
432.956	1	-5
433.297	1	13
433.638	1	4
433.979	1	6
434.320	1	7
434.662	1	9
435.003	1	14
435.344	1	3
435.685	1	-10
436.026	1	7
436.368	1	-4
436.709	1	-6
437.050	1	11
437.391	1	12
437.732	1	0
438.073	1	16
438.414	1	-3
438.756	1	5
439.097	1	3
439.438	1	9
439.779	1	10
440.120	1	-1
440.461	1	7
440.802	1	-8
441.143	1	2
441.485	1	13
441.826	1	-1
442.167	1	-3
442.508	1	-2
442.849	1	1
443.190	1	6
443.531	1	5
443.872	1	3
444.213	1	0
444.554	1	9
444.895	1	5
445.237	1	-12
445.578	1	5
445.919	1	-5
446.260	1	4
446.601	1	4
446.942	1	6
447.283	1	9
447.624	1	2
447.965	1	2
448.306	1	11
448.647	1	5
448.988	1	6
449.329	1	3
449.670	1	2
450.011	1	-3
450.352	1	5
450.693	1	9
451.034	1	3
451.375	1	13
451.716	1	-15
452.057	1	11
452.398	1	-11
452.739	1	9
453.080	1	-3
453.421	1	2
453.762	1	6
454.103	1	-2
454.444	1	5
454.785	1	12
455.126	1	-2
455.467	1	7
455.808	1	19
456.149	1	-10
456.490	1	5
456.831	1	0
457.172	1	-3
457.513	1	-4
457.854	1	4
458.195	1	-9
458.536	1	0
458.877	1	10
459.218	1	4
459.559	1	7
459.899	1	6
460.240	1	11
460.581	1	1
460.922	1	-5
461.263	1	5
461.604	1	-8
461.945	1	8
462.286	1	6
462.627	1	-4
462.968	1	0
463.309	1	3
463.649	1	-4
463.990	1	7
464.331	1	2
464.672	1	9
465.013	1	-3
465.354	1	2
465.695	1	14
466.036	1	6
466.376	1	5
466.717	1	12
467.058	1	-4
467.399	1	-5
467.740	1	11
468.081	1	15
468.422	1	5
468.762	1	-6
469.103	1	0
469.444	1	6
469.785	1	7
470.126	1	-8
470.467	1	-2
470.807	1	-2
471.148	1	3
471.489	1	-1
471.830	1	5
472.171	1	5
472.511	1	5
472.852	1	-4
473.193	1	8
473.534	1	8
473.875	1	8
474.215	1	0
474.556	1	4
474.897	1	-11
475.238	1	16
475.578	1	2
475.919	1	-6
476.260	1	6
476.601	1	-3
476.942	1	10
477.282	1	14
477.623	1	-4
477.964	1	4
478.305	1	9
478.645	1	-2
478.986	1	-1
479.327	1	-6
479.667	1	-1
480.008	1	-2
480.349	1	-1
480.690	1	3
481.030	1	-1
481.371	1	4
481.712	1	9
482.053	1	2
482.393	1	3
482.734	1	3
483.075	1	11
483.415	1	-5
483.756	1	12
484.097	1	-4
484.437	1	1
484.778	1	4
485.119	1	7
485.459	1	-4
485.800	1	13
486.141	1	5
486.481	1	3
486.822	1	10
487.163	1	0
487.503	1	1
487.844	1	-1
488.185	1	6
488.525	1	2
488.866	1	12
489.207	1	1
489.547	1	-2
489.888	1	7
490.228	1	9
490.569	1	9
490.910	1	-1
491.250	1	4
491.591	1	-11
491.932	1	3
492.272	1	2
492.613	1	1
492.953	1	-2
493.294	1	5
493.635	1	-4
493.975	1	16
494.316	1	6
494.656	1	8
494.997	1	-1
495.337	1	-3
495.678	1	3
496.019	1	-2
496.359	1	9
496.700	1	7
497.040	1	11
497.381	1	13
497.721	1	6
498.062	1	-7
498.403	1	-11
498.743	1	6
499.084	1	11
499.424	1	6
499.765	1	-2
500.105	1	7
500.446	1	9
500.786	1	10
501.127	1	3
501.467	1	4
501.808	1	2
502.148	1	8
502.489	1	1
502.829	1	7
503.170	1	-4
503.510	1	6
503.851	1	-9
504.191	1	0
504.532	1	4
504.872	1	10
505.213	1	7
505.553	1	0
505.894	1	8
506.234	1	1
506.575	1	1
506.915	1	1
507.256	1	6
507.596	1	1
507.936	1	0
508.277	1	-7
508.617	1	1
508.958	1	4
509.298	1	2
509.639	1	8
509.979	1	2
510.319	1	16
510.660	1	-2
511.000	1	6
511.341	1	2
511.681	1	6
512.022	1	5
512.362	1	-3
512.702	1	8
513.043	1	2
513.383	1	5
513.724	1	4
514.064	1	3
514.404	1	10
514.745	1	-1
515.085	1	8
515.425	1	2
515.766	1	8
516.106	1	3
516.447	1	2
516.787	1	4
517.127	1	6
517.468	1	7
517.808	1	-6
518.148	1	16
518.489	1	4
518.829	1	0
519.169	1	4
519.510	1	-1
519.850	1	15
520.190	1	10
520.531	1	9
520.871	1	0
521.211	1	2
521.552	1	-1
521.892	1	4
522.232	1	-10
522.573	1	-11
522.913	1	0
523.253	1	4
523.593	1	17
523.934	1	-4
524.274	1	-5
524.614	1	8
524.955	1	10
525.295	1	8
525.635	1	-6
525.975	1	10
526.316	1	2
526.656	1	10
526.996	1	4
527.337	1	16
527.677	1	-2
528.017	1	-3
528.357	1	-4
528.698	1	-5
529.038	1	-6
529.378	1	3
529.718	1	18
530.058	1	-7
530.399	1	0
530.739	1	5
531.079	1	4
531.419	1	9
531.760	1	-12
532.100	1	5
532.440	1	11
532.780	1	2
533.120	1	10
533.461	1	8
533.801	1	16
534.141	1	6
534.481	1	8
534.821	1	18
535.162	1	6
535.502	1	3
535.842	1	13
536.182	1	7
536.522	1	2
536.862	1	-3
537.203	1	2
537.543	1	4
537.883	1	1
538.223	1	2
538.563	1	5
538.903	1	12
539.243	1	2
539.584	1	8
539.924	1	-4
540.264	1	10
540.604	1	7
540.944	1	10
541.284	1	7
541.624	1	12
541.964	1	-4
542.305	1	10
542.645	1	-7
542.985	1	5
543.325	1	5
543.665	1	3
544.005	1	9
544.345	1	8
544.685	1	6
545.025	1	6
545.365	1	7
545.705	1	6
546.045	1	-3
546.386	1	3
546.726	1	5
547.066	1	1
547.406	1	-4
547.746	1	2
548.086	1	-7
548.426	1	11
548.766	1	10
549.106	1	-3
549.446	1	1
549.786	1	11
550.126	1	8
550.466	1	12
550.806	1	8
551.146	1	4
551.486	1	-1
551.826	1	9
552.166	1	10
552.506	1	7
552.846	1	-3
553.186	1	5
553.526	1	7
553.866	1	-2
554.206	1	10
554.546	1	13
554.886	1	2
555.226	1	5
555.566	1	2
555.906	1	6
556.246	1	-6
556.586	1	10
556.926	1	-7
557.266	1	8
557.606	1	5
557.946	1	4
558.286	1	14
558.626	1	1
558.966	1	2
559.306	1	3
559.646	1	11
559.986	1	4
560.325	1	1
560.665	1	5
561.005	1	5
561.345	1	12
561.685	1	6
562.025	1	-3
562.365	1	5
562.705	1	5
563.045	1	4
563.385	1	3
563.725	1	4
564.064	1	4
564.404	1	1
564.744	1	-1
565.084	1	-3
565.424	1	-10
565.764	1	8
566.104	1	-3
566.444	1	9
566.783	1	8
567.123	1	5
567.463	1	-7
567.803	1	10
568.143	1	14
568.483	1	4
568.823	1	-8
569.162	1	11
569.502	1	3
569.842	1	1
570.182	1	3
570.522	1	-12
570.862	1	27
571.201	1	9
571.541	1	6
571.881	1	0
572.221	1	7
572.561	1	6
572.900	1	7
573.240	1	1
573.580	1	-8
573.920	1	16
574.260	1	6
574.599	1	6
574.939	1	10
575.279	1	-13
575.619	1	5
575.959	1	4
576.298	1	-1
576.638	1	-4
576.978	1	-5
577.318	1	7
577.657	1	13
577.997	1	11
578.337	1	5
578.677	1	12
579.016	1	3
579.356	1	9
579.696	1	-3
580.036	1	1
580.375	1	-10
580.715	1	0
581.055	1	8
581.394	1	8
581.734	1	3
582.074	1	1
582.414	1	0
582.753	1	2
583.093	1	8
583.433	1	12
583.772	1	1
584.112	1	9
584.452	1	7
584.791	1	5
585.131	1	4
585.471	1	7
585.811	1	-5
586.150	1	6
586.490	1	-2
586.830	1	-2
587.169	1	2
587.509	1	1
587.849	1	8
588.188	1	7
588.528	1	12
588.867	1	12
589.207	1	-4
589.547	1	4
589.886	1	-1
590.226	1	2
590.566	1	1
590.905	1	7
591.245	1	1
591.585	1	12
591.924	1	4
592.264	1	13
592.603	1	-5
592.943	1	-3
593.283	1	0
593.622	1	5
593.962	1	5
594.301	1	-7
594.641	1	1
594.981	1	-9
595.320	1	4
595.660	1	-6
595.999	1	10
596.339	1	6
596.678	1	-11
597.018	1	-3
597.358	1	-2
597.697	1	1
598.037	1	0
598.376	1	1
598.716	1	5
599.055	1	4
599.395	1	3
599.734	1	2
600.074	1	6
600.413	1	12
600.753	1	-2
601.092	1	-1
601.432	1	3
601.771	1	7
602.111	1	0
602.451	1	11
602.790	1	4
603.130	1	-3
603.469	1	8
603.809	1	0
604.148	1	4
604.487	1	8
604.827	1	-3
605.166	1	6
605.506	1	3
605.845	1	2
606.185	1	1
606.524	1	3
606.864	1	15
607.203	1	-1
607.543	1	2
607.882	1	4
608.222	1	-7
608.561	1	2
608.901	1	10
609.240	1	-5
609.579	1	15
609.919	1	13
610.258	1	1
610.598	1	2
610.937	1	3
611.277	1	-1
611.616	1	-9
611.955	1	3
612.295	1	7
612.634	1	3
612.974	1	1
613.313	1	2
613.652	1	-3
613.992	1	12
614.331	1	-2
614.671	1	-6
615.010	1	-8
615.349	1	8
615.689	1	-1
616.028	1	6
616.368	1	-2
616.707	1	6
617.046	1	15
617.386	1	-6
617.725	1	7
618.064	1	0
618.404	1	3
618.743	1	-3
619.082	1	11
619.422	1	5
619.761	1	1
620.100	1	-3
620.440	1	15
620.779	1	6
621.118	1	2
621.458	1	3
621.797	1	-5
622.136	1	6
622.476	1	16
622.815	1	-8
623.154	1	10
623.494	1	6
623.833	1	6
624.172	1	-7
624.511	1	-6
624.851	1	4
625.190	1	-2
625.529	1	2
625.869	1	1
626.208	1	-7
626.547	1	0
626.886	1	7
627.226	1	9
627.565	1	1
627.904	1	7
628.243	1	9
628.583	1	-14
628.922	1	-6
629.261	1	-11
629.600	1	-1
629.940	1	7
630.279	1	18
630.618	1	-2
630.957	1	4
631.297	1	2
631.636	1	5
631.975	1	5
632.314	1	-12
632.653	1	4
632.993	1	8
633.332	1	0
633.671	1	-2
634.010	1	0
634.349	1	1
634.689	1	14
635.028	1	7
635.367	1	7
635.706	1	4
636.045	1	11
636.384	1	0
636.724	1	13
637.063	1	9
637.402	1	-16
637.741	1	7
638.080	1	13
638.419	1	3
638.759	1	5
639.098	1	-8
639.437	1	13
639.776	1	4
640.115	1	6
640.454	1	2
640.793	1	-10
641.132	1	7
641.472	1	6
641.811	1	1
642.150	1	1
642.489	1	1
642.828	1	0
643.167	1	4
643.506	1	1
643.845	1	-2
644.184	1	0
644.524	1	1
644.863	1	-2
645.202	1	9
645.541	1	-2
645.880	1	13
646.219	1	-1
646.558	1	-10
646.897	1	0
647.236	1	-2
647.575	1	5
647.914	1	-5
648.253	1	-1
648.592	1	-4
648.931	1	-6
649.270	1	-8
649.610	1	-2
649.949	1	-3
650.288	1	-3
650.627	1	1
650.966	1	-1
651.305	1	-2
651.644	1	9
651.983	1	-12
652.322	1	-2
652.661	1	5
653.000	1	-2
653.339	1	0
653.678	1	2
654.017	1	-5
654.356	1	0
654.695	1	-2
655.034	1	3
655.373	1	1
655.712	1	9
656.051	1	-3
656.390	1	-1
656.729	1	-3
657.068	1	-2
657.406	1	5
657.745	1	-1
658.084	1	10
658.423	1	5
658.762	1	12
659.101	1	3
659.440	1	-4
659.779	1	-2
660.118	1	-5
660.457	1	-6
660.796	1	4
661.135	1	7
661.474	1	1
661.813	1	-2
662.152	1	0
662.491	1	15
662.829	1	13
663.168	1	-2
663.507	1	3
663.846	1	-11
664.185	1	-3
664.524	1	-3
664.863	1	4
665.202	1	0
665.541	1	-1
665.879	1	-6
666.218	1	0
666.557	1	6
666.896	1	-3
667.235	1	4
667.574	1	2
667.913	1	2
668.251	1	1
668.590	1	11
668.929	1	2
669.268	1	-7
669.607	1	7
669.946	1	3
670.285	1	14
670.623	1	12
670.962	1	-3
671.301	1	-6
671.640	1	-6
671.979	1	3
672.317	1	1
672.656	1	6
672.995	1	-2
673.334	1	-6
673.673	1	3
674.011	1	-1
674.350	1	3
674.689	1	2
675.028	1	6
675.367	1	2
675.705	1	10
676.044	1	5
676.383	1	-4
676.722	1	-8
677.060	1	12
677.399	1	0
677.738	1	-1
678.077	1	-2
678.416	1	12
678.754	1	3
679.093	1	-3
679.432	1	3
679.771	1	9
680.109	1	3
680.448	1	16
680.787	1	6
681.125	1	8
681.464	1	3
681.803	1	-2
682.142	1	-1
682.480	1	4
682.819	1	6
683.158	1	1
683.496	1	5
683.835	1	-5
684.174	1	8
684.512	1	7
684.851	1	-10
685.190	1	-6
685.529	1	-6
685.867	1	2
686.206	1	6
686.545	1	-1
686.883	1	2
687.222	1	-6
687.561	1	7
687.899	1	2
688.238	1	4
688.577	1	-3
688.746	1	11