File: Data/GaN_130K_350ms/GaN_sample F_spot6_UVVIS_130 K_200um_350 ms 2x2mm1_270.txt
340.368	1	4
340.710	1	8
341.052	1	-10
341.394	1	0
341.737	1	6
342.079	1	-2
342.421	1	15
342.763	1	7
343.105	1	5
343.447	1	2
343.789	1	0
344.131	1	0
344.473	1	2
344.815	1	-5
345.157	1	-14
345.499	1	-5
345.841	1	0
346.183	1	6
346.526	1	-2
346.868	1	1
347.210	1	3
347.552	1	-3
347.894	1	7
348.236	1	-2
348.578	1	1
348.920	1	-1
349.262	1	16
349.604	1	7
349.946	1	5
350.288	1	-6
350.630	1	3
350.972	1	16
351.314	1	2
351.656	1	10
351.998	1	-8
352.340	1	12
352.682	1	6
353.024	1	2
353.366	1	5
353.708	1	-13
354.050	1	2
354.392	1	7
354.734	1	-3
355.076	1	2
355.418	1	6
355.760	1	6
356.102	1	-2
356.444	1	-11
356.785	1	8
357.127	1	4
357.469	1	-3
357.811	1	1
358.153	1	-1
358.495	1	7
358.837	1	6
359.179	1	2
359.521	1	-3
359.863	1	-3
360.205	1	2
360.547	1	-1
360.889	1	-2
361.231	1	-3
361.572	1	12
361.914	1	-5
362.256	1	1
362.598	1	-1
362.940	1	-4
363.282	1	10
363.624	1	1
363.966	1	14
364.308	1	7
364.649	1	5
364.991	1	6
365.333	1	11
365.675	1	9
366.017	1	18
366.359	1	6
366.701	1	12
367.042	1	23
367.384	1	10
367.726	1	9
368.068	1	-3
368.410	1	1
368.752	1	17
369.093	1	11
369.435	1	11
369.777	1	6
370.119	1	13
370.461	1	6
370.803	1	16
371.144	1	7
371.486	1	9
371.828	1	5
372.170	1	2
372.512	1	14
372.853	1	6
373.195	1	-5
373.537	1	-1
373.879	1	13
374.220	1	5
374.562	1	-4
374.904	1	14
375.246	1	16
375.588	1	-5
375.929	1	3
376.271	1	8
376.613	1	6
376.955	1	9
377.296	1	8
377.638	1	-5
377.980	1	0
378.321	1	9
378.663	1	0
379.005	1	12
379.347	1	7
379.688	1	-8
380.030	1	1
380.372	1	12
380.714	1	13
381.055	1	-2
381.397	1	-6
381.739	1	1
382.080	1	-7
382.422	1	18
382.764	1	2
383.105	1	6
383.447	1	-1
383.789	1	9
384.130	1	5
384.472	1	3
384.814	1	-6
385.156	1	0
385.497	1	7
385.839	1	13
386.180	1	9
386.522	1	2
386.864	1	5
387.205	1	-2
387.547	1	-1
387.889	1	-7
388.230	1	2
388.572	1	4
388.914	1	-5
389.255	1	0
389.597	1	-10
389.939	1	7
390.280	1	7
390.622	1	1
390.963	1	9
391.305	1	10
391.647	1	17
391.988	1	8
392.330	1	-2
392.671	1	1
393.013	1	4
393.355	1	5
393.696	1	5
394.038	1	7
394.379	1	10
394.721	1	3
395.062	1	-2
395.404	1	-5
395.746	1	9
396.087	1	10
396.429	1	6
396.770	1	6
397.112	1	8
397.453	1	2
397.795	1	-7
398.136	1	5
398.478	1	-7
398.819	1	-6
399.161	1	11
399.503	1	8
399.844	1	-4
400.186	1	6
400.527	1	15
400.869	1	3
401.210	1	-2
401.552	1	12
401.893	1	-8
402.235	1	10
402.576	1	-3
402.918	1	0
403.259	1	-2
403.601	1	-1
403.942	1	-5
404.284	1	5
404.625	1	10
404.967	1	8
405.308	1	0
405.649	1	14
405.991	1	8
406.332	1	16
406.674	1	12
407.015	1	4
407.357	1	-5
407.698	1	8
408.040	1	4
408.381	1	7
408.722	1	20
409.064	1	-2
409.405	1	3
409.747	1	-5
410.088	1	15
410.430	1	9
410.771	1	-6
411.112	1	7
411.454	1	7
411.795	1	2
412.137	1	-3
412.478	1	-1
412.819	1	8
413.161	1	2
413.502	1	13
413.844	1	5
414.185	1	9
414.526	1	3
414.868	1	-3
415.209	1	1
415.550	1	1
415.892	1	13
416.233	1	13
416.575	1	4
416.916	1	-4
417.257	1	-1
417.599	1	1
417.940	1	8
418.281	1	-3
418.623	1	2
418.964	1	4
419.305	1	8
419.647	1	12
419.988	1	7
420.329	1	8
420.671	1	5
421.012	1	-9
421.353	1	10
421.695	1	-2
422.036	1	-9
422.377	1	5
422.718	1	3
423.060	1	5
423.401	1	14
423.742	1	8
424.084	1	7
424.425	1	3
424.766	1	11
425.107	1	3
425.449	1	5
425.790	1	12
426.131	1	13
426.472	1	11
426.814	1	2
427.155	1	2
427.496	1	1
427.837	1	5
428.179	1	4
428.520	1	6
428.861	1	-3
429.202	1	6
429.544	1	11
429.885	1	-3
430.226	1	0
430.567	1	9
430.909	1	-4
431.250	1	12
431.591	1	5
431.932	1	-5
432.273	1	8
432.615	1	9
432.956	1	-1
433.297	1	21
433.638	1	3
433.979	1	11
434.320	1	1
434.662	1	11
435.003	1	10
435.344	1	4
435.685	1	-8
436.026	1	6
436.368	1	4
436.709	1	2
437.050	1	7
437.391	1	10
437.732	1	3
438.073	1	9
438.414	1	-6
438.756	1	4
439.097	1	15
439.438	1	5
439.779	1	9
440.120	1	8
440.461	1	8
440.802	1	-4
441.143	1	-4
441.485	1	18
441.826	1	-6
442.167	1	-9
442.508	1	3
442.849	1	4
443.190	1	8
443.531	1	4
443.872	1	6
444.213	1	5
444.554	1	5
444.895	1	8
445.237	1	6
445.578	1	6
445.919	1	1
446.260	1	0
446.601	1	5
446.942	1	3
447.283	1	6
447.624	1	3
447.965	1	-3
448.306	1	-1
448.647	1	18
448.988	1	-7
449.329	1	-1
449.670	1	0
450.011	1	-2
450.352	1	8
450.693	1	1
451.034	1	-2
451.375	1	14
451.716	1	2
452.057	1	19
452.398	1	-7
452.739	1	8
453.080	1	-5
453.421	1	1
453.762	1	5
454.103	1	2
454.444	1	-2
454.785	1	7
455.126	1	-7
455.467	1	5
455.808	1	9
456.149	1	-1
456.490	1	4
456.831	1	-5
457.172	1	-7
457.513	1	-4
457.854	1	8
458.195	1	0
458.536	1	6
458.877	1	18
459.218	1	11
459.559	1	0
459.899	1	5
460.240	1	7
460.581	1	-4
460.922	1	0
461.263	1	8
461.604	1	-12
461.945	1	7
462.286	1	2
462.627	1	3
462.968	1	2
463.309	1	8
463.649	1	6
463.990	1	-1
464.331	1	12
464.672	1	8
465.013	1	-2
465.354	1	14
465.695	1	10
466.036	1	8
466.376	1	-3
466.717	1	8
467.058	1	6
467.399	1	1
467.740	1	17
468.081	1	10
468.422	1	8
468.762	1	3
469.103	1	6
469.444	1	-1
469.785	1	6
470.126	1	-4
470.467	1	6
470.807	1	10
471.148	1	4
471.489	1	-10
471.830	1	0
472.171	1	4
472.511	1	10
472.852	1	5
473.193	1	0
473.534	1	2
473.875	1	13
474.215	1	1
474.556	1	0
474.897	1	-7
475.238	1	13
475.578	1	6
475.919	1	-1
476.260	1	5
476.601	1	0
476.942	1	4
477.282	1	5
477.623	1	-8
477.964	1	4
478.305	1	11
478.645	1	-5
478.986	1	-1
479.327	1	0
479.667	1	9
480.008	1	1
480.349	1	2
480.690	1	7
481.030	1	6
481.371	1	14
481.712	1	7
482.053	1	2
482.393	1	10
482.734	1	-4
483.075	1	12
483.415	1	0
483.756	1	-6
484.097	1	-1
484.437	1	1
484.778	1	16
485.119	1	8
485.459	1	-9
485.800	1	8
486.141	1	1
486.481	1	4
486.822	1	7
487.163	1	-1
487.503	1	-1
487.844	1	-2
488.185	1	4
488.525	1	8
488.866	1	3
489.207	1	8
489.547	1	-2
489.888	1	11
490.228	1	1
490.569	1	7
490.910	1	-8
491.250	1	13
491.591	1	-4
491.932	1	0
492.272	1	1
492.613	1	4
492.953	1	2
493.294	1	7
493.635	1	-4
493.975	1	12
494.316	1	6
494.656	1	4
494.997	1	1
495.337	1	8
495.678	1	-1
496.019	1	-9
496.359	1	5
496.700	1	-1
497.040	1	13
497.381	1	12
497.721	1	5
498.062	1	-5
498.403	1	2
498.743	1	8
499.084	1	17
499.424	1	-13
499.765	1	-8
500.105	1	7
500.446	1	6
500.786	1	3
501.127	1	3
501.467	1	3
501.808	1	8
502.148	1	7
502.489	1	8
502.829	1	0
503.170	1	-6
503.510	1	0
503.851	1	2
504.191	1	0
504.532	1	5
504.872	1	-5
505.213	1	-1
505.553	1	2
505.894	1	10
506.234	1	-1
506.575	1	-9
506.915	1	-1
507.256	1	13
507.596	1	2
507.936	1	2
508.277	1	0
508.617	1	-9
508.958	1	0
509.298	1	4
509.639	1	-5
509.979	1	0
510.319	1	12
510.660	1	-2
511.000	1	5
511.341	1	-4
511.681	1	6
512.022	1	8
512.362	1	-4
512.702	1	4
513.043	1	7
513.383	1	5
513.724	1	5
514.064	1	0
514.404	1	7
514.745	1	2
515.085	1	15
515.425	1	8
515.766	1	10
516.106	1	3
516.447	1	0
516.787	1	9
517.127	1	6
517.468	1	6
517.808	1	8
518.148	1	1
518.489	1	0
518.829	1	3
519.169	1	7
519.510	1	-2
519.850	1	12
520.190	1	7
520.531	1	10
520.871	1	5
521.211	1	11
521.552	1	2
521.892	1	11
522.232	1	-9
522.573	1	-1
522.913	1	6
523.253	1	8
523.593	1	14
523.934	1	2
524.274	1	-3
524.614	1	12
524.955	1	-1
525.295	1	7
525.635	1	0
525.975	1	11
526.316	1	-1
526.656	1	-1
526.996	1	2
527.337	1	15
527.677	1	4
528.017	1	11
528.357	1	8
528.698	1	-6
529.038	1	-7
529.378	1	7
529.718	1	15
530.058	1	5
530.399	1	4
530.739	1	1
531.079	1	6
531.419	1	7
531.760	1	7
532.100	1	13
532.440	1	7
532.780	1	14
533.120	1	6
533.461	1	-2
533.801	1	19
534.141	1	6
534.481	1	5
534.821	1	7
535.162	1	5
535.502	1	10
535.842	1	13
536.182	1	16
536.522	1	-4
536.862	1	2
537.203	1	-2
537.543	1	15
537.883	1	5
538.223	1	8
538.563	1	7
538.903	1	13
539.243	1	-1
539.584	1	15
539.924	1	-1
540.264	1	-1
540.604	1	8
540.944	1	6
541.284	1	-2
541.624	1	13
541.964	1	-2
542.305	1	2
542.645	1	-3
542.985	1	-1
543.325	1	0
543.665	1	7
544.005	1	9
544.345	1	4
544.685	1	8
545.025	1	2
545.365	1	15
545.705	1	2
546.045	1	-1
546.386	1	4
546.726	1	-2
547.066	1	8
547.406	1	-8
547.746	1	3
548.086	1	2
548.426	1	8
548.766	1	6
549.106	1	-2
549.446	1	3
549.786	1	7
550.126	1	10
550.466	1	6
550.806	1	7
551.146	1	-2
551.486	1	5
551.826	1	6
552.166	1	8
552.506	1	8
552.846	1	-5
553.186	1	-2
553.526	1	2
553.866	1	-3
554.206	1	-3
554.546	1	8
554.886	1	8
555.226	1	3
555.566	1	9
555.906	1	-1
556.246	1	5
556.586	1	10
556.926	1	10
557.266	1	-6
557.606	1	-1
557.946	1	9
558.286	1	12
558.626	1	-10
558.966	1	-1
559.306	1	-4
559.646	1	4
559.986	1	4
560.325	1	2
560.665	1	6
561.005	1	1
561.345	1	10
561.685	1	9
562.025	1	0
562.365	1	7
562.705	1	9
563.045	1	9
563.385	1	0
563.725	1	0
564.064	1	8
564.404	1	10
564.744	1	12
565.084	1	3
565.424	1	-2
565.764	1	3
566.104	1	9
566.444	1	8
566.783	1	7
567.123	1	3
567.463	1	-1
567.803	1	-2
568.143	1	18
568.483	1	9
568.823	1	-7
569.162	1	7
569.502	1	-1
569.842	1	-1
570.182	1	0
570.522	1	-2
570.862	1	11
571.201	1	5
571.541	1	-5
571.881	1	0
572.221	1	10
572.561	1	10
572.900	1	3
573.240	1	-1
573.580	1	-1
573.920	1	7
574.260	1	9
574.599	1	14
574.939	1	13
575.279	1	-14
575.619	1	10
575.959	1	7
576.298	1	4
576.638	1	-5
576.978	1	-8
577.318	1	10
577.657	1	17
577.997	1	1
578.337	1	2
578.677	1	16
579.016	1	7
579.356	1	11
579.696	1	2
580.036	1	2
580.375	1	-1
580.715	1	4
581.055	1	1
581.394	1	-6
581.734	1	5
582.074	1	4
582.414	1	-9
582.753	1	3
583.093	1	11
583.433	1	9
583.772	1	-2
584.112	1	13
584.452	1	7
584.791	1	4
585.131	1	10
585.471	1	9
585.811	1	0
586.150	1	6
586.490	1	10
586.830	1	-3
587.169	1	3
587.509	1	3
587.849	1	9
588.188	1	6
588.528	1	14
588.867	1	3
589.207	1	1
589.547	1	-1
589.886	1	4
590.226	1	13
590.566	1	3
590.905	1	2
591.245	1	-1
591.585	1	11
591.924	1	2
592.264	1	3
592.603	1	-1
592.943	1	2
593.283	1	-3
593.622	1	9
593.962	1	4
594.301	1	2
594.641	1	6
594.981	1	-5
595.320	1	13
595.660	1	5
595.999	1	6
596.339	1	3
596.678	1	-8
597.018	1	12
597.358	1	-6
597.697	1	3
598.037	1	14
598.376	1	4
598.716	1	13
599.055	1	-2
599.395	1	2
599.734	1	-3
600.074	1	4
600.413	1	1
600.753	1	7
601.092	1	-2
601.432	1	-5
601.771	1	11
602.111	1	6
602.451	1	1
602.790	1	-3
603.130	1	5
603.469	1	-1
603.809	1	4
604.148	1	13
604.487	1	13
604.827	1	0
605.166	1	8
605.506	1	9
605.845	1	1
606.185	1	11
606.524	1	4
606.864	1	0
607.203	1	-9
607.543	1	7
607.882	1	8
608.222	1	-3
608.561	1	-1
608.901	1	13
609.240	1	-10
609.579	1	11
609.919	1	8
610.258	1	-7
610.598	1	4
610.937	1	10
611.277	1	8
611.616	1	-4
611.955	1	-1
612.295	1	12
612.634	1	6
612.974	1	-2
613.313	1	5
613.652	1	-10
613.992	1	-2
614.331	1	5
614.671	1	4
615.010	1	-5
615.349	1	-2
615.689	1	4
616.028	1	8
616.368	1	2
616.707	1	6
617.046	1	4
617.386	1	1
617.725	1	-2
618.064	1	0
618.404	1	3
618.743	1	3
619.082	1	-1
619.422	1	6
619.761	1	9
620.100	1	-3
620.440	1	-1
620.779	1	4
621.118	1	2
621.458	1	9
621.797	1	0
622.136	1	3
622.476	1	6
622.815	1	-7
623.154	1	-3
623.494	1	14
623.833	1	5
624.172	1	-5
624.511	1	3
624.851	1	-2
625.190	1	-2
625.529	1	4
625.869	1	-7
626.208	1	4
626.547	1	1
626.886	1	-7
627.226	1	0
627.565	1	2
627.904	1	15
628.243	1	15
628.583	1	-15
628.922	1	-10
629.261	1	-6
629.600	1	-4
629.940	1	6
630.279	1	9
630.618	1	-3
630.957	1	2
631.297	1	-4
631.636	1	5
631.975	1	1
632.314	1	-2
632.653	1	-3
632.993	1	-5
633.332	1	2
633.671	1	1
634.010	1	1
634.349	1	8
634.689	1	4
635.028	1	3
635.367	1	-12
635.706	1	2
636.045	1	11
636.384	1	8
636.724	1	12
637.063	1	10
637.402	1	-3
637.741	1	7
638.080	1	6
638.419	1	4
638.759	1	-2
639.098	1	-4
639.437	1	4
639.776	1	4
640.115	1	3
640.454	1	12
640.793	1	-3
641.132	1	17
641.472	1	-3
641.811	1	-8
642.150	1	-13
642.489	1	0
642.828	1	-2
643.167	1	2
643.506	1	16
643.845	1	-8
644.184	1	-3
644.524	1	7
644.863	1	-7
645.202	1	7
645.541	1	1
645.880	1	3
646.219	1	7
646.558	1	-2
646.897	1	3
647.236	1	1
647.575	1	-2
647.914	1	-12
648.253	1	2
648.592	1	3
648.931	1	-13
649.270	1	9
649.610	1	-2
649.949	1	0
650.288	1	13
650.627	1	2
650.966	1	3
651.305	1	-7
651.644	1	0
651.983	1	-8
652.322	1	1
652.661	1	-1
653.000	1	-5
653.339	1	-2
653.678	1	-4
654.017	1	-3
654.356	1	-6
654.695	1	1
655.034	1	1
655.373	1	4
655.712	1	-4
656.051	1	9
656.390	1	0
656.729	1	-1
657.068	1	-1
657.406	1	3
657.745	1	0
658.084	1	-2
658.423	1	7
658.762	1	7
659.101	1	0
659.440	1	-7
659.779	1	4
660.118	1	-5
660.457	1	-5
660.796	1	3
661.135	1	12
661.474	1	0
661.813	1	-2
662.152	1	-6
662.491	1	18
662.829	1	6
663.168	1	2
663.507	1	9
663.846	1	8
664.185	1	-3
664.524	1	-1
664.863	1	10
665.202	1	-2
665.541	1	8
665.879	1	-2
666.218	1	1
666.557	1	5
666.896	1	4
667.235	1	13
667.574	1	20
667.913	1	6
668.251	1	4
668.590	1	-2
668.929	1	12
669.268	1	-11
669.607	1	1
669.946	1	16
670.285	1	8
670.623	1	13
670.962	1	-2
671.301	1	-1
671.640	1	-4
671.979	1	5
672.317	1	6
672.656	1	-4
672.995	1	-7
673.334	1	-7
673.673	1	15
674.011	1	-1
674.350	1	-3
674.689	1	7
675.028	1	6
675.367	1	-6
675.705	1	17
676.044	1	8
676.383	1	-2
676.722	1	-8
677.060	1	4
677.399	1	-8
677.738	1	-3
678.077	1	0
678.416	1	1
678.754	1	6
679.093	1	5
679.432	1	4
679.771	1	9
680.109	1	1
680.448	1	5
680.787	1	8
681.125	1	6
681.464	1	-3
681.803	1	-1
682.142	1	-6
682.480	1	18
682.819	1	6
683.158	1	8
683.496	1	4
683.835	1	-7
684.174	1	1
684.512	1	6
684.851	1	-13
685.190	1	4
685.529	1	-12
685.867	1	0
686.206	1	8
686.545	1	-2
686.883	1	-3
687.222	1	5
687.561	1	6
687.899	1	2
688.238	1	5
688.577	1	2
688.746	1	4