File: Data/GaN_130K_350ms/GaN_sample F_spot6_UVVIS_130 K_200um_350 ms 2x2mm1_177.txt
340.368	1	8
340.710	1	11
341.052	1	3
341.394	1	-8
341.737	1	5
342.079	1	-1
342.421	1	5
342.763	1	-3
343.105	1	3
343.447	1	9
343.789	1	6
344.131	1	6
344.473	1	-6
344.815	1	3
345.157	1	-7
345.499	1	9
345.841	1	-5
346.183	1	-4
346.526	1	-4
346.868	1	1
347.210	1	4
347.552	1	0
347.894	1	2
348.236	1	2
348.578	1	1
348.920	1	9
349.262	1	7
349.604	1	10
349.946	1	3
350.288	1	-4
350.630	1	5
350.972	1	8
351.314	1	-2
351.656	1	12
351.998	1	2
352.340	1	11
352.682	1	-1
353.024	1	0
353.366	1	8
353.708	1	2
354.050	1	6
354.392	1	7
354.734	1	-5
355.076	1	4
355.418	1	12
355.760	1	9
356.102	1	-2
356.444	1	-7
356.785	1	16
357.127	1	7
357.469	1	2
357.811	1	-3
358.153	1	2
358.495	1	10
358.837	1	5
359.179	1	7
359.521	1	4
359.863	1	9
360.205	1	3
360.547	1	-2
360.889	1	3
361.231	1	7
361.572	1	22
361.914	1	12
362.256	1	2
362.598	1	8
362.940	1	-2
363.282	1	21
363.624	1	15
363.966	1	30
364.308	1	23
364.649	1	17
364.991	1	20
365.333	1	19
365.675	1	28
366.017	1	29
366.359	1	25
366.701	1	20
367.042	1	23
367.384	1	32
367.726	1	30
368.068	1	17
368.410	1	10
368.752	1	30
369.093	1	17
369.435	1	23
369.777	1	23
370.119	1	17
370.461	1	23
370.803	1	7
371.144	1	20
371.486	1	17
371.828	1	19
372.170	1	12
372.512	1	21
372.853	1	12
373.195	1	11
373.537	1	19
373.879	1	24
374.220	1	14
374.562	1	7
374.904	1	13
375.246	1	16
375.588	1	12
375.929	1	7
376.271	1	18
376.613	1	3
376.955	1	3
377.296	1	2
377.638	1	10
377.980	1	7
378.321	1	9
378.663	1	12
379.005	1	24
379.347	1	-2
379.688	1	7
380.030	1	5
380.372	1	16
380.714	1	11
381.055	1	14
381.397	1	1
381.739	1	12
382.080	1	0
382.422	1	6
382.764	1	10
383.105	1	8
383.447	1	3
383.789	1	10
384.130	1	12
384.472	1	12
384.814	1	10
385.156	1	3
385.497	1	0
385.839	1	9
386.180	1	14
386.522	1	12
386.864	1	11
387.205	1	4
387.547	1	8
387.889	1	0
388.230	1	2
388.572	1	6
388.914	1	8
389.255	1	6
389.597	1	0
389.939	1	10
390.280	1	16
390.622	1	8
390.963	1	13
391.305	1	6
391.647	1	7
391.988	1	12
392.330	1	11
392.671	1	5
393.013	1	10
393.355	1	5
393.696	1	7
394.038	1	11
394.379	1	10
394.721	1	6
395.062	1	0
395.404	1	2
395.746	1	13
396.087	1	10
396.429	1	19
396.770	1	17
397.112	1	19
397.453	1	13
397.795	1	5
398.136	1	5
398.478	1	4
398.819	1	-9
399.161	1	4
399.503	1	14
399.844	1	-5
400.186	1	1
400.527	1	17
400.869	1	7
401.210	1	3
401.552	1	13
401.893	1	-1
402.235	1	12
402.576	1	5
402.918	1	15
403.259	1	2
403.601	1	8
403.942	1	2
404.284	1	-2
404.625	1	11
404.967	1	5
405.308	1	7
405.649	1	10
405.991	1	7
406.332	1	20
406.674	1	10
407.015	1	8
407.357	1	-6
407.698	1	11
408.040	1	12
408.381	1	7
408.722	1	7
409.064	1	19
409.405	1	11
409.747	1	5
410.088	1	14
410.430	1	18
410.771	1	-19
411.112	1	0
411.454	1	9
411.795	1	0
412.137	1	1
412.478	1	1
412.819	1	15
413.161	1	12
413.502	1	5
413.844	1	7
414.185	1	11
414.526	1	5
414.868	1	2
415.209	1	13
415.550	1	-1
415.892	1	6
416.233	1	14
416.575	1	14
416.916	1	4
417.257	1	11
417.599	1	3
417.940	1	7
418.281	1	10
418.623	1	14
418.964	1	3
419.305	1	-2
419.647	1	11
419.988	1	10
420.329	1	12
420.671	1	-1
421.012	1	10
421.353	1	1
421.695	1	4
422.036	1	6
422.377	1	3
422.718	1	7
423.060	1	14
423.401	1	4
423.742	1	9
424.084	1	2
424.425	1	9
424.766	1	-2
425.107	1	17
425.449	1	5
425.790	1	11
426.131	1	20
426.472	1	-3
426.814	1	4
427.155	1	3
427.496	1	11
427.837	1	7
428.179	1	7
428.520	1	4
428.861	1	3
429.202	1	8
429.544	1	14
429.885	1	11
430.226	1	1
430.567	1	14
430.909	1	10
431.250	1	5
431.591	1	3
431.932	1	4
432.273	1	15
432.615	1	15
432.956	1	1
433.297	1	7
433.638	1	3
433.979	1	9
434.320	1	13
434.662	1	7
435.003	1	12
435.344	1	13
435.685	1	2
436.026	1	11
436.368	1	6
436.709	1	-1
437.050	1	2
437.391	1	17
437.732	1	4
438.073	1	11
438.414	1	5
438.756	1	2
439.097	1	13
439.438	1	7
439.779	1	14
440.120	1	-1
440.461	1	18
440.802	1	-9
441.143	1	-4
441.485	1	4
441.826	1	6
442.167	1	0
442.508	1	9
442.849	1	12
443.190	1	2
443.531	1	3
443.872	1	2
444.213	1	12
444.554	1	4
444.895	1	0
445.237	1	1
445.578	1	5
445.919	1	-1
446.260	1	6
446.601	1	15
446.942	1	9
447.283	1	9
447.624	1	8
447.965	1	-1
448.306	1	10
448.647	1	16
448.988	1	1
449.329	1	2
449.670	1	2
450.011	1	-5
450.352	1	13
450.693	1	1
451.034	1	3
451.375	1	-6
451.716	1	-9
452.057	1	5
452.398	1	-2
452.739	1	10
453.080	1	-4
453.421	1	11
453.762	1	8
454.103	1	-1
454.444	1	-3
454.785	1	15
455.126	1	-16
455.467	1	2
455.808	1	12
456.149	1	-5
456.490	1	9
456.831	1	8
457.172	1	1
457.513	1	0
457.854	1	7
458.195	1	1
458.536	1	11
458.877	1	31
459.218	1	9
459.559	1	6
459.899	1	5
460.240	1	15
460.581	1	-1
460.922	1	5
461.263	1	6
461.604	1	-12
461.945	1	7
462.286	1	4
462.627	1	8
462.968	1	2
463.309	1	5
463.649	1	2
463.990	1	-1
464.331	1	0
464.672	1	6
465.013	1	4
465.354	1	2
465.695	1	11
466.036	1	2
466.376	1	7
466.717	1	7
467.058	1	12
467.399	1	-1
467.740	1	9
468.081	1	13
468.422	1	3
468.762	1	0
469.103	1	-6
469.444	1	-1
469.785	1	13
470.126	1	-2
470.467	1	9
470.807	1	-1
471.148	1	-1
471.489	1	-6
471.830	1	9
472.171	1	12
472.511	1	5
472.852	1	7
473.193	1	4
473.534	1	-3
473.875	1	7
474.215	1	8
474.556	1	6
474.897	1	3
475.238	1	10
475.578	1	8
475.919	1	-1
476.260	1	10
476.601	1	0
476.942	1	6
477.282	1	12
477.623	1	-11
477.964	1	8
478.305	1	11
478.645	1	0
478.986	1	1
479.327	1	-3
479.667	1	8
480.008	1	4
480.349	1	-4
480.690	1	3
481.030	1	1
481.371	1	8
481.712	1	8
482.053	1	2
482.393	1	9
482.734	1	7
483.075	1	18
483.415	1	0
483.756	1	3
484.097	1	-2
484.437	1	7
484.778	1	13
485.119	1	15
485.459	1	-16
485.800	1	4
486.141	1	1
486.481	1	4
486.822	1	9
487.163	1	-1
487.503	1	-5
487.844	1	-5
488.185	1	8
488.525	1	3
488.866	1	5
489.207	1	-8
489.547	1	-3
489.888	1	13
490.228	1	6
490.569	1	-1
490.910	1	5
491.250	1	16
491.591	1	-1
491.932	1	7
492.272	1	-6
492.613	1	4
492.953	1	6
493.294	1	13
493.635	1	11
493.975	1	16
494.316	1	6
494.656	1	-2
494.997	1	4
495.337	1	0
495.678	1	2
496.019	1	3
496.359	1	16
496.700	1	-1
497.040	1	22
497.381	1	8
497.721	1	11
498.062	1	1
498.403	1	-4
498.743	1	14
499.084	1	10
499.424	1	-1
499.765	1	5
500.105	1	4
500.446	1	8
500.786	1	12
501.127	1	5
501.467	1	2
501.808	1	5
502.148	1	12
502.489	1	7
502.829	1	9
503.170	1	-9
503.510	1	-4
503.851	1	11
504.191	1	14
504.532	1	15
504.872	1	5
505.213	1	0
505.553	1	8
505.894	1	10
506.234	1	-2
506.575	1	1
506.915	1	0
507.256	1	12
507.596	1	0
507.936	1	-2
508.277	1	-1
508.617	1	5
508.958	1	15
509.298	1	-1
509.639	1	8
509.979	1	4
510.319	1	15
510.660	1	-3
511.000	1	11
511.341	1	7
511.681	1	10
512.022	1	20
512.362	1	6
512.702	1	14
513.043	1	14
513.383	1	9
513.724	1	2
514.064	1	7
514.404	1	15
514.745	1	6
515.085	1	19
515.425	1	0
515.766	1	15
516.106	1	7
516.447	1	6
516.787	1	12
517.127	1	10
517.468	1	18
517.808	1	3
518.148	1	15
518.489	1	8
518.829	1	15
519.169	1	10
519.510	1	-5
519.850	1	21
520.190	1	11
520.531	1	10
520.871	1	-4
521.211	1	6
521.552	1	1
521.892	1	21
522.232	1	1
522.573	1	11
522.913	1	10
523.253	1	14
523.593	1	16
523.934	1	10
524.274	1	2
524.614	1	5
524.955	1	12
525.295	1	9
525.635	1	10
525.975	1	18
526.316	1	4
526.656	1	17
526.996	1	7
527.337	1	17
527.677	1	2
528.017	1	7
528.357	1	9
528.698	1	3
529.038	1	3
529.378	1	11
529.718	1	18
530.058	1	10
530.399	1	7
530.739	1	10
531.079	1	8
531.419	1	6
531.760	1	6
532.100	1	14
532.440	1	19
532.780	1	7
533.120	1	14
533.461	1	9
533.801	1	23
534.141	1	12
534.481	1	5
534.821	1	15
535.162	1	15
535.502	1	12
535.842	1	10
536.182	1	16
536.522	1	-8
536.862	1	-3
537.203	1	1
537.543	1	11
537.883	1	2
538.223	1	14
538.563	1	13
538.903	1	8
539.243	1	14
539.584	1	9
539.924	1	9
540.264	1	3
540.604	1	17
540.944	1	7
541.284	1	6
541.624	1	22
541.964	1	13
542.305	1	9
542.645	1	-1
542.985	1	10
543.325	1	15
543.665	1	14
544.005	1	7
544.345	1	7
544.685	1	19
545.025	1	2
545.365	1	14
545.705	1	9
546.045	1	9
546.386	1	8
546.726	1	6
547.066	1	8
547.406	1	-5
547.746	1	8
548.086	1	1
548.426	1	12
548.766	1	12
549.106	1	5
549.446	1	4
549.786	1	11
550.126	1	11
550.466	1	12
550.806	1	14
551.146	1	12
551.486	1	2
551.826	1	2
552.166	1	17
552.506	1	0
552.846	1	3
553.186	1	8
553.526	1	9
553.866	1	0
554.206	1	6
554.546	1	10
554.886	1	3
555.226	1	12
555.566	1	2
555.906	1	4
556.246	1	6
556.586	1	6
556.926	1	-1
557.266	1	10
557.606	1	2
557.946	1	6
558.286	1	21
558.626	1	-3
558.966	1	0
559.306	1	1
559.646	1	8
559.986	1	10
560.325	1	-2
560.665	1	8
561.005	1	-2
561.345	1	12
561.685	1	4
562.025	1	7
562.365	1	8
562.705	1	9
563.045	1	3
563.385	1	9
563.725	1	10
564.064	1	13
564.404	1	11
564.744	1	3
565.084	1	1
565.424	1	0
565.764	1	5
566.104	1	-1
566.444	1	8
566.783	1	8
567.123	1	1
567.463	1	2
567.803	1	12
568.143	1	14
568.483	1	2
568.823	1	-5
569.162	1	10
569.502	1	7
569.842	1	-5
570.182	1	11
570.522	1	-13
570.862	1	18
571.201	1	4
571.541	1	10
571.881	1	7
572.221	1	10
572.561	1	3
572.900	1	4
573.240	1	6
573.580	1	-3
573.920	1	17
574.260	1	7
574.599	1	13
574.939	1	10
575.279	1	-6
575.619	1	9
575.959	1	-3
576.298	1	10
576.638	1	4
576.978	1	-1
577.318	1	7
577.657	1	14
577.997	1	16
578.337	1	4
578.677	1	14
579.016	1	5
579.356	1	11
579.696	1	3
580.036	1	4
580.375	1	-2
580.715	1	11
581.055	1	4
581.394	1	1
581.734	1	11
582.074	1	8
582.414	1	2
582.753	1	0
583.093	1	5
583.433	1	7
583.772	1	11
584.112	1	5
584.452	1	13
584.791	1	9
585.131	1	6
585.471	1	-3
585.811	1	0
586.150	1	14
586.490	1	4
586.830	1	0
587.169	1	7
587.509	1	4
587.849	1	10
588.188	1	9
588.528	1	10
588.867	1	3
589.207	1	-10
589.547	1	-4
589.886	1	1
590.226	1	17
590.566	1	-2
590.905	1	12
591.245	1	2
591.585	1	2
591.924	1	0
592.264	1	3
592.603	1	-2
592.943	1	13
593.283	1	-3
593.622	1	13
593.962	1	-1
594.301	1	-4
594.641	1	10
594.981	1	-6
595.320	1	9
595.660	1	5
595.999	1	6
596.339	1	13
596.678	1	-1
597.018	1	5
597.358	1	-3
597.697	1	7
598.037	1	0
598.376	1	-7
598.716	1	2
599.055	1	-4
599.395	1	2
599.734	1	4
600.074	1	1
600.413	1	6
600.753	1	7
601.092	1	5
601.432	1	3
601.771	1	6
602.111	1	4
602.451	1	8
602.790	1	1
603.130	1	14
603.469	1	-3
603.809	1	9
604.148	1	8
604.487	1	18
604.827	1	1
605.166	1	9
605.506	1	5
605.845	1	3
606.185	1	-1
606.524	1	3
606.864	1	7
607.203	1	-7
607.543	1	11
607.882	1	11
608.222	1	-2
608.561	1	4
608.901	1	12
609.240	1	1
609.579	1	6
609.919	1	13
610.258	1	9
610.598	1	3
610.937	1	11
611.277	1	9
611.616	1	-2
611.955	1	5
612.295	1	7
612.634	1	3
612.974	1	12
613.313	1	8
613.652	1	3
613.992	1	8
614.331	1	3
614.671	1	7
615.010	1	-4
615.349	1	6
615.689	1	4
616.028	1	10
616.368	1	-1
616.707	1	18
617.046	1	10
617.386	1	8
617.725	1	2
618.064	1	5
618.404	1	4
618.743	1	10
619.082	1	4
619.422	1	-1
619.761	1	8
620.100	1	-3
620.440	1	-2
620.779	1	-1
621.118	1	4
621.458	1	0
621.797	1	-8
622.136	1	4
622.476	1	9
622.815	1	-2
623.154	1	1
623.494	1	3
623.833	1	9
624.172	1	2
624.511	1	5
624.851	1	2
625.190	1	-6
625.529	1	-3
625.869	1	2
626.208	1	6
626.547	1	6
626.886	1	-3
627.226	1	-4
627.565	1	9
627.904	1	14
628.243	1	-2
628.583	1	-7
628.922	1	-10
629.261	1	-5
629.600	1	1
629.940	1	11
630.279	1	13
630.618	1	-4
630.957	1	5
631.297	1	1
631.636	1	4
631.975	1	12
632.314	1	-4
632.653	1	5
632.993	1	7
633.332	1	-5
633.671	1	-6
634.010	1	-2
634.349	1	4
634.689	1	4
635.028	1	3
635.367	1	0
635.706	1	3
636.045	1	2
636.384	1	1
636.724	1	8
637.063	1	7
637.402	1	0
637.741	1	7
638.080	1	17
638.419	1	16
638.759	1	5
639.098	1	-12
639.437	1	12
639.776	1	-4
640.115	1	12
640.454	1	8
640.793	1	-6
641.132	1	6
641.472	1	3
641.811	1	5
642.150	1	-6
642.489	1	-8
642.828	1	-4
643.167	1	4
643.506	1	2
643.845	1	0
644.184	1	-4
644.524	1	9
644.863	1	-3
645.202	1	4
645.541	1	1
645.880	1	6
646.219	1	-1
646.558	1	1
646.897	1	2
647.236	1	-6
647.575	1	2
647.914	1	-12
648.253	1	5
648.592	1	0
648.931	1	0
649.270	1	-1
649.610	1	-6
649.949	1	5
650.288	1	5
650.627	1	3
650.966	1	18
651.305	1	0
651.644	1	7
651.983	1	-6
652.322	1	-2
652.661	1	-4
653.000	1	-3
653.339	1	9
653.678	1	6
654.017	1	2
654.356	1	9
654.695	1	7
655.034	1	2
655.373	1	1
655.712	1	2
656.051	1	3
656.390	1	4
656.729	1	-1
657.068	1	0
657.406	1	1
657.745	1	5
658.084	1	0
658.423	1	-1
658.762	1	15
659.101	1	3
659.440	1	0
659.779	1	3
660.118	1	-5
660.457	1	-6
660.796	1	3
661.135	1	14
661.474	1	8
661.813	1	-2
662.152	1	-3
662.491	1	10
662.829	1	16
663.168	1	1
663.507	1	1
663.846	1	4
664.185	1	-4
664.524	1	-5
664.863	1	4
665.202	1	-2
665.541	1	-8
665.879	1	7
666.218	1	0
666.557	1	7
666.896	1	3
667.235	1	7
667.574	1	13
667.913	1	9
668.251	1	3
668.590	1	1
668.929	1	4
669.268	1	0
669.607	1	3
669.946	1	13
670.285	1	1
670.623	1	15
670.962	1	3
671.301	1	1
671.640	1	-4
671.979	1	3
672.317	1	-6
672.656	1	-4
672.995	1	-3
673.334	1	0
673.673	1	8
674.011	1	-4
674.350	1	8
674.689	1	6
675.028	1	3
675.367	1	-2
675.705	1	11
676.044	1	2
676.383	1	1
676.722	1	-1
677.060	1	5
677.399	1	0
677.738	1	-7
678.077	1	4
678.416	1	2
678.754	1	7
679.093	1	-1
679.432	1	0
679.771	1	5
680.109	1	0
680.448	1	11
680.787	1	4
681.125	1	11
681.464	1	-1
681.803	1	2
682.142	1	-1
682.480	1	9
682.819	1	2
683.158	1	6
683.496	1	-3
683.835	1	-3
684.174	1	11
684.512	1	12
684.851	1	-6
685.190	1	4
685.529	1	-5
685.867	1	7
686.206	1	-2
686.545	1	5
686.883	1	-4
687.222	1	7
687.561	1	0
687.899	1	3
688.238	1	3
688.577	1	-15
688.746	1	13