File: Data/GaN_130K_350ms/GaN_sample F_spot6_UVVIS_130 K_200um_350 ms 2x2mm1_26.txt
340.368	1	4
340.710	1	5
341.052	1	0
341.394	1	7
341.737	1	5
342.079	1	-3
342.421	1	8
342.763	1	5
343.105	1	7
343.447	1	10
343.789	1	-2
344.131	1	6
344.473	1	1
344.815	1	-4
345.157	1	-4
345.499	1	-9
345.841	1	-7
346.183	1	8
346.526	1	10
346.868	1	1
347.210	1	-1
347.552	1	3
347.894	1	-2
348.236	1	-4
348.578	1	-7
348.920	1	3
349.262	1	5
349.604	1	4
349.946	1	10
350.288	1	-6
350.630	1	1
350.972	1	4
351.314	1	1
351.656	1	1
351.998	1	5
352.340	1	-4
352.682	1	2
353.024	1	-7
353.366	1	4
353.708	1	-5
354.050	1	-3
354.392	1	4
354.734	1	-1
355.076	1	4
355.418	1	3
355.760	1	0
356.102	1	-7
356.444	1	-5
356.785	1	6
357.127	1	0
357.469	1	-1
357.811	1	-5
358.153	1	-5
358.495	1	10
358.837	1	-1
359.179	1	-3
359.521	1	-8
359.863	1	1
360.205	1	-2
360.547	1	-4
360.889	1	-2
361.231	1	-8
361.572	1	15
361.914	1	1
362.256	1	2
362.598	1	-2
362.940	1	0
363.282	1	2
363.624	1	4
363.966	1	15
364.308	1	3
364.649	1	4
364.991	1	-5
365.333	1	-5
365.675	1	3
366.017	1	0
366.359	1	6
366.701	1	7
367.042	1	2
367.384	1	2
367.726	1	4
368.068	1	-12
368.410	1	-9
368.752	1	6
369.093	1	2
369.435	1	-4
369.777	1	0
370.119	1	9
370.461	1	5
370.803	1	4
371.144	1	1
371.486	1	0
371.828	1	4
372.170	1	-12
372.512	1	2
372.853	1	-5
373.195	1	-7
373.537	1	2
373.879	1	7
374.220	1	-3
374.562	1	-4
374.904	1	5
375.246	1	10
375.588	1	9
375.929	1	-8
376.271	1	10
376.613	1	-5
376.955	1	0
377.296	1	3
377.638	1	-4
377.980	1	-8
378.321	1	-2
378.663	1	-2
379.005	1	11
379.347	1	-1
379.688	1	2
380.030	1	3
380.372	1	6
380.714	1	10
381.055	1	4
381.397	1	-3
381.739	1	11
382.080	1	-2
382.422	1	11
382.764	1	-4
383.105	1	8
383.447	1	7
383.789	1	6
384.130	1	8
384.472	1	7
384.814	1	-2
385.156	1	0
385.497	1	3
385.839	1	11
386.180	1	1
386.522	1	8
386.864	1	6
387.205	1	-1
387.547	1	2
387.889	1	-11
388.230	1	1
388.572	1	2
388.914	1	1
389.255	1	0
389.597	1	-10
389.939	1	2
390.280	1	-7
390.622	1	-7
390.963	1	8
391.305	1	-2
391.647	1	2
391.988	1	0
392.330	1	1
392.671	1	-3
393.013	1	1
393.355	1	-3
393.696	1	-10
394.038	1	6
394.379	1	4
394.721	1	9
395.062	1	-4
395.404	1	-14
395.746	1	8
396.087	1	15
396.429	1	9
396.770	1	7
397.112	1	3
397.453	1	11
397.795	1	-7
398.136	1	2
398.478	1	-3
398.819	1	-12
399.161	1	9
399.503	1	1
399.844	1	1
400.186	1	-2
400.527	1	9
400.869	1	6
401.210	1	-5
401.552	1	6
401.893	1	-11
402.235	1	-1
402.576	1	-1
402.918	1	4
403.259	1	-10
403.601	1	6
403.942	1	1
404.284	1	0
404.625	1	5
404.967	1	2
405.308	1	-4
405.649	1	1
405.991	1	0
406.332	1	2
406.674	1	1
407.015	1	-1
407.357	1	-9
407.698	1	1
408.040	1	4
408.381	1	9
408.722	1	2
409.064	1	1
409.405	1	3
409.747	1	-1
410.088	1	4
410.430	1	2
410.771	1	-19
411.112	1	9
411.454	1	3
411.795	1	0
412.137	1	-7
412.478	1	-6
412.819	1	-1
413.161	1	1
413.502	1	6
413.844	1	8
414.185	1	6
414.526	1	3
414.868	1	-4
415.209	1	3
415.550	1	0
415.892	1	7
416.233	1	8
416.575	1	8
416.916	1	-6
417.257	1	12
417.599	1	1
417.940	1	6
418.281	1	-2
418.623	1	3
418.964	1	2
419.305	1	3
419.647	1	7
419.988	1	6
420.329	1	3
420.671	1	3
421.012	1	6
421.353	1	1
421.695	1	-4
422.036	1	-2
422.377	1	2
422.718	1	-1
423.060	1	-2
423.401	1	3
423.742	1	-7
424.084	1	7
424.425	1	2
424.766	1	4
425.107	1	-7
425.449	1	-2
425.790	1	6
426.131	1	6
426.472	1	4
426.814	1	0
427.155	1	-6
427.496	1	-3
427.837	1	0
428.179	1	-1
428.520	1	7
428.861	1	-7
429.202	1	4
429.544	1	13
429.885	1	-6
430.226	1	0
430.567	1	2
430.909	1	1
431.250	1	1
431.591	1	-6
431.932	1	-7
432.273	1	3
432.615	1	9
432.956	1	-13
433.297	1	11
433.638	1	1
433.979	1	-2
434.320	1	6
434.662	1	1
435.003	1	14
435.344	1	0
435.685	1	-9
436.026	1	8
436.368	1	-2
436.709	1	0
437.050	1	4
437.391	1	10
437.732	1	9
438.073	1	10
438.414	1	-10
438.756	1	2
439.097	1	1
439.438	1	7
439.779	1	16
440.120	1	6
440.461	1	6
440.802	1	-9
441.143	1	-7
441.485	1	4
441.826	1	-5
442.167	1	-7
442.508	1	-5
442.849	1	5
443.190	1	-4
443.531	1	-4
443.872	1	4
444.213	1	-4
444.554	1	0
444.895	1	-8
445.237	1	-4
445.578	1	-7
445.919	1	-2
446.260	1	7
446.601	1	7
446.942	1	2
447.283	1	12
447.624	1	0
447.965	1	9
448.306	1	-3
448.647	1	11
448.988	1	3
449.329	1	-7
449.670	1	-3
450.011	1	-8
450.352	1	7
450.693	1	4
451.034	1	-10
451.375	1	6
451.716	1	-5
452.057	1	12
452.398	1	-9
452.739	1	8
453.080	1	-2
453.421	1	3
453.762	1	8
454.103	1	3
454.444	1	2
454.785	1	13
455.126	1	-8
455.467	1	1
455.808	1	0
456.149	1	-8
456.490	1	2
456.831	1	14
457.172	1	-1
457.513	1	-9
457.854	1	8
458.195	1	-6
458.536	1	3
458.877	1	20
459.218	1	3
459.559	1	-2
459.899	1	7
460.240	1	13
460.581	1	-2
460.922	1	-7
461.263	1	3
461.604	1	-6
461.945	1	3
462.286	1	9
462.627	1	-5
462.968	1	4
463.309	1	-1
463.649	1	-1
463.990	1	3
464.331	1	14
464.672	1	11
465.013	1	-3
465.354	1	5
465.695	1	2
466.036	1	10
466.376	1	0
466.717	1	8
467.058	1	6
467.399	1	0
467.740	1	12
468.081	1	9
468.422	1	8
468.762	1	-1
469.103	1	4
469.444	1	5
469.785	1	2
470.126	1	-9
470.467	1	3
470.807	1	0
471.148	1	3
471.489	1	-1
471.830	1	6
472.171	1	13
472.511	1	-2
472.852	1	2
473.193	1	5
473.534	1	3
473.875	1	10
474.215	1	2
474.556	1	1
474.897	1	-3
475.238	1	6
475.578	1	12
475.919	1	-6
476.260	1	1
476.601	1	5
476.942	1	10
477.282	1	5
477.623	1	-2
477.964	1	4
478.305	1	11
478.645	1	-1
478.986	1	1
479.327	1	-3
479.667	1	-1
480.008	1	-4
480.349	1	-2
480.690	1	-5
481.030	1	-6
481.371	1	13
481.712	1	7
482.053	1	0
482.393	1	13
482.734	1	5
483.075	1	9
483.415	1	9
483.756	1	-4
484.097	1	4
484.437	1	-7
484.778	1	5
485.119	1	6
485.459	1	-8
485.800	1	8
486.141	1	-5
486.481	1	-6
486.822	1	10
487.163	1	3
487.503	1	3
487.844	1	2
488.185	1	-3
488.525	1	5
488.866	1	5
489.207	1	2
489.547	1	3
489.888	1	8
490.228	1	8
490.569	1	4
490.910	1	1
491.250	1	4
491.591	1	1
491.932	1	1
492.272	1	0
492.613	1	-5
492.953	1	1
493.294	1	5
493.635	1	2
493.975	1	6
494.316	1	9
494.656	1	0
494.997	1	-9
495.337	1	4
495.678	1	-2
496.019	1	2
496.359	1	8
496.700	1	5
497.040	1	7
497.381	1	-1
497.721	1	-3
498.062	1	-9
498.403	1	-7
498.743	1	6
499.084	1	10
499.424	1	-1
499.765	1	2
500.105	1	0
500.446	1	-1
500.786	1	1
501.127	1	-2
501.467	1	3
501.808	1	-7
502.148	1	1
502.489	1	3
502.829	1	-6
503.170	1	-9
503.510	1	4
503.851	1	-7
504.191	1	-2
504.532	1	2
504.872	1	-2
505.213	1	5
505.553	1	0
505.894	1	7
506.234	1	2
506.575	1	-8
506.915	1	-3
507.256	1	3
507.596	1	-2
507.936	1	-6
508.277	1	-4
508.617	1	2
508.958	1	1
509.298	1	-5
509.639	1	10
509.979	1	-2
510.319	1	16
510.660	1	-9
511.000	1	0
511.341	1	-6
511.681	1	5
512.022	1	5
512.362	1	-7
512.702	1	9
513.043	1	-4
513.383	1	4
513.724	1	-8
514.064	1	-3
514.404	1	6
514.745	1	-7
515.085	1	6
515.425	1	-5
515.766	1	8
516.106	1	-9
516.447	1	-1
516.787	1	4
517.127	1	1
517.468	1	9
517.808	1	-2
518.148	1	1
518.489	1	2
518.829	1	14
519.169	1	0
519.510	1	-6
519.850	1	18
520.190	1	5
520.531	1	6
520.871	1	-1
521.211	1	7
521.552	1	9
521.892	1	5
522.232	1	-12
522.573	1	-1
522.913	1	2
523.253	1	11
523.593	1	3
523.934	1	-6
524.274	1	-11
524.614	1	10
524.955	1	6
525.295	1	-1
525.635	1	-9
525.975	1	8
526.316	1	-12
526.656	1	5
526.996	1	0
527.337	1	11
527.677	1	-1
528.017	1	10
528.357	1	2
528.698	1	-8
529.038	1	-9
529.378	1	5
529.718	1	9
530.058	1	-4
530.399	1	-3
530.739	1	3
531.079	1	-4
531.419	1	12
531.760	1	-2
532.100	1	4
532.440	1	0
532.780	1	-6
533.120	1	6
533.461	1	1
533.801	1	15
534.141	1	3
534.481	1	5
534.821	1	1
535.162	1	-2
535.502	1	-1
535.842	1	1
536.182	1	-1
536.522	1	-11
536.862	1	-7
537.203	1	-6
537.543	1	5
537.883	1	-11
538.223	1	15
538.563	1	3
538.903	1	4
539.243	1	-3
539.584	1	6
539.924	1	-1
540.264	1	-10
540.604	1	6
540.944	1	7
541.284	1	4
541.624	1	6
541.964	1	-2
542.305	1	-5
542.645	1	-5
542.985	1	1
543.325	1	-3
543.665	1	13
544.005	1	7
544.345	1	5
544.685	1	2
545.025	1	1
545.365	1	1
545.705	1	-4
546.045	1	3
546.386	1	-4
546.726	1	-3
547.066	1	13
547.406	1	-12
547.746	1	-2
548.086	1	-6
548.426	1	9
548.766	1	4
549.106	1	-7
549.446	1	-7
549.786	1	-1
550.126	1	9
550.466	1	3
550.806	1	5
551.146	1	5
551.486	1	-2
551.826	1	-6
552.166	1	17
552.506	1	-1
552.846	1	-6
553.186	1	4
553.526	1	0
553.866	1	-10
554.206	1	-5
554.546	1	5
554.886	1	0
555.226	1	7
555.566	1	-2
555.906	1	-1
556.246	1	5
556.586	1	5
556.926	1	8
557.266	1	0
557.606	1	-4
557.946	1	3
558.286	1	13
558.626	1	-12
558.966	1	-3
559.306	1	-3
559.646	1	4
559.986	1	0
560.325	1	-6
560.665	1	8
561.005	1	6
561.345	1	11
561.685	1	8
562.025	1	2
562.365	1	-4
562.705	1	1
563.045	1	1
563.385	1	-1
563.725	1	3
564.064	1	12
564.404	1	3
564.744	1	6
565.084	1	-1
565.424	1	-7
565.764	1	5
566.104	1	4
566.444	1	11
566.783	1	8
567.123	1	-2
567.463	1	6
567.803	1	2
568.143	1	13
568.483	1	-3
568.823	1	0
569.162	1	15
569.502	1	-3
569.842	1	-2
570.182	1	-4
570.522	1	-17
570.862	1	19
571.201	1	0
571.541	1	-10
571.881	1	-3
572.221	1	5
572.561	1	5
572.900	1	7
573.240	1	-2
573.580	1	-2
573.920	1	5
574.260	1	-6
574.599	1	13
574.939	1	4
575.279	1	0
575.619	1	6
575.959	1	1
576.298	1	0
576.638	1	-2
576.978	1	-8
577.318	1	8
577.657	1	0
577.997	1	7
578.337	1	8
578.677	1	11
579.016	1	8
579.356	1	9
579.696	1	8
580.036	1	-1
580.375	1	-7
580.715	1	4
581.055	1	-2
581.394	1	1
581.734	1	4
582.074	1	-5
582.414	1	-4
582.753	1	1
583.093	1	8
583.433	1	1
583.772	1	7
584.112	1	3
584.452	1	18
584.791	1	-2
585.131	1	10
585.471	1	-1
585.811	1	6
586.150	1	5
586.490	1	3
586.830	1	-10
587.169	1	1
587.509	1	0
587.849	1	-5
588.188	1	5
588.528	1	5
588.867	1	3
589.207	1	-5
589.547	1	4
589.886	1	-2
590.226	1	6
590.566	1	5
590.905	1	11
591.245	1	-1
591.585	1	11
591.924	1	-1
592.264	1	-1
592.603	1	2
592.943	1	-4
593.283	1	-3
593.622	1	10
593.962	1	7
594.301	1	-9
594.641	1	8
594.981	1	-7
595.320	1	3
595.660	1	0
595.999	1	5
596.339	1	8
596.678	1	-5
597.018	1	5
597.358	1	-5
597.697	1	2
598.037	1	14
598.376	1	-2
598.716	1	0
599.055	1	4
599.395	1	-9
599.734	1	-10
600.074	1	-3
600.413	1	6
600.753	1	0
601.092	1	4
601.432	1	-7
601.771	1	5
602.111	1	2
602.451	1	0
602.790	1	-4
603.130	1	2
603.469	1	-5
603.809	1	-5
604.148	1	7
604.487	1	6
604.827	1	-2
605.166	1	8
605.506	1	1
605.845	1	-3
606.185	1	7
606.524	1	1
606.864	1	13
607.203	1	-1
607.543	1	6
607.882	1	9
608.222	1	-11
608.561	1	6
608.901	1	11
609.240	1	-4
609.579	1	13
609.919	1	8
610.258	1	3
610.598	1	1
610.937	1	17
611.277	1	4
611.616	1	4
611.955	1	-2
612.295	1	9
612.634	1	-1
612.974	1	4
613.313	1	-5
613.652	1	-5
613.992	1	7
614.331	1	6
614.671	1	7
615.010	1	-5
615.349	1	-2
615.689	1	4
616.028	1	-2
616.368	1	6
616.707	1	7
617.046	1	2
617.386	1	4
617.725	1	0
618.064	1	3
618.404	1	1
618.743	1	7
619.082	1	4
619.422	1	1
619.761	1	6
620.100	1	-8
620.440	1	17
620.779	1	2
621.118	1	0
621.458	1	5
621.797	1	-6
622.136	1	-2
622.476	1	9
622.815	1	-6
623.154	1	2
623.494	1	7
623.833	1	16
624.172	1	8
624.511	1	6
624.851	1	8
625.190	1	-6
625.529	1	3
625.869	1	15
626.208	1	-6
626.547	1	-1
626.886	1	-4
627.226	1	-7
627.565	1	3
627.904	1	-1
628.243	1	15
628.583	1	-5
628.922	1	-1
629.261	1	-11
629.600	1	9
629.940	1	5
630.279	1	16
630.618	1	-5
630.957	1	1
631.297	1	5
631.636	1	-2
631.975	1	2
632.314	1	-2
632.653	1	3
632.993	1	-7
633.332	1	-7
633.671	1	-5
634.010	1	-4
634.349	1	-8
634.689	1	8
635.028	1	11
635.367	1	5
635.706	1	0
636.045	1	15
636.384	1	-2
636.724	1	11
637.063	1	9
637.402	1	-4
637.741	1	9
638.080	1	16
638.419	1	5
638.759	1	-1
639.098	1	-3
639.437	1	13
639.776	1	1
640.115	1	6
640.454	1	14
640.793	1	-4
641.132	1	10
641.472	1	-6
641.811	1	-4
642.150	1	-10
642.489	1	-5
642.828	1	-2
643.167	1	3
643.506	1	2
643.845	1	-7
644.184	1	2
644.524	1	-10
644.863	1	0
645.202	1	10
645.541	1	-6
645.880	1	-2
646.219	1	3
646.558	1	-13
646.897	1	-5
647.236	1	-4
647.575	1	-7
647.914	1	-6
648.253	1	10
648.592	1	-6
648.931	1	1
649.270	1	1
649.610	1	-2
649.949	1	6
650.288	1	12
650.627	1	-12
650.966	1	4
651.305	1	-3
651.644	1	-1
651.983	1	-4
652.322	1	-4
652.661	1	-10
653.000	1	5
653.339	1	10
653.678	1	-3
654.017	1	0
654.356	1	4
654.695	1	4
655.034	1	5
655.373	1	4
655.712	1	-6
656.051	1	3
656.390	1	-3
656.729	1	7
657.068	1	0
657.406	1	-2
657.745	1	-4
658.084	1	-4
658.423	1	4
658.762	1	15
659.101	1	-1
659.440	1	-12
659.779	1	5
660.118	1	-7
660.457	1	-4
660.796	1	3
661.135	1	8
661.474	1	3
661.813	1	-4
662.152	1	0
662.491	1	15
662.829	1	8
663.168	1	-5
663.507	1	3
663.846	1	2
664.185	1	-8
664.524	1	-3
664.863	1	6
665.202	1	-1
665.541	1	-8
665.879	1	1
666.218	1	2
666.557	1	3
666.896	1	-4
667.235	1	5
667.574	1	13
667.913	1	5
668.251	1	-2
668.590	1	9
668.929	1	1
669.268	1	1
669.607	1	2
669.946	1	12
670.285	1	4
670.623	1	12
670.962	1	11
671.301	1	0
671.640	1	-8
671.979	1	2
672.317	1	-5
672.656	1	-2
672.995	1	5
673.334	1	0
673.673	1	12
674.011	1	1
674.350	1	6
674.689	1	2
675.028	1	3
675.367	1	-7
675.705	1	17
676.044	1	-3
676.383	1	10
676.722	1	2
677.060	1	-2
677.399	1	2
677.738	1	-9
678.077	1	2
678.416	1	3
678.754	1	8
679.093	1	4
679.432	1	4
679.771	1	4
680.109	1	1
680.448	1	3
680.787	1	4
681.125	1	8
681.464	1	1
681.803	1	-7
682.142	1	4
682.480	1	15
682.819	1	-1
683.158	1	9
683.496	1	-4
683.835	1	-4
684.174	1	8
684.512	1	7
684.851	1	-10
685.190	1	-1
685.529	1	-6
685.867	1	-2
686.206	1	10
686.545	1	-4
686.883	1	-3
687.222	1	-2
687.561	1	5
687.899	1	0
688.238	1	6
688.577	1	2
688.746	1	9