File: Data/GaN_130K_350ms/GaN_sample F_spot6_UVVIS_130 K_200um_350 ms 2x2mm1_229.txt
340.368	1	8
340.710	1	4
341.052	1	-3
341.394	1	1
341.737	1	15
342.079	1	-1
342.421	1	11
342.763	1	5
343.105	1	4
343.447	1	8
343.789	1	2
344.131	1	3
344.473	1	-3
344.815	1	-4
345.157	1	-11
345.499	1	3
345.841	1	0
346.183	1	5
346.526	1	4
346.868	1	-2
347.210	1	-1
347.552	1	-1
347.894	1	4
348.236	1	3
348.578	1	5
348.920	1	1
349.262	1	7
349.604	1	4
349.946	1	6
350.288	1	-10
350.630	1	9
350.972	1	8
351.314	1	5
351.656	1	15
351.998	1	4
352.340	1	10
352.682	1	0
353.024	1	-3
353.366	1	6
353.708	1	-7
354.050	1	5
354.392	1	8
354.734	1	-2
355.076	1	3
355.418	1	2
355.760	1	2
356.102	1	1
356.444	1	-10
356.785	1	11
357.127	1	4
357.469	1	6
357.811	1	6
358.153	1	7
358.495	1	7
358.837	1	3
359.179	1	-2
359.521	1	-1
359.863	1	1
360.205	1	-4
360.547	1	-5
360.889	1	-3
361.231	1	0
361.572	1	17
361.914	1	0
362.256	1	7
362.598	1	1
362.940	1	2
363.282	1	5
363.624	1	14
363.966	1	22
364.308	1	16
364.649	1	4
364.991	1	3
365.333	1	0
365.675	1	11
366.017	1	10
366.359	1	16
366.701	1	14
367.042	1	21
367.384	1	24
367.726	1	16
368.068	1	13
368.410	1	8
368.752	1	19
369.093	1	6
369.435	1	12
369.777	1	19
370.119	1	22
370.461	1	16
370.803	1	15
371.144	1	8
371.486	1	14
371.828	1	6
372.170	1	19
372.512	1	19
372.853	1	1
373.195	1	7
373.537	1	5
373.879	1	13
374.220	1	4
374.562	1	2
374.904	1	17
375.246	1	5
375.588	1	13
375.929	1	-2
376.271	1	15
376.613	1	2
376.955	1	11
377.296	1	4
377.638	1	-3
377.980	1	-4
378.321	1	6
378.663	1	9
379.005	1	24
379.347	1	5
379.688	1	0
380.030	1	-1
380.372	1	8
380.714	1	9
381.055	1	13
381.397	1	3
381.739	1	5
382.080	1	-6
382.422	1	7
382.764	1	2
383.105	1	-9
383.447	1	4
383.789	1	12
384.130	1	10
384.472	1	5
384.814	1	-3
385.156	1	11
385.497	1	1
385.839	1	-1
386.180	1	6
386.522	1	4
386.864	1	1
387.205	1	1
387.547	1	9
387.889	1	6
388.230	1	6
388.572	1	11
388.914	1	4
389.255	1	4
389.597	1	-9
389.939	1	6
390.280	1	9
390.622	1	3
390.963	1	10
391.305	1	7
391.647	1	6
391.988	1	6
392.330	1	1
392.671	1	-3
393.013	1	11
393.355	1	10
393.696	1	9
394.038	1	10
394.379	1	5
394.721	1	10
395.062	1	-7
395.404	1	-4
395.746	1	4
396.087	1	18
396.429	1	10
396.770	1	7
397.112	1	2
397.453	1	11
397.795	1	-1
398.136	1	4
398.478	1	8
398.819	1	3
399.161	1	13
399.503	1	16
399.844	1	6
400.186	1	3
400.527	1	10
400.869	1	12
401.210	1	2
401.552	1	12
401.893	1	1
402.235	1	9
402.576	1	0
402.918	1	13
403.259	1	-3
403.601	1	3
403.942	1	-1
404.284	1	-2
404.625	1	15
404.967	1	-5
405.308	1	8
405.649	1	2
405.991	1	12
406.332	1	5
406.674	1	11
407.015	1	5
407.357	1	4
407.698	1	5
408.040	1	11
408.381	1	2
408.722	1	13
409.064	1	2
409.405	1	11
409.747	1	-5
410.088	1	11
410.430	1	15
410.771	1	-5
411.112	1	17
411.454	1	10
411.795	1	6
412.137	1	-8
412.478	1	-5
412.819	1	5
413.161	1	10
413.502	1	9
413.844	1	4
414.185	1	10
414.526	1	10
414.868	1	2
415.209	1	-3
415.550	1	-6
415.892	1	5
416.233	1	12
416.575	1	9
416.916	1	0
417.257	1	6
417.599	1	7
417.940	1	9
418.281	1	1
418.623	1	8
418.964	1	7
419.305	1	2
419.647	1	22
419.988	1	17
420.329	1	7
420.671	1	-2
421.012	1	1
421.353	1	0
421.695	1	-2
422.036	1	9
422.377	1	5
422.718	1	5
423.060	1	6
423.401	1	16
423.742	1	4
424.084	1	10
424.425	1	9
424.766	1	8
425.107	1	9
425.449	1	10
425.790	1	6
426.131	1	13
426.472	1	4
426.814	1	-8
427.155	1	-4
427.496	1	7
427.837	1	9
428.179	1	7
428.520	1	24
428.861	1	-1
429.202	1	9
429.544	1	13
429.885	1	-4
430.226	1	13
430.567	1	6
430.909	1	6
431.250	1	5
431.591	1	5
431.932	1	8
432.273	1	11
432.615	1	9
432.956	1	-7
433.297	1	16
433.638	1	8
433.979	1	7
434.320	1	6
434.662	1	10
435.003	1	11
435.344	1	3
435.685	1	-8
436.026	1	8
436.368	1	1
436.709	1	-6
437.050	1	7
437.391	1	13
437.732	1	6
438.073	1	6
438.414	1	-7
438.756	1	-6
439.097	1	4
439.438	1	-1
439.779	1	10
440.120	1	2
440.461	1	19
440.802	1	-5
441.143	1	-3
441.485	1	10
441.826	1	1
442.167	1	11
442.508	1	0
442.849	1	9
443.190	1	2
443.531	1	-1
443.872	1	8
444.213	1	0
444.554	1	7
444.895	1	-1
445.237	1	2
445.578	1	-10
445.919	1	2
446.260	1	5
446.601	1	9
446.942	1	3
447.283	1	4
447.624	1	6
447.965	1	2
448.306	1	7
448.647	1	7
448.988	1	3
449.329	1	-5
449.670	1	5
450.011	1	-1
450.352	1	7
450.693	1	-3
451.034	1	-4
451.375	1	6
451.716	1	-2
452.057	1	18
452.398	1	-2
452.739	1	7
453.080	1	4
453.421	1	10
453.762	1	4
454.103	1	5
454.444	1	8
454.785	1	9
455.126	1	-13
455.467	1	-4
455.808	1	14
456.149	1	-8
456.490	1	9
456.831	1	2
457.172	1	-3
457.513	1	-2
457.854	1	8
458.195	1	-1
458.536	1	-5
458.877	1	21
459.218	1	10
459.559	1	1
459.899	1	6
460.240	1	12
460.581	1	1
460.922	1	4
461.263	1	9
461.604	1	-10
461.945	1	12
462.286	1	5
462.627	1	1
462.968	1	-5
463.309	1	8
463.649	1	2
463.990	1	5
464.331	1	19
464.672	1	8
465.013	1	-1
465.354	1	7
465.695	1	2
466.036	1	6
466.376	1	5
466.717	1	13
467.058	1	6
467.399	1	-2
467.740	1	16
468.081	1	13
468.422	1	11
468.762	1	-7
469.103	1	6
469.444	1	1
469.785	1	8
470.126	1	-17
470.467	1	0
470.807	1	6
471.148	1	9
471.489	1	2
471.830	1	6
472.171	1	3
472.511	1	-1
472.852	1	10
473.193	1	11
473.534	1	-4
473.875	1	15
474.215	1	3
474.556	1	2
474.897	1	-7
475.238	1	10
475.578	1	-1
475.919	1	-8
476.260	1	5
476.601	1	1
476.942	1	6
477.282	1	-3
477.623	1	1
477.964	1	-6
478.305	1	12
478.645	1	-1
478.986	1	2
479.327	1	-4
479.667	1	10
480.008	1	-6
480.349	1	-3
480.690	1	12
481.030	1	2
481.371	1	13
481.712	1	9
482.053	1	2
482.393	1	14
482.734	1	2
483.075	1	9
483.415	1	-4
483.756	1	0
484.097	1	2
484.437	1	8
484.778	1	6
485.119	1	2
485.459	1	-7
485.800	1	11
486.141	1	3
486.481	1	-1
486.822	1	7
487.163	1	-7
487.503	1	-2
487.844	1	1
488.185	1	5
488.525	1	2
488.866	1	2
489.207	1	2
489.547	1	-9
489.888	1	7
490.228	1	9
490.569	1	0
490.910	1	-3
491.250	1	10
491.591	1	-2
491.932	1	1
492.272	1	5
492.613	1	-9
492.953	1	-4
493.294	1	4
493.635	1	5
493.975	1	13
494.316	1	1
494.656	1	-1
494.997	1	6
495.337	1	0
495.678	1	3
496.019	1	-3
496.359	1	18
496.700	1	-1
497.040	1	3
497.381	1	3
497.721	1	6
498.062	1	-7
498.403	1	4
498.743	1	3
499.084	1	14
499.424	1	-9
499.765	1	-5
500.105	1	10
500.446	1	5
500.786	1	8
501.127	1	0
501.467	1	6
501.808	1	3
502.148	1	1
502.489	1	7
502.829	1	-1
503.170	1	4
503.510	1	11
503.851	1	-6
504.191	1	8
504.532	1	6
504.872	1	-1
505.213	1	1
505.553	1	7
505.894	1	5
506.234	1	0
506.575	1	-3
506.915	1	2
507.256	1	11
507.596	1	2
507.936	1	7
508.277	1	1
508.617	1	-4
508.958	1	6
509.298	1	-2
509.639	1	4
509.979	1	1
510.319	1	17
510.660	1	1
511.000	1	0
511.341	1	1
511.681	1	13
512.022	1	6
512.362	1	-6
512.702	1	15
513.043	1	15
513.383	1	12
513.724	1	-5
514.064	1	2
514.404	1	19
514.745	1	1
515.085	1	10
515.425	1	-2
515.766	1	6
516.106	1	0
516.447	1	9
516.787	1	9
517.127	1	10
517.468	1	4
517.808	1	8
518.148	1	6
518.489	1	2
518.829	1	1
519.169	1	13
519.510	1	-2
519.850	1	11
520.190	1	10
520.531	1	12
520.871	1	-3
521.211	1	13
521.552	1	14
521.892	1	12
522.232	1	-7
522.573	1	-2
522.913	1	15
523.253	1	9
523.593	1	9
523.934	1	6
524.274	1	-3
524.614	1	14
524.955	1	15
525.295	1	7
525.635	1	-2
525.975	1	14
526.316	1	8
526.656	1	13
526.996	1	7
527.337	1	5
527.677	1	2
528.017	1	5
528.357	1	2
528.698	1	-1
529.038	1	1
529.378	1	19
529.718	1	10
530.058	1	3
530.399	1	5
530.739	1	8
531.079	1	12
531.419	1	6
531.760	1	-1
532.100	1	5
532.440	1	9
532.780	1	-1
533.120	1	6
533.461	1	8
533.801	1	6
534.141	1	11
534.481	1	8
534.821	1	16
535.162	1	6
535.502	1	5
535.842	1	10
536.182	1	13
536.522	1	-5
536.862	1	9
537.203	1	-1
537.543	1	8
537.883	1	1
538.223	1	9
538.563	1	16
538.903	1	15
539.243	1	7
539.584	1	9
539.924	1	14
540.264	1	4
540.604	1	11
540.944	1	8
541.284	1	4
541.624	1	14
541.964	1	1
542.305	1	0
542.645	1	-2
542.985	1	8
543.325	1	-1
543.665	1	6
544.005	1	9
544.345	1	8
544.685	1	5
545.025	1	1
545.365	1	5
545.705	1	8
546.045	1	-2
546.386	1	4
546.726	1	-11
547.066	1	9
547.406	1	-10
547.746	1	2
548.086	1	2
548.426	1	12
548.766	1	6
549.106	1	-3
549.446	1	6
549.786	1	9
550.126	1	21
550.466	1	13
550.806	1	11
551.146	1	-5
551.486	1	0
551.826	1	9
552.166	1	9
552.506	1	4
552.846	1	5
553.186	1	10
553.526	1	8
553.866	1	-6
554.206	1	15
554.546	1	7
554.886	1	8
555.226	1	-1
555.566	1	2
555.906	1	-3
556.246	1	-2
556.586	1	3
556.926	1	3
557.266	1	8
557.606	1	4
557.946	1	7
558.286	1	10
558.626	1	-5
558.966	1	-6
559.306	1	2
559.646	1	8
559.986	1	4
560.325	1	-3
560.665	1	2
561.005	1	7
561.345	1	9
561.685	1	0
562.025	1	5
562.365	1	4
562.705	1	11
563.045	1	-4
563.385	1	7
563.725	1	0
564.064	1	5
564.404	1	-5
564.744	1	10
565.084	1	2
565.424	1	-3
565.764	1	4
566.104	1	1
566.444	1	14
566.783	1	6
567.123	1	6
567.463	1	4
567.803	1	8
568.143	1	6
568.483	1	3
568.823	1	4
569.162	1	9
569.502	1	-1
569.842	1	-2
570.182	1	4
570.522	1	-10
570.862	1	22
571.201	1	5
571.541	1	-13
571.881	1	-2
572.221	1	7
572.561	1	0
572.900	1	2
573.240	1	0
573.580	1	8
573.920	1	9
574.260	1	9
574.599	1	6
574.939	1	11
575.279	1	-9
575.619	1	16
575.959	1	6
576.298	1	-2
576.638	1	-1
576.978	1	-6
577.318	1	8
577.657	1	12
577.997	1	1
578.337	1	2
578.677	1	15
579.016	1	1
579.356	1	11
579.696	1	2
580.036	1	-4
580.375	1	-1
580.715	1	9
581.055	1	-3
581.394	1	-4
581.734	1	-1
582.074	1	2
582.414	1	-2
582.753	1	2
583.093	1	1
583.433	1	9
583.772	1	3
584.112	1	3
584.452	1	14
584.791	1	2
585.131	1	7
585.471	1	3
585.811	1	3
586.150	1	-1
586.490	1	11
586.830	1	6
587.169	1	10
587.509	1	4
587.849	1	11
588.188	1	5
588.528	1	9
588.867	1	0
589.207	1	-5
589.547	1	-4
589.886	1	-5
590.226	1	13
590.566	1	4
590.905	1	11
591.245	1	-7
591.585	1	10
591.924	1	-10
592.264	1	7
592.603	1	-4
592.943	1	2
593.283	1	-3
593.622	1	9
593.962	1	2
594.301	1	-3
594.641	1	8
594.981	1	-3
595.320	1	6
595.660	1	4
595.999	1	6
596.339	1	7
596.678	1	-7
597.018	1	-2
597.358	1	-5
597.697	1	-1
598.037	1	11
598.376	1	2
598.716	1	0
599.055	1	2
599.395	1	-16
599.734	1	6
600.074	1	8
600.413	1	11
600.753	1	-6
601.092	1	3
601.432	1	2
601.771	1	7
602.111	1	4
602.451	1	3
602.790	1	1
603.130	1	19
603.469	1	4
603.809	1	-1
604.148	1	5
604.487	1	4
604.827	1	12
605.166	1	9
605.506	1	3
605.845	1	-1
606.185	1	-8
606.524	1	4
606.864	1	17
607.203	1	1
607.543	1	5
607.882	1	6
608.222	1	-7
608.561	1	-1
608.901	1	18
609.240	1	-9
609.579	1	12
609.919	1	1
610.258	1	8
610.598	1	6
610.937	1	1
611.277	1	16
611.616	1	-5
611.955	1	-2
612.295	1	10
612.634	1	2
612.974	1	4
613.313	1	-5
613.652	1	-7
613.992	1	9
614.331	1	2
614.671	1	10
615.010	1	0
615.349	1	1
615.689	1	11
616.028	1	10
616.368	1	6
616.707	1	15
617.046	1	13
617.386	1	-2
617.725	1	1
618.064	1	2
618.404	1	4
618.743	1	5
619.082	1	13
619.422	1	-3
619.761	1	4
620.100	1	0
620.440	1	7
620.779	1	4
621.118	1	1
621.458	1	9
621.797	1	-5
622.136	1	9
622.476	1	10
622.815	1	-7
623.154	1	7
623.494	1	4
623.833	1	10
624.172	1	-2
624.511	1	-2
624.851	1	-1
625.190	1	-8
625.529	1	1
625.869	1	-1
626.208	1	-7
626.547	1	9
626.886	1	4
627.226	1	2
627.565	1	1
627.904	1	3
628.243	1	8
628.583	1	-3
628.922	1	-5
629.261	1	-3
629.600	1	-1
629.940	1	2
630.279	1	3
630.618	1	4
630.957	1	-4
631.297	1	2
631.636	1	0
631.975	1	4
632.314	1	-1
632.653	1	2
632.993	1	4
633.332	1	0
633.671	1	-5
634.010	1	-6
634.349	1	5
634.689	1	9
635.028	1	12
635.367	1	4
635.706	1	-5
636.045	1	9
636.384	1	-5
636.724	1	-2
637.063	1	6
637.402	1	-4
637.741	1	10
638.080	1	4
638.419	1	6
638.759	1	1
639.098	1	-1
639.437	1	9
639.776	1	-1
640.115	1	9
640.454	1	1
640.793	1	-6
641.132	1	9
641.472	1	0
641.811	1	4
642.150	1	-5
642.489	1	-5
642.828	1	-4
643.167	1	5
643.506	1	8
643.845	1	-9
644.184	1	-4
644.524	1	11
644.863	1	-4
645.202	1	8
645.541	1	-1
645.880	1	-1
646.219	1	10
646.558	1	14
646.897	1	2
647.236	1	3
647.575	1	-13
647.914	1	-1
648.253	1	4
648.592	1	0
648.931	1	-2
649.270	1	3
649.610	1	-1
649.949	1	0
650.288	1	5
650.627	1	4
650.966	1	2
651.305	1	-1
651.644	1	-2
651.983	1	-16
652.322	1	-8
652.661	1	-1
653.000	1	11
653.339	1	5
653.678	1	7
654.017	1	2
654.356	1	-3
654.695	1	10
655.034	1	1
655.373	1	8
655.712	1	-2
656.051	1	2
656.390	1	9
656.729	1	-1
657.068	1	3
657.406	1	1
657.745	1	3
658.084	1	4
658.423	1	-2
658.762	1	14
659.101	1	10
659.440	1	-3
659.779	1	-4
660.118	1	0
660.457	1	-7
660.796	1	1
661.135	1	6
661.474	1	10
661.813	1	-3
662.152	1	-1
662.491	1	20
662.829	1	7
663.168	1	-7
663.507	1	8
663.846	1	-1
664.185	1	1
664.524	1	-8
664.863	1	-2
665.202	1	0
665.541	1	-4
665.879	1	7
666.218	1	5
666.557	1	4
666.896	1	11
667.235	1	7
667.574	1	9
667.913	1	16
668.251	1	-6
668.590	1	-5
668.929	1	9
669.268	1	10
669.607	1	-11
669.946	1	15
670.285	1	10
670.623	1	16
670.962	1	2
671.301	1	4
671.640	1	-15
671.979	1	-3
672.317	1	-4
672.656	1	-3
672.995	1	1
673.334	1	-1
673.673	1	7
674.011	1	13
674.350	1	-1
674.689	1	5
675.028	1	11
675.367	1	-1
675.705	1	12
676.044	1	2
676.383	1	6
676.722	1	0
677.060	1	5
677.399	1	-4
677.738	1	4
678.077	1	3
678.416	1	7
678.754	1	16
679.093	1	6
679.432	1	11
679.771	1	9
680.109	1	7
680.448	1	0
680.787	1	9
681.125	1	7
681.464	1	3
681.803	1	0
682.142	1	-5
682.480	1	15
682.819	1	3
683.158	1	3
683.496	1	-7
683.835	1	-3
684.174	1	9
684.512	1	4
684.851	1	-6
685.190	1	-10
685.529	1	-6
685.867	1	-4
686.206	1	6
686.545	1	-2
686.883	1	0
687.222	1	1
687.561	1	5
687.899	1	-2
688.238	1	8
688.577	1	0
688.746	1	10