File: Data/GaN_130K_350ms/GaN_sample F_spot6_UVVIS_130 K_200um_350 ms 2x2mm1_215.txt
340.368	1	7
340.710	1	4
341.052	1	-3
341.394	1	-7
341.737	1	11
342.079	1	-2
342.421	1	9
342.763	1	6
343.105	1	-4
343.447	1	3
343.789	1	9
344.131	1	4
344.473	1	-4
344.815	1	-6
345.157	1	-2
345.499	1	-1
345.841	1	0
346.183	1	9
346.526	1	-3
346.868	1	4
347.210	1	3
347.552	1	-5
347.894	1	4
348.236	1	-1
348.578	1	1
348.920	1	13
349.262	1	2
349.604	1	5
349.946	1	-1
350.288	1	-5
350.630	1	9
350.972	1	11
351.314	1	-7
351.656	1	6
351.998	1	-1
352.340	1	11
352.682	1	4
353.024	1	-2
353.366	1	10
353.708	1	8
354.050	1	8
354.392	1	9
354.734	1	2
355.076	1	5
355.418	1	7
355.760	1	4
356.102	1	-8
356.444	1	-9
356.785	1	6
357.127	1	4
357.469	1	4
357.811	1	3
358.153	1	3
358.495	1	8
358.837	1	5
359.179	1	5
359.521	1	1
359.863	1	4
360.205	1	3
360.547	1	-1
360.889	1	3
361.231	1	-5
361.572	1	15
361.914	1	6
362.256	1	1
362.598	1	9
362.940	1	2
363.282	1	11
363.624	1	15
363.966	1	20
364.308	1	18
364.649	1	15
364.991	1	13
365.333	1	0
365.675	1	16
366.017	1	16
366.359	1	13
366.701	1	9
367.042	1	5
367.384	1	16
367.726	1	25
368.068	1	15
368.410	1	11
368.752	1	21
369.093	1	8
369.435	1	7
369.777	1	18
370.119	1	22
370.461	1	6
370.803	1	3
371.144	1	7
371.486	1	14
371.828	1	13
372.170	1	4
372.512	1	16
372.853	1	3
373.195	1	13
373.537	1	14
373.879	1	21
374.220	1	3
374.562	1	10
374.904	1	9
375.246	1	10
375.588	1	8
375.929	1	-4
376.271	1	10
376.613	1	-4
376.955	1	9
377.296	1	2
377.638	1	2
377.980	1	1
378.321	1	13
378.663	1	13
379.005	1	16
379.347	1	-5
379.688	1	4
380.030	1	7
380.372	1	10
380.714	1	11
381.055	1	3
381.397	1	10
381.739	1	8
382.080	1	6
382.422	1	16
382.764	1	-3
383.105	1	2
383.447	1	6
383.789	1	14
384.130	1	5
384.472	1	9
384.814	1	2
385.156	1	3
385.497	1	10
385.839	1	10
386.180	1	5
386.522	1	9
386.864	1	17
387.205	1	8
387.547	1	2
387.889	1	-1
388.230	1	6
388.572	1	17
388.914	1	6
389.255	1	10
389.597	1	-5
389.939	1	10
390.280	1	12
390.622	1	8
390.963	1	10
391.305	1	9
391.647	1	-2
391.988	1	14
392.330	1	-1
392.671	1	-6
393.013	1	16
393.355	1	7
393.696	1	-6
394.038	1	8
394.379	1	11
394.721	1	8
395.062	1	3
395.404	1	-6
395.746	1	13
396.087	1	22
396.429	1	7
396.770	1	13
397.112	1	13
397.453	1	17
397.795	1	-5
398.136	1	9
398.478	1	8
398.819	1	-9
399.161	1	13
399.503	1	17
399.844	1	-3
400.186	1	1
400.527	1	8
400.869	1	9
401.210	1	-6
401.552	1	7
401.893	1	-9
402.235	1	6
402.576	1	7
402.918	1	17
403.259	1	-4
403.601	1	10
403.942	1	1
404.284	1	2
404.625	1	18
404.967	1	4
405.308	1	1
405.649	1	7
405.991	1	-1
406.332	1	-4
406.674	1	13
407.015	1	5
407.357	1	4
407.698	1	2
408.040	1	6
408.381	1	7
408.722	1	9
409.064	1	8
409.405	1	5
409.747	1	3
410.088	1	14
410.430	1	14
410.771	1	0
411.112	1	15
411.454	1	10
411.795	1	4
412.137	1	3
412.478	1	3
412.819	1	6
413.161	1	11
413.502	1	18
413.844	1	0
414.185	1	14
414.526	1	0
414.868	1	-1
415.209	1	0
415.550	1	6
415.892	1	3
416.233	1	5
416.575	1	5
416.916	1	-2
417.257	1	7
417.599	1	-3
417.940	1	5
418.281	1	4
418.623	1	5
418.964	1	-1
419.305	1	-4
419.647	1	5
419.988	1	9
420.329	1	13
420.671	1	-2
421.012	1	7
421.353	1	0
421.695	1	2
422.036	1	12
422.377	1	9
422.718	1	-1
423.060	1	9
423.401	1	12
423.742	1	6
424.084	1	3
424.425	1	6
424.766	1	-3
425.107	1	7
425.449	1	5
425.790	1	12
426.131	1	11
426.472	1	7
426.814	1	10
427.155	1	0
427.496	1	0
427.837	1	7
428.179	1	6
428.520	1	6
428.861	1	5
429.202	1	11
429.544	1	10
429.885	1	1
430.226	1	1
430.567	1	4
430.909	1	13
431.250	1	4
431.591	1	7
431.932	1	-3
432.273	1	15
432.615	1	20
432.956	1	0
433.297	1	17
433.638	1	4
433.979	1	1
434.320	1	5
434.662	1	6
435.003	1	6
435.344	1	14
435.685	1	-6
436.026	1	5
436.368	1	-3
436.709	1	-3
437.050	1	9
437.391	1	17
437.732	1	5
438.073	1	17
438.414	1	-1
438.756	1	9
439.097	1	6
439.438	1	11
439.779	1	7
440.120	1	8
440.461	1	13
440.802	1	-4
441.143	1	-8
441.485	1	11
441.826	1	-2
442.167	1	6
442.508	1	6
442.849	1	5
443.190	1	6
443.531	1	7
443.872	1	13
444.213	1	3
444.554	1	9
444.895	1	5
445.237	1	4
445.578	1	-3
445.919	1	0
446.260	1	5
446.601	1	3
446.942	1	1
447.283	1	4
447.624	1	6
447.965	1	6
448.306	1	0
448.647	1	13
448.988	1	-2
449.329	1	5
449.670	1	-1
450.011	1	-3
450.352	1	15
450.693	1	7
451.034	1	-4
451.375	1	9
451.716	1	-4
452.057	1	20
452.398	1	-9
452.739	1	4
453.080	1	2
453.421	1	4
453.762	1	11
454.103	1	1
454.444	1	5
454.785	1	7
455.126	1	-9
455.467	1	2
455.808	1	10
456.149	1	-1
456.490	1	3
456.831	1	12
457.172	1	-3
457.513	1	-7
457.854	1	9
458.195	1	-5
458.536	1	2
458.877	1	23
459.218	1	13
459.559	1	6
459.899	1	-1
460.240	1	12
460.581	1	-3
460.922	1	7
461.263	1	4
461.604	1	-6
461.945	1	13
462.286	1	8
462.627	1	-3
462.968	1	4
463.309	1	8
463.649	1	4
463.990	1	1
464.331	1	6
464.672	1	13
465.013	1	-3
465.354	1	6
465.695	1	3
466.036	1	7
466.376	1	8
466.717	1	3
467.058	1	12
467.399	1	0
467.740	1	10
468.081	1	7
468.422	1	8
468.762	1	6
469.103	1	0
469.444	1	2
469.785	1	8
470.126	1	-4
470.467	1	3
470.807	1	3
471.148	1	4
471.489	1	0
471.830	1	-5
472.171	1	3
472.511	1	3
472.852	1	15
473.193	1	6
473.534	1	9
473.875	1	6
474.215	1	3
474.556	1	3
474.897	1	-3
475.238	1	10
475.578	1	3
475.919	1	-6
476.260	1	6
476.601	1	-3
476.942	1	8
477.282	1	10
477.623	1	-3
477.964	1	3
478.305	1	6
478.645	1	-3
478.986	1	0
479.327	1	2
479.667	1	4
480.008	1	-2
480.349	1	16
480.690	1	2
481.030	1	5
481.371	1	8
481.712	1	6
482.053	1	9
482.393	1	14
482.734	1	2
483.075	1	21
483.415	1	5
483.756	1	2
484.097	1	1
484.437	1	-2
484.778	1	12
485.119	1	6
485.459	1	-6
485.800	1	9
486.141	1	5
486.481	1	-2
486.822	1	12
487.163	1	0
487.503	1	1
487.844	1	-1
488.185	1	6
488.525	1	3
488.866	1	0
489.207	1	-3
489.547	1	2
489.888	1	8
490.228	1	8
490.569	1	8
490.910	1	-2
491.250	1	10
491.591	1	-1
491.932	1	11
492.272	1	-3
492.613	1	2
492.953	1	5
493.294	1	7
493.635	1	7
493.975	1	5
494.316	1	7
494.656	1	-4
494.997	1	-5
495.337	1	-1
495.678	1	8
496.019	1	3
496.359	1	6
496.700	1	-2
497.040	1	8
497.381	1	4
497.721	1	-3
498.062	1	-1
498.403	1	8
498.743	1	1
499.084	1	12
499.424	1	-7
499.765	1	3
500.105	1	4
500.446	1	11
500.786	1	3
501.127	1	-2
501.467	1	0
501.808	1	3
502.148	1	1
502.489	1	7
502.829	1	2
503.170	1	-3
503.510	1	5
503.851	1	2
504.191	1	9
504.532	1	5
504.872	1	-6
505.213	1	11
505.553	1	4
505.894	1	16
506.234	1	2
506.575	1	-8
506.915	1	0
507.256	1	11
507.596	1	-4
507.936	1	2
508.277	1	0
508.617	1	0
508.958	1	9
509.298	1	-1
509.639	1	3
509.979	1	1
510.319	1	11
510.660	1	-5
511.000	1	11
511.341	1	4
511.681	1	11
512.022	1	7
512.362	1	9
512.702	1	8
513.043	1	14
513.383	1	6
513.724	1	-2
514.064	1	-2
514.404	1	8
514.745	1	2
515.085	1	14
515.425	1	4
515.766	1	19
516.106	1	5
516.447	1	-1
516.787	1	11
517.127	1	5
517.468	1	3
517.808	1	3
518.148	1	11
518.489	1	1
518.829	1	22
519.169	1	5
519.510	1	7
519.850	1	10
520.190	1	15
520.531	1	16
520.871	1	-2
521.211	1	12
521.552	1	10
521.892	1	2
522.232	1	-2
522.573	1	1
522.913	1	5
523.253	1	14
523.593	1	15
523.934	1	6
524.274	1	4
524.614	1	8
524.955	1	9
525.295	1	9
525.635	1	2
525.975	1	19
526.316	1	5
526.656	1	3
526.996	1	1
527.337	1	19
527.677	1	-5
528.017	1	8
528.357	1	11
528.698	1	1
529.038	1	-4
529.378	1	14
529.718	1	14
530.058	1	8
530.399	1	10
530.739	1	8
531.079	1	12
531.419	1	14
531.760	1	4
532.100	1	11
532.440	1	8
532.780	1	1
533.120	1	18
533.461	1	10
533.801	1	13
534.141	1	3
534.481	1	5
534.821	1	12
535.162	1	11
535.502	1	17
535.842	1	7
536.182	1	18
536.522	1	-3
536.862	1	-3
537.203	1	11
537.543	1	6
537.883	1	-4
538.223	1	6
538.563	1	7
538.903	1	19
539.243	1	15
539.584	1	9
539.924	1	6
540.264	1	1
540.604	1	15
540.944	1	14
541.284	1	10
541.624	1	8
541.964	1	3
542.305	1	7
542.645	1	1
542.985	1	13
543.325	1	11
543.665	1	8
544.005	1	7
544.345	1	7
544.685	1	12
545.025	1	2
545.365	1	8
545.705	1	1
546.045	1	1
546.386	1	0
546.726	1	-5
547.066	1	6
547.406	1	0
547.746	1	-2
548.086	1	1
548.426	1	13
548.766	1	10
549.106	1	-3
549.446	1	4
549.786	1	9
550.126	1	15
550.466	1	13
550.806	1	12
551.146	1	14
551.486	1	6
551.826	1	0
552.166	1	16
552.506	1	5
552.846	1	4
553.186	1	4
553.526	1	8
553.866	1	-7
554.206	1	3
554.546	1	8
554.886	1	7
555.226	1	4
555.566	1	4
555.906	1	0
556.246	1	9
556.586	1	2
556.926	1	0
557.266	1	10
557.606	1	7
557.946	1	11
558.286	1	20
558.626	1	-7
558.966	1	-1
559.306	1	2
559.646	1	11
559.986	1	11
560.325	1	-5
560.665	1	9
561.005	1	0
561.345	1	13
561.685	1	6
562.025	1	-1
562.365	1	6
562.705	1	0
563.045	1	8
563.385	1	8
563.725	1	6
564.064	1	11
564.404	1	7
564.744	1	4
565.084	1	5
565.424	1	-10
565.764	1	11
566.104	1	11
566.444	1	10
566.783	1	12
567.123	1	10
567.463	1	-3
567.803	1	11
568.143	1	22
568.483	1	7
568.823	1	-5
569.162	1	12
569.502	1	4
569.842	1	7
570.182	1	-2
570.522	1	-9
570.862	1	14
571.201	1	7
571.541	1	9
571.881	1	5
572.221	1	13
572.561	1	9
572.900	1	7
573.240	1	2
573.580	1	7
573.920	1	14
574.260	1	-5
574.599	1	8
574.939	1	8
575.279	1	-2
575.619	1	15
575.959	1	7
576.298	1	7
576.638	1	-5
576.978	1	-8
577.318	1	3
577.657	1	12
577.997	1	9
578.337	1	2
578.677	1	12
579.016	1	6
579.356	1	8
579.696	1	-2
580.036	1	1
580.375	1	0
580.715	1	13
581.055	1	9
581.394	1	4
581.734	1	5
582.074	1	-2
582.414	1	1
582.753	1	4
583.093	1	5
583.433	1	2
583.772	1	1
584.112	1	14
584.452	1	10
584.791	1	5
585.131	1	9
585.471	1	-3
585.811	1	-3
586.150	1	10
586.490	1	9
586.830	1	-3
587.169	1	7
587.509	1	3
587.849	1	5
588.188	1	8
588.528	1	10
588.867	1	6
589.207	1	-5
589.547	1	-2
589.886	1	12
590.226	1	1
590.566	1	4
590.905	1	7
591.245	1	-4
591.585	1	-2
591.924	1	3
592.264	1	0
592.603	1	0
592.943	1	2
593.283	1	-13
593.622	1	5
593.962	1	8
594.301	1	3
594.641	1	10
594.981	1	-6
595.320	1	2
595.660	1	2
595.999	1	3
596.339	1	16
596.678	1	-1
597.018	1	5
597.358	1	-3
597.697	1	2
598.037	1	8
598.376	1	3
598.716	1	4
599.055	1	4
599.395	1	1
599.734	1	-6
600.074	1	2
600.413	1	6
600.753	1	5
601.092	1	3
601.432	1	1
601.771	1	5
602.111	1	0
602.451	1	4
602.790	1	0
603.130	1	6
603.469	1	-1
603.809	1	8
604.148	1	-1
604.487	1	17
604.827	1	-1
605.166	1	11
605.506	1	-4
605.845	1	1
606.185	1	6
606.524	1	7
606.864	1	5
607.203	1	-3
607.543	1	-3
607.882	1	10
608.222	1	-7
608.561	1	2
608.901	1	6
609.240	1	-4
609.579	1	15
609.919	1	-2
610.258	1	-1
610.598	1	6
610.937	1	12
611.277	1	5
611.616	1	-5
611.955	1	2
612.295	1	1
612.634	1	-4
612.974	1	12
613.313	1	6
613.652	1	-5
613.992	1	-3
614.331	1	9
614.671	1	12
615.010	1	-5
615.349	1	1
615.689	1	6
616.028	1	-1
616.368	1	-1
616.707	1	13
617.046	1	6
617.386	1	-1
617.725	1	9
618.064	1	8
618.404	1	1
618.743	1	8
619.082	1	3
619.422	1	3
619.761	1	5
620.100	1	-8
620.440	1	4
620.779	1	-5
621.118	1	9
621.458	1	10
621.797	1	-4
622.136	1	4
622.476	1	7
622.815	1	-3
623.154	1	9
623.494	1	9
623.833	1	7
624.172	1	1
624.511	1	6
624.851	1	2
625.190	1	4
625.529	1	3
625.869	1	5
626.208	1	-4
626.547	1	4
626.886	1	5
627.226	1	1
627.565	1	3
627.904	1	1
628.243	1	11
628.583	1	-3
628.922	1	-9
629.261	1	-11
629.600	1	-5
629.940	1	5
630.279	1	18
630.618	1	0
630.957	1	8
631.297	1	5
631.636	1	8
631.975	1	10
632.314	1	8
632.653	1	1
632.993	1	5
633.332	1	-4
633.671	1	-3
634.010	1	-1
634.349	1	-2
634.689	1	9
635.028	1	8
635.367	1	7
635.706	1	1
636.045	1	12
636.384	1	0
636.724	1	12
637.063	1	7
637.402	1	-4
637.741	1	11
638.080	1	12
638.419	1	4
638.759	1	-2
639.098	1	-7
639.437	1	4
639.776	1	-1
640.115	1	11
640.454	1	4
640.793	1	-7
641.132	1	11
641.472	1	5
641.811	1	2
642.150	1	1
642.489	1	-8
642.828	1	1
643.167	1	2
643.506	1	12
643.845	1	0
644.184	1	3
644.524	1	2
644.863	1	-5
645.202	1	12
645.541	1	-1
645.880	1	4
646.219	1	2
646.558	1	3
646.897	1	-3
647.236	1	-3
647.575	1	-9
647.914	1	-3
648.253	1	-2
648.592	1	0
648.931	1	-7
649.270	1	-3
649.610	1	3
649.949	1	2
650.288	1	13
650.627	1	6
650.966	1	8
651.305	1	-6
651.644	1	3
651.983	1	-6
652.322	1	-4
652.661	1	-2
653.000	1	-1
653.339	1	-5
653.678	1	-3
654.017	1	0
654.356	1	5
654.695	1	4
655.034	1	1
655.373	1	6
655.712	1	7
656.051	1	1
656.390	1	-3
656.729	1	1
657.068	1	0
657.406	1	-4
657.745	1	-2
658.084	1	4
658.423	1	1
658.762	1	16
659.101	1	6
659.440	1	6
659.779	1	3
660.118	1	3
660.457	1	-6
660.796	1	6
661.135	1	9
661.474	1	5
661.813	1	-4
662.152	1	-12
662.491	1	9
662.829	1	15
663.168	1	-8
663.507	1	4
663.846	1	4
664.185	1	3
664.524	1	-5
664.863	1	5
665.202	1	-2
665.541	1	-11
665.879	1	5
666.218	1	11
666.557	1	10
666.896	1	1
667.235	1	4
667.574	1	21
667.913	1	12
668.251	1	-1
668.590	1	10
668.929	1	6
669.268	1	-2
669.607	1	-1
669.946	1	10
670.285	1	14
670.623	1	19
670.962	1	-3
671.301	1	4
671.640	1	-6
671.979	1	5
672.317	1	-6
672.656	1	-4
672.995	1	2
673.334	1	-1
673.673	1	9
674.011	1	1
674.350	1	1
674.689	1	3
675.028	1	13
675.367	1	-6
675.705	1	15
676.044	1	4
676.383	1	11
676.722	1	-8
677.060	1	10
677.399	1	-1
677.738	1	-5
678.077	1	4
678.416	1	2
678.754	1	7
679.093	1	3
679.432	1	5
679.771	1	6
680.109	1	5
680.448	1	4
680.787	1	6
681.125	1	12
681.464	1	-1
681.803	1	-3
682.142	1	-10
682.480	1	10
682.819	1	4
683.158	1	1
683.496	1	-1
683.835	1	-1
684.174	1	15
684.512	1	4
684.851	1	-1
685.190	1	-4
685.529	1	-10
685.867	1	0
686.206	1	6
686.545	1	-3
686.883	1	2
687.222	1	6
687.561	1	12
687.899	1	-3
688.238	1	17
688.577	1	-2
688.746	1	7