File: Data/GaN_130K_350ms/GaN_sample F_spot6_UVVIS_130 K_200um_350 ms 2x2mm1_120.txt
340.368	1	7
340.710	1	1
341.052	1	6
341.394	1	1
341.737	1	4
342.079	1	1
342.421	1	9
342.763	1	10
343.105	1	1
343.447	1	4
343.789	1	-1
344.131	1	4
344.473	1	3
344.815	1	-5
345.157	1	-6
345.499	1	3
345.841	1	4
346.183	1	11
346.526	1	0
346.868	1	2
347.210	1	0
347.552	1	5
347.894	1	6
348.236	1	3
348.578	1	6
348.920	1	4
349.262	1	10
349.604	1	4
349.946	1	11
350.288	1	2
350.630	1	9
350.972	1	10
351.314	1	0
351.656	1	13
351.998	1	10
352.340	1	11
352.682	1	4
353.024	1	1
353.366	1	16
353.708	1	9
354.050	1	8
354.392	1	8
354.734	1	5
355.076	1	6
355.418	1	10
355.760	1	11
356.102	1	-2
356.444	1	0
356.785	1	11
357.127	1	8
357.469	1	8
357.811	1	10
358.153	1	8
358.495	1	15
358.837	1	17
359.179	1	17
359.521	1	9
359.863	1	20
360.205	1	16
360.547	1	19
360.889	1	10
361.231	1	11
361.572	1	27
361.914	1	22
362.256	1	15
362.598	1	21
362.940	1	11
363.282	1	41
363.624	1	44
363.966	1	51
364.308	1	49
364.649	1	50
364.991	1	49
365.333	1	39
365.675	1	60
366.017	1	64
366.359	1	50
366.701	1	66
367.042	1	62
367.384	1	70
367.726	1	65
368.068	1	60
368.410	1	60
368.752	1	66
369.093	1	64
369.435	1	64
369.777	1	62
370.119	1	63
370.461	1	53
370.803	1	48
371.144	1	59
371.486	1	47
371.828	1	43
372.170	1	44
372.512	1	45
372.853	1	41
373.195	1	44
373.537	1	43
373.879	1	45
374.220	1	37
374.562	1	35
374.904	1	32
375.246	1	33
375.588	1	34
375.929	1	31
376.271	1	33
376.613	1	33
376.955	1	31
377.296	1	34
377.638	1	11
377.980	1	16
378.321	1	34
378.663	1	26
379.005	1	36
379.347	1	15
379.688	1	22
380.030	1	16
380.372	1	26
380.714	1	26
381.055	1	16
381.397	1	22
381.739	1	19
382.080	1	13
382.422	1	32
382.764	1	16
383.105	1	29
383.447	1	16
383.789	1	20
384.130	1	13
384.472	1	19
384.814	1	13
385.156	1	16
385.497	1	10
385.839	1	16
386.180	1	15
386.522	1	17
386.864	1	23
387.205	1	9
387.547	1	20
387.889	1	8
388.230	1	14
388.572	1	15
388.914	1	6
389.255	1	11
389.597	1	-4
389.939	1	19
390.280	1	18
390.622	1	25
390.963	1	23
391.305	1	24
391.647	1	14
391.988	1	14
392.330	1	9
392.671	1	3
393.013	1	19
393.355	1	11
393.696	1	3
394.038	1	11
394.379	1	19
394.721	1	11
395.062	1	5
395.404	1	11
395.746	1	13
396.087	1	22
396.429	1	15
396.770	1	16
397.112	1	14
397.453	1	18
397.795	1	0
398.136	1	15
398.478	1	17
398.819	1	-2
399.161	1	21
399.503	1	25
399.844	1	12
400.186	1	2
400.527	1	18
400.869	1	13
401.210	1	5
401.552	1	17
401.893	1	7
402.235	1	21
402.576	1	14
402.918	1	12
403.259	1	-2
403.601	1	11
403.942	1	3
404.284	1	1
404.625	1	18
404.967	1	8
405.308	1	1
405.649	1	7
405.991	1	9
406.332	1	21
406.674	1	20
407.015	1	4
407.357	1	11
407.698	1	4
408.040	1	18
408.381	1	17
408.722	1	11
409.064	1	11
409.405	1	13
409.747	1	4
410.088	1	19
410.430	1	21
410.771	1	-4
411.112	1	17
411.454	1	15
411.795	1	12
412.137	1	4
412.478	1	6
412.819	1	15
413.161	1	18
413.502	1	16
413.844	1	10
414.185	1	6
414.526	1	8
414.868	1	8
415.209	1	3
415.550	1	-3
415.892	1	16
416.233	1	18
416.575	1	14
416.916	1	6
417.257	1	7
417.599	1	8
417.940	1	11
418.281	1	0
418.623	1	11
418.964	1	3
419.305	1	0
419.647	1	14
419.988	1	24
420.329	1	15
420.671	1	-3
421.012	1	10
421.353	1	5
421.695	1	10
422.036	1	18
422.377	1	9
422.718	1	8
423.060	1	8
423.401	1	14
423.742	1	9
424.084	1	15
424.425	1	16
424.766	1	13
425.107	1	6
425.449	1	13
425.790	1	15
426.131	1	16
426.472	1	6
426.814	1	4
427.155	1	1
427.496	1	6
427.837	1	10
428.179	1	15
428.520	1	18
428.861	1	-3
429.202	1	6
429.544	1	15
429.885	1	2
430.226	1	4
430.567	1	9
430.909	1	11
431.250	1	13
431.591	1	-1
431.932	1	7
432.273	1	18
432.615	1	15
432.956	1	5
433.297	1	19
433.638	1	10
433.979	1	13
434.320	1	10
434.662	1	1
435.003	1	16
435.344	1	9
435.685	1	0
436.026	1	6
436.368	1	0
436.709	1	9
437.050	1	2
437.391	1	21
437.732	1	15
438.073	1	12
438.414	1	8
438.756	1	2
439.097	1	10
439.438	1	9
439.779	1	13
440.120	1	3
440.461	1	19
440.802	1	-1
441.143	1	-6
441.485	1	10
441.826	1	0
442.167	1	4
442.508	1	2
442.849	1	11
443.190	1	3
443.531	1	8
443.872	1	11
444.213	1	3
444.554	1	8
444.895	1	-4
445.237	1	0
445.578	1	0
445.919	1	5
446.260	1	0
446.601	1	4
446.942	1	11
447.283	1	10
447.624	1	3
447.965	1	7
448.306	1	7
448.647	1	24
448.988	1	4
449.329	1	-4
449.670	1	-3
450.011	1	10
450.352	1	11
450.693	1	3
451.034	1	-3
451.375	1	18
451.716	1	-7
452.057	1	14
452.398	1	-2
452.739	1	13
453.080	1	1
453.421	1	9
453.762	1	9
454.103	1	7
454.444	1	-1
454.785	1	11
455.126	1	4
455.467	1	-4
455.808	1	12
456.149	1	-2
456.490	1	8
456.831	1	8
457.172	1	13
457.513	1	-7
457.854	1	8
458.195	1	-1
458.536	1	3
458.877	1	17
459.218	1	7
459.559	1	4
459.899	1	3
460.240	1	11
460.581	1	0
460.922	1	8
461.263	1	10
461.604	1	-3
461.945	1	11
462.286	1	10
462.627	1	8
462.968	1	16
463.309	1	5
463.649	1	1
463.990	1	11
464.331	1	11
464.672	1	16
465.013	1	-4
465.354	1	9
465.695	1	18
466.036	1	8
466.376	1	2
466.717	1	9
467.058	1	8
467.399	1	5
467.740	1	12
468.081	1	14
468.422	1	18
468.762	1	1
469.103	1	11
469.444	1	3
469.785	1	15
470.126	1	-6
470.467	1	8
470.807	1	3
471.148	1	-3
471.489	1	4
471.830	1	4
472.171	1	10
472.511	1	7
472.852	1	12
473.193	1	0
473.534	1	3
473.875	1	11
474.215	1	0
474.556	1	16
474.897	1	-2
475.238	1	13
475.578	1	-5
475.919	1	-7
476.260	1	1
476.601	1	-2
476.942	1	16
477.282	1	13
477.623	1	-1
477.964	1	-4
478.305	1	8
478.645	1	7
478.986	1	14
479.327	1	6
479.667	1	9
480.008	1	4
480.349	1	-1
480.690	1	15
481.030	1	14
481.371	1	7
481.712	1	9
482.053	1	10
482.393	1	14
482.734	1	7
483.075	1	12
483.415	1	3
483.756	1	-3
484.097	1	15
484.437	1	4
484.778	1	12
485.119	1	10
485.459	1	1
485.800	1	8
486.141	1	12
486.481	1	12
486.822	1	10
487.163	1	6
487.503	1	-3
487.844	1	6
488.185	1	2
488.525	1	17
488.866	1	17
489.207	1	-2
489.547	1	6
489.888	1	16
490.228	1	11
490.569	1	14
490.910	1	-3
491.250	1	19
491.591	1	9
491.932	1	10
492.272	1	4
492.613	1	7
492.953	1	1
493.294	1	9
493.635	1	18
493.975	1	11
494.316	1	7
494.656	1	11
494.997	1	4
495.337	1	6
495.678	1	7
496.019	1	2
496.359	1	23
496.700	1	14
497.040	1	19
497.381	1	2
497.721	1	9
498.062	1	11
498.403	1	9
498.743	1	20
499.084	1	23
499.424	1	6
499.765	1	11
500.105	1	11
500.446	1	12
500.786	1	22
501.127	1	14
501.467	1	13
501.808	1	14
502.148	1	20
502.489	1	14
502.829	1	11
503.170	1	15
503.510	1	19
503.851	1	7
504.191	1	17
504.532	1	14
504.872	1	16
505.213	1	17
505.553	1	14
505.894	1	23
506.234	1	5
506.575	1	3
506.915	1	1
507.256	1	22
507.596	1	16
507.936	1	10
508.277	1	12
508.617	1	26
508.958	1	13
509.298	1	15
509.639	1	23
509.979	1	19
510.319	1	23
510.660	1	10
511.000	1	26
511.341	1	18
511.681	1	29
512.022	1	23
512.362	1	16
512.702	1	26
513.043	1	16
513.383	1	27
513.724	1	15
514.064	1	19
514.404	1	23
514.745	1	18
515.085	1	28
515.425	1	15
515.766	1	34
516.106	1	16
516.447	1	20
516.787	1	26
517.127	1	22
517.468	1	25
517.808	1	15
518.148	1	20
518.489	1	21
518.829	1	33
519.169	1	33
519.510	1	20
519.850	1	31
520.190	1	43
520.531	1	30
520.871	1	4
521.211	1	25
521.552	1	27
521.892	1	37
522.232	1	22
522.573	1	11
522.913	1	24
523.253	1	26
523.593	1	29
523.934	1	6
524.274	1	19
524.614	1	29
524.955	1	25
525.295	1	36
525.635	1	19
525.975	1	33
526.316	1	13
526.656	1	26
526.996	1	24
527.337	1	32
527.677	1	25
528.017	1	19
528.357	1	24
528.698	1	20
529.038	1	16
529.378	1	22
529.718	1	31
530.058	1	21
530.399	1	25
530.739	1	23
531.079	1	32
531.419	1	20
531.760	1	21
532.100	1	23
532.440	1	35
532.780	1	16
533.120	1	25
533.461	1	21
533.801	1	37
534.141	1	26
534.481	1	26
534.821	1	37
535.162	1	26
535.502	1	25
535.842	1	30
536.182	1	21
536.522	1	17
536.862	1	20
537.203	1	14
537.543	1	28
537.883	1	25
538.223	1	29
538.563	1	25
538.903	1	29
539.243	1	23
539.584	1	25
539.924	1	14
540.264	1	25
540.604	1	33
540.944	1	22
541.284	1	24
541.624	1	35
541.964	1	25
542.305	1	13
542.645	1	11
542.985	1	23
543.325	1	26
543.665	1	13
544.005	1	29
544.345	1	24
544.685	1	34
545.025	1	18
545.365	1	17
545.705	1	23
546.045	1	26
546.386	1	12
546.726	1	20
547.066	1	19
547.406	1	10
547.746	1	23
548.086	1	18
548.426	1	19
548.766	1	24
549.106	1	19
549.446	1	10
549.786	1	20
550.126	1	22
550.466	1	32
550.806	1	35
551.146	1	26
551.486	1	22
551.826	1	22
552.166	1	36
552.506	1	18
552.846	1	15
553.186	1	14
553.526	1	23
553.866	1	9
554.206	1	18
554.546	1	19
554.886	1	23
555.226	1	24
555.566	1	17
555.906	1	21
556.246	1	18
556.586	1	18
556.926	1	11
557.266	1	19
557.606	1	16
557.946	1	25
558.286	1	26
558.626	1	13
558.966	1	11
559.306	1	18
559.646	1	20
559.986	1	11
560.325	1	10
560.665	1	14
561.005	1	6
561.345	1	24
561.685	1	3
562.025	1	11
562.365	1	24
562.705	1	16
563.045	1	3
563.385	1	26
563.725	1	3
564.064	1	29
564.404	1	7
564.744	1	14
565.084	1	11
565.424	1	6
565.764	1	16
566.104	1	9
566.444	1	18
566.783	1	17
567.123	1	9
567.463	1	12
567.803	1	19
568.143	1	20
568.483	1	22
568.823	1	8
569.162	1	18
569.502	1	15
569.842	1	5
570.182	1	8
570.522	1	2
570.862	1	25
571.201	1	24
571.541	1	1
571.881	1	6
572.221	1	23
572.561	1	11
572.900	1	9
573.240	1	6
573.580	1	13
573.920	1	11
574.260	1	15
574.599	1	20
574.939	1	20
575.279	1	-3
575.619	1	14
575.959	1	9
576.298	1	11
576.638	1	3
576.978	1	7
577.318	1	14
577.657	1	18
577.997	1	22
578.337	1	7
578.677	1	18
579.016	1	6
579.356	1	16
579.696	1	15
580.036	1	9
580.375	1	8
580.715	1	6
581.055	1	4
581.394	1	2
581.734	1	17
582.074	1	10
582.414	1	11
582.753	1	6
583.093	1	4
583.433	1	13
583.772	1	9
584.112	1	14
584.452	1	19
584.791	1	8
585.131	1	17
585.471	1	17
585.811	1	8
586.150	1	16
586.490	1	13
586.830	1	3
587.169	1	15
587.509	1	4
587.849	1	10
588.188	1	7
588.528	1	17
588.867	1	6
589.207	1	0
589.547	1	4
589.886	1	5
590.226	1	17
590.566	1	10
590.905	1	16
591.245	1	1
591.585	1	7
591.924	1	8
592.264	1	14
592.603	1	-3
592.943	1	9
593.283	1	2
593.622	1	19
593.962	1	7
594.301	1	-4
594.641	1	16
594.981	1	-1
595.320	1	9
595.660	1	6
595.999	1	10
596.339	1	8
596.678	1	5
597.018	1	5
597.358	1	-6
597.697	1	5
598.037	1	12
598.376	1	5
598.716	1	5
599.055	1	9
599.395	1	0
599.734	1	9
600.074	1	2
600.413	1	9
600.753	1	1
601.092	1	16
601.432	1	-4
601.771	1	12
602.111	1	5
602.451	1	6
602.790	1	0
603.130	1	7
603.469	1	3
603.809	1	7
604.148	1	13
604.487	1	11
604.827	1	7
605.166	1	9
605.506	1	13
605.845	1	-6
606.185	1	10
606.524	1	14
606.864	1	16
607.203	1	10
607.543	1	-5
607.882	1	16
608.222	1	5
608.561	1	4
608.901	1	11
609.240	1	-5
609.579	1	20
609.919	1	7
610.258	1	-6
610.598	1	0
610.937	1	8
611.277	1	11
611.616	1	-5
611.955	1	-6
612.295	1	11
612.634	1	5
612.974	1	14
613.313	1	-1
613.652	1	1
613.992	1	6
614.331	1	5
614.671	1	4
615.010	1	4
615.349	1	7
615.689	1	9
616.028	1	4
616.368	1	11
616.707	1	12
617.046	1	5
617.386	1	7
617.725	1	5
618.064	1	2
618.404	1	5
618.743	1	1
619.082	1	-4
619.422	1	3
619.761	1	14
620.100	1	4
620.440	1	12
620.779	1	3
621.118	1	9
621.458	1	18
621.797	1	2
622.136	1	5
622.476	1	4
622.815	1	5
623.154	1	-1
623.494	1	-1
623.833	1	12
624.172	1	-3
624.511	1	10
624.851	1	6
625.190	1	5
625.529	1	0
625.869	1	-1
626.208	1	4
626.547	1	1
626.886	1	4
627.226	1	6
627.565	1	2
627.904	1	7
628.243	1	20
628.583	1	-10
628.922	1	-3
629.261	1	-12
629.600	1	7
629.940	1	8
630.279	1	15
630.618	1	1
630.957	1	4
631.297	1	5
631.636	1	8
631.975	1	13
632.314	1	0
632.653	1	4
632.993	1	7
633.332	1	-10
633.671	1	-5
634.010	1	-7
634.349	1	3
634.689	1	16
635.028	1	13
635.367	1	-1
635.706	1	8
636.045	1	13
636.384	1	7
636.724	1	5
637.063	1	1
637.402	1	-1
637.741	1	6
638.080	1	16
638.419	1	11
638.759	1	6
639.098	1	3
639.437	1	16
639.776	1	-5
640.115	1	6
640.454	1	5
640.793	1	-6
641.132	1	11
641.472	1	-4
641.811	1	6
642.150	1	-8
642.489	1	-1
642.828	1	0
643.167	1	3
643.506	1	6
643.845	1	-8
644.184	1	2
644.524	1	-1
644.863	1	6
645.202	1	11
645.541	1	2
645.880	1	12
646.219	1	9
646.558	1	0
646.897	1	5
647.236	1	-5
647.575	1	-3
647.914	1	3
648.253	1	2
648.592	1	2
648.931	1	-4
649.270	1	1
649.610	1	-6
649.949	1	8
650.288	1	2
650.627	1	19
650.966	1	10
651.305	1	4
651.644	1	8
651.983	1	-4
652.322	1	2
652.661	1	0
653.000	1	4
653.339	1	-3
653.678	1	2
654.017	1	4
654.356	1	-8
654.695	1	6
655.034	1	5
655.373	1	2
655.712	1	6
656.051	1	6
656.390	1	0
656.729	1	-2
657.068	1	1
657.406	1	11
657.745	1	8
658.084	1	2
658.423	1	1
658.762	1	13
659.101	1	5
659.440	1	-5
659.779	1	4
660.118	1	4
660.457	1	6
660.796	1	9
661.135	1	21
661.474	1	8
661.813	1	0
662.152	1	5
662.491	1	16
662.829	1	11
663.168	1	-1
663.507	1	8
663.846	1	10
664.185	1	-8
664.524	1	3
664.863	1	2
665.202	1	-1
665.541	1	1
665.879	1	0
666.218	1	7
666.557	1	5
666.896	1	4
667.235	1	6
667.574	1	22
667.913	1	6
668.251	1	-1
668.590	1	5
668.929	1	6
669.268	1	8
669.607	1	-3
669.946	1	14
670.285	1	7
670.623	1	13
670.962	1	6
671.301	1	2
671.640	1	-1
671.979	1	9
672.317	1	7
672.656	1	2
672.995	1	7
673.334	1	0
673.673	1	8
674.011	1	7
674.350	1	17
674.689	1	14
675.028	1	5
675.367	1	1
675.705	1	9
676.044	1	14
676.383	1	15
676.722	1	-1
677.060	1	9
677.399	1	4
677.738	1	-2
678.077	1	15
678.416	1	17
678.754	1	10
679.093	1	0
679.432	1	7
679.771	1	8
680.109	1	7
680.448	1	14
680.787	1	5
681.125	1	7
681.464	1	-4
681.803	1	-8
682.142	1	4
682.480	1	15
682.819	1	5
683.158	1	-1
683.496	1	4
683.835	1	2
684.174	1	13
684.512	1	6
684.851	1	0
685.190	1	3
685.529	1	4
685.867	1	2
686.206	1	7
686.545	1	4
686.883	1	0
687.222	1	-2
687.561	1	17
687.899	1	3
688.238	1	4
688.577	1	-2
688.746	1	6