File: Data/GaN_130K_350ms/GaN_sample F_spot6_UVVIS_130 K_200um_350 ms 2x2mm1_20.txt
340.368	1	4
340.710	1	12
341.052	1	-7
341.394	1	2
341.737	1	-1
342.079	1	5
342.421	1	2
342.763	1	-2
343.105	1	-3
343.447	1	6
343.789	1	6
344.131	1	12
344.473	1	-3
344.815	1	-5
345.157	1	-6
345.499	1	-6
345.841	1	-7
346.183	1	10
346.526	1	0
346.868	1	-1
347.210	1	0
347.552	1	-2
347.894	1	2
348.236	1	-3
348.578	1	0
348.920	1	4
349.262	1	4
349.604	1	7
349.946	1	7
350.288	1	-3
350.630	1	7
350.972	1	10
351.314	1	-6
351.656	1	5
351.998	1	8
352.340	1	0
352.682	1	3
353.024	1	1
353.366	1	5
353.708	1	0
354.050	1	2
354.392	1	8
354.734	1	-6
355.076	1	4
355.418	1	7
355.760	1	6
356.102	1	3
356.444	1	-3
356.785	1	9
357.127	1	7
357.469	1	0
357.811	1	5
358.153	1	2
358.495	1	0
358.837	1	1
359.179	1	4
359.521	1	4
359.863	1	1
360.205	1	0
360.547	1	0
360.889	1	-7
361.231	1	-8
361.572	1	3
361.914	1	3
362.256	1	-8
362.598	1	1
362.940	1	-10
363.282	1	5
363.624	1	5
363.966	1	0
364.308	1	9
364.649	1	6
364.991	1	1
365.333	1	-11
365.675	1	4
366.017	1	4
366.359	1	-7
366.701	1	1
367.042	1	1
367.384	1	2
367.726	1	-3
368.068	1	-1
368.410	1	-1
368.752	1	3
369.093	1	4
369.435	1	0
369.777	1	1
370.119	1	2
370.461	1	11
370.803	1	-2
371.144	1	6
371.486	1	6
371.828	1	8
372.170	1	-5
372.512	1	-3
372.853	1	-7
373.195	1	5
373.537	1	2
373.879	1	8
374.220	1	0
374.562	1	0
374.904	1	4
375.246	1	9
375.588	1	5
375.929	1	-17
376.271	1	11
376.613	1	-6
376.955	1	4
377.296	1	-4
377.638	1	-6
377.980	1	-8
378.321	1	4
378.663	1	-7
379.005	1	3
379.347	1	-2
379.688	1	1
380.030	1	0
380.372	1	2
380.714	1	13
381.055	1	4
381.397	1	5
381.739	1	6
382.080	1	-8
382.422	1	2
382.764	1	2
383.105	1	-2
383.447	1	2
383.789	1	-3
384.130	1	1
384.472	1	8
384.814	1	4
385.156	1	2
385.497	1	0
385.839	1	4
386.180	1	2
386.522	1	0
386.864	1	1
387.205	1	0
387.547	1	1
387.889	1	-9
388.230	1	0
388.572	1	16
388.914	1	3
389.255	1	2
389.597	1	-9
389.939	1	1
390.280	1	5
390.622	1	6
390.963	1	-4
391.305	1	3
391.647	1	3
391.988	1	11
392.330	1	-3
392.671	1	-3
393.013	1	3
393.355	1	6
393.696	1	-1
394.038	1	9
394.379	1	5
394.721	1	11
395.062	1	-9
395.404	1	-5
395.746	1	5
396.087	1	5
396.429	1	-4
396.770	1	6
397.112	1	3
397.453	1	4
397.795	1	-4
398.136	1	6
398.478	1	2
398.819	1	-3
399.161	1	9
399.503	1	2
399.844	1	-4
400.186	1	-4
400.527	1	0
400.869	1	8
401.210	1	-11
401.552	1	8
401.893	1	-11
402.235	1	10
402.576	1	3
402.918	1	9
403.259	1	-11
403.601	1	-3
403.942	1	5
404.284	1	-10
404.625	1	11
404.967	1	-2
405.308	1	0
405.649	1	2
405.991	1	5
406.332	1	6
406.674	1	3
407.015	1	2
407.357	1	-10
407.698	1	-4
408.040	1	-2
408.381	1	6
408.722	1	2
409.064	1	7
409.405	1	-1
409.747	1	-5
410.088	1	3
410.430	1	11
410.771	1	-6
411.112	1	3
411.454	1	2
411.795	1	9
412.137	1	-5
412.478	1	-1
412.819	1	8
413.161	1	3
413.502	1	9
413.844	1	-4
414.185	1	11
414.526	1	8
414.868	1	-4
415.209	1	-5
415.550	1	1
415.892	1	8
416.233	1	-7
416.575	1	1
416.916	1	-3
417.257	1	2
417.599	1	-2
417.940	1	3
418.281	1	-3
418.623	1	4
418.964	1	-6
419.305	1	1
419.647	1	15
419.988	1	2
420.329	1	6
420.671	1	-10
421.012	1	1
421.353	1	-11
421.695	1	-1
422.036	1	6
422.377	1	3
422.718	1	-1
423.060	1	11
423.401	1	5
423.742	1	-9
424.084	1	11
424.425	1	7
424.766	1	-2
425.107	1	1
425.449	1	0
425.790	1	4
426.131	1	6
426.472	1	-9
426.814	1	9
427.155	1	-14
427.496	1	-4
427.837	1	1
428.179	1	-6
428.520	1	3
428.861	1	3
429.202	1	-2
429.544	1	13
429.885	1	0
430.226	1	-5
430.567	1	2
430.909	1	9
431.250	1	2
431.591	1	-2
431.932	1	-4
432.273	1	2
432.615	1	12
432.956	1	-2
433.297	1	11
433.638	1	4
433.979	1	1
434.320	1	0
434.662	1	-4
435.003	1	13
435.344	1	6
435.685	1	-6
436.026	1	1
436.368	1	-2
436.709	1	-11
437.050	1	4
437.391	1	10
437.732	1	8
438.073	1	10
438.414	1	-3
438.756	1	-1
439.097	1	5
439.438	1	11
439.779	1	17
440.120	1	0
440.461	1	5
440.802	1	-16
441.143	1	-2
441.485	1	11
441.826	1	6
442.167	1	-6
442.508	1	4
442.849	1	7
443.190	1	0
443.531	1	2
443.872	1	10
444.213	1	1
444.554	1	5
444.895	1	-5
445.237	1	-2
445.578	1	-4
445.919	1	-1
446.260	1	-8
446.601	1	3
446.942	1	10
447.283	1	7
447.624	1	2
447.965	1	-1
448.306	1	-2
448.647	1	12
448.988	1	2
449.329	1	-4
449.670	1	-3
450.011	1	-3
450.352	1	5
450.693	1	-4
451.034	1	-5
451.375	1	0
451.716	1	-2
452.057	1	13
452.398	1	-8
452.739	1	0
453.080	1	-3
453.421	1	2
453.762	1	4
454.103	1	-2
454.444	1	-1
454.785	1	2
455.126	1	3
455.467	1	1
455.808	1	20
456.149	1	-9
456.490	1	1
456.831	1	2
457.172	1	0
457.513	1	-14
457.854	1	-1
458.195	1	3
458.536	1	1
458.877	1	19
459.218	1	9
459.559	1	2
459.899	1	1
460.240	1	3
460.581	1	-4
460.922	1	6
461.263	1	0
461.604	1	-15
461.945	1	8
462.286	1	3
462.627	1	-5
462.968	1	-5
463.309	1	1
463.649	1	-9
463.990	1	-4
464.331	1	4
464.672	1	12
465.013	1	-8
465.354	1	1
465.695	1	9
466.036	1	0
466.376	1	-6
466.717	1	8
467.058	1	-6
467.399	1	-7
467.740	1	15
468.081	1	6
468.422	1	3
468.762	1	-5
469.103	1	3
469.444	1	2
469.785	1	0
470.126	1	-12
470.467	1	8
470.807	1	-1
471.148	1	5
471.489	1	-6
471.830	1	-1
472.171	1	7
472.511	1	1
472.852	1	6
473.193	1	6
473.534	1	7
473.875	1	18
474.215	1	0
474.556	1	11
474.897	1	2
475.238	1	11
475.578	1	6
475.919	1	-8
476.260	1	5
476.601	1	2
476.942	1	4
477.282	1	11
477.623	1	0
477.964	1	0
478.305	1	16
478.645	1	-1
478.986	1	2
479.327	1	5
479.667	1	1
480.008	1	-8
480.349	1	3
480.690	1	-3
481.030	1	-4
481.371	1	10
481.712	1	1
482.053	1	-4
482.393	1	10
482.734	1	2
483.075	1	15
483.415	1	3
483.756	1	0
484.097	1	0
484.437	1	5
484.778	1	6
485.119	1	6
485.459	1	-8
485.800	1	22
486.141	1	-7
486.481	1	-3
486.822	1	3
487.163	1	-1
487.503	1	-7
487.844	1	-7
488.185	1	1
488.525	1	3
488.866	1	4
489.207	1	-9
489.547	1	0
489.888	1	12
490.228	1	4
490.569	1	4
490.910	1	-4
491.250	1	1
491.591	1	-1
491.932	1	8
492.272	1	3
492.613	1	4
492.953	1	3
493.294	1	-2
493.635	1	2
493.975	1	11
494.316	1	-2
494.656	1	0
494.997	1	0
495.337	1	1
495.678	1	-1
496.019	1	1
496.359	1	14
496.700	1	-8
497.040	1	6
497.381	1	1
497.721	1	-9
498.062	1	-10
498.403	1	-1
498.743	1	6
499.084	1	10
499.424	1	-3
499.765	1	-2
500.105	1	3
500.446	1	8
500.786	1	11
501.127	1	7
501.467	1	-1
501.808	1	4
502.148	1	7
502.489	1	-4
502.829	1	-5
503.170	1	-4
503.510	1	8
503.851	1	-3
504.191	1	2
504.532	1	2
504.872	1	1
505.213	1	3
505.553	1	2
505.894	1	2
506.234	1	-7
506.575	1	2
506.915	1	-3
507.256	1	10
507.596	1	-2
507.936	1	-1
508.277	1	2
508.617	1	-5
508.958	1	3
509.298	1	-2
509.639	1	0
509.979	1	-7
510.319	1	11
510.660	1	-12
511.000	1	-1
511.341	1	-3
511.681	1	5
512.022	1	4
512.362	1	-9
512.702	1	15
513.043	1	1
513.383	1	3
513.724	1	-8
514.064	1	-6
514.404	1	5
514.745	1	-3
515.085	1	7
515.425	1	0
515.766	1	12
516.106	1	-1
516.447	1	1
516.787	1	2
517.127	1	-2
517.468	1	6
517.808	1	6
518.148	1	5
518.489	1	5
518.829	1	5
519.169	1	-4
519.510	1	-7
519.850	1	18
520.190	1	5
520.531	1	8
520.871	1	-4
521.211	1	0
521.552	1	-2
521.892	1	-2
522.232	1	-11
522.573	1	1
522.913	1	3
523.253	1	3
523.593	1	9
523.934	1	-1
524.274	1	-9
524.614	1	5
524.955	1	6
525.295	1	5
525.635	1	-5
525.975	1	11
526.316	1	4
526.656	1	1
526.996	1	-1
527.337	1	6
527.677	1	0
528.017	1	3
528.357	1	-2
528.698	1	-3
529.038	1	-3
529.378	1	-1
529.718	1	4
530.058	1	-2
530.399	1	1
530.739	1	0
531.079	1	1
531.419	1	2
531.760	1	-5
532.100	1	3
532.440	1	4
532.780	1	-1
533.120	1	1
533.461	1	-4
533.801	1	8
534.141	1	5
534.481	1	3
534.821	1	6
535.162	1	9
535.502	1	-5
535.842	1	-1
536.182	1	0
536.522	1	-16
536.862	1	3
537.203	1	-6
537.543	1	-1
537.883	1	-7
538.223	1	8
538.563	1	13
538.903	1	11
539.243	1	-3
539.584	1	-5
539.924	1	0
540.264	1	-7
540.604	1	3
540.944	1	5
541.284	1	2
541.624	1	12
541.964	1	-10
542.305	1	-2
542.645	1	-2
542.985	1	-6
543.325	1	-3
543.665	1	4
544.005	1	9
544.345	1	3
544.685	1	11
545.025	1	-9
545.365	1	3
545.705	1	-1
546.045	1	4
546.386	1	-9
546.726	1	-10
547.066	1	-1
547.406	1	-13
547.746	1	-1
548.086	1	-6
548.426	1	4
548.766	1	8
549.106	1	-4
549.446	1	-8
549.786	1	1
550.126	1	8
550.466	1	3
550.806	1	12
551.146	1	1
551.486	1	1
551.826	1	2
552.166	1	6
552.506	1	6
552.846	1	2
553.186	1	9
553.526	1	9
553.866	1	-8
554.206	1	-5
554.546	1	3
554.886	1	4
555.226	1	0
555.566	1	-3
555.906	1	-6
556.246	1	1
556.586	1	1
556.926	1	-5
557.266	1	-1
557.606	1	3
557.946	1	5
558.286	1	15
558.626	1	-15
558.966	1	3
559.306	1	-4
559.646	1	1
559.986	1	-4
560.325	1	-8
560.665	1	4
561.005	1	-7
561.345	1	7
561.685	1	2
562.025	1	5
562.365	1	1
562.705	1	-7
563.045	1	-12
563.385	1	7
563.725	1	6
564.064	1	-1
564.404	1	7
564.744	1	-1
565.084	1	-5
565.424	1	-5
565.764	1	8
566.104	1	-1
566.444	1	8
566.783	1	-2
567.123	1	1
567.463	1	3
567.803	1	1
568.143	1	8
568.483	1	2
568.823	1	1
569.162	1	9
569.502	1	1
569.842	1	-4
570.182	1	-2
570.522	1	-15
570.862	1	12
571.201	1	12
571.541	1	-6
571.881	1	-2
572.221	1	5
572.561	1	7
572.900	1	-7
573.240	1	0
573.580	1	-7
573.920	1	11
574.260	1	1
574.599	1	1
574.939	1	-1
575.279	1	-7
575.619	1	8
575.959	1	-7
576.298	1	-4
576.638	1	-12
576.978	1	-7
577.318	1	3
577.657	1	7
577.997	1	6
578.337	1	-6
578.677	1	16
579.016	1	0
579.356	1	7
579.696	1	-1
580.036	1	3
580.375	1	-2
580.715	1	3
581.055	1	5
581.394	1	2
581.734	1	2
582.074	1	7
582.414	1	-5
582.753	1	-1
583.093	1	-1
583.433	1	10
583.772	1	6
584.112	1	6
584.452	1	15
584.791	1	0
585.131	1	16
585.471	1	-1
585.811	1	8
586.150	1	7
586.490	1	4
586.830	1	-12
587.169	1	5
587.509	1	1
587.849	1	9
588.188	1	9
588.528	1	8
588.867	1	-2
589.207	1	2
589.547	1	-10
589.886	1	2
590.226	1	13
590.566	1	-1
590.905	1	1
591.245	1	4
591.585	1	1
591.924	1	-1
592.264	1	-6
592.603	1	6
592.943	1	4
593.283	1	-3
593.622	1	4
593.962	1	9
594.301	1	-8
594.641	1	13
594.981	1	-3
595.320	1	10
595.660	1	-2
595.999	1	6
596.339	1	6
596.678	1	-4
597.018	1	7
597.358	1	-3
597.697	1	-6
598.037	1	2
598.376	1	0
598.716	1	2
599.055	1	0
599.395	1	0
599.734	1	-5
600.074	1	10
600.413	1	2
600.753	1	-7
601.092	1	-5
601.432	1	-5
601.771	1	3
602.111	1	6
602.451	1	14
602.790	1	-9
603.130	1	1
603.469	1	1
603.809	1	3
604.148	1	12
604.487	1	12
604.827	1	1
605.166	1	8
605.506	1	-3
605.845	1	-5
606.185	1	7
606.524	1	-2
606.864	1	15
607.203	1	7
607.543	1	3
607.882	1	3
608.222	1	-1
608.561	1	-1
608.901	1	5
609.240	1	-11
609.579	1	5
609.919	1	4
610.258	1	2
610.598	1	-3
610.937	1	2
611.277	1	6
611.616	1	-4
611.955	1	-4
612.295	1	12
612.634	1	1
612.974	1	6
613.313	1	1
613.652	1	1
613.992	1	0
614.331	1	9
614.671	1	4
615.010	1	-7
615.349	1	1
615.689	1	6
616.028	1	16
616.368	1	6
616.707	1	7
617.046	1	14
617.386	1	0
617.725	1	2
618.064	1	2
618.404	1	-1
618.743	1	11
619.082	1	4
619.422	1	0
619.761	1	10
620.100	1	-5
620.440	1	2
620.779	1	4
621.118	1	-5
621.458	1	13
621.797	1	0
622.136	1	7
622.476	1	2
622.815	1	1
623.154	1	1
623.494	1	9
623.833	1	10
624.172	1	3
624.511	1	4
624.851	1	-3
625.190	1	-7
625.529	1	-6
625.869	1	-3
626.208	1	0
626.547	1	10
626.886	1	3
627.226	1	-3
627.565	1	-2
627.904	1	-1
628.243	1	3
628.583	1	-16
628.922	1	-3
629.261	1	-8
629.600	1	4
629.940	1	17
630.279	1	7
630.618	1	1
630.957	1	0
631.297	1	2
631.636	1	6
631.975	1	6
632.314	1	-7
632.653	1	-1
632.993	1	6
633.332	1	-2
633.671	1	-4
634.010	1	0
634.349	1	6
634.689	1	10
635.028	1	8
635.367	1	2
635.706	1	4
636.045	1	10
636.384	1	-1
636.724	1	2
637.063	1	5
637.402	1	-7
637.741	1	8
638.080	1	10
638.419	1	5
638.759	1	1
639.098	1	-9
639.437	1	9
639.776	1	4
640.115	1	4
640.454	1	-2
640.793	1	-9
641.132	1	9
641.472	1	3
641.811	1	-4
642.150	1	1
642.489	1	-11
642.828	1	0
643.167	1	1
643.506	1	17
643.845	1	0
644.184	1	5
644.524	1	-3
644.863	1	-1
645.202	1	8
645.541	1	-5
645.880	1	4
646.219	1	4
646.558	1	0
646.897	1	-1
647.236	1	-6
647.575	1	-10
647.914	1	-3
648.253	1	-3
648.592	1	-3
648.931	1	-5
649.270	1	-6
649.610	1	-4
649.949	1	9
650.288	1	15
650.627	1	4
650.966	1	-3
651.305	1	-13
651.644	1	7
651.983	1	-10
652.322	1	-5
652.661	1	-11
653.000	1	2
653.339	1	6
653.678	1	-6
654.017	1	-9
654.356	1	2
654.695	1	-6
655.034	1	-2
655.373	1	-2
655.712	1	-4
656.051	1	3
656.390	1	1
656.729	1	-1
657.068	1	-5
657.406	1	-3
657.745	1	-5
658.084	1	1
658.423	1	1
658.762	1	8
659.101	1	-1
659.440	1	-7
659.779	1	-1
660.118	1	-11
660.457	1	-1
660.796	1	6
661.135	1	8
661.474	1	3
661.813	1	-8
662.152	1	-3
662.491	1	11
662.829	1	8
663.168	1	-2
663.507	1	0
663.846	1	3
664.185	1	-4
664.524	1	-4
664.863	1	-1
665.202	1	-10
665.541	1	-1
665.879	1	3
666.218	1	-3
666.557	1	-1
666.896	1	4
667.235	1	1
667.574	1	17
667.913	1	8
668.251	1	-5
668.590	1	1
668.929	1	12
669.268	1	2
669.607	1	4
669.946	1	16
670.285	1	-3
670.623	1	13
670.962	1	-4
671.301	1	-7
671.640	1	-8
671.979	1	2
672.317	1	-1
672.656	1	-3
672.995	1	3
673.334	1	-6
673.673	1	3
674.011	1	-4
674.350	1	-5
674.689	1	1
675.028	1	3
675.367	1	-5
675.705	1	9
676.044	1	3
676.383	1	7
676.722	1	-2
677.060	1	2
677.399	1	-5
677.738	1	0
678.077	1	4
678.416	1	9
678.754	1	4
679.093	1	-5
679.432	1	3
679.771	1	2
680.109	1	-1
680.448	1	2
680.787	1	5
681.125	1	8
681.464	1	-1
681.803	1	-6
682.142	1	0
682.480	1	9
682.819	1	3
683.158	1	-3
683.496	1	-1
683.835	1	-5
684.174	1	1
684.512	1	18
684.851	1	-7
685.190	1	0
685.529	1	-8
685.867	1	-7
686.206	1	4
686.545	1	5
686.883	1	-1
687.222	1	5
687.561	1	5
687.899	1	-8
688.238	1	9
688.577	1	3
688.746	1	5