File: Data/GaN_130K_350ms/GaN_sample F_spot6_UVVIS_130 K_200um_350 ms 2x2mm1_278.txt
340.368	1	3
340.710	1	7
341.052	1	-7
341.394	1	-3
341.737	1	4
342.079	1	-3
342.421	1	10
342.763	1	6
343.105	1	-2
343.447	1	13
343.789	1	-4
344.131	1	2
344.473	1	4
344.815	1	-8
345.157	1	-1
345.499	1	-4
345.841	1	3
346.183	1	11
346.526	1	3
346.868	1	4
347.210	1	2
347.552	1	-6
347.894	1	-2
348.236	1	-3
348.578	1	-1
348.920	1	10
349.262	1	6
349.604	1	4
349.946	1	5
350.288	1	-11
350.630	1	9
350.972	1	7
351.314	1	4
351.656	1	4
351.998	1	1
352.340	1	9
352.682	1	-2
353.024	1	-9
353.366	1	3
353.708	1	1
354.050	1	-4
354.392	1	0
354.734	1	-2
355.076	1	-4
355.418	1	12
355.760	1	4
356.102	1	-1
356.444	1	-2
356.785	1	10
357.127	1	6
357.469	1	-2
357.811	1	3
358.153	1	3
358.495	1	8
358.837	1	11
359.179	1	8
359.521	1	-1
359.863	1	-5
360.205	1	-3
360.547	1	-4
360.889	1	2
361.231	1	-2
361.572	1	3
361.914	1	8
362.256	1	2
362.598	1	19
362.940	1	-9
363.282	1	12
363.624	1	14
363.966	1	15
364.308	1	6
364.649	1	11
364.991	1	1
365.333	1	4
365.675	1	7
366.017	1	16
366.359	1	12
366.701	1	6
367.042	1	12
367.384	1	17
367.726	1	11
368.068	1	-5
368.410	1	8
368.752	1	12
369.093	1	5
369.435	1	8
369.777	1	13
370.119	1	20
370.461	1	4
370.803	1	7
371.144	1	12
371.486	1	12
371.828	1	15
372.170	1	7
372.512	1	16
372.853	1	2
373.195	1	9
373.537	1	-2
373.879	1	3
374.220	1	-7
374.562	1	-5
374.904	1	9
375.246	1	13
375.588	1	2
375.929	1	1
376.271	1	7
376.613	1	5
376.955	1	8
377.296	1	4
377.638	1	1
377.980	1	-7
378.321	1	4
378.663	1	5
379.005	1	17
379.347	1	1
379.688	1	2
380.030	1	7
380.372	1	7
380.714	1	13
381.055	1	3
381.397	1	1
381.739	1	13
382.080	1	-1
382.422	1	7
382.764	1	3
383.105	1	6
383.447	1	8
383.789	1	11
384.130	1	12
384.472	1	1
384.814	1	8
385.156	1	4
385.497	1	4
385.839	1	5
386.180	1	4
386.522	1	2
386.864	1	13
387.205	1	-1
387.547	1	8
387.889	1	1
388.230	1	2
388.572	1	7
388.914	1	-5
389.255	1	2
389.597	1	-5
389.939	1	11
390.280	1	5
390.622	1	-3
390.963	1	3
391.305	1	2
391.647	1	-3
391.988	1	3
392.330	1	2
392.671	1	-5
393.013	1	2
393.355	1	4
393.696	1	6
394.038	1	4
394.379	1	11
394.721	1	7
395.062	1	3
395.404	1	-11
395.746	1	3
396.087	1	18
396.429	1	11
396.770	1	5
397.112	1	8
397.453	1	8
397.795	1	-4
398.136	1	3
398.478	1	3
398.819	1	-12
399.161	1	15
399.503	1	8
399.844	1	-3
400.186	1	5
400.527	1	8
400.869	1	-3
401.210	1	1
401.552	1	8
401.893	1	-19
402.235	1	4
402.576	1	4
402.918	1	9
403.259	1	4
403.601	1	5
403.942	1	1
404.284	1	0
404.625	1	12
404.967	1	2
405.308	1	-2
405.649	1	-2
405.991	1	4
406.332	1	9
406.674	1	13
407.015	1	5
407.357	1	-2
407.698	1	3
408.040	1	4
408.381	1	8
408.722	1	2
409.064	1	8
409.405	1	7
409.747	1	-1
410.088	1	20
410.430	1	15
410.771	1	-5
411.112	1	2
411.454	1	3
411.795	1	6
412.137	1	-3
412.478	1	0
412.819	1	5
413.161	1	6
413.502	1	4
413.844	1	8
414.185	1	8
414.526	1	5
414.868	1	8
415.209	1	-1
415.550	1	6
415.892	1	6
416.233	1	4
416.575	1	13
416.916	1	-2
417.257	1	-1
417.599	1	-2
417.940	1	8
418.281	1	-4
418.623	1	3
418.964	1	0
419.305	1	-1
419.647	1	13
419.988	1	12
420.329	1	17
420.671	1	-2
421.012	1	-1
421.353	1	3
421.695	1	-2
422.036	1	6
422.377	1	12
422.718	1	0
423.060	1	6
423.401	1	8
423.742	1	4
424.084	1	4
424.425	1	7
424.766	1	2
425.107	1	10
425.449	1	7
425.790	1	14
426.131	1	15
426.472	1	1
426.814	1	6
427.155	1	-6
427.496	1	6
427.837	1	6
428.179	1	7
428.520	1	7
428.861	1	-3
429.202	1	5
429.544	1	7
429.885	1	6
430.226	1	0
430.567	1	3
430.909	1	7
431.250	1	9
431.591	1	1
431.932	1	-2
432.273	1	1
432.615	1	9
432.956	1	4
433.297	1	14
433.638	1	8
433.979	1	11
434.320	1	9
434.662	1	-1
435.003	1	13
435.344	1	13
435.685	1	-7
436.026	1	6
436.368	1	2
436.709	1	3
437.050	1	11
437.391	1	13
437.732	1	9
438.073	1	5
438.414	1	-4
438.756	1	1
439.097	1	0
439.438	1	0
439.779	1	15
440.120	1	-4
440.461	1	10
440.802	1	0
441.143	1	-1
441.485	1	11
441.826	1	1
442.167	1	0
442.508	1	2
442.849	1	6
443.190	1	6
443.531	1	12
443.872	1	8
444.213	1	4
444.554	1	6
444.895	1	-10
445.237	1	0
445.578	1	1
445.919	1	2
446.260	1	5
446.601	1	13
446.942	1	9
447.283	1	8
447.624	1	5
447.965	1	1
448.306	1	3
448.647	1	15
448.988	1	1
449.329	1	-1
449.670	1	1
450.011	1	-12
450.352	1	12
450.693	1	2
451.034	1	-4
451.375	1	12
451.716	1	-5
452.057	1	15
452.398	1	-5
452.739	1	1
453.080	1	-3
453.421	1	-8
453.762	1	9
454.103	1	-1
454.444	1	12
454.785	1	15
455.126	1	-10
455.467	1	-5
455.808	1	3
456.149	1	-6
456.490	1	5
456.831	1	2
457.172	1	-2
457.513	1	0
457.854	1	1
458.195	1	-10
458.536	1	5
458.877	1	14
459.218	1	2
459.559	1	-2
459.899	1	-2
460.240	1	14
460.581	1	-7
460.922	1	3
461.263	1	10
461.604	1	-1
461.945	1	8
462.286	1	6
462.627	1	3
462.968	1	-4
463.309	1	6
463.649	1	-2
463.990	1	8
464.331	1	7
464.672	1	1
465.013	1	-6
465.354	1	3
465.695	1	14
466.036	1	7
466.376	1	5
466.717	1	3
467.058	1	11
467.399	1	-4
467.740	1	11
468.081	1	11
468.422	1	8
468.762	1	-2
469.103	1	6
469.444	1	6
469.785	1	4
470.126	1	-12
470.467	1	1
470.807	1	7
471.148	1	-3
471.489	1	3
471.830	1	4
472.171	1	-1
472.511	1	3
472.852	1	12
473.193	1	4
473.534	1	-2
473.875	1	15
474.215	1	4
474.556	1	2
474.897	1	-6
475.238	1	12
475.578	1	-2
475.919	1	1
476.260	1	5
476.601	1	0
476.942	1	1
477.282	1	3
477.623	1	4
477.964	1	1
478.305	1	7
478.645	1	2
478.986	1	-4
479.327	1	2
479.667	1	4
480.008	1	4
480.349	1	2
480.690	1	4
481.030	1	1
481.371	1	4
481.712	1	1
482.053	1	-4
482.393	1	7
482.734	1	6
483.075	1	10
483.415	1	-3
483.756	1	-1
484.097	1	4
484.437	1	11
484.778	1	9
485.119	1	-1
485.459	1	-3
485.800	1	9
486.141	1	3
486.481	1	-5
486.822	1	14
487.163	1	4
487.503	1	-4
487.844	1	4
488.185	1	5
488.525	1	7
488.866	1	2
489.207	1	2
489.547	1	1
489.888	1	12
490.228	1	10
490.569	1	1
490.910	1	-5
491.250	1	8
491.591	1	-7
491.932	1	8
492.272	1	1
492.613	1	-5
492.953	1	7
493.294	1	7
493.635	1	9
493.975	1	3
494.316	1	3
494.656	1	7
494.997	1	-2
495.337	1	3
495.678	1	0
496.019	1	-2
496.359	1	3
496.700	1	6
497.040	1	1
497.381	1	7
497.721	1	-6
498.062	1	-8
498.403	1	-8
498.743	1	14
499.084	1	10
499.424	1	-6
499.765	1	-2
500.105	1	5
500.446	1	4
500.786	1	2
501.127	1	4
501.467	1	-2
501.808	1	1
502.148	1	4
502.489	1	4
502.829	1	1
503.170	1	-9
503.510	1	6
503.851	1	3
504.191	1	2
504.532	1	-8
504.872	1	6
505.213	1	4
505.553	1	4
505.894	1	8
506.234	1	-5
506.575	1	2
506.915	1	-2
507.256	1	12
507.596	1	-1
507.936	1	-7
508.277	1	2
508.617	1	-11
508.958	1	10
509.298	1	9
509.639	1	11
509.979	1	-6
510.319	1	14
510.660	1	-4
511.000	1	10
511.341	1	-2
511.681	1	5
512.022	1	12
512.362	1	4
512.702	1	11
513.043	1	6
513.383	1	8
513.724	1	-1
514.064	1	0
514.404	1	10
514.745	1	-2
515.085	1	13
515.425	1	5
515.766	1	9
516.106	1	-1
516.447	1	0
516.787	1	2
517.127	1	5
517.468	1	7
517.808	1	1
518.148	1	5
518.489	1	17
518.829	1	6
519.169	1	5
519.510	1	1
519.850	1	12
520.190	1	15
520.531	1	11
520.871	1	-2
521.211	1	7
521.552	1	-2
521.892	1	5
522.232	1	-11
522.573	1	-8
522.913	1	12
523.253	1	11
523.593	1	10
523.934	1	2
524.274	1	0
524.614	1	15
524.955	1	7
525.295	1	0
525.635	1	0
525.975	1	11
526.316	1	-3
526.656	1	4
526.996	1	-2
527.337	1	5
527.677	1	-6
528.017	1	8
528.357	1	10
528.698	1	4
529.038	1	-3
529.378	1	3
529.718	1	7
530.058	1	0
530.399	1	-2
530.739	1	2
531.079	1	10
531.419	1	6
531.760	1	-8
532.100	1	8
532.440	1	10
532.780	1	9
533.120	1	6
533.461	1	2
533.801	1	11
534.141	1	8
534.481	1	1
534.821	1	9
535.162	1	5
535.502	1	8
535.842	1	4
536.182	1	7
536.522	1	2
536.862	1	3
537.203	1	5
537.543	1	4
537.883	1	-3
538.223	1	7
538.563	1	8
538.903	1	8
539.243	1	0
539.584	1	6
539.924	1	6
540.264	1	1
540.604	1	10
540.944	1	10
541.284	1	2
541.624	1	14
541.964	1	1
542.305	1	10
542.645	1	-7
542.985	1	7
543.325	1	8
543.665	1	10
544.005	1	3
544.345	1	4
544.685	1	7
545.025	1	6
545.365	1	2
545.705	1	2
546.045	1	4
546.386	1	7
546.726	1	-5
547.066	1	6
547.406	1	4
547.746	1	-2
548.086	1	0
548.426	1	4
548.766	1	11
549.106	1	0
549.446	1	9
549.786	1	3
550.126	1	16
550.466	1	11
550.806	1	13
551.146	1	9
551.486	1	5
551.826	1	7
552.166	1	12
552.506	1	-8
552.846	1	-3
553.186	1	7
553.526	1	0
553.866	1	-1
554.206	1	9
554.546	1	4
554.886	1	2
555.226	1	-1
555.566	1	4
555.906	1	2
556.246	1	4
556.586	1	0
556.926	1	7
557.266	1	3
557.606	1	-1
557.946	1	6
558.286	1	13
558.626	1	-6
558.966	1	-8
559.306	1	-2
559.646	1	0
559.986	1	4
560.325	1	-4
560.665	1	10
561.005	1	9
561.345	1	6
561.685	1	5
562.025	1	-1
562.365	1	1
562.705	1	6
563.045	1	-6
563.385	1	1
563.725	1	4
564.064	1	6
564.404	1	5
564.744	1	1
565.084	1	6
565.424	1	-9
565.764	1	6
566.104	1	3
566.444	1	16
566.783	1	0
567.123	1	-1
567.463	1	-3
567.803	1	14
568.143	1	11
568.483	1	5
568.823	1	5
569.162	1	9
569.502	1	8
569.842	1	5
570.182	1	-7
570.522	1	-13
570.862	1	8
571.201	1	7
571.541	1	-2
571.881	1	-3
572.221	1	11
572.561	1	6
572.900	1	11
573.240	1	-3
573.580	1	7
573.920	1	10
574.260	1	3
574.599	1	11
574.939	1	2
575.279	1	0
575.619	1	10
575.959	1	4
576.298	1	-10
576.638	1	4
576.978	1	-15
577.318	1	3
577.657	1	13
577.997	1	6
578.337	1	0
578.677	1	4
579.016	1	5
579.356	1	7
579.696	1	-5
580.036	1	5
580.375	1	-5
580.715	1	15
581.055	1	-2
581.394	1	2
581.734	1	3
582.074	1	-5
582.414	1	0
582.753	1	5
583.093	1	0
583.433	1	5
583.772	1	7
584.112	1	7
584.452	1	9
584.791	1	3
585.131	1	2
585.471	1	-3
585.811	1	-4
586.150	1	11
586.490	1	10
586.830	1	-10
587.169	1	8
587.509	1	-1
587.849	1	5
588.188	1	11
588.528	1	10
588.867	1	5
589.207	1	-2
589.547	1	-7
589.886	1	17
590.226	1	12
590.566	1	0
590.905	1	15
591.245	1	0
591.585	1	10
591.924	1	-1
592.264	1	-2
592.603	1	1
592.943	1	-1
593.283	1	-9
593.622	1	5
593.962	1	8
594.301	1	-3
594.641	1	10
594.981	1	-10
595.320	1	6
595.660	1	-3
595.999	1	12
596.339	1	7
596.678	1	-2
597.018	1	2
597.358	1	-2
597.697	1	0
598.037	1	8
598.376	1	2
598.716	1	4
599.055	1	-4
599.395	1	-6
599.734	1	2
600.074	1	-1
600.413	1	6
600.753	1	3
601.092	1	0
601.432	1	1
601.771	1	10
602.111	1	0
602.451	1	6
602.790	1	4
603.130	1	6
603.469	1	4
603.809	1	-1
604.148	1	7
604.487	1	13
604.827	1	-4
605.166	1	4
605.506	1	1
605.845	1	-1
606.185	1	3
606.524	1	10
606.864	1	12
607.203	1	-7
607.543	1	-3
607.882	1	5
608.222	1	-21
608.561	1	3
608.901	1	10
609.240	1	1
609.579	1	11
609.919	1	4
610.258	1	4
610.598	1	5
610.937	1	4
611.277	1	7
611.616	1	-1
611.955	1	-1
612.295	1	15
612.634	1	1
612.974	1	10
613.313	1	2
613.652	1	-11
613.992	1	2
614.331	1	3
614.671	1	1
615.010	1	-4
615.349	1	-1
615.689	1	2
616.028	1	10
616.368	1	5
616.707	1	12
617.046	1	6
617.386	1	0
617.725	1	2
618.064	1	5
618.404	1	3
618.743	1	3
619.082	1	2
619.422	1	6
619.761	1	9
620.100	1	-1
620.440	1	4
620.779	1	6
621.118	1	5
621.458	1	2
621.797	1	-3
622.136	1	5
622.476	1	6
622.815	1	5
623.154	1	11
623.494	1	7
623.833	1	7
624.172	1	-5
624.511	1	-1
624.851	1	2
625.190	1	-10
625.529	1	-6
625.869	1	1
626.208	1	0
626.547	1	-2
626.886	1	-5
627.226	1	5
627.565	1	12
627.904	1	6
628.243	1	3
628.583	1	-7
628.922	1	2
629.261	1	-12
629.600	1	-3
629.940	1	6
630.279	1	10
630.618	1	4
630.957	1	9
631.297	1	-2
631.636	1	4
631.975	1	3
632.314	1	2
632.653	1	4
632.993	1	7
633.332	1	0
633.671	1	-7
634.010	1	-5
634.349	1	2
634.689	1	9
635.028	1	5
635.367	1	2
635.706	1	2
636.045	1	18
636.384	1	-2
636.724	1	-1
637.063	1	8
637.402	1	-9
637.741	1	9
638.080	1	9
638.419	1	0
638.759	1	3
639.098	1	-6
639.437	1	-1
639.776	1	4
640.115	1	6
640.454	1	12
640.793	1	-10
641.132	1	16
641.472	1	1
641.811	1	4
642.150	1	-1
642.489	1	-2
642.828	1	-2
643.167	1	-2
643.506	1	6
643.845	1	-2
644.184	1	-9
644.524	1	-5
644.863	1	4
645.202	1	5
645.541	1	1
645.880	1	2
646.219	1	3
646.558	1	1
646.897	1	0
647.236	1	-6
647.575	1	-6
647.914	1	-4
648.253	1	-7
648.592	1	6
648.931	1	-5
649.270	1	0
649.610	1	-5
649.949	1	7
650.288	1	10
650.627	1	-2
650.966	1	0
651.305	1	0
651.644	1	-1
651.983	1	-7
652.322	1	0
652.661	1	4
653.000	1	1
653.339	1	5
653.678	1	0
654.017	1	-5
654.356	1	6
654.695	1	-4
655.034	1	4
655.373	1	0
655.712	1	3
656.051	1	0
656.390	1	-5
656.729	1	-3
657.068	1	-2
657.406	1	10
657.745	1	-6
658.084	1	-2
658.423	1	8
658.762	1	13
659.101	1	3
659.440	1	-9
659.779	1	4
660.118	1	-4
660.457	1	-2
660.796	1	4
661.135	1	5
661.474	1	6
661.813	1	-1
662.152	1	-5
662.491	1	21
662.829	1	2
663.168	1	-6
663.507	1	6
663.846	1	2
664.185	1	-1
664.524	1	-14
664.863	1	3
665.202	1	0
665.541	1	8
665.879	1	-5
666.218	1	0
666.557	1	1
666.896	1	9
667.235	1	1
667.574	1	21
667.913	1	5
668.251	1	9
668.590	1	4
668.929	1	10
669.268	1	-2
669.607	1	2
669.946	1	8
670.285	1	6
670.623	1	9
670.962	1	4
671.301	1	-3
671.640	1	-10
671.979	1	3
672.317	1	-5
672.656	1	2
672.995	1	5
673.334	1	-4
673.673	1	12
674.011	1	-3
674.350	1	8
674.689	1	5
675.028	1	5
675.367	1	-2
675.705	1	3
676.044	1	-3
676.383	1	0
676.722	1	-7
677.060	1	12
677.399	1	1
677.738	1	6
678.077	1	0
678.416	1	8
678.754	1	6
679.093	1	0
679.432	1	7
679.771	1	3
680.109	1	0
680.448	1	0
680.787	1	11
681.125	1	7
681.464	1	0
681.803	1	1
682.142	1	1
682.480	1	8
682.819	1	2
683.158	1	4
683.496	1	0
683.835	1	1
684.174	1	-2
684.512	1	12
684.851	1	7
685.190	1	-1
685.529	1	-7
685.867	1	1
686.206	1	8
686.545	1	0
686.883	1	5
687.222	1	5
687.561	1	10
687.899	1	7
688.238	1	11
688.577	1	5
688.746	1	12