File: Data/GaN_130K_350ms/GaN_sample F_spot6_UVVIS_130 K_200um_350 ms 2x2mm1_122.txt
340.368	1	7
340.710	1	8
341.052	1	2
341.394	1	-2
341.737	1	2
342.079	1	8
342.421	1	3
342.763	1	4
343.105	1	5
343.447	1	4
343.789	1	3
344.131	1	0
344.473	1	4
344.815	1	-1
345.157	1	-6
345.499	1	6
345.841	1	-1
346.183	1	8
346.526	1	1
346.868	1	4
347.210	1	4
347.552	1	7
347.894	1	4
348.236	1	1
348.578	1	10
348.920	1	4
349.262	1	15
349.604	1	7
349.946	1	12
350.288	1	-1
350.630	1	18
350.972	1	19
351.314	1	2
351.656	1	16
351.998	1	2
352.340	1	14
352.682	1	4
353.024	1	12
353.366	1	9
353.708	1	-9
354.050	1	9
354.392	1	12
354.734	1	8
355.076	1	3
355.418	1	4
355.760	1	11
356.102	1	15
356.444	1	4
356.785	1	15
357.127	1	12
357.469	1	10
357.811	1	7
358.153	1	2
358.495	1	20
358.837	1	16
359.179	1	10
359.521	1	6
359.863	1	17
360.205	1	13
360.547	1	21
360.889	1	15
361.231	1	14
361.572	1	33
361.914	1	30
362.256	1	20
362.598	1	30
362.940	1	34
363.282	1	32
363.624	1	41
363.966	1	39
364.308	1	49
364.649	1	51
364.991	1	43
365.333	1	43
365.675	1	51
366.017	1	51
366.359	1	65
366.701	1	58
367.042	1	68
367.384	1	73
367.726	1	59
368.068	1	56
368.410	1	59
368.752	1	78
369.093	1	61
369.435	1	47
369.777	1	57
370.119	1	61
370.461	1	55
370.803	1	55
371.144	1	49
371.486	1	47
371.828	1	63
372.170	1	45
372.512	1	47
372.853	1	30
373.195	1	36
373.537	1	40
373.879	1	48
374.220	1	34
374.562	1	27
374.904	1	35
375.246	1	39
375.588	1	42
375.929	1	17
376.271	1	27
376.613	1	35
376.955	1	28
377.296	1	26
377.638	1	15
377.980	1	19
378.321	1	17
378.663	1	20
379.005	1	26
379.347	1	26
379.688	1	10
380.030	1	17
380.372	1	34
380.714	1	25
381.055	1	15
381.397	1	16
381.739	1	18
382.080	1	15
382.422	1	22
382.764	1	12
383.105	1	13
383.447	1	11
383.789	1	18
384.130	1	17
384.472	1	23
384.814	1	30
385.156	1	22
385.497	1	14
385.839	1	14
386.180	1	20
386.522	1	16
386.864	1	9
387.205	1	5
387.547	1	20
387.889	1	6
388.230	1	10
388.572	1	20
388.914	1	16
389.255	1	10
389.597	1	-4
389.939	1	21
390.280	1	19
390.622	1	17
390.963	1	15
391.305	1	13
391.647	1	14
391.988	1	21
392.330	1	4
392.671	1	4
393.013	1	17
393.355	1	15
393.696	1	6
394.038	1	10
394.379	1	13
394.721	1	2
395.062	1	5
395.404	1	5
395.746	1	21
396.087	1	21
396.429	1	9
396.770	1	19
397.112	1	14
397.453	1	19
397.795	1	5
398.136	1	5
398.478	1	7
398.819	1	-2
399.161	1	19
399.503	1	26
399.844	1	6
400.186	1	6
400.527	1	9
400.869	1	11
401.210	1	-1
401.552	1	21
401.893	1	0
402.235	1	14
402.576	1	0
402.918	1	14
403.259	1	8
403.601	1	10
403.942	1	8
404.284	1	5
404.625	1	21
404.967	1	2
405.308	1	17
405.649	1	11
405.991	1	14
406.332	1	19
406.674	1	13
407.015	1	12
407.357	1	16
407.698	1	10
408.040	1	13
408.381	1	19
408.722	1	13
409.064	1	16
409.405	1	11
409.747	1	7
410.088	1	13
410.430	1	15
410.771	1	-6
411.112	1	12
411.454	1	9
411.795	1	8
412.137	1	-2
412.478	1	16
412.819	1	8
413.161	1	18
413.502	1	26
413.844	1	8
414.185	1	19
414.526	1	8
414.868	1	2
415.209	1	15
415.550	1	7
415.892	1	11
416.233	1	11
416.575	1	12
416.916	1	12
417.257	1	15
417.599	1	2
417.940	1	8
418.281	1	6
418.623	1	13
418.964	1	12
419.305	1	-4
419.647	1	13
419.988	1	16
420.329	1	14
420.671	1	-4
421.012	1	3
421.353	1	1
421.695	1	4
422.036	1	18
422.377	1	13
422.718	1	10
423.060	1	15
423.401	1	11
423.742	1	7
424.084	1	14
424.425	1	3
424.766	1	5
425.107	1	1
425.449	1	13
425.790	1	11
426.131	1	10
426.472	1	2
426.814	1	11
427.155	1	9
427.496	1	12
427.837	1	5
428.179	1	11
428.520	1	15
428.861	1	4
429.202	1	4
429.544	1	14
429.885	1	11
430.226	1	6
430.567	1	-1
430.909	1	8
431.250	1	11
431.591	1	4
431.932	1	13
432.273	1	7
432.615	1	20
432.956	1	3
433.297	1	18
433.638	1	2
433.979	1	6
434.320	1	0
434.662	1	4
435.003	1	18
435.344	1	11
435.685	1	-2
436.026	1	7
436.368	1	6
436.709	1	-3
437.050	1	18
437.391	1	16
437.732	1	5
438.073	1	15
438.414	1	6
438.756	1	2
439.097	1	10
439.438	1	14
439.779	1	10
440.120	1	10
440.461	1	7
440.802	1	-1
441.143	1	0
441.485	1	3
441.826	1	4
442.167	1	9
442.508	1	3
442.849	1	12
443.190	1	8
443.531	1	0
443.872	1	10
444.213	1	6
444.554	1	6
444.895	1	7
445.237	1	4
445.578	1	6
445.919	1	2
446.260	1	1
446.601	1	15
446.942	1	4
447.283	1	8
447.624	1	12
447.965	1	3
448.306	1	2
448.647	1	17
448.988	1	8
449.329	1	4
449.670	1	-3
450.011	1	-5
450.352	1	7
450.693	1	6
451.034	1	0
451.375	1	7
451.716	1	-2
452.057	1	11
452.398	1	-7
452.739	1	11
453.080	1	0
453.421	1	4
453.762	1	13
454.103	1	9
454.444	1	6
454.785	1	5
455.126	1	-11
455.467	1	16
455.808	1	16
456.149	1	-3
456.490	1	2
456.831	1	12
457.172	1	7
457.513	1	-4
457.854	1	6
458.195	1	-2
458.536	1	7
458.877	1	19
459.218	1	2
459.559	1	5
459.899	1	0
460.240	1	20
460.581	1	0
460.922	1	11
461.263	1	12
461.604	1	-13
461.945	1	8
462.286	1	7
462.627	1	1
462.968	1	-4
463.309	1	10
463.649	1	-2
463.990	1	0
464.331	1	4
464.672	1	-3
465.013	1	-5
465.354	1	1
465.695	1	10
466.036	1	9
466.376	1	8
466.717	1	22
467.058	1	15
467.399	1	8
467.740	1	21
468.081	1	15
468.422	1	8
468.762	1	7
469.103	1	9
469.444	1	2
469.785	1	5
470.126	1	-3
470.467	1	1
470.807	1	5
471.148	1	11
471.489	1	3
471.830	1	6
472.171	1	4
472.511	1	1
472.852	1	13
473.193	1	5
473.534	1	1
473.875	1	18
474.215	1	3
474.556	1	7
474.897	1	-9
475.238	1	14
475.578	1	1
475.919	1	-4
476.260	1	8
476.601	1	10
476.942	1	11
477.282	1	6
477.623	1	-2
477.964	1	0
478.305	1	15
478.645	1	4
478.986	1	3
479.327	1	8
479.667	1	8
480.008	1	1
480.349	1	4
480.690	1	0
481.030	1	10
481.371	1	0
481.712	1	4
482.053	1	2
482.393	1	21
482.734	1	1
483.075	1	19
483.415	1	11
483.756	1	8
484.097	1	0
484.437	1	4
484.778	1	14
485.119	1	15
485.459	1	-7
485.800	1	13
486.141	1	4
486.481	1	1
486.822	1	12
487.163	1	3
487.503	1	-4
487.844	1	-1
488.185	1	17
488.525	1	17
488.866	1	6
489.207	1	1
489.547	1	4
489.888	1	9
490.228	1	11
490.569	1	10
490.910	1	3
491.250	1	9
491.591	1	0
491.932	1	14
492.272	1	10
492.613	1	4
492.953	1	9
493.294	1	16
493.635	1	21
493.975	1	18
494.316	1	14
494.656	1	5
494.997	1	11
495.337	1	7
495.678	1	3
496.019	1	4
496.359	1	22
496.700	1	13
497.040	1	13
497.381	1	16
497.721	1	8
498.062	1	3
498.403	1	7
498.743	1	23
499.084	1	21
499.424	1	3
499.765	1	15
500.105	1	9
500.446	1	13
500.786	1	23
501.127	1	16
501.467	1	10
501.808	1	10
502.148	1	14
502.489	1	18
502.829	1	18
503.170	1	13
503.510	1	16
503.851	1	11
504.191	1	21
504.532	1	21
504.872	1	13
505.213	1	14
505.553	1	9
505.894	1	23
506.234	1	8
506.575	1	0
506.915	1	14
507.256	1	20
507.596	1	14
507.936	1	10
508.277	1	18
508.617	1	10
508.958	1	27
509.298	1	21
509.639	1	18
509.979	1	15
510.319	1	32
510.660	1	12
511.000	1	16
511.341	1	9
511.681	1	19
512.022	1	33
512.362	1	8
512.702	1	34
513.043	1	21
513.383	1	16
513.724	1	4
514.064	1	8
514.404	1	28
514.745	1	22
515.085	1	33
515.425	1	17
515.766	1	20
516.106	1	18
516.447	1	18
516.787	1	21
517.127	1	23
517.468	1	19
517.808	1	29
518.148	1	19
518.489	1	24
518.829	1	29
519.169	1	20
519.510	1	23
519.850	1	38
520.190	1	21
520.531	1	36
520.871	1	24
521.211	1	25
521.552	1	12
521.892	1	24
522.232	1	18
522.573	1	30
522.913	1	21
523.253	1	33
523.593	1	33
523.934	1	17
524.274	1	13
524.614	1	21
524.955	1	34
525.295	1	23
525.635	1	20
525.975	1	32
526.316	1	19
526.656	1	24
526.996	1	19
527.337	1	38
527.677	1	14
528.017	1	17
528.357	1	26
528.698	1	26
529.038	1	9
529.378	1	30
529.718	1	25
530.058	1	15
530.399	1	19
530.739	1	24
531.079	1	17
531.419	1	21
531.760	1	27
532.100	1	32
532.440	1	26
532.780	1	33
533.120	1	35
533.461	1	23
533.801	1	42
534.141	1	32
534.481	1	25
534.821	1	28
535.162	1	25
535.502	1	32
535.842	1	26
536.182	1	30
536.522	1	23
536.862	1	20
537.203	1	11
537.543	1	39
537.883	1	15
538.223	1	23
538.563	1	25
538.903	1	26
539.243	1	18
539.584	1	31
539.924	1	22
540.264	1	9
540.604	1	23
540.944	1	17
541.284	1	23
541.624	1	36
541.964	1	18
542.305	1	18
542.645	1	16
542.985	1	23
543.325	1	29
543.665	1	25
544.005	1	32
544.345	1	23
544.685	1	20
545.025	1	26
545.365	1	32
545.705	1	12
546.045	1	27
546.386	1	19
546.726	1	10
547.066	1	23
547.406	1	10
547.746	1	17
548.086	1	14
548.426	1	23
548.766	1	20
549.106	1	13
549.446	1	15
549.786	1	14
550.126	1	23
550.466	1	18
550.806	1	25
551.146	1	24
551.486	1	16
551.826	1	13
552.166	1	27
552.506	1	25
552.846	1	11
553.186	1	20
553.526	1	17
553.866	1	10
554.206	1	10
554.546	1	24
554.886	1	19
555.226	1	17
555.566	1	26
555.906	1	13
556.246	1	12
556.586	1	19
556.926	1	22
557.266	1	18
557.606	1	11
557.946	1	20
558.286	1	21
558.626	1	1
558.966	1	11
559.306	1	14
559.646	1	24
559.986	1	15
560.325	1	2
560.665	1	22
561.005	1	16
561.345	1	16
561.685	1	12
562.025	1	17
562.365	1	17
562.705	1	26
563.045	1	8
563.385	1	18
563.725	1	23
564.064	1	11
564.404	1	20
564.744	1	24
565.084	1	16
565.424	1	6
565.764	1	21
566.104	1	12
566.444	1	27
566.783	1	20
567.123	1	13
567.463	1	15
567.803	1	24
568.143	1	20
568.483	1	14
568.823	1	8
569.162	1	10
569.502	1	9
569.842	1	-3
570.182	1	15
570.522	1	1
570.862	1	20
571.201	1	9
571.541	1	8
571.881	1	4
572.221	1	14
572.561	1	12
572.900	1	7
573.240	1	9
573.580	1	8
573.920	1	14
574.260	1	10
574.599	1	11
574.939	1	19
575.279	1	3
575.619	1	13
575.959	1	11
576.298	1	6
576.638	1	9
576.978	1	5
577.318	1	13
577.657	1	19
577.997	1	7
578.337	1	11
578.677	1	23
579.016	1	9
579.356	1	8
579.696	1	6
580.036	1	4
580.375	1	1
580.715	1	18
581.055	1	11
581.394	1	9
581.734	1	15
582.074	1	-2
582.414	1	10
582.753	1	16
583.093	1	12
583.433	1	19
583.772	1	6
584.112	1	6
584.452	1	21
584.791	1	3
585.131	1	16
585.471	1	6
585.811	1	2
586.150	1	15
586.490	1	14
586.830	1	-8
587.169	1	16
587.509	1	2
587.849	1	11
588.188	1	11
588.528	1	10
588.867	1	6
589.207	1	4
589.547	1	3
589.886	1	7
590.226	1	18
590.566	1	2
590.905	1	9
591.245	1	12
591.585	1	8
591.924	1	3
592.264	1	14
592.603	1	8
592.943	1	1
593.283	1	0
593.622	1	12
593.962	1	8
594.301	1	-13
594.641	1	16
594.981	1	-2
595.320	1	12
595.660	1	7
595.999	1	16
596.339	1	13
596.678	1	5
597.018	1	12
597.358	1	3
597.697	1	-1
598.037	1	10
598.376	1	2
598.716	1	13
599.055	1	-4
599.395	1	3
599.734	1	7
600.074	1	10
600.413	1	9
600.753	1	8
601.092	1	5
601.432	1	-2
601.771	1	3
602.111	1	10
602.451	1	7
602.790	1	5
603.130	1	-2
603.469	1	8
603.809	1	12
604.148	1	12
604.487	1	20
604.827	1	1
605.166	1	5
605.506	1	6
605.845	1	-2
606.185	1	11
606.524	1	10
606.864	1	15
607.203	1	13
607.543	1	6
607.882	1	11
608.222	1	-8
608.561	1	0
608.901	1	13
609.240	1	-5
609.579	1	13
609.919	1	9
610.258	1	10
610.598	1	1
610.937	1	11
611.277	1	13
611.616	1	-1
611.955	1	-4
612.295	1	8
612.634	1	5
612.974	1	8
613.313	1	-2
613.652	1	7
613.992	1	4
614.331	1	19
614.671	1	10
615.010	1	-3
615.349	1	5
615.689	1	14
616.028	1	17
616.368	1	9
616.707	1	19
617.046	1	1
617.386	1	0
617.725	1	4
618.064	1	8
618.404	1	0
618.743	1	11
619.082	1	11
619.422	1	7
619.761	1	10
620.100	1	5
620.440	1	5
620.779	1	7
621.118	1	2
621.458	1	13
621.797	1	4
622.136	1	9
622.476	1	10
622.815	1	-4
623.154	1	13
623.494	1	0
623.833	1	7
624.172	1	-1
624.511	1	8
624.851	1	-4
625.190	1	6
625.529	1	11
625.869	1	5
626.208	1	3
626.547	1	6
626.886	1	5
627.226	1	6
627.565	1	2
627.904	1	8
628.243	1	12
628.583	1	-5
628.922	1	-7
629.261	1	-14
629.600	1	6
629.940	1	13
630.279	1	10
630.618	1	10
630.957	1	9
631.297	1	10
631.636	1	12
631.975	1	10
632.314	1	3
632.653	1	-1
632.993	1	7
633.332	1	2
633.671	1	-3
634.010	1	6
634.349	1	7
634.689	1	15
635.028	1	6
635.367	1	11
635.706	1	-5
636.045	1	18
636.384	1	5
636.724	1	9
637.063	1	1
637.402	1	-5
637.741	1	10
638.080	1	18
638.419	1	3
638.759	1	0
639.098	1	-2
639.437	1	6
639.776	1	5
640.115	1	8
640.454	1	9
640.793	1	-11
641.132	1	8
641.472	1	1
641.811	1	0
642.150	1	-8
642.489	1	-2
642.828	1	4
643.167	1	3
643.506	1	13
643.845	1	0
644.184	1	-4
644.524	1	-3
644.863	1	11
645.202	1	14
645.541	1	9
645.880	1	3
646.219	1	8
646.558	1	-5
646.897	1	14
647.236	1	-2
647.575	1	0
647.914	1	5
648.253	1	3
648.592	1	-3
648.931	1	-4
649.270	1	10
649.610	1	4
649.949	1	9
650.288	1	12
650.627	1	2
650.966	1	7
651.305	1	2
651.644	1	9
651.983	1	-7
652.322	1	-3
652.661	1	0
653.000	1	6
653.339	1	3
653.678	1	9
654.017	1	-5
654.356	1	-1
654.695	1	-1
655.034	1	4
655.373	1	-1
655.712	1	2
656.051	1	4
656.390	1	-3
656.729	1	13
657.068	1	-5
657.406	1	0
657.745	1	-4
658.084	1	8
658.423	1	7
658.762	1	13
659.101	1	6
659.440	1	-1
659.779	1	12
660.118	1	-1
660.457	1	0
660.796	1	9
661.135	1	12
661.474	1	5
661.813	1	-5
662.152	1	5
662.491	1	21
662.829	1	18
663.168	1	-6
663.507	1	6
663.846	1	5
664.185	1	-7
664.524	1	2
664.863	1	6
665.202	1	4
665.541	1	3
665.879	1	4
666.218	1	-3
666.557	1	9
666.896	1	1
667.235	1	9
667.574	1	18
667.913	1	1
668.251	1	2
668.590	1	11
668.929	1	7
669.268	1	3
669.607	1	-3
669.946	1	8
670.285	1	5
670.623	1	12
670.962	1	-4
671.301	1	7
671.640	1	-6
671.979	1	3
672.317	1	11
672.656	1	4
672.995	1	7
673.334	1	-6
673.673	1	11
674.011	1	5
674.350	1	9
674.689	1	10
675.028	1	14
675.367	1	3
675.705	1	11
676.044	1	2
676.383	1	3
676.722	1	-5
677.060	1	5
677.399	1	14
677.738	1	-7
678.077	1	8
678.416	1	9
678.754	1	1
679.093	1	4
679.432	1	5
679.771	1	5
680.109	1	4
680.448	1	9
680.787	1	4
681.125	1	9
681.464	1	-5
681.803	1	-3
682.142	1	1
682.480	1	14
682.819	1	4
683.158	1	4
683.496	1	6
683.835	1	-1
684.174	1	12
684.512	1	12
684.851	1	8
685.190	1	2
685.529	1	1
685.867	1	1
686.206	1	7
686.545	1	2
686.883	1	6
687.222	1	12
687.561	1	21
687.899	1	8
688.238	1	6
688.577	1	4
688.746	1	18