File: Data/GaN_130K_350ms/GaN_sample F_spot6_UVVIS_130 K_200um_350 ms 2x2mm1_145.txt
340.368	1	-1
340.710	1	7
341.052	1	-7
341.394	1	0
341.737	1	6
342.079	1	3
342.421	1	15
342.763	1	3
343.105	1	6
343.447	1	12
343.789	1	9
344.131	1	10
344.473	1	-8
344.815	1	3
345.157	1	-8
345.499	1	-9
345.841	1	1
346.183	1	4
346.526	1	-2
346.868	1	-1
347.210	1	6
347.552	1	-3
347.894	1	-2
348.236	1	0
348.578	1	6
348.920	1	6
349.262	1	3
349.604	1	10
349.946	1	15
350.288	1	0
350.630	1	12
350.972	1	16
351.314	1	-1
351.656	1	6
351.998	1	-2
352.340	1	5
352.682	1	6
353.024	1	5
353.366	1	15
353.708	1	0
354.050	1	5
354.392	1	13
354.734	1	-2
355.076	1	4
355.418	1	16
355.760	1	8
356.102	1	5
356.444	1	1
356.785	1	8
357.127	1	0
357.469	1	6
357.811	1	6
358.153	1	8
358.495	1	8
358.837	1	9
359.179	1	9
359.521	1	3
359.863	1	6
360.205	1	14
360.547	1	10
360.889	1	2
361.231	1	9
361.572	1	14
361.914	1	18
362.256	1	13
362.598	1	19
362.940	1	11
363.282	1	27
363.624	1	27
363.966	1	32
364.308	1	31
364.649	1	24
364.991	1	36
365.333	1	13
365.675	1	27
366.017	1	39
366.359	1	33
366.701	1	44
367.042	1	35
367.384	1	45
367.726	1	43
368.068	1	35
368.410	1	43
368.752	1	50
369.093	1	42
369.435	1	45
369.777	1	35
370.119	1	40
370.461	1	32
370.803	1	31
371.144	1	38
371.486	1	40
371.828	1	31
372.170	1	25
372.512	1	32
372.853	1	27
373.195	1	27
373.537	1	29
373.879	1	38
374.220	1	25
374.562	1	6
374.904	1	32
375.246	1	35
375.588	1	26
375.929	1	15
376.271	1	30
376.613	1	11
376.955	1	16
377.296	1	19
377.638	1	0
377.980	1	14
378.321	1	9
378.663	1	23
379.005	1	21
379.347	1	13
379.688	1	8
380.030	1	9
380.372	1	22
380.714	1	30
381.055	1	9
381.397	1	10
381.739	1	14
382.080	1	7
382.422	1	11
382.764	1	19
383.105	1	16
383.447	1	13
383.789	1	16
384.130	1	19
384.472	1	10
384.814	1	18
385.156	1	10
385.497	1	16
385.839	1	14
386.180	1	20
386.522	1	11
386.864	1	20
387.205	1	5
387.547	1	15
387.889	1	0
388.230	1	9
388.572	1	23
388.914	1	16
389.255	1	9
389.597	1	-7
389.939	1	10
390.280	1	21
390.622	1	1
390.963	1	7
391.305	1	12
391.647	1	9
391.988	1	17
392.330	1	2
392.671	1	-3
393.013	1	13
393.355	1	1
393.696	1	4
394.038	1	13
394.379	1	15
394.721	1	14
395.062	1	5
395.404	1	6
395.746	1	12
396.087	1	25
396.429	1	5
396.770	1	10
397.112	1	18
397.453	1	12
397.795	1	8
398.136	1	10
398.478	1	7
398.819	1	1
399.161	1	16
399.503	1	16
399.844	1	-2
400.186	1	8
400.527	1	5
400.869	1	14
401.210	1	7
401.552	1	24
401.893	1	-11
402.235	1	7
402.576	1	15
402.918	1	20
403.259	1	0
403.601	1	10
403.942	1	0
404.284	1	6
404.625	1	22
404.967	1	7
405.308	1	10
405.649	1	7
405.991	1	9
406.332	1	16
406.674	1	17
407.015	1	5
407.357	1	10
407.698	1	3
408.040	1	12
408.381	1	14
408.722	1	11
409.064	1	12
409.405	1	16
409.747	1	-8
410.088	1	22
410.430	1	12
410.771	1	-9
411.112	1	8
411.454	1	10
411.795	1	19
412.137	1	3
412.478	1	-2
412.819	1	16
413.161	1	20
413.502	1	18
413.844	1	9
414.185	1	10
414.526	1	12
414.868	1	10
415.209	1	9
415.550	1	6
415.892	1	10
416.233	1	7
416.575	1	11
416.916	1	5
417.257	1	13
417.599	1	4
417.940	1	7
418.281	1	8
418.623	1	5
418.964	1	0
419.305	1	7
419.647	1	5
419.988	1	18
420.329	1	15
420.671	1	7
421.012	1	7
421.353	1	2
421.695	1	10
422.036	1	6
422.377	1	3
422.718	1	14
423.060	1	11
423.401	1	12
423.742	1	10
424.084	1	14
424.425	1	5
424.766	1	-1
425.107	1	5
425.449	1	9
425.790	1	17
426.131	1	11
426.472	1	0
426.814	1	11
427.155	1	2
427.496	1	7
427.837	1	13
428.179	1	10
428.520	1	8
428.861	1	0
429.202	1	7
429.544	1	10
429.885	1	3
430.226	1	3
430.567	1	0
430.909	1	8
431.250	1	15
431.591	1	5
431.932	1	-5
432.273	1	11
432.615	1	17
432.956	1	6
433.297	1	19
433.638	1	15
433.979	1	4
434.320	1	7
434.662	1	12
435.003	1	25
435.344	1	8
435.685	1	3
436.026	1	11
436.368	1	4
436.709	1	3
437.050	1	9
437.391	1	10
437.732	1	12
438.073	1	15
438.414	1	-3
438.756	1	3
439.097	1	7
439.438	1	11
439.779	1	13
440.120	1	0
440.461	1	16
440.802	1	0
441.143	1	-6
441.485	1	6
441.826	1	4
442.167	1	4
442.508	1	-1
442.849	1	10
443.190	1	12
443.531	1	2
443.872	1	15
444.213	1	7
444.554	1	3
444.895	1	4
445.237	1	7
445.578	1	-8
445.919	1	-3
446.260	1	13
446.601	1	3
446.942	1	10
447.283	1	7
447.624	1	8
447.965	1	4
448.306	1	6
448.647	1	17
448.988	1	7
449.329	1	15
449.670	1	5
450.011	1	2
450.352	1	11
450.693	1	-3
451.034	1	-5
451.375	1	9
451.716	1	-12
452.057	1	20
452.398	1	-4
452.739	1	8
453.080	1	8
453.421	1	5
453.762	1	6
454.103	1	9
454.444	1	3
454.785	1	6
455.126	1	-3
455.467	1	9
455.808	1	10
456.149	1	-5
456.490	1	11
456.831	1	5
457.172	1	2
457.513	1	-16
457.854	1	-1
458.195	1	-3
458.536	1	4
458.877	1	16
459.218	1	-2
459.559	1	4
459.899	1	2
460.240	1	6
460.581	1	-3
460.922	1	2
461.263	1	4
461.604	1	-6
461.945	1	10
462.286	1	4
462.627	1	5
462.968	1	3
463.309	1	9
463.649	1	5
463.990	1	11
464.331	1	14
464.672	1	11
465.013	1	-4
465.354	1	6
465.695	1	9
466.036	1	5
466.376	1	10
466.717	1	12
467.058	1	12
467.399	1	-9
467.740	1	16
468.081	1	12
468.422	1	10
468.762	1	2
469.103	1	4
469.444	1	-8
469.785	1	11
470.126	1	-7
470.467	1	14
470.807	1	10
471.148	1	2
471.489	1	-1
471.830	1	2
472.171	1	3
472.511	1	9
472.852	1	9
473.193	1	11
473.534	1	0
473.875	1	17
474.215	1	4
474.556	1	3
474.897	1	-3
475.238	1	8
475.578	1	9
475.919	1	-2
476.260	1	7
476.601	1	2
476.942	1	3
477.282	1	6
477.623	1	-2
477.964	1	3
478.305	1	11
478.645	1	1
478.986	1	-10
479.327	1	0
479.667	1	-1
480.008	1	0
480.349	1	2
480.690	1	2
481.030	1	7
481.371	1	8
481.712	1	3
482.053	1	11
482.393	1	8
482.734	1	5
483.075	1	21
483.415	1	5
483.756	1	11
484.097	1	4
484.437	1	5
484.778	1	14
485.119	1	-2
485.459	1	0
485.800	1	7
486.141	1	14
486.481	1	-1
486.822	1	-2
487.163	1	6
487.503	1	-4
487.844	1	4
488.185	1	0
488.525	1	13
488.866	1	0
489.207	1	3
489.547	1	-1
489.888	1	16
490.228	1	0
490.569	1	2
490.910	1	-7
491.250	1	22
491.591	1	5
491.932	1	10
492.272	1	0
492.613	1	6
492.953	1	7
493.294	1	11
493.635	1	10
493.975	1	21
494.316	1	15
494.656	1	8
494.997	1	21
495.337	1	4
495.678	1	4
496.019	1	1
496.359	1	16
496.700	1	2
497.040	1	15
497.381	1	14
497.721	1	6
498.062	1	3
498.403	1	3
498.743	1	13
499.084	1	15
499.424	1	-6
499.765	1	2
500.105	1	13
500.446	1	6
500.786	1	10
501.127	1	15
501.467	1	-7
501.808	1	11
502.148	1	3
502.489	1	8
502.829	1	-1
503.170	1	-2
503.510	1	6
503.851	1	3
504.191	1	5
504.532	1	15
504.872	1	15
505.213	1	18
505.553	1	10
505.894	1	11
506.234	1	9
506.575	1	18
506.915	1	15
507.256	1	23
507.596	1	3
507.936	1	8
508.277	1	0
508.617	1	5
508.958	1	10
509.298	1	14
509.639	1	17
509.979	1	4
510.319	1	18
510.660	1	7
511.000	1	20
511.341	1	9
511.681	1	19
512.022	1	21
512.362	1	4
512.702	1	13
513.043	1	11
513.383	1	23
513.724	1	12
514.064	1	8
514.404	1	14
514.745	1	18
515.085	1	13
515.425	1	4
515.766	1	19
516.106	1	17
516.447	1	1
516.787	1	14
517.127	1	11
517.468	1	18
517.808	1	17
518.148	1	15
518.489	1	8
518.829	1	21
519.169	1	16
519.510	1	15
519.850	1	18
520.190	1	20
520.531	1	26
520.871	1	10
521.211	1	20
521.552	1	14
521.892	1	18
522.232	1	6
522.573	1	10
522.913	1	22
523.253	1	12
523.593	1	17
523.934	1	11
524.274	1	13
524.614	1	19
524.955	1	26
525.295	1	20
525.635	1	14
525.975	1	21
526.316	1	10
526.656	1	23
526.996	1	7
527.337	1	20
527.677	1	9
528.017	1	18
528.357	1	17
528.698	1	12
529.038	1	8
529.378	1	16
529.718	1	14
530.058	1	12
530.399	1	19
530.739	1	21
531.079	1	18
531.419	1	24
531.760	1	12
532.100	1	15
532.440	1	20
532.780	1	13
533.120	1	17
533.461	1	17
533.801	1	19
534.141	1	17
534.481	1	14
534.821	1	26
535.162	1	21
535.502	1	10
535.842	1	19
536.182	1	19
536.522	1	10
536.862	1	21
537.203	1	15
537.543	1	13
537.883	1	5
538.223	1	14
538.563	1	16
538.903	1	16
539.243	1	14
539.584	1	12
539.924	1	10
540.264	1	11
540.604	1	18
540.944	1	11
541.284	1	12
541.624	1	21
541.964	1	12
542.305	1	9
542.645	1	12
542.985	1	14
543.325	1	10
543.665	1	25
544.005	1	19
544.345	1	13
544.685	1	9
545.025	1	16
545.365	1	17
545.705	1	1
546.045	1	5
546.386	1	10
546.726	1	11
547.066	1	8
547.406	1	4
547.746	1	17
548.086	1	0
548.426	1	7
548.766	1	15
549.106	1	4
549.446	1	7
549.786	1	14
550.126	1	17
550.466	1	14
550.806	1	26
551.146	1	18
551.486	1	19
551.826	1	9
552.166	1	22
552.506	1	18
552.846	1	12
553.186	1	20
553.526	1	11
553.866	1	2
554.206	1	10
554.546	1	14
554.886	1	10
555.226	1	11
555.566	1	17
555.906	1	11
556.246	1	6
556.586	1	8
556.926	1	15
557.266	1	8
557.606	1	11
557.946	1	11
558.286	1	16
558.626	1	6
558.966	1	5
559.306	1	7
559.646	1	13
559.986	1	11
560.325	1	7
560.665	1	18
561.005	1	9
561.345	1	15
561.685	1	12
562.025	1	12
562.365	1	13
562.705	1	8
563.045	1	4
563.385	1	8
563.725	1	14
564.064	1	17
564.404	1	8
564.744	1	8
565.084	1	8
565.424	1	11
565.764	1	14
566.104	1	3
566.444	1	4
566.783	1	12
567.123	1	6
567.463	1	2
567.803	1	11
568.143	1	15
568.483	1	9
568.823	1	-2
569.162	1	18
569.502	1	11
569.842	1	0
570.182	1	5
570.522	1	-12
570.862	1	17
571.201	1	14
571.541	1	0
571.881	1	1
572.221	1	11
572.561	1	14
572.900	1	9
573.240	1	0
573.580	1	9
573.920	1	9
574.260	1	4
574.599	1	11
574.939	1	19
575.279	1	-1
575.619	1	10
575.959	1	11
576.298	1	4
576.638	1	9
576.978	1	9
577.318	1	16
577.657	1	10
577.997	1	19
578.337	1	1
578.677	1	12
579.016	1	3
579.356	1	9
579.696	1	4
580.036	1	6
580.375	1	-12
580.715	1	7
581.055	1	7
581.394	1	6
581.734	1	8
582.074	1	-1
582.414	1	0
582.753	1	8
583.093	1	11
583.433	1	7
583.772	1	8
584.112	1	10
584.452	1	14
584.791	1	9
585.131	1	6
585.471	1	6
585.811	1	3
586.150	1	8
586.490	1	4
586.830	1	3
587.169	1	14
587.509	1	8
587.849	1	11
588.188	1	16
588.528	1	12
588.867	1	4
589.207	1	6
589.547	1	3
589.886	1	2
590.226	1	14
590.566	1	4
590.905	1	6
591.245	1	9
591.585	1	11
591.924	1	1
592.264	1	10
592.603	1	3
592.943	1	9
593.283	1	2
593.622	1	19
593.962	1	9
594.301	1	6
594.641	1	12
594.981	1	-7
595.320	1	12
595.660	1	11
595.999	1	2
596.339	1	9
596.678	1	1
597.018	1	5
597.358	1	3
597.697	1	7
598.037	1	7
598.376	1	4
598.716	1	9
599.055	1	-5
599.395	1	-6
599.734	1	1
600.074	1	12
600.413	1	15
600.753	1	2
601.092	1	5
601.432	1	-7
601.771	1	9
602.111	1	7
602.451	1	7
602.790	1	5
603.130	1	4
603.469	1	-1
603.809	1	3
604.148	1	10
604.487	1	13
604.827	1	2
605.166	1	15
605.506	1	6
605.845	1	2
606.185	1	9
606.524	1	2
606.864	1	11
607.203	1	-4
607.543	1	-3
607.882	1	15
608.222	1	-7
608.561	1	9
608.901	1	11
609.240	1	-7
609.579	1	12
609.919	1	18
610.258	1	-1
610.598	1	6
610.937	1	10
611.277	1	4
611.616	1	1
611.955	1	3
612.295	1	13
612.634	1	-2
612.974	1	12
613.313	1	1
613.652	1	-5
613.992	1	2
614.331	1	9
614.671	1	-1
615.010	1	3
615.349	1	9
615.689	1	8
616.028	1	13
616.368	1	7
616.707	1	11
617.046	1	12
617.386	1	3
617.725	1	3
618.064	1	0
618.404	1	-1
618.743	1	6
619.082	1	9
619.422	1	3
619.761	1	4
620.100	1	3
620.440	1	6
620.779	1	16
621.118	1	1
621.458	1	10
621.797	1	2
622.136	1	8
622.476	1	8
622.815	1	4
623.154	1	9
623.494	1	8
623.833	1	12
624.172	1	-2
624.511	1	9
624.851	1	5
625.190	1	-5
625.529	1	-2
625.869	1	-1
626.208	1	-2
626.547	1	5
626.886	1	-1
627.226	1	4
627.565	1	5
627.904	1	5
628.243	1	7
628.583	1	-3
628.922	1	-6
629.261	1	5
629.600	1	10
629.940	1	6
630.279	1	16
630.618	1	1
630.957	1	5
631.297	1	6
631.636	1	8
631.975	1	15
632.314	1	5
632.653	1	4
632.993	1	8
633.332	1	3
633.671	1	1
634.010	1	-11
634.349	1	10
634.689	1	7
635.028	1	8
635.367	1	4
635.706	1	-1
636.045	1	13
636.384	1	9
636.724	1	6
637.063	1	8
637.402	1	-1
637.741	1	4
638.080	1	14
638.419	1	5
638.759	1	-8
639.098	1	-4
639.437	1	6
639.776	1	1
640.115	1	8
640.454	1	5
640.793	1	-7
641.132	1	12
641.472	1	0
641.811	1	2
642.150	1	-10
642.489	1	4
642.828	1	7
643.167	1	2
643.506	1	2
643.845	1	-3
644.184	1	4
644.524	1	7
644.863	1	-7
645.202	1	14
645.541	1	2
645.880	1	14
646.219	1	3
646.558	1	-4
646.897	1	5
647.236	1	-5
647.575	1	-5
647.914	1	2
648.253	1	4
648.592	1	-1
648.931	1	-3
649.270	1	3
649.610	1	-4
649.949	1	3
650.288	1	12
650.627	1	8
650.966	1	5
651.305	1	-4
651.644	1	9
651.983	1	-8
652.322	1	-2
652.661	1	1
653.000	1	-1
653.339	1	-1
653.678	1	5
654.017	1	-2
654.356	1	11
654.695	1	6
655.034	1	7
655.373	1	1
655.712	1	-3
656.051	1	4
656.390	1	-4
656.729	1	4
657.068	1	5
657.406	1	5
657.745	1	-1
658.084	1	-4
658.423	1	3
658.762	1	19
659.101	1	3
659.440	1	0
659.779	1	6
660.118	1	-1
660.457	1	4
660.796	1	5
661.135	1	16
661.474	1	7
661.813	1	2
662.152	1	6
662.491	1	14
662.829	1	18
663.168	1	0
663.507	1	-2
663.846	1	5
664.185	1	-3
664.524	1	-5
664.863	1	11
665.202	1	-6
665.541	1	-6
665.879	1	3
666.218	1	5
666.557	1	-4
666.896	1	8
667.235	1	6
667.574	1	11
667.913	1	10
668.251	1	2
668.590	1	1
668.929	1	0
669.268	1	-1
669.607	1	-2
669.946	1	11
670.285	1	4
670.623	1	17
670.962	1	-1
671.301	1	-6
671.640	1	-8
671.979	1	5
672.317	1	-6
672.656	1	-4
672.995	1	-1
673.334	1	-1
673.673	1	13
674.011	1	5
674.350	1	0
674.689	1	10
675.028	1	6
675.367	1	0
675.705	1	13
676.044	1	10
676.383	1	12
676.722	1	-1
677.060	1	1
677.399	1	0
677.738	1	4
678.077	1	12
678.416	1	5
678.754	1	3
679.093	1	4
679.432	1	5
679.771	1	10
680.109	1	2
680.448	1	8
680.787	1	5
681.125	1	13
681.464	1	3
681.803	1	-1
682.142	1	-14
682.480	1	15
682.819	1	7
683.158	1	9
683.496	1	2
683.835	1	3
684.174	1	9
684.512	1	3
684.851	1	6
685.190	1	-4
685.529	1	-5
685.867	1	0
686.206	1	11
686.545	1	2
686.883	1	7
687.222	1	5
687.561	1	11
687.899	1	0
688.238	1	4
688.577	1	2
688.746	1	11