File: Data/GaN_130K_350ms/GaN_sample F_spot6_UVVIS_130 K_200um_350 ms 2x2mm1_255.txt
340.368	1	6
340.710	1	3
341.052	1	-5
341.394	1	-5
341.737	1	6
342.079	1	1
342.421	1	3
342.763	1	-1
343.105	1	-2
343.447	1	15
343.789	1	5
344.131	1	6
344.473	1	0
344.815	1	-5
345.157	1	-11
345.499	1	6
345.841	1	2
346.183	1	7
346.526	1	-5
346.868	1	8
347.210	1	1
347.552	1	0
347.894	1	0
348.236	1	1
348.578	1	-3
348.920	1	0
349.262	1	2
349.604	1	17
349.946	1	1
350.288	1	-8
350.630	1	9
350.972	1	9
351.314	1	-2
351.656	1	10
351.998	1	-3
352.340	1	13
352.682	1	-4
353.024	1	-5
353.366	1	8
353.708	1	-2
354.050	1	9
354.392	1	7
354.734	1	-3
355.076	1	-4
355.418	1	0
355.760	1	6
356.102	1	3
356.444	1	-11
356.785	1	4
357.127	1	9
357.469	1	7
357.811	1	8
358.153	1	-2
358.495	1	2
358.837	1	4
359.179	1	10
359.521	1	-3
359.863	1	6
360.205	1	8
360.547	1	2
360.889	1	1
361.231	1	-1
361.572	1	12
361.914	1	6
362.256	1	3
362.598	1	8
362.940	1	-4
363.282	1	17
363.624	1	5
363.966	1	19
364.308	1	13
364.649	1	15
364.991	1	0
365.333	1	2
365.675	1	8
366.017	1	15
366.359	1	9
366.701	1	8
367.042	1	12
367.384	1	15
367.726	1	10
368.068	1	-2
368.410	1	6
368.752	1	1
369.093	1	11
369.435	1	7
369.777	1	14
370.119	1	16
370.461	1	11
370.803	1	11
371.144	1	10
371.486	1	12
371.828	1	7
372.170	1	0
372.512	1	10
372.853	1	3
373.195	1	5
373.537	1	6
373.879	1	12
374.220	1	4
374.562	1	8
374.904	1	11
375.246	1	16
375.588	1	4
375.929	1	-2
376.271	1	11
376.613	1	8
376.955	1	9
377.296	1	7
377.638	1	-3
377.980	1	-6
378.321	1	-1
378.663	1	9
379.005	1	12
379.347	1	3
379.688	1	8
380.030	1	1
380.372	1	15
380.714	1	15
381.055	1	5
381.397	1	7
381.739	1	2
382.080	1	3
382.422	1	9
382.764	1	9
383.105	1	8
383.447	1	13
383.789	1	14
384.130	1	12
384.472	1	9
384.814	1	6
385.156	1	3
385.497	1	-3
385.839	1	-4
386.180	1	6
386.522	1	-3
386.864	1	7
387.205	1	-5
387.547	1	4
387.889	1	0
388.230	1	0
388.572	1	4
388.914	1	-2
389.255	1	11
389.597	1	-11
389.939	1	10
390.280	1	18
390.622	1	-3
390.963	1	14
391.305	1	8
391.647	1	21
391.988	1	17
392.330	1	7
392.671	1	-5
393.013	1	4
393.355	1	8
393.696	1	5
394.038	1	4
394.379	1	16
394.721	1	-3
395.062	1	0
395.404	1	-1
395.746	1	8
396.087	1	12
396.429	1	8
396.770	1	9
397.112	1	16
397.453	1	11
397.795	1	-6
398.136	1	-6
398.478	1	5
398.819	1	-7
399.161	1	11
399.503	1	15
399.844	1	-8
400.186	1	-3
400.527	1	4
400.869	1	6
401.210	1	-3
401.552	1	10
401.893	1	2
402.235	1	1
402.576	1	3
402.918	1	6
403.259	1	4
403.601	1	7
403.942	1	7
404.284	1	-1
404.625	1	19
404.967	1	-4
405.308	1	0
405.649	1	0
405.991	1	6
406.332	1	8
406.674	1	0
407.015	1	8
407.357	1	0
407.698	1	2
408.040	1	2
408.381	1	0
408.722	1	9
409.064	1	5
409.405	1	5
409.747	1	-4
410.088	1	6
410.430	1	12
410.771	1	-11
411.112	1	8
411.454	1	-2
411.795	1	6
412.137	1	-1
412.478	1	5
412.819	1	3
413.161	1	7
413.502	1	10
413.844	1	5
414.185	1	11
414.526	1	2
414.868	1	8
415.209	1	1
415.550	1	8
415.892	1	9
416.233	1	8
416.575	1	5
416.916	1	-2
417.257	1	-1
417.599	1	7
417.940	1	16
418.281	1	7
418.623	1	4
418.964	1	-7
419.305	1	8
419.647	1	11
419.988	1	0
420.329	1	12
420.671	1	4
421.012	1	8
421.353	1	2
421.695	1	3
422.036	1	9
422.377	1	11
422.718	1	4
423.060	1	1
423.401	1	2
423.742	1	5
424.084	1	13
424.425	1	12
424.766	1	1
425.107	1	3
425.449	1	2
425.790	1	9
426.131	1	16
426.472	1	-1
426.814	1	5
427.155	1	-13
427.496	1	7
427.837	1	13
428.179	1	5
428.520	1	10
428.861	1	-1
429.202	1	3
429.544	1	10
429.885	1	-3
430.226	1	-9
430.567	1	-7
430.909	1	3
431.250	1	20
431.591	1	-9
431.932	1	1
432.273	1	1
432.615	1	14
432.956	1	-3
433.297	1	16
433.638	1	9
433.979	1	1
434.320	1	5
434.662	1	4
435.003	1	23
435.344	1	10
435.685	1	-3
436.026	1	8
436.368	1	-7
436.709	1	-5
437.050	1	1
437.391	1	9
437.732	1	10
438.073	1	11
438.414	1	-1
438.756	1	5
439.097	1	6
439.438	1	4
439.779	1	17
440.120	1	-3
440.461	1	10
440.802	1	-5
441.143	1	-1
441.485	1	6
441.826	1	1
442.167	1	4
442.508	1	4
442.849	1	11
443.190	1	0
443.531	1	-5
443.872	1	7
444.213	1	0
444.554	1	4
444.895	1	7
445.237	1	-8
445.578	1	-4
445.919	1	7
446.260	1	11
446.601	1	5
446.942	1	3
447.283	1	10
447.624	1	-2
447.965	1	-1
448.306	1	3
448.647	1	17
448.988	1	-2
449.329	1	-2
449.670	1	5
450.011	1	-7
450.352	1	1
450.693	1	7
451.034	1	-6
451.375	1	8
451.716	1	0
452.057	1	13
452.398	1	-3
452.739	1	-1
453.080	1	2
453.421	1	12
453.762	1	8
454.103	1	-7
454.444	1	-2
454.785	1	6
455.126	1	-4
455.467	1	-4
455.808	1	6
456.149	1	-9
456.490	1	7
456.831	1	3
457.172	1	4
457.513	1	2
457.854	1	-1
458.195	1	-3
458.536	1	1
458.877	1	19
459.218	1	5
459.559	1	3
459.899	1	-1
460.240	1	5
460.581	1	1
460.922	1	-5
461.263	1	12
461.604	1	-5
461.945	1	12
462.286	1	4
462.627	1	-5
462.968	1	2
463.309	1	-2
463.649	1	10
463.990	1	3
464.331	1	13
464.672	1	5
465.013	1	4
465.354	1	7
465.695	1	14
466.036	1	8
466.376	1	8
466.717	1	4
467.058	1	2
467.399	1	-7
467.740	1	13
468.081	1	7
468.422	1	-1
468.762	1	-6
469.103	1	0
469.444	1	-1
469.785	1	10
470.126	1	-10
470.467	1	6
470.807	1	6
471.148	1	3
471.489	1	-8
471.830	1	0
472.171	1	-2
472.511	1	0
472.852	1	3
473.193	1	3
473.534	1	0
473.875	1	1
474.215	1	3
474.556	1	11
474.897	1	0
475.238	1	1
475.578	1	2
475.919	1	-6
476.260	1	9
476.601	1	5
476.942	1	6
477.282	1	7
477.623	1	2
477.964	1	-5
478.305	1	4
478.645	1	5
478.986	1	-7
479.327	1	2
479.667	1	2
480.008	1	-4
480.349	1	-5
480.690	1	5
481.030	1	5
481.371	1	1
481.712	1	8
482.053	1	0
482.393	1	12
482.734	1	6
483.075	1	15
483.415	1	-3
483.756	1	3
484.097	1	-3
484.437	1	-1
484.778	1	9
485.119	1	10
485.459	1	-9
485.800	1	11
486.141	1	8
486.481	1	-5
486.822	1	9
487.163	1	0
487.503	1	-2
487.844	1	7
488.185	1	0
488.525	1	5
488.866	1	2
489.207	1	-4
489.547	1	-1
489.888	1	10
490.228	1	-2
490.569	1	9
490.910	1	-2
491.250	1	12
491.591	1	-3
491.932	1	-1
492.272	1	0
492.613	1	1
492.953	1	1
493.294	1	4
493.635	1	7
493.975	1	10
494.316	1	4
494.656	1	-2
494.997	1	6
495.337	1	5
495.678	1	-5
496.019	1	0
496.359	1	18
496.700	1	-4
497.040	1	13
497.381	1	-2
497.721	1	2
498.062	1	-6
498.403	1	-5
498.743	1	3
499.084	1	8
499.424	1	-6
499.765	1	-4
500.105	1	4
500.446	1	8
500.786	1	2
501.127	1	-1
501.467	1	5
501.808	1	8
502.148	1	5
502.489	1	4
502.829	1	3
503.170	1	-1
503.510	1	7
503.851	1	-3
504.191	1	0
504.532	1	6
504.872	1	4
505.213	1	4
505.553	1	-1
505.894	1	2
506.234	1	2
506.575	1	-3
506.915	1	2
507.256	1	18
507.596	1	1
507.936	1	-7
508.277	1	-2
508.617	1	-10
508.958	1	10
509.298	1	-5
509.639	1	4
509.979	1	0
510.319	1	7
510.660	1	2
511.000	1	-5
511.341	1	1
511.681	1	0
512.022	1	12
512.362	1	3
512.702	1	10
513.043	1	3
513.383	1	1
513.724	1	-7
514.064	1	2
514.404	1	17
514.745	1	6
515.085	1	17
515.425	1	-5
515.766	1	3
516.106	1	1
516.447	1	-3
516.787	1	3
517.127	1	3
517.468	1	7
517.808	1	10
518.148	1	2
518.489	1	1
518.829	1	0
519.169	1	7
519.510	1	-6
519.850	1	18
520.190	1	20
520.531	1	7
520.871	1	5
521.211	1	15
521.552	1	8
521.892	1	5
522.232	1	-2
522.573	1	-5
522.913	1	12
523.253	1	6
523.593	1	6
523.934	1	-2
524.274	1	-4
524.614	1	12
524.955	1	11
525.295	1	5
525.635	1	3
525.975	1	12
526.316	1	0
526.656	1	13
526.996	1	2
527.337	1	16
527.677	1	2
528.017	1	8
528.357	1	6
528.698	1	-9
529.038	1	-3
529.378	1	5
529.718	1	15
530.058	1	0
530.399	1	6
530.739	1	-2
531.079	1	11
531.419	1	2
531.760	1	2
532.100	1	6
532.440	1	14
532.780	1	3
533.120	1	8
533.461	1	9
533.801	1	17
534.141	1	4
534.481	1	-1
534.821	1	0
535.162	1	6
535.502	1	1
535.842	1	11
536.182	1	7
536.522	1	-1
536.862	1	7
537.203	1	-1
537.543	1	4
537.883	1	-6
538.223	1	5
538.563	1	12
538.903	1	7
539.243	1	14
539.584	1	7
539.924	1	-2
540.264	1	-2
540.604	1	13
540.944	1	9
541.284	1	10
541.624	1	10
541.964	1	7
542.305	1	9
542.645	1	-3
542.985	1	9
543.325	1	3
543.665	1	18
544.005	1	5
544.345	1	4
544.685	1	14
545.025	1	3
545.365	1	14
545.705	1	5
546.045	1	7
546.386	1	-3
546.726	1	1
547.066	1	11
547.406	1	-7
547.746	1	2
548.086	1	1
548.426	1	7
548.766	1	4
549.106	1	-3
549.446	1	9
549.786	1	1
550.126	1	12
550.466	1	14
550.806	1	6
551.146	1	2
551.486	1	6
551.826	1	-4
552.166	1	17
552.506	1	7
552.846	1	-9
553.186	1	3
553.526	1	8
553.866	1	-8
554.206	1	4
554.546	1	5
554.886	1	0
555.226	1	2
555.566	1	-1
555.906	1	-1
556.246	1	2
556.586	1	1
556.926	1	1
557.266	1	8
557.606	1	0
557.946	1	7
558.286	1	15
558.626	1	-8
558.966	1	4
559.306	1	2
559.646	1	4
559.986	1	5
560.325	1	5
560.665	1	6
561.005	1	6
561.345	1	14
561.685	1	3
562.025	1	0
562.365	1	11
562.705	1	6
563.045	1	-8
563.385	1	3
563.725	1	5
564.064	1	3
564.404	1	2
564.744	1	-1
565.084	1	3
565.424	1	-10
565.764	1	8
566.104	1	5
566.444	1	9
566.783	1	12
567.123	1	5
567.463	1	3
567.803	1	7
568.143	1	16
568.483	1	4
568.823	1	-5
569.162	1	11
569.502	1	7
569.842	1	-9
570.182	1	2
570.522	1	-11
570.862	1	11
571.201	1	-1
571.541	1	5
571.881	1	9
572.221	1	5
572.561	1	-1
572.900	1	5
573.240	1	-2
573.580	1	2
573.920	1	18
574.260	1	7
574.599	1	7
574.939	1	10
575.279	1	-3
575.619	1	13
575.959	1	4
576.298	1	6
576.638	1	-4
576.978	1	-6
577.318	1	2
577.657	1	12
577.997	1	6
578.337	1	-1
578.677	1	11
579.016	1	8
579.356	1	8
579.696	1	-2
580.036	1	-5
580.375	1	1
580.715	1	1
581.055	1	6
581.394	1	-2
581.734	1	7
582.074	1	-4
582.414	1	-1
582.753	1	5
583.093	1	0
583.433	1	8
583.772	1	4
584.112	1	7
584.452	1	3
584.791	1	-2
585.131	1	10
585.471	1	5
585.811	1	-3
586.150	1	5
586.490	1	6
586.830	1	2
587.169	1	4
587.509	1	4
587.849	1	9
588.188	1	3
588.528	1	10
588.867	1	3
589.207	1	2
589.547	1	-8
589.886	1	4
590.226	1	12
590.566	1	1
590.905	1	8
591.245	1	1
591.585	1	8
591.924	1	0
592.264	1	2
592.603	1	11
592.943	1	5
593.283	1	-7
593.622	1	8
593.962	1	4
594.301	1	-9
594.641	1	-1
594.981	1	-8
595.320	1	5
595.660	1	2
595.999	1	11
596.339	1	7
596.678	1	-1
597.018	1	4
597.358	1	3
597.697	1	-7
598.037	1	5
598.376	1	-9
598.716	1	9
599.055	1	3
599.395	1	0
599.734	1	-5
600.074	1	-4
600.413	1	11
600.753	1	8
601.092	1	1
601.432	1	-14
601.771	1	6
602.111	1	-3
602.451	1	7
602.790	1	11
603.130	1	5
603.469	1	-1
603.809	1	3
604.148	1	5
604.487	1	16
604.827	1	-2
605.166	1	10
605.506	1	-4
605.845	1	-5
606.185	1	7
606.524	1	-1
606.864	1	21
607.203	1	-6
607.543	1	-4
607.882	1	11
608.222	1	-12
608.561	1	6
608.901	1	6
609.240	1	-6
609.579	1	12
609.919	1	9
610.258	1	2
610.598	1	5
610.937	1	11
611.277	1	1
611.616	1	-6
611.955	1	-1
612.295	1	13
612.634	1	-11
612.974	1	15
613.313	1	-2
613.652	1	-10
613.992	1	-1
614.331	1	5
614.671	1	3
615.010	1	-1
615.349	1	7
615.689	1	2
616.028	1	10
616.368	1	8
616.707	1	13
617.046	1	9
617.386	1	-7
617.725	1	5
618.064	1	2
618.404	1	-4
618.743	1	7
619.082	1	1
619.422	1	-1
619.761	1	3
620.100	1	7
620.440	1	10
620.779	1	2
621.118	1	-11
621.458	1	0
621.797	1	5
622.136	1	6
622.476	1	11
622.815	1	1
623.154	1	-4
623.494	1	9
623.833	1	8
624.172	1	3
624.511	1	0
624.851	1	3
625.190	1	-6
625.529	1	5
625.869	1	-4
626.208	1	-3
626.547	1	1
626.886	1	1
627.226	1	2
627.565	1	2
627.904	1	2
628.243	1	14
628.583	1	-12
628.922	1	3
629.261	1	-7
629.600	1	2
629.940	1	6
630.279	1	0
630.618	1	5
630.957	1	4
631.297	1	0
631.636	1	9
631.975	1	8
632.314	1	-2
632.653	1	-1
632.993	1	8
633.332	1	-1
633.671	1	-10
634.010	1	-6
634.349	1	-1
634.689	1	7
635.028	1	4
635.367	1	-2
635.706	1	0
636.045	1	14
636.384	1	2
636.724	1	4
637.063	1	0
637.402	1	-14
637.741	1	10
638.080	1	10
638.419	1	2
638.759	1	6
639.098	1	-9
639.437	1	9
639.776	1	2
640.115	1	12
640.454	1	5
640.793	1	-9
641.132	1	11
641.472	1	-1
641.811	1	-3
642.150	1	-11
642.489	1	-9
642.828	1	-4
643.167	1	2
643.506	1	1
643.845	1	-5
644.184	1	-5
644.524	1	5
644.863	1	-4
645.202	1	11
645.541	1	1
645.880	1	14
646.219	1	3
646.558	1	1
646.897	1	-2
647.236	1	-6
647.575	1	0
647.914	1	-5
648.253	1	8
648.592	1	-5
648.931	1	-6
649.270	1	-3
649.610	1	-6
649.949	1	4
650.288	1	10
650.627	1	4
650.966	1	0
651.305	1	-4
651.644	1	-1
651.983	1	-13
652.322	1	-3
652.661	1	6
653.000	1	-4
653.339	1	6
653.678	1	-7
654.017	1	1
654.356	1	8
654.695	1	5
655.034	1	-10
655.373	1	7
655.712	1	7
656.051	1	-1
656.390	1	-4
656.729	1	10
657.068	1	1
657.406	1	8
657.745	1	-3
658.084	1	-4
658.423	1	0
658.762	1	10
659.101	1	9
659.440	1	-5
659.779	1	0
660.118	1	-1
660.457	1	5
660.796	1	7
661.135	1	12
661.474	1	2
661.813	1	-1
662.152	1	-3
662.491	1	16
662.829	1	10
663.168	1	2
663.507	1	-6
663.846	1	-4
664.185	1	-2
664.524	1	2
664.863	1	2
665.202	1	-5
665.541	1	2
665.879	1	-4
666.218	1	8
666.557	1	3
666.896	1	6
667.235	1	1
667.574	1	11
667.913	1	1
668.251	1	0
668.590	1	8
668.929	1	7
669.268	1	-3
669.607	1	1
669.946	1	4
670.285	1	4
670.623	1	6
670.962	1	3
671.301	1	-8
671.640	1	-14
671.979	1	5
672.317	1	-3
672.656	1	-4
672.995	1	-7
673.334	1	-2
673.673	1	1
674.011	1	2
674.350	1	-1
674.689	1	6
675.028	1	4
675.367	1	-5
675.705	1	13
676.044	1	10
676.383	1	13
676.722	1	1
677.060	1	7
677.399	1	-2
677.738	1	6
678.077	1	-6
678.416	1	11
678.754	1	11
679.093	1	-1
679.432	1	1
679.771	1	4
680.109	1	6
680.448	1	2
680.787	1	13
681.125	1	7
681.464	1	-11
681.803	1	-1
682.142	1	-7
682.480	1	16
682.819	1	6
683.158	1	7
683.496	1	-1
683.835	1	-7
684.174	1	15
684.512	1	8
684.851	1	-8
685.190	1	0
685.529	1	0
685.867	1	-5
686.206	1	10
686.545	1	-5
686.883	1	-3
687.222	1	11
687.561	1	7
687.899	1	7
688.238	1	11
688.577	1	-9
688.746	1	3