File: Data/GaN_130K_350ms/GaN_sample F_spot6_UVVIS_130 K_200um_350 ms 2x2mm1_181.txt
340.368	1	9
340.710	1	15
341.052	1	-4
341.394	1	0
341.737	1	7
342.079	1	2
342.421	1	6
342.763	1	5
343.105	1	1
343.447	1	1
343.789	1	2
344.131	1	4
344.473	1	3
344.815	1	-10
345.157	1	-18
345.499	1	2
345.841	1	-3
346.183	1	10
346.526	1	-4
346.868	1	-3
347.210	1	0
347.552	1	-7
347.894	1	5
348.236	1	3
348.578	1	2
348.920	1	0
349.262	1	8
349.604	1	9
349.946	1	6
350.288	1	-7
350.630	1	11
350.972	1	11
351.314	1	3
351.656	1	4
351.998	1	0
352.340	1	15
352.682	1	2
353.024	1	7
353.366	1	8
353.708	1	-1
354.050	1	9
354.392	1	5
354.734	1	4
355.076	1	1
355.418	1	13
355.760	1	-2
356.102	1	0
356.444	1	-3
356.785	1	9
357.127	1	13
357.469	1	1
357.811	1	2
358.153	1	-3
358.495	1	-2
358.837	1	7
359.179	1	16
359.521	1	5
359.863	1	9
360.205	1	6
360.547	1	10
360.889	1	7
361.231	1	13
361.572	1	19
361.914	1	10
362.256	1	4
362.598	1	10
362.940	1	0
363.282	1	23
363.624	1	3
363.966	1	19
364.308	1	20
364.649	1	23
364.991	1	12
365.333	1	10
365.675	1	22
366.017	1	30
366.359	1	25
366.701	1	18
367.042	1	20
367.384	1	31
367.726	1	21
368.068	1	12
368.410	1	17
368.752	1	28
369.093	1	26
369.435	1	25
369.777	1	10
370.119	1	38
370.461	1	17
370.803	1	13
371.144	1	23
371.486	1	19
371.828	1	21
372.170	1	16
372.512	1	11
372.853	1	12
373.195	1	26
373.537	1	10
373.879	1	20
374.220	1	13
374.562	1	3
374.904	1	16
375.246	1	20
375.588	1	15
375.929	1	4
376.271	1	13
376.613	1	10
376.955	1	18
377.296	1	13
377.638	1	3
377.980	1	3
378.321	1	16
378.663	1	3
379.005	1	23
379.347	1	9
379.688	1	7
380.030	1	5
380.372	1	14
380.714	1	11
381.055	1	11
381.397	1	6
381.739	1	18
382.080	1	7
382.422	1	14
382.764	1	0
383.105	1	13
383.447	1	9
383.789	1	11
384.130	1	8
384.472	1	8
384.814	1	5
385.156	1	-2
385.497	1	-1
385.839	1	14
386.180	1	13
386.522	1	8
386.864	1	14
387.205	1	12
387.547	1	12
387.889	1	-6
388.230	1	-1
388.572	1	7
388.914	1	6
389.255	1	14
389.597	1	0
389.939	1	9
390.280	1	9
390.622	1	3
390.963	1	4
391.305	1	7
391.647	1	4
391.988	1	14
392.330	1	-5
392.671	1	-3
393.013	1	5
393.355	1	7
393.696	1	5
394.038	1	12
394.379	1	13
394.721	1	14
395.062	1	-1
395.404	1	0
395.746	1	14
396.087	1	18
396.429	1	12
396.770	1	15
397.112	1	9
397.453	1	10
397.795	1	4
398.136	1	2
398.478	1	10
398.819	1	3
399.161	1	9
399.503	1	10
399.844	1	12
400.186	1	-3
400.527	1	10
400.869	1	0
401.210	1	-3
401.552	1	9
401.893	1	-3
402.235	1	4
402.576	1	8
402.918	1	7
403.259	1	4
403.601	1	3
403.942	1	10
404.284	1	-2
404.625	1	16
404.967	1	0
405.308	1	4
405.649	1	3
405.991	1	11
406.332	1	7
406.674	1	17
407.015	1	5
407.357	1	0
407.698	1	3
408.040	1	13
408.381	1	15
408.722	1	13
409.064	1	12
409.405	1	12
409.747	1	-1
410.088	1	14
410.430	1	14
410.771	1	-12
411.112	1	7
411.454	1	7
411.795	1	10
412.137	1	7
412.478	1	12
412.819	1	11
413.161	1	15
413.502	1	12
413.844	1	11
414.185	1	4
414.526	1	2
414.868	1	-7
415.209	1	12
415.550	1	1
415.892	1	4
416.233	1	13
416.575	1	8
416.916	1	1
417.257	1	5
417.599	1	0
417.940	1	9
418.281	1	6
418.623	1	10
418.964	1	2
419.305	1	3
419.647	1	7
419.988	1	18
420.329	1	17
420.671	1	-2
421.012	1	9
421.353	1	2
421.695	1	12
422.036	1	1
422.377	1	14
422.718	1	7
423.060	1	16
423.401	1	10
423.742	1	3
424.084	1	5
424.425	1	7
424.766	1	3
425.107	1	6
425.449	1	10
425.790	1	5
426.131	1	23
426.472	1	12
426.814	1	-1
427.155	1	-4
427.496	1	4
427.837	1	5
428.179	1	13
428.520	1	9
428.861	1	0
429.202	1	10
429.544	1	7
429.885	1	8
430.226	1	6
430.567	1	12
430.909	1	9
431.250	1	8
431.591	1	10
431.932	1	2
432.273	1	8
432.615	1	10
432.956	1	-1
433.297	1	9
433.638	1	7
433.979	1	10
434.320	1	13
434.662	1	-5
435.003	1	15
435.344	1	19
435.685	1	-5
436.026	1	11
436.368	1	8
436.709	1	-5
437.050	1	6
437.391	1	10
437.732	1	15
438.073	1	11
438.414	1	-1
438.756	1	13
439.097	1	5
439.438	1	8
439.779	1	16
440.120	1	-6
440.461	1	7
440.802	1	-10
441.143	1	-5
441.485	1	7
441.826	1	-3
442.167	1	8
442.508	1	3
442.849	1	-4
443.190	1	7
443.531	1	5
443.872	1	13
444.213	1	7
444.554	1	2
444.895	1	4
445.237	1	-3
445.578	1	8
445.919	1	6
446.260	1	17
446.601	1	4
446.942	1	8
447.283	1	8
447.624	1	2
447.965	1	6
448.306	1	6
448.647	1	19
448.988	1	7
449.329	1	2
449.670	1	6
450.011	1	5
450.352	1	-4
450.693	1	5
451.034	1	-4
451.375	1	16
451.716	1	0
452.057	1	15
452.398	1	1
452.739	1	7
453.080	1	12
453.421	1	2
453.762	1	11
454.103	1	-4
454.444	1	4
454.785	1	15
455.126	1	0
455.467	1	4
455.808	1	5
456.149	1	-11
456.490	1	10
456.831	1	1
457.172	1	1
457.513	1	-6
457.854	1	10
458.195	1	-1
458.536	1	5
458.877	1	24
459.218	1	15
459.559	1	5
459.899	1	1
460.240	1	11
460.581	1	0
460.922	1	9
461.263	1	4
461.604	1	-11
461.945	1	22
462.286	1	3
462.627	1	3
462.968	1	-10
463.309	1	14
463.649	1	-1
463.990	1	-1
464.331	1	15
464.672	1	7
465.013	1	4
465.354	1	5
465.695	1	8
466.036	1	-1
466.376	1	12
466.717	1	11
467.058	1	12
467.399	1	-1
467.740	1	1
468.081	1	5
468.422	1	13
468.762	1	2
469.103	1	2
469.444	1	1
469.785	1	10
470.126	1	-11
470.467	1	9
470.807	1	10
471.148	1	6
471.489	1	-8
471.830	1	5
472.171	1	6
472.511	1	0
472.852	1	10
473.193	1	-8
473.534	1	6
473.875	1	8
474.215	1	-3
474.556	1	3
474.897	1	0
475.238	1	13
475.578	1	10
475.919	1	-9
476.260	1	6
476.601	1	-2
476.942	1	0
477.282	1	11
477.623	1	-5
477.964	1	0
478.305	1	8
478.645	1	3
478.986	1	-3
479.327	1	0
479.667	1	2
480.008	1	0
480.349	1	1
480.690	1	-5
481.030	1	4
481.371	1	13
481.712	1	9
482.053	1	5
482.393	1	17
482.734	1	10
483.075	1	7
483.415	1	3
483.756	1	-9
484.097	1	-1
484.437	1	-2
484.778	1	18
485.119	1	9
485.459	1	-5
485.800	1	10
486.141	1	4
486.481	1	-6
486.822	1	10
487.163	1	5
487.503	1	-3
487.844	1	0
488.185	1	4
488.525	1	7
488.866	1	4
489.207	1	0
489.547	1	-2
489.888	1	7
490.228	1	2
490.569	1	7
490.910	1	-8
491.250	1	13
491.591	1	-5
491.932	1	9
492.272	1	0
492.613	1	-9
492.953	1	5
493.294	1	1
493.635	1	6
493.975	1	16
494.316	1	12
494.656	1	0
494.997	1	-1
495.337	1	9
495.678	1	-4
496.019	1	-1
496.359	1	3
496.700	1	11
497.040	1	12
497.381	1	5
497.721	1	4
498.062	1	-1
498.403	1	-9
498.743	1	14
499.084	1	11
499.424	1	-5
499.765	1	-2
500.105	1	8
500.446	1	8
500.786	1	5
501.127	1	4
501.467	1	6
501.808	1	-3
502.148	1	12
502.489	1	5
502.829	1	7
503.170	1	-5
503.510	1	12
503.851	1	7
504.191	1	10
504.532	1	12
504.872	1	8
505.213	1	4
505.553	1	3
505.894	1	11
506.234	1	3
506.575	1	8
506.915	1	5
507.256	1	12
507.596	1	7
507.936	1	2
508.277	1	5
508.617	1	9
508.958	1	15
509.298	1	11
509.639	1	8
509.979	1	4
510.319	1	24
510.660	1	-5
511.000	1	7
511.341	1	4
511.681	1	7
512.022	1	10
512.362	1	-1
512.702	1	9
513.043	1	3
513.383	1	8
513.724	1	-1
514.064	1	7
514.404	1	10
514.745	1	12
515.085	1	14
515.425	1	5
515.766	1	13
516.106	1	-2
516.447	1	4
516.787	1	7
517.127	1	6
517.468	1	7
517.808	1	10
518.148	1	21
518.489	1	-3
518.829	1	18
519.169	1	6
519.510	1	-3
519.850	1	16
520.190	1	13
520.531	1	14
520.871	1	-4
521.211	1	14
521.552	1	9
521.892	1	16
522.232	1	-2
522.573	1	2
522.913	1	15
523.253	1	13
523.593	1	13
523.934	1	8
524.274	1	8
524.614	1	8
524.955	1	18
525.295	1	10
525.635	1	4
525.975	1	17
526.316	1	8
526.656	1	13
526.996	1	9
527.337	1	14
527.677	1	9
528.017	1	9
528.357	1	20
528.698	1	0
529.038	1	5
529.378	1	11
529.718	1	9
530.058	1	10
530.399	1	10
530.739	1	12
531.079	1	8
531.419	1	10
531.760	1	3
532.100	1	20
532.440	1	6
532.780	1	18
533.120	1	21
533.461	1	11
533.801	1	14
534.141	1	15
534.481	1	12
534.821	1	13
535.162	1	13
535.502	1	12
535.842	1	10
536.182	1	19
536.522	1	6
536.862	1	8
537.203	1	4
537.543	1	12
537.883	1	0
538.223	1	11
538.563	1	12
538.903	1	8
539.243	1	8
539.584	1	17
539.924	1	10
540.264	1	1
540.604	1	10
540.944	1	9
541.284	1	0
541.624	1	15
541.964	1	1
542.305	1	7
542.645	1	-7
542.985	1	11
543.325	1	5
543.665	1	8
544.005	1	15
544.345	1	9
544.685	1	13
545.025	1	3
545.365	1	14
545.705	1	6
546.045	1	0
546.386	1	7
546.726	1	5
547.066	1	12
547.406	1	-6
547.746	1	3
548.086	1	0
548.426	1	9
548.766	1	21
549.106	1	1
549.446	1	7
549.786	1	7
550.126	1	9
550.466	1	18
550.806	1	10
551.146	1	9
551.486	1	11
551.826	1	2
552.166	1	20
552.506	1	-2
552.846	1	-3
553.186	1	-8
553.526	1	11
553.866	1	-1
554.206	1	7
554.546	1	1
554.886	1	-1
555.226	1	10
555.566	1	9
555.906	1	7
556.246	1	12
556.586	1	8
556.926	1	-1
557.266	1	12
557.606	1	2
557.946	1	10
558.286	1	10
558.626	1	-9
558.966	1	4
559.306	1	9
559.646	1	9
559.986	1	2
560.325	1	3
560.665	1	6
561.005	1	9
561.345	1	11
561.685	1	9
562.025	1	11
562.365	1	18
562.705	1	5
563.045	1	-2
563.385	1	12
563.725	1	8
564.064	1	15
564.404	1	3
564.744	1	7
565.084	1	7
565.424	1	1
565.764	1	8
566.104	1	12
566.444	1	11
566.783	1	16
567.123	1	2
567.463	1	9
567.803	1	7
568.143	1	10
568.483	1	2
568.823	1	0
569.162	1	10
569.502	1	5
569.842	1	5
570.182	1	9
570.522	1	-4
570.862	1	11
571.201	1	7
571.541	1	2
571.881	1	4
572.221	1	17
572.561	1	2
572.900	1	5
573.240	1	0
573.580	1	5
573.920	1	10
574.260	1	2
574.599	1	7
574.939	1	4
575.279	1	2
575.619	1	9
575.959	1	7
576.298	1	-1
576.638	1	3
576.978	1	-1
577.318	1	-2
577.657	1	13
577.997	1	4
578.337	1	-5
578.677	1	16
579.016	1	0
579.356	1	12
579.696	1	-3
580.036	1	4
580.375	1	-2
580.715	1	8
581.055	1	0
581.394	1	7
581.734	1	6
582.074	1	3
582.414	1	-5
582.753	1	10
583.093	1	5
583.433	1	2
583.772	1	6
584.112	1	10
584.452	1	9
584.791	1	3
585.131	1	4
585.471	1	6
585.811	1	5
586.150	1	5
586.490	1	10
586.830	1	-1
587.169	1	9
587.509	1	11
587.849	1	2
588.188	1	9
588.528	1	11
588.867	1	1
589.207	1	0
589.547	1	-9
589.886	1	3
590.226	1	6
590.566	1	-8
590.905	1	7
591.245	1	-9
591.585	1	10
591.924	1	4
592.264	1	-4
592.603	1	-5
592.943	1	1
593.283	1	-2
593.622	1	8
593.962	1	21
594.301	1	-6
594.641	1	7
594.981	1	-7
595.320	1	7
595.660	1	5
595.999	1	2
596.339	1	18
596.678	1	3
597.018	1	10
597.358	1	-8
597.697	1	4
598.037	1	7
598.376	1	2
598.716	1	20
599.055	1	2
599.395	1	-3
599.734	1	0
600.074	1	6
600.413	1	9
600.753	1	6
601.092	1	1
601.432	1	4
601.771	1	10
602.111	1	13
602.451	1	10
602.790	1	-4
603.130	1	4
603.469	1	6
603.809	1	-4
604.148	1	10
604.487	1	8
604.827	1	-1
605.166	1	6
605.506	1	7
605.845	1	-3
606.185	1	5
606.524	1	3
606.864	1	9
607.203	1	-2
607.543	1	-4
607.882	1	11
608.222	1	-5
608.561	1	4
608.901	1	9
609.240	1	-7
609.579	1	0
609.919	1	8
610.258	1	-3
610.598	1	11
610.937	1	8
611.277	1	7
611.616	1	0
611.955	1	3
612.295	1	8
612.634	1	-7
612.974	1	7
613.313	1	1
613.652	1	-2
613.992	1	2
614.331	1	13
614.671	1	5
615.010	1	-5
615.349	1	2
615.689	1	4
616.028	1	6
616.368	1	3
616.707	1	12
617.046	1	13
617.386	1	0
617.725	1	7
618.064	1	8
618.404	1	-8
618.743	1	16
619.082	1	8
619.422	1	10
619.761	1	6
620.100	1	-7
620.440	1	2
620.779	1	6
621.118	1	0
621.458	1	11
621.797	1	10
622.136	1	5
622.476	1	3
622.815	1	-6
623.154	1	-7
623.494	1	13
623.833	1	11
624.172	1	3
624.511	1	0
624.851	1	7
625.190	1	-2
625.529	1	7
625.869	1	10
626.208	1	-4
626.547	1	2
626.886	1	4
627.226	1	0
627.565	1	4
627.904	1	11
628.243	1	6
628.583	1	-3
628.922	1	0
629.261	1	-8
629.600	1	5
629.940	1	8
630.279	1	16
630.618	1	4
630.957	1	2
631.297	1	3
631.636	1	6
631.975	1	8
632.314	1	3
632.653	1	-4
632.993	1	8
633.332	1	0
633.671	1	-4
634.010	1	2
634.349	1	5
634.689	1	7
635.028	1	7
635.367	1	12
635.706	1	1
636.045	1	14
636.384	1	0
636.724	1	-8
637.063	1	2
637.402	1	-5
637.741	1	14
638.080	1	9
638.419	1	8
638.759	1	5
639.098	1	0
639.437	1	8
639.776	1	-9
640.115	1	10
640.454	1	10
640.793	1	-10
641.132	1	11
641.472	1	4
641.811	1	3
642.150	1	-13
642.489	1	3
642.828	1	-1
643.167	1	2
643.506	1	13
643.845	1	-3
644.184	1	-3
644.524	1	0
644.863	1	3
645.202	1	4
645.541	1	4
645.880	1	8
646.219	1	12
646.558	1	-3
646.897	1	0
647.236	1	-6
647.575	1	-2
647.914	1	-6
648.253	1	4
648.592	1	-5
648.931	1	-3
649.270	1	-2
649.610	1	-4
649.949	1	-2
650.288	1	9
650.627	1	3
650.966	1	8
651.305	1	5
651.644	1	0
651.983	1	-4
652.322	1	5
652.661	1	-4
653.000	1	3
653.339	1	3
653.678	1	4
654.017	1	3
654.356	1	3
654.695	1	-1
655.034	1	1
655.373	1	6
655.712	1	3
656.051	1	6
656.390	1	1
656.729	1	8
657.068	1	10
657.406	1	-3
657.745	1	5
658.084	1	-3
658.423	1	3
658.762	1	14
659.101	1	13
659.440	1	6
659.779	1	-1
660.118	1	-13
660.457	1	-1
660.796	1	16
661.135	1	11
661.474	1	7
661.813	1	5
662.152	1	4
662.491	1	21
662.829	1	8
663.168	1	-7
663.507	1	12
663.846	1	3
664.185	1	-4
664.524	1	-3
664.863	1	4
665.202	1	5
665.541	1	-2
665.879	1	7
666.218	1	2
666.557	1	5
666.896	1	4
667.235	1	10
667.574	1	18
667.913	1	10
668.251	1	6
668.590	1	9
668.929	1	10
669.268	1	-5
669.607	1	4
669.946	1	-2
670.285	1	11
670.623	1	15
670.962	1	4
671.301	1	7
671.640	1	-3
671.979	1	3
672.317	1	-4
672.656	1	0
672.995	1	10
673.334	1	-8
673.673	1	9
674.011	1	4
674.350	1	5
674.689	1	-2
675.028	1	12
675.367	1	-12
675.705	1	14
676.044	1	4
676.383	1	8
676.722	1	0
677.060	1	12
677.399	1	-4
677.738	1	-3
678.077	1	17
678.416	1	1
678.754	1	1
679.093	1	1
679.432	1	9
679.771	1	1
680.109	1	0
680.448	1	3
680.787	1	5
681.125	1	16
681.464	1	-8
681.803	1	-4
682.142	1	3
682.480	1	8
682.819	1	11
683.158	1	8
683.496	1	-5
683.835	1	-4
684.174	1	5
684.512	1	4
684.851	1	-1
685.190	1	3
685.529	1	-7
685.867	1	6
686.206	1	10
686.545	1	3
686.883	1	1
687.222	1	-2
687.561	1	5
687.899	1	3
688.238	1	14
688.577	1	7
688.746	1	10