File: Data/GaN_130K_350ms/GaN_sample F_spot6_UVVIS_130 K_200um_350 ms 2x2mm1_156.txt
340.368	1	5
340.710	1	15
341.052	1	3
341.394	1	0
341.737	1	16
342.079	1	13
342.421	1	13
342.763	1	6
343.105	1	4
343.447	1	8
343.789	1	5
344.131	1	10
344.473	1	-5
344.815	1	-8
345.157	1	-12
345.499	1	1
345.841	1	10
346.183	1	16
346.526	1	3
346.868	1	10
347.210	1	0
347.552	1	10
347.894	1	-1
348.236	1	1
348.578	1	-2
348.920	1	4
349.262	1	4
349.604	1	1
349.946	1	5
350.288	1	-6
350.630	1	8
350.972	1	3
351.314	1	-4
351.656	1	15
351.998	1	-1
352.340	1	17
352.682	1	3
353.024	1	4
353.366	1	11
353.708	1	-7
354.050	1	5
354.392	1	8
354.734	1	2
355.076	1	0
355.418	1	0
355.760	1	10
356.102	1	-2
356.444	1	6
356.785	1	14
357.127	1	14
357.469	1	2
357.811	1	17
358.153	1	11
358.495	1	9
358.837	1	8
359.179	1	5
359.521	1	5
359.863	1	8
360.205	1	12
360.547	1	9
360.889	1	7
361.231	1	9
361.572	1	20
361.914	1	20
362.256	1	19
362.598	1	16
362.940	1	9
363.282	1	17
363.624	1	21
363.966	1	29
364.308	1	24
364.649	1	30
364.991	1	15
365.333	1	22
365.675	1	28
366.017	1	25
366.359	1	38
366.701	1	36
367.042	1	32
367.384	1	39
367.726	1	38
368.068	1	25
368.410	1	32
368.752	1	42
369.093	1	33
369.435	1	39
369.777	1	35
370.119	1	41
370.461	1	35
370.803	1	26
371.144	1	34
371.486	1	36
371.828	1	19
372.170	1	22
372.512	1	33
372.853	1	8
373.195	1	22
373.537	1	34
373.879	1	29
374.220	1	12
374.562	1	14
374.904	1	21
375.246	1	21
375.588	1	24
375.929	1	10
376.271	1	21
376.613	1	8
376.955	1	14
377.296	1	8
377.638	1	-3
377.980	1	10
378.321	1	19
378.663	1	13
379.005	1	23
379.347	1	16
379.688	1	11
380.030	1	11
380.372	1	17
380.714	1	20
381.055	1	12
381.397	1	9
381.739	1	18
382.080	1	6
382.422	1	16
382.764	1	6
383.105	1	13
383.447	1	14
383.789	1	14
384.130	1	19
384.472	1	15
384.814	1	7
385.156	1	8
385.497	1	15
385.839	1	17
386.180	1	13
386.522	1	8
386.864	1	16
387.205	1	12
387.547	1	15
387.889	1	3
388.230	1	8
388.572	1	14
388.914	1	4
389.255	1	3
389.597	1	3
389.939	1	7
390.280	1	14
390.622	1	14
390.963	1	4
391.305	1	20
391.647	1	12
391.988	1	12
392.330	1	1
392.671	1	5
393.013	1	15
393.355	1	12
393.696	1	9
394.038	1	15
394.379	1	13
394.721	1	4
395.062	1	6
395.404	1	2
395.746	1	9
396.087	1	17
396.429	1	11
396.770	1	13
397.112	1	20
397.453	1	3
397.795	1	9
398.136	1	5
398.478	1	12
398.819	1	3
399.161	1	9
399.503	1	13
399.844	1	3
400.186	1	5
400.527	1	14
400.869	1	8
401.210	1	-5
401.552	1	9
401.893	1	-5
402.235	1	15
402.576	1	14
402.918	1	7
403.259	1	6
403.601	1	9
403.942	1	8
404.284	1	-2
404.625	1	17
404.967	1	3
405.308	1	12
405.649	1	4
405.991	1	10
406.332	1	7
406.674	1	12
407.015	1	5
407.357	1	0
407.698	1	2
408.040	1	14
408.381	1	15
408.722	1	7
409.064	1	8
409.405	1	13
409.747	1	3
410.088	1	8
410.430	1	17
410.771	1	3
411.112	1	10
411.454	1	5
411.795	1	10
412.137	1	6
412.478	1	7
412.819	1	11
413.161	1	12
413.502	1	18
413.844	1	9
414.185	1	9
414.526	1	6
414.868	1	3
415.209	1	7
415.550	1	4
415.892	1	14
416.233	1	16
416.575	1	14
416.916	1	5
417.257	1	9
417.599	1	8
417.940	1	15
418.281	1	12
418.623	1	10
418.964	1	5
419.305	1	2
419.647	1	18
419.988	1	10
420.329	1	20
420.671	1	0
421.012	1	5
421.353	1	2
421.695	1	-5
422.036	1	5
422.377	1	16
422.718	1	4
423.060	1	8
423.401	1	7
423.742	1	3
424.084	1	13
424.425	1	5
424.766	1	6
425.107	1	9
425.449	1	-3
425.790	1	16
426.131	1	15
426.472	1	4
426.814	1	14
427.155	1	6
427.496	1	3
427.837	1	12
428.179	1	0
428.520	1	8
428.861	1	8
429.202	1	12
429.544	1	17
429.885	1	8
430.226	1	10
430.567	1	6
430.909	1	4
431.250	1	16
431.591	1	10
431.932	1	1
432.273	1	3
432.615	1	23
432.956	1	-3
433.297	1	9
433.638	1	8
433.979	1	8
434.320	1	5
434.662	1	9
435.003	1	10
435.344	1	10
435.685	1	1
436.026	1	7
436.368	1	-7
436.709	1	2
437.050	1	12
437.391	1	14
437.732	1	3
438.073	1	7
438.414	1	-7
438.756	1	2
439.097	1	11
439.438	1	13
439.779	1	20
440.120	1	4
440.461	1	21
440.802	1	0
441.143	1	-1
441.485	1	-1
441.826	1	5
442.167	1	3
442.508	1	1
442.849	1	12
443.190	1	10
443.531	1	5
443.872	1	12
444.213	1	-4
444.554	1	7
444.895	1	6
445.237	1	5
445.578	1	1
445.919	1	4
446.260	1	1
446.601	1	9
446.942	1	12
447.283	1	18
447.624	1	4
447.965	1	4
448.306	1	12
448.647	1	22
448.988	1	15
449.329	1	0
449.670	1	4
450.011	1	-2
450.352	1	9
450.693	1	-1
451.034	1	0
451.375	1	10
451.716	1	-2
452.057	1	21
452.398	1	7
452.739	1	5
453.080	1	1
453.421	1	6
453.762	1	3
454.103	1	14
454.444	1	1
454.785	1	8
455.126	1	-9
455.467	1	1
455.808	1	14
456.149	1	-4
456.490	1	11
456.831	1	7
457.172	1	0
457.513	1	-10
457.854	1	12
458.195	1	-6
458.536	1	6
458.877	1	21
459.218	1	-1
459.559	1	-1
459.899	1	-1
460.240	1	15
460.581	1	2
460.922	1	3
461.263	1	12
461.604	1	-4
461.945	1	13
462.286	1	11
462.627	1	-9
462.968	1	3
463.309	1	6
463.649	1	-4
463.990	1	4
464.331	1	6
464.672	1	15
465.013	1	0
465.354	1	2
465.695	1	11
466.036	1	5
466.376	1	7
466.717	1	8
467.058	1	14
467.399	1	1
467.740	1	21
468.081	1	9
468.422	1	9
468.762	1	-7
469.103	1	10
469.444	1	2
469.785	1	12
470.126	1	-14
470.467	1	6
470.807	1	5
471.148	1	7
471.489	1	0
471.830	1	7
472.171	1	3
472.511	1	14
472.852	1	7
473.193	1	-2
473.534	1	7
473.875	1	14
474.215	1	4
474.556	1	3
474.897	1	-1
475.238	1	11
475.578	1	14
475.919	1	-5
476.260	1	2
476.601	1	0
476.942	1	8
477.282	1	13
477.623	1	-3
477.964	1	2
478.305	1	15
478.645	1	14
478.986	1	9
479.327	1	-7
479.667	1	14
480.008	1	10
480.349	1	10
480.690	1	4
481.030	1	-1
481.371	1	13
481.712	1	3
482.053	1	3
482.393	1	6
482.734	1	3
483.075	1	15
483.415	1	4
483.756	1	3
484.097	1	-6
484.437	1	3
484.778	1	15
485.119	1	7
485.459	1	-6
485.800	1	15
486.141	1	0
486.481	1	11
486.822	1	5
487.163	1	-1
487.503	1	0
487.844	1	-3
488.185	1	5
488.525	1	3
488.866	1	2
489.207	1	3
489.547	1	4
489.888	1	12
490.228	1	5
490.569	1	8
490.910	1	-5
491.250	1	12
491.591	1	-5
491.932	1	4
492.272	1	8
492.613	1	7
492.953	1	7
493.294	1	8
493.635	1	4
493.975	1	14
494.316	1	9
494.656	1	12
494.997	1	6
495.337	1	5
495.678	1	3
496.019	1	-5
496.359	1	13
496.700	1	6
497.040	1	14
497.381	1	9
497.721	1	9
498.062	1	-1
498.403	1	2
498.743	1	2
499.084	1	15
499.424	1	1
499.765	1	6
500.105	1	6
500.446	1	4
500.786	1	6
501.127	1	10
501.467	1	5
501.808	1	3
502.148	1	12
502.489	1	5
502.829	1	-3
503.170	1	0
503.510	1	13
503.851	1	9
504.191	1	7
504.532	1	5
504.872	1	8
505.213	1	8
505.553	1	11
505.894	1	15
506.234	1	1
506.575	1	6
506.915	1	-2
507.256	1	11
507.596	1	-3
507.936	1	1
508.277	1	5
508.617	1	3
508.958	1	19
509.298	1	2
509.639	1	12
509.979	1	1
510.319	1	20
510.660	1	-4
511.000	1	11
511.341	1	4
511.681	1	13
512.022	1	25
512.362	1	8
512.702	1	18
513.043	1	5
513.383	1	10
513.724	1	6
514.064	1	11
514.404	1	17
514.745	1	5
515.085	1	13
515.425	1	7
515.766	1	17
516.106	1	9
516.447	1	0
516.787	1	16
517.127	1	12
517.468	1	22
517.808	1	11
518.148	1	14
518.489	1	15
518.829	1	17
519.169	1	16
519.510	1	4
519.850	1	17
520.190	1	19
520.531	1	19
520.871	1	10
521.211	1	23
521.552	1	16
521.892	1	20
522.232	1	6
522.573	1	0
522.913	1	16
523.253	1	22
523.593	1	21
523.934	1	7
524.274	1	8
524.614	1	14
524.955	1	11
525.295	1	15
525.635	1	17
525.975	1	16
526.316	1	12
526.656	1	8
526.996	1	14
527.337	1	19
527.677	1	-2
528.017	1	15
528.357	1	15
528.698	1	3
529.038	1	7
529.378	1	17
529.718	1	19
530.058	1	13
530.399	1	19
530.739	1	16
531.079	1	17
531.419	1	10
531.760	1	4
532.100	1	23
532.440	1	25
532.780	1	4
533.120	1	15
533.461	1	9
533.801	1	21
534.141	1	15
534.481	1	9
534.821	1	16
535.162	1	16
535.502	1	18
535.842	1	4
536.182	1	23
536.522	1	13
536.862	1	5
537.203	1	7
537.543	1	6
537.883	1	5
538.223	1	11
538.563	1	20
538.903	1	24
539.243	1	14
539.584	1	9
539.924	1	10
540.264	1	5
540.604	1	15
540.944	1	8
541.284	1	6
541.624	1	11
541.964	1	-1
542.305	1	6
542.645	1	7
542.985	1	14
543.325	1	8
543.665	1	11
544.005	1	19
544.345	1	21
544.685	1	8
545.025	1	2
545.365	1	18
545.705	1	10
546.045	1	11
546.386	1	5
546.726	1	10
547.066	1	7
547.406	1	2
547.746	1	7
548.086	1	11
548.426	1	17
548.766	1	23
549.106	1	4
549.446	1	12
549.786	1	5
550.126	1	18
550.466	1	21
550.806	1	21
551.146	1	4
551.486	1	10
551.826	1	12
552.166	1	11
552.506	1	13
552.846	1	-2
553.186	1	8
553.526	1	15
553.866	1	5
554.206	1	8
554.546	1	14
554.886	1	13
555.226	1	3
555.566	1	11
555.906	1	4
556.246	1	11
556.586	1	10
556.926	1	11
557.266	1	11
557.606	1	9
557.946	1	8
558.286	1	24
558.626	1	8
558.966	1	2
559.306	1	15
559.646	1	14
559.986	1	5
560.325	1	-3
560.665	1	14
561.005	1	7
561.345	1	7
561.685	1	7
562.025	1	12
562.365	1	16
562.705	1	10
563.045	1	-2
563.385	1	5
563.725	1	0
564.064	1	16
564.404	1	8
564.744	1	6
565.084	1	9
565.424	1	5
565.764	1	12
566.104	1	10
566.444	1	19
566.783	1	11
567.123	1	2
567.463	1	7
567.803	1	5
568.143	1	24
568.483	1	9
568.823	1	0
569.162	1	11
569.502	1	10
569.842	1	2
570.182	1	3
570.522	1	-7
570.862	1	27
571.201	1	9
571.541	1	4
571.881	1	7
572.221	1	10
572.561	1	9
572.900	1	6
573.240	1	7
573.580	1	2
573.920	1	9
574.260	1	6
574.599	1	12
574.939	1	21
575.279	1	-7
575.619	1	14
575.959	1	8
576.298	1	5
576.638	1	-3
576.978	1	-4
577.318	1	6
577.657	1	9
577.997	1	12
578.337	1	1
578.677	1	16
579.016	1	6
579.356	1	11
579.696	1	2
580.036	1	11
580.375	1	4
580.715	1	12
581.055	1	9
581.394	1	7
581.734	1	8
582.074	1	4
582.414	1	-4
582.753	1	5
583.093	1	2
583.433	1	9
583.772	1	4
584.112	1	9
584.452	1	15
584.791	1	6
585.131	1	9
585.471	1	9
585.811	1	1
586.150	1	11
586.490	1	3
586.830	1	-4
587.169	1	12
587.509	1	11
587.849	1	10
588.188	1	10
588.528	1	7
588.867	1	5
589.207	1	-6
589.547	1	4
589.886	1	3
590.226	1	8
590.566	1	3
590.905	1	0
591.245	1	-5
591.585	1	8
591.924	1	7
592.264	1	10
592.603	1	2
592.943	1	-3
593.283	1	-6
593.622	1	1
593.962	1	12
594.301	1	2
594.641	1	13
594.981	1	0
595.320	1	11
595.660	1	1
595.999	1	7
596.339	1	11
596.678	1	-3
597.018	1	0
597.358	1	6
597.697	1	-3
598.037	1	11
598.376	1	4
598.716	1	1
599.055	1	4
599.395	1	-13
599.734	1	2
600.074	1	12
600.413	1	8
600.753	1	10
601.092	1	2
601.432	1	-2
601.771	1	7
602.111	1	3
602.451	1	7
602.790	1	0
603.130	1	3
603.469	1	12
603.809	1	0
604.148	1	9
604.487	1	21
604.827	1	0
605.166	1	5
605.506	1	5
605.845	1	-12
606.185	1	11
606.524	1	8
606.864	1	11
607.203	1	-1
607.543	1	4
607.882	1	3
608.222	1	1
608.561	1	1
608.901	1	7
609.240	1	-4
609.579	1	12
609.919	1	2
610.258	1	5
610.598	1	5
610.937	1	7
611.277	1	7
611.616	1	-6
611.955	1	6
612.295	1	7
612.634	1	5
612.974	1	8
613.313	1	1
613.652	1	-3
613.992	1	7
614.331	1	12
614.671	1	5
615.010	1	-7
615.349	1	9
615.689	1	16
616.028	1	13
616.368	1	-2
616.707	1	15
617.046	1	8
617.386	1	5
617.725	1	3
618.064	1	10
618.404	1	5
618.743	1	11
619.082	1	3
619.422	1	13
619.761	1	11
620.100	1	8
620.440	1	1
620.779	1	6
621.118	1	-8
621.458	1	10
621.797	1	-7
622.136	1	6
622.476	1	10
622.815	1	-6
623.154	1	4
623.494	1	13
623.833	1	6
624.172	1	7
624.511	1	2
624.851	1	4
625.190	1	-4
625.529	1	-1
625.869	1	8
626.208	1	3
626.547	1	7
626.886	1	6
627.226	1	1
627.565	1	1
627.904	1	-4
628.243	1	13
628.583	1	-10
628.922	1	-2
629.261	1	2
629.600	1	1
629.940	1	8
630.279	1	15
630.618	1	6
630.957	1	7
631.297	1	11
631.636	1	8
631.975	1	12
632.314	1	8
632.653	1	0
632.993	1	7
633.332	1	6
633.671	1	-3
634.010	1	0
634.349	1	-3
634.689	1	11
635.028	1	8
635.367	1	8
635.706	1	2
636.045	1	15
636.384	1	5
636.724	1	1
637.063	1	7
637.402	1	-5
637.741	1	8
638.080	1	13
638.419	1	6
638.759	1	7
639.098	1	-6
639.437	1	9
639.776	1	3
640.115	1	5
640.454	1	6
640.793	1	-5
641.132	1	8
641.472	1	12
641.811	1	4
642.150	1	-11
642.489	1	3
642.828	1	2
643.167	1	-2
643.506	1	19
643.845	1	-1
644.184	1	2
644.524	1	1
644.863	1	2
645.202	1	10
645.541	1	-1
645.880	1	11
646.219	1	-1
646.558	1	-3
646.897	1	-5
647.236	1	-4
647.575	1	-1
647.914	1	-2
648.253	1	4
648.592	1	-2
648.931	1	-4
649.270	1	0
649.610	1	-2
649.949	1	8
650.288	1	4
650.627	1	6
650.966	1	1
651.305	1	-6
651.644	1	6
651.983	1	-5
652.322	1	8
652.661	1	-3
653.000	1	3
653.339	1	2
653.678	1	2
654.017	1	0
654.356	1	12
654.695	1	2
655.034	1	-2
655.373	1	-6
655.712	1	13
656.051	1	11
656.390	1	10
656.729	1	0
657.068	1	-10
657.406	1	8
657.745	1	3
658.084	1	-5
658.423	1	1
658.762	1	9
659.101	1	5
659.440	1	2
659.779	1	2
660.118	1	-2
660.457	1	17
660.796	1	10
661.135	1	11
661.474	1	8
661.813	1	-4
662.152	1	4
662.491	1	10
662.829	1	15
663.168	1	-3
663.507	1	12
663.846	1	-9
664.185	1	-4
664.524	1	4
664.863	1	7
665.202	1	-4
665.541	1	-4
665.879	1	6
666.218	1	8
666.557	1	6
666.896	1	9
667.235	1	4
667.574	1	10
667.913	1	13
668.251	1	2
668.590	1	12
668.929	1	8
669.268	1	0
669.607	1	9
669.946	1	4
670.285	1	13
670.623	1	14
670.962	1	-2
671.301	1	9
671.640	1	-2
671.979	1	1
672.317	1	2
672.656	1	1
672.995	1	4
673.334	1	-6
673.673	1	10
674.011	1	-3
674.350	1	13
674.689	1	4
675.028	1	8
675.367	1	-3
675.705	1	16
676.044	1	6
676.383	1	6
676.722	1	-4
677.060	1	5
677.399	1	-1
677.738	1	-4
678.077	1	10
678.416	1	10
678.754	1	6
679.093	1	12
679.432	1	2
679.771	1	7
680.109	1	2
680.448	1	-2
680.787	1	2
681.125	1	11
681.464	1	2
681.803	1	-9
682.142	1	-2
682.480	1	6
682.819	1	0
683.158	1	5
683.496	1	-1
683.835	1	-5
684.174	1	4
684.512	1	12
684.851	1	-1
685.190	1	8
685.529	1	-6
685.867	1	7
686.206	1	-3
686.545	1	-5
686.883	1	-7
687.222	1	9
687.561	1	13
687.899	1	0
688.238	1	12
688.577	1	-4
688.746	1	4