File: Data/GaN_130K_350ms/GaN_sample F_spot6_UVVIS_130 K_200um_350 ms 2x2mm1_161.txt
340.368	1	11
340.710	1	7
341.052	1	-7
341.394	1	-1
341.737	1	-1
342.079	1	1
342.421	1	10
342.763	1	8
343.105	1	-11
343.447	1	7
343.789	1	8
344.131	1	10
344.473	1	4
344.815	1	-8
345.157	1	-8
345.499	1	-4
345.841	1	2
346.183	1	15
346.526	1	-5
346.868	1	6
347.210	1	-9
347.552	1	2
347.894	1	-1
348.236	1	-6
348.578	1	-3
348.920	1	6
349.262	1	13
349.604	1	7
349.946	1	14
350.288	1	-12
350.630	1	-1
350.972	1	0
351.314	1	0
351.656	1	1
351.998	1	2
352.340	1	8
352.682	1	7
353.024	1	1
353.366	1	5
353.708	1	4
354.050	1	6
354.392	1	11
354.734	1	3
355.076	1	2
355.418	1	1
355.760	1	10
356.102	1	13
356.444	1	1
356.785	1	13
357.127	1	0
357.469	1	-2
357.811	1	4
358.153	1	-6
358.495	1	8
358.837	1	8
359.179	1	13
359.521	1	14
359.863	1	9
360.205	1	15
360.547	1	6
360.889	1	12
361.231	1	5
361.572	1	20
361.914	1	12
362.256	1	13
362.598	1	16
362.940	1	15
363.282	1	19
363.624	1	18
363.966	1	26
364.308	1	29
364.649	1	29
364.991	1	25
365.333	1	19
365.675	1	22
366.017	1	24
366.359	1	27
366.701	1	23
367.042	1	30
367.384	1	24
367.726	1	41
368.068	1	23
368.410	1	29
368.752	1	35
369.093	1	28
369.435	1	18
369.777	1	38
370.119	1	37
370.461	1	22
370.803	1	20
371.144	1	27
371.486	1	27
371.828	1	21
372.170	1	21
372.512	1	26
372.853	1	8
373.195	1	22
373.537	1	18
373.879	1	23
374.220	1	15
374.562	1	12
374.904	1	15
375.246	1	20
375.588	1	10
375.929	1	4
376.271	1	16
376.613	1	15
376.955	1	14
377.296	1	5
377.638	1	-6
377.980	1	6
378.321	1	9
378.663	1	23
379.005	1	21
379.347	1	5
379.688	1	-2
380.030	1	10
380.372	1	26
380.714	1	24
381.055	1	12
381.397	1	15
381.739	1	11
382.080	1	3
382.422	1	21
382.764	1	8
383.105	1	6
383.447	1	10
383.789	1	15
384.130	1	15
384.472	1	14
384.814	1	-3
385.156	1	3
385.497	1	0
385.839	1	11
386.180	1	14
386.522	1	3
386.864	1	18
387.205	1	3
387.547	1	8
387.889	1	7
388.230	1	11
388.572	1	15
388.914	1	3
389.255	1	10
389.597	1	3
389.939	1	10
390.280	1	20
390.622	1	6
390.963	1	19
391.305	1	10
391.647	1	6
391.988	1	11
392.330	1	4
392.671	1	-6
393.013	1	12
393.355	1	10
393.696	1	-9
394.038	1	4
394.379	1	11
394.721	1	12
395.062	1	5
395.404	1	4
395.746	1	13
396.087	1	4
396.429	1	14
396.770	1	11
397.112	1	7
397.453	1	18
397.795	1	1
398.136	1	4
398.478	1	11
398.819	1	-3
399.161	1	10
399.503	1	9
399.844	1	4
400.186	1	3
400.527	1	25
400.869	1	7
401.210	1	5
401.552	1	11
401.893	1	-3
402.235	1	7
402.576	1	12
402.918	1	10
403.259	1	-6
403.601	1	8
403.942	1	2
404.284	1	6
404.625	1	10
404.967	1	5
405.308	1	3
405.649	1	5
405.991	1	9
406.332	1	10
406.674	1	15
407.015	1	6
407.357	1	1
407.698	1	7
408.040	1	4
408.381	1	13
408.722	1	9
409.064	1	9
409.405	1	15
409.747	1	1
410.088	1	14
410.430	1	14
410.771	1	-9
411.112	1	12
411.454	1	5
411.795	1	8
412.137	1	7
412.478	1	-5
412.819	1	6
413.161	1	4
413.502	1	16
413.844	1	14
414.185	1	14
414.526	1	-2
414.868	1	8
415.209	1	-2
415.550	1	7
415.892	1	8
416.233	1	11
416.575	1	3
416.916	1	7
417.257	1	8
417.599	1	-5
417.940	1	12
418.281	1	7
418.623	1	6
418.964	1	0
419.305	1	8
419.647	1	5
419.988	1	11
420.329	1	14
420.671	1	-1
421.012	1	0
421.353	1	11
421.695	1	2
422.036	1	4
422.377	1	4
422.718	1	8
423.060	1	6
423.401	1	12
423.742	1	11
424.084	1	5
424.425	1	13
424.766	1	16
425.107	1	10
425.449	1	4
425.790	1	12
426.131	1	14
426.472	1	2
426.814	1	5
427.155	1	-5
427.496	1	1
427.837	1	4
428.179	1	7
428.520	1	8
428.861	1	4
429.202	1	13
429.544	1	19
429.885	1	6
430.226	1	1
430.567	1	15
430.909	1	6
431.250	1	8
431.591	1	3
431.932	1	-2
432.273	1	12
432.615	1	24
432.956	1	4
433.297	1	12
433.638	1	6
433.979	1	5
434.320	1	1
434.662	1	8
435.003	1	21
435.344	1	16
435.685	1	-10
436.026	1	17
436.368	1	5
436.709	1	6
437.050	1	5
437.391	1	9
437.732	1	2
438.073	1	20
438.414	1	3
438.756	1	4
439.097	1	10
439.438	1	9
439.779	1	11
440.120	1	13
440.461	1	13
440.802	1	-10
441.143	1	0
441.485	1	17
441.826	1	5
442.167	1	6
442.508	1	9
442.849	1	8
443.190	1	14
443.531	1	0
443.872	1	10
444.213	1	1
444.554	1	5
444.895	1	3
445.237	1	-1
445.578	1	-3
445.919	1	0
446.260	1	7
446.601	1	6
446.942	1	6
447.283	1	6
447.624	1	9
447.965	1	4
448.306	1	11
448.647	1	12
448.988	1	7
449.329	1	0
449.670	1	10
450.011	1	-6
450.352	1	11
450.693	1	10
451.034	1	-3
451.375	1	2
451.716	1	-10
452.057	1	21
452.398	1	-3
452.739	1	7
453.080	1	-5
453.421	1	8
453.762	1	7
454.103	1	3
454.444	1	11
454.785	1	10
455.126	1	2
455.467	1	10
455.808	1	10
456.149	1	-8
456.490	1	10
456.831	1	6
457.172	1	5
457.513	1	4
457.854	1	3
458.195	1	-5
458.536	1	6
458.877	1	19
459.218	1	10
459.559	1	3
459.899	1	0
460.240	1	17
460.581	1	-2
460.922	1	10
461.263	1	11
461.604	1	-4
461.945	1	15
462.286	1	10
462.627	1	0
462.968	1	5
463.309	1	11
463.649	1	-2
463.990	1	10
464.331	1	5
464.672	1	11
465.013	1	-1
465.354	1	11
465.695	1	11
466.036	1	4
466.376	1	8
466.717	1	1
467.058	1	12
467.399	1	4
467.740	1	12
468.081	1	11
468.422	1	9
468.762	1	-3
469.103	1	12
469.444	1	-2
469.785	1	10
470.126	1	-15
470.467	1	3
470.807	1	5
471.148	1	12
471.489	1	-2
471.830	1	7
472.171	1	5
472.511	1	7
472.852	1	6
473.193	1	17
473.534	1	2
473.875	1	17
474.215	1	4
474.556	1	13
474.897	1	-1
475.238	1	17
475.578	1	6
475.919	1	9
476.260	1	6
476.601	1	0
476.942	1	4
477.282	1	12
477.623	1	0
477.964	1	4
478.305	1	13
478.645	1	10
478.986	1	-3
479.327	1	12
479.667	1	6
480.008	1	-1
480.349	1	5
480.690	1	5
481.030	1	5
481.371	1	12
481.712	1	11
482.053	1	6
482.393	1	20
482.734	1	9
483.075	1	15
483.415	1	-4
483.756	1	4
484.097	1	0
484.437	1	-1
484.778	1	19
485.119	1	8
485.459	1	-6
485.800	1	7
486.141	1	1
486.481	1	-3
486.822	1	-1
487.163	1	1
487.503	1	-2
487.844	1	-1
488.185	1	9
488.525	1	7
488.866	1	1
489.207	1	7
489.547	1	3
489.888	1	10
490.228	1	12
490.569	1	9
490.910	1	-7
491.250	1	5
491.591	1	0
491.932	1	3
492.272	1	5
492.613	1	2
492.953	1	5
493.294	1	3
493.635	1	9
493.975	1	6
494.316	1	8
494.656	1	19
494.997	1	-3
495.337	1	9
495.678	1	14
496.019	1	1
496.359	1	12
496.700	1	4
497.040	1	8
497.381	1	5
497.721	1	7
498.062	1	15
498.403	1	6
498.743	1	10
499.084	1	11
499.424	1	-1
499.765	1	-1
500.105	1	9
500.446	1	11
500.786	1	10
501.127	1	8
501.467	1	12
501.808	1	9
502.148	1	9
502.489	1	12
502.829	1	2
503.170	1	-4
503.510	1	11
503.851	1	6
504.191	1	5
504.532	1	2
504.872	1	12
505.213	1	10
505.553	1	15
505.894	1	10
506.234	1	-1
506.575	1	9
506.915	1	7
507.256	1	22
507.596	1	5
507.936	1	4
508.277	1	9
508.617	1	3
508.958	1	14
509.298	1	6
509.639	1	11
509.979	1	6
510.319	1	26
510.660	1	7
511.000	1	19
511.341	1	3
511.681	1	6
512.022	1	6
512.362	1	5
512.702	1	10
513.043	1	15
513.383	1	17
513.724	1	6
514.064	1	5
514.404	1	20
514.745	1	7
515.085	1	10
515.425	1	10
515.766	1	23
516.106	1	-8
516.447	1	7
516.787	1	6
517.127	1	9
517.468	1	12
517.808	1	10
518.148	1	13
518.489	1	6
518.829	1	11
519.169	1	17
519.510	1	12
519.850	1	25
520.190	1	24
520.531	1	14
520.871	1	-3
521.211	1	14
521.552	1	16
521.892	1	18
522.232	1	3
522.573	1	-2
522.913	1	13
523.253	1	14
523.593	1	17
523.934	1	10
524.274	1	4
524.614	1	17
524.955	1	15
525.295	1	14
525.635	1	11
525.975	1	14
526.316	1	2
526.656	1	8
526.996	1	3
527.337	1	17
527.677	1	6
528.017	1	11
528.357	1	10
528.698	1	4
529.038	1	14
529.378	1	2
529.718	1	30
530.058	1	12
530.399	1	6
530.739	1	11
531.079	1	14
531.419	1	8
531.760	1	8
532.100	1	7
532.440	1	16
532.780	1	10
533.120	1	12
533.461	1	5
533.801	1	20
534.141	1	6
534.481	1	17
534.821	1	13
535.162	1	12
535.502	1	15
535.842	1	21
536.182	1	19
536.522	1	4
536.862	1	10
537.203	1	-1
537.543	1	17
537.883	1	6
538.223	1	10
538.563	1	13
538.903	1	18
539.243	1	10
539.584	1	17
539.924	1	14
540.264	1	-1
540.604	1	9
540.944	1	6
541.284	1	11
541.624	1	19
541.964	1	3
542.305	1	9
542.645	1	10
542.985	1	10
543.325	1	7
543.665	1	13
544.005	1	16
544.345	1	7
544.685	1	16
545.025	1	10
545.365	1	15
545.705	1	7
546.045	1	16
546.386	1	-6
546.726	1	8
547.066	1	0
547.406	1	-9
547.746	1	8
548.086	1	3
548.426	1	19
548.766	1	15
549.106	1	1
549.446	1	8
549.786	1	16
550.126	1	21
550.466	1	17
550.806	1	10
551.146	1	2
551.486	1	8
551.826	1	17
552.166	1	18
552.506	1	16
552.846	1	5
553.186	1	4
553.526	1	16
553.866	1	-2
554.206	1	5
554.546	1	17
554.886	1	5
555.226	1	14
555.566	1	3
555.906	1	2
556.246	1	5
556.586	1	10
556.926	1	14
557.266	1	11
557.606	1	4
557.946	1	11
558.286	1	24
558.626	1	6
558.966	1	4
559.306	1	11
559.646	1	9
559.986	1	14
560.325	1	-4
560.665	1	10
561.005	1	7
561.345	1	15
561.685	1	10
562.025	1	3
562.365	1	11
562.705	1	14
563.045	1	11
563.385	1	6
563.725	1	3
564.064	1	17
564.404	1	8
564.744	1	3
565.084	1	13
565.424	1	0
565.764	1	11
566.104	1	15
566.444	1	14
566.783	1	11
567.123	1	8
567.463	1	7
567.803	1	4
568.143	1	12
568.483	1	4
568.823	1	-2
569.162	1	16
569.502	1	5
569.842	1	0
570.182	1	8
570.522	1	-13
570.862	1	21
571.201	1	11
571.541	1	2
571.881	1	5
572.221	1	13
572.561	1	-1
572.900	1	6
573.240	1	6
573.580	1	3
573.920	1	9
574.260	1	1
574.599	1	6
574.939	1	13
575.279	1	4
575.619	1	11
575.959	1	12
576.298	1	2
576.638	1	7
576.978	1	0
577.318	1	2
577.657	1	11
577.997	1	11
578.337	1	8
578.677	1	7
579.016	1	2
579.356	1	5
579.696	1	10
580.036	1	10
580.375	1	-1
580.715	1	4
581.055	1	4
581.394	1	-3
581.734	1	10
582.074	1	1
582.414	1	-4
582.753	1	14
583.093	1	3
583.433	1	13
583.772	1	0
584.112	1	11
584.452	1	13
584.791	1	14
585.131	1	14
585.471	1	-5
585.811	1	-5
586.150	1	1
586.490	1	4
586.830	1	-7
587.169	1	4
587.509	1	5
587.849	1	6
588.188	1	12
588.528	1	10
588.867	1	-2
589.207	1	-4
589.547	1	3
589.886	1	12
590.226	1	10
590.566	1	5
590.905	1	16
591.245	1	11
591.585	1	7
591.924	1	-5
592.264	1	0
592.603	1	0
592.943	1	3
593.283	1	-3
593.622	1	2
593.962	1	4
594.301	1	-7
594.641	1	10
594.981	1	-4
595.320	1	12
595.660	1	4
595.999	1	8
596.339	1	14
596.678	1	-3
597.018	1	2
597.358	1	-5
597.697	1	1
598.037	1	5
598.376	1	-1
598.716	1	12
599.055	1	4
599.395	1	3
599.734	1	1
600.074	1	8
600.413	1	15
600.753	1	12
601.092	1	4
601.432	1	-7
601.771	1	7
602.111	1	3
602.451	1	2
602.790	1	-5
603.130	1	3
603.469	1	0
603.809	1	-4
604.148	1	2
604.487	1	15
604.827	1	3
605.166	1	13
605.506	1	2
605.845	1	0
606.185	1	10
606.524	1	-2
606.864	1	20
607.203	1	5
607.543	1	6
607.882	1	12
608.222	1	-9
608.561	1	-1
608.901	1	13
609.240	1	-10
609.579	1	6
609.919	1	10
610.258	1	-3
610.598	1	8
610.937	1	11
611.277	1	9
611.616	1	-10
611.955	1	-1
612.295	1	4
612.634	1	4
612.974	1	10
613.313	1	-3
613.652	1	-16
613.992	1	4
614.331	1	7
614.671	1	0
615.010	1	-9
615.349	1	1
615.689	1	4
616.028	1	10
616.368	1	8
616.707	1	8
617.046	1	8
617.386	1	4
617.725	1	3
618.064	1	10
618.404	1	-4
618.743	1	6
619.082	1	10
619.422	1	4
619.761	1	-1
620.100	1	1
620.440	1	9
620.779	1	3
621.118	1	2
621.458	1	10
621.797	1	-2
622.136	1	-1
622.476	1	3
622.815	1	-4
623.154	1	3
623.494	1	11
623.833	1	9
624.172	1	3
624.511	1	3
624.851	1	3
625.190	1	-7
625.529	1	2
625.869	1	2
626.208	1	2
626.547	1	5
626.886	1	2
627.226	1	-1
627.565	1	6
627.904	1	4
628.243	1	10
628.583	1	-6
628.922	1	-8
629.261	1	-8
629.600	1	8
629.940	1	1
630.279	1	9
630.618	1	5
630.957	1	5
631.297	1	3
631.636	1	9
631.975	1	15
632.314	1	4
632.653	1	6
632.993	1	11
633.332	1	-1
633.671	1	-4
634.010	1	-5
634.349	1	2
634.689	1	11
635.028	1	6
635.367	1	5
635.706	1	4
636.045	1	13
636.384	1	13
636.724	1	7
637.063	1	9
637.402	1	-6
637.741	1	11
638.080	1	7
638.419	1	4
638.759	1	5
639.098	1	0
639.437	1	3
639.776	1	-9
640.115	1	-2
640.454	1	7
640.793	1	0
641.132	1	19
641.472	1	-1
641.811	1	9
642.150	1	-19
642.489	1	-4
642.828	1	2
643.167	1	9
643.506	1	8
643.845	1	-3
644.184	1	-7
644.524	1	-2
644.863	1	-1
645.202	1	3
645.541	1	4
645.880	1	3
646.219	1	6
646.558	1	-7
646.897	1	8
647.236	1	-10
647.575	1	-2
647.914	1	0
648.253	1	6
648.592	1	3
648.931	1	-6
649.270	1	5
649.610	1	-4
649.949	1	9
650.288	1	6
650.627	1	4
650.966	1	8
651.305	1	1
651.644	1	5
651.983	1	-6
652.322	1	-5
652.661	1	-6
653.000	1	6
653.339	1	8
653.678	1	0
654.017	1	4
654.356	1	1
654.695	1	3
655.034	1	3
655.373	1	3
655.712	1	2
656.051	1	3
656.390	1	8
656.729	1	2
657.068	1	5
657.406	1	7
657.745	1	3
658.084	1	-1
658.423	1	5
658.762	1	16
659.101	1	0
659.440	1	5
659.779	1	0
660.118	1	-1
660.457	1	-6
660.796	1	11
661.135	1	8
661.474	1	5
661.813	1	2
662.152	1	0
662.491	1	14
662.829	1	8
663.168	1	0
663.507	1	5
663.846	1	4
664.185	1	-3
664.524	1	-5
664.863	1	5
665.202	1	9
665.541	1	6
665.879	1	4
666.218	1	7
666.557	1	7
666.896	1	3
667.235	1	10
667.574	1	12
667.913	1	5
668.251	1	16
668.590	1	6
668.929	1	0
669.268	1	7
669.607	1	0
669.946	1	14
670.285	1	4
670.623	1	17
670.962	1	2
671.301	1	-1
671.640	1	-9
671.979	1	4
672.317	1	1
672.656	1	-4
672.995	1	7
673.334	1	-2
673.673	1	3
674.011	1	6
674.350	1	3
674.689	1	6
675.028	1	9
675.367	1	-2
675.705	1	15
676.044	1	2
676.383	1	4
676.722	1	3
677.060	1	17
677.399	1	-3
677.738	1	3
678.077	1	11
678.416	1	7
678.754	1	-5
679.093	1	0
679.432	1	14
679.771	1	12
680.109	1	1
680.448	1	4
680.787	1	6
681.125	1	7
681.464	1	1
681.803	1	-4
682.142	1	2
682.480	1	16
682.819	1	8
683.158	1	14
683.496	1	3
683.835	1	-4
684.174	1	2
684.512	1	4
684.851	1	-5
685.190	1	-2
685.529	1	-13
685.867	1	0
686.206	1	13
686.545	1	-1
686.883	1	3
687.222	1	3
687.561	1	9
687.899	1	-2
688.238	1	13
688.577	1	8
688.746	1	11