File: Data/GaN_130K_350ms/GaN_sample F_spot6_UVVIS_130 K_200um_350 ms 2x2mm1_150.txt
340.368	1	6
340.710	1	14
341.052	1	-7
341.394	1	-4
341.737	1	-1
342.079	1	10
342.421	1	10
342.763	1	0
343.105	1	1
343.447	1	7
343.789	1	7
344.131	1	2
344.473	1	7
344.815	1	2
345.157	1	-8
345.499	1	2
345.841	1	-7
346.183	1	9
346.526	1	-1
346.868	1	11
347.210	1	5
347.552	1	0
347.894	1	1
348.236	1	4
348.578	1	9
348.920	1	2
349.262	1	11
349.604	1	8
349.946	1	-1
350.288	1	0
350.630	1	-3
350.972	1	6
351.314	1	-2
351.656	1	18
351.998	1	2
352.340	1	12
352.682	1	3
353.024	1	-1
353.366	1	8
353.708	1	-3
354.050	1	3
354.392	1	9
354.734	1	0
355.076	1	12
355.418	1	7
355.760	1	4
356.102	1	1
356.444	1	-9
356.785	1	10
357.127	1	14
357.469	1	6
357.811	1	11
358.153	1	7
358.495	1	6
358.837	1	3
359.179	1	10
359.521	1	8
359.863	1	4
360.205	1	0
360.547	1	7
360.889	1	15
361.231	1	8
361.572	1	19
361.914	1	9
362.256	1	5
362.598	1	12
362.940	1	15
363.282	1	26
363.624	1	29
363.966	1	26
364.308	1	33
364.649	1	37
364.991	1	25
365.333	1	21
365.675	1	37
366.017	1	28
366.359	1	40
366.701	1	33
367.042	1	44
367.384	1	45
367.726	1	43
368.068	1	29
368.410	1	28
368.752	1	46
369.093	1	35
369.435	1	35
369.777	1	33
370.119	1	39
370.461	1	25
370.803	1	31
371.144	1	34
371.486	1	21
371.828	1	31
372.170	1	13
372.512	1	21
372.853	1	20
373.195	1	25
373.537	1	32
373.879	1	24
374.220	1	21
374.562	1	23
374.904	1	18
375.246	1	24
375.588	1	7
375.929	1	8
376.271	1	25
376.613	1	15
376.955	1	12
377.296	1	16
377.638	1	0
377.980	1	11
378.321	1	13
378.663	1	21
379.005	1	28
379.347	1	20
379.688	1	11
380.030	1	8
380.372	1	9
380.714	1	21
381.055	1	17
381.397	1	12
381.739	1	21
382.080	1	-1
382.422	1	16
382.764	1	7
383.105	1	6
383.447	1	18
383.789	1	21
384.130	1	12
384.472	1	18
384.814	1	9
385.156	1	1
385.497	1	-2
385.839	1	9
386.180	1	7
386.522	1	6
386.864	1	18
387.205	1	16
387.547	1	15
387.889	1	6
388.230	1	6
388.572	1	14
388.914	1	11
389.255	1	4
389.597	1	2
389.939	1	14
390.280	1	15
390.622	1	9
390.963	1	13
391.305	1	13
391.647	1	7
391.988	1	18
392.330	1	0
392.671	1	5
393.013	1	10
393.355	1	5
393.696	1	-3
394.038	1	15
394.379	1	16
394.721	1	5
395.062	1	12
395.404	1	-8
395.746	1	20
396.087	1	15
396.429	1	10
396.770	1	8
397.112	1	9
397.453	1	23
397.795	1	8
398.136	1	12
398.478	1	2
398.819	1	-10
399.161	1	18
399.503	1	26
399.844	1	10
400.186	1	5
400.527	1	15
400.869	1	5
401.210	1	0
401.552	1	15
401.893	1	0
402.235	1	4
402.576	1	9
402.918	1	15
403.259	1	1
403.601	1	10
403.942	1	5
404.284	1	7
404.625	1	25
404.967	1	3
405.308	1	4
405.649	1	-1
405.991	1	4
406.332	1	13
406.674	1	7
407.015	1	7
407.357	1	2
407.698	1	1
408.040	1	15
408.381	1	14
408.722	1	10
409.064	1	9
409.405	1	15
409.747	1	6
410.088	1	15
410.430	1	15
410.771	1	-6
411.112	1	10
411.454	1	4
411.795	1	8
412.137	1	9
412.478	1	11
412.819	1	0
413.161	1	24
413.502	1	11
413.844	1	-1
414.185	1	16
414.526	1	7
414.868	1	8
415.209	1	4
415.550	1	6
415.892	1	9
416.233	1	8
416.575	1	6
416.916	1	-3
417.257	1	10
417.599	1	7
417.940	1	11
418.281	1	10
418.623	1	5
418.964	1	3
419.305	1	8
419.647	1	18
419.988	1	10
420.329	1	17
420.671	1	6
421.012	1	14
421.353	1	-4
421.695	1	8
422.036	1	16
422.377	1	10
422.718	1	14
423.060	1	12
423.401	1	16
423.742	1	5
424.084	1	5
424.425	1	11
424.766	1	6
425.107	1	13
425.449	1	2
425.790	1	10
426.131	1	9
426.472	1	5
426.814	1	7
427.155	1	4
427.496	1	15
427.837	1	13
428.179	1	16
428.520	1	6
428.861	1	2
429.202	1	8
429.544	1	13
429.885	1	-1
430.226	1	2
430.567	1	0
430.909	1	11
431.250	1	8
431.591	1	5
431.932	1	9
432.273	1	13
432.615	1	13
432.956	1	7
433.297	1	9
433.638	1	7
433.979	1	10
434.320	1	1
434.662	1	6
435.003	1	28
435.344	1	13
435.685	1	-5
436.026	1	10
436.368	1	4
436.709	1	8
437.050	1	5
437.391	1	16
437.732	1	3
438.073	1	6
438.414	1	15
438.756	1	11
439.097	1	9
439.438	1	10
439.779	1	10
440.120	1	8
440.461	1	21
440.802	1	-2
441.143	1	-7
441.485	1	12
441.826	1	10
442.167	1	7
442.508	1	9
442.849	1	6
443.190	1	10
443.531	1	4
443.872	1	11
444.213	1	8
444.554	1	10
444.895	1	7
445.237	1	2
445.578	1	-1
445.919	1	-7
446.260	1	11
446.601	1	12
446.942	1	8
447.283	1	13
447.624	1	9
447.965	1	3
448.306	1	6
448.647	1	23
448.988	1	5
449.329	1	-1
449.670	1	-4
450.011	1	-4
450.352	1	15
450.693	1	7
451.034	1	-3
451.375	1	18
451.716	1	0
452.057	1	16
452.398	1	4
452.739	1	1
453.080	1	7
453.421	1	2
453.762	1	15
454.103	1	2
454.444	1	14
454.785	1	17
455.126	1	-6
455.467	1	10
455.808	1	14
456.149	1	-5
456.490	1	6
456.831	1	3
457.172	1	9
457.513	1	2
457.854	1	3
458.195	1	-6
458.536	1	1
458.877	1	23
459.218	1	5
459.559	1	5
459.899	1	0
460.240	1	19
460.581	1	-7
460.922	1	8
461.263	1	6
461.604	1	-5
461.945	1	14
462.286	1	3
462.627	1	-3
462.968	1	-1
463.309	1	1
463.649	1	3
463.990	1	-1
464.331	1	8
464.672	1	3
465.013	1	-5
465.354	1	6
465.695	1	10
466.036	1	7
466.376	1	0
466.717	1	7
467.058	1	8
467.399	1	-9
467.740	1	17
468.081	1	11
468.422	1	5
468.762	1	8
469.103	1	2
469.444	1	10
469.785	1	11
470.126	1	-1
470.467	1	3
470.807	1	-2
471.148	1	8
471.489	1	1
471.830	1	10
472.171	1	7
472.511	1	8
472.852	1	12
473.193	1	-2
473.534	1	7
473.875	1	13
474.215	1	6
474.556	1	1
474.897	1	0
475.238	1	28
475.578	1	2
475.919	1	2
476.260	1	6
476.601	1	2
476.942	1	9
477.282	1	2
477.623	1	-9
477.964	1	-6
478.305	1	18
478.645	1	0
478.986	1	6
479.327	1	-2
479.667	1	5
480.008	1	2
480.349	1	2
480.690	1	10
481.030	1	-3
481.371	1	9
481.712	1	5
482.053	1	-1
482.393	1	8
482.734	1	4
483.075	1	25
483.415	1	4
483.756	1	-2
484.097	1	-6
484.437	1	0
484.778	1	15
485.119	1	11
485.459	1	-2
485.800	1	20
486.141	1	9
486.481	1	3
486.822	1	12
487.163	1	1
487.503	1	-4
487.844	1	8
488.185	1	10
488.525	1	15
488.866	1	10
489.207	1	8
489.547	1	3
489.888	1	13
490.228	1	2
490.569	1	2
490.910	1	-2
491.250	1	2
491.591	1	6
491.932	1	8
492.272	1	5
492.613	1	2
492.953	1	10
493.294	1	11
493.635	1	10
493.975	1	11
494.316	1	9
494.656	1	9
494.997	1	9
495.337	1	9
495.678	1	8
496.019	1	0
496.359	1	9
496.700	1	4
497.040	1	16
497.381	1	11
497.721	1	7
498.062	1	1
498.403	1	10
498.743	1	8
499.084	1	16
499.424	1	7
499.765	1	3
500.105	1	5
500.446	1	10
500.786	1	21
501.127	1	8
501.467	1	1
501.808	1	12
502.148	1	10
502.489	1	7
502.829	1	8
503.170	1	-7
503.510	1	12
503.851	1	1
504.191	1	13
504.532	1	1
504.872	1	16
505.213	1	7
505.553	1	13
505.894	1	11
506.234	1	-2
506.575	1	8
506.915	1	17
507.256	1	17
507.596	1	6
507.936	1	-5
508.277	1	9
508.617	1	-3
508.958	1	13
509.298	1	4
509.639	1	16
509.979	1	5
510.319	1	11
510.660	1	6
511.000	1	11
511.341	1	4
511.681	1	9
512.022	1	16
512.362	1	3
512.702	1	18
513.043	1	10
513.383	1	14
513.724	1	0
514.064	1	12
514.404	1	16
514.745	1	8
515.085	1	21
515.425	1	10
515.766	1	22
516.106	1	8
516.447	1	12
516.787	1	4
517.127	1	9
517.468	1	17
517.808	1	14
518.148	1	17
518.489	1	15
518.829	1	15
519.169	1	19
519.510	1	15
519.850	1	27
520.190	1	21
520.531	1	14
520.871	1	11
521.211	1	17
521.552	1	18
521.892	1	23
522.232	1	11
522.573	1	11
522.913	1	17
523.253	1	13
523.593	1	13
523.934	1	12
524.274	1	0
524.614	1	20
524.955	1	15
525.295	1	19
525.635	1	6
525.975	1	22
526.316	1	7
526.656	1	11
526.996	1	17
527.337	1	18
527.677	1	0
528.017	1	12
528.357	1	18
528.698	1	15
529.038	1	14
529.378	1	10
529.718	1	17
530.058	1	15
530.399	1	20
530.739	1	10
531.079	1	19
531.419	1	17
531.760	1	8
532.100	1	13
532.440	1	11
532.780	1	11
533.120	1	20
533.461	1	19
533.801	1	28
534.141	1	14
534.481	1	14
534.821	1	22
535.162	1	9
535.502	1	7
535.842	1	13
536.182	1	18
536.522	1	10
536.862	1	14
537.203	1	5
537.543	1	18
537.883	1	9
538.223	1	19
538.563	1	26
538.903	1	17
539.243	1	12
539.584	1	16
539.924	1	10
540.264	1	6
540.604	1	18
540.944	1	22
541.284	1	7
541.624	1	26
541.964	1	9
542.305	1	13
542.645	1	10
542.985	1	12
543.325	1	13
543.665	1	12
544.005	1	19
544.345	1	13
544.685	1	21
545.025	1	3
545.365	1	17
545.705	1	0
546.045	1	10
546.386	1	11
546.726	1	13
547.066	1	6
547.406	1	1
547.746	1	9
548.086	1	9
548.426	1	16
548.766	1	11
549.106	1	3
549.446	1	17
549.786	1	8
550.126	1	10
550.466	1	23
550.806	1	21
551.146	1	19
551.486	1	12
551.826	1	8
552.166	1	17
552.506	1	13
552.846	1	8
553.186	1	15
553.526	1	14
553.866	1	8
554.206	1	7
554.546	1	11
554.886	1	11
555.226	1	11
555.566	1	4
555.906	1	10
556.246	1	17
556.586	1	14
556.926	1	8
557.266	1	11
557.606	1	6
557.946	1	12
558.286	1	17
558.626	1	-1
558.966	1	8
559.306	1	6
559.646	1	18
559.986	1	18
560.325	1	1
560.665	1	14
561.005	1	9
561.345	1	10
561.685	1	7
562.025	1	10
562.365	1	11
562.705	1	14
563.045	1	2
563.385	1	15
563.725	1	8
564.064	1	16
564.404	1	6
564.744	1	2
565.084	1	-3
565.424	1	5
565.764	1	9
566.104	1	0
566.444	1	21
566.783	1	17
567.123	1	4
567.463	1	-1
567.803	1	11
568.143	1	16
568.483	1	8
568.823	1	-3
569.162	1	18
569.502	1	10
569.842	1	7
570.182	1	3
570.522	1	-11
570.862	1	20
571.201	1	5
571.541	1	1
571.881	1	-2
572.221	1	6
572.561	1	2
572.900	1	12
573.240	1	2
573.580	1	9
573.920	1	5
574.260	1	4
574.599	1	4
574.939	1	12
575.279	1	-1
575.619	1	10
575.959	1	11
576.298	1	8
576.638	1	3
576.978	1	0
577.318	1	8
577.657	1	11
577.997	1	9
578.337	1	1
578.677	1	12
579.016	1	8
579.356	1	9
579.696	1	7
580.036	1	1
580.375	1	-1
580.715	1	9
581.055	1	0
581.394	1	1
581.734	1	8
582.074	1	4
582.414	1	-2
582.753	1	6
583.093	1	10
583.433	1	8
583.772	1	8
584.112	1	9
584.452	1	14
584.791	1	8
585.131	1	7
585.471	1	14
585.811	1	6
586.150	1	9
586.490	1	2
586.830	1	-3
587.169	1	4
587.509	1	7
587.849	1	11
588.188	1	5
588.528	1	9
588.867	1	9
589.207	1	3
589.547	1	2
589.886	1	9
590.226	1	11
590.566	1	5
590.905	1	7
591.245	1	6
591.585	1	7
591.924	1	-1
592.264	1	1
592.603	1	0
592.943	1	-1
593.283	1	-2
593.622	1	10
593.962	1	12
594.301	1	-11
594.641	1	11
594.981	1	-5
595.320	1	11
595.660	1	1
595.999	1	9
596.339	1	16
596.678	1	4
597.018	1	14
597.358	1	-9
597.697	1	2
598.037	1	6
598.376	1	8
598.716	1	4
599.055	1	-2
599.395	1	-3
599.734	1	-3
600.074	1	7
600.413	1	6
600.753	1	7
601.092	1	1
601.432	1	3
601.771	1	13
602.111	1	4
602.451	1	2
602.790	1	3
603.130	1	3
603.469	1	5
603.809	1	7
604.148	1	15
604.487	1	8
604.827	1	6
605.166	1	6
605.506	1	0
605.845	1	0
606.185	1	6
606.524	1	2
606.864	1	9
607.203	1	-1
607.543	1	4
607.882	1	7
608.222	1	-2
608.561	1	0
608.901	1	15
609.240	1	2
609.579	1	14
609.919	1	17
610.258	1	11
610.598	1	8
610.937	1	15
611.277	1	7
611.616	1	-1
611.955	1	2
612.295	1	4
612.634	1	1
612.974	1	2
613.313	1	0
613.652	1	-2
613.992	1	4
614.331	1	0
614.671	1	-1
615.010	1	-3
615.349	1	2
615.689	1	9
616.028	1	9
616.368	1	3
616.707	1	16
617.046	1	5
617.386	1	1
617.725	1	-1
618.064	1	15
618.404	1	7
618.743	1	9
619.082	1	0
619.422	1	4
619.761	1	11
620.100	1	-3
620.440	1	2
620.779	1	0
621.118	1	-3
621.458	1	8
621.797	1	4
622.136	1	5
622.476	1	0
622.815	1	-3
623.154	1	4
623.494	1	9
623.833	1	13
624.172	1	1
624.511	1	7
624.851	1	-4
625.190	1	8
625.529	1	9
625.869	1	3
626.208	1	1
626.547	1	-4
626.886	1	3
627.226	1	-5
627.565	1	6
627.904	1	3
628.243	1	11
628.583	1	-10
628.922	1	0
629.261	1	-18
629.600	1	2
629.940	1	12
630.279	1	8
630.618	1	2
630.957	1	2
631.297	1	-5
631.636	1	5
631.975	1	10
632.314	1	12
632.653	1	-2
632.993	1	0
633.332	1	-4
633.671	1	-6
634.010	1	-9
634.349	1	4
634.689	1	12
635.028	1	7
635.367	1	8
635.706	1	3
636.045	1	6
636.384	1	7
636.724	1	17
637.063	1	6
637.402	1	1
637.741	1	11
638.080	1	13
638.419	1	2
638.759	1	5
639.098	1	4
639.437	1	10
639.776	1	2
640.115	1	5
640.454	1	6
640.793	1	-5
641.132	1	12
641.472	1	10
641.811	1	-5
642.150	1	-4
642.489	1	2
642.828	1	5
643.167	1	3
643.506	1	13
643.845	1	-4
644.184	1	4
644.524	1	-8
644.863	1	1
645.202	1	6
645.541	1	2
645.880	1	11
646.219	1	5
646.558	1	-1
646.897	1	3
647.236	1	1
647.575	1	-2
647.914	1	-1
648.253	1	9
648.592	1	-1
648.931	1	3
649.270	1	-8
649.610	1	0
649.949	1	1
650.288	1	11
650.627	1	5
650.966	1	9
651.305	1	-10
651.644	1	1
651.983	1	-7
652.322	1	-3
652.661	1	-4
653.000	1	10
653.339	1	-2
653.678	1	0
654.017	1	-2
654.356	1	10
654.695	1	4
655.034	1	2
655.373	1	0
655.712	1	7
656.051	1	8
656.390	1	-7
656.729	1	1
657.068	1	6
657.406	1	9
657.745	1	3
658.084	1	4
658.423	1	4
658.762	1	13
659.101	1	-2
659.440	1	-5
659.779	1	-2
660.118	1	4
660.457	1	-4
660.796	1	7
661.135	1	5
661.474	1	5
661.813	1	2
662.152	1	-5
662.491	1	11
662.829	1	9
663.168	1	-3
663.507	1	5
663.846	1	-2
664.185	1	-2
664.524	1	-4
664.863	1	-1
665.202	1	-7
665.541	1	4
665.879	1	2
666.218	1	4
666.557	1	4
666.896	1	4
667.235	1	11
667.574	1	15
667.913	1	6
668.251	1	6
668.590	1	5
668.929	1	12
669.268	1	1
669.607	1	5
669.946	1	11
670.285	1	6
670.623	1	14
670.962	1	-3
671.301	1	0
671.640	1	-14
671.979	1	5
672.317	1	-8
672.656	1	2
672.995	1	9
673.334	1	-10
673.673	1	12
674.011	1	9
674.350	1	4
674.689	1	12
675.028	1	5
675.367	1	-4
675.705	1	14
676.044	1	9
676.383	1	6
676.722	1	4
677.060	1	9
677.399	1	0
677.738	1	-6
678.077	1	1
678.416	1	5
678.754	1	12
679.093	1	3
679.432	1	1
679.771	1	4
680.109	1	-1
680.448	1	4
680.787	1	9
681.125	1	8
681.464	1	-1
681.803	1	0
682.142	1	-1
682.480	1	16
682.819	1	0
683.158	1	-5
683.496	1	-3
683.835	1	-6
684.174	1	7
684.512	1	7
684.851	1	1
685.190	1	9
685.529	1	-3
685.867	1	-1
686.206	1	7
686.545	1	-1
686.883	1	3
687.222	1	2
687.561	1	8
687.899	1	-1
688.238	1	8
688.577	1	3
688.746	1	8