File: Data/GaN_130K_350ms/GaN_sample F_spot6_UVVIS_130 K_200um_350 ms 2x2mm1_1.txt
340.368	1	3
340.710	1	-5
341.052	1	-12
341.394	1	-2
341.737	1	0
342.079	1	0
342.421	1	-2
342.763	1	3
343.105	1	0
343.447	1	5
343.789	1	3
344.131	1	2
344.473	1	-3
344.815	1	-4
345.157	1	-7
345.499	1	0
345.841	1	3
346.183	1	11
346.526	1	-3
346.868	1	4
347.210	1	4
347.552	1	5
347.894	1	-4
348.236	1	-5
348.578	1	3
348.920	1	6
349.262	1	1
349.604	1	6
349.946	1	3
350.288	1	-13
350.630	1	1
350.972	1	4
351.314	1	3
351.656	1	10
351.998	1	-2
352.340	1	10
352.682	1	3
353.024	1	-8
353.366	1	6
353.708	1	-6
354.050	1	-4
354.392	1	7
354.734	1	0
355.076	1	4
355.418	1	1
355.760	1	14
356.102	1	-2
356.444	1	-12
356.785	1	3
357.127	1	-2
357.469	1	-13
357.811	1	1
358.153	1	-6
358.495	1	2
358.837	1	8
359.179	1	4
359.521	1	-5
359.863	1	0
360.205	1	6
360.547	1	-14
360.889	1	-1
361.231	1	-4
361.572	1	5
361.914	1	10
362.256	1	-1
362.598	1	4
362.940	1	-2
363.282	1	9
363.624	1	6
363.966	1	6
364.308	1	5
364.649	1	6
364.991	1	-7
365.333	1	-5
365.675	1	3
366.017	1	12
366.359	1	6
366.701	1	7
367.042	1	5
367.384	1	14
367.726	1	-3
368.068	1	-7
368.410	1	-3
368.752	1	7
369.093	1	3
369.435	1	5
369.777	1	-1
370.119	1	8
370.461	1	0
370.803	1	-7
371.144	1	-7
371.486	1	3
371.828	1	-5
372.170	1	-5
372.512	1	-3
372.853	1	-4
373.195	1	-3
373.537	1	9
373.879	1	5
374.220	1	-9
374.562	1	1
374.904	1	-3
375.246	1	3
375.588	1	4
375.929	1	-13
376.271	1	-4
376.613	1	-5
376.955	1	0
377.296	1	-7
377.638	1	-13
377.980	1	-6
378.321	1	-2
378.663	1	5
379.005	1	6
379.347	1	-1
379.688	1	0
380.030	1	-2
380.372	1	6
380.714	1	6
381.055	1	-3
381.397	1	3
381.739	1	3
382.080	1	-11
382.422	1	-2
382.764	1	-5
383.105	1	0
383.447	1	5
383.789	1	3
384.130	1	-3
384.472	1	6
384.814	1	0
385.156	1	-1
385.497	1	0
385.839	1	7
386.180	1	1
386.522	1	3
386.864	1	-2
387.205	1	1
387.547	1	1
387.889	1	-5
388.230	1	-6
388.572	1	3
388.914	1	-5
389.255	1	4
389.597	1	-16
389.939	1	6
390.280	1	5
390.622	1	4
390.963	1	4
391.305	1	-2
391.647	1	5
391.988	1	2
392.330	1	-2
392.671	1	-2
393.013	1	-1
393.355	1	0
393.696	1	-12
394.038	1	4
394.379	1	11
394.721	1	3
395.062	1	-3
395.404	1	-16
395.746	1	6
396.087	1	17
396.429	1	5
396.770	1	-6
397.112	1	3
397.453	1	16
397.795	1	-13
398.136	1	3
398.478	1	3
398.819	1	-11
399.161	1	5
399.503	1	4
399.844	1	-2
400.186	1	1
400.527	1	1
400.869	1	-2
401.210	1	-12
401.552	1	3
401.893	1	-15
402.235	1	0
402.576	1	-1
402.918	1	7
403.259	1	-9
403.601	1	-3
403.942	1	4
404.284	1	-1
404.625	1	3
404.967	1	-2
405.308	1	-13
405.649	1	1
405.991	1	-1
406.332	1	-4
406.674	1	8
407.015	1	1
407.357	1	-8
407.698	1	-4
408.040	1	-2
408.381	1	-5
408.722	1	4
409.064	1	-1
409.405	1	6
409.747	1	-2
410.088	1	5
410.430	1	2
410.771	1	-6
411.112	1	9
411.454	1	-2
411.795	1	3
412.137	1	-5
412.478	1	2
412.819	1	3
413.161	1	3
413.502	1	5
413.844	1	-5
414.185	1	9
414.526	1	-4
414.868	1	-6
415.209	1	-7
415.550	1	-8
415.892	1	2
416.233	1	7
416.575	1	0
416.916	1	-5
417.257	1	4
417.599	1	-7
417.940	1	1
418.281	1	-9
418.623	1	-1
418.964	1	-8
419.305	1	-2
419.647	1	8
419.988	1	10
420.329	1	9
420.671	1	-5
421.012	1	1
421.353	1	4
421.695	1	0
422.036	1	4
422.377	1	-3
422.718	1	-7
423.060	1	9
423.401	1	10
423.742	1	-5
424.084	1	0
424.425	1	3
424.766	1	1
425.107	1	5
425.449	1	4
425.790	1	6
426.131	1	9
426.472	1	0
426.814	1	-4
427.155	1	-9
427.496	1	3
427.837	1	-4
428.179	1	0
428.520	1	6
428.861	1	0
429.202	1	1
429.544	1	5
429.885	1	0
430.226	1	-8
430.567	1	2
430.909	1	-3
431.250	1	0
431.591	1	-3
431.932	1	-5
432.273	1	2
432.615	1	7
432.956	1	-8
433.297	1	6
433.638	1	2
433.979	1	2
434.320	1	9
434.662	1	2
435.003	1	12
435.344	1	4
435.685	1	-12
436.026	1	-5
436.368	1	-4
436.709	1	-11
437.050	1	0
437.391	1	4
437.732	1	-7
438.073	1	6
438.414	1	-2
438.756	1	-6
439.097	1	5
439.438	1	-5
439.779	1	8
440.120	1	-1
440.461	1	12
440.802	1	-7
441.143	1	-13
441.485	1	4
441.826	1	-9
442.167	1	-6
442.508	1	0
442.849	1	8
443.190	1	9
443.531	1	-5
443.872	1	10
444.213	1	4
444.554	1	4
444.895	1	5
445.237	1	-11
445.578	1	-4
445.919	1	-2
446.260	1	-1
446.601	1	9
446.942	1	0
447.283	1	-4
447.624	1	-5
447.965	1	2
448.306	1	3
448.647	1	3
448.988	1	-1
449.329	1	-4
449.670	1	0
450.011	1	-7
450.352	1	4
450.693	1	1
451.034	1	-2
451.375	1	4
451.716	1	-14
452.057	1	14
452.398	1	-11
452.739	1	2
453.080	1	-2
453.421	1	-2
453.762	1	5
454.103	1	-2
454.444	1	2
454.785	1	6
455.126	1	-12
455.467	1	-6
455.808	1	8
456.149	1	-15
456.490	1	7
456.831	1	7
457.172	1	0
457.513	1	-9
457.854	1	1
458.195	1	-6
458.536	1	13
458.877	1	15
459.218	1	1
459.559	1	-6
459.899	1	-7
460.240	1	14
460.581	1	1
460.922	1	11
461.263	1	2
461.604	1	-6
461.945	1	-2
462.286	1	1
462.627	1	-5
462.968	1	-6
463.309	1	0
463.649	1	-4
463.990	1	5
464.331	1	9
464.672	1	-2
465.013	1	-10
465.354	1	6
465.695	1	3
466.036	1	-4
466.376	1	-2
466.717	1	1
467.058	1	10
467.399	1	4
467.740	1	10
468.081	1	12
468.422	1	4
468.762	1	0
469.103	1	3
469.444	1	-5
469.785	1	10
470.126	1	-1
470.467	1	1
470.807	1	0
471.148	1	-1
471.489	1	-2
471.830	1	0
472.171	1	-2
472.511	1	-2
472.852	1	9
473.193	1	7
473.534	1	-3
473.875	1	15
474.215	1	-2
474.556	1	8
474.897	1	-12
475.238	1	5
475.578	1	-1
475.919	1	-2
476.260	1	-4
476.601	1	-1
476.942	1	8
477.282	1	5
477.623	1	-1
477.964	1	-7
478.305	1	6
478.645	1	1
478.986	1	-9
479.327	1	0
479.667	1	-1
480.008	1	-5
480.349	1	-3
480.690	1	4
481.030	1	-4
481.371	1	13
481.712	1	-3
482.053	1	5
482.393	1	7
482.734	1	1
483.075	1	17
483.415	1	-6
483.756	1	4
484.097	1	1
484.437	1	-6
484.778	1	11
485.119	1	7
485.459	1	-22
485.800	1	12
486.141	1	3
486.481	1	-2
486.822	1	4
487.163	1	3
487.503	1	-2
487.844	1	1
488.185	1	5
488.525	1	4
488.866	1	-2
489.207	1	-6
489.547	1	0
489.888	1	-3
490.228	1	1
490.569	1	5
490.910	1	-2
491.250	1	0
491.591	1	0
491.932	1	6
492.272	1	-6
492.613	1	-8
492.953	1	2
493.294	1	9
493.635	1	9
493.975	1	0
494.316	1	0
494.656	1	-2
494.997	1	-6
495.337	1	-11
495.678	1	-5
496.019	1	-4
496.359	1	11
496.700	1	2
497.040	1	0
497.381	1	-1
497.721	1	-5
498.062	1	-1
498.403	1	-18
498.743	1	7
499.084	1	1
499.424	1	-7
499.765	1	0
500.105	1	6
500.446	1	1
500.786	1	4
501.127	1	6
501.467	1	5
501.808	1	1
502.148	1	0
502.489	1	4
502.829	1	-1
503.170	1	-10
503.510	1	-5
503.851	1	-2
504.191	1	-5
504.532	1	3
504.872	1	0
505.213	1	5
505.553	1	-1
505.894	1	3
506.234	1	0
506.575	1	-4
506.915	1	-3
507.256	1	3
507.596	1	0
507.936	1	-10
508.277	1	-8
508.617	1	-9
508.958	1	7
509.298	1	-5
509.639	1	-8
509.979	1	-4
510.319	1	13
510.660	1	-10
511.000	1	3
511.341	1	-6
511.681	1	-3
512.022	1	0
512.362	1	-7
512.702	1	1
513.043	1	7
513.383	1	7
513.724	1	-5
514.064	1	-8
514.404	1	-3
514.745	1	-4
515.085	1	15
515.425	1	1
515.766	1	-1
516.106	1	-2
516.447	1	0
516.787	1	0
517.127	1	-3
517.468	1	3
517.808	1	4
518.148	1	3
518.489	1	-1
518.829	1	10
519.169	1	-2
519.510	1	-4
519.850	1	8
520.190	1	7
520.531	1	6
520.871	1	-6
521.211	1	9
521.552	1	-2
521.892	1	4
522.232	1	-16
522.573	1	3
522.913	1	6
523.253	1	0
523.593	1	1
523.934	1	-11
524.274	1	-15
524.614	1	5
524.955	1	4
525.295	1	0
525.635	1	-7
525.975	1	12
526.316	1	-9
526.656	1	-6
526.996	1	-9
527.337	1	7
527.677	1	1
528.017	1	2
528.357	1	3
528.698	1	-4
529.038	1	-7
529.378	1	2
529.718	1	6
530.058	1	-7
530.399	1	3
530.739	1	0
531.079	1	9
531.419	1	4
531.760	1	-9
532.100	1	-1
532.440	1	7
532.780	1	-3
533.120	1	7
533.461	1	-3
533.801	1	5
534.141	1	0
534.481	1	-3
534.821	1	7
535.162	1	6
535.502	1	-1
535.842	1	4
536.182	1	1
536.522	1	-5
536.862	1	-4
537.203	1	-15
537.543	1	-2
537.883	1	-9
538.223	1	8
538.563	1	0
538.903	1	10
539.243	1	-3
539.584	1	9
539.924	1	-4
540.264	1	-1
540.604	1	2
540.944	1	-5
541.284	1	8
541.624	1	5
541.964	1	1
542.305	1	-6
542.645	1	-8
542.985	1	4
543.325	1	-3
543.665	1	2
544.005	1	8
544.345	1	-9
544.685	1	1
545.025	1	5
545.365	1	11
545.705	1	-5
546.045	1	-2
546.386	1	2
546.726	1	-5
547.066	1	3
547.406	1	-8
547.746	1	4
548.086	1	-5
548.426	1	5
548.766	1	-1
549.106	1	-4
549.446	1	-8
549.786	1	1
550.126	1	8
550.466	1	3
550.806	1	7
551.146	1	-3
551.486	1	-1
551.826	1	-4
552.166	1	5
552.506	1	-5
552.846	1	0
553.186	1	-6
553.526	1	2
553.866	1	-16
554.206	1	-3
554.546	1	2
554.886	1	-2
555.226	1	19
555.566	1	-2
555.906	1	-4
556.246	1	-6
556.586	1	-7
556.926	1	3
557.266	1	-4
557.606	1	-18
557.946	1	5
558.286	1	4
558.626	1	-16
558.966	1	-9
559.306	1	2
559.646	1	1
559.986	1	-3
560.325	1	-16
560.665	1	6
561.005	1	2
561.345	1	-7
561.685	1	-8
562.025	1	1
562.365	1	-2
562.705	1	5
563.045	1	-11
563.385	1	-5
563.725	1	1
564.064	1	4
564.404	1	-2
564.744	1	3
565.084	1	1
565.424	1	-13
565.764	1	4
566.104	1	-8
566.444	1	4
566.783	1	4
567.123	1	-9
567.463	1	0
567.803	1	-2
568.143	1	18
568.483	1	3
568.823	1	-7
569.162	1	2
569.502	1	3
569.842	1	-10
570.182	1	2
570.522	1	-17
570.862	1	7
571.201	1	3
571.541	1	0
571.881	1	2
572.221	1	8
572.561	1	2
572.900	1	-2
573.240	1	-4
573.580	1	-3
573.920	1	8
574.260	1	3
574.599	1	11
574.939	1	1
575.279	1	-12
575.619	1	4
575.959	1	2
576.298	1	-5
576.638	1	-5
576.978	1	-1
577.318	1	3
577.657	1	0
577.997	1	7
578.337	1	0
578.677	1	9
579.016	1	3
579.356	1	12
579.696	1	-2
580.036	1	-5
580.375	1	-4
580.715	1	4
581.055	1	6
581.394	1	6
581.734	1	2
582.074	1	1
582.414	1	-2
582.753	1	-5
583.093	1	-2
583.433	1	0
583.772	1	-4
584.112	1	0
584.452	1	15
584.791	1	0
585.131	1	4
585.471	1	-7
585.811	1	4
586.150	1	-3
586.490	1	2
586.830	1	-5
587.169	1	10
587.509	1	-8
587.849	1	1
588.188	1	8
588.528	1	4
588.867	1	4
589.207	1	0
589.547	1	-5
589.886	1	-2
590.226	1	4
590.566	1	0
590.905	1	8
591.245	1	-3
591.585	1	14
591.924	1	-2
592.264	1	-3
592.603	1	-1
592.943	1	3
593.283	1	-17
593.622	1	10
593.962	1	0
594.301	1	-7
594.641	1	3
594.981	1	-23
595.320	1	5
595.660	1	-5
595.999	1	7
596.339	1	8
596.678	1	-4
597.018	1	-2
597.358	1	-7
597.697	1	3
598.037	1	1
598.376	1	4
598.716	1	-4
599.055	1	-6
599.395	1	-13
599.734	1	-3
600.074	1	5
600.413	1	13
600.753	1	1
601.092	1	3
601.432	1	-10
601.771	1	5
602.111	1	-3
602.451	1	-3
602.790	1	-2
603.130	1	4
603.469	1	-3
603.809	1	1
604.148	1	9
604.487	1	8
604.827	1	-6
605.166	1	8
605.506	1	-6
605.845	1	-7
606.185	1	4
606.524	1	5
606.864	1	16
607.203	1	-2
607.543	1	3
607.882	1	8
608.222	1	-5
608.561	1	3
608.901	1	7
609.240	1	-6
609.579	1	2
609.919	1	4
610.258	1	-2
610.598	1	5
610.937	1	4
611.277	1	5
611.616	1	-6
611.955	1	-8
612.295	1	13
612.634	1	1
612.974	1	2
613.313	1	-4
613.652	1	3
613.992	1	2
614.331	1	-9
614.671	1	4
615.010	1	-2
615.349	1	3
615.689	1	7
616.028	1	13
616.368	1	4
616.707	1	2
617.046	1	2
617.386	1	-2
617.725	1	-4
618.064	1	3
618.404	1	-4
618.743	1	4
619.082	1	-4
619.422	1	-2
619.761	1	-3
620.100	1	0
620.440	1	5
620.779	1	5
621.118	1	-8
621.458	1	4
621.797	1	8
622.136	1	-1
622.476	1	-1
622.815	1	-2
623.154	1	-4
623.494	1	4
623.833	1	12
624.172	1	-1
624.511	1	5
624.851	1	-2
625.190	1	-3
625.529	1	-6
625.869	1	3
626.208	1	1
626.547	1	-3
626.886	1	-2
627.226	1	-7
627.565	1	-9
627.904	1	0
628.243	1	10
628.583	1	-9
628.922	1	-11
629.261	1	-9
629.600	1	-5
629.940	1	3
630.279	1	11
630.618	1	-5
630.957	1	-1
631.297	1	-7
631.636	1	9
631.975	1	3
632.314	1	2
632.653	1	0
632.993	1	8
633.332	1	-3
633.671	1	-14
634.010	1	-7
634.349	1	-9
634.689	1	6
635.028	1	13
635.367	1	4
635.706	1	-4
636.045	1	13
636.384	1	0
636.724	1	3
637.063	1	5
637.402	1	-12
637.741	1	-2
638.080	1	15
638.419	1	6
638.759	1	2
639.098	1	-11
639.437	1	2
639.776	1	-1
640.115	1	6
640.454	1	1
640.793	1	-12
641.132	1	7
641.472	1	2
641.811	1	-3
642.150	1	-9
642.489	1	-11
642.828	1	0
643.167	1	2
643.506	1	9
643.845	1	-9
644.184	1	-5
644.524	1	-2
644.863	1	-2
645.202	1	6
645.541	1	1
645.880	1	4
646.219	1	1
646.558	1	4
646.897	1	-3
647.236	1	-9
647.575	1	-8
647.914	1	-1
648.253	1	8
648.592	1	-6
648.931	1	-4
649.270	1	0
649.610	1	-6
649.949	1	3
650.288	1	-2
650.627	1	7
650.966	1	0
651.305	1	-2
651.644	1	6
651.983	1	-12
652.322	1	-10
652.661	1	-7
653.000	1	-1
653.339	1	-5
653.678	1	-4
654.017	1	-2
654.356	1	3
654.695	1	-3
655.034	1	2
655.373	1	-4
655.712	1	-7
656.051	1	-3
656.390	1	-7
656.729	1	7
657.068	1	-6
657.406	1	0
657.745	1	-7
658.084	1	-9
658.423	1	-1
658.762	1	7
659.101	1	2
659.440	1	-2
659.779	1	-6
660.118	1	-5
660.457	1	-6
660.796	1	4
661.135	1	6
661.474	1	3
661.813	1	2
662.152	1	0
662.491	1	10
662.829	1	7
663.168	1	-4
663.507	1	1
663.846	1	-2
664.185	1	-4
664.524	1	0
664.863	1	3
665.202	1	-2
665.541	1	-9
665.879	1	2
666.218	1	5
666.557	1	-1
666.896	1	14
667.235	1	6
667.574	1	15
667.913	1	6
668.251	1	0
668.590	1	9
668.929	1	6
669.268	1	-9
669.607	1	-2
669.946	1	3
670.285	1	3
670.623	1	12
670.962	1	-7
671.301	1	0
671.640	1	-4
671.979	1	-1
672.317	1	-6
672.656	1	-7
672.995	1	1
673.334	1	-2
673.673	1	6
674.011	1	3
674.350	1	3
674.689	1	9
675.028	1	6
675.367	1	-2
675.705	1	3
676.044	1	4
676.383	1	-1
676.722	1	-1
677.060	1	-6
677.399	1	4
677.738	1	-5
678.077	1	8
678.416	1	-4
678.754	1	-2
679.093	1	3
679.432	1	1
679.771	1	-2
680.109	1	-2
680.448	1	2
680.787	1	1
681.125	1	9
681.464	1	-9
681.803	1	-2
682.142	1	-7
682.480	1	11
682.819	1	3
683.158	1	8
683.496	1	0
683.835	1	-4
684.174	1	2
684.512	1	6
684.851	1	-1
685.190	1	5
685.529	1	-8
685.867	1	-4
686.206	1	0
686.545	1	-2
686.883	1	-11
687.222	1	-7
687.561	1	5
687.899	1	3
688.238	1	9
688.577	1	-2
688.746	1	-4