File: Data/GaN_130K_350ms/GaN_sample F_spot6_UVVIS_130 K_200um_350 ms 2x2mm1_274.txt
340.368	1	12
340.710	1	6
341.052	1	2
341.394	1	-3
341.737	1	4
342.079	1	1
342.421	1	4
342.763	1	-5
343.105	1	2
343.447	1	3
343.789	1	3
344.131	1	5
344.473	1	6
344.815	1	8
345.157	1	-11
345.499	1	-7
345.841	1	-4
346.183	1	11
346.526	1	8
346.868	1	3
347.210	1	-2
347.552	1	-2
347.894	1	4
348.236	1	-3
348.578	1	2
348.920	1	-9
349.262	1	12
349.604	1	5
349.946	1	3
350.288	1	-6
350.630	1	0
350.972	1	12
351.314	1	-3
351.656	1	8
351.998	1	4
352.340	1	17
352.682	1	0
353.024	1	1
353.366	1	11
353.708	1	4
354.050	1	9
354.392	1	11
354.734	1	-5
355.076	1	-2
355.418	1	3
355.760	1	4
356.102	1	5
356.444	1	-11
356.785	1	5
357.127	1	7
357.469	1	2
357.811	1	-2
358.153	1	6
358.495	1	2
358.837	1	5
359.179	1	4
359.521	1	0
359.863	1	3
360.205	1	-3
360.547	1	-4
360.889	1	-6
361.231	1	-4
361.572	1	6
361.914	1	5
362.256	1	6
362.598	1	12
362.940	1	-4
363.282	1	18
363.624	1	10
363.966	1	12
364.308	1	14
364.649	1	2
364.991	1	9
365.333	1	6
365.675	1	5
366.017	1	9
366.359	1	4
366.701	1	20
367.042	1	18
367.384	1	26
367.726	1	11
368.068	1	6
368.410	1	3
368.752	1	23
369.093	1	13
369.435	1	-3
369.777	1	4
370.119	1	10
370.461	1	15
370.803	1	2
371.144	1	7
371.486	1	-1
371.828	1	9
372.170	1	4
372.512	1	12
372.853	1	-7
373.195	1	7
373.537	1	9
373.879	1	7
374.220	1	-8
374.562	1	1
374.904	1	12
375.246	1	8
375.588	1	3
375.929	1	-6
376.271	1	11
376.613	1	5
376.955	1	9
377.296	1	3
377.638	1	-4
377.980	1	-5
378.321	1	10
378.663	1	4
379.005	1	15
379.347	1	-2
379.688	1	-1
380.030	1	0
380.372	1	14
380.714	1	16
381.055	1	-1
381.397	1	4
381.739	1	6
382.080	1	-2
382.422	1	11
382.764	1	1
383.105	1	8
383.447	1	10
383.789	1	11
384.130	1	9
384.472	1	11
384.814	1	2
385.156	1	0
385.497	1	-5
385.839	1	7
386.180	1	6
386.522	1	-1
386.864	1	5
387.205	1	3
387.547	1	6
387.889	1	0
388.230	1	-2
388.572	1	5
388.914	1	2
389.255	1	-1
389.597	1	-9
389.939	1	1
390.280	1	7
390.622	1	3
390.963	1	5
391.305	1	2
391.647	1	0
391.988	1	7
392.330	1	-2
392.671	1	3
393.013	1	2
393.355	1	1
393.696	1	3
394.038	1	9
394.379	1	11
394.721	1	1
395.062	1	-3
395.404	1	-5
395.746	1	8
396.087	1	14
396.429	1	8
396.770	1	3
397.112	1	6
397.453	1	9
397.795	1	-7
398.136	1	11
398.478	1	0
398.819	1	-4
399.161	1	10
399.503	1	13
399.844	1	4
400.186	1	0
400.527	1	13
400.869	1	16
401.210	1	-5
401.552	1	10
401.893	1	-8
402.235	1	8
402.576	1	2
402.918	1	5
403.259	1	2
403.601	1	13
403.942	1	8
404.284	1	-7
404.625	1	11
404.967	1	-5
405.308	1	9
405.649	1	6
405.991	1	3
406.332	1	6
406.674	1	-1
407.015	1	8
407.357	1	7
407.698	1	4
408.040	1	15
408.381	1	1
408.722	1	6
409.064	1	5
409.405	1	10
409.747	1	0
410.088	1	16
410.430	1	15
410.771	1	-8
411.112	1	17
411.454	1	9
411.795	1	-3
412.137	1	-12
412.478	1	-9
412.819	1	-2
413.161	1	5
413.502	1	9
413.844	1	-2
414.185	1	10
414.526	1	-2
414.868	1	2
415.209	1	-1
415.550	1	2
415.892	1	6
416.233	1	8
416.575	1	7
416.916	1	6
417.257	1	-1
417.599	1	4
417.940	1	12
418.281	1	1
418.623	1	4
418.964	1	1
419.305	1	-1
419.647	1	16
419.988	1	3
420.329	1	8
420.671	1	-5
421.012	1	1
421.353	1	0
421.695	1	4
422.036	1	5
422.377	1	12
422.718	1	-1
423.060	1	3
423.401	1	15
423.742	1	5
424.084	1	6
424.425	1	2
424.766	1	5
425.107	1	6
425.449	1	6
425.790	1	16
426.131	1	13
426.472	1	4
426.814	1	9
427.155	1	4
427.496	1	5
427.837	1	9
428.179	1	4
428.520	1	14
428.861	1	-1
429.202	1	10
429.544	1	11
429.885	1	5
430.226	1	-2
430.567	1	-3
430.909	1	2
431.250	1	3
431.591	1	-9
431.932	1	3
432.273	1	6
432.615	1	10
432.956	1	-2
433.297	1	13
433.638	1	11
433.979	1	9
434.320	1	4
434.662	1	10
435.003	1	12
435.344	1	7
435.685	1	-6
436.026	1	5
436.368	1	3
436.709	1	2
437.050	1	9
437.391	1	18
437.732	1	0
438.073	1	5
438.414	1	1
438.756	1	2
439.097	1	4
439.438	1	7
439.779	1	17
440.120	1	2
440.461	1	15
440.802	1	-4
441.143	1	-6
441.485	1	10
441.826	1	4
442.167	1	-3
442.508	1	9
442.849	1	1
443.190	1	3
443.531	1	3
443.872	1	4
444.213	1	-6
444.554	1	-7
444.895	1	-2
445.237	1	0
445.578	1	2
445.919	1	1
446.260	1	8
446.601	1	9
446.942	1	-2
447.283	1	11
447.624	1	-2
447.965	1	6
448.306	1	3
448.647	1	8
448.988	1	2
449.329	1	-9
449.670	1	4
450.011	1	-5
450.352	1	8
450.693	1	-1
451.034	1	-10
451.375	1	13
451.716	1	-2
452.057	1	11
452.398	1	-9
452.739	1	13
453.080	1	7
453.421	1	3
453.762	1	3
454.103	1	3
454.444	1	3
454.785	1	15
455.126	1	-5
455.467	1	3
455.808	1	10
456.149	1	-15
456.490	1	5
456.831	1	14
457.172	1	-3
457.513	1	0
457.854	1	4
458.195	1	-4
458.536	1	4
458.877	1	26
459.218	1	9
459.559	1	4
459.899	1	4
460.240	1	8
460.581	1	-7
460.922	1	3
461.263	1	11
461.604	1	-10
461.945	1	15
462.286	1	6
462.627	1	-1
462.968	1	7
463.309	1	3
463.649	1	-6
463.990	1	3
464.331	1	7
464.672	1	9
465.013	1	3
465.354	1	5
465.695	1	9
466.036	1	-5
466.376	1	-5
466.717	1	2
467.058	1	6
467.399	1	9
467.740	1	12
468.081	1	4
468.422	1	1
468.762	1	1
469.103	1	7
469.444	1	4
469.785	1	6
470.126	1	-12
470.467	1	-1
470.807	1	5
471.148	1	2
471.489	1	0
471.830	1	6
472.171	1	0
472.511	1	4
472.852	1	4
473.193	1	1
473.534	1	1
473.875	1	18
474.215	1	7
474.556	1	4
474.897	1	-2
475.238	1	10
475.578	1	6
475.919	1	-7
476.260	1	-7
476.601	1	2
476.942	1	-4
477.282	1	0
477.623	1	-13
477.964	1	-2
478.305	1	14
478.645	1	0
478.986	1	1
479.327	1	-3
479.667	1	10
480.008	1	1
480.349	1	4
480.690	1	1
481.030	1	3
481.371	1	6
481.712	1	-3
482.053	1	5
482.393	1	9
482.734	1	-1
483.075	1	16
483.415	1	-1
483.756	1	2
484.097	1	0
484.437	1	-5
484.778	1	6
485.119	1	2
485.459	1	-6
485.800	1	16
486.141	1	-2
486.481	1	-1
486.822	1	12
487.163	1	-4
487.503	1	-6
487.844	1	-2
488.185	1	1
488.525	1	11
488.866	1	1
489.207	1	-1
489.547	1	-2
489.888	1	11
490.228	1	5
490.569	1	5
490.910	1	-4
491.250	1	10
491.591	1	-13
491.932	1	1
492.272	1	4
492.613	1	-5
492.953	1	6
493.294	1	8
493.635	1	9
493.975	1	14
494.316	1	7
494.656	1	7
494.997	1	-6
495.337	1	3
495.678	1	1
496.019	1	0
496.359	1	3
496.700	1	10
497.040	1	3
497.381	1	-1
497.721	1	-3
498.062	1	-2
498.403	1	0
498.743	1	6
499.084	1	12
499.424	1	-16
499.765	1	0
500.105	1	-3
500.446	1	7
500.786	1	10
501.127	1	-4
501.467	1	2
501.808	1	3
502.148	1	8
502.489	1	0
502.829	1	5
503.170	1	-2
503.510	1	2
503.851	1	7
504.191	1	3
504.532	1	3
504.872	1	2
505.213	1	5
505.553	1	1
505.894	1	4
506.234	1	5
506.575	1	8
506.915	1	2
507.256	1	14
507.596	1	0
507.936	1	-3
508.277	1	-4
508.617	1	-3
508.958	1	1
509.298	1	-2
509.639	1	3
509.979	1	0
510.319	1	14
510.660	1	4
511.000	1	7
511.341	1	-2
511.681	1	5
512.022	1	11
512.362	1	2
512.702	1	9
513.043	1	1
513.383	1	6
513.724	1	-6
514.064	1	5
514.404	1	5
514.745	1	7
515.085	1	13
515.425	1	5
515.766	1	5
516.106	1	-4
516.447	1	3
516.787	1	15
517.127	1	2
517.468	1	12
517.808	1	-2
518.148	1	4
518.489	1	0
518.829	1	5
519.169	1	4
519.510	1	2
519.850	1	7
520.190	1	13
520.531	1	9
520.871	1	-2
521.211	1	4
521.552	1	6
521.892	1	1
522.232	1	-9
522.573	1	-6
522.913	1	11
523.253	1	7
523.593	1	1
523.934	1	-7
524.274	1	-5
524.614	1	13
524.955	1	8
525.295	1	12
525.635	1	9
525.975	1	9
526.316	1	2
526.656	1	4
526.996	1	2
527.337	1	10
527.677	1	6
528.017	1	-1
528.357	1	2
528.698	1	0
529.038	1	-2
529.378	1	11
529.718	1	13
530.058	1	-5
530.399	1	-3
530.739	1	3
531.079	1	3
531.419	1	3
531.760	1	-4
532.100	1	11
532.440	1	1
532.780	1	3
533.120	1	4
533.461	1	4
533.801	1	10
534.141	1	3
534.481	1	0
534.821	1	17
535.162	1	7
535.502	1	5
535.842	1	6
536.182	1	4
536.522	1	-2
536.862	1	3
537.203	1	-8
537.543	1	8
537.883	1	-3
538.223	1	8
538.563	1	4
538.903	1	16
539.243	1	-2
539.584	1	8
539.924	1	-4
540.264	1	2
540.604	1	6
540.944	1	9
541.284	1	1
541.624	1	16
541.964	1	-6
542.305	1	-4
542.645	1	-2
542.985	1	8
543.325	1	2
543.665	1	14
544.005	1	1
544.345	1	4
544.685	1	13
545.025	1	-3
545.365	1	13
545.705	1	10
546.045	1	3
546.386	1	9
546.726	1	-6
547.066	1	5
547.406	1	-3
547.746	1	7
548.086	1	-14
548.426	1	-5
548.766	1	10
549.106	1	-2
549.446	1	3
549.786	1	4
550.126	1	8
550.466	1	9
550.806	1	7
551.146	1	3
551.486	1	-2
551.826	1	7
552.166	1	6
552.506	1	3
552.846	1	-5
553.186	1	6
553.526	1	1
553.866	1	-4
554.206	1	1
554.546	1	13
554.886	1	2
555.226	1	10
555.566	1	2
555.906	1	-5
556.246	1	4
556.586	1	6
556.926	1	5
557.266	1	2
557.606	1	3
557.946	1	5
558.286	1	13
558.626	1	-5
558.966	1	0
559.306	1	4
559.646	1	0
559.986	1	-1
560.325	1	-4
560.665	1	12
561.005	1	-2
561.345	1	8
561.685	1	1
562.025	1	-7
562.365	1	2
562.705	1	5
563.045	1	1
563.385	1	9
563.725	1	0
564.064	1	-1
564.404	1	2
564.744	1	2
565.084	1	7
565.424	1	-2
565.764	1	5
566.104	1	-2
566.444	1	9
566.783	1	12
567.123	1	-2
567.463	1	-1
567.803	1	9
568.143	1	13
568.483	1	-8
568.823	1	0
569.162	1	5
569.502	1	1
569.842	1	0
570.182	1	5
570.522	1	-12
570.862	1	10
571.201	1	-1
571.541	1	-4
571.881	1	-4
572.221	1	15
572.561	1	0
572.900	1	4
573.240	1	1
573.580	1	-4
573.920	1	12
574.260	1	12
574.599	1	7
574.939	1	11
575.279	1	-3
575.619	1	6
575.959	1	-2
576.298	1	6
576.638	1	-10
576.978	1	-4
577.318	1	-1
577.657	1	14
577.997	1	3
578.337	1	1
578.677	1	14
579.016	1	7
579.356	1	17
579.696	1	5
580.036	1	1
580.375	1	-6
580.715	1	-1
581.055	1	5
581.394	1	-4
581.734	1	7
582.074	1	3
582.414	1	-1
582.753	1	4
583.093	1	5
583.433	1	5
583.772	1	-6
584.112	1	7
584.452	1	10
584.791	1	9
585.131	1	9
585.471	1	1
585.811	1	5
586.150	1	7
586.490	1	-3
586.830	1	-1
587.169	1	12
587.509	1	-1
587.849	1	5
588.188	1	11
588.528	1	9
588.867	1	7
589.207	1	3
589.547	1	1
589.886	1	7
590.226	1	8
590.566	1	-2
590.905	1	8
591.245	1	-4
591.585	1	8
591.924	1	-3
592.264	1	3
592.603	1	4
592.943	1	8
593.283	1	-1
593.622	1	8
593.962	1	1
594.301	1	2
594.641	1	7
594.981	1	-10
595.320	1	4
595.660	1	4
595.999	1	13
596.339	1	13
596.678	1	0
597.018	1	7
597.358	1	0
597.697	1	-3
598.037	1	11
598.376	1	-4
598.716	1	-2
599.055	1	2
599.395	1	-9
599.734	1	-9
600.074	1	3
600.413	1	3
600.753	1	0
601.092	1	-10
601.432	1	-4
601.771	1	8
602.111	1	1
602.451	1	2
602.790	1	0
603.130	1	1
603.469	1	1
603.809	1	9
604.148	1	6
604.487	1	9
604.827	1	4
605.166	1	12
605.506	1	-2
605.845	1	0
606.185	1	0
606.524	1	6
606.864	1	15
607.203	1	-12
607.543	1	-3
607.882	1	7
608.222	1	-7
608.561	1	-6
608.901	1	6
609.240	1	-5
609.579	1	6
609.919	1	13
610.258	1	0
610.598	1	2
610.937	1	4
611.277	1	13
611.616	1	-10
611.955	1	1
612.295	1	4
612.634	1	1
612.974	1	10
613.313	1	5
613.652	1	-6
613.992	1	0
614.331	1	8
614.671	1	2
615.010	1	-2
615.349	1	1
615.689	1	8
616.028	1	9
616.368	1	4
616.707	1	17
617.046	1	13
617.386	1	6
617.725	1	5
618.064	1	10
618.404	1	-3
618.743	1	7
619.082	1	0
619.422	1	3
619.761	1	15
620.100	1	-10
620.440	1	2
620.779	1	3
621.118	1	10
621.458	1	11
621.797	1	2
622.136	1	5
622.476	1	5
622.815	1	1
623.154	1	0
623.494	1	10
623.833	1	-1
624.172	1	-9
624.511	1	4
624.851	1	-1
625.190	1	3
625.529	1	6
625.869	1	-5
626.208	1	1
626.547	1	0
626.886	1	-5
627.226	1	-1
627.565	1	0
627.904	1	9
628.243	1	4
628.583	1	-9
628.922	1	-9
629.261	1	-10
629.600	1	11
629.940	1	7
630.279	1	14
630.618	1	-13
630.957	1	0
631.297	1	-2
631.636	1	12
631.975	1	1
632.314	1	0
632.653	1	2
632.993	1	10
633.332	1	-1
633.671	1	-6
634.010	1	-5
634.349	1	2
634.689	1	6
635.028	1	9
635.367	1	6
635.706	1	2
636.045	1	16
636.384	1	-10
636.724	1	9
637.063	1	6
637.402	1	2
637.741	1	15
638.080	1	10
638.419	1	2
638.759	1	3
639.098	1	-1
639.437	1	8
639.776	1	-1
640.115	1	9
640.454	1	7
640.793	1	-12
641.132	1	8
641.472	1	-6
641.811	1	9
642.150	1	-8
642.489	1	-12
642.828	1	-3
643.167	1	-1
643.506	1	12
643.845	1	-7
644.184	1	1
644.524	1	-7
644.863	1	6
645.202	1	4
645.541	1	-2
645.880	1	5
646.219	1	5
646.558	1	-10
646.897	1	3
647.236	1	-10
647.575	1	-1
647.914	1	0
648.253	1	3
648.592	1	-11
648.931	1	-5
649.270	1	-1
649.610	1	-5
649.949	1	-4
650.288	1	13
650.627	1	-1
650.966	1	3
651.305	1	1
651.644	1	-4
651.983	1	-3
652.322	1	6
652.661	1	-3
653.000	1	-1
653.339	1	4
653.678	1	-1
654.017	1	-1
654.356	1	12
654.695	1	4
655.034	1	-5
655.373	1	6
655.712	1	-3
656.051	1	-2
656.390	1	1
656.729	1	-2
657.068	1	-2
657.406	1	11
657.745	1	-1
658.084	1	0
658.423	1	0
658.762	1	24
659.101	1	4
659.440	1	-3
659.779	1	-1
660.118	1	0
660.457	1	0
660.796	1	6
661.135	1	5
661.474	1	5
661.813	1	2
662.152	1	-8
662.491	1	13
662.829	1	16
663.168	1	3
663.507	1	7
663.846	1	-3
664.185	1	1
664.524	1	5
664.863	1	9
665.202	1	0
665.541	1	-9
665.879	1	-3
666.218	1	5
666.557	1	5
666.896	1	1
667.235	1	8
667.574	1	20
667.913	1	6
668.251	1	12
668.590	1	-1
668.929	1	3
669.268	1	-5
669.607	1	-2
669.946	1	6
670.285	1	5
670.623	1	12
670.962	1	1
671.301	1	9
671.640	1	-2
671.979	1	6
672.317	1	-5
672.656	1	-2
672.995	1	-4
673.334	1	-7
673.673	1	1
674.011	1	-2
674.350	1	8
674.689	1	4
675.028	1	8
675.367	1	-4
675.705	1	10
676.044	1	-2
676.383	1	5
676.722	1	-2
677.060	1	8
677.399	1	-2
677.738	1	3
678.077	1	2
678.416	1	11
678.754	1	-3
679.093	1	1
679.432	1	6
679.771	1	7
680.109	1	4
680.448	1	-2
680.787	1	3
681.125	1	19
681.464	1	-3
681.803	1	-6
682.142	1	-3
682.480	1	8
682.819	1	-3
683.158	1	0
683.496	1	-2
683.835	1	-3
684.174	1	10
684.512	1	7
684.851	1	1
685.190	1	-3
685.529	1	-3
685.867	1	9
686.206	1	4
686.545	1	-9
686.883	1	-7
687.222	1	3
687.561	1	10
687.899	1	6
688.238	1	5
688.577	1	-7
688.746	1	0