File: Data/GaN_130K_350ms/GaN_sample F_spot6_UVVIS_130 K_200um_350 ms 2x2mm1_260.txt
340.368	1	5
340.710	1	3
341.052	1	-12
341.394	1	0
341.737	1	1
342.079	1	7
342.421	1	10
342.763	1	5
343.105	1	4
343.447	1	4
343.789	1	3
344.131	1	7
344.473	1	4
344.815	1	-6
345.157	1	-7
345.499	1	5
345.841	1	5
346.183	1	10
346.526	1	0
346.868	1	10
347.210	1	0
347.552	1	1
347.894	1	6
348.236	1	-7
348.578	1	-2
348.920	1	9
349.262	1	8
349.604	1	8
349.946	1	1
350.288	1	-10
350.630	1	3
350.972	1	5
351.314	1	1
351.656	1	7
351.998	1	-2
352.340	1	7
352.682	1	5
353.024	1	-2
353.366	1	9
353.708	1	-3
354.050	1	4
354.392	1	6
354.734	1	8
355.076	1	-1
355.418	1	4
355.760	1	8
356.102	1	2
356.444	1	-3
356.785	1	1
357.127	1	11
357.469	1	3
357.811	1	7
358.153	1	-7
358.495	1	2
358.837	1	-1
359.179	1	0
359.521	1	0
359.863	1	6
360.205	1	3
360.547	1	2
360.889	1	0
361.231	1	5
361.572	1	14
361.914	1	7
362.256	1	-4
362.598	1	2
362.940	1	-5
363.282	1	10
363.624	1	12
363.966	1	28
364.308	1	14
364.649	1	10
364.991	1	11
365.333	1	-4
365.675	1	6
366.017	1	13
366.359	1	12
366.701	1	11
367.042	1	14
367.384	1	19
367.726	1	8
368.068	1	3
368.410	1	10
368.752	1	23
369.093	1	11
369.435	1	6
369.777	1	11
370.119	1	15
370.461	1	12
370.803	1	-1
371.144	1	12
371.486	1	9
371.828	1	14
372.170	1	3
372.512	1	13
372.853	1	5
373.195	1	5
373.537	1	6
373.879	1	13
374.220	1	-5
374.562	1	1
374.904	1	10
375.246	1	17
375.588	1	-3
375.929	1	-1
376.271	1	-1
376.613	1	4
376.955	1	7
377.296	1	-1
377.638	1	-2
377.980	1	-4
378.321	1	5
378.663	1	12
379.005	1	16
379.347	1	1
379.688	1	0
380.030	1	-6
380.372	1	8
380.714	1	13
381.055	1	10
381.397	1	4
381.739	1	-1
382.080	1	1
382.422	1	10
382.764	1	2
383.105	1	3
383.447	1	1
383.789	1	7
384.130	1	5
384.472	1	7
384.814	1	6
385.156	1	1
385.497	1	-6
385.839	1	6
386.180	1	10
386.522	1	5
386.864	1	17
387.205	1	1
387.547	1	8
387.889	1	-2
388.230	1	-4
388.572	1	12
388.914	1	5
389.255	1	3
389.597	1	-5
389.939	1	8
390.280	1	10
390.622	1	0
390.963	1	11
391.305	1	3
391.647	1	14
391.988	1	7
392.330	1	-4
392.671	1	3
393.013	1	10
393.355	1	7
393.696	1	-2
394.038	1	7
394.379	1	0
394.721	1	13
395.062	1	-4
395.404	1	-8
395.746	1	5
396.087	1	10
396.429	1	11
396.770	1	10
397.112	1	2
397.453	1	-1
397.795	1	-5
398.136	1	8
398.478	1	6
398.819	1	-10
399.161	1	12
399.503	1	12
399.844	1	6
400.186	1	3
400.527	1	0
400.869	1	9
401.210	1	-8
401.552	1	13
401.893	1	-9
402.235	1	3
402.576	1	0
402.918	1	3
403.259	1	-1
403.601	1	14
403.942	1	10
404.284	1	-1
404.625	1	11
404.967	1	6
405.308	1	5
405.649	1	9
405.991	1	3
406.332	1	10
406.674	1	13
407.015	1	2
407.357	1	-6
407.698	1	0
408.040	1	7
408.381	1	8
408.722	1	4
409.064	1	3
409.405	1	3
409.747	1	1
410.088	1	6
410.430	1	13
410.771	1	-15
411.112	1	18
411.454	1	8
411.795	1	4
412.137	1	5
412.478	1	-2
412.819	1	4
413.161	1	7
413.502	1	16
413.844	1	2
414.185	1	6
414.526	1	-2
414.868	1	7
415.209	1	3
415.550	1	1
415.892	1	3
416.233	1	3
416.575	1	11
416.916	1	3
417.257	1	1
417.599	1	-5
417.940	1	12
418.281	1	7
418.623	1	2
418.964	1	1
419.305	1	7
419.647	1	11
419.988	1	13
420.329	1	12
420.671	1	-2
421.012	1	-2
421.353	1	3
421.695	1	6
422.036	1	6
422.377	1	13
422.718	1	-2
423.060	1	1
423.401	1	14
423.742	1	4
424.084	1	-3
424.425	1	13
424.766	1	6
425.107	1	3
425.449	1	2
425.790	1	13
426.131	1	20
426.472	1	2
426.814	1	1
427.155	1	2
427.496	1	5
427.837	1	10
428.179	1	1
428.520	1	11
428.861	1	0
429.202	1	7
429.544	1	7
429.885	1	6
430.226	1	6
430.567	1	-2
430.909	1	4
431.250	1	7
431.591	1	-4
431.932	1	-1
432.273	1	7
432.615	1	16
432.956	1	-4
433.297	1	6
433.638	1	9
433.979	1	3
434.320	1	14
434.662	1	4
435.003	1	11
435.344	1	6
435.685	1	-9
436.026	1	5
436.368	1	5
436.709	1	1
437.050	1	2
437.391	1	13
437.732	1	4
438.073	1	11
438.414	1	-9
438.756	1	0
439.097	1	7
439.438	1	4
439.779	1	10
440.120	1	-1
440.461	1	13
440.802	1	-4
441.143	1	1
441.485	1	0
441.826	1	3
442.167	1	4
442.508	1	1
442.849	1	10
443.190	1	0
443.531	1	-3
443.872	1	4
444.213	1	2
444.554	1	6
444.895	1	4
445.237	1	0
445.578	1	0
445.919	1	0
446.260	1	-3
446.601	1	6
446.942	1	6
447.283	1	9
447.624	1	5
447.965	1	4
448.306	1	3
448.647	1	13
448.988	1	4
449.329	1	-1
449.670	1	6
450.011	1	-3
450.352	1	14
450.693	1	4
451.034	1	1
451.375	1	14
451.716	1	-2
452.057	1	15
452.398	1	-8
452.739	1	-3
453.080	1	2
453.421	1	0
453.762	1	4
454.103	1	8
454.444	1	4
454.785	1	19
455.126	1	-4
455.467	1	2
455.808	1	8
456.149	1	-6
456.490	1	10
456.831	1	5
457.172	1	-3
457.513	1	-4
457.854	1	-3
458.195	1	-16
458.536	1	8
458.877	1	21
459.218	1	2
459.559	1	-1
459.899	1	2
460.240	1	13
460.581	1	-3
460.922	1	3
461.263	1	0
461.604	1	-12
461.945	1	2
462.286	1	1
462.627	1	3
462.968	1	3
463.309	1	7
463.649	1	-2
463.990	1	0
464.331	1	3
464.672	1	-1
465.013	1	-3
465.354	1	2
465.695	1	7
466.036	1	10
466.376	1	3
466.717	1	5
467.058	1	5
467.399	1	-1
467.740	1	19
468.081	1	7
468.422	1	13
468.762	1	-4
469.103	1	3
469.444	1	3
469.785	1	11
470.126	1	-6
470.467	1	7
470.807	1	5
471.148	1	2
471.489	1	5
471.830	1	9
472.171	1	8
472.511	1	4
472.852	1	12
473.193	1	1
473.534	1	0
473.875	1	16
474.215	1	10
474.556	1	2
474.897	1	-3
475.238	1	10
475.578	1	-3
475.919	1	-8
476.260	1	6
476.601	1	4
476.942	1	12
477.282	1	9
477.623	1	-1
477.964	1	-6
478.305	1	4
478.645	1	3
478.986	1	2
479.327	1	5
479.667	1	5
480.008	1	3
480.349	1	-3
480.690	1	6
481.030	1	-3
481.371	1	3
481.712	1	7
482.053	1	0
482.393	1	8
482.734	1	-1
483.075	1	12
483.415	1	7
483.756	1	1
484.097	1	-10
484.437	1	6
484.778	1	11
485.119	1	7
485.459	1	-7
485.800	1	11
486.141	1	5
486.481	1	-5
486.822	1	6
487.163	1	1
487.503	1	1
487.844	1	-3
488.185	1	3
488.525	1	6
488.866	1	3
489.207	1	5
489.547	1	9
489.888	1	9
490.228	1	-1
490.569	1	9
490.910	1	-5
491.250	1	7
491.591	1	-8
491.932	1	2
492.272	1	-3
492.613	1	-6
492.953	1	-5
493.294	1	-1
493.635	1	4
493.975	1	4
494.316	1	2
494.656	1	-1
494.997	1	6
495.337	1	0
495.678	1	-9
496.019	1	-8
496.359	1	15
496.700	1	-6
497.040	1	10
497.381	1	10
497.721	1	-6
498.062	1	-5
498.403	1	-4
498.743	1	14
499.084	1	14
499.424	1	2
499.765	1	-7
500.105	1	-1
500.446	1	10
500.786	1	14
501.127	1	2
501.467	1	0
501.808	1	3
502.148	1	-2
502.489	1	-1
502.829	1	0
503.170	1	-11
503.510	1	12
503.851	1	-3
504.191	1	3
504.532	1	2
504.872	1	5
505.213	1	2
505.553	1	-4
505.894	1	5
506.234	1	-3
506.575	1	-5
506.915	1	7
507.256	1	14
507.596	1	-2
507.936	1	-4
508.277	1	4
508.617	1	-6
508.958	1	6
509.298	1	-2
509.639	1	2
509.979	1	-7
510.319	1	12
510.660	1	-5
511.000	1	7
511.341	1	-8
511.681	1	7
512.022	1	7
512.362	1	-1
512.702	1	7
513.043	1	1
513.383	1	16
513.724	1	-8
514.064	1	9
514.404	1	7
514.745	1	6
515.085	1	11
515.425	1	2
515.766	1	5
516.106	1	-8
516.447	1	4
516.787	1	3
517.127	1	1
517.468	1	9
517.808	1	2
518.148	1	1
518.489	1	5
518.829	1	8
519.169	1	4
519.510	1	6
519.850	1	13
520.190	1	12
520.531	1	6
520.871	1	-1
521.211	1	8
521.552	1	0
521.892	1	-2
522.232	1	-7
522.573	1	-2
522.913	1	7
523.253	1	10
523.593	1	11
523.934	1	4
524.274	1	-4
524.614	1	12
524.955	1	10
525.295	1	6
525.635	1	4
525.975	1	9
526.316	1	-4
526.656	1	3
526.996	1	-7
527.337	1	9
527.677	1	0
528.017	1	2
528.357	1	11
528.698	1	2
529.038	1	-5
529.378	1	9
529.718	1	2
530.058	1	0
530.399	1	3
530.739	1	4
531.079	1	5
531.419	1	9
531.760	1	-2
532.100	1	5
532.440	1	15
532.780	1	7
533.120	1	2
533.461	1	5
533.801	1	13
534.141	1	-4
534.481	1	6
534.821	1	14
535.162	1	8
535.502	1	3
535.842	1	11
536.182	1	8
536.522	1	-2
536.862	1	2
537.203	1	0
537.543	1	5
537.883	1	1
538.223	1	10
538.563	1	7
538.903	1	18
539.243	1	0
539.584	1	4
539.924	1	-1
540.264	1	-5
540.604	1	10
540.944	1	6
541.284	1	8
541.624	1	10
541.964	1	4
542.305	1	-5
542.645	1	-9
542.985	1	3
543.325	1	10
543.665	1	8
544.005	1	15
544.345	1	0
544.685	1	16
545.025	1	-1
545.365	1	12
545.705	1	6
546.045	1	1
546.386	1	7
546.726	1	-1
547.066	1	4
547.406	1	-3
547.746	1	6
548.086	1	0
548.426	1	3
548.766	1	6
549.106	1	-11
549.446	1	4
549.786	1	5
550.126	1	16
550.466	1	4
550.806	1	10
551.146	1	2
551.486	1	0
551.826	1	6
552.166	1	5
552.506	1	-2
552.846	1	-4
553.186	1	-4
553.526	1	7
553.866	1	-5
554.206	1	4
554.546	1	9
554.886	1	2
555.226	1	3
555.566	1	-3
555.906	1	6
556.246	1	4
556.586	1	-2
556.926	1	10
557.266	1	-5
557.606	1	5
557.946	1	7
558.286	1	12
558.626	1	-4
558.966	1	-5
559.306	1	2
559.646	1	4
559.986	1	-4
560.325	1	-6
560.665	1	6
561.005	1	6
561.345	1	10
561.685	1	4
562.025	1	-7
562.365	1	-2
562.705	1	7
563.045	1	2
563.385	1	8
563.725	1	-4
564.064	1	11
564.404	1	11
564.744	1	12
565.084	1	3
565.424	1	-3
565.764	1	7
566.104	1	-2
566.444	1	1
566.783	1	5
567.123	1	2
567.463	1	2
567.803	1	4
568.143	1	6
568.483	1	3
568.823	1	-9
569.162	1	5
569.502	1	7
569.842	1	1
570.182	1	-4
570.522	1	-18
570.862	1	26
571.201	1	-5
571.541	1	-6
571.881	1	-7
572.221	1	5
572.561	1	10
572.900	1	-4
573.240	1	1
573.580	1	2
573.920	1	9
574.260	1	10
574.599	1	9
574.939	1	8
575.279	1	-13
575.619	1	1
575.959	1	2
576.298	1	3
576.638	1	2
576.978	1	-12
577.318	1	9
577.657	1	6
577.997	1	12
578.337	1	4
578.677	1	16
579.016	1	-4
579.356	1	13
579.696	1	3
580.036	1	-7
580.375	1	0
580.715	1	8
581.055	1	2
581.394	1	-2
581.734	1	7
582.074	1	0
582.414	1	0
582.753	1	4
583.093	1	9
583.433	1	8
583.772	1	3
584.112	1	10
584.452	1	15
584.791	1	4
585.131	1	13
585.471	1	-1
585.811	1	2
586.150	1	6
586.490	1	4
586.830	1	-5
587.169	1	4
587.509	1	14
587.849	1	13
588.188	1	19
588.528	1	1
588.867	1	0
589.207	1	3
589.547	1	3
589.886	1	-1
590.226	1	6
590.566	1	6
590.905	1	13
591.245	1	-3
591.585	1	7
591.924	1	-11
592.264	1	3
592.603	1	3
592.943	1	5
593.283	1	-5
593.622	1	4
593.962	1	2
594.301	1	-3
594.641	1	6
594.981	1	-1
595.320	1	7
595.660	1	7
595.999	1	3
596.339	1	11
596.678	1	-2
597.018	1	0
597.358	1	-1
597.697	1	5
598.037	1	0
598.376	1	-5
598.716	1	5
599.055	1	-1
599.395	1	-11
599.734	1	2
600.074	1	5
600.413	1	9
600.753	1	2
601.092	1	7
601.432	1	-3
601.771	1	7
602.111	1	3
602.451	1	3
602.790	1	-7
603.130	1	6
603.469	1	9
603.809	1	2
604.148	1	9
604.487	1	6
604.827	1	-1
605.166	1	11
605.506	1	-5
605.845	1	4
606.185	1	-3
606.524	1	0
606.864	1	17
607.203	1	-4
607.543	1	3
607.882	1	10
608.222	1	3
608.561	1	-6
608.901	1	9
609.240	1	-4
609.579	1	9
609.919	1	-3
610.258	1	-3
610.598	1	7
610.937	1	5
611.277	1	11
611.616	1	-7
611.955	1	-3
612.295	1	10
612.634	1	0
612.974	1	8
613.313	1	3
613.652	1	-8
613.992	1	-8
614.331	1	1
614.671	1	7
615.010	1	-5
615.349	1	0
615.689	1	0
616.028	1	10
616.368	1	1
616.707	1	13
617.046	1	11
617.386	1	-1
617.725	1	-4
618.064	1	1
618.404	1	4
618.743	1	9
619.082	1	2
619.422	1	4
619.761	1	10
620.100	1	2
620.440	1	6
620.779	1	2
621.118	1	1
621.458	1	8
621.797	1	2
622.136	1	6
622.476	1	3
622.815	1	-5
623.154	1	-1
623.494	1	4
623.833	1	4
624.172	1	-3
624.511	1	-3
624.851	1	-2
625.190	1	-3
625.529	1	5
625.869	1	7
626.208	1	7
626.547	1	-2
626.886	1	-5
627.226	1	-4
627.565	1	5
627.904	1	3
628.243	1	10
628.583	1	1
628.922	1	1
629.261	1	-14
629.600	1	-7
629.940	1	0
630.279	1	11
630.618	1	3
630.957	1	2
631.297	1	2
631.636	1	7
631.975	1	9
632.314	1	-3
632.653	1	7
632.993	1	5
633.332	1	6
633.671	1	-9
634.010	1	-5
634.349	1	5
634.689	1	12
635.028	1	12
635.367	1	4
635.706	1	-1
636.045	1	15
636.384	1	1
636.724	1	11
637.063	1	4
637.402	1	-2
637.741	1	3
638.080	1	8
638.419	1	6
638.759	1	8
639.098	1	3
639.437	1	4
639.776	1	-4
640.115	1	6
640.454	1	4
640.793	1	-11
641.132	1	6
641.472	1	0
641.811	1	-3
642.150	1	-10
642.489	1	-10
642.828	1	5
643.167	1	-7
643.506	1	14
643.845	1	-5
644.184	1	1
644.524	1	0
644.863	1	1
645.202	1	9
645.541	1	4
645.880	1	1
646.219	1	1
646.558	1	5
646.897	1	-1
647.236	1	-5
647.575	1	-10
647.914	1	-1
648.253	1	3
648.592	1	-2
648.931	1	-7
649.270	1	-7
649.610	1	2
649.949	1	0
650.288	1	7
650.627	1	2
650.966	1	-1
651.305	1	3
651.644	1	3
651.983	1	-9
652.322	1	-1
652.661	1	3
653.000	1	-6
653.339	1	7
653.678	1	1
654.017	1	-3
654.356	1	-12
654.695	1	4
655.034	1	1
655.373	1	1
655.712	1	-2
656.051	1	2
656.390	1	1
656.729	1	1
657.068	1	-2
657.406	1	3
657.745	1	-6
658.084	1	6
658.423	1	6
658.762	1	18
659.101	1	8
659.440	1	-4
659.779	1	-3
660.118	1	-4
660.457	1	-5
660.796	1	8
661.135	1	14
661.474	1	4
661.813	1	0
662.152	1	5
662.491	1	19
662.829	1	13
663.168	1	-6
663.507	1	0
663.846	1	-2
664.185	1	-4
664.524	1	-6
664.863	1	0
665.202	1	-1
665.541	1	-8
665.879	1	4
666.218	1	-2
666.557	1	6
666.896	1	-2
667.235	1	1
667.574	1	11
667.913	1	12
668.251	1	5
668.590	1	8
668.929	1	1
669.268	1	-12
669.607	1	2
669.946	1	11
670.285	1	5
670.623	1	12
670.962	1	-8
671.301	1	5
671.640	1	-9
671.979	1	6
672.317	1	0
672.656	1	-6
672.995	1	5
673.334	1	-19
673.673	1	5
674.011	1	-5
674.350	1	5
674.689	1	8
675.028	1	7
675.367	1	-7
675.705	1	20
676.044	1	0
676.383	1	7
676.722	1	-1
677.060	1	1
677.399	1	1
677.738	1	-10
678.077	1	8
678.416	1	11
678.754	1	0
679.093	1	1
679.432	1	0
679.771	1	5
680.109	1	-5
680.448	1	2
680.787	1	6
681.125	1	3
681.464	1	1
681.803	1	-1
682.142	1	1
682.480	1	7
682.819	1	4
683.158	1	-1
683.496	1	1
683.835	1	-11
684.174	1	-2
684.512	1	8
684.851	1	3
685.190	1	-4
685.529	1	-7
685.867	1	0
686.206	1	4
686.545	1	-4
686.883	1	-3
687.222	1	2
687.561	1	0
687.899	1	0
688.238	1	4
688.577	1	2
688.746	1	5