File: Data/GaN_130K_350ms/GaN_sample F_spot6_UVVIS_130 K_200um_350 ms 2x2mm1_104.txt
340.368	1	4
340.710	1	3
341.052	1	-5
341.394	1	3
341.737	1	10
342.079	1	5
342.421	1	5
342.763	1	12
343.105	1	5
343.447	1	10
343.789	1	6
344.131	1	7
344.473	1	10
344.815	1	0
345.157	1	-4
345.499	1	-4
345.841	1	-5
346.183	1	11
346.526	1	5
346.868	1	1
347.210	1	9
347.552	1	0
347.894	1	0
348.236	1	-1
348.578	1	-1
348.920	1	9
349.262	1	7
349.604	1	10
349.946	1	10
350.288	1	4
350.630	1	15
350.972	1	10
351.314	1	7
351.656	1	12
351.998	1	4
352.340	1	13
352.682	1	2
353.024	1	2
353.366	1	9
353.708	1	1
354.050	1	12
354.392	1	8
354.734	1	13
355.076	1	6
355.418	1	9
355.760	1	12
356.102	1	1
356.444	1	7
356.785	1	22
357.127	1	14
357.469	1	9
357.811	1	15
358.153	1	3
358.495	1	27
358.837	1	15
359.179	1	18
359.521	1	18
359.863	1	22
360.205	1	27
360.547	1	20
360.889	1	13
361.231	1	23
361.572	1	43
361.914	1	46
362.256	1	31
362.598	1	39
362.940	1	39
363.282	1	46
363.624	1	60
363.966	1	67
364.308	1	81
364.649	1	74
364.991	1	76
365.333	1	87
365.675	1	82
366.017	1	88
366.359	1	93
366.701	1	86
367.042	1	114
367.384	1	106
367.726	1	105
368.068	1	102
368.410	1	99
368.752	1	107
369.093	1	102
369.435	1	97
369.777	1	94
370.119	1	94
370.461	1	91
370.803	1	93
371.144	1	86
371.486	1	83
371.828	1	81
372.170	1	67
372.512	1	60
372.853	1	61
373.195	1	58
373.537	1	60
373.879	1	65
374.220	1	48
374.562	1	46
374.904	1	47
375.246	1	52
375.588	1	49
375.929	1	35
376.271	1	42
376.613	1	47
376.955	1	40
377.296	1	32
377.638	1	32
377.980	1	31
378.321	1	32
378.663	1	38
379.005	1	35
379.347	1	32
379.688	1	32
380.030	1	28
380.372	1	35
380.714	1	36
381.055	1	36
381.397	1	28
381.739	1	23
382.080	1	14
382.422	1	37
382.764	1	24
383.105	1	29
383.447	1	36
383.789	1	32
384.130	1	31
384.472	1	30
384.814	1	20
385.156	1	28
385.497	1	22
385.839	1	26
386.180	1	27
386.522	1	12
386.864	1	34
387.205	1	24
387.547	1	22
387.889	1	6
388.230	1	14
388.572	1	19
388.914	1	23
389.255	1	17
389.597	1	5
389.939	1	21
390.280	1	28
390.622	1	30
390.963	1	23
391.305	1	14
391.647	1	17
391.988	1	19
392.330	1	20
392.671	1	7
393.013	1	17
393.355	1	20
393.696	1	8
394.038	1	20
394.379	1	14
394.721	1	24
395.062	1	4
395.404	1	13
395.746	1	15
396.087	1	22
396.429	1	26
396.770	1	16
397.112	1	17
397.453	1	21
397.795	1	13
398.136	1	17
398.478	1	14
398.819	1	4
399.161	1	23
399.503	1	24
399.844	1	7
400.186	1	11
400.527	1	26
400.869	1	15
401.210	1	6
401.552	1	17
401.893	1	5
402.235	1	16
402.576	1	12
402.918	1	23
403.259	1	-1
403.601	1	15
403.942	1	5
404.284	1	10
404.625	1	20
404.967	1	15
405.308	1	13
405.649	1	9
405.991	1	13
406.332	1	18
406.674	1	23
407.015	1	7
407.357	1	18
407.698	1	10
408.040	1	19
408.381	1	15
408.722	1	9
409.064	1	10
409.405	1	17
409.747	1	3
410.088	1	14
410.430	1	26
410.771	1	-5
411.112	1	22
411.454	1	13
411.795	1	13
412.137	1	-4
412.478	1	8
412.819	1	11
413.161	1	21
413.502	1	21
413.844	1	15
414.185	1	20
414.526	1	3
414.868	1	6
415.209	1	12
415.550	1	17
415.892	1	14
416.233	1	16
416.575	1	12
416.916	1	0
417.257	1	10
417.599	1	16
417.940	1	12
418.281	1	9
418.623	1	12
418.964	1	1
419.305	1	16
419.647	1	13
419.988	1	10
420.329	1	24
420.671	1	9
421.012	1	13
421.353	1	5
421.695	1	9
422.036	1	8
422.377	1	12
422.718	1	-3
423.060	1	17
423.401	1	9
423.742	1	9
424.084	1	9
424.425	1	9
424.766	1	14
425.107	1	16
425.449	1	11
425.790	1	14
426.131	1	19
426.472	1	11
426.814	1	9
427.155	1	1
427.496	1	9
427.837	1	16
428.179	1	10
428.520	1	20
428.861	1	0
429.202	1	9
429.544	1	16
429.885	1	10
430.226	1	1
430.567	1	4
430.909	1	5
431.250	1	10
431.591	1	3
431.932	1	10
432.273	1	4
432.615	1	13
432.956	1	-5
433.297	1	13
433.638	1	6
433.979	1	11
434.320	1	10
434.662	1	-4
435.003	1	23
435.344	1	6
435.685	1	-4
436.026	1	6
436.368	1	1
436.709	1	2
437.050	1	4
437.391	1	21
437.732	1	1
438.073	1	12
438.414	1	-3
438.756	1	15
439.097	1	9
439.438	1	12
439.779	1	8
440.120	1	11
440.461	1	22
440.802	1	9
441.143	1	2
441.485	1	8
441.826	1	3
442.167	1	11
442.508	1	7
442.849	1	13
443.190	1	8
443.531	1	2
443.872	1	6
444.213	1	4
444.554	1	3
444.895	1	5
445.237	1	-8
445.578	1	-1
445.919	1	2
446.260	1	11
446.601	1	13
446.942	1	9
447.283	1	12
447.624	1	14
447.965	1	-3
448.306	1	8
448.647	1	22
448.988	1	11
449.329	1	-2
449.670	1	3
450.011	1	-9
450.352	1	13
450.693	1	5
451.034	1	3
451.375	1	6
451.716	1	-4
452.057	1	13
452.398	1	-4
452.739	1	8
453.080	1	8
453.421	1	-1
453.762	1	13
454.103	1	-1
454.444	1	4
454.785	1	9
455.126	1	2
455.467	1	1
455.808	1	11
456.149	1	-2
456.490	1	11
456.831	1	1
457.172	1	1
457.513	1	8
457.854	1	10
458.195	1	-8
458.536	1	10
458.877	1	17
459.218	1	5
459.559	1	5
459.899	1	4
460.240	1	19
460.581	1	0
460.922	1	4
461.263	1	19
461.604	1	-3
461.945	1	10
462.286	1	9
462.627	1	-4
462.968	1	3
463.309	1	11
463.649	1	-2
463.990	1	6
464.331	1	12
464.672	1	10
465.013	1	-4
465.354	1	13
465.695	1	15
466.036	1	6
466.376	1	13
466.717	1	2
467.058	1	7
467.399	1	-7
467.740	1	6
468.081	1	19
468.422	1	10
468.762	1	2
469.103	1	4
469.444	1	4
469.785	1	9
470.126	1	-3
470.467	1	6
470.807	1	8
471.148	1	9
471.489	1	1
471.830	1	12
472.171	1	-2
472.511	1	-3
472.852	1	24
473.193	1	-2
473.534	1	4
473.875	1	18
474.215	1	1
474.556	1	19
474.897	1	4
475.238	1	11
475.578	1	5
475.919	1	-3
476.260	1	7
476.601	1	-1
476.942	1	3
477.282	1	14
477.623	1	-1
477.964	1	9
478.305	1	13
478.645	1	10
478.986	1	-4
479.327	1	-1
479.667	1	9
480.008	1	6
480.349	1	7
480.690	1	9
481.030	1	-2
481.371	1	17
481.712	1	0
482.053	1	7
482.393	1	10
482.734	1	19
483.075	1	17
483.415	1	9
483.756	1	5
484.097	1	9
484.437	1	4
484.778	1	11
485.119	1	11
485.459	1	-3
485.800	1	19
486.141	1	16
486.481	1	9
486.822	1	18
487.163	1	0
487.503	1	0
487.844	1	10
488.185	1	8
488.525	1	7
488.866	1	8
489.207	1	11
489.547	1	7
489.888	1	23
490.228	1	12
490.569	1	8
490.910	1	-2
491.250	1	18
491.591	1	12
491.932	1	14
492.272	1	10
492.613	1	7
492.953	1	13
493.294	1	18
493.635	1	18
493.975	1	22
494.316	1	20
494.656	1	12
494.997	1	14
495.337	1	13
495.678	1	7
496.019	1	11
496.359	1	25
496.700	1	14
497.040	1	30
497.381	1	13
497.721	1	18
498.062	1	11
498.403	1	20
498.743	1	29
499.084	1	33
499.424	1	7
499.765	1	7
500.105	1	18
500.446	1	24
500.786	1	33
501.127	1	12
501.467	1	21
501.808	1	14
502.148	1	27
502.489	1	22
502.829	1	18
503.170	1	18
503.510	1	24
503.851	1	17
504.191	1	19
504.532	1	26
504.872	1	22
505.213	1	22
505.553	1	27
505.894	1	39
506.234	1	20
506.575	1	20
506.915	1	21
507.256	1	37
507.596	1	31
507.936	1	23
508.277	1	25
508.617	1	17
508.958	1	33
509.298	1	30
509.639	1	40
509.979	1	26
510.319	1	44
510.660	1	25
511.000	1	33
511.341	1	33
511.681	1	37
512.022	1	34
512.362	1	30
512.702	1	34
513.043	1	38
513.383	1	35
513.724	1	30
514.064	1	35
514.404	1	40
514.745	1	35
515.085	1	45
515.425	1	40
515.766	1	38
516.106	1	33
516.447	1	29
516.787	1	39
517.127	1	32
517.468	1	40
517.808	1	37
518.148	1	39
518.489	1	39
518.829	1	41
519.169	1	45
519.510	1	26
519.850	1	41
520.190	1	50
520.531	1	42
520.871	1	37
521.211	1	37
521.552	1	39
521.892	1	47
522.232	1	27
522.573	1	36
522.913	1	44
523.253	1	44
523.593	1	43
523.934	1	39
524.274	1	27
524.614	1	48
524.955	1	48
525.295	1	48
525.635	1	37
525.975	1	48
526.316	1	45
526.656	1	43
526.996	1	42
527.337	1	47
527.677	1	36
528.017	1	41
528.357	1	43
528.698	1	40
529.038	1	38
529.378	1	44
529.718	1	51
530.058	1	40
530.399	1	48
530.739	1	49
531.079	1	37
531.419	1	46
531.760	1	31
532.100	1	51
532.440	1	44
532.780	1	40
533.120	1	46
533.461	1	39
533.801	1	48
534.141	1	50
534.481	1	41
534.821	1	38
535.162	1	49
535.502	1	49
535.842	1	45
536.182	1	46
536.522	1	34
536.862	1	40
537.203	1	42
537.543	1	51
537.883	1	31
538.223	1	50
538.563	1	40
538.903	1	53
539.243	1	38
539.584	1	46
539.924	1	43
540.264	1	46
540.604	1	40
540.944	1	40
541.284	1	39
541.624	1	40
541.964	1	22
542.305	1	32
542.645	1	24
542.985	1	41
543.325	1	37
543.665	1	39
544.005	1	47
544.345	1	35
544.685	1	41
545.025	1	32
545.365	1	45
545.705	1	30
546.045	1	31
546.386	1	27
546.726	1	37
547.066	1	34
547.406	1	27
547.746	1	39
548.086	1	26
548.426	1	24
548.766	1	36
549.106	1	28
549.446	1	28
549.786	1	46
550.126	1	45
550.466	1	40
550.806	1	37
551.146	1	36
551.486	1	35
551.826	1	42
552.166	1	35
552.506	1	31
552.846	1	30
553.186	1	35
553.526	1	39
553.866	1	17
554.206	1	33
554.546	1	40
554.886	1	28
555.226	1	40
555.566	1	22
555.906	1	29
556.246	1	31
556.586	1	24
556.926	1	29
557.266	1	22
557.606	1	30
557.946	1	36
558.286	1	54
558.626	1	8
558.966	1	18
559.306	1	23
559.646	1	18
559.986	1	21
560.325	1	24
560.665	1	31
561.005	1	24
561.345	1	25
561.685	1	15
562.025	1	18
562.365	1	18
562.705	1	19
563.045	1	13
563.385	1	15
563.725	1	21
564.064	1	36
564.404	1	40
564.744	1	22
565.084	1	11
565.424	1	12
565.764	1	30
566.104	1	17
566.444	1	25
566.783	1	28
567.123	1	35
567.463	1	23
567.803	1	32
568.143	1	20
568.483	1	25
568.823	1	11
569.162	1	25
569.502	1	23
569.842	1	10
570.182	1	14
570.522	1	7
570.862	1	27
571.201	1	11
571.541	1	14
571.881	1	17
572.221	1	20
572.561	1	10
572.900	1	12
573.240	1	11
573.580	1	18
573.920	1	37
574.260	1	23
574.599	1	21
574.939	1	18
575.279	1	5
575.619	1	13
575.959	1	27
576.298	1	13
576.638	1	11
576.978	1	10
577.318	1	16
577.657	1	25
577.997	1	13
578.337	1	13
578.677	1	22
579.016	1	14
579.356	1	15
579.696	1	19
580.036	1	12
580.375	1	7
580.715	1	14
581.055	1	17
581.394	1	18
581.734	1	13
582.074	1	14
582.414	1	2
582.753	1	14
583.093	1	16
583.433	1	22
583.772	1	11
584.112	1	22
584.452	1	19
584.791	1	24
585.131	1	20
585.471	1	18
585.811	1	8
586.150	1	20
586.490	1	8
586.830	1	10
587.169	1	10
587.509	1	13
587.849	1	14
588.188	1	14
588.528	1	19
588.867	1	24
589.207	1	6
589.547	1	5
589.886	1	14
590.226	1	20
590.566	1	10
590.905	1	17
591.245	1	6
591.585	1	13
591.924	1	11
592.264	1	15
592.603	1	9
592.943	1	4
593.283	1	-4
593.622	1	14
593.962	1	10
594.301	1	2
594.641	1	16
594.981	1	-5
595.320	1	9
595.660	1	11
595.999	1	17
596.339	1	15
596.678	1	4
597.018	1	12
597.358	1	-8
597.697	1	5
598.037	1	11
598.376	1	9
598.716	1	9
599.055	1	5
599.395	1	6
599.734	1	12
600.074	1	10
600.413	1	17
600.753	1	8
601.092	1	12
601.432	1	4
601.771	1	12
602.111	1	12
602.451	1	11
602.790	1	5
603.130	1	13
603.469	1	-3
603.809	1	11
604.148	1	9
604.487	1	20
604.827	1	12
605.166	1	11
605.506	1	15
605.845	1	7
606.185	1	11
606.524	1	8
606.864	1	22
607.203	1	8
607.543	1	9
607.882	1	15
608.222	1	3
608.561	1	-6
608.901	1	19
609.240	1	2
609.579	1	17
609.919	1	11
610.258	1	6
610.598	1	7
610.937	1	11
611.277	1	11
611.616	1	-4
611.955	1	-1
612.295	1	15
612.634	1	-1
612.974	1	12
613.313	1	10
613.652	1	3
613.992	1	6
614.331	1	9
614.671	1	13
615.010	1	4
615.349	1	12
615.689	1	5
616.028	1	8
616.368	1	4
616.707	1	18
617.046	1	14
617.386	1	2
617.725	1	6
618.064	1	2
618.404	1	1
618.743	1	9
619.082	1	8
619.422	1	11
619.761	1	5
620.100	1	11
620.440	1	1
620.779	1	12
621.118	1	7
621.458	1	8
621.797	1	1
622.136	1	8
622.476	1	17
622.815	1	4
623.154	1	-1
623.494	1	7
623.833	1	8
624.172	1	7
624.511	1	3
624.851	1	2
625.190	1	-4
625.529	1	1
625.869	1	9
626.208	1	10
626.547	1	2
626.886	1	0
627.226	1	11
627.565	1	2
627.904	1	8
628.243	1	14
628.583	1	-8
628.922	1	4
629.261	1	-6
629.600	1	12
629.940	1	13
630.279	1	16
630.618	1	-2
630.957	1	6
631.297	1	5
631.636	1	10
631.975	1	4
632.314	1	5
632.653	1	-9
632.993	1	12
633.332	1	-1
633.671	1	1
634.010	1	-6
634.349	1	14
634.689	1	7
635.028	1	6
635.367	1	-1
635.706	1	5
636.045	1	22
636.384	1	8
636.724	1	16
637.063	1	9
637.402	1	-1
637.741	1	17
638.080	1	13
638.419	1	5
638.759	1	-5
639.098	1	6
639.437	1	1
639.776	1	2
640.115	1	3
640.454	1	10
640.793	1	-7
641.132	1	9
641.472	1	-2
641.811	1	0
642.150	1	-9
642.489	1	-1
642.828	1	4
643.167	1	14
643.506	1	16
643.845	1	-1
644.184	1	3
644.524	1	4
644.863	1	-10
645.202	1	7
645.541	1	9
645.880	1	14
646.219	1	9
646.558	1	8
646.897	1	6
647.236	1	3
647.575	1	-7
647.914	1	4
648.253	1	9
648.592	1	-2
648.931	1	2
649.270	1	6
649.610	1	-4
649.949	1	4
650.288	1	13
650.627	1	2
650.966	1	8
651.305	1	2
651.644	1	9
651.983	1	-5
652.322	1	0
652.661	1	3
653.000	1	5
653.339	1	6
653.678	1	1
654.017	1	-2
654.356	1	8
654.695	1	-2
655.034	1	-4
655.373	1	2
655.712	1	-6
656.051	1	9
656.390	1	3
656.729	1	-1
657.068	1	-8
657.406	1	-5
657.745	1	4
658.084	1	-4
658.423	1	0
658.762	1	15
659.101	1	5
659.440	1	-6
659.779	1	14
660.118	1	-12
660.457	1	-4
660.796	1	7
661.135	1	7
661.474	1	12
661.813	1	3
662.152	1	-3
662.491	1	10
662.829	1	12
663.168	1	7
663.507	1	6
663.846	1	-1
664.185	1	-2
664.524	1	2
664.863	1	4
665.202	1	2
665.541	1	2
665.879	1	6
666.218	1	9
666.557	1	9
666.896	1	13
667.235	1	6
667.574	1	14
667.913	1	7
668.251	1	6
668.590	1	12
668.929	1	7
669.268	1	2
669.607	1	2
669.946	1	18
670.285	1	13
670.623	1	12
670.962	1	-10
671.301	1	-5
671.640	1	-6
671.979	1	-1
672.317	1	-6
672.656	1	4
672.995	1	6
673.334	1	6
673.673	1	9
674.011	1	4
674.350	1	11
674.689	1	9
675.028	1	15
675.367	1	-2
675.705	1	12
676.044	1	1
676.383	1	-2
676.722	1	-2
677.060	1	7
677.399	1	1
677.738	1	-5
678.077	1	7
678.416	1	4
678.754	1	17
679.093	1	2
679.432	1	2
679.771	1	10
680.109	1	10
680.448	1	12
680.787	1	17
681.125	1	14
681.464	1	-1
681.803	1	-5
682.142	1	-2
682.480	1	9
682.819	1	8
683.158	1	4
683.496	1	4
683.835	1	2
684.174	1	8
684.512	1	5
684.851	1	6
685.190	1	6
685.529	1	-2
685.867	1	6
686.206	1	11
686.545	1	1
686.883	1	0
687.222	1	8
687.561	1	22
687.899	1	14
688.238	1	24
688.577	1	10
688.746	1	7