File: Data/GaN_130K_350ms/GaN_sample F_spot6_UVVIS_130 K_200um_350 ms 2x2mm1_298.txt
340.368	1	1
340.710	1	8
341.052	1	-4
341.394	1	-1
341.737	1	5
342.079	1	-5
342.421	1	4
342.763	1	0
343.105	1	-1
343.447	1	1
343.789	1	6
344.131	1	1
344.473	1	10
344.815	1	-8
345.157	1	-11
345.499	1	-6
345.841	1	2
346.183	1	9
346.526	1	-2
346.868	1	5
347.210	1	5
347.552	1	1
347.894	1	0
348.236	1	-3
348.578	1	2
348.920	1	3
349.262	1	1
349.604	1	9
349.946	1	0
350.288	1	-5
350.630	1	-3
350.972	1	4
351.314	1	8
351.656	1	10
351.998	1	-3
352.340	1	11
352.682	1	-3
353.024	1	0
353.366	1	-3
353.708	1	-12
354.050	1	8
354.392	1	8
354.734	1	-1
355.076	1	-8
355.418	1	9
355.760	1	3
356.102	1	-4
356.444	1	-3
356.785	1	8
357.127	1	2
357.469	1	6
357.811	1	4
358.153	1	-11
358.495	1	-5
358.837	1	5
359.179	1	5
359.521	1	2
359.863	1	-4
360.205	1	0
360.547	1	-7
360.889	1	-8
361.231	1	-6
361.572	1	8
361.914	1	0
362.256	1	6
362.598	1	2
362.940	1	1
363.282	1	12
363.624	1	7
363.966	1	21
364.308	1	7
364.649	1	17
364.991	1	1
365.333	1	-1
365.675	1	9
366.017	1	8
366.359	1	10
366.701	1	-3
367.042	1	16
367.384	1	13
367.726	1	18
368.068	1	9
368.410	1	3
368.752	1	17
369.093	1	3
369.435	1	6
369.777	1	4
370.119	1	9
370.461	1	13
370.803	1	6
371.144	1	8
371.486	1	1
371.828	1	10
372.170	1	6
372.512	1	9
372.853	1	-2
373.195	1	0
373.537	1	3
373.879	1	16
374.220	1	5
374.562	1	-2
374.904	1	13
375.246	1	3
375.588	1	6
375.929	1	0
376.271	1	12
376.613	1	-4
376.955	1	4
377.296	1	-1
377.638	1	-13
377.980	1	-11
378.321	1	9
378.663	1	5
379.005	1	12
379.347	1	0
379.688	1	-5
380.030	1	-5
380.372	1	-1
380.714	1	13
381.055	1	0
381.397	1	7
381.739	1	4
382.080	1	-2
382.422	1	10
382.764	1	6
383.105	1	8
383.447	1	9
383.789	1	7
384.130	1	7
384.472	1	16
384.814	1	5
385.156	1	1
385.497	1	-1
385.839	1	6
386.180	1	-2
386.522	1	-4
386.864	1	10
387.205	1	-12
387.547	1	6
387.889	1	0
388.230	1	-2
388.572	1	10
388.914	1	4
389.255	1	2
389.597	1	-4
389.939	1	10
390.280	1	11
390.622	1	3
390.963	1	18
391.305	1	2
391.647	1	3
391.988	1	11
392.330	1	-8
392.671	1	-1
393.013	1	12
393.355	1	-3
393.696	1	-2
394.038	1	14
394.379	1	12
394.721	1	-1
395.062	1	-4
395.404	1	-4
395.746	1	14
396.087	1	5
396.429	1	4
396.770	1	4
397.112	1	11
397.453	1	13
397.795	1	-6
398.136	1	12
398.478	1	5
398.819	1	-8
399.161	1	10
399.503	1	10
399.844	1	-7
400.186	1	3
400.527	1	5
400.869	1	3
401.210	1	-8
401.552	1	7
401.893	1	-12
402.235	1	-3
402.576	1	2
402.918	1	16
403.259	1	-10
403.601	1	11
403.942	1	2
404.284	1	-7
404.625	1	3
404.967	1	4
405.308	1	-3
405.649	1	4
405.991	1	3
406.332	1	6
406.674	1	9
407.015	1	0
407.357	1	6
407.698	1	-3
408.040	1	11
408.381	1	6
408.722	1	9
409.064	1	-4
409.405	1	0
409.747	1	1
410.088	1	3
410.430	1	16
410.771	1	-15
411.112	1	7
411.454	1	10
411.795	1	4
412.137	1	-3
412.478	1	-3
412.819	1	10
413.161	1	10
413.502	1	22
413.844	1	6
414.185	1	14
414.526	1	5
414.868	1	-5
415.209	1	0
415.550	1	-10
415.892	1	17
416.233	1	9
416.575	1	4
416.916	1	-9
417.257	1	3
417.599	1	-3
417.940	1	7
418.281	1	8
418.623	1	5
418.964	1	1
419.305	1	3
419.647	1	4
419.988	1	6
420.329	1	5
420.671	1	0
421.012	1	-6
421.353	1	-1
421.695	1	-11
422.036	1	-2
422.377	1	7
422.718	1	3
423.060	1	10
423.401	1	7
423.742	1	4
424.084	1	2
424.425	1	6
424.766	1	-8
425.107	1	13
425.449	1	5
425.790	1	3
426.131	1	11
426.472	1	5
426.814	1	9
427.155	1	-9
427.496	1	8
427.837	1	-1
428.179	1	3
428.520	1	8
428.861	1	-9
429.202	1	3
429.544	1	7
429.885	1	2
430.226	1	3
430.567	1	5
430.909	1	2
431.250	1	12
431.591	1	0
431.932	1	1
432.273	1	3
432.615	1	10
432.956	1	-7
433.297	1	9
433.638	1	7
433.979	1	10
434.320	1	8
434.662	1	1
435.003	1	11
435.344	1	5
435.685	1	-9
436.026	1	10
436.368	1	1
436.709	1	-2
437.050	1	8
437.391	1	12
437.732	1	0
438.073	1	5
438.414	1	-2
438.756	1	-2
439.097	1	4
439.438	1	1
439.779	1	6
440.120	1	7
440.461	1	12
440.802	1	-7
441.143	1	-6
441.485	1	0
441.826	1	3
442.167	1	0
442.508	1	4
442.849	1	6
443.190	1	-1
443.531	1	1
443.872	1	2
444.213	1	0
444.554	1	10
444.895	1	-3
445.237	1	-8
445.578	1	-7
445.919	1	-3
446.260	1	2
446.601	1	14
446.942	1	0
447.283	1	14
447.624	1	5
447.965	1	0
448.306	1	2
448.647	1	17
448.988	1	6
449.329	1	0
449.670	1	-8
450.011	1	-9
450.352	1	1
450.693	1	-3
451.034	1	-8
451.375	1	6
451.716	1	-5
452.057	1	10
452.398	1	-11
452.739	1	8
453.080	1	-1
453.421	1	5
453.762	1	4
454.103	1	6
454.444	1	1
454.785	1	11
455.126	1	-7
455.467	1	0
455.808	1	5
456.149	1	-12
456.490	1	9
456.831	1	7
457.172	1	7
457.513	1	0
457.854	1	6
458.195	1	-3
458.536	1	1
458.877	1	22
459.218	1	12
459.559	1	4
459.899	1	0
460.240	1	13
460.581	1	1
460.922	1	0
461.263	1	8
461.604	1	-11
461.945	1	7
462.286	1	6
462.627	1	-6
462.968	1	0
463.309	1	3
463.649	1	0
463.990	1	8
464.331	1	6
464.672	1	11
465.013	1	-7
465.354	1	4
465.695	1	1
466.036	1	-3
466.376	1	4
466.717	1	6
467.058	1	-1
467.399	1	-2
467.740	1	13
468.081	1	9
468.422	1	9
468.762	1	-3
469.103	1	3
469.444	1	8
469.785	1	3
470.126	1	-12
470.467	1	0
470.807	1	4
471.148	1	-1
471.489	1	-7
471.830	1	0
472.171	1	2
472.511	1	-5
472.852	1	5
473.193	1	2
473.534	1	-9
473.875	1	8
474.215	1	7
474.556	1	4
474.897	1	-7
475.238	1	15
475.578	1	-5
475.919	1	-7
476.260	1	3
476.601	1	2
476.942	1	3
477.282	1	-1
477.623	1	-8
477.964	1	-8
478.305	1	8
478.645	1	-5
478.986	1	1
479.327	1	-7
479.667	1	7
480.008	1	1
480.349	1	-4
480.690	1	3
481.030	1	-9
481.371	1	1
481.712	1	2
482.053	1	0
482.393	1	0
482.734	1	6
483.075	1	16
483.415	1	7
483.756	1	-6
484.097	1	5
484.437	1	-2
484.778	1	7
485.119	1	3
485.459	1	-3
485.800	1	10
486.141	1	-1
486.481	1	-10
486.822	1	4
487.163	1	-4
487.503	1	-7
487.844	1	-2
488.185	1	-1
488.525	1	10
488.866	1	7
489.207	1	2
489.547	1	-6
489.888	1	10
490.228	1	-8
490.569	1	-1
490.910	1	-11
491.250	1	9
491.591	1	-9
491.932	1	4
492.272	1	0
492.613	1	-9
492.953	1	-5
493.294	1	5
493.635	1	3
493.975	1	8
494.316	1	5
494.656	1	-2
494.997	1	-3
495.337	1	1
495.678	1	-1
496.019	1	-9
496.359	1	10
496.700	1	4
497.040	1	8
497.381	1	1
497.721	1	3
498.062	1	-1
498.403	1	-11
498.743	1	7
499.084	1	8
499.424	1	-5
499.765	1	-1
500.105	1	0
500.446	1	9
500.786	1	6
501.127	1	5
501.467	1	1
501.808	1	0
502.148	1	4
502.489	1	0
502.829	1	2
503.170	1	-3
503.510	1	3
503.851	1	-2
504.191	1	8
504.532	1	11
504.872	1	5
505.213	1	-1
505.553	1	-7
505.894	1	9
506.234	1	-8
506.575	1	-8
506.915	1	-4
507.256	1	14
507.596	1	1
507.936	1	-6
508.277	1	1
508.617	1	-5
508.958	1	2
509.298	1	-5
509.639	1	2
509.979	1	-6
510.319	1	9
510.660	1	-15
511.000	1	2
511.341	1	-1
511.681	1	5
512.022	1	15
512.362	1	0
512.702	1	11
513.043	1	4
513.383	1	-3
513.724	1	-3
514.064	1	-3
514.404	1	9
514.745	1	-3
515.085	1	14
515.425	1	5
515.766	1	4
516.106	1	2
516.447	1	2
516.787	1	2
517.127	1	5
517.468	1	8
517.808	1	4
518.148	1	6
518.489	1	9
518.829	1	16
519.169	1	2
519.510	1	0
519.850	1	20
520.190	1	0
520.531	1	7
520.871	1	-12
521.211	1	10
521.552	1	-1
521.892	1	4
522.232	1	-6
522.573	1	-5
522.913	1	3
523.253	1	8
523.593	1	15
523.934	1	-4
524.274	1	-13
524.614	1	2
524.955	1	14
525.295	1	6
525.635	1	0
525.975	1	9
526.316	1	-1
526.656	1	5
526.996	1	9
527.337	1	17
527.677	1	0
528.017	1	5
528.357	1	7
528.698	1	-4
529.038	1	-1
529.378	1	3
529.718	1	11
530.058	1	5
530.399	1	7
530.739	1	3
531.079	1	0
531.419	1	7
531.760	1	-5
532.100	1	7
532.440	1	6
532.780	1	-2
533.120	1	-1
533.461	1	-1
533.801	1	17
534.141	1	2
534.481	1	-4
534.821	1	7
535.162	1	2
535.502	1	7
535.842	1	4
536.182	1	5
536.522	1	-8
536.862	1	-2
537.203	1	-11
537.543	1	8
537.883	1	-5
538.223	1	18
538.563	1	5
538.903	1	10
539.243	1	-2
539.584	1	12
539.924	1	9
540.264	1	-3
540.604	1	12
540.944	1	6
541.284	1	-1
541.624	1	14
541.964	1	-3
542.305	1	1
542.645	1	-5
542.985	1	6
543.325	1	4
543.665	1	15
544.005	1	15
544.345	1	1
544.685	1	10
545.025	1	-13
545.365	1	10
545.705	1	-3
546.045	1	1
546.386	1	-2
546.726	1	-5
547.066	1	-1
547.406	1	-13
547.746	1	1
548.086	1	-5
548.426	1	2
548.766	1	8
549.106	1	-5
549.446	1	-7
549.786	1	-1
550.126	1	-2
550.466	1	11
550.806	1	5
551.146	1	10
551.486	1	4
551.826	1	7
552.166	1	8
552.506	1	4
552.846	1	-3
553.186	1	8
553.526	1	7
553.866	1	1
554.206	1	6
554.546	1	11
554.886	1	-4
555.226	1	6
555.566	1	-7
555.906	1	-1
556.246	1	3
556.586	1	2
556.926	1	4
557.266	1	1
557.606	1	16
557.946	1	8
558.286	1	14
558.626	1	-2
558.966	1	7
559.306	1	-2
559.646	1	9
559.986	1	4
560.325	1	-7
560.665	1	3
561.005	1	-4
561.345	1	6
561.685	1	4
562.025	1	1
562.365	1	10
562.705	1	7
563.045	1	-1
563.385	1	4
563.725	1	-8
564.064	1	5
564.404	1	5
564.744	1	2
565.084	1	6
565.424	1	-11
565.764	1	12
566.104	1	2
566.444	1	18
566.783	1	5
567.123	1	-3
567.463	1	0
567.803	1	5
568.143	1	8
568.483	1	-7
568.823	1	0
569.162	1	6
569.502	1	5
569.842	1	0
570.182	1	-2
570.522	1	-13
570.862	1	13
571.201	1	-4
571.541	1	-5
571.881	1	-5
572.221	1	14
572.561	1	3
572.900	1	5
573.240	1	-5
573.580	1	2
573.920	1	10
574.260	1	1
574.599	1	3
574.939	1	1
575.279	1	-12
575.619	1	4
575.959	1	1
576.298	1	1
576.638	1	-5
576.978	1	-3
577.318	1	10
577.657	1	13
577.997	1	-2
578.337	1	2
578.677	1	-2
579.016	1	-1
579.356	1	11
579.696	1	0
580.036	1	7
580.375	1	8
580.715	1	18
581.055	1	-1
581.394	1	-6
581.734	1	10
582.074	1	1
582.414	1	2
582.753	1	3
583.093	1	-2
583.433	1	9
583.772	1	2
584.112	1	7
584.452	1	8
584.791	1	2
585.131	1	8
585.471	1	-2
585.811	1	10
586.150	1	5
586.490	1	4
586.830	1	-6
587.169	1	5
587.509	1	7
587.849	1	14
588.188	1	19
588.528	1	4
588.867	1	8
589.207	1	0
589.547	1	-3
589.886	1	3
590.226	1	13
590.566	1	-4
590.905	1	0
591.245	1	-8
591.585	1	0
591.924	1	-1
592.264	1	6
592.603	1	1
592.943	1	-3
593.283	1	7
593.622	1	15
593.962	1	7
594.301	1	-3
594.641	1	12
594.981	1	-13
595.320	1	10
595.660	1	3
595.999	1	3
596.339	1	4
596.678	1	-2
597.018	1	3
597.358	1	-2
597.697	1	-1
598.037	1	-2
598.376	1	-1
598.716	1	1
599.055	1	6
599.395	1	-4
599.734	1	-5
600.074	1	2
600.413	1	6
600.753	1	-2
601.092	1	-4
601.432	1	-5
601.771	1	9
602.111	1	-3
602.451	1	2
602.790	1	-5
603.130	1	-1
603.469	1	2
603.809	1	2
604.148	1	10
604.487	1	5
604.827	1	5
605.166	1	15
605.506	1	-1
605.845	1	1
606.185	1	2
606.524	1	9
606.864	1	7
607.203	1	-3
607.543	1	9
607.882	1	12
608.222	1	-8
608.561	1	-2
608.901	1	7
609.240	1	-12
609.579	1	8
609.919	1	3
610.258	1	8
610.598	1	-1
610.937	1	10
611.277	1	9
611.616	1	-8
611.955	1	-1
612.295	1	7
612.634	1	-4
612.974	1	8
613.313	1	2
613.652	1	-5
613.992	1	0
614.331	1	7
614.671	1	7
615.010	1	-5
615.349	1	4
615.689	1	2
616.028	1	0
616.368	1	-1
616.707	1	17
617.046	1	7
617.386	1	-5
617.725	1	-4
618.064	1	-1
618.404	1	0
618.743	1	3
619.082	1	8
619.422	1	-3
619.761	1	7
620.100	1	-2
620.440	1	4
620.779	1	-1
621.118	1	-12
621.458	1	11
621.797	1	5
622.136	1	6
622.476	1	4
622.815	1	-1
623.154	1	3
623.494	1	10
623.833	1	10
624.172	1	-3
624.511	1	0
624.851	1	-7
625.190	1	2
625.529	1	3
625.869	1	10
626.208	1	5
626.547	1	0
626.886	1	4
627.226	1	-1
627.565	1	1
627.904	1	-3
628.243	1	4
628.583	1	-11
628.922	1	-5
629.261	1	-3
629.600	1	7
629.940	1	14
630.279	1	7
630.618	1	-4
630.957	1	1
631.297	1	-4
631.636	1	1
631.975	1	2
632.314	1	-6
632.653	1	-1
632.993	1	1
633.332	1	0
633.671	1	-8
634.010	1	-4
634.349	1	6
634.689	1	10
635.028	1	7
635.367	1	4
635.706	1	-5
636.045	1	7
636.384	1	2
636.724	1	16
637.063	1	10
637.402	1	-10
637.741	1	12
638.080	1	3
638.419	1	9
638.759	1	-4
639.098	1	4
639.437	1	7
639.776	1	5
640.115	1	5
640.454	1	9
640.793	1	-10
641.132	1	10
641.472	1	5
641.811	1	-5
642.150	1	-7
642.489	1	-14
642.828	1	-9
643.167	1	8
643.506	1	5
643.845	1	1
644.184	1	-11
644.524	1	3
644.863	1	-6
645.202	1	12
645.541	1	-4
645.880	1	3
646.219	1	1
646.558	1	-5
646.897	1	0
647.236	1	-7
647.575	1	-6
647.914	1	-1
648.253	1	1
648.592	1	-6
648.931	1	-5
649.270	1	1
649.610	1	0
649.949	1	0
650.288	1	3
650.627	1	4
650.966	1	7
651.305	1	-3
651.644	1	-4
651.983	1	-13
652.322	1	-4
652.661	1	-6
653.000	1	1
653.339	1	1
653.678	1	0
654.017	1	4
654.356	1	1
654.695	1	7
655.034	1	-3
655.373	1	1
655.712	1	-1
656.051	1	12
656.390	1	-1
656.729	1	1
657.068	1	-6
657.406	1	3
657.745	1	-5
658.084	1	-1
658.423	1	-2
658.762	1	6
659.101	1	1
659.440	1	1
659.779	1	0
660.118	1	-9
660.457	1	-3
660.796	1	4
661.135	1	9
661.474	1	1
661.813	1	-6
662.152	1	5
662.491	1	18
662.829	1	8
663.168	1	-5
663.507	1	-4
663.846	1	2
664.185	1	-3
664.524	1	-2
664.863	1	3
665.202	1	-4
665.541	1	-1
665.879	1	7
666.218	1	2
666.557	1	6
666.896	1	-4
667.235	1	3
667.574	1	17
667.913	1	-1
668.251	1	1
668.590	1	2
668.929	1	5
669.268	1	-2
669.607	1	-1
669.946	1	4
670.285	1	13
670.623	1	18
670.962	1	0
671.301	1	-5
671.640	1	-8
671.979	1	0
672.317	1	3
672.656	1	8
672.995	1	10
673.334	1	-8
673.673	1	9
674.011	1	7
674.350	1	-1
674.689	1	2
675.028	1	-3
675.367	1	-10
675.705	1	11
676.044	1	-3
676.383	1	3
676.722	1	3
677.060	1	5
677.399	1	0
677.738	1	-3
678.077	1	-5
678.416	1	11
678.754	1	10
679.093	1	10
679.432	1	9
679.771	1	-1
680.109	1	4
680.448	1	7
680.787	1	9
681.125	1	15
681.464	1	1
681.803	1	-7
682.142	1	3
682.480	1	-2
682.819	1	-3
683.158	1	-5
683.496	1	4
683.835	1	-5
684.174	1	5
684.512	1	7
684.851	1	-5
685.190	1	-3
685.529	1	-5
685.867	1	-1
686.206	1	14
686.545	1	-4
686.883	1	1
687.222	1	-2
687.561	1	7
687.899	1	3
688.238	1	5
688.577	1	-1
688.746	1	2