File: Data/GaN_130K_350ms/GaN_sample F_spot6_UVVIS_130 K_200um_350 ms 2x2mm1_175.txt
340.368	1	6
340.710	1	11
341.052	1	-5
341.394	1	-10
341.737	1	6
342.079	1	-7
342.421	1	10
342.763	1	5
343.105	1	-2
343.447	1	0
343.789	1	-1
344.131	1	5
344.473	1	-4
344.815	1	-6
345.157	1	-8
345.499	1	-2
345.841	1	-4
346.183	1	-2
346.526	1	-4
346.868	1	6
347.210	1	4
347.552	1	9
347.894	1	0
348.236	1	4
348.578	1	1
348.920	1	7
349.262	1	8
349.604	1	2
349.946	1	1
350.288	1	-4
350.630	1	-1
350.972	1	6
351.314	1	-1
351.656	1	4
351.998	1	-2
352.340	1	11
352.682	1	3
353.024	1	-10
353.366	1	2
353.708	1	-9
354.050	1	7
354.392	1	6
354.734	1	10
355.076	1	-2
355.418	1	7
355.760	1	7
356.102	1	2
356.444	1	-7
356.785	1	15
357.127	1	5
357.469	1	-1
357.811	1	8
358.153	1	10
358.495	1	13
358.837	1	1
359.179	1	5
359.521	1	1
359.863	1	17
360.205	1	2
360.547	1	3
360.889	1	2
361.231	1	7
361.572	1	17
361.914	1	7
362.256	1	7
362.598	1	8
362.940	1	7
363.282	1	19
363.624	1	15
363.966	1	25
364.308	1	14
364.649	1	27
364.991	1	20
365.333	1	21
365.675	1	14
366.017	1	20
366.359	1	35
366.701	1	35
367.042	1	33
367.384	1	36
367.726	1	21
368.068	1	24
368.410	1	23
368.752	1	30
369.093	1	27
369.435	1	18
369.777	1	17
370.119	1	36
370.461	1	21
370.803	1	28
371.144	1	25
371.486	1	25
371.828	1	16
372.170	1	11
372.512	1	13
372.853	1	5
373.195	1	12
373.537	1	10
373.879	1	19
374.220	1	15
374.562	1	9
374.904	1	15
375.246	1	13
375.588	1	9
375.929	1	3
376.271	1	16
376.613	1	9
376.955	1	9
377.296	1	13
377.638	1	-2
377.980	1	-1
378.321	1	0
378.663	1	15
379.005	1	24
379.347	1	11
379.688	1	-5
380.030	1	7
380.372	1	20
380.714	1	16
381.055	1	9
381.397	1	13
381.739	1	8
382.080	1	9
382.422	1	22
382.764	1	6
383.105	1	14
383.447	1	11
383.789	1	8
384.130	1	13
384.472	1	16
384.814	1	7
385.156	1	10
385.497	1	0
385.839	1	7
386.180	1	11
386.522	1	16
386.864	1	20
387.205	1	6
387.547	1	8
387.889	1	5
388.230	1	1
388.572	1	16
388.914	1	13
389.255	1	9
389.597	1	5
389.939	1	11
390.280	1	11
390.622	1	7
390.963	1	1
391.305	1	15
391.647	1	15
391.988	1	14
392.330	1	3
392.671	1	-6
393.013	1	10
393.355	1	9
393.696	1	8
394.038	1	14
394.379	1	8
394.721	1	10
395.062	1	-2
395.404	1	-3
395.746	1	12
396.087	1	7
396.429	1	7
396.770	1	7
397.112	1	10
397.453	1	12
397.795	1	1
398.136	1	2
398.478	1	3
398.819	1	-7
399.161	1	7
399.503	1	14
399.844	1	0
400.186	1	0
400.527	1	19
400.869	1	11
401.210	1	-5
401.552	1	9
401.893	1	0
402.235	1	9
402.576	1	7
402.918	1	6
403.259	1	2
403.601	1	7
403.942	1	8
404.284	1	2
404.625	1	12
404.967	1	2
405.308	1	-3
405.649	1	5
405.991	1	4
406.332	1	5
406.674	1	10
407.015	1	0
407.357	1	14
407.698	1	4
408.040	1	2
408.381	1	9
408.722	1	8
409.064	1	10
409.405	1	15
409.747	1	11
410.088	1	9
410.430	1	14
410.771	1	-12
411.112	1	16
411.454	1	5
411.795	1	6
412.137	1	-6
412.478	1	4
412.819	1	8
413.161	1	10
413.502	1	12
413.844	1	6
414.185	1	6
414.526	1	6
414.868	1	9
415.209	1	9
415.550	1	11
415.892	1	15
416.233	1	15
416.575	1	12
416.916	1	1
417.257	1	2
417.599	1	2
417.940	1	14
418.281	1	8
418.623	1	10
418.964	1	8
419.305	1	12
419.647	1	12
419.988	1	14
420.329	1	17
420.671	1	8
421.012	1	3
421.353	1	11
421.695	1	5
422.036	1	13
422.377	1	15
422.718	1	2
423.060	1	5
423.401	1	6
423.742	1	10
424.084	1	9
424.425	1	4
424.766	1	5
425.107	1	6
425.449	1	7
425.790	1	6
426.131	1	21
426.472	1	7
426.814	1	7
427.155	1	2
427.496	1	9
427.837	1	8
428.179	1	12
428.520	1	16
428.861	1	8
429.202	1	13
429.544	1	7
429.885	1	4
430.226	1	6
430.567	1	0
430.909	1	0
431.250	1	1
431.591	1	6
431.932	1	1
432.273	1	10
432.615	1	2
432.956	1	2
433.297	1	13
433.638	1	15
433.979	1	5
434.320	1	3
434.662	1	8
435.003	1	13
435.344	1	14
435.685	1	-10
436.026	1	10
436.368	1	0
436.709	1	-3
437.050	1	12
437.391	1	10
437.732	1	14
438.073	1	15
438.414	1	-5
438.756	1	5
439.097	1	17
439.438	1	13
439.779	1	10
440.120	1	1
440.461	1	21
440.802	1	-1
441.143	1	-5
441.485	1	16
441.826	1	2
442.167	1	3
442.508	1	7
442.849	1	15
443.190	1	7
443.531	1	0
443.872	1	15
444.213	1	-3
444.554	1	10
444.895	1	4
445.237	1	-2
445.578	1	7
445.919	1	5
446.260	1	7
446.601	1	5
446.942	1	5
447.283	1	-1
447.624	1	2
447.965	1	6
448.306	1	1
448.647	1	22
448.988	1	6
449.329	1	0
449.670	1	7
450.011	1	-1
450.352	1	10
450.693	1	6
451.034	1	0
451.375	1	3
451.716	1	-5
452.057	1	12
452.398	1	-8
452.739	1	10
453.080	1	2
453.421	1	6
453.762	1	12
454.103	1	-4
454.444	1	10
454.785	1	8
455.126	1	-1
455.467	1	6
455.808	1	10
456.149	1	-6
456.490	1	11
456.831	1	5
457.172	1	0
457.513	1	-6
457.854	1	10
458.195	1	1
458.536	1	11
458.877	1	14
459.218	1	10
459.559	1	7
459.899	1	10
460.240	1	14
460.581	1	-1
460.922	1	6
461.263	1	2
461.604	1	-1
461.945	1	9
462.286	1	10
462.627	1	1
462.968	1	5
463.309	1	-1
463.649	1	-12
463.990	1	1
464.331	1	10
464.672	1	13
465.013	1	1
465.354	1	7
465.695	1	13
466.036	1	7
466.376	1	2
466.717	1	13
467.058	1	8
467.399	1	-3
467.740	1	14
468.081	1	4
468.422	1	1
468.762	1	3
469.103	1	12
469.444	1	0
469.785	1	4
470.126	1	-10
470.467	1	-2
470.807	1	8
471.148	1	-3
471.489	1	2
471.830	1	5
472.171	1	8
472.511	1	1
472.852	1	5
473.193	1	6
473.534	1	1
473.875	1	9
474.215	1	5
474.556	1	7
474.897	1	2
475.238	1	14
475.578	1	8
475.919	1	-1
476.260	1	7
476.601	1	1
476.942	1	9
477.282	1	9
477.623	1	-3
477.964	1	-8
478.305	1	12
478.645	1	8
478.986	1	0
479.327	1	2
479.667	1	-4
480.008	1	2
480.349	1	6
480.690	1	-4
481.030	1	0
481.371	1	14
481.712	1	-1
482.053	1	5
482.393	1	4
482.734	1	3
483.075	1	16
483.415	1	4
483.756	1	4
484.097	1	-8
484.437	1	7
484.778	1	8
485.119	1	8
485.459	1	-1
485.800	1	5
486.141	1	1
486.481	1	-3
486.822	1	2
487.163	1	-1
487.503	1	-5
487.844	1	5
488.185	1	0
488.525	1	9
488.866	1	10
489.207	1	0
489.547	1	7
489.888	1	16
490.228	1	-1
490.569	1	1
490.910	1	3
491.250	1	2
491.591	1	-7
491.932	1	3
492.272	1	3
492.613	1	4
492.953	1	2
493.294	1	14
493.635	1	9
493.975	1	14
494.316	1	11
494.656	1	-4
494.997	1	-3
495.337	1	4
495.678	1	2
496.019	1	6
496.359	1	20
496.700	1	6
497.040	1	7
497.381	1	7
497.721	1	2
498.062	1	-3
498.403	1	6
498.743	1	10
499.084	1	11
499.424	1	-4
499.765	1	-2
500.105	1	3
500.446	1	3
500.786	1	11
501.127	1	6
501.467	1	11
501.808	1	6
502.148	1	2
502.489	1	4
502.829	1	3
503.170	1	4
503.510	1	12
503.851	1	4
504.191	1	11
504.532	1	8
504.872	1	7
505.213	1	11
505.553	1	8
505.894	1	15
506.234	1	9
506.575	1	-1
506.915	1	5
507.256	1	9
507.596	1	-3
507.936	1	4
508.277	1	6
508.617	1	8
508.958	1	12
509.298	1	1
509.639	1	8
509.979	1	6
510.319	1	23
510.660	1	-1
511.000	1	12
511.341	1	3
511.681	1	8
512.022	1	8
512.362	1	0
512.702	1	15
513.043	1	0
513.383	1	5
513.724	1	5
514.064	1	-3
514.404	1	17
514.745	1	-1
515.085	1	16
515.425	1	-4
515.766	1	3
516.106	1	5
516.447	1	8
516.787	1	7
517.127	1	7
517.468	1	12
517.808	1	2
518.148	1	9
518.489	1	8
518.829	1	6
519.169	1	14
519.510	1	8
519.850	1	16
520.190	1	19
520.531	1	18
520.871	1	15
521.211	1	9
521.552	1	9
521.892	1	15
522.232	1	6
522.573	1	6
522.913	1	22
523.253	1	7
523.593	1	8
523.934	1	0
524.274	1	-1
524.614	1	17
524.955	1	12
525.295	1	13
525.635	1	2
525.975	1	33
526.316	1	-5
526.656	1	9
526.996	1	9
527.337	1	16
527.677	1	8
528.017	1	6
528.357	1	14
528.698	1	6
529.038	1	-7
529.378	1	14
529.718	1	14
530.058	1	-2
530.399	1	7
530.739	1	16
531.079	1	16
531.419	1	17
531.760	1	8
532.100	1	12
532.440	1	14
532.780	1	17
533.120	1	15
533.461	1	4
533.801	1	24
534.141	1	10
534.481	1	13
534.821	1	13
535.162	1	5
535.502	1	8
535.842	1	5
536.182	1	13
536.522	1	1
536.862	1	14
537.203	1	6
537.543	1	15
537.883	1	-3
538.223	1	10
538.563	1	6
538.903	1	17
539.243	1	5
539.584	1	13
539.924	1	2
540.264	1	3
540.604	1	8
540.944	1	13
541.284	1	19
541.624	1	18
541.964	1	7
542.305	1	7
542.645	1	7
542.985	1	9
543.325	1	11
543.665	1	10
544.005	1	19
544.345	1	8
544.685	1	17
545.025	1	-5
545.365	1	20
545.705	1	2
546.045	1	11
546.386	1	11
546.726	1	-3
547.066	1	6
547.406	1	-5
547.746	1	9
548.086	1	-8
548.426	1	19
548.766	1	7
549.106	1	8
549.446	1	-4
549.786	1	0
550.126	1	8
550.466	1	18
550.806	1	15
551.146	1	8
551.486	1	5
551.826	1	11
552.166	1	7
552.506	1	18
552.846	1	6
553.186	1	13
553.526	1	10
553.866	1	0
554.206	1	6
554.546	1	16
554.886	1	5
555.226	1	9
555.566	1	5
555.906	1	4
556.246	1	5
556.586	1	7
556.926	1	7
557.266	1	7
557.606	1	6
557.946	1	5
558.286	1	9
558.626	1	2
558.966	1	1
559.306	1	11
559.646	1	16
559.986	1	12
560.325	1	-1
560.665	1	14
561.005	1	2
561.345	1	8
561.685	1	4
562.025	1	3
562.365	1	13
562.705	1	17
563.045	1	0
563.385	1	12
563.725	1	4
564.064	1	10
564.404	1	8
564.744	1	8
565.084	1	-2
565.424	1	2
565.764	1	7
566.104	1	4
566.444	1	6
566.783	1	13
567.123	1	8
567.463	1	3
567.803	1	11
568.143	1	14
568.483	1	6
568.823	1	-7
569.162	1	4
569.502	1	10
569.842	1	12
570.182	1	6
570.522	1	-8
570.862	1	16
571.201	1	4
571.541	1	8
571.881	1	-6
572.221	1	9
572.561	1	3
572.900	1	18
573.240	1	7
573.580	1	6
573.920	1	13
574.260	1	5
574.599	1	17
574.939	1	14
575.279	1	2
575.619	1	0
575.959	1	3
576.298	1	4
576.638	1	-7
576.978	1	0
577.318	1	5
577.657	1	17
577.997	1	-1
578.337	1	0
578.677	1	14
579.016	1	6
579.356	1	11
579.696	1	-3
580.036	1	6
580.375	1	5
580.715	1	16
581.055	1	9
581.394	1	-2
581.734	1	6
582.074	1	4
582.414	1	6
582.753	1	10
583.093	1	6
583.433	1	6
583.772	1	2
584.112	1	14
584.452	1	11
584.791	1	5
585.131	1	9
585.471	1	-2
585.811	1	10
586.150	1	15
586.490	1	12
586.830	1	-7
587.169	1	6
587.509	1	0
587.849	1	14
588.188	1	6
588.528	1	12
588.867	1	9
589.207	1	8
589.547	1	1
589.886	1	3
590.226	1	7
590.566	1	12
590.905	1	14
591.245	1	1
591.585	1	9
591.924	1	5
592.264	1	3
592.603	1	6
592.943	1	8
593.283	1	1
593.622	1	7
593.962	1	14
594.301	1	1
594.641	1	4
594.981	1	-12
595.320	1	12
595.660	1	4
595.999	1	11
596.339	1	7
596.678	1	-2
597.018	1	3
597.358	1	-11
597.697	1	2
598.037	1	8
598.376	1	8
598.716	1	4
599.055	1	-2
599.395	1	1
599.734	1	3
600.074	1	17
600.413	1	11
600.753	1	9
601.092	1	3
601.432	1	-1
601.771	1	4
602.111	1	-1
602.451	1	5
602.790	1	6
603.130	1	13
603.469	1	1
603.809	1	-1
604.148	1	3
604.487	1	11
604.827	1	9
605.166	1	11
605.506	1	-1
605.845	1	-2
606.185	1	4
606.524	1	3
606.864	1	17
607.203	1	2
607.543	1	9
607.882	1	3
608.222	1	3
608.561	1	-4
608.901	1	8
609.240	1	1
609.579	1	7
609.919	1	6
610.258	1	0
610.598	1	-5
610.937	1	9
611.277	1	3
611.616	1	-2
611.955	1	-2
612.295	1	14
612.634	1	1
612.974	1	8
613.313	1	4
613.652	1	-2
613.992	1	10
614.331	1	6
614.671	1	5
615.010	1	-9
615.349	1	3
615.689	1	4
616.028	1	9
616.368	1	5
616.707	1	14
617.046	1	2
617.386	1	8
617.725	1	1
618.064	1	4
618.404	1	-4
618.743	1	11
619.082	1	7
619.422	1	4
619.761	1	2
620.100	1	7
620.440	1	13
620.779	1	7
621.118	1	11
621.458	1	0
621.797	1	7
622.136	1	10
622.476	1	8
622.815	1	-8
623.154	1	-1
623.494	1	3
623.833	1	7
624.172	1	-10
624.511	1	2
624.851	1	3
625.190	1	-1
625.529	1	-3
625.869	1	12
626.208	1	-3
626.547	1	7
626.886	1	-2
627.226	1	6
627.565	1	5
627.904	1	11
628.243	1	-4
628.583	1	3
628.922	1	-5
629.261	1	-7
629.600	1	10
629.940	1	7
630.279	1	11
630.618	1	4
630.957	1	-3
631.297	1	-2
631.636	1	4
631.975	1	3
632.314	1	2
632.653	1	-1
632.993	1	7
633.332	1	9
633.671	1	-3
634.010	1	-8
634.349	1	-4
634.689	1	15
635.028	1	10
635.367	1	6
635.706	1	-4
636.045	1	6
636.384	1	7
636.724	1	16
637.063	1	-2
637.402	1	-4
637.741	1	7
638.080	1	2
638.419	1	-2
638.759	1	16
639.098	1	-3
639.437	1	8
639.776	1	4
640.115	1	5
640.454	1	6
640.793	1	-9
641.132	1	8
641.472	1	-1
641.811	1	7
642.150	1	-3
642.489	1	-9
642.828	1	0
643.167	1	2
643.506	1	7
643.845	1	-5
644.184	1	-9
644.524	1	-5
644.863	1	-6
645.202	1	10
645.541	1	3
645.880	1	9
646.219	1	4
646.558	1	-6
646.897	1	0
647.236	1	-11
647.575	1	-1
647.914	1	2
648.253	1	9
648.592	1	2
648.931	1	0
649.270	1	-1
649.610	1	-4
649.949	1	0
650.288	1	3
650.627	1	1
650.966	1	9
651.305	1	-7
651.644	1	1
651.983	1	-8
652.322	1	0
652.661	1	4
653.000	1	6
653.339	1	-3
653.678	1	-3
654.017	1	1
654.356	1	-3
654.695	1	-3
655.034	1	-3
655.373	1	-6
655.712	1	7
656.051	1	6
656.390	1	1
656.729	1	-2
657.068	1	0
657.406	1	1
657.745	1	7
658.084	1	5
658.423	1	4
658.762	1	19
659.101	1	9
659.440	1	-4
659.779	1	1
660.118	1	-6
660.457	1	-1
660.796	1	1
661.135	1	16
661.474	1	1
661.813	1	5
662.152	1	0
662.491	1	17
662.829	1	10
663.168	1	-11
663.507	1	5
663.846	1	-1
664.185	1	-8
664.524	1	2
664.863	1	5
665.202	1	-1
665.541	1	3
665.879	1	2
666.218	1	14
666.557	1	8
666.896	1	1
667.235	1	8
667.574	1	17
667.913	1	5
668.251	1	-1
668.590	1	8
668.929	1	5
669.268	1	9
669.607	1	-4
669.946	1	4
670.285	1	1
670.623	1	14
670.962	1	-5
671.301	1	6
671.640	1	-4
671.979	1	7
672.317	1	4
672.656	1	1
672.995	1	7
673.334	1	1
673.673	1	7
674.011	1	4
674.350	1	1
674.689	1	11
675.028	1	11
675.367	1	2
675.705	1	11
676.044	1	7
676.383	1	5
676.722	1	4
677.060	1	10
677.399	1	3
677.738	1	3
678.077	1	-1
678.416	1	7
678.754	1	8
679.093	1	5
679.432	1	10
679.771	1	8
680.109	1	5
680.448	1	2
680.787	1	4
681.125	1	4
681.464	1	4
681.803	1	1
682.142	1	2
682.480	1	20
682.819	1	2
683.158	1	2
683.496	1	-4
683.835	1	-1
684.174	1	13
684.512	1	10
684.851	1	-4
685.190	1	8
685.529	1	-12
685.867	1	4
686.206	1	18
686.545	1	3
686.883	1	-4
687.222	1	-2
687.561	1	9
687.899	1	-2
688.238	1	12
688.577	1	-3
688.746	1	6