File: Data/GaN_130K_350ms/GaN_sample F_spot6_UVVIS_130 K_200um_350 ms 2x2mm1_217.txt
340.368	1	9
340.710	1	5
341.052	1	-8
341.394	1	-2
341.737	1	2
342.079	1	6
342.421	1	9
342.763	1	1
343.105	1	-7
343.447	1	5
343.789	1	7
344.131	1	8
344.473	1	7
344.815	1	3
345.157	1	-11
345.499	1	6
345.841	1	9
346.183	1	12
346.526	1	-2
346.868	1	6
347.210	1	-1
347.552	1	1
347.894	1	8
348.236	1	3
348.578	1	5
348.920	1	4
349.262	1	5
349.604	1	2
349.946	1	7
350.288	1	-5
350.630	1	3
350.972	1	8
351.314	1	-1
351.656	1	12
351.998	1	0
352.340	1	8
352.682	1	1
353.024	1	-3
353.366	1	9
353.708	1	-5
354.050	1	4
354.392	1	4
354.734	1	4
355.076	1	4
355.418	1	13
355.760	1	2
356.102	1	6
356.444	1	-4
356.785	1	9
357.127	1	9
357.469	1	-4
357.811	1	7
358.153	1	2
358.495	1	7
358.837	1	2
359.179	1	2
359.521	1	2
359.863	1	9
360.205	1	-3
360.547	1	2
360.889	1	2
361.231	1	-4
361.572	1	7
361.914	1	8
362.256	1	4
362.598	1	4
362.940	1	-6
363.282	1	18
363.624	1	9
363.966	1	25
364.308	1	11
364.649	1	14
364.991	1	10
365.333	1	9
365.675	1	14
366.017	1	28
366.359	1	9
366.701	1	12
367.042	1	18
367.384	1	28
367.726	1	8
368.068	1	15
368.410	1	6
368.752	1	21
369.093	1	14
369.435	1	2
369.777	1	20
370.119	1	22
370.461	1	15
370.803	1	20
371.144	1	18
371.486	1	5
371.828	1	8
372.170	1	7
372.512	1	9
372.853	1	1
373.195	1	11
373.537	1	12
373.879	1	17
374.220	1	8
374.562	1	9
374.904	1	12
375.246	1	2
375.588	1	8
375.929	1	6
376.271	1	13
376.613	1	-1
376.955	1	9
377.296	1	7
377.638	1	0
377.980	1	-5
378.321	1	16
378.663	1	12
379.005	1	22
379.347	1	-2
379.688	1	0
380.030	1	-3
380.372	1	12
380.714	1	15
381.055	1	12
381.397	1	1
381.739	1	6
382.080	1	-3
382.422	1	10
382.764	1	5
383.105	1	0
383.447	1	7
383.789	1	4
384.130	1	6
384.472	1	10
384.814	1	4
385.156	1	-7
385.497	1	1
385.839	1	13
386.180	1	11
386.522	1	12
386.864	1	13
387.205	1	-1
387.547	1	8
387.889	1	7
388.230	1	1
388.572	1	16
388.914	1	6
389.255	1	0
389.597	1	-2
389.939	1	8
390.280	1	12
390.622	1	8
390.963	1	6
391.305	1	0
391.647	1	7
391.988	1	5
392.330	1	6
392.671	1	-2
393.013	1	3
393.355	1	0
393.696	1	-1
394.038	1	3
394.379	1	2
394.721	1	4
395.062	1	2
395.404	1	-6
395.746	1	8
396.087	1	18
396.429	1	10
396.770	1	14
397.112	1	6
397.453	1	15
397.795	1	3
398.136	1	9
398.478	1	14
398.819	1	-5
399.161	1	12
399.503	1	14
399.844	1	1
400.186	1	1
400.527	1	12
400.869	1	4
401.210	1	-3
401.552	1	8
401.893	1	0
402.235	1	2
402.576	1	2
402.918	1	17
403.259	1	-2
403.601	1	3
403.942	1	3
404.284	1	-2
404.625	1	9
404.967	1	5
405.308	1	13
405.649	1	6
405.991	1	2
406.332	1	6
406.674	1	11
407.015	1	-4
407.357	1	8
407.698	1	4
408.040	1	18
408.381	1	16
408.722	1	9
409.064	1	6
409.405	1	8
409.747	1	6
410.088	1	19
410.430	1	12
410.771	1	-8
411.112	1	14
411.454	1	7
411.795	1	11
412.137	1	-5
412.478	1	5
412.819	1	8
413.161	1	10
413.502	1	6
413.844	1	4
414.185	1	6
414.526	1	5
414.868	1	-3
415.209	1	6
415.550	1	1
415.892	1	8
416.233	1	10
416.575	1	7
416.916	1	0
417.257	1	11
417.599	1	5
417.940	1	12
418.281	1	6
418.623	1	14
418.964	1	-2
419.305	1	0
419.647	1	0
419.988	1	6
420.329	1	8
420.671	1	-4
421.012	1	11
421.353	1	-8
421.695	1	-9
422.036	1	9
422.377	1	-1
422.718	1	3
423.060	1	14
423.401	1	4
423.742	1	6
424.084	1	7
424.425	1	5
424.766	1	11
425.107	1	6
425.449	1	5
425.790	1	8
426.131	1	17
426.472	1	3
426.814	1	2
427.155	1	-2
427.496	1	9
427.837	1	11
428.179	1	4
428.520	1	4
428.861	1	0
429.202	1	4
429.544	1	18
429.885	1	5
430.226	1	2
430.567	1	5
430.909	1	1
431.250	1	9
431.591	1	3
431.932	1	-1
432.273	1	7
432.615	1	12
432.956	1	10
433.297	1	11
433.638	1	1
433.979	1	10
434.320	1	15
434.662	1	4
435.003	1	14
435.344	1	7
435.685	1	4
436.026	1	5
436.368	1	6
436.709	1	-2
437.050	1	10
437.391	1	5
437.732	1	10
438.073	1	6
438.414	1	-4
438.756	1	-1
439.097	1	5
439.438	1	4
439.779	1	7
440.120	1	3
440.461	1	18
440.802	1	-7
441.143	1	-2
441.485	1	13
441.826	1	7
442.167	1	7
442.508	1	11
442.849	1	6
443.190	1	6
443.531	1	7
443.872	1	19
444.213	1	1
444.554	1	8
444.895	1	-2
445.237	1	-2
445.578	1	-4
445.919	1	1
446.260	1	1
446.601	1	16
446.942	1	3
447.283	1	5
447.624	1	-1
447.965	1	6
448.306	1	9
448.647	1	15
448.988	1	1
449.329	1	-3
449.670	1	2
450.011	1	-6
450.352	1	10
450.693	1	-3
451.034	1	-1
451.375	1	4
451.716	1	-9
452.057	1	16
452.398	1	-8
452.739	1	7
453.080	1	-1
453.421	1	6
453.762	1	6
454.103	1	3
454.444	1	3
454.785	1	2
455.126	1	-3
455.467	1	7
455.808	1	8
456.149	1	-4
456.490	1	5
456.831	1	8
457.172	1	-4
457.513	1	-3
457.854	1	0
458.195	1	-7
458.536	1	1
458.877	1	24
459.218	1	6
459.559	1	3
459.899	1	5
460.240	1	20
460.581	1	-9
460.922	1	6
461.263	1	-2
461.604	1	-11
461.945	1	8
462.286	1	6
462.627	1	-4
462.968	1	2
463.309	1	6
463.649	1	7
463.990	1	-6
464.331	1	8
464.672	1	7
465.013	1	-6
465.354	1	4
465.695	1	6
466.036	1	2
466.376	1	3
466.717	1	6
467.058	1	1
467.399	1	-5
467.740	1	22
468.081	1	9
468.422	1	6
468.762	1	-1
469.103	1	3
469.444	1	1
469.785	1	1
470.126	1	-4
470.467	1	2
470.807	1	-2
471.148	1	5
471.489	1	0
471.830	1	2
472.171	1	2
472.511	1	-3
472.852	1	12
473.193	1	5
473.534	1	4
473.875	1	13
474.215	1	5
474.556	1	-3
474.897	1	2
475.238	1	14
475.578	1	1
475.919	1	0
476.260	1	5
476.601	1	-1
476.942	1	0
477.282	1	10
477.623	1	-1
477.964	1	-1
478.305	1	6
478.645	1	6
478.986	1	5
479.327	1	-3
479.667	1	6
480.008	1	2
480.349	1	7
480.690	1	6
481.030	1	3
481.371	1	5
481.712	1	5
482.053	1	5
482.393	1	2
482.734	1	0
483.075	1	6
483.415	1	-2
483.756	1	-5
484.097	1	2
484.437	1	6
484.778	1	14
485.119	1	5
485.459	1	-3
485.800	1	13
486.141	1	0
486.481	1	-5
486.822	1	10
487.163	1	1
487.503	1	-9
487.844	1	5
488.185	1	3
488.525	1	5
488.866	1	6
489.207	1	5
489.547	1	-1
489.888	1	17
490.228	1	-4
490.569	1	1
490.910	1	-8
491.250	1	1
491.591	1	5
491.932	1	13
492.272	1	0
492.613	1	-1
492.953	1	4
493.294	1	9
493.635	1	3
493.975	1	10
494.316	1	6
494.656	1	2
494.997	1	1
495.337	1	0
495.678	1	-5
496.019	1	-5
496.359	1	17
496.700	1	-4
497.040	1	4
497.381	1	5
497.721	1	1
498.062	1	7
498.403	1	6
498.743	1	10
499.084	1	6
499.424	1	2
499.765	1	3
500.105	1	6
500.446	1	2
500.786	1	-1
501.127	1	0
501.467	1	0
501.808	1	1
502.148	1	8
502.489	1	-1
502.829	1	10
503.170	1	-6
503.510	1	6
503.851	1	0
504.191	1	-4
504.532	1	14
504.872	1	9
505.213	1	3
505.553	1	8
505.894	1	11
506.234	1	-1
506.575	1	-4
506.915	1	1
507.256	1	-1
507.596	1	7
507.936	1	-2
508.277	1	6
508.617	1	1
508.958	1	18
509.298	1	5
509.639	1	5
509.979	1	1
510.319	1	18
510.660	1	2
511.000	1	9
511.341	1	-3
511.681	1	5
512.022	1	12
512.362	1	-2
512.702	1	18
513.043	1	6
513.383	1	9
513.724	1	4
514.064	1	1
514.404	1	15
514.745	1	8
515.085	1	16
515.425	1	3
515.766	1	11
516.106	1	-11
516.447	1	0
516.787	1	-3
517.127	1	6
517.468	1	7
517.808	1	0
518.148	1	4
518.489	1	9
518.829	1	16
519.169	1	7
519.510	1	2
519.850	1	16
520.190	1	17
520.531	1	7
520.871	1	-1
521.211	1	15
521.552	1	11
521.892	1	10
522.232	1	-1
522.573	1	7
522.913	1	9
523.253	1	10
523.593	1	10
523.934	1	3
524.274	1	7
524.614	1	10
524.955	1	13
525.295	1	10
525.635	1	-4
525.975	1	9
526.316	1	-4
526.656	1	13
526.996	1	3
527.337	1	17
527.677	1	3
528.017	1	2
528.357	1	5
528.698	1	1
529.038	1	-2
529.378	1	10
529.718	1	3
530.058	1	1
530.399	1	2
530.739	1	6
531.079	1	6
531.419	1	4
531.760	1	-3
532.100	1	4
532.440	1	11
532.780	1	7
533.120	1	15
533.461	1	11
533.801	1	20
534.141	1	4
534.481	1	1
534.821	1	23
535.162	1	8
535.502	1	3
535.842	1	7
536.182	1	11
536.522	1	-1
536.862	1	7
537.203	1	1
537.543	1	12
537.883	1	-1
538.223	1	4
538.563	1	0
538.903	1	11
539.243	1	11
539.584	1	4
539.924	1	4
540.264	1	-2
540.604	1	14
540.944	1	7
541.284	1	6
541.624	1	11
541.964	1	4
542.305	1	-6
542.645	1	1
542.985	1	0
543.325	1	8
543.665	1	17
544.005	1	11
544.345	1	5
544.685	1	8
545.025	1	-3
545.365	1	5
545.705	1	8
546.045	1	11
546.386	1	4
546.726	1	-2
547.066	1	8
547.406	1	-5
547.746	1	11
548.086	1	6
548.426	1	3
548.766	1	1
549.106	1	6
549.446	1	-1
549.786	1	8
550.126	1	12
550.466	1	9
550.806	1	6
551.146	1	4
551.486	1	2
551.826	1	0
552.166	1	17
552.506	1	1
552.846	1	3
553.186	1	2
553.526	1	1
553.866	1	-9
554.206	1	8
554.546	1	13
554.886	1	-5
555.226	1	13
555.566	1	8
555.906	1	6
556.246	1	5
556.586	1	12
556.926	1	-3
557.266	1	11
557.606	1	3
557.946	1	0
558.286	1	12
558.626	1	-4
558.966	1	-1
559.306	1	0
559.646	1	7
559.986	1	1
560.325	1	-5
560.665	1	11
561.005	1	5
561.345	1	15
561.685	1	3
562.025	1	1
562.365	1	11
562.705	1	8
563.045	1	4
563.385	1	1
563.725	1	1
564.064	1	17
564.404	1	7
564.744	1	8
565.084	1	-2
565.424	1	3
565.764	1	10
566.104	1	10
566.444	1	19
566.783	1	15
567.123	1	0
567.463	1	0
567.803	1	13
568.143	1	10
568.483	1	3
568.823	1	-4
569.162	1	8
569.502	1	4
569.842	1	0
570.182	1	0
570.522	1	-20
570.862	1	21
571.201	1	2
571.541	1	2
571.881	1	8
572.221	1	13
572.561	1	9
572.900	1	4
573.240	1	-2
573.580	1	0
573.920	1	6
574.260	1	5
574.599	1	14
574.939	1	1
575.279	1	-2
575.619	1	5
575.959	1	2
576.298	1	2
576.638	1	3
576.978	1	-1
577.318	1	9
577.657	1	11
577.997	1	6
578.337	1	2
578.677	1	16
579.016	1	5
579.356	1	6
579.696	1	-2
580.036	1	-3
580.375	1	-4
580.715	1	6
581.055	1	5
581.394	1	-2
581.734	1	11
582.074	1	3
582.414	1	-6
582.753	1	6
583.093	1	7
583.433	1	13
583.772	1	6
584.112	1	10
584.452	1	14
584.791	1	7
585.131	1	4
585.471	1	1
585.811	1	1
586.150	1	3
586.490	1	2
586.830	1	-11
587.169	1	15
587.509	1	2
587.849	1	4
588.188	1	11
588.528	1	6
588.867	1	2
589.207	1	-4
589.547	1	-1
589.886	1	4
590.226	1	14
590.566	1	5
590.905	1	9
591.245	1	-3
591.585	1	1
591.924	1	-1
592.264	1	2
592.603	1	3
592.943	1	3
593.283	1	-10
593.622	1	15
593.962	1	11
594.301	1	-12
594.641	1	5
594.981	1	-9
595.320	1	8
595.660	1	0
595.999	1	7
596.339	1	10
596.678	1	-9
597.018	1	1
597.358	1	-6
597.697	1	5
598.037	1	2
598.376	1	13
598.716	1	2
599.055	1	2
599.395	1	3
599.734	1	0
600.074	1	7
600.413	1	10
600.753	1	4
601.092	1	-4
601.432	1	-5
601.771	1	10
602.111	1	-5
602.451	1	13
602.790	1	-1
603.130	1	4
603.469	1	1
603.809	1	4
604.148	1	8
604.487	1	4
604.827	1	-2
605.166	1	5
605.506	1	0
605.845	1	-3
606.185	1	7
606.524	1	-1
606.864	1	17
607.203	1	1
607.543	1	0
607.882	1	3
608.222	1	-4
608.561	1	-8
608.901	1	18
609.240	1	2
609.579	1	16
609.919	1	14
610.258	1	3
610.598	1	-3
610.937	1	13
611.277	1	5
611.616	1	-5
611.955	1	-6
612.295	1	9
612.634	1	-2
612.974	1	11
613.313	1	4
613.652	1	-3
613.992	1	0
614.331	1	-2
614.671	1	9
615.010	1	-2
615.349	1	-4
615.689	1	6
616.028	1	14
616.368	1	12
616.707	1	13
617.046	1	8
617.386	1	-2
617.725	1	-1
618.064	1	5
618.404	1	-2
618.743	1	10
619.082	1	8
619.422	1	5
619.761	1	12
620.100	1	-5
620.440	1	9
620.779	1	5
621.118	1	-3
621.458	1	10
621.797	1	4
622.136	1	4
622.476	1	15
622.815	1	5
623.154	1	0
623.494	1	1
623.833	1	8
624.172	1	0
624.511	1	0
624.851	1	6
625.190	1	3
625.529	1	2
625.869	1	2
626.208	1	0
626.547	1	5
626.886	1	-1
627.226	1	3
627.565	1	-2
627.904	1	11
628.243	1	2
628.583	1	-5
628.922	1	-3
629.261	1	-9
629.600	1	7
629.940	1	11
630.279	1	12
630.618	1	-1
630.957	1	-4
631.297	1	3
631.636	1	-1
631.975	1	8
632.314	1	1
632.653	1	-2
632.993	1	7
633.332	1	4
633.671	1	0
634.010	1	-6
634.349	1	0
634.689	1	4
635.028	1	14
635.367	1	8
635.706	1	-3
636.045	1	10
636.384	1	4
636.724	1	9
637.063	1	-1
637.402	1	3
637.741	1	5
638.080	1	9
638.419	1	4
638.759	1	-3
639.098	1	-2
639.437	1	1
639.776	1	-4
640.115	1	7
640.454	1	2
640.793	1	0
641.132	1	9
641.472	1	7
641.811	1	1
642.150	1	-11
642.489	1	-6
642.828	1	-6
643.167	1	-4
643.506	1	3
643.845	1	-5
644.184	1	-7
644.524	1	2
644.863	1	0
645.202	1	7
645.541	1	-7
645.880	1	11
646.219	1	4
646.558	1	0
646.897	1	-1
647.236	1	-6
647.575	1	-13
647.914	1	-4
648.253	1	8
648.592	1	-3
648.931	1	-2
649.270	1	-7
649.610	1	8
649.949	1	6
650.288	1	4
650.627	1	7
650.966	1	4
651.305	1	9
651.644	1	8
651.983	1	-15
652.322	1	-6
652.661	1	0
653.000	1	0
653.339	1	0
653.678	1	-1
654.017	1	2
654.356	1	3
654.695	1	4
655.034	1	-1
655.373	1	1
655.712	1	8
656.051	1	-1
656.390	1	-3
656.729	1	6
657.068	1	4
657.406	1	8
657.745	1	-8
658.084	1	1
658.423	1	4
658.762	1	20
659.101	1	6
659.440	1	-5
659.779	1	2
660.118	1	-7
660.457	1	0
660.796	1	1
661.135	1	10
661.474	1	1
661.813	1	-4
662.152	1	10
662.491	1	18
662.829	1	3
663.168	1	-11
663.507	1	2
663.846	1	-5
664.185	1	0
664.524	1	-4
664.863	1	3
665.202	1	6
665.541	1	2
665.879	1	4
666.218	1	-2
666.557	1	-5
666.896	1	5
667.235	1	-3
667.574	1	15
667.913	1	9
668.251	1	3
668.590	1	6
668.929	1	11
669.268	1	-1
669.607	1	2
669.946	1	8
670.285	1	18
670.623	1	7
670.962	1	-3
671.301	1	-2
671.640	1	-4
671.979	1	5
672.317	1	-4
672.656	1	-1
672.995	1	0
673.334	1	1
673.673	1	7
674.011	1	4
674.350	1	-4
674.689	1	8
675.028	1	10
675.367	1	-1
675.705	1	10
676.044	1	1
676.383	1	12
676.722	1	3
677.060	1	5
677.399	1	4
677.738	1	-3
678.077	1	0
678.416	1	-1
678.754	1	9
679.093	1	5
679.432	1	7
679.771	1	11
680.109	1	0
680.448	1	5
680.787	1	11
681.125	1	12
681.464	1	-1
681.803	1	3
682.142	1	-4
682.480	1	15
682.819	1	3
683.158	1	1
683.496	1	0
683.835	1	-7
684.174	1	9
684.512	1	13
684.851	1	2
685.190	1	-1
685.529	1	-2
685.867	1	5
686.206	1	11
686.545	1	-2
686.883	1	-3
687.222	1	7
687.561	1	14
687.899	1	2
688.238	1	14
688.577	1	-2
688.746	1	4