File: Data/GaN_130K_350ms/GaN_sample F_spot6_UVVIS_130 K_200um_350 ms 2x2mm1_158.txt
340.368	1	5
340.710	1	11
341.052	1	0
341.394	1	3
341.737	1	4
342.079	1	-1
342.421	1	7
342.763	1	4
343.105	1	2
343.447	1	8
343.789	1	8
344.131	1	2
344.473	1	6
344.815	1	-3
345.157	1	-5
345.499	1	-2
345.841	1	-11
346.183	1	14
346.526	1	4
346.868	1	6
347.210	1	2
347.552	1	-4
347.894	1	3
348.236	1	-4
348.578	1	1
348.920	1	3
349.262	1	8
349.604	1	3
349.946	1	7
350.288	1	-13
350.630	1	4
350.972	1	11
351.314	1	-5
351.656	1	13
351.998	1	9
352.340	1	8
352.682	1	4
353.024	1	9
353.366	1	5
353.708	1	-3
354.050	1	2
354.392	1	12
354.734	1	0
355.076	1	7
355.418	1	2
355.760	1	7
356.102	1	-1
356.444	1	-6
356.785	1	10
357.127	1	4
357.469	1	3
357.811	1	9
358.153	1	8
358.495	1	15
358.837	1	8
359.179	1	4
359.521	1	7
359.863	1	10
360.205	1	4
360.547	1	1
360.889	1	4
361.231	1	1
361.572	1	16
361.914	1	14
362.256	1	11
362.598	1	15
362.940	1	7
363.282	1	9
363.624	1	18
363.966	1	24
364.308	1	39
364.649	1	36
364.991	1	9
365.333	1	9
365.675	1	21
366.017	1	22
366.359	1	39
366.701	1	26
367.042	1	36
367.384	1	31
367.726	1	31
368.068	1	27
368.410	1	31
368.752	1	45
369.093	1	36
369.435	1	27
369.777	1	30
370.119	1	34
370.461	1	38
370.803	1	20
371.144	1	26
371.486	1	33
371.828	1	27
372.170	1	19
372.512	1	30
372.853	1	16
373.195	1	16
373.537	1	15
373.879	1	13
374.220	1	15
374.562	1	15
374.904	1	19
375.246	1	15
375.588	1	11
375.929	1	16
376.271	1	13
376.613	1	10
376.955	1	11
377.296	1	15
377.638	1	5
377.980	1	4
378.321	1	2
378.663	1	11
379.005	1	24
379.347	1	8
379.688	1	5
380.030	1	8
380.372	1	13
380.714	1	24
381.055	1	16
381.397	1	10
381.739	1	21
382.080	1	10
382.422	1	17
382.764	1	7
383.105	1	8
383.447	1	10
383.789	1	17
384.130	1	25
384.472	1	6
384.814	1	8
385.156	1	9
385.497	1	14
385.839	1	10
386.180	1	12
386.522	1	7
386.864	1	20
387.205	1	0
387.547	1	8
387.889	1	-3
388.230	1	4
388.572	1	11
388.914	1	12
389.255	1	8
389.597	1	-4
389.939	1	16
390.280	1	15
390.622	1	15
390.963	1	15
391.305	1	11
391.647	1	11
391.988	1	10
392.330	1	3
392.671	1	3
393.013	1	15
393.355	1	10
393.696	1	8
394.038	1	14
394.379	1	21
394.721	1	14
395.062	1	7
395.404	1	-6
395.746	1	14
396.087	1	20
396.429	1	8
396.770	1	15
397.112	1	1
397.453	1	11
397.795	1	-4
398.136	1	20
398.478	1	17
398.819	1	-10
399.161	1	14
399.503	1	11
399.844	1	-1
400.186	1	-6
400.527	1	11
400.869	1	6
401.210	1	4
401.552	1	14
401.893	1	-11
402.235	1	-1
402.576	1	4
402.918	1	10
403.259	1	-1
403.601	1	2
403.942	1	-2
404.284	1	3
404.625	1	17
404.967	1	11
405.308	1	-5
405.649	1	2
405.991	1	17
406.332	1	12
406.674	1	11
407.015	1	1
407.357	1	9
407.698	1	7
408.040	1	6
408.381	1	13
408.722	1	11
409.064	1	15
409.405	1	6
409.747	1	5
410.088	1	15
410.430	1	15
410.771	1	-7
411.112	1	8
411.454	1	7
411.795	1	18
412.137	1	-4
412.478	1	-4
412.819	1	8
413.161	1	16
413.502	1	29
413.844	1	7
414.185	1	3
414.526	1	11
414.868	1	12
415.209	1	9
415.550	1	5
415.892	1	10
416.233	1	12
416.575	1	0
416.916	1	13
417.257	1	13
417.599	1	9
417.940	1	13
418.281	1	3
418.623	1	13
418.964	1	4
419.305	1	3
419.647	1	17
419.988	1	9
420.329	1	15
420.671	1	2
421.012	1	12
421.353	1	5
421.695	1	9
422.036	1	11
422.377	1	12
422.718	1	13
423.060	1	8
423.401	1	4
423.742	1	1
424.084	1	17
424.425	1	13
424.766	1	4
425.107	1	8
425.449	1	9
425.790	1	17
426.131	1	11
426.472	1	8
426.814	1	10
427.155	1	11
427.496	1	13
427.837	1	8
428.179	1	10
428.520	1	9
428.861	1	7
429.202	1	10
429.544	1	18
429.885	1	6
430.226	1	2
430.567	1	9
430.909	1	17
431.250	1	8
431.591	1	4
431.932	1	5
432.273	1	18
432.615	1	14
432.956	1	-9
433.297	1	18
433.638	1	14
433.979	1	3
434.320	1	9
434.662	1	5
435.003	1	14
435.344	1	13
435.685	1	-1
436.026	1	11
436.368	1	-1
436.709	1	-5
437.050	1	15
437.391	1	10
437.732	1	8
438.073	1	7
438.414	1	-4
438.756	1	7
439.097	1	15
439.438	1	8
439.779	1	13
440.120	1	11
440.461	1	14
440.802	1	4
441.143	1	-1
441.485	1	10
441.826	1	6
442.167	1	10
442.508	1	7
442.849	1	7
443.190	1	8
443.531	1	6
443.872	1	8
444.213	1	5
444.554	1	6
444.895	1	14
445.237	1	-4
445.578	1	3
445.919	1	5
446.260	1	7
446.601	1	15
446.942	1	15
447.283	1	17
447.624	1	-1
447.965	1	6
448.306	1	8
448.647	1	16
448.988	1	2
449.329	1	8
449.670	1	2
450.011	1	-8
450.352	1	-1
450.693	1	1
451.034	1	-3
451.375	1	5
451.716	1	-7
452.057	1	19
452.398	1	-13
452.739	1	8
453.080	1	0
453.421	1	13
453.762	1	7
454.103	1	6
454.444	1	18
454.785	1	19
455.126	1	1
455.467	1	5
455.808	1	10
456.149	1	0
456.490	1	7
456.831	1	4
457.172	1	6
457.513	1	1
457.854	1	6
458.195	1	-1
458.536	1	5
458.877	1	22
459.218	1	9
459.559	1	-2
459.899	1	2
460.240	1	9
460.581	1	-6
460.922	1	7
461.263	1	6
461.604	1	-9
461.945	1	10
462.286	1	3
462.627	1	0
462.968	1	5
463.309	1	7
463.649	1	0
463.990	1	7
464.331	1	4
464.672	1	12
465.013	1	0
465.354	1	6
465.695	1	15
466.036	1	7
466.376	1	6
466.717	1	12
467.058	1	9
467.399	1	4
467.740	1	14
468.081	1	15
468.422	1	9
468.762	1	-5
469.103	1	6
469.444	1	3
469.785	1	9
470.126	1	-4
470.467	1	3
470.807	1	6
471.148	1	-1
471.489	1	-4
471.830	1	6
472.171	1	9
472.511	1	2
472.852	1	3
473.193	1	6
473.534	1	2
473.875	1	18
474.215	1	-1
474.556	1	9
474.897	1	-7
475.238	1	16
475.578	1	2
475.919	1	2
476.260	1	4
476.601	1	2
476.942	1	11
477.282	1	9
477.623	1	-2
477.964	1	-4
478.305	1	7
478.645	1	5
478.986	1	5
479.327	1	-4
479.667	1	4
480.008	1	0
480.349	1	2
480.690	1	0
481.030	1	3
481.371	1	9
481.712	1	3
482.053	1	5
482.393	1	16
482.734	1	6
483.075	1	13
483.415	1	-4
483.756	1	-8
484.097	1	0
484.437	1	-1
484.778	1	14
485.119	1	11
485.459	1	-2
485.800	1	7
486.141	1	2
486.481	1	3
486.822	1	13
487.163	1	0
487.503	1	-3
487.844	1	-1
488.185	1	-2
488.525	1	10
488.866	1	11
489.207	1	-1
489.547	1	9
489.888	1	5
490.228	1	7
490.569	1	7
490.910	1	-3
491.250	1	13
491.591	1	5
491.932	1	4
492.272	1	2
492.613	1	1
492.953	1	5
493.294	1	12
493.635	1	3
493.975	1	18
494.316	1	0
494.656	1	3
494.997	1	-5
495.337	1	8
495.678	1	-1
496.019	1	4
496.359	1	9
496.700	1	1
497.040	1	11
497.381	1	3
497.721	1	-2
498.062	1	0
498.403	1	5
498.743	1	13
499.084	1	11
499.424	1	-5
499.765	1	4
500.105	1	13
500.446	1	6
500.786	1	11
501.127	1	6
501.467	1	10
501.808	1	7
502.148	1	6
502.489	1	7
502.829	1	5
503.170	1	5
503.510	1	13
503.851	1	5
504.191	1	7
504.532	1	13
504.872	1	2
505.213	1	8
505.553	1	6
505.894	1	8
506.234	1	-2
506.575	1	8
506.915	1	-2
507.256	1	15
507.596	1	0
507.936	1	-1
508.277	1	-3
508.617	1	1
508.958	1	8
509.298	1	-5
509.639	1	20
509.979	1	6
510.319	1	16
510.660	1	1
511.000	1	9
511.341	1	3
511.681	1	14
512.022	1	27
512.362	1	0
512.702	1	22
513.043	1	8
513.383	1	20
513.724	1	-1
514.064	1	5
514.404	1	18
514.745	1	8
515.085	1	11
515.425	1	8
515.766	1	13
516.106	1	-2
516.447	1	12
516.787	1	13
517.127	1	17
517.468	1	7
517.808	1	10
518.148	1	21
518.489	1	15
518.829	1	13
519.169	1	6
519.510	1	7
519.850	1	14
520.190	1	16
520.531	1	19
520.871	1	8
521.211	1	17
521.552	1	15
521.892	1	19
522.232	1	9
522.573	1	10
522.913	1	14
523.253	1	12
523.593	1	22
523.934	1	5
524.274	1	-3
524.614	1	12
524.955	1	13
525.295	1	18
525.635	1	7
525.975	1	14
526.316	1	7
526.656	1	8
526.996	1	8
527.337	1	17
527.677	1	10
528.017	1	14
528.357	1	12
528.698	1	5
529.038	1	4
529.378	1	11
529.718	1	9
530.058	1	8
530.399	1	14
530.739	1	14
531.079	1	14
531.419	1	16
531.760	1	9
532.100	1	18
532.440	1	16
532.780	1	2
533.120	1	7
533.461	1	13
533.801	1	23
534.141	1	12
534.481	1	8
534.821	1	18
535.162	1	8
535.502	1	15
535.842	1	13
536.182	1	15
536.522	1	2
536.862	1	16
537.203	1	3
537.543	1	18
537.883	1	3
538.223	1	27
538.563	1	19
538.903	1	22
539.243	1	3
539.584	1	11
539.924	1	1
540.264	1	5
540.604	1	5
540.944	1	15
541.284	1	15
541.624	1	21
541.964	1	3
542.305	1	6
542.645	1	9
542.985	1	5
543.325	1	5
543.665	1	11
544.005	1	14
544.345	1	8
544.685	1	23
545.025	1	8
545.365	1	17
545.705	1	2
546.045	1	10
546.386	1	9
546.726	1	4
547.066	1	16
547.406	1	2
547.746	1	10
548.086	1	7
548.426	1	5
548.766	1	12
549.106	1	6
549.446	1	8
549.786	1	10
550.126	1	21
550.466	1	17
550.806	1	19
551.146	1	3
551.486	1	8
551.826	1	8
552.166	1	14
552.506	1	9
552.846	1	1
553.186	1	8
553.526	1	7
553.866	1	6
554.206	1	5
554.546	1	5
554.886	1	6
555.226	1	16
555.566	1	10
555.906	1	0
556.246	1	5
556.586	1	1
556.926	1	4
557.266	1	8
557.606	1	0
557.946	1	13
558.286	1	10
558.626	1	8
558.966	1	9
559.306	1	2
559.646	1	12
559.986	1	11
560.325	1	-4
560.665	1	13
561.005	1	9
561.345	1	12
561.685	1	8
562.025	1	11
562.365	1	6
562.705	1	12
563.045	1	3
563.385	1	10
563.725	1	2
564.064	1	10
564.404	1	12
564.744	1	9
565.084	1	10
565.424	1	1
565.764	1	9
566.104	1	0
566.444	1	20
566.783	1	10
567.123	1	8
567.463	1	7
567.803	1	13
568.143	1	11
568.483	1	6
568.823	1	1
569.162	1	10
569.502	1	6
569.842	1	4
570.182	1	10
570.522	1	-12
570.862	1	18
571.201	1	7
571.541	1	3
571.881	1	6
572.221	1	15
572.561	1	15
572.900	1	10
573.240	1	2
573.580	1	10
573.920	1	17
574.260	1	4
574.599	1	13
574.939	1	9
575.279	1	-5
575.619	1	9
575.959	1	4
576.298	1	16
576.638	1	-4
576.978	1	-2
577.318	1	5
577.657	1	18
577.997	1	19
578.337	1	4
578.677	1	8
579.016	1	3
579.356	1	13
579.696	1	5
580.036	1	6
580.375	1	2
580.715	1	8
581.055	1	8
581.394	1	12
581.734	1	17
582.074	1	4
582.414	1	-3
582.753	1	6
583.093	1	4
583.433	1	14
583.772	1	12
584.112	1	7
584.452	1	12
584.791	1	5
585.131	1	16
585.471	1	8
585.811	1	-1
586.150	1	12
586.490	1	5
586.830	1	3
587.169	1	14
587.509	1	14
587.849	1	12
588.188	1	15
588.528	1	9
588.867	1	7
589.207	1	4
589.547	1	4
589.886	1	5
590.226	1	14
590.566	1	5
590.905	1	12
591.245	1	7
591.585	1	11
591.924	1	4
592.264	1	0
592.603	1	-2
592.943	1	-2
593.283	1	2
593.622	1	1
593.962	1	13
594.301	1	-6
594.641	1	6
594.981	1	-6
595.320	1	8
595.660	1	12
595.999	1	7
596.339	1	10
596.678	1	-2
597.018	1	6
597.358	1	-6
597.697	1	2
598.037	1	-2
598.376	1	5
598.716	1	13
599.055	1	9
599.395	1	-4
599.734	1	-4
600.074	1	8
600.413	1	14
600.753	1	2
601.092	1	5
601.432	1	-7
601.771	1	11
602.111	1	1
602.451	1	13
602.790	1	-6
603.130	1	8
603.469	1	3
603.809	1	-1
604.148	1	18
604.487	1	7
604.827	1	11
605.166	1	10
605.506	1	3
605.845	1	-5
606.185	1	3
606.524	1	4
606.864	1	16
607.203	1	2
607.543	1	4
607.882	1	16
608.222	1	-6
608.561	1	6
608.901	1	6
609.240	1	-7
609.579	1	13
609.919	1	8
610.258	1	2
610.598	1	1
610.937	1	5
611.277	1	1
611.616	1	0
611.955	1	-5
612.295	1	10
612.634	1	-5
612.974	1	8
613.313	1	0
613.652	1	-3
613.992	1	3
614.331	1	6
614.671	1	13
615.010	1	3
615.349	1	9
615.689	1	14
616.028	1	16
616.368	1	2
616.707	1	19
617.046	1	6
617.386	1	8
617.725	1	11
618.064	1	3
618.404	1	-4
618.743	1	20
619.082	1	1
619.422	1	5
619.761	1	10
620.100	1	1
620.440	1	5
620.779	1	-2
621.118	1	9
621.458	1	14
621.797	1	7
622.136	1	9
622.476	1	15
622.815	1	6
623.154	1	2
623.494	1	9
623.833	1	8
624.172	1	6
624.511	1	6
624.851	1	6
625.190	1	-3
625.529	1	0
625.869	1	2
626.208	1	2
626.547	1	1
626.886	1	4
627.226	1	0
627.565	1	-2
627.904	1	0
628.243	1	5
628.583	1	-15
628.922	1	-6
629.261	1	-8
629.600	1	2
629.940	1	4
630.279	1	10
630.618	1	1
630.957	1	1
631.297	1	3
631.636	1	12
631.975	1	8
632.314	1	5
632.653	1	2
632.993	1	5
633.332	1	7
633.671	1	-5
634.010	1	-7
634.349	1	3
634.689	1	6
635.028	1	10
635.367	1	-2
635.706	1	-1
636.045	1	10
636.384	1	6
636.724	1	9
637.063	1	9
637.402	1	-1
637.741	1	4
638.080	1	15
638.419	1	3
638.759	1	2
639.098	1	-3
639.437	1	19
639.776	1	0
640.115	1	3
640.454	1	3
640.793	1	-10
641.132	1	17
641.472	1	5
641.811	1	2
642.150	1	-3
642.489	1	2
642.828	1	-10
643.167	1	-1
643.506	1	9
643.845	1	-3
644.184	1	-6
644.524	1	-1
644.863	1	-8
645.202	1	6
645.541	1	-1
645.880	1	2
646.219	1	-5
646.558	1	0
646.897	1	2
647.236	1	2
647.575	1	-4
647.914	1	-7
648.253	1	4
648.592	1	-1
648.931	1	-9
649.270	1	7
649.610	1	2
649.949	1	6
650.288	1	15
650.627	1	6
650.966	1	0
651.305	1	4
651.644	1	5
651.983	1	-11
652.322	1	10
652.661	1	6
653.000	1	-1
653.339	1	8
653.678	1	1
654.017	1	-5
654.356	1	9
654.695	1	8
655.034	1	-4
655.373	1	10
655.712	1	4
656.051	1	7
656.390	1	-4
656.729	1	0
657.068	1	4
657.406	1	5
657.745	1	-1
658.084	1	4
658.423	1	4
658.762	1	18
659.101	1	8
659.440	1	4
659.779	1	0
660.118	1	-6
660.457	1	-6
660.796	1	3
661.135	1	9
661.474	1	14
661.813	1	-1
662.152	1	3
662.491	1	11
662.829	1	13
663.168	1	1
663.507	1	6
663.846	1	5
664.185	1	-7
664.524	1	-4
664.863	1	-1
665.202	1	13
665.541	1	-1
665.879	1	6
666.218	1	10
666.557	1	6
666.896	1	8
667.235	1	5
667.574	1	10
667.913	1	9
668.251	1	-1
668.590	1	3
668.929	1	11
669.268	1	1
669.607	1	-2
669.946	1	12
670.285	1	5
670.623	1	9
670.962	1	-2
671.301	1	3
671.640	1	-11
671.979	1	1
672.317	1	2
672.656	1	3
672.995	1	4
673.334	1	-11
673.673	1	7
674.011	1	5
674.350	1	3
674.689	1	4
675.028	1	6
675.367	1	-5
675.705	1	12
676.044	1	7
676.383	1	3
676.722	1	2
677.060	1	7
677.399	1	7
677.738	1	0
678.077	1	4
678.416	1	8
678.754	1	-3
679.093	1	8
679.432	1	6
679.771	1	0
680.109	1	-11
680.448	1	7
680.787	1	6
681.125	1	8
681.464	1	-5
681.803	1	-5
682.142	1	0
682.480	1	15
682.819	1	14
683.158	1	0
683.496	1	-2
683.835	1	-5
684.174	1	1
684.512	1	17
684.851	1	-8
685.190	1	7
685.529	1	-10
685.867	1	7
686.206	1	11
686.545	1	4
686.883	1	10
687.222	1	-2
687.561	1	13
687.899	1	0
688.238	1	6
688.577	1	-1
688.746	1	5