File: Data/GaN_130K_350ms/GaN_sample F_spot6_UVVIS_130 K_200um_350 ms 2x2mm1_213.txt
340.368	1	2
340.710	1	9
341.052	1	-11
341.394	1	-2
341.737	1	2
342.079	1	2
342.421	1	8
342.763	1	14
343.105	1	-4
343.447	1	2
343.789	1	8
344.131	1	5
344.473	1	0
344.815	1	-15
345.157	1	-9
345.499	1	1
345.841	1	4
346.183	1	12
346.526	1	1
346.868	1	6
347.210	1	-1
347.552	1	-1
347.894	1	4
348.236	1	9
348.578	1	-3
348.920	1	1
349.262	1	10
349.604	1	7
349.946	1	5
350.288	1	-11
350.630	1	14
350.972	1	3
351.314	1	2
351.656	1	8
351.998	1	-8
352.340	1	15
352.682	1	8
353.024	1	4
353.366	1	2
353.708	1	1
354.050	1	0
354.392	1	10
354.734	1	2
355.076	1	-4
355.418	1	1
355.760	1	0
356.102	1	2
356.444	1	6
356.785	1	8
357.127	1	6
357.469	1	-1
357.811	1	2
358.153	1	-5
358.495	1	12
358.837	1	4
359.179	1	5
359.521	1	0
359.863	1	5
360.205	1	1
360.547	1	4
360.889	1	-5
361.231	1	5
361.572	1	17
361.914	1	12
362.256	1	9
362.598	1	6
362.940	1	-1
363.282	1	11
363.624	1	7
363.966	1	15
364.308	1	15
364.649	1	16
364.991	1	12
365.333	1	11
365.675	1	15
366.017	1	17
366.359	1	19
366.701	1	16
367.042	1	22
367.384	1	24
367.726	1	27
368.068	1	19
368.410	1	9
368.752	1	29
369.093	1	21
369.435	1	16
369.777	1	21
370.119	1	23
370.461	1	23
370.803	1	18
371.144	1	13
371.486	1	21
371.828	1	8
372.170	1	4
372.512	1	18
372.853	1	7
373.195	1	18
373.537	1	14
373.879	1	11
374.220	1	11
374.562	1	11
374.904	1	2
375.246	1	21
375.588	1	13
375.929	1	7
376.271	1	11
376.613	1	4
376.955	1	15
377.296	1	7
377.638	1	1
377.980	1	8
378.321	1	3
378.663	1	8
379.005	1	12
379.347	1	-4
379.688	1	4
380.030	1	0
380.372	1	15
380.714	1	19
381.055	1	11
381.397	1	-2
381.739	1	6
382.080	1	4
382.422	1	15
382.764	1	12
383.105	1	7
383.447	1	6
383.789	1	12
384.130	1	8
384.472	1	7
384.814	1	2
385.156	1	5
385.497	1	5
385.839	1	12
386.180	1	9
386.522	1	7
386.864	1	9
387.205	1	1
387.547	1	8
387.889	1	-1
388.230	1	0
388.572	1	13
388.914	1	6
389.255	1	10
389.597	1	-10
389.939	1	6
390.280	1	13
390.622	1	-1
390.963	1	8
391.305	1	9
391.647	1	8
391.988	1	19
392.330	1	7
392.671	1	2
393.013	1	11
393.355	1	8
393.696	1	-1
394.038	1	13
394.379	1	12
394.721	1	1
395.062	1	-1
395.404	1	-6
395.746	1	9
396.087	1	15
396.429	1	7
396.770	1	11
397.112	1	12
397.453	1	11
397.795	1	5
398.136	1	14
398.478	1	9
398.819	1	1
399.161	1	13
399.503	1	7
399.844	1	3
400.186	1	2
400.527	1	14
400.869	1	6
401.210	1	0
401.552	1	1
401.893	1	-9
402.235	1	12
402.576	1	8
402.918	1	11
403.259	1	-1
403.601	1	1
403.942	1	4
404.284	1	3
404.625	1	18
404.967	1	-4
405.308	1	1
405.649	1	13
405.991	1	4
406.332	1	9
406.674	1	8
407.015	1	3
407.357	1	6
407.698	1	3
408.040	1	3
408.381	1	20
408.722	1	13
409.064	1	7
409.405	1	21
409.747	1	-1
410.088	1	11
410.430	1	14
410.771	1	-4
411.112	1	11
411.454	1	8
411.795	1	14
412.137	1	0
412.478	1	2
412.819	1	11
413.161	1	7
413.502	1	23
413.844	1	7
414.185	1	11
414.526	1	7
414.868	1	3
415.209	1	8
415.550	1	10
415.892	1	13
416.233	1	5
416.575	1	10
416.916	1	-1
417.257	1	7
417.599	1	7
417.940	1	12
418.281	1	-6
418.623	1	8
418.964	1	4
419.305	1	12
419.647	1	8
419.988	1	11
420.329	1	5
420.671	1	1
421.012	1	5
421.353	1	-1
421.695	1	6
422.036	1	11
422.377	1	4
422.718	1	9
423.060	1	7
423.401	1	11
423.742	1	13
424.084	1	7
424.425	1	16
424.766	1	10
425.107	1	-6
425.449	1	11
425.790	1	13
426.131	1	15
426.472	1	5
426.814	1	11
427.155	1	3
427.496	1	5
427.837	1	14
428.179	1	7
428.520	1	11
428.861	1	3
429.202	1	5
429.544	1	12
429.885	1	5
430.226	1	1
430.567	1	11
430.909	1	16
431.250	1	8
431.591	1	12
431.932	1	-1
432.273	1	13
432.615	1	15
432.956	1	2
433.297	1	6
433.638	1	3
433.979	1	10
434.320	1	6
434.662	1	2
435.003	1	15
435.344	1	7
435.685	1	-8
436.026	1	14
436.368	1	5
436.709	1	-2
437.050	1	9
437.391	1	9
437.732	1	9
438.073	1	20
438.414	1	0
438.756	1	5
439.097	1	12
439.438	1	8
439.779	1	10
440.120	1	7
440.461	1	15
440.802	1	-1
441.143	1	-1
441.485	1	12
441.826	1	4
442.167	1	2
442.508	1	1
442.849	1	10
443.190	1	-2
443.531	1	-3
443.872	1	11
444.213	1	4
444.554	1	12
444.895	1	-1
445.237	1	2
445.578	1	2
445.919	1	-5
446.260	1	1
446.601	1	4
446.942	1	3
447.283	1	7
447.624	1	4
447.965	1	-2
448.306	1	2
448.647	1	9
448.988	1	6
449.329	1	-2
449.670	1	2
450.011	1	2
450.352	1	14
450.693	1	1
451.034	1	4
451.375	1	11
451.716	1	9
452.057	1	11
452.398	1	-6
452.739	1	8
453.080	1	4
453.421	1	4
453.762	1	-1
454.103	1	-3
454.444	1	-3
454.785	1	10
455.126	1	-8
455.467	1	11
455.808	1	2
456.149	1	-3
456.490	1	8
456.831	1	4
457.172	1	1
457.513	1	-6
457.854	1	3
458.195	1	-6
458.536	1	6
458.877	1	21
459.218	1	7
459.559	1	3
459.899	1	-1
460.240	1	8
460.581	1	-7
460.922	1	0
461.263	1	6
461.604	1	-5
461.945	1	6
462.286	1	6
462.627	1	8
462.968	1	5
463.309	1	5
463.649	1	4
463.990	1	-4
464.331	1	10
464.672	1	2
465.013	1	-6
465.354	1	3
465.695	1	1
466.036	1	1
466.376	1	14
466.717	1	5
467.058	1	1
467.399	1	-2
467.740	1	15
468.081	1	15
468.422	1	13
468.762	1	1
469.103	1	12
469.444	1	8
469.785	1	5
470.126	1	-13
470.467	1	-2
470.807	1	9
471.148	1	-4
471.489	1	-1
471.830	1	-1
472.171	1	-9
472.511	1	4
472.852	1	6
473.193	1	4
473.534	1	4
473.875	1	10
474.215	1	3
474.556	1	2
474.897	1	-1
475.238	1	10
475.578	1	7
475.919	1	-4
476.260	1	2
476.601	1	-1
476.942	1	13
477.282	1	6
477.623	1	-2
477.964	1	-4
478.305	1	10
478.645	1	2
478.986	1	2
479.327	1	-2
479.667	1	5
480.008	1	-2
480.349	1	3
480.690	1	2
481.030	1	2
481.371	1	4
481.712	1	7
482.053	1	10
482.393	1	7
482.734	1	2
483.075	1	20
483.415	1	3
483.756	1	1
484.097	1	5
484.437	1	0
484.778	1	8
485.119	1	11
485.459	1	-16
485.800	1	10
486.141	1	-2
486.481	1	3
486.822	1	14
487.163	1	3
487.503	1	-10
487.844	1	0
488.185	1	4
488.525	1	2
488.866	1	12
489.207	1	4
489.547	1	7
489.888	1	13
490.228	1	1
490.569	1	9
490.910	1	-2
491.250	1	6
491.591	1	0
491.932	1	3
492.272	1	-8
492.613	1	6
492.953	1	5
493.294	1	19
493.635	1	3
493.975	1	5
494.316	1	-4
494.656	1	1
494.997	1	-6
495.337	1	6
495.678	1	1
496.019	1	2
496.359	1	12
496.700	1	10
497.040	1	13
497.381	1	5
497.721	1	2
498.062	1	-4
498.403	1	-4
498.743	1	2
499.084	1	10
499.424	1	0
499.765	1	-5
500.105	1	8
500.446	1	0
500.786	1	5
501.127	1	3
501.467	1	4
501.808	1	10
502.148	1	8
502.489	1	7
502.829	1	-1
503.170	1	-7
503.510	1	0
503.851	1	-4
504.191	1	-2
504.532	1	5
504.872	1	4
505.213	1	12
505.553	1	5
505.894	1	5
506.234	1	4
506.575	1	6
506.915	1	7
507.256	1	19
507.596	1	3
507.936	1	2
508.277	1	3
508.617	1	2
508.958	1	7
509.298	1	-5
509.639	1	6
509.979	1	1
510.319	1	16
510.660	1	-13
511.000	1	5
511.341	1	4
511.681	1	2
512.022	1	7
512.362	1	0
512.702	1	12
513.043	1	8
513.383	1	14
513.724	1	2
514.064	1	0
514.404	1	17
514.745	1	-9
515.085	1	6
515.425	1	-1
515.766	1	12
516.106	1	-2
516.447	1	5
516.787	1	2
517.127	1	8
517.468	1	7
517.808	1	6
518.148	1	11
518.489	1	6
518.829	1	14
519.169	1	11
519.510	1	1
519.850	1	13
520.190	1	16
520.531	1	13
520.871	1	8
521.211	1	14
521.552	1	4
521.892	1	11
522.232	1	-3
522.573	1	6
522.913	1	10
523.253	1	11
523.593	1	7
523.934	1	1
524.274	1	0
524.614	1	9
524.955	1	14
525.295	1	13
525.635	1	0
525.975	1	10
526.316	1	-2
526.656	1	8
526.996	1	4
527.337	1	6
527.677	1	9
528.017	1	1
528.357	1	2
528.698	1	6
529.038	1	-4
529.378	1	16
529.718	1	13
530.058	1	8
530.399	1	-3
530.739	1	12
531.079	1	12
531.419	1	12
531.760	1	3
532.100	1	10
532.440	1	10
532.780	1	3
533.120	1	14
533.461	1	8
533.801	1	15
534.141	1	11
534.481	1	8
534.821	1	19
535.162	1	6
535.502	1	5
535.842	1	13
536.182	1	12
536.522	1	8
536.862	1	8
537.203	1	-3
537.543	1	13
537.883	1	5
538.223	1	11
538.563	1	9
538.903	1	9
539.243	1	8
539.584	1	2
539.924	1	2
540.264	1	0
540.604	1	11
540.944	1	2
541.284	1	11
541.624	1	9
541.964	1	4
542.305	1	7
542.645	1	2
542.985	1	10
543.325	1	5
543.665	1	11
544.005	1	12
544.345	1	3
544.685	1	13
545.025	1	1
545.365	1	20
545.705	1	3
546.045	1	10
546.386	1	4
546.726	1	6
547.066	1	10
547.406	1	-5
547.746	1	7
548.086	1	-4
548.426	1	5
548.766	1	10
549.106	1	-5
549.446	1	1
549.786	1	6
550.126	1	9
550.466	1	15
550.806	1	9
551.146	1	7
551.486	1	3
551.826	1	13
552.166	1	10
552.506	1	8
552.846	1	-3
553.186	1	4
553.526	1	6
553.866	1	1
554.206	1	6
554.546	1	9
554.886	1	-1
555.226	1	8
555.566	1	4
555.906	1	4
556.246	1	5
556.586	1	9
556.926	1	0
557.266	1	5
557.606	1	5
557.946	1	8
558.286	1	8
558.626	1	-9
558.966	1	13
559.306	1	6
559.646	1	1
559.986	1	6
560.325	1	-8
560.665	1	3
561.005	1	7
561.345	1	10
561.685	1	3
562.025	1	1
562.365	1	4
562.705	1	7
563.045	1	4
563.385	1	10
563.725	1	5
564.064	1	18
564.404	1	10
564.744	1	12
565.084	1	8
565.424	1	2
565.764	1	2
566.104	1	3
566.444	1	15
566.783	1	8
567.123	1	9
567.463	1	8
567.803	1	18
568.143	1	9
568.483	1	7
568.823	1	-1
569.162	1	15
569.502	1	-6
569.842	1	3
570.182	1	11
570.522	1	-11
570.862	1	12
571.201	1	5
571.541	1	-2
571.881	1	9
572.221	1	10
572.561	1	16
572.900	1	10
573.240	1	-5
573.580	1	0
573.920	1	17
574.260	1	3
574.599	1	14
574.939	1	9
575.279	1	1
575.619	1	3
575.959	1	7
576.298	1	-4
576.638	1	-6
576.978	1	-9
577.318	1	-4
577.657	1	4
577.997	1	11
578.337	1	8
578.677	1	8
579.016	1	11
579.356	1	7
579.696	1	-1
580.036	1	1
580.375	1	-2
580.715	1	0
581.055	1	8
581.394	1	-1
581.734	1	17
582.074	1	2
582.414	1	3
582.753	1	4
583.093	1	4
583.433	1	-2
583.772	1	-1
584.112	1	8
584.452	1	16
584.791	1	5
585.131	1	3
585.471	1	-4
585.811	1	2
586.150	1	1
586.490	1	9
586.830	1	-5
587.169	1	6
587.509	1	2
587.849	1	-6
588.188	1	15
588.528	1	7
588.867	1	2
589.207	1	2
589.547	1	-3
589.886	1	-1
590.226	1	11
590.566	1	-1
590.905	1	5
591.245	1	-8
591.585	1	6
591.924	1	-2
592.264	1	4
592.603	1	-2
592.943	1	4
593.283	1	-6
593.622	1	2
593.962	1	9
594.301	1	-5
594.641	1	-1
594.981	1	5
595.320	1	9
595.660	1	-5
595.999	1	14
596.339	1	16
596.678	1	0
597.018	1	1
597.358	1	-1
597.697	1	1
598.037	1	9
598.376	1	1
598.716	1	17
599.055	1	-4
599.395	1	1
599.734	1	0
600.074	1	6
600.413	1	6
600.753	1	1
601.092	1	1
601.432	1	-4
601.771	1	10
602.111	1	9
602.451	1	3
602.790	1	3
603.130	1	9
603.469	1	6
603.809	1	-2
604.148	1	7
604.487	1	10
604.827	1	10
605.166	1	8
605.506	1	6
605.845	1	-5
606.185	1	8
606.524	1	7
606.864	1	13
607.203	1	5
607.543	1	1
607.882	1	6
608.222	1	-7
608.561	1	0
608.901	1	14
609.240	1	-9
609.579	1	18
609.919	1	7
610.258	1	1
610.598	1	-2
610.937	1	9
611.277	1	7
611.616	1	-2
611.955	1	0
612.295	1	12
612.634	1	-9
612.974	1	3
613.313	1	-4
613.652	1	-9
613.992	1	4
614.331	1	10
614.671	1	1
615.010	1	2
615.349	1	6
615.689	1	-1
616.028	1	10
616.368	1	3
616.707	1	13
617.046	1	8
617.386	1	0
617.725	1	5
618.064	1	8
618.404	1	-2
618.743	1	15
619.082	1	0
619.422	1	-1
619.761	1	3
620.100	1	5
620.440	1	1
620.779	1	2
621.118	1	7
621.458	1	6
621.797	1	5
622.136	1	4
622.476	1	13
622.815	1	3
623.154	1	-2
623.494	1	10
623.833	1	12
624.172	1	-3
624.511	1	8
624.851	1	0
625.190	1	-1
625.529	1	3
625.869	1	5
626.208	1	-8
626.547	1	4
626.886	1	5
627.226	1	-1
627.565	1	4
627.904	1	8
628.243	1	5
628.583	1	-6
628.922	1	-3
629.261	1	-3
629.600	1	13
629.940	1	7
630.279	1	2
630.618	1	-2
630.957	1	-1
631.297	1	9
631.636	1	11
631.975	1	4
632.314	1	-3
632.653	1	3
632.993	1	1
633.332	1	1
633.671	1	-7
634.010	1	-9
634.349	1	-1
634.689	1	1
635.028	1	6
635.367	1	9
635.706	1	4
636.045	1	20
636.384	1	9
636.724	1	-1
637.063	1	5
637.402	1	0
637.741	1	7
638.080	1	6
638.419	1	2
638.759	1	1
639.098	1	-1
639.437	1	2
639.776	1	2
640.115	1	8
640.454	1	10
640.793	1	-8
641.132	1	10
641.472	1	-3
641.811	1	-5
642.150	1	-8
642.489	1	-3
642.828	1	-2
643.167	1	6
643.506	1	6
643.845	1	-6
644.184	1	-5
644.524	1	2
644.863	1	1
645.202	1	10
645.541	1	-3
645.880	1	7
646.219	1	9
646.558	1	3
646.897	1	-8
647.236	1	4
647.575	1	-3
647.914	1	-2
648.253	1	3
648.592	1	0
648.931	1	3
649.270	1	-4
649.610	1	1
649.949	1	6
650.288	1	8
650.627	1	5
650.966	1	3
651.305	1	-1
651.644	1	3
651.983	1	-3
652.322	1	7
652.661	1	-1
653.000	1	0
653.339	1	3
653.678	1	-3
654.017	1	-4
654.356	1	1
654.695	1	-1
655.034	1	2
655.373	1	6
655.712	1	3
656.051	1	5
656.390	1	0
656.729	1	-1
657.068	1	-3
657.406	1	-9
657.745	1	-3
658.084	1	-1
658.423	1	0
658.762	1	14
659.101	1	8
659.440	1	0
659.779	1	12
660.118	1	1
660.457	1	-1
660.796	1	4
661.135	1	5
661.474	1	2
661.813	1	-5
662.152	1	-3
662.491	1	17
662.829	1	15
663.168	1	-9
663.507	1	1
663.846	1	0
664.185	1	-3
664.524	1	-9
664.863	1	1
665.202	1	-6
665.541	1	-3
665.879	1	-2
666.218	1	2
666.557	1	4
666.896	1	13
667.235	1	-2
667.574	1	2
667.913	1	7
668.251	1	7
668.590	1	6
668.929	1	6
669.268	1	1
669.607	1	5
669.946	1	10
670.285	1	2
670.623	1	17
670.962	1	-12
671.301	1	-2
671.640	1	-8
671.979	1	7
672.317	1	0
672.656	1	5
672.995	1	9
673.334	1	-9
673.673	1	6
674.011	1	4
674.350	1	4
674.689	1	4
675.028	1	11
675.367	1	-2
675.705	1	15
676.044	1	5
676.383	1	6
676.722	1	0
677.060	1	3
677.399	1	12
677.738	1	-5
678.077	1	5
678.416	1	1
678.754	1	9
679.093	1	3
679.432	1	7
679.771	1	5
680.109	1	6
680.448	1	5
680.787	1	1
681.125	1	14
681.464	1	0
681.803	1	-4
682.142	1	2
682.480	1	10
682.819	1	-2
683.158	1	-2
683.496	1	1
683.835	1	-4
684.174	1	-6
684.512	1	9
684.851	1	-1
685.190	1	2
685.529	1	-2
685.867	1	1
686.206	1	17
686.545	1	-4
686.883	1	-3
687.222	1	1
687.561	1	7
687.899	1	8
688.238	1	-1
688.577	1	-1
688.746	1	3