File: Data/GaN_130K_350ms/GaN_sample F_spot6_UVVIS_130 K_200um_350 ms 2x2mm1_190.txt
340.368	1	7
340.710	1	5
341.052	1	-5
341.394	1	8
341.737	1	-1
342.079	1	3
342.421	1	7
342.763	1	1
343.105	1	6
343.447	1	4
343.789	1	-1
344.131	1	4
344.473	1	9
344.815	1	-2
345.157	1	-16
345.499	1	-5
345.841	1	-3
346.183	1	5
346.526	1	4
346.868	1	10
347.210	1	-5
347.552	1	-8
347.894	1	-1
348.236	1	0
348.578	1	1
348.920	1	5
349.262	1	5
349.604	1	11
349.946	1	9
350.288	1	0
350.630	1	12
350.972	1	5
351.314	1	-1
351.656	1	5
351.998	1	-3
352.340	1	14
352.682	1	0
353.024	1	7
353.366	1	6
353.708	1	-8
354.050	1	16
354.392	1	8
354.734	1	3
355.076	1	6
355.418	1	2
355.760	1	4
356.102	1	-4
356.444	1	2
356.785	1	2
357.127	1	2
357.469	1	2
357.811	1	11
358.153	1	7
358.495	1	8
358.837	1	7
359.179	1	4
359.521	1	1
359.863	1	1
360.205	1	8
360.547	1	3
360.889	1	7
361.231	1	8
361.572	1	14
361.914	1	-6
362.256	1	0
362.598	1	9
362.940	1	-2
363.282	1	13
363.624	1	12
363.966	1	26
364.308	1	13
364.649	1	14
364.991	1	18
365.333	1	3
365.675	1	7
366.017	1	25
366.359	1	27
366.701	1	16
367.042	1	16
367.384	1	27
367.726	1	24
368.068	1	14
368.410	1	24
368.752	1	26
369.093	1	21
369.435	1	14
369.777	1	20
370.119	1	28
370.461	1	15
370.803	1	16
371.144	1	16
371.486	1	19
371.828	1	19
372.170	1	12
372.512	1	11
372.853	1	8
373.195	1	5
373.537	1	16
373.879	1	11
374.220	1	9
374.562	1	4
374.904	1	19
375.246	1	17
375.588	1	5
375.929	1	7
376.271	1	7
376.613	1	4
376.955	1	18
377.296	1	14
377.638	1	-2
377.980	1	-5
378.321	1	3
378.663	1	11
379.005	1	19
379.347	1	4
379.688	1	3
380.030	1	7
380.372	1	10
380.714	1	27
381.055	1	7
381.397	1	6
381.739	1	7
382.080	1	-2
382.422	1	8
382.764	1	12
383.105	1	13
383.447	1	7
383.789	1	17
384.130	1	8
384.472	1	10
384.814	1	6
385.156	1	15
385.497	1	8
385.839	1	7
386.180	1	20
386.522	1	10
386.864	1	12
387.205	1	7
387.547	1	16
387.889	1	4
388.230	1	9
388.572	1	7
388.914	1	17
389.255	1	10
389.597	1	0
389.939	1	6
390.280	1	15
390.622	1	2
390.963	1	14
391.305	1	7
391.647	1	11
391.988	1	14
392.330	1	2
392.671	1	-2
393.013	1	14
393.355	1	5
393.696	1	2
394.038	1	10
394.379	1	17
394.721	1	4
395.062	1	6
395.404	1	-7
395.746	1	15
396.087	1	20
396.429	1	14
396.770	1	15
397.112	1	7
397.453	1	15
397.795	1	6
398.136	1	4
398.478	1	6
398.819	1	-11
399.161	1	9
399.503	1	20
399.844	1	-5
400.186	1	2
400.527	1	10
400.869	1	11
401.210	1	-3
401.552	1	8
401.893	1	-5
402.235	1	13
402.576	1	11
402.918	1	11
403.259	1	-2
403.601	1	7
403.942	1	8
404.284	1	3
404.625	1	11
404.967	1	2
405.308	1	8
405.649	1	9
405.991	1	-2
406.332	1	14
406.674	1	9
407.015	1	5
407.357	1	7
407.698	1	-2
408.040	1	4
408.381	1	14
408.722	1	16
409.064	1	2
409.405	1	1
409.747	1	6
410.088	1	9
410.430	1	20
410.771	1	-15
411.112	1	10
411.454	1	8
411.795	1	7
412.137	1	3
412.478	1	-2
412.819	1	4
413.161	1	7
413.502	1	20
413.844	1	7
414.185	1	5
414.526	1	2
414.868	1	7
415.209	1	13
415.550	1	10
415.892	1	5
416.233	1	16
416.575	1	5
416.916	1	13
417.257	1	3
417.599	1	2
417.940	1	9
418.281	1	0
418.623	1	0
418.964	1	4
419.305	1	9
419.647	1	16
419.988	1	19
420.329	1	19
420.671	1	4
421.012	1	5
421.353	1	6
421.695	1	2
422.036	1	2
422.377	1	9
422.718	1	-2
423.060	1	7
423.401	1	10
423.742	1	9
424.084	1	6
424.425	1	2
424.766	1	2
425.107	1	12
425.449	1	5
425.790	1	9
426.131	1	11
426.472	1	13
426.814	1	10
427.155	1	0
427.496	1	12
427.837	1	10
428.179	1	2
428.520	1	15
428.861	1	-3
429.202	1	8
429.544	1	10
429.885	1	3
430.226	1	2
430.567	1	11
430.909	1	6
431.250	1	12
431.591	1	5
431.932	1	1
432.273	1	15
432.615	1	16
432.956	1	5
433.297	1	13
433.638	1	6
433.979	1	5
434.320	1	13
434.662	1	2
435.003	1	13
435.344	1	9
435.685	1	-8
436.026	1	8
436.368	1	6
436.709	1	6
437.050	1	11
437.391	1	12
437.732	1	7
438.073	1	13
438.414	1	-3
438.756	1	0
439.097	1	6
439.438	1	14
439.779	1	15
440.120	1	-6
440.461	1	15
440.802	1	-8
441.143	1	-4
441.485	1	10
441.826	1	2
442.167	1	8
442.508	1	1
442.849	1	10
443.190	1	12
443.531	1	0
443.872	1	11
444.213	1	-6
444.554	1	10
444.895	1	3
445.237	1	4
445.578	1	-1
445.919	1	0
446.260	1	11
446.601	1	14
446.942	1	3
447.283	1	7
447.624	1	4
447.965	1	3
448.306	1	14
448.647	1	8
448.988	1	4
449.329	1	-2
449.670	1	-3
450.011	1	0
450.352	1	8
450.693	1	-3
451.034	1	-3
451.375	1	20
451.716	1	-3
452.057	1	6
452.398	1	-11
452.739	1	2
453.080	1	0
453.421	1	10
453.762	1	13
454.103	1	-7
454.444	1	9
454.785	1	7
455.126	1	-3
455.467	1	-1
455.808	1	14
456.149	1	-8
456.490	1	14
456.831	1	7
457.172	1	1
457.513	1	1
457.854	1	-1
458.195	1	-7
458.536	1	7
458.877	1	19
459.218	1	2
459.559	1	8
459.899	1	0
460.240	1	16
460.581	1	-3
460.922	1	10
461.263	1	3
461.604	1	0
461.945	1	12
462.286	1	10
462.627	1	3
462.968	1	-1
463.309	1	9
463.649	1	-2
463.990	1	4
464.331	1	8
464.672	1	10
465.013	1	-6
465.354	1	13
465.695	1	14
466.036	1	-2
466.376	1	12
466.717	1	13
467.058	1	5
467.399	1	2
467.740	1	4
468.081	1	13
468.422	1	12
468.762	1	2
469.103	1	3
469.444	1	3
469.785	1	6
470.126	1	0
470.467	1	5
470.807	1	10
471.148	1	0
471.489	1	-1
471.830	1	0
472.171	1	1
472.511	1	-2
472.852	1	8
473.193	1	0
473.534	1	6
473.875	1	7
474.215	1	7
474.556	1	4
474.897	1	4
475.238	1	16
475.578	1	2
475.919	1	-1
476.260	1	12
476.601	1	5
476.942	1	13
477.282	1	14
477.623	1	-5
477.964	1	2
478.305	1	13
478.645	1	0
478.986	1	-7
479.327	1	-2
479.667	1	7
480.008	1	5
480.349	1	3
480.690	1	5
481.030	1	-2
481.371	1	12
481.712	1	7
482.053	1	3
482.393	1	11
482.734	1	8
483.075	1	22
483.415	1	2
483.756	1	4
484.097	1	-5
484.437	1	10
484.778	1	8
485.119	1	5
485.459	1	-3
485.800	1	-2
486.141	1	4
486.481	1	5
486.822	1	13
487.163	1	-6
487.503	1	-8
487.844	1	10
488.185	1	4
488.525	1	-2
488.866	1	5
489.207	1	7
489.547	1	5
489.888	1	8
490.228	1	6
490.569	1	5
490.910	1	-2
491.250	1	3
491.591	1	-9
491.932	1	-6
492.272	1	-3
492.613	1	3
492.953	1	4
493.294	1	9
493.635	1	8
493.975	1	8
494.316	1	7
494.656	1	2
494.997	1	3
495.337	1	9
495.678	1	1
496.019	1	-4
496.359	1	5
496.700	1	1
497.040	1	14
497.381	1	13
497.721	1	4
498.062	1	-14
498.403	1	-11
498.743	1	9
499.084	1	17
499.424	1	-1
499.765	1	1
500.105	1	4
500.446	1	5
500.786	1	8
501.127	1	5
501.467	1	1
501.808	1	7
502.148	1	12
502.489	1	2
502.829	1	6
503.170	1	4
503.510	1	2
503.851	1	6
504.191	1	8
504.532	1	8
504.872	1	3
505.213	1	9
505.553	1	-2
505.894	1	11
506.234	1	0
506.575	1	-1
506.915	1	3
507.256	1	15
507.596	1	1
507.936	1	-2
508.277	1	2
508.617	1	3
508.958	1	15
509.298	1	7
509.639	1	1
509.979	1	8
510.319	1	10
510.660	1	-8
511.000	1	7
511.341	1	-7
511.681	1	15
512.022	1	19
512.362	1	-1
512.702	1	12
513.043	1	8
513.383	1	9
513.724	1	2
514.064	1	0
514.404	1	16
514.745	1	9
515.085	1	4
515.425	1	1
515.766	1	20
516.106	1	4
516.447	1	5
516.787	1	4
517.127	1	0
517.468	1	21
517.808	1	8
518.148	1	10
518.489	1	8
518.829	1	12
519.169	1	16
519.510	1	6
519.850	1	16
520.190	1	13
520.531	1	18
520.871	1	-4
521.211	1	18
521.552	1	2
521.892	1	16
522.232	1	-3
522.573	1	8
522.913	1	9
523.253	1	15
523.593	1	10
523.934	1	2
524.274	1	-2
524.614	1	16
524.955	1	14
525.295	1	7
525.635	1	-3
525.975	1	15
526.316	1	-1
526.656	1	12
526.996	1	7
527.337	1	14
527.677	1	6
528.017	1	1
528.357	1	15
528.698	1	2
529.038	1	-2
529.378	1	12
529.718	1	18
530.058	1	3
530.399	1	4
530.739	1	7
531.079	1	8
531.419	1	12
531.760	1	6
532.100	1	9
532.440	1	13
532.780	1	17
533.120	1	4
533.461	1	9
533.801	1	11
534.141	1	6
534.481	1	17
534.821	1	11
535.162	1	10
535.502	1	3
535.842	1	14
536.182	1	14
536.522	1	-1
536.862	1	13
537.203	1	6
537.543	1	13
537.883	1	4
538.223	1	11
538.563	1	7
538.903	1	13
539.243	1	7
539.584	1	7
539.924	1	8
540.264	1	7
540.604	1	13
540.944	1	8
541.284	1	18
541.624	1	16
541.964	1	9
542.305	1	7
542.645	1	0
542.985	1	19
543.325	1	0
543.665	1	18
544.005	1	7
544.345	1	7
544.685	1	12
545.025	1	6
545.365	1	12
545.705	1	6
546.045	1	15
546.386	1	-2
546.726	1	0
547.066	1	4
547.406	1	-3
547.746	1	5
548.086	1	2
548.426	1	15
548.766	1	13
549.106	1	-7
549.446	1	5
549.786	1	1
550.126	1	19
550.466	1	10
550.806	1	6
551.146	1	8
551.486	1	8
551.826	1	10
552.166	1	11
552.506	1	12
552.846	1	2
553.186	1	8
553.526	1	8
553.866	1	9
554.206	1	-4
554.546	1	14
554.886	1	3
555.226	1	15
555.566	1	4
555.906	1	6
556.246	1	8
556.586	1	12
556.926	1	6
557.266	1	6
557.606	1	11
557.946	1	8
558.286	1	11
558.626	1	-3
558.966	1	-4
559.306	1	11
559.646	1	10
559.986	1	10
560.325	1	-3
560.665	1	10
561.005	1	8
561.345	1	10
561.685	1	10
562.025	1	-4
562.365	1	12
562.705	1	1
563.045	1	7
563.385	1	9
563.725	1	-1
564.064	1	2
564.404	1	7
564.744	1	3
565.084	1	6
565.424	1	-5
565.764	1	9
566.104	1	4
566.444	1	13
566.783	1	4
567.123	1	6
567.463	1	12
567.803	1	4
568.143	1	21
568.483	1	9
568.823	1	0
569.162	1	12
569.502	1	4
569.842	1	7
570.182	1	7
570.522	1	-10
570.862	1	23
571.201	1	10
571.541	1	3
571.881	1	8
572.221	1	8
572.561	1	4
572.900	1	3
573.240	1	1
573.580	1	8
573.920	1	15
574.260	1	6
574.599	1	9
574.939	1	14
575.279	1	-2
575.619	1	10
575.959	1	11
576.298	1	8
576.638	1	3
576.978	1	-4
577.318	1	-2
577.657	1	20
577.997	1	8
578.337	1	10
578.677	1	8
579.016	1	-2
579.356	1	3
579.696	1	1
580.036	1	-6
580.375	1	3
580.715	1	16
581.055	1	7
581.394	1	3
581.734	1	9
582.074	1	4
582.414	1	0
582.753	1	10
583.093	1	2
583.433	1	-1
583.772	1	4
584.112	1	3
584.452	1	9
584.791	1	6
585.131	1	6
585.471	1	0
585.811	1	3
586.150	1	8
586.490	1	11
586.830	1	-6
587.169	1	4
587.509	1	7
587.849	1	6
588.188	1	10
588.528	1	8
588.867	1	3
589.207	1	1
589.547	1	7
589.886	1	12
590.226	1	13
590.566	1	4
590.905	1	16
591.245	1	7
591.585	1	6
591.924	1	-3
592.264	1	-2
592.603	1	-1
592.943	1	8
593.283	1	-8
593.622	1	8
593.962	1	5
594.301	1	-5
594.641	1	12
594.981	1	-2
595.320	1	4
595.660	1	13
595.999	1	4
596.339	1	14
596.678	1	2
597.018	1	2
597.358	1	0
597.697	1	-1
598.037	1	8
598.376	1	4
598.716	1	9
599.055	1	-2
599.395	1	3
599.734	1	-5
600.074	1	6
600.413	1	14
600.753	1	14
601.092	1	1
601.432	1	-3
601.771	1	8
602.111	1	2
602.451	1	3
602.790	1	-3
603.130	1	8
603.469	1	-6
603.809	1	8
604.148	1	6
604.487	1	4
604.827	1	-7
605.166	1	-4
605.506	1	11
605.845	1	-4
606.185	1	10
606.524	1	4
606.864	1	13
607.203	1	-2
607.543	1	1
607.882	1	6
608.222	1	-11
608.561	1	3
608.901	1	-2
609.240	1	-1
609.579	1	11
609.919	1	7
610.258	1	-3
610.598	1	8
610.937	1	2
611.277	1	10
611.616	1	-11
611.955	1	-5
612.295	1	9
612.634	1	1
612.974	1	7
613.313	1	-2
613.652	1	1
613.992	1	11
614.331	1	5
614.671	1	4
615.010	1	-5
615.349	1	5
615.689	1	6
616.028	1	6
616.368	1	-3
616.707	1	15
617.046	1	13
617.386	1	1
617.725	1	6
618.064	1	6
618.404	1	0
618.743	1	9
619.082	1	9
619.422	1	4
619.761	1	9
620.100	1	-3
620.440	1	7
620.779	1	7
621.118	1	3
621.458	1	8
621.797	1	3
622.136	1	-5
622.476	1	5
622.815	1	0
623.154	1	-4
623.494	1	10
623.833	1	12
624.172	1	1
624.511	1	6
624.851	1	1
625.190	1	8
625.529	1	1
625.869	1	6
626.208	1	-2
626.547	1	0
626.886	1	-1
627.226	1	8
627.565	1	7
627.904	1	8
628.243	1	5
628.583	1	-6
628.922	1	-3
629.261	1	-3
629.600	1	-1
629.940	1	5
630.279	1	11
630.618	1	5
630.957	1	6
631.297	1	-8
631.636	1	7
631.975	1	11
632.314	1	5
632.653	1	2
632.993	1	7
633.332	1	3
633.671	1	2
634.010	1	0
634.349	1	1
634.689	1	3
635.028	1	10
635.367	1	0
635.706	1	2
636.045	1	17
636.384	1	6
636.724	1	8
637.063	1	7
637.402	1	0
637.741	1	2
638.080	1	19
638.419	1	10
638.759	1	7
639.098	1	1
639.437	1	4
639.776	1	9
640.115	1	8
640.454	1	8
640.793	1	-6
641.132	1	10
641.472	1	-2
641.811	1	1
642.150	1	-2
642.489	1	-4
642.828	1	1
643.167	1	1
643.506	1	10
643.845	1	-3
644.184	1	7
644.524	1	4
644.863	1	3
645.202	1	9
645.541	1	-1
645.880	1	5
646.219	1	5
646.558	1	11
646.897	1	5
647.236	1	-4
647.575	1	-1
647.914	1	-2
648.253	1	6
648.592	1	-8
648.931	1	1
649.270	1	0
649.610	1	3
649.949	1	6
650.288	1	9
650.627	1	-1
650.966	1	8
651.305	1	-4
651.644	1	5
651.983	1	-9
652.322	1	5
652.661	1	4
653.000	1	2
653.339	1	5
653.678	1	-10
654.017	1	0
654.356	1	8
654.695	1	8
655.034	1	3
655.373	1	3
655.712	1	1
656.051	1	2
656.390	1	-3
656.729	1	7
657.068	1	5
657.406	1	5
657.745	1	4
658.084	1	1
658.423	1	4
658.762	1	11
659.101	1	5
659.440	1	-10
659.779	1	5
660.118	1	-2
660.457	1	0
660.796	1	10
661.135	1	13
661.474	1	13
661.813	1	-1
662.152	1	-1
662.491	1	9
662.829	1	11
663.168	1	-7
663.507	1	7
663.846	1	-2
664.185	1	-3
664.524	1	-4
664.863	1	11
665.202	1	-1
665.541	1	-7
665.879	1	3
666.218	1	5
666.557	1	7
666.896	1	8
667.235	1	9
667.574	1	6
667.913	1	5
668.251	1	3
668.590	1	8
668.929	1	8
669.268	1	6
669.607	1	-4
669.946	1	4
670.285	1	15
670.623	1	28
670.962	1	5
671.301	1	3
671.640	1	-6
671.979	1	-1
672.317	1	7
672.656	1	-3
672.995	1	4
673.334	1	-5
673.673	1	7
674.011	1	1
674.350	1	10
674.689	1	8
675.028	1	15
675.367	1	-8
675.705	1	8
676.044	1	3
676.383	1	2
676.722	1	-4
677.060	1	2
677.399	1	10
677.738	1	3
678.077	1	10
678.416	1	6
678.754	1	5
679.093	1	3
679.432	1	1
679.771	1	7
680.109	1	4
680.448	1	1
680.787	1	10
681.125	1	6
681.464	1	-6
681.803	1	0
682.142	1	-7
682.480	1	11
682.819	1	0
683.158	1	3
683.496	1	-8
683.835	1	-2
684.174	1	14
684.512	1	10
684.851	1	3
685.190	1	-3
685.529	1	2
685.867	1	5
686.206	1	8
686.545	1	3
686.883	1	2
687.222	1	1
687.561	1	14
687.899	1	3
688.238	1	10
688.577	1	-2
688.746	1	14