File: Data/GaN_130K_350ms/GaN_sample F_spot6_UVVIS_130 K_200um_350 ms 2x2mm1_268.txt
340.368	1	4
340.710	1	9
341.052	1	-3
341.394	1	-3
341.737	1	5
342.079	1	-5
342.421	1	6
342.763	1	-3
343.105	1	4
343.447	1	4
343.789	1	-7
344.131	1	8
344.473	1	-3
344.815	1	1
345.157	1	-14
345.499	1	-4
345.841	1	0
346.183	1	8
346.526	1	-1
346.868	1	5
347.210	1	2
347.552	1	-3
347.894	1	3
348.236	1	7
348.578	1	1
348.920	1	1
349.262	1	1
349.604	1	3
349.946	1	7
350.288	1	-7
350.630	1	0
350.972	1	11
351.314	1	4
351.656	1	11
351.998	1	-4
352.340	1	8
352.682	1	4
353.024	1	-5
353.366	1	8
353.708	1	-7
354.050	1	7
354.392	1	6
354.734	1	-1
355.076	1	-3
355.418	1	4
355.760	1	5
356.102	1	-2
356.444	1	-10
356.785	1	1
357.127	1	3
357.469	1	-6
357.811	1	0
358.153	1	2
358.495	1	8
358.837	1	6
359.179	1	1
359.521	1	5
359.863	1	6
360.205	1	4
360.547	1	-5
360.889	1	-1
361.231	1	-8
361.572	1	10
361.914	1	0
362.256	1	5
362.598	1	6
362.940	1	-2
363.282	1	10
363.624	1	7
363.966	1	18
364.308	1	12
364.649	1	8
364.991	1	7
365.333	1	13
365.675	1	-1
366.017	1	15
366.359	1	11
366.701	1	9
367.042	1	15
367.384	1	18
367.726	1	0
368.068	1	2
368.410	1	2
368.752	1	18
369.093	1	16
369.435	1	2
369.777	1	7
370.119	1	16
370.461	1	11
370.803	1	8
371.144	1	10
371.486	1	4
371.828	1	-2
372.170	1	7
372.512	1	9
372.853	1	-2
373.195	1	9
373.537	1	4
373.879	1	9
374.220	1	3
374.562	1	-3
374.904	1	13
375.246	1	6
375.588	1	0
375.929	1	-6
376.271	1	2
376.613	1	7
376.955	1	10
377.296	1	11
377.638	1	-4
377.980	1	4
378.321	1	0
378.663	1	9
379.005	1	15
379.347	1	10
379.688	1	8
380.030	1	-1
380.372	1	5
380.714	1	17
381.055	1	9
381.397	1	6
381.739	1	6
382.080	1	-1
382.422	1	16
382.764	1	5
383.105	1	0
383.447	1	2
383.789	1	6
384.130	1	3
384.472	1	7
384.814	1	1
385.156	1	-5
385.497	1	-3
385.839	1	12
386.180	1	8
386.522	1	2
386.864	1	10
387.205	1	0
387.547	1	7
387.889	1	-13
388.230	1	-2
388.572	1	5
388.914	1	13
389.255	1	0
389.597	1	-7
389.939	1	8
390.280	1	11
390.622	1	4
390.963	1	6
391.305	1	6
391.647	1	4
391.988	1	14
392.330	1	-2
392.671	1	2
393.013	1	6
393.355	1	11
393.696	1	-1
394.038	1	19
394.379	1	4
394.721	1	7
395.062	1	-4
395.404	1	-5
395.746	1	9
396.087	1	10
396.429	1	2
396.770	1	13
397.112	1	6
397.453	1	4
397.795	1	-4
398.136	1	2
398.478	1	-2
398.819	1	-7
399.161	1	4
399.503	1	8
399.844	1	-5
400.186	1	-3
400.527	1	4
400.869	1	9
401.210	1	1
401.552	1	13
401.893	1	-7
402.235	1	8
402.576	1	0
402.918	1	7
403.259	1	-4
403.601	1	4
403.942	1	-6
404.284	1	1
404.625	1	17
404.967	1	1
405.308	1	9
405.649	1	7
405.991	1	5
406.332	1	2
406.674	1	6
407.015	1	2
407.357	1	7
407.698	1	10
408.040	1	6
408.381	1	13
408.722	1	7
409.064	1	-1
409.405	1	6
409.747	1	0
410.088	1	13
410.430	1	10
410.771	1	-12
411.112	1	11
411.454	1	3
411.795	1	5
412.137	1	-7
412.478	1	3
412.819	1	1
413.161	1	18
413.502	1	11
413.844	1	-3
414.185	1	-1
414.526	1	5
414.868	1	9
415.209	1	13
415.550	1	-5
415.892	1	5
416.233	1	12
416.575	1	6
416.916	1	-7
417.257	1	2
417.599	1	0
417.940	1	8
418.281	1	2
418.623	1	2
418.964	1	-2
419.305	1	-1
419.647	1	7
419.988	1	11
420.329	1	5
420.671	1	-7
421.012	1	5
421.353	1	4
421.695	1	5
422.036	1	6
422.377	1	11
422.718	1	11
423.060	1	7
423.401	1	-3
423.742	1	4
424.084	1	6
424.425	1	0
424.766	1	4
425.107	1	-4
425.449	1	5
425.790	1	9
426.131	1	17
426.472	1	6
426.814	1	1
427.155	1	-1
427.496	1	2
427.837	1	6
428.179	1	10
428.520	1	5
428.861	1	-3
429.202	1	5
429.544	1	6
429.885	1	7
430.226	1	3
430.567	1	0
430.909	1	5
431.250	1	8
431.591	1	1
431.932	1	-5
432.273	1	5
432.615	1	11
432.956	1	-5
433.297	1	15
433.638	1	5
433.979	1	1
434.320	1	9
434.662	1	7
435.003	1	8
435.344	1	14
435.685	1	-9
436.026	1	9
436.368	1	-5
436.709	1	0
437.050	1	9
437.391	1	11
437.732	1	7
438.073	1	8
438.414	1	7
438.756	1	4
439.097	1	8
439.438	1	0
439.779	1	7
440.120	1	-5
440.461	1	13
440.802	1	-6
441.143	1	2
441.485	1	10
441.826	1	0
442.167	1	-5
442.508	1	5
442.849	1	0
443.190	1	7
443.531	1	-5
443.872	1	16
444.213	1	1
444.554	1	11
444.895	1	2
445.237	1	0
445.578	1	-4
445.919	1	0
446.260	1	4
446.601	1	9
446.942	1	7
447.283	1	10
447.624	1	1
447.965	1	6
448.306	1	8
448.647	1	18
448.988	1	3
449.329	1	-2
449.670	1	0
450.011	1	-2
450.352	1	13
450.693	1	-1
451.034	1	1
451.375	1	1
451.716	1	-2
452.057	1	14
452.398	1	-14
452.739	1	5
453.080	1	4
453.421	1	-1
453.762	1	7
454.103	1	-2
454.444	1	11
454.785	1	10
455.126	1	2
455.467	1	-1
455.808	1	11
456.149	1	-2
456.490	1	4
456.831	1	11
457.172	1	-4
457.513	1	-5
457.854	1	8
458.195	1	-13
458.536	1	9
458.877	1	22
459.218	1	5
459.559	1	-5
459.899	1	-7
460.240	1	13
460.581	1	-2
460.922	1	7
461.263	1	8
461.604	1	-2
461.945	1	13
462.286	1	13
462.627	1	7
462.968	1	4
463.309	1	-8
463.649	1	-9
463.990	1	1
464.331	1	2
464.672	1	1
465.013	1	-5
465.354	1	7
465.695	1	3
466.036	1	2
466.376	1	2
466.717	1	2
467.058	1	-1
467.399	1	1
467.740	1	20
468.081	1	14
468.422	1	9
468.762	1	-9
469.103	1	3
469.444	1	0
469.785	1	14
470.126	1	-9
470.467	1	-1
470.807	1	4
471.148	1	4
471.489	1	-2
471.830	1	2
472.171	1	-9
472.511	1	8
472.852	1	10
473.193	1	0
473.534	1	3
473.875	1	7
474.215	1	12
474.556	1	10
474.897	1	-3
475.238	1	10
475.578	1	-3
475.919	1	-6
476.260	1	2
476.601	1	0
476.942	1	14
477.282	1	3
477.623	1	6
477.964	1	-2
478.305	1	8
478.645	1	5
478.986	1	3
479.327	1	-3
479.667	1	-1
480.008	1	-1
480.349	1	6
480.690	1	5
481.030	1	8
481.371	1	11
481.712	1	-3
482.053	1	12
482.393	1	11
482.734	1	6
483.075	1	14
483.415	1	4
483.756	1	0
484.097	1	8
484.437	1	2
484.778	1	8
485.119	1	5
485.459	1	-12
485.800	1	10
486.141	1	-7
486.481	1	-9
486.822	1	7
487.163	1	5
487.503	1	-6
487.844	1	9
488.185	1	7
488.525	1	3
488.866	1	7
489.207	1	4
489.547	1	3
489.888	1	12
490.228	1	-4
490.569	1	-3
490.910	1	-5
491.250	1	1
491.591	1	-2
491.932	1	3
492.272	1	-1
492.613	1	-1
492.953	1	4
493.294	1	11
493.635	1	6
493.975	1	16
494.316	1	7
494.656	1	5
494.997	1	-6
495.337	1	-3
495.678	1	-8
496.019	1	-2
496.359	1	12
496.700	1	9
497.040	1	2
497.381	1	2
497.721	1	-4
498.062	1	-3
498.403	1	-4
498.743	1	10
499.084	1	5
499.424	1	-3
499.765	1	-1
500.105	1	3
500.446	1	11
500.786	1	0
501.127	1	0
501.467	1	0
501.808	1	-1
502.148	1	2
502.489	1	10
502.829	1	-1
503.170	1	-5
503.510	1	6
503.851	1	-1
504.191	1	0
504.532	1	4
504.872	1	0
505.213	1	6
505.553	1	6
505.894	1	0
506.234	1	-2
506.575	1	3
506.915	1	-3
507.256	1	12
507.596	1	7
507.936	1	4
508.277	1	-2
508.617	1	-5
508.958	1	2
509.298	1	-7
509.639	1	6
509.979	1	1
510.319	1	17
510.660	1	-4
511.000	1	4
511.341	1	-4
511.681	1	6
512.022	1	12
512.362	1	12
512.702	1	4
513.043	1	7
513.383	1	2
513.724	1	-2
514.064	1	-5
514.404	1	11
514.745	1	-4
515.085	1	10
515.425	1	1
515.766	1	10
516.106	1	2
516.447	1	5
516.787	1	2
517.127	1	-2
517.468	1	3
517.808	1	1
518.148	1	7
518.489	1	15
518.829	1	11
519.169	1	12
519.510	1	4
519.850	1	15
520.190	1	12
520.531	1	11
520.871	1	5
521.211	1	8
521.552	1	3
521.892	1	11
522.232	1	-5
522.573	1	0
522.913	1	0
523.253	1	1
523.593	1	15
523.934	1	0
524.274	1	-2
524.614	1	16
524.955	1	-3
525.295	1	12
525.635	1	-2
525.975	1	16
526.316	1	3
526.656	1	2
526.996	1	-3
527.337	1	15
527.677	1	3
528.017	1	8
528.357	1	8
528.698	1	-6
529.038	1	-1
529.378	1	5
529.718	1	14
530.058	1	3
530.399	1	0
530.739	1	2
531.079	1	1
531.419	1	7
531.760	1	-5
532.100	1	0
532.440	1	2
532.780	1	3
533.120	1	10
533.461	1	-6
533.801	1	14
534.141	1	4
534.481	1	2
534.821	1	5
535.162	1	5
535.502	1	6
535.842	1	9
536.182	1	-2
536.522	1	-1
536.862	1	8
537.203	1	-9
537.543	1	11
537.883	1	-2
538.223	1	11
538.563	1	4
538.903	1	4
539.243	1	-1
539.584	1	-2
539.924	1	-3
540.264	1	-6
540.604	1	16
540.944	1	8
541.284	1	3
541.624	1	10
541.964	1	-9
542.305	1	6
542.645	1	-4
542.985	1	9
543.325	1	1
543.665	1	4
544.005	1	8
544.345	1	3
544.685	1	12
545.025	1	1
545.365	1	5
545.705	1	2
546.045	1	1
546.386	1	3
546.726	1	-7
547.066	1	9
547.406	1	-3
547.746	1	3
548.086	1	-8
548.426	1	5
548.766	1	4
549.106	1	-3
549.446	1	-4
549.786	1	6
550.126	1	11
550.466	1	10
550.806	1	3
551.146	1	2
551.486	1	11
551.826	1	-2
552.166	1	5
552.506	1	1
552.846	1	6
553.186	1	0
553.526	1	1
553.866	1	-11
554.206	1	2
554.546	1	8
554.886	1	-7
555.226	1	6
555.566	1	6
555.906	1	-2
556.246	1	5
556.586	1	12
556.926	1	4
557.266	1	9
557.606	1	1
557.946	1	8
558.286	1	10
558.626	1	-7
558.966	1	-2
559.306	1	-8
559.646	1	-1
559.986	1	7
560.325	1	-10
560.665	1	8
561.005	1	-7
561.345	1	10
561.685	1	8
562.025	1	-3
562.365	1	6
562.705	1	6
563.045	1	2
563.385	1	7
563.725	1	2
564.064	1	18
564.404	1	-7
564.744	1	8
565.084	1	5
565.424	1	0
565.764	1	10
566.104	1	-3
566.444	1	14
566.783	1	16
567.123	1	2
567.463	1	4
567.803	1	5
568.143	1	12
568.483	1	6
568.823	1	-3
569.162	1	8
569.502	1	-3
569.842	1	-7
570.182	1	7
570.522	1	-15
570.862	1	21
571.201	1	2
571.541	1	5
571.881	1	-5
572.221	1	7
572.561	1	2
572.900	1	4
573.240	1	0
573.580	1	0
573.920	1	10
574.260	1	-1
574.599	1	10
574.939	1	9
575.279	1	-1
575.619	1	11
575.959	1	11
576.298	1	-6
576.638	1	1
576.978	1	-4
577.318	1	6
577.657	1	10
577.997	1	8
578.337	1	6
578.677	1	8
579.016	1	-5
579.356	1	2
579.696	1	-3
580.036	1	-6
580.375	1	-1
580.715	1	8
581.055	1	3
581.394	1	-1
581.734	1	14
582.074	1	0
582.414	1	1
582.753	1	11
583.093	1	16
583.433	1	2
583.772	1	-1
584.112	1	3
584.452	1	7
584.791	1	7
585.131	1	6
585.471	1	1
585.811	1	-2
586.150	1	10
586.490	1	14
586.830	1	-7
587.169	1	4
587.509	1	1
587.849	1	-1
588.188	1	13
588.528	1	7
588.867	1	6
589.207	1	-2
589.547	1	-2
589.886	1	2
590.226	1	9
590.566	1	8
590.905	1	9
591.245	1	-3
591.585	1	5
591.924	1	0
592.264	1	11
592.603	1	-4
592.943	1	6
593.283	1	-7
593.622	1	6
593.962	1	9
594.301	1	-2
594.641	1	6
594.981	1	-7
595.320	1	9
595.660	1	7
595.999	1	10
596.339	1	8
596.678	1	-5
597.018	1	5
597.358	1	-4
597.697	1	2
598.037	1	2
598.376	1	0
598.716	1	4
599.055	1	-5
599.395	1	4
599.734	1	-7
600.074	1	4
600.413	1	1
600.753	1	2
601.092	1	5
601.432	1	1
601.771	1	3
602.111	1	-1
602.451	1	4
602.790	1	-1
603.130	1	14
603.469	1	1
603.809	1	8
604.148	1	5
604.487	1	3
604.827	1	5
605.166	1	16
605.506	1	-2
605.845	1	0
606.185	1	6
606.524	1	4
606.864	1	6
607.203	1	5
607.543	1	2
607.882	1	4
608.222	1	4
608.561	1	-7
608.901	1	9
609.240	1	-12
609.579	1	10
609.919	1	6
610.258	1	1
610.598	1	3
610.937	1	16
611.277	1	3
611.616	1	-1
611.955	1	-6
612.295	1	4
612.634	1	0
612.974	1	5
613.313	1	2
613.652	1	-6
613.992	1	4
614.331	1	-1
614.671	1	-4
615.010	1	1
615.349	1	7
615.689	1	4
616.028	1	7
616.368	1	8
616.707	1	10
617.046	1	7
617.386	1	-2
617.725	1	2
618.064	1	-3
618.404	1	10
618.743	1	10
619.082	1	4
619.422	1	-3
619.761	1	15
620.100	1	0
620.440	1	12
620.779	1	-3
621.118	1	0
621.458	1	7
621.797	1	-2
622.136	1	12
622.476	1	7
622.815	1	-4
623.154	1	8
623.494	1	6
623.833	1	15
624.172	1	3
624.511	1	9
624.851	1	-3
625.190	1	-4
625.529	1	4
625.869	1	0
626.208	1	-6
626.547	1	5
626.886	1	-2
627.226	1	3
627.565	1	5
627.904	1	4
628.243	1	4
628.583	1	-4
628.922	1	-7
629.261	1	-12
629.600	1	8
629.940	1	7
630.279	1	8
630.618	1	-7
630.957	1	-1
631.297	1	4
631.636	1	5
631.975	1	6
632.314	1	-11
632.653	1	4
632.993	1	12
633.332	1	0
633.671	1	6
634.010	1	-8
634.349	1	0
634.689	1	5
635.028	1	6
635.367	1	2
635.706	1	5
636.045	1	1
636.384	1	-1
636.724	1	0
637.063	1	4
637.402	1	-10
637.741	1	12
638.080	1	2
638.419	1	1
638.759	1	-1
639.098	1	-8
639.437	1	6
639.776	1	-5
640.115	1	1
640.454	1	6
640.793	1	-4
641.132	1	6
641.472	1	11
641.811	1	3
642.150	1	-10
642.489	1	-4
642.828	1	6
643.167	1	9
643.506	1	8
643.845	1	-5
644.184	1	-1
644.524	1	7
644.863	1	2
645.202	1	9
645.541	1	0
645.880	1	6
646.219	1	2
646.558	1	-7
646.897	1	-3
647.236	1	-5
647.575	1	-7
647.914	1	-4
648.253	1	6
648.592	1	-4
648.931	1	0
649.270	1	-7
649.610	1	1
649.949	1	6
650.288	1	11
650.627	1	9
650.966	1	-2
651.305	1	1
651.644	1	-5
651.983	1	-11
652.322	1	8
652.661	1	-2
653.000	1	6
653.339	1	-3
653.678	1	2
654.017	1	-1
654.356	1	5
654.695	1	0
655.034	1	-5
655.373	1	-2
655.712	1	-5
656.051	1	0
656.390	1	-5
656.729	1	1
657.068	1	-8
657.406	1	-3
657.745	1	6
658.084	1	1
658.423	1	9
658.762	1	14
659.101	1	5
659.440	1	-10
659.779	1	-4
660.118	1	-2
660.457	1	6
660.796	1	-3
661.135	1	9
661.474	1	3
661.813	1	-4
662.152	1	1
662.491	1	10
662.829	1	0
663.168	1	-1
663.507	1	1
663.846	1	-2
664.185	1	-5
664.524	1	0
664.863	1	5
665.202	1	-2
665.541	1	-3
665.879	1	-7
666.218	1	3
666.557	1	5
666.896	1	-1
667.235	1	7
667.574	1	14
667.913	1	8
668.251	1	5
668.590	1	0
668.929	1	4
669.268	1	6
669.607	1	-4
669.946	1	5
670.285	1	0
670.623	1	8
670.962	1	-6
671.301	1	-1
671.640	1	-11
671.979	1	2
672.317	1	-1
672.656	1	-6
672.995	1	-2
673.334	1	-5
673.673	1	6
674.011	1	6
674.350	1	2
674.689	1	5
675.028	1	11
675.367	1	-7
675.705	1	15
676.044	1	-4
676.383	1	4
676.722	1	-3
677.060	1	-3
677.399	1	-6
677.738	1	1
678.077	1	10
678.416	1	3
678.754	1	2
679.093	1	3
679.432	1	-1
679.771	1	6
680.109	1	-2
680.448	1	8
680.787	1	9
681.125	1	9
681.464	1	6
681.803	1	3
682.142	1	2
682.480	1	12
682.819	1	3
683.158	1	1
683.496	1	0
683.835	1	-12
684.174	1	16
684.512	1	5
684.851	1	1
685.190	1	-5
685.529	1	-8
685.867	1	7
686.206	1	11
686.545	1	-3
686.883	1	2
687.222	1	8
687.561	1	7
687.899	1	-4
688.238	1	6
688.577	1	5
688.746	1	1