File: Data/GaN_130K_350ms/GaN_sample F_spot6_UVVIS_130 K_200um_350 ms 2x2mm1_283.txt
340.368	1	5
340.710	1	3
341.052	1	-15
341.394	1	1
341.737	1	5
342.079	1	0
342.421	1	6
342.763	1	-1
343.105	1	4
343.447	1	6
343.789	1	1
344.131	1	7
344.473	1	-2
344.815	1	0
345.157	1	-13
345.499	1	1
345.841	1	0
346.183	1	6
346.526	1	-7
346.868	1	-1
347.210	1	7
347.552	1	-10
347.894	1	1
348.236	1	1
348.578	1	0
348.920	1	4
349.262	1	10
349.604	1	-2
349.946	1	6
350.288	1	-7
350.630	1	8
350.972	1	11
351.314	1	-8
351.656	1	3
351.998	1	0
352.340	1	7
352.682	1	0
353.024	1	-7
353.366	1	-2
353.708	1	-10
354.050	1	2
354.392	1	1
354.734	1	1
355.076	1	7
355.418	1	2
355.760	1	5
356.102	1	-2
356.444	1	-10
356.785	1	11
357.127	1	6
357.469	1	-3
357.811	1	-2
358.153	1	12
358.495	1	2
358.837	1	4
359.179	1	-2
359.521	1	-13
359.863	1	-4
360.205	1	5
360.547	1	-2
360.889	1	3
361.231	1	-3
361.572	1	11
361.914	1	8
362.256	1	-3
362.598	1	-2
362.940	1	-1
363.282	1	12
363.624	1	5
363.966	1	13
364.308	1	15
364.649	1	9
364.991	1	4
365.333	1	-4
365.675	1	4
366.017	1	6
366.359	1	7
366.701	1	9
367.042	1	14
367.384	1	9
367.726	1	8
368.068	1	-3
368.410	1	2
368.752	1	17
369.093	1	16
369.435	1	1
369.777	1	7
370.119	1	9
370.461	1	16
370.803	1	4
371.144	1	13
371.486	1	6
371.828	1	10
372.170	1	1
372.512	1	18
372.853	1	-7
373.195	1	-6
373.537	1	-1
373.879	1	7
374.220	1	4
374.562	1	0
374.904	1	15
375.246	1	10
375.588	1	-4
375.929	1	4
376.271	1	6
376.613	1	-3
376.955	1	1
377.296	1	-2
377.638	1	-10
377.980	1	2
378.321	1	-3
378.663	1	-7
379.005	1	15
379.347	1	1
379.688	1	-8
380.030	1	-4
380.372	1	9
380.714	1	7
381.055	1	3
381.397	1	4
381.739	1	15
382.080	1	-2
382.422	1	13
382.764	1	-3
383.105	1	1
383.447	1	7
383.789	1	8
384.130	1	7
384.472	1	6
384.814	1	9
385.156	1	1
385.497	1	-5
385.839	1	3
386.180	1	10
386.522	1	-2
386.864	1	6
387.205	1	-6
387.547	1	4
387.889	1	-1
388.230	1	0
388.572	1	7
388.914	1	4
389.255	1	2
389.597	1	-14
389.939	1	3
390.280	1	9
390.622	1	1
390.963	1	1
391.305	1	9
391.647	1	-3
391.988	1	8
392.330	1	-2
392.671	1	-6
393.013	1	8
393.355	1	4
393.696	1	-8
394.038	1	9
394.379	1	8
394.721	1	4
395.062	1	6
395.404	1	-6
395.746	1	13
396.087	1	17
396.429	1	5
396.770	1	5
397.112	1	3
397.453	1	10
397.795	1	-5
398.136	1	6
398.478	1	7
398.819	1	-10
399.161	1	3
399.503	1	3
399.844	1	0
400.186	1	-1
400.527	1	9
400.869	1	4
401.210	1	-4
401.552	1	7
401.893	1	-12
402.235	1	7
402.576	1	-5
402.918	1	13
403.259	1	-6
403.601	1	11
403.942	1	3
404.284	1	8
404.625	1	6
404.967	1	3
405.308	1	0
405.649	1	1
405.991	1	0
406.332	1	12
406.674	1	1
407.015	1	0
407.357	1	-3
407.698	1	3
408.040	1	12
408.381	1	7
408.722	1	8
409.064	1	3
409.405	1	7
409.747	1	-2
410.088	1	14
410.430	1	5
410.771	1	-9
411.112	1	11
411.454	1	8
411.795	1	10
412.137	1	0
412.478	1	3
412.819	1	17
413.161	1	13
413.502	1	12
413.844	1	3
414.185	1	4
414.526	1	12
414.868	1	3
415.209	1	-2
415.550	1	1
415.892	1	6
416.233	1	8
416.575	1	8
416.916	1	3
417.257	1	7
417.599	1	0
417.940	1	3
418.281	1	0
418.623	1	2
418.964	1	-1
419.305	1	1
419.647	1	15
419.988	1	14
420.329	1	9
420.671	1	6
421.012	1	-2
421.353	1	1
421.695	1	-1
422.036	1	2
422.377	1	15
422.718	1	1
423.060	1	8
423.401	1	9
423.742	1	9
424.084	1	5
424.425	1	6
424.766	1	3
425.107	1	1
425.449	1	6
425.790	1	8
426.131	1	16
426.472	1	-3
426.814	1	5
427.155	1	-9
427.496	1	-6
427.837	1	3
428.179	1	2
428.520	1	13
428.861	1	3
429.202	1	20
429.544	1	2
429.885	1	7
430.226	1	5
430.567	1	-7
430.909	1	12
431.250	1	9
431.591	1	2
431.932	1	7
432.273	1	7
432.615	1	10
432.956	1	0
433.297	1	14
433.638	1	0
433.979	1	4
434.320	1	5
434.662	1	-3
435.003	1	5
435.344	1	3
435.685	1	-7
436.026	1	-4
436.368	1	3
436.709	1	4
437.050	1	16
437.391	1	15
437.732	1	2
438.073	1	8
438.414	1	-3
438.756	1	6
439.097	1	-3
439.438	1	2
439.779	1	12
440.120	1	2
440.461	1	10
440.802	1	-8
441.143	1	-6
441.485	1	5
441.826	1	-1
442.167	1	1
442.508	1	-4
442.849	1	7
443.190	1	4
443.531	1	3
443.872	1	13
444.213	1	0
444.554	1	10
444.895	1	-3
445.237	1	2
445.578	1	-10
445.919	1	2
446.260	1	5
446.601	1	8
446.942	1	-2
447.283	1	3
447.624	1	-5
447.965	1	0
448.306	1	3
448.647	1	5
448.988	1	4
449.329	1	2
449.670	1	-2
450.011	1	3
450.352	1	11
450.693	1	3
451.034	1	2
451.375	1	7
451.716	1	-6
452.057	1	9
452.398	1	-4
452.739	1	6
453.080	1	7
453.421	1	9
453.762	1	2
454.103	1	-1
454.444	1	1
454.785	1	21
455.126	1	-3
455.467	1	-2
455.808	1	3
456.149	1	-1
456.490	1	7
456.831	1	5
457.172	1	1
457.513	1	-8
457.854	1	1
458.195	1	-7
458.536	1	10
458.877	1	24
459.218	1	3
459.559	1	7
459.899	1	2
460.240	1	9
460.581	1	1
460.922	1	0
461.263	1	7
461.604	1	-6
461.945	1	2
462.286	1	7
462.627	1	6
462.968	1	0
463.309	1	7
463.649	1	-5
463.990	1	-1
464.331	1	4
464.672	1	6
465.013	1	-1
465.354	1	1
465.695	1	5
466.036	1	5
466.376	1	7
466.717	1	5
467.058	1	3
467.399	1	-10
467.740	1	15
468.081	1	8
468.422	1	6
468.762	1	-13
469.103	1	6
469.444	1	0
469.785	1	5
470.126	1	-9
470.467	1	9
470.807	1	5
471.148	1	-3
471.489	1	0
471.830	1	5
472.171	1	7
472.511	1	6
472.852	1	8
473.193	1	5
473.534	1	-3
473.875	1	10
474.215	1	11
474.556	1	7
474.897	1	3
475.238	1	14
475.578	1	-3
475.919	1	-5
476.260	1	1
476.601	1	3
476.942	1	8
477.282	1	5
477.623	1	6
477.964	1	-1
478.305	1	6
478.645	1	0
478.986	1	-9
479.327	1	-2
479.667	1	7
480.008	1	-6
480.349	1	1
480.690	1	10
481.030	1	2
481.371	1	11
481.712	1	12
482.053	1	4
482.393	1	6
482.734	1	-5
483.075	1	16
483.415	1	0
483.756	1	-1
484.097	1	4
484.437	1	-3
484.778	1	10
485.119	1	11
485.459	1	-9
485.800	1	6
486.141	1	5
486.481	1	-4
486.822	1	4
487.163	1	4
487.503	1	-18
487.844	1	-5
488.185	1	0
488.525	1	1
488.866	1	4
489.207	1	7
489.547	1	11
489.888	1	5
490.228	1	0
490.569	1	9
490.910	1	1
491.250	1	8
491.591	1	1
491.932	1	2
492.272	1	0
492.613	1	2
492.953	1	3
493.294	1	-3
493.635	1	4
493.975	1	9
494.316	1	10
494.656	1	-2
494.997	1	1
495.337	1	-1
495.678	1	-6
496.019	1	-8
496.359	1	18
496.700	1	0
497.040	1	8
497.381	1	-5
497.721	1	0
498.062	1	-11
498.403	1	-8
498.743	1	7
499.084	1	7
499.424	1	-8
499.765	1	-5
500.105	1	1
500.446	1	8
500.786	1	-2
501.127	1	0
501.467	1	9
501.808	1	-1
502.148	1	6
502.489	1	-1
502.829	1	1
503.170	1	2
503.510	1	10
503.851	1	1
504.191	1	0
504.532	1	3
504.872	1	-4
505.213	1	4
505.553	1	-2
505.894	1	6
506.234	1	-1
506.575	1	-1
506.915	1	3
507.256	1	8
507.596	1	-7
507.936	1	-7
508.277	1	-8
508.617	1	-6
508.958	1	2
509.298	1	-2
509.639	1	1
509.979	1	-5
510.319	1	8
510.660	1	-6
511.000	1	-3
511.341	1	-4
511.681	1	8
512.022	1	6
512.362	1	-4
512.702	1	9
513.043	1	0
513.383	1	0
513.724	1	-4
514.064	1	0
514.404	1	14
514.745	1	-3
515.085	1	8
515.425	1	8
515.766	1	0
516.106	1	-3
516.447	1	1
516.787	1	7
517.127	1	2
517.468	1	9
517.808	1	2
518.148	1	7
518.489	1	4
518.829	1	1
519.169	1	1
519.510	1	-3
519.850	1	10
520.190	1	14
520.531	1	11
520.871	1	-4
521.211	1	4
521.552	1	8
521.892	1	10
522.232	1	-12
522.573	1	3
522.913	1	6
523.253	1	8
523.593	1	14
523.934	1	-3
524.274	1	-6
524.614	1	4
524.955	1	-3
525.295	1	10
525.635	1	2
525.975	1	21
526.316	1	-7
526.656	1	6
526.996	1	6
527.337	1	10
527.677	1	2
528.017	1	-1
528.357	1	5
528.698	1	-6
529.038	1	-6
529.378	1	8
529.718	1	6
530.058	1	-3
530.399	1	2
530.739	1	13
531.079	1	4
531.419	1	6
531.760	1	0
532.100	1	-2
532.440	1	10
532.780	1	1
533.120	1	13
533.461	1	4
533.801	1	7
534.141	1	3
534.481	1	0
534.821	1	12
535.162	1	1
535.502	1	-5
535.842	1	9
536.182	1	13
536.522	1	-4
536.862	1	-2
537.203	1	4
537.543	1	6
537.883	1	-7
538.223	1	11
538.563	1	5
538.903	1	13
539.243	1	6
539.584	1	1
539.924	1	2
540.264	1	0
540.604	1	14
540.944	1	3
541.284	1	5
541.624	1	5
541.964	1	3
542.305	1	1
542.645	1	-10
542.985	1	2
543.325	1	5
543.665	1	4
544.005	1	12
544.345	1	5
544.685	1	9
545.025	1	-3
545.365	1	4
545.705	1	-3
546.045	1	-5
546.386	1	-5
546.726	1	4
547.066	1	7
547.406	1	-7
547.746	1	2
548.086	1	-8
548.426	1	4
548.766	1	8
549.106	1	3
549.446	1	2
549.786	1	1
550.126	1	8
550.466	1	5
550.806	1	4
551.146	1	-2
551.486	1	-4
551.826	1	7
552.166	1	2
552.506	1	4
552.846	1	-5
553.186	1	2
553.526	1	5
553.866	1	-8
554.206	1	3
554.546	1	5
554.886	1	0
555.226	1	-4
555.566	1	6
555.906	1	1
556.246	1	-1
556.586	1	2
556.926	1	1
557.266	1	1
557.606	1	0
557.946	1	-2
558.286	1	9
558.626	1	-9
558.966	1	-2
559.306	1	-2
559.646	1	7
559.986	1	-2
560.325	1	-4
560.665	1	9
561.005	1	-4
561.345	1	-2
561.685	1	0
562.025	1	-3
562.365	1	13
562.705	1	4
563.045	1	-2
563.385	1	7
563.725	1	-2
564.064	1	12
564.404	1	4
564.744	1	3
565.084	1	2
565.424	1	-2
565.764	1	6
566.104	1	-2
566.444	1	9
566.783	1	8
567.123	1	4
567.463	1	1
567.803	1	9
568.143	1	0
568.483	1	5
568.823	1	-3
569.162	1	10
569.502	1	0
569.842	1	0
570.182	1	5
570.522	1	-11
570.862	1	17
571.201	1	5
571.541	1	-2
571.881	1	-5
572.221	1	9
572.561	1	6
572.900	1	0
573.240	1	-3
573.580	1	6
573.920	1	6
574.260	1	5
574.599	1	7
574.939	1	6
575.279	1	-6
575.619	1	10
575.959	1	0
576.298	1	0
576.638	1	-2
576.978	1	-5
577.318	1	10
577.657	1	11
577.997	1	4
578.337	1	4
578.677	1	7
579.016	1	-6
579.356	1	11
579.696	1	11
580.036	1	3
580.375	1	0
580.715	1	5
581.055	1	5
581.394	1	4
581.734	1	11
582.074	1	0
582.414	1	-10
582.753	1	3
583.093	1	6
583.433	1	3
583.772	1	5
584.112	1	6
584.452	1	19
584.791	1	3
585.131	1	16
585.471	1	5
585.811	1	5
586.150	1	1
586.490	1	-6
586.830	1	-10
587.169	1	2
587.509	1	5
587.849	1	12
588.188	1	16
588.528	1	7
588.867	1	-4
589.207	1	-10
589.547	1	-4
589.886	1	-1
590.226	1	11
590.566	1	-5
590.905	1	2
591.245	1	-6
591.585	1	3
591.924	1	5
592.264	1	-2
592.603	1	-2
592.943	1	4
593.283	1	-5
593.622	1	16
593.962	1	3
594.301	1	-6
594.641	1	7
594.981	1	-10
595.320	1	13
595.660	1	-4
595.999	1	11
596.339	1	5
596.678	1	-3
597.018	1	4
597.358	1	0
597.697	1	0
598.037	1	10
598.376	1	6
598.716	1	3
599.055	1	-6
599.395	1	-11
599.734	1	-1
600.074	1	7
600.413	1	6
600.753	1	-4
601.092	1	-3
601.432	1	-5
601.771	1	7
602.111	1	2
602.451	1	6
602.790	1	-3
603.130	1	6
603.469	1	2
603.809	1	2
604.148	1	5
604.487	1	9
604.827	1	2
605.166	1	1
605.506	1	6
605.845	1	2
606.185	1	6
606.524	1	7
606.864	1	6
607.203	1	3
607.543	1	-4
607.882	1	9
608.222	1	-10
608.561	1	0
608.901	1	14
609.240	1	-5
609.579	1	4
609.919	1	5
610.258	1	4
610.598	1	4
610.937	1	9
611.277	1	1
611.616	1	-7
611.955	1	-7
612.295	1	9
612.634	1	-8
612.974	1	-1
613.313	1	7
613.652	1	-4
613.992	1	-7
614.331	1	6
614.671	1	2
615.010	1	2
615.349	1	0
615.689	1	1
616.028	1	5
616.368	1	3
616.707	1	15
617.046	1	13
617.386	1	-4
617.725	1	2
618.064	1	0
618.404	1	-2
618.743	1	5
619.082	1	6
619.422	1	3
619.761	1	12
620.100	1	6
620.440	1	9
620.779	1	1
621.118	1	2
621.458	1	9
621.797	1	1
622.136	1	6
622.476	1	9
622.815	1	2
623.154	1	1
623.494	1	3
623.833	1	8
624.172	1	-5
624.511	1	2
624.851	1	-1
625.190	1	-4
625.529	1	-5
625.869	1	1
626.208	1	-4
626.547	1	9
626.886	1	10
627.226	1	-5
627.565	1	3
627.904	1	-8
628.243	1	2
628.583	1	-9
628.922	1	-1
629.261	1	-5
629.600	1	11
629.940	1	5
630.279	1	11
630.618	1	1
630.957	1	-3
631.297	1	0
631.636	1	9
631.975	1	8
632.314	1	2
632.653	1	4
632.993	1	6
633.332	1	0
633.671	1	-1
634.010	1	5
634.349	1	1
634.689	1	15
635.028	1	17
635.367	1	1
635.706	1	-4
636.045	1	9
636.384	1	8
636.724	1	14
637.063	1	2
637.402	1	-7
637.741	1	0
638.080	1	8
638.419	1	2
638.759	1	0
639.098	1	-7
639.437	1	13
639.776	1	6
640.115	1	5
640.454	1	4
640.793	1	-9
641.132	1	12
641.472	1	2
641.811	1	-5
642.150	1	-7
642.489	1	4
642.828	1	-2
643.167	1	3
643.506	1	3
643.845	1	-9
644.184	1	3
644.524	1	3
644.863	1	3
645.202	1	5
645.541	1	3
645.880	1	5
646.219	1	4
646.558	1	0
646.897	1	7
647.236	1	0
647.575	1	-7
647.914	1	-4
648.253	1	0
648.592	1	-5
648.931	1	-3
649.270	1	-3
649.610	1	10
649.949	1	2
650.288	1	4
650.627	1	3
650.966	1	-1
651.305	1	-10
651.644	1	-4
651.983	1	-19
652.322	1	-3
652.661	1	-1
653.000	1	-1
653.339	1	1
653.678	1	-1
654.017	1	-2
654.356	1	2
654.695	1	4
655.034	1	2
655.373	1	4
655.712	1	-7
656.051	1	8
656.390	1	7
656.729	1	2
657.068	1	-1
657.406	1	2
657.745	1	-2
658.084	1	6
658.423	1	2
658.762	1	18
659.101	1	4
659.440	1	-12
659.779	1	0
660.118	1	-6
660.457	1	6
660.796	1	11
661.135	1	9
661.474	1	1
661.813	1	0
662.152	1	5
662.491	1	13
662.829	1	5
663.168	1	-7
663.507	1	8
663.846	1	-1
664.185	1	3
664.524	1	-1
664.863	1	-7
665.202	1	-3
665.541	1	-12
665.879	1	8
666.218	1	7
666.557	1	6
666.896	1	0
667.235	1	-1
667.574	1	14
667.913	1	11
668.251	1	4
668.590	1	1
668.929	1	13
669.268	1	-1
669.607	1	-6
669.946	1	7
670.285	1	9
670.623	1	11
670.962	1	-2
671.301	1	2
671.640	1	-16
671.979	1	-2
672.317	1	-4
672.656	1	-7
672.995	1	2
673.334	1	-6
673.673	1	7
674.011	1	-3
674.350	1	-3
674.689	1	4
675.028	1	6
675.367	1	-4
675.705	1	9
676.044	1	12
676.383	1	2
676.722	1	-4
677.060	1	2
677.399	1	3
677.738	1	-5
678.077	1	-3
678.416	1	3
678.754	1	4
679.093	1	-3
679.432	1	5
679.771	1	2
680.109	1	5
680.448	1	7
680.787	1	13
681.125	1	9
681.464	1	0
681.803	1	-8
682.142	1	-2
682.480	1	6
682.819	1	-3
683.158	1	0
683.496	1	-4
683.835	1	-1
684.174	1	1
684.512	1	15
684.851	1	-8
685.190	1	-1
685.529	1	-7
685.867	1	-2
686.206	1	5
686.545	1	-4
686.883	1	-4
687.222	1	3
687.561	1	13
687.899	1	2
688.238	1	9
688.577	1	-1
688.746	1	-1