File: Data/GaN_130K_350ms/GaN_sample F_spot6_UVVIS_130 K_200um_350 ms 2x2mm1_128.txt
340.368	1	11
340.710	1	11
341.052	1	4
341.394	1	6
341.737	1	6
342.079	1	2
342.421	1	3
342.763	1	10
343.105	1	-1
343.447	1	6
343.789	1	5
344.131	1	5
344.473	1	-2
344.815	1	-17
345.157	1	-9
345.499	1	1
345.841	1	7
346.183	1	10
346.526	1	2
346.868	1	15
347.210	1	6
347.552	1	5
347.894	1	6
348.236	1	-1
348.578	1	7
348.920	1	5
349.262	1	9
349.604	1	11
349.946	1	7
350.288	1	-14
350.630	1	6
350.972	1	6
351.314	1	4
351.656	1	12
351.998	1	4
352.340	1	13
352.682	1	2
353.024	1	5
353.366	1	6
353.708	1	11
354.050	1	7
354.392	1	4
354.734	1	4
355.076	1	1
355.418	1	12
355.760	1	11
356.102	1	3
356.444	1	-3
356.785	1	8
357.127	1	7
357.469	1	3
357.811	1	14
358.153	1	8
358.495	1	14
358.837	1	15
359.179	1	17
359.521	1	4
359.863	1	20
360.205	1	16
360.547	1	14
360.889	1	16
361.231	1	8
361.572	1	24
361.914	1	20
362.256	1	14
362.598	1	24
362.940	1	14
363.282	1	31
363.624	1	29
363.966	1	41
364.308	1	36
364.649	1	48
364.991	1	47
365.333	1	38
365.675	1	46
366.017	1	40
366.359	1	57
366.701	1	51
367.042	1	56
367.384	1	54
367.726	1	60
368.068	1	51
368.410	1	60
368.752	1	69
369.093	1	51
369.435	1	55
369.777	1	62
370.119	1	61
370.461	1	49
370.803	1	44
371.144	1	45
371.486	1	40
371.828	1	52
372.170	1	36
372.512	1	49
372.853	1	30
373.195	1	38
373.537	1	34
373.879	1	40
374.220	1	29
374.562	1	29
374.904	1	33
375.246	1	38
375.588	1	35
375.929	1	23
376.271	1	18
376.613	1	19
376.955	1	35
377.296	1	23
377.638	1	3
377.980	1	16
378.321	1	20
378.663	1	25
379.005	1	29
379.347	1	20
379.688	1	16
380.030	1	18
380.372	1	27
380.714	1	27
381.055	1	21
381.397	1	14
381.739	1	17
382.080	1	15
382.422	1	15
382.764	1	14
383.105	1	15
383.447	1	20
383.789	1	22
384.130	1	19
384.472	1	26
384.814	1	3
385.156	1	12
385.497	1	14
385.839	1	17
386.180	1	17
386.522	1	8
386.864	1	15
387.205	1	-5
387.547	1	9
387.889	1	6
388.230	1	11
388.572	1	16
388.914	1	9
389.255	1	5
389.597	1	-5
389.939	1	19
390.280	1	18
390.622	1	12
390.963	1	17
391.305	1	14
391.647	1	11
391.988	1	18
392.330	1	8
392.671	1	2
393.013	1	10
393.355	1	8
393.696	1	-1
394.038	1	20
394.379	1	12
394.721	1	5
395.062	1	8
395.404	1	0
395.746	1	17
396.087	1	30
396.429	1	11
396.770	1	26
397.112	1	15
397.453	1	15
397.795	1	7
398.136	1	21
398.478	1	10
398.819	1	-6
399.161	1	14
399.503	1	11
399.844	1	1
400.186	1	11
400.527	1	12
400.869	1	16
401.210	1	-7
401.552	1	24
401.893	1	-1
402.235	1	22
402.576	1	8
402.918	1	16
403.259	1	3
403.601	1	12
403.942	1	8
404.284	1	1
404.625	1	17
404.967	1	9
405.308	1	7
405.649	1	9
405.991	1	8
406.332	1	6
406.674	1	19
407.015	1	15
407.357	1	17
407.698	1	4
408.040	1	3
408.381	1	12
408.722	1	18
409.064	1	2
409.405	1	14
409.747	1	6
410.088	1	12
410.430	1	27
410.771	1	-11
411.112	1	8
411.454	1	3
411.795	1	10
412.137	1	2
412.478	1	5
412.819	1	5
413.161	1	18
413.502	1	10
413.844	1	4
414.185	1	20
414.526	1	7
414.868	1	1
415.209	1	0
415.550	1	9
415.892	1	13
416.233	1	10
416.575	1	13
416.916	1	2
417.257	1	5
417.599	1	4
417.940	1	11
418.281	1	12
418.623	1	8
418.964	1	5
419.305	1	3
419.647	1	13
419.988	1	12
420.329	1	14
420.671	1	2
421.012	1	9
421.353	1	7
421.695	1	3
422.036	1	9
422.377	1	5
422.718	1	5
423.060	1	6
423.401	1	12
423.742	1	10
424.084	1	11
424.425	1	8
424.766	1	7
425.107	1	12
425.449	1	4
425.790	1	12
426.131	1	15
426.472	1	12
426.814	1	7
427.155	1	4
427.496	1	6
427.837	1	7
428.179	1	5
428.520	1	5
428.861	1	-6
429.202	1	12
429.544	1	17
429.885	1	5
430.226	1	-3
430.567	1	7
430.909	1	1
431.250	1	15
431.591	1	6
431.932	1	8
432.273	1	15
432.615	1	20
432.956	1	0
433.297	1	19
433.638	1	1
433.979	1	12
434.320	1	11
434.662	1	6
435.003	1	20
435.344	1	15
435.685	1	-12
436.026	1	3
436.368	1	-4
436.709	1	1
437.050	1	11
437.391	1	12
437.732	1	6
438.073	1	12
438.414	1	-3
438.756	1	11
439.097	1	10
439.438	1	5
439.779	1	13
440.120	1	5
440.461	1	14
440.802	1	-4
441.143	1	2
441.485	1	4
441.826	1	11
442.167	1	5
442.508	1	1
442.849	1	9
443.190	1	2
443.531	1	9
443.872	1	4
444.213	1	6
444.554	1	6
444.895	1	1
445.237	1	0
445.578	1	9
445.919	1	5
446.260	1	10
446.601	1	11
446.942	1	12
447.283	1	16
447.624	1	6
447.965	1	10
448.306	1	-1
448.647	1	8
448.988	1	12
449.329	1	-3
449.670	1	10
450.011	1	1
450.352	1	14
450.693	1	9
451.034	1	0
451.375	1	-3
451.716	1	-2
452.057	1	8
452.398	1	-6
452.739	1	14
453.080	1	-2
453.421	1	-1
453.762	1	7
454.103	1	11
454.444	1	5
454.785	1	16
455.126	1	-1
455.467	1	5
455.808	1	16
456.149	1	11
456.490	1	4
456.831	1	10
457.172	1	12
457.513	1	1
457.854	1	1
458.195	1	-7
458.536	1	5
458.877	1	23
459.218	1	10
459.559	1	3
459.899	1	4
460.240	1	10
460.581	1	0
460.922	1	6
461.263	1	9
461.604	1	-8
461.945	1	11
462.286	1	21
462.627	1	1
462.968	1	8
463.309	1	18
463.649	1	-2
463.990	1	10
464.331	1	6
464.672	1	10
465.013	1	6
465.354	1	6
465.695	1	13
466.036	1	10
466.376	1	5
466.717	1	12
467.058	1	7
467.399	1	3
467.740	1	15
468.081	1	11
468.422	1	-3
468.762	1	3
469.103	1	5
469.444	1	10
469.785	1	7
470.126	1	-6
470.467	1	1
470.807	1	10
471.148	1	1
471.489	1	-8
471.830	1	6
472.171	1	1
472.511	1	7
472.852	1	10
473.193	1	6
473.534	1	6
473.875	1	14
474.215	1	11
474.556	1	9
474.897	1	10
475.238	1	18
475.578	1	-1
475.919	1	2
476.260	1	7
476.601	1	1
476.942	1	3
477.282	1	4
477.623	1	-2
477.964	1	3
478.305	1	12
478.645	1	3
478.986	1	-1
479.327	1	6
479.667	1	11
480.008	1	4
480.349	1	2
480.690	1	1
481.030	1	5
481.371	1	13
481.712	1	10
482.053	1	7
482.393	1	10
482.734	1	1
483.075	1	22
483.415	1	5
483.756	1	-2
484.097	1	-9
484.437	1	1
484.778	1	14
485.119	1	12
485.459	1	-2
485.800	1	19
486.141	1	-1
486.481	1	3
486.822	1	10
487.163	1	-3
487.503	1	-3
487.844	1	5
488.185	1	8
488.525	1	7
488.866	1	7
489.207	1	0
489.547	1	6
489.888	1	17
490.228	1	10
490.569	1	10
490.910	1	1
491.250	1	13
491.591	1	2
491.932	1	2
492.272	1	4
492.613	1	2
492.953	1	4
493.294	1	10
493.635	1	6
493.975	1	13
494.316	1	8
494.656	1	10
494.997	1	6
495.337	1	9
495.678	1	7
496.019	1	7
496.359	1	17
496.700	1	6
497.040	1	15
497.381	1	5
497.721	1	11
498.062	1	15
498.403	1	4
498.743	1	19
499.084	1	24
499.424	1	6
499.765	1	3
500.105	1	10
500.446	1	12
500.786	1	19
501.127	1	10
501.467	1	12
501.808	1	13
502.148	1	11
502.489	1	15
502.829	1	5
503.170	1	9
503.510	1	10
503.851	1	13
504.191	1	12
504.532	1	20
504.872	1	6
505.213	1	10
505.553	1	18
505.894	1	17
506.234	1	11
506.575	1	10
506.915	1	17
507.256	1	20
507.596	1	7
507.936	1	13
508.277	1	6
508.617	1	5
508.958	1	18
509.298	1	10
509.639	1	21
509.979	1	23
510.319	1	17
510.660	1	0
511.000	1	12
511.341	1	11
511.681	1	35
512.022	1	16
512.362	1	8
512.702	1	25
513.043	1	20
513.383	1	21
513.724	1	7
514.064	1	11
514.404	1	23
514.745	1	25
515.085	1	34
515.425	1	19
515.766	1	21
516.106	1	22
516.447	1	19
516.787	1	19
517.127	1	18
517.468	1	21
517.808	1	19
518.148	1	14
518.489	1	17
518.829	1	32
519.169	1	24
519.510	1	17
519.850	1	25
520.190	1	23
520.531	1	28
520.871	1	21
521.211	1	27
521.552	1	20
521.892	1	27
522.232	1	7
522.573	1	22
522.913	1	18
523.253	1	24
523.593	1	20
523.934	1	22
524.274	1	18
524.614	1	22
524.955	1	23
525.295	1	23
525.635	1	16
525.975	1	30
526.316	1	15
526.656	1	21
526.996	1	26
527.337	1	21
527.677	1	13
528.017	1	28
528.357	1	14
528.698	1	24
529.038	1	15
529.378	1	21
529.718	1	35
530.058	1	15
530.399	1	16
530.739	1	29
531.079	1	18
531.419	1	24
531.760	1	11
532.100	1	28
532.440	1	21
532.780	1	19
533.120	1	19
533.461	1	19
533.801	1	38
534.141	1	27
534.481	1	24
534.821	1	30
535.162	1	24
535.502	1	27
535.842	1	35
536.182	1	30
536.522	1	8
536.862	1	10
537.203	1	17
537.543	1	21
537.883	1	23
538.223	1	31
538.563	1	21
538.903	1	35
539.243	1	24
539.584	1	21
539.924	1	22
540.264	1	32
540.604	1	23
540.944	1	11
541.284	1	33
541.624	1	31
541.964	1	13
542.305	1	21
542.645	1	12
542.985	1	24
543.325	1	12
543.665	1	25
544.005	1	27
544.345	1	20
544.685	1	21
545.025	1	8
545.365	1	25
545.705	1	17
546.045	1	9
546.386	1	16
546.726	1	-3
547.066	1	14
547.406	1	9
547.746	1	17
548.086	1	5
548.426	1	24
548.766	1	18
549.106	1	11
549.446	1	15
549.786	1	24
550.126	1	24
550.466	1	19
550.806	1	17
551.146	1	20
551.486	1	15
551.826	1	14
552.166	1	23
552.506	1	17
552.846	1	5
553.186	1	11
553.526	1	14
553.866	1	8
554.206	1	14
554.546	1	25
554.886	1	19
555.226	1	16
555.566	1	19
555.906	1	18
556.246	1	24
556.586	1	16
556.926	1	11
557.266	1	15
557.606	1	18
557.946	1	23
558.286	1	21
558.626	1	-1
558.966	1	12
559.306	1	9
559.646	1	22
559.986	1	16
560.325	1	11
560.665	1	21
561.005	1	18
561.345	1	10
561.685	1	18
562.025	1	14
562.365	1	7
562.705	1	14
563.045	1	16
563.385	1	19
563.725	1	10
564.064	1	17
564.404	1	10
564.744	1	19
565.084	1	12
565.424	1	14
565.764	1	16
566.104	1	17
566.444	1	27
566.783	1	22
567.123	1	15
567.463	1	1
567.803	1	9
568.143	1	25
568.483	1	14
568.823	1	-3
569.162	1	16
569.502	1	11
569.842	1	8
570.182	1	7
570.522	1	3
570.862	1	17
571.201	1	9
571.541	1	6
571.881	1	13
572.221	1	15
572.561	1	11
572.900	1	9
573.240	1	2
573.580	1	13
573.920	1	19
574.260	1	8
574.599	1	21
574.939	1	12
575.279	1	-4
575.619	1	13
575.959	1	9
576.298	1	10
576.638	1	1
576.978	1	1
577.318	1	12
577.657	1	19
577.997	1	13
578.337	1	13
578.677	1	15
579.016	1	14
579.356	1	6
579.696	1	6
580.036	1	-1
580.375	1	2
580.715	1	15
581.055	1	1
581.394	1	8
581.734	1	14
582.074	1	1
582.414	1	-3
582.753	1	10
583.093	1	5
583.433	1	12
583.772	1	4
584.112	1	15
584.452	1	17
584.791	1	12
585.131	1	10
585.471	1	7
585.811	1	11
586.150	1	14
586.490	1	13
586.830	1	3
587.169	1	10
587.509	1	11
587.849	1	11
588.188	1	21
588.528	1	13
588.867	1	8
589.207	1	6
589.547	1	1
589.886	1	2
590.226	1	18
590.566	1	6
590.905	1	16
591.245	1	8
591.585	1	16
591.924	1	1
592.264	1	11
592.603	1	-2
592.943	1	2
593.283	1	-7
593.622	1	16
593.962	1	16
594.301	1	-2
594.641	1	12
594.981	1	-4
595.320	1	12
595.660	1	7
595.999	1	9
596.339	1	6
596.678	1	1
597.018	1	14
597.358	1	2
597.697	1	3
598.037	1	7
598.376	1	4
598.716	1	11
599.055	1	3
599.395	1	2
599.734	1	6
600.074	1	4
600.413	1	13
600.753	1	11
601.092	1	8
601.432	1	3
601.771	1	14
602.111	1	15
602.451	1	9
602.790	1	4
603.130	1	5
603.469	1	6
603.809	1	7
604.148	1	6
604.487	1	17
604.827	1	8
605.166	1	5
605.506	1	16
605.845	1	0
606.185	1	0
606.524	1	6
606.864	1	20
607.203	1	7
607.543	1	4
607.882	1	11
608.222	1	-9
608.561	1	6
608.901	1	7
609.240	1	2
609.579	1	8
609.919	1	0
610.258	1	-3
610.598	1	11
610.937	1	17
611.277	1	12
611.616	1	-13
611.955	1	6
612.295	1	11
612.634	1	-3
612.974	1	11
613.313	1	0
613.652	1	8
613.992	1	-1
614.331	1	9
614.671	1	0
615.010	1	3
615.349	1	2
615.689	1	16
616.028	1	11
616.368	1	3
616.707	1	13
617.046	1	6
617.386	1	-3
617.725	1	13
618.064	1	6
618.404	1	11
618.743	1	12
619.082	1	8
619.422	1	3
619.761	1	6
620.100	1	2
620.440	1	15
620.779	1	7
621.118	1	0
621.458	1	11
621.797	1	-3
622.136	1	9
622.476	1	3
622.815	1	2
623.154	1	-6
623.494	1	10
623.833	1	13
624.172	1	10
624.511	1	6
624.851	1	2
625.190	1	0
625.529	1	3
625.869	1	10
626.208	1	0
626.547	1	10
626.886	1	0
627.226	1	-2
627.565	1	5
627.904	1	8
628.243	1	10
628.583	1	-11
628.922	1	-7
629.261	1	-3
629.600	1	4
629.940	1	11
630.279	1	20
630.618	1	5
630.957	1	0
631.297	1	2
631.636	1	10
631.975	1	19
632.314	1	0
632.653	1	1
632.993	1	13
633.332	1	3
633.671	1	1
634.010	1	0
634.349	1	4
634.689	1	11
635.028	1	17
635.367	1	-2
635.706	1	0
636.045	1	13
636.384	1	3
636.724	1	9
637.063	1	4
637.402	1	-1
637.741	1	7
638.080	1	15
638.419	1	14
638.759	1	1
639.098	1	-1
639.437	1	6
639.776	1	0
640.115	1	10
640.454	1	16
640.793	1	-7
641.132	1	6
641.472	1	5
641.811	1	2
642.150	1	-9
642.489	1	-7
642.828	1	6
643.167	1	7
643.506	1	8
643.845	1	-7
644.184	1	-6
644.524	1	7
644.863	1	3
645.202	1	9
645.541	1	3
645.880	1	7
646.219	1	-4
646.558	1	2
646.897	1	6
647.236	1	-1
647.575	1	-1
647.914	1	-3
648.253	1	13
648.592	1	4
648.931	1	-6
649.270	1	-1
649.610	1	0
649.949	1	8
650.288	1	10
650.627	1	3
650.966	1	9
651.305	1	-2
651.644	1	7
651.983	1	-5
652.322	1	-1
652.661	1	0
653.000	1	10
653.339	1	5
653.678	1	6
654.017	1	0
654.356	1	12
654.695	1	0
655.034	1	3
655.373	1	4
655.712	1	0
656.051	1	14
656.390	1	11
656.729	1	12
657.068	1	-6
657.406	1	7
657.745	1	2
658.084	1	2
658.423	1	3
658.762	1	10
659.101	1	6
659.440	1	-2
659.779	1	1
660.118	1	-2
660.457	1	-3
660.796	1	7
661.135	1	12
661.474	1	7
661.813	1	-4
662.152	1	1
662.491	1	15
662.829	1	13
663.168	1	0
663.507	1	-1
663.846	1	1
664.185	1	-1
664.524	1	-2
664.863	1	5
665.202	1	-1
665.541	1	-5
665.879	1	-1
666.218	1	2
666.557	1	11
666.896	1	6
667.235	1	8
667.574	1	15
667.913	1	15
668.251	1	8
668.590	1	2
668.929	1	5
669.268	1	-3
669.607	1	-7
669.946	1	10
670.285	1	7
670.623	1	12
670.962	1	9
671.301	1	6
671.640	1	1
671.979	1	6
672.317	1	0
672.656	1	0
672.995	1	2
673.334	1	2
673.673	1	12
674.011	1	5
674.350	1	5
674.689	1	5
675.028	1	15
675.367	1	-8
675.705	1	12
676.044	1	7
676.383	1	6
676.722	1	7
677.060	1	11
677.399	1	7
677.738	1	8
678.077	1	11
678.416	1	7
678.754	1	4
679.093	1	1
679.432	1	9
679.771	1	8
680.109	1	8
680.448	1	-2
680.787	1	2
681.125	1	9
681.464	1	-9
681.803	1	-2
682.142	1	1
682.480	1	16
682.819	1	3
683.158	1	2
683.496	1	2
683.835	1	-7
684.174	1	4
684.512	1	5
684.851	1	2
685.190	1	7
685.529	1	-1
685.867	1	6
686.206	1	9
686.545	1	3
686.883	1	2
687.222	1	2
687.561	1	3
687.899	1	9
688.238	1	10
688.577	1	0
688.746	1	9