File: Data/GaN_130K_350ms/GaN_sample F_spot6_UVVIS_130 K_200um_350 ms 2x2mm1_170.txt
340.368	1	6
340.710	1	4
341.052	1	1
341.394	1	-4
341.737	1	1
342.079	1	5
342.421	1	5
342.763	1	5
343.105	1	-6
343.447	1	11
343.789	1	4
344.131	1	3
344.473	1	3
344.815	1	-11
345.157	1	-15
345.499	1	-5
345.841	1	-2
346.183	1	11
346.526	1	6
346.868	1	7
347.210	1	0
347.552	1	4
347.894	1	2
348.236	1	3
348.578	1	0
348.920	1	5
349.262	1	4
349.604	1	6
349.946	1	8
350.288	1	1
350.630	1	7
350.972	1	6
351.314	1	-5
351.656	1	4
351.998	1	4
352.340	1	17
352.682	1	1
353.024	1	2
353.366	1	4
353.708	1	-7
354.050	1	5
354.392	1	8
354.734	1	-1
355.076	1	8
355.418	1	11
355.760	1	10
356.102	1	1
356.444	1	-5
356.785	1	7
357.127	1	15
357.469	1	3
357.811	1	10
358.153	1	2
358.495	1	16
358.837	1	11
359.179	1	4
359.521	1	-1
359.863	1	3
360.205	1	3
360.547	1	8
360.889	1	3
361.231	1	-4
361.572	1	12
361.914	1	12
362.256	1	12
362.598	1	12
362.940	1	6
363.282	1	15
363.624	1	22
363.966	1	19
364.308	1	28
364.649	1	26
364.991	1	24
365.333	1	15
365.675	1	20
366.017	1	26
366.359	1	28
366.701	1	29
367.042	1	39
367.384	1	35
367.726	1	36
368.068	1	22
368.410	1	36
368.752	1	40
369.093	1	50
369.435	1	21
369.777	1	30
370.119	1	33
370.461	1	33
370.803	1	17
371.144	1	26
371.486	1	20
371.828	1	24
372.170	1	21
372.512	1	22
372.853	1	9
373.195	1	12
373.537	1	21
373.879	1	23
374.220	1	16
374.562	1	3
374.904	1	24
375.246	1	29
375.588	1	16
375.929	1	7
376.271	1	17
376.613	1	3
376.955	1	12
377.296	1	11
377.638	1	6
377.980	1	-2
378.321	1	18
378.663	1	14
379.005	1	28
379.347	1	11
379.688	1	-3
380.030	1	-2
380.372	1	21
380.714	1	21
381.055	1	7
381.397	1	9
381.739	1	12
382.080	1	2
382.422	1	15
382.764	1	4
383.105	1	8
383.447	1	6
383.789	1	14
384.130	1	4
384.472	1	15
384.814	1	11
385.156	1	9
385.497	1	12
385.839	1	9
386.180	1	10
386.522	1	11
386.864	1	18
387.205	1	1
387.547	1	18
387.889	1	8
388.230	1	3
388.572	1	21
388.914	1	8
389.255	1	9
389.597	1	-5
389.939	1	17
390.280	1	12
390.622	1	9
390.963	1	11
391.305	1	13
391.647	1	14
391.988	1	6
392.330	1	13
392.671	1	-4
393.013	1	4
393.355	1	0
393.696	1	-3
394.038	1	15
394.379	1	4
394.721	1	13
395.062	1	5
395.404	1	5
395.746	1	17
396.087	1	11
396.429	1	5
396.770	1	17
397.112	1	2
397.453	1	13
397.795	1	8
398.136	1	14
398.478	1	8
398.819	1	-8
399.161	1	10
399.503	1	14
399.844	1	11
400.186	1	-7
400.527	1	17
400.869	1	6
401.210	1	-3
401.552	1	10
401.893	1	-13
402.235	1	11
402.576	1	3
402.918	1	13
403.259	1	4
403.601	1	7
403.942	1	6
404.284	1	4
404.625	1	12
404.967	1	1
405.308	1	1
405.649	1	12
405.991	1	13
406.332	1	5
406.674	1	11
407.015	1	11
407.357	1	8
407.698	1	2
408.040	1	9
408.381	1	6
408.722	1	8
409.064	1	8
409.405	1	14
409.747	1	1
410.088	1	16
410.430	1	7
410.771	1	1
411.112	1	7
411.454	1	13
411.795	1	17
412.137	1	-2
412.478	1	4
412.819	1	9
413.161	1	9
413.502	1	10
413.844	1	11
414.185	1	9
414.526	1	2
414.868	1	4
415.209	1	-1
415.550	1	5
415.892	1	9
416.233	1	12
416.575	1	10
416.916	1	-2
417.257	1	14
417.599	1	1
417.940	1	7
418.281	1	3
418.623	1	10
418.964	1	4
419.305	1	10
419.647	1	7
419.988	1	13
420.329	1	15
420.671	1	4
421.012	1	-2
421.353	1	2
421.695	1	4
422.036	1	12
422.377	1	11
422.718	1	-2
423.060	1	-1
423.401	1	7
423.742	1	7
424.084	1	7
424.425	1	9
424.766	1	8
425.107	1	11
425.449	1	20
425.790	1	18
426.131	1	11
426.472	1	2
426.814	1	9
427.155	1	6
427.496	1	6
427.837	1	17
428.179	1	12
428.520	1	10
428.861	1	7
429.202	1	9
429.544	1	12
429.885	1	13
430.226	1	9
430.567	1	-1
430.909	1	14
431.250	1	5
431.591	1	6
431.932	1	1
432.273	1	15
432.615	1	13
432.956	1	-1
433.297	1	15
433.638	1	4
433.979	1	12
434.320	1	4
434.662	1	8
435.003	1	22
435.344	1	12
435.685	1	0
436.026	1	0
436.368	1	6
436.709	1	8
437.050	1	5
437.391	1	3
437.732	1	2
438.073	1	13
438.414	1	4
438.756	1	-2
439.097	1	2
439.438	1	1
439.779	1	4
440.120	1	7
440.461	1	18
440.802	1	-3
441.143	1	0
441.485	1	14
441.826	1	1
442.167	1	3
442.508	1	2
442.849	1	4
443.190	1	2
443.531	1	-1
443.872	1	6
444.213	1	8
444.554	1	2
444.895	1	2
445.237	1	-1
445.578	1	2
445.919	1	3
446.260	1	3
446.601	1	7
446.942	1	-2
447.283	1	16
447.624	1	3
447.965	1	5
448.306	1	0
448.647	1	10
448.988	1	7
449.329	1	-1
449.670	1	-3
450.011	1	-1
450.352	1	1
450.693	1	1
451.034	1	-7
451.375	1	8
451.716	1	-4
452.057	1	12
452.398	1	-8
452.739	1	10
453.080	1	5
453.421	1	0
453.762	1	14
454.103	1	4
454.444	1	16
454.785	1	10
455.126	1	1
455.467	1	6
455.808	1	8
456.149	1	-7
456.490	1	14
456.831	1	0
457.172	1	0
457.513	1	-2
457.854	1	2
458.195	1	-6
458.536	1	14
458.877	1	17
459.218	1	5
459.559	1	9
459.899	1	5
460.240	1	21
460.581	1	5
460.922	1	6
461.263	1	6
461.604	1	-9
461.945	1	14
462.286	1	9
462.627	1	4
462.968	1	4
463.309	1	4
463.649	1	5
463.990	1	0
464.331	1	4
464.672	1	5
465.013	1	-5
465.354	1	6
465.695	1	20
466.036	1	6
466.376	1	4
466.717	1	11
467.058	1	8
467.399	1	1
467.740	1	21
468.081	1	2
468.422	1	0
468.762	1	-2
469.103	1	9
469.444	1	-3
469.785	1	11
470.126	1	-10
470.467	1	4
470.807	1	-2
471.148	1	8
471.489	1	1
471.830	1	9
472.171	1	5
472.511	1	-5
472.852	1	9
473.193	1	12
473.534	1	12
473.875	1	9
474.215	1	6
474.556	1	10
474.897	1	-4
475.238	1	12
475.578	1	11
475.919	1	-6
476.260	1	1
476.601	1	-2
476.942	1	9
477.282	1	15
477.623	1	-12
477.964	1	3
478.305	1	15
478.645	1	11
478.986	1	-5
479.327	1	-2
479.667	1	1
480.008	1	2
480.349	1	3
480.690	1	6
481.030	1	-1
481.371	1	12
481.712	1	8
482.053	1	-5
482.393	1	12
482.734	1	7
483.075	1	13
483.415	1	4
483.756	1	-2
484.097	1	-3
484.437	1	-8
484.778	1	12
485.119	1	9
485.459	1	-1
485.800	1	9
486.141	1	5
486.481	1	-3
486.822	1	17
487.163	1	0
487.503	1	-1
487.844	1	4
488.185	1	2
488.525	1	10
488.866	1	-1
489.207	1	3
489.547	1	4
489.888	1	12
490.228	1	7
490.569	1	4
490.910	1	-6
491.250	1	6
491.591	1	-6
491.932	1	5
492.272	1	-1
492.613	1	6
492.953	1	-2
493.294	1	9
493.635	1	7
493.975	1	9
494.316	1	6
494.656	1	-2
494.997	1	3
495.337	1	-8
495.678	1	5
496.019	1	8
496.359	1	12
496.700	1	4
497.040	1	3
497.381	1	-2
497.721	1	5
498.062	1	5
498.403	1	3
498.743	1	5
499.084	1	19
499.424	1	-6
499.765	1	9
500.105	1	-1
500.446	1	7
500.786	1	9
501.127	1	2
501.467	1	8
501.808	1	9
502.148	1	9
502.489	1	0
502.829	1	-3
503.170	1	-1
503.510	1	10
503.851	1	8
504.191	1	3
504.532	1	8
504.872	1	1
505.213	1	2
505.553	1	14
505.894	1	11
506.234	1	10
506.575	1	9
506.915	1	2
507.256	1	9
507.596	1	-3
507.936	1	-1
508.277	1	6
508.617	1	9
508.958	1	14
509.298	1	7
509.639	1	20
509.979	1	10
510.319	1	17
510.660	1	2
511.000	1	12
511.341	1	7
511.681	1	15
512.022	1	14
512.362	1	6
512.702	1	20
513.043	1	14
513.383	1	21
513.724	1	4
514.064	1	3
514.404	1	15
514.745	1	7
515.085	1	11
515.425	1	9
515.766	1	19
516.106	1	1
516.447	1	6
516.787	1	5
517.127	1	10
517.468	1	16
517.808	1	5
518.148	1	12
518.489	1	16
518.829	1	13
519.169	1	10
519.510	1	3
519.850	1	19
520.190	1	21
520.531	1	18
520.871	1	3
521.211	1	16
521.552	1	18
521.892	1	18
522.232	1	3
522.573	1	5
522.913	1	25
523.253	1	5
523.593	1	21
523.934	1	12
524.274	1	15
524.614	1	11
524.955	1	20
525.295	1	15
525.635	1	6
525.975	1	16
526.316	1	7
526.656	1	12
526.996	1	12
527.337	1	17
527.677	1	7
528.017	1	3
528.357	1	16
528.698	1	3
529.038	1	8
529.378	1	15
529.718	1	15
530.058	1	12
530.399	1	11
530.739	1	-1
531.079	1	14
531.419	1	14
531.760	1	2
532.100	1	11
532.440	1	21
532.780	1	11
533.120	1	21
533.461	1	7
533.801	1	19
534.141	1	16
534.481	1	6
534.821	1	10
535.162	1	16
535.502	1	8
535.842	1	14
536.182	1	19
536.522	1	5
536.862	1	-1
537.203	1	6
537.543	1	21
537.883	1	2
538.223	1	13
538.563	1	22
538.903	1	24
539.243	1	9
539.584	1	22
539.924	1	8
540.264	1	9
540.604	1	11
540.944	1	18
541.284	1	6
541.624	1	24
541.964	1	0
542.305	1	12
542.645	1	5
542.985	1	18
543.325	1	8
543.665	1	11
544.005	1	19
544.345	1	11
544.685	1	17
545.025	1	5
545.365	1	18
545.705	1	6
546.045	1	8
546.386	1	11
546.726	1	7
547.066	1	13
547.406	1	2
547.746	1	4
548.086	1	2
548.426	1	12
548.766	1	4
549.106	1	8
549.446	1	3
549.786	1	17
550.126	1	13
550.466	1	14
550.806	1	19
551.146	1	14
551.486	1	12
551.826	1	11
552.166	1	20
552.506	1	12
552.846	1	2
553.186	1	9
553.526	1	10
553.866	1	-8
554.206	1	7
554.546	1	7
554.886	1	7
555.226	1	4
555.566	1	5
555.906	1	0
556.246	1	11
556.586	1	8
556.926	1	10
557.266	1	8
557.606	1	-1
557.946	1	4
558.286	1	17
558.626	1	9
558.966	1	1
559.306	1	12
559.646	1	9
559.986	1	5
560.325	1	-2
560.665	1	15
561.005	1	12
561.345	1	15
561.685	1	6
562.025	1	4
562.365	1	14
562.705	1	9
563.045	1	5
563.385	1	7
563.725	1	1
564.064	1	14
564.404	1	10
564.744	1	10
565.084	1	-1
565.424	1	3
565.764	1	11
566.104	1	0
566.444	1	15
566.783	1	9
567.123	1	4
567.463	1	12
567.803	1	19
568.143	1	11
568.483	1	9
568.823	1	-5
569.162	1	10
569.502	1	12
569.842	1	-4
570.182	1	-1
570.522	1	-8
570.862	1	10
571.201	1	14
571.541	1	-1
571.881	1	14
572.221	1	9
572.561	1	10
572.900	1	5
573.240	1	-9
573.580	1	8
573.920	1	14
574.260	1	6
574.599	1	6
574.939	1	14
575.279	1	-9
575.619	1	15
575.959	1	6
576.298	1	10
576.638	1	3
576.978	1	-4
577.318	1	12
577.657	1	18
577.997	1	7
578.337	1	3
578.677	1	9
579.016	1	3
579.356	1	7
579.696	1	-1
580.036	1	-3
580.375	1	1
580.715	1	5
581.055	1	6
581.394	1	7
581.734	1	10
582.074	1	-1
582.414	1	1
582.753	1	4
583.093	1	2
583.433	1	5
583.772	1	7
584.112	1	0
584.452	1	11
584.791	1	8
585.131	1	6
585.471	1	1
585.811	1	2
586.150	1	8
586.490	1	5
586.830	1	0
587.169	1	6
587.509	1	10
587.849	1	7
588.188	1	5
588.528	1	12
588.867	1	-4
589.207	1	-4
589.547	1	-7
589.886	1	-4
590.226	1	11
590.566	1	9
590.905	1	8
591.245	1	7
591.585	1	12
591.924	1	1
592.264	1	2
592.603	1	2
592.943	1	10
593.283	1	2
593.622	1	9
593.962	1	11
594.301	1	-4
594.641	1	3
594.981	1	-9
595.320	1	4
595.660	1	1
595.999	1	12
596.339	1	7
596.678	1	6
597.018	1	10
597.358	1	0
597.697	1	1
598.037	1	2
598.376	1	8
598.716	1	1
599.055	1	11
599.395	1	5
599.734	1	3
600.074	1	6
600.413	1	16
600.753	1	0
601.092	1	-8
601.432	1	-6
601.771	1	4
602.111	1	5
602.451	1	-6
602.790	1	7
603.130	1	2
603.469	1	-2
603.809	1	6
604.148	1	13
604.487	1	9
604.827	1	-5
605.166	1	17
605.506	1	3
605.845	1	-6
606.185	1	9
606.524	1	8
606.864	1	19
607.203	1	5
607.543	1	3
607.882	1	15
608.222	1	-11
608.561	1	-2
608.901	1	11
609.240	1	-4
609.579	1	12
609.919	1	7
610.258	1	7
610.598	1	8
610.937	1	-1
611.277	1	10
611.616	1	4
611.955	1	0
612.295	1	-4
612.634	1	9
612.974	1	1
613.313	1	0
613.652	1	-3
613.992	1	1
614.331	1	7
614.671	1	3
615.010	1	2
615.349	1	-1
615.689	1	14
616.028	1	11
616.368	1	7
616.707	1	12
617.046	1	5
617.386	1	-3
617.725	1	2
618.064	1	15
618.404	1	1
618.743	1	14
619.082	1	-1
619.422	1	3
619.761	1	18
620.100	1	0
620.440	1	-1
620.779	1	2
621.118	1	5
621.458	1	6
621.797	1	-4
622.136	1	6
622.476	1	3
622.815	1	7
623.154	1	0
623.494	1	5
623.833	1	5
624.172	1	5
624.511	1	11
624.851	1	0
625.190	1	4
625.529	1	-1
625.869	1	7
626.208	1	-1
626.547	1	6
626.886	1	-5
627.226	1	6
627.565	1	0
627.904	1	7
628.243	1	9
628.583	1	-5
628.922	1	-7
629.261	1	-7
629.600	1	0
629.940	1	11
630.279	1	19
630.618	1	1
630.957	1	-4
631.297	1	8
631.636	1	11
631.975	1	1
632.314	1	-5
632.653	1	5
632.993	1	9
633.332	1	2
633.671	1	-1
634.010	1	-13
634.349	1	0
634.689	1	14
635.028	1	10
635.367	1	12
635.706	1	-2
636.045	1	13
636.384	1	2
636.724	1	7
637.063	1	9
637.402	1	1
637.741	1	15
638.080	1	10
638.419	1	8
638.759	1	3
639.098	1	4
639.437	1	11
639.776	1	-6
640.115	1	7
640.454	1	10
640.793	1	-11
641.132	1	14
641.472	1	5
641.811	1	4
642.150	1	-8
642.489	1	-13
642.828	1	2
643.167	1	1
643.506	1	14
643.845	1	-3
644.184	1	5
644.524	1	-1
644.863	1	1
645.202	1	14
645.541	1	1
645.880	1	8
646.219	1	3
646.558	1	4
646.897	1	-1
647.236	1	-6
647.575	1	-8
647.914	1	2
648.253	1	4
648.592	1	-3
648.931	1	5
649.270	1	-3
649.610	1	2
649.949	1	9
650.288	1	12
650.627	1	5
650.966	1	4
651.305	1	0
651.644	1	5
651.983	1	-5
652.322	1	4
652.661	1	2
653.000	1	4
653.339	1	2
653.678	1	1
654.017	1	-5
654.356	1	0
654.695	1	-4
655.034	1	-1
655.373	1	12
655.712	1	4
656.051	1	8
656.390	1	0
656.729	1	5
657.068	1	0
657.406	1	4
657.745	1	-6
658.084	1	1
658.423	1	2
658.762	1	11
659.101	1	-1
659.440	1	1
659.779	1	-1
660.118	1	-8
660.457	1	7
660.796	1	-1
661.135	1	6
661.474	1	1
661.813	1	0
662.152	1	3
662.491	1	15
662.829	1	10
663.168	1	1
663.507	1	10
663.846	1	2
664.185	1	-13
664.524	1	-13
664.863	1	-3
665.202	1	1
665.541	1	-12
665.879	1	4
666.218	1	8
666.557	1	5
666.896	1	17
667.235	1	-2
667.574	1	16
667.913	1	1
668.251	1	0
668.590	1	4
668.929	1	5
669.268	1	-8
669.607	1	-1
669.946	1	15
670.285	1	6
670.623	1	17
670.962	1	-2
671.301	1	0
671.640	1	-7
671.979	1	-3
672.317	1	-1
672.656	1	-2
672.995	1	11
673.334	1	0
673.673	1	14
674.011	1	3
674.350	1	9
674.689	1	6
675.028	1	12
675.367	1	0
675.705	1	14
676.044	1	-1
676.383	1	2
676.722	1	-1
677.060	1	-1
677.399	1	9
677.738	1	5
678.077	1	1
678.416	1	1
678.754	1	6
679.093	1	3
679.432	1	11
679.771	1	9
680.109	1	4
680.448	1	7
680.787	1	8
681.125	1	14
681.464	1	-1
681.803	1	3
682.142	1	-8
682.480	1	11
682.819	1	-5
683.158	1	9
683.496	1	0
683.835	1	-2
684.174	1	1
684.512	1	6
684.851	1	-1
685.190	1	5
685.529	1	-5
685.867	1	1
686.206	1	10
686.545	1	11
686.883	1	-5
687.222	1	-1
687.561	1	11
687.899	1	-4
688.238	1	11
688.577	1	-2
688.746	1	2