File: Data/GaN_130K_350ms/GaN_sample F_spot6_UVVIS_130 K_200um_350 ms 2x2mm1_117.txt
340.368	1	0
340.710	1	9
341.052	1	-8
341.394	1	6
341.737	1	8
342.079	1	5
342.421	1	10
342.763	1	-3
343.105	1	-7
343.447	1	4
343.789	1	2
344.131	1	9
344.473	1	0
344.815	1	5
345.157	1	-6
345.499	1	3
345.841	1	-1
346.183	1	11
346.526	1	1
346.868	1	6
347.210	1	0
347.552	1	-2
347.894	1	9
348.236	1	-6
348.578	1	3
348.920	1	6
349.262	1	17
349.604	1	7
349.946	1	13
350.288	1	-4
350.630	1	6
350.972	1	8
351.314	1	11
351.656	1	13
351.998	1	11
352.340	1	17
352.682	1	9
353.024	1	4
353.366	1	14
353.708	1	4
354.050	1	14
354.392	1	15
354.734	1	-3
355.076	1	2
355.418	1	19
355.760	1	0
356.102	1	1
356.444	1	3
356.785	1	15
357.127	1	14
357.469	1	-1
357.811	1	11
358.153	1	14
358.495	1	20
358.837	1	10
359.179	1	18
359.521	1	9
359.863	1	10
360.205	1	14
360.547	1	17
360.889	1	17
361.231	1	19
361.572	1	29
361.914	1	29
362.256	1	30
362.598	1	27
362.940	1	29
363.282	1	33
363.624	1	43
363.966	1	46
364.308	1	45
364.649	1	53
364.991	1	47
365.333	1	47
365.675	1	54
366.017	1	63
366.359	1	76
366.701	1	74
367.042	1	83
367.384	1	89
367.726	1	75
368.068	1	73
368.410	1	72
368.752	1	77
369.093	1	72
369.435	1	74
369.777	1	69
370.119	1	79
370.461	1	61
370.803	1	64
371.144	1	59
371.486	1	53
371.828	1	62
372.170	1	44
372.512	1	49
372.853	1	38
373.195	1	47
373.537	1	45
373.879	1	49
374.220	1	42
374.562	1	34
374.904	1	46
375.246	1	43
375.588	1	31
375.929	1	26
376.271	1	36
376.613	1	26
376.955	1	30
377.296	1	33
377.638	1	21
377.980	1	10
378.321	1	27
378.663	1	36
379.005	1	29
379.347	1	21
379.688	1	24
380.030	1	23
380.372	1	24
380.714	1	35
381.055	1	25
381.397	1	21
381.739	1	21
382.080	1	7
382.422	1	31
382.764	1	18
383.105	1	22
383.447	1	19
383.789	1	30
384.130	1	20
384.472	1	22
384.814	1	18
385.156	1	22
385.497	1	13
385.839	1	26
386.180	1	21
386.522	1	13
386.864	1	17
387.205	1	12
387.547	1	17
387.889	1	13
388.230	1	8
388.572	1	21
388.914	1	22
389.255	1	21
389.597	1	3
389.939	1	18
390.280	1	21
390.622	1	21
390.963	1	29
391.305	1	8
391.647	1	10
391.988	1	23
392.330	1	9
392.671	1	14
393.013	1	19
393.355	1	9
393.696	1	10
394.038	1	23
394.379	1	16
394.721	1	20
395.062	1	9
395.404	1	8
395.746	1	19
396.087	1	21
396.429	1	26
396.770	1	14
397.112	1	14
397.453	1	15
397.795	1	12
398.136	1	15
398.478	1	11
398.819	1	0
399.161	1	17
399.503	1	26
399.844	1	12
400.186	1	7
400.527	1	17
400.869	1	19
401.210	1	10
401.552	1	15
401.893	1	5
402.235	1	17
402.576	1	11
402.918	1	19
403.259	1	6
403.601	1	16
403.942	1	3
404.284	1	12
404.625	1	12
404.967	1	6
405.308	1	10
405.649	1	-4
405.991	1	11
406.332	1	11
406.674	1	14
407.015	1	13
407.357	1	5
407.698	1	8
408.040	1	14
408.381	1	21
408.722	1	8
409.064	1	25
409.405	1	14
409.747	1	4
410.088	1	17
410.430	1	16
410.771	1	-2
411.112	1	6
411.454	1	2
411.795	1	16
412.137	1	8
412.478	1	0
412.819	1	14
413.161	1	17
413.502	1	14
413.844	1	9
414.185	1	20
414.526	1	12
414.868	1	8
415.209	1	10
415.550	1	10
415.892	1	11
416.233	1	15
416.575	1	7
416.916	1	-6
417.257	1	10
417.599	1	8
417.940	1	13
418.281	1	11
418.623	1	1
418.964	1	6
419.305	1	7
419.647	1	22
419.988	1	19
420.329	1	16
420.671	1	1
421.012	1	8
421.353	1	7
421.695	1	10
422.036	1	5
422.377	1	11
422.718	1	6
423.060	1	14
423.401	1	10
423.742	1	6
424.084	1	11
424.425	1	17
424.766	1	5
425.107	1	6
425.449	1	12
425.790	1	14
426.131	1	20
426.472	1	5
426.814	1	9
427.155	1	4
427.496	1	11
427.837	1	6
428.179	1	6
428.520	1	10
428.861	1	4
429.202	1	5
429.544	1	17
429.885	1	10
430.226	1	-1
430.567	1	11
430.909	1	13
431.250	1	19
431.591	1	0
431.932	1	6
432.273	1	13
432.615	1	18
432.956	1	5
433.297	1	17
433.638	1	8
433.979	1	7
434.320	1	8
434.662	1	6
435.003	1	10
435.344	1	16
435.685	1	0
436.026	1	10
436.368	1	11
436.709	1	3
437.050	1	12
437.391	1	15
437.732	1	13
438.073	1	17
438.414	1	-1
438.756	1	8
439.097	1	7
439.438	1	19
439.779	1	19
440.120	1	4
440.461	1	23
440.802	1	-2
441.143	1	-3
441.485	1	10
441.826	1	7
442.167	1	16
442.508	1	6
442.849	1	14
443.190	1	7
443.531	1	-1
443.872	1	17
444.213	1	-1
444.554	1	5
444.895	1	5
445.237	1	1
445.578	1	-7
445.919	1	-1
446.260	1	-2
446.601	1	11
446.942	1	1
447.283	1	6
447.624	1	15
447.965	1	6
448.306	1	14
448.647	1	17
448.988	1	10
449.329	1	3
449.670	1	3
450.011	1	8
450.352	1	14
450.693	1	8
451.034	1	0
451.375	1	15
451.716	1	-1
452.057	1	17
452.398	1	2
452.739	1	8
453.080	1	8
453.421	1	9
453.762	1	5
454.103	1	2
454.444	1	0
454.785	1	18
455.126	1	-6
455.467	1	5
455.808	1	9
456.149	1	0
456.490	1	8
456.831	1	4
457.172	1	17
457.513	1	-3
457.854	1	10
458.195	1	-6
458.536	1	8
458.877	1	14
459.218	1	14
459.559	1	3
459.899	1	12
460.240	1	15
460.581	1	-4
460.922	1	5
461.263	1	9
461.604	1	-4
461.945	1	10
462.286	1	13
462.627	1	-2
462.968	1	2
463.309	1	9
463.649	1	-1
463.990	1	0
464.331	1	13
464.672	1	8
465.013	1	-6
465.354	1	0
465.695	1	11
466.036	1	5
466.376	1	9
466.717	1	13
467.058	1	14
467.399	1	6
467.740	1	17
468.081	1	12
468.422	1	15
468.762	1	-4
469.103	1	8
469.444	1	11
469.785	1	7
470.126	1	-5
470.467	1	6
470.807	1	9
471.148	1	3
471.489	1	1
471.830	1	6
472.171	1	5
472.511	1	8
472.852	1	14
473.193	1	6
473.534	1	3
473.875	1	10
474.215	1	8
474.556	1	10
474.897	1	-6
475.238	1	9
475.578	1	-3
475.919	1	-3
476.260	1	6
476.601	1	7
476.942	1	8
477.282	1	11
477.623	1	3
477.964	1	2
478.305	1	19
478.645	1	9
478.986	1	6
479.327	1	7
479.667	1	24
480.008	1	9
480.349	1	2
480.690	1	11
481.030	1	6
481.371	1	16
481.712	1	16
482.053	1	7
482.393	1	12
482.734	1	11
483.075	1	19
483.415	1	-2
483.756	1	0
484.097	1	14
484.437	1	6
484.778	1	15
485.119	1	15
485.459	1	-4
485.800	1	18
486.141	1	10
486.481	1	8
486.822	1	2
487.163	1	10
487.503	1	-2
487.844	1	10
488.185	1	13
488.525	1	7
488.866	1	9
489.207	1	9
489.547	1	9
489.888	1	12
490.228	1	14
490.569	1	11
490.910	1	-1
491.250	1	13
491.591	1	3
491.932	1	8
492.272	1	0
492.613	1	8
492.953	1	6
493.294	1	13
493.635	1	13
493.975	1	21
494.316	1	16
494.656	1	2
494.997	1	9
495.337	1	7
495.678	1	8
496.019	1	3
496.359	1	17
496.700	1	13
497.040	1	22
497.381	1	10
497.721	1	14
498.062	1	0
498.403	1	15
498.743	1	18
499.084	1	27
499.424	1	7
499.765	1	9
500.105	1	16
500.446	1	8
500.786	1	19
501.127	1	14
501.467	1	15
501.808	1	22
502.148	1	18
502.489	1	13
502.829	1	19
503.170	1	12
503.510	1	13
503.851	1	16
504.191	1	16
504.532	1	24
504.872	1	18
505.213	1	16
505.553	1	16
505.894	1	11
506.234	1	14
506.575	1	17
506.915	1	14
507.256	1	30
507.596	1	17
507.936	1	6
508.277	1	20
508.617	1	28
508.958	1	25
509.298	1	17
509.639	1	28
509.979	1	16
510.319	1	33
510.660	1	19
511.000	1	19
511.341	1	12
511.681	1	17
512.022	1	25
512.362	1	18
512.702	1	23
513.043	1	18
513.383	1	27
513.724	1	13
514.064	1	19
514.404	1	25
514.745	1	28
515.085	1	25
515.425	1	24
515.766	1	32
516.106	1	18
516.447	1	19
516.787	1	26
517.127	1	34
517.468	1	28
517.808	1	24
518.148	1	26
518.489	1	27
518.829	1	25
519.169	1	12
519.510	1	32
519.850	1	44
520.190	1	27
520.531	1	29
520.871	1	19
521.211	1	26
521.552	1	33
521.892	1	40
522.232	1	23
522.573	1	25
522.913	1	30
523.253	1	37
523.593	1	37
523.934	1	29
524.274	1	24
524.614	1	31
524.955	1	31
525.295	1	27
525.635	1	24
525.975	1	41
526.316	1	20
526.656	1	28
526.996	1	28
527.337	1	42
527.677	1	21
528.017	1	30
528.357	1	28
528.698	1	20
529.038	1	26
529.378	1	30
529.718	1	27
530.058	1	34
530.399	1	37
530.739	1	28
531.079	1	33
531.419	1	44
531.760	1	26
532.100	1	35
532.440	1	34
532.780	1	30
533.120	1	41
533.461	1	28
533.801	1	45
534.141	1	35
534.481	1	31
534.821	1	40
535.162	1	40
535.502	1	30
535.842	1	31
536.182	1	33
536.522	1	29
536.862	1	33
537.203	1	26
537.543	1	43
537.883	1	28
538.223	1	43
538.563	1	35
538.903	1	32
539.243	1	30
539.584	1	28
539.924	1	23
540.264	1	25
540.604	1	28
540.944	1	32
541.284	1	25
541.624	1	31
541.964	1	28
542.305	1	29
542.645	1	10
542.985	1	32
543.325	1	24
543.665	1	31
544.005	1	30
544.345	1	18
544.685	1	35
545.025	1	22
545.365	1	29
545.705	1	16
546.045	1	22
546.386	1	17
546.726	1	20
547.066	1	31
547.406	1	11
547.746	1	16
548.086	1	17
548.426	1	21
548.766	1	30
549.106	1	15
549.446	1	14
549.786	1	30
550.126	1	23
550.466	1	26
550.806	1	27
551.146	1	29
551.486	1	28
551.826	1	18
552.166	1	19
552.506	1	34
552.846	1	13
553.186	1	22
553.526	1	28
553.866	1	20
554.206	1	19
554.546	1	30
554.886	1	22
555.226	1	26
555.566	1	22
555.906	1	15
556.246	1	28
556.586	1	15
556.926	1	15
557.266	1	16
557.606	1	16
557.946	1	19
558.286	1	20
558.626	1	7
558.966	1	14
559.306	1	15
559.646	1	20
559.986	1	11
560.325	1	5
560.665	1	17
561.005	1	14
561.345	1	24
561.685	1	23
562.025	1	14
562.365	1	11
562.705	1	33
563.045	1	15
563.385	1	17
563.725	1	14
564.064	1	20
564.404	1	17
564.744	1	11
565.084	1	20
565.424	1	10
565.764	1	18
566.104	1	12
566.444	1	21
566.783	1	14
567.123	1	7
567.463	1	12
567.803	1	26
568.143	1	20
568.483	1	9
568.823	1	6
569.162	1	16
569.502	1	17
569.842	1	16
570.182	1	16
570.522	1	4
570.862	1	34
571.201	1	18
571.541	1	17
571.881	1	7
572.221	1	26
572.561	1	11
572.900	1	16
573.240	1	0
573.580	1	13
573.920	1	20
574.260	1	14
574.599	1	14
574.939	1	21
575.279	1	3
575.619	1	12
575.959	1	18
576.298	1	13
576.638	1	4
576.978	1	14
577.318	1	12
577.657	1	26
577.997	1	17
578.337	1	9
578.677	1	26
579.016	1	15
579.356	1	19
579.696	1	6
580.036	1	7
580.375	1	2
580.715	1	18
581.055	1	10
581.394	1	14
581.734	1	6
582.074	1	5
582.414	1	4
582.753	1	11
583.093	1	12
583.433	1	25
583.772	1	14
584.112	1	13
584.452	1	21
584.791	1	11
585.131	1	6
585.471	1	2
585.811	1	13
586.150	1	15
586.490	1	12
586.830	1	-6
587.169	1	19
587.509	1	15
587.849	1	14
588.188	1	12
588.528	1	10
588.867	1	9
589.207	1	-4
589.547	1	2
589.886	1	5
590.226	1	17
590.566	1	0
590.905	1	14
591.245	1	3
591.585	1	20
591.924	1	5
592.264	1	7
592.603	1	-2
592.943	1	6
593.283	1	3
593.622	1	11
593.962	1	13
594.301	1	1
594.641	1	21
594.981	1	-3
595.320	1	13
595.660	1	6
595.999	1	12
596.339	1	12
596.678	1	-9
597.018	1	7
597.358	1	-1
597.697	1	6
598.037	1	7
598.376	1	2
598.716	1	3
599.055	1	10
599.395	1	4
599.734	1	1
600.074	1	10
600.413	1	5
600.753	1	9
601.092	1	11
601.432	1	-3
601.771	1	10
602.111	1	4
602.451	1	-1
602.790	1	5
603.130	1	19
603.469	1	13
603.809	1	6
604.148	1	10
604.487	1	9
604.827	1	10
605.166	1	20
605.506	1	10
605.845	1	0
606.185	1	4
606.524	1	8
606.864	1	13
607.203	1	12
607.543	1	7
607.882	1	13
608.222	1	1
608.561	1	-3
608.901	1	15
609.240	1	3
609.579	1	8
609.919	1	8
610.258	1	-2
610.598	1	6
610.937	1	8
611.277	1	7
611.616	1	4
611.955	1	2
612.295	1	13
612.634	1	-6
612.974	1	11
613.313	1	6
613.652	1	-12
613.992	1	5
614.331	1	11
614.671	1	9
615.010	1	5
615.349	1	7
615.689	1	12
616.028	1	8
616.368	1	4
616.707	1	18
617.046	1	16
617.386	1	11
617.725	1	5
618.064	1	10
618.404	1	15
618.743	1	7
619.082	1	9
619.422	1	7
619.761	1	12
620.100	1	-4
620.440	1	13
620.779	1	1
621.118	1	8
621.458	1	9
621.797	1	8
622.136	1	-5
622.476	1	8
622.815	1	-5
623.154	1	6
623.494	1	7
623.833	1	11
624.172	1	4
624.511	1	-1
624.851	1	10
625.190	1	1
625.529	1	2
625.869	1	2
626.208	1	1
626.547	1	6
626.886	1	0
627.226	1	0
627.565	1	6
627.904	1	8
628.243	1	4
628.583	1	-5
628.922	1	-11
629.261	1	-10
629.600	1	2
629.940	1	8
630.279	1	3
630.618	1	-3
630.957	1	13
631.297	1	-1
631.636	1	5
631.975	1	11
632.314	1	6
632.653	1	5
632.993	1	5
633.332	1	-1
633.671	1	2
634.010	1	-1
634.349	1	-2
634.689	1	13
635.028	1	4
635.367	1	4
635.706	1	6
636.045	1	19
636.384	1	9
636.724	1	13
637.063	1	9
637.402	1	1
637.741	1	13
638.080	1	12
638.419	1	8
638.759	1	7
639.098	1	4
639.437	1	13
639.776	1	0
640.115	1	2
640.454	1	8
640.793	1	-7
641.132	1	12
641.472	1	-3
641.811	1	-10
642.150	1	-10
642.489	1	7
642.828	1	13
643.167	1	-1
643.506	1	14
643.845	1	-1
644.184	1	3
644.524	1	-2
644.863	1	1
645.202	1	9
645.541	1	4
645.880	1	2
646.219	1	6
646.558	1	4
646.897	1	7
647.236	1	5
647.575	1	-10
647.914	1	-3
648.253	1	7
648.592	1	9
648.931	1	3
649.270	1	-1
649.610	1	0
649.949	1	3
650.288	1	13
650.627	1	1
650.966	1	9
651.305	1	-1
651.644	1	8
651.983	1	-7
652.322	1	2
652.661	1	6
653.000	1	8
653.339	1	8
653.678	1	-4
654.017	1	-3
654.356	1	0
654.695	1	4
655.034	1	8
655.373	1	-1
655.712	1	1
656.051	1	13
656.390	1	-2
656.729	1	3
657.068	1	-4
657.406	1	8
657.745	1	-2
658.084	1	8
658.423	1	3
658.762	1	16
659.101	1	12
659.440	1	2
659.779	1	-3
660.118	1	1
660.457	1	1
660.796	1	15
661.135	1	19
661.474	1	10
661.813	1	4
662.152	1	5
662.491	1	17
662.829	1	4
663.168	1	-5
663.507	1	4
663.846	1	6
664.185	1	-4
664.524	1	8
664.863	1	-2
665.202	1	-1
665.541	1	-4
665.879	1	2
666.218	1	-1
666.557	1	1
666.896	1	9
667.235	1	9
667.574	1	18
667.913	1	-1
668.251	1	8
668.590	1	10
668.929	1	10
669.268	1	6
669.607	1	-3
669.946	1	14
670.285	1	9
670.623	1	13
670.962	1	8
671.301	1	-2
671.640	1	0
671.979	1	1
672.317	1	5
672.656	1	4
672.995	1	-2
673.334	1	0
673.673	1	12
674.011	1	10
674.350	1	5
674.689	1	14
675.028	1	8
675.367	1	2
675.705	1	17
676.044	1	1
676.383	1	2
676.722	1	0
677.060	1	12
677.399	1	7
677.738	1	-3
678.077	1	8
678.416	1	4
678.754	1	12
679.093	1	9
679.432	1	5
679.771	1	4
680.109	1	-1
680.448	1	4
680.787	1	11
681.125	1	11
681.464	1	2
681.803	1	1
682.142	1	4
682.480	1	25
682.819	1	5
683.158	1	1
683.496	1	-6
683.835	1	-3
684.174	1	9
684.512	1	6
684.851	1	4
685.190	1	4
685.529	1	5
685.867	1	10
686.206	1	11
686.545	1	7
686.883	1	3
687.222	1	4
687.561	1	20
687.899	1	3
688.238	1	13
688.577	1	5
688.746	1	9