File: Data/GaN_130K_350ms/GaN_sample F_spot6_UVVIS_130 K_200um_350 ms 2x2mm1_203.txt
340.368	1	8
340.710	1	12
341.052	1	0
341.394	1	0
341.737	1	4
342.079	1	6
342.421	1	4
342.763	1	4
343.105	1	2
343.447	1	5
343.789	1	7
344.131	1	1
344.473	1	6
344.815	1	-6
345.157	1	-6
345.499	1	-3
345.841	1	4
346.183	1	4
346.526	1	-5
346.868	1	9
347.210	1	7
347.552	1	2
347.894	1	4
348.236	1	-5
348.578	1	-2
348.920	1	-1
349.262	1	8
349.604	1	8
349.946	1	1
350.288	1	-3
350.630	1	12
350.972	1	12
351.314	1	0
351.656	1	8
351.998	1	3
352.340	1	16
352.682	1	4
353.024	1	5
353.366	1	7
353.708	1	2
354.050	1	5
354.392	1	8
354.734	1	5
355.076	1	2
355.418	1	11
355.760	1	4
356.102	1	-1
356.444	1	-10
356.785	1	6
357.127	1	2
357.469	1	-3
357.811	1	3
358.153	1	-4
358.495	1	7
358.837	1	7
359.179	1	3
359.521	1	2
359.863	1	13
360.205	1	-3
360.547	1	-2
360.889	1	-3
361.231	1	-2
361.572	1	23
361.914	1	6
362.256	1	2
362.598	1	5
362.940	1	7
363.282	1	10
363.624	1	4
363.966	1	21
364.308	1	21
364.649	1	14
364.991	1	9
365.333	1	8
365.675	1	13
366.017	1	22
366.359	1	23
366.701	1	18
367.042	1	21
367.384	1	28
367.726	1	23
368.068	1	8
368.410	1	19
368.752	1	18
369.093	1	12
369.435	1	12
369.777	1	11
370.119	1	20
370.461	1	20
370.803	1	16
371.144	1	16
371.486	1	19
371.828	1	14
372.170	1	7
372.512	1	12
372.853	1	14
373.195	1	2
373.537	1	10
373.879	1	15
374.220	1	9
374.562	1	0
374.904	1	22
375.246	1	15
375.588	1	0
375.929	1	1
376.271	1	15
376.613	1	9
376.955	1	14
377.296	1	10
377.638	1	0
377.980	1	9
378.321	1	5
378.663	1	14
379.005	1	13
379.347	1	5
379.688	1	10
380.030	1	1
380.372	1	15
380.714	1	21
381.055	1	10
381.397	1	1
381.739	1	3
382.080	1	3
382.422	1	15
382.764	1	6
383.105	1	14
383.447	1	8
383.789	1	12
384.130	1	21
384.472	1	17
384.814	1	7
385.156	1	13
385.497	1	3
385.839	1	9
386.180	1	14
386.522	1	8
386.864	1	15
387.205	1	7
387.547	1	6
387.889	1	0
388.230	1	3
388.572	1	7
388.914	1	8
389.255	1	7
389.597	1	-7
389.939	1	11
390.280	1	11
390.622	1	-3
390.963	1	19
391.305	1	7
391.647	1	10
391.988	1	1
392.330	1	2
392.671	1	-3
393.013	1	11
393.355	1	5
393.696	1	2
394.038	1	15
394.379	1	6
394.721	1	5
395.062	1	9
395.404	1	-10
395.746	1	17
396.087	1	8
396.429	1	14
396.770	1	4
397.112	1	2
397.453	1	11
397.795	1	-3
398.136	1	11
398.478	1	9
398.819	1	-19
399.161	1	4
399.503	1	9
399.844	1	3
400.186	1	8
400.527	1	5
400.869	1	1
401.210	1	0
401.552	1	9
401.893	1	-3
402.235	1	10
402.576	1	4
402.918	1	11
403.259	1	6
403.601	1	23
403.942	1	4
404.284	1	3
404.625	1	11
404.967	1	6
405.308	1	11
405.649	1	8
405.991	1	1
406.332	1	4
406.674	1	12
407.015	1	5
407.357	1	2
407.698	1	-1
408.040	1	4
408.381	1	6
408.722	1	3
409.064	1	8
409.405	1	6
409.747	1	8
410.088	1	7
410.430	1	16
410.771	1	-7
411.112	1	10
411.454	1	-1
411.795	1	9
412.137	1	-1
412.478	1	2
412.819	1	12
413.161	1	15
413.502	1	9
413.844	1	3
414.185	1	14
414.526	1	2
414.868	1	5
415.209	1	5
415.550	1	5
415.892	1	6
416.233	1	12
416.575	1	10
416.916	1	3
417.257	1	9
417.599	1	1
417.940	1	10
418.281	1	6
418.623	1	10
418.964	1	5
419.305	1	4
419.647	1	10
419.988	1	11
420.329	1	16
420.671	1	-1
421.012	1	8
421.353	1	4
421.695	1	9
422.036	1	6
422.377	1	7
422.718	1	3
423.060	1	13
423.401	1	1
423.742	1	5
424.084	1	11
424.425	1	15
424.766	1	8
425.107	1	4
425.449	1	4
425.790	1	16
426.131	1	17
426.472	1	-4
426.814	1	7
427.155	1	5
427.496	1	13
427.837	1	7
428.179	1	2
428.520	1	13
428.861	1	2
429.202	1	2
429.544	1	8
429.885	1	12
430.226	1	8
430.567	1	11
430.909	1	9
431.250	1	10
431.591	1	4
431.932	1	-1
432.273	1	-1
432.615	1	10
432.956	1	2
433.297	1	17
433.638	1	13
433.979	1	7
434.320	1	6
434.662	1	3
435.003	1	11
435.344	1	3
435.685	1	-3
436.026	1	9
436.368	1	2
436.709	1	-7
437.050	1	8
437.391	1	18
437.732	1	15
438.073	1	12
438.414	1	-5
438.756	1	5
439.097	1	0
439.438	1	7
439.779	1	15
440.120	1	6
440.461	1	16
440.802	1	3
441.143	1	-4
441.485	1	3
441.826	1	1
442.167	1	6
442.508	1	5
442.849	1	1
443.190	1	4
443.531	1	10
443.872	1	7
444.213	1	5
444.554	1	5
444.895	1	9
445.237	1	-1
445.578	1	-1
445.919	1	-2
446.260	1	-4
446.601	1	14
446.942	1	8
447.283	1	14
447.624	1	0
447.965	1	4
448.306	1	4
448.647	1	13
448.988	1	2
449.329	1	-9
449.670	1	7
450.011	1	2
450.352	1	11
450.693	1	0
451.034	1	-1
451.375	1	11
451.716	1	2
452.057	1	16
452.398	1	-10
452.739	1	1
453.080	1	1
453.421	1	7
453.762	1	6
454.103	1	-4
454.444	1	5
454.785	1	7
455.126	1	-4
455.467	1	2
455.808	1	7
456.149	1	1
456.490	1	5
456.831	1	13
457.172	1	-4
457.513	1	-1
457.854	1	1
458.195	1	-6
458.536	1	2
458.877	1	21
459.218	1	3
459.559	1	6
459.899	1	2
460.240	1	16
460.581	1	-3
460.922	1	10
461.263	1	8
461.604	1	-4
461.945	1	5
462.286	1	7
462.627	1	1
462.968	1	5
463.309	1	5
463.649	1	-3
463.990	1	-1
464.331	1	5
464.672	1	13
465.013	1	4
465.354	1	3
465.695	1	11
466.036	1	2
466.376	1	5
466.717	1	16
467.058	1	5
467.399	1	3
467.740	1	15
468.081	1	8
468.422	1	15
468.762	1	4
469.103	1	11
469.444	1	0
469.785	1	-5
470.126	1	-6
470.467	1	5
470.807	1	10
471.148	1	-10
471.489	1	3
471.830	1	13
472.171	1	2
472.511	1	-8
472.852	1	12
473.193	1	5
473.534	1	7
473.875	1	10
474.215	1	8
474.556	1	3
474.897	1	-9
475.238	1	11
475.578	1	5
475.919	1	2
476.260	1	9
476.601	1	-3
476.942	1	13
477.282	1	5
477.623	1	-4
477.964	1	1
478.305	1	13
478.645	1	4
478.986	1	2
479.327	1	-4
479.667	1	2
480.008	1	3
480.349	1	-2
480.690	1	8
481.030	1	-4
481.371	1	3
481.712	1	10
482.053	1	-1
482.393	1	6
482.734	1	-5
483.075	1	7
483.415	1	-6
483.756	1	-1
484.097	1	5
484.437	1	0
484.778	1	26
485.119	1	7
485.459	1	-9
485.800	1	3
486.141	1	7
486.481	1	5
486.822	1	7
487.163	1	3
487.503	1	4
487.844	1	4
488.185	1	-2
488.525	1	14
488.866	1	6
489.207	1	-8
489.547	1	4
489.888	1	12
490.228	1	12
490.569	1	9
490.910	1	-6
491.250	1	11
491.591	1	-2
491.932	1	8
492.272	1	4
492.613	1	-4
492.953	1	1
493.294	1	6
493.635	1	8
493.975	1	7
494.316	1	7
494.656	1	8
494.997	1	4
495.337	1	-3
495.678	1	10
496.019	1	-5
496.359	1	12
496.700	1	4
497.040	1	7
497.381	1	11
497.721	1	0
498.062	1	3
498.403	1	0
498.743	1	9
499.084	1	14
499.424	1	-11
499.765	1	0
500.105	1	3
500.446	1	4
500.786	1	2
501.127	1	6
501.467	1	0
501.808	1	8
502.148	1	6
502.489	1	7
502.829	1	2
503.170	1	6
503.510	1	9
503.851	1	8
504.191	1	4
504.532	1	3
504.872	1	6
505.213	1	5
505.553	1	0
505.894	1	7
506.234	1	1
506.575	1	3
506.915	1	-3
507.256	1	9
507.596	1	-5
507.936	1	-2
508.277	1	1
508.617	1	-3
508.958	1	11
509.298	1	3
509.639	1	9
509.979	1	7
510.319	1	8
510.660	1	-10
511.000	1	4
511.341	1	-2
511.681	1	11
512.022	1	12
512.362	1	10
512.702	1	9
513.043	1	6
513.383	1	14
513.724	1	3
514.064	1	2
514.404	1	12
514.745	1	11
515.085	1	13
515.425	1	7
515.766	1	-1
516.106	1	1
516.447	1	-2
516.787	1	9
517.127	1	8
517.468	1	1
517.808	1	2
518.148	1	2
518.489	1	3
518.829	1	16
519.169	1	12
519.510	1	1
519.850	1	11
520.190	1	13
520.531	1	20
520.871	1	5
521.211	1	13
521.552	1	4
521.892	1	11
522.232	1	-10
522.573	1	7
522.913	1	8
523.253	1	9
523.593	1	11
523.934	1	-2
524.274	1	0
524.614	1	8
524.955	1	21
525.295	1	3
525.635	1	5
525.975	1	14
526.316	1	6
526.656	1	12
526.996	1	6
527.337	1	16
527.677	1	5
528.017	1	10
528.357	1	12
528.698	1	3
529.038	1	-6
529.378	1	8
529.718	1	15
530.058	1	6
530.399	1	0
530.739	1	13
531.079	1	10
531.419	1	11
531.760	1	3
532.100	1	7
532.440	1	19
532.780	1	3
533.120	1	11
533.461	1	4
533.801	1	18
534.141	1	2
534.481	1	3
534.821	1	10
535.162	1	11
535.502	1	7
535.842	1	11
536.182	1	10
536.522	1	-2
536.862	1	-1
537.203	1	1
537.543	1	6
537.883	1	11
538.223	1	9
538.563	1	10
538.903	1	18
539.243	1	2
539.584	1	8
539.924	1	-5
540.264	1	4
540.604	1	6
540.944	1	11
541.284	1	0
541.624	1	3
541.964	1	6
542.305	1	4
542.645	1	9
542.985	1	10
543.325	1	5
543.665	1	21
544.005	1	19
544.345	1	8
544.685	1	8
545.025	1	8
545.365	1	9
545.705	1	9
546.045	1	6
546.386	1	0
546.726	1	-2
547.066	1	11
547.406	1	-2
547.746	1	7
548.086	1	-7
548.426	1	8
548.766	1	6
549.106	1	5
549.446	1	1
549.786	1	8
550.126	1	10
550.466	1	13
550.806	1	14
551.146	1	4
551.486	1	3
551.826	1	6
552.166	1	9
552.506	1	10
552.846	1	5
553.186	1	8
553.526	1	6
553.866	1	-1
554.206	1	4
554.546	1	11
554.886	1	5
555.226	1	15
555.566	1	8
555.906	1	6
556.246	1	3
556.586	1	4
556.926	1	-2
557.266	1	8
557.606	1	-1
557.946	1	4
558.286	1	9
558.626	1	-11
558.966	1	-1
559.306	1	0
559.646	1	8
559.986	1	11
560.325	1	-4
560.665	1	13
561.005	1	3
561.345	1	7
561.685	1	0
562.025	1	-2
562.365	1	0
562.705	1	4
563.045	1	-10
563.385	1	0
563.725	1	4
564.064	1	10
564.404	1	-1
564.744	1	2
565.084	1	6
565.424	1	5
565.764	1	11
566.104	1	1
566.444	1	11
566.783	1	13
567.123	1	9
567.463	1	5
567.803	1	14
568.143	1	11
568.483	1	11
568.823	1	5
569.162	1	5
569.502	1	9
569.842	1	2
570.182	1	3
570.522	1	-10
570.862	1	17
571.201	1	9
571.541	1	3
571.881	1	3
572.221	1	9
572.561	1	6
572.900	1	2
573.240	1	2
573.580	1	8
573.920	1	10
574.260	1	-1
574.599	1	13
574.939	1	10
575.279	1	-2
575.619	1	8
575.959	1	9
576.298	1	6
576.638	1	-2
576.978	1	-8
577.318	1	3
577.657	1	12
577.997	1	7
578.337	1	11
578.677	1	7
579.016	1	2
579.356	1	13
579.696	1	5
580.036	1	6
580.375	1	-4
580.715	1	7
581.055	1	1
581.394	1	-3
581.734	1	5
582.074	1	-6
582.414	1	0
582.753	1	4
583.093	1	3
583.433	1	8
583.772	1	5
584.112	1	5
584.452	1	13
584.791	1	6
585.131	1	12
585.471	1	0
585.811	1	3
586.150	1	16
586.490	1	3
586.830	1	-6
587.169	1	13
587.509	1	4
587.849	1	1
588.188	1	12
588.528	1	9
588.867	1	-1
589.207	1	-2
589.547	1	-5
589.886	1	5
590.226	1	6
590.566	1	7
590.905	1	7
591.245	1	1
591.585	1	6
591.924	1	4
592.264	1	7
592.603	1	2
592.943	1	-2
593.283	1	-2
593.622	1	14
593.962	1	10
594.301	1	2
594.641	1	0
594.981	1	-1
595.320	1	10
595.660	1	3
595.999	1	13
596.339	1	9
596.678	1	-8
597.018	1	0
597.358	1	4
597.697	1	2
598.037	1	6
598.376	1	2
598.716	1	3
599.055	1	3
599.395	1	-8
599.734	1	7
600.074	1	6
600.413	1	3
600.753	1	5
601.092	1	-1
601.432	1	3
601.771	1	3
602.111	1	2
602.451	1	-3
602.790	1	8
603.130	1	7
603.469	1	7
603.809	1	4
604.148	1	8
604.487	1	5
604.827	1	-4
605.166	1	4
605.506	1	3
605.845	1	7
606.185	1	8
606.524	1	6
606.864	1	7
607.203	1	3
607.543	1	5
607.882	1	3
608.222	1	-11
608.561	1	12
608.901	1	2
609.240	1	0
609.579	1	19
609.919	1	14
610.258	1	1
610.598	1	-4
610.937	1	3
611.277	1	11
611.616	1	-14
611.955	1	5
612.295	1	13
612.634	1	5
612.974	1	10
613.313	1	4
613.652	1	2
613.992	1	5
614.331	1	4
614.671	1	7
615.010	1	-6
615.349	1	-2
615.689	1	12
616.028	1	11
616.368	1	4
616.707	1	9
617.046	1	5
617.386	1	6
617.725	1	-2
618.064	1	5
618.404	1	-1
618.743	1	1
619.082	1	-1
619.422	1	8
619.761	1	12
620.100	1	1
620.440	1	2
620.779	1	1
621.118	1	-2
621.458	1	7
621.797	1	3
622.136	1	4
622.476	1	13
622.815	1	4
623.154	1	3
623.494	1	5
623.833	1	6
624.172	1	-6
624.511	1	2
624.851	1	-10
625.190	1	-1
625.529	1	-3
625.869	1	5
626.208	1	1
626.547	1	1
626.886	1	-2
627.226	1	0
627.565	1	7
627.904	1	8
628.243	1	0
628.583	1	-8
628.922	1	-1
629.261	1	-8
629.600	1	2
629.940	1	9
630.279	1	11
630.618	1	4
630.957	1	2
631.297	1	2
631.636	1	3
631.975	1	0
632.314	1	6
632.653	1	1
632.993	1	12
633.332	1	3
633.671	1	-7
634.010	1	-3
634.349	1	0
634.689	1	12
635.028	1	7
635.367	1	1
635.706	1	3
636.045	1	18
636.384	1	3
636.724	1	-1
637.063	1	13
637.402	1	-6
637.741	1	13
638.080	1	9
638.419	1	8
638.759	1	-2
639.098	1	-2
639.437	1	16
639.776	1	-1
640.115	1	5
640.454	1	11
640.793	1	-7
641.132	1	13
641.472	1	6
641.811	1	3
642.150	1	-7
642.489	1	-4
642.828	1	4
643.167	1	4
643.506	1	13
643.845	1	-3
644.184	1	1
644.524	1	-2
644.863	1	-3
645.202	1	18
645.541	1	7
645.880	1	2
646.219	1	7
646.558	1	10
646.897	1	-4
647.236	1	3
647.575	1	-8
647.914	1	-10
648.253	1	-1
648.592	1	-2
648.931	1	0
649.270	1	-4
649.610	1	-2
649.949	1	0
650.288	1	14
650.627	1	3
650.966	1	5
651.305	1	0
651.644	1	2
651.983	1	-9
652.322	1	-3
652.661	1	2
653.000	1	-2
653.339	1	11
653.678	1	6
654.017	1	1
654.356	1	3
654.695	1	-4
655.034	1	2
655.373	1	14
655.712	1	1
656.051	1	4
656.390	1	-12
656.729	1	1
657.068	1	6
657.406	1	9
657.745	1	-8
658.084	1	3
658.423	1	4
658.762	1	23
659.101	1	2
659.440	1	-8
659.779	1	0
660.118	1	-10
660.457	1	-4
660.796	1	3
661.135	1	13
661.474	1	-1
661.813	1	-3
662.152	1	6
662.491	1	14
662.829	1	4
663.168	1	1
663.507	1	1
663.846	1	-7
664.185	1	1
664.524	1	2
664.863	1	4
665.202	1	-2
665.541	1	0
665.879	1	8
666.218	1	5
666.557	1	8
666.896	1	7
667.235	1	-3
667.574	1	15
667.913	1	8
668.251	1	7
668.590	1	7
668.929	1	4
669.268	1	-3
669.607	1	1
669.946	1	9
670.285	1	7
670.623	1	12
670.962	1	4
671.301	1	-2
671.640	1	-7
671.979	1	-2
672.317	1	0
672.656	1	0
672.995	1	4
673.334	1	1
673.673	1	7
674.011	1	3
674.350	1	8
674.689	1	3
675.028	1	12
675.367	1	7
675.705	1	5
676.044	1	4
676.383	1	5
676.722	1	-1
677.060	1	5
677.399	1	7
677.738	1	-3
678.077	1	4
678.416	1	-1
678.754	1	0
679.093	1	4
679.432	1	-5
679.771	1	-1
680.109	1	-3
680.448	1	2
680.787	1	-2
681.125	1	12
681.464	1	-2
681.803	1	-1
682.142	1	-10
682.480	1	11
682.819	1	10
683.158	1	2
683.496	1	-5
683.835	1	1
684.174	1	9
684.512	1	10
684.851	1	3
685.190	1	0
685.529	1	1
685.867	1	6
686.206	1	5
686.545	1	-3
686.883	1	-3
687.222	1	-3
687.561	1	5
687.899	1	-6
688.238	1	7
688.577	1	1
688.746	1	8