File: Data/GaN_130K_350ms/GaN_sample F_spot6_UVVIS_130 K_200um_350 ms 2x2mm1_165.txt
340.368	1	3
340.710	1	5
341.052	1	-7
341.394	1	1
341.737	1	12
342.079	1	0
342.421	1	3
342.763	1	10
343.105	1	5
343.447	1	14
343.789	1	2
344.131	1	0
344.473	1	7
344.815	1	-3
345.157	1	-8
345.499	1	5
345.841	1	4
346.183	1	10
346.526	1	-1
346.868	1	10
347.210	1	5
347.552	1	-2
347.894	1	2
348.236	1	10
348.578	1	-1
348.920	1	0
349.262	1	10
349.604	1	8
349.946	1	2
350.288	1	-5
350.630	1	8
350.972	1	13
351.314	1	-5
351.656	1	4
351.998	1	5
352.340	1	22
352.682	1	-3
353.024	1	5
353.366	1	9
353.708	1	7
354.050	1	11
354.392	1	7
354.734	1	9
355.076	1	-3
355.418	1	15
355.760	1	0
356.102	1	5
356.444	1	-10
356.785	1	2
357.127	1	6
357.469	1	-5
357.811	1	3
358.153	1	0
358.495	1	8
358.837	1	2
359.179	1	5
359.521	1	3
359.863	1	8
360.205	1	1
360.547	1	3
360.889	1	9
361.231	1	-1
361.572	1	9
361.914	1	14
362.256	1	13
362.598	1	14
362.940	1	3
363.282	1	25
363.624	1	13
363.966	1	26
364.308	1	30
364.649	1	23
364.991	1	19
365.333	1	16
365.675	1	23
366.017	1	21
366.359	1	31
366.701	1	28
367.042	1	23
367.384	1	33
367.726	1	28
368.068	1	23
368.410	1	30
368.752	1	37
369.093	1	33
369.435	1	28
369.777	1	19
370.119	1	32
370.461	1	29
370.803	1	25
371.144	1	34
371.486	1	20
371.828	1	27
372.170	1	23
372.512	1	31
372.853	1	4
373.195	1	16
373.537	1	20
373.879	1	19
374.220	1	12
374.562	1	10
374.904	1	13
375.246	1	29
375.588	1	14
375.929	1	10
376.271	1	16
376.613	1	2
376.955	1	23
377.296	1	11
377.638	1	3
377.980	1	-8
378.321	1	3
378.663	1	15
379.005	1	24
379.347	1	7
379.688	1	-3
380.030	1	1
380.372	1	12
380.714	1	15
381.055	1	4
381.397	1	2
381.739	1	12
382.080	1	4
382.422	1	17
382.764	1	8
383.105	1	14
383.447	1	7
383.789	1	11
384.130	1	17
384.472	1	17
384.814	1	4
385.156	1	9
385.497	1	-4
385.839	1	7
386.180	1	13
386.522	1	9
386.864	1	17
387.205	1	8
387.547	1	12
387.889	1	-2
388.230	1	0
388.572	1	7
388.914	1	1
389.255	1	9
389.597	1	-5
389.939	1	11
390.280	1	12
390.622	1	4
390.963	1	7
391.305	1	6
391.647	1	14
391.988	1	10
392.330	1	2
392.671	1	4
393.013	1	17
393.355	1	13
393.696	1	-1
394.038	1	11
394.379	1	19
394.721	1	10
395.062	1	5
395.404	1	0
395.746	1	10
396.087	1	2
396.429	1	12
396.770	1	12
397.112	1	9
397.453	1	19
397.795	1	-6
398.136	1	14
398.478	1	8
398.819	1	-1
399.161	1	9
399.503	1	11
399.844	1	3
400.186	1	-5
400.527	1	20
400.869	1	6
401.210	1	8
401.552	1	5
401.893	1	-3
402.235	1	5
402.576	1	10
402.918	1	5
403.259	1	2
403.601	1	7
403.942	1	4
404.284	1	7
404.625	1	8
404.967	1	1
405.308	1	12
405.649	1	10
405.991	1	4
406.332	1	5
406.674	1	16
407.015	1	-1
407.357	1	12
407.698	1	4
408.040	1	0
408.381	1	19
408.722	1	9
409.064	1	10
409.405	1	6
409.747	1	3
410.088	1	17
410.430	1	21
410.771	1	-8
411.112	1	12
411.454	1	7
411.795	1	10
412.137	1	8
412.478	1	3
412.819	1	8
413.161	1	3
413.502	1	15
413.844	1	3
414.185	1	11
414.526	1	6
414.868	1	0
415.209	1	5
415.550	1	-1
415.892	1	13
416.233	1	11
416.575	1	12
416.916	1	15
417.257	1	-1
417.599	1	4
417.940	1	13
418.281	1	6
418.623	1	4
418.964	1	3
419.305	1	1
419.647	1	13
419.988	1	14
420.329	1	17
420.671	1	8
421.012	1	5
421.353	1	5
421.695	1	3
422.036	1	11
422.377	1	8
422.718	1	5
423.060	1	7
423.401	1	14
423.742	1	-4
424.084	1	9
424.425	1	-5
424.766	1	9
425.107	1	24
425.449	1	10
425.790	1	16
426.131	1	17
426.472	1	4
426.814	1	4
427.155	1	1
427.496	1	3
427.837	1	11
428.179	1	-2
428.520	1	11
428.861	1	3
429.202	1	11
429.544	1	13
429.885	1	4
430.226	1	11
430.567	1	11
430.909	1	8
431.250	1	13
431.591	1	3
431.932	1	-2
432.273	1	4
432.615	1	13
432.956	1	-2
433.297	1	10
433.638	1	4
433.979	1	15
434.320	1	14
434.662	1	2
435.003	1	13
435.344	1	6
435.685	1	-11
436.026	1	7
436.368	1	-2
436.709	1	-1
437.050	1	17
437.391	1	16
437.732	1	8
438.073	1	13
438.414	1	-1
438.756	1	-2
439.097	1	3
439.438	1	20
439.779	1	6
440.120	1	2
440.461	1	13
440.802	1	-7
441.143	1	-2
441.485	1	0
441.826	1	1
442.167	1	6
442.508	1	11
442.849	1	8
443.190	1	3
443.531	1	2
443.872	1	6
444.213	1	2
444.554	1	9
444.895	1	11
445.237	1	-1
445.578	1	9
445.919	1	4
446.260	1	3
446.601	1	13
446.942	1	1
447.283	1	4
447.624	1	8
447.965	1	9
448.306	1	11
448.647	1	8
448.988	1	3
449.329	1	0
449.670	1	7
450.011	1	2
450.352	1	11
450.693	1	4
451.034	1	3
451.375	1	1
451.716	1	-8
452.057	1	9
452.398	1	-4
452.739	1	4
453.080	1	8
453.421	1	-3
453.762	1	9
454.103	1	3
454.444	1	11
454.785	1	10
455.126	1	-5
455.467	1	4
455.808	1	9
456.149	1	-1
456.490	1	10
456.831	1	4
457.172	1	3
457.513	1	-11
457.854	1	-4
458.195	1	-3
458.536	1	-3
458.877	1	23
459.218	1	7
459.559	1	-3
459.899	1	9
460.240	1	14
460.581	1	-10
460.922	1	10
461.263	1	12
461.604	1	-9
461.945	1	11
462.286	1	3
462.627	1	5
462.968	1	1
463.309	1	17
463.649	1	-5
463.990	1	9
464.331	1	4
464.672	1	7
465.013	1	-2
465.354	1	10
465.695	1	4
466.036	1	7
466.376	1	8
466.717	1	5
467.058	1	10
467.399	1	-4
467.740	1	18
468.081	1	9
468.422	1	4
468.762	1	-6
469.103	1	3
469.444	1	7
469.785	1	11
470.126	1	-7
470.467	1	3
470.807	1	3
471.148	1	8
471.489	1	4
471.830	1	8
472.171	1	5
472.511	1	6
472.852	1	6
473.193	1	1
473.534	1	5
473.875	1	13
474.215	1	3
474.556	1	1
474.897	1	0
475.238	1	10
475.578	1	2
475.919	1	-4
476.260	1	7
476.601	1	6
476.942	1	14
477.282	1	4
477.623	1	2
477.964	1	-9
478.305	1	16
478.645	1	5
478.986	1	6
479.327	1	2
479.667	1	7
480.008	1	5
480.349	1	7
480.690	1	10
481.030	1	0
481.371	1	7
481.712	1	-5
482.053	1	-5
482.393	1	10
482.734	1	1
483.075	1	10
483.415	1	7
483.756	1	1
484.097	1	4
484.437	1	-1
484.778	1	7
485.119	1	13
485.459	1	-6
485.800	1	3
486.141	1	-3
486.481	1	6
486.822	1	3
487.163	1	1
487.503	1	-5
487.844	1	1
488.185	1	9
488.525	1	0
488.866	1	1
489.207	1	0
489.547	1	5
489.888	1	12
490.228	1	9
490.569	1	-4
490.910	1	-9
491.250	1	5
491.591	1	5
491.932	1	11
492.272	1	4
492.613	1	-3
492.953	1	1
493.294	1	8
493.635	1	6
493.975	1	16
494.316	1	13
494.656	1	2
494.997	1	-1
495.337	1	6
495.678	1	1
496.019	1	4
496.359	1	13
496.700	1	13
497.040	1	9
497.381	1	9
497.721	1	4
498.062	1	-5
498.403	1	3
498.743	1	10
499.084	1	14
499.424	1	-2
499.765	1	-2
500.105	1	11
500.446	1	5
500.786	1	12
501.127	1	6
501.467	1	10
501.808	1	9
502.148	1	11
502.489	1	8
502.829	1	1
503.170	1	4
503.510	1	13
503.851	1	1
504.191	1	10
504.532	1	12
504.872	1	12
505.213	1	12
505.553	1	4
505.894	1	14
506.234	1	8
506.575	1	8
506.915	1	7
507.256	1	11
507.596	1	-1
507.936	1	2
508.277	1	1
508.617	1	-3
508.958	1	9
509.298	1	4
509.639	1	9
509.979	1	0
510.319	1	16
510.660	1	8
511.000	1	16
511.341	1	-2
511.681	1	16
512.022	1	15
512.362	1	11
512.702	1	22
513.043	1	4
513.383	1	5
513.724	1	0
514.064	1	7
514.404	1	15
514.745	1	9
515.085	1	13
515.425	1	14
515.766	1	6
516.106	1	7
516.447	1	-1
516.787	1	5
517.127	1	12
517.468	1	6
517.808	1	17
518.148	1	13
518.489	1	7
518.829	1	16
519.169	1	5
519.510	1	5
519.850	1	21
520.190	1	19
520.531	1	12
520.871	1	6
521.211	1	20
521.552	1	4
521.892	1	12
522.232	1	0
522.573	1	13
522.913	1	19
523.253	1	15
523.593	1	16
523.934	1	3
524.274	1	-3
524.614	1	10
524.955	1	20
525.295	1	11
525.635	1	4
525.975	1	18
526.316	1	7
526.656	1	14
526.996	1	3
527.337	1	15
527.677	1	5
528.017	1	22
528.357	1	17
528.698	1	-1
529.038	1	1
529.378	1	17
529.718	1	18
530.058	1	14
530.399	1	3
530.739	1	15
531.079	1	13
531.419	1	9
531.760	1	9
532.100	1	8
532.440	1	12
532.780	1	4
533.120	1	17
533.461	1	-4
533.801	1	19
534.141	1	13
534.481	1	12
534.821	1	15
535.162	1	15
535.502	1	8
535.842	1	14
536.182	1	14
536.522	1	3
536.862	1	5
537.203	1	3
537.543	1	12
537.883	1	3
538.223	1	15
538.563	1	22
538.903	1	19
539.243	1	11
539.584	1	8
539.924	1	10
540.264	1	12
540.604	1	16
540.944	1	10
541.284	1	5
541.624	1	16
541.964	1	9
542.305	1	15
542.645	1	6
542.985	1	14
543.325	1	2
543.665	1	20
544.005	1	10
544.345	1	11
544.685	1	14
545.025	1	5
545.365	1	13
545.705	1	5
546.045	1	10
546.386	1	4
546.726	1	-2
547.066	1	7
547.406	1	-8
547.746	1	11
548.086	1	5
548.426	1	11
548.766	1	6
549.106	1	1
549.446	1	8
549.786	1	14
550.126	1	12
550.466	1	8
550.806	1	13
551.146	1	11
551.486	1	12
551.826	1	12
552.166	1	9
552.506	1	4
552.846	1	3
553.186	1	11
553.526	1	4
553.866	1	0
554.206	1	4
554.546	1	12
554.886	1	13
555.226	1	14
555.566	1	11
555.906	1	-2
556.246	1	8
556.586	1	2
556.926	1	5
557.266	1	-1
557.606	1	8
557.946	1	8
558.286	1	24
558.626	1	7
558.966	1	-5
559.306	1	1
559.646	1	5
559.986	1	13
560.325	1	-1
560.665	1	13
561.005	1	-5
561.345	1	11
561.685	1	9
562.025	1	8
562.365	1	8
562.705	1	14
563.045	1	-4
563.385	1	13
563.725	1	9
564.064	1	6
564.404	1	2
564.744	1	5
565.084	1	7
565.424	1	1
565.764	1	5
566.104	1	11
566.444	1	5
566.783	1	16
567.123	1	3
567.463	1	6
567.803	1	12
568.143	1	14
568.483	1	10
568.823	1	1
569.162	1	11
569.502	1	3
569.842	1	-1
570.182	1	5
570.522	1	-11
570.862	1	24
571.201	1	7
571.541	1	1
571.881	1	6
572.221	1	13
572.561	1	10
572.900	1	5
573.240	1	0
573.580	1	9
573.920	1	9
574.260	1	16
574.599	1	15
574.939	1	13
575.279	1	7
575.619	1	14
575.959	1	4
576.298	1	9
576.638	1	-3
576.978	1	-4
577.318	1	9
577.657	1	24
577.997	1	16
578.337	1	2
578.677	1	8
579.016	1	4
579.356	1	11
579.696	1	3
580.036	1	-2
580.375	1	7
580.715	1	3
581.055	1	6
581.394	1	-4
581.734	1	14
582.074	1	-2
582.414	1	-1
582.753	1	4
583.093	1	7
583.433	1	5
583.772	1	5
584.112	1	6
584.452	1	8
584.791	1	9
585.131	1	20
585.471	1	3
585.811	1	-1
586.150	1	-1
586.490	1	4
586.830	1	2
587.169	1	-1
587.509	1	14
587.849	1	6
588.188	1	8
588.528	1	10
588.867	1	4
589.207	1	-10
589.547	1	-5
589.886	1	3
590.226	1	18
590.566	1	7
590.905	1	21
591.245	1	-4
591.585	1	11
591.924	1	3
592.264	1	2
592.603	1	0
592.943	1	3
593.283	1	-10
593.622	1	9
593.962	1	17
594.301	1	-7
594.641	1	4
594.981	1	-3
595.320	1	15
595.660	1	4
595.999	1	6
596.339	1	11
596.678	1	0
597.018	1	9
597.358	1	2
597.697	1	-1
598.037	1	1
598.376	1	0
598.716	1	9
599.055	1	6
599.395	1	-4
599.734	1	-1
600.074	1	9
600.413	1	11
600.753	1	10
601.092	1	5
601.432	1	-11
601.771	1	6
602.111	1	6
602.451	1	5
602.790	1	-2
603.130	1	16
603.469	1	8
603.809	1	-2
604.148	1	10
604.487	1	15
604.827	1	-3
605.166	1	5
605.506	1	1
605.845	1	-1
606.185	1	10
606.524	1	3
606.864	1	13
607.203	1	-4
607.543	1	3
607.882	1	10
608.222	1	-7
608.561	1	4
608.901	1	7
609.240	1	-4
609.579	1	7
609.919	1	4
610.258	1	6
610.598	1	1
610.937	1	4
611.277	1	8
611.616	1	-4
611.955	1	-1
612.295	1	9
612.634	1	-5
612.974	1	9
613.313	1	1
613.652	1	-9
613.992	1	-4
614.331	1	10
614.671	1	5
615.010	1	0
615.349	1	3
615.689	1	11
616.028	1	13
616.368	1	6
616.707	1	13
617.046	1	11
617.386	1	-8
617.725	1	7
618.064	1	5
618.404	1	1
618.743	1	7
619.082	1	-6
619.422	1	1
619.761	1	5
620.100	1	0
620.440	1	6
620.779	1	4
621.118	1	6
621.458	1	5
621.797	1	-1
622.136	1	4
622.476	1	18
622.815	1	-3
623.154	1	1
623.494	1	3
623.833	1	-3
624.172	1	1
624.511	1	1
624.851	1	7
625.190	1	5
625.529	1	6
625.869	1	13
626.208	1	2
626.547	1	3
626.886	1	1
627.226	1	3
627.565	1	7
627.904	1	2
628.243	1	2
628.583	1	-11
628.922	1	-8
629.261	1	-10
629.600	1	-2
629.940	1	7
630.279	1	8
630.618	1	-5
630.957	1	4
631.297	1	5
631.636	1	15
631.975	1	4
632.314	1	1
632.653	1	-4
632.993	1	10
633.332	1	-4
633.671	1	2
634.010	1	-2
634.349	1	4
634.689	1	14
635.028	1	5
635.367	1	13
635.706	1	-1
636.045	1	19
636.384	1	11
636.724	1	3
637.063	1	6
637.402	1	-7
637.741	1	9
638.080	1	14
638.419	1	9
638.759	1	3
639.098	1	9
639.437	1	12
639.776	1	3
640.115	1	14
640.454	1	11
640.793	1	-1
641.132	1	9
641.472	1	-3
641.811	1	-3
642.150	1	-15
642.489	1	0
642.828	1	6
643.167	1	1
643.506	1	4
643.845	1	-3
644.184	1	-5
644.524	1	4
644.863	1	4
645.202	1	4
645.541	1	5
645.880	1	8
646.219	1	10
646.558	1	2
646.897	1	-1
647.236	1	-2
647.575	1	-3
647.914	1	-10
648.253	1	-3
648.592	1	4
648.931	1	-13
649.270	1	-3
649.610	1	-1
649.949	1	6
650.288	1	6
650.627	1	11
650.966	1	3
651.305	1	2
651.644	1	8
651.983	1	-7
652.322	1	-3
652.661	1	3
653.000	1	3
653.339	1	6
653.678	1	1
654.017	1	-4
654.356	1	8
654.695	1	1
655.034	1	7
655.373	1	11
655.712	1	-2
656.051	1	1
656.390	1	4
656.729	1	3
657.068	1	-2
657.406	1	11
657.745	1	5
658.084	1	0
658.423	1	1
658.762	1	15
659.101	1	9
659.440	1	-12
659.779	1	4
660.118	1	-4
660.457	1	-4
660.796	1	7
661.135	1	13
661.474	1	7
661.813	1	-1
662.152	1	-5
662.491	1	24
662.829	1	5
663.168	1	1
663.507	1	7
663.846	1	2
664.185	1	-4
664.524	1	-15
664.863	1	4
665.202	1	2
665.541	1	-4
665.879	1	5
666.218	1	4
666.557	1	8
666.896	1	3
667.235	1	3
667.574	1	16
667.913	1	8
668.251	1	0
668.590	1	5
668.929	1	3
669.268	1	6
669.607	1	-2
669.946	1	7
670.285	1	13
670.623	1	8
670.962	1	-1
671.301	1	7
671.640	1	-2
671.979	1	8
672.317	1	-4
672.656	1	-4
672.995	1	0
673.334	1	0
673.673	1	12
674.011	1	3
674.350	1	7
674.689	1	10
675.028	1	11
675.367	1	-4
675.705	1	13
676.044	1	0
676.383	1	3
676.722	1	-1
677.060	1	10
677.399	1	-3
677.738	1	5
678.077	1	9
678.416	1	12
678.754	1	2
679.093	1	-2
679.432	1	7
679.771	1	7
680.109	1	7
680.448	1	11
680.787	1	2
681.125	1	4
681.464	1	-3
681.803	1	-2
682.142	1	-11
682.480	1	2
682.819	1	1
683.158	1	4
683.496	1	2
683.835	1	-12
684.174	1	2
684.512	1	6
684.851	1	6
685.190	1	2
685.529	1	2
685.867	1	2
686.206	1	13
686.545	1	1
686.883	1	5
687.222	1	1
687.561	1	11
687.899	1	6
688.238	1	4
688.577	1	-1
688.746	1	7