File: Data/GaN_130K_350ms/GaN_sample F_spot6_UVVIS_130 K_200um_350 ms 2x2mm1_137.txt
340.368	1	3
340.710	1	10
341.052	1	-8
341.394	1	8
341.737	1	11
342.079	1	6
342.421	1	9
342.763	1	4
343.105	1	5
343.447	1	13
343.789	1	6
344.131	1	7
344.473	1	3
344.815	1	-4
345.157	1	-3
345.499	1	-6
345.841	1	8
346.183	1	10
346.526	1	1
346.868	1	5
347.210	1	3
347.552	1	-5
347.894	1	0
348.236	1	-4
348.578	1	0
348.920	1	2
349.262	1	-1
349.604	1	1
349.946	1	9
350.288	1	0
350.630	1	9
350.972	1	15
351.314	1	-5
351.656	1	12
351.998	1	9
352.340	1	15
352.682	1	-2
353.024	1	3
353.366	1	8
353.708	1	6
354.050	1	12
354.392	1	20
354.734	1	9
355.076	1	9
355.418	1	11
355.760	1	5
356.102	1	2
356.444	1	-6
356.785	1	8
357.127	1	4
357.469	1	1
357.811	1	8
358.153	1	2
358.495	1	15
358.837	1	5
359.179	1	13
359.521	1	9
359.863	1	12
360.205	1	18
360.547	1	2
360.889	1	17
361.231	1	9
361.572	1	20
361.914	1	18
362.256	1	13
362.598	1	20
362.940	1	10
363.282	1	25
363.624	1	24
363.966	1	43
364.308	1	21
364.649	1	36
364.991	1	35
365.333	1	32
365.675	1	31
366.017	1	45
366.359	1	40
366.701	1	37
367.042	1	45
367.384	1	47
367.726	1	54
368.068	1	43
368.410	1	46
368.752	1	62
369.093	1	37
369.435	1	41
369.777	1	47
370.119	1	55
370.461	1	52
370.803	1	36
371.144	1	34
371.486	1	38
371.828	1	42
372.170	1	29
372.512	1	41
372.853	1	11
373.195	1	32
373.537	1	37
373.879	1	32
374.220	1	25
374.562	1	20
374.904	1	20
375.246	1	33
375.588	1	25
375.929	1	9
376.271	1	24
376.613	1	15
376.955	1	26
377.296	1	20
377.638	1	21
377.980	1	8
378.321	1	19
378.663	1	19
379.005	1	25
379.347	1	12
379.688	1	0
380.030	1	3
380.372	1	22
380.714	1	25
381.055	1	4
381.397	1	6
381.739	1	19
382.080	1	11
382.422	1	24
382.764	1	11
383.105	1	14
383.447	1	10
383.789	1	17
384.130	1	18
384.472	1	16
384.814	1	10
385.156	1	10
385.497	1	10
385.839	1	8
386.180	1	12
386.522	1	9
386.864	1	21
387.205	1	14
387.547	1	18
387.889	1	3
388.230	1	7
388.572	1	18
388.914	1	11
389.255	1	1
389.597	1	5
389.939	1	18
390.280	1	16
390.622	1	12
390.963	1	17
391.305	1	11
391.647	1	13
391.988	1	16
392.330	1	0
392.671	1	5
393.013	1	15
393.355	1	10
393.696	1	11
394.038	1	19
394.379	1	9
394.721	1	10
395.062	1	13
395.404	1	0
395.746	1	9
396.087	1	25
396.429	1	20
396.770	1	25
397.112	1	6
397.453	1	18
397.795	1	4
398.136	1	6
398.478	1	8
398.819	1	-8
399.161	1	13
399.503	1	14
399.844	1	1
400.186	1	-2
400.527	1	11
400.869	1	9
401.210	1	-5
401.552	1	11
401.893	1	0
402.235	1	5
402.576	1	4
402.918	1	5
403.259	1	1
403.601	1	3
403.942	1	9
404.284	1	4
404.625	1	3
404.967	1	1
405.308	1	16
405.649	1	9
405.991	1	14
406.332	1	3
406.674	1	21
407.015	1	10
407.357	1	8
407.698	1	5
408.040	1	23
408.381	1	10
408.722	1	15
409.064	1	11
409.405	1	11
409.747	1	8
410.088	1	16
410.430	1	28
410.771	1	-8
411.112	1	17
411.454	1	7
411.795	1	19
412.137	1	8
412.478	1	-5
412.819	1	17
413.161	1	11
413.502	1	11
413.844	1	8
414.185	1	6
414.526	1	11
414.868	1	1
415.209	1	-1
415.550	1	9
415.892	1	13
416.233	1	15
416.575	1	12
416.916	1	4
417.257	1	13
417.599	1	6
417.940	1	15
418.281	1	3
418.623	1	9
418.964	1	6
419.305	1	13
419.647	1	13
419.988	1	24
420.329	1	10
420.671	1	-2
421.012	1	1
421.353	1	4
421.695	1	8
422.036	1	12
422.377	1	-2
422.718	1	2
423.060	1	14
423.401	1	9
423.742	1	9
424.084	1	7
424.425	1	11
424.766	1	7
425.107	1	10
425.449	1	16
425.790	1	13
426.131	1	13
426.472	1	8
426.814	1	10
427.155	1	3
427.496	1	11
427.837	1	9
428.179	1	11
428.520	1	3
428.861	1	5
429.202	1	9
429.544	1	14
429.885	1	18
430.226	1	7
430.567	1	5
430.909	1	10
431.250	1	18
431.591	1	6
431.932	1	10
432.273	1	6
432.615	1	13
432.956	1	1
433.297	1	11
433.638	1	3
433.979	1	5
434.320	1	7
434.662	1	-1
435.003	1	28
435.344	1	5
435.685	1	-5
436.026	1	7
436.368	1	5
436.709	1	6
437.050	1	8
437.391	1	22
437.732	1	11
438.073	1	14
438.414	1	8
438.756	1	12
439.097	1	6
439.438	1	3
439.779	1	6
440.120	1	5
440.461	1	18
440.802	1	-4
441.143	1	-1
441.485	1	20
441.826	1	1
442.167	1	10
442.508	1	3
442.849	1	11
443.190	1	3
443.531	1	4
443.872	1	7
444.213	1	2
444.554	1	8
444.895	1	7
445.237	1	5
445.578	1	0
445.919	1	-5
446.260	1	2
446.601	1	2
446.942	1	3
447.283	1	13
447.624	1	19
447.965	1	10
448.306	1	6
448.647	1	11
448.988	1	5
449.329	1	2
449.670	1	1
450.011	1	-1
450.352	1	13
450.693	1	3
451.034	1	6
451.375	1	16
451.716	1	-3
452.057	1	14
452.398	1	-6
452.739	1	6
453.080	1	11
453.421	1	9
453.762	1	9
454.103	1	3
454.444	1	9
454.785	1	11
455.126	1	-7
455.467	1	9
455.808	1	6
456.149	1	-1
456.490	1	11
456.831	1	4
457.172	1	-5
457.513	1	1
457.854	1	4
458.195	1	-3
458.536	1	9
458.877	1	21
459.218	1	5
459.559	1	4
459.899	1	2
460.240	1	14
460.581	1	-11
460.922	1	10
461.263	1	5
461.604	1	-5
461.945	1	6
462.286	1	15
462.627	1	3
462.968	1	6
463.309	1	5
463.649	1	5
463.990	1	5
464.331	1	1
464.672	1	16
465.013	1	-7
465.354	1	11
465.695	1	4
466.036	1	0
466.376	1	6
466.717	1	5
467.058	1	8
467.399	1	-5
467.740	1	18
468.081	1	14
468.422	1	10
468.762	1	13
469.103	1	12
469.444	1	4
469.785	1	10
470.126	1	-7
470.467	1	6
470.807	1	8
471.148	1	7
471.489	1	-4
471.830	1	1
472.171	1	5
472.511	1	4
472.852	1	17
473.193	1	4
473.534	1	6
473.875	1	11
474.215	1	0
474.556	1	2
474.897	1	-8
475.238	1	11
475.578	1	3
475.919	1	-7
476.260	1	4
476.601	1	-1
476.942	1	15
477.282	1	9
477.623	1	-4
477.964	1	4
478.305	1	11
478.645	1	6
478.986	1	-6
479.327	1	3
479.667	1	6
480.008	1	3
480.349	1	3
480.690	1	7
481.030	1	1
481.371	1	9
481.712	1	7
482.053	1	1
482.393	1	14
482.734	1	10
483.075	1	9
483.415	1	7
483.756	1	10
484.097	1	8
484.437	1	3
484.778	1	19
485.119	1	11
485.459	1	1
485.800	1	8
486.141	1	4
486.481	1	-4
486.822	1	7
487.163	1	-1
487.503	1	-6
487.844	1	-2
488.185	1	4
488.525	1	6
488.866	1	10
489.207	1	9
489.547	1	0
489.888	1	19
490.228	1	3
490.569	1	9
490.910	1	0
491.250	1	6
491.591	1	4
491.932	1	7
492.272	1	-1
492.613	1	10
492.953	1	9
493.294	1	7
493.635	1	3
493.975	1	13
494.316	1	8
494.656	1	10
494.997	1	8
495.337	1	1
495.678	1	-1
496.019	1	7
496.359	1	20
496.700	1	7
497.040	1	13
497.381	1	14
497.721	1	6
498.062	1	10
498.403	1	10
498.743	1	8
499.084	1	15
499.424	1	-1
499.765	1	3
500.105	1	13
500.446	1	0
500.786	1	17
501.127	1	6
501.467	1	7
501.808	1	9
502.148	1	16
502.489	1	9
502.829	1	11
503.170	1	3
503.510	1	11
503.851	1	8
504.191	1	8
504.532	1	11
504.872	1	11
505.213	1	15
505.553	1	10
505.894	1	10
506.234	1	17
506.575	1	8
506.915	1	5
507.256	1	14
507.596	1	7
507.936	1	4
508.277	1	2
508.617	1	12
508.958	1	13
509.298	1	6
509.639	1	12
509.979	1	8
510.319	1	35
510.660	1	8
511.000	1	4
511.341	1	4
511.681	1	17
512.022	1	21
512.362	1	11
512.702	1	20
513.043	1	18
513.383	1	15
513.724	1	16
514.064	1	25
514.404	1	22
514.745	1	1
515.085	1	23
515.425	1	18
515.766	1	18
516.106	1	14
516.447	1	11
516.787	1	23
517.127	1	14
517.468	1	19
517.808	1	15
518.148	1	17
518.489	1	21
518.829	1	23
519.169	1	17
519.510	1	15
519.850	1	27
520.190	1	21
520.531	1	19
520.871	1	1
521.211	1	19
521.552	1	15
521.892	1	30
522.232	1	15
522.573	1	9
522.913	1	13
523.253	1	21
523.593	1	21
523.934	1	10
524.274	1	17
524.614	1	16
524.955	1	21
525.295	1	21
525.635	1	9
525.975	1	27
526.316	1	8
526.656	1	16
526.996	1	16
527.337	1	25
527.677	1	7
528.017	1	13
528.357	1	22
528.698	1	18
529.038	1	2
529.378	1	13
529.718	1	21
530.058	1	15
530.399	1	22
530.739	1	16
531.079	1	26
531.419	1	22
531.760	1	13
532.100	1	17
532.440	1	15
532.780	1	1
533.120	1	25
533.461	1	24
533.801	1	31
534.141	1	15
534.481	1	12
534.821	1	17
535.162	1	14
535.502	1	19
535.842	1	19
536.182	1	26
536.522	1	18
536.862	1	17
537.203	1	13
537.543	1	28
537.883	1	8
538.223	1	25
538.563	1	12
538.903	1	26
539.243	1	17
539.584	1	18
539.924	1	8
540.264	1	16
540.604	1	20
540.944	1	16
541.284	1	19
541.624	1	31
541.964	1	11
542.305	1	20
542.645	1	9
542.985	1	24
543.325	1	14
543.665	1	21
544.005	1	22
544.345	1	14
544.685	1	20
545.025	1	7
545.365	1	21
545.705	1	9
546.045	1	17
546.386	1	3
546.726	1	15
547.066	1	16
547.406	1	7
547.746	1	14
548.086	1	10
548.426	1	14
548.766	1	12
549.106	1	7
549.446	1	12
549.786	1	17
550.126	1	18
550.466	1	11
550.806	1	13
551.146	1	21
551.486	1	11
551.826	1	11
552.166	1	16
552.506	1	11
552.846	1	12
553.186	1	12
553.526	1	20
553.866	1	6
554.206	1	6
554.546	1	25
554.886	1	16
555.226	1	17
555.566	1	12
555.906	1	13
556.246	1	13
556.586	1	18
556.926	1	8
557.266	1	11
557.606	1	20
557.946	1	8
558.286	1	24
558.626	1	-2
558.966	1	9
559.306	1	9
559.646	1	15
559.986	1	7
560.325	1	3
560.665	1	16
561.005	1	13
561.345	1	11
561.685	1	11
562.025	1	21
562.365	1	12
562.705	1	15
563.045	1	7
563.385	1	14
563.725	1	11
564.064	1	24
564.404	1	9
564.744	1	13
565.084	1	9
565.424	1	4
565.764	1	8
566.104	1	4
566.444	1	18
566.783	1	14
567.123	1	16
567.463	1	12
567.803	1	14
568.143	1	13
568.483	1	13
568.823	1	7
569.162	1	10
569.502	1	6
569.842	1	5
570.182	1	9
570.522	1	-4
570.862	1	21
571.201	1	3
571.541	1	1
571.881	1	1
572.221	1	16
572.561	1	9
572.900	1	11
573.240	1	5
573.580	1	7
573.920	1	23
574.260	1	17
574.599	1	16
574.939	1	15
575.279	1	0
575.619	1	6
575.959	1	16
576.298	1	12
576.638	1	4
576.978	1	6
577.318	1	15
577.657	1	20
577.997	1	10
578.337	1	12
578.677	1	17
579.016	1	13
579.356	1	14
579.696	1	2
580.036	1	8
580.375	1	2
580.715	1	18
581.055	1	9
581.394	1	4
581.734	1	16
582.074	1	4
582.414	1	5
582.753	1	2
583.093	1	11
583.433	1	13
583.772	1	12
584.112	1	10
584.452	1	16
584.791	1	16
585.131	1	13
585.471	1	8
585.811	1	12
586.150	1	9
586.490	1	18
586.830	1	-7
587.169	1	7
587.509	1	5
587.849	1	8
588.188	1	20
588.528	1	1
588.867	1	1
589.207	1	2
589.547	1	2
589.886	1	10
590.226	1	16
590.566	1	5
590.905	1	22
591.245	1	8
591.585	1	10
591.924	1	1
592.264	1	1
592.603	1	3
592.943	1	6
593.283	1	-3
593.622	1	9
593.962	1	6
594.301	1	0
594.641	1	21
594.981	1	-1
595.320	1	14
595.660	1	13
595.999	1	13
596.339	1	14
596.678	1	2
597.018	1	3
597.358	1	3
597.697	1	5
598.037	1	8
598.376	1	8
598.716	1	15
599.055	1	0
599.395	1	1
599.734	1	3
600.074	1	4
600.413	1	6
600.753	1	5
601.092	1	7
601.432	1	-3
601.771	1	16
602.111	1	0
602.451	1	8
602.790	1	1
603.130	1	7
603.469	1	5
603.809	1	7
604.148	1	8
604.487	1	20
604.827	1	7
605.166	1	21
605.506	1	8
605.845	1	-5
606.185	1	4
606.524	1	14
606.864	1	15
607.203	1	1
607.543	1	7
607.882	1	18
608.222	1	-3
608.561	1	-7
608.901	1	15
609.240	1	2
609.579	1	12
609.919	1	13
610.258	1	-3
610.598	1	7
610.937	1	11
611.277	1	7
611.616	1	-4
611.955	1	-2
612.295	1	14
612.634	1	9
612.974	1	11
613.313	1	5
613.652	1	4
613.992	1	3
614.331	1	7
614.671	1	11
615.010	1	5
615.349	1	-1
615.689	1	9
616.028	1	18
616.368	1	5
616.707	1	6
617.046	1	5
617.386	1	6
617.725	1	8
618.064	1	-3
618.404	1	2
618.743	1	6
619.082	1	7
619.422	1	2
619.761	1	5
620.100	1	-8
620.440	1	-1
620.779	1	1
621.118	1	4
621.458	1	9
621.797	1	3
622.136	1	9
622.476	1	6
622.815	1	2
623.154	1	6
623.494	1	8
623.833	1	7
624.172	1	5
624.511	1	7
624.851	1	2
625.190	1	3
625.529	1	-1
625.869	1	4
626.208	1	4
626.547	1	4
626.886	1	0
627.226	1	-3
627.565	1	6
627.904	1	9
628.243	1	6
628.583	1	-5
628.922	1	0
629.261	1	-2
629.600	1	7
629.940	1	7
630.279	1	7
630.618	1	5
630.957	1	1
631.297	1	5
631.636	1	7
631.975	1	7
632.314	1	6
632.653	1	3
632.993	1	11
633.332	1	7
633.671	1	-2
634.010	1	-7
634.349	1	3
634.689	1	13
635.028	1	3
635.367	1	-1
635.706	1	4
636.045	1	21
636.384	1	8
636.724	1	1
637.063	1	0
637.402	1	-2
637.741	1	9
638.080	1	13
638.419	1	7
638.759	1	9
639.098	1	-6
639.437	1	11
639.776	1	0
640.115	1	5
640.454	1	9
640.793	1	-3
641.132	1	10
641.472	1	6
641.811	1	-5
642.150	1	-7
642.489	1	-4
642.828	1	-1
643.167	1	8
643.506	1	12
643.845	1	4
644.184	1	-1
644.524	1	1
644.863	1	-2
645.202	1	3
645.541	1	6
645.880	1	11
646.219	1	0
646.558	1	8
646.897	1	5
647.236	1	9
647.575	1	1
647.914	1	-5
648.253	1	6
648.592	1	-3
648.931	1	3
649.270	1	0
649.610	1	5
649.949	1	6
650.288	1	8
650.627	1	7
650.966	1	7
651.305	1	-9
651.644	1	4
651.983	1	-3
652.322	1	-5
652.661	1	-9
653.000	1	-2
653.339	1	3
653.678	1	-7
654.017	1	2
654.356	1	12
654.695	1	7
655.034	1	6
655.373	1	5
655.712	1	-5
656.051	1	-1
656.390	1	1
656.729	1	7
657.068	1	-1
657.406	1	-3
657.745	1	0
658.084	1	-1
658.423	1	-1
658.762	1	18
659.101	1	15
659.440	1	-9
659.779	1	1
660.118	1	-4
660.457	1	-1
660.796	1	13
661.135	1	17
661.474	1	0
661.813	1	6
662.152	1	6
662.491	1	23
662.829	1	10
663.168	1	1
663.507	1	0
663.846	1	8
664.185	1	1
664.524	1	0
664.863	1	6
665.202	1	1
665.541	1	1
665.879	1	12
666.218	1	22
666.557	1	-3
666.896	1	6
667.235	1	9
667.574	1	15
667.913	1	6
668.251	1	7
668.590	1	11
668.929	1	1
669.268	1	-4
669.607	1	-5
669.946	1	18
670.285	1	3
670.623	1	15
670.962	1	1
671.301	1	-6
671.640	1	-4
671.979	1	2
672.317	1	-7
672.656	1	6
672.995	1	-4
673.334	1	-7
673.673	1	12
674.011	1	-4
674.350	1	8
674.689	1	11
675.028	1	12
675.367	1	5
675.705	1	6
676.044	1	3
676.383	1	5
676.722	1	-4
677.060	1	-3
677.399	1	4
677.738	1	2
678.077	1	8
678.416	1	8
678.754	1	4
679.093	1	3
679.432	1	9
679.771	1	12
680.109	1	3
680.448	1	10
680.787	1	10
681.125	1	16
681.464	1	6
681.803	1	2
682.142	1	-1
682.480	1	12
682.819	1	3
683.158	1	-1
683.496	1	1
683.835	1	-6
684.174	1	7
684.512	1	12
684.851	1	1
685.190	1	9
685.529	1	-5
685.867	1	3
686.206	1	3
686.545	1	-1
686.883	1	-5
687.222	1	0
687.561	1	10
687.899	1	3
688.238	1	15
688.577	1	7
688.746	1	15