File: Data/GaN_130K_350ms/GaN_sample F_spot6_UVVIS_130 K_200um_350 ms 2x2mm1_210.txt
340.368	1	8
340.710	1	5
341.052	1	2
341.394	1	4
341.737	1	2
342.079	1	4
342.421	1	2
342.763	1	-6
343.105	1	4
343.447	1	5
343.789	1	7
344.131	1	8
344.473	1	1
344.815	1	-10
345.157	1	-5
345.499	1	-7
345.841	1	2
346.183	1	5
346.526	1	1
346.868	1	13
347.210	1	7
347.552	1	-11
347.894	1	3
348.236	1	-2
348.578	1	5
348.920	1	1
349.262	1	7
349.604	1	7
349.946	1	5
350.288	1	-6
350.630	1	0
350.972	1	7
351.314	1	-5
351.656	1	8
351.998	1	-1
352.340	1	14
352.682	1	6
353.024	1	4
353.366	1	7
353.708	1	2
354.050	1	15
354.392	1	2
354.734	1	-4
355.076	1	7
355.418	1	11
355.760	1	4
356.102	1	-1
356.444	1	-12
356.785	1	6
357.127	1	11
357.469	1	-2
357.811	1	-1
358.153	1	5
358.495	1	3
358.837	1	16
359.179	1	2
359.521	1	1
359.863	1	1
360.205	1	7
360.547	1	-4
360.889	1	4
361.231	1	-9
361.572	1	17
361.914	1	8
362.256	1	1
362.598	1	8
362.940	1	4
363.282	1	10
363.624	1	15
363.966	1	17
364.308	1	14
364.649	1	16
364.991	1	2
365.333	1	8
365.675	1	14
366.017	1	21
366.359	1	21
366.701	1	20
367.042	1	22
367.384	1	27
367.726	1	13
368.068	1	13
368.410	1	19
368.752	1	26
369.093	1	9
369.435	1	8
369.777	1	18
370.119	1	27
370.461	1	15
370.803	1	24
371.144	1	15
371.486	1	19
371.828	1	12
372.170	1	12
372.512	1	21
372.853	1	3
373.195	1	1
373.537	1	18
373.879	1	14
374.220	1	14
374.562	1	3
374.904	1	16
375.246	1	16
375.588	1	-1
375.929	1	8
376.271	1	17
376.613	1	5
376.955	1	14
377.296	1	11
377.638	1	-4
377.980	1	4
378.321	1	13
378.663	1	12
379.005	1	22
379.347	1	9
379.688	1	1
380.030	1	6
380.372	1	12
380.714	1	17
381.055	1	3
381.397	1	9
381.739	1	13
382.080	1	9
382.422	1	13
382.764	1	-1
383.105	1	8
383.447	1	7
383.789	1	8
384.130	1	11
384.472	1	15
384.814	1	-6
385.156	1	6
385.497	1	4
385.839	1	19
386.180	1	11
386.522	1	4
386.864	1	13
387.205	1	9
387.547	1	13
387.889	1	1
388.230	1	-6
388.572	1	11
388.914	1	7
389.255	1	5
389.597	1	-4
389.939	1	15
390.280	1	15
390.622	1	10
390.963	1	5
391.305	1	7
391.647	1	11
391.988	1	12
392.330	1	3
392.671	1	-9
393.013	1	12
393.355	1	9
393.696	1	1
394.038	1	10
394.379	1	14
394.721	1	10
395.062	1	-7
395.404	1	-7
395.746	1	4
396.087	1	11
396.429	1	1
396.770	1	10
397.112	1	13
397.453	1	17
397.795	1	-7
398.136	1	-7
398.478	1	2
398.819	1	-7
399.161	1	10
399.503	1	13
399.844	1	8
400.186	1	0
400.527	1	0
400.869	1	10
401.210	1	-5
401.552	1	13
401.893	1	4
402.235	1	11
402.576	1	3
402.918	1	12
403.259	1	-3
403.601	1	6
403.942	1	7
404.284	1	5
404.625	1	18
404.967	1	3
405.308	1	-1
405.649	1	3
405.991	1	10
406.332	1	8
406.674	1	22
407.015	1	4
407.357	1	1
407.698	1	11
408.040	1	11
408.381	1	18
408.722	1	4
409.064	1	14
409.405	1	14
409.747	1	4
410.088	1	12
410.430	1	15
410.771	1	3
411.112	1	6
411.454	1	12
411.795	1	7
412.137	1	-2
412.478	1	-3
412.819	1	10
413.161	1	12
413.502	1	19
413.844	1	4
414.185	1	11
414.526	1	9
414.868	1	5
415.209	1	5
415.550	1	2
415.892	1	12
416.233	1	10
416.575	1	3
416.916	1	4
417.257	1	8
417.599	1	3
417.940	1	12
418.281	1	8
418.623	1	9
418.964	1	4
419.305	1	-3
419.647	1	13
419.988	1	12
420.329	1	13
420.671	1	-5
421.012	1	5
421.353	1	-2
421.695	1	3
422.036	1	4
422.377	1	9
422.718	1	2
423.060	1	12
423.401	1	7
423.742	1	8
424.084	1	13
424.425	1	8
424.766	1	5
425.107	1	10
425.449	1	3
425.790	1	20
426.131	1	10
426.472	1	2
426.814	1	3
427.155	1	3
427.496	1	11
427.837	1	12
428.179	1	8
428.520	1	9
428.861	1	-2
429.202	1	13
429.544	1	10
429.885	1	-1
430.226	1	4
430.567	1	8
430.909	1	-2
431.250	1	5
431.591	1	6
431.932	1	2
432.273	1	11
432.615	1	18
432.956	1	-7
433.297	1	21
433.638	1	8
433.979	1	9
434.320	1	11
434.662	1	4
435.003	1	14
435.344	1	4
435.685	1	-1
436.026	1	7
436.368	1	-1
436.709	1	2
437.050	1	13
437.391	1	17
437.732	1	3
438.073	1	14
438.414	1	-7
438.756	1	6
439.097	1	5
439.438	1	1
439.779	1	2
440.120	1	1
440.461	1	18
440.802	1	-1
441.143	1	4
441.485	1	3
441.826	1	2
442.167	1	4
442.508	1	5
442.849	1	11
443.190	1	7
443.531	1	1
443.872	1	10
444.213	1	9
444.554	1	8
444.895	1	-1
445.237	1	-4
445.578	1	1
445.919	1	0
446.260	1	3
446.601	1	10
446.942	1	9
447.283	1	-1
447.624	1	4
447.965	1	3
448.306	1	2
448.647	1	14
448.988	1	3
449.329	1	2
449.670	1	3
450.011	1	3
450.352	1	9
450.693	1	1
451.034	1	-6
451.375	1	9
451.716	1	2
452.057	1	8
452.398	1	-3
452.739	1	-4
453.080	1	4
453.421	1	11
453.762	1	12
454.103	1	-2
454.444	1	11
454.785	1	9
455.126	1	-10
455.467	1	3
455.808	1	6
456.149	1	2
456.490	1	0
456.831	1	7
457.172	1	3
457.513	1	6
457.854	1	8
458.195	1	0
458.536	1	9
458.877	1	24
459.218	1	8
459.559	1	0
459.899	1	1
460.240	1	11
460.581	1	0
460.922	1	3
461.263	1	3
461.604	1	-8
461.945	1	5
462.286	1	5
462.627	1	4
462.968	1	2
463.309	1	7
463.649	1	-9
463.990	1	4
464.331	1	0
464.672	1	7
465.013	1	-11
465.354	1	-1
465.695	1	7
466.036	1	1
466.376	1	4
466.717	1	4
467.058	1	9
467.399	1	1
467.740	1	16
468.081	1	10
468.422	1	5
468.762	1	-3
469.103	1	-1
469.444	1	0
469.785	1	13
470.126	1	-10
470.467	1	6
470.807	1	4
471.148	1	-3
471.489	1	-2
471.830	1	6
472.171	1	8
472.511	1	1
472.852	1	12
473.193	1	3
473.534	1	5
473.875	1	18
474.215	1	4
474.556	1	7
474.897	1	-6
475.238	1	16
475.578	1	3
475.919	1	-10
476.260	1	9
476.601	1	1
476.942	1	14
477.282	1	-7
477.623	1	2
477.964	1	-7
478.305	1	14
478.645	1	2
478.986	1	1
479.327	1	0
479.667	1	8
480.008	1	3
480.349	1	4
480.690	1	3
481.030	1	2
481.371	1	8
481.712	1	9
482.053	1	8
482.393	1	13
482.734	1	2
483.075	1	5
483.415	1	1
483.756	1	0
484.097	1	8
484.437	1	7
484.778	1	4
485.119	1	8
485.459	1	-9
485.800	1	7
486.141	1	-4
486.481	1	-1
486.822	1	9
487.163	1	-3
487.503	1	-7
487.844	1	-2
488.185	1	3
488.525	1	10
488.866	1	2
489.207	1	-2
489.547	1	6
489.888	1	12
490.228	1	10
490.569	1	9
490.910	1	-7
491.250	1	9
491.591	1	1
491.932	1	1
492.272	1	1
492.613	1	-6
492.953	1	4
493.294	1	5
493.635	1	14
493.975	1	14
494.316	1	8
494.656	1	4
494.997	1	1
495.337	1	1
495.678	1	1
496.019	1	-6
496.359	1	6
496.700	1	7
497.040	1	12
497.381	1	1
497.721	1	2
498.062	1	2
498.403	1	1
498.743	1	0
499.084	1	12
499.424	1	-14
499.765	1	4
500.105	1	6
500.446	1	9
500.786	1	1
501.127	1	7
501.467	1	7
501.808	1	0
502.148	1	6
502.489	1	8
502.829	1	7
503.170	1	1
503.510	1	9
503.851	1	10
504.191	1	1
504.532	1	11
504.872	1	2
505.213	1	16
505.553	1	7
505.894	1	13
506.234	1	3
506.575	1	2
506.915	1	13
507.256	1	12
507.596	1	2
507.936	1	-5
508.277	1	2
508.617	1	3
508.958	1	3
509.298	1	5
509.639	1	12
509.979	1	4
510.319	1	16
510.660	1	-3
511.000	1	14
511.341	1	4
511.681	1	3
512.022	1	6
512.362	1	1
512.702	1	7
513.043	1	13
513.383	1	11
513.724	1	2
514.064	1	0
514.404	1	21
514.745	1	7
515.085	1	5
515.425	1	1
515.766	1	7
516.106	1	2
516.447	1	9
516.787	1	11
517.127	1	8
517.468	1	7
517.808	1	3
518.148	1	10
518.489	1	7
518.829	1	7
519.169	1	2
519.510	1	0
519.850	1	16
520.190	1	11
520.531	1	15
520.871	1	6
521.211	1	10
521.552	1	5
521.892	1	6
522.232	1	4
522.573	1	7
522.913	1	10
523.253	1	17
523.593	1	7
523.934	1	7
524.274	1	-3
524.614	1	6
524.955	1	4
525.295	1	5
525.635	1	0
525.975	1	18
526.316	1	2
526.656	1	10
526.996	1	-2
527.337	1	17
527.677	1	5
528.017	1	4
528.357	1	6
528.698	1	10
529.038	1	-14
529.378	1	7
529.718	1	16
530.058	1	11
530.399	1	8
530.739	1	6
531.079	1	10
531.419	1	14
531.760	1	-6
532.100	1	13
532.440	1	7
532.780	1	3
533.120	1	17
533.461	1	11
533.801	1	16
534.141	1	10
534.481	1	14
534.821	1	8
535.162	1	11
535.502	1	6
535.842	1	7
536.182	1	8
536.522	1	-7
536.862	1	-5
537.203	1	3
537.543	1	20
537.883	1	3
538.223	1	12
538.563	1	17
538.903	1	15
539.243	1	-6
539.584	1	13
539.924	1	10
540.264	1	7
540.604	1	14
540.944	1	3
541.284	1	5
541.624	1	7
541.964	1	6
542.305	1	4
542.645	1	3
542.985	1	12
543.325	1	12
543.665	1	17
544.005	1	11
544.345	1	5
544.685	1	16
545.025	1	9
545.365	1	14
545.705	1	8
546.045	1	10
546.386	1	12
546.726	1	4
547.066	1	13
547.406	1	-6
547.746	1	16
548.086	1	-6
548.426	1	4
548.766	1	12
549.106	1	-4
549.446	1	-2
549.786	1	4
550.126	1	13
550.466	1	1
550.806	1	15
551.146	1	10
551.486	1	2
551.826	1	-1
552.166	1	8
552.506	1	1
552.846	1	0
553.186	1	4
553.526	1	8
553.866	1	-9
554.206	1	-1
554.546	1	10
554.886	1	4
555.226	1	7
555.566	1	5
555.906	1	-1
556.246	1	10
556.586	1	11
556.926	1	2
557.266	1	-3
557.606	1	-3
557.946	1	3
558.286	1	12
558.626	1	-6
558.966	1	-1
559.306	1	0
559.646	1	7
559.986	1	5
560.325	1	-5
560.665	1	10
561.005	1	2
561.345	1	12
561.685	1	2
562.025	1	1
562.365	1	-5
562.705	1	3
563.045	1	8
563.385	1	-4
563.725	1	7
564.064	1	11
564.404	1	2
564.744	1	6
565.084	1	2
565.424	1	-2
565.764	1	9
566.104	1	13
566.444	1	8
566.783	1	7
567.123	1	5
567.463	1	5
567.803	1	9
568.143	1	7
568.483	1	0
568.823	1	-8
569.162	1	12
569.502	1	-6
569.842	1	-5
570.182	1	-2
570.522	1	-12
570.862	1	21
571.201	1	8
571.541	1	-2
571.881	1	1
572.221	1	7
572.561	1	8
572.900	1	5
573.240	1	-2
573.580	1	3
573.920	1	10
574.260	1	4
574.599	1	7
574.939	1	8
575.279	1	-5
575.619	1	12
575.959	1	6
576.298	1	4
576.638	1	1
576.978	1	-2
577.318	1	4
577.657	1	19
577.997	1	4
578.337	1	7
578.677	1	9
579.016	1	3
579.356	1	12
579.696	1	-3
580.036	1	6
580.375	1	7
580.715	1	4
581.055	1	7
581.394	1	0
581.734	1	8
582.074	1	-5
582.414	1	-4
582.753	1	7
583.093	1	9
583.433	1	13
583.772	1	10
584.112	1	7
584.452	1	13
584.791	1	5
585.131	1	5
585.471	1	2
585.811	1	7
586.150	1	7
586.490	1	4
586.830	1	-7
587.169	1	9
587.509	1	7
587.849	1	0
588.188	1	11
588.528	1	6
588.867	1	5
589.207	1	0
589.547	1	-6
589.886	1	1
590.226	1	7
590.566	1	2
590.905	1	5
591.245	1	-4
591.585	1	2
591.924	1	3
592.264	1	10
592.603	1	-1
592.943	1	4
593.283	1	-9
593.622	1	4
593.962	1	6
594.301	1	-15
594.641	1	6
594.981	1	-6
595.320	1	11
595.660	1	3
595.999	1	5
596.339	1	12
596.678	1	-3
597.018	1	7
597.358	1	-7
597.697	1	3
598.037	1	4
598.376	1	-9
598.716	1	16
599.055	1	2
599.395	1	-4
599.734	1	0
600.074	1	10
600.413	1	12
600.753	1	3
601.092	1	-3
601.432	1	1
601.771	1	10
602.111	1	3
602.451	1	9
602.790	1	1
603.130	1	5
603.469	1	8
603.809	1	1
604.148	1	4
604.487	1	11
604.827	1	-7
605.166	1	5
605.506	1	4
605.845	1	-5
606.185	1	0
606.524	1	4
606.864	1	12
607.203	1	5
607.543	1	3
607.882	1	4
608.222	1	-4
608.561	1	1
608.901	1	9
609.240	1	-8
609.579	1	9
609.919	1	16
610.258	1	5
610.598	1	-1
610.937	1	8
611.277	1	2
611.616	1	-9
611.955	1	-4
612.295	1	10
612.634	1	1
612.974	1	10
613.313	1	5
613.652	1	-1
613.992	1	2
614.331	1	6
614.671	1	9
615.010	1	4
615.349	1	-1
615.689	1	3
616.028	1	9
616.368	1	7
616.707	1	5
617.046	1	3
617.386	1	-5
617.725	1	-4
618.064	1	9
618.404	1	0
618.743	1	5
619.082	1	3
619.422	1	-1
619.761	1	7
620.100	1	6
620.440	1	-2
620.779	1	6
621.118	1	5
621.458	1	3
621.797	1	-1
622.136	1	5
622.476	1	14
622.815	1	-1
623.154	1	-10
623.494	1	15
623.833	1	7
624.172	1	-1
624.511	1	-1
624.851	1	3
625.190	1	-1
625.529	1	-5
625.869	1	8
626.208	1	3
626.547	1	5
626.886	1	9
627.226	1	6
627.565	1	-6
627.904	1	0
628.243	1	9
628.583	1	-15
628.922	1	-3
629.261	1	-13
629.600	1	6
629.940	1	5
630.279	1	11
630.618	1	3
630.957	1	8
631.297	1	1
631.636	1	9
631.975	1	4
632.314	1	-8
632.653	1	-3
632.993	1	8
633.332	1	1
633.671	1	0
634.010	1	-1
634.349	1	5
634.689	1	6
635.028	1	3
635.367	1	-4
635.706	1	-8
636.045	1	13
636.384	1	3
636.724	1	7
637.063	1	3
637.402	1	-2
637.741	1	11
638.080	1	13
638.419	1	5
638.759	1	-1
639.098	1	-5
639.437	1	8
639.776	1	8
640.115	1	6
640.454	1	6
640.793	1	-7
641.132	1	14
641.472	1	-2
641.811	1	-2
642.150	1	-7
642.489	1	-2
642.828	1	-2
643.167	1	2
643.506	1	15
643.845	1	-2
644.184	1	-2
644.524	1	-6
644.863	1	3
645.202	1	4
645.541	1	5
645.880	1	10
646.219	1	10
646.558	1	1
646.897	1	-3
647.236	1	-3
647.575	1	2
647.914	1	-8
648.253	1	-2
648.592	1	0
648.931	1	0
649.270	1	2
649.610	1	3
649.949	1	4
650.288	1	8
650.627	1	2
650.966	1	4
651.305	1	-10
651.644	1	5
651.983	1	-19
652.322	1	-3
652.661	1	0
653.000	1	3
653.339	1	0
653.678	1	-2
654.017	1	-6
654.356	1	7
654.695	1	3
655.034	1	0
655.373	1	2
655.712	1	5
656.051	1	-1
656.390	1	2
656.729	1	6
657.068	1	-3
657.406	1	-1
657.745	1	-7
658.084	1	0
658.423	1	4
658.762	1	15
659.101	1	8
659.440	1	-1
659.779	1	10
660.118	1	-6
660.457	1	-4
660.796	1	2
661.135	1	10
661.474	1	10
661.813	1	7
662.152	1	8
662.491	1	7
662.829	1	18
663.168	1	-1
663.507	1	3
663.846	1	-8
664.185	1	-4
664.524	1	-5
664.863	1	8
665.202	1	4
665.541	1	-6
665.879	1	0
666.218	1	-1
666.557	1	7
666.896	1	13
667.235	1	-2
667.574	1	12
667.913	1	6
668.251	1	8
668.590	1	7
668.929	1	4
669.268	1	3
669.607	1	-6
669.946	1	9
670.285	1	2
670.623	1	9
670.962	1	-2
671.301	1	-2
671.640	1	-1
671.979	1	-1
672.317	1	-9
672.656	1	2
672.995	1	4
673.334	1	-8
673.673	1	1
674.011	1	2
674.350	1	-4
674.689	1	10
675.028	1	10
675.367	1	-4
675.705	1	18
676.044	1	-3
676.383	1	11
676.722	1	2
677.060	1	9
677.399	1	-5
677.738	1	-5
678.077	1	4
678.416	1	3
678.754	1	9
679.093	1	7
679.432	1	3
679.771	1	-1
680.109	1	0
680.448	1	4
680.787	1	2
681.125	1	7
681.464	1	-6
681.803	1	-3
682.142	1	-2
682.480	1	10
682.819	1	7
683.158	1	2
683.496	1	-6
683.835	1	-4
684.174	1	4
684.512	1	9
684.851	1	-1
685.190	1	1
685.529	1	-9
685.867	1	-3
686.206	1	8
686.545	1	5
686.883	1	3
687.222	1	1
687.561	1	9
687.899	1	3
688.238	1	7
688.577	1	-2
688.746	1	0