File: Data/GaN_130K_350ms/GaN_sample F_spot6_UVVIS_130 K_200um_350 ms 2x2mm1_248.txt
340.368	1	3
340.710	1	10
341.052	1	-4
341.394	1	0
341.737	1	1
342.079	1	-5
342.421	1	12
342.763	1	1
343.105	1	2
343.447	1	-3
343.789	1	4
344.131	1	-6
344.473	1	1
344.815	1	1
345.157	1	-12
345.499	1	1
345.841	1	7
346.183	1	10
346.526	1	5
346.868	1	-1
347.210	1	-2
347.552	1	-7
347.894	1	-5
348.236	1	-6
348.578	1	1
348.920	1	4
349.262	1	1
349.604	1	2
349.946	1	0
350.288	1	5
350.630	1	13
350.972	1	9
351.314	1	-2
351.656	1	14
351.998	1	-5
352.340	1	13
352.682	1	3
353.024	1	-5
353.366	1	6
353.708	1	-9
354.050	1	2
354.392	1	2
354.734	1	8
355.076	1	-8
355.418	1	3
355.760	1	14
356.102	1	0
356.444	1	-8
356.785	1	9
357.127	1	6
357.469	1	0
357.811	1	10
358.153	1	1
358.495	1	0
358.837	1	2
359.179	1	2
359.521	1	-2
359.863	1	2
360.205	1	3
360.547	1	-4
360.889	1	9
361.231	1	6
361.572	1	17
361.914	1	-2
362.256	1	3
362.598	1	10
362.940	1	-8
363.282	1	5
363.624	1	13
363.966	1	12
364.308	1	12
364.649	1	9
364.991	1	5
365.333	1	10
365.675	1	-5
366.017	1	23
366.359	1	11
366.701	1	2
367.042	1	10
367.384	1	16
367.726	1	14
368.068	1	0
368.410	1	2
368.752	1	13
369.093	1	8
369.435	1	14
369.777	1	12
370.119	1	16
370.461	1	7
370.803	1	-5
371.144	1	12
371.486	1	15
371.828	1	2
372.170	1	3
372.512	1	15
372.853	1	-3
373.195	1	1
373.537	1	10
373.879	1	18
374.220	1	7
374.562	1	3
374.904	1	5
375.246	1	13
375.588	1	11
375.929	1	1
376.271	1	11
376.613	1	6
376.955	1	3
377.296	1	0
377.638	1	-6
377.980	1	-5
378.321	1	2
378.663	1	7
379.005	1	20
379.347	1	0
379.688	1	2
380.030	1	-5
380.372	1	5
380.714	1	15
381.055	1	2
381.397	1	8
381.739	1	9
382.080	1	2
382.422	1	9
382.764	1	10
383.105	1	1
383.447	1	15
383.789	1	7
384.130	1	10
384.472	1	12
384.814	1	5
385.156	1	2
385.497	1	0
385.839	1	1
386.180	1	6
386.522	1	3
386.864	1	7
387.205	1	-3
387.547	1	1
387.889	1	-7
388.230	1	12
388.572	1	12
388.914	1	8
389.255	1	2
389.597	1	-9
389.939	1	7
390.280	1	13
390.622	1	9
390.963	1	1
391.305	1	4
391.647	1	5
391.988	1	20
392.330	1	4
392.671	1	4
393.013	1	7
393.355	1	2
393.696	1	3
394.038	1	13
394.379	1	13
394.721	1	11
395.062	1	-2
395.404	1	-8
395.746	1	6
396.087	1	11
396.429	1	7
396.770	1	17
397.112	1	0
397.453	1	18
397.795	1	-3
398.136	1	12
398.478	1	-7
398.819	1	-9
399.161	1	12
399.503	1	6
399.844	1	3
400.186	1	-1
400.527	1	-2
400.869	1	7
401.210	1	-1
401.552	1	14
401.893	1	-9
402.235	1	6
402.576	1	1
402.918	1	8
403.259	1	-5
403.601	1	-4
403.942	1	11
404.284	1	12
404.625	1	16
404.967	1	4
405.308	1	-1
405.649	1	6
405.991	1	10
406.332	1	5
406.674	1	9
407.015	1	7
407.357	1	7
407.698	1	0
408.040	1	4
408.381	1	6
408.722	1	4
409.064	1	8
409.405	1	-3
409.747	1	7
410.088	1	9
410.430	1	6
410.771	1	-19
411.112	1	6
411.454	1	4
411.795	1	10
412.137	1	2
412.478	1	2
412.819	1	8
413.161	1	2
413.502	1	13
413.844	1	2
414.185	1	10
414.526	1	9
414.868	1	-1
415.209	1	4
415.550	1	-4
415.892	1	8
416.233	1	16
416.575	1	-3
416.916	1	-3
417.257	1	4
417.599	1	2
417.940	1	13
418.281	1	2
418.623	1	3
418.964	1	4
419.305	1	-6
419.647	1	15
419.988	1	7
420.329	1	11
420.671	1	0
421.012	1	10
421.353	1	2
421.695	1	3
422.036	1	6
422.377	1	6
422.718	1	2
423.060	1	6
423.401	1	9
423.742	1	0
424.084	1	13
424.425	1	2
424.766	1	9
425.107	1	11
425.449	1	7
425.790	1	17
426.131	1	15
426.472	1	-6
426.814	1	14
427.155	1	1
427.496	1	5
427.837	1	4
428.179	1	5
428.520	1	5
428.861	1	1
429.202	1	8
429.544	1	9
429.885	1	-3
430.226	1	8
430.567	1	4
430.909	1	0
431.250	1	9
431.591	1	0
431.932	1	5
432.273	1	6
432.615	1	16
432.956	1	0
433.297	1	14
433.638	1	11
433.979	1	3
434.320	1	8
434.662	1	7
435.003	1	15
435.344	1	6
435.685	1	-6
436.026	1	5
436.368	1	-6
436.709	1	-2
437.050	1	9
437.391	1	10
437.732	1	4
438.073	1	18
438.414	1	-6
438.756	1	2
439.097	1	7
439.438	1	5
439.779	1	10
440.120	1	10
440.461	1	20
440.802	1	-6
441.143	1	3
441.485	1	8
441.826	1	2
442.167	1	-4
442.508	1	8
442.849	1	7
443.190	1	4
443.531	1	-2
443.872	1	0
444.213	1	8
444.554	1	3
444.895	1	4
445.237	1	-4
445.578	1	-8
445.919	1	5
446.260	1	-2
446.601	1	1
446.942	1	5
447.283	1	10
447.624	1	2
447.965	1	4
448.306	1	6
448.647	1	7
448.988	1	7
449.329	1	3
449.670	1	4
450.011	1	0
450.352	1	9
450.693	1	-4
451.034	1	4
451.375	1	9
451.716	1	-11
452.057	1	15
452.398	1	-13
452.739	1	2
453.080	1	8
453.421	1	8
453.762	1	6
454.103	1	-1
454.444	1	3
454.785	1	13
455.126	1	1
455.467	1	-1
455.808	1	5
456.149	1	-9
456.490	1	4
456.831	1	0
457.172	1	0
457.513	1	-2
457.854	1	4
458.195	1	-9
458.536	1	7
458.877	1	16
459.218	1	1
459.559	1	12
459.899	1	2
460.240	1	15
460.581	1	1
460.922	1	1
461.263	1	1
461.604	1	-7
461.945	1	18
462.286	1	16
462.627	1	0
462.968	1	-1
463.309	1	4
463.649	1	-7
463.990	1	13
464.331	1	1
464.672	1	7
465.013	1	-8
465.354	1	2
465.695	1	13
466.036	1	6
466.376	1	7
466.717	1	7
467.058	1	9
467.399	1	-6
467.740	1	16
468.081	1	9
468.422	1	13
468.762	1	4
469.103	1	-2
469.444	1	4
469.785	1	-1
470.126	1	-2
470.467	1	0
470.807	1	12
471.148	1	-5
471.489	1	-11
471.830	1	4
472.171	1	-1
472.511	1	6
472.852	1	5
473.193	1	6
473.534	1	1
473.875	1	18
474.215	1	4
474.556	1	7
474.897	1	1
475.238	1	14
475.578	1	7
475.919	1	-3
476.260	1	5
476.601	1	-7
476.942	1	10
477.282	1	9
477.623	1	3
477.964	1	-1
478.305	1	5
478.645	1	3
478.986	1	1
479.327	1	0
479.667	1	3
480.008	1	-5
480.349	1	-2
480.690	1	-1
481.030	1	3
481.371	1	9
481.712	1	11
482.053	1	2
482.393	1	16
482.734	1	4
483.075	1	14
483.415	1	0
483.756	1	3
484.097	1	3
484.437	1	-6
484.778	1	7
485.119	1	5
485.459	1	-6
485.800	1	16
486.141	1	-3
486.481	1	-1
486.822	1	2
487.163	1	-3
487.503	1	-11
487.844	1	-3
488.185	1	5
488.525	1	5
488.866	1	4
489.207	1	1
489.547	1	-6
489.888	1	9
490.228	1	8
490.569	1	4
490.910	1	-11
491.250	1	6
491.591	1	-4
491.932	1	8
492.272	1	4
492.613	1	1
492.953	1	3
493.294	1	7
493.635	1	15
493.975	1	13
494.316	1	4
494.656	1	3
494.997	1	-4
495.337	1	7
495.678	1	5
496.019	1	2
496.359	1	7
496.700	1	13
497.040	1	8
497.381	1	0
497.721	1	-5
498.062	1	1
498.403	1	-6
498.743	1	9
499.084	1	8
499.424	1	-10
499.765	1	-3
500.105	1	6
500.446	1	4
500.786	1	7
501.127	1	5
501.467	1	8
501.808	1	3
502.148	1	11
502.489	1	-4
502.829	1	1
503.170	1	0
503.510	1	6
503.851	1	-3
504.191	1	1
504.532	1	12
504.872	1	7
505.213	1	6
505.553	1	6
505.894	1	16
506.234	1	7
506.575	1	-4
506.915	1	4
507.256	1	13
507.596	1	4
507.936	1	-3
508.277	1	5
508.617	1	1
508.958	1	4
509.298	1	3
509.639	1	16
509.979	1	-4
510.319	1	9
510.660	1	-3
511.000	1	5
511.341	1	-9
511.681	1	0
512.022	1	9
512.362	1	2
512.702	1	17
513.043	1	12
513.383	1	2
513.724	1	2
514.064	1	1
514.404	1	16
514.745	1	0
515.085	1	6
515.425	1	-1
515.766	1	-2
516.106	1	2
516.447	1	1
516.787	1	8
517.127	1	4
517.468	1	9
517.808	1	-1
518.148	1	5
518.489	1	8
518.829	1	6
519.169	1	12
519.510	1	-4
519.850	1	17
520.190	1	6
520.531	1	13
520.871	1	6
521.211	1	13
521.552	1	4
521.892	1	9
522.232	1	-8
522.573	1	6
522.913	1	5
523.253	1	6
523.593	1	6
523.934	1	0
524.274	1	-5
524.614	1	14
524.955	1	16
525.295	1	9
525.635	1	4
525.975	1	16
526.316	1	-2
526.656	1	8
526.996	1	-1
527.337	1	11
527.677	1	-11
528.017	1	14
528.357	1	8
528.698	1	-5
529.038	1	-2
529.378	1	9
529.718	1	12
530.058	1	4
530.399	1	7
530.739	1	11
531.079	1	9
531.419	1	8
531.760	1	2
532.100	1	3
532.440	1	0
532.780	1	-5
533.120	1	0
533.461	1	5
533.801	1	12
534.141	1	14
534.481	1	4
534.821	1	8
535.162	1	10
535.502	1	15
535.842	1	6
536.182	1	16
536.522	1	3
536.862	1	-2
537.203	1	-5
537.543	1	7
537.883	1	2
538.223	1	9
538.563	1	10
538.903	1	11
539.243	1	9
539.584	1	1
539.924	1	3
540.264	1	3
540.604	1	8
540.944	1	7
541.284	1	3
541.624	1	15
541.964	1	-4
542.305	1	3
542.645	1	-3
542.985	1	7
543.325	1	3
543.665	1	3
544.005	1	5
544.345	1	3
544.685	1	15
545.025	1	5
545.365	1	-2
545.705	1	-1
546.045	1	5
546.386	1	-2
546.726	1	-3
547.066	1	3
547.406	1	-12
547.746	1	0
548.086	1	-5
548.426	1	5
548.766	1	2
549.106	1	-7
549.446	1	1
549.786	1	6
550.126	1	11
550.466	1	15
550.806	1	11
551.146	1	5
551.486	1	2
551.826	1	3
552.166	1	9
552.506	1	-3
552.846	1	1
553.186	1	1
553.526	1	3
553.866	1	2
554.206	1	0
554.546	1	1
554.886	1	2
555.226	1	6
555.566	1	5
555.906	1	-3
556.246	1	-1
556.586	1	-2
556.926	1	7
557.266	1	4
557.606	1	-1
557.946	1	2
558.286	1	9
558.626	1	-8
558.966	1	2
559.306	1	-9
559.646	1	-3
559.986	1	-2
560.325	1	-11
560.665	1	3
561.005	1	5
561.345	1	15
561.685	1	5
562.025	1	4
562.365	1	8
562.705	1	5
563.045	1	-4
563.385	1	10
563.725	1	3
564.064	1	14
564.404	1	2
564.744	1	8
565.084	1	10
565.424	1	-4
565.764	1	7
566.104	1	-1
566.444	1	9
566.783	1	5
567.123	1	0
567.463	1	2
567.803	1	6
568.143	1	13
568.483	1	3
568.823	1	-5
569.162	1	5
569.502	1	-2
569.842	1	-2
570.182	1	-4
570.522	1	-9
570.862	1	11
571.201	1	-1
571.541	1	-4
571.881	1	4
572.221	1	12
572.561	1	1
572.900	1	1
573.240	1	-7
573.580	1	-1
573.920	1	8
574.260	1	2
574.599	1	7
574.939	1	6
575.279	1	3
575.619	1	4
575.959	1	-2
576.298	1	4
576.638	1	4
576.978	1	0
577.318	1	-1
577.657	1	10
577.997	1	3
578.337	1	1
578.677	1	6
579.016	1	4
579.356	1	12
579.696	1	-10
580.036	1	5
580.375	1	-4
580.715	1	4
581.055	1	4
581.394	1	4
581.734	1	5
582.074	1	-1
582.414	1	-2
582.753	1	7
583.093	1	3
583.433	1	12
583.772	1	-1
584.112	1	4
584.452	1	8
584.791	1	9
585.131	1	13
585.471	1	-2
585.811	1	-1
586.150	1	15
586.490	1	14
586.830	1	-7
587.169	1	4
587.509	1	0
587.849	1	6
588.188	1	3
588.528	1	6
588.867	1	11
589.207	1	4
589.547	1	0
589.886	1	4
590.226	1	13
590.566	1	-2
590.905	1	2
591.245	1	-2
591.585	1	8
591.924	1	5
592.264	1	13
592.603	1	1
592.943	1	-1
593.283	1	-10
593.622	1	12
593.962	1	6
594.301	1	-2
594.641	1	4
594.981	1	-4
595.320	1	1
595.660	1	4
595.999	1	8
596.339	1	7
596.678	1	-7
597.018	1	-4
597.358	1	-4
597.697	1	-8
598.037	1	2
598.376	1	-1
598.716	1	0
599.055	1	-5
599.395	1	-7
599.734	1	-5
600.074	1	-1
600.413	1	6
600.753	1	0
601.092	1	4
601.432	1	-6
601.771	1	8
602.111	1	4
602.451	1	6
602.790	1	4
603.130	1	1
603.469	1	-3
603.809	1	2
604.148	1	8
604.487	1	4
604.827	1	2
605.166	1	6
605.506	1	5
605.845	1	-7
606.185	1	-2
606.524	1	5
606.864	1	11
607.203	1	0
607.543	1	2
607.882	1	-3
608.222	1	-13
608.561	1	2
608.901	1	7
609.240	1	-7
609.579	1	4
609.919	1	11
610.258	1	1
610.598	1	5
610.937	1	-2
611.277	1	6
611.616	1	-7
611.955	1	-1
612.295	1	6
612.634	1	7
612.974	1	11
613.313	1	6
613.652	1	3
613.992	1	1
614.331	1	-4
614.671	1	2
615.010	1	-1
615.349	1	8
615.689	1	-1
616.028	1	12
616.368	1	0
616.707	1	2
617.046	1	18
617.386	1	-8
617.725	1	6
618.064	1	4
618.404	1	2
618.743	1	7
619.082	1	7
619.422	1	-2
619.761	1	8
620.100	1	-3
620.440	1	3
620.779	1	3
621.118	1	4
621.458	1	12
621.797	1	0
622.136	1	1
622.476	1	12
622.815	1	-4
623.154	1	-3
623.494	1	4
623.833	1	13
624.172	1	0
624.511	1	6
624.851	1	9
625.190	1	-4
625.529	1	-6
625.869	1	10
626.208	1	1
626.547	1	4
626.886	1	-3
627.226	1	-2
627.565	1	2
627.904	1	6
628.243	1	5
628.583	1	-4
628.922	1	-4
629.261	1	-10
629.600	1	0
629.940	1	7
630.279	1	4
630.618	1	2
630.957	1	8
631.297	1	4
631.636	1	3
631.975	1	-1
632.314	1	-2
632.653	1	3
632.993	1	9
633.332	1	-8
633.671	1	-8
634.010	1	-5
634.349	1	-1
634.689	1	9
635.028	1	17
635.367	1	-2
635.706	1	-2
636.045	1	18
636.384	1	4
636.724	1	8
637.063	1	9
637.402	1	-6
637.741	1	7
638.080	1	7
638.419	1	4
638.759	1	-5
639.098	1	-9
639.437	1	7
639.776	1	-3
640.115	1	3
640.454	1	13
640.793	1	-2
641.132	1	17
641.472	1	4
641.811	1	2
642.150	1	-13
642.489	1	-9
642.828	1	2
643.167	1	4
643.506	1	3
643.845	1	-5
644.184	1	-9
644.524	1	-2
644.863	1	-7
645.202	1	11
645.541	1	-4
645.880	1	2
646.219	1	5
646.558	1	1
646.897	1	1
647.236	1	-4
647.575	1	-4
647.914	1	-5
648.253	1	-4
648.592	1	2
648.931	1	-2
649.270	1	-3
649.610	1	-7
649.949	1	1
650.288	1	7
650.627	1	5
650.966	1	2
651.305	1	-5
651.644	1	2
651.983	1	-17
652.322	1	1
652.661	1	0
653.000	1	-1
653.339	1	2
653.678	1	2
654.017	1	2
654.356	1	1
654.695	1	5
655.034	1	-3
655.373	1	-2
655.712	1	8
656.051	1	7
656.390	1	-2
656.729	1	7
657.068	1	-2
657.406	1	-2
657.745	1	1
658.084	1	4
658.423	1	4
658.762	1	18
659.101	1	0
659.440	1	-10
659.779	1	6
660.118	1	-5
660.457	1	-2
660.796	1	3
661.135	1	14
661.474	1	9
661.813	1	4
662.152	1	1
662.491	1	9
662.829	1	9
663.168	1	-8
663.507	1	-6
663.846	1	7
664.185	1	-1
664.524	1	-4
664.863	1	14
665.202	1	5
665.541	1	-1
665.879	1	0
666.218	1	7
666.557	1	10
666.896	1	6
667.235	1	6
667.574	1	16
667.913	1	9
668.251	1	-4
668.590	1	0
668.929	1	-1
669.268	1	-1
669.607	1	3
669.946	1	14
670.285	1	-1
670.623	1	11
670.962	1	-12
671.301	1	-4
671.640	1	-5
671.979	1	4
672.317	1	1
672.656	1	-3
672.995	1	1
673.334	1	-7
673.673	1	0
674.011	1	1
674.350	1	1
674.689	1	6
675.028	1	9
675.367	1	-2
675.705	1	12
676.044	1	6
676.383	1	2
676.722	1	-2
677.060	1	0
677.399	1	0
677.738	1	-4
678.077	1	9
678.416	1	4
678.754	1	13
679.093	1	4
679.432	1	1
679.771	1	1
680.109	1	8
680.448	1	-1
680.787	1	5
681.125	1	7
681.464	1	-4
681.803	1	-11
682.142	1	2
682.480	1	16
682.819	1	-3
683.158	1	3
683.496	1	-8
683.835	1	-4
684.174	1	13
684.512	1	9
684.851	1	0
685.190	1	2
685.529	1	-5
685.867	1	-2
686.206	1	7
686.545	1	7
686.883	1	-6
687.222	1	-1
687.561	1	13
687.899	1	8
688.238	1	16
688.577	1	1
688.746	1	6