File: Data/GaN_130K_350ms/GaN_sample F_spot6_UVVIS_130 K_200um_350 ms 2x2mm1_112.txt
340.368	1	6
340.710	1	13
341.052	1	-7
341.394	1	3
341.737	1	9
342.079	1	1
342.421	1	6
342.763	1	14
343.105	1	8
343.447	1	2
343.789	1	4
344.131	1	5
344.473	1	0
344.815	1	-2
345.157	1	-11
345.499	1	-1
345.841	1	6
346.183	1	10
346.526	1	10
346.868	1	6
347.210	1	6
347.552	1	8
347.894	1	-2
348.236	1	0
348.578	1	4
348.920	1	8
349.262	1	3
349.604	1	2
349.946	1	10
350.288	1	4
350.630	1	8
350.972	1	14
351.314	1	8
351.656	1	11
351.998	1	4
352.340	1	20
352.682	1	5
353.024	1	4
353.366	1	13
353.708	1	0
354.050	1	10
354.392	1	18
354.734	1	6
355.076	1	5
355.418	1	8
355.760	1	5
356.102	1	7
356.444	1	-3
356.785	1	22
357.127	1	18
357.469	1	5
357.811	1	6
358.153	1	9
358.495	1	24
358.837	1	15
359.179	1	20
359.521	1	9
359.863	1	13
360.205	1	20
360.547	1	14
360.889	1	18
361.231	1	21
361.572	1	29
361.914	1	21
362.256	1	29
362.598	1	27
362.940	1	33
363.282	1	40
363.624	1	44
363.966	1	63
364.308	1	58
364.649	1	65
364.991	1	54
365.333	1	54
365.675	1	70
366.017	1	64
366.359	1	65
366.701	1	77
367.042	1	73
367.384	1	80
367.726	1	81
368.068	1	80
368.410	1	72
368.752	1	85
369.093	1	81
369.435	1	76
369.777	1	65
370.119	1	79
370.461	1	75
370.803	1	62
371.144	1	59
371.486	1	66
371.828	1	55
372.170	1	51
372.512	1	50
372.853	1	39
373.195	1	59
373.537	1	55
373.879	1	51
374.220	1	34
374.562	1	38
374.904	1	46
375.246	1	46
375.588	1	34
375.929	1	27
376.271	1	43
376.613	1	28
376.955	1	30
377.296	1	34
377.638	1	23
377.980	1	18
378.321	1	25
378.663	1	38
379.005	1	42
379.347	1	36
379.688	1	26
380.030	1	15
380.372	1	31
380.714	1	35
381.055	1	19
381.397	1	28
381.739	1	21
382.080	1	16
382.422	1	29
382.764	1	17
383.105	1	26
383.447	1	24
383.789	1	29
384.130	1	30
384.472	1	16
384.814	1	24
385.156	1	17
385.497	1	30
385.839	1	30
386.180	1	19
386.522	1	13
386.864	1	13
387.205	1	17
387.547	1	26
387.889	1	6
388.230	1	13
388.572	1	12
388.914	1	14
389.255	1	11
389.597	1	2
389.939	1	21
390.280	1	18
390.622	1	15
390.963	1	22
391.305	1	14
391.647	1	15
391.988	1	17
392.330	1	6
392.671	1	11
393.013	1	20
393.355	1	10
393.696	1	8
394.038	1	11
394.379	1	15
394.721	1	15
395.062	1	2
395.404	1	1
395.746	1	18
396.087	1	24
396.429	1	15
396.770	1	13
397.112	1	14
397.453	1	20
397.795	1	6
398.136	1	18
398.478	1	10
398.819	1	11
399.161	1	13
399.503	1	25
399.844	1	12
400.186	1	7
400.527	1	17
400.869	1	6
401.210	1	7
401.552	1	18
401.893	1	5
402.235	1	11
402.576	1	4
402.918	1	21
403.259	1	6
403.601	1	10
403.942	1	10
404.284	1	8
404.625	1	11
404.967	1	12
405.308	1	10
405.649	1	4
405.991	1	14
406.332	1	14
406.674	1	19
407.015	1	11
407.357	1	19
407.698	1	8
408.040	1	20
408.381	1	12
408.722	1	14
409.064	1	10
409.405	1	14
409.747	1	9
410.088	1	21
410.430	1	25
410.771	1	-2
411.112	1	17
411.454	1	11
411.795	1	13
412.137	1	-3
412.478	1	7
412.819	1	9
413.161	1	11
413.502	1	21
413.844	1	14
414.185	1	14
414.526	1	7
414.868	1	12
415.209	1	6
415.550	1	7
415.892	1	10
416.233	1	12
416.575	1	12
416.916	1	1
417.257	1	11
417.599	1	5
417.940	1	16
418.281	1	2
418.623	1	13
418.964	1	6
419.305	1	4
419.647	1	15
419.988	1	20
420.329	1	17
420.671	1	-2
421.012	1	6
421.353	1	3
421.695	1	4
422.036	1	17
422.377	1	12
422.718	1	16
423.060	1	13
423.401	1	8
423.742	1	3
424.084	1	8
424.425	1	15
424.766	1	6
425.107	1	2
425.449	1	5
425.790	1	19
426.131	1	12
426.472	1	2
426.814	1	19
427.155	1	6
427.496	1	10
427.837	1	14
428.179	1	6
428.520	1	16
428.861	1	12
429.202	1	10
429.544	1	13
429.885	1	10
430.226	1	4
430.567	1	3
430.909	1	11
431.250	1	8
431.591	1	7
431.932	1	4
432.273	1	11
432.615	1	14
432.956	1	-2
433.297	1	13
433.638	1	6
433.979	1	13
434.320	1	9
434.662	1	8
435.003	1	19
435.344	1	13
435.685	1	0
436.026	1	5
436.368	1	0
436.709	1	5
437.050	1	14
437.391	1	9
437.732	1	6
438.073	1	11
438.414	1	7
438.756	1	4
439.097	1	5
439.438	1	6
439.779	1	5
440.120	1	10
440.461	1	7
440.802	1	4
441.143	1	-1
441.485	1	17
441.826	1	7
442.167	1	5
442.508	1	3
442.849	1	10
443.190	1	2
443.531	1	12
443.872	1	18
444.213	1	7
444.554	1	8
444.895	1	-1
445.237	1	2
445.578	1	4
445.919	1	2
446.260	1	7
446.601	1	18
446.942	1	8
447.283	1	14
447.624	1	4
447.965	1	10
448.306	1	-2
448.647	1	14
448.988	1	3
449.329	1	-1
449.670	1	-5
450.011	1	-2
450.352	1	9
450.693	1	6
451.034	1	3
451.375	1	16
451.716	1	0
452.057	1	14
452.398	1	-1
452.739	1	-1
453.080	1	6
453.421	1	12
453.762	1	7
454.103	1	-3
454.444	1	4
454.785	1	11
455.126	1	2
455.467	1	3
455.808	1	16
456.149	1	0
456.490	1	5
456.831	1	11
457.172	1	3
457.513	1	0
457.854	1	13
458.195	1	-4
458.536	1	1
458.877	1	28
459.218	1	-2
459.559	1	4
459.899	1	4
460.240	1	14
460.581	1	5
460.922	1	4
461.263	1	9
461.604	1	-7
461.945	1	12
462.286	1	5
462.627	1	-1
462.968	1	2
463.309	1	3
463.649	1	9
463.990	1	10
464.331	1	12
464.672	1	11
465.013	1	3
465.354	1	4
465.695	1	20
466.036	1	3
466.376	1	2
466.717	1	9
467.058	1	22
467.399	1	7
467.740	1	17
468.081	1	7
468.422	1	6
468.762	1	4
469.103	1	12
469.444	1	4
469.785	1	6
470.126	1	-3
470.467	1	8
470.807	1	11
471.148	1	10
471.489	1	-6
471.830	1	6
472.171	1	0
472.511	1	5
472.852	1	16
473.193	1	4
473.534	1	5
473.875	1	19
474.215	1	10
474.556	1	10
474.897	1	0
475.238	1	24
475.578	1	7
475.919	1	-7
476.260	1	8
476.601	1	0
476.942	1	11
477.282	1	10
477.623	1	2
477.964	1	3
478.305	1	11
478.645	1	4
478.986	1	0
479.327	1	11
479.667	1	8
480.008	1	12
480.349	1	-2
480.690	1	8
481.030	1	11
481.371	1	6
481.712	1	12
482.053	1	9
482.393	1	8
482.734	1	11
483.075	1	12
483.415	1	-2
483.756	1	7
484.097	1	0
484.437	1	-6
484.778	1	19
485.119	1	11
485.459	1	-8
485.800	1	15
486.141	1	2
486.481	1	3
486.822	1	10
487.163	1	4
487.503	1	9
487.844	1	5
488.185	1	4
488.525	1	14
488.866	1	9
489.207	1	4
489.547	1	12
489.888	1	16
490.228	1	1
490.569	1	10
490.910	1	-2
491.250	1	15
491.591	1	9
491.932	1	11
492.272	1	4
492.613	1	4
492.953	1	9
493.294	1	22
493.635	1	11
493.975	1	24
494.316	1	20
494.656	1	11
494.997	1	17
495.337	1	9
495.678	1	4
496.019	1	5
496.359	1	21
496.700	1	16
497.040	1	26
497.381	1	15
497.721	1	19
498.062	1	14
498.403	1	11
498.743	1	14
499.084	1	28
499.424	1	5
499.765	1	11
500.105	1	21
500.446	1	18
500.786	1	17
501.127	1	22
501.467	1	14
501.808	1	19
502.148	1	19
502.489	1	21
502.829	1	22
503.170	1	15
503.510	1	16
503.851	1	12
504.191	1	15
504.532	1	28
504.872	1	21
505.213	1	27
505.553	1	15
505.894	1	32
506.234	1	16
506.575	1	25
506.915	1	22
507.256	1	25
507.596	1	24
507.936	1	24
508.277	1	13
508.617	1	7
508.958	1	29
509.298	1	20
509.639	1	29
509.979	1	29
510.319	1	41
510.660	1	14
511.000	1	24
511.341	1	28
511.681	1	21
512.022	1	38
512.362	1	33
512.702	1	28
513.043	1	29
513.383	1	22
513.724	1	20
514.064	1	23
514.404	1	35
514.745	1	15
515.085	1	22
515.425	1	20
515.766	1	31
516.106	1	30
516.447	1	25
516.787	1	30
517.127	1	23
517.468	1	29
517.808	1	34
518.148	1	28
518.489	1	27
518.829	1	32
519.169	1	30
519.510	1	17
519.850	1	44
520.190	1	36
520.531	1	42
520.871	1	27
521.211	1	29
521.552	1	43
521.892	1	36
522.232	1	21
522.573	1	28
522.913	1	39
523.253	1	29
523.593	1	39
523.934	1	25
524.274	1	26
524.614	1	40
524.955	1	38
525.295	1	34
525.635	1	25
525.975	1	36
526.316	1	25
526.656	1	44
526.996	1	27
527.337	1	39
527.677	1	28
528.017	1	32
528.357	1	37
528.698	1	35
529.038	1	26
529.378	1	42
529.718	1	34
530.058	1	28
530.399	1	35
530.739	1	30
531.079	1	40
531.419	1	32
531.760	1	34
532.100	1	30
532.440	1	42
532.780	1	34
533.120	1	35
533.461	1	36
533.801	1	46
534.141	1	36
534.481	1	31
534.821	1	47
535.162	1	32
535.502	1	41
535.842	1	36
536.182	1	42
536.522	1	21
536.862	1	25
537.203	1	26
537.543	1	41
537.883	1	26
538.223	1	32
538.563	1	34
538.903	1	37
539.243	1	46
539.584	1	31
539.924	1	43
540.264	1	28
540.604	1	34
540.944	1	37
541.284	1	27
541.624	1	33
541.964	1	33
542.305	1	25
542.645	1	12
542.985	1	36
543.325	1	34
543.665	1	25
544.005	1	35
544.345	1	23
544.685	1	39
545.025	1	25
545.365	1	32
545.705	1	30
546.045	1	36
546.386	1	21
546.726	1	18
547.066	1	30
547.406	1	6
547.746	1	23
548.086	1	28
548.426	1	27
548.766	1	22
549.106	1	19
549.446	1	23
549.786	1	33
550.126	1	23
550.466	1	21
550.806	1	33
551.146	1	24
551.486	1	35
551.826	1	23
552.166	1	27
552.506	1	36
552.846	1	24
553.186	1	18
553.526	1	25
553.866	1	22
554.206	1	25
554.546	1	28
554.886	1	29
555.226	1	34
555.566	1	11
555.906	1	19
556.246	1	24
556.586	1	29
556.926	1	6
557.266	1	21
557.606	1	28
557.946	1	22
558.286	1	27
558.626	1	8
558.966	1	17
559.306	1	16
559.646	1	23
559.986	1	13
560.325	1	5
560.665	1	20
561.005	1	20
561.345	1	21
561.685	1	21
562.025	1	13
562.365	1	15
562.705	1	15
563.045	1	18
563.385	1	27
563.725	1	14
564.064	1	23
564.404	1	13
564.744	1	22
565.084	1	20
565.424	1	15
565.764	1	23
566.104	1	10
566.444	1	23
566.783	1	24
567.123	1	8
567.463	1	16
567.803	1	25
568.143	1	16
568.483	1	15
568.823	1	4
569.162	1	24
569.502	1	5
569.842	1	13
570.182	1	12
570.522	1	8
570.862	1	27
571.201	1	15
571.541	1	10
571.881	1	2
572.221	1	20
572.561	1	8
572.900	1	15
573.240	1	12
573.580	1	8
573.920	1	15
574.260	1	22
574.599	1	10
574.939	1	21
575.279	1	13
575.619	1	23
575.959	1	18
576.298	1	14
576.638	1	6
576.978	1	8
577.318	1	17
577.657	1	29
577.997	1	13
578.337	1	10
578.677	1	26
579.016	1	18
579.356	1	14
579.696	1	10
580.036	1	10
580.375	1	6
580.715	1	19
581.055	1	5
581.394	1	3
581.734	1	17
582.074	1	8
582.414	1	6
582.753	1	6
583.093	1	8
583.433	1	19
583.772	1	22
584.112	1	13
584.452	1	22
584.791	1	10
585.131	1	23
585.471	1	5
585.811	1	5
586.150	1	18
586.490	1	7
586.830	1	-2
587.169	1	13
587.509	1	13
587.849	1	6
588.188	1	15
588.528	1	8
588.867	1	8
589.207	1	7
589.547	1	11
589.886	1	17
590.226	1	9
590.566	1	7
590.905	1	14
591.245	1	7
591.585	1	14
591.924	1	8
592.264	1	15
592.603	1	11
592.943	1	5
593.283	1	-2
593.622	1	9
593.962	1	5
594.301	1	1
594.641	1	7
594.981	1	4
595.320	1	7
595.660	1	7
595.999	1	23
596.339	1	22
596.678	1	6
597.018	1	2
597.358	1	2
597.697	1	10
598.037	1	19
598.376	1	3
598.716	1	8
599.055	1	-1
599.395	1	-5
599.734	1	-3
600.074	1	9
600.413	1	9
600.753	1	2
601.092	1	3
601.432	1	-2
601.771	1	8
602.111	1	7
602.451	1	11
602.790	1	1
603.130	1	8
603.469	1	7
603.809	1	9
604.148	1	13
604.487	1	24
604.827	1	1
605.166	1	10
605.506	1	-2
605.845	1	1
606.185	1	8
606.524	1	-1
606.864	1	20
607.203	1	7
607.543	1	11
607.882	1	14
608.222	1	1
608.561	1	4
608.901	1	13
609.240	1	1
609.579	1	12
609.919	1	19
610.258	1	0
610.598	1	6
610.937	1	17
611.277	1	6
611.616	1	-2
611.955	1	0
612.295	1	19
612.634	1	1
612.974	1	4
613.313	1	7
613.652	1	0
613.992	1	3
614.331	1	2
614.671	1	10
615.010	1	-1
615.349	1	9
615.689	1	5
616.028	1	16
616.368	1	13
616.707	1	21
617.046	1	13
617.386	1	6
617.725	1	8
618.064	1	5
618.404	1	5
618.743	1	12
619.082	1	9
619.422	1	6
619.761	1	14
620.100	1	-3
620.440	1	3
620.779	1	11
621.118	1	10
621.458	1	13
621.797	1	0
622.136	1	10
622.476	1	15
622.815	1	-1
623.154	1	3
623.494	1	10
623.833	1	9
624.172	1	1
624.511	1	9
624.851	1	12
625.190	1	1
625.529	1	-2
625.869	1	-3
626.208	1	5
626.547	1	8
626.886	1	5
627.226	1	-8
627.565	1	3
627.904	1	15
628.243	1	13
628.583	1	-8
628.922	1	-5
629.261	1	-5
629.600	1	-3
629.940	1	11
630.279	1	7
630.618	1	0
630.957	1	12
631.297	1	0
631.636	1	7
631.975	1	-1
632.314	1	-10
632.653	1	-2
632.993	1	20
633.332	1	4
633.671	1	-6
634.010	1	5
634.349	1	4
634.689	1	16
635.028	1	5
635.367	1	12
635.706	1	6
636.045	1	13
636.384	1	12
636.724	1	10
637.063	1	14
637.402	1	7
637.741	1	17
638.080	1	16
638.419	1	8
638.759	1	6
639.098	1	-6
639.437	1	13
639.776	1	-3
640.115	1	8
640.454	1	5
640.793	1	-1
641.132	1	12
641.472	1	4
641.811	1	1
642.150	1	-7
642.489	1	-6
642.828	1	2
643.167	1	9
643.506	1	14
643.845	1	5
644.184	1	-3
644.524	1	1
644.863	1	6
645.202	1	14
645.541	1	0
645.880	1	15
646.219	1	14
646.558	1	7
646.897	1	7
647.236	1	-3
647.575	1	-5
647.914	1	-1
648.253	1	-3
648.592	1	1
648.931	1	-2
649.270	1	4
649.610	1	1
649.949	1	10
650.288	1	11
650.627	1	15
650.966	1	15
651.305	1	0
651.644	1	-1
651.983	1	-7
652.322	1	-4
652.661	1	3
653.000	1	2
653.339	1	3
653.678	1	3
654.017	1	1
654.356	1	13
654.695	1	9
655.034	1	2
655.373	1	0
655.712	1	3
656.051	1	7
656.390	1	3
656.729	1	0
657.068	1	0
657.406	1	2
657.745	1	-3
658.084	1	11
658.423	1	0
658.762	1	12
659.101	1	0
659.440	1	-8
659.779	1	3
660.118	1	-9
660.457	1	11
660.796	1	8
661.135	1	13
661.474	1	5
661.813	1	-1
662.152	1	10
662.491	1	20
662.829	1	7
663.168	1	0
663.507	1	2
663.846	1	4
664.185	1	-7
664.524	1	0
664.863	1	8
665.202	1	-2
665.541	1	-8
665.879	1	4
666.218	1	8
666.557	1	6
666.896	1	11
667.235	1	10
667.574	1	14
667.913	1	3
668.251	1	2
668.590	1	6
668.929	1	9
669.268	1	6
669.607	1	8
669.946	1	11
670.285	1	14
670.623	1	16
670.962	1	6
671.301	1	1
671.640	1	-5
671.979	1	5
672.317	1	6
672.656	1	-8
672.995	1	-2
673.334	1	1
673.673	1	7
674.011	1	3
674.350	1	-1
674.689	1	7
675.028	1	10
675.367	1	-2
675.705	1	21
676.044	1	19
676.383	1	1
676.722	1	4
677.060	1	9
677.399	1	6
677.738	1	2
678.077	1	0
678.416	1	6
678.754	1	10
679.093	1	2
679.432	1	4
679.771	1	8
680.109	1	3
680.448	1	11
680.787	1	9
681.125	1	16
681.464	1	5
681.803	1	-6
682.142	1	0
682.480	1	12
682.819	1	10
683.158	1	-2
683.496	1	0
683.835	1	-2
684.174	1	11
684.512	1	16
684.851	1	3
685.190	1	6
685.529	1	-4
685.867	1	8
686.206	1	15
686.545	1	-1
686.883	1	7
687.222	1	-4
687.561	1	21
687.899	1	5
688.238	1	15
688.577	1	3
688.746	1	8