File: Data/GaN_130K_350ms/GaN_sample F_spot6_UVVIS_130 K_200um_350 ms 2x2mm1_211.txt
340.368	1	10
340.710	1	6
341.052	1	-3
341.394	1	0
341.737	1	4
342.079	1	-6
342.421	1	7
342.763	1	1
343.105	1	9
343.447	1	8
343.789	1	6
344.131	1	8
344.473	1	0
344.815	1	1
345.157	1	-6
345.499	1	3
345.841	1	-3
346.183	1	5
346.526	1	-2
346.868	1	7
347.210	1	2
347.552	1	0
347.894	1	-6
348.236	1	4
348.578	1	-8
348.920	1	-7
349.262	1	3
349.604	1	5
349.946	1	8
350.288	1	-9
350.630	1	11
350.972	1	8
351.314	1	9
351.656	1	13
351.998	1	1
352.340	1	8
352.682	1	-4
353.024	1	5
353.366	1	8
353.708	1	-1
354.050	1	7
354.392	1	6
354.734	1	2
355.076	1	-2
355.418	1	9
355.760	1	-1
356.102	1	-2
356.444	1	-3
356.785	1	13
357.127	1	3
357.469	1	-2
357.811	1	8
358.153	1	-4
358.495	1	0
358.837	1	3
359.179	1	4
359.521	1	1
359.863	1	-3
360.205	1	-2
360.547	1	4
360.889	1	-4
361.231	1	-1
361.572	1	14
361.914	1	15
362.256	1	7
362.598	1	13
362.940	1	4
363.282	1	18
363.624	1	12
363.966	1	23
364.308	1	18
364.649	1	15
364.991	1	11
365.333	1	-2
365.675	1	12
366.017	1	16
366.359	1	17
366.701	1	18
367.042	1	19
367.384	1	19
367.726	1	23
368.068	1	10
368.410	1	8
368.752	1	24
369.093	1	22
369.435	1	18
369.777	1	9
370.119	1	9
370.461	1	19
370.803	1	9
371.144	1	8
371.486	1	9
371.828	1	22
372.170	1	7
372.512	1	13
372.853	1	10
373.195	1	-1
373.537	1	14
373.879	1	7
374.220	1	7
374.562	1	7
374.904	1	13
375.246	1	18
375.588	1	8
375.929	1	0
376.271	1	7
376.613	1	3
376.955	1	8
377.296	1	8
377.638	1	-7
377.980	1	-4
378.321	1	8
378.663	1	9
379.005	1	22
379.347	1	3
379.688	1	-4
380.030	1	2
380.372	1	9
380.714	1	17
381.055	1	-2
381.397	1	1
381.739	1	13
382.080	1	2
382.422	1	12
382.764	1	-5
383.105	1	8
383.447	1	6
383.789	1	9
384.130	1	8
384.472	1	10
384.814	1	8
385.156	1	3
385.497	1	4
385.839	1	4
386.180	1	7
386.522	1	6
386.864	1	13
387.205	1	9
387.547	1	13
387.889	1	-7
388.230	1	5
388.572	1	13
388.914	1	3
389.255	1	3
389.597	1	-3
389.939	1	10
390.280	1	4
390.622	1	6
390.963	1	10
391.305	1	12
391.647	1	9
391.988	1	15
392.330	1	11
392.671	1	1
393.013	1	16
393.355	1	4
393.696	1	2
394.038	1	18
394.379	1	9
394.721	1	4
395.062	1	5
395.404	1	-13
395.746	1	11
396.087	1	16
396.429	1	1
396.770	1	12
397.112	1	4
397.453	1	15
397.795	1	-2
398.136	1	6
398.478	1	9
398.819	1	-4
399.161	1	5
399.503	1	23
399.844	1	1
400.186	1	10
400.527	1	8
400.869	1	1
401.210	1	5
401.552	1	9
401.893	1	1
402.235	1	7
402.576	1	5
402.918	1	8
403.259	1	6
403.601	1	4
403.942	1	9
404.284	1	9
404.625	1	11
404.967	1	9
405.308	1	6
405.649	1	1
405.991	1	1
406.332	1	10
406.674	1	10
407.015	1	14
407.357	1	8
407.698	1	-6
408.040	1	11
408.381	1	14
408.722	1	4
409.064	1	8
409.405	1	-2
409.747	1	-2
410.088	1	14
410.430	1	13
410.771	1	-5
411.112	1	8
411.454	1	14
411.795	1	4
412.137	1	3
412.478	1	1
412.819	1	17
413.161	1	16
413.502	1	14
413.844	1	4
414.185	1	11
414.526	1	3
414.868	1	1
415.209	1	-5
415.550	1	11
415.892	1	13
416.233	1	10
416.575	1	9
416.916	1	3
417.257	1	10
417.599	1	2
417.940	1	8
418.281	1	0
418.623	1	8
418.964	1	6
419.305	1	3
419.647	1	4
419.988	1	12
420.329	1	11
420.671	1	-2
421.012	1	-1
421.353	1	-4
421.695	1	2
422.036	1	8
422.377	1	11
422.718	1	6
423.060	1	1
423.401	1	8
423.742	1	12
424.084	1	10
424.425	1	3
424.766	1	1
425.107	1	10
425.449	1	0
425.790	1	6
426.131	1	4
426.472	1	4
426.814	1	1
427.155	1	1
427.496	1	10
427.837	1	7
428.179	1	7
428.520	1	10
428.861	1	2
429.202	1	14
429.544	1	15
429.885	1	-2
430.226	1	1
430.567	1	-3
430.909	1	8
431.250	1	14
431.591	1	-2
431.932	1	6
432.273	1	13
432.615	1	19
432.956	1	-9
433.297	1	13
433.638	1	14
433.979	1	13
434.320	1	5
434.662	1	9
435.003	1	9
435.344	1	6
435.685	1	-3
436.026	1	3
436.368	1	4
436.709	1	-5
437.050	1	6
437.391	1	16
437.732	1	8
438.073	1	15
438.414	1	-13
438.756	1	7
439.097	1	7
439.438	1	5
439.779	1	11
440.120	1	5
440.461	1	17
440.802	1	-3
441.143	1	-1
441.485	1	9
441.826	1	0
442.167	1	4
442.508	1	1
442.849	1	8
443.190	1	4
443.531	1	11
443.872	1	7
444.213	1	-5
444.554	1	-2
444.895	1	3
445.237	1	-5
445.578	1	4
445.919	1	-2
446.260	1	10
446.601	1	10
446.942	1	8
447.283	1	5
447.624	1	6
447.965	1	3
448.306	1	2
448.647	1	13
448.988	1	3
449.329	1	-1
449.670	1	1
450.011	1	5
450.352	1	5
450.693	1	1
451.034	1	0
451.375	1	12
451.716	1	-6
452.057	1	15
452.398	1	-8
452.739	1	12
453.080	1	-1
453.421	1	4
453.762	1	7
454.103	1	-9
454.444	1	10
454.785	1	15
455.126	1	-13
455.467	1	8
455.808	1	6
456.149	1	-4
456.490	1	11
456.831	1	13
457.172	1	0
457.513	1	-1
457.854	1	5
458.195	1	0
458.536	1	10
458.877	1	14
459.218	1	5
459.559	1	3
459.899	1	5
460.240	1	11
460.581	1	3
460.922	1	9
461.263	1	0
461.604	1	-8
461.945	1	1
462.286	1	4
462.627	1	0
462.968	1	-7
463.309	1	4
463.649	1	-2
463.990	1	3
464.331	1	7
464.672	1	9
465.013	1	-1
465.354	1	-1
465.695	1	-3
466.036	1	2
466.376	1	6
466.717	1	4
467.058	1	1
467.399	1	-6
467.740	1	16
468.081	1	8
468.422	1	8
468.762	1	-5
469.103	1	7
469.444	1	4
469.785	1	7
470.126	1	-5
470.467	1	-3
470.807	1	9
471.148	1	4
471.489	1	-5
471.830	1	3
472.171	1	4
472.511	1	-1
472.852	1	9
473.193	1	-2
473.534	1	1
473.875	1	14
474.215	1	2
474.556	1	11
474.897	1	-3
475.238	1	4
475.578	1	3
475.919	1	-1
476.260	1	4
476.601	1	3
476.942	1	9
477.282	1	3
477.623	1	-12
477.964	1	-1
478.305	1	11
478.645	1	3
478.986	1	-1
479.327	1	3
479.667	1	7
480.008	1	-2
480.349	1	8
480.690	1	4
481.030	1	2
481.371	1	7
481.712	1	1
482.053	1	6
482.393	1	3
482.734	1	1
483.075	1	19
483.415	1	2
483.756	1	1
484.097	1	0
484.437	1	-1
484.778	1	14
485.119	1	7
485.459	1	-2
485.800	1	14
486.141	1	1
486.481	1	-4
486.822	1	7
487.163	1	-5
487.503	1	-2
487.844	1	2
488.185	1	6
488.525	1	6
488.866	1	5
489.207	1	0
489.547	1	7
489.888	1	14
490.228	1	7
490.569	1	4
490.910	1	-10
491.250	1	4
491.591	1	1
491.932	1	1
492.272	1	0
492.613	1	-12
492.953	1	-1
493.294	1	0
493.635	1	12
493.975	1	6
494.316	1	14
494.656	1	2
494.997	1	8
495.337	1	-6
495.678	1	5
496.019	1	-4
496.359	1	10
496.700	1	2
497.040	1	13
497.381	1	8
497.721	1	1
498.062	1	-4
498.403	1	1
498.743	1	11
499.084	1	4
499.424	1	1
499.765	1	4
500.105	1	5
500.446	1	12
500.786	1	-2
501.127	1	-3
501.467	1	3
501.808	1	13
502.148	1	3
502.489	1	0
502.829	1	0
503.170	1	-5
503.510	1	12
503.851	1	4
504.191	1	-1
504.532	1	7
504.872	1	3
505.213	1	2
505.553	1	8
505.894	1	3
506.234	1	6
506.575	1	3
506.915	1	9
507.256	1	12
507.596	1	5
507.936	1	4
508.277	1	2
508.617	1	-5
508.958	1	4
509.298	1	1
509.639	1	8
509.979	1	5
510.319	1	8
510.660	1	-4
511.000	1	9
511.341	1	-2
511.681	1	11
512.022	1	13
512.362	1	-1
512.702	1	12
513.043	1	6
513.383	1	13
513.724	1	0
514.064	1	-2
514.404	1	13
514.745	1	0
515.085	1	6
515.425	1	-5
515.766	1	12
516.106	1	2
516.447	1	-9
516.787	1	17
517.127	1	4
517.468	1	9
517.808	1	7
518.148	1	5
518.489	1	1
518.829	1	15
519.169	1	6
519.510	1	13
519.850	1	15
520.190	1	11
520.531	1	13
520.871	1	-4
521.211	1	16
521.552	1	12
521.892	1	6
522.232	1	2
522.573	1	1
522.913	1	10
523.253	1	8
523.593	1	11
523.934	1	0
524.274	1	-3
524.614	1	6
524.955	1	18
525.295	1	3
525.635	1	4
525.975	1	9
526.316	1	1
526.656	1	13
526.996	1	6
527.337	1	16
527.677	1	9
528.017	1	8
528.357	1	9
528.698	1	0
529.038	1	-2
529.378	1	6
529.718	1	8
530.058	1	8
530.399	1	10
530.739	1	15
531.079	1	8
531.419	1	10
531.760	1	8
532.100	1	5
532.440	1	12
532.780	1	6
533.120	1	5
533.461	1	-4
533.801	1	16
534.141	1	7
534.481	1	9
534.821	1	14
535.162	1	5
535.502	1	3
535.842	1	14
536.182	1	9
536.522	1	-9
536.862	1	2
537.203	1	7
537.543	1	-1
537.883	1	-7
538.223	1	9
538.563	1	12
538.903	1	11
539.243	1	11
539.584	1	15
539.924	1	1
540.264	1	1
540.604	1	12
540.944	1	6
541.284	1	1
541.624	1	16
541.964	1	6
542.305	1	8
542.645	1	-1
542.985	1	9
543.325	1	5
543.665	1	0
544.005	1	13
544.345	1	0
544.685	1	15
545.025	1	4
545.365	1	14
545.705	1	6
546.045	1	7
546.386	1	2
546.726	1	-3
547.066	1	-2
547.406	1	-10
547.746	1	3
548.086	1	-2
548.426	1	9
548.766	1	11
549.106	1	-1
549.446	1	5
549.786	1	15
550.126	1	13
550.466	1	10
550.806	1	7
551.146	1	7
551.486	1	8
551.826	1	9
552.166	1	1
552.506	1	5
552.846	1	-3
553.186	1	-1
553.526	1	9
553.866	1	-3
554.206	1	10
554.546	1	7
554.886	1	-2
555.226	1	3
555.566	1	4
555.906	1	1
556.246	1	9
556.586	1	7
556.926	1	7
557.266	1	2
557.606	1	10
557.946	1	5
558.286	1	14
558.626	1	-3
558.966	1	-3
559.306	1	9
559.646	1	0
559.986	1	6
560.325	1	0
560.665	1	18
561.005	1	8
561.345	1	11
561.685	1	2
562.025	1	3
562.365	1	8
562.705	1	-6
563.045	1	3
563.385	1	13
563.725	1	-3
564.064	1	12
564.404	1	8
564.744	1	12
565.084	1	2
565.424	1	0
565.764	1	9
566.104	1	-1
566.444	1	14
566.783	1	14
567.123	1	2
567.463	1	-1
567.803	1	13
568.143	1	13
568.483	1	3
568.823	1	-3
569.162	1	5
569.502	1	2
569.842	1	-2
570.182	1	9
570.522	1	-7
570.862	1	17
571.201	1	7
571.541	1	-3
571.881	1	1
572.221	1	12
572.561	1	0
572.900	1	6
573.240	1	7
573.580	1	3
573.920	1	8
574.260	1	8
574.599	1	13
574.939	1	9
575.279	1	-12
575.619	1	1
575.959	1	12
576.298	1	6
576.638	1	4
576.978	1	-14
577.318	1	0
577.657	1	16
577.997	1	2
578.337	1	7
578.677	1	11
579.016	1	-3
579.356	1	1
579.696	1	-1
580.036	1	6
580.375	1	2
580.715	1	10
581.055	1	1
581.394	1	1
581.734	1	9
582.074	1	1
582.414	1	-6
582.753	1	-2
583.093	1	4
583.433	1	6
583.772	1	12
584.112	1	3
584.452	1	8
584.791	1	0
585.131	1	15
585.471	1	6
585.811	1	6
586.150	1	7
586.490	1	8
586.830	1	2
587.169	1	9
587.509	1	17
587.849	1	9
588.188	1	12
588.528	1	5
588.867	1	7
589.207	1	-9
589.547	1	-3
589.886	1	-2
590.226	1	7
590.566	1	5
590.905	1	14
591.245	1	3
591.585	1	8
591.924	1	5
592.264	1	1
592.603	1	-5
592.943	1	-1
593.283	1	-8
593.622	1	6
593.962	1	5
594.301	1	0
594.641	1	4
594.981	1	2
595.320	1	18
595.660	1	2
595.999	1	12
596.339	1	11
596.678	1	-1
597.018	1	2
597.358	1	3
597.697	1	2
598.037	1	12
598.376	1	-5
598.716	1	1
599.055	1	3
599.395	1	1
599.734	1	5
600.074	1	3
600.413	1	7
600.753	1	-3
601.092	1	4
601.432	1	-11
601.771	1	5
602.111	1	1
602.451	1	4
602.790	1	-3
603.130	1	7
603.469	1	-3
603.809	1	2
604.148	1	18
604.487	1	17
604.827	1	1
605.166	1	7
605.506	1	1
605.845	1	1
606.185	1	5
606.524	1	-3
606.864	1	19
607.203	1	1
607.543	1	2
607.882	1	6
608.222	1	-3
608.561	1	0
608.901	1	8
609.240	1	-8
609.579	1	11
609.919	1	12
610.258	1	8
610.598	1	-1
610.937	1	12
611.277	1	3
611.616	1	-7
611.955	1	2
612.295	1	8
612.634	1	-2
612.974	1	9
613.313	1	6
613.652	1	-1
613.992	1	2
614.331	1	10
614.671	1	10
615.010	1	-5
615.349	1	2
615.689	1	1
616.028	1	12
616.368	1	7
616.707	1	12
617.046	1	4
617.386	1	7
617.725	1	6
618.064	1	12
618.404	1	4
618.743	1	11
619.082	1	-2
619.422	1	7
619.761	1	8
620.100	1	5
620.440	1	4
620.779	1	-1
621.118	1	-1
621.458	1	6
621.797	1	-3
622.136	1	2
622.476	1	12
622.815	1	0
623.154	1	6
623.494	1	4
623.833	1	4
624.172	1	5
624.511	1	3
624.851	1	5
625.190	1	-4
625.529	1	0
625.869	1	1
626.208	1	2
626.547	1	17
626.886	1	6
627.226	1	1
627.565	1	1
627.904	1	8
628.243	1	4
628.583	1	-9
628.922	1	2
629.261	1	-6
629.600	1	-1
629.940	1	8
630.279	1	12
630.618	1	-14
630.957	1	8
631.297	1	-3
631.636	1	10
631.975	1	8
632.314	1	-3
632.653	1	-2
632.993	1	9
633.332	1	5
633.671	1	-3
634.010	1	-7
634.349	1	5
634.689	1	13
635.028	1	14
635.367	1	8
635.706	1	7
636.045	1	12
636.384	1	-3
636.724	1	1
637.063	1	8
637.402	1	-5
637.741	1	13
638.080	1	3
638.419	1	6
638.759	1	3
639.098	1	-3
639.437	1	6
639.776	1	4
640.115	1	7
640.454	1	7
640.793	1	-3
641.132	1	11
641.472	1	3
641.811	1	10
642.150	1	-10
642.489	1	-5
642.828	1	-9
643.167	1	2
643.506	1	13
643.845	1	-5
644.184	1	-5
644.524	1	-1
644.863	1	-1
645.202	1	8
645.541	1	6
645.880	1	5
646.219	1	7
646.558	1	5
646.897	1	8
647.236	1	5
647.575	1	-6
647.914	1	-5
648.253	1	2
648.592	1	-5
648.931	1	4
649.270	1	-1
649.610	1	5
649.949	1	6
650.288	1	19
650.627	1	5
650.966	1	1
651.305	1	-4
651.644	1	7
651.983	1	-5
652.322	1	-3
652.661	1	0
653.000	1	-1
653.339	1	4
653.678	1	-3
654.017	1	-1
654.356	1	5
654.695	1	-3
655.034	1	4
655.373	1	2
655.712	1	0
656.051	1	1
656.390	1	0
656.729	1	-3
657.068	1	-5
657.406	1	9
657.745	1	-1
658.084	1	4
658.423	1	2
658.762	1	18
659.101	1	10
659.440	1	-12
659.779	1	-5
660.118	1	-2
660.457	1	4
660.796	1	7
661.135	1	12
661.474	1	2
661.813	1	7
662.152	1	-3
662.491	1	11
662.829	1	2
663.168	1	-4
663.507	1	5
663.846	1	4
664.185	1	-1
664.524	1	-8
664.863	1	10
665.202	1	-2
665.541	1	-4
665.879	1	5
666.218	1	6
666.557	1	6
666.896	1	-2
667.235	1	7
667.574	1	13
667.913	1	-5
668.251	1	6
668.590	1	-2
668.929	1	10
669.268	1	-5
669.607	1	-1
669.946	1	12
670.285	1	4
670.623	1	11
670.962	1	7
671.301	1	9
671.640	1	-5
671.979	1	7
672.317	1	-1
672.656	1	0
672.995	1	5
673.334	1	-7
673.673	1	12
674.011	1	2
674.350	1	4
674.689	1	-1
675.028	1	8
675.367	1	-1
675.705	1	4
676.044	1	0
676.383	1	5
676.722	1	4
677.060	1	4
677.399	1	-2
677.738	1	-6
678.077	1	-1
678.416	1	3
678.754	1	1
679.093	1	-1
679.432	1	-3
679.771	1	9
680.109	1	0
680.448	1	2
680.787	1	4
681.125	1	3
681.464	1	3
681.803	1	-3
682.142	1	7
682.480	1	11
682.819	1	0
683.158	1	1
683.496	1	-1
683.835	1	-6
684.174	1	9
684.512	1	10
684.851	1	-1
685.190	1	4
685.529	1	-3
685.867	1	3
686.206	1	-1
686.545	1	-6
686.883	1	-2
687.222	1	12
687.561	1	5
687.899	1	6
688.238	1	3
688.577	1	-9
688.746	1	0