File: Data/GaN_130K_350ms/GaN_sample F_spot6_UVVIS_130 K_200um_350 ms 2x2mm1_222.txt
340.368	1	3
340.710	1	12
341.052	1	-3
341.394	1	2
341.737	1	0
342.079	1	-2
342.421	1	1
342.763	1	7
343.105	1	6
343.447	1	-1
343.789	1	10
344.131	1	3
344.473	1	3
344.815	1	-8
345.157	1	-12
345.499	1	2
345.841	1	-4
346.183	1	8
346.526	1	-1
346.868	1	6
347.210	1	-3
347.552	1	3
347.894	1	14
348.236	1	0
348.578	1	0
348.920	1	-5
349.262	1	5
349.604	1	2
349.946	1	10
350.288	1	-13
350.630	1	7
350.972	1	4
351.314	1	-6
351.656	1	5
351.998	1	-7
352.340	1	12
352.682	1	0
353.024	1	4
353.366	1	6
353.708	1	-5
354.050	1	6
354.392	1	7
354.734	1	-4
355.076	1	0
355.418	1	13
355.760	1	8
356.102	1	2
356.444	1	-9
356.785	1	10
357.127	1	7
357.469	1	-3
357.811	1	10
358.153	1	0
358.495	1	10
358.837	1	5
359.179	1	0
359.521	1	4
359.863	1	6
360.205	1	3
360.547	1	-1
360.889	1	-3
361.231	1	-5
361.572	1	9
361.914	1	8
362.256	1	3
362.598	1	12
362.940	1	-2
363.282	1	20
363.624	1	10
363.966	1	19
364.308	1	21
364.649	1	10
364.991	1	7
365.333	1	-2
365.675	1	11
366.017	1	19
366.359	1	16
366.701	1	13
367.042	1	23
367.384	1	27
367.726	1	18
368.068	1	5
368.410	1	11
368.752	1	25
369.093	1	17
369.435	1	10
369.777	1	6
370.119	1	15
370.461	1	16
370.803	1	10
371.144	1	7
371.486	1	11
371.828	1	6
372.170	1	5
372.512	1	15
372.853	1	3
373.195	1	9
373.537	1	14
373.879	1	28
374.220	1	1
374.562	1	0
374.904	1	15
375.246	1	8
375.588	1	2
375.929	1	-5
376.271	1	16
376.613	1	11
376.955	1	-5
377.296	1	5
377.638	1	0
377.980	1	4
378.321	1	16
378.663	1	8
379.005	1	23
379.347	1	10
379.688	1	0
380.030	1	8
380.372	1	14
380.714	1	18
381.055	1	8
381.397	1	7
381.739	1	17
382.080	1	-1
382.422	1	14
382.764	1	7
383.105	1	8
383.447	1	9
383.789	1	18
384.130	1	9
384.472	1	9
384.814	1	2
385.156	1	5
385.497	1	3
385.839	1	6
386.180	1	6
386.522	1	8
386.864	1	9
387.205	1	3
387.547	1	4
387.889	1	-2
388.230	1	5
388.572	1	8
388.914	1	6
389.255	1	7
389.597	1	0
389.939	1	5
390.280	1	5
390.622	1	4
390.963	1	4
391.305	1	4
391.647	1	1
391.988	1	6
392.330	1	-3
392.671	1	3
393.013	1	5
393.355	1	4
393.696	1	4
394.038	1	2
394.379	1	6
394.721	1	16
395.062	1	-5
395.404	1	-4
395.746	1	12
396.087	1	9
396.429	1	10
396.770	1	11
397.112	1	5
397.453	1	3
397.795	1	5
398.136	1	7
398.478	1	10
398.819	1	-3
399.161	1	16
399.503	1	9
399.844	1	6
400.186	1	-4
400.527	1	11
400.869	1	6
401.210	1	1
401.552	1	10
401.893	1	-2
402.235	1	14
402.576	1	7
402.918	1	14
403.259	1	-1
403.601	1	3
403.942	1	3
404.284	1	4
404.625	1	13
404.967	1	4
405.308	1	2
405.649	1	-2
405.991	1	16
406.332	1	16
406.674	1	13
407.015	1	3
407.357	1	-1
407.698	1	8
408.040	1	5
408.381	1	12
408.722	1	5
409.064	1	14
409.405	1	13
409.747	1	12
410.088	1	11
410.430	1	5
410.771	1	-7
411.112	1	14
411.454	1	3
411.795	1	5
412.137	1	-10
412.478	1	0
412.819	1	4
413.161	1	8
413.502	1	17
413.844	1	6
414.185	1	12
414.526	1	-2
414.868	1	6
415.209	1	5
415.550	1	6
415.892	1	5
416.233	1	9
416.575	1	4
416.916	1	-2
417.257	1	11
417.599	1	6
417.940	1	7
418.281	1	-1
418.623	1	-1
418.964	1	1
419.305	1	-3
419.647	1	10
419.988	1	14
420.329	1	11
420.671	1	1
421.012	1	2
421.353	1	3
421.695	1	6
422.036	1	10
422.377	1	4
422.718	1	6
423.060	1	14
423.401	1	3
423.742	1	7
424.084	1	5
424.425	1	9
424.766	1	10
425.107	1	-1
425.449	1	11
425.790	1	15
426.131	1	19
426.472	1	-3
426.814	1	9
427.155	1	-8
427.496	1	4
427.837	1	-2
428.179	1	6
428.520	1	3
428.861	1	7
429.202	1	10
429.544	1	10
429.885	1	7
430.226	1	-2
430.567	1	10
430.909	1	0
431.250	1	19
431.591	1	4
431.932	1	0
432.273	1	11
432.615	1	13
432.956	1	-4
433.297	1	17
433.638	1	5
433.979	1	10
434.320	1	14
434.662	1	3
435.003	1	13
435.344	1	5
435.685	1	-12
436.026	1	9
436.368	1	1
436.709	1	3
437.050	1	10
437.391	1	17
437.732	1	8
438.073	1	18
438.414	1	2
438.756	1	-1
439.097	1	1
439.438	1	9
439.779	1	13
440.120	1	2
440.461	1	17
440.802	1	-9
441.143	1	1
441.485	1	-2
441.826	1	3
442.167	1	7
442.508	1	2
442.849	1	10
443.190	1	3
443.531	1	2
443.872	1	9
444.213	1	0
444.554	1	8
444.895	1	4
445.237	1	3
445.578	1	2
445.919	1	4
446.260	1	12
446.601	1	8
446.942	1	4
447.283	1	-2
447.624	1	6
447.965	1	-4
448.306	1	10
448.647	1	10
448.988	1	5
449.329	1	-5
449.670	1	3
450.011	1	-1
450.352	1	17
450.693	1	4
451.034	1	-14
451.375	1	12
451.716	1	-2
452.057	1	16
452.398	1	-3
452.739	1	0
453.080	1	1
453.421	1	-5
453.762	1	13
454.103	1	5
454.444	1	4
454.785	1	3
455.126	1	-2
455.467	1	5
455.808	1	9
456.149	1	0
456.490	1	7
456.831	1	14
457.172	1	-1
457.513	1	-8
457.854	1	5
458.195	1	-6
458.536	1	-3
458.877	1	24
459.218	1	7
459.559	1	7
459.899	1	-1
460.240	1	9
460.581	1	0
460.922	1	6
461.263	1	6
461.604	1	-1
461.945	1	3
462.286	1	7
462.627	1	-1
462.968	1	-1
463.309	1	3
463.649	1	-5
463.990	1	2
464.331	1	7
464.672	1	-1
465.013	1	2
465.354	1	10
465.695	1	11
466.036	1	3
466.376	1	6
466.717	1	11
467.058	1	9
467.399	1	-4
467.740	1	22
468.081	1	10
468.422	1	11
468.762	1	-6
469.103	1	2
469.444	1	6
469.785	1	2
470.126	1	-8
470.467	1	14
470.807	1	10
471.148	1	0
471.489	1	12
471.830	1	7
472.171	1	13
472.511	1	4
472.852	1	7
473.193	1	-4
473.534	1	6
473.875	1	11
474.215	1	7
474.556	1	4
474.897	1	-1
475.238	1	14
475.578	1	2
475.919	1	-4
476.260	1	5
476.601	1	-8
476.942	1	13
477.282	1	-1
477.623	1	-7
477.964	1	-3
478.305	1	10
478.645	1	-4
478.986	1	1
479.327	1	5
479.667	1	7
480.008	1	5
480.349	1	-1
480.690	1	1
481.030	1	7
481.371	1	7
481.712	1	13
482.053	1	8
482.393	1	11
482.734	1	3
483.075	1	13
483.415	1	-5
483.756	1	1
484.097	1	7
484.437	1	0
484.778	1	5
485.119	1	9
485.459	1	-7
485.800	1	15
486.141	1	0
486.481	1	-1
486.822	1	13
487.163	1	5
487.503	1	-5
487.844	1	4
488.185	1	9
488.525	1	6
488.866	1	-2
489.207	1	0
489.547	1	7
489.888	1	14
490.228	1	5
490.569	1	10
490.910	1	5
491.250	1	7
491.591	1	0
491.932	1	7
492.272	1	-4
492.613	1	9
492.953	1	3
493.294	1	7
493.635	1	3
493.975	1	7
494.316	1	5
494.656	1	2
494.997	1	0
495.337	1	1
495.678	1	2
496.019	1	3
496.359	1	13
496.700	1	0
497.040	1	11
497.381	1	2
497.721	1	5
498.062	1	-3
498.403	1	-3
498.743	1	17
499.084	1	11
499.424	1	-12
499.765	1	5
500.105	1	5
500.446	1	8
500.786	1	8
501.127	1	1
501.467	1	7
501.808	1	-3
502.148	1	6
502.489	1	9
502.829	1	-5
503.170	1	-1
503.510	1	11
503.851	1	2
504.191	1	5
504.532	1	8
504.872	1	3
505.213	1	12
505.553	1	2
505.894	1	21
506.234	1	3
506.575	1	2
506.915	1	-4
507.256	1	17
507.596	1	5
507.936	1	4
508.277	1	2
508.617	1	0
508.958	1	7
509.298	1	-7
509.639	1	8
509.979	1	4
510.319	1	18
510.660	1	-10
511.000	1	11
511.341	1	3
511.681	1	12
512.022	1	17
512.362	1	2
512.702	1	9
513.043	1	-3
513.383	1	5
513.724	1	-2
514.064	1	-1
514.404	1	13
514.745	1	-2
515.085	1	13
515.425	1	12
515.766	1	12
516.106	1	-2
516.447	1	1
516.787	1	9
517.127	1	6
517.468	1	6
517.808	1	8
518.148	1	20
518.489	1	1
518.829	1	13
519.169	1	9
519.510	1	12
519.850	1	13
520.190	1	4
520.531	1	8
520.871	1	2
521.211	1	14
521.552	1	8
521.892	1	8
522.232	1	-1
522.573	1	1
522.913	1	15
523.253	1	10
523.593	1	9
523.934	1	-3
524.274	1	-10
524.614	1	16
524.955	1	8
525.295	1	5
525.635	1	-4
525.975	1	15
526.316	1	-3
526.656	1	4
526.996	1	-5
527.337	1	13
527.677	1	9
528.017	1	9
528.357	1	5
528.698	1	-6
529.038	1	-4
529.378	1	4
529.718	1	9
530.058	1	2
530.399	1	-2
530.739	1	8
531.079	1	8
531.419	1	3
531.760	1	-5
532.100	1	12
532.440	1	17
532.780	1	6
533.120	1	8
533.461	1	4
533.801	1	19
534.141	1	8
534.481	1	7
534.821	1	17
535.162	1	-1
535.502	1	9
535.842	1	18
536.182	1	13
536.522	1	5
536.862	1	1
537.203	1	0
537.543	1	5
537.883	1	-2
538.223	1	7
538.563	1	11
538.903	1	11
539.243	1	4
539.584	1	15
539.924	1	-1
540.264	1	-4
540.604	1	9
540.944	1	8
541.284	1	14
541.624	1	12
541.964	1	-4
542.305	1	1
542.645	1	0
542.985	1	16
543.325	1	4
543.665	1	19
544.005	1	8
544.345	1	9
544.685	1	10
545.025	1	3
545.365	1	13
545.705	1	4
546.045	1	6
546.386	1	4
546.726	1	5
547.066	1	5
547.406	1	-4
547.746	1	9
548.086	1	8
548.426	1	11
548.766	1	1
549.106	1	-2
549.446	1	-3
549.786	1	4
550.126	1	16
550.466	1	16
550.806	1	8
551.146	1	8
551.486	1	2
551.826	1	6
552.166	1	8
552.506	1	4
552.846	1	2
553.186	1	1
553.526	1	12
553.866	1	-8
554.206	1	3
554.546	1	7
554.886	1	7
555.226	1	15
555.566	1	1
555.906	1	1
556.246	1	5
556.586	1	3
556.926	1	4
557.266	1	2
557.606	1	5
557.946	1	11
558.286	1	9
558.626	1	-13
558.966	1	2
559.306	1	5
559.646	1	1
559.986	1	10
560.325	1	-12
560.665	1	14
561.005	1	6
561.345	1	4
561.685	1	3
562.025	1	2
562.365	1	5
562.705	1	6
563.045	1	6
563.385	1	7
563.725	1	8
564.064	1	13
564.404	1	11
564.744	1	1
565.084	1	6
565.424	1	-11
565.764	1	7
566.104	1	-2
566.444	1	8
566.783	1	15
567.123	1	5
567.463	1	0
567.803	1	16
568.143	1	10
568.483	1	8
568.823	1	-5
569.162	1	8
569.502	1	4
569.842	1	-2
570.182	1	-3
570.522	1	-11
570.862	1	23
571.201	1	6
571.541	1	-3
571.881	1	-1
572.221	1	9
572.561	1	3
572.900	1	4
573.240	1	1
573.580	1	5
573.920	1	11
574.260	1	8
574.599	1	18
574.939	1	11
575.279	1	0
575.619	1	7
575.959	1	4
576.298	1	1
576.638	1	-2
576.978	1	-6
577.318	1	2
577.657	1	1
577.997	1	10
578.337	1	6
578.677	1	17
579.016	1	4
579.356	1	7
579.696	1	6
580.036	1	2
580.375	1	-1
580.715	1	4
581.055	1	5
581.394	1	2
581.734	1	6
582.074	1	0
582.414	1	-7
582.753	1	-1
583.093	1	1
583.433	1	7
583.772	1	5
584.112	1	5
584.452	1	11
584.791	1	-2
585.131	1	1
585.471	1	-3
585.811	1	1
586.150	1	7
586.490	1	10
586.830	1	4
587.169	1	16
587.509	1	6
587.849	1	1
588.188	1	15
588.528	1	9
588.867	1	8
589.207	1	4
589.547	1	-7
589.886	1	5
590.226	1	20
590.566	1	0
590.905	1	8
591.245	1	-4
591.585	1	4
591.924	1	4
592.264	1	3
592.603	1	0
592.943	1	5
593.283	1	-13
593.622	1	6
593.962	1	9
594.301	1	-7
594.641	1	0
594.981	1	-2
595.320	1	7
595.660	1	6
595.999	1	10
596.339	1	9
596.678	1	-1
597.018	1	0
597.358	1	-6
597.697	1	-1
598.037	1	8
598.376	1	5
598.716	1	13
599.055	1	4
599.395	1	-9
599.734	1	-11
600.074	1	2
600.413	1	4
600.753	1	1
601.092	1	7
601.432	1	3
601.771	1	6
602.111	1	-4
602.451	1	2
602.790	1	-5
603.130	1	5
603.469	1	2
603.809	1	8
604.148	1	8
604.487	1	8
604.827	1	4
605.166	1	7
605.506	1	6
605.845	1	3
606.185	1	6
606.524	1	5
606.864	1	14
607.203	1	4
607.543	1	2
607.882	1	14
608.222	1	-9
608.561	1	-8
608.901	1	6
609.240	1	0
609.579	1	16
609.919	1	9
610.258	1	0
610.598	1	-2
610.937	1	9
611.277	1	9
611.616	1	-5
611.955	1	1
612.295	1	13
612.634	1	-5
612.974	1	2
613.313	1	0
613.652	1	-5
613.992	1	10
614.331	1	8
614.671	1	8
615.010	1	-8
615.349	1	2
615.689	1	4
616.028	1	12
616.368	1	4
616.707	1	9
617.046	1	1
617.386	1	1
617.725	1	-1
618.064	1	5
618.404	1	1
618.743	1	1
619.082	1	-2
619.422	1	2
619.761	1	6
620.100	1	-4
620.440	1	5
620.779	1	16
621.118	1	3
621.458	1	0
621.797	1	-9
622.136	1	8
622.476	1	10
622.815	1	-2
623.154	1	-7
623.494	1	3
623.833	1	9
624.172	1	-1
624.511	1	10
624.851	1	-2
625.190	1	-2
625.529	1	0
625.869	1	3
626.208	1	2
626.547	1	2
626.886	1	-2
627.226	1	3
627.565	1	4
627.904	1	5
628.243	1	0
628.583	1	-14
628.922	1	-8
629.261	1	-13
629.600	1	7
629.940	1	4
630.279	1	11
630.618	1	1
630.957	1	4
631.297	1	-3
631.636	1	9
631.975	1	7
632.314	1	-1
632.653	1	-3
632.993	1	2
633.332	1	0
633.671	1	-7
634.010	1	-3
634.349	1	9
634.689	1	12
635.028	1	7
635.367	1	6
635.706	1	-3
636.045	1	11
636.384	1	1
636.724	1	7
637.063	1	6
637.402	1	-15
637.741	1	15
638.080	1	11
638.419	1	8
638.759	1	8
639.098	1	-1
639.437	1	8
639.776	1	-2
640.115	1	5
640.454	1	12
640.793	1	-10
641.132	1	11
641.472	1	-8
641.811	1	-5
642.150	1	-8
642.489	1	2
642.828	1	2
643.167	1	3
643.506	1	9
643.845	1	-3
644.184	1	2
644.524	1	2
644.863	1	5
645.202	1	4
645.541	1	0
645.880	1	11
646.219	1	-5
646.558	1	2
646.897	1	3
647.236	1	-8
647.575	1	-9
647.914	1	-10
648.253	1	-5
648.592	1	-6
648.931	1	6
649.270	1	3
649.610	1	7
649.949	1	0
650.288	1	9
650.627	1	3
650.966	1	4
651.305	1	2
651.644	1	5
651.983	1	-12
652.322	1	-2
652.661	1	8
653.000	1	2
653.339	1	-1
653.678	1	5
654.017	1	-4
654.356	1	11
654.695	1	1
655.034	1	-2
655.373	1	1
655.712	1	7
656.051	1	2
656.390	1	-8
656.729	1	1
657.068	1	-4
657.406	1	8
657.745	1	-1
658.084	1	7
658.423	1	-1
658.762	1	15
659.101	1	10
659.440	1	-6
659.779	1	2
660.118	1	5
660.457	1	3
660.796	1	-2
661.135	1	9
661.474	1	0
661.813	1	-5
662.152	1	3
662.491	1	20
662.829	1	7
663.168	1	-10
663.507	1	2
663.846	1	-1
664.185	1	4
664.524	1	-8
664.863	1	6
665.202	1	-1
665.541	1	3
665.879	1	0
666.218	1	7
666.557	1	4
666.896	1	9
667.235	1	6
667.574	1	12
667.913	1	8
668.251	1	7
668.590	1	3
668.929	1	5
669.268	1	1
669.607	1	0
669.946	1	13
670.285	1	0
670.623	1	18
670.962	1	-1
671.301	1	-6
671.640	1	-6
671.979	1	-3
672.317	1	9
672.656	1	-1
672.995	1	4
673.334	1	-11
673.673	1	6
674.011	1	1
674.350	1	3
674.689	1	5
675.028	1	12
675.367	1	-4
675.705	1	4
676.044	1	11
676.383	1	10
676.722	1	2
677.060	1	7
677.399	1	0
677.738	1	2
678.077	1	9
678.416	1	1
678.754	1	5
679.093	1	-2
679.432	1	8
679.771	1	17
680.109	1	3
680.448	1	1
680.787	1	10
681.125	1	3
681.464	1	1
681.803	1	3
682.142	1	-2
682.480	1	11
682.819	1	2
683.158	1	4
683.496	1	-3
683.835	1	-8
684.174	1	8
684.512	1	7
684.851	1	-5
685.190	1	2
685.529	1	-9
685.867	1	-1
686.206	1	0
686.545	1	-1
686.883	1	-3
687.222	1	-2
687.561	1	7
687.899	1	-9
688.238	1	4
688.577	1	10
688.746	1	2