File: Data/GaN_130K_350ms/GaN_sample F_spot6_UVVIS_130 K_200um_350 ms 2x2mm1_244.txt
340.368	1	1
340.710	1	4
341.052	1	0
341.394	1	1
341.737	1	7
342.079	1	10
342.421	1	8
342.763	1	3
343.105	1	7
343.447	1	5
343.789	1	2
344.131	1	10
344.473	1	6
344.815	1	-10
345.157	1	-18
345.499	1	1
345.841	1	-3
346.183	1	6
346.526	1	4
346.868	1	1
347.210	1	-1
347.552	1	-6
347.894	1	-4
348.236	1	1
348.578	1	-7
348.920	1	10
349.262	1	12
349.604	1	7
349.946	1	7
350.288	1	-5
350.630	1	10
350.972	1	11
351.314	1	4
351.656	1	15
351.998	1	-4
352.340	1	-1
352.682	1	-2
353.024	1	3
353.366	1	13
353.708	1	-2
354.050	1	1
354.392	1	8
354.734	1	9
355.076	1	0
355.418	1	6
355.760	1	-1
356.102	1	3
356.444	1	-13
356.785	1	8
357.127	1	9
357.469	1	-8
357.811	1	0
358.153	1	7
358.495	1	4
358.837	1	10
359.179	1	-6
359.521	1	-2
359.863	1	-3
360.205	1	-5
360.547	1	0
360.889	1	4
361.231	1	-5
361.572	1	12
361.914	1	0
362.256	1	5
362.598	1	2
362.940	1	-10
363.282	1	18
363.624	1	9
363.966	1	13
364.308	1	15
364.649	1	6
364.991	1	7
365.333	1	2
365.675	1	16
366.017	1	9
366.359	1	14
366.701	1	12
367.042	1	11
367.384	1	14
367.726	1	8
368.068	1	14
368.410	1	9
368.752	1	16
369.093	1	18
369.435	1	9
369.777	1	11
370.119	1	12
370.461	1	14
370.803	1	10
371.144	1	7
371.486	1	13
371.828	1	4
372.170	1	10
372.512	1	10
372.853	1	-1
373.195	1	0
373.537	1	10
373.879	1	12
374.220	1	9
374.562	1	1
374.904	1	4
375.246	1	16
375.588	1	6
375.929	1	-3
376.271	1	15
376.613	1	0
376.955	1	4
377.296	1	9
377.638	1	-2
377.980	1	0
378.321	1	-1
378.663	1	2
379.005	1	16
379.347	1	6
379.688	1	0
380.030	1	6
380.372	1	14
380.714	1	14
381.055	1	1
381.397	1	7
381.739	1	5
382.080	1	-8
382.422	1	8
382.764	1	1
383.105	1	1
383.447	1	9
383.789	1	6
384.130	1	13
384.472	1	6
384.814	1	4
385.156	1	0
385.497	1	3
385.839	1	8
386.180	1	10
386.522	1	1
386.864	1	6
387.205	1	3
387.547	1	5
387.889	1	-7
388.230	1	8
388.572	1	14
388.914	1	3
389.255	1	5
389.597	1	-5
389.939	1	7
390.280	1	13
390.622	1	6
390.963	1	6
391.305	1	-1
391.647	1	9
391.988	1	7
392.330	1	9
392.671	1	-7
393.013	1	4
393.355	1	8
393.696	1	-4
394.038	1	11
394.379	1	4
394.721	1	5
395.062	1	-5
395.404	1	-9
395.746	1	7
396.087	1	14
396.429	1	7
396.770	1	5
397.112	1	7
397.453	1	5
397.795	1	5
398.136	1	3
398.478	1	7
398.819	1	-11
399.161	1	6
399.503	1	12
399.844	1	-5
400.186	1	2
400.527	1	1
400.869	1	12
401.210	1	-1
401.552	1	9
401.893	1	-6
402.235	1	-2
402.576	1	1
402.918	1	5
403.259	1	7
403.601	1	14
403.942	1	-1
404.284	1	8
404.625	1	15
404.967	1	4
405.308	1	-4
405.649	1	2
405.991	1	4
406.332	1	10
406.674	1	8
407.015	1	4
407.357	1	9
407.698	1	2
408.040	1	-6
408.381	1	11
408.722	1	4
409.064	1	4
409.405	1	0
409.747	1	-6
410.088	1	14
410.430	1	10
410.771	1	-8
411.112	1	22
411.454	1	0
411.795	1	4
412.137	1	3
412.478	1	2
412.819	1	6
413.161	1	8
413.502	1	13
413.844	1	9
414.185	1	9
414.526	1	8
414.868	1	-2
415.209	1	1
415.550	1	-1
415.892	1	12
416.233	1	12
416.575	1	6
416.916	1	-1
417.257	1	6
417.599	1	3
417.940	1	3
418.281	1	4
418.623	1	1
418.964	1	1
419.305	1	7
419.647	1	5
419.988	1	14
420.329	1	20
420.671	1	4
421.012	1	7
421.353	1	-2
421.695	1	-5
422.036	1	1
422.377	1	13
422.718	1	2
423.060	1	11
423.401	1	6
423.742	1	6
424.084	1	5
424.425	1	8
424.766	1	3
425.107	1	0
425.449	1	5
425.790	1	12
426.131	1	12
426.472	1	4
426.814	1	6
427.155	1	6
427.496	1	0
427.837	1	1
428.179	1	8
428.520	1	14
428.861	1	-4
429.202	1	7
429.544	1	10
429.885	1	8
430.226	1	10
430.567	1	-1
430.909	1	11
431.250	1	14
431.591	1	-5
431.932	1	-3
432.273	1	6
432.615	1	-2
432.956	1	-6
433.297	1	8
433.638	1	14
433.979	1	12
434.320	1	8
434.662	1	-2
435.003	1	20
435.344	1	10
435.685	1	-8
436.026	1	13
436.368	1	2
436.709	1	2
437.050	1	5
437.391	1	18
437.732	1	11
438.073	1	14
438.414	1	-1
438.756	1	9
439.097	1	-4
439.438	1	10
439.779	1	5
440.120	1	3
440.461	1	17
440.802	1	0
441.143	1	2
441.485	1	1
441.826	1	7
442.167	1	-3
442.508	1	7
442.849	1	7
443.190	1	11
443.531	1	-2
443.872	1	13
444.213	1	4
444.554	1	3
444.895	1	-4
445.237	1	-6
445.578	1	-6
445.919	1	6
446.260	1	7
446.601	1	5
446.942	1	-9
447.283	1	7
447.624	1	4
447.965	1	0
448.306	1	4
448.647	1	15
448.988	1	2
449.329	1	4
449.670	1	1
450.011	1	-3
450.352	1	7
450.693	1	0
451.034	1	-8
451.375	1	14
451.716	1	-10
452.057	1	16
452.398	1	-3
452.739	1	6
453.080	1	-2
453.421	1	1
453.762	1	8
454.103	1	-7
454.444	1	-1
454.785	1	15
455.126	1	-6
455.467	1	9
455.808	1	-1
456.149	1	-2
456.490	1	14
456.831	1	9
457.172	1	5
457.513	1	-3
457.854	1	1
458.195	1	-3
458.536	1	3
458.877	1	20
459.218	1	1
459.559	1	1
459.899	1	-1
460.240	1	12
460.581	1	6
460.922	1	3
461.263	1	6
461.604	1	-14
461.945	1	7
462.286	1	0
462.627	1	-7
462.968	1	2
463.309	1	7
463.649	1	-1
463.990	1	1
464.331	1	3
464.672	1	3
465.013	1	-1
465.354	1	3
465.695	1	11
466.036	1	-4
466.376	1	1
466.717	1	3
467.058	1	10
467.399	1	1
467.740	1	15
468.081	1	7
468.422	1	5
468.762	1	-7
469.103	1	12
469.444	1	3
469.785	1	2
470.126	1	-5
470.467	1	3
470.807	1	4
471.148	1	0
471.489	1	-5
471.830	1	9
472.171	1	-3
472.511	1	3
472.852	1	8
473.193	1	2
473.534	1	12
473.875	1	12
474.215	1	3
474.556	1	6
474.897	1	-2
475.238	1	14
475.578	1	-3
475.919	1	-10
476.260	1	2
476.601	1	0
476.942	1	8
477.282	1	7
477.623	1	-2
477.964	1	-5
478.305	1	16
478.645	1	4
478.986	1	-12
479.327	1	-11
479.667	1	7
480.008	1	-7
480.349	1	8
480.690	1	6
481.030	1	8
481.371	1	12
481.712	1	0
482.053	1	9
482.393	1	5
482.734	1	3
483.075	1	6
483.415	1	-8
483.756	1	3
484.097	1	-5
484.437	1	3
484.778	1	15
485.119	1	8
485.459	1	-4
485.800	1	10
486.141	1	0
486.481	1	-2
486.822	1	8
487.163	1	0
487.503	1	-14
487.844	1	-10
488.185	1	15
488.525	1	1
488.866	1	3
489.207	1	-4
489.547	1	-4
489.888	1	13
490.228	1	2
490.569	1	1
490.910	1	-3
491.250	1	13
491.591	1	-7
491.932	1	10
492.272	1	-5
492.613	1	-2
492.953	1	-5
493.294	1	4
493.635	1	-3
493.975	1	13
494.316	1	8
494.656	1	-4
494.997	1	-1
495.337	1	-2
495.678	1	-1
496.019	1	-8
496.359	1	7
496.700	1	-6
497.040	1	12
497.381	1	9
497.721	1	1
498.062	1	-4
498.403	1	-11
498.743	1	6
499.084	1	14
499.424	1	-3
499.765	1	-2
500.105	1	7
500.446	1	4
500.786	1	1
501.127	1	6
501.467	1	-1
501.808	1	4
502.148	1	5
502.489	1	7
502.829	1	3
503.170	1	-13
503.510	1	15
503.851	1	2
504.191	1	-2
504.532	1	3
504.872	1	4
505.213	1	5
505.553	1	3
505.894	1	4
506.234	1	0
506.575	1	-5
506.915	1	2
507.256	1	13
507.596	1	1
507.936	1	-6
508.277	1	-2
508.617	1	0
508.958	1	5
509.298	1	-4
509.639	1	10
509.979	1	-5
510.319	1	12
510.660	1	-11
511.000	1	9
511.341	1	-6
511.681	1	14
512.022	1	10
512.362	1	2
512.702	1	6
513.043	1	2
513.383	1	10
513.724	1	-2
514.064	1	2
514.404	1	16
514.745	1	-1
515.085	1	10
515.425	1	0
515.766	1	6
516.106	1	-1
516.447	1	1
516.787	1	4
517.127	1	6
517.468	1	2
517.808	1	-1
518.148	1	9
518.489	1	-4
518.829	1	10
519.169	1	2
519.510	1	2
519.850	1	15
520.190	1	16
520.531	1	14
520.871	1	-2
521.211	1	12
521.552	1	5
521.892	1	6
522.232	1	-7
522.573	1	-2
522.913	1	5
523.253	1	4
523.593	1	10
523.934	1	1
524.274	1	2
524.614	1	8
524.955	1	13
525.295	1	3
525.635	1	-4
525.975	1	6
526.316	1	5
526.656	1	5
526.996	1	-2
527.337	1	11
527.677	1	-5
528.017	1	-3
528.357	1	4
528.698	1	-3
529.038	1	-4
529.378	1	10
529.718	1	6
530.058	1	1
530.399	1	9
530.739	1	5
531.079	1	6
531.419	1	21
531.760	1	-5
532.100	1	9
532.440	1	2
532.780	1	-1
533.120	1	10
533.461	1	3
533.801	1	14
534.141	1	7
534.481	1	2
534.821	1	7
535.162	1	7
535.502	1	10
535.842	1	5
536.182	1	14
536.522	1	6
536.862	1	7
537.203	1	0
537.543	1	6
537.883	1	5
538.223	1	11
538.563	1	9
538.903	1	5
539.243	1	7
539.584	1	0
539.924	1	0
540.264	1	-2
540.604	1	4
540.944	1	9
541.284	1	11
541.624	1	18
541.964	1	-8
542.305	1	4
542.645	1	-4
542.985	1	7
543.325	1	1
543.665	1	10
544.005	1	9
544.345	1	8
544.685	1	11
545.025	1	4
545.365	1	7
545.705	1	3
546.045	1	8
546.386	1	-1
546.726	1	0
547.066	1	2
547.406	1	-10
547.746	1	-1
548.086	1	-4
548.426	1	1
548.766	1	6
549.106	1	-6
549.446	1	3
549.786	1	-3
550.126	1	11
550.466	1	14
550.806	1	18
551.146	1	-4
551.486	1	4
551.826	1	7
552.166	1	9
552.506	1	6
552.846	1	-5
553.186	1	-2
553.526	1	-1
553.866	1	-6
554.206	1	9
554.546	1	3
554.886	1	0
555.226	1	9
555.566	1	-1
555.906	1	-4
556.246	1	2
556.586	1	3
556.926	1	7
557.266	1	5
557.606	1	6
557.946	1	4
558.286	1	-2
558.626	1	-8
558.966	1	0
559.306	1	3
559.646	1	8
559.986	1	2
560.325	1	-6
560.665	1	8
561.005	1	10
561.345	1	4
561.685	1	12
562.025	1	-2
562.365	1	12
562.705	1	9
563.045	1	0
563.385	1	11
563.725	1	1
564.064	1	6
564.404	1	3
564.744	1	0
565.084	1	0
565.424	1	-1
565.764	1	5
566.104	1	2
566.444	1	3
566.783	1	0
567.123	1	-2
567.463	1	-2
567.803	1	13
568.143	1	8
568.483	1	1
568.823	1	-9
569.162	1	0
569.502	1	0
569.842	1	4
570.182	1	-1
570.522	1	-10
570.862	1	11
571.201	1	5
571.541	1	8
571.881	1	0
572.221	1	1
572.561	1	3
572.900	1	9
573.240	1	0
573.580	1	4
573.920	1	17
574.260	1	5
574.599	1	4
574.939	1	7
575.279	1	-7
575.619	1	4
575.959	1	8
576.298	1	8
576.638	1	3
576.978	1	-3
577.318	1	3
577.657	1	14
577.997	1	5
578.337	1	3
578.677	1	7
579.016	1	3
579.356	1	5
579.696	1	-7
580.036	1	0
580.375	1	-1
580.715	1	10
581.055	1	7
581.394	1	3
581.734	1	4
582.074	1	7
582.414	1	-2
582.753	1	10
583.093	1	-2
583.433	1	12
583.772	1	7
584.112	1	11
584.452	1	10
584.791	1	6
585.131	1	8
585.471	1	-3
585.811	1	9
586.150	1	10
586.490	1	11
586.830	1	-9
587.169	1	10
587.509	1	3
587.849	1	5
588.188	1	3
588.528	1	8
588.867	1	2
589.207	1	2
589.547	1	-1
589.886	1	6
590.226	1	10
590.566	1	5
590.905	1	17
591.245	1	-7
591.585	1	-4
591.924	1	0
592.264	1	4
592.603	1	-1
592.943	1	4
593.283	1	-8
593.622	1	9
593.962	1	12
594.301	1	-8
594.641	1	6
594.981	1	-6
595.320	1	2
595.660	1	8
595.999	1	12
596.339	1	13
596.678	1	2
597.018	1	7
597.358	1	-3
597.697	1	-6
598.037	1	6
598.376	1	6
598.716	1	6
599.055	1	0
599.395	1	-9
599.734	1	2
600.074	1	11
600.413	1	6
600.753	1	0
601.092	1	-3
601.432	1	-8
601.771	1	16
602.111	1	-7
602.451	1	7
602.790	1	1
603.130	1	3
603.469	1	7
603.809	1	3
604.148	1	3
604.487	1	12
604.827	1	-4
605.166	1	10
605.506	1	2
605.845	1	-4
606.185	1	14
606.524	1	-1
606.864	1	8
607.203	1	4
607.543	1	-2
607.882	1	7
608.222	1	-10
608.561	1	-2
608.901	1	16
609.240	1	-9
609.579	1	12
609.919	1	9
610.258	1	4
610.598	1	1
610.937	1	10
611.277	1	5
611.616	1	-1
611.955	1	-7
612.295	1	11
612.634	1	-4
612.974	1	2
613.313	1	-1
613.652	1	-11
613.992	1	2
614.331	1	4
614.671	1	4
615.010	1	-9
615.349	1	3
615.689	1	8
616.028	1	10
616.368	1	9
616.707	1	14
617.046	1	5
617.386	1	-3
617.725	1	-1
618.064	1	10
618.404	1	-1
618.743	1	2
619.082	1	-1
619.422	1	-1
619.761	1	12
620.100	1	-7
620.440	1	6
620.779	1	8
621.118	1	0
621.458	1	1
621.797	1	4
622.136	1	8
622.476	1	5
622.815	1	-6
623.154	1	-3
623.494	1	4
623.833	1	7
624.172	1	-6
624.511	1	4
624.851	1	-2
625.190	1	0
625.529	1	0
625.869	1	4
626.208	1	-5
626.547	1	10
626.886	1	-7
627.226	1	-4
627.565	1	-6
627.904	1	-2
628.243	1	2
628.583	1	-6
628.922	1	-9
629.261	1	-8
629.600	1	6
629.940	1	18
630.279	1	10
630.618	1	-5
630.957	1	0
631.297	1	7
631.636	1	13
631.975	1	6
632.314	1	-2
632.653	1	-1
632.993	1	14
633.332	1	-6
633.671	1	-8
634.010	1	-1
634.349	1	1
634.689	1	9
635.028	1	9
635.367	1	7
635.706	1	1
636.045	1	13
636.384	1	0
636.724	1	14
637.063	1	8
637.402	1	0
637.741	1	0
638.080	1	12
638.419	1	5
638.759	1	-2
639.098	1	2
639.437	1	9
639.776	1	-7
640.115	1	8
640.454	1	13
640.793	1	-4
641.132	1	0
641.472	1	-7
641.811	1	3
642.150	1	-7
642.489	1	-10
642.828	1	4
643.167	1	8
643.506	1	9
643.845	1	1
644.184	1	-4
644.524	1	4
644.863	1	-3
645.202	1	4
645.541	1	1
645.880	1	8
646.219	1	-2
646.558	1	-2
646.897	1	-3
647.236	1	2
647.575	1	-1
647.914	1	-9
648.253	1	6
648.592	1	-4
648.931	1	-4
649.270	1	-1
649.610	1	0
649.949	1	7
650.288	1	13
650.627	1	3
650.966	1	-2
651.305	1	0
651.644	1	8
651.983	1	-7
652.322	1	5
652.661	1	2
653.000	1	-3
653.339	1	2
653.678	1	-3
654.017	1	-10
654.356	1	11
654.695	1	3
655.034	1	-5
655.373	1	5
655.712	1	-1
656.051	1	-1
656.390	1	-4
656.729	1	10
657.068	1	-6
657.406	1	-4
657.745	1	-3
658.084	1	3
658.423	1	9
658.762	1	14
659.101	1	4
659.440	1	-2
659.779	1	8
660.118	1	-3
660.457	1	-4
660.796	1	5
661.135	1	8
661.474	1	4
661.813	1	0
662.152	1	-2
662.491	1	16
662.829	1	14
663.168	1	-2
663.507	1	0
663.846	1	1
664.185	1	-3
664.524	1	1
664.863	1	2
665.202	1	-4
665.541	1	-6
665.879	1	1
666.218	1	6
666.557	1	7
666.896	1	1
667.235	1	11
667.574	1	13
667.913	1	7
668.251	1	0
668.590	1	1
668.929	1	4
669.268	1	-1
669.607	1	-4
669.946	1	8
670.285	1	5
670.623	1	6
670.962	1	1
671.301	1	6
671.640	1	-6
671.979	1	-2
672.317	1	-3
672.656	1	-4
672.995	1	2
673.334	1	-2
673.673	1	6
674.011	1	-5
674.350	1	12
674.689	1	10
675.028	1	17
675.367	1	-2
675.705	1	12
676.044	1	3
676.383	1	5
676.722	1	-1
677.060	1	-2
677.399	1	1
677.738	1	-1
678.077	1	0
678.416	1	7
678.754	1	6
679.093	1	-2
679.432	1	3
679.771	1	7
680.109	1	1
680.448	1	2
680.787	1	2
681.125	1	12
681.464	1	-4
681.803	1	6
682.142	1	-9
682.480	1	10
682.819	1	4
683.158	1	9
683.496	1	-3
683.835	1	-5
684.174	1	1
684.512	1	12
684.851	1	5
685.190	1	5
685.529	1	1
685.867	1	-2
686.206	1	7
686.545	1	3
686.883	1	-1
687.222	1	-5
687.561	1	8
687.899	1	2
688.238	1	4
688.577	1	5
688.746	1	7