File: Data/GaN_130K_350ms/GaN_sample F_spot6_UVVIS_130 K_200um_350 ms 2x2mm1_19.txt
340.368	1	-2
340.710	1	7
341.052	1	-5
341.394	1	-7
341.737	1	13
342.079	1	2
342.421	1	6
342.763	1	-4
343.105	1	4
343.447	1	7
343.789	1	9
344.131	1	10
344.473	1	-1
344.815	1	-6
345.157	1	-7
345.499	1	-5
345.841	1	-2
346.183	1	6
346.526	1	-4
346.868	1	6
347.210	1	2
347.552	1	-2
347.894	1	-2
348.236	1	6
348.578	1	0
348.920	1	6
349.262	1	3
349.604	1	0
349.946	1	6
350.288	1	-11
350.630	1	11
350.972	1	14
351.314	1	-10
351.656	1	13
351.998	1	3
352.340	1	11
352.682	1	2
353.024	1	0
353.366	1	-3
353.708	1	-6
354.050	1	11
354.392	1	-1
354.734	1	-8
355.076	1	-2
355.418	1	5
355.760	1	-3
356.102	1	1
356.444	1	-18
356.785	1	7
357.127	1	2
357.469	1	7
357.811	1	7
358.153	1	-12
358.495	1	5
358.837	1	-4
359.179	1	11
359.521	1	-4
359.863	1	1
360.205	1	-1
360.547	1	-2
360.889	1	-3
361.231	1	-7
361.572	1	5
361.914	1	-5
362.256	1	-2
362.598	1	-4
362.940	1	-11
363.282	1	2
363.624	1	6
363.966	1	14
364.308	1	-1
364.649	1	8
364.991	1	6
365.333	1	-4
365.675	1	4
366.017	1	12
366.359	1	6
366.701	1	1
367.042	1	2
367.384	1	9
367.726	1	1
368.068	1	-11
368.410	1	-4
368.752	1	8
369.093	1	-4
369.435	1	-4
369.777	1	4
370.119	1	2
370.461	1	2
370.803	1	5
371.144	1	1
371.486	1	-2
371.828	1	3
372.170	1	-3
372.512	1	4
372.853	1	-2
373.195	1	-8
373.537	1	-4
373.879	1	8
374.220	1	-2
374.562	1	-7
374.904	1	5
375.246	1	5
375.588	1	3
375.929	1	-8
376.271	1	-6
376.613	1	4
376.955	1	5
377.296	1	2
377.638	1	-10
377.980	1	-8
378.321	1	-4
378.663	1	5
379.005	1	20
379.347	1	0
379.688	1	-4
380.030	1	-3
380.372	1	-2
380.714	1	19
381.055	1	2
381.397	1	7
381.739	1	8
382.080	1	-6
382.422	1	12
382.764	1	1
383.105	1	-2
383.447	1	6
383.789	1	0
384.130	1	3
384.472	1	8
384.814	1	3
385.156	1	-3
385.497	1	-5
385.839	1	-1
386.180	1	3
386.522	1	2
386.864	1	-2
387.205	1	1
387.547	1	-8
387.889	1	-6
388.230	1	-5
388.572	1	7
388.914	1	4
389.255	1	0
389.597	1	-10
389.939	1	-3
390.280	1	13
390.622	1	4
390.963	1	1
391.305	1	0
391.647	1	1
391.988	1	10
392.330	1	1
392.671	1	-9
393.013	1	-4
393.355	1	-3
393.696	1	-2
394.038	1	7
394.379	1	4
394.721	1	0
395.062	1	-6
395.404	1	-3
395.746	1	9
396.087	1	4
396.429	1	3
396.770	1	3
397.112	1	6
397.453	1	7
397.795	1	-9
398.136	1	1
398.478	1	-4
398.819	1	-20
399.161	1	-4
399.503	1	5
399.844	1	-7
400.186	1	-4
400.527	1	2
400.869	1	-11
401.210	1	-11
401.552	1	8
401.893	1	-3
402.235	1	-2
402.576	1	3
402.918	1	8
403.259	1	-8
403.601	1	4
403.942	1	0
404.284	1	-4
404.625	1	8
404.967	1	4
405.308	1	-7
405.649	1	0
405.991	1	1
406.332	1	0
406.674	1	3
407.015	1	3
407.357	1	-9
407.698	1	4
408.040	1	1
408.381	1	11
408.722	1	-1
409.064	1	5
409.405	1	0
409.747	1	2
410.088	1	5
410.430	1	10
410.771	1	-15
411.112	1	10
411.454	1	6
411.795	1	4
412.137	1	-6
412.478	1	-4
412.819	1	3
413.161	1	7
413.502	1	9
413.844	1	-6
414.185	1	15
414.526	1	9
414.868	1	4
415.209	1	4
415.550	1	-10
415.892	1	1
416.233	1	9
416.575	1	1
416.916	1	-2
417.257	1	9
417.599	1	4
417.940	1	0
418.281	1	-10
418.623	1	-4
418.964	1	-3
419.305	1	-3
419.647	1	6
419.988	1	6
420.329	1	14
420.671	1	-3
421.012	1	-2
421.353	1	-8
421.695	1	-2
422.036	1	9
422.377	1	3
422.718	1	1
423.060	1	-2
423.401	1	3
423.742	1	4
424.084	1	2
424.425	1	4
424.766	1	-7
425.107	1	1
425.449	1	4
425.790	1	6
426.131	1	10
426.472	1	-2
426.814	1	4
427.155	1	-4
427.496	1	0
427.837	1	-3
428.179	1	0
428.520	1	2
428.861	1	2
429.202	1	-2
429.544	1	8
429.885	1	-2
430.226	1	-1
430.567	1	2
430.909	1	4
431.250	1	2
431.591	1	-3
431.932	1	-7
432.273	1	5
432.615	1	8
432.956	1	-8
433.297	1	7
433.638	1	4
433.979	1	1
434.320	1	2
434.662	1	0
435.003	1	7
435.344	1	0
435.685	1	-8
436.026	1	7
436.368	1	0
436.709	1	-9
437.050	1	9
437.391	1	3
437.732	1	4
438.073	1	11
438.414	1	-13
438.756	1	-4
439.097	1	-2
439.438	1	-5
439.779	1	14
440.120	1	-2
440.461	1	8
440.802	1	-9
441.143	1	-8
441.485	1	8
441.826	1	-3
442.167	1	7
442.508	1	-2
442.849	1	-1
443.190	1	0
443.531	1	-5
443.872	1	6
444.213	1	2
444.554	1	3
444.895	1	-5
445.237	1	-7
445.578	1	-7
445.919	1	5
446.260	1	-1
446.601	1	5
446.942	1	-4
447.283	1	-4
447.624	1	5
447.965	1	8
448.306	1	5
448.647	1	7
448.988	1	10
449.329	1	-10
449.670	1	0
450.011	1	-1
450.352	1	7
450.693	1	-3
451.034	1	-1
451.375	1	4
451.716	1	-1
452.057	1	13
452.398	1	-11
452.739	1	4
453.080	1	3
453.421	1	-4
453.762	1	5
454.103	1	-6
454.444	1	-2
454.785	1	8
455.126	1	-8
455.467	1	6
455.808	1	17
456.149	1	-6
456.490	1	2
456.831	1	1
457.172	1	-1
457.513	1	-10
457.854	1	2
458.195	1	-15
458.536	1	0
458.877	1	20
459.218	1	-2
459.559	1	9
459.899	1	4
460.240	1	11
460.581	1	-3
460.922	1	-6
461.263	1	7
461.604	1	-14
461.945	1	15
462.286	1	-7
462.627	1	-2
462.968	1	-2
463.309	1	-1
463.649	1	-8
463.990	1	1
464.331	1	4
464.672	1	8
465.013	1	-7
465.354	1	1
465.695	1	8
466.036	1	0
466.376	1	7
466.717	1	9
467.058	1	-2
467.399	1	2
467.740	1	10
468.081	1	12
468.422	1	5
468.762	1	1
469.103	1	-3
469.444	1	-2
469.785	1	5
470.126	1	-10
470.467	1	0
470.807	1	0
471.148	1	3
471.489	1	3
471.830	1	6
472.171	1	6
472.511	1	-4
472.852	1	8
473.193	1	7
473.534	1	-5
473.875	1	11
474.215	1	-3
474.556	1	-5
474.897	1	-4
475.238	1	9
475.578	1	-9
475.919	1	-9
476.260	1	1
476.601	1	-5
476.942	1	5
477.282	1	1
477.623	1	4
477.964	1	-9
478.305	1	5
478.645	1	1
478.986	1	1
479.327	1	-8
479.667	1	0
480.008	1	-4
480.349	1	-11
480.690	1	0
481.030	1	4
481.371	1	6
481.712	1	11
482.053	1	3
482.393	1	11
482.734	1	4
483.075	1	13
483.415	1	-6
483.756	1	-2
484.097	1	-4
484.437	1	-5
484.778	1	8
485.119	1	13
485.459	1	-10
485.800	1	4
486.141	1	-1
486.481	1	-3
486.822	1	2
487.163	1	-4
487.503	1	0
487.844	1	1
488.185	1	1
488.525	1	12
488.866	1	4
489.207	1	-6
489.547	1	-1
489.888	1	2
490.228	1	-2
490.569	1	0
490.910	1	1
491.250	1	3
491.591	1	0
491.932	1	-3
492.272	1	1
492.613	1	3
492.953	1	-5
493.294	1	6
493.635	1	0
493.975	1	10
494.316	1	2
494.656	1	3
494.997	1	-3
495.337	1	-4
495.678	1	3
496.019	1	1
496.359	1	10
496.700	1	-3
497.040	1	7
497.381	1	1
497.721	1	-6
498.062	1	-2
498.403	1	-1
498.743	1	10
499.084	1	7
499.424	1	-4
499.765	1	2
500.105	1	1
500.446	1	-3
500.786	1	8
501.127	1	7
501.467	1	-3
501.808	1	2
502.148	1	7
502.489	1	-3
502.829	1	-4
503.170	1	-12
503.510	1	3
503.851	1	3
504.191	1	9
504.532	1	9
504.872	1	2
505.213	1	-2
505.553	1	-6
505.894	1	3
506.234	1	0
506.575	1	-2
506.915	1	-2
507.256	1	2
507.596	1	-1
507.936	1	1
508.277	1	-9
508.617	1	-7
508.958	1	2
509.298	1	0
509.639	1	3
509.979	1	-1
510.319	1	4
510.660	1	-1
511.000	1	1
511.341	1	1
511.681	1	10
512.022	1	6
512.362	1	-10
512.702	1	5
513.043	1	3
513.383	1	-1
513.724	1	1
514.064	1	-1
514.404	1	2
514.745	1	6
515.085	1	5
515.425	1	-3
515.766	1	10
516.106	1	-3
516.447	1	-6
516.787	1	7
517.127	1	-2
517.468	1	9
517.808	1	-3
518.148	1	8
518.489	1	6
518.829	1	8
519.169	1	4
519.510	1	3
519.850	1	6
520.190	1	4
520.531	1	1
520.871	1	-11
521.211	1	4
521.552	1	-3
521.892	1	8
522.232	1	-5
522.573	1	-3
522.913	1	0
523.253	1	1
523.593	1	4
523.934	1	-6
524.274	1	-1
524.614	1	0
524.955	1	-1
525.295	1	9
525.635	1	-10
525.975	1	15
526.316	1	8
526.656	1	8
526.996	1	-8
527.337	1	6
527.677	1	3
528.017	1	5
528.357	1	5
528.698	1	-15
529.038	1	-4
529.378	1	2
529.718	1	7
530.058	1	-3
530.399	1	0
530.739	1	-6
531.079	1	-7
531.419	1	2
531.760	1	0
532.100	1	1
532.440	1	0
532.780	1	-1
533.120	1	9
533.461	1	2
533.801	1	12
534.141	1	5
534.481	1	3
534.821	1	13
535.162	1	6
535.502	1	-3
535.842	1	6
536.182	1	5
536.522	1	-4
536.862	1	-3
537.203	1	-5
537.543	1	5
537.883	1	-2
538.223	1	0
538.563	1	10
538.903	1	12
539.243	1	-1
539.584	1	1
539.924	1	-13
540.264	1	2
540.604	1	2
540.944	1	4
541.284	1	-7
541.624	1	13
541.964	1	-5
542.305	1	1
542.645	1	0
542.985	1	1
543.325	1	7
543.665	1	8
544.005	1	5
544.345	1	0
544.685	1	7
545.025	1	-1
545.365	1	10
545.705	1	-6
546.045	1	0
546.386	1	4
546.726	1	-5
547.066	1	6
547.406	1	-6
547.746	1	8
548.086	1	-3
548.426	1	9
548.766	1	3
549.106	1	1
549.446	1	-5
549.786	1	3
550.126	1	7
550.466	1	2
550.806	1	1
551.146	1	-1
551.486	1	-8
551.826	1	4
552.166	1	1
552.506	1	3
552.846	1	-3
553.186	1	-4
553.526	1	6
553.866	1	-11
554.206	1	-4
554.546	1	3
554.886	1	1
555.226	1	-1
555.566	1	-9
555.906	1	-4
556.246	1	5
556.586	1	1
556.926	1	-5
557.266	1	1
557.606	1	-4
557.946	1	-10
558.286	1	6
558.626	1	-4
558.966	1	5
559.306	1	-2
559.646	1	8
559.986	1	4
560.325	1	-8
560.665	1	3
561.005	1	-1
561.345	1	2
561.685	1	4
562.025	1	1
562.365	1	-2
562.705	1	9
563.045	1	-9
563.385	1	-1
563.725	1	-3
564.064	1	7
564.404	1	-3
564.744	1	8
565.084	1	-7
565.424	1	-14
565.764	1	5
566.104	1	-1
566.444	1	8
566.783	1	6
567.123	1	-2
567.463	1	-3
567.803	1	3
568.143	1	9
568.483	1	6
568.823	1	-2
569.162	1	4
569.502	1	-2
569.842	1	7
570.182	1	-1
570.522	1	-16
570.862	1	8
571.201	1	4
571.541	1	3
571.881	1	-3
572.221	1	12
572.561	1	-4
572.900	1	-3
573.240	1	-7
573.580	1	-5
573.920	1	12
574.260	1	2
574.599	1	10
574.939	1	1
575.279	1	-11
575.619	1	3
575.959	1	7
576.298	1	-1
576.638	1	0
576.978	1	2
577.318	1	7
577.657	1	9
577.997	1	5
578.337	1	-5
578.677	1	15
579.016	1	0
579.356	1	3
579.696	1	-12
580.036	1	1
580.375	1	-9
580.715	1	6
581.055	1	0
581.394	1	7
581.734	1	11
582.074	1	0
582.414	1	-7
582.753	1	-6
583.093	1	-6
583.433	1	7
583.772	1	4
584.112	1	6
584.452	1	10
584.791	1	8
585.131	1	9
585.471	1	12
585.811	1	3
586.150	1	12
586.490	1	4
586.830	1	-6
587.169	1	6
587.509	1	4
587.849	1	1
588.188	1	12
588.528	1	2
588.867	1	11
589.207	1	-8
589.547	1	-7
589.886	1	-1
590.226	1	2
590.566	1	5
590.905	1	6
591.245	1	-5
591.585	1	3
591.924	1	-3
592.264	1	3
592.603	1	3
592.943	1	-1
593.283	1	-10
593.622	1	9
593.962	1	5
594.301	1	-8
594.641	1	3
594.981	1	-9
595.320	1	7
595.660	1	-3
595.999	1	10
596.339	1	6
596.678	1	5
597.018	1	5
597.358	1	0
597.697	1	-3
598.037	1	3
598.376	1	6
598.716	1	0
599.055	1	-5
599.395	1	-9
599.734	1	-2
600.074	1	16
600.413	1	14
600.753	1	1
601.092	1	2
601.432	1	-9
601.771	1	6
602.111	1	-4
602.451	1	7
602.790	1	1
603.130	1	-1
603.469	1	5
603.809	1	4
604.148	1	7
604.487	1	14
604.827	1	-1
605.166	1	7
605.506	1	0
605.845	1	-6
606.185	1	3
606.524	1	8
606.864	1	6
607.203	1	-10
607.543	1	-6
607.882	1	5
608.222	1	0
608.561	1	3
608.901	1	9
609.240	1	-5
609.579	1	13
609.919	1	4
610.258	1	-3
610.598	1	-3
610.937	1	7
611.277	1	10
611.616	1	1
611.955	1	-8
612.295	1	10
612.634	1	-1
612.974	1	8
613.313	1	-8
613.652	1	-13
613.992	1	2
614.331	1	1
614.671	1	5
615.010	1	-2
615.349	1	2
615.689	1	7
616.028	1	14
616.368	1	4
616.707	1	12
617.046	1	12
617.386	1	-1
617.725	1	-4
618.064	1	8
618.404	1	-8
618.743	1	-5
619.082	1	-3
619.422	1	3
619.761	1	-1
620.100	1	-3
620.440	1	5
620.779	1	-2
621.118	1	12
621.458	1	5
621.797	1	9
622.136	1	-1
622.476	1	11
622.815	1	9
623.154	1	0
623.494	1	5
623.833	1	13
624.172	1	-4
624.511	1	5
624.851	1	3
625.190	1	0
625.529	1	3
625.869	1	10
626.208	1	1
626.547	1	6
626.886	1	3
627.226	1	-11
627.565	1	3
627.904	1	6
628.243	1	0
628.583	1	-10
628.922	1	-6
629.261	1	-17
629.600	1	2
629.940	1	13
630.279	1	3
630.618	1	-2
630.957	1	3
631.297	1	-5
631.636	1	17
631.975	1	-1
632.314	1	7
632.653	1	5
632.993	1	-2
633.332	1	-4
633.671	1	-6
634.010	1	-2
634.349	1	-7
634.689	1	3
635.028	1	12
635.367	1	1
635.706	1	-5
636.045	1	8
636.384	1	-2
636.724	1	4
637.063	1	0
637.402	1	-5
637.741	1	10
638.080	1	3
638.419	1	4
638.759	1	-2
639.098	1	-2
639.437	1	2
639.776	1	5
640.115	1	12
640.454	1	3
640.793	1	-13
641.132	1	8
641.472	1	1
641.811	1	-7
642.150	1	-10
642.489	1	1
642.828	1	-7
643.167	1	-3
643.506	1	11
643.845	1	0
644.184	1	-4
644.524	1	2
644.863	1	-4
645.202	1	-2
645.541	1	5
645.880	1	3
646.219	1	6
646.558	1	2
646.897	1	3
647.236	1	-6
647.575	1	-9
647.914	1	-8
648.253	1	-7
648.592	1	-6
648.931	1	-14
649.270	1	-5
649.610	1	-7
649.949	1	7
650.288	1	4
650.627	1	-5
650.966	1	5
651.305	1	-7
651.644	1	-3
651.983	1	-16
652.322	1	8
652.661	1	-10
653.000	1	-2
653.339	1	-2
653.678	1	0
654.017	1	-2
654.356	1	9
654.695	1	2
655.034	1	-4
655.373	1	0
655.712	1	-5
656.051	1	0
656.390	1	5
656.729	1	3
657.068	1	0
657.406	1	-4
657.745	1	2
658.084	1	2
658.423	1	-3
658.762	1	13
659.101	1	7
659.440	1	-5
659.779	1	4
660.118	1	-6
660.457	1	-8
660.796	1	4
661.135	1	8
661.474	1	4
661.813	1	1
662.152	1	3
662.491	1	12
662.829	1	16
663.168	1	-6
663.507	1	-2
663.846	1	-1
664.185	1	-6
664.524	1	-1
664.863	1	6
665.202	1	-3
665.541	1	-4
665.879	1	2
666.218	1	-1
666.557	1	2
666.896	1	0
667.235	1	3
667.574	1	13
667.913	1	12
668.251	1	-1
668.590	1	3
668.929	1	8
669.268	1	-6
669.607	1	-1
669.946	1	6
670.285	1	8
670.623	1	16
670.962	1	-6
671.301	1	0
671.640	1	-3
671.979	1	0
672.317	1	-4
672.656	1	1
672.995	1	3
673.334	1	-10
673.673	1	3
674.011	1	4
674.350	1	-8
674.689	1	4
675.028	1	9
675.367	1	-6
675.705	1	11
676.044	1	8
676.383	1	5
676.722	1	-4
677.060	1	-4
677.399	1	7
677.738	1	3
678.077	1	2
678.416	1	6
678.754	1	8
679.093	1	-5
679.432	1	1
679.771	1	2
680.109	1	-5
680.448	1	6
680.787	1	6
681.125	1	10
681.464	1	5
681.803	1	-6
682.142	1	6
682.480	1	12
682.819	1	3
683.158	1	5
683.496	1	-1
683.835	1	-9
684.174	1	8
684.512	1	12
684.851	1	-7
685.190	1	0
685.529	1	-12
685.867	1	-4
686.206	1	4
686.545	1	-7
686.883	1	-4
687.222	1	-7
687.561	1	1
687.899	1	1
688.238	1	12
688.577	1	0
688.746	1	1