File: Data/GaN_130K_350ms/GaN_sample F_spot6_UVVIS_130 K_200um_350 ms 2x2mm1_123.txt
340.368	1	10
340.710	1	9
341.052	1	-1
341.394	1	4
341.737	1	4
342.079	1	6
342.421	1	12
342.763	1	3
343.105	1	6
343.447	1	8
343.789	1	9
344.131	1	10
344.473	1	6
344.815	1	-10
345.157	1	-13
345.499	1	3
345.841	1	4
346.183	1	13
346.526	1	-3
346.868	1	-3
347.210	1	6
347.552	1	-3
347.894	1	10
348.236	1	1
348.578	1	9
348.920	1	13
349.262	1	11
349.604	1	13
349.946	1	3
350.288	1	-2
350.630	1	13
350.972	1	8
351.314	1	-4
351.656	1	5
351.998	1	1
352.340	1	12
352.682	1	5
353.024	1	3
353.366	1	-2
353.708	1	2
354.050	1	7
354.392	1	12
354.734	1	9
355.076	1	8
355.418	1	12
355.760	1	9
356.102	1	-1
356.444	1	-2
356.785	1	17
357.127	1	11
357.469	1	5
357.811	1	14
358.153	1	8
358.495	1	15
358.837	1	8
359.179	1	14
359.521	1	12
359.863	1	8
360.205	1	13
360.547	1	14
360.889	1	24
361.231	1	11
361.572	1	36
361.914	1	21
362.256	1	19
362.598	1	28
362.940	1	10
363.282	1	33
363.624	1	35
363.966	1	42
364.308	1	40
364.649	1	35
364.991	1	40
365.333	1	45
365.675	1	54
366.017	1	63
366.359	1	63
366.701	1	53
367.042	1	68
367.384	1	75
367.726	1	63
368.068	1	55
368.410	1	57
368.752	1	76
369.093	1	66
369.435	1	52
369.777	1	48
370.119	1	66
370.461	1	50
370.803	1	54
371.144	1	50
371.486	1	43
371.828	1	42
372.170	1	40
372.512	1	43
372.853	1	39
373.195	1	38
373.537	1	43
373.879	1	52
374.220	1	38
374.562	1	28
374.904	1	41
375.246	1	39
375.588	1	20
375.929	1	28
376.271	1	31
376.613	1	24
376.955	1	26
377.296	1	26
377.638	1	26
377.980	1	18
378.321	1	23
378.663	1	25
379.005	1	28
379.347	1	16
379.688	1	18
380.030	1	11
380.372	1	21
380.714	1	21
381.055	1	14
381.397	1	14
381.739	1	19
382.080	1	18
382.422	1	28
382.764	1	20
383.105	1	17
383.447	1	25
383.789	1	19
384.130	1	21
384.472	1	17
384.814	1	16
385.156	1	15
385.497	1	18
385.839	1	11
386.180	1	17
386.522	1	16
386.864	1	12
387.205	1	14
387.547	1	19
387.889	1	10
388.230	1	7
388.572	1	18
388.914	1	15
389.255	1	7
389.597	1	6
389.939	1	14
390.280	1	24
390.622	1	9
390.963	1	22
391.305	1	18
391.647	1	16
391.988	1	23
392.330	1	4
392.671	1	1
393.013	1	22
393.355	1	14
393.696	1	10
394.038	1	16
394.379	1	17
394.721	1	14
395.062	1	2
395.404	1	5
395.746	1	24
396.087	1	16
396.429	1	10
396.770	1	17
397.112	1	13
397.453	1	25
397.795	1	4
398.136	1	8
398.478	1	8
398.819	1	0
399.161	1	15
399.503	1	14
399.844	1	12
400.186	1	7
400.527	1	9
400.869	1	14
401.210	1	-1
401.552	1	13
401.893	1	0
402.235	1	14
402.576	1	4
402.918	1	13
403.259	1	8
403.601	1	15
403.942	1	5
404.284	1	5
404.625	1	19
404.967	1	6
405.308	1	12
405.649	1	8
405.991	1	14
406.332	1	11
406.674	1	22
407.015	1	7
407.357	1	7
407.698	1	2
408.040	1	12
408.381	1	18
408.722	1	12
409.064	1	9
409.405	1	8
409.747	1	3
410.088	1	17
410.430	1	19
410.771	1	-8
411.112	1	15
411.454	1	7
411.795	1	11
412.137	1	-2
412.478	1	8
412.819	1	11
413.161	1	15
413.502	1	15
413.844	1	10
414.185	1	15
414.526	1	16
414.868	1	-5
415.209	1	3
415.550	1	13
415.892	1	13
416.233	1	20
416.575	1	10
416.916	1	6
417.257	1	7
417.599	1	9
417.940	1	13
418.281	1	4
418.623	1	11
418.964	1	7
419.305	1	-1
419.647	1	11
419.988	1	14
420.329	1	16
420.671	1	3
421.012	1	9
421.353	1	14
421.695	1	5
422.036	1	17
422.377	1	19
422.718	1	9
423.060	1	1
423.401	1	7
423.742	1	5
424.084	1	14
424.425	1	10
424.766	1	4
425.107	1	10
425.449	1	4
425.790	1	11
426.131	1	12
426.472	1	4
426.814	1	17
427.155	1	3
427.496	1	6
427.837	1	12
428.179	1	12
428.520	1	14
428.861	1	8
429.202	1	3
429.544	1	16
429.885	1	-1
430.226	1	8
430.567	1	3
430.909	1	11
431.250	1	16
431.591	1	5
431.932	1	-3
432.273	1	7
432.615	1	12
432.956	1	-8
433.297	1	12
433.638	1	13
433.979	1	7
434.320	1	7
434.662	1	5
435.003	1	11
435.344	1	16
435.685	1	-5
436.026	1	10
436.368	1	0
436.709	1	2
437.050	1	13
437.391	1	21
437.732	1	2
438.073	1	24
438.414	1	5
438.756	1	10
439.097	1	3
439.438	1	13
439.779	1	12
440.120	1	2
440.461	1	14
440.802	1	1
441.143	1	-2
441.485	1	1
441.826	1	6
442.167	1	8
442.508	1	2
442.849	1	9
443.190	1	8
443.531	1	1
443.872	1	13
444.213	1	8
444.554	1	10
444.895	1	5
445.237	1	-1
445.578	1	5
445.919	1	4
446.260	1	13
446.601	1	7
446.942	1	1
447.283	1	14
447.624	1	5
447.965	1	-5
448.306	1	3
448.647	1	17
448.988	1	10
449.329	1	2
449.670	1	6
450.011	1	0
450.352	1	15
450.693	1	-1
451.034	1	-1
451.375	1	4
451.716	1	-6
452.057	1	17
452.398	1	-4
452.739	1	1
453.080	1	10
453.421	1	6
453.762	1	6
454.103	1	3
454.444	1	5
454.785	1	14
455.126	1	-2
455.467	1	0
455.808	1	8
456.149	1	0
456.490	1	17
456.831	1	12
457.172	1	5
457.513	1	2
457.854	1	14
458.195	1	-5
458.536	1	2
458.877	1	23
459.218	1	5
459.559	1	6
459.899	1	10
460.240	1	16
460.581	1	2
460.922	1	4
461.263	1	18
461.604	1	-7
461.945	1	13
462.286	1	6
462.627	1	0
462.968	1	9
463.309	1	9
463.649	1	-10
463.990	1	2
464.331	1	14
464.672	1	19
465.013	1	-4
465.354	1	3
465.695	1	9
466.036	1	7
466.376	1	8
466.717	1	14
467.058	1	4
467.399	1	0
467.740	1	17
468.081	1	11
468.422	1	7
468.762	1	0
469.103	1	1
469.444	1	1
469.785	1	7
470.126	1	-2
470.467	1	4
470.807	1	9
471.148	1	6
471.489	1	-3
471.830	1	0
472.171	1	5
472.511	1	0
472.852	1	13
473.193	1	-3
473.534	1	12
473.875	1	15
474.215	1	12
474.556	1	8
474.897	1	0
475.238	1	16
475.578	1	5
475.919	1	4
476.260	1	4
476.601	1	8
476.942	1	8
477.282	1	5
477.623	1	-5
477.964	1	5
478.305	1	16
478.645	1	10
478.986	1	2
479.327	1	6
479.667	1	7
480.008	1	-2
480.349	1	10
480.690	1	6
481.030	1	7
481.371	1	7
481.712	1	11
482.053	1	11
482.393	1	14
482.734	1	8
483.075	1	17
483.415	1	6
483.756	1	3
484.097	1	4
484.437	1	-2
484.778	1	8
485.119	1	10
485.459	1	-12
485.800	1	8
486.141	1	6
486.481	1	2
486.822	1	14
487.163	1	3
487.503	1	-1
487.844	1	8
488.185	1	6
488.525	1	4
488.866	1	12
489.207	1	10
489.547	1	10
489.888	1	22
490.228	1	7
490.569	1	3
490.910	1	1
491.250	1	9
491.591	1	4
491.932	1	19
492.272	1	4
492.613	1	11
492.953	1	6
493.294	1	14
493.635	1	15
493.975	1	17
494.316	1	14
494.656	1	9
494.997	1	5
495.337	1	13
495.678	1	9
496.019	1	7
496.359	1	9
496.700	1	12
497.040	1	17
497.381	1	19
497.721	1	1
498.062	1	2
498.403	1	0
498.743	1	10
499.084	1	25
499.424	1	4
499.765	1	17
500.105	1	14
500.446	1	16
500.786	1	15
501.127	1	13
501.467	1	19
501.808	1	17
502.148	1	22
502.489	1	13
502.829	1	11
503.170	1	18
503.510	1	11
503.851	1	15
504.191	1	14
504.532	1	22
504.872	1	16
505.213	1	13
505.553	1	14
505.894	1	20
506.234	1	12
506.575	1	8
506.915	1	17
507.256	1	24
507.596	1	18
507.936	1	8
508.277	1	10
508.617	1	13
508.958	1	14
509.298	1	15
509.639	1	19
509.979	1	14
510.319	1	32
510.660	1	7
511.000	1	30
511.341	1	15
511.681	1	13
512.022	1	16
512.362	1	13
512.702	1	20
513.043	1	21
513.383	1	30
513.724	1	10
514.064	1	15
514.404	1	31
514.745	1	15
515.085	1	31
515.425	1	22
515.766	1	27
516.106	1	20
516.447	1	21
516.787	1	19
517.127	1	27
517.468	1	20
517.808	1	20
518.148	1	26
518.489	1	17
518.829	1	34
519.169	1	17
519.510	1	27
519.850	1	29
520.190	1	22
520.531	1	35
520.871	1	20
521.211	1	28
521.552	1	27
521.892	1	21
522.232	1	7
522.573	1	16
522.913	1	21
523.253	1	30
523.593	1	31
523.934	1	18
524.274	1	21
524.614	1	29
524.955	1	31
525.295	1	29
525.635	1	17
525.975	1	31
526.316	1	11
526.656	1	22
526.996	1	27
527.337	1	33
527.677	1	20
528.017	1	23
528.357	1	32
528.698	1	16
529.038	1	12
529.378	1	19
529.718	1	31
530.058	1	22
530.399	1	25
530.739	1	21
531.079	1	29
531.419	1	22
531.760	1	9
532.100	1	29
532.440	1	32
532.780	1	22
533.120	1	26
533.461	1	32
533.801	1	39
534.141	1	25
534.481	1	22
534.821	1	32
535.162	1	33
535.502	1	19
535.842	1	19
536.182	1	36
536.522	1	17
536.862	1	13
537.203	1	16
537.543	1	25
537.883	1	21
538.223	1	29
538.563	1	32
538.903	1	34
539.243	1	9
539.584	1	28
539.924	1	24
540.264	1	12
540.604	1	24
540.944	1	20
541.284	1	33
541.624	1	29
541.964	1	21
542.305	1	16
542.645	1	15
542.985	1	24
543.325	1	22
543.665	1	20
544.005	1	28
544.345	1	17
544.685	1	22
545.025	1	12
545.365	1	22
545.705	1	25
546.045	1	15
546.386	1	18
546.726	1	8
547.066	1	33
547.406	1	3
547.746	1	15
548.086	1	18
548.426	1	28
548.766	1	19
549.106	1	8
549.446	1	10
549.786	1	29
550.126	1	25
550.466	1	22
550.806	1	37
551.146	1	20
551.486	1	19
551.826	1	20
552.166	1	19
552.506	1	21
552.846	1	8
553.186	1	15
553.526	1	20
553.866	1	15
554.206	1	15
554.546	1	30
554.886	1	23
555.226	1	12
555.566	1	28
555.906	1	17
556.246	1	14
556.586	1	18
556.926	1	18
557.266	1	18
557.606	1	12
557.946	1	24
558.286	1	25
558.626	1	6
558.966	1	4
559.306	1	17
559.646	1	21
559.986	1	12
560.325	1	13
560.665	1	17
561.005	1	14
561.345	1	24
561.685	1	12
562.025	1	16
562.365	1	18
562.705	1	13
563.045	1	2
563.385	1	15
563.725	1	6
564.064	1	26
564.404	1	16
564.744	1	14
565.084	1	11
565.424	1	6
565.764	1	20
566.104	1	16
566.444	1	26
566.783	1	14
567.123	1	15
567.463	1	15
567.803	1	11
568.143	1	24
568.483	1	13
568.823	1	4
569.162	1	17
569.502	1	7
569.842	1	7
570.182	1	10
570.522	1	0
570.862	1	17
571.201	1	17
571.541	1	8
571.881	1	9
572.221	1	17
572.561	1	8
572.900	1	2
573.240	1	12
573.580	1	5
573.920	1	17
574.260	1	12
574.599	1	18
574.939	1	7
575.279	1	11
575.619	1	9
575.959	1	11
576.298	1	19
576.638	1	-1
576.978	1	5
577.318	1	9
577.657	1	21
577.997	1	13
578.337	1	5
578.677	1	20
579.016	1	5
579.356	1	14
579.696	1	7
580.036	1	5
580.375	1	8
580.715	1	19
581.055	1	7
581.394	1	14
581.734	1	12
582.074	1	4
582.414	1	5
582.753	1	5
583.093	1	11
583.433	1	11
583.772	1	9
584.112	1	15
584.452	1	16
584.791	1	11
585.131	1	22
585.471	1	6
585.811	1	6
586.150	1	12
586.490	1	5
586.830	1	0
587.169	1	10
587.509	1	9
587.849	1	8
588.188	1	9
588.528	1	18
588.867	1	5
589.207	1	9
589.547	1	3
589.886	1	7
590.226	1	16
590.566	1	7
590.905	1	13
591.245	1	6
591.585	1	-1
591.924	1	9
592.264	1	8
592.603	1	15
592.943	1	9
593.283	1	1
593.622	1	10
593.962	1	15
594.301	1	4
594.641	1	6
594.981	1	9
595.320	1	11
595.660	1	4
595.999	1	11
596.339	1	11
596.678	1	5
597.018	1	9
597.358	1	2
597.697	1	10
598.037	1	9
598.376	1	1
598.716	1	13
599.055	1	-4
599.395	1	-8
599.734	1	10
600.074	1	10
600.413	1	22
600.753	1	-1
601.092	1	-1
601.432	1	-2
601.771	1	18
602.111	1	8
602.451	1	6
602.790	1	8
603.130	1	1
603.469	1	10
603.809	1	3
604.148	1	5
604.487	1	14
604.827	1	7
605.166	1	3
605.506	1	2
605.845	1	6
606.185	1	8
606.524	1	8
606.864	1	20
607.203	1	3
607.543	1	4
607.882	1	7
608.222	1	6
608.561	1	-4
608.901	1	11
609.240	1	-2
609.579	1	16
609.919	1	15
610.258	1	6
610.598	1	0
610.937	1	14
611.277	1	13
611.616	1	-2
611.955	1	2
612.295	1	3
612.634	1	5
612.974	1	10
613.313	1	3
613.652	1	-7
613.992	1	4
614.331	1	7
614.671	1	13
615.010	1	2
615.349	1	3
615.689	1	7
616.028	1	10
616.368	1	3
616.707	1	22
617.046	1	12
617.386	1	-5
617.725	1	12
618.064	1	8
618.404	1	4
618.743	1	12
619.082	1	4
619.422	1	4
619.761	1	11
620.100	1	4
620.440	1	-1
620.779	1	10
621.118	1	8
621.458	1	12
621.797	1	1
622.136	1	7
622.476	1	1
622.815	1	2
623.154	1	0
623.494	1	4
623.833	1	10
624.172	1	0
624.511	1	7
624.851	1	3
625.190	1	-6
625.529	1	-2
625.869	1	0
626.208	1	0
626.547	1	4
626.886	1	5
627.226	1	9
627.565	1	1
627.904	1	12
628.243	1	11
628.583	1	-11
628.922	1	-9
629.261	1	-4
629.600	1	8
629.940	1	12
630.279	1	12
630.618	1	-2
630.957	1	8
631.297	1	2
631.636	1	4
631.975	1	17
632.314	1	-5
632.653	1	10
632.993	1	8
633.332	1	-3
633.671	1	-3
634.010	1	2
634.349	1	3
634.689	1	11
635.028	1	13
635.367	1	4
635.706	1	1
636.045	1	18
636.384	1	5
636.724	1	10
637.063	1	11
637.402	1	-1
637.741	1	11
638.080	1	15
638.419	1	10
638.759	1	-1
639.098	1	-1
639.437	1	8
639.776	1	2
640.115	1	19
640.454	1	11
640.793	1	-8
641.132	1	18
641.472	1	7
641.811	1	5
642.150	1	-10
642.489	1	-1
642.828	1	9
643.167	1	6
643.506	1	5
643.845	1	1
644.184	1	-3
644.524	1	5
644.863	1	-1
645.202	1	7
645.541	1	6
645.880	1	10
646.219	1	5
646.558	1	0
646.897	1	14
647.236	1	-1
647.575	1	-5
647.914	1	2
648.253	1	5
648.592	1	10
648.931	1	-10
649.270	1	5
649.610	1	0
649.949	1	-7
650.288	1	2
650.627	1	4
650.966	1	-2
651.305	1	0
651.644	1	4
651.983	1	3
652.322	1	-3
652.661	1	2
653.000	1	7
653.339	1	10
653.678	1	6
654.017	1	-1
654.356	1	2
654.695	1	4
655.034	1	4
655.373	1	-1
655.712	1	-2
656.051	1	-2
656.390	1	-1
656.729	1	10
657.068	1	2
657.406	1	6
657.745	1	2
658.084	1	10
658.423	1	3
658.762	1	18
659.101	1	17
659.440	1	1
659.779	1	2
660.118	1	6
660.457	1	0
660.796	1	7
661.135	1	17
661.474	1	2
661.813	1	2
662.152	1	-8
662.491	1	21
662.829	1	2
663.168	1	2
663.507	1	3
663.846	1	9
664.185	1	1
664.524	1	3
664.863	1	1
665.202	1	1
665.541	1	-1
665.879	1	11
666.218	1	-2
666.557	1	2
666.896	1	9
667.235	1	5
667.574	1	15
667.913	1	1
668.251	1	10
668.590	1	5
668.929	1	6
669.268	1	-3
669.607	1	2
669.946	1	7
670.285	1	15
670.623	1	12
670.962	1	2
671.301	1	0
671.640	1	-4
671.979	1	1
672.317	1	9
672.656	1	2
672.995	1	-9
673.334	1	-6
673.673	1	8
674.011	1	2
674.350	1	8
674.689	1	5
675.028	1	6
675.367	1	1
675.705	1	9
676.044	1	12
676.383	1	2
676.722	1	4
677.060	1	3
677.399	1	7
677.738	1	0
678.077	1	-1
678.416	1	12
678.754	1	8
679.093	1	2
679.432	1	0
679.771	1	8
680.109	1	7
680.448	1	9
680.787	1	11
681.125	1	9
681.464	1	8
681.803	1	-1
682.142	1	0
682.480	1	16
682.819	1	-3
683.158	1	2
683.496	1	-3
683.835	1	1
684.174	1	8
684.512	1	11
684.851	1	2
685.190	1	-10
685.529	1	2
685.867	1	1
686.206	1	13
686.545	1	2
686.883	1	-4
687.222	1	6
687.561	1	5
687.899	1	-3
688.238	1	15
688.577	1	1
688.746	1	6