File: Data/GaN_130K_350ms/GaN_sample F_spot6_UVVIS_130 K_200um_350 ms 2x2mm1_279.txt
340.368	1	-1
340.710	1	6
341.052	1	-1
341.394	1	-4
341.737	1	3
342.079	1	-1
342.421	1	3
342.763	1	-2
343.105	1	16
343.447	1	4
343.789	1	3
344.131	1	4
344.473	1	-8
344.815	1	-5
345.157	1	-18
345.499	1	-9
345.841	1	-6
346.183	1	9
346.526	1	6
346.868	1	4
347.210	1	3
347.552	1	2
347.894	1	-3
348.236	1	-7
348.578	1	3
348.920	1	2
349.262	1	14
349.604	1	0
349.946	1	1
350.288	1	-4
350.630	1	11
350.972	1	3
351.314	1	0
351.656	1	12
351.998	1	5
352.340	1	11
352.682	1	0
353.024	1	-3
353.366	1	5
353.708	1	-9
354.050	1	0
354.392	1	6
354.734	1	4
355.076	1	1
355.418	1	12
355.760	1	1
356.102	1	0
356.444	1	0
356.785	1	1
357.127	1	7
357.469	1	2
357.811	1	-2
358.153	1	-8
358.495	1	12
358.837	1	6
359.179	1	-3
359.521	1	-1
359.863	1	0
360.205	1	3
360.547	1	-4
360.889	1	7
361.231	1	-11
361.572	1	9
361.914	1	2
362.256	1	6
362.598	1	3
362.940	1	-4
363.282	1	14
363.624	1	5
363.966	1	14
364.308	1	7
364.649	1	17
364.991	1	1
365.333	1	6
365.675	1	-1
366.017	1	10
366.359	1	16
366.701	1	18
367.042	1	17
367.384	1	22
367.726	1	1
368.068	1	4
368.410	1	8
368.752	1	28
369.093	1	8
369.435	1	-1
369.777	1	1
370.119	1	8
370.461	1	6
370.803	1	7
371.144	1	5
371.486	1	12
371.828	1	7
372.170	1	3
372.512	1	5
372.853	1	2
373.195	1	6
373.537	1	10
373.879	1	11
374.220	1	-7
374.562	1	-4
374.904	1	6
375.246	1	0
375.588	1	1
375.929	1	-1
376.271	1	2
376.613	1	-1
376.955	1	3
377.296	1	3
377.638	1	-14
377.980	1	-10
378.321	1	8
378.663	1	3
379.005	1	13
379.347	1	-2
379.688	1	1
380.030	1	1
380.372	1	15
380.714	1	21
381.055	1	6
381.397	1	11
381.739	1	-1
382.080	1	-3
382.422	1	10
382.764	1	7
383.105	1	1
383.447	1	3
383.789	1	11
384.130	1	9
384.472	1	16
384.814	1	2
385.156	1	1
385.497	1	-3
385.839	1	2
386.180	1	13
386.522	1	6
386.864	1	6
387.205	1	0
387.547	1	10
387.889	1	0
388.230	1	-7
388.572	1	0
388.914	1	-1
389.255	1	-4
389.597	1	-6
389.939	1	4
390.280	1	11
390.622	1	6
390.963	1	7
391.305	1	-5
391.647	1	-6
391.988	1	11
392.330	1	-2
392.671	1	-10
393.013	1	4
393.355	1	8
393.696	1	1
394.038	1	8
394.379	1	8
394.721	1	2
395.062	1	2
395.404	1	1
395.746	1	7
396.087	1	11
396.429	1	6
396.770	1	12
397.112	1	8
397.453	1	7
397.795	1	5
398.136	1	7
398.478	1	1
398.819	1	-8
399.161	1	4
399.503	1	10
399.844	1	-3
400.186	1	-4
400.527	1	10
400.869	1	16
401.210	1	-8
401.552	1	6
401.893	1	-11
402.235	1	5
402.576	1	-4
402.918	1	7
403.259	1	-8
403.601	1	-1
403.942	1	4
404.284	1	-3
404.625	1	5
404.967	1	-2
405.308	1	-11
405.649	1	4
405.991	1	6
406.332	1	12
406.674	1	14
407.015	1	7
407.357	1	12
407.698	1	2
408.040	1	-2
408.381	1	13
408.722	1	9
409.064	1	2
409.405	1	14
409.747	1	6
410.088	1	16
410.430	1	11
410.771	1	-15
411.112	1	13
411.454	1	5
411.795	1	6
412.137	1	1
412.478	1	2
412.819	1	3
413.161	1	9
413.502	1	10
413.844	1	5
414.185	1	4
414.526	1	4
414.868	1	3
415.209	1	5
415.550	1	8
415.892	1	8
416.233	1	-2
416.575	1	14
416.916	1	9
417.257	1	-6
417.599	1	5
417.940	1	4
418.281	1	3
418.623	1	3
418.964	1	5
419.305	1	2
419.647	1	14
419.988	1	16
420.329	1	10
420.671	1	-1
421.012	1	2
421.353	1	0
421.695	1	-2
422.036	1	7
422.377	1	0
422.718	1	0
423.060	1	5
423.401	1	7
423.742	1	1
424.084	1	12
424.425	1	4
424.766	1	3
425.107	1	-2
425.449	1	1
425.790	1	17
426.131	1	8
426.472	1	4
426.814	1	5
427.155	1	4
427.496	1	8
427.837	1	4
428.179	1	2
428.520	1	10
428.861	1	0
429.202	1	9
429.544	1	10
429.885	1	1
430.226	1	8
430.567	1	12
430.909	1	7
431.250	1	5
431.591	1	3
431.932	1	0
432.273	1	-1
432.615	1	9
432.956	1	-5
433.297	1	6
433.638	1	3
433.979	1	10
434.320	1	5
434.662	1	10
435.003	1	21
435.344	1	7
435.685	1	-8
436.026	1	2
436.368	1	9
436.709	1	1
437.050	1	11
437.391	1	13
437.732	1	-1
438.073	1	14
438.414	1	-1
438.756	1	2
439.097	1	-2
439.438	1	-2
439.779	1	10
440.120	1	-2
440.461	1	13
440.802	1	-7
441.143	1	-6
441.485	1	4
441.826	1	3
442.167	1	2
442.508	1	2
442.849	1	1
443.190	1	-1
443.531	1	-2
443.872	1	7
444.213	1	1
444.554	1	8
444.895	1	6
445.237	1	2
445.578	1	1
445.919	1	1
446.260	1	7
446.601	1	9
446.942	1	-2
447.283	1	8
447.624	1	2
447.965	1	0
448.306	1	0
448.647	1	13
448.988	1	9
449.329	1	-10
449.670	1	3
450.011	1	-3
450.352	1	3
450.693	1	-1
451.034	1	-7
451.375	1	3
451.716	1	-1
452.057	1	15
452.398	1	1
452.739	1	-4
453.080	1	-2
453.421	1	9
453.762	1	7
454.103	1	-1
454.444	1	9
454.785	1	6
455.126	1	-3
455.467	1	2
455.808	1	4
456.149	1	-6
456.490	1	0
456.831	1	4
457.172	1	2
457.513	1	-6
457.854	1	5
458.195	1	-5
458.536	1	6
458.877	1	10
459.218	1	8
459.559	1	7
459.899	1	7
460.240	1	10
460.581	1	1
460.922	1	4
461.263	1	0
461.604	1	-11
461.945	1	7
462.286	1	10
462.627	1	-5
462.968	1	3
463.309	1	6
463.649	1	-4
463.990	1	0
464.331	1	2
464.672	1	0
465.013	1	0
465.354	1	7
465.695	1	8
466.036	1	1
466.376	1	0
466.717	1	8
467.058	1	5
467.399	1	4
467.740	1	12
468.081	1	11
468.422	1	7
468.762	1	-9
469.103	1	1
469.444	1	3
469.785	1	10
470.126	1	-4
470.467	1	1
470.807	1	6
471.148	1	6
471.489	1	-3
471.830	1	9
472.171	1	5
472.511	1	6
472.852	1	9
473.193	1	1
473.534	1	0
473.875	1	12
474.215	1	6
474.556	1	4
474.897	1	-5
475.238	1	11
475.578	1	-1
475.919	1	0
476.260	1	8
476.601	1	-6
476.942	1	5
477.282	1	1
477.623	1	-6
477.964	1	-1
478.305	1	7
478.645	1	-1
478.986	1	2
479.327	1	-3
479.667	1	7
480.008	1	-2
480.349	1	1
480.690	1	10
481.030	1	1
481.371	1	5
481.712	1	2
482.053	1	1
482.393	1	3
482.734	1	1
483.075	1	17
483.415	1	-1
483.756	1	1
484.097	1	0
484.437	1	-6
484.778	1	7
485.119	1	1
485.459	1	-16
485.800	1	7
486.141	1	4
486.481	1	3
486.822	1	5
487.163	1	-1
487.503	1	-7
487.844	1	3
488.185	1	2
488.525	1	14
488.866	1	2
489.207	1	2
489.547	1	7
489.888	1	12
490.228	1	3
490.569	1	5
490.910	1	-7
491.250	1	4
491.591	1	-10
491.932	1	1
492.272	1	4
492.613	1	-5
492.953	1	-3
493.294	1	1
493.635	1	4
493.975	1	11
494.316	1	11
494.656	1	-1
494.997	1	-8
495.337	1	-3
495.678	1	6
496.019	1	-5
496.359	1	8
496.700	1	7
497.040	1	11
497.381	1	2
497.721	1	1
498.062	1	-9
498.403	1	-8
498.743	1	9
499.084	1	11
499.424	1	-6
499.765	1	-2
500.105	1	8
500.446	1	3
500.786	1	7
501.127	1	0
501.467	1	2
501.808	1	3
502.148	1	1
502.489	1	6
502.829	1	-1
503.170	1	-3
503.510	1	7
503.851	1	-2
504.191	1	0
504.532	1	5
504.872	1	8
505.213	1	1
505.553	1	-7
505.894	1	3
506.234	1	-1
506.575	1	-1
506.915	1	-6
507.256	1	5
507.596	1	3
507.936	1	0
508.277	1	5
508.617	1	-2
508.958	1	7
509.298	1	5
509.639	1	13
509.979	1	-3
510.319	1	12
510.660	1	-5
511.000	1	7
511.341	1	-4
511.681	1	2
512.022	1	2
512.362	1	-3
512.702	1	5
513.043	1	10
513.383	1	5
513.724	1	-9
514.064	1	-9
514.404	1	7
514.745	1	0
515.085	1	8
515.425	1	-3
515.766	1	-1
516.106	1	-6
516.447	1	2
516.787	1	4
517.127	1	-2
517.468	1	-4
517.808	1	2
518.148	1	7
518.489	1	6
518.829	1	4
519.169	1	8
519.510	1	-6
519.850	1	24
520.190	1	18
520.531	1	9
520.871	1	-10
521.211	1	12
521.552	1	10
521.892	1	13
522.232	1	-7
522.573	1	-2
522.913	1	8
523.253	1	6
523.593	1	13
523.934	1	3
524.274	1	-8
524.614	1	1
524.955	1	7
525.295	1	3
525.635	1	5
525.975	1	13
526.316	1	2
526.656	1	9
526.996	1	4
527.337	1	16
527.677	1	6
528.017	1	9
528.357	1	5
528.698	1	1
529.038	1	-1
529.378	1	0
529.718	1	14
530.058	1	3
530.399	1	13
530.739	1	8
531.079	1	-2
531.419	1	2
531.760	1	-4
532.100	1	14
532.440	1	5
532.780	1	3
533.120	1	10
533.461	1	0
533.801	1	18
534.141	1	13
534.481	1	-1
534.821	1	6
535.162	1	5
535.502	1	3
535.842	1	15
536.182	1	6
536.522	1	0
536.862	1	4
537.203	1	1
537.543	1	13
537.883	1	-4
538.223	1	1
538.563	1	13
538.903	1	7
539.243	1	0
539.584	1	5
539.924	1	6
540.264	1	2
540.604	1	2
540.944	1	0
541.284	1	4
541.624	1	13
541.964	1	2
542.305	1	4
542.645	1	-7
542.985	1	4
543.325	1	0
543.665	1	4
544.005	1	3
544.345	1	-5
544.685	1	16
545.025	1	8
545.365	1	10
545.705	1	0
546.045	1	6
546.386	1	1
546.726	1	-5
547.066	1	2
547.406	1	-3
547.746	1	4
548.086	1	-7
548.426	1	7
548.766	1	8
549.106	1	-7
549.446	1	5
549.786	1	1
550.126	1	11
550.466	1	0
550.806	1	13
551.146	1	8
551.486	1	10
551.826	1	7
552.166	1	9
552.506	1	10
552.846	1	7
553.186	1	-1
553.526	1	9
553.866	1	-11
554.206	1	1
554.546	1	2
554.886	1	-2
555.226	1	8
555.566	1	2
555.906	1	2
556.246	1	10
556.586	1	0
556.926	1	4
557.266	1	-6
557.606	1	6
557.946	1	6
558.286	1	3
558.626	1	-11
558.966	1	-3
559.306	1	-4
559.646	1	-3
559.986	1	2
560.325	1	-1
560.665	1	3
561.005	1	-1
561.345	1	5
561.685	1	1
562.025	1	1
562.365	1	15
562.705	1	-2
563.045	1	-4
563.385	1	-5
563.725	1	3
564.064	1	14
564.404	1	-1
564.744	1	-1
565.084	1	3
565.424	1	-1
565.764	1	5
566.104	1	2
566.444	1	7
566.783	1	12
567.123	1	5
567.463	1	0
567.803	1	8
568.143	1	13
568.483	1	6
568.823	1	-2
569.162	1	3
569.502	1	-4
569.842	1	3
570.182	1	5
570.522	1	-9
570.862	1	22
571.201	1	7
571.541	1	-2
571.881	1	7
572.221	1	5
572.561	1	10
572.900	1	6
573.240	1	-5
573.580	1	0
573.920	1	5
574.260	1	0
574.599	1	7
574.939	1	0
575.279	1	-8
575.619	1	10
575.959	1	3
576.298	1	1
576.638	1	0
576.978	1	-13
577.318	1	5
577.657	1	13
577.997	1	11
578.337	1	-1
578.677	1	0
579.016	1	-3
579.356	1	2
579.696	1	2
580.036	1	5
580.375	1	-3
580.715	1	-2
581.055	1	1
581.394	1	3
581.734	1	-3
582.074	1	-8
582.414	1	1
582.753	1	-1
583.093	1	6
583.433	1	7
583.772	1	4
584.112	1	11
584.452	1	12
584.791	1	1
585.131	1	5
585.471	1	1
585.811	1	2
586.150	1	9
586.490	1	3
586.830	1	-11
587.169	1	0
587.509	1	3
587.849	1	6
588.188	1	9
588.528	1	15
588.867	1	5
589.207	1	-1
589.547	1	7
589.886	1	1
590.226	1	16
590.566	1	-2
590.905	1	8
591.245	1	-5
591.585	1	12
591.924	1	0
592.264	1	1
592.603	1	-4
592.943	1	-3
593.283	1	-10
593.622	1	0
593.962	1	7
594.301	1	-12
594.641	1	5
594.981	1	-7
595.320	1	13
595.660	1	-2
595.999	1	8
596.339	1	9
596.678	1	-7
597.018	1	-2
597.358	1	-6
597.697	1	-8
598.037	1	-1
598.376	1	-10
598.716	1	10
599.055	1	-2
599.395	1	-3
599.734	1	-3
600.074	1	3
600.413	1	1
600.753	1	0
601.092	1	5
601.432	1	-1
601.771	1	11
602.111	1	6
602.451	1	10
602.790	1	2
603.130	1	3
603.469	1	5
603.809	1	3
604.148	1	12
604.487	1	10
604.827	1	9
605.166	1	5
605.506	1	5
605.845	1	-3
606.185	1	3
606.524	1	3
606.864	1	11
607.203	1	2
607.543	1	1
607.882	1	12
608.222	1	-7
608.561	1	0
608.901	1	6
609.240	1	-2
609.579	1	9
609.919	1	13
610.258	1	5
610.598	1	-4
610.937	1	12
611.277	1	1
611.616	1	-5
611.955	1	-5
612.295	1	-1
612.634	1	-1
612.974	1	-1
613.313	1	-4
613.652	1	-3
613.992	1	3
614.331	1	3
614.671	1	5
615.010	1	2
615.349	1	7
615.689	1	6
616.028	1	11
616.368	1	2
616.707	1	14
617.046	1	12
617.386	1	3
617.725	1	4
618.064	1	5
618.404	1	4
618.743	1	8
619.082	1	10
619.422	1	1
619.761	1	7
620.100	1	-4
620.440	1	1
620.779	1	3
621.118	1	9
621.458	1	6
621.797	1	-6
622.136	1	2
622.476	1	8
622.815	1	-2
623.154	1	5
623.494	1	7
623.833	1	7
624.172	1	0
624.511	1	6
624.851	1	-3
625.190	1	-2
625.529	1	-1
625.869	1	1
626.208	1	1
626.547	1	3
626.886	1	2
627.226	1	0
627.565	1	7
627.904	1	7
628.243	1	9
628.583	1	-2
628.922	1	-4
629.261	1	-3
629.600	1	4
629.940	1	7
630.279	1	13
630.618	1	-3
630.957	1	-1
631.297	1	-2
631.636	1	3
631.975	1	8
632.314	1	1
632.653	1	0
632.993	1	0
633.332	1	-1
633.671	1	-1
634.010	1	-11
634.349	1	5
634.689	1	9
635.028	1	11
635.367	1	7
635.706	1	2
636.045	1	17
636.384	1	3
636.724	1	12
637.063	1	4
637.402	1	-3
637.741	1	10
638.080	1	17
638.419	1	0
638.759	1	3
639.098	1	-1
639.437	1	14
639.776	1	4
640.115	1	5
640.454	1	4
640.793	1	-10
641.132	1	8
641.472	1	-4
641.811	1	-8
642.150	1	-10
642.489	1	1
642.828	1	2
643.167	1	0
643.506	1	8
643.845	1	-7
644.184	1	-4
644.524	1	0
644.863	1	-2
645.202	1	7
645.541	1	3
645.880	1	7
646.219	1	2
646.558	1	-9
646.897	1	4
647.236	1	2
647.575	1	-12
647.914	1	-2
648.253	1	-1
648.592	1	3
648.931	1	-8
649.270	1	-2
649.610	1	7
649.949	1	0
650.288	1	7
650.627	1	0
650.966	1	0
651.305	1	-2
651.644	1	2
651.983	1	-6
652.322	1	-6
652.661	1	4
653.000	1	-2
653.339	1	3
653.678	1	-7
654.017	1	3
654.356	1	-3
654.695	1	1
655.034	1	1
655.373	1	-5
655.712	1	4
656.051	1	-6
656.390	1	-3
656.729	1	2
657.068	1	-4
657.406	1	2
657.745	1	3
658.084	1	-1
658.423	1	10
658.762	1	13
659.101	1	12
659.440	1	-4
659.779	1	7
660.118	1	-6
660.457	1	0
660.796	1	5
661.135	1	11
661.474	1	3
661.813	1	4
662.152	1	3
662.491	1	13
662.829	1	10
663.168	1	-8
663.507	1	3
663.846	1	-4
664.185	1	-2
664.524	1	-4
664.863	1	1
665.202	1	-4
665.541	1	-2
665.879	1	2
666.218	1	-4
666.557	1	3
666.896	1	2
667.235	1	11
667.574	1	5
667.913	1	-1
668.251	1	2
668.590	1	1
668.929	1	3
669.268	1	3
669.607	1	0
669.946	1	6
670.285	1	4
670.623	1	12
670.962	1	0
671.301	1	-1
671.640	1	-6
671.979	1	-5
672.317	1	-3
672.656	1	5
672.995	1	2
673.334	1	-4
673.673	1	9
674.011	1	5
674.350	1	5
674.689	1	3
675.028	1	8
675.367	1	2
675.705	1	13
676.044	1	4
676.383	1	7
676.722	1	-2
677.060	1	2
677.399	1	-1
677.738	1	-9
678.077	1	3
678.416	1	5
678.754	1	4
679.093	1	10
679.432	1	-2
679.771	1	14
680.109	1	4
680.448	1	6
680.787	1	8
681.125	1	6
681.464	1	-1
681.803	1	-1
682.142	1	-5
682.480	1	8
682.819	1	2
683.158	1	0
683.496	1	-6
683.835	1	-12
684.174	1	10
684.512	1	1
684.851	1	2
685.190	1	0
685.529	1	-9
685.867	1	-2
686.206	1	7
686.545	1	-9
686.883	1	-4
687.222	1	4
687.561	1	3
687.899	1	1
688.238	1	9
688.577	1	2
688.746	1	6