File: Data/GaN_130K_350ms/GaN_sample F_spot6_UVVIS_130 K_200um_350 ms 2x2mm1_212.txt
340.368	1	4
340.710	1	7
341.052	1	1
341.394	1	1
341.737	1	-5
342.079	1	-1
342.421	1	1
342.763	1	8
343.105	1	9
343.447	1	-2
343.789	1	0
344.131	1	1
344.473	1	2
344.815	1	-9
345.157	1	-7
345.499	1	0
345.841	1	-3
346.183	1	15
346.526	1	2
346.868	1	3
347.210	1	1
347.552	1	-1
347.894	1	5
348.236	1	6
348.578	1	6
348.920	1	7
349.262	1	4
349.604	1	5
349.946	1	0
350.288	1	-8
350.630	1	9
350.972	1	6
351.314	1	-4
351.656	1	9
351.998	1	4
352.340	1	15
352.682	1	3
353.024	1	1
353.366	1	5
353.708	1	-10
354.050	1	9
354.392	1	9
354.734	1	-4
355.076	1	2
355.418	1	3
355.760	1	8
356.102	1	7
356.444	1	-8
356.785	1	2
357.127	1	7
357.469	1	-1
357.811	1	11
358.153	1	-7
358.495	1	1
358.837	1	5
359.179	1	1
359.521	1	0
359.863	1	15
360.205	1	4
360.547	1	4
360.889	1	4
361.231	1	-4
361.572	1	12
361.914	1	10
362.256	1	7
362.598	1	9
362.940	1	0
363.282	1	8
363.624	1	11
363.966	1	26
364.308	1	20
364.649	1	18
364.991	1	12
365.333	1	18
365.675	1	15
366.017	1	22
366.359	1	11
366.701	1	15
367.042	1	24
367.384	1	24
367.726	1	17
368.068	1	10
368.410	1	15
368.752	1	23
369.093	1	15
369.435	1	17
369.777	1	10
370.119	1	19
370.461	1	17
370.803	1	12
371.144	1	11
371.486	1	13
371.828	1	12
372.170	1	8
372.512	1	19
372.853	1	7
373.195	1	9
373.537	1	14
373.879	1	14
374.220	1	2
374.562	1	10
374.904	1	19
375.246	1	18
375.588	1	4
375.929	1	-4
376.271	1	4
376.613	1	-3
376.955	1	7
377.296	1	12
377.638	1	-7
377.980	1	4
378.321	1	3
378.663	1	12
379.005	1	20
379.347	1	6
379.688	1	-3
380.030	1	4
380.372	1	6
380.714	1	18
381.055	1	8
381.397	1	12
381.739	1	15
382.080	1	0
382.422	1	21
382.764	1	5
383.105	1	7
383.447	1	8
383.789	1	12
384.130	1	14
384.472	1	18
384.814	1	-3
385.156	1	-3
385.497	1	-1
385.839	1	5
386.180	1	14
386.522	1	2
386.864	1	2
387.205	1	2
387.547	1	0
387.889	1	0
388.230	1	-1
388.572	1	15
388.914	1	7
389.255	1	10
389.597	1	-4
389.939	1	8
390.280	1	9
390.622	1	5
390.963	1	8
391.305	1	5
391.647	1	11
391.988	1	9
392.330	1	3
392.671	1	3
393.013	1	1
393.355	1	-1
393.696	1	-2
394.038	1	9
394.379	1	2
394.721	1	9
395.062	1	-5
395.404	1	0
395.746	1	15
396.087	1	10
396.429	1	6
396.770	1	6
397.112	1	11
397.453	1	13
397.795	1	4
398.136	1	6
398.478	1	5
398.819	1	-6
399.161	1	8
399.503	1	17
399.844	1	0
400.186	1	4
400.527	1	14
400.869	1	3
401.210	1	6
401.552	1	13
401.893	1	-12
402.235	1	-3
402.576	1	0
402.918	1	10
403.259	1	1
403.601	1	11
403.942	1	2
404.284	1	3
404.625	1	6
404.967	1	4
405.308	1	7
405.649	1	11
405.991	1	11
406.332	1	10
406.674	1	14
407.015	1	12
407.357	1	1
407.698	1	5
408.040	1	8
408.381	1	11
408.722	1	13
409.064	1	1
409.405	1	3
409.747	1	-2
410.088	1	10
410.430	1	7
410.771	1	-4
411.112	1	15
411.454	1	-3
411.795	1	9
412.137	1	-10
412.478	1	4
412.819	1	9
413.161	1	11
413.502	1	16
413.844	1	1
414.185	1	5
414.526	1	7
414.868	1	4
415.209	1	9
415.550	1	2
415.892	1	6
416.233	1	6
416.575	1	9
416.916	1	1
417.257	1	13
417.599	1	13
417.940	1	6
418.281	1	1
418.623	1	10
418.964	1	-2
419.305	1	7
419.647	1	12
419.988	1	13
420.329	1	5
420.671	1	4
421.012	1	4
421.353	1	-1
421.695	1	0
422.036	1	11
422.377	1	9
422.718	1	9
423.060	1	11
423.401	1	9
423.742	1	6
424.084	1	5
424.425	1	4
424.766	1	8
425.107	1	5
425.449	1	18
425.790	1	8
426.131	1	13
426.472	1	1
426.814	1	10
427.155	1	6
427.496	1	17
427.837	1	10
428.179	1	6
428.520	1	10
428.861	1	2
429.202	1	5
429.544	1	13
429.885	1	7
430.226	1	6
430.567	1	-2
430.909	1	4
431.250	1	18
431.591	1	8
431.932	1	6
432.273	1	5
432.615	1	13
432.956	1	-3
433.297	1	5
433.638	1	7
433.979	1	6
434.320	1	6
434.662	1	2
435.003	1	14
435.344	1	11
435.685	1	3
436.026	1	15
436.368	1	5
436.709	1	6
437.050	1	14
437.391	1	19
437.732	1	9
438.073	1	13
438.414	1	-7
438.756	1	5
439.097	1	2
439.438	1	4
439.779	1	5
440.120	1	6
440.461	1	15
440.802	1	-6
441.143	1	-2
441.485	1	10
441.826	1	3
442.167	1	7
442.508	1	0
442.849	1	7
443.190	1	3
443.531	1	1
443.872	1	9
444.213	1	5
444.554	1	1
444.895	1	5
445.237	1	0
445.578	1	-3
445.919	1	1
446.260	1	6
446.601	1	8
446.942	1	14
447.283	1	8
447.624	1	10
447.965	1	0
448.306	1	7
448.647	1	11
448.988	1	12
449.329	1	6
449.670	1	8
450.011	1	-8
450.352	1	10
450.693	1	-5
451.034	1	-1
451.375	1	3
451.716	1	-6
452.057	1	13
452.398	1	-8
452.739	1	10
453.080	1	0
453.421	1	8
453.762	1	-3
454.103	1	-1
454.444	1	2
454.785	1	13
455.126	1	-8
455.467	1	9
455.808	1	9
456.149	1	-6
456.490	1	5
456.831	1	9
457.172	1	5
457.513	1	-8
457.854	1	8
458.195	1	-6
458.536	1	5
458.877	1	20
459.218	1	5
459.559	1	6
459.899	1	4
460.240	1	13
460.581	1	-6
460.922	1	2
461.263	1	9
461.604	1	-4
461.945	1	7
462.286	1	6
462.627	1	0
462.968	1	5
463.309	1	6
463.649	1	-6
463.990	1	2
464.331	1	4
464.672	1	12
465.013	1	-3
465.354	1	3
465.695	1	6
466.036	1	2
466.376	1	9
466.717	1	2
467.058	1	12
467.399	1	1
467.740	1	23
468.081	1	13
468.422	1	2
468.762	1	-5
469.103	1	9
469.444	1	-1
469.785	1	12
470.126	1	1
470.467	1	2
470.807	1	6
471.148	1	0
471.489	1	0
471.830	1	6
472.171	1	7
472.511	1	1
472.852	1	3
473.193	1	1
473.534	1	-5
473.875	1	14
474.215	1	6
474.556	1	11
474.897	1	6
475.238	1	16
475.578	1	6
475.919	1	-2
476.260	1	9
476.601	1	3
476.942	1	6
477.282	1	14
477.623	1	-13
477.964	1	-2
478.305	1	3
478.645	1	3
478.986	1	-3
479.327	1	-11
479.667	1	9
480.008	1	-1
480.349	1	-6
480.690	1	4
481.030	1	8
481.371	1	5
481.712	1	9
482.053	1	-2
482.393	1	12
482.734	1	1
483.075	1	15
483.415	1	-3
483.756	1	-6
484.097	1	4
484.437	1	-3
484.778	1	7
485.119	1	15
485.459	1	-9
485.800	1	9
486.141	1	3
486.481	1	-4
486.822	1	8
487.163	1	-2
487.503	1	-4
487.844	1	3
488.185	1	1
488.525	1	8
488.866	1	10
489.207	1	-5
489.547	1	3
489.888	1	8
490.228	1	3
490.569	1	-1
490.910	1	2
491.250	1	6
491.591	1	-14
491.932	1	-2
492.272	1	-5
492.613	1	3
492.953	1	4
493.294	1	8
493.635	1	5
493.975	1	10
494.316	1	6
494.656	1	-6
494.997	1	-1
495.337	1	-5
495.678	1	10
496.019	1	-5
496.359	1	8
496.700	1	-5
497.040	1	6
497.381	1	4
497.721	1	2
498.062	1	-3
498.403	1	-3
498.743	1	9
499.084	1	9
499.424	1	-6
499.765	1	-1
500.105	1	5
500.446	1	13
500.786	1	13
501.127	1	2
501.467	1	4
501.808	1	3
502.148	1	8
502.489	1	5
502.829	1	10
503.170	1	-4
503.510	1	3
503.851	1	1
504.191	1	1
504.532	1	2
504.872	1	4
505.213	1	4
505.553	1	9
505.894	1	8
506.234	1	0
506.575	1	-5
506.915	1	-1
507.256	1	11
507.596	1	-4
507.936	1	-3
508.277	1	7
508.617	1	-2
508.958	1	14
509.298	1	-3
509.639	1	8
509.979	1	2
510.319	1	14
510.660	1	-5
511.000	1	5
511.341	1	0
511.681	1	9
512.022	1	13
512.362	1	3
512.702	1	9
513.043	1	17
513.383	1	15
513.724	1	-2
514.064	1	5
514.404	1	14
514.745	1	10
515.085	1	6
515.425	1	11
515.766	1	12
516.106	1	1
516.447	1	6
516.787	1	2
517.127	1	9
517.468	1	3
517.808	1	18
518.148	1	13
518.489	1	10
518.829	1	10
519.169	1	13
519.510	1	3
519.850	1	15
520.190	1	12
520.531	1	16
520.871	1	3
521.211	1	8
521.552	1	9
521.892	1	4
522.232	1	5
522.573	1	6
522.913	1	12
523.253	1	12
523.593	1	4
523.934	1	4
524.274	1	3
524.614	1	10
524.955	1	12
525.295	1	12
525.635	1	5
525.975	1	19
526.316	1	0
526.656	1	4
526.996	1	-3
527.337	1	17
527.677	1	8
528.017	1	8
528.357	1	7
528.698	1	5
529.038	1	-8
529.378	1	6
529.718	1	16
530.058	1	0
530.399	1	3
530.739	1	2
531.079	1	1
531.419	1	16
531.760	1	-5
532.100	1	14
532.440	1	4
532.780	1	0
533.120	1	16
533.461	1	6
533.801	1	18
534.141	1	7
534.481	1	10
534.821	1	9
535.162	1	17
535.502	1	11
535.842	1	17
536.182	1	11
536.522	1	4
536.862	1	4
537.203	1	4
537.543	1	11
537.883	1	-5
538.223	1	7
538.563	1	16
538.903	1	19
539.243	1	11
539.584	1	1
539.924	1	0
540.264	1	-4
540.604	1	17
540.944	1	8
541.284	1	1
541.624	1	20
541.964	1	9
542.305	1	10
542.645	1	1
542.985	1	9
543.325	1	11
543.665	1	9
544.005	1	11
544.345	1	9
544.685	1	12
545.025	1	3
545.365	1	17
545.705	1	1
546.045	1	8
546.386	1	5
546.726	1	4
547.066	1	11
547.406	1	-8
547.746	1	5
548.086	1	0
548.426	1	6
548.766	1	6
549.106	1	3
549.446	1	-3
549.786	1	3
550.126	1	10
550.466	1	10
550.806	1	12
551.146	1	9
551.486	1	8
551.826	1	5
552.166	1	-1
552.506	1	1
552.846	1	-2
553.186	1	0
553.526	1	9
553.866	1	-8
554.206	1	4
554.546	1	14
554.886	1	-3
555.226	1	12
555.566	1	5
555.906	1	0
556.246	1	4
556.586	1	7
556.926	1	-2
557.266	1	-1
557.606	1	5
557.946	1	11
558.286	1	18
558.626	1	-7
558.966	1	10
559.306	1	6
559.646	1	8
559.986	1	4
560.325	1	-6
560.665	1	16
561.005	1	6
561.345	1	12
561.685	1	7
562.025	1	1
562.365	1	15
562.705	1	8
563.045	1	-1
563.385	1	6
563.725	1	6
564.064	1	1
564.404	1	5
564.744	1	6
565.084	1	-1
565.424	1	1
565.764	1	6
566.104	1	2
566.444	1	11
566.783	1	10
567.123	1	7
567.463	1	-1
567.803	1	14
568.143	1	13
568.483	1	4
568.823	1	-1
569.162	1	7
569.502	1	2
569.842	1	-3
570.182	1	1
570.522	1	-9
570.862	1	22
571.201	1	8
571.541	1	0
571.881	1	7
572.221	1	6
572.561	1	12
572.900	1	7
573.240	1	-6
573.580	1	-1
573.920	1	13
574.260	1	-3
574.599	1	12
574.939	1	9
575.279	1	2
575.619	1	2
575.959	1	5
576.298	1	-2
576.638	1	-4
576.978	1	-1
577.318	1	-8
577.657	1	7
577.997	1	3
578.337	1	4
578.677	1	7
579.016	1	4
579.356	1	6
579.696	1	4
580.036	1	6
580.375	1	-2
580.715	1	17
581.055	1	12
581.394	1	5
581.734	1	4
582.074	1	0
582.414	1	5
582.753	1	5
583.093	1	4
583.433	1	7
583.772	1	13
584.112	1	8
584.452	1	8
584.791	1	6
585.131	1	16
585.471	1	7
585.811	1	0
586.150	1	17
586.490	1	3
586.830	1	-8
587.169	1	5
587.509	1	9
587.849	1	7
588.188	1	6
588.528	1	5
588.867	1	-4
589.207	1	5
589.547	1	-13
589.886	1	-6
590.226	1	12
590.566	1	4
590.905	1	5
591.245	1	-6
591.585	1	12
591.924	1	4
592.264	1	9
592.603	1	3
592.943	1	6
593.283	1	-2
593.622	1	10
593.962	1	5
594.301	1	-9
594.641	1	7
594.981	1	-3
595.320	1	5
595.660	1	-1
595.999	1	11
596.339	1	8
596.678	1	0
597.018	1	0
597.358	1	-4
597.697	1	-3
598.037	1	8
598.376	1	5
598.716	1	3
599.055	1	10
599.395	1	-8
599.734	1	-2
600.074	1	2
600.413	1	10
600.753	1	-1
601.092	1	9
601.432	1	-7
601.771	1	8
602.111	1	-5
602.451	1	6
602.790	1	-2
603.130	1	4
603.469	1	0
603.809	1	7
604.148	1	11
604.487	1	15
604.827	1	1
605.166	1	12
605.506	1	-1
605.845	1	-3
606.185	1	5
606.524	1	1
606.864	1	11
607.203	1	8
607.543	1	9
607.882	1	13
608.222	1	-5
608.561	1	-4
608.901	1	6
609.240	1	0
609.579	1	6
609.919	1	12
610.258	1	3
610.598	1	6
610.937	1	5
611.277	1	7
611.616	1	-5
611.955	1	2
612.295	1	12
612.634	1	2
612.974	1	0
613.313	1	5
613.652	1	-3
613.992	1	3
614.331	1	4
614.671	1	0
615.010	1	5
615.349	1	-3
615.689	1	6
616.028	1	10
616.368	1	4
616.707	1	15
617.046	1	12
617.386	1	-9
617.725	1	6
618.064	1	12
618.404	1	0
618.743	1	4
619.082	1	-4
619.422	1	-3
619.761	1	12
620.100	1	-2
620.440	1	2
620.779	1	2
621.118	1	3
621.458	1	4
621.797	1	-3
622.136	1	10
622.476	1	8
622.815	1	-5
623.154	1	6
623.494	1	13
623.833	1	6
624.172	1	8
624.511	1	10
624.851	1	3
625.190	1	-5
625.529	1	-2
625.869	1	12
626.208	1	3
626.547	1	1
626.886	1	0
627.226	1	4
627.565	1	2
627.904	1	3
628.243	1	8
628.583	1	-8
628.922	1	-2
629.261	1	-4
629.600	1	5
629.940	1	15
630.279	1	16
630.618	1	-6
630.957	1	7
631.297	1	7
631.636	1	14
631.975	1	3
632.314	1	3
632.653	1	2
632.993	1	1
633.332	1	-6
633.671	1	-1
634.010	1	-8
634.349	1	8
634.689	1	14
635.028	1	10
635.367	1	6
635.706	1	-2
636.045	1	16
636.384	1	-4
636.724	1	13
637.063	1	-3
637.402	1	-1
637.741	1	10
638.080	1	11
638.419	1	1
638.759	1	4
639.098	1	3
639.437	1	11
639.776	1	-3
640.115	1	12
640.454	1	3
640.793	1	-10
641.132	1	15
641.472	1	1
641.811	1	1
642.150	1	-3
642.489	1	-10
642.828	1	-1
643.167	1	2
643.506	1	0
643.845	1	3
644.184	1	5
644.524	1	4
644.863	1	-1
645.202	1	-3
645.541	1	1
645.880	1	17
646.219	1	1
646.558	1	-3
646.897	1	-6
647.236	1	-5
647.575	1	0
647.914	1	-5
648.253	1	5
648.592	1	-1
648.931	1	-6
649.270	1	-6
649.610	1	-3
649.949	1	7
650.288	1	0
650.627	1	3
650.966	1	2
651.305	1	-1
651.644	1	-1
651.983	1	-6
652.322	1	5
652.661	1	3
653.000	1	11
653.339	1	1
653.678	1	5
654.017	1	0
654.356	1	9
654.695	1	1
655.034	1	7
655.373	1	0
655.712	1	3
656.051	1	6
656.390	1	-3
656.729	1	1
657.068	1	-3
657.406	1	7
657.745	1	1
658.084	1	-5
658.423	1	7
658.762	1	17
659.101	1	5
659.440	1	-3
659.779	1	7
660.118	1	0
660.457	1	-1
660.796	1	4
661.135	1	7
661.474	1	8
661.813	1	-2
662.152	1	6
662.491	1	20
662.829	1	6
663.168	1	-3
663.507	1	-4
663.846	1	7
664.185	1	-5
664.524	1	-6
664.863	1	2
665.202	1	9
665.541	1	0
665.879	1	11
666.218	1	-1
666.557	1	-2
666.896	1	8
667.235	1	5
667.574	1	16
667.913	1	3
668.251	1	8
668.590	1	2
668.929	1	7
669.268	1	-4
669.607	1	7
669.946	1	12
670.285	1	14
670.623	1	14
670.962	1	7
671.301	1	-2
671.640	1	0
671.979	1	13
672.317	1	4
672.656	1	-4
672.995	1	1
673.334	1	1
673.673	1	3
674.011	1	5
674.350	1	2
674.689	1	0
675.028	1	15
675.367	1	-12
675.705	1	5
676.044	1	0
676.383	1	1
676.722	1	-1
677.060	1	10
677.399	1	3
677.738	1	-4
678.077	1	5
678.416	1	4
678.754	1	3
679.093	1	1
679.432	1	2
679.771	1	6
680.109	1	0
680.448	1	4
680.787	1	4
681.125	1	14
681.464	1	-7
681.803	1	3
682.142	1	-5
682.480	1	11
682.819	1	-1
683.158	1	3
683.496	1	-4
683.835	1	-1
684.174	1	7
684.512	1	12
684.851	1	-5
685.190	1	8
685.529	1	0
685.867	1	-5
686.206	1	8
686.545	1	-3
686.883	1	-1
687.222	1	-2
687.561	1	10
687.899	1	10
688.238	1	5
688.577	1	1
688.746	1	9