File: Data/GaN_130K_350ms/GaN_sample F_spot6_UVVIS_130 K_200um_350 ms 2x2mm1_224.txt
340.368	1	4
340.710	1	11
341.052	1	-2
341.394	1	3
341.737	1	5
342.079	1	-4
342.421	1	3
342.763	1	9
343.105	1	-1
343.447	1	16
343.789	1	-3
344.131	1	-1
344.473	1	-4
344.815	1	-6
345.157	1	-8
345.499	1	-1
345.841	1	-4
346.183	1	16
346.526	1	-7
346.868	1	6
347.210	1	-5
347.552	1	0
347.894	1	6
348.236	1	5
348.578	1	5
348.920	1	3
349.262	1	11
349.604	1	3
349.946	1	5
350.288	1	-1
350.630	1	5
350.972	1	6
351.314	1	-9
351.656	1	6
351.998	1	5
352.340	1	12
352.682	1	7
353.024	1	-1
353.366	1	9
353.708	1	-8
354.050	1	9
354.392	1	3
354.734	1	2
355.076	1	3
355.418	1	-1
355.760	1	16
356.102	1	-4
356.444	1	-5
356.785	1	13
357.127	1	14
357.469	1	1
357.811	1	4
358.153	1	-1
358.495	1	-4
358.837	1	5
359.179	1	9
359.521	1	2
359.863	1	3
360.205	1	-2
360.547	1	3
360.889	1	2
361.231	1	2
361.572	1	8
361.914	1	3
362.256	1	9
362.598	1	8
362.940	1	-2
363.282	1	13
363.624	1	7
363.966	1	15
364.308	1	15
364.649	1	11
364.991	1	10
365.333	1	9
365.675	1	3
366.017	1	25
366.359	1	14
366.701	1	14
367.042	1	22
367.384	1	30
367.726	1	19
368.068	1	14
368.410	1	8
368.752	1	16
369.093	1	7
369.435	1	10
369.777	1	18
370.119	1	15
370.461	1	20
370.803	1	8
371.144	1	12
371.486	1	8
371.828	1	20
372.170	1	7
372.512	1	8
372.853	1	8
373.195	1	5
373.537	1	18
373.879	1	24
374.220	1	0
374.562	1	4
374.904	1	11
375.246	1	19
375.588	1	5
375.929	1	-8
376.271	1	9
376.613	1	4
376.955	1	-4
377.296	1	8
377.638	1	-1
377.980	1	0
378.321	1	14
378.663	1	10
379.005	1	15
379.347	1	6
379.688	1	-2
380.030	1	-2
380.372	1	16
380.714	1	16
381.055	1	1
381.397	1	10
381.739	1	15
382.080	1	-4
382.422	1	13
382.764	1	-3
383.105	1	9
383.447	1	4
383.789	1	7
384.130	1	13
384.472	1	3
384.814	1	8
385.156	1	0
385.497	1	1
385.839	1	11
386.180	1	11
386.522	1	4
386.864	1	7
387.205	1	17
387.547	1	8
387.889	1	5
388.230	1	5
388.572	1	13
388.914	1	1
389.255	1	7
389.597	1	-8
389.939	1	12
390.280	1	11
390.622	1	7
390.963	1	9
391.305	1	2
391.647	1	0
391.988	1	15
392.330	1	1
392.671	1	-3
393.013	1	10
393.355	1	4
393.696	1	-7
394.038	1	14
394.379	1	9
394.721	1	11
395.062	1	3
395.404	1	-4
395.746	1	16
396.087	1	8
396.429	1	9
396.770	1	8
397.112	1	11
397.453	1	17
397.795	1	6
398.136	1	7
398.478	1	1
398.819	1	-7
399.161	1	14
399.503	1	17
399.844	1	0
400.186	1	0
400.527	1	13
400.869	1	3
401.210	1	-8
401.552	1	9
401.893	1	-7
402.235	1	-2
402.576	1	7
402.918	1	6
403.259	1	4
403.601	1	3
403.942	1	4
404.284	1	2
404.625	1	15
404.967	1	-1
405.308	1	0
405.649	1	9
405.991	1	11
406.332	1	7
406.674	1	18
407.015	1	9
407.357	1	13
407.698	1	3
408.040	1	6
408.381	1	17
408.722	1	9
409.064	1	4
409.405	1	1
409.747	1	6
410.088	1	16
410.430	1	17
410.771	1	-13
411.112	1	17
411.454	1	3
411.795	1	6
412.137	1	3
412.478	1	10
412.819	1	7
413.161	1	18
413.502	1	17
413.844	1	7
414.185	1	6
414.526	1	5
414.868	1	2
415.209	1	8
415.550	1	8
415.892	1	12
416.233	1	16
416.575	1	4
416.916	1	6
417.257	1	1
417.599	1	9
417.940	1	14
418.281	1	7
418.623	1	4
418.964	1	-2
419.305	1	-6
419.647	1	7
419.988	1	16
420.329	1	12
420.671	1	-2
421.012	1	5
421.353	1	2
421.695	1	8
422.036	1	9
422.377	1	12
422.718	1	-2
423.060	1	6
423.401	1	13
423.742	1	8
424.084	1	5
424.425	1	1
424.766	1	15
425.107	1	8
425.449	1	7
425.790	1	10
426.131	1	10
426.472	1	-1
426.814	1	5
427.155	1	8
427.496	1	4
427.837	1	11
428.179	1	9
428.520	1	0
428.861	1	0
429.202	1	-6
429.544	1	16
429.885	1	12
430.226	1	2
430.567	1	1
430.909	1	8
431.250	1	12
431.591	1	-4
431.932	1	4
432.273	1	4
432.615	1	18
432.956	1	-8
433.297	1	8
433.638	1	0
433.979	1	10
434.320	1	7
434.662	1	2
435.003	1	12
435.344	1	-2
435.685	1	2
436.026	1	9
436.368	1	1
436.709	1	-2
437.050	1	1
437.391	1	20
437.732	1	7
438.073	1	13
438.414	1	0
438.756	1	5
439.097	1	1
439.438	1	11
439.779	1	11
440.120	1	0
440.461	1	20
440.802	1	0
441.143	1	-1
441.485	1	13
441.826	1	7
442.167	1	2
442.508	1	4
442.849	1	10
443.190	1	6
443.531	1	9
443.872	1	15
444.213	1	3
444.554	1	9
444.895	1	12
445.237	1	2
445.578	1	-6
445.919	1	-4
446.260	1	3
446.601	1	3
446.942	1	1
447.283	1	11
447.624	1	2
447.965	1	8
448.306	1	8
448.647	1	13
448.988	1	-1
449.329	1	-2
449.670	1	5
450.011	1	-2
450.352	1	3
450.693	1	5
451.034	1	-1
451.375	1	8
451.716	1	-2
452.057	1	20
452.398	1	-6
452.739	1	11
453.080	1	5
453.421	1	5
453.762	1	5
454.103	1	-8
454.444	1	-4
454.785	1	10
455.126	1	-3
455.467	1	5
455.808	1	14
456.149	1	-6
456.490	1	5
456.831	1	3
457.172	1	-1
457.513	1	-5
457.854	1	3
458.195	1	-10
458.536	1	3
458.877	1	28
459.218	1	5
459.559	1	-1
459.899	1	5
460.240	1	18
460.581	1	0
460.922	1	2
461.263	1	9
461.604	1	-8
461.945	1	5
462.286	1	9
462.627	1	2
462.968	1	5
463.309	1	3
463.649	1	7
463.990	1	4
464.331	1	11
464.672	1	8
465.013	1	-3
465.354	1	4
465.695	1	2
466.036	1	2
466.376	1	4
466.717	1	3
467.058	1	18
467.399	1	-2
467.740	1	8
468.081	1	16
468.422	1	4
468.762	1	0
469.103	1	10
469.444	1	4
469.785	1	5
470.126	1	-12
470.467	1	1
470.807	1	0
471.148	1	5
471.489	1	0
471.830	1	5
472.171	1	2
472.511	1	8
472.852	1	9
473.193	1	11
473.534	1	6
473.875	1	15
474.215	1	2
474.556	1	6
474.897	1	-7
475.238	1	12
475.578	1	9
475.919	1	1
476.260	1	5
476.601	1	-2
476.942	1	16
477.282	1	2
477.623	1	-2
477.964	1	-2
478.305	1	14
478.645	1	8
478.986	1	-1
479.327	1	-4
479.667	1	7
480.008	1	3
480.349	1	-3
480.690	1	2
481.030	1	4
481.371	1	12
481.712	1	4
482.053	1	0
482.393	1	12
482.734	1	8
483.075	1	5
483.415	1	2
483.756	1	7
484.097	1	-7
484.437	1	1
484.778	1	7
485.119	1	7
485.459	1	-5
485.800	1	13
486.141	1	-3
486.481	1	2
486.822	1	12
487.163	1	2
487.503	1	-7
487.844	1	-1
488.185	1	5
488.525	1	9
488.866	1	4
489.207	1	5
489.547	1	5
489.888	1	11
490.228	1	9
490.569	1	5
490.910	1	-6
491.250	1	5
491.591	1	3
491.932	1	4
492.272	1	0
492.613	1	-9
492.953	1	1
493.294	1	5
493.635	1	1
493.975	1	8
494.316	1	5
494.656	1	5
494.997	1	1
495.337	1	-3
495.678	1	-2
496.019	1	-8
496.359	1	13
496.700	1	2
497.040	1	3
497.381	1	3
497.721	1	1
498.062	1	0
498.403	1	-3
498.743	1	7
499.084	1	8
499.424	1	7
499.765	1	-6
500.105	1	2
500.446	1	4
500.786	1	14
501.127	1	10
501.467	1	0
501.808	1	-3
502.148	1	2
502.489	1	2
502.829	1	0
503.170	1	-4
503.510	1	4
503.851	1	2
504.191	1	-4
504.532	1	11
504.872	1	15
505.213	1	2
505.553	1	9
505.894	1	3
506.234	1	1
506.575	1	-4
506.915	1	3
507.256	1	10
507.596	1	0
507.936	1	5
508.277	1	1
508.617	1	-3
508.958	1	4
509.298	1	1
509.639	1	10
509.979	1	3
510.319	1	13
510.660	1	-5
511.000	1	9
511.341	1	-2
511.681	1	3
512.022	1	7
512.362	1	-11
512.702	1	3
513.043	1	2
513.383	1	12
513.724	1	8
514.064	1	1
514.404	1	10
514.745	1	3
515.085	1	9
515.425	1	-3
515.766	1	6
516.106	1	5
516.447	1	10
516.787	1	12
517.127	1	5
517.468	1	12
517.808	1	4
518.148	1	7
518.489	1	2
518.829	1	17
519.169	1	10
519.510	1	9
519.850	1	16
520.190	1	12
520.531	1	8
520.871	1	-1
521.211	1	11
521.552	1	13
521.892	1	6
522.232	1	-8
522.573	1	-1
522.913	1	8
523.253	1	5
523.593	1	11
523.934	1	4
524.274	1	7
524.614	1	9
524.955	1	1
525.295	1	7
525.635	1	12
525.975	1	15
526.316	1	6
526.656	1	3
526.996	1	8
527.337	1	11
527.677	1	-5
528.017	1	10
528.357	1	6
528.698	1	-5
529.038	1	1
529.378	1	16
529.718	1	6
530.058	1	1
530.399	1	6
530.739	1	2
531.079	1	14
531.419	1	-1
531.760	1	-1
532.100	1	12
532.440	1	4
532.780	1	9
533.120	1	7
533.461	1	6
533.801	1	16
534.141	1	15
534.481	1	13
534.821	1	15
535.162	1	6
535.502	1	7
535.842	1	5
536.182	1	13
536.522	1	-6
536.862	1	6
537.203	1	-1
537.543	1	15
537.883	1	3
538.223	1	6
538.563	1	18
538.903	1	6
539.243	1	6
539.584	1	0
539.924	1	-2
540.264	1	5
540.604	1	11
540.944	1	7
541.284	1	12
541.624	1	11
541.964	1	8
542.305	1	5
542.645	1	1
542.985	1	18
543.325	1	3
543.665	1	14
544.005	1	4
544.345	1	11
544.685	1	16
545.025	1	-4
545.365	1	3
545.705	1	5
546.045	1	0
546.386	1	11
546.726	1	-5
547.066	1	7
547.406	1	-4
547.746	1	6
548.086	1	5
548.426	1	4
548.766	1	3
549.106	1	1
549.446	1	9
549.786	1	7
550.126	1	16
550.466	1	13
550.806	1	12
551.146	1	-7
551.486	1	0
551.826	1	8
552.166	1	17
552.506	1	8
552.846	1	-4
553.186	1	4
553.526	1	1
553.866	1	1
554.206	1	6
554.546	1	11
554.886	1	2
555.226	1	6
555.566	1	9
555.906	1	2
556.246	1	-1
556.586	1	7
556.926	1	4
557.266	1	8
557.606	1	-6
557.946	1	8
558.286	1	10
558.626	1	-7
558.966	1	6
559.306	1	7
559.646	1	5
559.986	1	5
560.325	1	-3
560.665	1	9
561.005	1	0
561.345	1	14
561.685	1	2
562.025	1	2
562.365	1	1
562.705	1	12
563.045	1	-6
563.385	1	2
563.725	1	5
564.064	1	19
564.404	1	4
564.744	1	8
565.084	1	0
565.424	1	-4
565.764	1	15
566.104	1	5
566.444	1	7
566.783	1	10
567.123	1	6
567.463	1	-1
567.803	1	11
568.143	1	11
568.483	1	7
568.823	1	-5
569.162	1	10
569.502	1	-1
569.842	1	4
570.182	1	4
570.522	1	-13
570.862	1	16
571.201	1	9
571.541	1	3
571.881	1	5
572.221	1	17
572.561	1	6
572.900	1	9
573.240	1	-3
573.580	1	1
573.920	1	10
574.260	1	7
574.599	1	10
574.939	1	11
575.279	1	-1
575.619	1	3
575.959	1	8
576.298	1	6
576.638	1	2
576.978	1	-8
577.318	1	3
577.657	1	22
577.997	1	1
578.337	1	1
578.677	1	6
579.016	1	1
579.356	1	12
579.696	1	8
580.036	1	-4
580.375	1	-6
580.715	1	5
581.055	1	-1
581.394	1	3
581.734	1	7
582.074	1	6
582.414	1	3
582.753	1	7
583.093	1	-5
583.433	1	16
583.772	1	2
584.112	1	13
584.452	1	7
584.791	1	6
585.131	1	16
585.471	1	5
585.811	1	6
586.150	1	3
586.490	1	-1
586.830	1	-6
587.169	1	4
587.509	1	4
587.849	1	9
588.188	1	9
588.528	1	10
588.867	1	12
589.207	1	-7
589.547	1	0
589.886	1	4
590.226	1	10
590.566	1	2
590.905	1	7
591.245	1	3
591.585	1	10
591.924	1	1
592.264	1	10
592.603	1	8
592.943	1	-1
593.283	1	-6
593.622	1	10
593.962	1	8
594.301	1	3
594.641	1	4
594.981	1	-7
595.320	1	7
595.660	1	-5
595.999	1	9
596.339	1	15
596.678	1	0
597.018	1	10
597.358	1	-3
597.697	1	4
598.037	1	4
598.376	1	-2
598.716	1	1
599.055	1	-3
599.395	1	-3
599.734	1	4
600.074	1	4
600.413	1	13
600.753	1	4
601.092	1	1
601.432	1	1
601.771	1	8
602.111	1	-2
602.451	1	14
602.790	1	5
603.130	1	5
603.469	1	-2
603.809	1	3
604.148	1	10
604.487	1	10
604.827	1	1
605.166	1	12
605.506	1	7
605.845	1	-3
606.185	1	7
606.524	1	11
606.864	1	13
607.203	1	3
607.543	1	3
607.882	1	9
608.222	1	-5
608.561	1	2
608.901	1	8
609.240	1	3
609.579	1	9
609.919	1	1
610.258	1	2
610.598	1	2
610.937	1	5
611.277	1	-1
611.616	1	2
611.955	1	-3
612.295	1	10
612.634	1	1
612.974	1	16
613.313	1	0
613.652	1	-2
613.992	1	3
614.331	1	6
614.671	1	-1
615.010	1	-4
615.349	1	2
615.689	1	3
616.028	1	10
616.368	1	9
616.707	1	15
617.046	1	4
617.386	1	6
617.725	1	1
618.064	1	9
618.404	1	1
618.743	1	10
619.082	1	1
619.422	1	4
619.761	1	-1
620.100	1	-2
620.440	1	2
620.779	1	-4
621.118	1	12
621.458	1	11
621.797	1	1
622.136	1	1
622.476	1	12
622.815	1	-3
623.154	1	-3
623.494	1	7
623.833	1	10
624.172	1	-3
624.511	1	13
624.851	1	0
625.190	1	-5
625.529	1	1
625.869	1	7
626.208	1	0
626.547	1	3
626.886	1	-2
627.226	1	3
627.565	1	11
627.904	1	6
628.243	1	-1
628.583	1	-11
628.922	1	-3
629.261	1	-11
629.600	1	8
629.940	1	8
630.279	1	14
630.618	1	-5
630.957	1	6
631.297	1	-6
631.636	1	5
631.975	1	12
632.314	1	-4
632.653	1	1
632.993	1	7
633.332	1	2
633.671	1	3
634.010	1	-7
634.349	1	3
634.689	1	10
635.028	1	5
635.367	1	-4
635.706	1	1
636.045	1	11
636.384	1	5
636.724	1	9
637.063	1	5
637.402	1	1
637.741	1	16
638.080	1	19
638.419	1	3
638.759	1	8
639.098	1	4
639.437	1	3
639.776	1	2
640.115	1	7
640.454	1	12
640.793	1	-9
641.132	1	8
641.472	1	2
641.811	1	-2
642.150	1	-6
642.489	1	-9
642.828	1	1
643.167	1	9
643.506	1	7
643.845	1	-5
644.184	1	7
644.524	1	-5
644.863	1	-2
645.202	1	5
645.541	1	11
645.880	1	3
646.219	1	7
646.558	1	3
646.897	1	2
647.236	1	0
647.575	1	-4
647.914	1	-3
648.253	1	2
648.592	1	-3
648.931	1	2
649.270	1	0
649.610	1	5
649.949	1	1
650.288	1	11
650.627	1	6
650.966	1	9
651.305	1	6
651.644	1	8
651.983	1	-16
652.322	1	0
652.661	1	-4
653.000	1	-2
653.339	1	-1
653.678	1	-11
654.017	1	0
654.356	1	1
654.695	1	1
655.034	1	1
655.373	1	0
655.712	1	4
656.051	1	4
656.390	1	-2
656.729	1	1
657.068	1	-4
657.406	1	-1
657.745	1	-5
658.084	1	-5
658.423	1	8
658.762	1	8
659.101	1	5
659.440	1	-2
659.779	1	-6
660.118	1	-12
660.457	1	-3
660.796	1	8
661.135	1	1
661.474	1	7
661.813	1	-6
662.152	1	7
662.491	1	18
662.829	1	9
663.168	1	-10
663.507	1	-1
663.846	1	-6
664.185	1	10
664.524	1	1
664.863	1	1
665.202	1	2
665.541	1	-8
665.879	1	7
666.218	1	7
666.557	1	7
666.896	1	4
667.235	1	3
667.574	1	12
667.913	1	15
668.251	1	5
668.590	1	12
668.929	1	0
669.268	1	-2
669.607	1	0
669.946	1	6
670.285	1	11
670.623	1	19
670.962	1	-3
671.301	1	8
671.640	1	-9
671.979	1	5
672.317	1	-6
672.656	1	-14
672.995	1	5
673.334	1	-6
673.673	1	5
674.011	1	-4
674.350	1	1
674.689	1	10
675.028	1	11
675.367	1	-2
675.705	1	10
676.044	1	2
676.383	1	1
676.722	1	-8
677.060	1	7
677.399	1	-2
677.738	1	-1
678.077	1	-1
678.416	1	9
678.754	1	5
679.093	1	6
679.432	1	5
679.771	1	6
680.109	1	6
680.448	1	9
680.787	1	3
681.125	1	10
681.464	1	0
681.803	1	-2
682.142	1	0
682.480	1	5
682.819	1	3
683.158	1	3
683.496	1	2
683.835	1	-4
684.174	1	2
684.512	1	12
684.851	1	-4
685.190	1	5
685.529	1	-1
685.867	1	6
686.206	1	6
686.545	1	9
686.883	1	7
687.222	1	13
687.561	1	2
687.899	1	-1
688.238	1	2
688.577	1	-7
688.746	1	9