File: Data/GaN_130K_350ms/GaN_sample F_spot6_UVVIS_130 K_200um_350 ms 2x2mm1_204.txt
340.368	1	4
340.710	1	9
341.052	1	-3
341.394	1	0
341.737	1	2
342.079	1	1
342.421	1	17
342.763	1	7
343.105	1	-3
343.447	1	9
343.789	1	4
344.131	1	2
344.473	1	-8
344.815	1	-12
345.157	1	-10
345.499	1	-1
345.841	1	-5
346.183	1	10
346.526	1	-1
346.868	1	3
347.210	1	7
347.552	1	0
347.894	1	5
348.236	1	5
348.578	1	5
348.920	1	6
349.262	1	15
349.604	1	5
349.946	1	8
350.288	1	-6
350.630	1	1
350.972	1	12
351.314	1	-5
351.656	1	14
351.998	1	5
352.340	1	10
352.682	1	6
353.024	1	1
353.366	1	7
353.708	1	-2
354.050	1	5
354.392	1	7
354.734	1	1
355.076	1	-5
355.418	1	9
355.760	1	6
356.102	1	1
356.444	1	-10
356.785	1	6
357.127	1	8
357.469	1	3
357.811	1	3
358.153	1	0
358.495	1	14
358.837	1	4
359.179	1	1
359.521	1	3
359.863	1	4
360.205	1	10
360.547	1	1
360.889	1	5
361.231	1	2
361.572	1	15
361.914	1	14
362.256	1	10
362.598	1	-2
362.940	1	-6
363.282	1	9
363.624	1	10
363.966	1	17
364.308	1	16
364.649	1	18
364.991	1	1
365.333	1	7
365.675	1	9
366.017	1	9
366.359	1	23
366.701	1	15
367.042	1	14
367.384	1	32
367.726	1	20
368.068	1	7
368.410	1	11
368.752	1	20
369.093	1	19
369.435	1	15
369.777	1	21
370.119	1	22
370.461	1	18
370.803	1	11
371.144	1	15
371.486	1	15
371.828	1	7
372.170	1	12
372.512	1	16
372.853	1	11
373.195	1	-1
373.537	1	17
373.879	1	17
374.220	1	10
374.562	1	1
374.904	1	5
375.246	1	10
375.588	1	6
375.929	1	10
376.271	1	8
376.613	1	5
376.955	1	10
377.296	1	7
377.638	1	-3
377.980	1	7
378.321	1	11
378.663	1	13
379.005	1	15
379.347	1	-4
379.688	1	4
380.030	1	-2
380.372	1	19
380.714	1	10
381.055	1	17
381.397	1	7
381.739	1	0
382.080	1	-6
382.422	1	12
382.764	1	10
383.105	1	8
383.447	1	1
383.789	1	14
384.130	1	12
384.472	1	-2
384.814	1	0
385.156	1	2
385.497	1	1
385.839	1	3
386.180	1	13
386.522	1	4
386.864	1	15
387.205	1	-8
387.547	1	11
387.889	1	-2
388.230	1	0
388.572	1	10
388.914	1	9
389.255	1	9
389.597	1	-11
389.939	1	9
390.280	1	13
390.622	1	11
390.963	1	3
391.305	1	9
391.647	1	5
391.988	1	8
392.330	1	8
392.671	1	1
393.013	1	5
393.355	1	-2
393.696	1	1
394.038	1	9
394.379	1	3
394.721	1	7
395.062	1	-2
395.404	1	-7
395.746	1	7
396.087	1	15
396.429	1	7
396.770	1	16
397.112	1	9
397.453	1	16
397.795	1	3
398.136	1	10
398.478	1	10
398.819	1	-1
399.161	1	10
399.503	1	21
399.844	1	-3
400.186	1	1
400.527	1	12
400.869	1	13
401.210	1	-1
401.552	1	9
401.893	1	-12
402.235	1	8
402.576	1	2
402.918	1	5
403.259	1	1
403.601	1	7
403.942	1	2
404.284	1	-3
404.625	1	7
404.967	1	5
405.308	1	3
405.649	1	5
405.991	1	1
406.332	1	9
406.674	1	7
407.015	1	5
407.357	1	1
407.698	1	4
408.040	1	12
408.381	1	21
408.722	1	2
409.064	1	5
409.405	1	1
409.747	1	5
410.088	1	14
410.430	1	9
410.771	1	-18
411.112	1	13
411.454	1	11
411.795	1	14
412.137	1	-7
412.478	1	0
412.819	1	8
413.161	1	5
413.502	1	17
413.844	1	12
414.185	1	-3
414.526	1	7
414.868	1	4
415.209	1	11
415.550	1	5
415.892	1	13
416.233	1	7
416.575	1	9
416.916	1	8
417.257	1	18
417.599	1	4
417.940	1	9
418.281	1	10
418.623	1	15
418.964	1	14
419.305	1	10
419.647	1	16
419.988	1	15
420.329	1	16
420.671	1	-1
421.012	1	8
421.353	1	-11
421.695	1	1
422.036	1	4
422.377	1	14
422.718	1	4
423.060	1	4
423.401	1	10
423.742	1	2
424.084	1	8
424.425	1	7
424.766	1	8
425.107	1	4
425.449	1	9
425.790	1	14
426.131	1	17
426.472	1	1
426.814	1	3
427.155	1	-1
427.496	1	5
427.837	1	10
428.179	1	8
428.520	1	20
428.861	1	4
429.202	1	7
429.544	1	11
429.885	1	7
430.226	1	2
430.567	1	6
430.909	1	4
431.250	1	6
431.591	1	8
431.932	1	0
432.273	1	5
432.615	1	10
432.956	1	-4
433.297	1	16
433.638	1	2
433.979	1	7
434.320	1	4
434.662	1	-1
435.003	1	16
435.344	1	6
435.685	1	-4
436.026	1	0
436.368	1	1
436.709	1	-1
437.050	1	7
437.391	1	12
437.732	1	8
438.073	1	10
438.414	1	-4
438.756	1	10
439.097	1	2
439.438	1	9
439.779	1	11
440.120	1	3
440.461	1	13
440.802	1	0
441.143	1	-7
441.485	1	4
441.826	1	8
442.167	1	7
442.508	1	3
442.849	1	-2
443.190	1	-1
443.531	1	-3
443.872	1	8
444.213	1	9
444.554	1	1
444.895	1	2
445.237	1	-3
445.578	1	3
445.919	1	-3
446.260	1	-3
446.601	1	2
446.942	1	7
447.283	1	4
447.624	1	-1
447.965	1	8
448.306	1	8
448.647	1	9
448.988	1	9
449.329	1	3
449.670	1	3
450.011	1	1
450.352	1	8
450.693	1	3
451.034	1	6
451.375	1	7
451.716	1	-14
452.057	1	21
452.398	1	-7
452.739	1	2
453.080	1	-2
453.421	1	2
453.762	1	12
454.103	1	0
454.444	1	6
454.785	1	16
455.126	1	-5
455.467	1	5
455.808	1	16
456.149	1	-5
456.490	1	5
456.831	1	10
457.172	1	8
457.513	1	0
457.854	1	4
458.195	1	-4
458.536	1	3
458.877	1	17
459.218	1	4
459.559	1	8
459.899	1	-7
460.240	1	13
460.581	1	-4
460.922	1	7
461.263	1	0
461.604	1	-5
461.945	1	2
462.286	1	10
462.627	1	9
462.968	1	3
463.309	1	3
463.649	1	-6
463.990	1	-2
464.331	1	2
464.672	1	6
465.013	1	-6
465.354	1	3
465.695	1	12
466.036	1	6
466.376	1	12
466.717	1	8
467.058	1	10
467.399	1	3
467.740	1	10
468.081	1	-4
468.422	1	-2
468.762	1	0
469.103	1	0
469.444	1	-2
469.785	1	10
470.126	1	-6
470.467	1	3
470.807	1	4
471.148	1	13
471.489	1	-6
471.830	1	14
472.171	1	2
472.511	1	8
472.852	1	13
473.193	1	14
473.534	1	-3
473.875	1	11
474.215	1	4
474.556	1	7
474.897	1	-4
475.238	1	14
475.578	1	10
475.919	1	-4
476.260	1	5
476.601	1	9
476.942	1	-4
477.282	1	1
477.623	1	-8
477.964	1	5
478.305	1	11
478.645	1	-2
478.986	1	0
479.327	1	-2
479.667	1	10
480.008	1	-10
480.349	1	2
480.690	1	-2
481.030	1	1
481.371	1	-2
481.712	1	5
482.053	1	-3
482.393	1	12
482.734	1	2
483.075	1	9
483.415	1	0
483.756	1	5
484.097	1	-4
484.437	1	1
484.778	1	6
485.119	1	11
485.459	1	-3
485.800	1	8
486.141	1	1
486.481	1	-3
486.822	1	10
487.163	1	1
487.503	1	-9
487.844	1	-5
488.185	1	-3
488.525	1	12
488.866	1	3
489.207	1	-4
489.547	1	9
489.888	1	10
490.228	1	5
490.569	1	7
490.910	1	-8
491.250	1	10
491.591	1	-2
491.932	1	4
492.272	1	-3
492.613	1	-5
492.953	1	6
493.294	1	5
493.635	1	2
493.975	1	17
494.316	1	3
494.656	1	1
494.997	1	4
495.337	1	5
495.678	1	-5
496.019	1	8
496.359	1	15
496.700	1	3
497.040	1	13
497.381	1	4
497.721	1	2
498.062	1	1
498.403	1	-4
498.743	1	7
499.084	1	14
499.424	1	-2
499.765	1	3
500.105	1	8
500.446	1	2
500.786	1	11
501.127	1	10
501.467	1	7
501.808	1	3
502.148	1	11
502.489	1	2
502.829	1	11
503.170	1	-3
503.510	1	3
503.851	1	7
504.191	1	0
504.532	1	4
504.872	1	14
505.213	1	6
505.553	1	5
505.894	1	8
506.234	1	6
506.575	1	-5
506.915	1	5
507.256	1	8
507.596	1	1
507.936	1	3
508.277	1	7
508.617	1	-1
508.958	1	6
509.298	1	2
509.639	1	8
509.979	1	-2
510.319	1	13
510.660	1	-6
511.000	1	8
511.341	1	0
511.681	1	13
512.022	1	16
512.362	1	-4
512.702	1	12
513.043	1	8
513.383	1	12
513.724	1	1
514.064	1	2
514.404	1	10
514.745	1	3
515.085	1	14
515.425	1	1
515.766	1	11
516.106	1	8
516.447	1	6
516.787	1	6
517.127	1	3
517.468	1	5
517.808	1	14
518.148	1	6
518.489	1	9
518.829	1	7
519.169	1	9
519.510	1	-1
519.850	1	17
520.190	1	17
520.531	1	24
520.871	1	4
521.211	1	10
521.552	1	0
521.892	1	7
522.232	1	-8
522.573	1	6
522.913	1	6
523.253	1	8
523.593	1	11
523.934	1	2
524.274	1	-2
524.614	1	8
524.955	1	9
525.295	1	7
525.635	1	-2
525.975	1	14
526.316	1	1
526.656	1	8
526.996	1	7
527.337	1	17
527.677	1	-1
528.017	1	12
528.357	1	10
528.698	1	-2
529.038	1	8
529.378	1	6
529.718	1	14
530.058	1	5
530.399	1	4
530.739	1	2
531.079	1	0
531.419	1	10
531.760	1	-2
532.100	1	18
532.440	1	15
532.780	1	6
533.120	1	12
533.461	1	0
533.801	1	21
534.141	1	12
534.481	1	1
534.821	1	11
535.162	1	9
535.502	1	4
535.842	1	5
536.182	1	8
536.522	1	-1
536.862	1	0
537.203	1	3
537.543	1	12
537.883	1	0
538.223	1	16
538.563	1	7
538.903	1	9
539.243	1	19
539.584	1	14
539.924	1	3
540.264	1	4
540.604	1	12
540.944	1	11
541.284	1	8
541.624	1	4
541.964	1	1
542.305	1	11
542.645	1	4
542.985	1	3
543.325	1	2
543.665	1	5
544.005	1	17
544.345	1	5
544.685	1	7
545.025	1	-13
545.365	1	11
545.705	1	1
546.045	1	11
546.386	1	6
546.726	1	-1
547.066	1	7
547.406	1	-5
547.746	1	12
548.086	1	-1
548.426	1	9
548.766	1	2
549.106	1	-6
549.446	1	4
549.786	1	5
550.126	1	13
550.466	1	9
550.806	1	6
551.146	1	0
551.486	1	4
551.826	1	6
552.166	1	2
552.506	1	-2
552.846	1	-1
553.186	1	0
553.526	1	4
553.866	1	-3
554.206	1	1
554.546	1	2
554.886	1	2
555.226	1	7
555.566	1	2
555.906	1	-5
556.246	1	0
556.586	1	4
556.926	1	6
557.266	1	8
557.606	1	-1
557.946	1	10
558.286	1	21
558.626	1	0
558.966	1	3
559.306	1	1
559.646	1	9
559.986	1	2
560.325	1	-8
560.665	1	1
561.005	1	2
561.345	1	7
561.685	1	8
562.025	1	3
562.365	1	5
562.705	1	11
563.045	1	-6
563.385	1	7
563.725	1	-3
564.064	1	10
564.404	1	2
564.744	1	1
565.084	1	3
565.424	1	-4
565.764	1	2
566.104	1	2
566.444	1	18
566.783	1	5
567.123	1	-3
567.463	1	-4
567.803	1	4
568.143	1	17
568.483	1	9
568.823	1	5
569.162	1	4
569.502	1	7
569.842	1	-1
570.182	1	0
570.522	1	-12
570.862	1	23
571.201	1	4
571.541	1	-1
571.881	1	4
572.221	1	7
572.561	1	9
572.900	1	1
573.240	1	3
573.580	1	1
573.920	1	16
574.260	1	7
574.599	1	15
574.939	1	18
575.279	1	-5
575.619	1	8
575.959	1	10
576.298	1	8
576.638	1	0
576.978	1	-5
577.318	1	8
577.657	1	11
577.997	1	12
578.337	1	-1
578.677	1	9
579.016	1	-4
579.356	1	8
579.696	1	-5
580.036	1	6
580.375	1	-2
580.715	1	3
581.055	1	2
581.394	1	4
581.734	1	14
582.074	1	1
582.414	1	-1
582.753	1	4
583.093	1	5
583.433	1	5
583.772	1	7
584.112	1	8
584.452	1	15
584.791	1	9
585.131	1	13
585.471	1	7
585.811	1	0
586.150	1	13
586.490	1	9
586.830	1	-5
587.169	1	6
587.509	1	-8
587.849	1	4
588.188	1	8
588.528	1	12
588.867	1	2
589.207	1	4
589.547	1	-3
589.886	1	3
590.226	1	13
590.566	1	-1
590.905	1	2
591.245	1	1
591.585	1	5
591.924	1	6
592.264	1	-1
592.603	1	5
592.943	1	0
593.283	1	-5
593.622	1	1
593.962	1	11
594.301	1	-3
594.641	1	9
594.981	1	-9
595.320	1	15
595.660	1	9
595.999	1	11
596.339	1	5
596.678	1	0
597.018	1	7
597.358	1	-4
597.697	1	2
598.037	1	1
598.376	1	7
598.716	1	6
599.055	1	-9
599.395	1	-2
599.734	1	3
600.074	1	2
600.413	1	2
600.753	1	5
601.092	1	1
601.432	1	-4
601.771	1	5
602.111	1	7
602.451	1	9
602.790	1	-4
603.130	1	1
603.469	1	3
603.809	1	0
604.148	1	6
604.487	1	15
604.827	1	-6
605.166	1	12
605.506	1	3
605.845	1	-8
606.185	1	8
606.524	1	7
606.864	1	16
607.203	1	-4
607.543	1	5
607.882	1	12
608.222	1	-7
608.561	1	8
608.901	1	9
609.240	1	-4
609.579	1	8
609.919	1	18
610.258	1	3
610.598	1	-5
610.937	1	13
611.277	1	7
611.616	1	-2
611.955	1	-3
612.295	1	5
612.634	1	0
612.974	1	9
613.313	1	1
613.652	1	-1
613.992	1	2
614.331	1	10
614.671	1	-7
615.010	1	3
615.349	1	3
615.689	1	15
616.028	1	4
616.368	1	-1
616.707	1	7
617.046	1	2
617.386	1	4
617.725	1	3
618.064	1	6
618.404	1	4
618.743	1	14
619.082	1	1
619.422	1	2
619.761	1	5
620.100	1	1
620.440	1	4
620.779	1	3
621.118	1	1
621.458	1	3
621.797	1	5
622.136	1	1
622.476	1	6
622.815	1	-9
623.154	1	-1
623.494	1	-1
623.833	1	13
624.172	1	-3
624.511	1	-2
624.851	1	0
625.190	1	-7
625.529	1	0
625.869	1	-2
626.208	1	-4
626.547	1	3
626.886	1	1
627.226	1	8
627.565	1	-1
627.904	1	13
628.243	1	11
628.583	1	-4
628.922	1	-2
629.261	1	-9
629.600	1	2
629.940	1	2
630.279	1	5
630.618	1	-2
630.957	1	7
631.297	1	1
631.636	1	12
631.975	1	1
632.314	1	4
632.653	1	-1
632.993	1	10
633.332	1	2
633.671	1	-1
634.010	1	-15
634.349	1	-8
634.689	1	11
635.028	1	10
635.367	1	4
635.706	1	-1
636.045	1	18
636.384	1	6
636.724	1	8
637.063	1	6
637.402	1	-9
637.741	1	9
638.080	1	6
638.419	1	5
638.759	1	5
639.098	1	-4
639.437	1	5
639.776	1	-11
640.115	1	13
640.454	1	-1
640.793	1	-4
641.132	1	7
641.472	1	4
641.811	1	-1
642.150	1	-13
642.489	1	4
642.828	1	1
643.167	1	1
643.506	1	12
643.845	1	-1
644.184	1	4
644.524	1	3
644.863	1	1
645.202	1	5
645.541	1	3
645.880	1	7
646.219	1	3
646.558	1	1
646.897	1	-2
647.236	1	-4
647.575	1	7
647.914	1	-7
648.253	1	9
648.592	1	-3
648.931	1	6
649.270	1	1
649.610	1	5
649.949	1	11
650.288	1	6
650.627	1	5
650.966	1	-2
651.305	1	6
651.644	1	0
651.983	1	-7
652.322	1	-5
652.661	1	-1
653.000	1	2
653.339	1	7
653.678	1	-4
654.017	1	-6
654.356	1	2
654.695	1	1
655.034	1	4
655.373	1	6
655.712	1	0
656.051	1	1
656.390	1	-2
656.729	1	4
657.068	1	2
657.406	1	4
657.745	1	-4
658.084	1	3
658.423	1	2
658.762	1	17
659.101	1	12
659.440	1	5
659.779	1	1
660.118	1	-10
660.457	1	0
660.796	1	11
661.135	1	10
661.474	1	3
661.813	1	2
662.152	1	7
662.491	1	19
662.829	1	14
663.168	1	-8
663.507	1	3
663.846	1	9
664.185	1	6
664.524	1	-6
664.863	1	9
665.202	1	-2
665.541	1	-1
665.879	1	3
666.218	1	9
666.557	1	9
666.896	1	5
667.235	1	-1
667.574	1	9
667.913	1	11
668.251	1	6
668.590	1	-1
668.929	1	15
669.268	1	1
669.607	1	6
669.946	1	7
670.285	1	7
670.623	1	5
670.962	1	3
671.301	1	-2
671.640	1	-6
671.979	1	9
672.317	1	-4
672.656	1	-6
672.995	1	1
673.334	1	-9
673.673	1	5
674.011	1	-2
674.350	1	12
674.689	1	9
675.028	1	6
675.367	1	5
675.705	1	11
676.044	1	-1
676.383	1	-3
676.722	1	2
677.060	1	5
677.399	1	8
677.738	1	-6
678.077	1	1
678.416	1	11
678.754	1	3
679.093	1	4
679.432	1	3
679.771	1	5
680.109	1	-3
680.448	1	-1
680.787	1	5
681.125	1	5
681.464	1	4
681.803	1	-1
682.142	1	-4
682.480	1	9
682.819	1	-2
683.158	1	0
683.496	1	-2
683.835	1	-6
684.174	1	7
684.512	1	10
684.851	1	-7
685.190	1	-6
685.529	1	-5
685.867	1	1
686.206	1	12
686.545	1	1
686.883	1	-3
687.222	1	6
687.561	1	3
687.899	1	5
688.238	1	1
688.577	1	-3
688.746	1	0