File: Data/GaN_130K_350ms/GaN_sample F_spot6_UVVIS_130 K_200um_350 ms 2x2mm1_262.txt
340.368	1	5
340.710	1	10
341.052	1	-8
341.394	1	6
341.737	1	3
342.079	1	-1
342.421	1	4
342.763	1	7
343.105	1	3
343.447	1	10
343.789	1	-4
344.131	1	5
344.473	1	0
344.815	1	-10
345.157	1	-5
345.499	1	-4
345.841	1	-2
346.183	1	4
346.526	1	2
346.868	1	0
347.210	1	3
347.552	1	0
347.894	1	1
348.236	1	-4
348.578	1	0
348.920	1	6
349.262	1	5
349.604	1	5
349.946	1	7
350.288	1	-4
350.630	1	1
350.972	1	9
351.314	1	0
351.656	1	8
351.998	1	4
352.340	1	18
352.682	1	3
353.024	1	-3
353.366	1	6
353.708	1	0
354.050	1	6
354.392	1	7
354.734	1	1
355.076	1	1
355.418	1	2
355.760	1	1
356.102	1	-5
356.444	1	-5
356.785	1	4
357.127	1	4
357.469	1	-5
357.811	1	5
358.153	1	4
358.495	1	1
358.837	1	8
359.179	1	3
359.521	1	2
359.863	1	5
360.205	1	7
360.547	1	4
360.889	1	-5
361.231	1	-1
361.572	1	9
361.914	1	7
362.256	1	-4
362.598	1	6
362.940	1	-8
363.282	1	17
363.624	1	3
363.966	1	13
364.308	1	9
364.649	1	19
364.991	1	13
365.333	1	7
365.675	1	7
366.017	1	10
366.359	1	10
366.701	1	6
367.042	1	8
367.384	1	20
367.726	1	14
368.068	1	-2
368.410	1	2
368.752	1	19
369.093	1	13
369.435	1	9
369.777	1	18
370.119	1	5
370.461	1	3
370.803	1	10
371.144	1	14
371.486	1	12
371.828	1	5
372.170	1	5
372.512	1	5
372.853	1	-1
373.195	1	-1
373.537	1	8
373.879	1	14
374.220	1	3
374.562	1	1
374.904	1	5
375.246	1	10
375.588	1	5
375.929	1	-6
376.271	1	10
376.613	1	1
376.955	1	4
377.296	1	7
377.638	1	-2
377.980	1	-6
378.321	1	1
378.663	1	6
379.005	1	17
379.347	1	-1
379.688	1	3
380.030	1	8
380.372	1	2
380.714	1	16
381.055	1	1
381.397	1	3
381.739	1	4
382.080	1	-6
382.422	1	5
382.764	1	6
383.105	1	2
383.447	1	0
383.789	1	9
384.130	1	0
384.472	1	10
384.814	1	-2
385.156	1	8
385.497	1	7
385.839	1	6
386.180	1	8
386.522	1	-4
386.864	1	0
387.205	1	12
387.547	1	-4
387.889	1	-3
388.230	1	-2
388.572	1	16
388.914	1	0
389.255	1	6
389.597	1	-7
389.939	1	5
390.280	1	11
390.622	1	-2
390.963	1	7
391.305	1	-4
391.647	1	4
391.988	1	5
392.330	1	7
392.671	1	-5
393.013	1	3
393.355	1	-3
393.696	1	-1
394.038	1	12
394.379	1	10
394.721	1	-2
395.062	1	-5
395.404	1	-6
395.746	1	7
396.087	1	5
396.429	1	10
396.770	1	10
397.112	1	2
397.453	1	8
397.795	1	0
398.136	1	5
398.478	1	1
398.819	1	-7
399.161	1	12
399.503	1	12
399.844	1	-3
400.186	1	-3
400.527	1	6
400.869	1	6
401.210	1	-7
401.552	1	15
401.893	1	-9
402.235	1	4
402.576	1	4
402.918	1	8
403.259	1	-16
403.601	1	13
403.942	1	4
404.284	1	8
404.625	1	6
404.967	1	-5
405.308	1	-11
405.649	1	-1
405.991	1	10
406.332	1	10
406.674	1	12
407.015	1	11
407.357	1	6
407.698	1	3
408.040	1	4
408.381	1	2
408.722	1	9
409.064	1	0
409.405	1	9
409.747	1	2
410.088	1	1
410.430	1	20
410.771	1	-11
411.112	1	8
411.454	1	3
411.795	1	4
412.137	1	-1
412.478	1	10
412.819	1	5
413.161	1	6
413.502	1	15
413.844	1	0
414.185	1	10
414.526	1	8
414.868	1	13
415.209	1	5
415.550	1	1
415.892	1	10
416.233	1	10
416.575	1	10
416.916	1	6
417.257	1	5
417.599	1	5
417.940	1	1
418.281	1	11
418.623	1	4
418.964	1	0
419.305	1	-2
419.647	1	10
419.988	1	6
420.329	1	12
420.671	1	2
421.012	1	6
421.353	1	-2
421.695	1	2
422.036	1	10
422.377	1	6
422.718	1	7
423.060	1	2
423.401	1	9
423.742	1	10
424.084	1	6
424.425	1	5
424.766	1	6
425.107	1	9
425.449	1	8
425.790	1	10
426.131	1	7
426.472	1	3
426.814	1	2
427.155	1	-7
427.496	1	6
427.837	1	-5
428.179	1	4
428.520	1	-1
428.861	1	4
429.202	1	3
429.544	1	8
429.885	1	11
430.226	1	-4
430.567	1	-7
430.909	1	4
431.250	1	7
431.591	1	-1
431.932	1	-5
432.273	1	3
432.615	1	12
432.956	1	2
433.297	1	14
433.638	1	6
433.979	1	3
434.320	1	0
434.662	1	12
435.003	1	14
435.344	1	4
435.685	1	-4
436.026	1	3
436.368	1	-2
436.709	1	2
437.050	1	6
437.391	1	14
437.732	1	8
438.073	1	6
438.414	1	-1
438.756	1	0
439.097	1	6
439.438	1	14
439.779	1	10
440.120	1	6
440.461	1	11
440.802	1	-3
441.143	1	-4
441.485	1	7
441.826	1	3
442.167	1	5
442.508	1	0
442.849	1	3
443.190	1	-1
443.531	1	11
443.872	1	-2
444.213	1	0
444.554	1	2
444.895	1	4
445.237	1	8
445.578	1	-1
445.919	1	1
446.260	1	6
446.601	1	1
446.942	1	2
447.283	1	10
447.624	1	1
447.965	1	-6
448.306	1	4
448.647	1	17
448.988	1	5
449.329	1	-1
449.670	1	-7
450.011	1	4
450.352	1	3
450.693	1	-3
451.034	1	-3
451.375	1	5
451.716	1	-3
452.057	1	12
452.398	1	5
452.739	1	7
453.080	1	-2
453.421	1	8
453.762	1	10
454.103	1	5
454.444	1	2
454.785	1	1
455.126	1	0
455.467	1	1
455.808	1	10
456.149	1	-6
456.490	1	6
456.831	1	4
457.172	1	-1
457.513	1	-3
457.854	1	3
458.195	1	-8
458.536	1	4
458.877	1	16
459.218	1	11
459.559	1	9
459.899	1	-3
460.240	1	16
460.581	1	1
460.922	1	-4
461.263	1	13
461.604	1	1
461.945	1	3
462.286	1	5
462.627	1	-3
462.968	1	0
463.309	1	0
463.649	1	-3
463.990	1	4
464.331	1	7
464.672	1	4
465.013	1	-3
465.354	1	7
465.695	1	15
466.036	1	10
466.376	1	4
466.717	1	10
467.058	1	3
467.399	1	3
467.740	1	15
468.081	1	13
468.422	1	2
468.762	1	-7
469.103	1	10
469.444	1	8
469.785	1	5
470.126	1	-8
470.467	1	7
470.807	1	5
471.148	1	7
471.489	1	-5
471.830	1	8
472.171	1	0
472.511	1	0
472.852	1	12
473.193	1	6
473.534	1	9
473.875	1	16
474.215	1	1
474.556	1	6
474.897	1	-5
475.238	1	15
475.578	1	8
475.919	1	4
476.260	1	8
476.601	1	-2
476.942	1	7
477.282	1	2
477.623	1	-3
477.964	1	-1
478.305	1	12
478.645	1	-5
478.986	1	0
479.327	1	1
479.667	1	2
480.008	1	1
480.349	1	-1
480.690	1	5
481.030	1	4
481.371	1	4
481.712	1	5
482.053	1	5
482.393	1	3
482.734	1	-3
483.075	1	15
483.415	1	-1
483.756	1	8
484.097	1	-9
484.437	1	-4
484.778	1	17
485.119	1	16
485.459	1	-9
485.800	1	13
486.141	1	0
486.481	1	5
486.822	1	5
487.163	1	8
487.503	1	0
487.844	1	-5
488.185	1	0
488.525	1	4
488.866	1	-1
489.207	1	-5
489.547	1	-1
489.888	1	14
490.228	1	14
490.569	1	5
490.910	1	3
491.250	1	6
491.591	1	-1
491.932	1	1
492.272	1	2
492.613	1	-3
492.953	1	3
493.294	1	5
493.635	1	4
493.975	1	6
494.316	1	3
494.656	1	-4
494.997	1	-3
495.337	1	2
495.678	1	-11
496.019	1	-6
496.359	1	0
496.700	1	10
497.040	1	7
497.381	1	0
497.721	1	6
498.062	1	-3
498.403	1	-8
498.743	1	2
499.084	1	10
499.424	1	-3
499.765	1	6
500.105	1	6
500.446	1	2
500.786	1	5
501.127	1	1
501.467	1	-1
501.808	1	8
502.148	1	-2
502.489	1	2
502.829	1	-2
503.170	1	-1
503.510	1	11
503.851	1	5
504.191	1	1
504.532	1	10
504.872	1	6
505.213	1	-5
505.553	1	12
505.894	1	10
506.234	1	-4
506.575	1	-5
506.915	1	-5
507.256	1	6
507.596	1	-5
507.936	1	2
508.277	1	2
508.617	1	2
508.958	1	15
509.298	1	6
509.639	1	9
509.979	1	-7
510.319	1	15
510.660	1	0
511.000	1	0
511.341	1	-4
511.681	1	3
512.022	1	4
512.362	1	2
512.702	1	10
513.043	1	3
513.383	1	12
513.724	1	-4
514.064	1	-6
514.404	1	17
514.745	1	4
515.085	1	9
515.425	1	2
515.766	1	6
516.106	1	0
516.447	1	-2
516.787	1	-5
517.127	1	0
517.468	1	3
517.808	1	0
518.148	1	6
518.489	1	8
518.829	1	4
519.169	1	5
519.510	1	7
519.850	1	9
520.190	1	16
520.531	1	16
520.871	1	-7
521.211	1	2
521.552	1	-1
521.892	1	6
522.232	1	-2
522.573	1	-7
522.913	1	12
523.253	1	10
523.593	1	9
523.934	1	2
524.274	1	8
524.614	1	2
524.955	1	9
525.295	1	-2
525.635	1	12
525.975	1	14
526.316	1	-6
526.656	1	3
526.996	1	1
527.337	1	13
527.677	1	-4
528.017	1	4
528.357	1	15
528.698	1	-3
529.038	1	-8
529.378	1	-1
529.718	1	6
530.058	1	1
530.399	1	4
530.739	1	12
531.079	1	2
531.419	1	4
531.760	1	-1
532.100	1	10
532.440	1	10
532.780	1	-4
533.120	1	2
533.461	1	-5
533.801	1	12
534.141	1	9
534.481	1	8
534.821	1	-3
535.162	1	11
535.502	1	11
535.842	1	11
536.182	1	12
536.522	1	5
536.862	1	-2
537.203	1	2
537.543	1	10
537.883	1	-5
538.223	1	7
538.563	1	8
538.903	1	17
539.243	1	-2
539.584	1	3
539.924	1	0
540.264	1	4
540.604	1	16
540.944	1	6
541.284	1	6
541.624	1	10
541.964	1	-6
542.305	1	4
542.645	1	-4
542.985	1	11
543.325	1	0
543.665	1	15
544.005	1	2
544.345	1	8
544.685	1	15
545.025	1	9
545.365	1	5
545.705	1	7
546.045	1	0
546.386	1	-6
546.726	1	2
547.066	1	9
547.406	1	-15
547.746	1	14
548.086	1	2
548.426	1	3
548.766	1	6
549.106	1	-7
549.446	1	-3
549.786	1	9
550.126	1	9
550.466	1	11
550.806	1	13
551.146	1	4
551.486	1	3
551.826	1	0
552.166	1	4
552.506	1	7
552.846	1	-3
553.186	1	4
553.526	1	3
553.866	1	-8
554.206	1	5
554.546	1	5
554.886	1	4
555.226	1	6
555.566	1	2
555.906	1	-2
556.246	1	5
556.586	1	-1
556.926	1	1
557.266	1	-1
557.606	1	-2
557.946	1	3
558.286	1	13
558.626	1	-5
558.966	1	0
559.306	1	1
559.646	1	4
559.986	1	8
560.325	1	-5
560.665	1	8
561.005	1	0
561.345	1	1
561.685	1	1
562.025	1	7
562.365	1	5
562.705	1	3
563.045	1	-2
563.385	1	11
563.725	1	-5
564.064	1	7
564.404	1	1
564.744	1	4
565.084	1	-3
565.424	1	-9
565.764	1	6
566.104	1	11
566.444	1	10
566.783	1	10
567.123	1	3
567.463	1	-1
567.803	1	2
568.143	1	2
568.483	1	5
568.823	1	-7
569.162	1	5
569.502	1	5
569.842	1	-3
570.182	1	2
570.522	1	-5
570.862	1	6
571.201	1	0
571.541	1	3
571.881	1	2
572.221	1	2
572.561	1	3
572.900	1	2
573.240	1	-4
573.580	1	-6
573.920	1	5
574.260	1	6
574.599	1	2
574.939	1	7
575.279	1	-3
575.619	1	5
575.959	1	4
576.298	1	-3
576.638	1	-3
576.978	1	-6
577.318	1	12
577.657	1	7
577.997	1	12
578.337	1	13
578.677	1	12
579.016	1	0
579.356	1	4
579.696	1	-2
580.036	1	-5
580.375	1	-1
580.715	1	9
581.055	1	3
581.394	1	4
581.734	1	5
582.074	1	7
582.414	1	-1
582.753	1	7
583.093	1	8
583.433	1	11
583.772	1	2
584.112	1	2
584.452	1	7
584.791	1	5
585.131	1	15
585.471	1	4
585.811	1	-1
586.150	1	7
586.490	1	2
586.830	1	-4
587.169	1	7
587.509	1	6
587.849	1	-2
588.188	1	4
588.528	1	0
588.867	1	5
589.207	1	-5
589.547	1	-1
589.886	1	-7
590.226	1	10
590.566	1	2
590.905	1	6
591.245	1	-2
591.585	1	3
591.924	1	-1
592.264	1	8
592.603	1	-6
592.943	1	2
593.283	1	-2
593.622	1	8
593.962	1	14
594.301	1	-4
594.641	1	6
594.981	1	-9
595.320	1	4
595.660	1	0
595.999	1	9
596.339	1	13
596.678	1	-4
597.018	1	7
597.358	1	-1
597.697	1	1
598.037	1	8
598.376	1	9
598.716	1	6
599.055	1	5
599.395	1	-2
599.734	1	2
600.074	1	5
600.413	1	11
600.753	1	10
601.092	1	2
601.432	1	-9
601.771	1	2
602.111	1	1
602.451	1	3
602.790	1	9
603.130	1	-1
603.469	1	2
603.809	1	0
604.148	1	6
604.487	1	7
604.827	1	-1
605.166	1	10
605.506	1	7
605.845	1	1
606.185	1	7
606.524	1	5
606.864	1	9
607.203	1	-4
607.543	1	3
607.882	1	7
608.222	1	-2
608.561	1	1
608.901	1	8
609.240	1	-8
609.579	1	8
609.919	1	19
610.258	1	-8
610.598	1	6
610.937	1	10
611.277	1	3
611.616	1	-12
611.955	1	-8
612.295	1	14
612.634	1	-7
612.974	1	2
613.313	1	7
613.652	1	-6
613.992	1	4
614.331	1	11
614.671	1	3
615.010	1	-1
615.349	1	6
615.689	1	6
616.028	1	13
616.368	1	1
616.707	1	19
617.046	1	11
617.386	1	0
617.725	1	10
618.064	1	1
618.404	1	-2
618.743	1	4
619.082	1	-1
619.422	1	3
619.761	1	5
620.100	1	-3
620.440	1	-2
620.779	1	0
621.118	1	1
621.458	1	11
621.797	1	1
622.136	1	4
622.476	1	2
622.815	1	-1
623.154	1	-1
623.494	1	11
623.833	1	3
624.172	1	0
624.511	1	1
624.851	1	5
625.190	1	4
625.529	1	2
625.869	1	2
626.208	1	-8
626.547	1	1
626.886	1	0
627.226	1	-8
627.565	1	10
627.904	1	2
628.243	1	1
628.583	1	-2
628.922	1	-3
629.261	1	-6
629.600	1	13
629.940	1	1
630.279	1	7
630.618	1	1
630.957	1	-5
631.297	1	0
631.636	1	7
631.975	1	5
632.314	1	-4
632.653	1	4
632.993	1	6
633.332	1	-5
633.671	1	-3
634.010	1	-4
634.349	1	7
634.689	1	4
635.028	1	10
635.367	1	2
635.706	1	-4
636.045	1	17
636.384	1	-5
636.724	1	-1
637.063	1	-1
637.402	1	-7
637.741	1	10
638.080	1	15
638.419	1	6
638.759	1	-3
639.098	1	1
639.437	1	8
639.776	1	0
640.115	1	5
640.454	1	3
640.793	1	-9
641.132	1	9
641.472	1	4
641.811	1	4
642.150	1	-10
642.489	1	-7
642.828	1	0
643.167	1	6
643.506	1	7
643.845	1	-5
644.184	1	0
644.524	1	-1
644.863	1	1
645.202	1	3
645.541	1	5
645.880	1	0
646.219	1	5
646.558	1	5
646.897	1	1
647.236	1	-4
647.575	1	-1
647.914	1	-3
648.253	1	5
648.592	1	-5
648.931	1	-4
649.270	1	-5
649.610	1	6
649.949	1	4
650.288	1	2
650.627	1	8
650.966	1	13
651.305	1	0
651.644	1	6
651.983	1	-9
652.322	1	5
652.661	1	8
653.000	1	0
653.339	1	-6
653.678	1	-1
654.017	1	-4
654.356	1	12
654.695	1	-1
655.034	1	6
655.373	1	-4
655.712	1	-2
656.051	1	5
656.390	1	-1
656.729	1	-1
657.068	1	-1
657.406	1	0
657.745	1	-2
658.084	1	-1
658.423	1	5
658.762	1	15
659.101	1	4
659.440	1	0
659.779	1	4
660.118	1	-3
660.457	1	2
660.796	1	7
661.135	1	10
661.474	1	8
661.813	1	-2
662.152	1	4
662.491	1	19
662.829	1	7
663.168	1	-5
663.507	1	3
663.846	1	4
664.185	1	0
664.524	1	5
664.863	1	6
665.202	1	-2
665.541	1	-7
665.879	1	0
666.218	1	-3
666.557	1	3
666.896	1	2
667.235	1	8
667.574	1	14
667.913	1	8
668.251	1	0
668.590	1	4
668.929	1	0
669.268	1	-1
669.607	1	3
669.946	1	10
670.285	1	0
670.623	1	10
670.962	1	0
671.301	1	-3
671.640	1	-3
671.979	1	3
672.317	1	-5
672.656	1	-9
672.995	1	-4
673.334	1	-6
673.673	1	4
674.011	1	3
674.350	1	0
674.689	1	9
675.028	1	14
675.367	1	-1
675.705	1	13
676.044	1	3
676.383	1	5
676.722	1	-4
677.060	1	4
677.399	1	3
677.738	1	5
678.077	1	2
678.416	1	6
678.754	1	3
679.093	1	3
679.432	1	4
679.771	1	3
680.109	1	3
680.448	1	0
680.787	1	7
681.125	1	11
681.464	1	-3
681.803	1	-9
682.142	1	-1
682.480	1	14
682.819	1	5
683.158	1	5
683.496	1	0
683.835	1	-3
684.174	1	6
684.512	1	12
684.851	1	-6
685.190	1	4
685.529	1	-2
685.867	1	-9
686.206	1	2
686.545	1	-10
686.883	1	-4
687.222	1	5
687.561	1	0
687.899	1	3
688.238	1	8
688.577	1	4
688.746	1	5