File: Data/GaN_130K_350ms/GaN_sample F_spot6_UVVIS_130 K_200um_350 ms 2x2mm1_200.txt
340.368	1	14
340.710	1	13
341.052	1	0
341.394	1	3
341.737	1	7
342.079	1	6
342.421	1	5
342.763	1	1
343.105	1	3
343.447	1	11
343.789	1	4
344.131	1	4
344.473	1	2
344.815	1	-2
345.157	1	-20
345.499	1	-4
345.841	1	-9
346.183	1	6
346.526	1	-5
346.868	1	6
347.210	1	0
347.552	1	-2
347.894	1	0
348.236	1	-1
348.578	1	6
348.920	1	4
349.262	1	7
349.604	1	7
349.946	1	2
350.288	1	-7
350.630	1	13
350.972	1	1
351.314	1	-5
351.656	1	9
351.998	1	1
352.340	1	14
352.682	1	6
353.024	1	-1
353.366	1	5
353.708	1	-7
354.050	1	11
354.392	1	6
354.734	1	4
355.076	1	-3
355.418	1	10
355.760	1	-1
356.102	1	-7
356.444	1	-8
356.785	1	1
357.127	1	11
357.469	1	2
357.811	1	1
358.153	1	-1
358.495	1	11
358.837	1	3
359.179	1	2
359.521	1	-1
359.863	1	3
360.205	1	4
360.547	1	-1
360.889	1	9
361.231	1	1
361.572	1	11
361.914	1	4
362.256	1	7
362.598	1	3
362.940	1	6
363.282	1	18
363.624	1	9
363.966	1	23
364.308	1	17
364.649	1	9
364.991	1	18
365.333	1	13
365.675	1	16
366.017	1	15
366.359	1	21
366.701	1	21
367.042	1	31
367.384	1	20
367.726	1	15
368.068	1	13
368.410	1	3
368.752	1	32
369.093	1	16
369.435	1	15
369.777	1	21
370.119	1	26
370.461	1	20
370.803	1	11
371.144	1	14
371.486	1	6
371.828	1	14
372.170	1	14
372.512	1	9
372.853	1	5
373.195	1	13
373.537	1	13
373.879	1	21
374.220	1	9
374.562	1	6
374.904	1	20
375.246	1	18
375.588	1	7
375.929	1	0
376.271	1	10
376.613	1	11
376.955	1	14
377.296	1	7
377.638	1	-5
377.980	1	4
378.321	1	13
378.663	1	10
379.005	1	19
379.347	1	4
379.688	1	3
380.030	1	9
380.372	1	12
380.714	1	16
381.055	1	8
381.397	1	3
381.739	1	10
382.080	1	-6
382.422	1	17
382.764	1	6
383.105	1	13
383.447	1	6
383.789	1	8
384.130	1	9
384.472	1	10
384.814	1	8
385.156	1	11
385.497	1	-2
385.839	1	8
386.180	1	12
386.522	1	6
386.864	1	16
387.205	1	3
387.547	1	4
387.889	1	4
388.230	1	2
388.572	1	5
388.914	1	4
389.255	1	6
389.597	1	-8
389.939	1	3
390.280	1	5
390.622	1	4
390.963	1	13
391.305	1	10
391.647	1	8
391.988	1	9
392.330	1	3
392.671	1	6
393.013	1	3
393.355	1	11
393.696	1	-2
394.038	1	12
394.379	1	15
394.721	1	7
395.062	1	-2
395.404	1	-8
395.746	1	15
396.087	1	12
396.429	1	6
396.770	1	2
397.112	1	7
397.453	1	18
397.795	1	-4
398.136	1	5
398.478	1	4
398.819	1	-1
399.161	1	11
399.503	1	13
399.844	1	-2
400.186	1	-8
400.527	1	8
400.869	1	8
401.210	1	-3
401.552	1	12
401.893	1	-10
402.235	1	10
402.576	1	11
402.918	1	11
403.259	1	4
403.601	1	4
403.942	1	0
404.284	1	15
404.625	1	8
404.967	1	0
405.308	1	-1
405.649	1	5
405.991	1	5
406.332	1	19
406.674	1	15
407.015	1	-2
407.357	1	8
407.698	1	6
408.040	1	9
408.381	1	12
408.722	1	3
409.064	1	7
409.405	1	9
409.747	1	2
410.088	1	11
410.430	1	17
410.771	1	-11
411.112	1	10
411.454	1	6
411.795	1	7
412.137	1	5
412.478	1	0
412.819	1	10
413.161	1	9
413.502	1	20
413.844	1	14
414.185	1	3
414.526	1	13
414.868	1	-9
415.209	1	5
415.550	1	2
415.892	1	9
416.233	1	3
416.575	1	17
416.916	1	2
417.257	1	5
417.599	1	5
417.940	1	10
418.281	1	7
418.623	1	11
418.964	1	-3
419.305	1	2
419.647	1	6
419.988	1	21
420.329	1	8
420.671	1	2
421.012	1	-1
421.353	1	-1
421.695	1	4
422.036	1	10
422.377	1	9
422.718	1	7
423.060	1	9
423.401	1	16
423.742	1	9
424.084	1	7
424.425	1	6
424.766	1	2
425.107	1	6
425.449	1	10
425.790	1	14
426.131	1	17
426.472	1	0
426.814	1	11
427.155	1	-4
427.496	1	12
427.837	1	9
428.179	1	2
428.520	1	14
428.861	1	-3
429.202	1	10
429.544	1	11
429.885	1	7
430.226	1	7
430.567	1	4
430.909	1	-1
431.250	1	8
431.591	1	3
431.932	1	4
432.273	1	9
432.615	1	15
432.956	1	5
433.297	1	12
433.638	1	12
433.979	1	3
434.320	1	4
434.662	1	4
435.003	1	15
435.344	1	12
435.685	1	-6
436.026	1	8
436.368	1	6
436.709	1	7
437.050	1	15
437.391	1	9
437.732	1	-2
438.073	1	7
438.414	1	-9
438.756	1	3
439.097	1	6
439.438	1	6
439.779	1	9
440.120	1	7
440.461	1	24
440.802	1	-3
441.143	1	0
441.485	1	12
441.826	1	3
442.167	1	-3
442.508	1	1
442.849	1	16
443.190	1	6
443.531	1	5
443.872	1	11
444.213	1	3
444.554	1	8
444.895	1	5
445.237	1	-5
445.578	1	1
445.919	1	-1
446.260	1	-2
446.601	1	0
446.942	1	6
447.283	1	6
447.624	1	8
447.965	1	2
448.306	1	9
448.647	1	15
448.988	1	8
449.329	1	6
449.670	1	-3
450.011	1	-5
450.352	1	18
450.693	1	7
451.034	1	-5
451.375	1	4
451.716	1	-2
452.057	1	23
452.398	1	0
452.739	1	10
453.080	1	1
453.421	1	9
453.762	1	6
454.103	1	1
454.444	1	4
454.785	1	11
455.126	1	-7
455.467	1	3
455.808	1	14
456.149	1	-2
456.490	1	4
456.831	1	6
457.172	1	10
457.513	1	-5
457.854	1	10
458.195	1	-5
458.536	1	6
458.877	1	19
459.218	1	1
459.559	1	1
459.899	1	-6
460.240	1	13
460.581	1	-9
460.922	1	3
461.263	1	7
461.604	1	-9
461.945	1	10
462.286	1	11
462.627	1	10
462.968	1	-1
463.309	1	5
463.649	1	-1
463.990	1	6
464.331	1	10
464.672	1	4
465.013	1	-9
465.354	1	0
465.695	1	16
466.036	1	4
466.376	1	-4
466.717	1	2
467.058	1	20
467.399	1	-1
467.740	1	19
468.081	1	10
468.422	1	9
468.762	1	-2
469.103	1	-1
469.444	1	2
469.785	1	11
470.126	1	-2
470.467	1	13
470.807	1	9
471.148	1	0
471.489	1	-4
471.830	1	3
472.171	1	10
472.511	1	-5
472.852	1	13
473.193	1	0
473.534	1	7
473.875	1	11
474.215	1	8
474.556	1	2
474.897	1	-3
475.238	1	14
475.578	1	2
475.919	1	-10
476.260	1	1
476.601	1	9
476.942	1	13
477.282	1	8
477.623	1	-2
477.964	1	-8
478.305	1	7
478.645	1	7
478.986	1	-7
479.327	1	1
479.667	1	3
480.008	1	2
480.349	1	-1
480.690	1	8
481.030	1	2
481.371	1	7
481.712	1	9
482.053	1	-2
482.393	1	5
482.734	1	6
483.075	1	13
483.415	1	-8
483.756	1	2
484.097	1	4
484.437	1	4
484.778	1	7
485.119	1	6
485.459	1	-3
485.800	1	4
486.141	1	5
486.481	1	-7
486.822	1	6
487.163	1	-2
487.503	1	-2
487.844	1	-7
488.185	1	3
488.525	1	5
488.866	1	-4
489.207	1	2
489.547	1	4
489.888	1	7
490.228	1	1
490.569	1	2
490.910	1	-5
491.250	1	10
491.591	1	2
491.932	1	3
492.272	1	2
492.613	1	-5
492.953	1	4
493.294	1	15
493.635	1	11
493.975	1	7
494.316	1	13
494.656	1	-2
494.997	1	10
495.337	1	1
495.678	1	3
496.019	1	0
496.359	1	10
496.700	1	3
497.040	1	5
497.381	1	3
497.721	1	-3
498.062	1	4
498.403	1	-2
498.743	1	13
499.084	1	17
499.424	1	-6
499.765	1	-1
500.105	1	5
500.446	1	8
500.786	1	14
501.127	1	5
501.467	1	4
501.808	1	2
502.148	1	4
502.489	1	18
502.829	1	-2
503.170	1	-3
503.510	1	10
503.851	1	0
504.191	1	15
504.532	1	7
504.872	1	-2
505.213	1	1
505.553	1	12
505.894	1	12
506.234	1	4
506.575	1	8
506.915	1	5
507.256	1	13
507.596	1	3
507.936	1	6
508.277	1	2
508.617	1	-2
508.958	1	15
509.298	1	5
509.639	1	11
509.979	1	1
510.319	1	16
510.660	1	-3
511.000	1	10
511.341	1	0
511.681	1	12
512.022	1	14
512.362	1	-2
512.702	1	15
513.043	1	7
513.383	1	8
513.724	1	2
514.064	1	5
514.404	1	13
514.745	1	8
515.085	1	14
515.425	1	5
515.766	1	10
516.106	1	13
516.447	1	1
516.787	1	10
517.127	1	4
517.468	1	10
517.808	1	5
518.148	1	11
518.489	1	8
518.829	1	16
519.169	1	6
519.510	1	4
519.850	1	12
520.190	1	16
520.531	1	6
520.871	1	1
521.211	1	13
521.552	1	6
521.892	1	9
522.232	1	3
522.573	1	-2
522.913	1	13
523.253	1	5
523.593	1	16
523.934	1	11
524.274	1	-1
524.614	1	8
524.955	1	8
525.295	1	6
525.635	1	-4
525.975	1	17
526.316	1	7
526.656	1	11
526.996	1	-5
527.337	1	19
527.677	1	3
528.017	1	9
528.357	1	11
528.698	1	2
529.038	1	-1
529.378	1	14
529.718	1	7
530.058	1	1
530.399	1	15
530.739	1	9
531.079	1	11
531.419	1	7
531.760	1	3
532.100	1	4
532.440	1	15
532.780	1	5
533.120	1	19
533.461	1	6
533.801	1	8
534.141	1	17
534.481	1	6
534.821	1	10
535.162	1	13
535.502	1	11
535.842	1	8
536.182	1	18
536.522	1	-3
536.862	1	4
537.203	1	0
537.543	1	16
537.883	1	-1
538.223	1	10
538.563	1	14
538.903	1	18
539.243	1	-1
539.584	1	10
539.924	1	-1
540.264	1	-4
540.604	1	23
540.944	1	15
541.284	1	6
541.624	1	9
541.964	1	8
542.305	1	12
542.645	1	7
542.985	1	3
543.325	1	-1
543.665	1	12
544.005	1	16
544.345	1	11
544.685	1	10
545.025	1	-4
545.365	1	10
545.705	1	1
546.045	1	8
546.386	1	7
546.726	1	0
547.066	1	9
547.406	1	-7
547.746	1	18
548.086	1	-3
548.426	1	10
548.766	1	12
549.106	1	7
549.446	1	-2
549.786	1	4
550.126	1	21
550.466	1	9
550.806	1	13
551.146	1	14
551.486	1	7
551.826	1	-1
552.166	1	12
552.506	1	6
552.846	1	4
553.186	1	8
553.526	1	11
553.866	1	-1
554.206	1	6
554.546	1	4
554.886	1	1
555.226	1	8
555.566	1	2
555.906	1	-1
556.246	1	0
556.586	1	13
556.926	1	0
557.266	1	6
557.606	1	-4
557.946	1	8
558.286	1	10
558.626	1	0
558.966	1	7
559.306	1	3
559.646	1	12
559.986	1	10
560.325	1	0
560.665	1	6
561.005	1	8
561.345	1	17
561.685	1	9
562.025	1	-6
562.365	1	3
562.705	1	9
563.045	1	-2
563.385	1	10
563.725	1	4
564.064	1	12
564.404	1	7
564.744	1	-2
565.084	1	6
565.424	1	1
565.764	1	-6
566.104	1	-1
566.444	1	16
566.783	1	14
567.123	1	-3
567.463	1	9
567.803	1	10
568.143	1	8
568.483	1	8
568.823	1	-8
569.162	1	9
569.502	1	1
569.842	1	3
570.182	1	4
570.522	1	-4
570.862	1	19
571.201	1	1
571.541	1	5
571.881	1	5
572.221	1	21
572.561	1	3
572.900	1	2
573.240	1	2
573.580	1	5
573.920	1	4
574.260	1	2
574.599	1	13
574.939	1	18
575.279	1	-3
575.619	1	5
575.959	1	9
576.298	1	11
576.638	1	-10
576.978	1	-4
577.318	1	10
577.657	1	18
577.997	1	6
578.337	1	6
578.677	1	13
579.016	1	-6
579.356	1	19
579.696	1	-6
580.036	1	2
580.375	1	2
580.715	1	15
581.055	1	7
581.394	1	-3
581.734	1	4
582.074	1	-6
582.414	1	1
582.753	1	14
583.093	1	4
583.433	1	11
583.772	1	8
584.112	1	2
584.452	1	14
584.791	1	9
585.131	1	14
585.471	1	-3
585.811	1	6
586.150	1	2
586.490	1	4
586.830	1	-9
587.169	1	7
587.509	1	9
587.849	1	4
588.188	1	4
588.528	1	11
588.867	1	11
589.207	1	-2
589.547	1	-1
589.886	1	6
590.226	1	19
590.566	1	-2
590.905	1	9
591.245	1	-3
591.585	1	11
591.924	1	5
592.264	1	1
592.603	1	6
592.943	1	-3
593.283	1	1
593.622	1	11
593.962	1	8
594.301	1	-8
594.641	1	0
594.981	1	-8
595.320	1	5
595.660	1	7
595.999	1	15
596.339	1	5
596.678	1	-6
597.018	1	0
597.358	1	0
597.697	1	3
598.037	1	8
598.376	1	6
598.716	1	8
599.055	1	4
599.395	1	-4
599.734	1	0
600.074	1	5
600.413	1	16
600.753	1	8
601.092	1	3
601.432	1	-6
601.771	1	11
602.111	1	3
602.451	1	6
602.790	1	3
603.130	1	8
603.469	1	3
603.809	1	4
604.148	1	12
604.487	1	17
604.827	1	1
605.166	1	5
605.506	1	9
605.845	1	0
606.185	1	1
606.524	1	3
606.864	1	11
607.203	1	1
607.543	1	2
607.882	1	13
608.222	1	-9
608.561	1	3
608.901	1	6
609.240	1	-3
609.579	1	9
609.919	1	4
610.258	1	5
610.598	1	1
610.937	1	14
611.277	1	7
611.616	1	-4
611.955	1	-1
612.295	1	10
612.634	1	-2
612.974	1	-2
613.313	1	-2
613.652	1	-8
613.992	1	6
614.331	1	2
614.671	1	3
615.010	1	-2
615.349	1	5
615.689	1	14
616.028	1	13
616.368	1	2
616.707	1	14
617.046	1	10
617.386	1	-1
617.725	1	-1
618.064	1	8
618.404	1	-3
618.743	1	14
619.082	1	9
619.422	1	-2
619.761	1	6
620.100	1	-3
620.440	1	1
620.779	1	3
621.118	1	5
621.458	1	6
621.797	1	-1
622.136	1	0
622.476	1	7
622.815	1	4
623.154	1	3
623.494	1	8
623.833	1	1
624.172	1	13
624.511	1	9
624.851	1	-8
625.190	1	1
625.529	1	3
625.869	1	3
626.208	1	-7
626.547	1	7
626.886	1	4
627.226	1	2
627.565	1	2
627.904	1	10
628.243	1	3
628.583	1	-4
628.922	1	-7
629.261	1	-2
629.600	1	1
629.940	1	14
630.279	1	5
630.618	1	1
630.957	1	5
631.297	1	2
631.636	1	14
631.975	1	3
632.314	1	-4
632.653	1	-5
632.993	1	3
633.332	1	-3
633.671	1	-9
634.010	1	-5
634.349	1	4
634.689	1	22
635.028	1	7
635.367	1	7
635.706	1	7
636.045	1	14
636.384	1	-1
636.724	1	5
637.063	1	-2
637.402	1	-3
637.741	1	16
638.080	1	13
638.419	1	6
638.759	1	3
639.098	1	-13
639.437	1	3
639.776	1	-2
640.115	1	7
640.454	1	9
640.793	1	-6
641.132	1	14
641.472	1	-7
641.811	1	2
642.150	1	-9
642.489	1	3
642.828	1	8
643.167	1	5
643.506	1	7
643.845	1	-4
644.184	1	-3
644.524	1	1
644.863	1	3
645.202	1	6
645.541	1	-2
645.880	1	5
646.219	1	3
646.558	1	0
646.897	1	10
647.236	1	-5
647.575	1	2
647.914	1	-7
648.253	1	1
648.592	1	6
648.931	1	-9
649.270	1	-8
649.610	1	5
649.949	1	7
650.288	1	10
650.627	1	7
650.966	1	7
651.305	1	0
651.644	1	10
651.983	1	-12
652.322	1	-3
652.661	1	-6
653.000	1	0
653.339	1	4
653.678	1	3
654.017	1	-8
654.356	1	-3
654.695	1	4
655.034	1	-3
655.373	1	2
655.712	1	3
656.051	1	-1
656.390	1	7
656.729	1	6
657.068	1	0
657.406	1	0
657.745	1	5
658.084	1	7
658.423	1	5
658.762	1	17
659.101	1	9
659.440	1	-2
659.779	1	3
660.118	1	0
660.457	1	-1
660.796	1	1
661.135	1	12
661.474	1	10
661.813	1	-3
662.152	1	-1
662.491	1	8
662.829	1	10
663.168	1	-5
663.507	1	-2
663.846	1	-3
664.185	1	2
664.524	1	-11
664.863	1	6
665.202	1	-7
665.541	1	-1
665.879	1	5
666.218	1	12
666.557	1	8
666.896	1	-3
667.235	1	14
667.574	1	24
667.913	1	12
668.251	1	4
668.590	1	3
668.929	1	9
669.268	1	-8
669.607	1	7
669.946	1	13
670.285	1	12
670.623	1	14
670.962	1	1
671.301	1	-1
671.640	1	-2
671.979	1	-5
672.317	1	2
672.656	1	5
672.995	1	2
673.334	1	-2
673.673	1	7
674.011	1	1
674.350	1	3
674.689	1	6
675.028	1	8
675.367	1	-7
675.705	1	16
676.044	1	8
676.383	1	12
676.722	1	4
677.060	1	4
677.399	1	-1
677.738	1	-2
678.077	1	11
678.416	1	3
678.754	1	8
679.093	1	0
679.432	1	0
679.771	1	-4
680.109	1	0
680.448	1	11
680.787	1	8
681.125	1	10
681.464	1	3
681.803	1	-2
682.142	1	2
682.480	1	7
682.819	1	5
683.158	1	2
683.496	1	-3
683.835	1	3
684.174	1	6
684.512	1	10
684.851	1	-5
685.190	1	0
685.529	1	-3
685.867	1	-1
686.206	1	7
686.545	1	2
686.883	1	-5
687.222	1	3
687.561	1	7
687.899	1	-4
688.238	1	11
688.577	1	3
688.746	1	6