File: Data/GaN_130K_350ms/GaN_sample F_spot6_UVVIS_130 K_200um_350 ms 2x2mm1_269.txt
340.368	1	4
340.710	1	9
341.052	1	-1
341.394	1	-6
341.737	1	1
342.079	1	5
342.421	1	7
342.763	1	4
343.105	1	7
343.447	1	6
343.789	1	11
344.131	1	0
344.473	1	5
344.815	1	-11
345.157	1	-4
345.499	1	2
345.841	1	4
346.183	1	14
346.526	1	2
346.868	1	5
347.210	1	7
347.552	1	6
347.894	1	-6
348.236	1	0
348.578	1	-5
348.920	1	2
349.262	1	4
349.604	1	0
349.946	1	9
350.288	1	-6
350.630	1	2
350.972	1	8
351.314	1	-5
351.656	1	6
351.998	1	2
352.340	1	11
352.682	1	6
353.024	1	-1
353.366	1	6
353.708	1	-4
354.050	1	6
354.392	1	12
354.734	1	3
355.076	1	2
355.418	1	8
355.760	1	1
356.102	1	-4
356.444	1	-10
356.785	1	10
357.127	1	4
357.469	1	-6
357.811	1	7
358.153	1	10
358.495	1	4
358.837	1	-2
359.179	1	4
359.521	1	8
359.863	1	-4
360.205	1	-3
360.547	1	-8
360.889	1	4
361.231	1	-7
361.572	1	9
361.914	1	1
362.256	1	1
362.598	1	6
362.940	1	-2
363.282	1	12
363.624	1	6
363.966	1	18
364.308	1	13
364.649	1	7
364.991	1	6
365.333	1	-3
365.675	1	6
366.017	1	9
366.359	1	15
366.701	1	15
367.042	1	18
367.384	1	12
367.726	1	6
368.068	1	2
368.410	1	-3
368.752	1	14
369.093	1	13
369.435	1	9
369.777	1	1
370.119	1	9
370.461	1	14
370.803	1	2
371.144	1	10
371.486	1	9
371.828	1	8
372.170	1	2
372.512	1	11
372.853	1	-2
373.195	1	8
373.537	1	3
373.879	1	15
374.220	1	-5
374.562	1	-7
374.904	1	7
375.246	1	6
375.588	1	4
375.929	1	-1
376.271	1	14
376.613	1	-4
376.955	1	9
377.296	1	0
377.638	1	-10
377.980	1	-5
378.321	1	12
378.663	1	6
379.005	1	19
379.347	1	8
379.688	1	-3
380.030	1	-5
380.372	1	4
380.714	1	16
381.055	1	9
381.397	1	4
381.739	1	5
382.080	1	0
382.422	1	12
382.764	1	9
383.105	1	2
383.447	1	7
383.789	1	8
384.130	1	7
384.472	1	4
384.814	1	2
385.156	1	-1
385.497	1	-2
385.839	1	3
386.180	1	3
386.522	1	-2
386.864	1	9
387.205	1	-10
387.547	1	-2
387.889	1	-6
388.230	1	0
388.572	1	10
388.914	1	1
389.255	1	2
389.597	1	-7
389.939	1	-1
390.280	1	4
390.622	1	5
390.963	1	10
391.305	1	9
391.647	1	8
391.988	1	12
392.330	1	-10
392.671	1	-6
393.013	1	6
393.355	1	-2
393.696	1	-17
394.038	1	7
394.379	1	0
394.721	1	-3
395.062	1	-1
395.404	1	-3
395.746	1	10
396.087	1	17
396.429	1	12
396.770	1	3
397.112	1	14
397.453	1	16
397.795	1	-3
398.136	1	3
398.478	1	10
398.819	1	-10
399.161	1	10
399.503	1	6
399.844	1	-2
400.186	1	-3
400.527	1	6
400.869	1	14
401.210	1	-2
401.552	1	7
401.893	1	2
402.235	1	3
402.576	1	7
402.918	1	10
403.259	1	-3
403.601	1	8
403.942	1	-1
404.284	1	-1
404.625	1	16
404.967	1	2
405.308	1	4
405.649	1	3
405.991	1	3
406.332	1	2
406.674	1	5
407.015	1	2
407.357	1	5
407.698	1	-2
408.040	1	6
408.381	1	5
408.722	1	9
409.064	1	-2
409.405	1	8
409.747	1	4
410.088	1	8
410.430	1	16
410.771	1	-9
411.112	1	11
411.454	1	4
411.795	1	10
412.137	1	3
412.478	1	1
412.819	1	8
413.161	1	11
413.502	1	20
413.844	1	-5
414.185	1	6
414.526	1	-1
414.868	1	0
415.209	1	4
415.550	1	-3
415.892	1	7
416.233	1	6
416.575	1	9
416.916	1	4
417.257	1	5
417.599	1	-4
417.940	1	1
418.281	1	7
418.623	1	5
418.964	1	10
419.305	1	1
419.647	1	7
419.988	1	15
420.329	1	18
420.671	1	-2
421.012	1	5
421.353	1	0
421.695	1	-2
422.036	1	7
422.377	1	-2
422.718	1	3
423.060	1	-4
423.401	1	6
423.742	1	7
424.084	1	13
424.425	1	8
424.766	1	11
425.107	1	7
425.449	1	6
425.790	1	17
426.131	1	10
426.472	1	10
426.814	1	1
427.155	1	7
427.496	1	13
427.837	1	8
428.179	1	3
428.520	1	-2
428.861	1	-8
429.202	1	3
429.544	1	8
429.885	1	0
430.226	1	-5
430.567	1	1
430.909	1	9
431.250	1	9
431.591	1	6
431.932	1	-2
432.273	1	13
432.615	1	11
432.956	1	-2
433.297	1	13
433.638	1	13
433.979	1	5
434.320	1	7
434.662	1	5
435.003	1	22
435.344	1	3
435.685	1	-11
436.026	1	-5
436.368	1	3
436.709	1	4
437.050	1	10
437.391	1	13
437.732	1	6
438.073	1	8
438.414	1	1
438.756	1	2
439.097	1	10
439.438	1	15
439.779	1	9
440.120	1	2
440.461	1	15
440.802	1	-1
441.143	1	-12
441.485	1	4
441.826	1	-2
442.167	1	5
442.508	1	3
442.849	1	-1
443.190	1	-1
443.531	1	1
443.872	1	5
444.213	1	9
444.554	1	8
444.895	1	-5
445.237	1	5
445.578	1	-2
445.919	1	1
446.260	1	9
446.601	1	13
446.942	1	0
447.283	1	5
447.624	1	0
447.965	1	5
448.306	1	17
448.647	1	14
448.988	1	11
449.329	1	-3
449.670	1	-5
450.011	1	-7
450.352	1	3
450.693	1	0
451.034	1	-5
451.375	1	8
451.716	1	0
452.057	1	13
452.398	1	-8
452.739	1	-1
453.080	1	-3
453.421	1	2
453.762	1	6
454.103	1	3
454.444	1	-5
454.785	1	19
455.126	1	4
455.467	1	4
455.808	1	13
456.149	1	-8
456.490	1	12
456.831	1	5
457.172	1	-5
457.513	1	1
457.854	1	4
458.195	1	-10
458.536	1	5
458.877	1	22
459.218	1	1
459.559	1	-1
459.899	1	1
460.240	1	9
460.581	1	-6
460.922	1	-2
461.263	1	-1
461.604	1	-11
461.945	1	17
462.286	1	12
462.627	1	3
462.968	1	3
463.309	1	6
463.649	1	-9
463.990	1	1
464.331	1	3
464.672	1	7
465.013	1	4
465.354	1	5
465.695	1	7
466.036	1	2
466.376	1	9
466.717	1	7
467.058	1	4
467.399	1	1
467.740	1	15
468.081	1	7
468.422	1	-1
468.762	1	-5
469.103	1	6
469.444	1	-3
469.785	1	13
470.126	1	-1
470.467	1	-1
470.807	1	1
471.148	1	1
471.489	1	-8
471.830	1	7
472.171	1	4
472.511	1	4
472.852	1	9
473.193	1	3
473.534	1	7
473.875	1	5
474.215	1	-3
474.556	1	1
474.897	1	4
475.238	1	15
475.578	1	-4
475.919	1	-6
476.260	1	-1
476.601	1	-1
476.942	1	10
477.282	1	6
477.623	1	8
477.964	1	-8
478.305	1	15
478.645	1	5
478.986	1	0
479.327	1	-10
479.667	1	-2
480.008	1	5
480.349	1	-1
480.690	1	8
481.030	1	-5
481.371	1	7
481.712	1	4
482.053	1	2
482.393	1	12
482.734	1	3
483.075	1	12
483.415	1	1
483.756	1	1
484.097	1	-4
484.437	1	5
484.778	1	8
485.119	1	7
485.459	1	-12
485.800	1	7
486.141	1	3
486.481	1	2
486.822	1	5
487.163	1	-6
487.503	1	-7
487.844	1	3
488.185	1	0
488.525	1	0
488.866	1	3
489.207	1	-6
489.547	1	-8
489.888	1	8
490.228	1	-3
490.569	1	6
490.910	1	-4
491.250	1	8
491.591	1	-2
491.932	1	3
492.272	1	3
492.613	1	-10
492.953	1	4
493.294	1	3
493.635	1	3
493.975	1	4
494.316	1	5
494.656	1	-3
494.997	1	5
495.337	1	1
495.678	1	-1
496.019	1	-1
496.359	1	5
496.700	1	4
497.040	1	19
497.381	1	8
497.721	1	-1
498.062	1	-4
498.403	1	1
498.743	1	7
499.084	1	6
499.424	1	-12
499.765	1	-6
500.105	1	-3
500.446	1	2
500.786	1	-5
501.127	1	6
501.467	1	-3
501.808	1	-3
502.148	1	9
502.489	1	8
502.829	1	-4
503.170	1	-3
503.510	1	4
503.851	1	0
504.191	1	-3
504.532	1	3
504.872	1	-2
505.213	1	3
505.553	1	-1
505.894	1	10
506.234	1	3
506.575	1	1
506.915	1	1
507.256	1	16
507.596	1	6
507.936	1	-4
508.277	1	2
508.617	1	-3
508.958	1	9
509.298	1	0
509.639	1	2
509.979	1	-3
510.319	1	11
510.660	1	-7
511.000	1	12
511.341	1	6
511.681	1	13
512.022	1	13
512.362	1	-5
512.702	1	17
513.043	1	4
513.383	1	4
513.724	1	-6
514.064	1	-7
514.404	1	6
514.745	1	4
515.085	1	10
515.425	1	5
515.766	1	11
516.106	1	-2
516.447	1	-4
516.787	1	10
517.127	1	4
517.468	1	-1
517.808	1	6
518.148	1	9
518.489	1	4
518.829	1	9
519.169	1	8
519.510	1	2
519.850	1	19
520.190	1	7
520.531	1	5
520.871	1	2
521.211	1	6
521.552	1	-1
521.892	1	1
522.232	1	3
522.573	1	5
522.913	1	2
523.253	1	5
523.593	1	7
523.934	1	-5
524.274	1	-10
524.614	1	12
524.955	1	17
525.295	1	4
525.635	1	4
525.975	1	12
526.316	1	-6
526.656	1	2
526.996	1	3
527.337	1	9
527.677	1	-1
528.017	1	0
528.357	1	10
528.698	1	1
529.038	1	-5
529.378	1	-1
529.718	1	9
530.058	1	2
530.399	1	5
530.739	1	7
531.079	1	5
531.419	1	8
531.760	1	-5
532.100	1	1
532.440	1	-7
532.780	1	2
533.120	1	5
533.461	1	-8
533.801	1	14
534.141	1	1
534.481	1	5
534.821	1	14
535.162	1	7
535.502	1	-3
535.842	1	0
536.182	1	8
536.522	1	3
536.862	1	2
537.203	1	3
537.543	1	8
537.883	1	-1
538.223	1	8
538.563	1	17
538.903	1	20
539.243	1	-2
539.584	1	9
539.924	1	2
540.264	1	-2
540.604	1	15
540.944	1	0
541.284	1	8
541.624	1	8
541.964	1	2
542.305	1	4
542.645	1	-4
542.985	1	3
543.325	1	-1
543.665	1	12
544.005	1	11
544.345	1	6
544.685	1	16
545.025	1	8
545.365	1	15
545.705	1	0
546.045	1	12
546.386	1	3
546.726	1	-4
547.066	1	6
547.406	1	-10
547.746	1	1
548.086	1	-6
548.426	1	0
548.766	1	3
549.106	1	-5
549.446	1	3
549.786	1	9
550.126	1	13
550.466	1	1
550.806	1	1
551.146	1	3
551.486	1	7
551.826	1	5
552.166	1	9
552.506	1	5
552.846	1	-2
553.186	1	8
553.526	1	-6
553.866	1	-8
554.206	1	-1
554.546	1	6
554.886	1	-6
555.226	1	9
555.566	1	0
555.906	1	-4
556.246	1	-2
556.586	1	2
556.926	1	-7
557.266	1	-2
557.606	1	-8
557.946	1	3
558.286	1	11
558.626	1	-5
558.966	1	-2
559.306	1	2
559.646	1	3
559.986	1	0
560.325	1	-10
560.665	1	10
561.005	1	1
561.345	1	6
561.685	1	12
562.025	1	0
562.365	1	13
562.705	1	4
563.045	1	-6
563.385	1	3
563.725	1	0
564.064	1	12
564.404	1	10
564.744	1	3
565.084	1	-5
565.424	1	4
565.764	1	20
566.104	1	0
566.444	1	11
566.783	1	12
567.123	1	-1
567.463	1	7
567.803	1	7
568.143	1	11
568.483	1	9
568.823	1	-4
569.162	1	7
569.502	1	-1
569.842	1	-5
570.182	1	-3
570.522	1	-8
570.862	1	22
571.201	1	10
571.541	1	-4
571.881	1	1
572.221	1	2
572.561	1	6
572.900	1	3
573.240	1	-1
573.580	1	-2
573.920	1	0
574.260	1	5
574.599	1	12
574.939	1	2
575.279	1	-9
575.619	1	6
575.959	1	2
576.298	1	2
576.638	1	-12
576.978	1	-10
577.318	1	3
577.657	1	8
577.997	1	9
578.337	1	0
578.677	1	8
579.016	1	-1
579.356	1	-1
579.696	1	-2
580.036	1	-4
580.375	1	-5
580.715	1	10
581.055	1	7
581.394	1	1
581.734	1	6
582.074	1	2
582.414	1	-7
582.753	1	2
583.093	1	1
583.433	1	7
583.772	1	5
584.112	1	11
584.452	1	10
584.791	1	1
585.131	1	4
585.471	1	1
585.811	1	6
586.150	1	9
586.490	1	6
586.830	1	-5
587.169	1	8
587.509	1	8
587.849	1	2
588.188	1	9
588.528	1	3
588.867	1	0
589.207	1	2
589.547	1	5
589.886	1	2
590.226	1	5
590.566	1	-4
590.905	1	8
591.245	1	-4
591.585	1	7
591.924	1	-7
592.264	1	4
592.603	1	1
592.943	1	-2
593.283	1	-12
593.622	1	-1
593.962	1	3
594.301	1	-3
594.641	1	10
594.981	1	-7
595.320	1	13
595.660	1	-10
595.999	1	14
596.339	1	4
596.678	1	0
597.018	1	2
597.358	1	-8
597.697	1	2
598.037	1	6
598.376	1	-4
598.716	1	7
599.055	1	0
599.395	1	-12
599.734	1	-2
600.074	1	6
600.413	1	6
600.753	1	4
601.092	1	2
601.432	1	-1
601.771	1	5
602.111	1	11
602.451	1	3
602.790	1	-3
603.130	1	10
603.469	1	1
603.809	1	12
604.148	1	3
604.487	1	13
604.827	1	11
605.166	1	8
605.506	1	4
605.845	1	0
606.185	1	15
606.524	1	-2
606.864	1	13
607.203	1	-4
607.543	1	-1
607.882	1	12
608.222	1	-8
608.561	1	5
608.901	1	13
609.240	1	-3
609.579	1	16
609.919	1	8
610.258	1	10
610.598	1	3
610.937	1	2
611.277	1	6
611.616	1	4
611.955	1	-4
612.295	1	9
612.634	1	-1
612.974	1	8
613.313	1	6
613.652	1	-10
613.992	1	0
614.331	1	4
614.671	1	3
615.010	1	-1
615.349	1	-1
615.689	1	7
616.028	1	12
616.368	1	0
616.707	1	11
617.046	1	2
617.386	1	-1
617.725	1	1
618.064	1	3
618.404	1	-1
618.743	1	10
619.082	1	0
619.422	1	3
619.761	1	3
620.100	1	-7
620.440	1	7
620.779	1	2
621.118	1	-2
621.458	1	3
621.797	1	-7
622.136	1	2
622.476	1	12
622.815	1	-5
623.154	1	11
623.494	1	4
623.833	1	3
624.172	1	2
624.511	1	-1
624.851	1	4
625.190	1	-4
625.529	1	4
625.869	1	0
626.208	1	-3
626.547	1	4
626.886	1	3
627.226	1	6
627.565	1	6
627.904	1	-7
628.243	1	10
628.583	1	-5
628.922	1	6
629.261	1	4
629.600	1	-4
629.940	1	5
630.279	1	10
630.618	1	0
630.957	1	7
631.297	1	1
631.636	1	-1
631.975	1	1
632.314	1	1
632.653	1	1
632.993	1	10
633.332	1	1
633.671	1	-10
634.010	1	1
634.349	1	-4
634.689	1	3
635.028	1	3
635.367	1	5
635.706	1	3
636.045	1	6
636.384	1	0
636.724	1	12
637.063	1	8
637.402	1	1
637.741	1	13
638.080	1	12
638.419	1	8
638.759	1	4
639.098	1	-7
639.437	1	12
639.776	1	-4
640.115	1	5
640.454	1	8
640.793	1	-8
641.132	1	9
641.472	1	11
641.811	1	6
642.150	1	-14
642.489	1	1
642.828	1	-5
643.167	1	-2
643.506	1	8
643.845	1	-8
644.184	1	-1
644.524	1	-2
644.863	1	-2
645.202	1	20
645.541	1	1
645.880	1	12
646.219	1	2
646.558	1	6
646.897	1	2
647.236	1	-4
647.575	1	-2
647.914	1	-5
648.253	1	-4
648.592	1	-4
648.931	1	-9
649.270	1	0
649.610	1	-3
649.949	1	2
650.288	1	3
650.627	1	2
650.966	1	-3
651.305	1	-2
651.644	1	4
651.983	1	-3
652.322	1	-1
652.661	1	4
653.000	1	4
653.339	1	1
653.678	1	-4
654.017	1	-3
654.356	1	9
654.695	1	1
655.034	1	-1
655.373	1	2
655.712	1	8
656.051	1	19
656.390	1	-1
656.729	1	-4
657.068	1	-13
657.406	1	2
657.745	1	-2
658.084	1	-6
658.423	1	2
658.762	1	8
659.101	1	8
659.440	1	-8
659.779	1	2
660.118	1	4
660.457	1	0
660.796	1	2
661.135	1	10
661.474	1	6
661.813	1	9
662.152	1	6
662.491	1	20
662.829	1	5
663.168	1	-2
663.507	1	1
663.846	1	0
664.185	1	-4
664.524	1	-3
664.863	1	1
665.202	1	5
665.541	1	-7
665.879	1	1
666.218	1	5
666.557	1	5
666.896	1	1
667.235	1	2
667.574	1	6
667.913	1	10
668.251	1	-4
668.590	1	8
668.929	1	1
669.268	1	-2
669.607	1	-4
669.946	1	11
670.285	1	4
670.623	1	12
670.962	1	1
671.301	1	1
671.640	1	-9
671.979	1	10
672.317	1	3
672.656	1	-5
672.995	1	-6
673.334	1	0
673.673	1	3
674.011	1	6
674.350	1	1
674.689	1	12
675.028	1	5
675.367	1	-5
675.705	1	8
676.044	1	8
676.383	1	0
676.722	1	-5
677.060	1	8
677.399	1	-2
677.738	1	-6
678.077	1	3
678.416	1	3
678.754	1	4
679.093	1	5
679.432	1	5
679.771	1	3
680.109	1	1
680.448	1	-3
680.787	1	11
681.125	1	14
681.464	1	5
681.803	1	-13
682.142	1	-7
682.480	1	11
682.819	1	4
683.158	1	6
683.496	1	1
683.835	1	-4
684.174	1	3
684.512	1	12
684.851	1	3
685.190	1	-2
685.529	1	-3
685.867	1	-5
686.206	1	11
686.545	1	3
686.883	1	5
687.222	1	6
687.561	1	7
687.899	1	4
688.238	1	8
688.577	1	-7
688.746	1	2