File: Data/GaN_130K_350ms/GaN_sample F_spot6_UVVIS_130 K_200um_350 ms 2x2mm1_127.txt
340.368	1	1
340.710	1	11
341.052	1	-3
341.394	1	10
341.737	1	7
342.079	1	6
342.421	1	7
342.763	1	8
343.105	1	6
343.447	1	10
343.789	1	7
344.131	1	-3
344.473	1	4
344.815	1	-3
345.157	1	-4
345.499	1	-2
345.841	1	-3
346.183	1	15
346.526	1	5
346.868	1	6
347.210	1	3
347.552	1	2
347.894	1	2
348.236	1	4
348.578	1	6
348.920	1	0
349.262	1	0
349.604	1	13
349.946	1	5
350.288	1	-4
350.630	1	4
350.972	1	11
351.314	1	-2
351.656	1	13
351.998	1	8
352.340	1	8
352.682	1	2
353.024	1	4
353.366	1	12
353.708	1	7
354.050	1	14
354.392	1	12
354.734	1	-8
355.076	1	3
355.418	1	10
355.760	1	7
356.102	1	1
356.444	1	-6
356.785	1	20
357.127	1	8
357.469	1	3
357.811	1	22
358.153	1	7
358.495	1	15
358.837	1	1
359.179	1	21
359.521	1	9
359.863	1	15
360.205	1	16
360.547	1	13
360.889	1	12
361.231	1	12
361.572	1	23
361.914	1	14
362.256	1	25
362.598	1	24
362.940	1	22
363.282	1	30
363.624	1	34
363.966	1	44
364.308	1	37
364.649	1	38
364.991	1	37
365.333	1	36
365.675	1	40
366.017	1	62
366.359	1	42
366.701	1	53
367.042	1	51
367.384	1	60
367.726	1	51
368.068	1	49
368.410	1	53
368.752	1	66
369.093	1	51
369.435	1	42
369.777	1	45
370.119	1	59
370.461	1	52
370.803	1	43
371.144	1	39
371.486	1	45
371.828	1	41
372.170	1	39
372.512	1	47
372.853	1	29
373.195	1	37
373.537	1	32
373.879	1	33
374.220	1	24
374.562	1	29
374.904	1	37
375.246	1	33
375.588	1	33
375.929	1	27
376.271	1	21
376.613	1	16
376.955	1	15
377.296	1	29
377.638	1	4
377.980	1	3
378.321	1	24
378.663	1	25
379.005	1	21
379.347	1	15
379.688	1	9
380.030	1	20
380.372	1	20
380.714	1	32
381.055	1	17
381.397	1	10
381.739	1	19
382.080	1	10
382.422	1	25
382.764	1	20
383.105	1	8
383.447	1	25
383.789	1	22
384.130	1	21
384.472	1	19
384.814	1	19
385.156	1	9
385.497	1	11
385.839	1	14
386.180	1	23
386.522	1	10
386.864	1	21
387.205	1	13
387.547	1	13
387.889	1	17
388.230	1	19
388.572	1	22
388.914	1	8
389.255	1	12
389.597	1	-4
389.939	1	16
390.280	1	20
390.622	1	13
390.963	1	24
391.305	1	14
391.647	1	17
391.988	1	9
392.330	1	9
392.671	1	6
393.013	1	12
393.355	1	12
393.696	1	-1
394.038	1	17
394.379	1	12
394.721	1	11
395.062	1	10
395.404	1	4
395.746	1	20
396.087	1	20
396.429	1	14
396.770	1	21
397.112	1	9
397.453	1	18
397.795	1	3
398.136	1	13
398.478	1	9
398.819	1	-2
399.161	1	24
399.503	1	13
399.844	1	7
400.186	1	-3
400.527	1	20
400.869	1	14
401.210	1	-2
401.552	1	15
401.893	1	-4
402.235	1	16
402.576	1	19
402.918	1	8
403.259	1	0
403.601	1	13
403.942	1	11
404.284	1	8
404.625	1	12
404.967	1	11
405.308	1	8
405.649	1	14
405.991	1	19
406.332	1	11
406.674	1	20
407.015	1	4
407.357	1	6
407.698	1	0
408.040	1	8
408.381	1	11
408.722	1	18
409.064	1	8
409.405	1	7
409.747	1	10
410.088	1	14
410.430	1	18
410.771	1	-6
411.112	1	19
411.454	1	13
411.795	1	4
412.137	1	3
412.478	1	7
412.819	1	8
413.161	1	16
413.502	1	21
413.844	1	4
414.185	1	15
414.526	1	5
414.868	1	10
415.209	1	8
415.550	1	-2
415.892	1	13
416.233	1	15
416.575	1	14
416.916	1	7
417.257	1	11
417.599	1	5
417.940	1	11
418.281	1	8
418.623	1	6
418.964	1	9
419.305	1	12
419.647	1	17
419.988	1	13
420.329	1	18
420.671	1	10
421.012	1	6
421.353	1	6
421.695	1	13
422.036	1	10
422.377	1	5
422.718	1	8
423.060	1	4
423.401	1	22
423.742	1	9
424.084	1	13
424.425	1	14
424.766	1	3
425.107	1	11
425.449	1	15
425.790	1	15
426.131	1	12
426.472	1	6
426.814	1	7
427.155	1	11
427.496	1	12
427.837	1	10
428.179	1	8
428.520	1	8
428.861	1	13
429.202	1	9
429.544	1	17
429.885	1	17
430.226	1	3
430.567	1	9
430.909	1	11
431.250	1	18
431.591	1	7
431.932	1	3
432.273	1	8
432.615	1	13
432.956	1	2
433.297	1	18
433.638	1	8
433.979	1	14
434.320	1	13
434.662	1	6
435.003	1	16
435.344	1	8
435.685	1	-1
436.026	1	15
436.368	1	6
436.709	1	5
437.050	1	16
437.391	1	18
437.732	1	4
438.073	1	9
438.414	1	9
438.756	1	4
439.097	1	-4
439.438	1	9
439.779	1	6
440.120	1	3
440.461	1	17
440.802	1	-6
441.143	1	2
441.485	1	12
441.826	1	4
442.167	1	7
442.508	1	-3
442.849	1	0
443.190	1	14
443.531	1	1
443.872	1	17
444.213	1	6
444.554	1	5
444.895	1	3
445.237	1	-1
445.578	1	5
445.919	1	0
446.260	1	12
446.601	1	7
446.942	1	1
447.283	1	13
447.624	1	-1
447.965	1	7
448.306	1	-2
448.647	1	24
448.988	1	8
449.329	1	-3
449.670	1	2
450.011	1	-4
450.352	1	13
450.693	1	7
451.034	1	-10
451.375	1	7
451.716	1	-5
452.057	1	25
452.398	1	5
452.739	1	12
453.080	1	3
453.421	1	6
453.762	1	9
454.103	1	2
454.444	1	8
454.785	1	10
455.126	1	-7
455.467	1	4
455.808	1	11
456.149	1	-4
456.490	1	10
456.831	1	14
457.172	1	2
457.513	1	14
457.854	1	6
458.195	1	-5
458.536	1	-1
458.877	1	24
459.218	1	15
459.559	1	6
459.899	1	2
460.240	1	13
460.581	1	0
460.922	1	12
461.263	1	14
461.604	1	-6
461.945	1	15
462.286	1	10
462.627	1	6
462.968	1	2
463.309	1	16
463.649	1	-1
463.990	1	3
464.331	1	4
464.672	1	11
465.013	1	-3
465.354	1	8
465.695	1	4
466.036	1	8
466.376	1	6
466.717	1	10
467.058	1	4
467.399	1	7
467.740	1	16
468.081	1	10
468.422	1	8
468.762	1	6
469.103	1	2
469.444	1	5
469.785	1	10
470.126	1	0
470.467	1	7
470.807	1	9
471.148	1	9
471.489	1	6
471.830	1	5
472.171	1	-4
472.511	1	10
472.852	1	12
473.193	1	9
473.534	1	13
473.875	1	11
474.215	1	12
474.556	1	5
474.897	1	-7
475.238	1	13
475.578	1	11
475.919	1	-5
476.260	1	5
476.601	1	2
476.942	1	9
477.282	1	11
477.623	1	2
477.964	1	5
478.305	1	11
478.645	1	5
478.986	1	3
479.327	1	10
479.667	1	6
480.008	1	-5
480.349	1	8
480.690	1	10
481.030	1	2
481.371	1	10
481.712	1	4
482.053	1	7
482.393	1	17
482.734	1	11
483.075	1	16
483.415	1	4
483.756	1	-8
484.097	1	5
484.437	1	11
484.778	1	18
485.119	1	12
485.459	1	-3
485.800	1	19
486.141	1	8
486.481	1	7
486.822	1	3
487.163	1	9
487.503	1	-4
487.844	1	-1
488.185	1	3
488.525	1	9
488.866	1	10
489.207	1	9
489.547	1	8
489.888	1	11
490.228	1	11
490.569	1	6
490.910	1	-6
491.250	1	10
491.591	1	1
491.932	1	1
492.272	1	6
492.613	1	5
492.953	1	11
493.294	1	15
493.635	1	9
493.975	1	18
494.316	1	13
494.656	1	16
494.997	1	5
495.337	1	15
495.678	1	11
496.019	1	5
496.359	1	16
496.700	1	13
497.040	1	27
497.381	1	6
497.721	1	10
498.062	1	5
498.403	1	5
498.743	1	16
499.084	1	17
499.424	1	11
499.765	1	6
500.105	1	8
500.446	1	19
500.786	1	11
501.127	1	13
501.467	1	9
501.808	1	11
502.148	1	15
502.489	1	12
502.829	1	12
503.170	1	16
503.510	1	13
503.851	1	13
504.191	1	9
504.532	1	9
504.872	1	21
505.213	1	15
505.553	1	14
505.894	1	23
506.234	1	20
506.575	1	15
506.915	1	12
507.256	1	24
507.596	1	15
507.936	1	12
508.277	1	16
508.617	1	12
508.958	1	21
509.298	1	24
509.639	1	9
509.979	1	12
510.319	1	34
510.660	1	11
511.000	1	25
511.341	1	9
511.681	1	17
512.022	1	28
512.362	1	14
512.702	1	29
513.043	1	16
513.383	1	22
513.724	1	11
514.064	1	7
514.404	1	28
514.745	1	18
515.085	1	21
515.425	1	10
515.766	1	13
516.106	1	12
516.447	1	21
516.787	1	23
517.127	1	20
517.468	1	21
517.808	1	17
518.148	1	29
518.489	1	21
518.829	1	17
519.169	1	14
519.510	1	18
519.850	1	39
520.190	1	28
520.531	1	23
520.871	1	17
521.211	1	25
521.552	1	18
521.892	1	31
522.232	1	6
522.573	1	12
522.913	1	20
523.253	1	24
523.593	1	26
523.934	1	28
524.274	1	7
524.614	1	18
524.955	1	21
525.295	1	22
525.635	1	19
525.975	1	22
526.316	1	15
526.656	1	23
526.996	1	18
527.337	1	29
527.677	1	24
528.017	1	16
528.357	1	30
528.698	1	17
529.038	1	5
529.378	1	26
529.718	1	23
530.058	1	25
530.399	1	15
530.739	1	21
531.079	1	24
531.419	1	33
531.760	1	18
532.100	1	24
532.440	1	22
532.780	1	19
533.120	1	23
533.461	1	9
533.801	1	28
534.141	1	13
534.481	1	17
534.821	1	32
535.162	1	22
535.502	1	19
535.842	1	30
536.182	1	18
536.522	1	16
536.862	1	10
537.203	1	14
537.543	1	21
537.883	1	17
538.223	1	33
538.563	1	29
538.903	1	28
539.243	1	27
539.584	1	18
539.924	1	14
540.264	1	19
540.604	1	31
540.944	1	19
541.284	1	17
541.624	1	31
541.964	1	15
542.305	1	23
542.645	1	12
542.985	1	24
543.325	1	26
543.665	1	26
544.005	1	16
544.345	1	13
544.685	1	19
545.025	1	21
545.365	1	26
545.705	1	21
546.045	1	15
546.386	1	14
546.726	1	12
547.066	1	9
547.406	1	6
547.746	1	24
548.086	1	15
548.426	1	24
548.766	1	21
549.106	1	9
549.446	1	12
549.786	1	25
550.126	1	18
550.466	1	20
550.806	1	14
551.146	1	15
551.486	1	16
551.826	1	11
552.166	1	18
552.506	1	4
552.846	1	3
553.186	1	10
553.526	1	20
553.866	1	0
554.206	1	14
554.546	1	27
554.886	1	14
555.226	1	9
555.566	1	12
555.906	1	10
556.246	1	16
556.586	1	18
556.926	1	20
557.266	1	22
557.606	1	12
557.946	1	15
558.286	1	24
558.626	1	6
558.966	1	7
559.306	1	12
559.646	1	19
559.986	1	15
560.325	1	5
560.665	1	22
561.005	1	14
561.345	1	17
561.685	1	11
562.025	1	7
562.365	1	18
562.705	1	18
563.045	1	5
563.385	1	18
563.725	1	10
564.064	1	11
564.404	1	10
564.744	1	11
565.084	1	1
565.424	1	15
565.764	1	15
566.104	1	11
566.444	1	17
566.783	1	22
567.123	1	14
567.463	1	10
567.803	1	19
568.143	1	20
568.483	1	14
568.823	1	3
569.162	1	18
569.502	1	7
569.842	1	4
570.182	1	3
570.522	1	-3
570.862	1	21
571.201	1	8
571.541	1	8
571.881	1	15
572.221	1	16
572.561	1	16
572.900	1	12
573.240	1	8
573.580	1	8
573.920	1	16
574.260	1	12
574.599	1	10
574.939	1	18
575.279	1	5
575.619	1	15
575.959	1	5
576.298	1	12
576.638	1	-1
576.978	1	4
577.318	1	7
577.657	1	18
577.997	1	12
578.337	1	8
578.677	1	11
579.016	1	9
579.356	1	12
579.696	1	6
580.036	1	6
580.375	1	6
580.715	1	13
581.055	1	12
581.394	1	7
581.734	1	7
582.074	1	1
582.414	1	2
582.753	1	6
583.093	1	10
583.433	1	10
583.772	1	8
584.112	1	5
584.452	1	19
584.791	1	15
585.131	1	12
585.471	1	5
585.811	1	0
586.150	1	13
586.490	1	17
586.830	1	0
587.169	1	6
587.509	1	4
587.849	1	8
588.188	1	11
588.528	1	8
588.867	1	3
589.207	1	8
589.547	1	9
589.886	1	12
590.226	1	10
590.566	1	4
590.905	1	11
591.245	1	4
591.585	1	7
591.924	1	-2
592.264	1	7
592.603	1	4
592.943	1	4
593.283	1	-5
593.622	1	8
593.962	1	8
594.301	1	0
594.641	1	-7
594.981	1	-7
595.320	1	5
595.660	1	8
595.999	1	19
596.339	1	10
596.678	1	-6
597.018	1	-1
597.358	1	10
597.697	1	0
598.037	1	12
598.376	1	-4
598.716	1	11
599.055	1	7
599.395	1	6
599.734	1	6
600.074	1	8
600.413	1	15
600.753	1	3
601.092	1	8
601.432	1	9
601.771	1	8
602.111	1	-1
602.451	1	-2
602.790	1	8
603.130	1	6
603.469	1	5
603.809	1	7
604.148	1	21
604.487	1	12
604.827	1	3
605.166	1	6
605.506	1	7
605.845	1	14
606.185	1	11
606.524	1	6
606.864	1	12
607.203	1	1
607.543	1	10
607.882	1	2
608.222	1	-1
608.561	1	-6
608.901	1	7
609.240	1	-2
609.579	1	10
609.919	1	15
610.258	1	2
610.598	1	13
610.937	1	10
611.277	1	14
611.616	1	-3
611.955	1	3
612.295	1	13
612.634	1	4
612.974	1	10
613.313	1	9
613.652	1	0
613.992	1	-4
614.331	1	11
614.671	1	5
615.010	1	8
615.349	1	-3
615.689	1	13
616.028	1	12
616.368	1	4
616.707	1	11
617.046	1	12
617.386	1	-2
617.725	1	10
618.064	1	1
618.404	1	6
618.743	1	9
619.082	1	-5
619.422	1	2
619.761	1	12
620.100	1	-3
620.440	1	0
620.779	1	7
621.118	1	4
621.458	1	8
621.797	1	8
622.136	1	10
622.476	1	7
622.815	1	7
623.154	1	8
623.494	1	12
623.833	1	13
624.172	1	2
624.511	1	0
624.851	1	4
625.190	1	0
625.529	1	8
625.869	1	14
626.208	1	0
626.547	1	4
626.886	1	-2
627.226	1	-2
627.565	1	-3
627.904	1	9
628.243	1	9
628.583	1	4
628.922	1	-3
629.261	1	-9
629.600	1	2
629.940	1	7
630.279	1	12
630.618	1	-6
630.957	1	11
631.297	1	5
631.636	1	10
631.975	1	5
632.314	1	5
632.653	1	7
632.993	1	12
633.332	1	4
633.671	1	-5
634.010	1	-1
634.349	1	9
634.689	1	8
635.028	1	8
635.367	1	5
635.706	1	3
636.045	1	9
636.384	1	4
636.724	1	11
637.063	1	14
637.402	1	-2
637.741	1	9
638.080	1	14
638.419	1	2
638.759	1	4
639.098	1	-5
639.437	1	8
639.776	1	4
640.115	1	11
640.454	1	8
640.793	1	-2
641.132	1	9
641.472	1	-6
641.811	1	2
642.150	1	-8
642.489	1	-4
642.828	1	6
643.167	1	7
643.506	1	7
643.845	1	-3
644.184	1	3
644.524	1	-5
644.863	1	1
645.202	1	11
645.541	1	2
645.880	1	0
646.219	1	2
646.558	1	-2
646.897	1	-2
647.236	1	0
647.575	1	1
647.914	1	2
648.253	1	5
648.592	1	-11
648.931	1	-7
649.270	1	-4
649.610	1	0
649.949	1	12
650.288	1	9
650.627	1	7
650.966	1	3
651.305	1	3
651.644	1	6
651.983	1	-5
652.322	1	2
652.661	1	-2
653.000	1	1
653.339	1	10
653.678	1	-2
654.017	1	-4
654.356	1	8
654.695	1	1
655.034	1	7
655.373	1	-2
655.712	1	0
656.051	1	1
656.390	1	3
656.729	1	10
657.068	1	1
657.406	1	6
657.745	1	3
658.084	1	2
658.423	1	6
658.762	1	14
659.101	1	17
659.440	1	0
659.779	1	4
660.118	1	-2
660.457	1	2
660.796	1	5
661.135	1	10
661.474	1	11
661.813	1	4
662.152	1	4
662.491	1	17
662.829	1	13
663.168	1	5
663.507	1	5
663.846	1	7
664.185	1	0
664.524	1	0
664.863	1	6
665.202	1	9
665.541	1	-1
665.879	1	1
666.218	1	8
666.557	1	6
666.896	1	8
667.235	1	12
667.574	1	11
667.913	1	7
668.251	1	11
668.590	1	6
668.929	1	6
669.268	1	-5
669.607	1	4
669.946	1	11
670.285	1	8
670.623	1	29
670.962	1	0
671.301	1	0
671.640	1	-2
671.979	1	2
672.317	1	-4
672.656	1	0
672.995	1	5
673.334	1	-1
673.673	1	16
674.011	1	0
674.350	1	12
674.689	1	5
675.028	1	5
675.367	1	4
675.705	1	14
676.044	1	8
676.383	1	10
676.722	1	4
677.060	1	7
677.399	1	1
677.738	1	-3
678.077	1	8
678.416	1	7
678.754	1	9
679.093	1	-1
679.432	1	12
679.771	1	13
680.109	1	0
680.448	1	5
680.787	1	9
681.125	1	8
681.464	1	5
681.803	1	-7
682.142	1	-4
682.480	1	7
682.819	1	-4
683.158	1	9
683.496	1	2
683.835	1	-2
684.174	1	6
684.512	1	14
684.851	1	-2
685.190	1	15
685.529	1	-3
685.867	1	0
686.206	1	6
686.545	1	6
686.883	1	9
687.222	1	-2
687.561	1	15
687.899	1	6
688.238	1	9
688.577	1	3
688.746	1	11