File: Data/GaN_130K_350ms/GaN_sample F_spot6_UVVIS_130 K_200um_350 ms 2x2mm1_252.txt
340.368	1	5
340.710	1	7
341.052	1	-2
341.394	1	3
341.737	1	3
342.079	1	4
342.421	1	5
342.763	1	3
343.105	1	3
343.447	1	5
343.789	1	2
344.131	1	8
344.473	1	1
344.815	1	-10
345.157	1	-9
345.499	1	3
345.841	1	4
346.183	1	8
346.526	1	0
346.868	1	6
347.210	1	2
347.552	1	4
347.894	1	-1
348.236	1	-2
348.578	1	3
348.920	1	-2
349.262	1	2
349.604	1	7
349.946	1	7
350.288	1	-11
350.630	1	-3
350.972	1	10
351.314	1	-3
351.656	1	11
351.998	1	-8
352.340	1	12
352.682	1	-2
353.024	1	2
353.366	1	-1
353.708	1	-4
354.050	1	10
354.392	1	0
354.734	1	-3
355.076	1	0
355.418	1	15
355.760	1	3
356.102	1	-9
356.444	1	-5
356.785	1	3
357.127	1	1
357.469	1	-1
357.811	1	6
358.153	1	-7
358.495	1	4
358.837	1	4
359.179	1	11
359.521	1	-2
359.863	1	-4
360.205	1	-3
360.547	1	-6
360.889	1	1
361.231	1	-2
361.572	1	9
361.914	1	7
362.256	1	0
362.598	1	3
362.940	1	-8
363.282	1	13
363.624	1	1
363.966	1	18
364.308	1	18
364.649	1	20
364.991	1	5
365.333	1	2
365.675	1	8
366.017	1	20
366.359	1	15
366.701	1	12
367.042	1	13
367.384	1	21
367.726	1	21
368.068	1	6
368.410	1	6
368.752	1	16
369.093	1	14
369.435	1	9
369.777	1	6
370.119	1	5
370.461	1	7
370.803	1	5
371.144	1	13
371.486	1	3
371.828	1	7
372.170	1	5
372.512	1	11
372.853	1	-7
373.195	1	6
373.537	1	2
373.879	1	13
374.220	1	-1
374.562	1	-1
374.904	1	1
375.246	1	7
375.588	1	2
375.929	1	3
376.271	1	12
376.613	1	5
376.955	1	4
377.296	1	2
377.638	1	-7
377.980	1	-1
378.321	1	5
378.663	1	13
379.005	1	15
379.347	1	2
379.688	1	8
380.030	1	5
380.372	1	12
380.714	1	7
381.055	1	-5
381.397	1	7
381.739	1	6
382.080	1	-2
382.422	1	7
382.764	1	2
383.105	1	8
383.447	1	15
383.789	1	17
384.130	1	10
384.472	1	0
384.814	1	-2
385.156	1	4
385.497	1	0
385.839	1	10
386.180	1	6
386.522	1	3
386.864	1	7
387.205	1	-4
387.547	1	6
387.889	1	0
388.230	1	1
388.572	1	11
388.914	1	4
389.255	1	5
389.597	1	-7
389.939	1	1
390.280	1	10
390.622	1	1
390.963	1	5
391.305	1	5
391.647	1	2
391.988	1	9
392.330	1	0
392.671	1	-8
393.013	1	-1
393.355	1	1
393.696	1	-1
394.038	1	12
394.379	1	-1
394.721	1	3
395.062	1	8
395.404	1	3
395.746	1	14
396.087	1	12
396.429	1	2
396.770	1	13
397.112	1	10
397.453	1	17
397.795	1	-11
398.136	1	8
398.478	1	-2
398.819	1	-17
399.161	1	9
399.503	1	13
399.844	1	3
400.186	1	3
400.527	1	7
400.869	1	1
401.210	1	-4
401.552	1	13
401.893	1	-4
402.235	1	9
402.576	1	8
402.918	1	12
403.259	1	5
403.601	1	6
403.942	1	-2
404.284	1	-3
404.625	1	5
404.967	1	-4
405.308	1	14
405.649	1	4
405.991	1	5
406.332	1	3
406.674	1	1
407.015	1	10
407.357	1	7
407.698	1	1
408.040	1	7
408.381	1	14
408.722	1	8
409.064	1	3
409.405	1	0
409.747	1	5
410.088	1	5
410.430	1	10
410.771	1	2
411.112	1	15
411.454	1	6
411.795	1	-5
412.137	1	-4
412.478	1	5
412.819	1	11
413.161	1	6
413.502	1	11
413.844	1	1
414.185	1	8
414.526	1	11
414.868	1	5
415.209	1	0
415.550	1	-2
415.892	1	3
416.233	1	9
416.575	1	0
416.916	1	3
417.257	1	5
417.599	1	-2
417.940	1	0
418.281	1	0
418.623	1	8
418.964	1	8
419.305	1	4
419.647	1	14
419.988	1	16
420.329	1	11
420.671	1	3
421.012	1	-7
421.353	1	-2
421.695	1	1
422.036	1	7
422.377	1	6
422.718	1	0
423.060	1	3
423.401	1	5
423.742	1	12
424.084	1	6
424.425	1	6
424.766	1	2
425.107	1	1
425.449	1	10
425.790	1	3
426.131	1	16
426.472	1	-3
426.814	1	8
427.155	1	-2
427.496	1	3
427.837	1	5
428.179	1	9
428.520	1	12
428.861	1	0
429.202	1	13
429.544	1	17
429.885	1	1
430.226	1	-5
430.567	1	5
430.909	1	8
431.250	1	8
431.591	1	-6
431.932	1	2
432.273	1	9
432.615	1	11
432.956	1	-7
433.297	1	15
433.638	1	-1
433.979	1	11
434.320	1	1
434.662	1	4
435.003	1	17
435.344	1	3
435.685	1	-5
436.026	1	11
436.368	1	0
436.709	1	-1
437.050	1	5
437.391	1	13
437.732	1	9
438.073	1	10
438.414	1	-2
438.756	1	3
439.097	1	3
439.438	1	5
439.779	1	1
440.120	1	8
440.461	1	9
440.802	1	-2
441.143	1	-11
441.485	1	13
441.826	1	3
442.167	1	3
442.508	1	3
442.849	1	10
443.190	1	6
443.531	1	-4
443.872	1	17
444.213	1	10
444.554	1	5
444.895	1	-2
445.237	1	4
445.578	1	-8
445.919	1	14
446.260	1	1
446.601	1	8
446.942	1	3
447.283	1	8
447.624	1	1
447.965	1	1
448.306	1	5
448.647	1	10
448.988	1	1
449.329	1	-11
449.670	1	4
450.011	1	1
450.352	1	7
450.693	1	1
451.034	1	-7
451.375	1	14
451.716	1	-7
452.057	1	13
452.398	1	-10
452.739	1	1
453.080	1	-1
453.421	1	2
453.762	1	-3
454.103	1	0
454.444	1	6
454.785	1	9
455.126	1	1
455.467	1	2
455.808	1	16
456.149	1	-4
456.490	1	8
456.831	1	1
457.172	1	12
457.513	1	5
457.854	1	0
458.195	1	-7
458.536	1	3
458.877	1	17
459.218	1	5
459.559	1	6
459.899	1	2
460.240	1	14
460.581	1	-2
460.922	1	3
461.263	1	4
461.604	1	1
461.945	1	6
462.286	1	5
462.627	1	5
462.968	1	3
463.309	1	6
463.649	1	3
463.990	1	4
464.331	1	17
464.672	1	4
465.013	1	-3
465.354	1	-1
465.695	1	12
466.036	1	0
466.376	1	-1
466.717	1	3
467.058	1	3
467.399	1	1
467.740	1	17
468.081	1	8
468.422	1	2
468.762	1	6
469.103	1	1
469.444	1	-1
469.785	1	4
470.126	1	-4
470.467	1	5
470.807	1	11
471.148	1	4
471.489	1	-5
471.830	1	0
472.171	1	-3
472.511	1	9
472.852	1	13
473.193	1	10
473.534	1	12
473.875	1	11
474.215	1	4
474.556	1	-3
474.897	1	-8
475.238	1	3
475.578	1	2
475.919	1	-5
476.260	1	6
476.601	1	5
476.942	1	9
477.282	1	12
477.623	1	-3
477.964	1	2
478.305	1	5
478.645	1	-2
478.986	1	-5
479.327	1	-8
479.667	1	1
480.008	1	-1
480.349	1	6
480.690	1	2
481.030	1	0
481.371	1	3
481.712	1	12
482.053	1	5
482.393	1	12
482.734	1	-3
483.075	1	10
483.415	1	-3
483.756	1	6
484.097	1	0
484.437	1	-1
484.778	1	10
485.119	1	13
485.459	1	-8
485.800	1	8
486.141	1	4
486.481	1	-6
486.822	1	-1
487.163	1	-5
487.503	1	2
487.844	1	-3
488.185	1	2
488.525	1	-6
488.866	1	-2
489.207	1	-3
489.547	1	-2
489.888	1	11
490.228	1	-3
490.569	1	1
490.910	1	-2
491.250	1	15
491.591	1	-6
491.932	1	-2
492.272	1	-4
492.613	1	-10
492.953	1	5
493.294	1	13
493.635	1	-4
493.975	1	11
494.316	1	7
494.656	1	6
494.997	1	6
495.337	1	4
495.678	1	1
496.019	1	-5
496.359	1	6
496.700	1	4
497.040	1	15
497.381	1	1
497.721	1	1
498.062	1	2
498.403	1	-2
498.743	1	12
499.084	1	8
499.424	1	-6
499.765	1	-6
500.105	1	10
500.446	1	9
500.786	1	-6
501.127	1	8
501.467	1	1
501.808	1	3
502.148	1	1
502.489	1	12
502.829	1	-3
503.170	1	-5
503.510	1	9
503.851	1	1
504.191	1	2
504.532	1	2
504.872	1	18
505.213	1	3
505.553	1	5
505.894	1	8
506.234	1	4
506.575	1	-11
506.915	1	1
507.256	1	5
507.596	1	3
507.936	1	-5
508.277	1	2
508.617	1	-2
508.958	1	5
509.298	1	1
509.639	1	8
509.979	1	6
510.319	1	8
510.660	1	-1
511.000	1	8
511.341	1	-8
511.681	1	5
512.022	1	7
512.362	1	-2
512.702	1	16
513.043	1	9
513.383	1	5
513.724	1	1
514.064	1	7
514.404	1	15
514.745	1	4
515.085	1	16
515.425	1	3
515.766	1	4
516.106	1	5
516.447	1	8
516.787	1	5
517.127	1	7
517.468	1	9
517.808	1	7
518.148	1	8
518.489	1	5
518.829	1	8
519.169	1	10
519.510	1	-4
519.850	1	13
520.190	1	10
520.531	1	5
520.871	1	-5
521.211	1	15
521.552	1	2
521.892	1	4
522.232	1	-3
522.573	1	-3
522.913	1	2
523.253	1	11
523.593	1	4
523.934	1	3
524.274	1	4
524.614	1	8
524.955	1	3
525.295	1	3
525.635	1	0
525.975	1	7
526.316	1	-8
526.656	1	12
526.996	1	6
527.337	1	9
527.677	1	3
528.017	1	-1
528.357	1	3
528.698	1	-9
529.038	1	-1
529.378	1	-1
529.718	1	9
530.058	1	5
530.399	1	-2
530.739	1	4
531.079	1	5
531.419	1	8
531.760	1	-3
532.100	1	1
532.440	1	-7
532.780	1	5
533.120	1	4
533.461	1	11
533.801	1	11
534.141	1	7
534.481	1	12
534.821	1	11
535.162	1	1
535.502	1	10
535.842	1	7
536.182	1	15
536.522	1	-2
536.862	1	1
537.203	1	-1
537.543	1	19
537.883	1	-7
538.223	1	15
538.563	1	8
538.903	1	14
539.243	1	0
539.584	1	11
539.924	1	6
540.264	1	1
540.604	1	5
540.944	1	6
541.284	1	5
541.624	1	10
541.964	1	-13
542.305	1	5
542.645	1	-5
542.985	1	6
543.325	1	2
543.665	1	7
544.005	1	13
544.345	1	4
544.685	1	16
545.025	1	-4
545.365	1	12
545.705	1	-8
546.045	1	2
546.386	1	1
546.726	1	0
547.066	1	7
547.406	1	-5
547.746	1	4
548.086	1	-3
548.426	1	1
548.766	1	7
549.106	1	-5
549.446	1	3
549.786	1	2
550.126	1	21
550.466	1	7
550.806	1	14
551.146	1	10
551.486	1	8
551.826	1	2
552.166	1	12
552.506	1	11
552.846	1	-13
553.186	1	-1
553.526	1	3
553.866	1	-6
554.206	1	-5
554.546	1	10
554.886	1	-2
555.226	1	3
555.566	1	1
555.906	1	-3
556.246	1	0
556.586	1	6
556.926	1	0
557.266	1	5
557.606	1	4
557.946	1	8
558.286	1	9
558.626	1	0
558.966	1	-2
559.306	1	-3
559.646	1	8
559.986	1	3
560.325	1	-1
560.665	1	7
561.005	1	5
561.345	1	6
561.685	1	9
562.025	1	0
562.365	1	7
562.705	1	5
563.045	1	1
563.385	1	6
563.725	1	2
564.064	1	17
564.404	1	1
564.744	1	-5
565.084	1	4
565.424	1	0
565.764	1	10
566.104	1	3
566.444	1	7
566.783	1	4
567.123	1	8
567.463	1	6
567.803	1	4
568.143	1	8
568.483	1	4
568.823	1	-4
569.162	1	13
569.502	1	-4
569.842	1	0
570.182	1	4
570.522	1	-16
570.862	1	22
571.201	1	8
571.541	1	3
571.881	1	0
572.221	1	4
572.561	1	11
572.900	1	10
573.240	1	-7
573.580	1	3
573.920	1	14
574.260	1	4
574.599	1	6
574.939	1	13
575.279	1	-15
575.619	1	6
575.959	1	6
576.298	1	2
576.638	1	2
576.978	1	3
577.318	1	7
577.657	1	15
577.997	1	9
578.337	1	7
578.677	1	7
579.016	1	2
579.356	1	10
579.696	1	1
580.036	1	-1
580.375	1	-3
580.715	1	15
581.055	1	6
581.394	1	3
581.734	1	8
582.074	1	-6
582.414	1	-2
582.753	1	2
583.093	1	-6
583.433	1	15
583.772	1	8
584.112	1	14
584.452	1	10
584.791	1	2
585.131	1	16
585.471	1	-5
585.811	1	-5
586.150	1	11
586.490	1	3
586.830	1	-6
587.169	1	2
587.509	1	8
587.849	1	11
588.188	1	7
588.528	1	9
588.867	1	-1
589.207	1	-8
589.547	1	-7
589.886	1	8
590.226	1	11
590.566	1	5
590.905	1	9
591.245	1	0
591.585	1	3
591.924	1	-6
592.264	1	-4
592.603	1	-9
592.943	1	-2
593.283	1	-11
593.622	1	9
593.962	1	9
594.301	1	1
594.641	1	6
594.981	1	-4
595.320	1	1
595.660	1	-2
595.999	1	12
596.339	1	13
596.678	1	-16
597.018	1	5
597.358	1	-4
597.697	1	-1
598.037	1	11
598.376	1	-2
598.716	1	13
599.055	1	-5
599.395	1	-7
599.734	1	-1
600.074	1	10
600.413	1	6
600.753	1	-2
601.092	1	6
601.432	1	-7
601.771	1	9
602.111	1	4
602.451	1	-4
602.790	1	-5
603.130	1	8
603.469	1	0
603.809	1	1
604.148	1	9
604.487	1	2
604.827	1	10
605.166	1	10
605.506	1	4
605.845	1	-4
606.185	1	7
606.524	1	2
606.864	1	18
607.203	1	6
607.543	1	6
607.882	1	16
608.222	1	3
608.561	1	3
608.901	1	10
609.240	1	2
609.579	1	9
609.919	1	4
610.258	1	-2
610.598	1	5
610.937	1	12
611.277	1	9
611.616	1	0
611.955	1	-7
612.295	1	3
612.634	1	1
612.974	1	3
613.313	1	-5
613.652	1	-5
613.992	1	1
614.331	1	4
614.671	1	8
615.010	1	3
615.349	1	-3
615.689	1	2
616.028	1	12
616.368	1	7
616.707	1	1
617.046	1	-2
617.386	1	-2
617.725	1	5
618.064	1	6
618.404	1	-4
618.743	1	10
619.082	1	-1
619.422	1	6
619.761	1	3
620.100	1	5
620.440	1	2
620.779	1	-6
621.118	1	3
621.458	1	10
621.797	1	-6
622.136	1	5
622.476	1	-1
622.815	1	3
623.154	1	8
623.494	1	9
623.833	1	3
624.172	1	1
624.511	1	6
624.851	1	-4
625.190	1	-3
625.529	1	2
625.869	1	8
626.208	1	-6
626.547	1	1
626.886	1	-5
627.226	1	3
627.565	1	0
627.904	1	0
628.243	1	9
628.583	1	-11
628.922	1	3
629.261	1	-9
629.600	1	-2
629.940	1	10
630.279	1	7
630.618	1	-4
630.957	1	-1
631.297	1	5
631.636	1	7
631.975	1	3
632.314	1	2
632.653	1	-3
632.993	1	15
633.332	1	-7
633.671	1	-5
634.010	1	-11
634.349	1	7
634.689	1	2
635.028	1	15
635.367	1	3
635.706	1	0
636.045	1	13
636.384	1	0
636.724	1	-4
637.063	1	1
637.402	1	-6
637.741	1	18
638.080	1	7
638.419	1	2
638.759	1	-3
639.098	1	-5
639.437	1	8
639.776	1	4
640.115	1	9
640.454	1	5
640.793	1	-5
641.132	1	1
641.472	1	-3
641.811	1	-10
642.150	1	-11
642.489	1	-7
642.828	1	4
643.167	1	3
643.506	1	19
643.845	1	-3
644.184	1	-7
644.524	1	2
644.863	1	-1
645.202	1	4
645.541	1	-2
645.880	1	0
646.219	1	2
646.558	1	-5
646.897	1	-1
647.236	1	-1
647.575	1	-2
647.914	1	-7
648.253	1	2
648.592	1	4
648.931	1	-3
649.270	1	3
649.610	1	-8
649.949	1	-3
650.288	1	8
650.627	1	0
650.966	1	3
651.305	1	1
651.644	1	7
651.983	1	-10
652.322	1	0
652.661	1	-8
653.000	1	-3
653.339	1	-1
653.678	1	1
654.017	1	-5
654.356	1	6
654.695	1	3
655.034	1	-6
655.373	1	-4
655.712	1	5
656.051	1	-1
656.390	1	6
656.729	1	9
657.068	1	6
657.406	1	10
657.745	1	-5
658.084	1	3
658.423	1	3
658.762	1	24
659.101	1	7
659.440	1	-5
659.779	1	0
660.118	1	-4
660.457	1	-7
660.796	1	6
661.135	1	17
661.474	1	7
661.813	1	4
662.152	1	-3
662.491	1	10
662.829	1	12
663.168	1	-2
663.507	1	10
663.846	1	1
664.185	1	-9
664.524	1	5
664.863	1	8
665.202	1	3
665.541	1	-4
665.879	1	1
666.218	1	4
666.557	1	1
666.896	1	1
667.235	1	0
667.574	1	9
667.913	1	6
668.251	1	-2
668.590	1	7
668.929	1	7
669.268	1	0
669.607	1	1
669.946	1	7
670.285	1	7
670.623	1	10
670.962	1	-14
671.301	1	8
671.640	1	-6
671.979	1	1
672.317	1	-2
672.656	1	-9
672.995	1	8
673.334	1	-8
673.673	1	9
674.011	1	-4
674.350	1	2
674.689	1	6
675.028	1	15
675.367	1	-6
675.705	1	9
676.044	1	0
676.383	1	6
676.722	1	3
677.060	1	6
677.399	1	-10
677.738	1	4
678.077	1	6
678.416	1	14
678.754	1	8
679.093	1	3
679.432	1	0
679.771	1	11
680.109	1	11
680.448	1	6
680.787	1	3
681.125	1	1
681.464	1	-7
681.803	1	-8
682.142	1	-4
682.480	1	7
682.819	1	8
683.158	1	7
683.496	1	10
683.835	1	0
684.174	1	5
684.512	1	3
684.851	1	-1
685.190	1	0
685.529	1	1
685.867	1	1
686.206	1	-1
686.545	1	-3
686.883	1	-1
687.222	1	9
687.561	1	8
687.899	1	1
688.238	1	5
688.577	1	-2
688.746	1	2