File: Data/GaN_130K_350ms/GaN_sample F_spot6_UVVIS_130 K_200um_350 ms 2x2mm1_189.txt
340.368	1	13
340.710	1	9
341.052	1	-12
341.394	1	1
341.737	1	2
342.079	1	5
342.421	1	6
342.763	1	7
343.105	1	0
343.447	1	3
343.789	1	5
344.131	1	2
344.473	1	-2
344.815	1	-12
345.157	1	-7
345.499	1	-3
345.841	1	2
346.183	1	16
346.526	1	1
346.868	1	3
347.210	1	1
347.552	1	0
347.894	1	-1
348.236	1	-1
348.578	1	1
348.920	1	4
349.262	1	3
349.604	1	1
349.946	1	5
350.288	1	-3
350.630	1	8
350.972	1	0
351.314	1	3
351.656	1	-4
351.998	1	2
352.340	1	19
352.682	1	-1
353.024	1	6
353.366	1	1
353.708	1	-1
354.050	1	1
354.392	1	17
354.734	1	-4
355.076	1	7
355.418	1	8
355.760	1	5
356.102	1	0
356.444	1	-3
356.785	1	12
357.127	1	1
357.469	1	5
357.811	1	4
358.153	1	4
358.495	1	4
358.837	1	5
359.179	1	8
359.521	1	-8
359.863	1	5
360.205	1	5
360.547	1	0
360.889	1	1
361.231	1	10
361.572	1	11
361.914	1	16
362.256	1	1
362.598	1	7
362.940	1	-3
363.282	1	20
363.624	1	18
363.966	1	28
364.308	1	18
364.649	1	21
364.991	1	16
365.333	1	16
365.675	1	13
366.017	1	19
366.359	1	28
366.701	1	18
367.042	1	29
367.384	1	25
367.726	1	22
368.068	1	11
368.410	1	10
368.752	1	23
369.093	1	17
369.435	1	17
369.777	1	23
370.119	1	25
370.461	1	17
370.803	1	16
371.144	1	21
371.486	1	19
371.828	1	21
372.170	1	5
372.512	1	13
372.853	1	2
373.195	1	6
373.537	1	19
373.879	1	19
374.220	1	6
374.562	1	4
374.904	1	19
375.246	1	22
375.588	1	13
375.929	1	1
376.271	1	7
376.613	1	9
376.955	1	12
377.296	1	13
377.638	1	-4
377.980	1	-4
378.321	1	9
378.663	1	6
379.005	1	18
379.347	1	0
379.688	1	8
380.030	1	11
380.372	1	15
380.714	1	23
381.055	1	3
381.397	1	4
381.739	1	10
382.080	1	-3
382.422	1	8
382.764	1	9
383.105	1	3
383.447	1	12
383.789	1	16
384.130	1	5
384.472	1	14
384.814	1	2
385.156	1	3
385.497	1	4
385.839	1	12
386.180	1	17
386.522	1	8
386.864	1	10
387.205	1	10
387.547	1	17
387.889	1	3
388.230	1	2
388.572	1	9
388.914	1	9
389.255	1	1
389.597	1	3
389.939	1	14
390.280	1	10
390.622	1	-3
390.963	1	8
391.305	1	19
391.647	1	7
391.988	1	19
392.330	1	0
392.671	1	0
393.013	1	15
393.355	1	8
393.696	1	-2
394.038	1	4
394.379	1	9
394.721	1	11
395.062	1	0
395.404	1	2
395.746	1	5
396.087	1	11
396.429	1	11
396.770	1	8
397.112	1	2
397.453	1	12
397.795	1	2
398.136	1	16
398.478	1	8
398.819	1	-9
399.161	1	11
399.503	1	14
399.844	1	-1
400.186	1	-2
400.527	1	8
400.869	1	14
401.210	1	-3
401.552	1	7
401.893	1	-4
402.235	1	3
402.576	1	4
402.918	1	7
403.259	1	3
403.601	1	10
403.942	1	10
404.284	1	6
404.625	1	11
404.967	1	13
405.308	1	3
405.649	1	9
405.991	1	3
406.332	1	5
406.674	1	12
407.015	1	8
407.357	1	1
407.698	1	7
408.040	1	14
408.381	1	13
408.722	1	6
409.064	1	3
409.405	1	12
409.747	1	5
410.088	1	11
410.430	1	9
410.771	1	-9
411.112	1	18
411.454	1	6
411.795	1	14
412.137	1	7
412.478	1	0
412.819	1	10
413.161	1	6
413.502	1	14
413.844	1	3
414.185	1	-2
414.526	1	16
414.868	1	-3
415.209	1	9
415.550	1	-3
415.892	1	10
416.233	1	11
416.575	1	12
416.916	1	2
417.257	1	9
417.599	1	2
417.940	1	12
418.281	1	8
418.623	1	10
418.964	1	1
419.305	1	7
419.647	1	14
419.988	1	13
420.329	1	12
420.671	1	3
421.012	1	5
421.353	1	-2
421.695	1	7
422.036	1	6
422.377	1	10
422.718	1	4
423.060	1	6
423.401	1	10
423.742	1	13
424.084	1	14
424.425	1	11
424.766	1	9
425.107	1	11
425.449	1	2
425.790	1	10
426.131	1	19
426.472	1	1
426.814	1	9
427.155	1	-3
427.496	1	0
427.837	1	1
428.179	1	4
428.520	1	10
428.861	1	1
429.202	1	1
429.544	1	8
429.885	1	0
430.226	1	0
430.567	1	0
430.909	1	9
431.250	1	12
431.591	1	8
431.932	1	3
432.273	1	5
432.615	1	12
432.956	1	-5
433.297	1	12
433.638	1	2
433.979	1	15
434.320	1	-6
434.662	1	14
435.003	1	12
435.344	1	15
435.685	1	-3
436.026	1	5
436.368	1	-3
436.709	1	-1
437.050	1	7
437.391	1	7
437.732	1	15
438.073	1	13
438.414	1	-8
438.756	1	3
439.097	1	8
439.438	1	8
439.779	1	9
440.120	1	2
440.461	1	11
440.802	1	-6
441.143	1	-1
441.485	1	8
441.826	1	7
442.167	1	9
442.508	1	7
442.849	1	6
443.190	1	1
443.531	1	4
443.872	1	14
444.213	1	4
444.554	1	8
444.895	1	-3
445.237	1	-2
445.578	1	6
445.919	1	-6
446.260	1	4
446.601	1	11
446.942	1	2
447.283	1	12
447.624	1	4
447.965	1	9
448.306	1	2
448.647	1	20
448.988	1	12
449.329	1	-3
449.670	1	1
450.011	1	1
450.352	1	16
450.693	1	0
451.034	1	4
451.375	1	10
451.716	1	-6
452.057	1	25
452.398	1	3
452.739	1	13
453.080	1	5
453.421	1	2
453.762	1	2
454.103	1	-4
454.444	1	7
454.785	1	12
455.126	1	-5
455.467	1	9
455.808	1	21
456.149	1	-10
456.490	1	11
456.831	1	10
457.172	1	7
457.513	1	-12
457.854	1	6
458.195	1	-4
458.536	1	11
458.877	1	20
459.218	1	15
459.559	1	3
459.899	1	0
460.240	1	14
460.581	1	0
460.922	1	0
461.263	1	9
461.604	1	-7
461.945	1	13
462.286	1	14
462.627	1	6
462.968	1	1
463.309	1	9
463.649	1	-6
463.990	1	5
464.331	1	17
464.672	1	5
465.013	1	1
465.354	1	11
465.695	1	15
466.036	1	10
466.376	1	8
466.717	1	20
467.058	1	9
467.399	1	0
467.740	1	14
468.081	1	7
468.422	1	3
468.762	1	6
469.103	1	2
469.444	1	3
469.785	1	1
470.126	1	-4
470.467	1	7
470.807	1	2
471.148	1	-2
471.489	1	-3
471.830	1	9
472.171	1	5
472.511	1	-2
472.852	1	7
473.193	1	7
473.534	1	4
473.875	1	11
474.215	1	10
474.556	1	2
474.897	1	-3
475.238	1	5
475.578	1	1
475.919	1	-7
476.260	1	3
476.601	1	3
476.942	1	6
477.282	1	15
477.623	1	-12
477.964	1	-3
478.305	1	9
478.645	1	-5
478.986	1	4
479.327	1	2
479.667	1	14
480.008	1	0
480.349	1	-7
480.690	1	3
481.030	1	-10
481.371	1	8
481.712	1	-1
482.053	1	-1
482.393	1	12
482.734	1	-2
483.075	1	13
483.415	1	2
483.756	1	5
484.097	1	-2
484.437	1	-6
484.778	1	14
485.119	1	9
485.459	1	-7
485.800	1	13
486.141	1	2
486.481	1	4
486.822	1	8
487.163	1	5
487.503	1	-3
487.844	1	-3
488.185	1	3
488.525	1	7
488.866	1	7
489.207	1	2
489.547	1	3
489.888	1	7
490.228	1	0
490.569	1	-1
490.910	1	-7
491.250	1	4
491.591	1	3
491.932	1	9
492.272	1	-2
492.613	1	-3
492.953	1	2
493.294	1	13
493.635	1	9
493.975	1	9
494.316	1	-1
494.656	1	-3
494.997	1	1
495.337	1	1
495.678	1	0
496.019	1	0
496.359	1	11
496.700	1	3
497.040	1	10
497.381	1	4
497.721	1	13
498.062	1	3
498.403	1	0
498.743	1	8
499.084	1	6
499.424	1	-2
499.765	1	5
500.105	1	3
500.446	1	1
500.786	1	10
501.127	1	1
501.467	1	-6
501.808	1	-5
502.148	1	3
502.489	1	9
502.829	1	6
503.170	1	3
503.510	1	9
503.851	1	11
504.191	1	5
504.532	1	14
504.872	1	2
505.213	1	6
505.553	1	5
505.894	1	9
506.234	1	-2
506.575	1	-1
506.915	1	9
507.256	1	12
507.596	1	4
507.936	1	-3
508.277	1	10
508.617	1	0
508.958	1	5
509.298	1	8
509.639	1	3
509.979	1	-3
510.319	1	12
510.660	1	8
511.000	1	7
511.341	1	-2
511.681	1	3
512.022	1	9
512.362	1	9
512.702	1	9
513.043	1	2
513.383	1	7
513.724	1	1
514.064	1	12
514.404	1	10
514.745	1	-5
515.085	1	12
515.425	1	2
515.766	1	17
516.106	1	6
516.447	1	-1
516.787	1	15
517.127	1	11
517.468	1	2
517.808	1	5
518.148	1	10
518.489	1	6
518.829	1	4
519.169	1	10
519.510	1	2
519.850	1	16
520.190	1	8
520.531	1	16
520.871	1	-1
521.211	1	3
521.552	1	17
521.892	1	11
522.232	1	1
522.573	1	6
522.913	1	13
523.253	1	12
523.593	1	16
523.934	1	3
524.274	1	1
524.614	1	17
524.955	1	16
525.295	1	15
525.635	1	-5
525.975	1	11
526.316	1	9
526.656	1	9
526.996	1	1
527.337	1	20
527.677	1	2
528.017	1	8
528.357	1	11
528.698	1	7
529.038	1	-5
529.378	1	19
529.718	1	11
530.058	1	1
530.399	1	11
530.739	1	13
531.079	1	12
531.419	1	8
531.760	1	6
532.100	1	10
532.440	1	6
532.780	1	4
533.120	1	13
533.461	1	7
533.801	1	20
534.141	1	6
534.481	1	8
534.821	1	25
535.162	1	15
535.502	1	15
535.842	1	8
536.182	1	15
536.522	1	-6
536.862	1	10
537.203	1	-3
537.543	1	13
537.883	1	4
538.223	1	9
538.563	1	16
538.903	1	10
539.243	1	-1
539.584	1	16
539.924	1	1
540.264	1	10
540.604	1	14
540.944	1	13
541.284	1	16
541.624	1	21
541.964	1	3
542.305	1	4
542.645	1	4
542.985	1	10
543.325	1	9
543.665	1	10
544.005	1	22
544.345	1	13
544.685	1	17
545.025	1	-1
545.365	1	13
545.705	1	5
546.045	1	9
546.386	1	5
546.726	1	4
547.066	1	10
547.406	1	1
547.746	1	8
548.086	1	-3
548.426	1	13
548.766	1	2
549.106	1	-9
549.446	1	-1
549.786	1	10
550.126	1	14
550.466	1	5
550.806	1	11
551.146	1	7
551.486	1	4
551.826	1	6
552.166	1	7
552.506	1	7
552.846	1	1
553.186	1	-4
553.526	1	5
553.866	1	-1
554.206	1	6
554.546	1	9
554.886	1	3
555.226	1	11
555.566	1	-1
555.906	1	8
556.246	1	5
556.586	1	7
556.926	1	13
557.266	1	3
557.606	1	-1
557.946	1	12
558.286	1	9
558.626	1	-4
558.966	1	1
559.306	1	5
559.646	1	13
559.986	1	5
560.325	1	-8
560.665	1	14
561.005	1	4
561.345	1	15
561.685	1	4
562.025	1	2
562.365	1	12
562.705	1	13
563.045	1	3
563.385	1	10
563.725	1	11
564.064	1	19
564.404	1	2
564.744	1	12
565.084	1	0
565.424	1	5
565.764	1	7
566.104	1	2
566.444	1	14
566.783	1	4
567.123	1	9
567.463	1	4
567.803	1	8
568.143	1	9
568.483	1	3
568.823	1	-10
569.162	1	10
569.502	1	5
569.842	1	6
570.182	1	1
570.522	1	-5
570.862	1	21
571.201	1	17
571.541	1	8
571.881	1	6
572.221	1	12
572.561	1	0
572.900	1	10
573.240	1	1
573.580	1	1
573.920	1	11
574.260	1	0
574.599	1	12
574.939	1	9
575.279	1	2
575.619	1	2
575.959	1	8
576.298	1	6
576.638	1	14
576.978	1	-5
577.318	1	7
577.657	1	7
577.997	1	8
578.337	1	6
578.677	1	4
579.016	1	-6
579.356	1	12
579.696	1	-3
580.036	1	2
580.375	1	-2
580.715	1	7
581.055	1	-7
581.394	1	-2
581.734	1	11
582.074	1	4
582.414	1	6
582.753	1	7
583.093	1	4
583.433	1	10
583.772	1	14
584.112	1	14
584.452	1	12
584.791	1	7
585.131	1	9
585.471	1	5
585.811	1	6
586.150	1	10
586.490	1	5
586.830	1	-6
587.169	1	3
587.509	1	2
587.849	1	3
588.188	1	9
588.528	1	7
588.867	1	3
589.207	1	6
589.547	1	9
589.886	1	9
590.226	1	11
590.566	1	8
590.905	1	10
591.245	1	-2
591.585	1	7
591.924	1	9
592.264	1	6
592.603	1	0
592.943	1	3
593.283	1	-6
593.622	1	6
593.962	1	1
594.301	1	-8
594.641	1	11
594.981	1	-4
595.320	1	7
595.660	1	2
595.999	1	5
596.339	1	7
596.678	1	-2
597.018	1	12
597.358	1	-8
597.697	1	0
598.037	1	3
598.376	1	2
598.716	1	9
599.055	1	1
599.395	1	-8
599.734	1	0
600.074	1	5
600.413	1	8
600.753	1	2
601.092	1	3
601.432	1	-3
601.771	1	5
602.111	1	0
602.451	1	-1
602.790	1	-8
603.130	1	12
603.469	1	11
603.809	1	4
604.148	1	5
604.487	1	10
604.827	1	0
605.166	1	15
605.506	1	10
605.845	1	-4
606.185	1	8
606.524	1	9
606.864	1	14
607.203	1	2
607.543	1	0
607.882	1	6
608.222	1	-2
608.561	1	-8
608.901	1	13
609.240	1	-3
609.579	1	13
609.919	1	1
610.258	1	-1
610.598	1	0
610.937	1	7
611.277	1	11
611.616	1	1
611.955	1	-1
612.295	1	5
612.634	1	8
612.974	1	8
613.313	1	4
613.652	1	-7
613.992	1	-5
614.331	1	2
614.671	1	7
615.010	1	7
615.349	1	9
615.689	1	-1
616.028	1	16
616.368	1	10
616.707	1	18
617.046	1	-1
617.386	1	-9
617.725	1	6
618.064	1	12
618.404	1	0
618.743	1	6
619.082	1	4
619.422	1	-1
619.761	1	11
620.100	1	-4
620.440	1	5
620.779	1	1
621.118	1	7
621.458	1	9
621.797	1	7
622.136	1	4
622.476	1	13
622.815	1	-1
623.154	1	-1
623.494	1	4
623.833	1	11
624.172	1	-4
624.511	1	-1
624.851	1	8
625.190	1	-7
625.529	1	2
625.869	1	-2
626.208	1	6
626.547	1	15
626.886	1	9
627.226	1	0
627.565	1	-2
627.904	1	7
628.243	1	1
628.583	1	-9
628.922	1	-6
629.261	1	-3
629.600	1	0
629.940	1	9
630.279	1	12
630.618	1	-1
630.957	1	3
631.297	1	1
631.636	1	15
631.975	1	16
632.314	1	3
632.653	1	8
632.993	1	3
633.332	1	12
633.671	1	-11
634.010	1	-10
634.349	1	-4
634.689	1	0
635.028	1	14
635.367	1	1
635.706	1	-3
636.045	1	11
636.384	1	5
636.724	1	11
637.063	1	5
637.402	1	-8
637.741	1	10
638.080	1	8
638.419	1	5
638.759	1	0
639.098	1	-4
639.437	1	8
639.776	1	3
640.115	1	3
640.454	1	7
640.793	1	-5
641.132	1	16
641.472	1	7
641.811	1	4
642.150	1	-8
642.489	1	-6
642.828	1	2
643.167	1	2
643.506	1	13
643.845	1	-1
644.184	1	-1
644.524	1	2
644.863	1	6
645.202	1	4
645.541	1	2
645.880	1	11
646.219	1	7
646.558	1	2
646.897	1	5
647.236	1	3
647.575	1	0
647.914	1	-4
648.253	1	5
648.592	1	0
648.931	1	14
649.270	1	2
649.610	1	-1
649.949	1	2
650.288	1	7
650.627	1	10
650.966	1	0
651.305	1	-1
651.644	1	0
651.983	1	-7
652.322	1	6
652.661	1	-3
653.000	1	11
653.339	1	-2
653.678	1	-6
654.017	1	-2
654.356	1	1
654.695	1	2
655.034	1	-7
655.373	1	6
655.712	1	11
656.051	1	5
656.390	1	0
656.729	1	4
657.068	1	3
657.406	1	8
657.745	1	-1
658.084	1	-4
658.423	1	-2
658.762	1	14
659.101	1	-3
659.440	1	1
659.779	1	7
660.118	1	-2
660.457	1	0
660.796	1	4
661.135	1	10
661.474	1	-1
661.813	1	-4
662.152	1	-1
662.491	1	22
662.829	1	17
663.168	1	1
663.507	1	7
663.846	1	6
664.185	1	1
664.524	1	-7
664.863	1	-1
665.202	1	-5
665.541	1	5
665.879	1	2
666.218	1	10
666.557	1	1
666.896	1	5
667.235	1	9
667.574	1	22
667.913	1	6
668.251	1	-4
668.590	1	5
668.929	1	7
669.268	1	5
669.607	1	2
669.946	1	12
670.285	1	4
670.623	1	12
670.962	1	-3
671.301	1	8
671.640	1	-5
671.979	1	9
672.317	1	2
672.656	1	-5
672.995	1	-6
673.334	1	2
673.673	1	10
674.011	1	7
674.350	1	7
674.689	1	0
675.028	1	4
675.367	1	-3
675.705	1	8
676.044	1	11
676.383	1	8
676.722	1	1
677.060	1	4
677.399	1	-3
677.738	1	-5
678.077	1	-3
678.416	1	4
678.754	1	4
679.093	1	7
679.432	1	3
679.771	1	6
680.109	1	14
680.448	1	1
680.787	1	9
681.125	1	16
681.464	1	-3
681.803	1	0
682.142	1	-7
682.480	1	7
682.819	1	12
683.158	1	6
683.496	1	-3
683.835	1	-3
684.174	1	11
684.512	1	7
684.851	1	4
685.190	1	2
685.529	1	-4
685.867	1	10
686.206	1	7
686.545	1	-3
686.883	1	-3
687.222	1	-1
687.561	1	15
687.899	1	0
688.238	1	13
688.577	1	-1
688.746	1	-2