File: Data/GaN_130K_350ms/GaN_sample F_spot6_UVVIS_130 K_200um_350 ms 2x2mm1_131.txt
340.368	1	-2
340.710	1	7
341.052	1	-1
341.394	1	4
341.737	1	-2
342.079	1	5
342.421	1	8
342.763	1	11
343.105	1	6
343.447	1	2
343.789	1	1
344.131	1	8
344.473	1	2
344.815	1	0
345.157	1	-10
345.499	1	-8
345.841	1	2
346.183	1	12
346.526	1	-3
346.868	1	10
347.210	1	-6
347.552	1	1
347.894	1	9
348.236	1	3
348.578	1	-7
348.920	1	3
349.262	1	5
349.604	1	5
349.946	1	4
350.288	1	-7
350.630	1	10
350.972	1	10
351.314	1	-1
351.656	1	10
351.998	1	2
352.340	1	12
352.682	1	-3
353.024	1	12
353.366	1	6
353.708	1	2
354.050	1	5
354.392	1	9
354.734	1	-1
355.076	1	2
355.418	1	20
355.760	1	6
356.102	1	1
356.444	1	-3
356.785	1	17
357.127	1	15
357.469	1	2
357.811	1	13
358.153	1	14
358.495	1	16
358.837	1	9
359.179	1	11
359.521	1	7
359.863	1	13
360.205	1	11
360.547	1	18
360.889	1	8
361.231	1	12
361.572	1	25
361.914	1	15
362.256	1	13
362.598	1	28
362.940	1	16
363.282	1	33
363.624	1	29
363.966	1	42
364.308	1	44
364.649	1	44
364.991	1	38
365.333	1	35
365.675	1	32
366.017	1	41
366.359	1	57
366.701	1	58
367.042	1	54
367.384	1	66
367.726	1	56
368.068	1	56
368.410	1	49
368.752	1	58
369.093	1	51
369.435	1	44
369.777	1	50
370.119	1	53
370.461	1	54
370.803	1	45
371.144	1	47
371.486	1	38
371.828	1	48
372.170	1	33
372.512	1	44
372.853	1	27
373.195	1	37
373.537	1	35
373.879	1	38
374.220	1	30
374.562	1	34
374.904	1	22
375.246	1	24
375.588	1	24
375.929	1	16
376.271	1	27
376.613	1	16
376.955	1	34
377.296	1	10
377.638	1	3
377.980	1	18
378.321	1	17
378.663	1	16
379.005	1	26
379.347	1	15
379.688	1	18
380.030	1	13
380.372	1	26
380.714	1	26
381.055	1	26
381.397	1	15
381.739	1	15
382.080	1	-3
382.422	1	15
382.764	1	15
383.105	1	14
383.447	1	21
383.789	1	17
384.130	1	18
384.472	1	14
384.814	1	11
385.156	1	17
385.497	1	8
385.839	1	18
386.180	1	20
386.522	1	10
386.864	1	18
387.205	1	10
387.547	1	17
387.889	1	9
388.230	1	11
388.572	1	10
388.914	1	10
389.255	1	21
389.597	1	1
389.939	1	12
390.280	1	20
390.622	1	12
390.963	1	14
391.305	1	8
391.647	1	15
391.988	1	17
392.330	1	2
392.671	1	3
393.013	1	12
393.355	1	6
393.696	1	2
394.038	1	13
394.379	1	24
394.721	1	15
395.062	1	-2
395.404	1	8
395.746	1	21
396.087	1	11
396.429	1	21
396.770	1	15
397.112	1	20
397.453	1	13
397.795	1	1
398.136	1	9
398.478	1	11
398.819	1	-7
399.161	1	15
399.503	1	20
399.844	1	15
400.186	1	0
400.527	1	16
400.869	1	19
401.210	1	1
401.552	1	15
401.893	1	2
402.235	1	6
402.576	1	3
402.918	1	13
403.259	1	6
403.601	1	13
403.942	1	7
404.284	1	5
404.625	1	20
404.967	1	1
405.308	1	7
405.649	1	4
405.991	1	9
406.332	1	12
406.674	1	16
407.015	1	6
407.357	1	10
407.698	1	5
408.040	1	15
408.381	1	17
408.722	1	21
409.064	1	9
409.405	1	17
409.747	1	6
410.088	1	11
410.430	1	13
410.771	1	-6
411.112	1	17
411.454	1	6
411.795	1	14
412.137	1	-3
412.478	1	1
412.819	1	12
413.161	1	24
413.502	1	13
413.844	1	16
414.185	1	8
414.526	1	17
414.868	1	3
415.209	1	10
415.550	1	3
415.892	1	13
416.233	1	13
416.575	1	9
416.916	1	7
417.257	1	8
417.599	1	10
417.940	1	6
418.281	1	3
418.623	1	12
418.964	1	5
419.305	1	13
419.647	1	13
419.988	1	17
420.329	1	9
420.671	1	8
421.012	1	12
421.353	1	3
421.695	1	2
422.036	1	7
422.377	1	12
422.718	1	2
423.060	1	4
423.401	1	16
423.742	1	9
424.084	1	8
424.425	1	7
424.766	1	2
425.107	1	17
425.449	1	9
425.790	1	15
426.131	1	18
426.472	1	7
426.814	1	8
427.155	1	5
427.496	1	10
427.837	1	9
428.179	1	9
428.520	1	13
428.861	1	6
429.202	1	7
429.544	1	20
429.885	1	7
430.226	1	2
430.567	1	8
430.909	1	12
431.250	1	12
431.591	1	9
431.932	1	5
432.273	1	10
432.615	1	14
432.956	1	0
433.297	1	22
433.638	1	12
433.979	1	8
434.320	1	14
434.662	1	10
435.003	1	12
435.344	1	2
435.685	1	-7
436.026	1	9
436.368	1	-5
436.709	1	11
437.050	1	11
437.391	1	22
437.732	1	8
438.073	1	15
438.414	1	6
438.756	1	2
439.097	1	10
439.438	1	4
439.779	1	15
440.120	1	12
440.461	1	9
440.802	1	-1
441.143	1	1
441.485	1	14
441.826	1	-3
442.167	1	-2
442.508	1	0
442.849	1	12
443.190	1	-2
443.531	1	5
443.872	1	7
444.213	1	5
444.554	1	1
444.895	1	11
445.237	1	0
445.578	1	3
445.919	1	2
446.260	1	6
446.601	1	22
446.942	1	-1
447.283	1	2
447.624	1	-2
447.965	1	6
448.306	1	13
448.647	1	12
448.988	1	10
449.329	1	0
449.670	1	3
450.011	1	0
450.352	1	13
450.693	1	9
451.034	1	11
451.375	1	10
451.716	1	-4
452.057	1	10
452.398	1	2
452.739	1	4
453.080	1	5
453.421	1	-1
453.762	1	5
454.103	1	4
454.444	1	8
454.785	1	5
455.126	1	-4
455.467	1	4
455.808	1	10
456.149	1	-3
456.490	1	7
456.831	1	9
457.172	1	6
457.513	1	2
457.854	1	12
458.195	1	-4
458.536	1	2
458.877	1	22
459.218	1	5
459.559	1	7
459.899	1	0
460.240	1	19
460.581	1	5
460.922	1	6
461.263	1	4
461.604	1	-11
461.945	1	17
462.286	1	13
462.627	1	1
462.968	1	-2
463.309	1	0
463.649	1	-2
463.990	1	2
464.331	1	8
464.672	1	5
465.013	1	-5
465.354	1	0
465.695	1	10
466.036	1	7
466.376	1	18
466.717	1	9
467.058	1	1
467.399	1	2
467.740	1	13
468.081	1	11
468.422	1	9
468.762	1	9
469.103	1	4
469.444	1	6
469.785	1	12
470.126	1	0
470.467	1	7
470.807	1	1
471.148	1	6
471.489	1	-5
471.830	1	6
472.171	1	7
472.511	1	3
472.852	1	15
473.193	1	4
473.534	1	8
473.875	1	16
474.215	1	6
474.556	1	9
474.897	1	-2
475.238	1	21
475.578	1	2
475.919	1	-3
476.260	1	8
476.601	1	1
476.942	1	7
477.282	1	6
477.623	1	4
477.964	1	-7
478.305	1	16
478.645	1	6
478.986	1	-2
479.327	1	3
479.667	1	10
480.008	1	2
480.349	1	5
480.690	1	7
481.030	1	3
481.371	1	9
481.712	1	12
482.053	1	6
482.393	1	14
482.734	1	0
483.075	1	9
483.415	1	0
483.756	1	2
484.097	1	2
484.437	1	15
484.778	1	7
485.119	1	7
485.459	1	-8
485.800	1	19
486.141	1	6
486.481	1	2
486.822	1	6
487.163	1	3
487.503	1	6
487.844	1	6
488.185	1	12
488.525	1	11
488.866	1	3
489.207	1	0
489.547	1	4
489.888	1	13
490.228	1	8
490.569	1	3
490.910	1	3
491.250	1	18
491.591	1	-1
491.932	1	3
492.272	1	7
492.613	1	5
492.953	1	4
493.294	1	15
493.635	1	3
493.975	1	16
494.316	1	15
494.656	1	-2
494.997	1	3
495.337	1	-2
495.678	1	9
496.019	1	15
496.359	1	12
496.700	1	9
497.040	1	5
497.381	1	8
497.721	1	8
498.062	1	3
498.403	1	8
498.743	1	20
499.084	1	10
499.424	1	2
499.765	1	3
500.105	1	13
500.446	1	10
500.786	1	23
501.127	1	8
501.467	1	6
501.808	1	14
502.148	1	15
502.489	1	16
502.829	1	11
503.170	1	1
503.510	1	11
503.851	1	8
504.191	1	5
504.532	1	5
504.872	1	12
505.213	1	13
505.553	1	17
505.894	1	17
506.234	1	5
506.575	1	12
506.915	1	11
507.256	1	19
507.596	1	14
507.936	1	8
508.277	1	11
508.617	1	4
508.958	1	22
509.298	1	8
509.639	1	16
509.979	1	3
510.319	1	21
510.660	1	3
511.000	1	21
511.341	1	14
511.681	1	18
512.022	1	32
512.362	1	7
512.702	1	19
513.043	1	10
513.383	1	22
513.724	1	9
514.064	1	17
514.404	1	20
514.745	1	15
515.085	1	23
515.425	1	16
515.766	1	18
516.106	1	8
516.447	1	15
516.787	1	12
517.127	1	17
517.468	1	27
517.808	1	16
518.148	1	22
518.489	1	10
518.829	1	33
519.169	1	16
519.510	1	9
519.850	1	25
520.190	1	27
520.531	1	22
520.871	1	10
521.211	1	16
521.552	1	17
521.892	1	14
522.232	1	10
522.573	1	11
522.913	1	22
523.253	1	22
523.593	1	31
523.934	1	23
524.274	1	14
524.614	1	19
524.955	1	19
525.295	1	12
525.635	1	12
525.975	1	26
526.316	1	8
526.656	1	17
526.996	1	20
527.337	1	33
527.677	1	11
528.017	1	17
528.357	1	19
528.698	1	7
529.038	1	15
529.378	1	18
529.718	1	29
530.058	1	14
530.399	1	27
530.739	1	15
531.079	1	20
531.419	1	24
531.760	1	13
532.100	1	22
532.440	1	21
532.780	1	15
533.120	1	23
533.461	1	24
533.801	1	36
534.141	1	26
534.481	1	15
534.821	1	25
535.162	1	29
535.502	1	25
535.842	1	19
536.182	1	30
536.522	1	24
536.862	1	21
537.203	1	19
537.543	1	20
537.883	1	9
538.223	1	16
538.563	1	29
538.903	1	20
539.243	1	25
539.584	1	19
539.924	1	15
540.264	1	9
540.604	1	22
540.944	1	9
541.284	1	19
541.624	1	14
541.964	1	11
542.305	1	12
542.645	1	14
542.985	1	24
543.325	1	28
543.665	1	23
544.005	1	14
544.345	1	12
544.685	1	18
545.025	1	13
545.365	1	30
545.705	1	13
546.045	1	18
546.386	1	19
546.726	1	12
547.066	1	26
547.406	1	8
547.746	1	19
548.086	1	14
548.426	1	18
548.766	1	21
549.106	1	7
549.446	1	18
549.786	1	27
550.126	1	23
550.466	1	19
550.806	1	25
551.146	1	12
551.486	1	9
551.826	1	27
552.166	1	21
552.506	1	17
552.846	1	13
553.186	1	10
553.526	1	20
553.866	1	8
554.206	1	9
554.546	1	22
554.886	1	10
555.226	1	14
555.566	1	12
555.906	1	9
556.246	1	18
556.586	1	16
556.926	1	5
557.266	1	18
557.606	1	10
557.946	1	19
558.286	1	41
558.626	1	-3
558.966	1	1
559.306	1	5
559.646	1	12
559.986	1	13
560.325	1	9
560.665	1	16
561.005	1	6
561.345	1	14
561.685	1	12
562.025	1	11
562.365	1	19
562.705	1	16
563.045	1	3
563.385	1	9
563.725	1	12
564.064	1	27
564.404	1	13
564.744	1	21
565.084	1	8
565.424	1	7
565.764	1	16
566.104	1	15
566.444	1	8
566.783	1	25
567.123	1	9
567.463	1	14
567.803	1	16
568.143	1	19
568.483	1	3
568.823	1	1
569.162	1	12
569.502	1	13
569.842	1	3
570.182	1	8
570.522	1	0
570.862	1	25
571.201	1	9
571.541	1	5
571.881	1	7
572.221	1	13
572.561	1	7
572.900	1	21
573.240	1	5
573.580	1	11
573.920	1	12
574.260	1	12
574.599	1	19
574.939	1	11
575.279	1	-2
575.619	1	16
575.959	1	9
576.298	1	4
576.638	1	-1
576.978	1	4
577.318	1	9
577.657	1	9
577.997	1	11
578.337	1	14
578.677	1	23
579.016	1	9
579.356	1	15
579.696	1	0
580.036	1	4
580.375	1	1
580.715	1	17
581.055	1	8
581.394	1	14
581.734	1	13
582.074	1	7
582.414	1	0
582.753	1	10
583.093	1	4
583.433	1	7
583.772	1	10
584.112	1	18
584.452	1	16
584.791	1	4
585.131	1	16
585.471	1	8
585.811	1	-1
586.150	1	9
586.490	1	8
586.830	1	4
587.169	1	9
587.509	1	12
587.849	1	9
588.188	1	15
588.528	1	12
588.867	1	10
589.207	1	7
589.547	1	3
589.886	1	4
590.226	1	19
590.566	1	7
590.905	1	16
591.245	1	6
591.585	1	13
591.924	1	-1
592.264	1	3
592.603	1	-5
592.943	1	7
593.283	1	0
593.622	1	9
593.962	1	17
594.301	1	3
594.641	1	15
594.981	1	-1
595.320	1	9
595.660	1	3
595.999	1	14
596.339	1	2
596.678	1	-3
597.018	1	0
597.358	1	-2
597.697	1	9
598.037	1	8
598.376	1	5
598.716	1	10
599.055	1	6
599.395	1	5
599.734	1	1
600.074	1	6
600.413	1	13
600.753	1	2
601.092	1	0
601.432	1	-1
601.771	1	7
602.111	1	-1
602.451	1	4
602.790	1	11
603.130	1	3
603.469	1	5
603.809	1	6
604.148	1	8
604.487	1	16
604.827	1	8
605.166	1	21
605.506	1	14
605.845	1	-1
606.185	1	12
606.524	1	12
606.864	1	20
607.203	1	-2
607.543	1	6
607.882	1	13
608.222	1	3
608.561	1	6
608.901	1	7
609.240	1	-4
609.579	1	13
609.919	1	10
610.258	1	0
610.598	1	4
610.937	1	14
611.277	1	0
611.616	1	3
611.955	1	-4
612.295	1	3
612.634	1	4
612.974	1	8
613.313	1	7
613.652	1	-6
613.992	1	17
614.331	1	6
614.671	1	6
615.010	1	-5
615.349	1	6
615.689	1	13
616.028	1	13
616.368	1	6
616.707	1	16
617.046	1	11
617.386	1	0
617.725	1	6
618.064	1	11
618.404	1	-1
618.743	1	9
619.082	1	6
619.422	1	5
619.761	1	6
620.100	1	0
620.440	1	14
620.779	1	2
621.118	1	2
621.458	1	1
621.797	1	-1
622.136	1	3
622.476	1	11
622.815	1	2
623.154	1	6
623.494	1	11
623.833	1	18
624.172	1	5
624.511	1	-7
624.851	1	5
625.190	1	7
625.529	1	5
625.869	1	13
626.208	1	2
626.547	1	2
626.886	1	-4
627.226	1	7
627.565	1	-3
627.904	1	10
628.243	1	6
628.583	1	-5
628.922	1	-3
629.261	1	-14
629.600	1	6
629.940	1	13
630.279	1	14
630.618	1	5
630.957	1	1
631.297	1	-1
631.636	1	10
631.975	1	8
632.314	1	7
632.653	1	5
632.993	1	11
633.332	1	-3
633.671	1	3
634.010	1	-4
634.349	1	2
634.689	1	13
635.028	1	0
635.367	1	12
635.706	1	3
636.045	1	15
636.384	1	8
636.724	1	14
637.063	1	8
637.402	1	1
637.741	1	15
638.080	1	11
638.419	1	5
638.759	1	2
639.098	1	-3
639.437	1	16
639.776	1	2
640.115	1	4
640.454	1	12
640.793	1	-11
641.132	1	15
641.472	1	1
641.811	1	3
642.150	1	-13
642.489	1	-8
642.828	1	8
643.167	1	15
643.506	1	14
643.845	1	-2
644.184	1	9
644.524	1	-8
644.863	1	-1
645.202	1	5
645.541	1	-2
645.880	1	7
646.219	1	-1
646.558	1	-3
646.897	1	9
647.236	1	9
647.575	1	-4
647.914	1	1
648.253	1	-2
648.592	1	0
648.931	1	3
649.270	1	-1
649.610	1	4
649.949	1	6
650.288	1	6
650.627	1	1
650.966	1	5
651.305	1	4
651.644	1	10
651.983	1	0
652.322	1	-2
652.661	1	0
653.000	1	1
653.339	1	8
653.678	1	-1
654.017	1	-2
654.356	1	-1
654.695	1	-1
655.034	1	2
655.373	1	9
655.712	1	2
656.051	1	13
656.390	1	3
656.729	1	3
657.068	1	-5
657.406	1	13
657.745	1	-3
658.084	1	-4
658.423	1	7
658.762	1	19
659.101	1	2
659.440	1	-7
659.779	1	1
660.118	1	-5
660.457	1	-9
660.796	1	7
661.135	1	12
661.474	1	9
661.813	1	2
662.152	1	11
662.491	1	16
662.829	1	18
663.168	1	2
663.507	1	8
663.846	1	4
664.185	1	-6
664.524	1	1
664.863	1	3
665.202	1	2
665.541	1	1
665.879	1	0
666.218	1	6
666.557	1	4
666.896	1	12
667.235	1	7
667.574	1	14
667.913	1	19
668.251	1	2
668.590	1	5
668.929	1	7
669.268	1	6
669.607	1	-4
669.946	1	11
670.285	1	5
670.623	1	14
670.962	1	-1
671.301	1	7
671.640	1	-3
671.979	1	11
672.317	1	5
672.656	1	-6
672.995	1	2
673.334	1	0
673.673	1	18
674.011	1	3
674.350	1	4
674.689	1	7
675.028	1	5
675.367	1	-1
675.705	1	16
676.044	1	-3
676.383	1	9
676.722	1	-1
677.060	1	7
677.399	1	-5
677.738	1	2
678.077	1	3
678.416	1	10
678.754	1	11
679.093	1	6
679.432	1	7
679.771	1	6
680.109	1	4
680.448	1	10
680.787	1	6
681.125	1	4
681.464	1	-6
681.803	1	4
682.142	1	-7
682.480	1	11
682.819	1	4
683.158	1	0
683.496	1	-2
683.835	1	1
684.174	1	1
684.512	1	16
684.851	1	-9
685.190	1	9
685.529	1	-5
685.867	1	6
686.206	1	9
686.545	1	1
686.883	1	12
687.222	1	6
687.561	1	16
687.899	1	-5
688.238	1	20
688.577	1	1
688.746	1	2