File: Data/GaN_130K_350ms/GaN_sample F_spot6_UVVIS_130 K_200um_350 ms 2x2mm1_282.txt
340.368	1	9
340.710	1	8
341.052	1	0
341.394	1	4
341.737	1	5
342.079	1	-2
342.421	1	2
342.763	1	-4
343.105	1	1
343.447	1	11
343.789	1	6
344.131	1	13
344.473	1	-8
344.815	1	-7
345.157	1	-11
345.499	1	8
345.841	1	-6
346.183	1	3
346.526	1	-6
346.868	1	6
347.210	1	0
347.552	1	-1
347.894	1	-6
348.236	1	-4
348.578	1	5
348.920	1	4
349.262	1	1
349.604	1	1
349.946	1	12
350.288	1	0
350.630	1	8
350.972	1	9
351.314	1	-3
351.656	1	16
351.998	1	-5
352.340	1	13
352.682	1	2
353.024	1	5
353.366	1	7
353.708	1	-9
354.050	1	6
354.392	1	7
354.734	1	-7
355.076	1	5
355.418	1	10
355.760	1	5
356.102	1	-4
356.444	1	-11
356.785	1	4
357.127	1	4
357.469	1	2
357.811	1	4
358.153	1	-1
358.495	1	11
358.837	1	5
359.179	1	10
359.521	1	-4
359.863	1	-8
360.205	1	-6
360.547	1	5
360.889	1	2
361.231	1	0
361.572	1	7
361.914	1	-1
362.256	1	5
362.598	1	4
362.940	1	-7
363.282	1	10
363.624	1	5
363.966	1	21
364.308	1	20
364.649	1	5
364.991	1	0
365.333	1	13
365.675	1	12
366.017	1	11
366.359	1	12
366.701	1	3
367.042	1	18
367.384	1	22
367.726	1	13
368.068	1	3
368.410	1	4
368.752	1	15
369.093	1	15
369.435	1	9
369.777	1	-6
370.119	1	15
370.461	1	14
370.803	1	7
371.144	1	8
371.486	1	8
371.828	1	11
372.170	1	4
372.512	1	8
372.853	1	0
373.195	1	2
373.537	1	7
373.879	1	10
374.220	1	3
374.562	1	4
374.904	1	3
375.246	1	9
375.588	1	5
375.929	1	-4
376.271	1	9
376.613	1	1
376.955	1	7
377.296	1	0
377.638	1	-8
377.980	1	-3
378.321	1	-4
378.663	1	5
379.005	1	22
379.347	1	0
379.688	1	0
380.030	1	-2
380.372	1	8
380.714	1	12
381.055	1	4
381.397	1	2
381.739	1	1
382.080	1	-2
382.422	1	20
382.764	1	8
383.105	1	4
383.447	1	8
383.789	1	7
384.130	1	4
384.472	1	11
384.814	1	3
385.156	1	7
385.497	1	-2
385.839	1	5
386.180	1	7
386.522	1	3
386.864	1	7
387.205	1	1
387.547	1	8
387.889	1	-2
388.230	1	3
388.572	1	-1
388.914	1	10
389.255	1	1
389.597	1	-7
389.939	1	9
390.280	1	9
390.622	1	4
390.963	1	10
391.305	1	5
391.647	1	10
391.988	1	10
392.330	1	1
392.671	1	4
393.013	1	6
393.355	1	-1
393.696	1	-6
394.038	1	7
394.379	1	8
394.721	1	4
395.062	1	-3
395.404	1	1
395.746	1	14
396.087	1	13
396.429	1	7
396.770	1	13
397.112	1	7
397.453	1	4
397.795	1	-5
398.136	1	7
398.478	1	6
398.819	1	-12
399.161	1	13
399.503	1	12
399.844	1	-2
400.186	1	-1
400.527	1	5
400.869	1	7
401.210	1	-5
401.552	1	13
401.893	1	-12
402.235	1	5
402.576	1	2
402.918	1	4
403.259	1	-5
403.601	1	3
403.942	1	3
404.284	1	-4
404.625	1	7
404.967	1	4
405.308	1	0
405.649	1	8
405.991	1	4
406.332	1	15
406.674	1	8
407.015	1	4
407.357	1	1
407.698	1	4
408.040	1	12
408.381	1	9
408.722	1	2
409.064	1	3
409.405	1	1
409.747	1	4
410.088	1	16
410.430	1	5
410.771	1	-10
411.112	1	15
411.454	1	5
411.795	1	5
412.137	1	-8
412.478	1	2
412.819	1	1
413.161	1	7
413.502	1	8
413.844	1	11
414.185	1	8
414.526	1	6
414.868	1	0
415.209	1	3
415.550	1	3
415.892	1	1
416.233	1	12
416.575	1	11
416.916	1	-1
417.257	1	0
417.599	1	10
417.940	1	9
418.281	1	5
418.623	1	5
418.964	1	-5
419.305	1	0
419.647	1	10
419.988	1	-1
420.329	1	11
420.671	1	-1
421.012	1	2
421.353	1	1
421.695	1	4
422.036	1	10
422.377	1	4
422.718	1	4
423.060	1	3
423.401	1	8
423.742	1	-1
424.084	1	5
424.425	1	3
424.766	1	6
425.107	1	8
425.449	1	-2
425.790	1	14
426.131	1	17
426.472	1	4
426.814	1	1
427.155	1	-1
427.496	1	11
427.837	1	16
428.179	1	-5
428.520	1	4
428.861	1	0
429.202	1	6
429.544	1	9
429.885	1	3
430.226	1	1
430.567	1	-1
430.909	1	5
431.250	1	1
431.591	1	-5
431.932	1	-4
432.273	1	5
432.615	1	5
432.956	1	4
433.297	1	16
433.638	1	3
433.979	1	5
434.320	1	7
434.662	1	5
435.003	1	17
435.344	1	9
435.685	1	-7
436.026	1	5
436.368	1	0
436.709	1	-1
437.050	1	10
437.391	1	12
437.732	1	6
438.073	1	6
438.414	1	-6
438.756	1	1
439.097	1	2
439.438	1	1
439.779	1	15
440.120	1	2
440.461	1	14
440.802	1	-2
441.143	1	-2
441.485	1	6
441.826	1	-9
442.167	1	1
442.508	1	0
442.849	1	12
443.190	1	8
443.531	1	-1
443.872	1	13
444.213	1	5
444.554	1	16
444.895	1	-2
445.237	1	-8
445.578	1	-5
445.919	1	-4
446.260	1	11
446.601	1	7
446.942	1	5
447.283	1	6
447.624	1	0
447.965	1	3
448.306	1	-2
448.647	1	10
448.988	1	13
449.329	1	-5
449.670	1	-9
450.011	1	-11
450.352	1	5
450.693	1	-1
451.034	1	8
451.375	1	6
451.716	1	-8
452.057	1	21
452.398	1	-4
452.739	1	2
453.080	1	3
453.421	1	5
453.762	1	-3
454.103	1	2
454.444	1	13
454.785	1	21
455.126	1	-8
455.467	1	-1
455.808	1	9
456.149	1	-4
456.490	1	3
456.831	1	11
457.172	1	4
457.513	1	-3
457.854	1	6
458.195	1	-4
458.536	1	-4
458.877	1	18
459.218	1	0
459.559	1	-4
459.899	1	-1
460.240	1	8
460.581	1	3
460.922	1	5
461.263	1	3
461.604	1	-4
461.945	1	8
462.286	1	2
462.627	1	-8
462.968	1	0
463.309	1	5
463.649	1	-4
463.990	1	1
464.331	1	5
464.672	1	6
465.013	1	-7
465.354	1	8
465.695	1	12
466.036	1	8
466.376	1	2
466.717	1	10
467.058	1	8
467.399	1	2
467.740	1	12
468.081	1	15
468.422	1	10
468.762	1	-4
469.103	1	-6
469.444	1	-1
469.785	1	2
470.126	1	-7
470.467	1	1
470.807	1	8
471.148	1	4
471.489	1	-6
471.830	1	2
472.171	1	5
472.511	1	9
472.852	1	2
473.193	1	-2
473.534	1	-2
473.875	1	13
474.215	1	15
474.556	1	10
474.897	1	-7
475.238	1	6
475.578	1	-7
475.919	1	1
476.260	1	13
476.601	1	-1
476.942	1	7
477.282	1	2
477.623	1	-7
477.964	1	-4
478.305	1	17
478.645	1	-2
478.986	1	-5
479.327	1	-2
479.667	1	2
480.008	1	5
480.349	1	-5
480.690	1	5
481.030	1	-3
481.371	1	8
481.712	1	0
482.053	1	-3
482.393	1	7
482.734	1	6
483.075	1	16
483.415	1	0
483.756	1	1
484.097	1	-1
484.437	1	-3
484.778	1	9
485.119	1	7
485.459	1	2
485.800	1	11
486.141	1	2
486.481	1	-6
486.822	1	1
487.163	1	-10
487.503	1	-4
487.844	1	-8
488.185	1	10
488.525	1	3
488.866	1	9
489.207	1	-6
489.547	1	9
489.888	1	6
490.228	1	5
490.569	1	1
490.910	1	-7
491.250	1	3
491.591	1	-10
491.932	1	9
492.272	1	-2
492.613	1	-1
492.953	1	0
493.294	1	13
493.635	1	10
493.975	1	8
494.316	1	10
494.656	1	1
494.997	1	0
495.337	1	2
495.678	1	1
496.019	1	1
496.359	1	21
496.700	1	-1
497.040	1	5
497.381	1	-17
497.721	1	1
498.062	1	-8
498.403	1	-11
498.743	1	5
499.084	1	4
499.424	1	-11
499.765	1	3
500.105	1	3
500.446	1	4
500.786	1	3
501.127	1	7
501.467	1	5
501.808	1	6
502.148	1	-5
502.489	1	-2
502.829	1	8
503.170	1	-6
503.510	1	3
503.851	1	1
504.191	1	5
504.532	1	2
504.872	1	0
505.213	1	9
505.553	1	4
505.894	1	1
506.234	1	-4
506.575	1	4
506.915	1	-1
507.256	1	10
507.596	1	3
507.936	1	-9
508.277	1	-5
508.617	1	-4
508.958	1	7
509.298	1	-10
509.639	1	2
509.979	1	-3
510.319	1	15
510.660	1	-5
511.000	1	-3
511.341	1	-1
511.681	1	7
512.022	1	0
512.362	1	3
512.702	1	6
513.043	1	5
513.383	1	4
513.724	1	-1
514.064	1	-3
514.404	1	5
514.745	1	0
515.085	1	12
515.425	1	-5
515.766	1	6
516.106	1	-8
516.447	1	3
516.787	1	9
517.127	1	5
517.468	1	4
517.808	1	4
518.148	1	10
518.489	1	-4
518.829	1	4
519.169	1	2
519.510	1	1
519.850	1	23
520.190	1	7
520.531	1	6
520.871	1	0
521.211	1	8
521.552	1	5
521.892	1	10
522.232	1	-8
522.573	1	0
522.913	1	9
523.253	1	5
523.593	1	16
523.934	1	-2
524.274	1	-5
524.614	1	14
524.955	1	3
525.295	1	6
525.635	1	-2
525.975	1	11
526.316	1	-2
526.656	1	2
526.996	1	3
527.337	1	9
527.677	1	-7
528.017	1	0
528.357	1	6
528.698	1	-1
529.038	1	-2
529.378	1	3
529.718	1	6
530.058	1	7
530.399	1	12
530.739	1	-2
531.079	1	2
531.419	1	10
531.760	1	-4
532.100	1	4
532.440	1	8
532.780	1	0
533.120	1	18
533.461	1	6
533.801	1	15
534.141	1	2
534.481	1	4
534.821	1	12
535.162	1	6
535.502	1	8
535.842	1	4
536.182	1	4
536.522	1	1
536.862	1	3
537.203	1	1
537.543	1	6
537.883	1	-4
538.223	1	4
538.563	1	18
538.903	1	14
539.243	1	3
539.584	1	10
539.924	1	6
540.264	1	4
540.604	1	7
540.944	1	-6
541.284	1	10
541.624	1	8
541.964	1	-3
542.305	1	-5
542.645	1	-6
542.985	1	8
543.325	1	5
543.665	1	11
544.005	1	13
544.345	1	4
544.685	1	17
545.025	1	9
545.365	1	5
545.705	1	-4
546.045	1	-1
546.386	1	6
546.726	1	6
547.066	1	5
547.406	1	-15
547.746	1	4
548.086	1	-8
548.426	1	4
548.766	1	7
549.106	1	-3
549.446	1	-2
549.786	1	7
550.126	1	7
550.466	1	15
550.806	1	10
551.146	1	0
551.486	1	13
551.826	1	2
552.166	1	9
552.506	1	7
552.846	1	6
553.186	1	-1
553.526	1	11
553.866	1	-10
554.206	1	-10
554.546	1	5
554.886	1	0
555.226	1	-1
555.566	1	0
555.906	1	-2
556.246	1	-3
556.586	1	1
556.926	1	1
557.266	1	-5
557.606	1	10
557.946	1	5
558.286	1	16
558.626	1	-11
558.966	1	-3
559.306	1	2
559.646	1	1
559.986	1	2
560.325	1	-7
560.665	1	-1
561.005	1	-3
561.345	1	1
561.685	1	2
562.025	1	4
562.365	1	0
562.705	1	1
563.045	1	-6
563.385	1	7
563.725	1	-1
564.064	1	9
564.404	1	2
564.744	1	7
565.084	1	3
565.424	1	-6
565.764	1	8
566.104	1	2
566.444	1	12
566.783	1	16
567.123	1	6
567.463	1	-2
567.803	1	15
568.143	1	11
568.483	1	1
568.823	1	-10
569.162	1	-6
569.502	1	-5
569.842	1	-3
570.182	1	-3
570.522	1	-18
570.862	1	17
571.201	1	10
571.541	1	4
571.881	1	5
572.221	1	5
572.561	1	7
572.900	1	-4
573.240	1	1
573.580	1	3
573.920	1	8
574.260	1	5
574.599	1	5
574.939	1	15
575.279	1	-3
575.619	1	5
575.959	1	10
576.298	1	6
576.638	1	7
576.978	1	-5
577.318	1	5
577.657	1	11
577.997	1	9
578.337	1	-2
578.677	1	15
579.016	1	-1
579.356	1	8
579.696	1	-5
580.036	1	4
580.375	1	-3
580.715	1	12
581.055	1	-2
581.394	1	3
581.734	1	7
582.074	1	4
582.414	1	-5
582.753	1	-5
583.093	1	-5
583.433	1	11
583.772	1	5
584.112	1	4
584.452	1	17
584.791	1	5
585.131	1	11
585.471	1	1
585.811	1	-1
586.150	1	13
586.490	1	3
586.830	1	-3
587.169	1	5
587.509	1	2
587.849	1	-2
588.188	1	7
588.528	1	9
588.867	1	-2
589.207	1	-6
589.547	1	-3
589.886	1	1
590.226	1	9
590.566	1	3
590.905	1	8
591.245	1	-2
591.585	1	2
591.924	1	4
592.264	1	-1
592.603	1	-2
592.943	1	-1
593.283	1	-7
593.622	1	2
593.962	1	6
594.301	1	-13
594.641	1	9
594.981	1	-7
595.320	1	9
595.660	1	12
595.999	1	5
596.339	1	13
596.678	1	-1
597.018	1	3
597.358	1	-10
597.697	1	4
598.037	1	-1
598.376	1	-4
598.716	1	7
599.055	1	6
599.395	1	-8
599.734	1	6
600.074	1	7
600.413	1	4
600.753	1	0
601.092	1	-2
601.432	1	-1
601.771	1	5
602.111	1	-4
602.451	1	3
602.790	1	-5
603.130	1	3
603.469	1	8
603.809	1	1
604.148	1	12
604.487	1	2
604.827	1	0
605.166	1	2
605.506	1	7
605.845	1	0
606.185	1	3
606.524	1	1
606.864	1	16
607.203	1	1
607.543	1	-3
607.882	1	15
608.222	1	-7
608.561	1	-3
608.901	1	8
609.240	1	-4
609.579	1	10
609.919	1	10
610.258	1	-3
610.598	1	7
610.937	1	11
611.277	1	14
611.616	1	-7
611.955	1	4
612.295	1	-2
612.634	1	5
612.974	1	1
613.313	1	-7
613.652	1	-4
613.992	1	3
614.331	1	0
614.671	1	-2
615.010	1	-2
615.349	1	1
615.689	1	4
616.028	1	5
616.368	1	-1
616.707	1	6
617.046	1	7
617.386	1	5
617.725	1	4
618.064	1	-1
618.404	1	-7
618.743	1	12
619.082	1	0
619.422	1	4
619.761	1	7
620.100	1	-3
620.440	1	6
620.779	1	3
621.118	1	1
621.458	1	-1
621.797	1	3
622.136	1	6
622.476	1	11
622.815	1	-3
623.154	1	2
623.494	1	12
623.833	1	-1
624.172	1	-2
624.511	1	-2
624.851	1	4
625.190	1	0
625.529	1	4
625.869	1	5
626.208	1	-10
626.547	1	1
626.886	1	5
627.226	1	1
627.565	1	0
627.904	1	-6
628.243	1	4
628.583	1	-14
628.922	1	-10
629.261	1	-11
629.600	1	1
629.940	1	7
630.279	1	6
630.618	1	-3
630.957	1	-4
631.297	1	-4
631.636	1	-3
631.975	1	-3
632.314	1	-6
632.653	1	-3
632.993	1	4
633.332	1	1
633.671	1	6
634.010	1	-4
634.349	1	-5
634.689	1	11
635.028	1	0
635.367	1	-2
635.706	1	0
636.045	1	12
636.384	1	-6
636.724	1	15
637.063	1	8
637.402	1	2
637.741	1	12
638.080	1	6
638.419	1	8
638.759	1	-1
639.098	1	-7
639.437	1	11
639.776	1	1
640.115	1	12
640.454	1	4
640.793	1	-9
641.132	1	5
641.472	1	-3
641.811	1	-6
642.150	1	0
642.489	1	-3
642.828	1	-1
643.167	1	6
643.506	1	1
643.845	1	-10
644.184	1	2
644.524	1	1
644.863	1	-1
645.202	1	9
645.541	1	8
645.880	1	1
646.219	1	0
646.558	1	-2
646.897	1	0
647.236	1	7
647.575	1	-2
647.914	1	-9
648.253	1	3
648.592	1	0
648.931	1	-8
649.270	1	-4
649.610	1	-2
649.949	1	2
650.288	1	17
650.627	1	0
650.966	1	4
651.305	1	4
651.644	1	8
651.983	1	-9
652.322	1	4
652.661	1	7
653.000	1	2
653.339	1	-1
653.678	1	6
654.017	1	-8
654.356	1	6
654.695	1	5
655.034	1	3
655.373	1	2
655.712	1	-8
656.051	1	-5
656.390	1	3
656.729	1	0
657.068	1	2
657.406	1	1
657.745	1	-7
658.084	1	8
658.423	1	13
658.762	1	11
659.101	1	4
659.440	1	-3
659.779	1	-4
660.118	1	-6
660.457	1	-7
660.796	1	7
661.135	1	2
661.474	1	7
661.813	1	-6
662.152	1	-2
662.491	1	15
662.829	1	7
663.168	1	-10
663.507	1	1
663.846	1	6
664.185	1	-4
664.524	1	1
664.863	1	2
665.202	1	8
665.541	1	-3
665.879	1	3
666.218	1	-1
666.557	1	5
666.896	1	2
667.235	1	7
667.574	1	14
667.913	1	10
668.251	1	4
668.590	1	4
668.929	1	6
669.268	1	-2
669.607	1	6
669.946	1	6
670.285	1	5
670.623	1	12
670.962	1	-2
671.301	1	2
671.640	1	-4
671.979	1	-2
672.317	1	-1
672.656	1	-12
672.995	1	4
673.334	1	-4
673.673	1	3
674.011	1	0
674.350	1	3
674.689	1	-3
675.028	1	10
675.367	1	-4
675.705	1	14
676.044	1	4
676.383	1	6
676.722	1	0
677.060	1	-2
677.399	1	8
677.738	1	-4
678.077	1	0
678.416	1	-6
678.754	1	3
679.093	1	6
679.432	1	9
679.771	1	4
680.109	1	-1
680.448	1	17
680.787	1	2
681.125	1	4
681.464	1	3
681.803	1	-6
682.142	1	-7
682.480	1	10
682.819	1	2
683.158	1	9
683.496	1	-5
683.835	1	-4
684.174	1	8
684.512	1	15
684.851	1	-3
685.190	1	0
685.529	1	-5
685.867	1	6
686.206	1	5
686.545	1	2
686.883	1	-6
687.222	1	-7
687.561	1	14
687.899	1	-1
688.238	1	3
688.577	1	-3
688.746	1	8