File: Data/GaN_130K_350ms/GaN_sample F_spot6_UVVIS_130 K_200um_350 ms 2x2mm1_103.txt
340.368	1	9
340.710	1	6
341.052	1	2
341.394	1	2
341.737	1	3
342.079	1	1
342.421	1	8
342.763	1	3
343.105	1	4
343.447	1	6
343.789	1	10
344.131	1	10
344.473	1	4
344.815	1	-5
345.157	1	-3
345.499	1	5
345.841	1	-1
346.183	1	1
346.526	1	5
346.868	1	12
347.210	1	8
347.552	1	7
347.894	1	14
348.236	1	1
348.578	1	5
348.920	1	-1
349.262	1	6
349.604	1	6
349.946	1	4
350.288	1	5
350.630	1	15
350.972	1	11
351.314	1	0
351.656	1	13
351.998	1	8
352.340	1	9
352.682	1	11
353.024	1	0
353.366	1	13
353.708	1	7
354.050	1	16
354.392	1	9
354.734	1	9
355.076	1	7
355.418	1	15
355.760	1	19
356.102	1	15
356.444	1	5
356.785	1	14
357.127	1	9
357.469	1	9
357.811	1	21
358.153	1	16
358.495	1	21
358.837	1	16
359.179	1	23
359.521	1	18
359.863	1	12
360.205	1	26
360.547	1	33
360.889	1	24
361.231	1	30
361.572	1	46
361.914	1	33
362.256	1	39
362.598	1	52
362.940	1	43
363.282	1	63
363.624	1	55
363.966	1	74
364.308	1	74
364.649	1	68
364.991	1	67
365.333	1	67
365.675	1	94
366.017	1	97
366.359	1	98
366.701	1	101
367.042	1	108
367.384	1	116
367.726	1	107
368.068	1	103
368.410	1	99
368.752	1	122
369.093	1	106
369.435	1	95
369.777	1	95
370.119	1	96
370.461	1	101
370.803	1	83
371.144	1	81
371.486	1	81
371.828	1	74
372.170	1	73
372.512	1	69
372.853	1	67
373.195	1	64
373.537	1	47
373.879	1	52
374.220	1	49
374.562	1	44
374.904	1	55
375.246	1	57
375.588	1	46
375.929	1	35
376.271	1	54
376.613	1	52
376.955	1	44
377.296	1	42
377.638	1	36
377.980	1	28
378.321	1	36
378.663	1	35
379.005	1	40
379.347	1	25
379.688	1	23
380.030	1	32
380.372	1	36
380.714	1	41
381.055	1	27
381.397	1	27
381.739	1	37
382.080	1	22
382.422	1	39
382.764	1	22
383.105	1	31
383.447	1	26
383.789	1	32
384.130	1	36
384.472	1	30
384.814	1	24
385.156	1	20
385.497	1	26
385.839	1	25
386.180	1	19
386.522	1	23
386.864	1	32
387.205	1	29
387.547	1	23
387.889	1	24
388.230	1	16
388.572	1	22
388.914	1	16
389.255	1	21
389.597	1	4
389.939	1	32
390.280	1	17
390.622	1	21
390.963	1	17
391.305	1	22
391.647	1	20
391.988	1	27
392.330	1	10
392.671	1	9
393.013	1	20
393.355	1	18
393.696	1	15
394.038	1	18
394.379	1	18
394.721	1	21
395.062	1	14
395.404	1	1
395.746	1	26
396.087	1	26
396.429	1	19
396.770	1	15
397.112	1	11
397.453	1	23
397.795	1	8
398.136	1	12
398.478	1	22
398.819	1	5
399.161	1	9
399.503	1	23
399.844	1	10
400.186	1	13
400.527	1	26
400.869	1	13
401.210	1	10
401.552	1	22
401.893	1	-2
402.235	1	13
402.576	1	17
402.918	1	24
403.259	1	9
403.601	1	22
403.942	1	7
404.284	1	14
404.625	1	27
404.967	1	11
405.308	1	13
405.649	1	16
405.991	1	18
406.332	1	20
406.674	1	20
407.015	1	5
407.357	1	21
407.698	1	17
408.040	1	18
408.381	1	12
408.722	1	7
409.064	1	13
409.405	1	18
409.747	1	11
410.088	1	22
410.430	1	26
410.771	1	1
411.112	1	16
411.454	1	13
411.795	1	17
412.137	1	-1
412.478	1	7
412.819	1	11
413.161	1	15
413.502	1	22
413.844	1	13
414.185	1	12
414.526	1	15
414.868	1	6
415.209	1	9
415.550	1	4
415.892	1	9
416.233	1	17
416.575	1	10
416.916	1	5
417.257	1	12
417.599	1	-1
417.940	1	13
418.281	1	5
418.623	1	16
418.964	1	3
419.305	1	10
419.647	1	13
419.988	1	7
420.329	1	14
420.671	1	4
421.012	1	9
421.353	1	6
421.695	1	1
422.036	1	7
422.377	1	10
422.718	1	13
423.060	1	14
423.401	1	4
423.742	1	3
424.084	1	21
424.425	1	20
424.766	1	3
425.107	1	10
425.449	1	12
425.790	1	12
426.131	1	16
426.472	1	6
426.814	1	2
427.155	1	2
427.496	1	-2
427.837	1	17
428.179	1	6
428.520	1	17
428.861	1	-5
429.202	1	15
429.544	1	15
429.885	1	7
430.226	1	8
430.567	1	9
430.909	1	13
431.250	1	16
431.591	1	10
431.932	1	4
432.273	1	15
432.615	1	16
432.956	1	9
433.297	1	15
433.638	1	4
433.979	1	15
434.320	1	13
434.662	1	17
435.003	1	11
435.344	1	9
435.685	1	2
436.026	1	14
436.368	1	4
436.709	1	-3
437.050	1	17
437.391	1	10
437.732	1	4
438.073	1	10
438.414	1	9
438.756	1	6
439.097	1	6
439.438	1	22
439.779	1	16
440.120	1	12
440.461	1	15
440.802	1	0
441.143	1	-5
441.485	1	11
441.826	1	6
442.167	1	5
442.508	1	7
442.849	1	14
443.190	1	11
443.531	1	14
443.872	1	9
444.213	1	11
444.554	1	9
444.895	1	1
445.237	1	-1
445.578	1	4
445.919	1	-3
446.260	1	4
446.601	1	7
446.942	1	11
447.283	1	3
447.624	1	0
447.965	1	-3
448.306	1	8
448.647	1	18
448.988	1	10
449.329	1	-1
449.670	1	7
450.011	1	6
450.352	1	8
450.693	1	-1
451.034	1	-2
451.375	1	12
451.716	1	1
452.057	1	21
452.398	1	-6
452.739	1	10
453.080	1	0
453.421	1	1
453.762	1	10
454.103	1	6
454.444	1	10
454.785	1	14
455.126	1	-5
455.467	1	8
455.808	1	9
456.149	1	-1
456.490	1	10
456.831	1	10
457.172	1	-1
457.513	1	8
457.854	1	10
458.195	1	-7
458.536	1	6
458.877	1	26
459.218	1	2
459.559	1	5
459.899	1	6
460.240	1	17
460.581	1	1
460.922	1	11
461.263	1	4
461.604	1	-2
461.945	1	13
462.286	1	9
462.627	1	0
462.968	1	3
463.309	1	5
463.649	1	1
463.990	1	-1
464.331	1	2
464.672	1	1
465.013	1	-2
465.354	1	0
465.695	1	4
466.036	1	10
466.376	1	8
466.717	1	13
467.058	1	14
467.399	1	3
467.740	1	22
468.081	1	20
468.422	1	9
468.762	1	2
469.103	1	3
469.444	1	2
469.785	1	4
470.126	1	-6
470.467	1	3
470.807	1	7
471.148	1	0
471.489	1	-2
471.830	1	4
472.171	1	7
472.511	1	-1
472.852	1	20
473.193	1	7
473.534	1	5
473.875	1	19
474.215	1	8
474.556	1	10
474.897	1	-5
475.238	1	19
475.578	1	-2
475.919	1	-5
476.260	1	7
476.601	1	4
476.942	1	15
477.282	1	1
477.623	1	1
477.964	1	4
478.305	1	17
478.645	1	2
478.986	1	5
479.327	1	6
479.667	1	12
480.008	1	10
480.349	1	5
480.690	1	9
481.030	1	4
481.371	1	24
481.712	1	9
482.053	1	0
482.393	1	21
482.734	1	6
483.075	1	23
483.415	1	0
483.756	1	9
484.097	1	8
484.437	1	5
484.778	1	21
485.119	1	9
485.459	1	-1
485.800	1	21
486.141	1	5
486.481	1	-1
486.822	1	16
487.163	1	5
487.503	1	7
487.844	1	3
488.185	1	12
488.525	1	17
488.866	1	16
489.207	1	2
489.547	1	14
489.888	1	20
490.228	1	17
490.569	1	10
490.910	1	9
491.250	1	17
491.591	1	5
491.932	1	11
492.272	1	5
492.613	1	8
492.953	1	18
493.294	1	18
493.635	1	23
493.975	1	22
494.316	1	20
494.656	1	27
494.997	1	22
495.337	1	9
495.678	1	17
496.019	1	12
496.359	1	20
496.700	1	26
497.040	1	12
497.381	1	26
497.721	1	9
498.062	1	13
498.403	1	11
498.743	1	27
499.084	1	26
499.424	1	15
499.765	1	20
500.105	1	23
500.446	1	23
500.786	1	21
501.127	1	30
501.467	1	14
501.808	1	26
502.148	1	17
502.489	1	30
502.829	1	18
503.170	1	13
503.510	1	18
503.851	1	14
504.191	1	25
504.532	1	19
504.872	1	20
505.213	1	26
505.553	1	29
505.894	1	40
506.234	1	21
506.575	1	35
506.915	1	22
507.256	1	32
507.596	1	22
507.936	1	29
508.277	1	30
508.617	1	29
508.958	1	46
509.298	1	38
509.639	1	41
509.979	1	27
510.319	1	44
510.660	1	36
511.000	1	32
511.341	1	33
511.681	1	39
512.022	1	36
512.362	1	32
512.702	1	42
513.043	1	35
513.383	1	42
513.724	1	35
514.064	1	24
514.404	1	44
514.745	1	40
515.085	1	43
515.425	1	35
515.766	1	38
516.106	1	36
516.447	1	33
516.787	1	40
517.127	1	37
517.468	1	41
517.808	1	40
518.148	1	42
518.489	1	39
518.829	1	42
519.169	1	41
519.510	1	34
519.850	1	52
520.190	1	50
520.531	1	41
520.871	1	35
521.211	1	45
521.552	1	44
521.892	1	38
522.232	1	43
522.573	1	44
522.913	1	40
523.253	1	42
523.593	1	52
523.934	1	41
524.274	1	37
524.614	1	46
524.955	1	44
525.295	1	50
525.635	1	43
525.975	1	52
526.316	1	40
526.656	1	43
526.996	1	33
527.337	1	52
527.677	1	22
528.017	1	44
528.357	1	42
528.698	1	40
529.038	1	30
529.378	1	40
529.718	1	44
530.058	1	45
530.399	1	42
530.739	1	47
531.079	1	48
531.419	1	39
531.760	1	45
532.100	1	44
532.440	1	53
532.780	1	44
533.120	1	45
533.461	1	48
533.801	1	50
534.141	1	37
534.481	1	42
534.821	1	46
535.162	1	50
535.502	1	41
535.842	1	54
536.182	1	46
536.522	1	41
536.862	1	40
537.203	1	29
537.543	1	56
537.883	1	41
538.223	1	42
538.563	1	46
538.903	1	45
539.243	1	41
539.584	1	42
539.924	1	44
540.264	1	30
540.604	1	46
540.944	1	42
541.284	1	40
541.624	1	56
541.964	1	30
542.305	1	38
542.645	1	32
542.985	1	43
543.325	1	33
543.665	1	34
544.005	1	33
544.345	1	39
544.685	1	50
545.025	1	38
545.365	1	43
545.705	1	33
546.045	1	37
546.386	1	42
546.726	1	34
547.066	1	33
547.406	1	26
547.746	1	39
548.086	1	28
548.426	1	43
548.766	1	39
549.106	1	26
549.446	1	35
549.786	1	42
550.126	1	36
550.466	1	32
550.806	1	46
551.146	1	31
551.486	1	35
551.826	1	38
552.166	1	38
552.506	1	44
552.846	1	25
553.186	1	30
553.526	1	36
553.866	1	26
554.206	1	29
554.546	1	35
554.886	1	23
555.226	1	42
555.566	1	34
555.906	1	35
556.246	1	34
556.586	1	35
556.926	1	30
557.266	1	36
557.606	1	27
557.946	1	33
558.286	1	46
558.626	1	17
558.966	1	22
559.306	1	22
559.646	1	33
559.986	1	24
560.325	1	19
560.665	1	33
561.005	1	19
561.345	1	32
561.685	1	33
562.025	1	18
562.365	1	27
562.705	1	23
563.045	1	31
563.385	1	29
563.725	1	17
564.064	1	27
564.404	1	23
564.744	1	23
565.084	1	24
565.424	1	9
565.764	1	19
566.104	1	20
566.444	1	34
566.783	1	27
567.123	1	25
567.463	1	23
567.803	1	24
568.143	1	18
568.483	1	16
568.823	1	6
569.162	1	24
569.502	1	27
569.842	1	23
570.182	1	19
570.522	1	12
570.862	1	38
571.201	1	16
571.541	1	23
571.881	1	20
572.221	1	23
572.561	1	17
572.900	1	18
573.240	1	19
573.580	1	14
573.920	1	31
574.260	1	9
574.599	1	23
574.939	1	22
575.279	1	20
575.619	1	16
575.959	1	17
576.298	1	15
576.638	1	9
576.978	1	9
577.318	1	17
577.657	1	20
577.997	1	18
578.337	1	17
578.677	1	28
579.016	1	16
579.356	1	20
579.696	1	12
580.036	1	8
580.375	1	11
580.715	1	14
581.055	1	20
581.394	1	11
581.734	1	26
582.074	1	18
582.414	1	14
582.753	1	11
583.093	1	20
583.433	1	19
583.772	1	16
584.112	1	19
584.452	1	19
584.791	1	16
585.131	1	25
585.471	1	20
585.811	1	5
586.150	1	21
586.490	1	9
586.830	1	5
587.169	1	19
587.509	1	10
587.849	1	11
588.188	1	17
588.528	1	16
588.867	1	12
589.207	1	6
589.547	1	7
589.886	1	11
590.226	1	14
590.566	1	1
590.905	1	22
591.245	1	5
591.585	1	14
591.924	1	9
592.264	1	2
592.603	1	9
592.943	1	6
593.283	1	8
593.622	1	13
593.962	1	11
594.301	1	-5
594.641	1	13
594.981	1	0
595.320	1	15
595.660	1	5
595.999	1	14
596.339	1	17
596.678	1	6
597.018	1	10
597.358	1	-8
597.697	1	6
598.037	1	11
598.376	1	7
598.716	1	5
599.055	1	8
599.395	1	0
599.734	1	-1
600.074	1	14
600.413	1	8
600.753	1	-4
601.092	1	11
601.432	1	6
601.771	1	13
602.111	1	8
602.451	1	10
602.790	1	14
603.130	1	16
603.469	1	14
603.809	1	8
604.148	1	20
604.487	1	20
604.827	1	17
605.166	1	9
605.506	1	-3
605.845	1	1
606.185	1	6
606.524	1	4
606.864	1	13
607.203	1	4
607.543	1	13
607.882	1	16
608.222	1	-3
608.561	1	12
608.901	1	12
609.240	1	3
609.579	1	6
609.919	1	8
610.258	1	11
610.598	1	5
610.937	1	9
611.277	1	11
611.616	1	3
611.955	1	6
612.295	1	12
612.634	1	3
612.974	1	15
613.313	1	4
613.652	1	4
613.992	1	9
614.331	1	2
614.671	1	4
615.010	1	6
615.349	1	1
615.689	1	4
616.028	1	22
616.368	1	15
616.707	1	11
617.046	1	13
617.386	1	7
617.725	1	13
618.064	1	0
618.404	1	5
618.743	1	7
619.082	1	0
619.422	1	8
619.761	1	14
620.100	1	-1
620.440	1	8
620.779	1	9
621.118	1	4
621.458	1	10
621.797	1	4
622.136	1	9
622.476	1	9
622.815	1	1
623.154	1	6
623.494	1	5
623.833	1	9
624.172	1	-3
624.511	1	5
624.851	1	12
625.190	1	-1
625.529	1	0
625.869	1	11
626.208	1	-6
626.547	1	7
626.886	1	8
627.226	1	16
627.565	1	10
627.904	1	9
628.243	1	4
628.583	1	-8
628.922	1	1
629.261	1	-4
629.600	1	13
629.940	1	6
630.279	1	11
630.618	1	0
630.957	1	10
631.297	1	4
631.636	1	9
631.975	1	9
632.314	1	8
632.653	1	2
632.993	1	14
633.332	1	4
633.671	1	-2
634.010	1	3
634.349	1	3
634.689	1	9
635.028	1	3
635.367	1	8
635.706	1	0
636.045	1	16
636.384	1	5
636.724	1	15
637.063	1	11
637.402	1	-7
637.741	1	6
638.080	1	10
638.419	1	13
638.759	1	-5
639.098	1	0
639.437	1	15
639.776	1	-1
640.115	1	10
640.454	1	13
640.793	1	-7
641.132	1	9
641.472	1	2
641.811	1	8
642.150	1	-5
642.489	1	-3
642.828	1	4
643.167	1	9
643.506	1	11
643.845	1	-4
644.184	1	1
644.524	1	1
644.863	1	5
645.202	1	15
645.541	1	16
645.880	1	12
646.219	1	3
646.558	1	8
646.897	1	6
647.236	1	3
647.575	1	-7
647.914	1	-6
648.253	1	-2
648.592	1	4
648.931	1	-1
649.270	1	-1
649.610	1	2
649.949	1	12
650.288	1	3
650.627	1	10
650.966	1	10
651.305	1	7
651.644	1	12
651.983	1	-7
652.322	1	-5
652.661	1	4
653.000	1	5
653.339	1	3
653.678	1	6
654.017	1	-3
654.356	1	-3
654.695	1	-2
655.034	1	11
655.373	1	4
655.712	1	12
656.051	1	8
656.390	1	4
656.729	1	7
657.068	1	4
657.406	1	9
657.745	1	2
658.084	1	3
658.423	1	5
658.762	1	23
659.101	1	12
659.440	1	1
659.779	1	0
660.118	1	0
660.457	1	4
660.796	1	8
661.135	1	14
661.474	1	12
661.813	1	10
662.152	1	2
662.491	1	7
662.829	1	7
663.168	1	4
663.507	1	5
663.846	1	3
664.185	1	-3
664.524	1	3
664.863	1	1
665.202	1	-3
665.541	1	-4
665.879	1	1
666.218	1	7
666.557	1	4
666.896	1	6
667.235	1	14
667.574	1	24
667.913	1	9
668.251	1	5
668.590	1	7
668.929	1	5
669.268	1	7
669.607	1	0
669.946	1	6
670.285	1	4
670.623	1	18
670.962	1	6
671.301	1	3
671.640	1	-6
671.979	1	0
672.317	1	3
672.656	1	8
672.995	1	8
673.334	1	1
673.673	1	11
674.011	1	5
674.350	1	-4
674.689	1	8
675.028	1	12
675.367	1	-9
675.705	1	14
676.044	1	16
676.383	1	8
676.722	1	1
677.060	1	7
677.399	1	2
677.738	1	-6
678.077	1	11
678.416	1	9
678.754	1	9
679.093	1	12
679.432	1	9
679.771	1	5
680.109	1	4
680.448	1	4
680.787	1	18
681.125	1	17
681.464	1	2
681.803	1	-4
682.142	1	6
682.480	1	4
682.819	1	1
683.158	1	3
683.496	1	-3
683.835	1	-5
684.174	1	15
684.512	1	9
684.851	1	6
685.190	1	9
685.529	1	-5
685.867	1	2
686.206	1	4
686.545	1	-3
686.883	1	-2
687.222	1	5
687.561	1	6
687.899	1	5
688.238	1	18
688.577	1	4
688.746	1	13