File: Data/GaN_130K_350ms/GaN_sample F_spot6_UVVIS_130 K_200um_350 ms 2x2mm1_302.txt
340.368	1	-3
340.710	1	10
341.052	1	-2
341.394	1	-3
341.737	1	-1
342.079	1	-5
342.421	1	9
342.763	1	-3
343.105	1	1
343.447	1	10
343.789	1	-1
344.131	1	4
344.473	1	-1
344.815	1	-7
345.157	1	-8
345.499	1	1
345.841	1	4
346.183	1	1
346.526	1	0
346.868	1	0
347.210	1	-3
347.552	1	-4
347.894	1	-1
348.236	1	2
348.578	1	-5
348.920	1	7
349.262	1	9
349.604	1	8
349.946	1	3
350.288	1	-4
350.630	1	8
350.972	1	9
351.314	1	-3
351.656	1	5
351.998	1	1
352.340	1	9
352.682	1	-2
353.024	1	0
353.366	1	7
353.708	1	1
354.050	1	6
354.392	1	3
354.734	1	3
355.076	1	-4
355.418	1	8
355.760	1	0
356.102	1	6
356.444	1	-11
356.785	1	5
357.127	1	5
357.469	1	1
357.811	1	3
358.153	1	-8
358.495	1	2
358.837	1	-8
359.179	1	3
359.521	1	-8
359.863	1	7
360.205	1	6
360.547	1	-2
360.889	1	-8
361.231	1	-3
361.572	1	9
361.914	1	-1
362.256	1	6
362.598	1	0
362.940	1	-7
363.282	1	5
363.624	1	4
363.966	1	17
364.308	1	9
364.649	1	10
364.991	1	2
365.333	1	-4
365.675	1	5
366.017	1	11
366.359	1	10
366.701	1	11
367.042	1	18
367.384	1	13
367.726	1	3
368.068	1	3
368.410	1	3
368.752	1	20
369.093	1	8
369.435	1	5
369.777	1	8
370.119	1	16
370.461	1	8
370.803	1	-4
371.144	1	6
371.486	1	12
371.828	1	7
372.170	1	6
372.512	1	13
372.853	1	0
373.195	1	7
373.537	1	4
373.879	1	10
374.220	1	-7
374.562	1	-7
374.904	1	10
375.246	1	1
375.588	1	2
375.929	1	3
376.271	1	3
376.613	1	2
376.955	1	8
377.296	1	6
377.638	1	-1
377.980	1	-14
378.321	1	7
378.663	1	7
379.005	1	18
379.347	1	4
379.688	1	-3
380.030	1	-8
380.372	1	13
380.714	1	11
381.055	1	-4
381.397	1	-2
381.739	1	6
382.080	1	0
382.422	1	16
382.764	1	-3
383.105	1	1
383.447	1	9
383.789	1	9
384.130	1	9
384.472	1	14
384.814	1	-3
385.156	1	1
385.497	1	-2
385.839	1	-5
386.180	1	4
386.522	1	3
386.864	1	10
387.205	1	3
387.547	1	6
387.889	1	-1
388.230	1	1
388.572	1	10
388.914	1	3
389.255	1	6
389.597	1	-3
389.939	1	9
390.280	1	13
390.622	1	6
390.963	1	4
391.305	1	5
391.647	1	3
391.988	1	8
392.330	1	-3
392.671	1	2
393.013	1	6
393.355	1	-4
393.696	1	1
394.038	1	12
394.379	1	9
394.721	1	-4
395.062	1	0
395.404	1	-8
395.746	1	17
396.087	1	8
396.429	1	10
396.770	1	11
397.112	1	0
397.453	1	8
397.795	1	1
398.136	1	2
398.478	1	-5
398.819	1	-9
399.161	1	-2
399.503	1	6
399.844	1	-2
400.186	1	-1
400.527	1	6
400.869	1	5
401.210	1	-9
401.552	1	11
401.893	1	-11
402.235	1	10
402.576	1	11
402.918	1	10
403.259	1	-7
403.601	1	3
403.942	1	1
404.284	1	-11
404.625	1	6
404.967	1	1
405.308	1	-2
405.649	1	0
405.991	1	7
406.332	1	4
406.674	1	9
407.015	1	-1
407.357	1	4
407.698	1	5
408.040	1	12
408.381	1	15
408.722	1	9
409.064	1	9
409.405	1	2
409.747	1	1
410.088	1	4
410.430	1	15
410.771	1	-14
411.112	1	8
411.454	1	7
411.795	1	1
412.137	1	10
412.478	1	2
412.819	1	7
413.161	1	6
413.502	1	15
413.844	1	4
414.185	1	8
414.526	1	5
414.868	1	7
415.209	1	2
415.550	1	-4
415.892	1	7
416.233	1	-1
416.575	1	1
416.916	1	-5
417.257	1	2
417.599	1	-1
417.940	1	1
418.281	1	2
418.623	1	7
418.964	1	-3
419.305	1	-5
419.647	1	11
419.988	1	10
420.329	1	12
420.671	1	3
421.012	1	-1
421.353	1	-1
421.695	1	2
422.036	1	9
422.377	1	9
422.718	1	3
423.060	1	9
423.401	1	5
423.742	1	13
424.084	1	5
424.425	1	13
424.766	1	-1
425.107	1	16
425.449	1	7
425.790	1	12
426.131	1	13
426.472	1	9
426.814	1	0
427.155	1	0
427.496	1	4
427.837	1	2
428.179	1	5
428.520	1	4
428.861	1	5
429.202	1	-1
429.544	1	9
429.885	1	5
430.226	1	-1
430.567	1	2
430.909	1	13
431.250	1	9
431.591	1	4
431.932	1	-9
432.273	1	1
432.615	1	7
432.956	1	-4
433.297	1	6
433.638	1	1
433.979	1	7
434.320	1	2
434.662	1	4
435.003	1	9
435.344	1	10
435.685	1	-8
436.026	1	10
436.368	1	1
436.709	1	3
437.050	1	7
437.391	1	16
437.732	1	-1
438.073	1	4
438.414	1	-1
438.756	1	-3
439.097	1	4
439.438	1	9
439.779	1	9
440.120	1	7
440.461	1	12
440.802	1	-8
441.143	1	-8
441.485	1	5
441.826	1	3
442.167	1	-5
442.508	1	3
442.849	1	5
443.190	1	-3
443.531	1	5
443.872	1	10
444.213	1	-2
444.554	1	3
444.895	1	-2
445.237	1	-4
445.578	1	-7
445.919	1	-3
446.260	1	1
446.601	1	4
446.942	1	2
447.283	1	3
447.624	1	2
447.965	1	-3
448.306	1	5
448.647	1	10
448.988	1	3
449.329	1	-8
449.670	1	-6
450.011	1	2
450.352	1	2
450.693	1	-3
451.034	1	0
451.375	1	13
451.716	1	-11
452.057	1	12
452.398	1	2
452.739	1	12
453.080	1	8
453.421	1	3
453.762	1	0
454.103	1	-3
454.444	1	10
454.785	1	7
455.126	1	-13
455.467	1	2
455.808	1	9
456.149	1	-2
456.490	1	-3
456.831	1	4
457.172	1	-1
457.513	1	-8
457.854	1	-1
458.195	1	-7
458.536	1	2
458.877	1	18
459.218	1	2
459.559	1	4
459.899	1	7
460.240	1	7
460.581	1	-1
460.922	1	2
461.263	1	13
461.604	1	-8
461.945	1	8
462.286	1	10
462.627	1	-3
462.968	1	0
463.309	1	-4
463.649	1	-3
463.990	1	0
464.331	1	7
464.672	1	4
465.013	1	-3
465.354	1	4
465.695	1	13
466.036	1	4
466.376	1	-3
466.717	1	6
467.058	1	5
467.399	1	-8
467.740	1	9
468.081	1	12
468.422	1	2
468.762	1	-5
469.103	1	4
469.444	1	0
469.785	1	8
470.126	1	-13
470.467	1	6
470.807	1	7
471.148	1	8
471.489	1	-7
471.830	1	3
472.171	1	6
472.511	1	1
472.852	1	3
473.193	1	5
473.534	1	-1
473.875	1	10
474.215	1	8
474.556	1	5
474.897	1	-6
475.238	1	12
475.578	1	2
475.919	1	4
476.260	1	-4
476.601	1	8
476.942	1	7
477.282	1	9
477.623	1	-4
477.964	1	4
478.305	1	18
478.645	1	-6
478.986	1	4
479.327	1	-1
479.667	1	-4
480.008	1	-10
480.349	1	2
480.690	1	8
481.030	1	5
481.371	1	3
481.712	1	2
482.053	1	-2
482.393	1	9
482.734	1	7
483.075	1	1
483.415	1	-2
483.756	1	5
484.097	1	5
484.437	1	0
484.778	1	5
485.119	1	0
485.459	1	-7
485.800	1	10
486.141	1	-1
486.481	1	0
486.822	1	-1
487.163	1	0
487.503	1	0
487.844	1	2
488.185	1	3
488.525	1	6
488.866	1	1
489.207	1	2
489.547	1	-4
489.888	1	5
490.228	1	2
490.569	1	-6
490.910	1	-7
491.250	1	13
491.591	1	-1
491.932	1	0
492.272	1	1
492.613	1	-4
492.953	1	-9
493.294	1	2
493.635	1	4
493.975	1	10
494.316	1	4
494.656	1	-2
494.997	1	-5
495.337	1	7
495.678	1	1
496.019	1	1
496.359	1	1
496.700	1	2
497.040	1	17
497.381	1	2
497.721	1	3
498.062	1	-5
498.403	1	-3
498.743	1	8
499.084	1	6
499.424	1	-10
499.765	1	3
500.105	1	5
500.446	1	1
500.786	1	3
501.127	1	5
501.467	1	4
501.808	1	2
502.148	1	10
502.489	1	6
502.829	1	-4
503.170	1	-8
503.510	1	9
503.851	1	-1
504.191	1	5
504.532	1	12
504.872	1	9
505.213	1	5
505.553	1	5
505.894	1	0
506.234	1	-8
506.575	1	4
506.915	1	-11
507.256	1	-3
507.596	1	-1
507.936	1	6
508.277	1	-2
508.617	1	-5
508.958	1	4
509.298	1	-5
509.639	1	3
509.979	1	1
510.319	1	13
510.660	1	-3
511.000	1	8
511.341	1	-12
511.681	1	7
512.022	1	15
512.362	1	1
512.702	1	14
513.043	1	2
513.383	1	2
513.724	1	-6
514.064	1	2
514.404	1	16
514.745	1	9
515.085	1	3
515.425	1	-1
515.766	1	10
516.106	1	0
516.447	1	2
516.787	1	5
517.127	1	6
517.468	1	1
517.808	1	3
518.148	1	0
518.489	1	-3
518.829	1	9
519.169	1	4
519.510	1	-4
519.850	1	14
520.190	1	17
520.531	1	11
520.871	1	3
521.211	1	12
521.552	1	5
521.892	1	9
522.232	1	-5
522.573	1	-3
522.913	1	13
523.253	1	1
523.593	1	7
523.934	1	-3
524.274	1	-5
524.614	1	8
524.955	1	-6
525.295	1	9
525.635	1	-10
525.975	1	17
526.316	1	4
526.656	1	10
526.996	1	7
527.337	1	11
527.677	1	-8
528.017	1	3
528.357	1	7
528.698	1	0
529.038	1	-13
529.378	1	7
529.718	1	5
530.058	1	5
530.399	1	-2
530.739	1	-1
531.079	1	6
531.419	1	6
531.760	1	-7
532.100	1	3
532.440	1	0
532.780	1	-8
533.120	1	6
533.461	1	1
533.801	1	15
534.141	1	-6
534.481	1	12
534.821	1	15
535.162	1	6
535.502	1	3
535.842	1	4
536.182	1	7
536.522	1	1
536.862	1	-1
537.203	1	4
537.543	1	8
537.883	1	-2
538.223	1	9
538.563	1	11
538.903	1	16
539.243	1	6
539.584	1	6
539.924	1	-3
540.264	1	-6
540.604	1	6
540.944	1	8
541.284	1	4
541.624	1	7
541.964	1	-7
542.305	1	1
542.645	1	-4
542.985	1	9
543.325	1	4
543.665	1	9
544.005	1	10
544.345	1	-1
544.685	1	17
545.025	1	3
545.365	1	7
545.705	1	-8
546.045	1	8
546.386	1	13
546.726	1	0
547.066	1	-1
547.406	1	-8
547.746	1	11
548.086	1	-8
548.426	1	-2
548.766	1	4
549.106	1	-9
549.446	1	7
549.786	1	5
550.126	1	14
550.466	1	7
550.806	1	9
551.146	1	4
551.486	1	3
551.826	1	9
552.166	1	6
552.506	1	5
552.846	1	2
553.186	1	3
553.526	1	-5
553.866	1	-9
554.206	1	6
554.546	1	8
554.886	1	-1
555.226	1	6
555.566	1	-1
555.906	1	-1
556.246	1	8
556.586	1	11
556.926	1	1
557.266	1	-1
557.606	1	1
557.946	1	5
558.286	1	9
558.626	1	-5
558.966	1	5
559.306	1	3
559.646	1	4
559.986	1	-2
560.325	1	-3
560.665	1	-2
561.005	1	-1
561.345	1	7
561.685	1	7
562.025	1	-7
562.365	1	11
562.705	1	-1
563.045	1	1
563.385	1	11
563.725	1	-2
564.064	1	2
564.404	1	7
564.744	1	7
565.084	1	-1
565.424	1	3
565.764	1	8
566.104	1	-3
566.444	1	8
566.783	1	11
567.123	1	0
567.463	1	4
567.803	1	6
568.143	1	6
568.483	1	5
568.823	1	-5
569.162	1	15
569.502	1	-2
569.842	1	-1
570.182	1	4
570.522	1	-12
570.862	1	11
571.201	1	0
571.541	1	6
571.881	1	7
572.221	1	9
572.561	1	0
572.900	1	4
573.240	1	-3
573.580	1	-1
573.920	1	10
574.260	1	-3
574.599	1	8
574.939	1	3
575.279	1	-7
575.619	1	11
575.959	1	11
576.298	1	7
576.638	1	6
576.978	1	-18
577.318	1	2
577.657	1	8
577.997	1	9
578.337	1	4
578.677	1	17
579.016	1	3
579.356	1	10
579.696	1	2
580.036	1	4
580.375	1	-9
580.715	1	6
581.055	1	3
581.394	1	4
581.734	1	11
582.074	1	-2
582.414	1	-1
582.753	1	4
583.093	1	-2
583.433	1	2
583.772	1	9
584.112	1	5
584.452	1	2
584.791	1	3
585.131	1	9
585.471	1	-1
585.811	1	1
586.150	1	14
586.490	1	6
586.830	1	-14
587.169	1	6
587.509	1	4
587.849	1	1
588.188	1	11
588.528	1	1
588.867	1	4
589.207	1	-7
589.547	1	3
589.886	1	4
590.226	1	9
590.566	1	5
590.905	1	8
591.245	1	-14
591.585	1	8
591.924	1	4
592.264	1	1
592.603	1	-3
592.943	1	0
593.283	1	-10
593.622	1	3
593.962	1	12
594.301	1	-3
594.641	1	2
594.981	1	-4
595.320	1	9
595.660	1	2
595.999	1	3
596.339	1	18
596.678	1	-9
597.018	1	6
597.358	1	-5
597.697	1	3
598.037	1	4
598.376	1	4
598.716	1	5
599.055	1	5
599.395	1	-14
599.734	1	4
600.074	1	0
600.413	1	5
600.753	1	4
601.092	1	-4
601.432	1	-9
601.771	1	8
602.111	1	-8
602.451	1	12
602.790	1	-5
603.130	1	2
603.469	1	7
603.809	1	5
604.148	1	10
604.487	1	15
604.827	1	5
605.166	1	5
605.506	1	-2
605.845	1	-7
606.185	1	7
606.524	1	-11
606.864	1	13
607.203	1	7
607.543	1	-7
607.882	1	6
608.222	1	-7
608.561	1	1
608.901	1	12
609.240	1	-4
609.579	1	11
609.919	1	6
610.258	1	-4
610.598	1	1
610.937	1	9
611.277	1	5
611.616	1	-10
611.955	1	-2
612.295	1	8
612.634	1	-1
612.974	1	7
613.313	1	-4
613.652	1	-7
613.992	1	-7
614.331	1	3
614.671	1	3
615.010	1	-2
615.349	1	4
615.689	1	4
616.028	1	14
616.368	1	0
616.707	1	9
617.046	1	2
617.386	1	1
617.725	1	-7
618.064	1	7
618.404	1	8
618.743	1	15
619.082	1	0
619.422	1	4
619.761	1	4
620.100	1	-3
620.440	1	1
620.779	1	8
621.118	1	1
621.458	1	9
621.797	1	-2
622.136	1	8
622.476	1	3
622.815	1	-3
623.154	1	0
623.494	1	8
623.833	1	6
624.172	1	3
624.511	1	4
624.851	1	-2
625.190	1	-2
625.529	1	-5
625.869	1	8
626.208	1	-2
626.547	1	-3
626.886	1	-7
627.226	1	-2
627.565	1	-8
627.904	1	6
628.243	1	11
628.583	1	-5
628.922	1	-13
629.261	1	-21
629.600	1	5
629.940	1	9
630.279	1	7
630.618	1	-1
630.957	1	-9
631.297	1	-1
631.636	1	1
631.975	1	-1
632.314	1	5
632.653	1	-1
632.993	1	7
633.332	1	-8
633.671	1	-1
634.010	1	-3
634.349	1	-7
634.689	1	7
635.028	1	7
635.367	1	-4
635.706	1	-3
636.045	1	-1
636.384	1	8
636.724	1	-4
637.063	1	5
637.402	1	-2
637.741	1	-1
638.080	1	4
638.419	1	12
638.759	1	6
639.098	1	0
639.437	1	1
639.776	1	-3
640.115	1	7
640.454	1	13
640.793	1	-5
641.132	1	14
641.472	1	0
641.811	1	2
642.150	1	-7
642.489	1	-9
642.828	1	-7
643.167	1	2
643.506	1	6
643.845	1	-11
644.184	1	-4
644.524	1	-7
644.863	1	1
645.202	1	9
645.541	1	4
645.880	1	2
646.219	1	-1
646.558	1	-5
646.897	1	4
647.236	1	-5
647.575	1	-9
647.914	1	-6
648.253	1	-4
648.592	1	2
648.931	1	-11
649.270	1	-6
649.610	1	-7
649.949	1	6
650.288	1	15
650.627	1	0
650.966	1	0
651.305	1	1
651.644	1	6
651.983	1	-18
652.322	1	0
652.661	1	-8
653.000	1	6
653.339	1	7
653.678	1	7
654.017	1	-7
654.356	1	-2
654.695	1	-1
655.034	1	-4
655.373	1	7
655.712	1	4
656.051	1	-2
656.390	1	-2
656.729	1	7
657.068	1	-1
657.406	1	15
657.745	1	-6
658.084	1	-4
658.423	1	4
658.762	1	23
659.101	1	11
659.440	1	-9
659.779	1	-2
660.118	1	2
660.457	1	-6
660.796	1	6
661.135	1	9
661.474	1	4
661.813	1	3
662.152	1	1
662.491	1	19
662.829	1	6
663.168	1	-5
663.507	1	-3
663.846	1	1
664.185	1	-9
664.524	1	-2
664.863	1	8
665.202	1	6
665.541	1	0
665.879	1	1
666.218	1	6
666.557	1	0
666.896	1	2
667.235	1	1
667.574	1	14
667.913	1	4
668.251	1	-5
668.590	1	-4
668.929	1	9
669.268	1	10
669.607	1	-2
669.946	1	1
670.285	1	4
670.623	1	19
670.962	1	3
671.301	1	-1
671.640	1	-1
671.979	1	4
672.317	1	0
672.656	1	0
672.995	1	7
673.334	1	-6
673.673	1	6
674.011	1	-1
674.350	1	5
674.689	1	6
675.028	1	7
675.367	1	-3
675.705	1	13
676.044	1	5
676.383	1	3
676.722	1	-7
677.060	1	3
677.399	1	-4
677.738	1	-3
678.077	1	3
678.416	1	-6
678.754	1	7
679.093	1	6
679.432	1	9
679.771	1	5
680.109	1	8
680.448	1	7
680.787	1	-1
681.125	1	13
681.464	1	1
681.803	1	-2
682.142	1	-4
682.480	1	16
682.819	1	5
683.158	1	7
683.496	1	-1
683.835	1	-8
684.174	1	8
684.512	1	0
684.851	1	-8
685.190	1	-2
685.529	1	-6
685.867	1	3
686.206	1	7
686.545	1	4
686.883	1	-7
687.222	1	9
687.561	1	4
687.899	1	-4
688.238	1	10
688.577	1	-1
688.746	1	3