File: Data/GaN_130K_350ms/GaN_sample F_spot6_UVVIS_130 K_200um_350 ms 2x2mm1_151.txt
340.368	1	2
340.710	1	8
341.052	1	-3
341.394	1	6
341.737	1	5
342.079	1	1
342.421	1	7
342.763	1	7
343.105	1	6
343.447	1	1
343.789	1	1
344.131	1	6
344.473	1	-4
344.815	1	-8
345.157	1	-11
345.499	1	3
345.841	1	1
346.183	1	8
346.526	1	-2
346.868	1	-1
347.210	1	-2
347.552	1	3
347.894	1	0
348.236	1	-1
348.578	1	7
348.920	1	7
349.262	1	5
349.604	1	0
349.946	1	7
350.288	1	-3
350.630	1	6
350.972	1	13
351.314	1	-1
351.656	1	13
351.998	1	1
352.340	1	10
352.682	1	-4
353.024	1	0
353.366	1	9
353.708	1	3
354.050	1	4
354.392	1	11
354.734	1	6
355.076	1	5
355.418	1	7
355.760	1	4
356.102	1	3
356.444	1	-7
356.785	1	14
357.127	1	10
357.469	1	8
357.811	1	8
358.153	1	-2
358.495	1	13
358.837	1	14
359.179	1	7
359.521	1	7
359.863	1	13
360.205	1	13
360.547	1	7
360.889	1	5
361.231	1	8
361.572	1	12
361.914	1	16
362.256	1	3
362.598	1	12
362.940	1	10
363.282	1	16
363.624	1	21
363.966	1	26
364.308	1	25
364.649	1	33
364.991	1	25
365.333	1	15
365.675	1	28
366.017	1	33
366.359	1	27
366.701	1	25
367.042	1	44
367.384	1	50
367.726	1	33
368.068	1	33
368.410	1	35
368.752	1	45
369.093	1	41
369.435	1	30
369.777	1	46
370.119	1	34
370.461	1	41
370.803	1	34
371.144	1	30
371.486	1	30
371.828	1	38
372.170	1	18
372.512	1	25
372.853	1	31
373.195	1	18
373.537	1	22
373.879	1	36
374.220	1	8
374.562	1	9
374.904	1	19
375.246	1	27
375.588	1	13
375.929	1	9
376.271	1	25
376.613	1	11
376.955	1	11
377.296	1	17
377.638	1	11
377.980	1	13
378.321	1	9
378.663	1	13
379.005	1	25
379.347	1	19
379.688	1	3
380.030	1	5
380.372	1	12
380.714	1	19
381.055	1	16
381.397	1	18
381.739	1	5
382.080	1	10
382.422	1	15
382.764	1	5
383.105	1	17
383.447	1	14
383.789	1	12
384.130	1	16
384.472	1	14
384.814	1	6
385.156	1	10
385.497	1	5
385.839	1	11
386.180	1	18
386.522	1	7
386.864	1	16
387.205	1	11
387.547	1	21
387.889	1	5
388.230	1	6
388.572	1	14
388.914	1	4
389.255	1	8
389.597	1	0
389.939	1	17
390.280	1	22
390.622	1	8
390.963	1	14
391.305	1	16
391.647	1	3
391.988	1	22
392.330	1	-3
392.671	1	-1
393.013	1	16
393.355	1	2
393.696	1	7
394.038	1	3
394.379	1	19
394.721	1	4
395.062	1	4
395.404	1	-8
395.746	1	16
396.087	1	15
396.429	1	8
396.770	1	14
397.112	1	12
397.453	1	13
397.795	1	-8
398.136	1	6
398.478	1	5
398.819	1	-3
399.161	1	17
399.503	1	17
399.844	1	4
400.186	1	4
400.527	1	7
400.869	1	12
401.210	1	4
401.552	1	14
401.893	1	-5
402.235	1	4
402.576	1	8
402.918	1	15
403.259	1	-2
403.601	1	6
403.942	1	1
404.284	1	0
404.625	1	15
404.967	1	11
405.308	1	7
405.649	1	19
405.991	1	11
406.332	1	16
406.674	1	8
407.015	1	12
407.357	1	7
407.698	1	9
408.040	1	1
408.381	1	19
408.722	1	7
409.064	1	4
409.405	1	9
409.747	1	9
410.088	1	14
410.430	1	20
410.771	1	-7
411.112	1	15
411.454	1	9
411.795	1	8
412.137	1	-1
412.478	1	6
412.819	1	8
413.161	1	16
413.502	1	10
413.844	1	6
414.185	1	16
414.526	1	4
414.868	1	11
415.209	1	3
415.550	1	13
415.892	1	15
416.233	1	5
416.575	1	8
416.916	1	0
417.257	1	2
417.599	1	8
417.940	1	11
418.281	1	8
418.623	1	10
418.964	1	3
419.305	1	2
419.647	1	10
419.988	1	12
420.329	1	16
420.671	1	5
421.012	1	6
421.353	1	4
421.695	1	2
422.036	1	15
422.377	1	14
422.718	1	5
423.060	1	17
423.401	1	6
423.742	1	7
424.084	1	13
424.425	1	12
424.766	1	11
425.107	1	12
425.449	1	4
425.790	1	11
426.131	1	6
426.472	1	11
426.814	1	7
427.155	1	7
427.496	1	4
427.837	1	9
428.179	1	4
428.520	1	9
428.861	1	0
429.202	1	9
429.544	1	18
429.885	1	8
430.226	1	-1
430.567	1	8
430.909	1	3
431.250	1	13
431.591	1	0
431.932	1	-3
432.273	1	9
432.615	1	18
432.956	1	-6
433.297	1	20
433.638	1	-2
433.979	1	12
434.320	1	4
434.662	1	10
435.003	1	14
435.344	1	12
435.685	1	-11
436.026	1	5
436.368	1	6
436.709	1	11
437.050	1	10
437.391	1	11
437.732	1	2
438.073	1	11
438.414	1	-2
438.756	1	16
439.097	1	1
439.438	1	10
439.779	1	13
440.120	1	3
440.461	1	18
440.802	1	-5
441.143	1	-1
441.485	1	1
441.826	1	4
442.167	1	7
442.508	1	6
442.849	1	8
443.190	1	6
443.531	1	2
443.872	1	5
444.213	1	7
444.554	1	4
444.895	1	4
445.237	1	7
445.578	1	-2
445.919	1	2
446.260	1	2
446.601	1	20
446.942	1	-6
447.283	1	8
447.624	1	4
447.965	1	-5
448.306	1	3
448.647	1	16
448.988	1	6
449.329	1	0
449.670	1	4
450.011	1	2
450.352	1	14
450.693	1	-3
451.034	1	-3
451.375	1	8
451.716	1	-5
452.057	1	17
452.398	1	10
452.739	1	3
453.080	1	7
453.421	1	2
453.762	1	5
454.103	1	11
454.444	1	0
454.785	1	12
455.126	1	-5
455.467	1	11
455.808	1	11
456.149	1	-11
456.490	1	2
456.831	1	-3
457.172	1	0
457.513	1	-10
457.854	1	-2
458.195	1	-1
458.536	1	7
458.877	1	22
459.218	1	11
459.559	1	4
459.899	1	5
460.240	1	12
460.581	1	4
460.922	1	6
461.263	1	12
461.604	1	-1
461.945	1	13
462.286	1	10
462.627	1	4
462.968	1	3
463.309	1	7
463.649	1	-6
463.990	1	-2
464.331	1	8
464.672	1	9
465.013	1	7
465.354	1	8
465.695	1	6
466.036	1	5
466.376	1	5
466.717	1	8
467.058	1	7
467.399	1	4
467.740	1	8
468.081	1	6
468.422	1	4
468.762	1	2
469.103	1	4
469.444	1	4
469.785	1	13
470.126	1	-1
470.467	1	12
470.807	1	0
471.148	1	8
471.489	1	-1
471.830	1	7
472.171	1	1
472.511	1	3
472.852	1	10
473.193	1	5
473.534	1	3
473.875	1	14
474.215	1	5
474.556	1	9
474.897	1	-3
475.238	1	10
475.578	1	7
475.919	1	-3
476.260	1	11
476.601	1	0
476.942	1	0
477.282	1	-1
477.623	1	-7
477.964	1	10
478.305	1	10
478.645	1	0
478.986	1	1
479.327	1	1
479.667	1	10
480.008	1	-2
480.349	1	2
480.690	1	6
481.030	1	2
481.371	1	14
481.712	1	13
482.053	1	-1
482.393	1	6
482.734	1	11
483.075	1	8
483.415	1	10
483.756	1	-4
484.097	1	-2
484.437	1	5
484.778	1	5
485.119	1	3
485.459	1	-3
485.800	1	15
486.141	1	12
486.481	1	-4
486.822	1	14
487.163	1	3
487.503	1	3
487.844	1	2
488.185	1	3
488.525	1	4
488.866	1	6
489.207	1	5
489.547	1	-3
489.888	1	11
490.228	1	10
490.569	1	5
490.910	1	3
491.250	1	10
491.591	1	-9
491.932	1	2
492.272	1	9
492.613	1	8
492.953	1	-1
493.294	1	13
493.635	1	5
493.975	1	8
494.316	1	15
494.656	1	5
494.997	1	2
495.337	1	2
495.678	1	6
496.019	1	-5
496.359	1	10
496.700	1	7
497.040	1	13
497.381	1	4
497.721	1	-6
498.062	1	-1
498.403	1	5
498.743	1	14
499.084	1	11
499.424	1	-1
499.765	1	4
500.105	1	5
500.446	1	13
500.786	1	16
501.127	1	12
501.467	1	8
501.808	1	11
502.148	1	9
502.489	1	6
502.829	1	6
503.170	1	-1
503.510	1	9
503.851	1	3
504.191	1	7
504.532	1	9
504.872	1	8
505.213	1	6
505.553	1	5
505.894	1	8
506.234	1	4
506.575	1	5
506.915	1	8
507.256	1	25
507.596	1	-2
507.936	1	14
508.277	1	2
508.617	1	-5
508.958	1	6
509.298	1	8
509.639	1	13
509.979	1	16
510.319	1	21
510.660	1	5
511.000	1	12
511.341	1	0
511.681	1	16
512.022	1	12
512.362	1	10
512.702	1	17
513.043	1	10
513.383	1	21
513.724	1	11
514.064	1	3
514.404	1	19
514.745	1	10
515.085	1	16
515.425	1	5
515.766	1	13
516.106	1	2
516.447	1	11
516.787	1	10
517.127	1	10
517.468	1	9
517.808	1	16
518.148	1	17
518.489	1	11
518.829	1	15
519.169	1	20
519.510	1	10
519.850	1	19
520.190	1	19
520.531	1	19
520.871	1	6
521.211	1	19
521.552	1	20
521.892	1	19
522.232	1	0
522.573	1	11
522.913	1	18
523.253	1	7
523.593	1	16
523.934	1	2
524.274	1	11
524.614	1	13
524.955	1	29
525.295	1	17
525.635	1	18
525.975	1	18
526.316	1	10
526.656	1	18
526.996	1	12
527.337	1	21
527.677	1	8
528.017	1	11
528.357	1	15
528.698	1	9
529.038	1	10
529.378	1	16
529.718	1	15
530.058	1	6
530.399	1	22
530.739	1	12
531.079	1	19
531.419	1	17
531.760	1	6
532.100	1	21
532.440	1	22
532.780	1	14
533.120	1	19
533.461	1	15
533.801	1	23
534.141	1	14
534.481	1	16
534.821	1	15
535.162	1	24
535.502	1	9
535.842	1	24
536.182	1	18
536.522	1	12
536.862	1	10
537.203	1	16
537.543	1	24
537.883	1	1
538.223	1	16
538.563	1	17
538.903	1	28
539.243	1	16
539.584	1	20
539.924	1	11
540.264	1	8
540.604	1	17
540.944	1	16
541.284	1	17
541.624	1	17
541.964	1	7
542.305	1	8
542.645	1	14
542.985	1	20
543.325	1	8
543.665	1	20
544.005	1	16
544.345	1	9
544.685	1	18
545.025	1	11
545.365	1	16
545.705	1	12
546.045	1	13
546.386	1	13
546.726	1	9
547.066	1	14
547.406	1	0
547.746	1	7
548.086	1	0
548.426	1	21
548.766	1	15
549.106	1	4
549.446	1	9
549.786	1	12
550.126	1	8
550.466	1	12
550.806	1	19
551.146	1	8
551.486	1	14
551.826	1	5
552.166	1	13
552.506	1	12
552.846	1	5
553.186	1	3
553.526	1	13
553.866	1	-6
554.206	1	12
554.546	1	17
554.886	1	15
555.226	1	8
555.566	1	6
555.906	1	9
556.246	1	16
556.586	1	4
556.926	1	3
557.266	1	12
557.606	1	7
557.946	1	18
558.286	1	10
558.626	1	5
558.966	1	9
559.306	1	17
559.646	1	3
559.986	1	17
560.325	1	0
560.665	1	19
561.005	1	1
561.345	1	13
561.685	1	14
562.025	1	16
562.365	1	17
562.705	1	8
563.045	1	11
563.385	1	9
563.725	1	2
564.064	1	23
564.404	1	5
564.744	1	17
565.084	1	9
565.424	1	3
565.764	1	14
566.104	1	6
566.444	1	19
566.783	1	11
567.123	1	9
567.463	1	8
567.803	1	11
568.143	1	24
568.483	1	11
568.823	1	-6
569.162	1	6
569.502	1	6
569.842	1	7
570.182	1	9
570.522	1	-2
570.862	1	17
571.201	1	9
571.541	1	3
571.881	1	11
572.221	1	12
572.561	1	11
572.900	1	7
573.240	1	11
573.580	1	8
573.920	1	15
574.260	1	11
574.599	1	7
574.939	1	13
575.279	1	-4
575.619	1	10
575.959	1	11
576.298	1	9
576.638	1	2
576.978	1	3
577.318	1	4
577.657	1	15
577.997	1	15
578.337	1	14
578.677	1	12
579.016	1	9
579.356	1	13
579.696	1	6
580.036	1	-4
580.375	1	-1
580.715	1	14
581.055	1	-3
581.394	1	6
581.734	1	9
582.074	1	0
582.414	1	1
582.753	1	12
583.093	1	5
583.433	1	12
583.772	1	8
584.112	1	6
584.452	1	11
584.791	1	10
585.131	1	4
585.471	1	3
585.811	1	7
586.150	1	8
586.490	1	2
586.830	1	-4
587.169	1	5
587.509	1	3
587.849	1	2
588.188	1	8
588.528	1	8
588.867	1	3
589.207	1	2
589.547	1	0
589.886	1	7
590.226	1	11
590.566	1	4
590.905	1	9
591.245	1	6
591.585	1	9
591.924	1	-2
592.264	1	6
592.603	1	-3
592.943	1	3
593.283	1	0
593.622	1	11
593.962	1	14
594.301	1	-3
594.641	1	8
594.981	1	-2
595.320	1	9
595.660	1	11
595.999	1	14
596.339	1	-1
596.678	1	2
597.018	1	10
597.358	1	-1
597.697	1	-3
598.037	1	8
598.376	1	2
598.716	1	5
599.055	1	6
599.395	1	-3
599.734	1	-2
600.074	1	6
600.413	1	0
600.753	1	5
601.092	1	7
601.432	1	-10
601.771	1	11
602.111	1	8
602.451	1	8
602.790	1	2
603.130	1	12
603.469	1	3
603.809	1	10
604.148	1	15
604.487	1	16
604.827	1	9
605.166	1	8
605.506	1	4
605.845	1	-6
606.185	1	7
606.524	1	11
606.864	1	18
607.203	1	-6
607.543	1	7
607.882	1	14
608.222	1	2
608.561	1	2
608.901	1	15
609.240	1	-1
609.579	1	16
609.919	1	12
610.258	1	-6
610.598	1	3
610.937	1	8
611.277	1	10
611.616	1	-4
611.955	1	-4
612.295	1	11
612.634	1	4
612.974	1	11
613.313	1	6
613.652	1	-14
613.992	1	1
614.331	1	8
614.671	1	8
615.010	1	1
615.349	1	-4
615.689	1	8
616.028	1	15
616.368	1	7
616.707	1	15
617.046	1	11
617.386	1	3
617.725	1	-3
618.064	1	8
618.404	1	5
618.743	1	4
619.082	1	4
619.422	1	-1
619.761	1	8
620.100	1	4
620.440	1	9
620.779	1	2
621.118	1	7
621.458	1	7
621.797	1	-2
622.136	1	10
622.476	1	13
622.815	1	-3
623.154	1	3
623.494	1	11
623.833	1	5
624.172	1	4
624.511	1	2
624.851	1	-1
625.190	1	4
625.529	1	0
625.869	1	2
626.208	1	1
626.547	1	-2
626.886	1	2
627.226	1	5
627.565	1	1
627.904	1	5
628.243	1	9
628.583	1	-11
628.922	1	-4
629.261	1	-15
629.600	1	5
629.940	1	6
630.279	1	11
630.618	1	-2
630.957	1	0
631.297	1	5
631.636	1	3
631.975	1	1
632.314	1	7
632.653	1	1
632.993	1	8
633.332	1	3
633.671	1	-3
634.010	1	1
634.349	1	8
634.689	1	14
635.028	1	7
635.367	1	8
635.706	1	3
636.045	1	22
636.384	1	2
636.724	1	8
637.063	1	1
637.402	1	-6
637.741	1	10
638.080	1	6
638.419	1	13
638.759	1	10
639.098	1	6
639.437	1	12
639.776	1	-5
640.115	1	2
640.454	1	6
640.793	1	-8
641.132	1	17
641.472	1	7
641.811	1	-2
642.150	1	-13
642.489	1	-7
642.828	1	0
643.167	1	6
643.506	1	14
643.845	1	-2
644.184	1	-2
644.524	1	0
644.863	1	10
645.202	1	6
645.541	1	-1
645.880	1	7
646.219	1	8
646.558	1	-2
646.897	1	3
647.236	1	3
647.575	1	-1
647.914	1	-1
648.253	1	6
648.592	1	-1
648.931	1	0
649.270	1	-2
649.610	1	10
649.949	1	1
650.288	1	5
650.627	1	6
650.966	1	8
651.305	1	7
651.644	1	11
651.983	1	-9
652.322	1	8
652.661	1	6
653.000	1	0
653.339	1	7
653.678	1	-1
654.017	1	-4
654.356	1	6
654.695	1	1
655.034	1	-4
655.373	1	4
655.712	1	0
656.051	1	7
656.390	1	3
656.729	1	4
657.068	1	-4
657.406	1	-1
657.745	1	3
658.084	1	-1
658.423	1	4
658.762	1	13
659.101	1	9
659.440	1	-3
659.779	1	2
660.118	1	-3
660.457	1	-4
660.796	1	5
661.135	1	8
661.474	1	10
661.813	1	-6
662.152	1	5
662.491	1	2
662.829	1	14
663.168	1	-10
663.507	1	5
663.846	1	0
664.185	1	0
664.524	1	-4
664.863	1	-1
665.202	1	-2
665.541	1	-10
665.879	1	5
666.218	1	9
666.557	1	6
666.896	1	14
667.235	1	7
667.574	1	10
667.913	1	3
668.251	1	5
668.590	1	9
668.929	1	12
669.268	1	-3
669.607	1	-8
669.946	1	14
670.285	1	4
670.623	1	17
670.962	1	3
671.301	1	4
671.640	1	-10
671.979	1	5
672.317	1	-7
672.656	1	1
672.995	1	-7
673.334	1	-6
673.673	1	6
674.011	1	3
674.350	1	2
674.689	1	6
675.028	1	17
675.367	1	-2
675.705	1	14
676.044	1	4
676.383	1	7
676.722	1	3
677.060	1	8
677.399	1	1
677.738	1	-2
678.077	1	9
678.416	1	12
678.754	1	14
679.093	1	6
679.432	1	0
679.771	1	6
680.109	1	1
680.448	1	-9
680.787	1	8
681.125	1	20
681.464	1	-7
681.803	1	3
682.142	1	4
682.480	1	10
682.819	1	1
683.158	1	6
683.496	1	-6
683.835	1	-1
684.174	1	12
684.512	1	11
684.851	1	-2
685.190	1	-1
685.529	1	-4
685.867	1	11
686.206	1	9
686.545	1	1
686.883	1	4
687.222	1	4
687.561	1	9
687.899	1	3
688.238	1	9
688.577	1	-2
688.746	1	10