File: Data/GaN_130K_350ms/GaN_sample F_spot6_UVVIS_130 K_200um_350 ms 2x2mm1_243.txt
340.368	1	6
340.710	1	15
341.052	1	-5
341.394	1	-2
341.737	1	5
342.079	1	5
342.421	1	5
342.763	1	1
343.105	1	3
343.447	1	10
343.789	1	7
344.131	1	0
344.473	1	-1
344.815	1	-3
345.157	1	-10
345.499	1	-2
345.841	1	-3
346.183	1	14
346.526	1	-6
346.868	1	7
347.210	1	-1
347.552	1	1
347.894	1	-2
348.236	1	-5
348.578	1	10
348.920	1	4
349.262	1	10
349.604	1	2
349.946	1	1
350.288	1	-10
350.630	1	11
350.972	1	8
351.314	1	-10
351.656	1	11
351.998	1	-1
352.340	1	12
352.682	1	5
353.024	1	5
353.366	1	4
353.708	1	-5
354.050	1	6
354.392	1	2
354.734	1	1
355.076	1	2
355.418	1	5
355.760	1	7
356.102	1	-4
356.444	1	-6
356.785	1	3
357.127	1	-3
357.469	1	-1
357.811	1	0
358.153	1	-2
358.495	1	2
358.837	1	0
359.179	1	4
359.521	1	4
359.863	1	6
360.205	1	8
360.547	1	-6
360.889	1	5
361.231	1	-3
361.572	1	-4
361.914	1	-6
362.256	1	9
362.598	1	13
362.940	1	0
363.282	1	14
363.624	1	7
363.966	1	23
364.308	1	13
364.649	1	7
364.991	1	10
365.333	1	6
365.675	1	7
366.017	1	10
366.359	1	14
366.701	1	19
367.042	1	17
367.384	1	23
367.726	1	13
368.068	1	-1
368.410	1	11
368.752	1	14
369.093	1	6
369.435	1	6
369.777	1	13
370.119	1	9
370.461	1	18
370.803	1	3
371.144	1	7
371.486	1	11
371.828	1	7
372.170	1	5
372.512	1	7
372.853	1	-1
373.195	1	4
373.537	1	10
373.879	1	11
374.220	1	4
374.562	1	4
374.904	1	9
375.246	1	21
375.588	1	4
375.929	1	4
376.271	1	8
376.613	1	0
376.955	1	-2
377.296	1	8
377.638	1	-6
377.980	1	-13
378.321	1	5
378.663	1	2
379.005	1	20
379.347	1	4
379.688	1	-2
380.030	1	6
380.372	1	12
380.714	1	13
381.055	1	-6
381.397	1	6
381.739	1	9
382.080	1	3
382.422	1	17
382.764	1	-1
383.105	1	6
383.447	1	4
383.789	1	7
384.130	1	-5
384.472	1	9
384.814	1	-2
385.156	1	3
385.497	1	2
385.839	1	13
386.180	1	9
386.522	1	12
386.864	1	7
387.205	1	13
387.547	1	17
387.889	1	5
388.230	1	-1
388.572	1	7
388.914	1	1
389.255	1	0
389.597	1	-9
389.939	1	0
390.280	1	4
390.622	1	4
390.963	1	12
391.305	1	1
391.647	1	2
391.988	1	5
392.330	1	-4
392.671	1	0
393.013	1	2
393.355	1	3
393.696	1	-1
394.038	1	13
394.379	1	4
394.721	1	13
395.062	1	10
395.404	1	-9
395.746	1	8
396.087	1	10
396.429	1	1
396.770	1	8
397.112	1	8
397.453	1	29
397.795	1	-13
398.136	1	-1
398.478	1	6
398.819	1	-6
399.161	1	11
399.503	1	10
399.844	1	3
400.186	1	-2
400.527	1	10
400.869	1	-2
401.210	1	-1
401.552	1	5
401.893	1	-8
402.235	1	8
402.576	1	10
402.918	1	4
403.259	1	2
403.601	1	3
403.942	1	4
404.284	1	-1
404.625	1	14
404.967	1	8
405.308	1	2
405.649	1	10
405.991	1	13
406.332	1	9
406.674	1	10
407.015	1	12
407.357	1	1
407.698	1	5
408.040	1	-2
408.381	1	14
408.722	1	4
409.064	1	10
409.405	1	12
409.747	1	-7
410.088	1	14
410.430	1	11
410.771	1	-25
411.112	1	10
411.454	1	13
411.795	1	5
412.137	1	-4
412.478	1	6
412.819	1	4
413.161	1	9
413.502	1	19
413.844	1	4
414.185	1	10
414.526	1	-7
414.868	1	12
415.209	1	9
415.550	1	1
415.892	1	7
416.233	1	12
416.575	1	16
416.916	1	-1
417.257	1	6
417.599	1	-1
417.940	1	7
418.281	1	8
418.623	1	1
418.964	1	6
419.305	1	8
419.647	1	15
419.988	1	6
420.329	1	8
420.671	1	-3
421.012	1	10
421.353	1	-5
421.695	1	-1
422.036	1	5
422.377	1	7
422.718	1	3
423.060	1	12
423.401	1	1
423.742	1	7
424.084	1	8
424.425	1	5
424.766	1	-3
425.107	1	4
425.449	1	9
425.790	1	21
426.131	1	10
426.472	1	4
426.814	1	11
427.155	1	-1
427.496	1	-2
427.837	1	3
428.179	1	-2
428.520	1	12
428.861	1	-2
429.202	1	11
429.544	1	10
429.885	1	1
430.226	1	0
430.567	1	13
430.909	1	7
431.250	1	6
431.591	1	-5
431.932	1	-2
432.273	1	15
432.615	1	14
432.956	1	-11
433.297	1	13
433.638	1	-5
433.979	1	8
434.320	1	2
434.662	1	-1
435.003	1	16
435.344	1	11
435.685	1	-5
436.026	1	6
436.368	1	2
436.709	1	4
437.050	1	6
437.391	1	19
437.732	1	3
438.073	1	11
438.414	1	0
438.756	1	6
439.097	1	1
439.438	1	9
439.779	1	11
440.120	1	3
440.461	1	11
440.802	1	-8
441.143	1	-1
441.485	1	11
441.826	1	1
442.167	1	2
442.508	1	-1
442.849	1	9
443.190	1	6
443.531	1	4
443.872	1	5
444.213	1	3
444.554	1	2
444.895	1	5
445.237	1	-3
445.578	1	-6
445.919	1	7
446.260	1	-1
446.601	1	5
446.942	1	3
447.283	1	-5
447.624	1	-1
447.965	1	5
448.306	1	3
448.647	1	7
448.988	1	4
449.329	1	5
449.670	1	0
450.011	1	-5
450.352	1	11
450.693	1	-1
451.034	1	-1
451.375	1	13
451.716	1	-6
452.057	1	9
452.398	1	-7
452.739	1	10
453.080	1	4
453.421	1	1
453.762	1	5
454.103	1	-1
454.444	1	13
454.785	1	7
455.126	1	-6
455.467	1	1
455.808	1	9
456.149	1	-4
456.490	1	4
456.831	1	5
457.172	1	-4
457.513	1	-11
457.854	1	5
458.195	1	5
458.536	1	1
458.877	1	19
459.218	1	4
459.559	1	1
459.899	1	-9
460.240	1	17
460.581	1	-1
460.922	1	2
461.263	1	10
461.604	1	-12
461.945	1	7
462.286	1	7
462.627	1	-1
462.968	1	5
463.309	1	7
463.649	1	-5
463.990	1	-5
464.331	1	10
464.672	1	7
465.013	1	-5
465.354	1	1
465.695	1	7
466.036	1	-5
466.376	1	1
466.717	1	9
467.058	1	-2
467.399	1	-2
467.740	1	14
468.081	1	8
468.422	1	5
468.762	1	3
469.103	1	2
469.444	1	6
469.785	1	8
470.126	1	-9
470.467	1	6
470.807	1	-2
471.148	1	2
471.489	1	-2
471.830	1	1
472.171	1	0
472.511	1	8
472.852	1	6
473.193	1	3
473.534	1	-6
473.875	1	12
474.215	1	0
474.556	1	-1
474.897	1	-7
475.238	1	12
475.578	1	5
475.919	1	1
476.260	1	-8
476.601	1	5
476.942	1	12
477.282	1	7
477.623	1	1
477.964	1	-3
478.305	1	21
478.645	1	2
478.986	1	0
479.327	1	-12
479.667	1	6
480.008	1	-2
480.349	1	8
480.690	1	-2
481.030	1	-3
481.371	1	10
481.712	1	10
482.053	1	4
482.393	1	8
482.734	1	2
483.075	1	9
483.415	1	5
483.756	1	-2
484.097	1	0
484.437	1	-7
484.778	1	3
485.119	1	5
485.459	1	-2
485.800	1	9
486.141	1	-4
486.481	1	1
486.822	1	9
487.163	1	-4
487.503	1	-12
487.844	1	-5
488.185	1	5
488.525	1	3
488.866	1	8
489.207	1	-7
489.547	1	0
489.888	1	9
490.228	1	12
490.569	1	6
490.910	1	-13
491.250	1	11
491.591	1	-3
491.932	1	1
492.272	1	-6
492.613	1	0
492.953	1	11
493.294	1	5
493.635	1	1
493.975	1	14
494.316	1	6
494.656	1	0
494.997	1	0
495.337	1	1
495.678	1	4
496.019	1	2
496.359	1	8
496.700	1	1
497.040	1	6
497.381	1	-2
497.721	1	0
498.062	1	-4
498.403	1	-4
498.743	1	5
499.084	1	9
499.424	1	-5
499.765	1	-1
500.105	1	9
500.446	1	7
500.786	1	15
501.127	1	3
501.467	1	-1
501.808	1	-3
502.148	1	-1
502.489	1	5
502.829	1	1
503.170	1	1
503.510	1	5
503.851	1	-4
504.191	1	0
504.532	1	4
504.872	1	8
505.213	1	0
505.553	1	6
505.894	1	6
506.234	1	8
506.575	1	-8
506.915	1	-2
507.256	1	3
507.596	1	0
507.936	1	-1
508.277	1	1
508.617	1	-4
508.958	1	10
509.298	1	6
509.639	1	6
509.979	1	-1
510.319	1	12
510.660	1	-8
511.000	1	0
511.341	1	1
511.681	1	6
512.022	1	2
512.362	1	5
512.702	1	0
513.043	1	11
513.383	1	0
513.724	1	-2
514.064	1	-1
514.404	1	8
514.745	1	6
515.085	1	9
515.425	1	9
515.766	1	9
516.106	1	-4
516.447	1	0
516.787	1	3
517.127	1	7
517.468	1	10
517.808	1	8
518.148	1	10
518.489	1	7
518.829	1	4
519.169	1	2
519.510	1	1
519.850	1	20
520.190	1	14
520.531	1	5
520.871	1	3
521.211	1	4
521.552	1	4
521.892	1	3
522.232	1	-5
522.573	1	1
522.913	1	7
523.253	1	3
523.593	1	11
523.934	1	1
524.274	1	-4
524.614	1	15
524.955	1	9
525.295	1	12
525.635	1	-2
525.975	1	16
526.316	1	-1
526.656	1	8
526.996	1	4
527.337	1	10
527.677	1	-4
528.017	1	5
528.357	1	4
528.698	1	-3
529.038	1	-4
529.378	1	-1
529.718	1	18
530.058	1	13
530.399	1	12
530.739	1	1
531.079	1	3
531.419	1	6
531.760	1	2
532.100	1	10
532.440	1	0
532.780	1	-1
533.120	1	13
533.461	1	0
533.801	1	10
534.141	1	6
534.481	1	1
534.821	1	11
535.162	1	6
535.502	1	8
535.842	1	6
536.182	1	2
536.522	1	3
536.862	1	2
537.203	1	-3
537.543	1	8
537.883	1	-10
538.223	1	11
538.563	1	10
538.903	1	13
539.243	1	0
539.584	1	4
539.924	1	4
540.264	1	3
540.604	1	7
540.944	1	3
541.284	1	7
541.624	1	12
541.964	1	1
542.305	1	12
542.645	1	-2
542.985	1	2
543.325	1	5
543.665	1	9
544.005	1	11
544.345	1	8
544.685	1	16
545.025	1	3
545.365	1	4
545.705	1	2
546.045	1	6
546.386	1	5
546.726	1	0
547.066	1	11
547.406	1	-6
547.746	1	5
548.086	1	-12
548.426	1	-5
548.766	1	18
549.106	1	-9
549.446	1	-6
549.786	1	2
550.126	1	14
550.466	1	7
550.806	1	8
551.146	1	-1
551.486	1	2
551.826	1	11
552.166	1	11
552.506	1	4
552.846	1	0
553.186	1	2
553.526	1	13
553.866	1	0
554.206	1	3
554.546	1	4
554.886	1	-3
555.226	1	6
555.566	1	3
555.906	1	10
556.246	1	4
556.586	1	5
556.926	1	5
557.266	1	-1
557.606	1	-5
557.946	1	2
558.286	1	9
558.626	1	-14
558.966	1	-13
559.306	1	2
559.646	1	2
559.986	1	-5
560.325	1	2
560.665	1	8
561.005	1	11
561.345	1	14
561.685	1	-2
562.025	1	5
562.365	1	10
562.705	1	8
563.045	1	4
563.385	1	7
563.725	1	14
564.064	1	1
564.404	1	-2
564.744	1	2
565.084	1	11
565.424	1	-7
565.764	1	6
566.104	1	1
566.444	1	6
566.783	1	16
567.123	1	7
567.463	1	6
567.803	1	8
568.143	1	10
568.483	1	7
568.823	1	-8
569.162	1	10
569.502	1	-5
569.842	1	6
570.182	1	2
570.522	1	-2
570.862	1	15
571.201	1	5
571.541	1	-2
571.881	1	0
572.221	1	10
572.561	1	5
572.900	1	8
573.240	1	-3
573.580	1	-2
573.920	1	11
574.260	1	3
574.599	1	4
574.939	1	6
575.279	1	-4
575.619	1	8
575.959	1	2
576.298	1	0
576.638	1	-5
576.978	1	-6
577.318	1	2
577.657	1	21
577.997	1	8
578.337	1	-1
578.677	1	8
579.016	1	5
579.356	1	4
579.696	1	3
580.036	1	-3
580.375	1	0
580.715	1	5
581.055	1	4
581.394	1	-3
581.734	1	8
582.074	1	0
582.414	1	-9
582.753	1	-3
583.093	1	-1
583.433	1	-2
583.772	1	-1
584.112	1	14
584.452	1	6
584.791	1	1
585.131	1	7
585.471	1	-2
585.811	1	4
586.150	1	16
586.490	1	-5
586.830	1	-7
587.169	1	-1
587.509	1	7
587.849	1	5
588.188	1	8
588.528	1	10
588.867	1	1
589.207	1	-5
589.547	1	-5
589.886	1	-2
590.226	1	17
590.566	1	0
590.905	1	11
591.245	1	-1
591.585	1	5
591.924	1	-8
592.264	1	2
592.603	1	3
592.943	1	4
593.283	1	-7
593.622	1	7
593.962	1	3
594.301	1	-6
594.641	1	3
594.981	1	-9
595.320	1	5
595.660	1	10
595.999	1	4
596.339	1	12
596.678	1	-1
597.018	1	3
597.358	1	-8
597.697	1	2
598.037	1	6
598.376	1	-2
598.716	1	1
599.055	1	0
599.395	1	-7
599.734	1	-6
600.074	1	2
600.413	1	5
600.753	1	-5
601.092	1	-5
601.432	1	-1
601.771	1	13
602.111	1	-1
602.451	1	7
602.790	1	-1
603.130	1	8
603.469	1	12
603.809	1	1
604.148	1	2
604.487	1	5
604.827	1	4
605.166	1	6
605.506	1	-3
605.845	1	0
606.185	1	7
606.524	1	-3
606.864	1	7
607.203	1	-8
607.543	1	2
607.882	1	9
608.222	1	-13
608.561	1	-1
608.901	1	9
609.240	1	-4
609.579	1	13
609.919	1	7
610.258	1	5
610.598	1	4
610.937	1	18
611.277	1	5
611.616	1	-2
611.955	1	-4
612.295	1	6
612.634	1	8
612.974	1	9
613.313	1	2
613.652	1	-11
613.992	1	5
614.331	1	5
614.671	1	7
615.010	1	-1
615.349	1	-5
615.689	1	4
616.028	1	6
616.368	1	12
616.707	1	12
617.046	1	10
617.386	1	7
617.725	1	-6
618.064	1	6
618.404	1	-4
618.743	1	5
619.082	1	0
619.422	1	0
619.761	1	5
620.100	1	2
620.440	1	5
620.779	1	10
621.118	1	3
621.458	1	2
621.797	1	1
622.136	1	10
622.476	1	6
622.815	1	3
623.154	1	-7
623.494	1	8
623.833	1	12
624.172	1	9
624.511	1	2
624.851	1	9
625.190	1	0
625.529	1	-7
625.869	1	9
626.208	1	-4
626.547	1	10
626.886	1	-1
627.226	1	-5
627.565	1	1
627.904	1	2
628.243	1	0
628.583	1	-12
628.922	1	-3
629.261	1	-10
629.600	1	0
629.940	1	13
630.279	1	15
630.618	1	-6
630.957	1	1
631.297	1	-7
631.636	1	1
631.975	1	9
632.314	1	3
632.653	1	-8
632.993	1	4
633.332	1	-3
633.671	1	0
634.010	1	-12
634.349	1	-1
634.689	1	11
635.028	1	9
635.367	1	2
635.706	1	-2
636.045	1	15
636.384	1	1
636.724	1	-1
637.063	1	4
637.402	1	3
637.741	1	7
638.080	1	7
638.419	1	3
638.759	1	2
639.098	1	-4
639.437	1	7
639.776	1	-1
640.115	1	-3
640.454	1	13
640.793	1	-9
641.132	1	11
641.472	1	8
641.811	1	-3
642.150	1	-16
642.489	1	-12
642.828	1	1
643.167	1	3
643.506	1	-1
643.845	1	3
644.184	1	1
644.524	1	0
644.863	1	-2
645.202	1	-2
645.541	1	3
645.880	1	3
646.219	1	-3
646.558	1	5
646.897	1	-2
647.236	1	5
647.575	1	-6
647.914	1	-3
648.253	1	-1
648.592	1	9
648.931	1	2
649.270	1	0
649.610	1	-6
649.949	1	8
650.288	1	11
650.627	1	1
650.966	1	5
651.305	1	-4
651.644	1	-1
651.983	1	-12
652.322	1	3
652.661	1	3
653.000	1	9
653.339	1	5
653.678	1	-8
654.017	1	-5
654.356	1	1
654.695	1	-9
655.034	1	5
655.373	1	6
655.712	1	-3
656.051	1	3
656.390	1	4
656.729	1	6
657.068	1	7
657.406	1	7
657.745	1	3
658.084	1	5
658.423	1	2
658.762	1	7
659.101	1	1
659.440	1	-7
659.779	1	-2
660.118	1	-4
660.457	1	-6
660.796	1	4
661.135	1	4
661.474	1	8
661.813	1	3
662.152	1	-3
662.491	1	14
662.829	1	21
663.168	1	0
663.507	1	-3
663.846	1	-2
664.185	1	-3
664.524	1	3
664.863	1	2
665.202	1	-6
665.541	1	-12
665.879	1	-1
666.218	1	-5
666.557	1	12
666.896	1	-2
667.235	1	-2
667.574	1	16
667.913	1	5
668.251	1	0
668.590	1	6
668.929	1	11
669.268	1	-4
669.607	1	13
669.946	1	11
670.285	1	7
670.623	1	11
670.962	1	-1
671.301	1	2
671.640	1	-15
671.979	1	1
672.317	1	4
672.656	1	-1
672.995	1	5
673.334	1	-1
673.673	1	8
674.011	1	-4
674.350	1	2
674.689	1	2
675.028	1	3
675.367	1	-2
675.705	1	5
676.044	1	-2
676.383	1	7
676.722	1	-1
677.060	1	12
677.399	1	1
677.738	1	-11
678.077	1	-1
678.416	1	5
678.754	1	13
679.093	1	0
679.432	1	5
679.771	1	0
680.109	1	1
680.448	1	7
680.787	1	9
681.125	1	15
681.464	1	-5
681.803	1	5
682.142	1	-4
682.480	1	6
682.819	1	3
683.158	1	13
683.496	1	-5
683.835	1	-4
684.174	1	6
684.512	1	15
684.851	1	-2
685.190	1	0
685.529	1	0
685.867	1	-3
686.206	1	7
686.545	1	1
686.883	1	-6
687.222	1	-7
687.561	1	4
687.899	1	7
688.238	1	4
688.577	1	2
688.746	1	4