File: Data/GaN_130K_350ms/GaN_sample F_spot6_UVVIS_130 K_200um_350 ms 2x2mm1_105.txt
340.368	1	7
340.710	1	17
341.052	1	0
341.394	1	0
341.737	1	-6
342.079	1	-7
342.421	1	14
342.763	1	11
343.105	1	8
343.447	1	6
343.789	1	2
344.131	1	2
344.473	1	2
344.815	1	-5
345.157	1	-4
345.499	1	5
345.841	1	1
346.183	1	9
346.526	1	7
346.868	1	8
347.210	1	1
347.552	1	-3
347.894	1	-2
348.236	1	7
348.578	1	3
348.920	1	4
349.262	1	17
349.604	1	3
349.946	1	6
350.288	1	4
350.630	1	3
350.972	1	20
351.314	1	1
351.656	1	16
351.998	1	10
352.340	1	12
352.682	1	2
353.024	1	1
353.366	1	14
353.708	1	8
354.050	1	16
354.392	1	9
354.734	1	12
355.076	1	10
355.418	1	11
355.760	1	19
356.102	1	5
356.444	1	-1
356.785	1	19
357.127	1	14
357.469	1	9
357.811	1	14
358.153	1	13
358.495	1	24
358.837	1	20
359.179	1	21
359.521	1	3
359.863	1	19
360.205	1	20
360.547	1	29
360.889	1	32
361.231	1	30
361.572	1	37
361.914	1	25
362.256	1	40
362.598	1	44
362.940	1	32
363.282	1	54
363.624	1	53
363.966	1	71
364.308	1	68
364.649	1	70
364.991	1	70
365.333	1	71
365.675	1	84
366.017	1	96
366.359	1	94
366.701	1	101
367.042	1	93
367.384	1	108
367.726	1	103
368.068	1	96
368.410	1	98
368.752	1	107
369.093	1	104
369.435	1	91
369.777	1	100
370.119	1	93
370.461	1	92
370.803	1	83
371.144	1	74
371.486	1	77
371.828	1	72
372.170	1	66
372.512	1	71
372.853	1	52
373.195	1	63
373.537	1	52
373.879	1	66
374.220	1	46
374.562	1	42
374.904	1	50
375.246	1	52
375.588	1	41
375.929	1	38
376.271	1	45
376.613	1	38
376.955	1	36
377.296	1	39
377.638	1	24
377.980	1	34
378.321	1	32
378.663	1	35
379.005	1	47
379.347	1	31
379.688	1	26
380.030	1	16
380.372	1	29
380.714	1	47
381.055	1	33
381.397	1	22
381.739	1	31
382.080	1	15
382.422	1	28
382.764	1	30
383.105	1	31
383.447	1	14
383.789	1	20
384.130	1	25
384.472	1	35
384.814	1	17
385.156	1	25
385.497	1	20
385.839	1	28
386.180	1	35
386.522	1	22
386.864	1	29
387.205	1	24
387.547	1	14
387.889	1	8
388.230	1	17
388.572	1	31
388.914	1	18
389.255	1	30
389.597	1	6
389.939	1	16
390.280	1	21
390.622	1	10
390.963	1	21
391.305	1	18
391.647	1	17
391.988	1	14
392.330	1	17
392.671	1	12
393.013	1	16
393.355	1	18
393.696	1	15
394.038	1	16
394.379	1	30
394.721	1	22
395.062	1	13
395.404	1	7
395.746	1	12
396.087	1	29
396.429	1	22
396.770	1	26
397.112	1	29
397.453	1	29
397.795	1	3
398.136	1	19
398.478	1	19
398.819	1	3
399.161	1	18
399.503	1	26
399.844	1	12
400.186	1	6
400.527	1	21
400.869	1	15
401.210	1	7
401.552	1	16
401.893	1	-3
402.235	1	8
402.576	1	19
402.918	1	15
403.259	1	10
403.601	1	18
403.942	1	6
404.284	1	15
404.625	1	24
404.967	1	15
405.308	1	6
405.649	1	17
405.991	1	8
406.332	1	17
406.674	1	22
407.015	1	10
407.357	1	7
407.698	1	12
408.040	1	20
408.381	1	18
408.722	1	20
409.064	1	16
409.405	1	11
409.747	1	7
410.088	1	12
410.430	1	16
410.771	1	0
411.112	1	20
411.454	1	14
411.795	1	8
412.137	1	8
412.478	1	8
412.819	1	19
413.161	1	17
413.502	1	20
413.844	1	8
414.185	1	16
414.526	1	11
414.868	1	14
415.209	1	7
415.550	1	11
415.892	1	13
416.233	1	11
416.575	1	11
416.916	1	8
417.257	1	7
417.599	1	10
417.940	1	17
418.281	1	8
418.623	1	18
418.964	1	7
419.305	1	6
419.647	1	6
419.988	1	19
420.329	1	11
420.671	1	8
421.012	1	6
421.353	1	1
421.695	1	12
422.036	1	8
422.377	1	16
422.718	1	4
423.060	1	9
423.401	1	13
423.742	1	7
424.084	1	11
424.425	1	5
424.766	1	7
425.107	1	13
425.449	1	8
425.790	1	14
426.131	1	24
426.472	1	17
426.814	1	10
427.155	1	-3
427.496	1	3
427.837	1	7
428.179	1	11
428.520	1	11
428.861	1	11
429.202	1	11
429.544	1	7
429.885	1	6
430.226	1	10
430.567	1	7
430.909	1	6
431.250	1	14
431.591	1	2
431.932	1	7
432.273	1	8
432.615	1	8
432.956	1	4
433.297	1	10
433.638	1	6
433.979	1	13
434.320	1	8
434.662	1	5
435.003	1	10
435.344	1	12
435.685	1	-4
436.026	1	13
436.368	1	7
436.709	1	-4
437.050	1	7
437.391	1	19
437.732	1	2
438.073	1	19
438.414	1	2
438.756	1	7
439.097	1	4
439.438	1	12
439.779	1	12
440.120	1	13
440.461	1	13
440.802	1	-5
441.143	1	-5
441.485	1	10
441.826	1	7
442.167	1	2
442.508	1	5
442.849	1	16
443.190	1	9
443.531	1	-4
443.872	1	11
444.213	1	11
444.554	1	5
444.895	1	11
445.237	1	-6
445.578	1	0
445.919	1	-7
446.260	1	13
446.601	1	10
446.942	1	-1
447.283	1	9
447.624	1	7
447.965	1	6
448.306	1	4
448.647	1	9
448.988	1	8
449.329	1	0
449.670	1	10
450.011	1	2
450.352	1	16
450.693	1	9
451.034	1	4
451.375	1	12
451.716	1	-2
452.057	1	13
452.398	1	2
452.739	1	6
453.080	1	5
453.421	1	6
453.762	1	10
454.103	1	3
454.444	1	4
454.785	1	16
455.126	1	2
455.467	1	2
455.808	1	6
456.149	1	1
456.490	1	10
456.831	1	2
457.172	1	11
457.513	1	-1
457.854	1	9
458.195	1	0
458.536	1	1
458.877	1	28
459.218	1	9
459.559	1	6
459.899	1	4
460.240	1	18
460.581	1	4
460.922	1	4
461.263	1	5
461.604	1	-8
461.945	1	11
462.286	1	5
462.627	1	7
462.968	1	2
463.309	1	15
463.649	1	-5
463.990	1	5
464.331	1	10
464.672	1	11
465.013	1	3
465.354	1	7
465.695	1	16
466.036	1	7
466.376	1	16
466.717	1	8
467.058	1	11
467.399	1	-8
467.740	1	17
468.081	1	13
468.422	1	3
468.762	1	5
469.103	1	2
469.444	1	19
469.785	1	9
470.126	1	-2
470.467	1	5
470.807	1	9
471.148	1	-1
471.489	1	5
471.830	1	6
472.171	1	8
472.511	1	1
472.852	1	9
473.193	1	2
473.534	1	6
473.875	1	16
474.215	1	-3
474.556	1	-2
474.897	1	2
475.238	1	24
475.578	1	2
475.919	1	-3
476.260	1	11
476.601	1	13
476.942	1	17
477.282	1	7
477.623	1	-1
477.964	1	0
478.305	1	20
478.645	1	12
478.986	1	3
479.327	1	4
479.667	1	8
480.008	1	0
480.349	1	-1
480.690	1	10
481.030	1	8
481.371	1	13
481.712	1	-1
482.053	1	1
482.393	1	14
482.734	1	-2
483.075	1	17
483.415	1	2
483.756	1	7
484.097	1	11
484.437	1	4
484.778	1	14
485.119	1	16
485.459	1	3
485.800	1	10
486.141	1	1
486.481	1	2
486.822	1	18
487.163	1	4
487.503	1	7
487.844	1	5
488.185	1	12
488.525	1	19
488.866	1	6
489.207	1	4
489.547	1	5
489.888	1	13
490.228	1	12
490.569	1	8
490.910	1	-4
491.250	1	18
491.591	1	8
491.932	1	15
492.272	1	4
492.613	1	7
492.953	1	14
493.294	1	17
493.635	1	22
493.975	1	30
494.316	1	19
494.656	1	12
494.997	1	15
495.337	1	18
495.678	1	10
496.019	1	10
496.359	1	24
496.700	1	16
497.040	1	22
497.381	1	24
497.721	1	21
498.062	1	9
498.403	1	12
498.743	1	22
499.084	1	18
499.424	1	2
499.765	1	14
500.105	1	17
500.446	1	32
500.786	1	22
501.127	1	17
501.467	1	10
501.808	1	28
502.148	1	20
502.489	1	13
502.829	1	18
503.170	1	15
503.510	1	19
503.851	1	13
504.191	1	13
504.532	1	29
504.872	1	20
505.213	1	26
505.553	1	30
505.894	1	42
506.234	1	8
506.575	1	13
506.915	1	37
507.256	1	45
507.596	1	25
507.936	1	13
508.277	1	26
508.617	1	32
508.958	1	37
509.298	1	26
509.639	1	35
509.979	1	25
510.319	1	40
510.660	1	29
511.000	1	38
511.341	1	33
511.681	1	36
512.022	1	28
512.362	1	30
512.702	1	43
513.043	1	29
513.383	1	42
513.724	1	35
514.064	1	24
514.404	1	44
514.745	1	27
515.085	1	32
515.425	1	34
515.766	1	42
516.106	1	32
516.447	1	33
516.787	1	37
517.127	1	33
517.468	1	32
517.808	1	34
518.148	1	35
518.489	1	38
518.829	1	43
519.169	1	42
519.510	1	31
519.850	1	56
520.190	1	50
520.531	1	41
520.871	1	41
521.211	1	46
521.552	1	41
521.892	1	52
522.232	1	29
522.573	1	33
522.913	1	38
523.253	1	50
523.593	1	49
523.934	1	41
524.274	1	29
524.614	1	49
524.955	1	50
525.295	1	50
525.635	1	45
525.975	1	53
526.316	1	41
526.656	1	45
526.996	1	41
527.337	1	47
527.677	1	39
528.017	1	36
528.357	1	39
528.698	1	35
529.038	1	36
529.378	1	43
529.718	1	49
530.058	1	31
530.399	1	42
530.739	1	42
531.079	1	39
531.419	1	50
531.760	1	35
532.100	1	46
532.440	1	40
532.780	1	43
533.120	1	39
533.461	1	38
533.801	1	50
534.141	1	37
534.481	1	53
534.821	1	45
535.162	1	44
535.502	1	31
535.842	1	45
536.182	1	47
536.522	1	36
536.862	1	37
537.203	1	27
537.543	1	46
537.883	1	25
538.223	1	49
538.563	1	48
538.903	1	56
539.243	1	36
539.584	1	42
539.924	1	33
540.264	1	28
540.604	1	27
540.944	1	42
541.284	1	28
541.624	1	48
541.964	1	26
542.305	1	33
542.645	1	28
542.985	1	48
543.325	1	34
543.665	1	36
544.005	1	30
544.345	1	31
544.685	1	37
545.025	1	26
545.365	1	31
545.705	1	33
546.045	1	33
546.386	1	27
546.726	1	32
547.066	1	37
547.406	1	12
547.746	1	39
548.086	1	30
548.426	1	35
548.766	1	38
549.106	1	25
549.446	1	29
549.786	1	31
550.126	1	52
550.466	1	37
550.806	1	47
551.146	1	30
551.486	1	37
551.826	1	22
552.166	1	31
552.506	1	35
552.846	1	21
553.186	1	32
553.526	1	35
553.866	1	21
554.206	1	30
554.546	1	36
554.886	1	34
555.226	1	24
555.566	1	24
555.906	1	29
556.246	1	31
556.586	1	25
556.926	1	27
557.266	1	30
557.606	1	22
557.946	1	35
558.286	1	31
558.626	1	11
558.966	1	33
559.306	1	21
559.646	1	19
559.986	1	27
560.325	1	15
560.665	1	30
561.005	1	31
561.345	1	36
561.685	1	28
562.025	1	33
562.365	1	29
562.705	1	26
563.045	1	16
563.385	1	28
563.725	1	18
564.064	1	35
564.404	1	23
564.744	1	32
565.084	1	21
565.424	1	7
565.764	1	15
566.104	1	18
566.444	1	25
566.783	1	21
567.123	1	12
567.463	1	17
567.803	1	24
568.143	1	22
568.483	1	21
568.823	1	8
569.162	1	22
569.502	1	12
569.842	1	13
570.182	1	22
570.522	1	3
570.862	1	31
571.201	1	20
571.541	1	17
571.881	1	19
572.221	1	17
572.561	1	17
572.900	1	20
573.240	1	16
573.580	1	16
573.920	1	28
574.260	1	16
574.599	1	23
574.939	1	27
575.279	1	4
575.619	1	7
575.959	1	11
576.298	1	11
576.638	1	13
576.978	1	2
577.318	1	20
577.657	1	18
577.997	1	13
578.337	1	17
578.677	1	25
579.016	1	13
579.356	1	23
579.696	1	10
580.036	1	16
580.375	1	8
580.715	1	11
581.055	1	16
581.394	1	4
581.734	1	24
582.074	1	14
582.414	1	10
582.753	1	19
583.093	1	10
583.433	1	14
583.772	1	13
584.112	1	17
584.452	1	20
584.791	1	13
585.131	1	19
585.471	1	12
585.811	1	6
586.150	1	17
586.490	1	14
586.830	1	5
587.169	1	14
587.509	1	20
587.849	1	11
588.188	1	19
588.528	1	25
588.867	1	13
589.207	1	1
589.547	1	12
589.886	1	6
590.226	1	17
590.566	1	10
590.905	1	24
591.245	1	14
591.585	1	17
591.924	1	11
592.264	1	12
592.603	1	11
592.943	1	1
593.283	1	0
593.622	1	11
593.962	1	10
594.301	1	3
594.641	1	6
594.981	1	3
595.320	1	15
595.660	1	12
595.999	1	14
596.339	1	15
596.678	1	-3
597.018	1	4
597.358	1	2
597.697	1	9
598.037	1	7
598.376	1	10
598.716	1	6
599.055	1	6
599.395	1	-1
599.734	1	2
600.074	1	11
600.413	1	18
600.753	1	4
601.092	1	-1
601.432	1	1
601.771	1	12
602.111	1	4
602.451	1	6
602.790	1	4
603.130	1	11
603.469	1	17
603.809	1	8
604.148	1	13
604.487	1	14
604.827	1	8
605.166	1	6
605.506	1	10
605.845	1	4
606.185	1	13
606.524	1	9
606.864	1	18
607.203	1	6
607.543	1	8
607.882	1	9
608.222	1	0
608.561	1	1
608.901	1	11
609.240	1	0
609.579	1	19
609.919	1	12
610.258	1	8
610.598	1	5
610.937	1	2
611.277	1	12
611.616	1	0
611.955	1	7
612.295	1	13
612.634	1	5
612.974	1	12
613.313	1	9
613.652	1	3
613.992	1	2
614.331	1	8
614.671	1	14
615.010	1	3
615.349	1	8
615.689	1	11
616.028	1	10
616.368	1	10
616.707	1	15
617.046	1	8
617.386	1	4
617.725	1	5
618.064	1	8
618.404	1	11
618.743	1	21
619.082	1	3
619.422	1	3
619.761	1	3
620.100	1	4
620.440	1	5
620.779	1	16
621.118	1	8
621.458	1	10
621.797	1	-1
622.136	1	11
622.476	1	5
622.815	1	-2
623.154	1	4
623.494	1	7
623.833	1	16
624.172	1	-6
624.511	1	2
624.851	1	5
625.190	1	1
625.529	1	3
625.869	1	9
626.208	1	4
626.547	1	7
626.886	1	7
627.226	1	6
627.565	1	2
627.904	1	11
628.243	1	15
628.583	1	1
628.922	1	-1
629.261	1	-4
629.600	1	12
629.940	1	14
630.279	1	21
630.618	1	4
630.957	1	5
631.297	1	2
631.636	1	6
631.975	1	7
632.314	1	6
632.653	1	5
632.993	1	6
633.332	1	7
633.671	1	0
634.010	1	-1
634.349	1	4
634.689	1	11
635.028	1	6
635.367	1	8
635.706	1	5
636.045	1	15
636.384	1	4
636.724	1	3
637.063	1	-1
637.402	1	-1
637.741	1	13
638.080	1	12
638.419	1	8
638.759	1	4
639.098	1	2
639.437	1	9
639.776	1	0
640.115	1	12
640.454	1	9
640.793	1	-12
641.132	1	17
641.472	1	0
641.811	1	2
642.150	1	2
642.489	1	-3
642.828	1	-7
643.167	1	11
643.506	1	12
643.845	1	2
644.184	1	-7
644.524	1	5
644.863	1	4
645.202	1	8
645.541	1	2
645.880	1	6
646.219	1	6
646.558	1	3
646.897	1	1
647.236	1	-3
647.575	1	-3
647.914	1	1
648.253	1	5
648.592	1	1
648.931	1	-4
649.270	1	-6
649.610	1	-1
649.949	1	5
650.288	1	7
650.627	1	7
650.966	1	12
651.305	1	2
651.644	1	8
651.983	1	-10
652.322	1	3
652.661	1	4
653.000	1	4
653.339	1	-1
653.678	1	2
654.017	1	3
654.356	1	13
654.695	1	7
655.034	1	3
655.373	1	4
655.712	1	1
656.051	1	7
656.390	1	10
656.729	1	2
657.068	1	5
657.406	1	13
657.745	1	-6
658.084	1	2
658.423	1	0
658.762	1	15
659.101	1	5
659.440	1	-5
659.779	1	7
660.118	1	1
660.457	1	4
660.796	1	6
661.135	1	15
661.474	1	-2
661.813	1	-3
662.152	1	5
662.491	1	18
662.829	1	15
663.168	1	-8
663.507	1	-3
663.846	1	3
664.185	1	2
664.524	1	-2
664.863	1	5
665.202	1	-5
665.541	1	2
665.879	1	3
666.218	1	11
666.557	1	4
666.896	1	5
667.235	1	2
667.574	1	19
667.913	1	2
668.251	1	8
668.590	1	9
668.929	1	14
669.268	1	2
669.607	1	8
669.946	1	13
670.285	1	10
670.623	1	10
670.962	1	-4
671.301	1	4
671.640	1	-5
671.979	1	0
672.317	1	-1
672.656	1	10
672.995	1	8
673.334	1	-6
673.673	1	13
674.011	1	0
674.350	1	8
674.689	1	9
675.028	1	9
675.367	1	-2
675.705	1	13
676.044	1	9
676.383	1	5
676.722	1	0
677.060	1	11
677.399	1	3
677.738	1	-1
678.077	1	10
678.416	1	7
678.754	1	7
679.093	1	6
679.432	1	13
679.771	1	13
680.109	1	6
680.448	1	7
680.787	1	10
681.125	1	20
681.464	1	0
681.803	1	-3
682.142	1	-1
682.480	1	9
682.819	1	4
683.158	1	4
683.496	1	11
683.835	1	-1
684.174	1	8
684.512	1	14
684.851	1	-2
685.190	1	13
685.529	1	-1
685.867	1	5
686.206	1	14
686.545	1	2
686.883	1	3
687.222	1	6
687.561	1	18
687.899	1	9
688.238	1	14
688.577	1	9
688.746	1	12