File: Data/GaN_130K_350ms/GaN_sample F_spot6_UVVIS_130 K_200um_350 ms 2x2mm1_138.txt
340.368	1	4
340.710	1	15
341.052	1	2
341.394	1	-2
341.737	1	5
342.079	1	8
342.421	1	5
342.763	1	5
343.105	1	3
343.447	1	8
343.789	1	3
344.131	1	3
344.473	1	0
344.815	1	-7
345.157	1	-9
345.499	1	6
345.841	1	6
346.183	1	7
346.526	1	-2
346.868	1	3
347.210	1	-4
347.552	1	0
347.894	1	2
348.236	1	9
348.578	1	4
348.920	1	4
349.262	1	8
349.604	1	11
349.946	1	5
350.288	1	2
350.630	1	10
350.972	1	15
351.314	1	0
351.656	1	10
351.998	1	4
352.340	1	14
352.682	1	4
353.024	1	15
353.366	1	11
353.708	1	0
354.050	1	13
354.392	1	17
354.734	1	-3
355.076	1	2
355.418	1	7
355.760	1	13
356.102	1	2
356.444	1	-3
356.785	1	5
357.127	1	10
357.469	1	-1
357.811	1	23
358.153	1	6
358.495	1	18
358.837	1	9
359.179	1	14
359.521	1	7
359.863	1	14
360.205	1	3
360.547	1	12
360.889	1	4
361.231	1	6
361.572	1	29
361.914	1	15
362.256	1	11
362.598	1	14
362.940	1	13
363.282	1	33
363.624	1	27
363.966	1	35
364.308	1	39
364.649	1	34
364.991	1	34
365.333	1	34
365.675	1	45
366.017	1	43
366.359	1	54
366.701	1	40
367.042	1	51
367.384	1	52
367.726	1	48
368.068	1	46
368.410	1	38
368.752	1	50
369.093	1	42
369.435	1	38
369.777	1	38
370.119	1	46
370.461	1	34
370.803	1	29
371.144	1	26
371.486	1	46
371.828	1	39
372.170	1	32
372.512	1	40
372.853	1	27
373.195	1	30
373.537	1	37
373.879	1	42
374.220	1	30
374.562	1	26
374.904	1	22
375.246	1	23
375.588	1	21
375.929	1	12
376.271	1	19
376.613	1	16
376.955	1	28
377.296	1	29
377.638	1	17
377.980	1	8
378.321	1	19
378.663	1	26
379.005	1	34
379.347	1	15
379.688	1	3
380.030	1	15
380.372	1	22
380.714	1	23
381.055	1	11
381.397	1	12
381.739	1	13
382.080	1	11
382.422	1	22
382.764	1	14
383.105	1	7
383.447	1	14
383.789	1	21
384.130	1	13
384.472	1	17
384.814	1	15
385.156	1	7
385.497	1	9
385.839	1	12
386.180	1	6
386.522	1	12
386.864	1	18
387.205	1	13
387.547	1	20
387.889	1	4
388.230	1	10
388.572	1	16
388.914	1	6
389.255	1	9
389.597	1	-2
389.939	1	7
390.280	1	17
390.622	1	8
390.963	1	17
391.305	1	10
391.647	1	10
391.988	1	13
392.330	1	14
392.671	1	-3
393.013	1	13
393.355	1	2
393.696	1	9
394.038	1	22
394.379	1	14
394.721	1	11
395.062	1	1
395.404	1	5
395.746	1	20
396.087	1	19
396.429	1	11
396.770	1	17
397.112	1	12
397.453	1	17
397.795	1	8
398.136	1	6
398.478	1	6
398.819	1	-4
399.161	1	18
399.503	1	9
399.844	1	3
400.186	1	-1
400.527	1	15
400.869	1	4
401.210	1	4
401.552	1	19
401.893	1	-1
402.235	1	13
402.576	1	8
402.918	1	13
403.259	1	3
403.601	1	11
403.942	1	4
404.284	1	2
404.625	1	22
404.967	1	5
405.308	1	4
405.649	1	17
405.991	1	7
406.332	1	12
406.674	1	18
407.015	1	3
407.357	1	12
407.698	1	11
408.040	1	17
408.381	1	17
408.722	1	11
409.064	1	7
409.405	1	7
409.747	1	-3
410.088	1	13
410.430	1	17
410.771	1	-5
411.112	1	15
411.454	1	5
411.795	1	13
412.137	1	3
412.478	1	9
412.819	1	16
413.161	1	5
413.502	1	19
413.844	1	8
414.185	1	3
414.526	1	7
414.868	1	-4
415.209	1	-1
415.550	1	9
415.892	1	10
416.233	1	5
416.575	1	12
416.916	1	8
417.257	1	11
417.599	1	0
417.940	1	17
418.281	1	10
418.623	1	11
418.964	1	-3
419.305	1	3
419.647	1	16
419.988	1	26
420.329	1	16
420.671	1	9
421.012	1	9
421.353	1	6
421.695	1	6
422.036	1	5
422.377	1	7
422.718	1	9
423.060	1	16
423.401	1	15
423.742	1	9
424.084	1	2
424.425	1	11
424.766	1	7
425.107	1	10
425.449	1	8
425.790	1	13
426.131	1	14
426.472	1	2
426.814	1	12
427.155	1	3
427.496	1	7
427.837	1	7
428.179	1	-5
428.520	1	10
428.861	1	1
429.202	1	13
429.544	1	10
429.885	1	11
430.226	1	-3
430.567	1	6
430.909	1	8
431.250	1	10
431.591	1	-3
431.932	1	9
432.273	1	10
432.615	1	18
432.956	1	-9
433.297	1	8
433.638	1	7
433.979	1	9
434.320	1	5
434.662	1	-6
435.003	1	12
435.344	1	10
435.685	1	-10
436.026	1	3
436.368	1	-2
436.709	1	-3
437.050	1	9
437.391	1	21
437.732	1	8
438.073	1	8
438.414	1	6
438.756	1	7
439.097	1	13
439.438	1	3
439.779	1	16
440.120	1	10
440.461	1	24
440.802	1	-10
441.143	1	-1
441.485	1	11
441.826	1	-1
442.167	1	15
442.508	1	7
442.849	1	5
443.190	1	1
443.531	1	9
443.872	1	9
444.213	1	2
444.554	1	6
444.895	1	-5
445.237	1	-1
445.578	1	5
445.919	1	5
446.260	1	-1
446.601	1	10
446.942	1	4
447.283	1	3
447.624	1	6
447.965	1	1
448.306	1	12
448.647	1	9
448.988	1	9
449.329	1	4
449.670	1	7
450.011	1	3
450.352	1	10
450.693	1	6
451.034	1	5
451.375	1	15
451.716	1	2
452.057	1	12
452.398	1	-1
452.739	1	1
453.080	1	-5
453.421	1	3
453.762	1	7
454.103	1	6
454.444	1	11
454.785	1	14
455.126	1	-12
455.467	1	14
455.808	1	9
456.149	1	-7
456.490	1	9
456.831	1	6
457.172	1	7
457.513	1	-3
457.854	1	6
458.195	1	-5
458.536	1	9
458.877	1	23
459.218	1	11
459.559	1	10
459.899	1	9
460.240	1	15
460.581	1	0
460.922	1	10
461.263	1	10
461.604	1	-9
461.945	1	16
462.286	1	10
462.627	1	6
462.968	1	7
463.309	1	1
463.649	1	1
463.990	1	-4
464.331	1	11
464.672	1	7
465.013	1	6
465.354	1	1
465.695	1	12
466.036	1	6
466.376	1	12
466.717	1	7
467.058	1	13
467.399	1	1
467.740	1	22
468.081	1	18
468.422	1	5
468.762	1	-1
469.103	1	7
469.444	1	1
469.785	1	9
470.126	1	-5
470.467	1	-3
470.807	1	6
471.148	1	1
471.489	1	-1
471.830	1	3
472.171	1	1
472.511	1	-3
472.852	1	13
473.193	1	10
473.534	1	5
473.875	1	10
474.215	1	5
474.556	1	7
474.897	1	4
475.238	1	8
475.578	1	1
475.919	1	-2
476.260	1	8
476.601	1	-1
476.942	1	10
477.282	1	2
477.623	1	-3
477.964	1	-3
478.305	1	8
478.645	1	-3
478.986	1	3
479.327	1	-5
479.667	1	9
480.008	1	-3
480.349	1	-1
480.690	1	6
481.030	1	4
481.371	1	14
481.712	1	11
482.053	1	9
482.393	1	12
482.734	1	7
483.075	1	12
483.415	1	8
483.756	1	-1
484.097	1	7
484.437	1	-1
484.778	1	10
485.119	1	8
485.459	1	-8
485.800	1	14
486.141	1	-5
486.481	1	6
486.822	1	5
487.163	1	-4
487.503	1	-6
487.844	1	7
488.185	1	2
488.525	1	7
488.866	1	11
489.207	1	1
489.547	1	6
489.888	1	12
490.228	1	3
490.569	1	-4
490.910	1	-2
491.250	1	11
491.591	1	2
491.932	1	-4
492.272	1	2
492.613	1	2
492.953	1	5
493.294	1	14
493.635	1	6
493.975	1	17
494.316	1	11
494.656	1	14
494.997	1	2
495.337	1	14
495.678	1	-3
496.019	1	3
496.359	1	6
496.700	1	5
497.040	1	15
497.381	1	7
497.721	1	5
498.062	1	-2
498.403	1	0
498.743	1	18
499.084	1	12
499.424	1	-1
499.765	1	11
500.105	1	15
500.446	1	12
500.786	1	12
501.127	1	12
501.467	1	2
501.808	1	2
502.148	1	13
502.489	1	13
502.829	1	-1
503.170	1	0
503.510	1	6
503.851	1	14
504.191	1	11
504.532	1	20
504.872	1	14
505.213	1	12
505.553	1	13
505.894	1	17
506.234	1	10
506.575	1	5
506.915	1	12
507.256	1	19
507.596	1	4
507.936	1	11
508.277	1	7
508.617	1	3
508.958	1	9
509.298	1	13
509.639	1	18
509.979	1	22
510.319	1	18
510.660	1	2
511.000	1	10
511.341	1	14
511.681	1	23
512.022	1	7
512.362	1	7
512.702	1	15
513.043	1	13
513.383	1	16
513.724	1	-3
514.064	1	6
514.404	1	21
514.745	1	10
515.085	1	22
515.425	1	5
515.766	1	14
516.106	1	6
516.447	1	22
516.787	1	11
517.127	1	15
517.468	1	15
517.808	1	20
518.148	1	23
518.489	1	13
518.829	1	19
519.169	1	19
519.510	1	5
519.850	1	20
520.190	1	24
520.531	1	26
520.871	1	9
521.211	1	23
521.552	1	19
521.892	1	24
522.232	1	15
522.573	1	4
522.913	1	24
523.253	1	16
523.593	1	22
523.934	1	13
524.274	1	9
524.614	1	17
524.955	1	20
525.295	1	18
525.635	1	11
525.975	1	27
526.316	1	9
526.656	1	17
526.996	1	13
527.337	1	27
527.677	1	16
528.017	1	21
528.357	1	22
528.698	1	11
529.038	1	8
529.378	1	21
529.718	1	26
530.058	1	12
530.399	1	21
530.739	1	15
531.079	1	12
531.419	1	18
531.760	1	5
532.100	1	24
532.440	1	25
532.780	1	15
533.120	1	18
533.461	1	19
533.801	1	25
534.141	1	21
534.481	1	24
534.821	1	21
535.162	1	20
535.502	1	19
535.842	1	18
536.182	1	21
536.522	1	13
536.862	1	7
537.203	1	6
537.543	1	27
537.883	1	9
538.223	1	19
538.563	1	28
538.903	1	23
539.243	1	18
539.584	1	30
539.924	1	12
540.264	1	14
540.604	1	14
540.944	1	16
541.284	1	15
541.624	1	32
541.964	1	9
542.305	1	7
542.645	1	12
542.985	1	16
543.325	1	13
543.665	1	18
544.005	1	16
544.345	1	22
544.685	1	21
545.025	1	17
545.365	1	16
545.705	1	14
546.045	1	10
546.386	1	12
546.726	1	5
547.066	1	28
547.406	1	3
547.746	1	15
548.086	1	3
548.426	1	15
548.766	1	13
549.106	1	12
549.446	1	8
549.786	1	12
550.126	1	22
550.466	1	18
550.806	1	22
551.146	1	8
551.486	1	19
551.826	1	11
552.166	1	19
552.506	1	19
552.846	1	13
553.186	1	13
553.526	1	7
553.866	1	8
554.206	1	7
554.546	1	21
554.886	1	17
555.226	1	15
555.566	1	14
555.906	1	7
556.246	1	14
556.586	1	15
556.926	1	10
557.266	1	7
557.606	1	14
557.946	1	7
558.286	1	25
558.626	1	1
558.966	1	1
559.306	1	0
559.646	1	7
559.986	1	10
560.325	1	6
560.665	1	21
561.005	1	12
561.345	1	24
561.685	1	9
562.025	1	11
562.365	1	20
562.705	1	12
563.045	1	5
563.385	1	7
563.725	1	6
564.064	1	15
564.404	1	8
564.744	1	10
565.084	1	19
565.424	1	7
565.764	1	8
566.104	1	7
566.444	1	23
566.783	1	13
567.123	1	7
567.463	1	11
567.803	1	13
568.143	1	22
568.483	1	13
568.823	1	2
569.162	1	7
569.502	1	6
569.842	1	4
570.182	1	12
570.522	1	-10
570.862	1	20
571.201	1	6
571.541	1	6
571.881	1	7
572.221	1	12
572.561	1	15
572.900	1	9
573.240	1	6
573.580	1	2
573.920	1	13
574.260	1	6
574.599	1	20
574.939	1	14
575.279	1	-2
575.619	1	12
575.959	1	10
576.298	1	-3
576.638	1	3
576.978	1	1
577.318	1	15
577.657	1	13
577.997	1	20
578.337	1	5
578.677	1	11
579.016	1	0
579.356	1	12
579.696	1	-5
580.036	1	9
580.375	1	2
580.715	1	21
581.055	1	12
581.394	1	10
581.734	1	8
582.074	1	10
582.414	1	-3
582.753	1	4
583.093	1	11
583.433	1	12
583.772	1	16
584.112	1	9
584.452	1	20
584.791	1	7
585.131	1	11
585.471	1	-2
585.811	1	11
586.150	1	7
586.490	1	8
586.830	1	-1
587.169	1	8
587.509	1	3
587.849	1	16
588.188	1	8
588.528	1	12
588.867	1	4
589.207	1	7
589.547	1	-2
589.886	1	10
590.226	1	23
590.566	1	12
590.905	1	11
591.245	1	4
591.585	1	2
591.924	1	8
592.264	1	2
592.603	1	0
592.943	1	8
593.283	1	4
593.622	1	14
593.962	1	5
594.301	1	1
594.641	1	6
594.981	1	3
595.320	1	16
595.660	1	12
595.999	1	16
596.339	1	15
596.678	1	0
597.018	1	6
597.358	1	-3
597.697	1	3
598.037	1	14
598.376	1	9
598.716	1	7
599.055	1	4
599.395	1	1
599.734	1	-2
600.074	1	3
600.413	1	13
600.753	1	7
601.092	1	10
601.432	1	-9
601.771	1	13
602.111	1	0
602.451	1	4
602.790	1	-3
603.130	1	5
603.469	1	6
603.809	1	11
604.148	1	14
604.487	1	8
604.827	1	3
605.166	1	9
605.506	1	4
605.845	1	1
606.185	1	10
606.524	1	8
606.864	1	15
607.203	1	5
607.543	1	11
607.882	1	7
608.222	1	-4
608.561	1	1
608.901	1	15
609.240	1	1
609.579	1	16
609.919	1	8
610.258	1	6
610.598	1	8
610.937	1	9
611.277	1	10
611.616	1	0
611.955	1	0
612.295	1	11
612.634	1	-1
612.974	1	10
613.313	1	3
613.652	1	-5
613.992	1	8
614.331	1	3
614.671	1	11
615.010	1	-1
615.349	1	5
615.689	1	6
616.028	1	12
616.368	1	13
616.707	1	13
617.046	1	12
617.386	1	7
617.725	1	1
618.064	1	13
618.404	1	-1
618.743	1	15
619.082	1	6
619.422	1	4
619.761	1	12
620.100	1	-4
620.440	1	6
620.779	1	6
621.118	1	-1
621.458	1	6
621.797	1	1
622.136	1	4
622.476	1	5
622.815	1	8
623.154	1	4
623.494	1	11
623.833	1	6
624.172	1	1
624.511	1	-2
624.851	1	2
625.190	1	-2
625.529	1	0
625.869	1	4
626.208	1	3
626.547	1	6
626.886	1	-1
627.226	1	7
627.565	1	-7
627.904	1	8
628.243	1	15
628.583	1	-10
628.922	1	-8
629.261	1	-10
629.600	1	10
629.940	1	9
630.279	1	8
630.618	1	-3
630.957	1	3
631.297	1	5
631.636	1	17
631.975	1	2
632.314	1	2
632.653	1	6
632.993	1	-1
633.332	1	7
633.671	1	-11
634.010	1	-3
634.349	1	5
634.689	1	9
635.028	1	10
635.367	1	8
635.706	1	-7
636.045	1	10
636.384	1	5
636.724	1	13
637.063	1	11
637.402	1	-8
637.741	1	12
638.080	1	18
638.419	1	10
638.759	1	9
639.098	1	4
639.437	1	16
639.776	1	9
640.115	1	15
640.454	1	13
640.793	1	-3
641.132	1	9
641.472	1	-1
641.811	1	-1
642.150	1	-13
642.489	1	-8
642.828	1	0
643.167	1	12
643.506	1	16
643.845	1	2
644.184	1	4
644.524	1	-5
644.863	1	5
645.202	1	13
645.541	1	1
645.880	1	7
646.219	1	0
646.558	1	-3
646.897	1	6
647.236	1	-2
647.575	1	5
647.914	1	-8
648.253	1	2
648.592	1	-4
648.931	1	2
649.270	1	4
649.610	1	0
649.949	1	10
650.288	1	5
650.627	1	9
650.966	1	-1
651.305	1	4
651.644	1	4
651.983	1	-14
652.322	1	-3
652.661	1	-5
653.000	1	2
653.339	1	7
653.678	1	0
654.017	1	-2
654.356	1	6
654.695	1	2
655.034	1	6
655.373	1	0
655.712	1	3
656.051	1	2
656.390	1	4
656.729	1	1
657.068	1	0
657.406	1	-5
657.745	1	3
658.084	1	-1
658.423	1	3
658.762	1	13
659.101	1	3
659.440	1	-9
659.779	1	8
660.118	1	13
660.457	1	-3
660.796	1	8
661.135	1	17
661.474	1	10
661.813	1	3
662.152	1	6
662.491	1	12
662.829	1	12
663.168	1	-1
663.507	1	3
663.846	1	5
664.185	1	0
664.524	1	-8
664.863	1	8
665.202	1	-1
665.541	1	-5
665.879	1	-1
666.218	1	15
666.557	1	12
666.896	1	2
667.235	1	2
667.574	1	13
667.913	1	7
668.251	1	6
668.590	1	9
668.929	1	6
669.268	1	-5
669.607	1	-1
669.946	1	9
670.285	1	15
670.623	1	14
670.962	1	-6
671.301	1	2
671.640	1	-3
671.979	1	4
672.317	1	2
672.656	1	-3
672.995	1	4
673.334	1	-7
673.673	1	10
674.011	1	-2
674.350	1	7
674.689	1	7
675.028	1	19
675.367	1	2
675.705	1	14
676.044	1	-2
676.383	1	2
676.722	1	-1
677.060	1	10
677.399	1	-3
677.738	1	-1
678.077	1	6
678.416	1	6
678.754	1	11
679.093	1	12
679.432	1	4
679.771	1	6
680.109	1	9
680.448	1	11
680.787	1	11
681.125	1	11
681.464	1	-10
681.803	1	-3
682.142	1	-5
682.480	1	19
682.819	1	0
683.158	1	3
683.496	1	-1
683.835	1	3
684.174	1	11
684.512	1	13
684.851	1	-2
685.190	1	2
685.529	1	-6
685.867	1	1
686.206	1	13
686.545	1	3
686.883	1	1
687.222	1	0
687.561	1	17
687.899	1	6
688.238	1	16
688.577	1	-2
688.746	1	11