File: Data/GaN_130K_350ms/GaN_sample F_spot6_UVVIS_130 K_200um_350 ms 2x2mm1_153.txt
340.368	1	-2
340.710	1	4
341.052	1	-9
341.394	1	4
341.737	1	7
342.079	1	0
342.421	1	12
342.763	1	7
343.105	1	4
343.447	1	3
343.789	1	1
344.131	1	8
344.473	1	3
344.815	1	0
345.157	1	-4
345.499	1	-2
345.841	1	-2
346.183	1	9
346.526	1	6
346.868	1	7
347.210	1	6
347.552	1	2
347.894	1	-3
348.236	1	1
348.578	1	6
348.920	1	1
349.262	1	9
349.604	1	6
349.946	1	8
350.288	1	-7
350.630	1	3
350.972	1	5
351.314	1	-5
351.656	1	16
351.998	1	3
352.340	1	11
352.682	1	6
353.024	1	9
353.366	1	15
353.708	1	-2
354.050	1	4
354.392	1	15
354.734	1	3
355.076	1	-2
355.418	1	8
355.760	1	4
356.102	1	0
356.444	1	-8
356.785	1	23
357.127	1	4
357.469	1	-1
357.811	1	5
358.153	1	6
358.495	1	13
358.837	1	6
359.179	1	4
359.521	1	3
359.863	1	15
360.205	1	12
360.547	1	6
360.889	1	2
361.231	1	7
361.572	1	14
361.914	1	16
362.256	1	12
362.598	1	20
362.940	1	9
363.282	1	27
363.624	1	18
363.966	1	31
364.308	1	24
364.649	1	27
364.991	1	29
365.333	1	26
365.675	1	20
366.017	1	31
366.359	1	36
366.701	1	24
367.042	1	39
367.384	1	41
367.726	1	31
368.068	1	36
368.410	1	32
368.752	1	36
369.093	1	28
369.435	1	24
369.777	1	27
370.119	1	40
370.461	1	37
370.803	1	21
371.144	1	32
371.486	1	23
371.828	1	30
372.170	1	17
372.512	1	27
372.853	1	19
373.195	1	15
373.537	1	25
373.879	1	25
374.220	1	10
374.562	1	11
374.904	1	13
375.246	1	33
375.588	1	20
375.929	1	14
376.271	1	27
376.613	1	10
376.955	1	20
377.296	1	9
377.638	1	8
377.980	1	6
378.321	1	8
378.663	1	21
379.005	1	22
379.347	1	4
379.688	1	3
380.030	1	13
380.372	1	25
380.714	1	29
381.055	1	18
381.397	1	13
381.739	1	20
382.080	1	3
382.422	1	19
382.764	1	8
383.105	1	11
383.447	1	1
383.789	1	9
384.130	1	15
384.472	1	11
384.814	1	6
385.156	1	14
385.497	1	7
385.839	1	8
386.180	1	9
386.522	1	7
386.864	1	17
387.205	1	2
387.547	1	11
387.889	1	-1
388.230	1	-2
388.572	1	19
388.914	1	8
389.255	1	10
389.597	1	-4
389.939	1	16
390.280	1	11
390.622	1	10
390.963	1	10
391.305	1	8
391.647	1	6
391.988	1	16
392.330	1	3
392.671	1	3
393.013	1	7
393.355	1	8
393.696	1	6
394.038	1	16
394.379	1	15
394.721	1	7
395.062	1	0
395.404	1	-4
395.746	1	21
396.087	1	15
396.429	1	6
396.770	1	10
397.112	1	9
397.453	1	9
397.795	1	0
398.136	1	13
398.478	1	1
398.819	1	-3
399.161	1	4
399.503	1	18
399.844	1	3
400.186	1	2
400.527	1	11
400.869	1	6
401.210	1	-6
401.552	1	15
401.893	1	-3
402.235	1	5
402.576	1	8
402.918	1	9
403.259	1	4
403.601	1	5
403.942	1	12
404.284	1	-5
404.625	1	18
404.967	1	7
405.308	1	15
405.649	1	16
405.991	1	7
406.332	1	4
406.674	1	11
407.015	1	8
407.357	1	8
407.698	1	6
408.040	1	6
408.381	1	16
408.722	1	12
409.064	1	18
409.405	1	7
409.747	1	4
410.088	1	19
410.430	1	13
410.771	1	-7
411.112	1	17
411.454	1	5
411.795	1	15
412.137	1	0
412.478	1	-2
412.819	1	9
413.161	1	15
413.502	1	26
413.844	1	10
414.185	1	9
414.526	1	10
414.868	1	-2
415.209	1	7
415.550	1	4
415.892	1	9
416.233	1	18
416.575	1	8
416.916	1	7
417.257	1	2
417.599	1	3
417.940	1	11
418.281	1	7
418.623	1	8
418.964	1	6
419.305	1	1
419.647	1	11
419.988	1	22
420.329	1	17
420.671	1	6
421.012	1	10
421.353	1	-2
421.695	1	5
422.036	1	9
422.377	1	11
422.718	1	3
423.060	1	10
423.401	1	10
423.742	1	13
424.084	1	11
424.425	1	4
424.766	1	2
425.107	1	7
425.449	1	12
425.790	1	11
426.131	1	18
426.472	1	-2
426.814	1	6
427.155	1	3
427.496	1	8
427.837	1	12
428.179	1	8
428.520	1	14
428.861	1	2
429.202	1	9
429.544	1	16
429.885	1	1
430.226	1	-5
430.567	1	8
430.909	1	7
431.250	1	20
431.591	1	-1
431.932	1	5
432.273	1	9
432.615	1	17
432.956	1	-2
433.297	1	9
433.638	1	7
433.979	1	11
434.320	1	13
434.662	1	5
435.003	1	12
435.344	1	11
435.685	1	3
436.026	1	12
436.368	1	7
436.709	1	4
437.050	1	3
437.391	1	18
437.732	1	8
438.073	1	12
438.414	1	-1
438.756	1	4
439.097	1	10
439.438	1	7
439.779	1	15
440.120	1	8
440.461	1	17
440.802	1	1
441.143	1	0
441.485	1	6
441.826	1	3
442.167	1	6
442.508	1	16
442.849	1	8
443.190	1	4
443.531	1	3
443.872	1	18
444.213	1	-3
444.554	1	5
444.895	1	5
445.237	1	-2
445.578	1	2
445.919	1	3
446.260	1	10
446.601	1	6
446.942	1	12
447.283	1	1
447.624	1	7
447.965	1	-4
448.306	1	8
448.647	1	22
448.988	1	2
449.329	1	4
449.670	1	2
450.011	1	2
450.352	1	14
450.693	1	5
451.034	1	3
451.375	1	-1
451.716	1	-5
452.057	1	17
452.398	1	-4
452.739	1	13
453.080	1	-2
453.421	1	3
453.762	1	11
454.103	1	0
454.444	1	7
454.785	1	8
455.126	1	-7
455.467	1	-4
455.808	1	17
456.149	1	-4
456.490	1	4
456.831	1	1
457.172	1	7
457.513	1	-11
457.854	1	2
458.195	1	-12
458.536	1	1
458.877	1	10
459.218	1	4
459.559	1	6
459.899	1	1
460.240	1	13
460.581	1	-7
460.922	1	3
461.263	1	8
461.604	1	-3
461.945	1	9
462.286	1	12
462.627	1	5
462.968	1	3
463.309	1	12
463.649	1	0
463.990	1	6
464.331	1	13
464.672	1	5
465.013	1	-1
465.354	1	14
465.695	1	9
466.036	1	1
466.376	1	12
466.717	1	-1
467.058	1	9
467.399	1	3
467.740	1	19
468.081	1	12
468.422	1	10
468.762	1	1
469.103	1	5
469.444	1	7
469.785	1	11
470.126	1	-6
470.467	1	5
470.807	1	6
471.148	1	-5
471.489	1	2
471.830	1	5
472.171	1	7
472.511	1	1
472.852	1	9
473.193	1	15
473.534	1	5
473.875	1	13
474.215	1	-3
474.556	1	0
474.897	1	-2
475.238	1	12
475.578	1	-1
475.919	1	-1
476.260	1	3
476.601	1	0
476.942	1	12
477.282	1	10
477.623	1	-4
477.964	1	8
478.305	1	17
478.645	1	-2
478.986	1	-4
479.327	1	3
479.667	1	11
480.008	1	-3
480.349	1	-6
480.690	1	4
481.030	1	2
481.371	1	7
481.712	1	11
482.053	1	12
482.393	1	7
482.734	1	7
483.075	1	13
483.415	1	3
483.756	1	3
484.097	1	7
484.437	1	2
484.778	1	8
485.119	1	9
485.459	1	-7
485.800	1	13
486.141	1	7
486.481	1	-3
486.822	1	12
487.163	1	-2
487.503	1	9
487.844	1	3
488.185	1	9
488.525	1	5
488.866	1	8
489.207	1	-3
489.547	1	3
489.888	1	17
490.228	1	0
490.569	1	9
490.910	1	-6
491.250	1	6
491.591	1	4
491.932	1	5
492.272	1	2
492.613	1	-2
492.953	1	9
493.294	1	11
493.635	1	9
493.975	1	17
494.316	1	17
494.656	1	3
494.997	1	6
495.337	1	-4
495.678	1	2
496.019	1	-3
496.359	1	13
496.700	1	5
497.040	1	19
497.381	1	9
497.721	1	2
498.062	1	0
498.403	1	2
498.743	1	7
499.084	1	16
499.424	1	-2
499.765	1	7
500.105	1	10
500.446	1	3
500.786	1	12
501.127	1	0
501.467	1	2
501.808	1	13
502.148	1	15
502.489	1	9
502.829	1	5
503.170	1	-1
503.510	1	9
503.851	1	-5
504.191	1	17
504.532	1	11
504.872	1	7
505.213	1	6
505.553	1	10
505.894	1	10
506.234	1	9
506.575	1	4
506.915	1	8
507.256	1	20
507.596	1	2
507.936	1	12
508.277	1	6
508.617	1	1
508.958	1	9
509.298	1	6
509.639	1	12
509.979	1	8
510.319	1	20
510.660	1	0
511.000	1	11
511.341	1	-1
511.681	1	15
512.022	1	14
512.362	1	16
512.702	1	10
513.043	1	14
513.383	1	14
513.724	1	5
514.064	1	-1
514.404	1	16
514.745	1	5
515.085	1	22
515.425	1	7
515.766	1	10
516.106	1	10
516.447	1	3
516.787	1	8
517.127	1	9
517.468	1	11
517.808	1	8
518.148	1	14
518.489	1	10
518.829	1	18
519.169	1	9
519.510	1	9
519.850	1	16
520.190	1	18
520.531	1	22
520.871	1	-5
521.211	1	16
521.552	1	13
521.892	1	16
522.232	1	0
522.573	1	6
522.913	1	16
523.253	1	20
523.593	1	18
523.934	1	8
524.274	1	7
524.614	1	8
524.955	1	13
525.295	1	10
525.635	1	2
525.975	1	18
526.316	1	15
526.656	1	19
526.996	1	10
527.337	1	23
527.677	1	7
528.017	1	13
528.357	1	15
528.698	1	7
529.038	1	8
529.378	1	16
529.718	1	17
530.058	1	11
530.399	1	6
530.739	1	8
531.079	1	11
531.419	1	19
531.760	1	10
532.100	1	10
532.440	1	17
532.780	1	8
533.120	1	24
533.461	1	8
533.801	1	30
534.141	1	15
534.481	1	15
534.821	1	23
535.162	1	18
535.502	1	9
535.842	1	24
536.182	1	17
536.522	1	11
536.862	1	6
537.203	1	7
537.543	1	20
537.883	1	15
538.223	1	16
538.563	1	18
538.903	1	11
539.243	1	15
539.584	1	14
539.924	1	4
540.264	1	11
540.604	1	19
540.944	1	11
541.284	1	10
541.624	1	15
541.964	1	-3
542.305	1	9
542.645	1	8
542.985	1	10
543.325	1	3
543.665	1	6
544.005	1	14
544.345	1	7
544.685	1	18
545.025	1	15
545.365	1	15
545.705	1	6
546.045	1	21
546.386	1	9
546.726	1	5
547.066	1	10
547.406	1	0
547.746	1	17
548.086	1	5
548.426	1	9
548.766	1	19
549.106	1	4
549.446	1	10
549.786	1	10
550.126	1	16
550.466	1	24
550.806	1	18
551.146	1	3
551.486	1	18
551.826	1	10
552.166	1	20
552.506	1	11
552.846	1	9
553.186	1	6
553.526	1	17
553.866	1	-6
554.206	1	2
554.546	1	16
554.886	1	4
555.226	1	7
555.566	1	12
555.906	1	3
556.246	1	5
556.586	1	10
556.926	1	14
557.266	1	8
557.606	1	5
557.946	1	10
558.286	1	19
558.626	1	-1
558.966	1	0
559.306	1	2
559.646	1	7
559.986	1	2
560.325	1	4
560.665	1	15
561.005	1	9
561.345	1	19
561.685	1	17
562.025	1	4
562.365	1	8
562.705	1	14
563.045	1	8
563.385	1	4
563.725	1	6
564.064	1	12
564.404	1	13
564.744	1	12
565.084	1	3
565.424	1	-1
565.764	1	12
566.104	1	11
566.444	1	19
566.783	1	12
567.123	1	10
567.463	1	10
567.803	1	11
568.143	1	14
568.483	1	9
568.823	1	-9
569.162	1	14
569.502	1	7
569.842	1	3
570.182	1	15
570.522	1	-3
570.862	1	20
571.201	1	1
571.541	1	6
571.881	1	0
572.221	1	11
572.561	1	10
572.900	1	6
573.240	1	-2
573.580	1	1
573.920	1	10
574.260	1	9
574.599	1	16
574.939	1	10
575.279	1	0
575.619	1	6
575.959	1	10
576.298	1	8
576.638	1	-9
576.978	1	6
577.318	1	-5
577.657	1	14
577.997	1	16
578.337	1	10
578.677	1	15
579.016	1	-1
579.356	1	11
579.696	1	5
580.036	1	2
580.375	1	1
580.715	1	7
581.055	1	2
581.394	1	2
581.734	1	12
582.074	1	6
582.414	1	2
582.753	1	-2
583.093	1	6
583.433	1	8
583.772	1	7
584.112	1	10
584.452	1	6
584.791	1	9
585.131	1	7
585.471	1	0
585.811	1	6
586.150	1	9
586.490	1	6
586.830	1	-13
587.169	1	5
587.509	1	6
587.849	1	6
588.188	1	5
588.528	1	9
588.867	1	7
589.207	1	2
589.547	1	2
589.886	1	8
590.226	1	12
590.566	1	3
590.905	1	10
591.245	1	-2
591.585	1	6
591.924	1	-3
592.264	1	1
592.603	1	2
592.943	1	12
593.283	1	-5
593.622	1	6
593.962	1	15
594.301	1	-1
594.641	1	13
594.981	1	0
595.320	1	11
595.660	1	6
595.999	1	4
596.339	1	6
596.678	1	-4
597.018	1	5
597.358	1	-1
597.697	1	3
598.037	1	2
598.376	1	6
598.716	1	9
599.055	1	8
599.395	1	0
599.734	1	8
600.074	1	2
600.413	1	12
600.753	1	6
601.092	1	3
601.432	1	-4
601.771	1	13
602.111	1	7
602.451	1	12
602.790	1	-3
603.130	1	8
603.469	1	-2
603.809	1	4
604.148	1	7
604.487	1	10
604.827	1	-6
605.166	1	11
605.506	1	4
605.845	1	5
606.185	1	8
606.524	1	9
606.864	1	11
607.203	1	0
607.543	1	14
607.882	1	6
608.222	1	-1
608.561	1	3
608.901	1	12
609.240	1	2
609.579	1	8
609.919	1	13
610.258	1	-2
610.598	1	10
610.937	1	8
611.277	1	-3
611.616	1	8
611.955	1	4
612.295	1	15
612.634	1	-1
612.974	1	-1
613.313	1	7
613.652	1	-4
613.992	1	8
614.331	1	4
614.671	1	7
615.010	1	4
615.349	1	1
615.689	1	5
616.028	1	7
616.368	1	1
616.707	1	13
617.046	1	7
617.386	1	4
617.725	1	5
618.064	1	-3
618.404	1	6
618.743	1	5
619.082	1	0
619.422	1	3
619.761	1	7
620.100	1	-2
620.440	1	4
620.779	1	5
621.118	1	0
621.458	1	9
621.797	1	3
622.136	1	6
622.476	1	8
622.815	1	7
623.154	1	5
623.494	1	-1
623.833	1	12
624.172	1	3
624.511	1	1
624.851	1	10
625.190	1	3
625.529	1	-7
625.869	1	5
626.208	1	-5
626.547	1	9
626.886	1	-3
627.226	1	-2
627.565	1	9
627.904	1	5
628.243	1	12
628.583	1	-8
628.922	1	-3
629.261	1	-10
629.600	1	10
629.940	1	12
630.279	1	12
630.618	1	4
630.957	1	7
631.297	1	2
631.636	1	11
631.975	1	4
632.314	1	-1
632.653	1	6
632.993	1	7
633.332	1	12
633.671	1	-1
634.010	1	0
634.349	1	-4
634.689	1	13
635.028	1	1
635.367	1	14
635.706	1	-1
636.045	1	12
636.384	1	2
636.724	1	6
637.063	1	12
637.402	1	-6
637.741	1	11
638.080	1	12
638.419	1	6
638.759	1	7
639.098	1	-7
639.437	1	8
639.776	1	7
640.115	1	8
640.454	1	2
640.793	1	-6
641.132	1	17
641.472	1	-2
641.811	1	-1
642.150	1	-10
642.489	1	-7
642.828	1	3
643.167	1	8
643.506	1	11
643.845	1	-3
644.184	1	6
644.524	1	1
644.863	1	-3
645.202	1	6
645.541	1	7
645.880	1	2
646.219	1	6
646.558	1	8
646.897	1	2
647.236	1	-4
647.575	1	3
647.914	1	6
648.253	1	7
648.592	1	-3
648.931	1	-5
649.270	1	9
649.610	1	-1
649.949	1	5
650.288	1	4
650.627	1	-3
650.966	1	0
651.305	1	1
651.644	1	4
651.983	1	-7
652.322	1	2
652.661	1	3
653.000	1	-3
653.339	1	3
653.678	1	-1
654.017	1	-6
654.356	1	6
654.695	1	1
655.034	1	2
655.373	1	0
655.712	1	4
656.051	1	6
656.390	1	4
656.729	1	-2
657.068	1	6
657.406	1	5
657.745	1	1
658.084	1	0
658.423	1	-3
658.762	1	17
659.101	1	3
659.440	1	3
659.779	1	8
660.118	1	-4
660.457	1	-6
660.796	1	3
661.135	1	10
661.474	1	3
661.813	1	-3
662.152	1	-1
662.491	1	17
662.829	1	1
663.168	1	-5
663.507	1	10
663.846	1	2
664.185	1	-6
664.524	1	-3
664.863	1	4
665.202	1	-4
665.541	1	-5
665.879	1	-2
666.218	1	-1
666.557	1	6
666.896	1	5
667.235	1	8
667.574	1	11
667.913	1	8
668.251	1	11
668.590	1	4
668.929	1	12
669.268	1	2
669.607	1	2
669.946	1	12
670.285	1	9
670.623	1	20
670.962	1	7
671.301	1	3
671.640	1	-8
671.979	1	3
672.317	1	1
672.656	1	-1
672.995	1	4
673.334	1	-1
673.673	1	13
674.011	1	1
674.350	1	4
674.689	1	2
675.028	1	13
675.367	1	0
675.705	1	20
676.044	1	2
676.383	1	6
676.722	1	-4
677.060	1	7
677.399	1	5
677.738	1	3
678.077	1	1
678.416	1	6
678.754	1	1
679.093	1	5
679.432	1	0
679.771	1	4
680.109	1	0
680.448	1	5
680.787	1	6
681.125	1	9
681.464	1	-2
681.803	1	3
682.142	1	-2
682.480	1	11
682.819	1	12
683.158	1	4
683.496	1	5
683.835	1	-6
684.174	1	12
684.512	1	11
684.851	1	2
685.190	1	8
685.529	1	-1
685.867	1	12
686.206	1	12
686.545	1	9
686.883	1	-8
687.222	1	3
687.561	1	13
687.899	1	3
688.238	1	13
688.577	1	-2
688.746	1	3