File: Data/GaN_130K_350ms/GaN_sample F_spot6_UVVIS_130 K_200um_350 ms 2x2mm1_136.txt
340.368	1	6
340.710	1	13
341.052	1	1
341.394	1	4
341.737	1	4
342.079	1	10
342.421	1	-1
342.763	1	9
343.105	1	7
343.447	1	2
343.789	1	-4
344.131	1	13
344.473	1	4
344.815	1	-7
345.157	1	-6
345.499	1	5
345.841	1	2
346.183	1	7
346.526	1	1
346.868	1	8
347.210	1	1
347.552	1	0
347.894	1	1
348.236	1	-1
348.578	1	-2
348.920	1	-4
349.262	1	15
349.604	1	0
349.946	1	4
350.288	1	-8
350.630	1	7
350.972	1	11
351.314	1	6
351.656	1	12
351.998	1	-1
352.340	1	13
352.682	1	1
353.024	1	3
353.366	1	9
353.708	1	-6
354.050	1	9
354.392	1	14
354.734	1	4
355.076	1	3
355.418	1	3
355.760	1	11
356.102	1	11
356.444	1	-1
356.785	1	16
357.127	1	16
357.469	1	2
357.811	1	10
358.153	1	5
358.495	1	10
358.837	1	18
359.179	1	10
359.521	1	8
359.863	1	6
360.205	1	8
360.547	1	12
360.889	1	13
361.231	1	15
361.572	1	20
361.914	1	19
362.256	1	5
362.598	1	14
362.940	1	15
363.282	1	29
363.624	1	31
363.966	1	51
364.308	1	31
364.649	1	48
364.991	1	41
365.333	1	31
365.675	1	36
366.017	1	38
366.359	1	43
366.701	1	43
367.042	1	49
367.384	1	64
367.726	1	49
368.068	1	38
368.410	1	45
368.752	1	56
369.093	1	47
369.435	1	43
369.777	1	40
370.119	1	46
370.461	1	47
370.803	1	36
371.144	1	45
371.486	1	39
371.828	1	45
372.170	1	30
372.512	1	46
372.853	1	35
373.195	1	28
373.537	1	26
373.879	1	41
374.220	1	21
374.562	1	28
374.904	1	33
375.246	1	30
375.588	1	13
375.929	1	30
376.271	1	26
376.613	1	17
376.955	1	18
377.296	1	12
377.638	1	12
377.980	1	19
378.321	1	23
378.663	1	15
379.005	1	23
379.347	1	3
379.688	1	20
380.030	1	15
380.372	1	20
380.714	1	16
381.055	1	15
381.397	1	14
381.739	1	11
382.080	1	6
382.422	1	23
382.764	1	10
383.105	1	17
383.447	1	4
383.789	1	13
384.130	1	20
384.472	1	14
384.814	1	4
385.156	1	10
385.497	1	10
385.839	1	11
386.180	1	21
386.522	1	12
386.864	1	20
387.205	1	6
387.547	1	20
387.889	1	5
388.230	1	14
388.572	1	23
388.914	1	5
389.255	1	18
389.597	1	0
389.939	1	20
390.280	1	19
390.622	1	7
390.963	1	13
391.305	1	19
391.647	1	3
391.988	1	10
392.330	1	0
392.671	1	5
393.013	1	17
393.355	1	14
393.696	1	5
394.038	1	13
394.379	1	9
394.721	1	10
395.062	1	4
395.404	1	-5
395.746	1	8
396.087	1	12
396.429	1	17
396.770	1	16
397.112	1	8
397.453	1	15
397.795	1	-2
398.136	1	15
398.478	1	9
398.819	1	-2
399.161	1	13
399.503	1	17
399.844	1	-3
400.186	1	1
400.527	1	12
400.869	1	10
401.210	1	1
401.552	1	10
401.893	1	4
402.235	1	14
402.576	1	11
402.918	1	14
403.259	1	0
403.601	1	2
403.942	1	6
404.284	1	5
404.625	1	19
404.967	1	10
405.308	1	5
405.649	1	13
405.991	1	4
406.332	1	18
406.674	1	18
407.015	1	8
407.357	1	6
407.698	1	11
408.040	1	7
408.381	1	23
408.722	1	15
409.064	1	1
409.405	1	13
409.747	1	7
410.088	1	18
410.430	1	12
410.771	1	-3
411.112	1	16
411.454	1	10
411.795	1	16
412.137	1	1
412.478	1	1
412.819	1	18
413.161	1	19
413.502	1	13
413.844	1	12
414.185	1	7
414.526	1	5
414.868	1	-1
415.209	1	11
415.550	1	4
415.892	1	1
416.233	1	12
416.575	1	9
416.916	1	-3
417.257	1	1
417.599	1	-2
417.940	1	10
418.281	1	16
418.623	1	13
418.964	1	-1
419.305	1	-5
419.647	1	14
419.988	1	16
420.329	1	20
420.671	1	4
421.012	1	13
421.353	1	7
421.695	1	4
422.036	1	6
422.377	1	11
422.718	1	0
423.060	1	9
423.401	1	9
423.742	1	6
424.084	1	5
424.425	1	10
424.766	1	11
425.107	1	10
425.449	1	19
425.790	1	12
426.131	1	17
426.472	1	10
426.814	1	14
427.155	1	-1
427.496	1	8
427.837	1	6
428.179	1	8
428.520	1	11
428.861	1	-4
429.202	1	8
429.544	1	11
429.885	1	10
430.226	1	5
430.567	1	12
430.909	1	13
431.250	1	13
431.591	1	0
431.932	1	-4
432.273	1	12
432.615	1	11
432.956	1	-3
433.297	1	11
433.638	1	11
433.979	1	11
434.320	1	11
434.662	1	2
435.003	1	14
435.344	1	8
435.685	1	-11
436.026	1	4
436.368	1	3
436.709	1	4
437.050	1	8
437.391	1	19
437.732	1	10
438.073	1	14
438.414	1	1
438.756	1	8
439.097	1	6
439.438	1	7
439.779	1	18
440.120	1	10
440.461	1	15
440.802	1	-1
441.143	1	1
441.485	1	5
441.826	1	-1
442.167	1	-2
442.508	1	9
442.849	1	7
443.190	1	7
443.531	1	6
443.872	1	16
444.213	1	2
444.554	1	0
444.895	1	9
445.237	1	4
445.578	1	-1
445.919	1	6
446.260	1	15
446.601	1	8
446.942	1	7
447.283	1	12
447.624	1	-2
447.965	1	17
448.306	1	12
448.647	1	18
448.988	1	4
449.329	1	7
449.670	1	2
450.011	1	3
450.352	1	18
450.693	1	4
451.034	1	6
451.375	1	11
451.716	1	4
452.057	1	18
452.398	1	0
452.739	1	4
453.080	1	9
453.421	1	11
453.762	1	10
454.103	1	-1
454.444	1	13
454.785	1	17
455.126	1	-15
455.467	1	-4
455.808	1	8
456.149	1	1
456.490	1	8
456.831	1	8
457.172	1	2
457.513	1	-5
457.854	1	10
458.195	1	2
458.536	1	11
458.877	1	23
459.218	1	6
459.559	1	6
459.899	1	1
460.240	1	16
460.581	1	2
460.922	1	0
461.263	1	10
461.604	1	-9
461.945	1	12
462.286	1	8
462.627	1	0
462.968	1	2
463.309	1	1
463.649	1	1
463.990	1	3
464.331	1	7
464.672	1	5
465.013	1	-8
465.354	1	3
465.695	1	6
466.036	1	4
466.376	1	4
466.717	1	6
467.058	1	8
467.399	1	4
467.740	1	16
468.081	1	6
468.422	1	8
468.762	1	0
469.103	1	-2
469.444	1	5
469.785	1	8
470.126	1	-10
470.467	1	2
470.807	1	0
471.148	1	-1
471.489	1	5
471.830	1	8
472.171	1	8
472.511	1	11
472.852	1	17
473.193	1	5
473.534	1	-2
473.875	1	8
474.215	1	6
474.556	1	5
474.897	1	2
475.238	1	19
475.578	1	8
475.919	1	-1
476.260	1	5
476.601	1	6
476.942	1	13
477.282	1	2
477.623	1	-6
477.964	1	1
478.305	1	20
478.645	1	3
478.986	1	2
479.327	1	2
479.667	1	7
480.008	1	7
480.349	1	0
480.690	1	2
481.030	1	5
481.371	1	12
481.712	1	12
482.053	1	12
482.393	1	5
482.734	1	3
483.075	1	19
483.415	1	4
483.756	1	5
484.097	1	-3
484.437	1	7
484.778	1	17
485.119	1	9
485.459	1	2
485.800	1	12
486.141	1	1
486.481	1	-1
486.822	1	12
487.163	1	0
487.503	1	-1
487.844	1	-7
488.185	1	7
488.525	1	0
488.866	1	0
489.207	1	7
489.547	1	3
489.888	1	14
490.228	1	14
490.569	1	11
490.910	1	5
491.250	1	16
491.591	1	2
491.932	1	5
492.272	1	-1
492.613	1	-3
492.953	1	6
493.294	1	16
493.635	1	6
493.975	1	15
494.316	1	8
494.656	1	5
494.997	1	4
495.337	1	5
495.678	1	9
496.019	1	-7
496.359	1	13
496.700	1	3
497.040	1	14
497.381	1	13
497.721	1	6
498.062	1	-4
498.403	1	-1
498.743	1	21
499.084	1	20
499.424	1	2
499.765	1	11
500.105	1	10
500.446	1	1
500.786	1	7
501.127	1	8
501.467	1	10
501.808	1	12
502.148	1	5
502.489	1	14
502.829	1	7
503.170	1	6
503.510	1	13
503.851	1	2
504.191	1	13
504.532	1	13
504.872	1	16
505.213	1	2
505.553	1	17
505.894	1	10
506.234	1	12
506.575	1	5
506.915	1	9
507.256	1	16
507.596	1	10
507.936	1	7
508.277	1	11
508.617	1	7
508.958	1	17
509.298	1	10
509.639	1	17
509.979	1	9
510.319	1	28
510.660	1	11
511.000	1	15
511.341	1	16
511.681	1	16
512.022	1	18
512.362	1	9
512.702	1	20
513.043	1	7
513.383	1	14
513.724	1	11
514.064	1	4
514.404	1	23
514.745	1	6
515.085	1	32
515.425	1	14
515.766	1	18
516.106	1	10
516.447	1	16
516.787	1	15
517.127	1	28
517.468	1	12
517.808	1	20
518.148	1	20
518.489	1	16
518.829	1	22
519.169	1	19
519.510	1	11
519.850	1	26
520.190	1	22
520.531	1	17
520.871	1	6
521.211	1	19
521.552	1	20
521.892	1	17
522.232	1	13
522.573	1	9
522.913	1	28
523.253	1	24
523.593	1	31
523.934	1	15
524.274	1	11
524.614	1	29
524.955	1	23
525.295	1	24
525.635	1	7
525.975	1	27
526.316	1	13
526.656	1	17
526.996	1	9
527.337	1	19
527.677	1	1
528.017	1	21
528.357	1	24
528.698	1	6
529.038	1	9
529.378	1	21
529.718	1	22
530.058	1	14
530.399	1	17
530.739	1	17
531.079	1	18
531.419	1	23
531.760	1	19
532.100	1	26
532.440	1	22
532.780	1	18
533.120	1	15
533.461	1	19
533.801	1	27
534.141	1	20
534.481	1	14
534.821	1	23
535.162	1	14
535.502	1	13
535.842	1	21
536.182	1	22
536.522	1	10
536.862	1	13
537.203	1	15
537.543	1	19
537.883	1	13
538.223	1	14
538.563	1	16
538.903	1	30
539.243	1	17
539.584	1	23
539.924	1	17
540.264	1	5
540.604	1	25
540.944	1	21
541.284	1	15
541.624	1	21
541.964	1	9
542.305	1	14
542.645	1	11
542.985	1	20
543.325	1	15
543.665	1	27
544.005	1	26
544.345	1	16
544.685	1	10
545.025	1	17
545.365	1	22
545.705	1	10
546.045	1	13
546.386	1	20
546.726	1	4
547.066	1	17
547.406	1	0
547.746	1	12
548.086	1	4
548.426	1	26
548.766	1	24
549.106	1	7
549.446	1	9
549.786	1	13
550.126	1	21
550.466	1	18
550.806	1	18
551.146	1	8
551.486	1	13
551.826	1	6
552.166	1	16
552.506	1	18
552.846	1	11
553.186	1	11
553.526	1	14
553.866	1	5
554.206	1	8
554.546	1	6
554.886	1	11
555.226	1	13
555.566	1	11
555.906	1	17
556.246	1	23
556.586	1	16
556.926	1	13
557.266	1	12
557.606	1	13
557.946	1	10
558.286	1	19
558.626	1	2
558.966	1	3
559.306	1	9
559.646	1	18
559.986	1	16
560.325	1	13
560.665	1	14
561.005	1	8
561.345	1	21
561.685	1	13
562.025	1	4
562.365	1	11
562.705	1	18
563.045	1	10
563.385	1	11
563.725	1	8
564.064	1	27
564.404	1	10
564.744	1	13
565.084	1	5
565.424	1	-2
565.764	1	15
566.104	1	7
566.444	1	12
566.783	1	21
567.123	1	3
567.463	1	10
567.803	1	15
568.143	1	9
568.483	1	3
568.823	1	6
569.162	1	17
569.502	1	8
569.842	1	8
570.182	1	11
570.522	1	-12
570.862	1	23
571.201	1	11
571.541	1	8
571.881	1	18
572.221	1	10
572.561	1	9
572.900	1	8
573.240	1	4
573.580	1	10
573.920	1	15
574.260	1	8
574.599	1	16
574.939	1	9
575.279	1	0
575.619	1	9
575.959	1	5
576.298	1	13
576.638	1	-1
576.978	1	-8
577.318	1	11
577.657	1	14
577.997	1	13
578.337	1	6
578.677	1	15
579.016	1	8
579.356	1	18
579.696	1	1
580.036	1	2
580.375	1	10
580.715	1	7
581.055	1	10
581.394	1	14
581.734	1	16
582.074	1	-1
582.414	1	6
582.753	1	4
583.093	1	15
583.433	1	9
583.772	1	2
584.112	1	13
584.452	1	21
584.791	1	12
585.131	1	19
585.471	1	-4
585.811	1	7
586.150	1	5
586.490	1	15
586.830	1	5
587.169	1	12
587.509	1	10
587.849	1	9
588.188	1	21
588.528	1	15
588.867	1	6
589.207	1	1
589.547	1	6
589.886	1	6
590.226	1	12
590.566	1	5
590.905	1	16
591.245	1	2
591.585	1	5
591.924	1	1
592.264	1	-2
592.603	1	12
592.943	1	-1
593.283	1	5
593.622	1	11
593.962	1	14
594.301	1	-8
594.641	1	8
594.981	1	-1
595.320	1	18
595.660	1	-1
595.999	1	16
596.339	1	8
596.678	1	7
597.018	1	6
597.358	1	9
597.697	1	5
598.037	1	2
598.376	1	0
598.716	1	13
599.055	1	1
599.395	1	5
599.734	1	3
600.074	1	5
600.413	1	13
600.753	1	3
601.092	1	8
601.432	1	-10
601.771	1	12
602.111	1	0
602.451	1	3
602.790	1	1
603.130	1	9
603.469	1	17
603.809	1	1
604.148	1	11
604.487	1	8
604.827	1	-4
605.166	1	9
605.506	1	13
605.845	1	2
606.185	1	15
606.524	1	6
606.864	1	9
607.203	1	5
607.543	1	-4
607.882	1	19
608.222	1	-3
608.561	1	0
608.901	1	11
609.240	1	2
609.579	1	7
609.919	1	4
610.258	1	2
610.598	1	2
610.937	1	15
611.277	1	18
611.616	1	-2
611.955	1	1
612.295	1	11
612.634	1	3
612.974	1	17
613.313	1	1
613.652	1	-2
613.992	1	0
614.331	1	13
614.671	1	10
615.010	1	-2
615.349	1	3
615.689	1	10
616.028	1	13
616.368	1	9
616.707	1	13
617.046	1	14
617.386	1	-1
617.725	1	5
618.064	1	7
618.404	1	4
618.743	1	5
619.082	1	11
619.422	1	1
619.761	1	4
620.100	1	6
620.440	1	3
620.779	1	8
621.118	1	8
621.458	1	6
621.797	1	6
622.136	1	7
622.476	1	13
622.815	1	2
623.154	1	0
623.494	1	15
623.833	1	15
624.172	1	-5
624.511	1	3
624.851	1	2
625.190	1	0
625.529	1	8
625.869	1	5
626.208	1	-2
626.547	1	8
626.886	1	9
627.226	1	0
627.565	1	1
627.904	1	12
628.243	1	15
628.583	1	-14
628.922	1	11
629.261	1	-14
629.600	1	6
629.940	1	11
630.279	1	10
630.618	1	-1
630.957	1	8
631.297	1	4
631.636	1	9
631.975	1	8
632.314	1	2
632.653	1	-1
632.993	1	22
633.332	1	8
633.671	1	0
634.010	1	-5
634.349	1	18
634.689	1	14
635.028	1	9
635.367	1	4
635.706	1	-1
636.045	1	11
636.384	1	4
636.724	1	4
637.063	1	1
637.402	1	3
637.741	1	17
638.080	1	14
638.419	1	2
638.759	1	12
639.098	1	6
639.437	1	9
639.776	1	1
640.115	1	10
640.454	1	-1
640.793	1	-6
641.132	1	10
641.472	1	1
641.811	1	4
642.150	1	-3
642.489	1	4
642.828	1	8
643.167	1	5
643.506	1	11
643.845	1	6
644.184	1	-2
644.524	1	-3
644.863	1	-2
645.202	1	9
645.541	1	3
645.880	1	5
646.219	1	-5
646.558	1	9
646.897	1	4
647.236	1	-1
647.575	1	-10
647.914	1	3
648.253	1	1
648.592	1	1
648.931	1	-3
649.270	1	-5
649.610	1	8
649.949	1	13
650.288	1	2
650.627	1	4
650.966	1	6
651.305	1	8
651.644	1	0
651.983	1	-10
652.322	1	6
652.661	1	-1
653.000	1	6
653.339	1	10
653.678	1	-6
654.017	1	-1
654.356	1	5
654.695	1	-2
655.034	1	1
655.373	1	-3
655.712	1	-3
656.051	1	0
656.390	1	1
656.729	1	3
657.068	1	-1
657.406	1	2
657.745	1	4
658.084	1	-6
658.423	1	13
658.762	1	14
659.101	1	11
659.440	1	-2
659.779	1	0
660.118	1	-1
660.457	1	5
660.796	1	9
661.135	1	9
661.474	1	11
661.813	1	0
662.152	1	-6
662.491	1	19
662.829	1	12
663.168	1	-3
663.507	1	3
663.846	1	-1
664.185	1	-5
664.524	1	5
664.863	1	-1
665.202	1	-4
665.541	1	-3
665.879	1	9
666.218	1	3
666.557	1	6
666.896	1	7
667.235	1	6
667.574	1	7
667.913	1	7
668.251	1	11
668.590	1	-2
668.929	1	14
669.268	1	-8
669.607	1	6
669.946	1	1
670.285	1	2
670.623	1	16
670.962	1	-3
671.301	1	-5
671.640	1	-6
671.979	1	-1
672.317	1	-3
672.656	1	-4
672.995	1	6
673.334	1	-3
673.673	1	16
674.011	1	3
674.350	1	3
674.689	1	12
675.028	1	17
675.367	1	-2
675.705	1	10
676.044	1	4
676.383	1	15
676.722	1	0
677.060	1	6
677.399	1	9
677.738	1	-8
678.077	1	7
678.416	1	1
678.754	1	3
679.093	1	0
679.432	1	-1
679.771	1	10
680.109	1	7
680.448	1	11
680.787	1	10
681.125	1	12
681.464	1	-6
681.803	1	-1
682.142	1	-3
682.480	1	12
682.819	1	5
683.158	1	0
683.496	1	-6
683.835	1	2
684.174	1	8
684.512	1	17
684.851	1	-12
685.190	1	9
685.529	1	-6
685.867	1	7
686.206	1	1
686.545	1	2
686.883	1	-12
687.222	1	6
687.561	1	10
687.899	1	0
688.238	1	9
688.577	1	6
688.746	1	12