File: Data/GaN_130K_350ms/GaN_sample F_spot6_UVVIS_130 K_200um_350 ms 2x2mm1_240.txt
340.368	1	8
340.710	1	9
341.052	1	-7
341.394	1	0
341.737	1	-1
342.079	1	6
342.421	1	8
342.763	1	6
343.105	1	5
343.447	1	8
343.789	1	5
344.131	1	3
344.473	1	6
344.815	1	-9
345.157	1	-9
345.499	1	-4
345.841	1	2
346.183	1	4
346.526	1	7
346.868	1	-4
347.210	1	-2
347.552	1	3
347.894	1	2
348.236	1	10
348.578	1	1
348.920	1	4
349.262	1	12
349.604	1	9
349.946	1	10
350.288	1	5
350.630	1	9
350.972	1	8
351.314	1	2
351.656	1	10
351.998	1	-1
352.340	1	20
352.682	1	0
353.024	1	-2
353.366	1	11
353.708	1	5
354.050	1	5
354.392	1	8
354.734	1	-2
355.076	1	2
355.418	1	12
355.760	1	5
356.102	1	-3
356.444	1	-5
356.785	1	9
357.127	1	4
357.469	1	0
357.811	1	7
358.153	1	-1
358.495	1	11
358.837	1	8
359.179	1	11
359.521	1	6
359.863	1	8
360.205	1	-7
360.547	1	4
360.889	1	5
361.231	1	3
361.572	1	11
361.914	1	11
362.256	1	0
362.598	1	0
362.940	1	-4
363.282	1	10
363.624	1	12
363.966	1	14
364.308	1	13
364.649	1	8
364.991	1	9
365.333	1	11
365.675	1	14
366.017	1	17
366.359	1	7
366.701	1	10
367.042	1	12
367.384	1	17
367.726	1	17
368.068	1	7
368.410	1	8
368.752	1	20
369.093	1	16
369.435	1	11
369.777	1	7
370.119	1	15
370.461	1	5
370.803	1	12
371.144	1	1
371.486	1	15
371.828	1	10
372.170	1	19
372.512	1	12
372.853	1	9
373.195	1	16
373.537	1	11
373.879	1	11
374.220	1	8
374.562	1	4
374.904	1	17
375.246	1	12
375.588	1	1
375.929	1	4
376.271	1	9
376.613	1	5
376.955	1	6
377.296	1	15
377.638	1	-5
377.980	1	-2
378.321	1	4
378.663	1	7
379.005	1	12
379.347	1	-7
379.688	1	10
380.030	1	-5
380.372	1	9
380.714	1	16
381.055	1	2
381.397	1	4
381.739	1	2
382.080	1	-3
382.422	1	19
382.764	1	4
383.105	1	5
383.447	1	2
383.789	1	11
384.130	1	9
384.472	1	16
384.814	1	3
385.156	1	6
385.497	1	10
385.839	1	3
386.180	1	9
386.522	1	1
386.864	1	13
387.205	1	1
387.547	1	9
387.889	1	-12
388.230	1	0
388.572	1	7
388.914	1	-1
389.255	1	-3
389.597	1	-3
389.939	1	10
390.280	1	10
390.622	1	8
390.963	1	14
391.305	1	8
391.647	1	7
391.988	1	9
392.330	1	2
392.671	1	-11
393.013	1	8
393.355	1	7
393.696	1	11
394.038	1	16
394.379	1	0
394.721	1	-2
395.062	1	-1
395.404	1	-8
395.746	1	6
396.087	1	7
396.429	1	4
396.770	1	3
397.112	1	9
397.453	1	16
397.795	1	-5
398.136	1	3
398.478	1	11
398.819	1	-4
399.161	1	6
399.503	1	8
399.844	1	-6
400.186	1	0
400.527	1	8
400.869	1	-2
401.210	1	-3
401.552	1	8
401.893	1	-4
402.235	1	2
402.576	1	3
402.918	1	12
403.259	1	-8
403.601	1	7
403.942	1	4
404.284	1	-1
404.625	1	8
404.967	1	3
405.308	1	8
405.649	1	1
405.991	1	2
406.332	1	8
406.674	1	16
407.015	1	7
407.357	1	-4
407.698	1	7
408.040	1	16
408.381	1	12
408.722	1	7
409.064	1	13
409.405	1	10
409.747	1	5
410.088	1	12
410.430	1	14
410.771	1	-12
411.112	1	17
411.454	1	1
411.795	1	5
412.137	1	-10
412.478	1	6
412.819	1	7
413.161	1	18
413.502	1	7
413.844	1	7
414.185	1	9
414.526	1	1
414.868	1	1
415.209	1	4
415.550	1	4
415.892	1	4
416.233	1	9
416.575	1	11
416.916	1	3
417.257	1	5
417.599	1	-4
417.940	1	8
418.281	1	0
418.623	1	9
418.964	1	3
419.305	1	5
419.647	1	1
419.988	1	12
420.329	1	11
420.671	1	-10
421.012	1	3
421.353	1	3
421.695	1	2
422.036	1	6
422.377	1	10
422.718	1	14
423.060	1	12
423.401	1	-1
423.742	1	5
424.084	1	12
424.425	1	6
424.766	1	5
425.107	1	4
425.449	1	6
425.790	1	13
426.131	1	11
426.472	1	6
426.814	1	3
427.155	1	3
427.496	1	7
427.837	1	6
428.179	1	-2
428.520	1	8
428.861	1	8
429.202	1	2
429.544	1	8
429.885	1	8
430.226	1	4
430.567	1	14
430.909	1	7
431.250	1	7
431.591	1	3
431.932	1	0
432.273	1	4
432.615	1	10
432.956	1	-1
433.297	1	15
433.638	1	8
433.979	1	8
434.320	1	4
434.662	1	7
435.003	1	11
435.344	1	7
435.685	1	-2
436.026	1	8
436.368	1	6
436.709	1	-1
437.050	1	14
437.391	1	15
437.732	1	3
438.073	1	9
438.414	1	-1
438.756	1	10
439.097	1	11
439.438	1	9
439.779	1	12
440.120	1	7
440.461	1	12
440.802	1	1
441.143	1	-5
441.485	1	7
441.826	1	3
442.167	1	5
442.508	1	5
442.849	1	9
443.190	1	5
443.531	1	6
443.872	1	9
444.213	1	6
444.554	1	-2
444.895	1	-1
445.237	1	-9
445.578	1	3
445.919	1	7
446.260	1	4
446.601	1	1
446.942	1	3
447.283	1	13
447.624	1	2
447.965	1	-4
448.306	1	10
448.647	1	17
448.988	1	10
449.329	1	-1
449.670	1	3
450.011	1	-6
450.352	1	5
450.693	1	6
451.034	1	4
451.375	1	7
451.716	1	-8
452.057	1	17
452.398	1	-5
452.739	1	7
453.080	1	4
453.421	1	11
453.762	1	1
454.103	1	5
454.444	1	5
454.785	1	20
455.126	1	-1
455.467	1	5
455.808	1	8
456.149	1	0
456.490	1	10
456.831	1	-5
457.172	1	9
457.513	1	-2
457.854	1	7
458.195	1	2
458.536	1	13
458.877	1	19
459.218	1	3
459.559	1	-1
459.899	1	0
460.240	1	18
460.581	1	-3
460.922	1	4
461.263	1	5
461.604	1	-6
461.945	1	3
462.286	1	6
462.627	1	4
462.968	1	7
463.309	1	2
463.649	1	-1
463.990	1	-2
464.331	1	12
464.672	1	-1
465.013	1	-8
465.354	1	-4
465.695	1	6
466.036	1	0
466.376	1	5
466.717	1	8
467.058	1	6
467.399	1	-1
467.740	1	13
468.081	1	18
468.422	1	1
468.762	1	4
469.103	1	3
469.444	1	3
469.785	1	4
470.126	1	-8
470.467	1	-2
470.807	1	13
471.148	1	2
471.489	1	-6
471.830	1	1
472.171	1	4
472.511	1	3
472.852	1	10
473.193	1	2
473.534	1	7
473.875	1	8
474.215	1	-1
474.556	1	7
474.897	1	-13
475.238	1	11
475.578	1	-3
475.919	1	-3
476.260	1	12
476.601	1	4
476.942	1	3
477.282	1	10
477.623	1	-1
477.964	1	-2
478.305	1	15
478.645	1	0
478.986	1	6
479.327	1	6
479.667	1	9
480.008	1	6
480.349	1	0
480.690	1	9
481.030	1	15
481.371	1	6
481.712	1	3
482.053	1	-3
482.393	1	11
482.734	1	9
483.075	1	14
483.415	1	2
483.756	1	-8
484.097	1	2
484.437	1	-2
484.778	1	13
485.119	1	8
485.459	1	-7
485.800	1	3
486.141	1	3
486.481	1	-8
486.822	1	11
487.163	1	3
487.503	1	-3
487.844	1	-9
488.185	1	-1
488.525	1	2
488.866	1	5
489.207	1	2
489.547	1	1
489.888	1	9
490.228	1	3
490.569	1	9
490.910	1	-1
491.250	1	7
491.591	1	-3
491.932	1	6
492.272	1	-7
492.613	1	-2
492.953	1	-4
493.294	1	2
493.635	1	8
493.975	1	17
494.316	1	8
494.656	1	4
494.997	1	1
495.337	1	8
495.678	1	-3
496.019	1	-1
496.359	1	4
496.700	1	5
497.040	1	9
497.381	1	1
497.721	1	3
498.062	1	-4
498.403	1	0
498.743	1	5
499.084	1	9
499.424	1	-5
499.765	1	-1
500.105	1	4
500.446	1	13
500.786	1	4
501.127	1	-12
501.467	1	-1
501.808	1	1
502.148	1	4
502.489	1	5
502.829	1	4
503.170	1	-1
503.510	1	13
503.851	1	5
504.191	1	4
504.532	1	10
504.872	1	7
505.213	1	14
505.553	1	3
505.894	1	3
506.234	1	6
506.575	1	5
506.915	1	-3
507.256	1	2
507.596	1	9
507.936	1	-4
508.277	1	9
508.617	1	-7
508.958	1	11
509.298	1	5
509.639	1	3
509.979	1	0
510.319	1	13
510.660	1	-8
511.000	1	14
511.341	1	-1
511.681	1	2
512.022	1	3
512.362	1	3
512.702	1	11
513.043	1	3
513.383	1	8
513.724	1	-6
514.064	1	-2
514.404	1	12
514.745	1	8
515.085	1	8
515.425	1	2
515.766	1	3
516.106	1	8
516.447	1	4
516.787	1	0
517.127	1	8
517.468	1	8
517.808	1	6
518.148	1	-1
518.489	1	18
518.829	1	8
519.169	1	12
519.510	1	-3
519.850	1	8
520.190	1	14
520.531	1	7
520.871	1	-7
521.211	1	8
521.552	1	0
521.892	1	6
522.232	1	3
522.573	1	6
522.913	1	18
523.253	1	1
523.593	1	4
523.934	1	-2
524.274	1	0
524.614	1	12
524.955	1	12
525.295	1	3
525.635	1	4
525.975	1	20
526.316	1	6
526.656	1	10
526.996	1	2
527.337	1	11
527.677	1	-5
528.017	1	-2
528.357	1	8
528.698	1	1
529.038	1	-2
529.378	1	8
529.718	1	14
530.058	1	-2
530.399	1	3
530.739	1	11
531.079	1	3
531.419	1	3
531.760	1	0
532.100	1	14
532.440	1	2
532.780	1	0
533.120	1	9
533.461	1	6
533.801	1	17
534.141	1	2
534.481	1	5
534.821	1	21
535.162	1	6
535.502	1	6
535.842	1	12
536.182	1	6
536.522	1	2
536.862	1	5
537.203	1	3
537.543	1	7
537.883	1	-2
538.223	1	9
538.563	1	7
538.903	1	20
539.243	1	6
539.584	1	8
539.924	1	5
540.264	1	5
540.604	1	12
540.944	1	5
541.284	1	11
541.624	1	11
541.964	1	-3
542.305	1	4
542.645	1	0
542.985	1	9
543.325	1	3
543.665	1	7
544.005	1	15
544.345	1	11
544.685	1	7
545.025	1	-6
545.365	1	5
545.705	1	8
546.045	1	4
546.386	1	7
546.726	1	-3
547.066	1	4
547.406	1	-7
547.746	1	10
548.086	1	-5
548.426	1	9
548.766	1	16
549.106	1	-5
549.446	1	1
549.786	1	3
550.126	1	8
550.466	1	11
550.806	1	6
551.146	1	4
551.486	1	3
551.826	1	10
552.166	1	2
552.506	1	7
552.846	1	-5
553.186	1	8
553.526	1	-2
553.866	1	-7
554.206	1	-3
554.546	1	7
554.886	1	-1
555.226	1	5
555.566	1	-1
555.906	1	12
556.246	1	2
556.586	1	9
556.926	1	6
557.266	1	5
557.606	1	-1
557.946	1	1
558.286	1	7
558.626	1	-2
558.966	1	0
559.306	1	9
559.646	1	-1
559.986	1	8
560.325	1	-5
560.665	1	9
561.005	1	7
561.345	1	3
561.685	1	5
562.025	1	6
562.365	1	15
562.705	1	0
563.045	1	-11
563.385	1	9
563.725	1	10
564.064	1	5
564.404	1	5
564.744	1	4
565.084	1	6
565.424	1	-6
565.764	1	7
566.104	1	6
566.444	1	13
566.783	1	5
567.123	1	5
567.463	1	9
567.803	1	5
568.143	1	10
568.483	1	4
568.823	1	-5
569.162	1	14
569.502	1	-5
569.842	1	-9
570.182	1	-6
570.522	1	-21
570.862	1	18
571.201	1	1
571.541	1	0
571.881	1	-1
572.221	1	5
572.561	1	5
572.900	1	7
573.240	1	-3
573.580	1	2
573.920	1	14
574.260	1	3
574.599	1	11
574.939	1	12
575.279	1	-5
575.619	1	10
575.959	1	-1
576.298	1	-1
576.638	1	0
576.978	1	-10
577.318	1	7
577.657	1	3
577.997	1	11
578.337	1	2
578.677	1	16
579.016	1	9
579.356	1	4
579.696	1	-7
580.036	1	3
580.375	1	1
580.715	1	12
581.055	1	-4
581.394	1	-2
581.734	1	7
582.074	1	-3
582.414	1	-1
582.753	1	6
583.093	1	0
583.433	1	8
583.772	1	5
584.112	1	8
584.452	1	11
584.791	1	4
585.131	1	5
585.471	1	1
585.811	1	7
586.150	1	11
586.490	1	6
586.830	1	-8
587.169	1	9
587.509	1	11
587.849	1	9
588.188	1	4
588.528	1	4
588.867	1	2
589.207	1	-2
589.547	1	3
589.886	1	1
590.226	1	18
590.566	1	-4
590.905	1	11
591.245	1	-3
591.585	1	8
591.924	1	-2
592.264	1	10
592.603	1	1
592.943	1	6
593.283	1	-5
593.622	1	2
593.962	1	7
594.301	1	-6
594.641	1	11
594.981	1	-10
595.320	1	1
595.660	1	3
595.999	1	12
596.339	1	11
596.678	1	0
597.018	1	3
597.358	1	1
597.697	1	1
598.037	1	-1
598.376	1	0
598.716	1	3
599.055	1	0
599.395	1	-5
599.734	1	-1
600.074	1	-1
600.413	1	9
600.753	1	1
601.092	1	4
601.432	1	-3
601.771	1	8
602.111	1	0
602.451	1	10
602.790	1	7
603.130	1	3
603.469	1	3
603.809	1	5
604.148	1	8
604.487	1	9
604.827	1	4
605.166	1	5
605.506	1	3
605.845	1	-1
606.185	1	10
606.524	1	-1
606.864	1	9
607.203	1	-5
607.543	1	5
607.882	1	14
608.222	1	-5
608.561	1	7
608.901	1	10
609.240	1	-5
609.579	1	12
609.919	1	8
610.258	1	2
610.598	1	0
610.937	1	12
611.277	1	10
611.616	1	-9
611.955	1	-11
612.295	1	15
612.634	1	3
612.974	1	14
613.313	1	-1
613.652	1	0
613.992	1	-6
614.331	1	10
614.671	1	2
615.010	1	2
615.349	1	8
615.689	1	11
616.028	1	10
616.368	1	2
616.707	1	16
617.046	1	7
617.386	1	7
617.725	1	4
618.064	1	2
618.404	1	-5
618.743	1	3
619.082	1	4
619.422	1	2
619.761	1	11
620.100	1	-3
620.440	1	9
620.779	1	4
621.118	1	-1
621.458	1	13
621.797	1	7
622.136	1	9
622.476	1	10
622.815	1	0
623.154	1	-7
623.494	1	7
623.833	1	9
624.172	1	8
624.511	1	0
624.851	1	-2
625.190	1	0
625.529	1	-2
625.869	1	3
626.208	1	2
626.547	1	-4
626.886	1	0
627.226	1	-2
627.565	1	-6
627.904	1	9
628.243	1	9
628.583	1	-6
628.922	1	-1
629.261	1	-6
629.600	1	7
629.940	1	5
630.279	1	4
630.618	1	7
630.957	1	3
631.297	1	8
631.636	1	9
631.975	1	2
632.314	1	9
632.653	1	-4
632.993	1	18
633.332	1	-2
633.671	1	-8
634.010	1	-8
634.349	1	-1
634.689	1	10
635.028	1	6
635.367	1	3
635.706	1	-1
636.045	1	17
636.384	1	5
636.724	1	10
637.063	1	12
637.402	1	-1
637.741	1	8
638.080	1	19
638.419	1	7
638.759	1	0
639.098	1	-6
639.437	1	14
639.776	1	1
640.115	1	0
640.454	1	12
640.793	1	-7
641.132	1	13
641.472	1	2
641.811	1	1
642.150	1	-6
642.489	1	-6
642.828	1	3
643.167	1	1
643.506	1	14
643.845	1	-4
644.184	1	-2
644.524	1	1
644.863	1	2
645.202	1	15
645.541	1	6
645.880	1	11
646.219	1	-4
646.558	1	-1
646.897	1	-4
647.236	1	-2
647.575	1	-4
647.914	1	-6
648.253	1	5
648.592	1	1
648.931	1	-1
649.270	1	-5
649.610	1	1
649.949	1	13
650.288	1	17
650.627	1	9
650.966	1	7
651.305	1	-4
651.644	1	9
651.983	1	-6
652.322	1	-6
652.661	1	-2
653.000	1	3
653.339	1	1
653.678	1	1
654.017	1	-6
654.356	1	6
654.695	1	-5
655.034	1	7
655.373	1	5
655.712	1	9
656.051	1	-5
656.390	1	-2
656.729	1	14
657.068	1	-7
657.406	1	0
657.745	1	0
658.084	1	7
658.423	1	9
658.762	1	16
659.101	1	10
659.440	1	-8
659.779	1	0
660.118	1	1
660.457	1	-5
660.796	1	9
661.135	1	20
661.474	1	3
661.813	1	-9
662.152	1	2
662.491	1	17
662.829	1	10
663.168	1	0
663.507	1	5
663.846	1	-6
664.185	1	-2
664.524	1	-3
664.863	1	0
665.202	1	-5
665.541	1	-5
665.879	1	9
666.218	1	12
666.557	1	9
666.896	1	8
667.235	1	7
667.574	1	20
667.913	1	9
668.251	1	7
668.590	1	-3
668.929	1	7
669.268	1	-5
669.607	1	3
669.946	1	9
670.285	1	2
670.623	1	10
670.962	1	-6
671.301	1	-1
671.640	1	-2
671.979	1	6
672.317	1	0
672.656	1	-2
672.995	1	5
673.334	1	0
673.673	1	8
674.011	1	2
674.350	1	0
674.689	1	6
675.028	1	9
675.367	1	1
675.705	1	6
676.044	1	-2
676.383	1	-10
676.722	1	-1
677.060	1	12
677.399	1	-3
677.738	1	-8
678.077	1	-1
678.416	1	5
678.754	1	1
679.093	1	1
679.432	1	-1
679.771	1	6
680.109	1	-5
680.448	1	9
680.787	1	3
681.125	1	10
681.464	1	0
681.803	1	4
682.142	1	-4
682.480	1	20
682.819	1	1
683.158	1	-1
683.496	1	-1
683.835	1	-1
684.174	1	11
684.512	1	7
684.851	1	-10
685.190	1	2
685.529	1	-9
685.867	1	6
686.206	1	13
686.545	1	1
686.883	1	5
687.222	1	-7
687.561	1	17
687.899	1	7
688.238	1	5
688.577	1	-5
688.746	1	9