File: Data/GaN_130K_350ms/GaN_sample F_spot6_UVVIS_130 K_200um_350 ms 2x2mm1_25.txt
340.368	1	-1
340.710	1	7
341.052	1	-7
341.394	1	-1
341.737	1	2
342.079	1	-4
342.421	1	1
342.763	1	2
343.105	1	-1
343.447	1	4
343.789	1	8
344.131	1	-1
344.473	1	4
344.815	1	-1
345.157	1	-10
345.499	1	5
345.841	1	2
346.183	1	5
346.526	1	-3
346.868	1	5
347.210	1	2
347.552	1	4
347.894	1	0
348.236	1	4
348.578	1	0
348.920	1	2
349.262	1	-6
349.604	1	8
349.946	1	0
350.288	1	-3
350.630	1	2
350.972	1	4
351.314	1	-4
351.656	1	15
351.998	1	3
352.340	1	6
352.682	1	-1
353.024	1	6
353.366	1	2
353.708	1	-5
354.050	1	4
354.392	1	0
354.734	1	-2
355.076	1	1
355.418	1	0
355.760	1	5
356.102	1	-2
356.444	1	-12
356.785	1	2
357.127	1	4
357.469	1	-1
357.811	1	9
358.153	1	-1
358.495	1	1
358.837	1	4
359.179	1	3
359.521	1	-5
359.863	1	4
360.205	1	-7
360.547	1	0
360.889	1	-7
361.231	1	-2
361.572	1	3
361.914	1	2
362.256	1	-2
362.598	1	-1
362.940	1	-6
363.282	1	2
363.624	1	-4
363.966	1	8
364.308	1	9
364.649	1	4
364.991	1	1
365.333	1	-8
365.675	1	-5
366.017	1	1
366.359	1	2
366.701	1	-5
367.042	1	6
367.384	1	6
367.726	1	2
368.068	1	-8
368.410	1	-3
368.752	1	8
369.093	1	8
369.435	1	-10
369.777	1	1
370.119	1	2
370.461	1	0
370.803	1	-5
371.144	1	7
371.486	1	2
371.828	1	-4
372.170	1	2
372.512	1	6
372.853	1	-15
373.195	1	-4
373.537	1	5
373.879	1	5
374.220	1	-6
374.562	1	-8
374.904	1	-3
375.246	1	5
375.588	1	-5
375.929	1	-10
376.271	1	11
376.613	1	-6
376.955	1	6
377.296	1	3
377.638	1	-8
377.980	1	-8
378.321	1	-1
378.663	1	4
379.005	1	13
379.347	1	2
379.688	1	5
380.030	1	-5
380.372	1	7
380.714	1	17
381.055	1	3
381.397	1	8
381.739	1	-3
382.080	1	-11
382.422	1	3
382.764	1	-1
383.105	1	11
383.447	1	-8
383.789	1	10
384.130	1	14
384.472	1	2
384.814	1	-2
385.156	1	0
385.497	1	-8
385.839	1	6
386.180	1	0
386.522	1	-8
386.864	1	8
387.205	1	-1
387.547	1	1
387.889	1	-6
388.230	1	1
388.572	1	6
388.914	1	2
389.255	1	-9
389.597	1	-13
389.939	1	6
390.280	1	3
390.622	1	5
390.963	1	5
391.305	1	7
391.647	1	4
391.988	1	2
392.330	1	-4
392.671	1	-2
393.013	1	6
393.355	1	2
393.696	1	-5
394.038	1	-2
394.379	1	13
394.721	1	8
395.062	1	5
395.404	1	-11
395.746	1	3
396.087	1	8
396.429	1	3
396.770	1	-1
397.112	1	-4
397.453	1	14
397.795	1	-2
398.136	1	4
398.478	1	5
398.819	1	-9
399.161	1	8
399.503	1	13
399.844	1	-5
400.186	1	-12
400.527	1	9
400.869	1	1
401.210	1	2
401.552	1	-2
401.893	1	-10
402.235	1	5
402.576	1	0
402.918	1	3
403.259	1	-4
403.601	1	4
403.942	1	1
404.284	1	-1
404.625	1	12
404.967	1	2
405.308	1	-2
405.649	1	8
405.991	1	2
406.332	1	3
406.674	1	4
407.015	1	1
407.357	1	-4
407.698	1	-2
408.040	1	4
408.381	1	5
408.722	1	4
409.064	1	-1
409.405	1	-6
409.747	1	-3
410.088	1	7
410.430	1	5
410.771	1	-17
411.112	1	-3
411.454	1	5
411.795	1	5
412.137	1	-2
412.478	1	-1
412.819	1	13
413.161	1	3
413.502	1	5
413.844	1	-4
414.185	1	3
414.526	1	-6
414.868	1	-1
415.209	1	-4
415.550	1	-5
415.892	1	12
416.233	1	5
416.575	1	-2
416.916	1	2
417.257	1	0
417.599	1	-1
417.940	1	6
418.281	1	4
418.623	1	3
418.964	1	-7
419.305	1	7
419.647	1	2
419.988	1	13
420.329	1	6
420.671	1	-1
421.012	1	2
421.353	1	-3
421.695	1	-2
422.036	1	-3
422.377	1	2
422.718	1	-1
423.060	1	0
423.401	1	5
423.742	1	6
424.084	1	1
424.425	1	10
424.766	1	-1
425.107	1	0
425.449	1	-1
425.790	1	4
426.131	1	9
426.472	1	5
426.814	1	7
427.155	1	-16
427.496	1	6
427.837	1	5
428.179	1	1
428.520	1	15
428.861	1	2
429.202	1	-2
429.544	1	9
429.885	1	0
430.226	1	-12
430.567	1	-2
430.909	1	7
431.250	1	3
431.591	1	-4
431.932	1	-11
432.273	1	6
432.615	1	5
432.956	1	-6
433.297	1	8
433.638	1	-5
433.979	1	6
434.320	1	4
434.662	1	2
435.003	1	10
435.344	1	4
435.685	1	-8
436.026	1	-2
436.368	1	1
436.709	1	6
437.050	1	0
437.391	1	5
437.732	1	10
438.073	1	7
438.414	1	-5
438.756	1	1
439.097	1	3
439.438	1	7
439.779	1	7
440.120	1	3
440.461	1	14
440.802	1	-10
441.143	1	-3
441.485	1	7
441.826	1	-5
442.167	1	-3
442.508	1	1
442.849	1	9
443.190	1	1
443.531	1	-1
443.872	1	4
444.213	1	9
444.554	1	-5
444.895	1	-2
445.237	1	-6
445.578	1	4
445.919	1	-1
446.260	1	-6
446.601	1	7
446.942	1	-1
447.283	1	1
447.624	1	-2
447.965	1	1
448.306	1	-1
448.647	1	5
448.988	1	4
449.329	1	-6
449.670	1	-10
450.011	1	-6
450.352	1	10
450.693	1	0
451.034	1	-5
451.375	1	6
451.716	1	-5
452.057	1	6
452.398	1	-4
452.739	1	4
453.080	1	3
453.421	1	-3
453.762	1	6
454.103	1	-2
454.444	1	-7
454.785	1	11
455.126	1	-7
455.467	1	3
455.808	1	3
456.149	1	-3
456.490	1	3
456.831	1	0
457.172	1	9
457.513	1	-4
457.854	1	5
458.195	1	2
458.536	1	10
458.877	1	22
459.218	1	1
459.559	1	1
459.899	1	-5
460.240	1	7
460.581	1	-2
460.922	1	-1
461.263	1	7
461.604	1	-4
461.945	1	4
462.286	1	12
462.627	1	0
462.968	1	-3
463.309	1	-6
463.649	1	-7
463.990	1	-7
464.331	1	15
464.672	1	7
465.013	1	2
465.354	1	-7
465.695	1	5
466.036	1	-8
466.376	1	-3
466.717	1	3
467.058	1	0
467.399	1	3
467.740	1	13
468.081	1	13
468.422	1	9
468.762	1	-6
469.103	1	-3
469.444	1	-5
469.785	1	1
470.126	1	-6
470.467	1	-5
470.807	1	1
471.148	1	2
471.489	1	-2
471.830	1	7
472.171	1	3
472.511	1	7
472.852	1	10
473.193	1	8
473.534	1	11
473.875	1	8
474.215	1	-1
474.556	1	3
474.897	1	-2
475.238	1	11
475.578	1	4
475.919	1	-5
476.260	1	0
476.601	1	-3
476.942	1	-1
477.282	1	9
477.623	1	-3
477.964	1	-6
478.305	1	11
478.645	1	-5
478.986	1	-4
479.327	1	-5
479.667	1	1
480.008	1	-3
480.349	1	-2
480.690	1	8
481.030	1	6
481.371	1	7
481.712	1	0
482.053	1	-1
482.393	1	8
482.734	1	6
483.075	1	9
483.415	1	-2
483.756	1	0
484.097	1	3
484.437	1	5
484.778	1	10
485.119	1	-2
485.459	1	-11
485.800	1	8
486.141	1	-3
486.481	1	-5
486.822	1	6
487.163	1	0
487.503	1	-10
487.844	1	2
488.185	1	3
488.525	1	-3
488.866	1	4
489.207	1	-4
489.547	1	-5
489.888	1	6
490.228	1	-2
490.569	1	5
490.910	1	-2
491.250	1	8
491.591	1	4
491.932	1	0
492.272	1	2
492.613	1	-3
492.953	1	1
493.294	1	14
493.635	1	10
493.975	1	8
494.316	1	6
494.656	1	-2
494.997	1	-2
495.337	1	-6
495.678	1	-5
496.019	1	4
496.359	1	6
496.700	1	8
497.040	1	-6
497.381	1	8
497.721	1	7
498.062	1	-4
498.403	1	-3
498.743	1	12
499.084	1	13
499.424	1	-3
499.765	1	0
500.105	1	6
500.446	1	5
500.786	1	12
501.127	1	8
501.467	1	-1
501.808	1	-1
502.148	1	5
502.489	1	10
502.829	1	-1
503.170	1	-6
503.510	1	1
503.851	1	2
504.191	1	0
504.532	1	2
504.872	1	3
505.213	1	-1
505.553	1	0
505.894	1	1
506.234	1	-5
506.575	1	-1
506.915	1	0
507.256	1	10
507.596	1	-5
507.936	1	-5
508.277	1	-8
508.617	1	-1
508.958	1	14
509.298	1	-7
509.639	1	-3
509.979	1	0
510.319	1	11
510.660	1	-8
511.000	1	9
511.341	1	-14
511.681	1	2
512.022	1	9
512.362	1	-6
512.702	1	-3
513.043	1	-2
513.383	1	0
513.724	1	-5
514.064	1	-2
514.404	1	9
514.745	1	1
515.085	1	4
515.425	1	-4
515.766	1	6
516.106	1	-1
516.447	1	-4
516.787	1	6
517.127	1	5
517.468	1	1
517.808	1	1
518.148	1	0
518.489	1	-8
518.829	1	10
519.169	1	0
519.510	1	0
519.850	1	10
520.190	1	4
520.531	1	8
520.871	1	-3
521.211	1	-5
521.552	1	2
521.892	1	1
522.232	1	-2
522.573	1	-3
522.913	1	11
523.253	1	9
523.593	1	3
523.934	1	4
524.274	1	-10
524.614	1	12
524.955	1	3
525.295	1	-1
525.635	1	-8
525.975	1	4
526.316	1	-3
526.656	1	4
526.996	1	-1
527.337	1	8
527.677	1	-6
528.017	1	-2
528.357	1	1
528.698	1	-1
529.038	1	-10
529.378	1	7
529.718	1	6
530.058	1	2
530.399	1	12
530.739	1	0
531.079	1	3
531.419	1	1
531.760	1	-2
532.100	1	7
532.440	1	9
532.780	1	-9
533.120	1	4
533.461	1	-4
533.801	1	11
534.141	1	-1
534.481	1	3
534.821	1	7
535.162	1	2
535.502	1	2
535.842	1	-4
536.182	1	9
536.522	1	-7
536.862	1	-6
537.203	1	1
537.543	1	-1
537.883	1	-4
538.223	1	3
538.563	1	8
538.903	1	16
539.243	1	6
539.584	1	9
539.924	1	3
540.264	1	-7
540.604	1	5
540.944	1	5
541.284	1	7
541.624	1	11
541.964	1	-6
542.305	1	-3
542.645	1	-3
542.985	1	9
543.325	1	0
543.665	1	12
544.005	1	0
544.345	1	2
544.685	1	7
545.025	1	-4
545.365	1	7
545.705	1	-3
546.045	1	2
546.386	1	6
546.726	1	-6
547.066	1	2
547.406	1	-8
547.746	1	16
548.086	1	-6
548.426	1	4
548.766	1	5
549.106	1	-7
549.446	1	-7
549.786	1	4
550.126	1	6
550.466	1	8
550.806	1	-4
551.146	1	6
551.486	1	-1
551.826	1	4
552.166	1	-4
552.506	1	11
552.846	1	-9
553.186	1	-1
553.526	1	-2
553.866	1	-13
554.206	1	4
554.546	1	6
554.886	1	-7
555.226	1	5
555.566	1	-3
555.906	1	-1
556.246	1	10
556.586	1	2
556.926	1	1
557.266	1	0
557.606	1	-10
557.946	1	3
558.286	1	7
558.626	1	-7
558.966	1	-5
559.306	1	-5
559.646	1	2
559.986	1	7
560.325	1	-6
560.665	1	8
561.005	1	0
561.345	1	4
561.685	1	-3
562.025	1	-6
562.365	1	11
562.705	1	-1
563.045	1	-2
563.385	1	6
563.725	1	2
564.064	1	8
564.404	1	-1
564.744	1	-11
565.084	1	-5
565.424	1	-6
565.764	1	5
566.104	1	1
566.444	1	0
566.783	1	1
567.123	1	2
567.463	1	-5
567.803	1	4
568.143	1	11
568.483	1	7
568.823	1	-9
569.162	1	8
569.502	1	-2
569.842	1	-14
570.182	1	-4
570.522	1	-10
570.862	1	12
571.201	1	1
571.541	1	-4
571.881	1	3
572.221	1	-1
572.561	1	-2
572.900	1	-3
573.240	1	-1
573.580	1	2
573.920	1	8
574.260	1	13
574.599	1	6
574.939	1	6
575.279	1	-1
575.619	1	5
575.959	1	-3
576.298	1	-4
576.638	1	-4
576.978	1	-4
577.318	1	0
577.657	1	9
577.997	1	15
578.337	1	0
578.677	1	7
579.016	1	-8
579.356	1	6
579.696	1	-2
580.036	1	-5
580.375	1	10
580.715	1	1
581.055	1	7
581.394	1	-2
581.734	1	7
582.074	1	-10
582.414	1	2
582.753	1	7
583.093	1	-1
583.433	1	-2
583.772	1	4
584.112	1	6
584.452	1	6
584.791	1	4
585.131	1	12
585.471	1	-1
585.811	1	-2
586.150	1	3
586.490	1	0
586.830	1	-11
587.169	1	8
587.509	1	9
587.849	1	5
588.188	1	6
588.528	1	10
588.867	1	1
589.207	1	-4
589.547	1	6
589.886	1	9
590.226	1	12
590.566	1	3
590.905	1	11
591.245	1	-4
591.585	1	3
591.924	1	-1
592.264	1	0
592.603	1	-6
592.943	1	4
593.283	1	-12
593.622	1	2
593.962	1	18
594.301	1	-8
594.641	1	-2
594.981	1	-19
595.320	1	7
595.660	1	1
595.999	1	6
596.339	1	4
596.678	1	-1
597.018	1	-1
597.358	1	-7
597.697	1	-6
598.037	1	1
598.376	1	7
598.716	1	7
599.055	1	4
599.395	1	-6
599.734	1	-8
600.074	1	7
600.413	1	15
600.753	1	-1
601.092	1	9
601.432	1	-6
601.771	1	7
602.111	1	-4
602.451	1	10
602.790	1	5
603.130	1	6
603.469	1	-2
603.809	1	-4
604.148	1	4
604.487	1	8
604.827	1	3
605.166	1	3
605.506	1	5
605.845	1	-7
606.185	1	-6
606.524	1	-2
606.864	1	12
607.203	1	-3
607.543	1	3
607.882	1	12
608.222	1	-7
608.561	1	-8
608.901	1	12
609.240	1	-11
609.579	1	7
609.919	1	4
610.258	1	0
610.598	1	5
610.937	1	14
611.277	1	-2
611.616	1	-8
611.955	1	-9
612.295	1	5
612.634	1	-3
612.974	1	10
613.313	1	-2
613.652	1	-1
613.992	1	-6
614.331	1	0
614.671	1	5
615.010	1	-2
615.349	1	5
615.689	1	6
616.028	1	12
616.368	1	5
616.707	1	14
617.046	1	7
617.386	1	1
617.725	1	-3
618.064	1	2
618.404	1	0
618.743	1	8
619.082	1	4
619.422	1	-1
619.761	1	1
620.100	1	-1
620.440	1	1
620.779	1	14
621.118	1	3
621.458	1	2
621.797	1	4
622.136	1	-6
622.476	1	9
622.815	1	2
623.154	1	1
623.494	1	2
623.833	1	8
624.172	1	2
624.511	1	1
624.851	1	-5
625.190	1	0
625.529	1	-1
625.869	1	-1
626.208	1	-10
626.547	1	-7
626.886	1	1
627.226	1	3
627.565	1	-3
627.904	1	8
628.243	1	3
628.583	1	-7
628.922	1	-1
629.261	1	-16
629.600	1	0
629.940	1	2
630.279	1	11
630.618	1	4
630.957	1	-2
631.297	1	-2
631.636	1	6
631.975	1	7
632.314	1	2
632.653	1	2
632.993	1	6
633.332	1	-5
633.671	1	-5
634.010	1	-5
634.349	1	-5
634.689	1	10
635.028	1	8
635.367	1	0
635.706	1	-5
636.045	1	7
636.384	1	2
636.724	1	12
637.063	1	3
637.402	1	-3
637.741	1	10
638.080	1	6
638.419	1	11
638.759	1	2
639.098	1	-12
639.437	1	7
639.776	1	-4
640.115	1	7
640.454	1	14
640.793	1	-14
641.132	1	12
641.472	1	0
641.811	1	-3
642.150	1	-11
642.489	1	-1
642.828	1	0
643.167	1	2
643.506	1	12
643.845	1	-1
644.184	1	-6
644.524	1	-2
644.863	1	4
645.202	1	6
645.541	1	-2
645.880	1	-4
646.219	1	-1
646.558	1	4
646.897	1	-1
647.236	1	-5
647.575	1	-8
647.914	1	-6
648.253	1	-3
648.592	1	-3
648.931	1	-4
649.270	1	2
649.610	1	0
649.949	1	11
650.288	1	5
650.627	1	5
650.966	1	1
651.305	1	-5
651.644	1	-1
651.983	1	-7
652.322	1	0
652.661	1	-11
653.000	1	-3
653.339	1	-2
653.678	1	-6
654.017	1	-9
654.356	1	10
654.695	1	0
655.034	1	-3
655.373	1	-3
655.712	1	3
656.051	1	4
656.390	1	5
656.729	1	3
657.068	1	1
657.406	1	-3
657.745	1	-1
658.084	1	1
658.423	1	4
658.762	1	10
659.101	1	5
659.440	1	-5
659.779	1	1
660.118	1	-8
660.457	1	-3
660.796	1	3
661.135	1	4
661.474	1	8
661.813	1	-3
662.152	1	3
662.491	1	13
662.829	1	7
663.168	1	-5
663.507	1	3
663.846	1	0
664.185	1	-2
664.524	1	-1
664.863	1	-4
665.202	1	-2
665.541	1	-3
665.879	1	8
666.218	1	4
666.557	1	5
666.896	1	5
667.235	1	3
667.574	1	14
667.913	1	12
668.251	1	-5
668.590	1	5
668.929	1	6
669.268	1	-6
669.607	1	-6
669.946	1	4
670.285	1	7
670.623	1	13
670.962	1	2
671.301	1	6
671.640	1	-6
671.979	1	0
672.317	1	4
672.656	1	-3
672.995	1	0
673.334	1	-7
673.673	1	2
674.011	1	1
674.350	1	0
674.689	1	1
675.028	1	6
675.367	1	3
675.705	1	13
676.044	1	8
676.383	1	5
676.722	1	-7
677.060	1	8
677.399	1	-5
677.738	1	-7
678.077	1	-2
678.416	1	2
678.754	1	9
679.093	1	6
679.432	1	4
679.771	1	5
680.109	1	-2
680.448	1	10
680.787	1	6
681.125	1	11
681.464	1	1
681.803	1	-8
682.142	1	-5
682.480	1	6
682.819	1	-4
683.158	1	-1
683.496	1	-1
683.835	1	-2
684.174	1	5
684.512	1	4
684.851	1	-1
685.190	1	1
685.529	1	-4
685.867	1	4
686.206	1	0
686.545	1	-4
686.883	1	5
687.222	1	1
687.561	1	6
687.899	1	0
688.238	1	3
688.577	1	2
688.746	1	5