File: Data/GaN_130K_350ms/GaN_sample F_spot6_UVVIS_130 K_200um_350 ms 2x2mm1_126.txt
340.368	1	11
340.710	1	8
341.052	1	-4
341.394	1	5
341.737	1	3
342.079	1	2
342.421	1	19
342.763	1	8
343.105	1	1
343.447	1	13
343.789	1	5
344.131	1	8
344.473	1	5
344.815	1	-6
345.157	1	-9
345.499	1	4
345.841	1	-2
346.183	1	5
346.526	1	0
346.868	1	10
347.210	1	5
347.552	1	4
347.894	1	-3
348.236	1	5
348.578	1	4
348.920	1	10
349.262	1	14
349.604	1	8
349.946	1	8
350.288	1	0
350.630	1	0
350.972	1	14
351.314	1	1
351.656	1	19
351.998	1	10
352.340	1	11
352.682	1	10
353.024	1	16
353.366	1	17
353.708	1	6
354.050	1	8
354.392	1	4
354.734	1	9
355.076	1	7
355.418	1	14
355.760	1	3
356.102	1	-1
356.444	1	1
356.785	1	17
357.127	1	9
357.469	1	1
357.811	1	16
358.153	1	10
358.495	1	17
358.837	1	10
359.179	1	8
359.521	1	11
359.863	1	14
360.205	1	21
360.547	1	17
360.889	1	5
361.231	1	8
361.572	1	23
361.914	1	18
362.256	1	16
362.598	1	24
362.940	1	17
363.282	1	39
363.624	1	19
363.966	1	49
364.308	1	46
364.649	1	46
364.991	1	51
365.333	1	36
365.675	1	52
366.017	1	49
366.359	1	65
366.701	1	61
367.042	1	63
367.384	1	63
367.726	1	63
368.068	1	65
368.410	1	48
368.752	1	61
369.093	1	52
369.435	1	47
369.777	1	58
370.119	1	57
370.461	1	48
370.803	1	45
371.144	1	48
371.486	1	47
371.828	1	42
372.170	1	40
372.512	1	43
372.853	1	33
373.195	1	36
373.537	1	40
373.879	1	42
374.220	1	31
374.562	1	29
374.904	1	37
375.246	1	37
375.588	1	27
375.929	1	15
376.271	1	44
376.613	1	22
376.955	1	31
377.296	1	34
377.638	1	9
377.980	1	24
378.321	1	5
378.663	1	17
379.005	1	24
379.347	1	22
379.688	1	14
380.030	1	17
380.372	1	24
380.714	1	22
381.055	1	15
381.397	1	14
381.739	1	26
382.080	1	8
382.422	1	23
382.764	1	10
383.105	1	19
383.447	1	23
383.789	1	21
384.130	1	14
384.472	1	17
384.814	1	14
385.156	1	9
385.497	1	14
385.839	1	13
386.180	1	14
386.522	1	15
386.864	1	30
387.205	1	9
387.547	1	14
387.889	1	10
388.230	1	17
388.572	1	12
388.914	1	11
389.255	1	15
389.597	1	-8
389.939	1	10
390.280	1	14
390.622	1	9
390.963	1	18
391.305	1	7
391.647	1	9
391.988	1	15
392.330	1	5
392.671	1	5
393.013	1	9
393.355	1	12
393.696	1	18
394.038	1	5
394.379	1	15
394.721	1	18
395.062	1	5
395.404	1	1
395.746	1	14
396.087	1	23
396.429	1	12
396.770	1	13
397.112	1	18
397.453	1	15
397.795	1	12
398.136	1	12
398.478	1	20
398.819	1	-10
399.161	1	13
399.503	1	20
399.844	1	8
400.186	1	7
400.527	1	7
400.869	1	18
401.210	1	2
401.552	1	21
401.893	1	5
402.235	1	14
402.576	1	15
402.918	1	11
403.259	1	0
403.601	1	13
403.942	1	8
404.284	1	10
404.625	1	22
404.967	1	12
405.308	1	15
405.649	1	5
405.991	1	17
406.332	1	15
406.674	1	19
407.015	1	14
407.357	1	19
407.698	1	12
408.040	1	10
408.381	1	18
408.722	1	10
409.064	1	12
409.405	1	22
409.747	1	3
410.088	1	20
410.430	1	14
410.771	1	-3
411.112	1	13
411.454	1	19
411.795	1	16
412.137	1	3
412.478	1	5
412.819	1	14
413.161	1	10
413.502	1	13
413.844	1	10
414.185	1	26
414.526	1	5
414.868	1	11
415.209	1	3
415.550	1	8
415.892	1	25
416.233	1	18
416.575	1	8
416.916	1	-5
417.257	1	10
417.599	1	11
417.940	1	20
418.281	1	4
418.623	1	0
418.964	1	4
419.305	1	11
419.647	1	18
419.988	1	15
420.329	1	14
420.671	1	6
421.012	1	11
421.353	1	-3
421.695	1	2
422.036	1	12
422.377	1	4
422.718	1	7
423.060	1	12
423.401	1	10
423.742	1	14
424.084	1	8
424.425	1	10
424.766	1	6
425.107	1	1
425.449	1	7
425.790	1	11
426.131	1	24
426.472	1	4
426.814	1	14
427.155	1	6
427.496	1	4
427.837	1	19
428.179	1	15
428.520	1	7
428.861	1	-1
429.202	1	4
429.544	1	21
429.885	1	12
430.226	1	6
430.567	1	-1
430.909	1	14
431.250	1	11
431.591	1	8
431.932	1	9
432.273	1	10
432.615	1	10
432.956	1	-6
433.297	1	13
433.638	1	11
433.979	1	8
434.320	1	11
434.662	1	8
435.003	1	7
435.344	1	11
435.685	1	-5
436.026	1	14
436.368	1	-3
436.709	1	1
437.050	1	15
437.391	1	15
437.732	1	7
438.073	1	13
438.414	1	0
438.756	1	18
439.097	1	7
439.438	1	-1
439.779	1	16
440.120	1	2
440.461	1	21
440.802	1	-5
441.143	1	-2
441.485	1	11
441.826	1	1
442.167	1	6
442.508	1	9
442.849	1	11
443.190	1	6
443.531	1	10
443.872	1	15
444.213	1	4
444.554	1	5
444.895	1	-1
445.237	1	-2
445.578	1	5
445.919	1	-2
446.260	1	2
446.601	1	8
446.942	1	3
447.283	1	4
447.624	1	4
447.965	1	7
448.306	1	16
448.647	1	13
448.988	1	7
449.329	1	-6
449.670	1	6
450.011	1	5
450.352	1	13
450.693	1	8
451.034	1	5
451.375	1	2
451.716	1	-8
452.057	1	15
452.398	1	0
452.739	1	11
453.080	1	-1
453.421	1	4
453.762	1	4
454.103	1	-1
454.444	1	7
454.785	1	9
455.126	1	-2
455.467	1	2
455.808	1	5
456.149	1	-5
456.490	1	6
456.831	1	10
457.172	1	0
457.513	1	-1
457.854	1	8
458.195	1	-3
458.536	1	3
458.877	1	25
459.218	1	4
459.559	1	-3
459.899	1	13
460.240	1	15
460.581	1	1
460.922	1	4
461.263	1	2
461.604	1	-13
461.945	1	13
462.286	1	7
462.627	1	4
462.968	1	3
463.309	1	1
463.649	1	-2
463.990	1	3
464.331	1	8
464.672	1	6
465.013	1	11
465.354	1	5
465.695	1	15
466.036	1	9
466.376	1	17
466.717	1	15
467.058	1	8
467.399	1	-5
467.740	1	20
468.081	1	21
468.422	1	11
468.762	1	1
469.103	1	10
469.444	1	8
469.785	1	2
470.126	1	-8
470.467	1	5
470.807	1	-1
471.148	1	8
471.489	1	-2
471.830	1	12
472.171	1	0
472.511	1	1
472.852	1	11
473.193	1	11
473.534	1	0
473.875	1	25
474.215	1	9
474.556	1	12
474.897	1	3
475.238	1	15
475.578	1	5
475.919	1	1
476.260	1	0
476.601	1	6
476.942	1	9
477.282	1	13
477.623	1	-15
477.964	1	3
478.305	1	17
478.645	1	6
478.986	1	-3
479.327	1	-6
479.667	1	9
480.008	1	6
480.349	1	12
480.690	1	7
481.030	1	9
481.371	1	9
481.712	1	11
482.053	1	10
482.393	1	13
482.734	1	8
483.075	1	16
483.415	1	2
483.756	1	7
484.097	1	8
484.437	1	0
484.778	1	16
485.119	1	10
485.459	1	-7
485.800	1	9
486.141	1	2
486.481	1	6
486.822	1	8
487.163	1	6
487.503	1	-4
487.844	1	-4
488.185	1	11
488.525	1	18
488.866	1	14
489.207	1	11
489.547	1	3
489.888	1	11
490.228	1	7
490.569	1	13
490.910	1	0
491.250	1	13
491.591	1	8
491.932	1	12
492.272	1	7
492.613	1	4
492.953	1	7
493.294	1	24
493.635	1	15
493.975	1	13
494.316	1	6
494.656	1	9
494.997	1	8
495.337	1	10
495.678	1	4
496.019	1	5
496.359	1	15
496.700	1	6
497.040	1	14
497.381	1	16
497.721	1	5
498.062	1	13
498.403	1	-5
498.743	1	20
499.084	1	4
499.424	1	5
499.765	1	8
500.105	1	12
500.446	1	11
500.786	1	9
501.127	1	18
501.467	1	12
501.808	1	19
502.148	1	17
502.489	1	13
502.829	1	15
503.170	1	3
503.510	1	18
503.851	1	17
504.191	1	13
504.532	1	19
504.872	1	18
505.213	1	7
505.553	1	16
505.894	1	17
506.234	1	5
506.575	1	14
506.915	1	19
507.256	1	22
507.596	1	14
507.936	1	10
508.277	1	20
508.617	1	13
508.958	1	15
509.298	1	9
509.639	1	22
509.979	1	19
510.319	1	18
510.660	1	4
511.000	1	23
511.341	1	6
511.681	1	21
512.022	1	15
512.362	1	22
512.702	1	18
513.043	1	21
513.383	1	24
513.724	1	11
514.064	1	12
514.404	1	32
514.745	1	16
515.085	1	22
515.425	1	16
515.766	1	20
516.106	1	20
516.447	1	11
516.787	1	15
517.127	1	22
517.468	1	20
517.808	1	18
518.148	1	27
518.489	1	20
518.829	1	23
519.169	1	22
519.510	1	25
519.850	1	31
520.190	1	26
520.531	1	27
520.871	1	11
521.211	1	26
521.552	1	24
521.892	1	22
522.232	1	14
522.573	1	13
522.913	1	23
523.253	1	22
523.593	1	24
523.934	1	12
524.274	1	5
524.614	1	22
524.955	1	24
525.295	1	26
525.635	1	9
525.975	1	37
526.316	1	13
526.656	1	14
526.996	1	24
527.337	1	25
527.677	1	8
528.017	1	35
528.357	1	24
528.698	1	18
529.038	1	15
529.378	1	17
529.718	1	28
530.058	1	13
530.399	1	25
530.739	1	12
531.079	1	28
531.419	1	28
531.760	1	20
532.100	1	28
532.440	1	32
532.780	1	26
533.120	1	27
533.461	1	14
533.801	1	32
534.141	1	23
534.481	1	23
534.821	1	34
535.162	1	23
535.502	1	19
535.842	1	23
536.182	1	26
536.522	1	19
536.862	1	26
537.203	1	7
537.543	1	13
537.883	1	21
538.223	1	24
538.563	1	26
538.903	1	26
539.243	1	26
539.584	1	17
539.924	1	25
540.264	1	16
540.604	1	29
540.944	1	26
541.284	1	15
541.624	1	28
541.964	1	12
542.305	1	27
542.645	1	30
542.985	1	11
543.325	1	16
543.665	1	22
544.005	1	23
544.345	1	8
544.685	1	31
545.025	1	13
545.365	1	18
545.705	1	14
546.045	1	15
546.386	1	18
546.726	1	7
547.066	1	15
547.406	1	4
547.746	1	17
548.086	1	7
548.426	1	20
548.766	1	20
549.106	1	1
549.446	1	10
549.786	1	27
550.126	1	36
550.466	1	17
550.806	1	30
551.146	1	13
551.486	1	13
551.826	1	23
552.166	1	22
552.506	1	28
552.846	1	17
553.186	1	16
553.526	1	24
553.866	1	12
554.206	1	13
554.546	1	23
554.886	1	8
555.226	1	12
555.566	1	17
555.906	1	19
556.246	1	15
556.586	1	13
556.926	1	15
557.266	1	13
557.606	1	21
557.946	1	17
558.286	1	26
558.626	1	-1
558.966	1	14
559.306	1	16
559.646	1	15
559.986	1	12
560.325	1	8
560.665	1	18
561.005	1	17
561.345	1	18
561.685	1	17
562.025	1	1
562.365	1	13
562.705	1	15
563.045	1	13
563.385	1	18
563.725	1	-3
564.064	1	15
564.404	1	11
564.744	1	12
565.084	1	16
565.424	1	5
565.764	1	12
566.104	1	6
566.444	1	24
566.783	1	21
567.123	1	11
567.463	1	-3
567.803	1	20
568.143	1	14
568.483	1	18
568.823	1	-2
569.162	1	8
569.502	1	15
569.842	1	9
570.182	1	20
570.522	1	5
570.862	1	35
571.201	1	11
571.541	1	0
571.881	1	2
572.221	1	21
572.561	1	13
572.900	1	10
573.240	1	5
573.580	1	11
573.920	1	13
574.260	1	8
574.599	1	12
574.939	1	17
575.279	1	14
575.619	1	10
575.959	1	13
576.298	1	11
576.638	1	6
576.978	1	3
577.318	1	17
577.657	1	20
577.997	1	11
578.337	1	12
578.677	1	24
579.016	1	14
579.356	1	15
579.696	1	7
580.036	1	7
580.375	1	-4
580.715	1	13
581.055	1	8
581.394	1	14
581.734	1	17
582.074	1	10
582.414	1	2
582.753	1	9
583.093	1	6
583.433	1	9
583.772	1	16
584.112	1	12
584.452	1	10
584.791	1	17
585.131	1	7
585.471	1	8
585.811	1	7
586.150	1	17
586.490	1	7
586.830	1	2
587.169	1	5
587.509	1	15
587.849	1	7
588.188	1	6
588.528	1	9
588.867	1	5
589.207	1	3
589.547	1	-4
589.886	1	2
590.226	1	8
590.566	1	13
590.905	1	11
591.245	1	9
591.585	1	3
591.924	1	7
592.264	1	6
592.603	1	10
592.943	1	6
593.283	1	2
593.622	1	16
593.962	1	11
594.301	1	6
594.641	1	11
594.981	1	-6
595.320	1	11
595.660	1	4
595.999	1	13
596.339	1	12
596.678	1	-3
597.018	1	9
597.358	1	2
597.697	1	10
598.037	1	4
598.376	1	-1
598.716	1	16
599.055	1	1
599.395	1	-16
599.734	1	9
600.074	1	8
600.413	1	12
600.753	1	0
601.092	1	6
601.432	1	-6
601.771	1	9
602.111	1	14
602.451	1	4
602.790	1	7
603.130	1	7
603.469	1	4
603.809	1	9
604.148	1	-1
604.487	1	14
604.827	1	-6
605.166	1	15
605.506	1	6
605.845	1	4
606.185	1	6
606.524	1	5
606.864	1	20
607.203	1	-5
607.543	1	9
607.882	1	7
608.222	1	9
608.561	1	8
608.901	1	16
609.240	1	-2
609.579	1	11
609.919	1	7
610.258	1	10
610.598	1	4
610.937	1	10
611.277	1	0
611.616	1	-7
611.955	1	9
612.295	1	19
612.634	1	1
612.974	1	12
613.313	1	7
613.652	1	-6
613.992	1	2
614.331	1	14
614.671	1	6
615.010	1	-6
615.349	1	-1
615.689	1	7
616.028	1	9
616.368	1	10
616.707	1	14
617.046	1	13
617.386	1	4
617.725	1	5
618.064	1	4
618.404	1	0
618.743	1	15
619.082	1	1
619.422	1	4
619.761	1	11
620.100	1	-5
620.440	1	11
620.779	1	9
621.118	1	7
621.458	1	11
621.797	1	-1
622.136	1	6
622.476	1	4
622.815	1	-3
623.154	1	1
623.494	1	17
623.833	1	12
624.172	1	-1
624.511	1	15
624.851	1	-1
625.190	1	6
625.529	1	-2
625.869	1	9
626.208	1	0
626.547	1	10
626.886	1	-1
627.226	1	-1
627.565	1	1
627.904	1	4
628.243	1	8
628.583	1	-4
628.922	1	3
629.261	1	-8
629.600	1	9
629.940	1	15
630.279	1	15
630.618	1	5
630.957	1	0
631.297	1	3
631.636	1	9
631.975	1	10
632.314	1	4
632.653	1	-2
632.993	1	10
633.332	1	-1
633.671	1	1
634.010	1	-7
634.349	1	5
634.689	1	8
635.028	1	0
635.367	1	5
635.706	1	1
636.045	1	19
636.384	1	6
636.724	1	12
637.063	1	6
637.402	1	-2
637.741	1	13
638.080	1	9
638.419	1	15
638.759	1	16
639.098	1	-6
639.437	1	16
639.776	1	3
640.115	1	10
640.454	1	7
640.793	1	-11
641.132	1	15
641.472	1	11
641.811	1	0
642.150	1	-6
642.489	1	2
642.828	1	3
643.167	1	8
643.506	1	5
643.845	1	-5
644.184	1	-1
644.524	1	3
644.863	1	2
645.202	1	10
645.541	1	0
645.880	1	11
646.219	1	1
646.558	1	4
646.897	1	0
647.236	1	0
647.575	1	-7
647.914	1	-2
648.253	1	8
648.592	1	-6
648.931	1	1
649.270	1	5
649.610	1	-3
649.949	1	-2
650.288	1	17
650.627	1	3
650.966	1	14
651.305	1	0
651.644	1	-1
651.983	1	-3
652.322	1	0
652.661	1	4
653.000	1	-1
653.339	1	-3
653.678	1	-2
654.017	1	1
654.356	1	3
654.695	1	-4
655.034	1	1
655.373	1	4
655.712	1	5
656.051	1	5
656.390	1	-7
656.729	1	6
657.068	1	-3
657.406	1	0
657.745	1	9
658.084	1	3
658.423	1	2
658.762	1	20
659.101	1	9
659.440	1	-9
659.779	1	6
660.118	1	0
660.457	1	-5
660.796	1	3
661.135	1	6
661.474	1	1
661.813	1	10
662.152	1	8
662.491	1	8
662.829	1	6
663.168	1	-4
663.507	1	0
663.846	1	0
664.185	1	-9
664.524	1	2
664.863	1	-4
665.202	1	0
665.541	1	-10
665.879	1	1
666.218	1	14
666.557	1	3
666.896	1	9
667.235	1	12
667.574	1	10
667.913	1	6
668.251	1	4
668.590	1	5
668.929	1	8
669.268	1	4
669.607	1	11
669.946	1	2
670.285	1	2
670.623	1	12
670.962	1	1
671.301	1	7
671.640	1	-4
671.979	1	2
672.317	1	6
672.656	1	0
672.995	1	4
673.334	1	-7
673.673	1	7
674.011	1	5
674.350	1	8
674.689	1	0
675.028	1	5
675.367	1	-7
675.705	1	5
676.044	1	9
676.383	1	1
676.722	1	-8
677.060	1	9
677.399	1	0
677.738	1	3
678.077	1	3
678.416	1	6
678.754	1	0
679.093	1	4
679.432	1	3
679.771	1	12
680.109	1	2
680.448	1	4
680.787	1	15
681.125	1	8
681.464	1	0
681.803	1	2
682.142	1	-5
682.480	1	10
682.819	1	0
683.158	1	4
683.496	1	1
683.835	1	1
684.174	1	2
684.512	1	8
684.851	1	-11
685.190	1	3
685.529	1	2
685.867	1	8
686.206	1	11
686.545	1	-2
686.883	1	2
687.222	1	-4
687.561	1	1
687.899	1	2
688.238	1	10
688.577	1	1
688.746	1	15