File: Data/GaN_130K_350ms/GaN_sample F_spot6_UVVIS_130 K_200um_350 ms 2x2mm1_160.txt
340.368	1	5
340.710	1	6
341.052	1	1
341.394	1	-2
341.737	1	6
342.079	1	-3
342.421	1	6
342.763	1	-3
343.105	1	3
343.447	1	6
343.789	1	8
344.131	1	9
344.473	1	1
344.815	1	-8
345.157	1	-4
345.499	1	1
345.841	1	2
346.183	1	10
346.526	1	9
346.868	1	11
347.210	1	6
347.552	1	8
347.894	1	1
348.236	1	4
348.578	1	-6
348.920	1	11
349.262	1	8
349.604	1	7
349.946	1	6
350.288	1	2
350.630	1	11
350.972	1	8
351.314	1	-4
351.656	1	13
351.998	1	5
352.340	1	18
352.682	1	-2
353.024	1	7
353.366	1	14
353.708	1	-1
354.050	1	3
354.392	1	12
354.734	1	-3
355.076	1	2
355.418	1	6
355.760	1	3
356.102	1	-6
356.444	1	-7
356.785	1	11
357.127	1	13
357.469	1	6
357.811	1	-3
358.153	1	3
358.495	1	16
358.837	1	-1
359.179	1	-1
359.521	1	-2
359.863	1	5
360.205	1	5
360.547	1	4
360.889	1	0
361.231	1	12
361.572	1	18
361.914	1	19
362.256	1	-1
362.598	1	12
362.940	1	4
363.282	1	22
363.624	1	18
363.966	1	28
364.308	1	30
364.649	1	23
364.991	1	21
365.333	1	17
365.675	1	27
366.017	1	17
366.359	1	31
366.701	1	26
367.042	1	38
367.384	1	43
367.726	1	36
368.068	1	25
368.410	1	21
368.752	1	44
369.093	1	30
369.435	1	29
369.777	1	30
370.119	1	30
370.461	1	27
370.803	1	29
371.144	1	17
371.486	1	18
371.828	1	25
372.170	1	20
372.512	1	25
372.853	1	21
373.195	1	6
373.537	1	19
373.879	1	27
374.220	1	10
374.562	1	16
374.904	1	15
375.246	1	25
375.588	1	11
375.929	1	9
376.271	1	15
376.613	1	14
376.955	1	9
377.296	1	24
377.638	1	7
377.980	1	1
378.321	1	8
378.663	1	13
379.005	1	21
379.347	1	15
379.688	1	6
380.030	1	7
380.372	1	14
380.714	1	21
381.055	1	11
381.397	1	10
381.739	1	12
382.080	1	7
382.422	1	21
382.764	1	8
383.105	1	5
383.447	1	10
383.789	1	13
384.130	1	6
384.472	1	25
384.814	1	4
385.156	1	9
385.497	1	16
385.839	1	9
386.180	1	9
386.522	1	11
386.864	1	19
387.205	1	1
387.547	1	21
387.889	1	10
388.230	1	8
388.572	1	10
388.914	1	10
389.255	1	13
389.597	1	-9
389.939	1	12
390.280	1	17
390.622	1	11
390.963	1	12
391.305	1	9
391.647	1	10
391.988	1	10
392.330	1	5
392.671	1	0
393.013	1	10
393.355	1	14
393.696	1	7
394.038	1	3
394.379	1	13
394.721	1	10
395.062	1	4
395.404	1	-9
395.746	1	11
396.087	1	16
396.429	1	16
396.770	1	11
397.112	1	9
397.453	1	16
397.795	1	2
398.136	1	14
398.478	1	6
398.819	1	-7
399.161	1	8
399.503	1	14
399.844	1	5
400.186	1	3
400.527	1	9
400.869	1	12
401.210	1	2
401.552	1	2
401.893	1	-8
402.235	1	5
402.576	1	5
402.918	1	13
403.259	1	3
403.601	1	10
403.942	1	10
404.284	1	0
404.625	1	16
404.967	1	5
405.308	1	11
405.649	1	7
405.991	1	0
406.332	1	18
406.674	1	11
407.015	1	-2
407.357	1	3
407.698	1	11
408.040	1	0
408.381	1	16
408.722	1	8
409.064	1	9
409.405	1	9
409.747	1	8
410.088	1	11
410.430	1	9
410.771	1	-3
411.112	1	9
411.454	1	8
411.795	1	3
412.137	1	-1
412.478	1	14
412.819	1	7
413.161	1	9
413.502	1	13
413.844	1	9
414.185	1	14
414.526	1	-3
414.868	1	4
415.209	1	3
415.550	1	2
415.892	1	9
416.233	1	11
416.575	1	9
416.916	1	-5
417.257	1	11
417.599	1	12
417.940	1	24
418.281	1	7
418.623	1	10
418.964	1	2
419.305	1	6
419.647	1	14
419.988	1	14
420.329	1	20
420.671	1	7
421.012	1	5
421.353	1	4
421.695	1	4
422.036	1	-2
422.377	1	12
422.718	1	0
423.060	1	5
423.401	1	9
423.742	1	9
424.084	1	9
424.425	1	5
424.766	1	5
425.107	1	8
425.449	1	13
425.790	1	18
426.131	1	11
426.472	1	5
426.814	1	7
427.155	1	13
427.496	1	7
427.837	1	11
428.179	1	5
428.520	1	9
428.861	1	-2
429.202	1	14
429.544	1	15
429.885	1	6
430.226	1	8
430.567	1	7
430.909	1	5
431.250	1	8
431.591	1	0
431.932	1	-4
432.273	1	17
432.615	1	14
432.956	1	5
433.297	1	5
433.638	1	8
433.979	1	7
434.320	1	10
434.662	1	4
435.003	1	20
435.344	1	16
435.685	1	2
436.026	1	9
436.368	1	5
436.709	1	0
437.050	1	10
437.391	1	15
437.732	1	8
438.073	1	6
438.414	1	-1
438.756	1	1
439.097	1	0
439.438	1	12
439.779	1	7
440.120	1	3
440.461	1	15
440.802	1	6
441.143	1	-2
441.485	1	7
441.826	1	3
442.167	1	6
442.508	1	10
442.849	1	12
443.190	1	0
443.531	1	7
443.872	1	9
444.213	1	6
444.554	1	6
444.895	1	3
445.237	1	8
445.578	1	7
445.919	1	0
446.260	1	4
446.601	1	15
446.942	1	3
447.283	1	11
447.624	1	2
447.965	1	7
448.306	1	5
448.647	1	12
448.988	1	13
449.329	1	4
449.670	1	1
450.011	1	-1
450.352	1	9
450.693	1	8
451.034	1	5
451.375	1	13
451.716	1	-4
452.057	1	13
452.398	1	-12
452.739	1	9
453.080	1	3
453.421	1	5
453.762	1	3
454.103	1	12
454.444	1	3
454.785	1	13
455.126	1	1
455.467	1	7
455.808	1	14
456.149	1	3
456.490	1	5
456.831	1	8
457.172	1	7
457.513	1	-8
457.854	1	1
458.195	1	-8
458.536	1	-2
458.877	1	28
459.218	1	10
459.559	1	5
459.899	1	4
460.240	1	18
460.581	1	0
460.922	1	8
461.263	1	8
461.604	1	1
461.945	1	13
462.286	1	9
462.627	1	4
462.968	1	-2
463.309	1	3
463.649	1	-6
463.990	1	5
464.331	1	9
464.672	1	6
465.013	1	4
465.354	1	7
465.695	1	16
466.036	1	4
466.376	1	-1
466.717	1	7
467.058	1	1
467.399	1	3
467.740	1	17
468.081	1	12
468.422	1	14
468.762	1	6
469.103	1	9
469.444	1	1
469.785	1	12
470.126	1	-12
470.467	1	4
470.807	1	1
471.148	1	10
471.489	1	0
471.830	1	8
472.171	1	6
472.511	1	0
472.852	1	10
473.193	1	-1
473.534	1	13
473.875	1	17
474.215	1	-1
474.556	1	6
474.897	1	-5
475.238	1	8
475.578	1	5
475.919	1	-2
476.260	1	1
476.601	1	7
476.942	1	6
477.282	1	10
477.623	1	-6
477.964	1	6
478.305	1	11
478.645	1	3
478.986	1	-5
479.327	1	0
479.667	1	4
480.008	1	-3
480.349	1	-5
480.690	1	5
481.030	1	4
481.371	1	8
481.712	1	11
482.053	1	-3
482.393	1	14
482.734	1	-1
483.075	1	21
483.415	1	2
483.756	1	2
484.097	1	-2
484.437	1	-1
484.778	1	10
485.119	1	16
485.459	1	-8
485.800	1	8
486.141	1	7
486.481	1	3
486.822	1	10
487.163	1	1
487.503	1	0
487.844	1	0
488.185	1	8
488.525	1	10
488.866	1	7
489.207	1	8
489.547	1	2
489.888	1	11
490.228	1	13
490.569	1	5
490.910	1	-8
491.250	1	8
491.591	1	-1
491.932	1	3
492.272	1	8
492.613	1	-3
492.953	1	8
493.294	1	16
493.635	1	10
493.975	1	19
494.316	1	9
494.656	1	2
494.997	1	4
495.337	1	10
495.678	1	4
496.019	1	-8
496.359	1	8
496.700	1	5
497.040	1	12
497.381	1	9
497.721	1	0
498.062	1	3
498.403	1	8
498.743	1	16
499.084	1	12
499.424	1	-8
499.765	1	9
500.105	1	13
500.446	1	13
500.786	1	5
501.127	1	5
501.467	1	4
501.808	1	-1
502.148	1	16
502.489	1	7
502.829	1	1
503.170	1	5
503.510	1	8
503.851	1	6
504.191	1	8
504.532	1	16
504.872	1	10
505.213	1	8
505.553	1	12
505.894	1	11
506.234	1	4
506.575	1	8
506.915	1	3
507.256	1	13
507.596	1	9
507.936	1	4
508.277	1	9
508.617	1	0
508.958	1	6
509.298	1	11
509.639	1	6
509.979	1	4
510.319	1	16
510.660	1	6
511.000	1	11
511.341	1	3
511.681	1	12
512.022	1	19
512.362	1	7
512.702	1	18
513.043	1	13
513.383	1	11
513.724	1	-4
514.064	1	4
514.404	1	12
514.745	1	14
515.085	1	19
515.425	1	8
515.766	1	14
516.106	1	10
516.447	1	0
516.787	1	13
517.127	1	14
517.468	1	8
517.808	1	5
518.148	1	10
518.489	1	13
518.829	1	11
519.169	1	15
519.510	1	9
519.850	1	16
520.190	1	15
520.531	1	17
520.871	1	3
521.211	1	19
521.552	1	13
521.892	1	10
522.232	1	4
522.573	1	12
522.913	1	12
523.253	1	7
523.593	1	24
523.934	1	3
524.274	1	14
524.614	1	12
524.955	1	17
525.295	1	4
525.635	1	-1
525.975	1	15
526.316	1	9
526.656	1	26
526.996	1	16
527.337	1	7
527.677	1	10
528.017	1	11
528.357	1	20
528.698	1	2
529.038	1	5
529.378	1	14
529.718	1	12
530.058	1	4
530.399	1	10
530.739	1	14
531.079	1	13
531.419	1	15
531.760	1	8
532.100	1	18
532.440	1	17
532.780	1	6
533.120	1	10
533.461	1	10
533.801	1	14
534.141	1	5
534.481	1	11
534.821	1	19
535.162	1	14
535.502	1	8
535.842	1	7
536.182	1	12
536.522	1	-1
536.862	1	17
537.203	1	10
537.543	1	20
537.883	1	13
538.223	1	16
538.563	1	4
538.903	1	23
539.243	1	11
539.584	1	12
539.924	1	10
540.264	1	9
540.604	1	18
540.944	1	9
541.284	1	10
541.624	1	15
541.964	1	9
542.305	1	8
542.645	1	11
542.985	1	8
543.325	1	13
543.665	1	19
544.005	1	22
544.345	1	17
544.685	1	15
545.025	1	8
545.365	1	22
545.705	1	-3
546.045	1	10
546.386	1	11
546.726	1	8
547.066	1	15
547.406	1	-1
547.746	1	7
548.086	1	3
548.426	1	8
548.766	1	11
549.106	1	7
549.446	1	7
549.786	1	13
550.126	1	12
550.466	1	17
550.806	1	13
551.146	1	10
551.486	1	3
551.826	1	15
552.166	1	12
552.506	1	9
552.846	1	6
553.186	1	6
553.526	1	13
553.866	1	4
554.206	1	3
554.546	1	12
554.886	1	11
555.226	1	15
555.566	1	16
555.906	1	6
556.246	1	2
556.586	1	13
556.926	1	16
557.266	1	2
557.606	1	-1
557.946	1	13
558.286	1	22
558.626	1	1
558.966	1	8
559.306	1	3
559.646	1	8
559.986	1	3
560.325	1	4
560.665	1	2
561.005	1	5
561.345	1	12
561.685	1	13
562.025	1	0
562.365	1	15
562.705	1	11
563.045	1	6
563.385	1	13
563.725	1	2
564.064	1	16
564.404	1	6
564.744	1	5
565.084	1	4
565.424	1	-4
565.764	1	12
566.104	1	2
566.444	1	4
566.783	1	9
567.123	1	7
567.463	1	5
567.803	1	19
568.143	1	25
568.483	1	8
568.823	1	1
569.162	1	3
569.502	1	6
569.842	1	-7
570.182	1	9
570.522	1	-15
570.862	1	26
571.201	1	3
571.541	1	0
571.881	1	5
572.221	1	6
572.561	1	8
572.900	1	3
573.240	1	7
573.580	1	5
573.920	1	16
574.260	1	8
574.599	1	11
574.939	1	16
575.279	1	-3
575.619	1	15
575.959	1	-6
576.298	1	4
576.638	1	-5
576.978	1	-9
577.318	1	1
577.657	1	18
577.997	1	11
578.337	1	-1
578.677	1	13
579.016	1	7
579.356	1	10
579.696	1	-1
580.036	1	5
580.375	1	-1
580.715	1	12
581.055	1	5
581.394	1	13
581.734	1	4
582.074	1	0
582.414	1	4
582.753	1	4
583.093	1	12
583.433	1	8
583.772	1	7
584.112	1	14
584.452	1	10
584.791	1	4
585.131	1	15
585.471	1	8
585.811	1	4
586.150	1	7
586.490	1	4
586.830	1	-5
587.169	1	14
587.509	1	11
587.849	1	13
588.188	1	10
588.528	1	11
588.867	1	9
589.207	1	0
589.547	1	-4
589.886	1	13
590.226	1	17
590.566	1	8
590.905	1	9
591.245	1	2
591.585	1	5
591.924	1	7
592.264	1	9
592.603	1	1
592.943	1	1
593.283	1	1
593.622	1	8
593.962	1	6
594.301	1	-7
594.641	1	-2
594.981	1	-6
595.320	1	4
595.660	1	-4
595.999	1	8
596.339	1	19
596.678	1	5
597.018	1	10
597.358	1	-3
597.697	1	1
598.037	1	5
598.376	1	-2
598.716	1	8
599.055	1	2
599.395	1	4
599.734	1	12
600.074	1	4
600.413	1	18
600.753	1	-6
601.092	1	2
601.432	1	-11
601.771	1	8
602.111	1	-3
602.451	1	2
602.790	1	3
603.130	1	0
603.469	1	4
603.809	1	2
604.148	1	4
604.487	1	8
604.827	1	10
605.166	1	9
605.506	1	-4
605.845	1	6
606.185	1	3
606.524	1	6
606.864	1	6
607.203	1	-2
607.543	1	4
607.882	1	7
608.222	1	-10
608.561	1	8
608.901	1	1
609.240	1	1
609.579	1	10
609.919	1	11
610.258	1	-5
610.598	1	4
610.937	1	8
611.277	1	8
611.616	1	0
611.955	1	7
612.295	1	11
612.634	1	2
612.974	1	14
613.313	1	4
613.652	1	1
613.992	1	2
614.331	1	3
614.671	1	7
615.010	1	0
615.349	1	1
615.689	1	15
616.028	1	6
616.368	1	7
616.707	1	10
617.046	1	10
617.386	1	-3
617.725	1	3
618.064	1	-1
618.404	1	-2
618.743	1	2
619.082	1	3
619.422	1	5
619.761	1	12
620.100	1	-5
620.440	1	-1
620.779	1	4
621.118	1	4
621.458	1	4
621.797	1	0
622.136	1	4
622.476	1	10
622.815	1	4
623.154	1	7
623.494	1	8
623.833	1	10
624.172	1	4
624.511	1	5
624.851	1	-3
625.190	1	2
625.529	1	3
625.869	1	2
626.208	1	-4
626.547	1	7
626.886	1	4
627.226	1	5
627.565	1	6
627.904	1	6
628.243	1	3
628.583	1	-10
628.922	1	2
629.261	1	-12
629.600	1	4
629.940	1	15
630.279	1	18
630.618	1	0
630.957	1	4
631.297	1	0
631.636	1	13
631.975	1	4
632.314	1	1
632.653	1	-7
632.993	1	0
633.332	1	-3
633.671	1	6
634.010	1	0
634.349	1	-1
634.689	1	4
635.028	1	1
635.367	1	11
635.706	1	-2
636.045	1	19
636.384	1	3
636.724	1	7
637.063	1	-1
637.402	1	-3
637.741	1	1
638.080	1	6
638.419	1	6
638.759	1	0
639.098	1	5
639.437	1	9
639.776	1	5
640.115	1	17
640.454	1	7
640.793	1	-6
641.132	1	14
641.472	1	-6
641.811	1	9
642.150	1	-8
642.489	1	-3
642.828	1	5
643.167	1	14
643.506	1	19
643.845	1	-1
644.184	1	-7
644.524	1	0
644.863	1	0
645.202	1	9
645.541	1	9
645.880	1	14
646.219	1	1
646.558	1	2
646.897	1	-4
647.236	1	-3
647.575	1	0
647.914	1	0
648.253	1	9
648.592	1	-2
648.931	1	1
649.270	1	-2
649.610	1	11
649.949	1	3
650.288	1	7
650.627	1	-2
650.966	1	5
651.305	1	7
651.644	1	0
651.983	1	-14
652.322	1	7
652.661	1	-2
653.000	1	3
653.339	1	1
653.678	1	-1
654.017	1	-2
654.356	1	3
654.695	1	5
655.034	1	0
655.373	1	13
655.712	1	-1
656.051	1	4
656.390	1	4
656.729	1	3
657.068	1	-1
657.406	1	5
657.745	1	-1
658.084	1	2
658.423	1	5
658.762	1	16
659.101	1	8
659.440	1	0
659.779	1	10
660.118	1	-6
660.457	1	-1
660.796	1	6
661.135	1	7
661.474	1	12
661.813	1	-1
662.152	1	4
662.491	1	11
662.829	1	10
663.168	1	-8
663.507	1	-4
663.846	1	2
664.185	1	3
664.524	1	5
664.863	1	12
665.202	1	1
665.541	1	-8
665.879	1	1
666.218	1	2
666.557	1	-1
666.896	1	2
667.235	1	8
667.574	1	18
667.913	1	2
668.251	1	5
668.590	1	10
668.929	1	4
669.268	1	7
669.607	1	8
669.946	1	14
670.285	1	6
670.623	1	11
670.962	1	-2
671.301	1	3
671.640	1	-11
671.979	1	-1
672.317	1	3
672.656	1	-1
672.995	1	9
673.334	1	-4
673.673	1	7
674.011	1	2
674.350	1	5
674.689	1	4
675.028	1	11
675.367	1	-2
675.705	1	12
676.044	1	4
676.383	1	3
676.722	1	-5
677.060	1	5
677.399	1	-2
677.738	1	2
678.077	1	9
678.416	1	12
678.754	1	6
679.093	1	8
679.432	1	9
679.771	1	-3
680.109	1	4
680.448	1	6
680.787	1	-2
681.125	1	10
681.464	1	2
681.803	1	1
682.142	1	-6
682.480	1	8
682.819	1	2
683.158	1	-1
683.496	1	-3
683.835	1	3
684.174	1	13
684.512	1	17
684.851	1	-1
685.190	1	1
685.529	1	3
685.867	1	-1
686.206	1	7
686.545	1	0
686.883	1	2
687.222	1	7
687.561	1	7
687.899	1	2
688.238	1	11
688.577	1	7
688.746	1	9