File: Data/GaN_130K_350ms/GaN_sample F_spot6_UVVIS_130 K_200um_350 ms 2x2mm1_178.txt
340.368	1	10
340.710	1	7
341.052	1	-1
341.394	1	-2
341.737	1	4
342.079	1	10
342.421	1	6
342.763	1	2
343.105	1	4
343.447	1	7
343.789	1	4
344.131	1	2
344.473	1	1
344.815	1	-8
345.157	1	-9
345.499	1	2
345.841	1	-7
346.183	1	-5
346.526	1	1
346.868	1	3
347.210	1	2
347.552	1	4
347.894	1	-5
348.236	1	-6
348.578	1	3
348.920	1	2
349.262	1	2
349.604	1	-3
349.946	1	0
350.288	1	-8
350.630	1	9
350.972	1	8
351.314	1	1
351.656	1	1
351.998	1	8
352.340	1	11
352.682	1	0
353.024	1	2
353.366	1	12
353.708	1	4
354.050	1	6
354.392	1	11
354.734	1	3
355.076	1	5
355.418	1	7
355.760	1	12
356.102	1	-2
356.444	1	-5
356.785	1	16
357.127	1	10
357.469	1	3
357.811	1	3
358.153	1	1
358.495	1	7
358.837	1	8
359.179	1	13
359.521	1	-1
359.863	1	10
360.205	1	4
360.547	1	-2
360.889	1	8
361.231	1	-1
361.572	1	9
361.914	1	12
362.256	1	4
362.598	1	16
362.940	1	10
363.282	1	11
363.624	1	17
363.966	1	20
364.308	1	18
364.649	1	19
364.991	1	21
365.333	1	8
365.675	1	20
366.017	1	22
366.359	1	24
366.701	1	31
367.042	1	21
367.384	1	27
367.726	1	22
368.068	1	17
368.410	1	28
368.752	1	29
369.093	1	27
369.435	1	29
369.777	1	16
370.119	1	23
370.461	1	33
370.803	1	10
371.144	1	24
371.486	1	18
371.828	1	15
372.170	1	15
372.512	1	14
372.853	1	9
373.195	1	16
373.537	1	9
373.879	1	13
374.220	1	12
374.562	1	11
374.904	1	11
375.246	1	14
375.588	1	17
375.929	1	1
376.271	1	17
376.613	1	8
376.955	1	5
377.296	1	-3
377.638	1	-1
377.980	1	7
378.321	1	13
378.663	1	15
379.005	1	15
379.347	1	9
379.688	1	6
380.030	1	15
380.372	1	15
380.714	1	27
381.055	1	9
381.397	1	10
381.739	1	12
382.080	1	9
382.422	1	18
382.764	1	7
383.105	1	4
383.447	1	8
383.789	1	10
384.130	1	11
384.472	1	7
384.814	1	9
385.156	1	-1
385.497	1	7
385.839	1	11
386.180	1	7
386.522	1	6
386.864	1	22
387.205	1	9
387.547	1	6
387.889	1	4
388.230	1	9
388.572	1	15
388.914	1	8
389.255	1	2
389.597	1	-6
389.939	1	16
390.280	1	12
390.622	1	6
390.963	1	5
391.305	1	13
391.647	1	12
391.988	1	13
392.330	1	1
392.671	1	3
393.013	1	6
393.355	1	1
393.696	1	6
394.038	1	8
394.379	1	5
394.721	1	-1
395.062	1	0
395.404	1	-5
395.746	1	5
396.087	1	21
396.429	1	3
396.770	1	17
397.112	1	9
397.453	1	17
397.795	1	2
398.136	1	4
398.478	1	9
398.819	1	-10
399.161	1	6
399.503	1	22
399.844	1	-2
400.186	1	2
400.527	1	6
400.869	1	20
401.210	1	13
401.552	1	11
401.893	1	0
402.235	1	2
402.576	1	2
402.918	1	10
403.259	1	1
403.601	1	5
403.942	1	4
404.284	1	5
404.625	1	17
404.967	1	8
405.308	1	3
405.649	1	13
405.991	1	4
406.332	1	-1
406.674	1	13
407.015	1	9
407.357	1	8
407.698	1	4
408.040	1	15
408.381	1	11
408.722	1	5
409.064	1	0
409.405	1	5
409.747	1	7
410.088	1	10
410.430	1	18
410.771	1	-10
411.112	1	12
411.454	1	8
411.795	1	6
412.137	1	-2
412.478	1	4
412.819	1	17
413.161	1	6
413.502	1	11
413.844	1	9
414.185	1	14
414.526	1	10
414.868	1	-4
415.209	1	1
415.550	1	0
415.892	1	1
416.233	1	6
416.575	1	10
416.916	1	5
417.257	1	6
417.599	1	-2
417.940	1	13
418.281	1	-3
418.623	1	17
418.964	1	12
419.305	1	7
419.647	1	12
419.988	1	17
420.329	1	7
420.671	1	6
421.012	1	1
421.353	1	1
421.695	1	-5
422.036	1	13
422.377	1	7
422.718	1	13
423.060	1	3
423.401	1	8
423.742	1	2
424.084	1	8
424.425	1	10
424.766	1	7
425.107	1	12
425.449	1	10
425.790	1	14
426.131	1	16
426.472	1	3
426.814	1	1
427.155	1	1
427.496	1	9
427.837	1	14
428.179	1	12
428.520	1	13
428.861	1	2
429.202	1	4
429.544	1	10
429.885	1	8
430.226	1	2
430.567	1	7
430.909	1	13
431.250	1	10
431.591	1	7
431.932	1	3
432.273	1	12
432.615	1	10
432.956	1	-8
433.297	1	11
433.638	1	7
433.979	1	12
434.320	1	13
434.662	1	1
435.003	1	17
435.344	1	4
435.685	1	-11
436.026	1	9
436.368	1	0
436.709	1	2
437.050	1	13
437.391	1	17
437.732	1	9
438.073	1	14
438.414	1	0
438.756	1	2
439.097	1	2
439.438	1	5
439.779	1	9
440.120	1	6
440.461	1	12
440.802	1	-4
441.143	1	2
441.485	1	7
441.826	1	10
442.167	1	9
442.508	1	15
442.849	1	9
443.190	1	9
443.531	1	7
443.872	1	0
444.213	1	10
444.554	1	1
444.895	1	-1
445.237	1	-9
445.578	1	-7
445.919	1	-5
446.260	1	-2
446.601	1	12
446.942	1	4
447.283	1	7
447.624	1	0
447.965	1	5
448.306	1	7
448.647	1	28
448.988	1	13
449.329	1	-6
449.670	1	9
450.011	1	-3
450.352	1	7
450.693	1	-2
451.034	1	1
451.375	1	11
451.716	1	1
452.057	1	8
452.398	1	-6
452.739	1	3
453.080	1	2
453.421	1	8
453.762	1	6
454.103	1	5
454.444	1	10
454.785	1	8
455.126	1	6
455.467	1	7
455.808	1	20
456.149	1	-8
456.490	1	5
456.831	1	17
457.172	1	-3
457.513	1	2
457.854	1	-5
458.195	1	-7
458.536	1	8
458.877	1	17
459.218	1	9
459.559	1	5
459.899	1	10
460.240	1	12
460.581	1	6
460.922	1	10
461.263	1	11
461.604	1	0
461.945	1	11
462.286	1	6
462.627	1	-2
462.968	1	7
463.309	1	20
463.649	1	-2
463.990	1	5
464.331	1	5
464.672	1	5
465.013	1	-6
465.354	1	3
465.695	1	2
466.036	1	-1
466.376	1	-4
466.717	1	13
467.058	1	6
467.399	1	6
467.740	1	26
468.081	1	15
468.422	1	12
468.762	1	-3
469.103	1	2
469.444	1	-4
469.785	1	11
470.126	1	-1
470.467	1	9
470.807	1	7
471.148	1	2
471.489	1	7
471.830	1	7
472.171	1	3
472.511	1	1
472.852	1	8
473.193	1	8
473.534	1	8
473.875	1	9
474.215	1	1
474.556	1	8
474.897	1	-6
475.238	1	17
475.578	1	-1
475.919	1	-7
476.260	1	2
476.601	1	3
476.942	1	17
477.282	1	4
477.623	1	-2
477.964	1	-9
478.305	1	14
478.645	1	0
478.986	1	6
479.327	1	-8
479.667	1	-1
480.008	1	-2
480.349	1	2
480.690	1	-1
481.030	1	2
481.371	1	11
481.712	1	13
482.053	1	4
482.393	1	14
482.734	1	4
483.075	1	18
483.415	1	-3
483.756	1	9
484.097	1	10
484.437	1	1
484.778	1	12
485.119	1	6
485.459	1	-6
485.800	1	9
486.141	1	5
486.481	1	2
486.822	1	7
487.163	1	3
487.503	1	-5
487.844	1	4
488.185	1	11
488.525	1	7
488.866	1	4
489.207	1	1
489.547	1	7
489.888	1	9
490.228	1	1
490.569	1	6
490.910	1	11
491.250	1	6
491.591	1	-1
491.932	1	0
492.272	1	-2
492.613	1	1
492.953	1	2
493.294	1	7
493.635	1	15
493.975	1	9
494.316	1	0
494.656	1	1
494.997	1	7
495.337	1	-3
495.678	1	0
496.019	1	-5
496.359	1	16
496.700	1	6
497.040	1	14
497.381	1	9
497.721	1	10
498.062	1	6
498.403	1	-5
498.743	1	7
499.084	1	1
499.424	1	-11
499.765	1	4
500.105	1	6
500.446	1	8
500.786	1	9
501.127	1	7
501.467	1	1
501.808	1	2
502.148	1	-2
502.489	1	3
502.829	1	2
503.170	1	6
503.510	1	10
503.851	1	-2
504.191	1	8
504.532	1	10
504.872	1	9
505.213	1	5
505.553	1	1
505.894	1	10
506.234	1	5
506.575	1	-7
506.915	1	15
507.256	1	14
507.596	1	1
507.936	1	7
508.277	1	6
508.617	1	1
508.958	1	6
509.298	1	-1
509.639	1	13
509.979	1	7
510.319	1	15
510.660	1	0
511.000	1	10
511.341	1	-8
511.681	1	11
512.022	1	6
512.362	1	6
512.702	1	14
513.043	1	25
513.383	1	10
513.724	1	-4
514.064	1	6
514.404	1	18
514.745	1	11
515.085	1	4
515.425	1	0
515.766	1	16
516.106	1	6
516.447	1	-6
516.787	1	14
517.127	1	5
517.468	1	5
517.808	1	2
518.148	1	15
518.489	1	7
518.829	1	16
519.169	1	8
519.510	1	2
519.850	1	20
520.190	1	14
520.531	1	15
520.871	1	-4
521.211	1	15
521.552	1	13
521.892	1	9
522.232	1	4
522.573	1	3
522.913	1	12
523.253	1	18
523.593	1	17
523.934	1	2
524.274	1	9
524.614	1	13
524.955	1	11
525.295	1	5
525.635	1	4
525.975	1	20
526.316	1	4
526.656	1	0
526.996	1	8
527.337	1	17
527.677	1	3
528.017	1	13
528.357	1	10
528.698	1	-1
529.038	1	-1
529.378	1	4
529.718	1	13
530.058	1	8
530.399	1	5
530.739	1	10
531.079	1	8
531.419	1	16
531.760	1	3
532.100	1	15
532.440	1	16
532.780	1	8
533.120	1	17
533.461	1	1
533.801	1	25
534.141	1	8
534.481	1	4
534.821	1	24
535.162	1	12
535.502	1	13
535.842	1	7
536.182	1	24
536.522	1	7
536.862	1	15
537.203	1	1
537.543	1	14
537.883	1	4
538.223	1	18
538.563	1	8
538.903	1	17
539.243	1	12
539.584	1	15
539.924	1	2
540.264	1	8
540.604	1	5
540.944	1	17
541.284	1	6
541.624	1	9
541.964	1	5
542.305	1	11
542.645	1	8
542.985	1	16
543.325	1	5
543.665	1	16
544.005	1	7
544.345	1	11
544.685	1	18
545.025	1	4
545.365	1	12
545.705	1	7
546.045	1	14
546.386	1	5
546.726	1	12
547.066	1	2
547.406	1	-8
547.746	1	10
548.086	1	-1
548.426	1	9
548.766	1	11
549.106	1	2
549.446	1	11
549.786	1	10
550.126	1	15
550.466	1	15
550.806	1	2
551.146	1	12
551.486	1	5
551.826	1	1
552.166	1	11
552.506	1	4
552.846	1	0
553.186	1	14
553.526	1	8
553.866	1	-5
554.206	1	12
554.546	1	2
554.886	1	3
555.226	1	9
555.566	1	10
555.906	1	1
556.246	1	10
556.586	1	7
556.926	1	17
557.266	1	7
557.606	1	8
557.946	1	2
558.286	1	19
558.626	1	-1
558.966	1	5
559.306	1	13
559.646	1	12
559.986	1	12
560.325	1	-4
560.665	1	11
561.005	1	2
561.345	1	20
561.685	1	9
562.025	1	6
562.365	1	8
562.705	1	10
563.045	1	4
563.385	1	9
563.725	1	-2
564.064	1	12
564.404	1	4
564.744	1	4
565.084	1	11
565.424	1	-3
565.764	1	9
566.104	1	6
566.444	1	14
566.783	1	10
567.123	1	14
567.463	1	5
567.803	1	10
568.143	1	19
568.483	1	2
568.823	1	0
569.162	1	11
569.502	1	5
569.842	1	1
570.182	1	1
570.522	1	-20
570.862	1	19
571.201	1	8
571.541	1	8
571.881	1	9
572.221	1	19
572.561	1	6
572.900	1	18
573.240	1	-5
573.580	1	-4
573.920	1	-1
574.260	1	6
574.599	1	8
574.939	1	11
575.279	1	0
575.619	1	7
575.959	1	11
576.298	1	0
576.638	1	7
576.978	1	5
577.318	1	8
577.657	1	11
577.997	1	8
578.337	1	8
578.677	1	11
579.016	1	3
579.356	1	6
579.696	1	-1
580.036	1	-1
580.375	1	-4
580.715	1	6
581.055	1	9
581.394	1	0
581.734	1	8
582.074	1	-6
582.414	1	-3
582.753	1	4
583.093	1	4
583.433	1	6
583.772	1	4
584.112	1	6
584.452	1	14
584.791	1	7
585.131	1	2
585.471	1	5
585.811	1	-5
586.150	1	17
586.490	1	6
586.830	1	-6
587.169	1	17
587.509	1	-3
587.849	1	11
588.188	1	9
588.528	1	11
588.867	1	3
589.207	1	-2
589.547	1	6
589.886	1	0
590.226	1	11
590.566	1	2
590.905	1	1
591.245	1	6
591.585	1	7
591.924	1	-6
592.264	1	9
592.603	1	4
592.943	1	5
593.283	1	-5
593.622	1	6
593.962	1	13
594.301	1	-2
594.641	1	1
594.981	1	-9
595.320	1	11
595.660	1	5
595.999	1	10
596.339	1	10
596.678	1	-3
597.018	1	0
597.358	1	2
597.697	1	3
598.037	1	4
598.376	1	-2
598.716	1	4
599.055	1	2
599.395	1	-3
599.734	1	1
600.074	1	1
600.413	1	7
600.753	1	3
601.092	1	7
601.432	1	-1
601.771	1	7
602.111	1	2
602.451	1	13
602.790	1	-4
603.130	1	9
603.469	1	8
603.809	1	-1
604.148	1	12
604.487	1	14
604.827	1	7
605.166	1	10
605.506	1	-2
605.845	1	-2
606.185	1	4
606.524	1	7
606.864	1	20
607.203	1	-5
607.543	1	5
607.882	1	6
608.222	1	-2
608.561	1	-3
608.901	1	8
609.240	1	-7
609.579	1	16
609.919	1	8
610.258	1	4
610.598	1	9
610.937	1	5
611.277	1	5
611.616	1	-5
611.955	1	0
612.295	1	9
612.634	1	-6
612.974	1	9
613.313	1	2
613.652	1	3
613.992	1	0
614.331	1	5
614.671	1	-1
615.010	1	1
615.349	1	0
615.689	1	7
616.028	1	8
616.368	1	7
616.707	1	14
617.046	1	7
617.386	1	-2
617.725	1	7
618.064	1	7
618.404	1	7
618.743	1	13
619.082	1	8
619.422	1	8
619.761	1	2
620.100	1	-2
620.440	1	9
620.779	1	7
621.118	1	1
621.458	1	9
621.797	1	1
622.136	1	-1
622.476	1	6
622.815	1	-3
623.154	1	7
623.494	1	7
623.833	1	14
624.172	1	2
624.511	1	-1
624.851	1	3
625.190	1	2
625.529	1	4
625.869	1	10
626.208	1	1
626.547	1	0
626.886	1	3
627.226	1	0
627.565	1	4
627.904	1	5
628.243	1	4
628.583	1	-13
628.922	1	-6
629.261	1	-10
629.600	1	5
629.940	1	7
630.279	1	4
630.618	1	-5
630.957	1	0
631.297	1	-3
631.636	1	6
631.975	1	3
632.314	1	9
632.653	1	2
632.993	1	16
633.332	1	-1
633.671	1	-6
634.010	1	-6
634.349	1	6
634.689	1	14
635.028	1	8
635.367	1	5
635.706	1	2
636.045	1	22
636.384	1	-3
636.724	1	9
637.063	1	-3
637.402	1	-4
637.741	1	7
638.080	1	17
638.419	1	7
638.759	1	5
639.098	1	-4
639.437	1	9
639.776	1	7
640.115	1	12
640.454	1	4
640.793	1	-6
641.132	1	12
641.472	1	6
641.811	1	1
642.150	1	4
642.489	1	-1
642.828	1	5
643.167	1	5
643.506	1	13
643.845	1	-7
644.184	1	-5
644.524	1	5
644.863	1	0
645.202	1	-1
645.541	1	6
645.880	1	16
646.219	1	13
646.558	1	8
646.897	1	-1
647.236	1	-2
647.575	1	-6
647.914	1	-11
648.253	1	5
648.592	1	-1
648.931	1	-1
649.270	1	-1
649.610	1	3
649.949	1	3
650.288	1	8
650.627	1	12
650.966	1	4
651.305	1	1
651.644	1	0
651.983	1	-2
652.322	1	0
652.661	1	4
653.000	1	2
653.339	1	-11
653.678	1	0
654.017	1	0
654.356	1	7
654.695	1	2
655.034	1	1
655.373	1	2
655.712	1	4
656.051	1	11
656.390	1	-1
656.729	1	2
657.068	1	-2
657.406	1	6
657.745	1	-7
658.084	1	-3
658.423	1	4
658.762	1	20
659.101	1	7
659.440	1	-2
659.779	1	3
660.118	1	2
660.457	1	2
660.796	1	12
661.135	1	4
661.474	1	6
661.813	1	-5
662.152	1	-1
662.491	1	14
662.829	1	16
663.168	1	-1
663.507	1	10
663.846	1	-2
664.185	1	0
664.524	1	-4
664.863	1	7
665.202	1	3
665.541	1	-2
665.879	1	3
666.218	1	5
666.557	1	5
666.896	1	8
667.235	1	5
667.574	1	14
667.913	1	6
668.251	1	5
668.590	1	8
668.929	1	5
669.268	1	4
669.607	1	-1
669.946	1	6
670.285	1	4
670.623	1	3
670.962	1	-6
671.301	1	1
671.640	1	2
671.979	1	7
672.317	1	5
672.656	1	-4
672.995	1	2
673.334	1	-9
673.673	1	0
674.011	1	7
674.350	1	10
674.689	1	9
675.028	1	9
675.367	1	4
675.705	1	15
676.044	1	4
676.383	1	4
676.722	1	-2
677.060	1	5
677.399	1	-4
677.738	1	2
678.077	1	6
678.416	1	1
678.754	1	11
679.093	1	8
679.432	1	5
679.771	1	12
680.109	1	0
680.448	1	5
680.787	1	6
681.125	1	19
681.464	1	-2
681.803	1	1
682.142	1	-4
682.480	1	10
682.819	1	4
683.158	1	1
683.496	1	-1
683.835	1	-12
684.174	1	3
684.512	1	6
684.851	1	1
685.190	1	6
685.529	1	-4
685.867	1	7
686.206	1	6
686.545	1	6
686.883	1	-2
687.222	1	5
687.561	1	16
687.899	1	-1
688.238	1	5
688.577	1	-3
688.746	1	3