File: Data/GaN_130K_350ms/GaN_sample F_spot6_UVVIS_130 K_200um_350 ms 2x2mm1_231.txt
340.368	1	8
340.710	1	5
341.052	1	1
341.394	1	-4
341.737	1	5
342.079	1	-8
342.421	1	1
342.763	1	3
343.105	1	10
343.447	1	16
343.789	1	4
344.131	1	6
344.473	1	2
344.815	1	-4
345.157	1	-9
345.499	1	2
345.841	1	0
346.183	1	2
346.526	1	1
346.868	1	2
347.210	1	0
347.552	1	2
347.894	1	2
348.236	1	5
348.578	1	-8
348.920	1	6
349.262	1	7
349.604	1	-1
349.946	1	6
350.288	1	-1
350.630	1	11
350.972	1	7
351.314	1	-1
351.656	1	7
351.998	1	4
352.340	1	9
352.682	1	-1
353.024	1	1
353.366	1	6
353.708	1	-8
354.050	1	-3
354.392	1	15
354.734	1	-1
355.076	1	-2
355.418	1	8
355.760	1	7
356.102	1	-4
356.444	1	-5
356.785	1	12
357.127	1	5
357.469	1	-5
357.811	1	7
358.153	1	1
358.495	1	10
358.837	1	1
359.179	1	9
359.521	1	0
359.863	1	12
360.205	1	6
360.547	1	1
360.889	1	-5
361.231	1	-12
361.572	1	7
361.914	1	7
362.256	1	3
362.598	1	-3
362.940	1	-1
363.282	1	15
363.624	1	8
363.966	1	15
364.308	1	14
364.649	1	9
364.991	1	9
365.333	1	3
365.675	1	12
366.017	1	14
366.359	1	15
366.701	1	11
367.042	1	17
367.384	1	22
367.726	1	13
368.068	1	6
368.410	1	5
368.752	1	20
369.093	1	11
369.435	1	0
369.777	1	18
370.119	1	18
370.461	1	10
370.803	1	17
371.144	1	11
371.486	1	9
371.828	1	11
372.170	1	9
372.512	1	16
372.853	1	10
373.195	1	2
373.537	1	5
373.879	1	8
374.220	1	7
374.562	1	2
374.904	1	15
375.246	1	11
375.588	1	3
375.929	1	5
376.271	1	9
376.613	1	3
376.955	1	12
377.296	1	1
377.638	1	-6
377.980	1	-6
378.321	1	5
378.663	1	7
379.005	1	25
379.347	1	6
379.688	1	-1
380.030	1	5
380.372	1	8
380.714	1	12
381.055	1	-5
381.397	1	1
381.739	1	7
382.080	1	-6
382.422	1	21
382.764	1	0
383.105	1	0
383.447	1	4
383.789	1	9
384.130	1	-1
384.472	1	13
384.814	1	1
385.156	1	2
385.497	1	-2
385.839	1	6
386.180	1	9
386.522	1	0
386.864	1	7
387.205	1	9
387.547	1	-1
387.889	1	1
388.230	1	2
388.572	1	-1
388.914	1	1
389.255	1	8
389.597	1	-4
389.939	1	8
390.280	1	6
390.622	1	6
390.963	1	5
391.305	1	12
391.647	1	5
391.988	1	12
392.330	1	-2
392.671	1	-5
393.013	1	0
393.355	1	2
393.696	1	2
394.038	1	12
394.379	1	3
394.721	1	2
395.062	1	9
395.404	1	-6
395.746	1	8
396.087	1	4
396.429	1	10
396.770	1	6
397.112	1	3
397.453	1	17
397.795	1	-6
398.136	1	6
398.478	1	8
398.819	1	-8
399.161	1	11
399.503	1	15
399.844	1	3
400.186	1	2
400.527	1	4
400.869	1	12
401.210	1	-7
401.552	1	7
401.893	1	-4
402.235	1	8
402.576	1	8
402.918	1	12
403.259	1	-2
403.601	1	12
403.942	1	4
404.284	1	6
404.625	1	15
404.967	1	6
405.308	1	11
405.649	1	9
405.991	1	3
406.332	1	11
406.674	1	17
407.015	1	4
407.357	1	-3
407.698	1	4
408.040	1	13
408.381	1	11
408.722	1	9
409.064	1	-1
409.405	1	8
409.747	1	3
410.088	1	12
410.430	1	11
410.771	1	-11
411.112	1	9
411.454	1	6
411.795	1	6
412.137	1	-2
412.478	1	7
412.819	1	6
413.161	1	16
413.502	1	17
413.844	1	1
414.185	1	20
414.526	1	12
414.868	1	-1
415.209	1	4
415.550	1	9
415.892	1	10
416.233	1	9
416.575	1	10
416.916	1	-2
417.257	1	8
417.599	1	5
417.940	1	10
418.281	1	4
418.623	1	8
418.964	1	3
419.305	1	3
419.647	1	10
419.988	1	14
420.329	1	4
420.671	1	3
421.012	1	4
421.353	1	1
421.695	1	0
422.036	1	7
422.377	1	6
422.718	1	2
423.060	1	7
423.401	1	7
423.742	1	2
424.084	1	4
424.425	1	2
424.766	1	3
425.107	1	1
425.449	1	9
425.790	1	20
426.131	1	13
426.472	1	-4
426.814	1	1
427.155	1	-3
427.496	1	7
427.837	1	5
428.179	1	7
428.520	1	10
428.861	1	0
429.202	1	8
429.544	1	17
429.885	1	6
430.226	1	6
430.567	1	4
430.909	1	13
431.250	1	11
431.591	1	-1
431.932	1	7
432.273	1	12
432.615	1	12
432.956	1	-1
433.297	1	13
433.638	1	8
433.979	1	8
434.320	1	8
434.662	1	-1
435.003	1	12
435.344	1	5
435.685	1	-5
436.026	1	7
436.368	1	6
436.709	1	1
437.050	1	6
437.391	1	11
437.732	1	3
438.073	1	8
438.414	1	-2
438.756	1	6
439.097	1	13
439.438	1	8
439.779	1	14
440.120	1	7
440.461	1	13
440.802	1	-8
441.143	1	-4
441.485	1	11
441.826	1	-5
442.167	1	3
442.508	1	2
442.849	1	10
443.190	1	0
443.531	1	7
443.872	1	13
444.213	1	13
444.554	1	2
444.895	1	9
445.237	1	3
445.578	1	-2
445.919	1	1
446.260	1	0
446.601	1	7
446.942	1	4
447.283	1	7
447.624	1	7
447.965	1	7
448.306	1	-5
448.647	1	10
448.988	1	3
449.329	1	-6
449.670	1	3
450.011	1	2
450.352	1	4
450.693	1	2
451.034	1	-5
451.375	1	10
451.716	1	-1
452.057	1	13
452.398	1	5
452.739	1	3
453.080	1	10
453.421	1	10
453.762	1	10
454.103	1	2
454.444	1	5
454.785	1	13
455.126	1	-1
455.467	1	6
455.808	1	15
456.149	1	-2
456.490	1	9
456.831	1	4
457.172	1	4
457.513	1	7
457.854	1	-1
458.195	1	-5
458.536	1	3
458.877	1	23
459.218	1	7
459.559	1	3
459.899	1	4
460.240	1	2
460.581	1	-1
460.922	1	5
461.263	1	7
461.604	1	-14
461.945	1	11
462.286	1	10
462.627	1	-5
462.968	1	2
463.309	1	2
463.649	1	-2
463.990	1	0
464.331	1	12
464.672	1	5
465.013	1	-4
465.354	1	5
465.695	1	7
466.036	1	13
466.376	1	8
466.717	1	9
467.058	1	3
467.399	1	-3
467.740	1	12
468.081	1	10
468.422	1	-5
468.762	1	0
469.103	1	2
469.444	1	-2
469.785	1	13
470.126	1	-6
470.467	1	5
470.807	1	4
471.148	1	-1
471.489	1	7
471.830	1	4
472.171	1	5
472.511	1	0
472.852	1	12
473.193	1	4
473.534	1	0
473.875	1	14
474.215	1	4
474.556	1	5
474.897	1	-4
475.238	1	11
475.578	1	-4
475.919	1	-5
476.260	1	6
476.601	1	3
476.942	1	4
477.282	1	0
477.623	1	-5
477.964	1	-4
478.305	1	11
478.645	1	7
478.986	1	-2
479.327	1	-4
479.667	1	12
480.008	1	0
480.349	1	5
480.690	1	-5
481.030	1	6
481.371	1	7
481.712	1	-1
482.053	1	0
482.393	1	18
482.734	1	8
483.075	1	11
483.415	1	3
483.756	1	3
484.097	1	0
484.437	1	5
484.778	1	2
485.119	1	11
485.459	1	-4
485.800	1	7
486.141	1	-3
486.481	1	-3
486.822	1	8
487.163	1	3
487.503	1	-10
487.844	1	-3
488.185	1	5
488.525	1	7
488.866	1	2
489.207	1	-6
489.547	1	4
489.888	1	8
490.228	1	14
490.569	1	9
490.910	1	-7
491.250	1	10
491.591	1	-4
491.932	1	4
492.272	1	0
492.613	1	-11
492.953	1	4
493.294	1	7
493.635	1	5
493.975	1	15
494.316	1	6
494.656	1	5
494.997	1	3
495.337	1	0
495.678	1	-1
496.019	1	-14
496.359	1	7
496.700	1	0
497.040	1	7
497.381	1	-3
497.721	1	3
498.062	1	-6
498.403	1	-11
498.743	1	17
499.084	1	7
499.424	1	-6
499.765	1	-6
500.105	1	11
500.446	1	8
500.786	1	7
501.127	1	4
501.467	1	6
501.808	1	8
502.148	1	5
502.489	1	6
502.829	1	1
503.170	1	-4
503.510	1	4
503.851	1	-2
504.191	1	3
504.532	1	1
504.872	1	1
505.213	1	0
505.553	1	6
505.894	1	6
506.234	1	6
506.575	1	-5
506.915	1	-9
507.256	1	5
507.596	1	0
507.936	1	2
508.277	1	-1
508.617	1	6
508.958	1	9
509.298	1	5
509.639	1	11
509.979	1	3
510.319	1	13
510.660	1	2
511.000	1	14
511.341	1	-6
511.681	1	14
512.022	1	5
512.362	1	4
512.702	1	8
513.043	1	8
513.383	1	12
513.724	1	-1
514.064	1	0
514.404	1	14
514.745	1	1
515.085	1	14
515.425	1	1
515.766	1	13
516.106	1	3
516.447	1	1
516.787	1	6
517.127	1	-6
517.468	1	11
517.808	1	2
518.148	1	8
518.489	1	4
518.829	1	10
519.169	1	7
519.510	1	-2
519.850	1	16
520.190	1	13
520.531	1	2
520.871	1	-1
521.211	1	2
521.552	1	9
521.892	1	6
522.232	1	2
522.573	1	7
522.913	1	8
523.253	1	1
523.593	1	4
523.934	1	8
524.274	1	1
524.614	1	4
524.955	1	4
525.295	1	4
525.635	1	0
525.975	1	12
526.316	1	-5
526.656	1	4
526.996	1	0
527.337	1	12
527.677	1	1
528.017	1	11
528.357	1	6
528.698	1	-6
529.038	1	0
529.378	1	1
529.718	1	3
530.058	1	-2
530.399	1	4
530.739	1	7
531.079	1	7
531.419	1	3
531.760	1	0
532.100	1	7
532.440	1	9
532.780	1	9
533.120	1	6
533.461	1	0
533.801	1	12
534.141	1	10
534.481	1	3
534.821	1	14
535.162	1	4
535.502	1	3
535.842	1	12
536.182	1	18
536.522	1	-5
536.862	1	3
537.203	1	-2
537.543	1	5
537.883	1	3
538.223	1	9
538.563	1	8
538.903	1	14
539.243	1	-1
539.584	1	5
539.924	1	6
540.264	1	3
540.604	1	11
540.944	1	4
541.284	1	14
541.624	1	8
541.964	1	4
542.305	1	4
542.645	1	8
542.985	1	15
543.325	1	5
543.665	1	9
544.005	1	18
544.345	1	4
544.685	1	12
545.025	1	-3
545.365	1	4
545.705	1	0
546.045	1	4
546.386	1	6
546.726	1	0
547.066	1	4
547.406	1	-2
547.746	1	7
548.086	1	1
548.426	1	2
548.766	1	16
549.106	1	-9
549.446	1	2
549.786	1	7
550.126	1	15
550.466	1	17
550.806	1	12
551.146	1	3
551.486	1	7
551.826	1	6
552.166	1	14
552.506	1	-7
552.846	1	-3
553.186	1	6
553.526	1	3
553.866	1	-5
554.206	1	-5
554.546	1	9
554.886	1	4
555.226	1	10
555.566	1	-5
555.906	1	3
556.246	1	6
556.586	1	13
556.926	1	3
557.266	1	3
557.606	1	-4
557.946	1	3
558.286	1	12
558.626	1	-6
558.966	1	-2
559.306	1	2
559.646	1	9
559.986	1	10
560.325	1	-9
560.665	1	7
561.005	1	4
561.345	1	10
561.685	1	4
562.025	1	-1
562.365	1	8
562.705	1	8
563.045	1	0
563.385	1	4
563.725	1	3
564.064	1	9
564.404	1	12
564.744	1	5
565.084	1	7
565.424	1	3
565.764	1	8
566.104	1	4
566.444	1	8
566.783	1	11
567.123	1	-2
567.463	1	5
567.803	1	12
568.143	1	11
568.483	1	12
568.823	1	-1
569.162	1	10
569.502	1	9
569.842	1	1
570.182	1	-3
570.522	1	-5
570.862	1	19
571.201	1	6
571.541	1	-4
571.881	1	1
572.221	1	7
572.561	1	5
572.900	1	-2
573.240	1	2
573.580	1	1
573.920	1	2
574.260	1	13
574.599	1	5
574.939	1	3
575.279	1	-14
575.619	1	4
575.959	1	-3
576.298	1	3
576.638	1	-6
576.978	1	-4
577.318	1	-2
577.657	1	12
577.997	1	10
578.337	1	9
578.677	1	14
579.016	1	-1
579.356	1	4
579.696	1	-2
580.036	1	1
580.375	1	1
580.715	1	7
581.055	1	3
581.394	1	0
581.734	1	4
582.074	1	3
582.414	1	-2
582.753	1	-3
583.093	1	7
583.433	1	6
583.772	1	5
584.112	1	4
584.452	1	14
584.791	1	7
585.131	1	12
585.471	1	0
585.811	1	-7
586.150	1	6
586.490	1	6
586.830	1	-8
587.169	1	1
587.509	1	-1
587.849	1	1
588.188	1	9
588.528	1	9
588.867	1	7
589.207	1	0
589.547	1	6
589.886	1	10
590.226	1	14
590.566	1	10
590.905	1	-1
591.245	1	3
591.585	1	2
591.924	1	2
592.264	1	3
592.603	1	3
592.943	1	1
593.283	1	2
593.622	1	10
593.962	1	2
594.301	1	1
594.641	1	4
594.981	1	1
595.320	1	13
595.660	1	1
595.999	1	12
596.339	1	11
596.678	1	1
597.018	1	-2
597.358	1	-2
597.697	1	0
598.037	1	10
598.376	1	2
598.716	1	9
599.055	1	-1
599.395	1	-2
599.734	1	1
600.074	1	6
600.413	1	7
600.753	1	6
601.092	1	11
601.432	1	-3
601.771	1	11
602.111	1	-1
602.451	1	9
602.790	1	-2
603.130	1	14
603.469	1	0
603.809	1	1
604.148	1	6
604.487	1	6
604.827	1	-4
605.166	1	4
605.506	1	3
605.845	1	2
606.185	1	7
606.524	1	4
606.864	1	13
607.203	1	0
607.543	1	0
607.882	1	11
608.222	1	-7
608.561	1	-5
608.901	1	2
609.240	1	-10
609.579	1	10
609.919	1	8
610.258	1	-1
610.598	1	0
610.937	1	11
611.277	1	7
611.616	1	3
611.955	1	-10
612.295	1	12
612.634	1	-4
612.974	1	3
613.313	1	2
613.652	1	-8
613.992	1	-2
614.331	1	-3
614.671	1	5
615.010	1	3
615.349	1	5
615.689	1	6
616.028	1	10
616.368	1	-2
616.707	1	8
617.046	1	2
617.386	1	2
617.725	1	0
618.064	1	6
618.404	1	1
618.743	1	4
619.082	1	6
619.422	1	0
619.761	1	7
620.100	1	1
620.440	1	11
620.779	1	3
621.118	1	-2
621.458	1	6
621.797	1	-10
622.136	1	8
622.476	1	0
622.815	1	3
623.154	1	5
623.494	1	4
623.833	1	9
624.172	1	5
624.511	1	2
624.851	1	3
625.190	1	-2
625.529	1	-3
625.869	1	3
626.208	1	1
626.547	1	3
626.886	1	-2
627.226	1	0
627.565	1	-1
627.904	1	10
628.243	1	2
628.583	1	-12
628.922	1	-4
629.261	1	0
629.600	1	9
629.940	1	13
630.279	1	14
630.618	1	-1
630.957	1	6
631.297	1	5
631.636	1	6
631.975	1	2
632.314	1	6
632.653	1	5
632.993	1	14
633.332	1	2
633.671	1	-7
634.010	1	-6
634.349	1	11
634.689	1	9
635.028	1	4
635.367	1	1
635.706	1	0
636.045	1	10
636.384	1	1
636.724	1	10
637.063	1	5
637.402	1	-3
637.741	1	10
638.080	1	8
638.419	1	10
638.759	1	-3
639.098	1	-8
639.437	1	-5
639.776	1	1
640.115	1	10
640.454	1	11
640.793	1	-6
641.132	1	13
641.472	1	6
641.811	1	-2
642.150	1	-10
642.489	1	-9
642.828	1	2
643.167	1	4
643.506	1	7
643.845	1	-7
644.184	1	6
644.524	1	-3
644.863	1	8
645.202	1	14
645.541	1	6
645.880	1	13
646.219	1	4
646.558	1	-4
646.897	1	5
647.236	1	-4
647.575	1	-3
647.914	1	-7
648.253	1	5
648.592	1	1
648.931	1	-3
649.270	1	-3
649.610	1	3
649.949	1	9
650.288	1	7
650.627	1	0
650.966	1	4
651.305	1	3
651.644	1	7
651.983	1	-8
652.322	1	-2
652.661	1	-1
653.000	1	4
653.339	1	3
653.678	1	-3
654.017	1	-2
654.356	1	-1
654.695	1	-8
655.034	1	-5
655.373	1	16
655.712	1	2
656.051	1	8
656.390	1	4
656.729	1	3
657.068	1	4
657.406	1	5
657.745	1	-1
658.084	1	-1
658.423	1	1
658.762	1	9
659.101	1	12
659.440	1	-6
659.779	1	10
660.118	1	-2
660.457	1	-4
660.796	1	5
661.135	1	4
661.474	1	12
661.813	1	0
662.152	1	1
662.491	1	11
662.829	1	12
663.168	1	-5
663.507	1	1
663.846	1	2
664.185	1	0
664.524	1	-8
664.863	1	5
665.202	1	2
665.541	1	6
665.879	1	0
666.218	1	2
666.557	1	4
666.896	1	10
667.235	1	-1
667.574	1	10
667.913	1	3
668.251	1	-4
668.590	1	4
668.929	1	1
669.268	1	6
669.607	1	2
669.946	1	6
670.285	1	2
670.623	1	13
670.962	1	0
671.301	1	2
671.640	1	-7
671.979	1	0
672.317	1	-1
672.656	1	-5
672.995	1	-1
673.334	1	4
673.673	1	1
674.011	1	-2
674.350	1	7
674.689	1	0
675.028	1	16
675.367	1	-2
675.705	1	14
676.044	1	2
676.383	1	-1
676.722	1	0
677.060	1	0
677.399	1	-1
677.738	1	-5
678.077	1	3
678.416	1	-2
678.754	1	5
679.093	1	0
679.432	1	1
679.771	1	8
680.109	1	2
680.448	1	3
680.787	1	7
681.125	1	5
681.464	1	-4
681.803	1	6
682.142	1	-5
682.480	1	12
682.819	1	2
683.158	1	6
683.496	1	5
683.835	1	-1
684.174	1	0
684.512	1	-2
684.851	1	2
685.190	1	2
685.529	1	0
685.867	1	-2
686.206	1	3
686.545	1	-5
686.883	1	-6
687.222	1	0
687.561	1	13
687.899	1	2
688.238	1	3
688.577	1	-3
688.746	1	6