File: Data/GaN_130K_350ms/GaN_sample F_spot6_UVVIS_130 K_200um_350 ms 2x2mm1_307.txt
340.368	1	2
340.710	1	2
341.052	1	-5
341.394	1	-5
341.737	1	5
342.079	1	2
342.421	1	4
342.763	1	5
343.105	1	3
343.447	1	5
343.789	1	6
344.131	1	3
344.473	1	-2
344.815	1	-2
345.157	1	-9
345.499	1	-2
345.841	1	5
346.183	1	8
346.526	1	4
346.868	1	0
347.210	1	2
347.552	1	10
347.894	1	-1
348.236	1	-2
348.578	1	2
348.920	1	9
349.262	1	4
349.604	1	1
349.946	1	6
350.288	1	-3
350.630	1	1
350.972	1	7
351.314	1	-9
351.656	1	3
351.998	1	-1
352.340	1	19
352.682	1	-3
353.024	1	-1
353.366	1	1
353.708	1	-6
354.050	1	3
354.392	1	2
354.734	1	-1
355.076	1	-7
355.418	1	7
355.760	1	-3
356.102	1	2
356.444	1	-10
356.785	1	9
357.127	1	12
357.469	1	3
357.811	1	0
358.153	1	-7
358.495	1	7
358.837	1	0
359.179	1	-2
359.521	1	5
359.863	1	4
360.205	1	3
360.547	1	-6
360.889	1	-8
361.231	1	0
361.572	1	6
361.914	1	-3
362.256	1	6
362.598	1	6
362.940	1	-2
363.282	1	13
363.624	1	8
363.966	1	11
364.308	1	5
364.649	1	13
364.991	1	7
365.333	1	0
365.675	1	13
366.017	1	8
366.359	1	11
366.701	1	5
367.042	1	15
367.384	1	9
367.726	1	12
368.068	1	3
368.410	1	13
368.752	1	19
369.093	1	15
369.435	1	4
369.777	1	1
370.119	1	11
370.461	1	14
370.803	1	-1
371.144	1	4
371.486	1	10
371.828	1	3
372.170	1	-1
372.512	1	10
372.853	1	0
373.195	1	0
373.537	1	8
373.879	1	8
374.220	1	0
374.562	1	-1
374.904	1	10
375.246	1	7
375.588	1	-4
375.929	1	-3
376.271	1	6
376.613	1	-5
376.955	1	2
377.296	1	0
377.638	1	-12
377.980	1	-5
378.321	1	6
378.663	1	6
379.005	1	15
379.347	1	2
379.688	1	2
380.030	1	-5
380.372	1	17
380.714	1	16
381.055	1	3
381.397	1	-3
381.739	1	11
382.080	1	0
382.422	1	7
382.764	1	4
383.105	1	1
383.447	1	-3
383.789	1	0
384.130	1	8
384.472	1	0
384.814	1	7
385.156	1	3
385.497	1	-1
385.839	1	10
386.180	1	6
386.522	1	10
386.864	1	8
387.205	1	1
387.547	1	8
387.889	1	3
388.230	1	-1
388.572	1	1
388.914	1	7
389.255	1	2
389.597	1	-11
389.939	1	10
390.280	1	10
390.622	1	-1
390.963	1	3
391.305	1	6
391.647	1	4
391.988	1	3
392.330	1	2
392.671	1	1
393.013	1	1
393.355	1	3
393.696	1	-2
394.038	1	3
394.379	1	10
394.721	1	12
395.062	1	-3
395.404	1	-6
395.746	1	2
396.087	1	4
396.429	1	4
396.770	1	0
397.112	1	1
397.453	1	6
397.795	1	-5
398.136	1	8
398.478	1	5
398.819	1	-13
399.161	1	5
399.503	1	11
399.844	1	-2
400.186	1	-4
400.527	1	7
400.869	1	7
401.210	1	-1
401.552	1	20
401.893	1	-12
402.235	1	4
402.576	1	6
402.918	1	10
403.259	1	-2
403.601	1	6
403.942	1	2
404.284	1	-4
404.625	1	2
404.967	1	-3
405.308	1	-3
405.649	1	6
405.991	1	-1
406.332	1	6
406.674	1	8
407.015	1	5
407.357	1	0
407.698	1	-5
408.040	1	0
408.381	1	16
408.722	1	12
409.064	1	5
409.405	1	3
409.747	1	-3
410.088	1	9
410.430	1	11
410.771	1	-8
411.112	1	2
411.454	1	3
411.795	1	9
412.137	1	1
412.478	1	-5
412.819	1	9
413.161	1	7
413.502	1	7
413.844	1	12
414.185	1	14
414.526	1	-2
414.868	1	-1
415.209	1	-2
415.550	1	4
415.892	1	4
416.233	1	4
416.575	1	6
416.916	1	0
417.257	1	10
417.599	1	-2
417.940	1	1
418.281	1	5
418.623	1	9
418.964	1	3
419.305	1	3
419.647	1	7
419.988	1	15
420.329	1	10
420.671	1	-2
421.012	1	-1
421.353	1	-2
421.695	1	0
422.036	1	-4
422.377	1	7
422.718	1	1
423.060	1	4
423.401	1	7
423.742	1	7
424.084	1	11
424.425	1	12
424.766	1	2
425.107	1	-1
425.449	1	5
425.790	1	16
426.131	1	12
426.472	1	6
426.814	1	8
427.155	1	3
427.496	1	-3
427.837	1	5
428.179	1	4
428.520	1	12
428.861	1	-3
429.202	1	6
429.544	1	13
429.885	1	-2
430.226	1	1
430.567	1	8
430.909	1	10
431.250	1	11
431.591	1	5
431.932	1	4
432.273	1	10
432.615	1	8
432.956	1	-2
433.297	1	2
433.638	1	6
433.979	1	5
434.320	1	5
434.662	1	2
435.003	1	14
435.344	1	9
435.685	1	-12
436.026	1	10
436.368	1	0
436.709	1	6
437.050	1	4
437.391	1	8
437.732	1	7
438.073	1	16
438.414	1	1
438.756	1	6
439.097	1	3
439.438	1	0
439.779	1	12
440.120	1	5
440.461	1	15
440.802	1	-13
441.143	1	-5
441.485	1	2
441.826	1	-8
442.167	1	8
442.508	1	2
442.849	1	-4
443.190	1	1
443.531	1	-2
443.872	1	-3
444.213	1	-4
444.554	1	-1
444.895	1	1
445.237	1	-4
445.578	1	7
445.919	1	-8
446.260	1	-2
446.601	1	8
446.942	1	1
447.283	1	5
447.624	1	3
447.965	1	0
448.306	1	4
448.647	1	12
448.988	1	8
449.329	1	3
449.670	1	-5
450.011	1	-2
450.352	1	1
450.693	1	-7
451.034	1	0
451.375	1	3
451.716	1	-1
452.057	1	5
452.398	1	-6
452.739	1	-6
453.080	1	2
453.421	1	-1
453.762	1	1
454.103	1	-3
454.444	1	2
454.785	1	10
455.126	1	-11
455.467	1	-1
455.808	1	13
456.149	1	3
456.490	1	6
456.831	1	1
457.172	1	3
457.513	1	-13
457.854	1	5
458.195	1	8
458.536	1	10
458.877	1	20
459.218	1	8
459.559	1	1
459.899	1	-1
460.240	1	12
460.581	1	-2
460.922	1	2
461.263	1	9
461.604	1	-4
461.945	1	11
462.286	1	12
462.627	1	0
462.968	1	-3
463.309	1	3
463.649	1	-8
463.990	1	3
464.331	1	7
464.672	1	1
465.013	1	0
465.354	1	4
465.695	1	4
466.036	1	-3
466.376	1	2
466.717	1	9
467.058	1	2
467.399	1	2
467.740	1	16
468.081	1	5
468.422	1	9
468.762	1	1
469.103	1	0
469.444	1	7
469.785	1	0
470.126	1	-14
470.467	1	-3
470.807	1	0
471.148	1	-2
471.489	1	-2
471.830	1	1
472.171	1	4
472.511	1	0
472.852	1	5
473.193	1	5
473.534	1	-1
473.875	1	6
474.215	1	4
474.556	1	2
474.897	1	-5
475.238	1	3
475.578	1	2
475.919	1	-10
476.260	1	0
476.601	1	-8
476.942	1	2
477.282	1	3
477.623	1	-10
477.964	1	1
478.305	1	9
478.645	1	4
478.986	1	-4
479.327	1	3
479.667	1	7
480.008	1	-2
480.349	1	1
480.690	1	3
481.030	1	5
481.371	1	-1
481.712	1	2
482.053	1	1
482.393	1	12
482.734	1	8
483.075	1	5
483.415	1	2
483.756	1	7
484.097	1	3
484.437	1	-3
484.778	1	8
485.119	1	3
485.459	1	-16
485.800	1	13
486.141	1	-4
486.481	1	-2
486.822	1	-1
487.163	1	2
487.503	1	-1
487.844	1	-8
488.185	1	-4
488.525	1	7
488.866	1	6
489.207	1	1
489.547	1	-4
489.888	1	10
490.228	1	7
490.569	1	3
490.910	1	3
491.250	1	8
491.591	1	3
491.932	1	5
492.272	1	3
492.613	1	-6
492.953	1	1
493.294	1	9
493.635	1	5
493.975	1	11
494.316	1	5
494.656	1	2
494.997	1	-8
495.337	1	3
495.678	1	-1
496.019	1	-6
496.359	1	18
496.700	1	1
497.040	1	5
497.381	1	7
497.721	1	6
498.062	1	0
498.403	1	-3
498.743	1	6
499.084	1	3
499.424	1	-2
499.765	1	-5
500.105	1	-4
500.446	1	0
500.786	1	4
501.127	1	1
501.467	1	3
501.808	1	4
502.148	1	3
502.489	1	4
502.829	1	0
503.170	1	-2
503.510	1	6
503.851	1	-11
504.191	1	-2
504.532	1	11
504.872	1	13
505.213	1	6
505.553	1	0
505.894	1	8
506.234	1	-3
506.575	1	0
506.915	1	7
507.256	1	18
507.596	1	-7
507.936	1	-6
508.277	1	-5
508.617	1	-5
508.958	1	-5
509.298	1	1
509.639	1	6
509.979	1	3
510.319	1	5
510.660	1	-1
511.000	1	7
511.341	1	3
511.681	1	3
512.022	1	9
512.362	1	-3
512.702	1	4
513.043	1	8
513.383	1	6
513.724	1	4
514.064	1	-7
514.404	1	8
514.745	1	-4
515.085	1	4
515.425	1	6
515.766	1	3
516.106	1	0
516.447	1	8
516.787	1	5
517.127	1	6
517.468	1	10
517.808	1	-5
518.148	1	5
518.489	1	2
518.829	1	6
519.169	1	13
519.510	1	1
519.850	1	20
520.190	1	8
520.531	1	4
520.871	1	-7
521.211	1	7
521.552	1	7
521.892	1	12
522.232	1	-4
522.573	1	4
522.913	1	12
523.253	1	6
523.593	1	7
523.934	1	-5
524.274	1	3
524.614	1	7
524.955	1	8
525.295	1	11
525.635	1	5
525.975	1	2
526.316	1	-2
526.656	1	2
526.996	1	6
527.337	1	15
527.677	1	-2
528.017	1	6
528.357	1	17
528.698	1	-6
529.038	1	-11
529.378	1	7
529.718	1	12
530.058	1	-5
530.399	1	8
530.739	1	5
531.079	1	13
531.419	1	10
531.760	1	2
532.100	1	5
532.440	1	1
532.780	1	5
533.120	1	10
533.461	1	-1
533.801	1	14
534.141	1	2
534.481	1	9
534.821	1	-1
535.162	1	9
535.502	1	5
535.842	1	10
536.182	1	7
536.522	1	-4
536.862	1	8
537.203	1	1
537.543	1	2
537.883	1	-5
538.223	1	7
538.563	1	14
538.903	1	8
539.243	1	5
539.584	1	6
539.924	1	6
540.264	1	2
540.604	1	5
540.944	1	5
541.284	1	9
541.624	1	13
541.964	1	-8
542.305	1	-3
542.645	1	-12
542.985	1	-5
543.325	1	6
543.665	1	6
544.005	1	7
544.345	1	-2
544.685	1	15
545.025	1	2
545.365	1	11
545.705	1	6
546.045	1	-1
546.386	1	3
546.726	1	-4
547.066	1	9
547.406	1	-6
547.746	1	4
548.086	1	-3
548.426	1	5
548.766	1	3
549.106	1	2
549.446	1	-3
549.786	1	9
550.126	1	3
550.466	1	8
550.806	1	11
551.146	1	-6
551.486	1	3
551.826	1	3
552.166	1	4
552.506	1	4
552.846	1	-4
553.186	1	9
553.526	1	0
553.866	1	-11
554.206	1	1
554.546	1	0
554.886	1	-11
555.226	1	9
555.566	1	5
555.906	1	0
556.246	1	4
556.586	1	1
556.926	1	-4
557.266	1	4
557.606	1	-1
557.946	1	-3
558.286	1	7
558.626	1	-10
558.966	1	-4
559.306	1	0
559.646	1	1
559.986	1	10
560.325	1	-7
560.665	1	-1
561.005	1	0
561.345	1	5
561.685	1	5
562.025	1	2
562.365	1	10
562.705	1	14
563.045	1	-1
563.385	1	6
563.725	1	-3
564.064	1	-1
564.404	1	5
564.744	1	11
565.084	1	2
565.424	1	0
565.764	1	3
566.104	1	0
566.444	1	7
566.783	1	7
567.123	1	-3
567.463	1	3
567.803	1	5
568.143	1	11
568.483	1	-3
568.823	1	-4
569.162	1	12
569.502	1	6
569.842	1	-3
570.182	1	1
570.522	1	-19
570.862	1	17
571.201	1	5
571.541	1	2
571.881	1	1
572.221	1	11
572.561	1	5
572.900	1	2
573.240	1	2
573.580	1	1
573.920	1	14
574.260	1	7
574.599	1	-1
574.939	1	12
575.279	1	-7
575.619	1	0
575.959	1	11
576.298	1	3
576.638	1	-4
576.978	1	-4
577.318	1	1
577.657	1	13
577.997	1	0
578.337	1	-2
578.677	1	12
579.016	1	-3
579.356	1	13
579.696	1	-11
580.036	1	1
580.375	1	-11
580.715	1	14
581.055	1	4
581.394	1	7
581.734	1	5
582.074	1	-5
582.414	1	-1
582.753	1	2
583.093	1	3
583.433	1	10
583.772	1	10
584.112	1	9
584.452	1	0
584.791	1	3
585.131	1	2
585.471	1	4
585.811	1	2
586.150	1	10
586.490	1	-9
586.830	1	-7
587.169	1	10
587.509	1	1
587.849	1	6
588.188	1	6
588.528	1	-3
588.867	1	3
589.207	1	-7
589.547	1	-4
589.886	1	4
590.226	1	9
590.566	1	-3
590.905	1	1
591.245	1	0
591.585	1	5
591.924	1	-7
592.264	1	3
592.603	1	-1
592.943	1	-2
593.283	1	-6
593.622	1	3
593.962	1	4
594.301	1	-5
594.641	1	5
594.981	1	-6
595.320	1	12
595.660	1	1
595.999	1	8
596.339	1	6
596.678	1	-5
597.018	1	6
597.358	1	-12
597.697	1	0
598.037	1	7
598.376	1	9
598.716	1	8
599.055	1	-3
599.395	1	-2
599.734	1	-1
600.074	1	2
600.413	1	4
600.753	1	-3
601.092	1	-7
601.432	1	-1
601.771	1	14
602.111	1	6
602.451	1	9
602.790	1	1
603.130	1	7
603.469	1	6
603.809	1	9
604.148	1	3
604.487	1	7
604.827	1	-2
605.166	1	8
605.506	1	8
605.845	1	-6
606.185	1	14
606.524	1	4
606.864	1	12
607.203	1	0
607.543	1	5
607.882	1	9
608.222	1	0
608.561	1	-9
608.901	1	4
609.240	1	-4
609.579	1	7
609.919	1	4
610.258	1	-2
610.598	1	-4
610.937	1	9
611.277	1	12
611.616	1	-5
611.955	1	-5
612.295	1	1
612.634	1	-6
612.974	1	-8
613.313	1	-1
613.652	1	-11
613.992	1	-4
614.331	1	8
614.671	1	6
615.010	1	2
615.349	1	-3
615.689	1	-2
616.028	1	-1
616.368	1	3
616.707	1	6
617.046	1	3
617.386	1	-7
617.725	1	2
618.064	1	0
618.404	1	2
618.743	1	4
619.082	1	7
619.422	1	-4
619.761	1	-2
620.100	1	2
620.440	1	10
620.779	1	0
621.118	1	-8
621.458	1	7
621.797	1	-5
622.136	1	7
622.476	1	5
622.815	1	0
623.154	1	2
623.494	1	4
623.833	1	3
624.172	1	-7
624.511	1	4
624.851	1	1
625.190	1	0
625.529	1	-2
625.869	1	6
626.208	1	2
626.547	1	9
626.886	1	-4
627.226	1	-5
627.565	1	4
627.904	1	4
628.243	1	6
628.583	1	-6
628.922	1	-8
629.261	1	-18
629.600	1	8
629.940	1	3
630.279	1	6
630.618	1	-2
630.957	1	10
631.297	1	0
631.636	1	3
631.975	1	-6
632.314	1	-2
632.653	1	-1
632.993	1	1
633.332	1	-1
633.671	1	-2
634.010	1	-9
634.349	1	1
634.689	1	7
635.028	1	3
635.367	1	0
635.706	1	1
636.045	1	12
636.384	1	2
636.724	1	2
637.063	1	1
637.402	1	-3
637.741	1	10
638.080	1	15
638.419	1	-2
638.759	1	-3
639.098	1	-5
639.437	1	-2
639.776	1	0
640.115	1	13
640.454	1	-2
640.793	1	-4
641.132	1	13
641.472	1	3
641.811	1	1
642.150	1	-3
642.489	1	-6
642.828	1	3
643.167	1	4
643.506	1	6
643.845	1	-5
644.184	1	1
644.524	1	1
644.863	1	1
645.202	1	11
645.541	1	-1
645.880	1	6
646.219	1	0
646.558	1	-1
646.897	1	2
647.236	1	-3
647.575	1	-5
647.914	1	-12
648.253	1	3
648.592	1	1
648.931	1	-10
649.270	1	2
649.610	1	0
649.949	1	0
650.288	1	9
650.627	1	-1
650.966	1	10
651.305	1	4
651.644	1	2
651.983	1	-20
652.322	1	9
652.661	1	1
653.000	1	1
653.339	1	-3
653.678	1	-5
654.017	1	-6
654.356	1	9
654.695	1	2
655.034	1	4
655.373	1	-3
655.712	1	4
656.051	1	4
656.390	1	-3
656.729	1	6
657.068	1	0
657.406	1	12
657.745	1	5
658.084	1	4
658.423	1	-4
658.762	1	6
659.101	1	7
659.440	1	-5
659.779	1	5
660.118	1	-3
660.457	1	-3
660.796	1	5
661.135	1	3
661.474	1	8
661.813	1	-3
662.152	1	3
662.491	1	17
662.829	1	7
663.168	1	0
663.507	1	5
663.846	1	0
664.185	1	-2
664.524	1	1
664.863	1	-9
665.202	1	-7
665.541	1	-2
665.879	1	6
666.218	1	-3
666.557	1	4
666.896	1	-3
667.235	1	3
667.574	1	14
667.913	1	-1
668.251	1	7
668.590	1	14
668.929	1	-2
669.268	1	0
669.607	1	-7
669.946	1	4
670.285	1	9
670.623	1	7
670.962	1	-2
671.301	1	7
671.640	1	-14
671.979	1	-1
672.317	1	6
672.656	1	-1
672.995	1	-5
673.334	1	0
673.673	1	14
674.011	1	9
674.350	1	2
674.689	1	-2
675.028	1	6
675.367	1	6
675.705	1	7
676.044	1	7
676.383	1	7
676.722	1	-1
677.060	1	5
677.399	1	0
677.738	1	0
678.077	1	4
678.416	1	-2
678.754	1	1
679.093	1	4
679.432	1	9
679.771	1	3
680.109	1	-2
680.448	1	2
680.787	1	9
681.125	1	9
681.464	1	-1
681.803	1	-3
682.142	1	-8
682.480	1	22
682.819	1	1
683.158	1	-2
683.496	1	-4
683.835	1	-2
684.174	1	3
684.512	1	13
684.851	1	-5
685.190	1	-5
685.529	1	-12
685.867	1	1
686.206	1	5
686.545	1	4
686.883	1	3
687.222	1	7
687.561	1	18
687.899	1	-1
688.238	1	5
688.577	1	-9
688.746	1	1