File: Data/GaN_130K_350ms/GaN_sample F_spot6_UVVIS_130 K_200um_350 ms 2x2mm1_162.txt
340.368	1	6
340.710	1	6
341.052	1	-1
341.394	1	8
341.737	1	6
342.079	1	-5
342.421	1	1
342.763	1	1
343.105	1	6
343.447	1	4
343.789	1	0
344.131	1	-3
344.473	1	3
344.815	1	0
345.157	1	-14
345.499	1	-4
345.841	1	1
346.183	1	4
346.526	1	8
346.868	1	4
347.210	1	2
347.552	1	1
347.894	1	3
348.236	1	7
348.578	1	5
348.920	1	2
349.262	1	4
349.604	1	-2
349.946	1	4
350.288	1	-3
350.630	1	9
350.972	1	2
351.314	1	1
351.656	1	13
351.998	1	8
352.340	1	10
352.682	1	3
353.024	1	-5
353.366	1	1
353.708	1	-5
354.050	1	7
354.392	1	9
354.734	1	0
355.076	1	5
355.418	1	9
355.760	1	9
356.102	1	1
356.444	1	-2
356.785	1	11
357.127	1	10
357.469	1	0
357.811	1	3
358.153	1	3
358.495	1	8
358.837	1	11
359.179	1	12
359.521	1	8
359.863	1	2
360.205	1	5
360.547	1	2
360.889	1	4
361.231	1	5
361.572	1	26
361.914	1	11
362.256	1	8
362.598	1	18
362.940	1	-2
363.282	1	18
363.624	1	16
363.966	1	30
364.308	1	27
364.649	1	18
364.991	1	13
365.333	1	17
365.675	1	27
366.017	1	26
366.359	1	29
366.701	1	23
367.042	1	36
367.384	1	38
367.726	1	23
368.068	1	27
368.410	1	22
368.752	1	27
369.093	1	29
369.435	1	30
369.777	1	26
370.119	1	27
370.461	1	32
370.803	1	29
371.144	1	21
371.486	1	24
371.828	1	36
372.170	1	26
372.512	1	21
372.853	1	9
373.195	1	17
373.537	1	16
373.879	1	23
374.220	1	15
374.562	1	12
374.904	1	18
375.246	1	21
375.588	1	8
375.929	1	5
376.271	1	15
376.613	1	15
376.955	1	11
377.296	1	12
377.638	1	10
377.980	1	4
378.321	1	16
378.663	1	13
379.005	1	22
379.347	1	13
379.688	1	11
380.030	1	5
380.372	1	19
380.714	1	18
381.055	1	3
381.397	1	5
381.739	1	12
382.080	1	-6
382.422	1	14
382.764	1	12
383.105	1	5
383.447	1	17
383.789	1	17
384.130	1	20
384.472	1	7
384.814	1	3
385.156	1	2
385.497	1	-1
385.839	1	9
386.180	1	12
386.522	1	14
386.864	1	11
387.205	1	1
387.547	1	11
387.889	1	3
388.230	1	6
388.572	1	10
388.914	1	1
389.255	1	4
389.597	1	-4
389.939	1	18
390.280	1	9
390.622	1	10
390.963	1	9
391.305	1	11
391.647	1	11
391.988	1	11
392.330	1	1
392.671	1	8
393.013	1	9
393.355	1	3
393.696	1	10
394.038	1	6
394.379	1	8
394.721	1	11
395.062	1	2
395.404	1	-2
395.746	1	9
396.087	1	19
396.429	1	10
396.770	1	18
397.112	1	5
397.453	1	8
397.795	1	0
398.136	1	2
398.478	1	11
398.819	1	-6
399.161	1	12
399.503	1	10
399.844	1	4
400.186	1	0
400.527	1	11
400.869	1	10
401.210	1	2
401.552	1	12
401.893	1	2
402.235	1	2
402.576	1	12
402.918	1	16
403.259	1	3
403.601	1	5
403.942	1	13
404.284	1	0
404.625	1	16
404.967	1	13
405.308	1	8
405.649	1	9
405.991	1	-2
406.332	1	17
406.674	1	9
407.015	1	2
407.357	1	7
407.698	1	9
408.040	1	13
408.381	1	9
408.722	1	18
409.064	1	8
409.405	1	9
409.747	1	-1
410.088	1	9
410.430	1	17
410.771	1	3
411.112	1	16
411.454	1	-1
411.795	1	11
412.137	1	4
412.478	1	6
412.819	1	9
413.161	1	13
413.502	1	12
413.844	1	10
414.185	1	7
414.526	1	9
414.868	1	10
415.209	1	3
415.550	1	-2
415.892	1	9
416.233	1	13
416.575	1	9
416.916	1	3
417.257	1	9
417.599	1	6
417.940	1	17
418.281	1	6
418.623	1	16
418.964	1	3
419.305	1	5
419.647	1	13
419.988	1	17
420.329	1	12
420.671	1	5
421.012	1	-6
421.353	1	5
421.695	1	3
422.036	1	13
422.377	1	5
422.718	1	-2
423.060	1	12
423.401	1	14
423.742	1	15
424.084	1	8
424.425	1	9
424.766	1	5
425.107	1	6
425.449	1	7
425.790	1	5
426.131	1	15
426.472	1	2
426.814	1	18
427.155	1	2
427.496	1	2
427.837	1	10
428.179	1	13
428.520	1	15
428.861	1	-3
429.202	1	5
429.544	1	8
429.885	1	5
430.226	1	2
430.567	1	4
430.909	1	12
431.250	1	12
431.591	1	7
431.932	1	4
432.273	1	13
432.615	1	13
432.956	1	-1
433.297	1	16
433.638	1	5
433.979	1	18
434.320	1	3
434.662	1	4
435.003	1	19
435.344	1	11
435.685	1	0
436.026	1	17
436.368	1	4
436.709	1	6
437.050	1	14
437.391	1	12
437.732	1	3
438.073	1	15
438.414	1	2
438.756	1	5
439.097	1	-1
439.438	1	3
439.779	1	15
440.120	1	0
440.461	1	12
440.802	1	3
441.143	1	-8
441.485	1	9
441.826	1	1
442.167	1	5
442.508	1	9
442.849	1	17
443.190	1	-6
443.531	1	8
443.872	1	15
444.213	1	-2
444.554	1	13
444.895	1	-3
445.237	1	6
445.578	1	2
445.919	1	-1
446.260	1	14
446.601	1	9
446.942	1	2
447.283	1	12
447.624	1	0
447.965	1	5
448.306	1	13
448.647	1	13
448.988	1	9
449.329	1	4
449.670	1	6
450.011	1	-4
450.352	1	10
450.693	1	7
451.034	1	-3
451.375	1	9
451.716	1	-1
452.057	1	16
452.398	1	-2
452.739	1	2
453.080	1	3
453.421	1	9
453.762	1	7
454.103	1	-11
454.444	1	3
454.785	1	5
455.126	1	-6
455.467	1	6
455.808	1	10
456.149	1	-5
456.490	1	9
456.831	1	14
457.172	1	1
457.513	1	-7
457.854	1	-3
458.195	1	-3
458.536	1	7
458.877	1	18
459.218	1	12
459.559	1	7
459.899	1	-1
460.240	1	13
460.581	1	1
460.922	1	-2
461.263	1	10
461.604	1	-10
461.945	1	13
462.286	1	8
462.627	1	8
462.968	1	13
463.309	1	5
463.649	1	4
463.990	1	8
464.331	1	11
464.672	1	10
465.013	1	3
465.354	1	3
465.695	1	6
466.036	1	-3
466.376	1	6
466.717	1	15
467.058	1	9
467.399	1	4
467.740	1	16
468.081	1	11
468.422	1	6
468.762	1	0
469.103	1	8
469.444	1	3
469.785	1	6
470.126	1	-10
470.467	1	5
470.807	1	4
471.148	1	-2
471.489	1	3
471.830	1	-11
472.171	1	3
472.511	1	1
472.852	1	3
473.193	1	9
473.534	1	6
473.875	1	13
474.215	1	5
474.556	1	4
474.897	1	-4
475.238	1	12
475.578	1	8
475.919	1	-3
476.260	1	3
476.601	1	9
476.942	1	15
477.282	1	14
477.623	1	-2
477.964	1	-3
478.305	1	7
478.645	1	8
478.986	1	0
479.327	1	-6
479.667	1	4
480.008	1	6
480.349	1	-4
480.690	1	1
481.030	1	3
481.371	1	7
481.712	1	4
482.053	1	3
482.393	1	4
482.734	1	6
483.075	1	7
483.415	1	-3
483.756	1	0
484.097	1	0
484.437	1	2
484.778	1	13
485.119	1	2
485.459	1	-8
485.800	1	11
486.141	1	13
486.481	1	-1
486.822	1	11
487.163	1	4
487.503	1	-3
487.844	1	-11
488.185	1	6
488.525	1	9
488.866	1	12
489.207	1	5
489.547	1	-1
489.888	1	12
490.228	1	0
490.569	1	5
490.910	1	-3
491.250	1	16
491.591	1	5
491.932	1	8
492.272	1	7
492.613	1	-5
492.953	1	2
493.294	1	7
493.635	1	14
493.975	1	18
494.316	1	5
494.656	1	9
494.997	1	11
495.337	1	5
495.678	1	5
496.019	1	0
496.359	1	13
496.700	1	-1
497.040	1	12
497.381	1	4
497.721	1	2
498.062	1	-2
498.403	1	2
498.743	1	14
499.084	1	17
499.424	1	2
499.765	1	5
500.105	1	11
500.446	1	17
500.786	1	5
501.127	1	3
501.467	1	3
501.808	1	11
502.148	1	8
502.489	1	10
502.829	1	6
503.170	1	-6
503.510	1	15
503.851	1	-1
504.191	1	-1
504.532	1	13
504.872	1	8
505.213	1	11
505.553	1	7
505.894	1	14
506.234	1	-1
506.575	1	1
506.915	1	10
507.256	1	15
507.596	1	4
507.936	1	2
508.277	1	9
508.617	1	-4
508.958	1	10
509.298	1	3
509.639	1	6
509.979	1	2
510.319	1	18
510.660	1	7
511.000	1	17
511.341	1	2
511.681	1	4
512.022	1	13
512.362	1	5
512.702	1	23
513.043	1	5
513.383	1	17
513.724	1	5
514.064	1	13
514.404	1	16
514.745	1	10
515.085	1	18
515.425	1	7
515.766	1	19
516.106	1	7
516.447	1	13
516.787	1	8
517.127	1	7
517.468	1	12
517.808	1	13
518.148	1	14
518.489	1	16
518.829	1	14
519.169	1	10
519.510	1	12
519.850	1	18
520.190	1	14
520.531	1	20
520.871	1	3
521.211	1	16
521.552	1	5
521.892	1	16
522.232	1	14
522.573	1	13
522.913	1	17
523.253	1	17
523.593	1	18
523.934	1	8
524.274	1	5
524.614	1	10
524.955	1	16
525.295	1	15
525.635	1	3
525.975	1	14
526.316	1	8
526.656	1	4
526.996	1	10
527.337	1	27
527.677	1	-1
528.017	1	12
528.357	1	13
528.698	1	3
529.038	1	-7
529.378	1	23
529.718	1	15
530.058	1	13
530.399	1	25
530.739	1	10
531.079	1	13
531.419	1	8
531.760	1	3
532.100	1	6
532.440	1	13
532.780	1	6
533.120	1	17
533.461	1	7
533.801	1	24
534.141	1	5
534.481	1	6
534.821	1	23
535.162	1	15
535.502	1	13
535.842	1	19
536.182	1	16
536.522	1	13
536.862	1	16
537.203	1	2
537.543	1	20
537.883	1	9
538.223	1	9
538.563	1	17
538.903	1	17
539.243	1	5
539.584	1	16
539.924	1	2
540.264	1	1
540.604	1	15
540.944	1	12
541.284	1	12
541.624	1	22
541.964	1	12
542.305	1	2
542.645	1	0
542.985	1	6
543.325	1	15
543.665	1	8
544.005	1	11
544.345	1	6
544.685	1	13
545.025	1	4
545.365	1	12
545.705	1	9
546.045	1	9
546.386	1	16
546.726	1	3
547.066	1	13
547.406	1	6
547.746	1	7
548.086	1	5
548.426	1	4
548.766	1	15
549.106	1	5
549.446	1	7
549.786	1	5
550.126	1	19
550.466	1	16
550.806	1	16
551.146	1	6
551.486	1	10
551.826	1	7
552.166	1	4
552.506	1	15
552.846	1	3
553.186	1	14
553.526	1	9
553.866	1	3
554.206	1	-6
554.546	1	18
554.886	1	8
555.226	1	12
555.566	1	4
555.906	1	8
556.246	1	8
556.586	1	9
556.926	1	15
557.266	1	10
557.606	1	3
557.946	1	4
558.286	1	26
558.626	1	-1
558.966	1	11
559.306	1	6
559.646	1	11
559.986	1	8
560.325	1	2
560.665	1	15
561.005	1	5
561.345	1	15
561.685	1	12
562.025	1	4
562.365	1	5
562.705	1	11
563.045	1	6
563.385	1	9
563.725	1	3
564.064	1	14
564.404	1	6
564.744	1	11
565.084	1	3
565.424	1	0
565.764	1	8
566.104	1	5
566.444	1	18
566.783	1	18
567.123	1	10
567.463	1	7
567.803	1	14
568.143	1	23
568.483	1	5
568.823	1	-1
569.162	1	13
569.502	1	0
569.842	1	1
570.182	1	-2
570.522	1	-12
570.862	1	20
571.201	1	3
571.541	1	3
571.881	1	14
572.221	1	12
572.561	1	6
572.900	1	5
573.240	1	1
573.580	1	5
573.920	1	17
574.260	1	5
574.599	1	12
574.939	1	10
575.279	1	-3
575.619	1	16
575.959	1	8
576.298	1	7
576.638	1	-2
576.978	1	-3
577.318	1	8
577.657	1	16
577.997	1	11
578.337	1	17
578.677	1	15
579.016	1	-13
579.356	1	14
579.696	1	-1
580.036	1	3
580.375	1	8
580.715	1	2
581.055	1	5
581.394	1	15
581.734	1	8
582.074	1	4
582.414	1	2
582.753	1	7
583.093	1	8
583.433	1	7
583.772	1	4
584.112	1	11
584.452	1	9
584.791	1	12
585.131	1	11
585.471	1	1
585.811	1	3
586.150	1	7
586.490	1	12
586.830	1	0
587.169	1	4
587.509	1	-1
587.849	1	4
588.188	1	20
588.528	1	13
588.867	1	1
589.207	1	2
589.547	1	-5
589.886	1	12
590.226	1	13
590.566	1	8
590.905	1	-2
591.245	1	8
591.585	1	7
591.924	1	8
592.264	1	4
592.603	1	3
592.943	1	5
593.283	1	-4
593.622	1	10
593.962	1	9
594.301	1	-1
594.641	1	12
594.981	1	-4
595.320	1	3
595.660	1	9
595.999	1	5
596.339	1	13
596.678	1	2
597.018	1	8
597.358	1	3
597.697	1	9
598.037	1	9
598.376	1	5
598.716	1	12
599.055	1	-2
599.395	1	10
599.734	1	-3
600.074	1	6
600.413	1	11
600.753	1	5
601.092	1	3
601.432	1	-3
601.771	1	1
602.111	1	-1
602.451	1	1
602.790	1	1
603.130	1	4
603.469	1	0
603.809	1	8
604.148	1	14
604.487	1	15
604.827	1	11
605.166	1	21
605.506	1	10
605.845	1	-2
606.185	1	9
606.524	1	6
606.864	1	9
607.203	1	0
607.543	1	0
607.882	1	12
608.222	1	-8
608.561	1	-2
608.901	1	10
609.240	1	-2
609.579	1	12
609.919	1	13
610.258	1	-6
610.598	1	0
610.937	1	12
611.277	1	8
611.616	1	-10
611.955	1	0
612.295	1	12
612.634	1	-5
612.974	1	4
613.313	1	5
613.652	1	-3
613.992	1	4
614.331	1	6
614.671	1	1
615.010	1	1
615.349	1	3
615.689	1	-2
616.028	1	15
616.368	1	14
616.707	1	24
617.046	1	13
617.386	1	3
617.725	1	4
618.064	1	-2
618.404	1	5
618.743	1	6
619.082	1	12
619.422	1	6
619.761	1	2
620.100	1	4
620.440	1	5
620.779	1	7
621.118	1	-3
621.458	1	6
621.797	1	3
622.136	1	4
622.476	1	1
622.815	1	-1
623.154	1	1
623.494	1	8
623.833	1	12
624.172	1	-10
624.511	1	12
624.851	1	4
625.190	1	0
625.529	1	-6
625.869	1	7
626.208	1	-4
626.547	1	9
626.886	1	4
627.226	1	6
627.565	1	3
627.904	1	10
628.243	1	6
628.583	1	-6
628.922	1	-11
629.261	1	-3
629.600	1	8
629.940	1	12
630.279	1	9
630.618	1	2
630.957	1	7
631.297	1	7
631.636	1	14
631.975	1	4
632.314	1	5
632.653	1	4
632.993	1	8
633.332	1	4
633.671	1	-2
634.010	1	2
634.349	1	0
634.689	1	19
635.028	1	5
635.367	1	2
635.706	1	4
636.045	1	16
636.384	1	-2
636.724	1	9
637.063	1	4
637.402	1	1
637.741	1	5
638.080	1	14
638.419	1	9
638.759	1	-2
639.098	1	-6
639.437	1	5
639.776	1	-2
640.115	1	6
640.454	1	1
640.793	1	0
641.132	1	11
641.472	1	8
641.811	1	-5
642.150	1	-7
642.489	1	-4
642.828	1	5
643.167	1	9
643.506	1	12
643.845	1	-2
644.184	1	-4
644.524	1	3
644.863	1	-3
645.202	1	8
645.541	1	-5
645.880	1	8
646.219	1	-7
646.558	1	-2
646.897	1	5
647.236	1	-6
647.575	1	-7
647.914	1	3
648.253	1	6
648.592	1	5
648.931	1	-8
649.270	1	-2
649.610	1	4
649.949	1	0
650.288	1	8
650.627	1	9
650.966	1	0
651.305	1	-7
651.644	1	4
651.983	1	-16
652.322	1	-5
652.661	1	3
653.000	1	7
653.339	1	9
653.678	1	3
654.017	1	3
654.356	1	3
654.695	1	6
655.034	1	0
655.373	1	6
655.712	1	5
656.051	1	2
656.390	1	-1
656.729	1	7
657.068	1	-5
657.406	1	9
657.745	1	-7
658.084	1	1
658.423	1	11
658.762	1	17
659.101	1	8
659.440	1	-3
659.779	1	4
660.118	1	-4
660.457	1	-3
660.796	1	9
661.135	1	7
661.474	1	-3
661.813	1	0
662.152	1	0
662.491	1	19
662.829	1	6
663.168	1	3
663.507	1	-3
663.846	1	6
664.185	1	-5
664.524	1	5
664.863	1	8
665.202	1	2
665.541	1	-2
665.879	1	5
666.218	1	1
666.557	1	4
666.896	1	6
667.235	1	9
667.574	1	14
667.913	1	11
668.251	1	7
668.590	1	3
668.929	1	9
669.268	1	6
669.607	1	-8
669.946	1	7
670.285	1	10
670.623	1	16
670.962	1	6
671.301	1	4
671.640	1	-4
671.979	1	7
672.317	1	4
672.656	1	-6
672.995	1	2
673.334	1	1
673.673	1	6
674.011	1	-1
674.350	1	2
674.689	1	5
675.028	1	14
675.367	1	6
675.705	1	11
676.044	1	8
676.383	1	2
676.722	1	-3
677.060	1	6
677.399	1	5
677.738	1	3
678.077	1	5
678.416	1	7
678.754	1	-3
679.093	1	7
679.432	1	9
679.771	1	12
680.109	1	2
680.448	1	5
680.787	1	15
681.125	1	13
681.464	1	0
681.803	1	-7
682.142	1	1
682.480	1	8
682.819	1	7
683.158	1	-1
683.496	1	1
683.835	1	-7
684.174	1	4
684.512	1	10
684.851	1	-2
685.190	1	10
685.529	1	-4
685.867	1	5
686.206	1	8
686.545	1	0
686.883	1	1
687.222	1	-2
687.561	1	19
687.899	1	13
688.238	1	9
688.577	1	-1
688.746	1	7