File: Data/GaN_130K_350ms/GaN_sample F_spot6_UVVIS_130 K_200um_350 ms 2x2mm1_276.txt
340.368	1	12
340.710	1	8
341.052	1	0
341.394	1	-7
341.737	1	2
342.079	1	-2
342.421	1	9
342.763	1	-11
343.105	1	8
343.447	1	2
343.789	1	10
344.131	1	9
344.473	1	2
344.815	1	-11
345.157	1	-8
345.499	1	-6
345.841	1	0
346.183	1	6
346.526	1	-8
346.868	1	11
347.210	1	-4
347.552	1	5
347.894	1	-1
348.236	1	1
348.578	1	-6
348.920	1	0
349.262	1	8
349.604	1	3
349.946	1	6
350.288	1	-11
350.630	1	11
350.972	1	13
351.314	1	4
351.656	1	6
351.998	1	2
352.340	1	11
352.682	1	7
353.024	1	-5
353.366	1	5
353.708	1	-9
354.050	1	-2
354.392	1	13
354.734	1	-1
355.076	1	1
355.418	1	21
355.760	1	3
356.102	1	5
356.444	1	-8
356.785	1	0
357.127	1	8
357.469	1	0
357.811	1	4
358.153	1	5
358.495	1	11
358.837	1	-1
359.179	1	2
359.521	1	-5
359.863	1	6
360.205	1	3
360.547	1	-4
360.889	1	0
361.231	1	-10
361.572	1	7
361.914	1	2
362.256	1	-7
362.598	1	-3
362.940	1	-4
363.282	1	16
363.624	1	2
363.966	1	19
364.308	1	13
364.649	1	19
364.991	1	6
365.333	1	-4
365.675	1	9
366.017	1	15
366.359	1	9
366.701	1	10
367.042	1	11
367.384	1	16
367.726	1	10
368.068	1	-3
368.410	1	4
368.752	1	20
369.093	1	11
369.435	1	7
369.777	1	13
370.119	1	10
370.461	1	8
370.803	1	8
371.144	1	0
371.486	1	15
371.828	1	7
372.170	1	3
372.512	1	4
372.853	1	-3
373.195	1	4
373.537	1	12
373.879	1	10
374.220	1	5
374.562	1	-3
374.904	1	8
375.246	1	7
375.588	1	9
375.929	1	-5
376.271	1	7
376.613	1	-2
376.955	1	2
377.296	1	5
377.638	1	-3
377.980	1	-5
378.321	1	7
378.663	1	5
379.005	1	13
379.347	1	9
379.688	1	8
380.030	1	3
380.372	1	2
380.714	1	16
381.055	1	1
381.397	1	2
381.739	1	2
382.080	1	-3
382.422	1	18
382.764	1	-1
383.105	1	2
383.447	1	4
383.789	1	12
384.130	1	9
384.472	1	13
384.814	1	0
385.156	1	8
385.497	1	4
385.839	1	4
386.180	1	2
386.522	1	3
386.864	1	-1
387.205	1	-1
387.547	1	4
387.889	1	-5
388.230	1	-3
388.572	1	15
388.914	1	-1
389.255	1	3
389.597	1	-3
389.939	1	10
390.280	1	8
390.622	1	9
390.963	1	6
391.305	1	2
391.647	1	3
391.988	1	13
392.330	1	1
392.671	1	9
393.013	1	12
393.355	1	-2
393.696	1	-1
394.038	1	9
394.379	1	9
394.721	1	7
395.062	1	3
395.404	1	-3
395.746	1	2
396.087	1	7
396.429	1	10
396.770	1	10
397.112	1	4
397.453	1	7
397.795	1	-3
398.136	1	1
398.478	1	8
398.819	1	-8
399.161	1	7
399.503	1	11
399.844	1	-4
400.186	1	5
400.527	1	2
400.869	1	6
401.210	1	-4
401.552	1	4
401.893	1	-6
402.235	1	8
402.576	1	6
402.918	1	10
403.259	1	-1
403.601	1	2
403.942	1	4
404.284	1	-3
404.625	1	16
404.967	1	1
405.308	1	10
405.649	1	5
405.991	1	-1
406.332	1	12
406.674	1	15
407.015	1	8
407.357	1	4
407.698	1	6
408.040	1	8
408.381	1	11
408.722	1	1
409.064	1	-5
409.405	1	-4
409.747	1	5
410.088	1	11
410.430	1	10
410.771	1	-10
411.112	1	15
411.454	1	10
411.795	1	6
412.137	1	-1
412.478	1	2
412.819	1	1
413.161	1	10
413.502	1	18
413.844	1	2
414.185	1	11
414.526	1	-1
414.868	1	4
415.209	1	1
415.550	1	-3
415.892	1	6
416.233	1	8
416.575	1	7
416.916	1	-2
417.257	1	9
417.599	1	4
417.940	1	14
418.281	1	5
418.623	1	10
418.964	1	0
419.305	1	3
419.647	1	8
419.988	1	9
420.329	1	16
420.671	1	5
421.012	1	-1
421.353	1	1
421.695	1	13
422.036	1	-5
422.377	1	6
422.718	1	5
423.060	1	4
423.401	1	3
423.742	1	4
424.084	1	5
424.425	1	2
424.766	1	-3
425.107	1	7
425.449	1	6
425.790	1	6
426.131	1	3
426.472	1	-1
426.814	1	3
427.155	1	-4
427.496	1	5
427.837	1	6
428.179	1	7
428.520	1	11
428.861	1	1
429.202	1	8
429.544	1	14
429.885	1	8
430.226	1	-4
430.567	1	14
430.909	1	1
431.250	1	6
431.591	1	5
431.932	1	5
432.273	1	14
432.615	1	11
432.956	1	5
433.297	1	12
433.638	1	10
433.979	1	2
434.320	1	4
434.662	1	4
435.003	1	13
435.344	1	6
435.685	1	-2
436.026	1	8
436.368	1	-4
436.709	1	1
437.050	1	8
437.391	1	8
437.732	1	3
438.073	1	9
438.414	1	-7
438.756	1	2
439.097	1	1
439.438	1	6
439.779	1	9
440.120	1	-2
440.461	1	17
440.802	1	-7
441.143	1	0
441.485	1	10
441.826	1	3
442.167	1	7
442.508	1	-1
442.849	1	3
443.190	1	9
443.531	1	11
443.872	1	6
444.213	1	-5
444.554	1	13
444.895	1	3
445.237	1	2
445.578	1	2
445.919	1	-4
446.260	1	7
446.601	1	11
446.942	1	9
447.283	1	15
447.624	1	-3
447.965	1	3
448.306	1	6
448.647	1	11
448.988	1	-4
449.329	1	0
449.670	1	3
450.011	1	10
450.352	1	12
450.693	1	1
451.034	1	-5
451.375	1	-6
451.716	1	0
452.057	1	17
452.398	1	-6
452.739	1	-3
453.080	1	-3
453.421	1	5
453.762	1	0
454.103	1	1
454.444	1	-3
454.785	1	15
455.126	1	-4
455.467	1	4
455.808	1	10
456.149	1	-5
456.490	1	7
456.831	1	12
457.172	1	2
457.513	1	-7
457.854	1	7
458.195	1	-5
458.536	1	9
458.877	1	24
459.218	1	12
459.559	1	5
459.899	1	4
460.240	1	13
460.581	1	-2
460.922	1	6
461.263	1	1
461.604	1	-7
461.945	1	8
462.286	1	0
462.627	1	2
462.968	1	2
463.309	1	5
463.649	1	-5
463.990	1	0
464.331	1	-4
464.672	1	-1
465.013	1	-4
465.354	1	-2
465.695	1	10
466.036	1	7
466.376	1	-3
466.717	1	6
467.058	1	3
467.399	1	3
467.740	1	7
468.081	1	7
468.422	1	5
468.762	1	-2
469.103	1	1
469.444	1	4
469.785	1	9
470.126	1	-5
470.467	1	1
470.807	1	-6
471.148	1	-2
471.489	1	-6
471.830	1	5
472.171	1	12
472.511	1	-10
472.852	1	9
473.193	1	4
473.534	1	2
473.875	1	14
474.215	1	4
474.556	1	1
474.897	1	-3
475.238	1	10
475.578	1	1
475.919	1	-4
476.260	1	4
476.601	1	3
476.942	1	-4
477.282	1	11
477.623	1	-3
477.964	1	0
478.305	1	11
478.645	1	0
478.986	1	0
479.327	1	-5
479.667	1	3
480.008	1	3
480.349	1	5
480.690	1	8
481.030	1	1
481.371	1	6
481.712	1	4
482.053	1	-2
482.393	1	11
482.734	1	4
483.075	1	9
483.415	1	-3
483.756	1	-7
484.097	1	-1
484.437	1	-8
484.778	1	14
485.119	1	5
485.459	1	-12
485.800	1	7
486.141	1	-1
486.481	1	5
486.822	1	4
487.163	1	-6
487.503	1	-1
487.844	1	-1
488.185	1	11
488.525	1	9
488.866	1	0
489.207	1	-9
489.547	1	6
489.888	1	13
490.228	1	1
490.569	1	-3
490.910	1	-6
491.250	1	6
491.591	1	-6
491.932	1	6
492.272	1	-4
492.613	1	-7
492.953	1	4
493.294	1	8
493.635	1	6
493.975	1	21
494.316	1	6
494.656	1	1
494.997	1	2
495.337	1	0
495.678	1	0
496.019	1	-6
496.359	1	9
496.700	1	3
497.040	1	8
497.381	1	0
497.721	1	1
498.062	1	3
498.403	1	-4
498.743	1	11
499.084	1	12
499.424	1	0
499.765	1	4
500.105	1	7
500.446	1	11
500.786	1	12
501.127	1	6
501.467	1	0
501.808	1	6
502.148	1	-1
502.489	1	7
502.829	1	2
503.170	1	-1
503.510	1	6
503.851	1	-1
504.191	1	-3
504.532	1	8
504.872	1	6
505.213	1	0
505.553	1	1
505.894	1	11
506.234	1	4
506.575	1	2
506.915	1	-1
507.256	1	5
507.596	1	4
507.936	1	-2
508.277	1	2
508.617	1	-3
508.958	1	13
509.298	1	3
509.639	1	8
509.979	1	-3
510.319	1	15
510.660	1	-6
511.000	1	0
511.341	1	3
511.681	1	0
512.022	1	11
512.362	1	-2
512.702	1	9
513.043	1	2
513.383	1	4
513.724	1	-15
514.064	1	-1
514.404	1	-2
514.745	1	-7
515.085	1	16
515.425	1	5
515.766	1	11
516.106	1	-7
516.447	1	5
516.787	1	-2
517.127	1	4
517.468	1	11
517.808	1	-3
518.148	1	6
518.489	1	4
518.829	1	8
519.169	1	8
519.510	1	-4
519.850	1	12
520.190	1	10
520.531	1	8
520.871	1	-2
521.211	1	7
521.552	1	4
521.892	1	4
522.232	1	-7
522.573	1	2
522.913	1	11
523.253	1	15
523.593	1	16
523.934	1	-8
524.274	1	-1
524.614	1	15
524.955	1	11
525.295	1	1
525.635	1	-4
525.975	1	11
526.316	1	0
526.656	1	0
526.996	1	3
527.337	1	5
527.677	1	-6
528.017	1	-4
528.357	1	4
528.698	1	-3
529.038	1	-10
529.378	1	5
529.718	1	16
530.058	1	9
530.399	1	4
530.739	1	12
531.079	1	7
531.419	1	5
531.760	1	0
532.100	1	4
532.440	1	7
532.780	1	-1
533.120	1	11
533.461	1	5
533.801	1	10
534.141	1	3
534.481	1	7
534.821	1	9
535.162	1	14
535.502	1	3
535.842	1	6
536.182	1	9
536.522	1	0
536.862	1	7
537.203	1	-5
537.543	1	5
537.883	1	-1
538.223	1	11
538.563	1	5
538.903	1	7
539.243	1	-1
539.584	1	3
539.924	1	3
540.264	1	3
540.604	1	6
540.944	1	5
541.284	1	6
541.624	1	12
541.964	1	-9
542.305	1	1
542.645	1	-6
542.985	1	0
543.325	1	-1
543.665	1	7
544.005	1	13
544.345	1	-1
544.685	1	15
545.025	1	2
545.365	1	6
545.705	1	1
546.045	1	-2
546.386	1	-4
546.726	1	-2
547.066	1	2
547.406	1	-14
547.746	1	5
548.086	1	-2
548.426	1	11
548.766	1	8
549.106	1	0
549.446	1	2
549.786	1	2
550.126	1	0
550.466	1	10
550.806	1	4
551.146	1	7
551.486	1	11
551.826	1	5
552.166	1	3
552.506	1	-4
552.846	1	-7
553.186	1	-1
553.526	1	7
553.866	1	-7
554.206	1	0
554.546	1	3
554.886	1	0
555.226	1	-6
555.566	1	2
555.906	1	6
556.246	1	6
556.586	1	5
556.926	1	-3
557.266	1	1
557.606	1	1
557.946	1	2
558.286	1	14
558.626	1	-1
558.966	1	4
559.306	1	1
559.646	1	8
559.986	1	12
560.325	1	-6
560.665	1	11
561.005	1	1
561.345	1	4
561.685	1	7
562.025	1	4
562.365	1	7
562.705	1	5
563.045	1	-1
563.385	1	5
563.725	1	5
564.064	1	5
564.404	1	-1
564.744	1	-2
565.084	1	-6
565.424	1	-10
565.764	1	2
566.104	1	-8
566.444	1	5
566.783	1	12
567.123	1	0
567.463	1	-7
567.803	1	10
568.143	1	10
568.483	1	1
568.823	1	-5
569.162	1	0
569.502	1	-4
569.842	1	-2
570.182	1	1
570.522	1	-12
570.862	1	16
571.201	1	0
571.541	1	-4
571.881	1	-7
572.221	1	7
572.561	1	5
572.900	1	-1
573.240	1	-10
573.580	1	7
573.920	1	12
574.260	1	1
574.599	1	0
574.939	1	12
575.279	1	-6
575.619	1	8
575.959	1	4
576.298	1	-4
576.638	1	-5
576.978	1	-8
577.318	1	9
577.657	1	8
577.997	1	5
578.337	1	4
578.677	1	16
579.016	1	0
579.356	1	3
579.696	1	-7
580.036	1	1
580.375	1	-1
580.715	1	12
581.055	1	-2
581.394	1	-6
581.734	1	13
582.074	1	-10
582.414	1	0
582.753	1	7
583.093	1	4
583.433	1	3
583.772	1	12
584.112	1	10
584.452	1	7
584.791	1	4
585.131	1	7
585.471	1	6
585.811	1	8
586.150	1	8
586.490	1	-3
586.830	1	0
587.169	1	4
587.509	1	6
587.849	1	6
588.188	1	1
588.528	1	2
588.867	1	-3
589.207	1	4
589.547	1	1
589.886	1	4
590.226	1	10
590.566	1	7
590.905	1	8
591.245	1	-3
591.585	1	-2
591.924	1	1
592.264	1	1
592.603	1	-1
592.943	1	1
593.283	1	-11
593.622	1	17
593.962	1	11
594.301	1	-2
594.641	1	-1
594.981	1	-15
595.320	1	15
595.660	1	0
595.999	1	16
596.339	1	11
596.678	1	0
597.018	1	4
597.358	1	5
597.697	1	-3
598.037	1	6
598.376	1	2
598.716	1	8
599.055	1	3
599.395	1	2
599.734	1	-9
600.074	1	10
600.413	1	13
600.753	1	-1
601.092	1	-2
601.432	1	-15
601.771	1	4
602.111	1	2
602.451	1	2
602.790	1	-1
603.130	1	4
603.469	1	2
603.809	1	-2
604.148	1	2
604.487	1	8
604.827	1	1
605.166	1	11
605.506	1	5
605.845	1	5
606.185	1	9
606.524	1	5
606.864	1	3
607.203	1	-1
607.543	1	-5
607.882	1	14
608.222	1	-13
608.561	1	7
608.901	1	10
609.240	1	-4
609.579	1	7
609.919	1	7
610.258	1	1
610.598	1	1
610.937	1	5
611.277	1	9
611.616	1	-5
611.955	1	4
612.295	1	3
612.634	1	4
612.974	1	0
613.313	1	-7
613.652	1	-2
613.992	1	-2
614.331	1	5
614.671	1	3
615.010	1	-6
615.349	1	-1
615.689	1	7
616.028	1	15
616.368	1	3
616.707	1	4
617.046	1	13
617.386	1	-7
617.725	1	3
618.064	1	-3
618.404	1	-7
618.743	1	5
619.082	1	-2
619.422	1	3
619.761	1	7
620.100	1	-2
620.440	1	3
620.779	1	2
621.118	1	2
621.458	1	6
621.797	1	5
622.136	1	17
622.476	1	10
622.815	1	-2
623.154	1	3
623.494	1	6
623.833	1	5
624.172	1	-3
624.511	1	-3
624.851	1	0
625.190	1	-4
625.529	1	-3
625.869	1	7
626.208	1	1
626.547	1	-2
626.886	1	0
627.226	1	2
627.565	1	-3
627.904	1	9
628.243	1	13
628.583	1	-3
628.922	1	-2
629.261	1	-8
629.600	1	8
629.940	1	15
630.279	1	8
630.618	1	0
630.957	1	2
631.297	1	2
631.636	1	11
631.975	1	1
632.314	1	-2
632.653	1	0
632.993	1	7
633.332	1	-3
633.671	1	-8
634.010	1	-8
634.349	1	5
634.689	1	5
635.028	1	7
635.367	1	4
635.706	1	4
636.045	1	15
636.384	1	5
636.724	1	12
637.063	1	5
637.402	1	-3
637.741	1	17
638.080	1	-2
638.419	1	4
638.759	1	5
639.098	1	5
639.437	1	2
639.776	1	-4
640.115	1	-1
640.454	1	2
640.793	1	-10
641.132	1	14
641.472	1	-1
641.811	1	8
642.150	1	-10
642.489	1	0
642.828	1	3
643.167	1	-4
643.506	1	16
643.845	1	2
644.184	1	-1
644.524	1	3
644.863	1	4
645.202	1	8
645.541	1	0
645.880	1	1
646.219	1	6
646.558	1	-2
646.897	1	3
647.236	1	-2
647.575	1	-3
647.914	1	-4
648.253	1	3
648.592	1	1
648.931	1	-7
649.270	1	-4
649.610	1	2
649.949	1	3
650.288	1	5
650.627	1	3
650.966	1	4
651.305	1	4
651.644	1	2
651.983	1	-9
652.322	1	3
652.661	1	1
653.000	1	-4
653.339	1	1
653.678	1	1
654.017	1	6
654.356	1	4
654.695	1	2
655.034	1	8
655.373	1	14
655.712	1	3
656.051	1	15
656.390	1	1
656.729	1	1
657.068	1	-1
657.406	1	4
657.745	1	-12
658.084	1	2
658.423	1	6
658.762	1	16
659.101	1	5
659.440	1	-7
659.779	1	3
660.118	1	-1
660.457	1	0
660.796	1	0
661.135	1	9
661.474	1	4
661.813	1	-1
662.152	1	7
662.491	1	8
662.829	1	-7
663.168	1	-19
663.507	1	-4
663.846	1	0
664.185	1	0
664.524	1	4
664.863	1	-2
665.202	1	-3
665.541	1	-2
665.879	1	2
666.218	1	4
666.557	1	7
666.896	1	-3
667.235	1	9
667.574	1	15
667.913	1	11
668.251	1	4
668.590	1	-2
668.929	1	9
669.268	1	-5
669.607	1	1
669.946	1	10
670.285	1	14
670.623	1	12
670.962	1	5
671.301	1	-2
671.640	1	-3
671.979	1	0
672.317	1	5
672.656	1	1
672.995	1	-1
673.334	1	0
673.673	1	10
674.011	1	8
674.350	1	1
674.689	1	5
675.028	1	11
675.367	1	2
675.705	1	7
676.044	1	1
676.383	1	-6
676.722	1	-4
677.060	1	-1
677.399	1	1
677.738	1	-5
678.077	1	5
678.416	1	2
678.754	1	9
679.093	1	11
679.432	1	9
679.771	1	-1
680.109	1	1
680.448	1	-3
680.787	1	8
681.125	1	6
681.464	1	3
681.803	1	-2
682.142	1	0
682.480	1	12
682.819	1	5
683.158	1	5
683.496	1	1
683.835	1	-6
684.174	1	-3
684.512	1	6
684.851	1	-4
685.190	1	9
685.529	1	-4
685.867	1	2
686.206	1	3
686.545	1	4
686.883	1	4
687.222	1	-3
687.561	1	3
687.899	1	-3
688.238	1	6
688.577	1	0
688.746	1	13