File: Data/GaN_130K_350ms/GaN_sample F_spot6_UVVIS_130 K_200um_350 ms 2x2mm1_100.txt
340.368	1	9
340.710	1	5
341.052	1	-2
341.394	1	-7
341.737	1	10
342.079	1	2
342.421	1	10
342.763	1	10
343.105	1	6
343.447	1	10
343.789	1	5
344.131	1	1
344.473	1	6
344.815	1	-4
345.157	1	-9
345.499	1	0
345.841	1	2
346.183	1	14
346.526	1	7
346.868	1	-3
347.210	1	2
347.552	1	1
347.894	1	10
348.236	1	0
348.578	1	3
348.920	1	4
349.262	1	11
349.604	1	9
349.946	1	8
350.288	1	-5
350.630	1	4
350.972	1	7
351.314	1	-1
351.656	1	8
351.998	1	8
352.340	1	8
352.682	1	7
353.024	1	5
353.366	1	13
353.708	1	9
354.050	1	13
354.392	1	17
354.734	1	4
355.076	1	11
355.418	1	14
355.760	1	14
356.102	1	10
356.444	1	9
356.785	1	15
357.127	1	19
357.469	1	8
357.811	1	14
358.153	1	9
358.495	1	21
358.837	1	16
359.179	1	25
359.521	1	14
359.863	1	27
360.205	1	28
360.547	1	36
360.889	1	25
361.231	1	33
361.572	1	42
361.914	1	41
362.256	1	45
362.598	1	43
362.940	1	37
363.282	1	57
363.624	1	65
363.966	1	80
364.308	1	66
364.649	1	82
364.991	1	68
365.333	1	82
365.675	1	97
366.017	1	103
366.359	1	118
366.701	1	113
367.042	1	131
367.384	1	131
367.726	1	124
368.068	1	116
368.410	1	109
368.752	1	126
369.093	1	108
369.435	1	105
369.777	1	105
370.119	1	116
370.461	1	99
370.803	1	87
371.144	1	97
371.486	1	88
371.828	1	73
372.170	1	75
372.512	1	81
372.853	1	65
373.195	1	67
373.537	1	66
373.879	1	76
374.220	1	49
374.562	1	42
374.904	1	60
375.246	1	59
375.588	1	61
375.929	1	47
376.271	1	51
376.613	1	37
376.955	1	47
377.296	1	35
377.638	1	24
377.980	1	34
378.321	1	41
378.663	1	35
379.005	1	48
379.347	1	31
379.688	1	26
380.030	1	26
380.372	1	29
380.714	1	47
381.055	1	31
381.397	1	40
381.739	1	30
382.080	1	21
382.422	1	43
382.764	1	27
383.105	1	33
383.447	1	28
383.789	1	31
384.130	1	37
384.472	1	35
384.814	1	32
385.156	1	28
385.497	1	20
385.839	1	26
386.180	1	31
386.522	1	19
386.864	1	30
387.205	1	29
387.547	1	31
387.889	1	22
388.230	1	14
388.572	1	17
388.914	1	22
389.255	1	24
389.597	1	12
389.939	1	26
390.280	1	24
390.622	1	21
390.963	1	18
391.305	1	23
391.647	1	21
391.988	1	18
392.330	1	13
392.671	1	22
393.013	1	20
393.355	1	14
393.696	1	16
394.038	1	20
394.379	1	24
394.721	1	15
395.062	1	12
395.404	1	7
395.746	1	25
396.087	1	25
396.429	1	15
396.770	1	23
397.112	1	10
397.453	1	20
397.795	1	3
398.136	1	25
398.478	1	13
398.819	1	1
399.161	1	21
399.503	1	19
399.844	1	9
400.186	1	14
400.527	1	20
400.869	1	13
401.210	1	3
401.552	1	19
401.893	1	9
402.235	1	13
402.576	1	14
402.918	1	26
403.259	1	3
403.601	1	14
403.942	1	12
404.284	1	16
404.625	1	25
404.967	1	14
405.308	1	13
405.649	1	20
405.991	1	13
406.332	1	10
406.674	1	21
407.015	1	19
407.357	1	17
407.698	1	10
408.040	1	11
408.381	1	17
408.722	1	19
409.064	1	12
409.405	1	18
409.747	1	2
410.088	1	20
410.430	1	20
410.771	1	-2
411.112	1	11
411.454	1	3
411.795	1	8
412.137	1	7
412.478	1	9
412.819	1	15
413.161	1	8
413.502	1	21
413.844	1	8
414.185	1	15
414.526	1	13
414.868	1	-1
415.209	1	3
415.550	1	8
415.892	1	16
416.233	1	16
416.575	1	13
416.916	1	9
417.257	1	15
417.599	1	11
417.940	1	15
418.281	1	7
418.623	1	18
418.964	1	10
419.305	1	11
419.647	1	19
419.988	1	21
420.329	1	13
420.671	1	6
421.012	1	8
421.353	1	1
421.695	1	2
422.036	1	11
422.377	1	10
422.718	1	12
423.060	1	14
423.401	1	12
423.742	1	13
424.084	1	10
424.425	1	16
424.766	1	6
425.107	1	12
425.449	1	15
425.790	1	10
426.131	1	12
426.472	1	14
426.814	1	12
427.155	1	6
427.496	1	15
427.837	1	7
428.179	1	5
428.520	1	11
428.861	1	10
429.202	1	7
429.544	1	16
429.885	1	12
430.226	1	1
430.567	1	5
430.909	1	3
431.250	1	16
431.591	1	11
431.932	1	2
432.273	1	13
432.615	1	14
432.956	1	1
433.297	1	21
433.638	1	11
433.979	1	8
434.320	1	17
434.662	1	2
435.003	1	17
435.344	1	6
435.685	1	3
436.026	1	12
436.368	1	0
436.709	1	7
437.050	1	10
437.391	1	21
437.732	1	6
438.073	1	17
438.414	1	-3
438.756	1	17
439.097	1	11
439.438	1	13
439.779	1	24
440.120	1	13
440.461	1	15
440.802	1	4
441.143	1	1
441.485	1	13
441.826	1	8
442.167	1	12
442.508	1	2
442.849	1	9
443.190	1	10
443.531	1	10
443.872	1	13
444.213	1	1
444.554	1	5
444.895	1	5
445.237	1	-1
445.578	1	1
445.919	1	-3
446.260	1	3
446.601	1	13
446.942	1	2
447.283	1	12
447.624	1	6
447.965	1	12
448.306	1	8
448.647	1	20
448.988	1	21
449.329	1	3
449.670	1	3
450.011	1	6
450.352	1	11
450.693	1	15
451.034	1	-5
451.375	1	6
451.716	1	4
452.057	1	14
452.398	1	-1
452.739	1	13
453.080	1	9
453.421	1	6
453.762	1	14
454.103	1	5
454.444	1	6
454.785	1	12
455.126	1	-15
455.467	1	10
455.808	1	16
456.149	1	2
456.490	1	6
456.831	1	11
457.172	1	3
457.513	1	0
457.854	1	2
458.195	1	2
458.536	1	6
458.877	1	26
459.218	1	1
459.559	1	5
459.899	1	-4
460.240	1	12
460.581	1	1
460.922	1	0
461.263	1	0
461.604	1	-7
461.945	1	10
462.286	1	9
462.627	1	4
462.968	1	7
463.309	1	15
463.649	1	9
463.990	1	4
464.331	1	8
464.672	1	13
465.013	1	2
465.354	1	13
465.695	1	8
466.036	1	6
466.376	1	3
466.717	1	6
467.058	1	5
467.399	1	4
467.740	1	16
468.081	1	20
468.422	1	10
468.762	1	4
469.103	1	10
469.444	1	0
469.785	1	8
470.126	1	-1
470.467	1	-2
470.807	1	7
471.148	1	0
471.489	1	-1
471.830	1	7
472.171	1	6
472.511	1	2
472.852	1	7
473.193	1	2
473.534	1	8
473.875	1	16
474.215	1	1
474.556	1	13
474.897	1	3
475.238	1	20
475.578	1	5
475.919	1	-5
476.260	1	8
476.601	1	-1
476.942	1	11
477.282	1	21
477.623	1	1
477.964	1	7
478.305	1	8
478.645	1	4
478.986	1	7
479.327	1	13
479.667	1	15
480.008	1	0
480.349	1	2
480.690	1	10
481.030	1	9
481.371	1	12
481.712	1	20
482.053	1	8
482.393	1	20
482.734	1	16
483.075	1	21
483.415	1	9
483.756	1	11
484.097	1	11
484.437	1	6
484.778	1	11
485.119	1	15
485.459	1	-8
485.800	1	16
486.141	1	14
486.481	1	12
486.822	1	15
487.163	1	4
487.503	1	10
487.844	1	5
488.185	1	16
488.525	1	25
488.866	1	14
489.207	1	12
489.547	1	8
489.888	1	19
490.228	1	21
490.569	1	13
490.910	1	4
491.250	1	14
491.591	1	10
491.932	1	18
492.272	1	18
492.613	1	11
492.953	1	18
493.294	1	11
493.635	1	12
493.975	1	22
494.316	1	15
494.656	1	14
494.997	1	13
495.337	1	19
495.678	1	17
496.019	1	20
496.359	1	26
496.700	1	8
497.040	1	26
497.381	1	18
497.721	1	19
498.062	1	12
498.403	1	18
498.743	1	31
499.084	1	25
499.424	1	19
499.765	1	14
500.105	1	28
500.446	1	32
500.786	1	28
501.127	1	29
501.467	1	22
501.808	1	19
502.148	1	33
502.489	1	32
502.829	1	16
503.170	1	10
503.510	1	34
503.851	1	26
504.191	1	22
504.532	1	23
504.872	1	25
505.213	1	29
505.553	1	36
505.894	1	33
506.234	1	28
506.575	1	29
506.915	1	26
507.256	1	44
507.596	1	21
507.936	1	36
508.277	1	34
508.617	1	31
508.958	1	31
509.298	1	30
509.639	1	43
509.979	1	34
510.319	1	53
510.660	1	25
511.000	1	36
511.341	1	32
511.681	1	44
512.022	1	40
512.362	1	39
512.702	1	43
513.043	1	40
513.383	1	39
513.724	1	34
514.064	1	33
514.404	1	48
514.745	1	46
515.085	1	43
515.425	1	39
515.766	1	51
516.106	1	29
516.447	1	44
516.787	1	48
517.127	1	38
517.468	1	42
517.808	1	36
518.148	1	38
518.489	1	50
518.829	1	52
519.169	1	53
519.510	1	38
519.850	1	59
520.190	1	52
520.531	1	55
520.871	1	36
521.211	1	43
521.552	1	43
521.892	1	56
522.232	1	41
522.573	1	43
522.913	1	53
523.253	1	47
523.593	1	51
523.934	1	42
524.274	1	42
524.614	1	60
524.955	1	44
525.295	1	44
525.635	1	47
525.975	1	56
526.316	1	49
526.656	1	36
526.996	1	45
527.337	1	51
527.677	1	39
528.017	1	47
528.357	1	47
528.698	1	48
529.038	1	40
529.378	1	59
529.718	1	48
530.058	1	42
530.399	1	43
530.739	1	54
531.079	1	53
531.419	1	57
531.760	1	42
532.100	1	56
532.440	1	47
532.780	1	43
533.120	1	51
533.461	1	45
533.801	1	58
534.141	1	55
534.481	1	51
534.821	1	48
535.162	1	56
535.502	1	52
535.842	1	47
536.182	1	54
536.522	1	42
536.862	1	54
537.203	1	45
537.543	1	56
537.883	1	36
538.223	1	47
538.563	1	43
538.903	1	53
539.243	1	36
539.584	1	52
539.924	1	48
540.264	1	40
540.604	1	47
540.944	1	42
541.284	1	39
541.624	1	47
541.964	1	46
542.305	1	33
542.645	1	36
542.985	1	36
543.325	1	34
543.665	1	47
544.005	1	46
544.345	1	34
544.685	1	49
545.025	1	37
545.365	1	48
545.705	1	30
546.045	1	34
546.386	1	46
546.726	1	29
547.066	1	41
547.406	1	28
547.746	1	33
548.086	1	28
548.426	1	36
548.766	1	41
549.106	1	38
549.446	1	38
549.786	1	37
550.126	1	57
550.466	1	36
550.806	1	51
551.146	1	36
551.486	1	36
551.826	1	32
552.166	1	47
552.506	1	37
552.846	1	33
553.186	1	51
553.526	1	41
553.866	1	23
554.206	1	33
554.546	1	46
554.886	1	31
555.226	1	39
555.566	1	35
555.906	1	36
556.246	1	35
556.586	1	35
556.926	1	48
557.266	1	35
557.606	1	21
557.946	1	37
558.286	1	44
558.626	1	25
558.966	1	22
559.306	1	30
559.646	1	33
559.986	1	33
560.325	1	20
560.665	1	35
561.005	1	31
561.345	1	43
561.685	1	35
562.025	1	12
562.365	1	22
562.705	1	30
563.045	1	25
563.385	1	27
563.725	1	25
564.064	1	39
564.404	1	19
564.744	1	22
565.084	1	22
565.424	1	19
565.764	1	27
566.104	1	27
566.444	1	39
566.783	1	24
567.123	1	27
567.463	1	11
567.803	1	19
568.143	1	32
568.483	1	22
568.823	1	18
569.162	1	30
569.502	1	24
569.842	1	24
570.182	1	22
570.522	1	0
570.862	1	25
571.201	1	19
571.541	1	18
571.881	1	17
572.221	1	29
572.561	1	21
572.900	1	17
573.240	1	17
573.580	1	12
573.920	1	29
574.260	1	22
574.599	1	29
574.939	1	17
575.279	1	13
575.619	1	28
575.959	1	18
576.298	1	21
576.638	1	12
576.978	1	13
577.318	1	13
577.657	1	26
577.997	1	23
578.337	1	9
578.677	1	25
579.016	1	9
579.356	1	24
579.696	1	6
580.036	1	13
580.375	1	10
580.715	1	23
581.055	1	12
581.394	1	22
581.734	1	15
582.074	1	10
582.414	1	10
582.753	1	12
583.093	1	14
583.433	1	25
583.772	1	21
584.112	1	12
584.452	1	20
584.791	1	17
585.131	1	19
585.471	1	1
585.811	1	11
586.150	1	28
586.490	1	11
586.830	1	10
587.169	1	20
587.509	1	15
587.849	1	11
588.188	1	21
588.528	1	17
588.867	1	14
589.207	1	11
589.547	1	2
589.886	1	10
590.226	1	28
590.566	1	14
590.905	1	14
591.245	1	3
591.585	1	14
591.924	1	11
592.264	1	2
592.603	1	-1
592.943	1	7
593.283	1	9
593.622	1	13
593.962	1	12
594.301	1	6
594.641	1	12
594.981	1	-1
595.320	1	16
595.660	1	11
595.999	1	16
596.339	1	13
596.678	1	8
597.018	1	14
597.358	1	3
597.697	1	6
598.037	1	13
598.376	1	10
598.716	1	16
599.055	1	17
599.395	1	1
599.734	1	-1
600.074	1	8
600.413	1	20
600.753	1	12
601.092	1	4
601.432	1	0
601.771	1	18
602.111	1	9
602.451	1	5
602.790	1	7
603.130	1	7
603.469	1	15
603.809	1	9
604.148	1	3
604.487	1	14
604.827	1	11
605.166	1	10
605.506	1	9
605.845	1	-3
606.185	1	8
606.524	1	7
606.864	1	18
607.203	1	0
607.543	1	4
607.882	1	17
608.222	1	-4
608.561	1	2
608.901	1	6
609.240	1	5
609.579	1	15
609.919	1	14
610.258	1	0
610.598	1	6
610.937	1	2
611.277	1	6
611.616	1	3
611.955	1	0
612.295	1	13
612.634	1	-1
612.974	1	21
613.313	1	11
613.652	1	0
613.992	1	4
614.331	1	9
614.671	1	9
615.010	1	3
615.349	1	2
615.689	1	3
616.028	1	17
616.368	1	7
616.707	1	19
617.046	1	10
617.386	1	12
617.725	1	5
618.064	1	20
618.404	1	5
618.743	1	7
619.082	1	1
619.422	1	12
619.761	1	14
620.100	1	9
620.440	1	13
620.779	1	3
621.118	1	6
621.458	1	6
621.797	1	8
622.136	1	12
622.476	1	9
622.815	1	3
623.154	1	3
623.494	1	14
623.833	1	11
624.172	1	-1
624.511	1	2
624.851	1	5
625.190	1	5
625.529	1	3
625.869	1	6
626.208	1	-1
626.547	1	7
626.886	1	6
627.226	1	5
627.565	1	2
627.904	1	8
628.243	1	15
628.583	1	-9
628.922	1	3
629.261	1	-2
629.600	1	6
629.940	1	15
630.279	1	7
630.618	1	4
630.957	1	-5
631.297	1	6
631.636	1	16
631.975	1	12
632.314	1	1
632.653	1	5
632.993	1	9
633.332	1	-1
633.671	1	4
634.010	1	2
634.349	1	6
634.689	1	15
635.028	1	4
635.367	1	5
635.706	1	7
636.045	1	13
636.384	1	0
636.724	1	6
637.063	1	14
637.402	1	-3
637.741	1	9
638.080	1	16
638.419	1	17
638.759	1	11
639.098	1	1
639.437	1	6
639.776	1	4
640.115	1	7
640.454	1	5
640.793	1	2
641.132	1	7
641.472	1	10
641.811	1	3
642.150	1	-7
642.489	1	-1
642.828	1	4
643.167	1	5
643.506	1	8
643.845	1	1
644.184	1	-2
644.524	1	4
644.863	1	2
645.202	1	18
645.541	1	5
645.880	1	11
646.219	1	9
646.558	1	2
646.897	1	-3
647.236	1	2
647.575	1	4
647.914	1	-3
648.253	1	15
648.592	1	6
648.931	1	-6
649.270	1	5
649.610	1	1
649.949	1	5
650.288	1	13
650.627	1	4
650.966	1	6
651.305	1	1
651.644	1	5
651.983	1	-9
652.322	1	-14
652.661	1	10
653.000	1	-1
653.339	1	5
653.678	1	6
654.017	1	-1
654.356	1	6
654.695	1	5
655.034	1	4
655.373	1	7
655.712	1	1
656.051	1	9
656.390	1	2
656.729	1	8
657.068	1	0
657.406	1	8
657.745	1	2
658.084	1	4
658.423	1	1
658.762	1	17
659.101	1	6
659.440	1	0
659.779	1	4
660.118	1	-4
660.457	1	2
660.796	1	6
661.135	1	11
661.474	1	11
661.813	1	8
662.152	1	4
662.491	1	8
662.829	1	13
663.168	1	7
663.507	1	-1
663.846	1	13
664.185	1	-4
664.524	1	2
664.863	1	11
665.202	1	10
665.541	1	3
665.879	1	14
666.218	1	10
666.557	1	4
666.896	1	6
667.235	1	9
667.574	1	16
667.913	1	-1
668.251	1	8
668.590	1	15
668.929	1	10
669.268	1	-3
669.607	1	-2
669.946	1	14
670.285	1	5
670.623	1	12
670.962	1	-2
671.301	1	-1
671.640	1	-3
671.979	1	5
672.317	1	4
672.656	1	12
672.995	1	2
673.334	1	-5
673.673	1	12
674.011	1	8
674.350	1	6
674.689	1	10
675.028	1	17
675.367	1	4
675.705	1	15
676.044	1	14
676.383	1	5
676.722	1	4
677.060	1	7
677.399	1	0
677.738	1	1
678.077	1	3
678.416	1	12
678.754	1	1
679.093	1	2
679.432	1	1
679.771	1	1
680.109	1	12
680.448	1	8
680.787	1	8
681.125	1	13
681.464	1	3
681.803	1	-1
682.142	1	-1
682.480	1	16
682.819	1	6
683.158	1	5
683.496	1	5
683.835	1	5
684.174	1	15
684.512	1	8
684.851	1	5
685.190	1	2
685.529	1	-2
685.867	1	7
686.206	1	18
686.545	1	2
686.883	1	15
687.222	1	4
687.561	1	10
687.899	1	9
688.238	1	14
688.577	1	4
688.746	1	10