File: Data/GaN_130K_350ms/GaN_sample F_spot6_UVVIS_130 K_200um_350 ms 2x2mm1_195.txt
340.368	1	11
340.710	1	1
341.052	1	-3
341.394	1	4
341.737	1	7
342.079	1	0
342.421	1	9
342.763	1	4
343.105	1	3
343.447	1	9
343.789	1	5
344.131	1	9
344.473	1	4
344.815	1	-3
345.157	1	-8
345.499	1	-1
345.841	1	4
346.183	1	8
346.526	1	4
346.868	1	7
347.210	1	8
347.552	1	4
347.894	1	-6
348.236	1	2
348.578	1	2
348.920	1	-3
349.262	1	16
349.604	1	-4
349.946	1	9
350.288	1	-7
350.630	1	4
350.972	1	12
351.314	1	5
351.656	1	7
351.998	1	0
352.340	1	10
352.682	1	-2
353.024	1	-5
353.366	1	1
353.708	1	0
354.050	1	-1
354.392	1	6
354.734	1	-2
355.076	1	8
355.418	1	11
355.760	1	8
356.102	1	-11
356.444	1	-6
356.785	1	11
357.127	1	5
357.469	1	2
357.811	1	5
358.153	1	-2
358.495	1	8
358.837	1	4
359.179	1	1
359.521	1	2
359.863	1	3
360.205	1	15
360.547	1	-1
360.889	1	-2
361.231	1	3
361.572	1	10
361.914	1	9
362.256	1	6
362.598	1	5
362.940	1	7
363.282	1	25
363.624	1	8
363.966	1	22
364.308	1	20
364.649	1	13
364.991	1	14
365.333	1	-2
365.675	1	16
366.017	1	21
366.359	1	22
366.701	1	13
367.042	1	27
367.384	1	25
367.726	1	17
368.068	1	17
368.410	1	15
368.752	1	17
369.093	1	9
369.435	1	17
369.777	1	26
370.119	1	18
370.461	1	19
370.803	1	2
371.144	1	15
371.486	1	15
371.828	1	18
372.170	1	19
372.512	1	18
372.853	1	5
373.195	1	8
373.537	1	6
373.879	1	23
374.220	1	2
374.562	1	3
374.904	1	14
375.246	1	22
375.588	1	6
375.929	1	9
376.271	1	16
376.613	1	1
376.955	1	4
377.296	1	6
377.638	1	7
377.980	1	-2
378.321	1	10
378.663	1	14
379.005	1	17
379.347	1	13
379.688	1	7
380.030	1	5
380.372	1	11
380.714	1	18
381.055	1	11
381.397	1	2
381.739	1	4
382.080	1	-6
382.422	1	16
382.764	1	8
383.105	1	5
383.447	1	9
383.789	1	8
384.130	1	6
384.472	1	12
384.814	1	2
385.156	1	10
385.497	1	-2
385.839	1	10
386.180	1	12
386.522	1	-2
386.864	1	9
387.205	1	-4
387.547	1	12
387.889	1	3
388.230	1	8
388.572	1	-5
388.914	1	6
389.255	1	12
389.597	1	-1
389.939	1	5
390.280	1	13
390.622	1	18
390.963	1	11
391.305	1	15
391.647	1	7
391.988	1	17
392.330	1	-3
392.671	1	6
393.013	1	10
393.355	1	1
393.696	1	3
394.038	1	11
394.379	1	16
394.721	1	10
395.062	1	12
395.404	1	-14
395.746	1	8
396.087	1	21
396.429	1	13
396.770	1	10
397.112	1	3
397.453	1	17
397.795	1	-1
398.136	1	11
398.478	1	6
398.819	1	-5
399.161	1	-3
399.503	1	11
399.844	1	6
400.186	1	10
400.527	1	13
400.869	1	9
401.210	1	-3
401.552	1	22
401.893	1	-1
402.235	1	10
402.576	1	-1
402.918	1	13
403.259	1	4
403.601	1	10
403.942	1	11
404.284	1	2
404.625	1	15
404.967	1	10
405.308	1	4
405.649	1	8
405.991	1	13
406.332	1	6
406.674	1	13
407.015	1	11
407.357	1	-1
407.698	1	0
408.040	1	13
408.381	1	15
408.722	1	3
409.064	1	8
409.405	1	10
409.747	1	9
410.088	1	-1
410.430	1	16
410.771	1	-8
411.112	1	12
411.454	1	8
411.795	1	6
412.137	1	4
412.478	1	6
412.819	1	11
413.161	1	21
413.502	1	17
413.844	1	1
414.185	1	16
414.526	1	9
414.868	1	7
415.209	1	9
415.550	1	8
415.892	1	9
416.233	1	8
416.575	1	2
416.916	1	2
417.257	1	9
417.599	1	11
417.940	1	14
418.281	1	-3
418.623	1	4
418.964	1	-1
419.305	1	4
419.647	1	7
419.988	1	17
420.329	1	8
420.671	1	1
421.012	1	5
421.353	1	7
421.695	1	-5
422.036	1	-2
422.377	1	8
422.718	1	-3
423.060	1	14
423.401	1	9
423.742	1	4
424.084	1	12
424.425	1	9
424.766	1	7
425.107	1	6
425.449	1	4
425.790	1	14
426.131	1	21
426.472	1	1
426.814	1	7
427.155	1	2
427.496	1	14
427.837	1	8
428.179	1	14
428.520	1	7
428.861	1	12
429.202	1	6
429.544	1	15
429.885	1	6
430.226	1	7
430.567	1	7
430.909	1	4
431.250	1	15
431.591	1	10
431.932	1	0
432.273	1	11
432.615	1	12
432.956	1	-1
433.297	1	13
433.638	1	6
433.979	1	12
434.320	1	8
434.662	1	4
435.003	1	12
435.344	1	12
435.685	1	3
436.026	1	15
436.368	1	-6
436.709	1	6
437.050	1	11
437.391	1	14
437.732	1	12
438.073	1	6
438.414	1	1
438.756	1	6
439.097	1	4
439.438	1	7
439.779	1	15
440.120	1	9
440.461	1	19
440.802	1	-4
441.143	1	3
441.485	1	7
441.826	1	6
442.167	1	-1
442.508	1	3
442.849	1	4
443.190	1	3
443.531	1	3
443.872	1	12
444.213	1	1
444.554	1	3
444.895	1	2
445.237	1	4
445.578	1	-3
445.919	1	3
446.260	1	-2
446.601	1	4
446.942	1	4
447.283	1	9
447.624	1	-4
447.965	1	0
448.306	1	5
448.647	1	11
448.988	1	12
449.329	1	-3
449.670	1	-4
450.011	1	-3
450.352	1	12
450.693	1	2
451.034	1	1
451.375	1	9
451.716	1	5
452.057	1	13
452.398	1	-3
452.739	1	0
453.080	1	3
453.421	1	0
453.762	1	5
454.103	1	3
454.444	1	3
454.785	1	10
455.126	1	-3
455.467	1	0
455.808	1	12
456.149	1	0
456.490	1	14
456.831	1	10
457.172	1	-4
457.513	1	-1
457.854	1	7
458.195	1	-11
458.536	1	8
458.877	1	20
459.218	1	4
459.559	1	-1
459.899	1	-4
460.240	1	10
460.581	1	1
460.922	1	10
461.263	1	13
461.604	1	-11
461.945	1	5
462.286	1	5
462.627	1	6
462.968	1	7
463.309	1	5
463.649	1	-2
463.990	1	-4
464.331	1	4
464.672	1	6
465.013	1	-4
465.354	1	-2
465.695	1	8
466.036	1	8
466.376	1	0
466.717	1	6
467.058	1	9
467.399	1	-9
467.740	1	16
468.081	1	15
468.422	1	12
468.762	1	1
469.103	1	4
469.444	1	8
469.785	1	11
470.126	1	-2
470.467	1	5
470.807	1	7
471.148	1	4
471.489	1	-2
471.830	1	6
472.171	1	9
472.511	1	13
472.852	1	9
473.193	1	0
473.534	1	-2
473.875	1	10
474.215	1	-5
474.556	1	9
474.897	1	0
475.238	1	16
475.578	1	6
475.919	1	-7
476.260	1	4
476.601	1	-1
476.942	1	10
477.282	1	11
477.623	1	1
477.964	1	1
478.305	1	7
478.645	1	-5
478.986	1	-2
479.327	1	1
479.667	1	0
480.008	1	0
480.349	1	0
480.690	1	10
481.030	1	3
481.371	1	12
481.712	1	5
482.053	1	-1
482.393	1	4
482.734	1	2
483.075	1	13
483.415	1	6
483.756	1	-4
484.097	1	5
484.437	1	9
484.778	1	5
485.119	1	11
485.459	1	-7
485.800	1	12
486.141	1	-3
486.481	1	9
486.822	1	11
487.163	1	-5
487.503	1	1
487.844	1	1
488.185	1	5
488.525	1	4
488.866	1	5
489.207	1	-3
489.547	1	5
489.888	1	18
490.228	1	9
490.569	1	8
490.910	1	-2
491.250	1	14
491.591	1	8
491.932	1	-2
492.272	1	-3
492.613	1	3
492.953	1	2
493.294	1	3
493.635	1	9
493.975	1	12
494.316	1	12
494.656	1	5
494.997	1	6
495.337	1	3
495.678	1	-3
496.019	1	-3
496.359	1	11
496.700	1	9
497.040	1	14
497.381	1	-7
497.721	1	5
498.062	1	-2
498.403	1	2
498.743	1	7
499.084	1	11
499.424	1	-3
499.765	1	-4
500.105	1	7
500.446	1	2
500.786	1	5
501.127	1	4
501.467	1	0
501.808	1	3
502.148	1	0
502.489	1	0
502.829	1	9
503.170	1	-1
503.510	1	2
503.851	1	0
504.191	1	3
504.532	1	5
504.872	1	-5
505.213	1	0
505.553	1	3
505.894	1	6
506.234	1	-2
506.575	1	1
506.915	1	6
507.256	1	11
507.596	1	5
507.936	1	2
508.277	1	-2
508.617	1	-2
508.958	1	8
509.298	1	1
509.639	1	8
509.979	1	-6
510.319	1	13
510.660	1	0
511.000	1	8
511.341	1	5
511.681	1	6
512.022	1	9
512.362	1	2
512.702	1	11
513.043	1	8
513.383	1	8
513.724	1	1
514.064	1	-1
514.404	1	14
514.745	1	3
515.085	1	7
515.425	1	0
515.766	1	12
516.106	1	-1
516.447	1	3
516.787	1	9
517.127	1	5
517.468	1	10
517.808	1	9
518.148	1	12
518.489	1	3
518.829	1	11
519.169	1	11
519.510	1	4
519.850	1	6
520.190	1	14
520.531	1	17
520.871	1	-3
521.211	1	1
521.552	1	9
521.892	1	13
522.232	1	1
522.573	1	11
522.913	1	6
523.253	1	11
523.593	1	12
523.934	1	2
524.274	1	-5
524.614	1	16
524.955	1	9
525.295	1	1
525.635	1	8
525.975	1	12
526.316	1	12
526.656	1	9
526.996	1	7
527.337	1	16
527.677	1	7
528.017	1	0
528.357	1	20
528.698	1	3
529.038	1	-5
529.378	1	3
529.718	1	12
530.058	1	0
530.399	1	6
530.739	1	9
531.079	1	14
531.419	1	9
531.760	1	1
532.100	1	12
532.440	1	5
532.780	1	4
533.120	1	8
533.461	1	9
533.801	1	20
534.141	1	6
534.481	1	5
534.821	1	13
535.162	1	8
535.502	1	13
535.842	1	8
536.182	1	1
536.522	1	-4
536.862	1	8
537.203	1	6
537.543	1	5
537.883	1	1
538.223	1	10
538.563	1	13
538.903	1	16
539.243	1	5
539.584	1	2
539.924	1	5
540.264	1	-3
540.604	1	9
540.944	1	13
541.284	1	5
541.624	1	21
541.964	1	0
542.305	1	6
542.645	1	4
542.985	1	-4
543.325	1	5
543.665	1	17
544.005	1	13
544.345	1	8
544.685	1	10
545.025	1	2
545.365	1	13
545.705	1	4
546.045	1	4
546.386	1	11
546.726	1	11
547.066	1	10
547.406	1	-3
547.746	1	6
548.086	1	-6
548.426	1	7
548.766	1	13
549.106	1	-3
549.446	1	0
549.786	1	-4
550.126	1	22
550.466	1	6
550.806	1	11
551.146	1	3
551.486	1	9
551.826	1	6
552.166	1	6
552.506	1	7
552.846	1	-4
553.186	1	4
553.526	1	7
553.866	1	-2
554.206	1	-1
554.546	1	10
554.886	1	5
555.226	1	8
555.566	1	-2
555.906	1	-4
556.246	1	6
556.586	1	-5
556.926	1	1
557.266	1	0
557.606	1	11
557.946	1	12
558.286	1	15
558.626	1	-10
558.966	1	0
559.306	1	1
559.646	1	3
559.986	1	5
560.325	1	-11
560.665	1	8
561.005	1	6
561.345	1	24
561.685	1	2
562.025	1	9
562.365	1	11
562.705	1	1
563.045	1	0
563.385	1	4
563.725	1	6
564.064	1	16
564.404	1	12
564.744	1	11
565.084	1	14
565.424	1	-1
565.764	1	10
566.104	1	10
566.444	1	11
566.783	1	14
567.123	1	7
567.463	1	-2
567.803	1	11
568.143	1	17
568.483	1	1
568.823	1	-4
569.162	1	7
569.502	1	3
569.842	1	-1
570.182	1	10
570.522	1	-7
570.862	1	16
571.201	1	5
571.541	1	6
571.881	1	-1
572.221	1	5
572.561	1	10
572.900	1	-1
573.240	1	-2
573.580	1	0
573.920	1	11
574.260	1	6
574.599	1	12
574.939	1	7
575.279	1	-8
575.619	1	12
575.959	1	3
576.298	1	8
576.638	1	-2
576.978	1	3
577.318	1	0
577.657	1	19
577.997	1	9
578.337	1	-1
578.677	1	13
579.016	1	-1
579.356	1	8
579.696	1	6
580.036	1	-1
580.375	1	-2
580.715	1	8
581.055	1	8
581.394	1	-5
581.734	1	-4
582.074	1	8
582.414	1	0
582.753	1	-1
583.093	1	14
583.433	1	6
583.772	1	10
584.112	1	5
584.452	1	19
584.791	1	0
585.131	1	11
585.471	1	11
585.811	1	6
586.150	1	7
586.490	1	-2
586.830	1	0
587.169	1	2
587.509	1	10
587.849	1	1
588.188	1	15
588.528	1	9
588.867	1	5
589.207	1	-2
589.547	1	-5
589.886	1	0
590.226	1	8
590.566	1	3
590.905	1	12
591.245	1	2
591.585	1	10
591.924	1	0
592.264	1	6
592.603	1	6
592.943	1	3
593.283	1	-9
593.622	1	3
593.962	1	1
594.301	1	-1
594.641	1	11
594.981	1	-3
595.320	1	5
595.660	1	2
595.999	1	6
596.339	1	14
596.678	1	-3
597.018	1	7
597.358	1	4
597.697	1	-2
598.037	1	16
598.376	1	-1
598.716	1	11
599.055	1	-4
599.395	1	5
599.734	1	-2
600.074	1	0
600.413	1	7
600.753	1	3
601.092	1	7
601.432	1	1
601.771	1	10
602.111	1	-2
602.451	1	3
602.790	1	-6
603.130	1	1
603.469	1	-4
603.809	1	2
604.148	1	12
604.487	1	13
604.827	1	6
605.166	1	10
605.506	1	2
605.845	1	-4
606.185	1	-3
606.524	1	7
606.864	1	3
607.203	1	-2
607.543	1	2
607.882	1	3
608.222	1	-13
608.561	1	5
608.901	1	10
609.240	1	-2
609.579	1	11
609.919	1	15
610.258	1	-1
610.598	1	1
610.937	1	7
611.277	1	12
611.616	1	-4
611.955	1	5
612.295	1	2
612.634	1	-2
612.974	1	9
613.313	1	1
613.652	1	2
613.992	1	-6
614.331	1	8
614.671	1	5
615.010	1	2
615.349	1	1
615.689	1	5
616.028	1	10
616.368	1	1
616.707	1	13
617.046	1	7
617.386	1	1
617.725	1	-1
618.064	1	4
618.404	1	3
618.743	1	9
619.082	1	-3
619.422	1	-4
619.761	1	11
620.100	1	6
620.440	1	7
620.779	1	7
621.118	1	1
621.458	1	8
621.797	1	-1
622.136	1	2
622.476	1	1
622.815	1	-1
623.154	1	-4
623.494	1	17
623.833	1	21
624.172	1	-2
624.511	1	5
624.851	1	-2
625.190	1	3
625.529	1	-2
625.869	1	4
626.208	1	1
626.547	1	0
626.886	1	-4
627.226	1	0
627.565	1	2
627.904	1	2
628.243	1	11
628.583	1	-5
628.922	1	-3
629.261	1	-11
629.600	1	-3
629.940	1	10
630.279	1	14
630.618	1	1
630.957	1	-4
631.297	1	-6
631.636	1	5
631.975	1	8
632.314	1	-1
632.653	1	0
632.993	1	15
633.332	1	6
633.671	1	-5
634.010	1	0
634.349	1	3
634.689	1	3
635.028	1	12
635.367	1	2
635.706	1	3
636.045	1	7
636.384	1	-6
636.724	1	-4
637.063	1	7
637.402	1	1
637.741	1	0
638.080	1	14
638.419	1	4
638.759	1	-1
639.098	1	-7
639.437	1	6
639.776	1	0
640.115	1	16
640.454	1	13
640.793	1	-17
641.132	1	17
641.472	1	0
641.811	1	-6
642.150	1	-10
642.489	1	3
642.828	1	1
643.167	1	6
643.506	1	14
643.845	1	2
644.184	1	-3
644.524	1	10
644.863	1	-4
645.202	1	9
645.541	1	2
645.880	1	11
646.219	1	-3
646.558	1	-1
646.897	1	7
647.236	1	-2
647.575	1	-5
647.914	1	-3
648.253	1	2
648.592	1	-3
648.931	1	-3
649.270	1	1
649.610	1	0
649.949	1	1
650.288	1	8
650.627	1	6
650.966	1	3
651.305	1	-6
651.644	1	-8
651.983	1	-4
652.322	1	-4
652.661	1	4
653.000	1	1
653.339	1	-6
653.678	1	-9
654.017	1	-3
654.356	1	11
654.695	1	-2
655.034	1	1
655.373	1	3
655.712	1	4
656.051	1	4
656.390	1	-2
656.729	1	6
657.068	1	-3
657.406	1	-1
657.745	1	-1
658.084	1	4
658.423	1	0
658.762	1	14
659.101	1	9
659.440	1	2
659.779	1	-2
660.118	1	-7
660.457	1	-7
660.796	1	3
661.135	1	8
661.474	1	7
661.813	1	5
662.152	1	-2
662.491	1	17
662.829	1	9
663.168	1	-1
663.507	1	-4
663.846	1	6
664.185	1	-4
664.524	1	-9
664.863	1	4
665.202	1	3
665.541	1	-8
665.879	1	8
666.218	1	3
666.557	1	11
666.896	1	11
667.235	1	5
667.574	1	12
667.913	1	2
668.251	1	2
668.590	1	6
668.929	1	-2
669.268	1	2
669.607	1	6
669.946	1	8
670.285	1	8
670.623	1	14
670.962	1	2
671.301	1	-10
671.640	1	-9
671.979	1	4
672.317	1	10
672.656	1	-11
672.995	1	-4
673.334	1	-6
673.673	1	5
674.011	1	0
674.350	1	10
674.689	1	2
675.028	1	4
675.367	1	-3
675.705	1	12
676.044	1	10
676.383	1	-5
676.722	1	-1
677.060	1	3
677.399	1	8
677.738	1	2
678.077	1	-6
678.416	1	4
678.754	1	3
679.093	1	-1
679.432	1	6
679.771	1	8
680.109	1	3
680.448	1	3
680.787	1	9
681.125	1	18
681.464	1	-6
681.803	1	-2
682.142	1	-5
682.480	1	11
682.819	1	0
683.158	1	8
683.496	1	0
683.835	1	-11
684.174	1	0
684.512	1	9
684.851	1	1
685.190	1	-1
685.529	1	-7
685.867	1	3
686.206	1	4
686.545	1	-2
686.883	1	-5
687.222	1	7
687.561	1	7
687.899	1	-2
688.238	1	11
688.577	1	-6
688.746	1	3