File: Data/GaN_130K_350ms/GaN_sample F_spot6_UVVIS_130 K_200um_350 ms 2x2mm1_115.txt
340.368	1	1
340.710	1	7
341.052	1	1
341.394	1	2
341.737	1	-2
342.079	1	3
342.421	1	2
342.763	1	7
343.105	1	0
343.447	1	7
343.789	1	2
344.131	1	7
344.473	1	6
344.815	1	-3
345.157	1	-7
345.499	1	-6
345.841	1	4
346.183	1	13
346.526	1	0
346.868	1	7
347.210	1	1
347.552	1	0
347.894	1	-4
348.236	1	0
348.578	1	-1
348.920	1	-2
349.262	1	7
349.604	1	1
349.946	1	11
350.288	1	0
350.630	1	3
350.972	1	2
351.314	1	6
351.656	1	10
351.998	1	10
352.340	1	15
352.682	1	3
353.024	1	8
353.366	1	10
353.708	1	10
354.050	1	18
354.392	1	1
354.734	1	7
355.076	1	11
355.418	1	9
355.760	1	9
356.102	1	8
356.444	1	-9
356.785	1	20
357.127	1	12
357.469	1	17
357.811	1	17
358.153	1	16
358.495	1	18
358.837	1	16
359.179	1	25
359.521	1	13
359.863	1	17
360.205	1	35
360.547	1	16
360.889	1	28
361.231	1	29
361.572	1	27
361.914	1	26
362.256	1	30
362.598	1	38
362.940	1	26
363.282	1	45
363.624	1	45
363.966	1	55
364.308	1	52
364.649	1	54
364.991	1	47
365.333	1	38
365.675	1	64
366.017	1	68
366.359	1	68
366.701	1	74
367.042	1	78
367.384	1	77
367.726	1	84
368.068	1	65
368.410	1	59
368.752	1	78
369.093	1	74
369.435	1	66
369.777	1	73
370.119	1	66
370.461	1	64
370.803	1	66
371.144	1	60
371.486	1	53
371.828	1	57
372.170	1	48
372.512	1	57
372.853	1	53
373.195	1	48
373.537	1	39
373.879	1	51
374.220	1	42
374.562	1	40
374.904	1	47
375.246	1	45
375.588	1	27
375.929	1	20
376.271	1	34
376.613	1	28
376.955	1	38
377.296	1	22
377.638	1	20
377.980	1	26
378.321	1	26
378.663	1	43
379.005	1	43
379.347	1	18
379.688	1	16
380.030	1	26
380.372	1	26
380.714	1	27
381.055	1	19
381.397	1	21
381.739	1	22
382.080	1	6
382.422	1	28
382.764	1	11
383.105	1	18
383.447	1	14
383.789	1	21
384.130	1	15
384.472	1	21
384.814	1	14
385.156	1	12
385.497	1	11
385.839	1	20
386.180	1	27
386.522	1	8
386.864	1	14
387.205	1	13
387.547	1	24
387.889	1	9
388.230	1	5
388.572	1	21
388.914	1	13
389.255	1	16
389.597	1	-3
389.939	1	13
390.280	1	21
390.622	1	16
390.963	1	17
391.305	1	16
391.647	1	11
391.988	1	20
392.330	1	5
392.671	1	11
393.013	1	14
393.355	1	16
393.696	1	6
394.038	1	15
394.379	1	21
394.721	1	18
395.062	1	15
395.404	1	-4
395.746	1	15
396.087	1	16
396.429	1	17
396.770	1	20
397.112	1	15
397.453	1	17
397.795	1	3
398.136	1	10
398.478	1	7
398.819	1	1
399.161	1	14
399.503	1	21
399.844	1	7
400.186	1	-1
400.527	1	13
400.869	1	11
401.210	1	15
401.552	1	17
401.893	1	0
402.235	1	13
402.576	1	16
402.918	1	15
403.259	1	12
403.601	1	25
403.942	1	13
404.284	1	4
404.625	1	17
404.967	1	15
405.308	1	16
405.649	1	15
405.991	1	13
406.332	1	14
406.674	1	23
407.015	1	9
407.357	1	9
407.698	1	11
408.040	1	13
408.381	1	16
408.722	1	10
409.064	1	12
409.405	1	15
409.747	1	10
410.088	1	16
410.430	1	19
410.771	1	2
411.112	1	19
411.454	1	13
411.795	1	12
412.137	1	0
412.478	1	14
412.819	1	16
413.161	1	6
413.502	1	17
413.844	1	9
414.185	1	15
414.526	1	10
414.868	1	11
415.209	1	4
415.550	1	14
415.892	1	6
416.233	1	14
416.575	1	16
416.916	1	3
417.257	1	9
417.599	1	17
417.940	1	13
418.281	1	12
418.623	1	9
418.964	1	4
419.305	1	2
419.647	1	11
419.988	1	14
420.329	1	18
420.671	1	5
421.012	1	6
421.353	1	9
421.695	1	4
422.036	1	16
422.377	1	14
422.718	1	11
423.060	1	11
423.401	1	10
423.742	1	10
424.084	1	2
424.425	1	13
424.766	1	6
425.107	1	11
425.449	1	13
425.790	1	5
426.131	1	14
426.472	1	6
426.814	1	15
427.155	1	3
427.496	1	9
427.837	1	14
428.179	1	6
428.520	1	2
428.861	1	5
429.202	1	8
429.544	1	20
429.885	1	9
430.226	1	8
430.567	1	6
430.909	1	7
431.250	1	9
431.591	1	8
431.932	1	-3
432.273	1	8
432.615	1	4
432.956	1	-3
433.297	1	10
433.638	1	14
433.979	1	12
434.320	1	10
434.662	1	13
435.003	1	14
435.344	1	5
435.685	1	-9
436.026	1	3
436.368	1	4
436.709	1	3
437.050	1	6
437.391	1	23
437.732	1	18
438.073	1	18
438.414	1	-1
438.756	1	12
439.097	1	9
439.438	1	6
439.779	1	9
440.120	1	-8
440.461	1	16
440.802	1	3
441.143	1	-3
441.485	1	8
441.826	1	5
442.167	1	1
442.508	1	7
442.849	1	13
443.190	1	14
443.531	1	2
443.872	1	8
444.213	1	9
444.554	1	13
444.895	1	4
445.237	1	0
445.578	1	3
445.919	1	6
446.260	1	16
446.601	1	12
446.942	1	12
447.283	1	12
447.624	1	10
447.965	1	2
448.306	1	9
448.647	1	16
448.988	1	10
449.329	1	7
449.670	1	6
450.011	1	3
450.352	1	5
450.693	1	-2
451.034	1	13
451.375	1	8
451.716	1	1
452.057	1	14
452.398	1	0
452.739	1	12
453.080	1	5
453.421	1	6
453.762	1	7
454.103	1	0
454.444	1	11
454.785	1	16
455.126	1	-4
455.467	1	-5
455.808	1	9
456.149	1	-2
456.490	1	8
456.831	1	3
457.172	1	8
457.513	1	0
457.854	1	6
458.195	1	-6
458.536	1	-3
458.877	1	20
459.218	1	6
459.559	1	6
459.899	1	8
460.240	1	18
460.581	1	-1
460.922	1	5
461.263	1	8
461.604	1	-5
461.945	1	11
462.286	1	-1
462.627	1	-2
462.968	1	2
463.309	1	8
463.649	1	6
463.990	1	8
464.331	1	15
464.672	1	2
465.013	1	-1
465.354	1	4
465.695	1	8
466.036	1	9
466.376	1	4
466.717	1	16
467.058	1	11
467.399	1	12
467.740	1	20
468.081	1	12
468.422	1	5
468.762	1	5
469.103	1	9
469.444	1	5
469.785	1	-1
470.126	1	-7
470.467	1	8
470.807	1	0
471.148	1	9
471.489	1	-5
471.830	1	6
472.171	1	8
472.511	1	11
472.852	1	8
473.193	1	3
473.534	1	4
473.875	1	17
474.215	1	5
474.556	1	7
474.897	1	-5
475.238	1	23
475.578	1	4
475.919	1	-5
476.260	1	12
476.601	1	2
476.942	1	4
477.282	1	2
477.623	1	-1
477.964	1	5
478.305	1	15
478.645	1	-1
478.986	1	4
479.327	1	-5
479.667	1	20
480.008	1	3
480.349	1	2
480.690	1	10
481.030	1	8
481.371	1	3
481.712	1	7
482.053	1	2
482.393	1	13
482.734	1	2
483.075	1	19
483.415	1	8
483.756	1	11
484.097	1	9
484.437	1	8
484.778	1	11
485.119	1	16
485.459	1	-12
485.800	1	10
486.141	1	0
486.481	1	11
486.822	1	8
487.163	1	9
487.503	1	-4
487.844	1	11
488.185	1	13
488.525	1	16
488.866	1	7
489.207	1	5
489.547	1	9
489.888	1	17
490.228	1	14
490.569	1	12
490.910	1	-2
491.250	1	10
491.591	1	9
491.932	1	9
492.272	1	8
492.613	1	7
492.953	1	10
493.294	1	18
493.635	1	16
493.975	1	22
494.316	1	10
494.656	1	9
494.997	1	16
495.337	1	10
495.678	1	6
496.019	1	7
496.359	1	18
496.700	1	9
497.040	1	13
497.381	1	7
497.721	1	16
498.062	1	11
498.403	1	4
498.743	1	14
499.084	1	24
499.424	1	3
499.765	1	11
500.105	1	9
500.446	1	15
500.786	1	12
501.127	1	9
501.467	1	17
501.808	1	15
502.148	1	24
502.489	1	16
502.829	1	17
503.170	1	13
503.510	1	13
503.851	1	15
504.191	1	22
504.532	1	12
504.872	1	14
505.213	1	18
505.553	1	15
505.894	1	22
506.234	1	21
506.575	1	13
506.915	1	19
507.256	1	28
507.596	1	23
507.936	1	12
508.277	1	25
508.617	1	25
508.958	1	14
509.298	1	17
509.639	1	29
509.979	1	19
510.319	1	25
510.660	1	13
511.000	1	24
511.341	1	21
511.681	1	21
512.022	1	29
512.362	1	22
512.702	1	24
513.043	1	25
513.383	1	22
513.724	1	17
514.064	1	23
514.404	1	30
514.745	1	13
515.085	1	28
515.425	1	20
515.766	1	26
516.106	1	23
516.447	1	11
516.787	1	23
517.127	1	30
517.468	1	31
517.808	1	18
518.148	1	30
518.489	1	37
518.829	1	24
519.169	1	28
519.510	1	18
519.850	1	40
520.190	1	30
520.531	1	35
520.871	1	34
521.211	1	23
521.552	1	33
521.892	1	35
522.232	1	12
522.573	1	19
522.913	1	29
523.253	1	37
523.593	1	38
523.934	1	22
524.274	1	36
524.614	1	32
524.955	1	33
525.295	1	41
525.635	1	18
525.975	1	35
526.316	1	27
526.656	1	35
526.996	1	31
527.337	1	25
527.677	1	12
528.017	1	28
528.357	1	31
528.698	1	33
529.038	1	24
529.378	1	28
529.718	1	44
530.058	1	29
530.399	1	27
530.739	1	34
531.079	1	29
531.419	1	23
531.760	1	22
532.100	1	34
532.440	1	26
532.780	1	27
533.120	1	27
533.461	1	29
533.801	1	47
534.141	1	29
534.481	1	29
534.821	1	34
535.162	1	30
535.502	1	28
535.842	1	31
536.182	1	36
536.522	1	21
536.862	1	25
537.203	1	21
537.543	1	44
537.883	1	13
538.223	1	37
538.563	1	35
538.903	1	34
539.243	1	22
539.584	1	33
539.924	1	29
540.264	1	23
540.604	1	25
540.944	1	39
541.284	1	31
541.624	1	20
541.964	1	16
542.305	1	24
542.645	1	19
542.985	1	35
543.325	1	22
543.665	1	19
544.005	1	34
544.345	1	21
544.685	1	35
545.025	1	19
545.365	1	21
545.705	1	18
546.045	1	27
546.386	1	22
546.726	1	20
547.066	1	23
547.406	1	21
547.746	1	24
548.086	1	18
548.426	1	30
548.766	1	25
549.106	1	18
549.446	1	32
549.786	1	29
550.126	1	23
550.466	1	24
550.806	1	24
551.146	1	31
551.486	1	16
551.826	1	29
552.166	1	24
552.506	1	28
552.846	1	24
553.186	1	22
553.526	1	25
553.866	1	18
554.206	1	20
554.546	1	24
554.886	1	26
555.226	1	24
555.566	1	22
555.906	1	21
556.246	1	32
556.586	1	18
556.926	1	20
557.266	1	28
557.606	1	12
557.946	1	13
558.286	1	32
558.626	1	13
558.966	1	12
559.306	1	17
559.646	1	24
559.986	1	18
560.325	1	9
560.665	1	21
561.005	1	24
561.345	1	28
561.685	1	24
562.025	1	15
562.365	1	17
562.705	1	15
563.045	1	4
563.385	1	21
563.725	1	12
564.064	1	24
564.404	1	14
564.744	1	28
565.084	1	7
565.424	1	7
565.764	1	9
566.104	1	19
566.444	1	29
566.783	1	23
567.123	1	13
567.463	1	10
567.803	1	26
568.143	1	23
568.483	1	15
568.823	1	-3
569.162	1	19
569.502	1	14
569.842	1	7
570.182	1	20
570.522	1	6
570.862	1	29
571.201	1	17
571.541	1	12
571.881	1	7
572.221	1	15
572.561	1	10
572.900	1	12
573.240	1	9
573.580	1	6
573.920	1	20
574.260	1	11
574.599	1	19
574.939	1	25
575.279	1	8
575.619	1	3
575.959	1	14
576.298	1	13
576.638	1	11
576.978	1	1
577.318	1	13
577.657	1	21
577.997	1	13
578.337	1	16
578.677	1	16
579.016	1	13
579.356	1	16
579.696	1	1
580.036	1	8
580.375	1	3
580.715	1	16
581.055	1	14
581.394	1	9
581.734	1	11
582.074	1	7
582.414	1	7
582.753	1	15
583.093	1	15
583.433	1	5
583.772	1	3
584.112	1	7
584.452	1	21
584.791	1	5
585.131	1	13
585.471	1	11
585.811	1	10
586.150	1	9
586.490	1	8
586.830	1	3
587.169	1	9
587.509	1	2
587.849	1	11
588.188	1	21
588.528	1	19
588.867	1	1
589.207	1	7
589.547	1	2
589.886	1	10
590.226	1	16
590.566	1	10
590.905	1	10
591.245	1	7
591.585	1	9
591.924	1	10
592.264	1	7
592.603	1	5
592.943	1	11
593.283	1	0
593.622	1	12
593.962	1	23
594.301	1	-1
594.641	1	6
594.981	1	-2
595.320	1	19
595.660	1	14
595.999	1	12
596.339	1	13
596.678	1	0
597.018	1	4
597.358	1	0
597.697	1	8
598.037	1	4
598.376	1	7
598.716	1	9
599.055	1	-6
599.395	1	1
599.734	1	1
600.074	1	13
600.413	1	12
600.753	1	9
601.092	1	8
601.432	1	0
601.771	1	18
602.111	1	10
602.451	1	10
602.790	1	8
603.130	1	12
603.469	1	1
603.809	1	5
604.148	1	10
604.487	1	18
604.827	1	0
605.166	1	11
605.506	1	4
605.845	1	-1
606.185	1	3
606.524	1	2
606.864	1	23
607.203	1	5
607.543	1	7
607.882	1	13
608.222	1	-1
608.561	1	6
608.901	1	9
609.240	1	-2
609.579	1	15
609.919	1	9
610.258	1	3
610.598	1	1
610.937	1	9
611.277	1	8
611.616	1	-2
611.955	1	-7
612.295	1	7
612.634	1	4
612.974	1	9
613.313	1	9
613.652	1	-6
613.992	1	1
614.331	1	10
614.671	1	9
615.010	1	-8
615.349	1	2
615.689	1	7
616.028	1	7
616.368	1	9
616.707	1	12
617.046	1	14
617.386	1	6
617.725	1	7
618.064	1	14
618.404	1	8
618.743	1	6
619.082	1	3
619.422	1	1
619.761	1	4
620.100	1	0
620.440	1	7
620.779	1	6
621.118	1	4
621.458	1	9
621.797	1	1
622.136	1	2
622.476	1	14
622.815	1	-3
623.154	1	4
623.494	1	5
623.833	1	9
624.172	1	4
624.511	1	-5
624.851	1	0
625.190	1	6
625.529	1	6
625.869	1	5
626.208	1	10
626.547	1	-1
626.886	1	2
627.226	1	5
627.565	1	5
627.904	1	9
628.243	1	10
628.583	1	-12
628.922	1	-1
629.261	1	-10
629.600	1	7
629.940	1	10
630.279	1	15
630.618	1	-6
630.957	1	12
631.297	1	8
631.636	1	4
631.975	1	9
632.314	1	1
632.653	1	8
632.993	1	7
633.332	1	9
633.671	1	-7
634.010	1	-1
634.349	1	-3
634.689	1	-1
635.028	1	7
635.367	1	5
635.706	1	-1
636.045	1	11
636.384	1	10
636.724	1	8
637.063	1	13
637.402	1	-4
637.741	1	8
638.080	1	11
638.419	1	4
638.759	1	2
639.098	1	-3
639.437	1	20
639.776	1	6
640.115	1	11
640.454	1	9
640.793	1	-4
641.132	1	12
641.472	1	-2
641.811	1	1
642.150	1	-5
642.489	1	1
642.828	1	2
643.167	1	-4
643.506	1	16
643.845	1	-2
644.184	1	-3
644.524	1	5
644.863	1	5
645.202	1	11
645.541	1	2
645.880	1	17
646.219	1	5
646.558	1	7
646.897	1	1
647.236	1	4
647.575	1	4
647.914	1	1
648.253	1	11
648.592	1	6
648.931	1	-3
649.270	1	3
649.610	1	5
649.949	1	12
650.288	1	10
650.627	1	2
650.966	1	5
651.305	1	0
651.644	1	3
651.983	1	-9
652.322	1	2
652.661	1	0
653.000	1	1
653.339	1	8
653.678	1	14
654.017	1	5
654.356	1	3
654.695	1	4
655.034	1	-5
655.373	1	-2
655.712	1	2
656.051	1	5
656.390	1	4
656.729	1	10
657.068	1	2
657.406	1	5
657.745	1	4
658.084	1	3
658.423	1	11
658.762	1	22
659.101	1	8
659.440	1	-11
659.779	1	6
660.118	1	-5
660.457	1	-3
660.796	1	15
661.135	1	12
661.474	1	5
661.813	1	-3
662.152	1	-6
662.491	1	16
662.829	1	15
663.168	1	6
663.507	1	6
663.846	1	7
664.185	1	-2
664.524	1	3
664.863	1	13
665.202	1	0
665.541	1	-2
665.879	1	6
666.218	1	7
666.557	1	8
666.896	1	4
667.235	1	14
667.574	1	13
667.913	1	0
668.251	1	5
668.590	1	8
668.929	1	5
669.268	1	-7
669.607	1	5
669.946	1	8
670.285	1	4
670.623	1	13
670.962	1	0
671.301	1	-5
671.640	1	-6
671.979	1	4
672.317	1	-2
672.656	1	-1
672.995	1	7
673.334	1	0
673.673	1	10
674.011	1	11
674.350	1	5
674.689	1	11
675.028	1	7
675.367	1	3
675.705	1	10
676.044	1	7
676.383	1	5
676.722	1	-1
677.060	1	12
677.399	1	11
677.738	1	5
678.077	1	-3
678.416	1	9
678.754	1	0
679.093	1	10
679.432	1	8
679.771	1	6
680.109	1	6
680.448	1	7
680.787	1	12
681.125	1	10
681.464	1	0
681.803	1	0
682.142	1	-3
682.480	1	16
682.819	1	8
683.158	1	2
683.496	1	6
683.835	1	10
684.174	1	10
684.512	1	11
684.851	1	-1
685.190	1	0
685.529	1	-10
685.867	1	4
686.206	1	8
686.545	1	1
686.883	1	-9
687.222	1	9
687.561	1	7
687.899	1	11
688.238	1	14
688.577	1	0
688.746	1	10