File: Data/GaN_130K_350ms/GaN_sample F_spot6_UVVIS_130 K_200um_350 ms 2x2mm1_140.txt
340.368	1	2
340.710	1	-11
341.052	1	-1
341.394	1	-2
341.737	1	10
342.079	1	4
342.421	1	7
342.763	1	2
343.105	1	3
343.447	1	2
343.789	1	12
344.131	1	3
344.473	1	3
344.815	1	-12
345.157	1	-5
345.499	1	0
345.841	1	1
346.183	1	11
346.526	1	0
346.868	1	4
347.210	1	-4
347.552	1	4
347.894	1	-3
348.236	1	4
348.578	1	0
348.920	1	1
349.262	1	6
349.604	1	6
349.946	1	10
350.288	1	-3
350.630	1	13
350.972	1	9
351.314	1	-1
351.656	1	16
351.998	1	4
352.340	1	16
352.682	1	1
353.024	1	5
353.366	1	7
353.708	1	5
354.050	1	9
354.392	1	11
354.734	1	4
355.076	1	6
355.418	1	6
355.760	1	9
356.102	1	-1
356.444	1	-7
356.785	1	15
357.127	1	20
357.469	1	8
357.811	1	5
358.153	1	1
358.495	1	4
358.837	1	11
359.179	1	1
359.521	1	-9
359.863	1	10
360.205	1	10
360.547	1	3
360.889	1	4
361.231	1	3
361.572	1	19
361.914	1	19
362.256	1	9
362.598	1	24
362.940	1	10
363.282	1	23
363.624	1	32
363.966	1	39
364.308	1	36
364.649	1	29
364.991	1	29
365.333	1	26
365.675	1	31
366.017	1	46
366.359	1	52
366.701	1	46
367.042	1	48
367.384	1	43
367.726	1	38
368.068	1	41
368.410	1	42
368.752	1	51
369.093	1	51
369.435	1	30
369.777	1	36
370.119	1	49
370.461	1	38
370.803	1	34
371.144	1	35
371.486	1	32
371.828	1	30
372.170	1	36
372.512	1	41
372.853	1	17
373.195	1	24
373.537	1	32
373.879	1	38
374.220	1	11
374.562	1	16
374.904	1	31
375.246	1	33
375.588	1	20
375.929	1	19
376.271	1	26
376.613	1	19
376.955	1	19
377.296	1	13
377.638	1	10
377.980	1	10
378.321	1	14
378.663	1	11
379.005	1	23
379.347	1	15
379.688	1	10
380.030	1	16
380.372	1	12
380.714	1	19
381.055	1	19
381.397	1	17
381.739	1	22
382.080	1	16
382.422	1	17
382.764	1	13
383.105	1	10
383.447	1	22
383.789	1	13
384.130	1	18
384.472	1	16
384.814	1	16
385.156	1	12
385.497	1	9
385.839	1	11
386.180	1	13
386.522	1	3
386.864	1	14
387.205	1	8
387.547	1	11
387.889	1	4
388.230	1	2
388.572	1	12
388.914	1	12
389.255	1	9
389.597	1	-2
389.939	1	12
390.280	1	13
390.622	1	0
390.963	1	24
391.305	1	16
391.647	1	12
391.988	1	10
392.330	1	11
392.671	1	7
393.013	1	14
393.355	1	9
393.696	1	1
394.038	1	6
394.379	1	16
394.721	1	20
395.062	1	-4
395.404	1	5
395.746	1	18
396.087	1	22
396.429	1	13
396.770	1	22
397.112	1	9
397.453	1	13
397.795	1	3
398.136	1	2
398.478	1	15
398.819	1	-7
399.161	1	14
399.503	1	13
399.844	1	5
400.186	1	-1
400.527	1	13
400.869	1	13
401.210	1	6
401.552	1	16
401.893	1	-3
402.235	1	11
402.576	1	8
402.918	1	7
403.259	1	4
403.601	1	5
403.942	1	5
404.284	1	5
404.625	1	17
404.967	1	2
405.308	1	4
405.649	1	13
405.991	1	8
406.332	1	20
406.674	1	14
407.015	1	12
407.357	1	3
407.698	1	3
408.040	1	8
408.381	1	11
408.722	1	10
409.064	1	12
409.405	1	17
409.747	1	16
410.088	1	18
410.430	1	11
410.771	1	-10
411.112	1	12
411.454	1	2
411.795	1	10
412.137	1	7
412.478	1	1
412.819	1	12
413.161	1	10
413.502	1	7
413.844	1	7
414.185	1	5
414.526	1	2
414.868	1	5
415.209	1	7
415.550	1	9
415.892	1	2
416.233	1	16
416.575	1	13
416.916	1	4
417.257	1	12
417.599	1	8
417.940	1	15
418.281	1	0
418.623	1	8
418.964	1	0
419.305	1	5
419.647	1	14
419.988	1	21
420.329	1	14
420.671	1	-4
421.012	1	1
421.353	1	-4
421.695	1	0
422.036	1	3
422.377	1	7
422.718	1	13
423.060	1	11
423.401	1	11
423.742	1	7
424.084	1	13
424.425	1	18
424.766	1	18
425.107	1	9
425.449	1	12
425.790	1	10
426.131	1	25
426.472	1	2
426.814	1	8
427.155	1	1
427.496	1	10
427.837	1	18
428.179	1	12
428.520	1	12
428.861	1	4
429.202	1	15
429.544	1	5
429.885	1	-1
430.226	1	0
430.567	1	7
430.909	1	8
431.250	1	5
431.591	1	3
431.932	1	1
432.273	1	17
432.615	1	13
432.956	1	-2
433.297	1	17
433.638	1	-1
433.979	1	16
434.320	1	3
434.662	1	8
435.003	1	17
435.344	1	14
435.685	1	-3
436.026	1	13
436.368	1	7
436.709	1	8
437.050	1	9
437.391	1	15
437.732	1	7
438.073	1	11
438.414	1	2
438.756	1	9
439.097	1	13
439.438	1	17
439.779	1	7
440.120	1	7
440.461	1	14
440.802	1	-2
441.143	1	0
441.485	1	10
441.826	1	12
442.167	1	4
442.508	1	11
442.849	1	7
443.190	1	8
443.531	1	4
443.872	1	8
444.213	1	0
444.554	1	1
444.895	1	4
445.237	1	1
445.578	1	5
445.919	1	1
446.260	1	4
446.601	1	10
446.942	1	5
447.283	1	12
447.624	1	2
447.965	1	13
448.306	1	3
448.647	1	13
448.988	1	2
449.329	1	2
449.670	1	-6
450.011	1	4
450.352	1	13
450.693	1	5
451.034	1	3
451.375	1	9
451.716	1	2
452.057	1	11
452.398	1	-3
452.739	1	1
453.080	1	4
453.421	1	4
453.762	1	3
454.103	1	3
454.444	1	5
454.785	1	16
455.126	1	-3
455.467	1	11
455.808	1	15
456.149	1	2
456.490	1	-2
456.831	1	14
457.172	1	5
457.513	1	-9
457.854	1	10
458.195	1	-6
458.536	1	11
458.877	1	17
459.218	1	4
459.559	1	8
459.899	1	-1
460.240	1	20
460.581	1	2
460.922	1	13
461.263	1	7
461.604	1	-11
461.945	1	11
462.286	1	8
462.627	1	2
462.968	1	-5
463.309	1	8
463.649	1	-4
463.990	1	4
464.331	1	12
464.672	1	12
465.013	1	-4
465.354	1	-3
465.695	1	11
466.036	1	2
466.376	1	5
466.717	1	9
467.058	1	8
467.399	1	4
467.740	1	15
468.081	1	16
468.422	1	0
468.762	1	2
469.103	1	6
469.444	1	6
469.785	1	14
470.126	1	-6
470.467	1	9
470.807	1	7
471.148	1	4
471.489	1	2
471.830	1	2
472.171	1	6
472.511	1	2
472.852	1	11
473.193	1	8
473.534	1	2
473.875	1	10
474.215	1	-9
474.556	1	1
474.897	1	5
475.238	1	19
475.578	1	1
475.919	1	-4
476.260	1	8
476.601	1	7
476.942	1	11
477.282	1	12
477.623	1	-3
477.964	1	-2
478.305	1	7
478.645	1	2
478.986	1	1
479.327	1	5
479.667	1	6
480.008	1	1
480.349	1	6
480.690	1	4
481.030	1	1
481.371	1	9
481.712	1	5
482.053	1	2
482.393	1	11
482.734	1	10
483.075	1	14
483.415	1	-2
483.756	1	-1
484.097	1	2
484.437	1	0
484.778	1	17
485.119	1	4
485.459	1	-7
485.800	1	21
486.141	1	7
486.481	1	-4
486.822	1	7
487.163	1	3
487.503	1	4
487.844	1	-2
488.185	1	8
488.525	1	13
488.866	1	4
489.207	1	5
489.547	1	5
489.888	1	18
490.228	1	10
490.569	1	10
490.910	1	-7
491.250	1	13
491.591	1	-7
491.932	1	13
492.272	1	4
492.613	1	-7
492.953	1	8
493.294	1	10
493.635	1	11
493.975	1	12
494.316	1	8
494.656	1	4
494.997	1	10
495.337	1	9
495.678	1	4
496.019	1	-11
496.359	1	20
496.700	1	2
497.040	1	20
497.381	1	9
497.721	1	2
498.062	1	-1
498.403	1	-1
498.743	1	16
499.084	1	20
499.424	1	-3
499.765	1	11
500.105	1	15
500.446	1	7
500.786	1	19
501.127	1	9
501.467	1	8
501.808	1	10
502.148	1	14
502.489	1	9
502.829	1	1
503.170	1	3
503.510	1	15
503.851	1	8
504.191	1	15
504.532	1	13
504.872	1	7
505.213	1	13
505.553	1	19
505.894	1	9
506.234	1	8
506.575	1	16
506.915	1	15
507.256	1	16
507.596	1	2
507.936	1	1
508.277	1	5
508.617	1	8
508.958	1	24
509.298	1	18
509.639	1	15
509.979	1	14
510.319	1	27
510.660	1	3
511.000	1	14
511.341	1	18
511.681	1	15
512.022	1	19
512.362	1	12
512.702	1	24
513.043	1	26
513.383	1	24
513.724	1	1
514.064	1	4
514.404	1	20
514.745	1	21
515.085	1	19
515.425	1	9
515.766	1	20
516.106	1	11
516.447	1	10
516.787	1	14
517.127	1	22
517.468	1	11
517.808	1	17
518.148	1	16
518.489	1	13
518.829	1	16
519.169	1	23
519.510	1	12
519.850	1	19
520.190	1	22
520.531	1	26
520.871	1	11
521.211	1	22
521.552	1	13
521.892	1	17
522.232	1	18
522.573	1	22
522.913	1	14
523.253	1	15
523.593	1	12
523.934	1	16
524.274	1	10
524.614	1	30
524.955	1	24
525.295	1	21
525.635	1	7
525.975	1	18
526.316	1	10
526.656	1	15
526.996	1	9
527.337	1	21
527.677	1	11
528.017	1	16
528.357	1	21
528.698	1	9
529.038	1	12
529.378	1	10
529.718	1	24
530.058	1	11
530.399	1	14
530.739	1	12
531.079	1	13
531.419	1	24
531.760	1	11
532.100	1	13
532.440	1	19
532.780	1	6
533.120	1	27
533.461	1	22
533.801	1	32
534.141	1	16
534.481	1	18
534.821	1	25
535.162	1	16
535.502	1	16
535.842	1	16
536.182	1	22
536.522	1	8
536.862	1	8
537.203	1	1
537.543	1	18
537.883	1	7
538.223	1	16
538.563	1	19
538.903	1	25
539.243	1	19
539.584	1	22
539.924	1	16
540.264	1	15
540.604	1	30
540.944	1	17
541.284	1	19
541.624	1	26
541.964	1	19
542.305	1	17
542.645	1	1
542.985	1	17
543.325	1	19
543.665	1	19
544.005	1	18
544.345	1	19
544.685	1	25
545.025	1	8
545.365	1	25
545.705	1	10
546.045	1	16
546.386	1	18
546.726	1	11
547.066	1	17
547.406	1	-2
547.746	1	14
548.086	1	8
548.426	1	18
548.766	1	5
549.106	1	14
549.446	1	7
549.786	1	7
550.126	1	19
550.466	1	19
550.806	1	31
551.146	1	12
551.486	1	20
551.826	1	13
552.166	1	18
552.506	1	14
552.846	1	12
553.186	1	6
553.526	1	15
553.866	1	3
554.206	1	2
554.546	1	10
554.886	1	6
555.226	1	9
555.566	1	10
555.906	1	8
556.246	1	18
556.586	1	16
556.926	1	5
557.266	1	4
557.606	1	2
557.946	1	14
558.286	1	21
558.626	1	4
558.966	1	7
559.306	1	7
559.646	1	17
559.986	1	9
560.325	1	4
560.665	1	16
561.005	1	11
561.345	1	17
561.685	1	9
562.025	1	6
562.365	1	15
562.705	1	15
563.045	1	10
563.385	1	8
563.725	1	13
564.064	1	11
564.404	1	6
564.744	1	8
565.084	1	10
565.424	1	1
565.764	1	12
566.104	1	9
566.444	1	12
566.783	1	11
567.123	1	11
567.463	1	17
567.803	1	13
568.143	1	14
568.483	1	14
568.823	1	2
569.162	1	6
569.502	1	15
569.842	1	4
570.182	1	5
570.522	1	-8
570.862	1	28
571.201	1	8
571.541	1	3
571.881	1	13
572.221	1	18
572.561	1	13
572.900	1	11
573.240	1	5
573.580	1	4
573.920	1	23
574.260	1	7
574.599	1	12
574.939	1	8
575.279	1	-6
575.619	1	9
575.959	1	3
576.298	1	2
576.638	1	9
576.978	1	-5
577.318	1	4
577.657	1	14
577.997	1	7
578.337	1	5
578.677	1	12
579.016	1	15
579.356	1	12
579.696	1	2
580.036	1	4
580.375	1	6
580.715	1	11
581.055	1	7
581.394	1	10
581.734	1	11
582.074	1	-3
582.414	1	1
582.753	1	13
583.093	1	4
583.433	1	8
583.772	1	14
584.112	1	12
584.452	1	20
584.791	1	5
585.131	1	4
585.471	1	5
585.811	1	11
586.150	1	11
586.490	1	3
586.830	1	-2
587.169	1	11
587.509	1	12
587.849	1	14
588.188	1	9
588.528	1	23
588.867	1	4
589.207	1	7
589.547	1	8
589.886	1	9
590.226	1	14
590.566	1	-3
590.905	1	10
591.245	1	3
591.585	1	12
591.924	1	4
592.264	1	4
592.603	1	2
592.943	1	8
593.283	1	-4
593.622	1	7
593.962	1	11
594.301	1	2
594.641	1	19
594.981	1	-5
595.320	1	6
595.660	1	0
595.999	1	9
596.339	1	2
596.678	1	5
597.018	1	3
597.358	1	-1
597.697	1	2
598.037	1	4
598.376	1	6
598.716	1	16
599.055	1	2
599.395	1	6
599.734	1	3
600.074	1	-2
600.413	1	5
600.753	1	-5
601.092	1	4
601.432	1	-4
601.771	1	14
602.111	1	-5
602.451	1	6
602.790	1	5
603.130	1	6
603.469	1	6
603.809	1	6
604.148	1	15
604.487	1	12
604.827	1	7
605.166	1	8
605.506	1	-5
605.845	1	-1
606.185	1	7
606.524	1	-3
606.864	1	12
607.203	1	-4
607.543	1	14
607.882	1	10
608.222	1	-8
608.561	1	2
608.901	1	11
609.240	1	4
609.579	1	14
609.919	1	10
610.258	1	3
610.598	1	-1
610.937	1	17
611.277	1	6
611.616	1	-1
611.955	1	-3
612.295	1	12
612.634	1	7
612.974	1	14
613.313	1	-3
613.652	1	-8
613.992	1	8
614.331	1	3
614.671	1	1
615.010	1	-3
615.349	1	7
615.689	1	14
616.028	1	11
616.368	1	9
616.707	1	22
617.046	1	12
617.386	1	9
617.725	1	9
618.064	1	12
618.404	1	2
618.743	1	5
619.082	1	-4
619.422	1	6
619.761	1	9
620.100	1	-4
620.440	1	11
620.779	1	-1
621.118	1	-1
621.458	1	11
621.797	1	8
622.136	1	4
622.476	1	3
622.815	1	2
623.154	1	-1
623.494	1	12
623.833	1	9
624.172	1	5
624.511	1	8
624.851	1	6
625.190	1	8
625.529	1	10
625.869	1	11
626.208	1	-4
626.547	1	7
626.886	1	-4
627.226	1	2
627.565	1	-4
627.904	1	3
628.243	1	4
628.583	1	-13
628.922	1	-1
629.261	1	-7
629.600	1	6
629.940	1	10
630.279	1	8
630.618	1	-6
630.957	1	8
631.297	1	-11
631.636	1	12
631.975	1	9
632.314	1	-3
632.653	1	5
632.993	1	13
633.332	1	0
633.671	1	-6
634.010	1	-9
634.349	1	5
634.689	1	7
635.028	1	6
635.367	1	6
635.706	1	1
636.045	1	13
636.384	1	6
636.724	1	6
637.063	1	6
637.402	1	-1
637.741	1	16
638.080	1	11
638.419	1	6
638.759	1	1
639.098	1	7
639.437	1	11
639.776	1	2
640.115	1	10
640.454	1	4
640.793	1	-7
641.132	1	19
641.472	1	6
641.811	1	6
642.150	1	-8
642.489	1	2
642.828	1	5
643.167	1	5
643.506	1	8
643.845	1	-1
644.184	1	4
644.524	1	3
644.863	1	0
645.202	1	9
645.541	1	3
645.880	1	2
646.219	1	9
646.558	1	4
646.897	1	2
647.236	1	-10
647.575	1	-2
647.914	1	-4
648.253	1	0
648.592	1	-1
648.931	1	-7
649.270	1	-8
649.610	1	4
649.949	1	8
650.288	1	11
650.627	1	3
650.966	1	5
651.305	1	3
651.644	1	5
651.983	1	-6
652.322	1	-2
652.661	1	-2
653.000	1	1
653.339	1	1
653.678	1	2
654.017	1	-5
654.356	1	-1
654.695	1	-1
655.034	1	0
655.373	1	2
655.712	1	5
656.051	1	-1
656.390	1	-4
656.729	1	9
657.068	1	1
657.406	1	2
657.745	1	8
658.084	1	6
658.423	1	3
658.762	1	10
659.101	1	8
659.440	1	6
659.779	1	0
660.118	1	-1
660.457	1	-1
660.796	1	5
661.135	1	11
661.474	1	6
661.813	1	1
662.152	1	12
662.491	1	14
662.829	1	9
663.168	1	7
663.507	1	10
663.846	1	-3
664.185	1	5
664.524	1	-4
664.863	1	5
665.202	1	7
665.541	1	-3
665.879	1	4
666.218	1	2
666.557	1	6
666.896	1	9
667.235	1	12
667.574	1	19
667.913	1	2
668.251	1	19
668.590	1	7
668.929	1	3
669.268	1	8
669.607	1	2
669.946	1	5
670.285	1	5
670.623	1	15
670.962	1	-2
671.301	1	4
671.640	1	2
671.979	1	-3
672.317	1	7
672.656	1	7
672.995	1	13
673.334	1	-3
673.673	1	5
674.011	1	6
674.350	1	4
674.689	1	12
675.028	1	4
675.367	1	-6
675.705	1	11
676.044	1	8
676.383	1	5
676.722	1	7
677.060	1	11
677.399	1	4
677.738	1	-1
678.077	1	4
678.416	1	16
678.754	1	16
679.093	1	7
679.432	1	7
679.771	1	7
680.109	1	-2
680.448	1	14
680.787	1	5
681.125	1	11
681.464	1	-5
681.803	1	-5
682.142	1	8
682.480	1	1
682.819	1	6
683.158	1	3
683.496	1	-5
683.835	1	1
684.174	1	7
684.512	1	11
684.851	1	-5
685.190	1	0
685.529	1	0
685.867	1	6
686.206	1	5
686.545	1	2
686.883	1	3
687.222	1	-3
687.561	1	10
687.899	1	6
688.238	1	7
688.577	1	2
688.746	1	6