File: Data/GaN_130K_350ms/GaN_sample F_spot6_UVVIS_130 K_200um_350 ms 2x2mm1_169.txt
340.368	1	4
340.710	1	12
341.052	1	-8
341.394	1	8
341.737	1	2
342.079	1	8
342.421	1	10
342.763	1	-4
343.105	1	7
343.447	1	7
343.789	1	6
344.131	1	4
344.473	1	1
344.815	1	-3
345.157	1	-11
345.499	1	6
345.841	1	5
346.183	1	17
346.526	1	-9
346.868	1	7
347.210	1	6
347.552	1	6
347.894	1	-8
348.236	1	9
348.578	1	1
348.920	1	1
349.262	1	17
349.604	1	10
349.946	1	4
350.288	1	-7
350.630	1	9
350.972	1	4
351.314	1	6
351.656	1	17
351.998	1	-1
352.340	1	14
352.682	1	-1
353.024	1	-1
353.366	1	8
353.708	1	-5
354.050	1	5
354.392	1	12
354.734	1	-6
355.076	1	9
355.418	1	5
355.760	1	6
356.102	1	-5
356.444	1	-6
356.785	1	12
357.127	1	11
357.469	1	1
357.811	1	7
358.153	1	3
358.495	1	8
358.837	1	4
359.179	1	7
359.521	1	-3
359.863	1	6
360.205	1	9
360.547	1	11
360.889	1	6
361.231	1	3
361.572	1	19
361.914	1	6
362.256	1	12
362.598	1	-1
362.940	1	3
363.282	1	12
363.624	1	23
363.966	1	22
364.308	1	19
364.649	1	24
364.991	1	18
365.333	1	19
365.675	1	23
366.017	1	27
366.359	1	21
366.701	1	25
367.042	1	28
367.384	1	32
367.726	1	23
368.068	1	21
368.410	1	20
368.752	1	34
369.093	1	26
369.435	1	12
369.777	1	18
370.119	1	26
370.461	1	30
370.803	1	24
371.144	1	24
371.486	1	17
371.828	1	19
372.170	1	17
372.512	1	25
372.853	1	10
373.195	1	19
373.537	1	19
373.879	1	13
374.220	1	7
374.562	1	12
374.904	1	16
375.246	1	12
375.588	1	10
375.929	1	3
376.271	1	24
376.613	1	9
376.955	1	17
377.296	1	13
377.638	1	0
377.980	1	1
378.321	1	15
378.663	1	21
379.005	1	9
379.347	1	9
379.688	1	2
380.030	1	6
380.372	1	4
380.714	1	23
381.055	1	6
381.397	1	10
381.739	1	11
382.080	1	2
382.422	1	21
382.764	1	6
383.105	1	5
383.447	1	12
383.789	1	12
384.130	1	11
384.472	1	8
384.814	1	-1
385.156	1	7
385.497	1	-5
385.839	1	13
386.180	1	15
386.522	1	6
386.864	1	20
387.205	1	9
387.547	1	10
387.889	1	-3
388.230	1	7
388.572	1	15
388.914	1	6
389.255	1	0
389.597	1	-1
389.939	1	4
390.280	1	7
390.622	1	10
390.963	1	6
391.305	1	7
391.647	1	8
391.988	1	11
392.330	1	2
392.671	1	1
393.013	1	8
393.355	1	13
393.696	1	11
394.038	1	9
394.379	1	9
394.721	1	8
395.062	1	6
395.404	1	-7
395.746	1	4
396.087	1	17
396.429	1	9
396.770	1	12
397.112	1	10
397.453	1	9
397.795	1	-3
398.136	1	2
398.478	1	11
398.819	1	-9
399.161	1	15
399.503	1	7
399.844	1	2
400.186	1	7
400.527	1	14
400.869	1	9
401.210	1	-6
401.552	1	16
401.893	1	-4
402.235	1	9
402.576	1	8
402.918	1	15
403.259	1	1
403.601	1	13
403.942	1	-3
404.284	1	0
404.625	1	14
404.967	1	5
405.308	1	9
405.649	1	9
405.991	1	4
406.332	1	17
406.674	1	20
407.015	1	6
407.357	1	9
407.698	1	6
408.040	1	4
408.381	1	11
408.722	1	7
409.064	1	8
409.405	1	13
409.747	1	5
410.088	1	22
410.430	1	14
410.771	1	0
411.112	1	11
411.454	1	11
411.795	1	7
412.137	1	10
412.478	1	2
412.819	1	10
413.161	1	6
413.502	1	19
413.844	1	7
414.185	1	12
414.526	1	11
414.868	1	-2
415.209	1	4
415.550	1	4
415.892	1	7
416.233	1	9
416.575	1	7
416.916	1	0
417.257	1	12
417.599	1	3
417.940	1	12
418.281	1	3
418.623	1	9
418.964	1	0
419.305	1	7
419.647	1	4
419.988	1	17
420.329	1	24
420.671	1	6
421.012	1	3
421.353	1	7
421.695	1	5
422.036	1	12
422.377	1	11
422.718	1	11
423.060	1	15
423.401	1	12
423.742	1	8
424.084	1	7
424.425	1	8
424.766	1	-1
425.107	1	-1
425.449	1	13
425.790	1	17
426.131	1	13
426.472	1	8
426.814	1	1
427.155	1	-4
427.496	1	8
427.837	1	6
428.179	1	9
428.520	1	6
428.861	1	-2
429.202	1	13
429.544	1	14
429.885	1	3
430.226	1	6
430.567	1	9
430.909	1	8
431.250	1	5
431.591	1	6
431.932	1	1
432.273	1	12
432.615	1	7
432.956	1	10
433.297	1	16
433.638	1	12
433.979	1	17
434.320	1	9
434.662	1	7
435.003	1	14
435.344	1	10
435.685	1	-4
436.026	1	5
436.368	1	0
436.709	1	4
437.050	1	7
437.391	1	12
437.732	1	9
438.073	1	17
438.414	1	1
438.756	1	4
439.097	1	12
439.438	1	2
439.779	1	17
440.120	1	6
440.461	1	11
440.802	1	3
441.143	1	3
441.485	1	18
441.826	1	3
442.167	1	7
442.508	1	-1
442.849	1	3
443.190	1	3
443.531	1	2
443.872	1	8
444.213	1	6
444.554	1	5
444.895	1	13
445.237	1	-2
445.578	1	-2
445.919	1	1
446.260	1	2
446.601	1	12
446.942	1	10
447.283	1	9
447.624	1	2
447.965	1	-3
448.306	1	3
448.647	1	24
448.988	1	12
449.329	1	5
449.670	1	3
450.011	1	1
450.352	1	13
450.693	1	2
451.034	1	-5
451.375	1	12
451.716	1	-1
452.057	1	22
452.398	1	3
452.739	1	7
453.080	1	3
453.421	1	7
453.762	1	8
454.103	1	3
454.444	1	11
454.785	1	13
455.126	1	-10
455.467	1	2
455.808	1	14
456.149	1	-8
456.490	1	3
456.831	1	9
457.172	1	8
457.513	1	-3
457.854	1	3
458.195	1	-1
458.536	1	9
458.877	1	21
459.218	1	3
459.559	1	6
459.899	1	7
460.240	1	18
460.581	1	-6
460.922	1	-3
461.263	1	9
461.604	1	2
461.945	1	8
462.286	1	3
462.627	1	0
462.968	1	2
463.309	1	14
463.649	1	-6
463.990	1	1
464.331	1	11
464.672	1	8
465.013	1	-7
465.354	1	2
465.695	1	8
466.036	1	9
466.376	1	8
466.717	1	4
467.058	1	8
467.399	1	4
467.740	1	11
468.081	1	5
468.422	1	10
468.762	1	-1
469.103	1	15
469.444	1	1
469.785	1	11
470.126	1	-9
470.467	1	8
470.807	1	4
471.148	1	5
471.489	1	-3
471.830	1	1
472.171	1	6
472.511	1	5
472.852	1	7
473.193	1	8
473.534	1	2
473.875	1	10
474.215	1	0
474.556	1	2
474.897	1	2
475.238	1	9
475.578	1	3
475.919	1	-8
476.260	1	5
476.601	1	2
476.942	1	8
477.282	1	19
477.623	1	-11
477.964	1	-4
478.305	1	18
478.645	1	-6
478.986	1	6
479.327	1	6
479.667	1	9
480.008	1	7
480.349	1	-2
480.690	1	4
481.030	1	10
481.371	1	15
481.712	1	-1
482.053	1	8
482.393	1	19
482.734	1	0
483.075	1	13
483.415	1	3
483.756	1	-3
484.097	1	4
484.437	1	4
484.778	1	14
485.119	1	10
485.459	1	-4
485.800	1	4
486.141	1	1
486.481	1	4
486.822	1	10
487.163	1	-4
487.503	1	-5
487.844	1	1
488.185	1	4
488.525	1	13
488.866	1	-2
489.207	1	1
489.547	1	2
489.888	1	10
490.228	1	4
490.569	1	2
490.910	1	-6
491.250	1	5
491.591	1	-3
491.932	1	10
492.272	1	4
492.613	1	-6
492.953	1	9
493.294	1	11
493.635	1	16
493.975	1	12
494.316	1	6
494.656	1	5
494.997	1	5
495.337	1	6
495.678	1	0
496.019	1	-3
496.359	1	3
496.700	1	7
497.040	1	4
497.381	1	8
497.721	1	1
498.062	1	-6
498.403	1	-6
498.743	1	15
499.084	1	15
499.424	1	3
499.765	1	-5
500.105	1	8
500.446	1	6
500.786	1	10
501.127	1	13
501.467	1	3
501.808	1	5
502.148	1	5
502.489	1	7
502.829	1	2
503.170	1	2
503.510	1	8
503.851	1	3
504.191	1	11
504.532	1	10
504.872	1	10
505.213	1	9
505.553	1	5
505.894	1	5
506.234	1	7
506.575	1	2
506.915	1	4
507.256	1	12
507.596	1	-3
507.936	1	2
508.277	1	9
508.617	1	5
508.958	1	14
509.298	1	8
509.639	1	16
509.979	1	4
510.319	1	17
510.660	1	-4
511.000	1	12
511.341	1	3
511.681	1	14
512.022	1	7
512.362	1	11
512.702	1	20
513.043	1	9
513.383	1	5
513.724	1	-5
514.064	1	7
514.404	1	7
514.745	1	2
515.085	1	13
515.425	1	11
515.766	1	12
516.106	1	1
516.447	1	5
516.787	1	9
517.127	1	6
517.468	1	16
517.808	1	8
518.148	1	12
518.489	1	6
518.829	1	19
519.169	1	9
519.510	1	9
519.850	1	23
520.190	1	7
520.531	1	15
520.871	1	0
521.211	1	20
521.552	1	5
521.892	1	13
522.232	1	2
522.573	1	10
522.913	1	11
523.253	1	10
523.593	1	14
523.934	1	1
524.274	1	-6
524.614	1	22
524.955	1	9
525.295	1	14
525.635	1	5
525.975	1	22
526.316	1	10
526.656	1	9
526.996	1	-4
527.337	1	17
527.677	1	3
528.017	1	7
528.357	1	15
528.698	1	1
529.038	1	1
529.378	1	6
529.718	1	18
530.058	1	5
530.399	1	10
530.739	1	15
531.079	1	14
531.419	1	15
531.760	1	7
532.100	1	13
532.440	1	19
532.780	1	10
533.120	1	14
533.461	1	15
533.801	1	21
534.141	1	17
534.481	1	11
534.821	1	18
535.162	1	9
535.502	1	11
535.842	1	9
536.182	1	15
536.522	1	10
536.862	1	20
537.203	1	0
537.543	1	17
537.883	1	-2
538.223	1	20
538.563	1	11
538.903	1	12
539.243	1	9
539.584	1	6
539.924	1	-1
540.264	1	4
540.604	1	19
540.944	1	9
541.284	1	16
541.624	1	19
541.964	1	3
542.305	1	3
542.645	1	4
542.985	1	18
543.325	1	5
543.665	1	8
544.005	1	5
544.345	1	12
544.685	1	29
545.025	1	11
545.365	1	10
545.705	1	4
546.045	1	10
546.386	1	9
546.726	1	3
547.066	1	9
547.406	1	2
547.746	1	14
548.086	1	2
548.426	1	10
548.766	1	13
549.106	1	4
549.446	1	3
549.786	1	15
550.126	1	15
550.466	1	10
550.806	1	6
551.146	1	17
551.486	1	4
551.826	1	4
552.166	1	19
552.506	1	6
552.846	1	-2
553.186	1	4
553.526	1	10
553.866	1	-3
554.206	1	4
554.546	1	16
554.886	1	7
555.226	1	10
555.566	1	2
555.906	1	13
556.246	1	20
556.586	1	5
556.926	1	11
557.266	1	-1
557.606	1	7
557.946	1	5
558.286	1	18
558.626	1	-3
558.966	1	3
559.306	1	10
559.646	1	11
559.986	1	3
560.325	1	-2
560.665	1	6
561.005	1	12
561.345	1	13
561.685	1	0
562.025	1	12
562.365	1	14
562.705	1	8
563.045	1	-1
563.385	1	8
563.725	1	15
564.064	1	5
564.404	1	1
564.744	1	3
565.084	1	9
565.424	1	2
565.764	1	9
566.104	1	7
566.444	1	13
566.783	1	1
567.123	1	1
567.463	1	11
567.803	1	10
568.143	1	14
568.483	1	6
568.823	1	-1
569.162	1	15
569.502	1	10
569.842	1	1
570.182	1	-3
570.522	1	-12
570.862	1	17
571.201	1	11
571.541	1	3
571.881	1	-2
572.221	1	13
572.561	1	6
572.900	1	5
573.240	1	-3
573.580	1	8
573.920	1	8
574.260	1	1
574.599	1	9
574.939	1	10
575.279	1	1
575.619	1	7
575.959	1	14
576.298	1	-1
576.638	1	-5
576.978	1	-5
577.318	1	4
577.657	1	19
577.997	1	10
578.337	1	4
578.677	1	13
579.016	1	0
579.356	1	6
579.696	1	1
580.036	1	10
580.375	1	2
580.715	1	16
581.055	1	3
581.394	1	4
581.734	1	8
582.074	1	-1
582.414	1	-3
582.753	1	1
583.093	1	6
583.433	1	4
583.772	1	6
584.112	1	6
584.452	1	20
584.791	1	-3
585.131	1	9
585.471	1	3
585.811	1	9
586.150	1	12
586.490	1	6
586.830	1	1
587.169	1	13
587.509	1	7
587.849	1	8
588.188	1	13
588.528	1	4
588.867	1	13
589.207	1	10
589.547	1	3
589.886	1	13
590.226	1	11
590.566	1	-1
590.905	1	13
591.245	1	-4
591.585	1	10
591.924	1	-9
592.264	1	4
592.603	1	1
592.943	1	2
593.283	1	-10
593.622	1	9
593.962	1	10
594.301	1	-3
594.641	1	13
594.981	1	-11
595.320	1	9
595.660	1	5
595.999	1	8
596.339	1	11
596.678	1	-1
597.018	1	0
597.358	1	5
597.697	1	3
598.037	1	3
598.376	1	-1
598.716	1	8
599.055	1	9
599.395	1	-6
599.734	1	3
600.074	1	10
600.413	1	7
600.753	1	8
601.092	1	8
601.432	1	-1
601.771	1	11
602.111	1	9
602.451	1	8
602.790	1	9
603.130	1	7
603.469	1	7
603.809	1	5
604.148	1	16
604.487	1	4
604.827	1	4
605.166	1	9
605.506	1	2
605.845	1	-9
606.185	1	0
606.524	1	10
606.864	1	14
607.203	1	2
607.543	1	0
607.882	1	13
608.222	1	2
608.561	1	5
608.901	1	8
609.240	1	-8
609.579	1	14
609.919	1	14
610.258	1	-3
610.598	1	0
610.937	1	7
611.277	1	4
611.616	1	-1
611.955	1	3
612.295	1	9
612.634	1	3
612.974	1	10
613.313	1	12
613.652	1	-4
613.992	1	6
614.331	1	-3
614.671	1	12
615.010	1	-5
615.349	1	7
615.689	1	4
616.028	1	14
616.368	1	4
616.707	1	12
617.046	1	13
617.386	1	2
617.725	1	-3
618.064	1	3
618.404	1	7
618.743	1	6
619.082	1	8
619.422	1	0
619.761	1	4
620.100	1	2
620.440	1	9
620.779	1	4
621.118	1	4
621.458	1	10
621.797	1	-3
622.136	1	-2
622.476	1	12
622.815	1	6
623.154	1	2
623.494	1	5
623.833	1	17
624.172	1	2
624.511	1	0
624.851	1	0
625.190	1	1
625.529	1	3
625.869	1	8
626.208	1	2
626.547	1	8
626.886	1	-2
627.226	1	-5
627.565	1	7
627.904	1	-4
628.243	1	0
628.583	1	-9
628.922	1	-4
629.261	1	-15
629.600	1	8
629.940	1	8
630.279	1	17
630.618	1	4
630.957	1	-1
631.297	1	-1
631.636	1	12
631.975	1	7
632.314	1	-2
632.653	1	2
632.993	1	7
633.332	1	-1
633.671	1	-10
634.010	1	-5
634.349	1	1
634.689	1	4
635.028	1	5
635.367	1	1
635.706	1	-5
636.045	1	13
636.384	1	-4
636.724	1	7
637.063	1	11
637.402	1	0
637.741	1	12
638.080	1	6
638.419	1	4
638.759	1	2
639.098	1	-7
639.437	1	7
639.776	1	6
640.115	1	12
640.454	1	9
640.793	1	-17
641.132	1	5
641.472	1	0
641.811	1	0
642.150	1	-8
642.489	1	0
642.828	1	2
643.167	1	7
643.506	1	15
643.845	1	3
644.184	1	2
644.524	1	1
644.863	1	-3
645.202	1	5
645.541	1	6
645.880	1	6
646.219	1	-1
646.558	1	10
646.897	1	-2
647.236	1	-6
647.575	1	4
647.914	1	-5
648.253	1	13
648.592	1	0
648.931	1	-4
649.270	1	-2
649.610	1	5
649.949	1	3
650.288	1	10
650.627	1	12
650.966	1	7
651.305	1	1
651.644	1	-1
651.983	1	-5
652.322	1	1
652.661	1	3
653.000	1	4
653.339	1	-2
653.678	1	3
654.017	1	-12
654.356	1	4
654.695	1	-7
655.034	1	9
655.373	1	1
655.712	1	7
656.051	1	3
656.390	1	-4
656.729	1	-1
657.068	1	-4
657.406	1	11
657.745	1	4
658.084	1	4
658.423	1	7
658.762	1	14
659.101	1	1
659.440	1	-3
659.779	1	9
660.118	1	-4
660.457	1	0
660.796	1	10
661.135	1	10
661.474	1	5
661.813	1	-7
662.152	1	3
662.491	1	15
662.829	1	4
663.168	1	-7
663.507	1	5
663.846	1	1
664.185	1	1
664.524	1	-4
664.863	1	12
665.202	1	0
665.541	1	-9
665.879	1	0
666.218	1	6
666.557	1	6
666.896	1	3
667.235	1	6
667.574	1	16
667.913	1	10
668.251	1	11
668.590	1	1
668.929	1	11
669.268	1	-6
669.607	1	3
669.946	1	13
670.285	1	8
670.623	1	10
670.962	1	-1
671.301	1	-1
671.640	1	-2
671.979	1	-8
672.317	1	6
672.656	1	2
672.995	1	-4
673.334	1	-5
673.673	1	1
674.011	1	7
674.350	1	5
674.689	1	4
675.028	1	5
675.367	1	-6
675.705	1	9
676.044	1	7
676.383	1	0
676.722	1	-8
677.060	1	10
677.399	1	-1
677.738	1	1
678.077	1	3
678.416	1	12
678.754	1	5
679.093	1	6
679.432	1	5
679.771	1	4
680.109	1	4
680.448	1	0
680.787	1	12
681.125	1	9
681.464	1	1
681.803	1	0
682.142	1	1
682.480	1	11
682.819	1	8
683.158	1	4
683.496	1	3
683.835	1	-6
684.174	1	8
684.512	1	13
684.851	1	-6
685.190	1	6
685.529	1	-8
685.867	1	2
686.206	1	9
686.545	1	-1
686.883	1	1
687.222	1	0
687.561	1	15
687.899	1	3
688.238	1	9
688.577	1	2
688.746	1	0