File: Data/GaN_130K_350ms/GaN_sample F_spot6_UVVIS_130 K_200um_350 ms 2x2mm1_202.txt
340.368	1	9
340.710	1	11
341.052	1	-3
341.394	1	3
341.737	1	0
342.079	1	-2
342.421	1	10
342.763	1	-3
343.105	1	2
343.447	1	-2
343.789	1	11
344.131	1	5
344.473	1	14
344.815	1	-8
345.157	1	-10
345.499	1	-2
345.841	1	3
346.183	1	1
346.526	1	3
346.868	1	1
347.210	1	2
347.552	1	1
347.894	1	1
348.236	1	1
348.578	1	0
348.920	1	1
349.262	1	8
349.604	1	4
349.946	1	3
350.288	1	-12
350.630	1	6
350.972	1	3
351.314	1	10
351.656	1	8
351.998	1	1
352.340	1	9
352.682	1	-2
353.024	1	-1
353.366	1	15
353.708	1	5
354.050	1	12
354.392	1	1
354.734	1	-2
355.076	1	5
355.418	1	3
355.760	1	-5
356.102	1	0
356.444	1	-3
356.785	1	9
357.127	1	12
357.469	1	-3
357.811	1	3
358.153	1	-1
358.495	1	9
358.837	1	-2
359.179	1	7
359.521	1	1
359.863	1	7
360.205	1	4
360.547	1	1
360.889	1	1
361.231	1	-4
361.572	1	11
361.914	1	6
362.256	1	6
362.598	1	5
362.940	1	-3
363.282	1	14
363.624	1	16
363.966	1	17
364.308	1	20
364.649	1	13
364.991	1	15
365.333	1	5
365.675	1	18
366.017	1	21
366.359	1	15
366.701	1	20
367.042	1	20
367.384	1	23
367.726	1	12
368.068	1	12
368.410	1	9
368.752	1	19
369.093	1	18
369.435	1	12
369.777	1	18
370.119	1	24
370.461	1	17
370.803	1	18
371.144	1	15
371.486	1	16
371.828	1	17
372.170	1	7
372.512	1	11
372.853	1	6
373.195	1	10
373.537	1	7
373.879	1	15
374.220	1	3
374.562	1	-2
374.904	1	8
375.246	1	14
375.588	1	7
375.929	1	5
376.271	1	17
376.613	1	4
376.955	1	14
377.296	1	5
377.638	1	-8
377.980	1	-3
378.321	1	9
378.663	1	9
379.005	1	21
379.347	1	0
379.688	1	-2
380.030	1	11
380.372	1	10
380.714	1	20
381.055	1	9
381.397	1	9
381.739	1	18
382.080	1	-2
382.422	1	10
382.764	1	8
383.105	1	1
383.447	1	9
383.789	1	19
384.130	1	8
384.472	1	6
384.814	1	4
385.156	1	4
385.497	1	2
385.839	1	5
386.180	1	11
386.522	1	10
386.864	1	8
387.205	1	12
387.547	1	1
387.889	1	3
388.230	1	5
388.572	1	8
388.914	1	8
389.255	1	10
389.597	1	1
389.939	1	9
390.280	1	9
390.622	1	8
390.963	1	12
391.305	1	1
391.647	1	0
391.988	1	8
392.330	1	1
392.671	1	4
393.013	1	1
393.355	1	9
393.696	1	4
394.038	1	9
394.379	1	15
394.721	1	3
395.062	1	3
395.404	1	1
395.746	1	9
396.087	1	16
396.429	1	8
396.770	1	13
397.112	1	16
397.453	1	20
397.795	1	-7
398.136	1	12
398.478	1	10
398.819	1	-8
399.161	1	7
399.503	1	12
399.844	1	7
400.186	1	-5
400.527	1	8
400.869	1	8
401.210	1	5
401.552	1	7
401.893	1	-2
402.235	1	12
402.576	1	6
402.918	1	13
403.259	1	4
403.601	1	2
403.942	1	9
404.284	1	1
404.625	1	9
404.967	1	-1
405.308	1	9
405.649	1	8
405.991	1	4
406.332	1	9
406.674	1	6
407.015	1	8
407.357	1	2
407.698	1	8
408.040	1	8
408.381	1	18
408.722	1	20
409.064	1	12
409.405	1	9
409.747	1	2
410.088	1	9
410.430	1	18
410.771	1	-8
411.112	1	13
411.454	1	8
411.795	1	11
412.137	1	-1
412.478	1	4
412.819	1	9
413.161	1	14
413.502	1	15
413.844	1	2
414.185	1	22
414.526	1	7
414.868	1	3
415.209	1	9
415.550	1	0
415.892	1	8
416.233	1	11
416.575	1	16
416.916	1	4
417.257	1	7
417.599	1	9
417.940	1	10
418.281	1	4
418.623	1	10
418.964	1	3
419.305	1	5
419.647	1	13
419.988	1	6
420.329	1	13
420.671	1	1
421.012	1	6
421.353	1	-4
421.695	1	3
422.036	1	0
422.377	1	13
422.718	1	5
423.060	1	15
423.401	1	12
423.742	1	14
424.084	1	11
424.425	1	4
424.766	1	5
425.107	1	8
425.449	1	4
425.790	1	9
426.131	1	15
426.472	1	4
426.814	1	1
427.155	1	-1
427.496	1	2
427.837	1	4
428.179	1	4
428.520	1	15
428.861	1	-5
429.202	1	12
429.544	1	15
429.885	1	6
430.226	1	-3
430.567	1	11
430.909	1	5
431.250	1	11
431.591	1	3
431.932	1	2
432.273	1	13
432.615	1	17
432.956	1	7
433.297	1	23
433.638	1	11
433.979	1	1
434.320	1	8
434.662	1	13
435.003	1	19
435.344	1	11
435.685	1	2
436.026	1	4
436.368	1	5
436.709	1	-1
437.050	1	12
437.391	1	17
437.732	1	12
438.073	1	18
438.414	1	-6
438.756	1	6
439.097	1	10
439.438	1	20
439.779	1	10
440.120	1	1
440.461	1	17
440.802	1	-5
441.143	1	-2
441.485	1	8
441.826	1	2
442.167	1	9
442.508	1	6
442.849	1	13
443.190	1	10
443.531	1	2
443.872	1	9
444.213	1	5
444.554	1	5
444.895	1	4
445.237	1	4
445.578	1	-4
445.919	1	3
446.260	1	4
446.601	1	2
446.942	1	5
447.283	1	10
447.624	1	1
447.965	1	4
448.306	1	3
448.647	1	19
448.988	1	7
449.329	1	3
449.670	1	1
450.011	1	-2
450.352	1	0
450.693	1	3
451.034	1	-6
451.375	1	15
451.716	1	-13
452.057	1	12
452.398	1	-8
452.739	1	4
453.080	1	1
453.421	1	4
453.762	1	4
454.103	1	-1
454.444	1	11
454.785	1	15
455.126	1	-10
455.467	1	4
455.808	1	4
456.149	1	-3
456.490	1	10
456.831	1	4
457.172	1	-2
457.513	1	-5
457.854	1	-1
458.195	1	-9
458.536	1	3
458.877	1	20
459.218	1	14
459.559	1	-2
459.899	1	2
460.240	1	7
460.581	1	-3
460.922	1	3
461.263	1	4
461.604	1	-2
461.945	1	4
462.286	1	8
462.627	1	-1
462.968	1	3
463.309	1	4
463.649	1	-3
463.990	1	4
464.331	1	9
464.672	1	19
465.013	1	1
465.354	1	2
465.695	1	3
466.036	1	7
466.376	1	13
466.717	1	14
467.058	1	9
467.399	1	0
467.740	1	21
468.081	1	6
468.422	1	17
468.762	1	3
469.103	1	7
469.444	1	-4
469.785	1	7
470.126	1	-9
470.467	1	2
470.807	1	0
471.148	1	3
471.489	1	-1
471.830	1	2
472.171	1	5
472.511	1	0
472.852	1	4
473.193	1	2
473.534	1	0
473.875	1	10
474.215	1	-3
474.556	1	8
474.897	1	-3
475.238	1	11
475.578	1	7
475.919	1	-2
476.260	1	-1
476.601	1	-5
476.942	1	5
477.282	1	2
477.623	1	-9
477.964	1	-8
478.305	1	9
478.645	1	5
478.986	1	3
479.327	1	-1
479.667	1	7
480.008	1	2
480.349	1	-1
480.690	1	5
481.030	1	-5
481.371	1	12
481.712	1	7
482.053	1	3
482.393	1	-2
482.734	1	4
483.075	1	12
483.415	1	0
483.756	1	3
484.097	1	-3
484.437	1	3
484.778	1	4
485.119	1	12
485.459	1	-8
485.800	1	4
486.141	1	-5
486.481	1	-1
486.822	1	8
487.163	1	6
487.503	1	-8
487.844	1	2
488.185	1	6
488.525	1	0
488.866	1	5
489.207	1	-4
489.547	1	9
489.888	1	11
490.228	1	10
490.569	1	11
490.910	1	-5
491.250	1	9
491.591	1	-9
491.932	1	4
492.272	1	4
492.613	1	9
492.953	1	-1
493.294	1	6
493.635	1	6
493.975	1	10
494.316	1	19
494.656	1	2
494.997	1	-4
495.337	1	-4
495.678	1	-9
496.019	1	4
496.359	1	13
496.700	1	3
497.040	1	10
497.381	1	6
497.721	1	1
498.062	1	-6
498.403	1	3
498.743	1	6
499.084	1	7
499.424	1	-11
499.765	1	-3
500.105	1	-1
500.446	1	8
500.786	1	-2
501.127	1	4
501.467	1	5
501.808	1	4
502.148	1	4
502.489	1	3
502.829	1	4
503.170	1	-3
503.510	1	11
503.851	1	7
504.191	1	2
504.532	1	11
504.872	1	4
505.213	1	1
505.553	1	-1
505.894	1	12
506.234	1	2
506.575	1	-6
506.915	1	11
507.256	1	4
507.596	1	7
507.936	1	-2
508.277	1	6
508.617	1	5
508.958	1	12
509.298	1	-2
509.639	1	4
509.979	1	-1
510.319	1	10
510.660	1	0
511.000	1	10
511.341	1	4
511.681	1	11
512.022	1	11
512.362	1	-1
512.702	1	9
513.043	1	2
513.383	1	12
513.724	1	-3
514.064	1	-9
514.404	1	11
514.745	1	3
515.085	1	12
515.425	1	4
515.766	1	10
516.106	1	0
516.447	1	4
516.787	1	5
517.127	1	10
517.468	1	1
517.808	1	13
518.148	1	13
518.489	1	6
518.829	1	7
519.169	1	5
519.510	1	5
519.850	1	17
520.190	1	15
520.531	1	12
520.871	1	2
521.211	1	6
521.552	1	11
521.892	1	4
522.232	1	-6
522.573	1	2
522.913	1	9
523.253	1	3
523.593	1	13
523.934	1	0
524.274	1	3
524.614	1	11
524.955	1	19
525.295	1	14
525.635	1	8
525.975	1	17
526.316	1	-3
526.656	1	11
526.996	1	5
527.337	1	19
527.677	1	7
528.017	1	10
528.357	1	5
528.698	1	-9
529.038	1	-4
529.378	1	11
529.718	1	10
530.058	1	10
530.399	1	8
530.739	1	2
531.079	1	0
531.419	1	18
531.760	1	7
532.100	1	11
532.440	1	9
532.780	1	6
533.120	1	14
533.461	1	4
533.801	1	19
534.141	1	14
534.481	1	9
534.821	1	7
535.162	1	13
535.502	1	15
535.842	1	13
536.182	1	13
536.522	1	0
536.862	1	-3
537.203	1	0
537.543	1	9
537.883	1	-2
538.223	1	10
538.563	1	11
538.903	1	25
539.243	1	12
539.584	1	16
539.924	1	6
540.264	1	3
540.604	1	20
540.944	1	15
541.284	1	2
541.624	1	12
541.964	1	3
542.305	1	3
542.645	1	-9
542.985	1	8
543.325	1	6
543.665	1	12
544.005	1	21
544.345	1	9
544.685	1	16
545.025	1	7
545.365	1	11
545.705	1	1
546.045	1	9
546.386	1	3
546.726	1	0
547.066	1	1
547.406	1	-6
547.746	1	6
548.086	1	-2
548.426	1	5
548.766	1	11
549.106	1	3
549.446	1	1
549.786	1	7
550.126	1	12
550.466	1	8
550.806	1	12
551.146	1	6
551.486	1	8
551.826	1	2
552.166	1	4
552.506	1	13
552.846	1	0
553.186	1	2
553.526	1	2
553.866	1	-6
554.206	1	9
554.546	1	15
554.886	1	6
555.226	1	10
555.566	1	5
555.906	1	6
556.246	1	9
556.586	1	14
556.926	1	-3
557.266	1	5
557.606	1	-1
557.946	1	10
558.286	1	10
558.626	1	-8
558.966	1	3
559.306	1	-2
559.646	1	8
559.986	1	7
560.325	1	3
560.665	1	13
561.005	1	4
561.345	1	9
561.685	1	6
562.025	1	-7
562.365	1	5
562.705	1	10
563.045	1	5
563.385	1	9
563.725	1	1
564.064	1	8
564.404	1	-3
564.744	1	10
565.084	1	-3
565.424	1	-5
565.764	1	7
566.104	1	11
566.444	1	18
566.783	1	4
567.123	1	6
567.463	1	9
567.803	1	10
568.143	1	9
568.483	1	14
568.823	1	-5
569.162	1	9
569.502	1	-1
569.842	1	11
570.182	1	5
570.522	1	-9
570.862	1	16
571.201	1	2
571.541	1	0
571.881	1	3
572.221	1	8
572.561	1	7
572.900	1	0
573.240	1	1
573.580	1	-6
573.920	1	7
574.260	1	6
574.599	1	13
574.939	1	4
575.279	1	-4
575.619	1	3
575.959	1	3
576.298	1	4
576.638	1	1
576.978	1	-7
577.318	1	3
577.657	1	16
577.997	1	9
578.337	1	2
578.677	1	5
579.016	1	-7
579.356	1	7
579.696	1	-6
580.036	1	11
580.375	1	3
580.715	1	11
581.055	1	6
581.394	1	0
581.734	1	5
582.074	1	2
582.414	1	2
582.753	1	6
583.093	1	0
583.433	1	6
583.772	1	0
584.112	1	11
584.452	1	15
584.791	1	8
585.131	1	9
585.471	1	1
585.811	1	11
586.150	1	12
586.490	1	1
586.830	1	-6
587.169	1	10
587.509	1	1
587.849	1	0
588.188	1	9
588.528	1	11
588.867	1	-2
589.207	1	1
589.547	1	0
589.886	1	1
590.226	1	6
590.566	1	7
590.905	1	10
591.245	1	6
591.585	1	4
591.924	1	6
592.264	1	8
592.603	1	4
592.943	1	5
593.283	1	-2
593.622	1	16
593.962	1	11
594.301	1	-13
594.641	1	7
594.981	1	4
595.320	1	10
595.660	1	-2
595.999	1	9
596.339	1	2
596.678	1	-5
597.018	1	2
597.358	1	-4
597.697	1	-2
598.037	1	4
598.376	1	2
598.716	1	7
599.055	1	1
599.395	1	-5
599.734	1	7
600.074	1	11
600.413	1	11
600.753	1	1
601.092	1	3
601.432	1	-8
601.771	1	4
602.111	1	-2
602.451	1	5
602.790	1	-3
603.130	1	6
603.469	1	8
603.809	1	-1
604.148	1	-1
604.487	1	1
604.827	1	2
605.166	1	10
605.506	1	1
605.845	1	-2
606.185	1	5
606.524	1	14
606.864	1	23
607.203	1	7
607.543	1	-1
607.882	1	2
608.222	1	-4
608.561	1	-4
608.901	1	8
609.240	1	-2
609.579	1	6
609.919	1	3
610.258	1	3
610.598	1	-3
610.937	1	11
611.277	1	4
611.616	1	-7
611.955	1	-4
612.295	1	12
612.634	1	6
612.974	1	7
613.313	1	0
613.652	1	-3
613.992	1	0
614.331	1	2
614.671	1	9
615.010	1	2
615.349	1	4
615.689	1	5
616.028	1	8
616.368	1	9
616.707	1	20
617.046	1	4
617.386	1	3
617.725	1	3
618.064	1	-3
618.404	1	6
618.743	1	5
619.082	1	12
619.422	1	6
619.761	1	10
620.100	1	-2
620.440	1	-4
620.779	1	1
621.118	1	6
621.458	1	17
621.797	1	10
622.136	1	-7
622.476	1	-1
622.815	1	3
623.154	1	4
623.494	1	5
623.833	1	10
624.172	1	-2
624.511	1	-5
624.851	1	-1
625.190	1	-1
625.529	1	-2
625.869	1	-6
626.208	1	4
626.547	1	-1
626.886	1	0
627.226	1	3
627.565	1	0
627.904	1	2
628.243	1	-2
628.583	1	-8
628.922	1	-7
629.261	1	-10
629.600	1	7
629.940	1	6
630.279	1	15
630.618	1	0
630.957	1	-8
631.297	1	3
631.636	1	7
631.975	1	5
632.314	1	3
632.653	1	-3
632.993	1	9
633.332	1	-9
633.671	1	-5
634.010	1	-1
634.349	1	2
634.689	1	10
635.028	1	3
635.367	1	8
635.706	1	10
636.045	1	8
636.384	1	1
636.724	1	14
637.063	1	-2
637.402	1	1
637.741	1	8
638.080	1	7
638.419	1	9
638.759	1	-2
639.098	1	-1
639.437	1	13
639.776	1	4
640.115	1	-2
640.454	1	5
640.793	1	-15
641.132	1	8
641.472	1	7
641.811	1	2
642.150	1	-8
642.489	1	2
642.828	1	1
643.167	1	5
643.506	1	5
643.845	1	-6
644.184	1	-4
644.524	1	1
644.863	1	3
645.202	1	7
645.541	1	0
645.880	1	-2
646.219	1	4
646.558	1	-4
646.897	1	-8
647.236	1	-8
647.575	1	-4
647.914	1	-8
648.253	1	3
648.592	1	4
648.931	1	-2
649.270	1	-1
649.610	1	0
649.949	1	12
650.288	1	14
650.627	1	5
650.966	1	7
651.305	1	-9
651.644	1	-2
651.983	1	-14
652.322	1	-3
652.661	1	6
653.000	1	-3
653.339	1	2
653.678	1	-10
654.017	1	-3
654.356	1	1
654.695	1	-2
655.034	1	5
655.373	1	-1
655.712	1	1
656.051	1	7
656.390	1	-2
656.729	1	7
657.068	1	1
657.406	1	6
657.745	1	2
658.084	1	5
658.423	1	-1
658.762	1	14
659.101	1	10
659.440	1	-2
659.779	1	-1
660.118	1	-10
660.457	1	-7
660.796	1	11
661.135	1	14
661.474	1	10
661.813	1	-7
662.152	1	0
662.491	1	16
662.829	1	12
663.168	1	-4
663.507	1	8
663.846	1	0
664.185	1	0
664.524	1	3
664.863	1	9
665.202	1	6
665.541	1	-10
665.879	1	-1
666.218	1	12
666.557	1	1
666.896	1	8
667.235	1	8
667.574	1	19
667.913	1	14
668.251	1	8
668.590	1	3
668.929	1	15
669.268	1	7
669.607	1	7
669.946	1	2
670.285	1	9
670.623	1	18
670.962	1	5
671.301	1	0
671.640	1	-7
671.979	1	0
672.317	1	2
672.656	1	6
672.995	1	7
673.334	1	2
673.673	1	6
674.011	1	-2
674.350	1	-2
674.689	1	13
675.028	1	6
675.367	1	-6
675.705	1	8
676.044	1	1
676.383	1	8
676.722	1	4
677.060	1	8
677.399	1	0
677.738	1	-3
678.077	1	6
678.416	1	-6
678.754	1	5
679.093	1	6
679.432	1	8
679.771	1	1
680.109	1	-3
680.448	1	6
680.787	1	10
681.125	1	8
681.464	1	1
681.803	1	0
682.142	1	-3
682.480	1	7
682.819	1	11
683.158	1	7
683.496	1	-4
683.835	1	3
684.174	1	11
684.512	1	13
684.851	1	-7
685.190	1	2
685.529	1	-3
685.867	1	0
686.206	1	15
686.545	1	-3
686.883	1	1
687.222	1	1
687.561	1	10
687.899	1	-1
688.238	1	11
688.577	1	-7
688.746	1	2