File: Data/GaN_130K_350ms/GaN_sample F_spot6_UVVIS_130 K_200um_350 ms 2x2mm1_28.txt
340.368	1	8
340.710	1	4
341.052	1	-1
341.394	1	-3
341.737	1	8
342.079	1	5
342.421	1	8
342.763	1	8
343.105	1	-5
343.447	1	4
343.789	1	1
344.131	1	14
344.473	1	1
344.815	1	-4
345.157	1	-8
345.499	1	5
345.841	1	-7
346.183	1	9
346.526	1	-4
346.868	1	4
347.210	1	1
347.552	1	-5
347.894	1	-6
348.236	1	3
348.578	1	2
348.920	1	4
349.262	1	5
349.604	1	7
349.946	1	2
350.288	1	-7
350.630	1	17
350.972	1	4
351.314	1	-3
351.656	1	6
351.998	1	-4
352.340	1	15
352.682	1	-1
353.024	1	1
353.366	1	8
353.708	1	-1
354.050	1	-8
354.392	1	14
354.734	1	6
355.076	1	5
355.418	1	-5
355.760	1	6
356.102	1	-1
356.444	1	-4
356.785	1	4
357.127	1	10
357.469	1	-2
357.811	1	1
358.153	1	-6
358.495	1	4
358.837	1	2
359.179	1	-3
359.521	1	-6
359.863	1	4
360.205	1	7
360.547	1	-1
360.889	1	-9
361.231	1	-8
361.572	1	8
361.914	1	4
362.256	1	-3
362.598	1	-6
362.940	1	-2
363.282	1	13
363.624	1	-1
363.966	1	16
364.308	1	3
364.649	1	1
364.991	1	2
365.333	1	-6
365.675	1	4
366.017	1	10
366.359	1	-1
366.701	1	5
367.042	1	7
367.384	1	5
367.726	1	1
368.068	1	-5
368.410	1	-7
368.752	1	9
369.093	1	2
369.435	1	-2
369.777	1	-2
370.119	1	3
370.461	1	3
370.803	1	0
371.144	1	2
371.486	1	-4
371.828	1	3
372.170	1	3
372.512	1	4
372.853	1	-5
373.195	1	-3
373.537	1	10
373.879	1	10
374.220	1	2
374.562	1	-1
374.904	1	8
375.246	1	2
375.588	1	0
375.929	1	-8
376.271	1	3
376.613	1	-7
376.955	1	1
377.296	1	-4
377.638	1	-11
377.980	1	-9
378.321	1	0
378.663	1	0
379.005	1	11
379.347	1	-3
379.688	1	0
380.030	1	1
380.372	1	6
380.714	1	4
381.055	1	-3
381.397	1	1
381.739	1	5
382.080	1	-2
382.422	1	19
382.764	1	6
383.105	1	3
383.447	1	8
383.789	1	5
384.130	1	8
384.472	1	9
384.814	1	-1
385.156	1	5
385.497	1	3
385.839	1	2
386.180	1	7
386.522	1	-1
386.864	1	8
387.205	1	8
387.547	1	3
387.889	1	-9
388.230	1	3
388.572	1	-3
388.914	1	-1
389.255	1	-1
389.597	1	-13
389.939	1	2
390.280	1	-1
390.622	1	0
390.963	1	6
391.305	1	10
391.647	1	5
391.988	1	3
392.330	1	-5
392.671	1	-11
393.013	1	7
393.355	1	-5
393.696	1	-1
394.038	1	2
394.379	1	3
394.721	1	3
395.062	1	-3
395.404	1	-6
395.746	1	11
396.087	1	3
396.429	1	4
396.770	1	4
397.112	1	0
397.453	1	8
397.795	1	-15
398.136	1	4
398.478	1	2
398.819	1	-10
399.161	1	9
399.503	1	10
399.844	1	-3
400.186	1	-3
400.527	1	9
400.869	1	3
401.210	1	-4
401.552	1	3
401.893	1	-12
402.235	1	4
402.576	1	-1
402.918	1	4
403.259	1	-2
403.601	1	4
403.942	1	3
404.284	1	-2
404.625	1	5
404.967	1	-2
405.308	1	-3
405.649	1	4
405.991	1	2
406.332	1	1
406.674	1	5
407.015	1	1
407.357	1	-1
407.698	1	-1
408.040	1	-4
408.381	1	7
408.722	1	6
409.064	1	2
409.405	1	3
409.747	1	-8
410.088	1	7
410.430	1	11
410.771	1	-9
411.112	1	5
411.454	1	3
411.795	1	10
412.137	1	-8
412.478	1	-3
412.819	1	3
413.161	1	-1
413.502	1	8
413.844	1	9
414.185	1	5
414.526	1	-3
414.868	1	0
415.209	1	-6
415.550	1	-6
415.892	1	-3
416.233	1	8
416.575	1	5
416.916	1	-4
417.257	1	-1
417.599	1	-2
417.940	1	2
418.281	1	6
418.623	1	-2
418.964	1	-1
419.305	1	7
419.647	1	6
419.988	1	14
420.329	1	11
420.671	1	-7
421.012	1	-2
421.353	1	-11
421.695	1	2
422.036	1	-6
422.377	1	-1
422.718	1	4
423.060	1	5
423.401	1	11
423.742	1	-2
424.084	1	11
424.425	1	6
424.766	1	-5
425.107	1	3
425.449	1	-1
425.790	1	13
426.131	1	7
426.472	1	1
426.814	1	0
427.155	1	-3
427.496	1	-10
427.837	1	5
428.179	1	5
428.520	1	9
428.861	1	-6
429.202	1	-1
429.544	1	3
429.885	1	-3
430.226	1	5
430.567	1	-2
430.909	1	0
431.250	1	9
431.591	1	-7
431.932	1	-3
432.273	1	0
432.615	1	8
432.956	1	-11
433.297	1	8
433.638	1	-2
433.979	1	7
434.320	1	-1
434.662	1	1
435.003	1	5
435.344	1	6
435.685	1	-8
436.026	1	0
436.368	1	-4
436.709	1	-8
437.050	1	-4
437.391	1	8
437.732	1	10
438.073	1	12
438.414	1	-11
438.756	1	-2
439.097	1	4
439.438	1	3
439.779	1	0
440.120	1	4
440.461	1	5
440.802	1	-4
441.143	1	2
441.485	1	7
441.826	1	-5
442.167	1	4
442.508	1	0
442.849	1	5
443.190	1	5
443.531	1	0
443.872	1	6
444.213	1	-4
444.554	1	3
444.895	1	4
445.237	1	-2
445.578	1	-3
445.919	1	-8
446.260	1	2
446.601	1	7
446.942	1	2
447.283	1	6
447.624	1	0
447.965	1	5
448.306	1	7
448.647	1	17
448.988	1	6
449.329	1	-4
449.670	1	0
450.011	1	-6
450.352	1	4
450.693	1	0
451.034	1	5
451.375	1	2
451.716	1	-6
452.057	1	8
452.398	1	-6
452.739	1	4
453.080	1	4
453.421	1	4
453.762	1	4
454.103	1	-5
454.444	1	1
454.785	1	18
455.126	1	-9
455.467	1	-7
455.808	1	1
456.149	1	-8
456.490	1	5
456.831	1	6
457.172	1	-1
457.513	1	-6
457.854	1	-5
458.195	1	-7
458.536	1	8
458.877	1	19
459.218	1	-1
459.559	1	0
459.899	1	-2
460.240	1	9
460.581	1	0
460.922	1	7
461.263	1	-1
461.604	1	-7
461.945	1	4
462.286	1	7
462.627	1	-1
462.968	1	-4
463.309	1	1
463.649	1	4
463.990	1	-3
464.331	1	9
464.672	1	11
465.013	1	-1
465.354	1	1
465.695	1	11
466.036	1	3
466.376	1	5
466.717	1	5
467.058	1	8
467.399	1	4
467.740	1	3
468.081	1	12
468.422	1	1
468.762	1	-7
469.103	1	3
469.444	1	1
469.785	1	2
470.126	1	-17
470.467	1	-3
470.807	1	-1
471.148	1	-5
471.489	1	-4
471.830	1	-2
472.171	1	5
472.511	1	10
472.852	1	13
473.193	1	0
473.534	1	0
473.875	1	9
474.215	1	-3
474.556	1	2
474.897	1	2
475.238	1	9
475.578	1	-6
475.919	1	-4
476.260	1	4
476.601	1	-10
476.942	1	7
477.282	1	6
477.623	1	1
477.964	1	-6
478.305	1	11
478.645	1	3
478.986	1	-2
479.327	1	-13
479.667	1	-1
480.008	1	-4
480.349	1	0
480.690	1	4
481.030	1	3
481.371	1	1
481.712	1	11
482.053	1	6
482.393	1	6
482.734	1	2
483.075	1	12
483.415	1	-8
483.756	1	-5
484.097	1	-5
484.437	1	-2
484.778	1	5
485.119	1	14
485.459	1	-13
485.800	1	3
486.141	1	0
486.481	1	-4
486.822	1	7
487.163	1	-2
487.503	1	-4
487.844	1	6
488.185	1	4
488.525	1	5
488.866	1	0
489.207	1	0
489.547	1	-9
489.888	1	7
490.228	1	12
490.569	1	4
490.910	1	-1
491.250	1	-6
491.591	1	-4
491.932	1	5
492.272	1	3
492.613	1	-6
492.953	1	4
493.294	1	8
493.635	1	4
493.975	1	10
494.316	1	7
494.656	1	0
494.997	1	-2
495.337	1	-5
495.678	1	-3
496.019	1	2
496.359	1	2
496.700	1	1
497.040	1	7
497.381	1	2
497.721	1	4
498.062	1	-1
498.403	1	0
498.743	1	6
499.084	1	9
499.424	1	-4
499.765	1	3
500.105	1	-1
500.446	1	0
500.786	1	6
501.127	1	-8
501.467	1	-1
501.808	1	7
502.148	1	2
502.489	1	-4
502.829	1	-5
503.170	1	-7
503.510	1	3
503.851	1	-4
504.191	1	0
504.532	1	7
504.872	1	2
505.213	1	4
505.553	1	4
505.894	1	2
506.234	1	-6
506.575	1	-5
506.915	1	6
507.256	1	9
507.596	1	-2
507.936	1	-5
508.277	1	-1
508.617	1	2
508.958	1	3
509.298	1	-4
509.639	1	1
509.979	1	-3
510.319	1	2
510.660	1	-6
511.000	1	4
511.341	1	-1
511.681	1	-6
512.022	1	-3
512.362	1	3
512.702	1	6
513.043	1	3
513.383	1	5
513.724	1	-5
514.064	1	4
514.404	1	7
514.745	1	1
515.085	1	-2
515.425	1	-3
515.766	1	4
516.106	1	0
516.447	1	-9
516.787	1	1
517.127	1	-8
517.468	1	-1
517.808	1	-1
518.148	1	-1
518.489	1	8
518.829	1	5
519.169	1	-1
519.510	1	3
519.850	1	-3
520.190	1	16
520.531	1	13
520.871	1	-8
521.211	1	3
521.552	1	5
521.892	1	9
522.232	1	-11
522.573	1	3
522.913	1	7
523.253	1	-2
523.593	1	11
523.934	1	8
524.274	1	-5
524.614	1	-2
524.955	1	5
525.295	1	1
525.635	1	3
525.975	1	6
526.316	1	-10
526.656	1	9
526.996	1	-4
527.337	1	4
527.677	1	-8
528.017	1	0
528.357	1	9
528.698	1	-5
529.038	1	-15
529.378	1	3
529.718	1	1
530.058	1	-3
530.399	1	1
530.739	1	3
531.079	1	-2
531.419	1	3
531.760	1	0
532.100	1	3
532.440	1	-1
532.780	1	1
533.120	1	8
533.461	1	-7
533.801	1	10
534.141	1	4
534.481	1	4
534.821	1	4
535.162	1	1
535.502	1	-2
535.842	1	15
536.182	1	2
536.522	1	-11
536.862	1	-1
537.203	1	-7
537.543	1	5
537.883	1	-7
538.223	1	0
538.563	1	8
538.903	1	11
539.243	1	1
539.584	1	9
539.924	1	1
540.264	1	-10
540.604	1	9
540.944	1	2
541.284	1	2
541.624	1	6
541.964	1	1
542.305	1	3
542.645	1	0
542.985	1	12
543.325	1	7
543.665	1	5
544.005	1	15
544.345	1	3
544.685	1	9
545.025	1	0
545.365	1	4
545.705	1	-7
546.045	1	2
546.386	1	-9
546.726	1	-2
547.066	1	1
547.406	1	-17
547.746	1	-3
548.086	1	-6
548.426	1	-7
548.766	1	13
549.106	1	-5
549.446	1	1
549.786	1	4
550.126	1	9
550.466	1	6
550.806	1	13
551.146	1	0
551.486	1	-1
551.826	1	3
552.166	1	8
552.506	1	9
552.846	1	-6
553.186	1	-4
553.526	1	-1
553.866	1	-6
554.206	1	-4
554.546	1	5
554.886	1	-2
555.226	1	10
555.566	1	2
555.906	1	-1
556.246	1	2
556.586	1	6
556.926	1	-7
557.266	1	2
557.606	1	-2
557.946	1	4
558.286	1	15
558.626	1	-15
558.966	1	-5
559.306	1	-3
559.646	1	1
559.986	1	2
560.325	1	-7
560.665	1	2
561.005	1	2
561.345	1	14
561.685	1	2
562.025	1	2
562.365	1	9
562.705	1	4
563.045	1	-4
563.385	1	0
563.725	1	0
564.064	1	4
564.404	1	6
564.744	1	-3
565.084	1	7
565.424	1	-6
565.764	1	7
566.104	1	2
566.444	1	7
566.783	1	4
567.123	1	4
567.463	1	-1
567.803	1	6
568.143	1	8
568.483	1	-8
568.823	1	-5
569.162	1	11
569.502	1	1
569.842	1	-5
570.182	1	2
570.522	1	-15
570.862	1	13
571.201	1	0
571.541	1	-4
571.881	1	1
572.221	1	6
572.561	1	-2
572.900	1	4
573.240	1	3
573.580	1	5
573.920	1	10
574.260	1	9
574.599	1	9
574.939	1	0
575.279	1	-8
575.619	1	2
575.959	1	-6
576.298	1	6
576.638	1	-10
576.978	1	-4
577.318	1	-4
577.657	1	1
577.997	1	2
578.337	1	4
578.677	1	3
579.016	1	-4
579.356	1	2
579.696	1	-1
580.036	1	9
580.375	1	6
580.715	1	4
581.055	1	3
581.394	1	-1
581.734	1	9
582.074	1	8
582.414	1	0
582.753	1	0
583.093	1	0
583.433	1	3
583.772	1	12
584.112	1	10
584.452	1	12
584.791	1	-1
585.131	1	4
585.471	1	7
585.811	1	-10
586.150	1	9
586.490	1	-3
586.830	1	1
587.169	1	3
587.509	1	10
587.849	1	10
588.188	1	11
588.528	1	10
588.867	1	4
589.207	1	-1
589.547	1	-10
589.886	1	2
590.226	1	10
590.566	1	5
590.905	1	3
591.245	1	-3
591.585	1	-5
591.924	1	-3
592.264	1	2
592.603	1	7
592.943	1	-2
593.283	1	-5
593.622	1	2
593.962	1	6
594.301	1	2
594.641	1	0
594.981	1	-4
595.320	1	4
595.660	1	11
595.999	1	4
596.339	1	14
596.678	1	-8
597.018	1	-2
597.358	1	-4
597.697	1	2
598.037	1	2
598.376	1	-1
598.716	1	0
599.055	1	-2
599.395	1	-3
599.734	1	-4
600.074	1	0
600.413	1	10
600.753	1	-2
601.092	1	3
601.432	1	-8
601.771	1	6
602.111	1	1
602.451	1	8
602.790	1	-3
603.130	1	7
603.469	1	4
603.809	1	5
604.148	1	7
604.487	1	11
604.827	1	8
605.166	1	14
605.506	1	0
605.845	1	-2
606.185	1	4
606.524	1	3
606.864	1	11
607.203	1	0
607.543	1	7
607.882	1	10
608.222	1	-4
608.561	1	-6
608.901	1	11
609.240	1	-6
609.579	1	-1
609.919	1	8
610.258	1	-4
610.598	1	1
610.937	1	8
611.277	1	1
611.616	1	4
611.955	1	-4
612.295	1	8
612.634	1	1
612.974	1	5
613.313	1	2
613.652	1	-14
613.992	1	-6
614.331	1	10
614.671	1	9
615.010	1	-4
615.349	1	0
615.689	1	1
616.028	1	8
616.368	1	3
616.707	1	7
617.046	1	2
617.386	1	-4
617.725	1	3
618.064	1	5
618.404	1	-1
618.743	1	4
619.082	1	-5
619.422	1	5
619.761	1	14
620.100	1	-2
620.440	1	1
620.779	1	0
621.118	1	-2
621.458	1	12
621.797	1	6
622.136	1	2
622.476	1	8
622.815	1	-3
623.154	1	0
623.494	1	7
623.833	1	7
624.172	1	8
624.511	1	7
624.851	1	2
625.190	1	3
625.529	1	-1
625.869	1	2
626.208	1	-2
626.547	1	9
626.886	1	-7
627.226	1	-8
627.565	1	1
627.904	1	1
628.243	1	5
628.583	1	-15
628.922	1	-6
629.261	1	-2
629.600	1	7
629.940	1	-1
630.279	1	8
630.618	1	-5
630.957	1	3
631.297	1	10
631.636	1	8
631.975	1	11
632.314	1	3
632.653	1	-6
632.993	1	11
633.332	1	-3
633.671	1	-15
634.010	1	-6
634.349	1	0
634.689	1	1
635.028	1	12
635.367	1	7
635.706	1	0
636.045	1	19
636.384	1	1
636.724	1	7
637.063	1	5
637.402	1	-3
637.741	1	6
638.080	1	1
638.419	1	9
638.759	1	5
639.098	1	5
639.437	1	10
639.776	1	-1
640.115	1	4
640.454	1	7
640.793	1	-10
641.132	1	14
641.472	1	0
641.811	1	6
642.150	1	-8
642.489	1	-1
642.828	1	-4
643.167	1	0
643.506	1	10
643.845	1	-2
644.184	1	-14
644.524	1	-4
644.863	1	2
645.202	1	1
645.541	1	0
645.880	1	2
646.219	1	0
646.558	1	-10
646.897	1	-8
647.236	1	-5
647.575	1	2
647.914	1	7
648.253	1	1
648.592	1	0
648.931	1	-8
649.270	1	-3
649.610	1	8
649.949	1	-1
650.288	1	4
650.627	1	4
650.966	1	7
651.305	1	-6
651.644	1	4
651.983	1	-16
652.322	1	-6
652.661	1	-8
653.000	1	-7
653.339	1	-4
653.678	1	-1
654.017	1	-12
654.356	1	-1
654.695	1	-1
655.034	1	2
655.373	1	-3
655.712	1	3
656.051	1	3
656.390	1	-5
656.729	1	3
657.068	1	-6
657.406	1	2
657.745	1	0
658.084	1	4
658.423	1	8
658.762	1	6
659.101	1	4
659.440	1	-3
659.779	1	5
660.118	1	-5
660.457	1	-1
660.796	1	9
661.135	1	15
661.474	1	11
661.813	1	-1
662.152	1	-5
662.491	1	10
662.829	1	6
663.168	1	0
663.507	1	-2
663.846	1	-2
664.185	1	1
664.524	1	-5
664.863	1	2
665.202	1	1
665.541	1	-4
665.879	1	3
666.218	1	1
666.557	1	0
666.896	1	1
667.235	1	1
667.574	1	8
667.913	1	2
668.251	1	9
668.590	1	3
668.929	1	4
669.268	1	-6
669.607	1	-1
669.946	1	10
670.285	1	2
670.623	1	10
670.962	1	2
671.301	1	5
671.640	1	-4
671.979	1	6
672.317	1	-3
672.656	1	-10
672.995	1	0
673.334	1	-5
673.673	1	7
674.011	1	2
674.350	1	-5
674.689	1	1
675.028	1	10
675.367	1	-11
675.705	1	9
676.044	1	-2
676.383	1	8
676.722	1	-9
677.060	1	5
677.399	1	1
677.738	1	-5
678.077	1	10
678.416	1	8
678.754	1	0
679.093	1	-6
679.432	1	2
679.771	1	5
680.109	1	-4
680.448	1	1
680.787	1	2
681.125	1	4
681.464	1	-10
681.803	1	-10
682.142	1	0
682.480	1	5
682.819	1	7
683.158	1	5
683.496	1	-7
683.835	1	-5
684.174	1	2
684.512	1	10
684.851	1	-3
685.190	1	0
685.529	1	-9
685.867	1	-3
686.206	1	1
686.545	1	-2
686.883	1	6
687.222	1	-5
687.561	1	10
687.899	1	1
688.238	1	9
688.577	1	3
688.746	1	0