File: Data/GaN_130K_350ms/GaN_sample F_spot6_UVVIS_130 K_200um_350 ms 2x2mm1_174.txt
340.368	1	8
340.710	1	10
341.052	1	-5
341.394	1	3
341.737	1	4
342.079	1	-4
342.421	1	0
342.763	1	-3
343.105	1	7
343.447	1	4
343.789	1	-6
344.131	1	5
344.473	1	-3
344.815	1	-3
345.157	1	-10
345.499	1	-1
345.841	1	-5
346.183	1	14
346.526	1	3
346.868	1	9
347.210	1	5
347.552	1	-1
347.894	1	6
348.236	1	4
348.578	1	1
348.920	1	4
349.262	1	8
349.604	1	9
349.946	1	7
350.288	1	-5
350.630	1	13
350.972	1	10
351.314	1	-5
351.656	1	7
351.998	1	-3
352.340	1	9
352.682	1	6
353.024	1	0
353.366	1	3
353.708	1	1
354.050	1	2
354.392	1	13
354.734	1	3
355.076	1	1
355.418	1	9
355.760	1	5
356.102	1	4
356.444	1	-6
356.785	1	14
357.127	1	7
357.469	1	-8
357.811	1	2
358.153	1	9
358.495	1	14
358.837	1	7
359.179	1	9
359.521	1	-7
359.863	1	3
360.205	1	4
360.547	1	9
360.889	1	7
361.231	1	4
361.572	1	19
361.914	1	7
362.256	1	12
362.598	1	12
362.940	1	5
363.282	1	22
363.624	1	19
363.966	1	27
364.308	1	28
364.649	1	23
364.991	1	13
365.333	1	17
365.675	1	17
366.017	1	21
366.359	1	21
366.701	1	24
367.042	1	27
367.384	1	21
367.726	1	18
368.068	1	6
368.410	1	14
368.752	1	18
369.093	1	17
369.435	1	31
369.777	1	25
370.119	1	28
370.461	1	30
370.803	1	19
371.144	1	16
371.486	1	27
371.828	1	23
372.170	1	16
372.512	1	15
372.853	1	10
373.195	1	21
373.537	1	13
373.879	1	26
374.220	1	15
374.562	1	8
374.904	1	15
375.246	1	12
375.588	1	9
375.929	1	-1
376.271	1	24
376.613	1	0
376.955	1	9
377.296	1	8
377.638	1	-13
377.980	1	2
378.321	1	7
378.663	1	20
379.005	1	15
379.347	1	12
379.688	1	5
380.030	1	7
380.372	1	18
380.714	1	20
381.055	1	8
381.397	1	9
381.739	1	12
382.080	1	7
382.422	1	16
382.764	1	17
383.105	1	5
383.447	1	6
383.789	1	7
384.130	1	11
384.472	1	10
384.814	1	4
385.156	1	8
385.497	1	6
385.839	1	8
386.180	1	15
386.522	1	11
386.864	1	9
387.205	1	2
387.547	1	8
387.889	1	7
388.230	1	8
388.572	1	25
388.914	1	7
389.255	1	2
389.597	1	-16
389.939	1	13
390.280	1	6
390.622	1	12
390.963	1	9
391.305	1	0
391.647	1	8
391.988	1	10
392.330	1	3
392.671	1	-3
393.013	1	16
393.355	1	7
393.696	1	3
394.038	1	14
394.379	1	8
394.721	1	10
395.062	1	-7
395.404	1	-12
395.746	1	15
396.087	1	12
396.429	1	14
396.770	1	10
397.112	1	3
397.453	1	9
397.795	1	6
398.136	1	5
398.478	1	4
398.819	1	-4
399.161	1	12
399.503	1	15
399.844	1	5
400.186	1	3
400.527	1	8
400.869	1	15
401.210	1	4
401.552	1	11
401.893	1	-14
402.235	1	4
402.576	1	8
402.918	1	11
403.259	1	-3
403.601	1	16
403.942	1	7
404.284	1	-4
404.625	1	17
404.967	1	13
405.308	1	5
405.649	1	5
405.991	1	7
406.332	1	5
406.674	1	16
407.015	1	2
407.357	1	5
407.698	1	6
408.040	1	15
408.381	1	14
408.722	1	15
409.064	1	11
409.405	1	10
409.747	1	4
410.088	1	14
410.430	1	16
410.771	1	-7
411.112	1	13
411.454	1	14
411.795	1	5
412.137	1	14
412.478	1	3
412.819	1	1
413.161	1	17
413.502	1	21
413.844	1	3
414.185	1	8
414.526	1	0
414.868	1	5
415.209	1	8
415.550	1	5
415.892	1	5
416.233	1	12
416.575	1	0
416.916	1	2
417.257	1	-1
417.599	1	3
417.940	1	9
418.281	1	14
418.623	1	6
418.964	1	0
419.305	1	7
419.647	1	7
419.988	1	14
420.329	1	0
420.671	1	14
421.012	1	3
421.353	1	-6
421.695	1	2
422.036	1	8
422.377	1	6
422.718	1	11
423.060	1	7
423.401	1	9
423.742	1	-1
424.084	1	11
424.425	1	12
424.766	1	12
425.107	1	13
425.449	1	4
425.790	1	12
426.131	1	20
426.472	1	7
426.814	1	9
427.155	1	3
427.496	1	2
427.837	1	11
428.179	1	6
428.520	1	11
428.861	1	2
429.202	1	15
429.544	1	13
429.885	1	8
430.226	1	10
430.567	1	0
430.909	1	7
431.250	1	4
431.591	1	4
431.932	1	3
432.273	1	9
432.615	1	16
432.956	1	11
433.297	1	8
433.638	1	13
433.979	1	-3
434.320	1	6
434.662	1	15
435.003	1	16
435.344	1	11
435.685	1	-4
436.026	1	8
436.368	1	-1
436.709	1	4
437.050	1	13
437.391	1	15
437.732	1	8
438.073	1	15
438.414	1	2
438.756	1	7
439.097	1	10
439.438	1	9
439.779	1	18
440.120	1	1
440.461	1	22
440.802	1	0
441.143	1	-1
441.485	1	10
441.826	1	11
442.167	1	3
442.508	1	5
442.849	1	9
443.190	1	8
443.531	1	-2
443.872	1	13
444.213	1	-8
444.554	1	13
444.895	1	15
445.237	1	-4
445.578	1	3
445.919	1	0
446.260	1	6
446.601	1	14
446.942	1	1
447.283	1	5
447.624	1	1
447.965	1	4
448.306	1	-5
448.647	1	11
448.988	1	-2
449.329	1	-4
449.670	1	-3
450.011	1	2
450.352	1	4
450.693	1	0
451.034	1	0
451.375	1	5
451.716	1	-8
452.057	1	14
452.398	1	-2
452.739	1	14
453.080	1	3
453.421	1	0
453.762	1	12
454.103	1	1
454.444	1	2
454.785	1	5
455.126	1	-6
455.467	1	6
455.808	1	11
456.149	1	-4
456.490	1	6
456.831	1	7
457.172	1	8
457.513	1	-1
457.854	1	2
458.195	1	-10
458.536	1	9
458.877	1	31
459.218	1	8
459.559	1	2
459.899	1	1
460.240	1	10
460.581	1	7
460.922	1	11
461.263	1	5
461.604	1	-2
461.945	1	10
462.286	1	11
462.627	1	5
462.968	1	-6
463.309	1	11
463.649	1	-4
463.990	1	4
464.331	1	11
464.672	1	2
465.013	1	2
465.354	1	6
465.695	1	3
466.036	1	7
466.376	1	4
466.717	1	16
467.058	1	15
467.399	1	4
467.740	1	17
468.081	1	14
468.422	1	7
468.762	1	-3
469.103	1	1
469.444	1	5
469.785	1	9
470.126	1	-8
470.467	1	7
470.807	1	3
471.148	1	3
471.489	1	4
471.830	1	-1
472.171	1	10
472.511	1	9
472.852	1	10
473.193	1	5
473.534	1	-2
473.875	1	11
474.215	1	2
474.556	1	10
474.897	1	-6
475.238	1	16
475.578	1	-8
475.919	1	-5
476.260	1	7
476.601	1	-2
476.942	1	12
477.282	1	5
477.623	1	-3
477.964	1	2
478.305	1	19
478.645	1	-2
478.986	1	4
479.327	1	-9
479.667	1	17
480.008	1	0
480.349	1	2
480.690	1	-1
481.030	1	5
481.371	1	12
481.712	1	7
482.053	1	-1
482.393	1	11
482.734	1	2
483.075	1	13
483.415	1	-2
483.756	1	6
484.097	1	6
484.437	1	3
484.778	1	7
485.119	1	7
485.459	1	-2
485.800	1	5
486.141	1	7
486.481	1	-5
486.822	1	5
487.163	1	6
487.503	1	-3
487.844	1	6
488.185	1	2
488.525	1	8
488.866	1	8
489.207	1	0
489.547	1	7
489.888	1	9
490.228	1	-3
490.569	1	8
490.910	1	-3
491.250	1	5
491.591	1	-1
491.932	1	5
492.272	1	-6
492.613	1	-2
492.953	1	8
493.294	1	6
493.635	1	11
493.975	1	13
494.316	1	9
494.656	1	7
494.997	1	10
495.337	1	4
495.678	1	2
496.019	1	3
496.359	1	16
496.700	1	9
497.040	1	10
497.381	1	-3
497.721	1	-3
498.062	1	-2
498.403	1	4
498.743	1	17
499.084	1	15
499.424	1	7
499.765	1	2
500.105	1	16
500.446	1	8
500.786	1	9
501.127	1	1
501.467	1	6
501.808	1	-3
502.148	1	1
502.489	1	-4
502.829	1	5
503.170	1	3
503.510	1	12
503.851	1	4
504.191	1	3
504.532	1	5
504.872	1	7
505.213	1	5
505.553	1	4
505.894	1	20
506.234	1	6
506.575	1	8
506.915	1	4
507.256	1	17
507.596	1	0
507.936	1	-6
508.277	1	5
508.617	1	4
508.958	1	16
509.298	1	1
509.639	1	14
509.979	1	7
510.319	1	27
510.660	1	2
511.000	1	10
511.341	1	1
511.681	1	16
512.022	1	15
512.362	1	9
512.702	1	10
513.043	1	7
513.383	1	13
513.724	1	3
514.064	1	5
514.404	1	14
514.745	1	-2
515.085	1	17
515.425	1	6
515.766	1	11
516.106	1	-3
516.447	1	4
516.787	1	11
517.127	1	15
517.468	1	9
517.808	1	15
518.148	1	10
518.489	1	7
518.829	1	16
519.169	1	18
519.510	1	9
519.850	1	15
520.190	1	15
520.531	1	16
520.871	1	-1
521.211	1	14
521.552	1	13
521.892	1	14
522.232	1	-4
522.573	1	4
522.913	1	6
523.253	1	5
523.593	1	19
523.934	1	7
524.274	1	1
524.614	1	10
524.955	1	10
525.295	1	15
525.635	1	8
525.975	1	23
526.316	1	6
526.656	1	8
526.996	1	7
527.337	1	17
527.677	1	0
528.017	1	8
528.357	1	7
528.698	1	7
529.038	1	8
529.378	1	8
529.718	1	15
530.058	1	4
530.399	1	14
530.739	1	12
531.079	1	15
531.419	1	15
531.760	1	4
532.100	1	16
532.440	1	10
532.780	1	8
533.120	1	22
533.461	1	9
533.801	1	22
534.141	1	15
534.481	1	8
534.821	1	24
535.162	1	9
535.502	1	9
535.842	1	8
536.182	1	10
536.522	1	1
536.862	1	7
537.203	1	2
537.543	1	13
537.883	1	-9
538.223	1	6
538.563	1	15
538.903	1	8
539.243	1	7
539.584	1	9
539.924	1	3
540.264	1	-3
540.604	1	12
540.944	1	3
541.284	1	10
541.624	1	10
541.964	1	-2
542.305	1	8
542.645	1	7
542.985	1	19
543.325	1	6
543.665	1	16
544.005	1	0
544.345	1	8
544.685	1	14
545.025	1	-1
545.365	1	15
545.705	1	9
546.045	1	15
546.386	1	-6
546.726	1	8
547.066	1	5
547.406	1	-4
547.746	1	3
548.086	1	-2
548.426	1	9
548.766	1	11
549.106	1	0
549.446	1	6
549.786	1	10
550.126	1	14
550.466	1	17
550.806	1	5
551.146	1	5
551.486	1	11
551.826	1	2
552.166	1	16
552.506	1	3
552.846	1	-3
553.186	1	6
553.526	1	10
553.866	1	1
554.206	1	6
554.546	1	13
554.886	1	10
555.226	1	7
555.566	1	13
555.906	1	0
556.246	1	12
556.586	1	0
556.926	1	10
557.266	1	14
557.606	1	12
557.946	1	10
558.286	1	14
558.626	1	0
558.966	1	11
559.306	1	6
559.646	1	6
559.986	1	7
560.325	1	-2
560.665	1	9
561.005	1	7
561.345	1	5
561.685	1	7
562.025	1	8
562.365	1	21
562.705	1	6
563.045	1	6
563.385	1	13
563.725	1	6
564.064	1	8
564.404	1	4
564.744	1	11
565.084	1	2
565.424	1	3
565.764	1	9
566.104	1	11
566.444	1	15
566.783	1	11
567.123	1	3
567.463	1	1
567.803	1	8
568.143	1	13
568.483	1	3
568.823	1	3
569.162	1	14
569.502	1	7
569.842	1	4
570.182	1	-6
570.522	1	-7
570.862	1	22
571.201	1	14
571.541	1	7
571.881	1	4
572.221	1	3
572.561	1	1
572.900	1	10
573.240	1	-5
573.580	1	4
573.920	1	19
574.260	1	9
574.599	1	12
574.939	1	10
575.279	1	6
575.619	1	12
575.959	1	10
576.298	1	3
576.638	1	3
576.978	1	-3
577.318	1	-2
577.657	1	9
577.997	1	5
578.337	1	-3
578.677	1	7
579.016	1	2
579.356	1	4
579.696	1	1
580.036	1	7
580.375	1	-1
580.715	1	9
581.055	1	10
581.394	1	7
581.734	1	10
582.074	1	-3
582.414	1	-7
582.753	1	7
583.093	1	6
583.433	1	9
583.772	1	6
584.112	1	1
584.452	1	12
584.791	1	4
585.131	1	14
585.471	1	5
585.811	1	0
586.150	1	6
586.490	1	3
586.830	1	-3
587.169	1	3
587.509	1	-1
587.849	1	0
588.188	1	15
588.528	1	13
588.867	1	8
589.207	1	2
589.547	1	-1
589.886	1	2
590.226	1	15
590.566	1	0
590.905	1	9
591.245	1	-2
591.585	1	-3
591.924	1	3
592.264	1	10
592.603	1	4
592.943	1	1
593.283	1	-9
593.622	1	8
593.962	1	2
594.301	1	-11
594.641	1	4
594.981	1	-2
595.320	1	11
595.660	1	7
595.999	1	12
596.339	1	9
596.678	1	2
597.018	1	3
597.358	1	-5
597.697	1	1
598.037	1	2
598.376	1	-1
598.716	1	4
599.055	1	-2
599.395	1	-5
599.734	1	-3
600.074	1	7
600.413	1	5
600.753	1	2
601.092	1	3
601.432	1	-5
601.771	1	-1
602.111	1	10
602.451	1	6
602.790	1	3
603.130	1	14
603.469	1	-6
603.809	1	1
604.148	1	9
604.487	1	17
604.827	1	8
605.166	1	10
605.506	1	5
605.845	1	2
606.185	1	5
606.524	1	1
606.864	1	16
607.203	1	0
607.543	1	14
607.882	1	10
608.222	1	2
608.561	1	-12
608.901	1	4
609.240	1	-1
609.579	1	9
609.919	1	2
610.258	1	-1
610.598	1	-5
610.937	1	6
611.277	1	11
611.616	1	-1
611.955	1	-10
612.295	1	19
612.634	1	3
612.974	1	9
613.313	1	3
613.652	1	-1
613.992	1	-4
614.331	1	14
614.671	1	-3
615.010	1	1
615.349	1	3
615.689	1	13
616.028	1	23
616.368	1	13
616.707	1	14
617.046	1	8
617.386	1	4
617.725	1	4
618.064	1	0
618.404	1	-1
618.743	1	9
619.082	1	4
619.422	1	10
619.761	1	6
620.100	1	-1
620.440	1	3
620.779	1	6
621.118	1	9
621.458	1	10
621.797	1	2
622.136	1	5
622.476	1	8
622.815	1	-2
623.154	1	3
623.494	1	11
623.833	1	14
624.172	1	3
624.511	1	2
624.851	1	-2
625.190	1	0
625.529	1	8
625.869	1	11
626.208	1	3
626.547	1	2
626.886	1	8
627.226	1	14
627.565	1	6
627.904	1	6
628.243	1	5
628.583	1	-6
628.922	1	-3
629.261	1	-11
629.600	1	-2
629.940	1	11
630.279	1	8
630.618	1	2
630.957	1	-2
631.297	1	-5
631.636	1	11
631.975	1	10
632.314	1	6
632.653	1	1
632.993	1	10
633.332	1	2
633.671	1	-4
634.010	1	-13
634.349	1	11
634.689	1	4
635.028	1	7
635.367	1	12
635.706	1	0
636.045	1	10
636.384	1	10
636.724	1	5
637.063	1	8
637.402	1	-7
637.741	1	17
638.080	1	10
638.419	1	10
638.759	1	1
639.098	1	1
639.437	1	1
639.776	1	3
640.115	1	9
640.454	1	4
640.793	1	-8
641.132	1	7
641.472	1	8
641.811	1	8
642.150	1	-8
642.489	1	-6
642.828	1	-4
643.167	1	2
643.506	1	8
643.845	1	-5
644.184	1	-2
644.524	1	0
644.863	1	-6
645.202	1	12
645.541	1	-6
645.880	1	7
646.219	1	0
646.558	1	-7
646.897	1	1
647.236	1	-6
647.575	1	0
647.914	1	-1
648.253	1	-2
648.592	1	8
648.931	1	-9
649.270	1	-7
649.610	1	0
649.949	1	1
650.288	1	7
650.627	1	1
650.966	1	3
651.305	1	13
651.644	1	3
651.983	1	-12
652.322	1	-6
652.661	1	2
653.000	1	-1
653.339	1	6
653.678	1	-3
654.017	1	-5
654.356	1	4
654.695	1	-2
655.034	1	-2
655.373	1	3
655.712	1	0
656.051	1	2
656.390	1	0
656.729	1	6
657.068	1	0
657.406	1	-1
657.745	1	1
658.084	1	2
658.423	1	0
658.762	1	7
659.101	1	7
659.440	1	-5
659.779	1	9
660.118	1	-5
660.457	1	8
660.796	1	10
661.135	1	13
661.474	1	-3
661.813	1	-4
662.152	1	7
662.491	1	19
662.829	1	11
663.168	1	-2
663.507	1	-6
663.846	1	13
664.185	1	4
664.524	1	4
664.863	1	9
665.202	1	10
665.541	1	4
665.879	1	10
666.218	1	-7
666.557	1	-1
666.896	1	4
667.235	1	5
667.574	1	12
667.913	1	7
668.251	1	-2
668.590	1	5
668.929	1	12
669.268	1	-3
669.607	1	4
669.946	1	1
670.285	1	11
670.623	1	15
670.962	1	-2
671.301	1	-3
671.640	1	-6
671.979	1	-6
672.317	1	1
672.656	1	-4
672.995	1	-1
673.334	1	-10
673.673	1	5
674.011	1	3
674.350	1	-1
674.689	1	2
675.028	1	6
675.367	1	-6
675.705	1	17
676.044	1	1
676.383	1	-2
676.722	1	-9
677.060	1	6
677.399	1	-4
677.738	1	-1
678.077	1	-3
678.416	1	6
678.754	1	5
679.093	1	1
679.432	1	2
679.771	1	5
680.109	1	-2
680.448	1	10
680.787	1	6
681.125	1	11
681.464	1	-6
681.803	1	-6
682.142	1	-8
682.480	1	16
682.819	1	5
683.158	1	-3
683.496	1	-9
683.835	1	-12
684.174	1	4
684.512	1	13
684.851	1	5
685.190	1	-1
685.529	1	-14
685.867	1	-2
686.206	1	13
686.545	1	0
686.883	1	-9
687.222	1	1
687.561	1	16
687.899	1	4
688.238	1	6
688.577	1	-5
688.746	1	3