File: Data/GaN_130K_350ms/GaN_sample F_spot6_UVVIS_130 K_200um_350 ms 2x2mm1_194.txt
340.368	1	-2
340.710	1	6
341.052	1	3
341.394	1	3
341.737	1	2
342.079	1	4
342.421	1	3
342.763	1	11
343.105	1	5
343.447	1	3
343.789	1	-1
344.131	1	2
344.473	1	3
344.815	1	-3
345.157	1	-7
345.499	1	-3
345.841	1	-4
346.183	1	14
346.526	1	-4
346.868	1	7
347.210	1	3
347.552	1	-1
347.894	1	2
348.236	1	2
348.578	1	0
348.920	1	-1
349.262	1	13
349.604	1	-1
349.946	1	1
350.288	1	-8
350.630	1	7
350.972	1	4
351.314	1	0
351.656	1	16
351.998	1	6
352.340	1	12
352.682	1	2
353.024	1	-4
353.366	1	16
353.708	1	-2
354.050	1	11
354.392	1	4
354.734	1	-7
355.076	1	3
355.418	1	6
355.760	1	11
356.102	1	7
356.444	1	-5
356.785	1	4
357.127	1	12
357.469	1	4
357.811	1	6
358.153	1	5
358.495	1	9
358.837	1	2
359.179	1	8
359.521	1	4
359.863	1	8
360.205	1	10
360.547	1	0
360.889	1	11
361.231	1	-3
361.572	1	8
361.914	1	6
362.256	1	-3
362.598	1	8
362.940	1	0
363.282	1	11
363.624	1	13
363.966	1	27
364.308	1	17
364.649	1	14
364.991	1	19
365.333	1	0
365.675	1	16
366.017	1	18
366.359	1	18
366.701	1	29
367.042	1	15
367.384	1	20
367.726	1	15
368.068	1	15
368.410	1	15
368.752	1	28
369.093	1	8
369.435	1	21
369.777	1	22
370.119	1	12
370.461	1	13
370.803	1	16
371.144	1	17
371.486	1	13
371.828	1	16
372.170	1	11
372.512	1	5
372.853	1	13
373.195	1	13
373.537	1	14
373.879	1	20
374.220	1	6
374.562	1	9
374.904	1	19
375.246	1	14
375.588	1	5
375.929	1	3
376.271	1	14
376.613	1	4
376.955	1	5
377.296	1	5
377.638	1	2
377.980	1	9
378.321	1	15
378.663	1	12
379.005	1	11
379.347	1	5
379.688	1	4
380.030	1	5
380.372	1	8
380.714	1	18
381.055	1	3
381.397	1	9
381.739	1	11
382.080	1	-1
382.422	1	13
382.764	1	9
383.105	1	12
383.447	1	0
383.789	1	12
384.130	1	9
384.472	1	11
384.814	1	3
385.156	1	12
385.497	1	9
385.839	1	16
386.180	1	7
386.522	1	3
386.864	1	18
387.205	1	9
387.547	1	8
387.889	1	-5
388.230	1	4
388.572	1	15
388.914	1	20
389.255	1	7
389.597	1	-4
389.939	1	7
390.280	1	21
390.622	1	3
390.963	1	8
391.305	1	12
391.647	1	9
391.988	1	8
392.330	1	1
392.671	1	-5
393.013	1	-1
393.355	1	-1
393.696	1	5
394.038	1	12
394.379	1	8
394.721	1	7
395.062	1	3
395.404	1	-8
395.746	1	9
396.087	1	21
396.429	1	-4
396.770	1	2
397.112	1	13
397.453	1	12
397.795	1	-7
398.136	1	4
398.478	1	8
398.819	1	-6
399.161	1	5
399.503	1	16
399.844	1	-2
400.186	1	-1
400.527	1	11
400.869	1	11
401.210	1	-1
401.552	1	7
401.893	1	-3
402.235	1	5
402.576	1	8
402.918	1	7
403.259	1	7
403.601	1	8
403.942	1	0
404.284	1	3
404.625	1	6
404.967	1	8
405.308	1	4
405.649	1	9
405.991	1	-1
406.332	1	4
406.674	1	17
407.015	1	10
407.357	1	1
407.698	1	12
408.040	1	1
408.381	1	18
408.722	1	6
409.064	1	13
409.405	1	3
409.747	1	3
410.088	1	12
410.430	1	14
410.771	1	2
411.112	1	12
411.454	1	13
411.795	1	7
412.137	1	4
412.478	1	6
412.819	1	4
413.161	1	7
413.502	1	8
413.844	1	5
414.185	1	14
414.526	1	3
414.868	1	-2
415.209	1	0
415.550	1	3
415.892	1	12
416.233	1	20
416.575	1	9
416.916	1	-2
417.257	1	2
417.599	1	4
417.940	1	5
418.281	1	10
418.623	1	15
418.964	1	5
419.305	1	1
419.647	1	15
419.988	1	7
420.329	1	14
420.671	1	1
421.012	1	7
421.353	1	5
421.695	1	7
422.036	1	4
422.377	1	15
422.718	1	3
423.060	1	7
423.401	1	9
423.742	1	2
424.084	1	7
424.425	1	12
424.766	1	4
425.107	1	13
425.449	1	1
425.790	1	15
426.131	1	21
426.472	1	5
426.814	1	2
427.155	1	4
427.496	1	14
427.837	1	5
428.179	1	20
428.520	1	7
428.861	1	2
429.202	1	-3
429.544	1	15
429.885	1	2
430.226	1	8
430.567	1	14
430.909	1	5
431.250	1	8
431.591	1	1
431.932	1	1
432.273	1	10
432.615	1	15
432.956	1	-2
433.297	1	13
433.638	1	5
433.979	1	6
434.320	1	11
434.662	1	8
435.003	1	15
435.344	1	10
435.685	1	-5
436.026	1	1
436.368	1	2
436.709	1	4
437.050	1	13
437.391	1	14
437.732	1	8
438.073	1	9
438.414	1	3
438.756	1	3
439.097	1	5
439.438	1	5
439.779	1	13
440.120	1	-4
440.461	1	17
440.802	1	1
441.143	1	1
441.485	1	14
441.826	1	9
442.167	1	13
442.508	1	1
442.849	1	2
443.190	1	5
443.531	1	2
443.872	1	9
444.213	1	4
444.554	1	13
444.895	1	-4
445.237	1	5
445.578	1	-3
445.919	1	-3
446.260	1	9
446.601	1	20
446.942	1	9
447.283	1	9
447.624	1	4
447.965	1	6
448.306	1	-1
448.647	1	12
448.988	1	11
449.329	1	3
449.670	1	1
450.011	1	3
450.352	1	16
450.693	1	-4
451.034	1	5
451.375	1	8
451.716	1	0
452.057	1	17
452.398	1	-2
452.739	1	3
453.080	1	-6
453.421	1	6
453.762	1	12
454.103	1	-2
454.444	1	1
454.785	1	13
455.126	1	-10
455.467	1	9
455.808	1	14
456.149	1	-11
456.490	1	9
456.831	1	3
457.172	1	1
457.513	1	-5
457.854	1	6
458.195	1	-11
458.536	1	5
458.877	1	18
459.218	1	6
459.559	1	-1
459.899	1	0
460.240	1	12
460.581	1	0
460.922	1	6
461.263	1	5
461.604	1	-20
461.945	1	8
462.286	1	6
462.627	1	3
462.968	1	2
463.309	1	9
463.649	1	4
463.990	1	8
464.331	1	16
464.672	1	9
465.013	1	1
465.354	1	6
465.695	1	14
466.036	1	7
466.376	1	1
466.717	1	9
467.058	1	8
467.399	1	-3
467.740	1	17
468.081	1	15
468.422	1	11
468.762	1	-5
469.103	1	11
469.444	1	-3
469.785	1	5
470.126	1	-4
470.467	1	4
470.807	1	11
471.148	1	5
471.489	1	-11
471.830	1	6
472.171	1	-1
472.511	1	8
472.852	1	4
473.193	1	5
473.534	1	2
473.875	1	14
474.215	1	2
474.556	1	3
474.897	1	-2
475.238	1	10
475.578	1	7
475.919	1	-9
476.260	1	6
476.601	1	-2
476.942	1	11
477.282	1	11
477.623	1	-1
477.964	1	-7
478.305	1	3
478.645	1	-2
478.986	1	1
479.327	1	-3
479.667	1	2
480.008	1	-2
480.349	1	3
480.690	1	10
481.030	1	6
481.371	1	13
481.712	1	6
482.053	1	-3
482.393	1	15
482.734	1	9
483.075	1	17
483.415	1	7
483.756	1	2
484.097	1	1
484.437	1	-1
484.778	1	9
485.119	1	17
485.459	1	0
485.800	1	10
486.141	1	6
486.481	1	2
486.822	1	11
487.163	1	11
487.503	1	-14
487.844	1	3
488.185	1	3
488.525	1	16
488.866	1	10
489.207	1	-2
489.547	1	3
489.888	1	14
490.228	1	10
490.569	1	9
490.910	1	-8
491.250	1	7
491.591	1	-4
491.932	1	4
492.272	1	-3
492.613	1	1
492.953	1	2
493.294	1	6
493.635	1	7
493.975	1	14
494.316	1	11
494.656	1	1
494.997	1	5
495.337	1	3
495.678	1	2
496.019	1	-5
496.359	1	10
496.700	1	12
497.040	1	20
497.381	1	6
497.721	1	8
498.062	1	0
498.403	1	2
498.743	1	12
499.084	1	2
499.424	1	-1
499.765	1	-3
500.105	1	2
500.446	1	5
500.786	1	15
501.127	1	4
501.467	1	-3
501.808	1	-1
502.148	1	-2
502.489	1	11
502.829	1	12
503.170	1	0
503.510	1	14
503.851	1	0
504.191	1	8
504.532	1	3
504.872	1	3
505.213	1	1
505.553	1	11
505.894	1	3
506.234	1	4
506.575	1	7
506.915	1	3
507.256	1	11
507.596	1	-3
507.936	1	-6
508.277	1	-1
508.617	1	6
508.958	1	6
509.298	1	0
509.639	1	17
509.979	1	-1
510.319	1	21
510.660	1	-3
511.000	1	8
511.341	1	-2
511.681	1	0
512.022	1	6
512.362	1	5
512.702	1	8
513.043	1	7
513.383	1	18
513.724	1	3
514.064	1	3
514.404	1	11
514.745	1	3
515.085	1	13
515.425	1	2
515.766	1	10
516.106	1	5
516.447	1	11
516.787	1	13
517.127	1	13
517.468	1	8
517.808	1	-3
518.148	1	12
518.489	1	6
518.829	1	12
519.169	1	10
519.510	1	1
519.850	1	23
520.190	1	6
520.531	1	9
520.871	1	0
521.211	1	11
521.552	1	10
521.892	1	9
522.232	1	-3
522.573	1	4
522.913	1	12
523.253	1	11
523.593	1	15
523.934	1	2
524.274	1	-3
524.614	1	12
524.955	1	3
525.295	1	10
525.635	1	6
525.975	1	15
526.316	1	-2
526.656	1	16
526.996	1	1
527.337	1	10
527.677	1	4
528.017	1	3
528.357	1	12
528.698	1	-3
529.038	1	-2
529.378	1	17
529.718	1	16
530.058	1	0
530.399	1	5
530.739	1	4
531.079	1	6
531.419	1	2
531.760	1	1
532.100	1	11
532.440	1	5
532.780	1	9
533.120	1	11
533.461	1	11
533.801	1	9
534.141	1	7
534.481	1	6
534.821	1	18
535.162	1	10
535.502	1	13
535.842	1	11
536.182	1	11
536.522	1	2
536.862	1	11
537.203	1	4
537.543	1	10
537.883	1	3
538.223	1	7
538.563	1	13
538.903	1	16
539.243	1	14
539.584	1	8
539.924	1	0
540.264	1	4
540.604	1	3
540.944	1	-1
541.284	1	7
541.624	1	19
541.964	1	5
542.305	1	4
542.645	1	6
542.985	1	4
543.325	1	4
543.665	1	9
544.005	1	15
544.345	1	3
544.685	1	15
545.025	1	2
545.365	1	21
545.705	1	7
546.045	1	16
546.386	1	2
546.726	1	-2
547.066	1	12
547.406	1	-5
547.746	1	7
548.086	1	-5
548.426	1	11
548.766	1	20
549.106	1	0
549.446	1	5
549.786	1	15
550.126	1	12
550.466	1	13
550.806	1	11
551.146	1	10
551.486	1	-1
551.826	1	13
552.166	1	5
552.506	1	8
552.846	1	-1
553.186	1	7
553.526	1	7
553.866	1	-6
554.206	1	7
554.546	1	2
554.886	1	2
555.226	1	8
555.566	1	-1
555.906	1	9
556.246	1	6
556.586	1	6
556.926	1	6
557.266	1	5
557.606	1	-3
557.946	1	5
558.286	1	9
558.626	1	-8
558.966	1	14
559.306	1	4
559.646	1	7
559.986	1	4
560.325	1	-5
560.665	1	8
561.005	1	2
561.345	1	18
561.685	1	6
562.025	1	1
562.365	1	11
562.705	1	5
563.045	1	1
563.385	1	9
563.725	1	-4
564.064	1	15
564.404	1	-5
564.744	1	7
565.084	1	2
565.424	1	6
565.764	1	4
566.104	1	5
566.444	1	13
566.783	1	9
567.123	1	4
567.463	1	-4
567.803	1	6
568.143	1	17
568.483	1	11
568.823	1	-3
569.162	1	10
569.502	1	-1
569.842	1	7
570.182	1	3
570.522	1	-17
570.862	1	13
571.201	1	6
571.541	1	-3
571.881	1	1
572.221	1	6
572.561	1	10
572.900	1	14
573.240	1	4
573.580	1	12
573.920	1	6
574.260	1	8
574.599	1	5
574.939	1	15
575.279	1	-3
575.619	1	-2
575.959	1	6
576.298	1	4
576.638	1	0
576.978	1	-2
577.318	1	5
577.657	1	12
577.997	1	15
578.337	1	-2
578.677	1	9
579.016	1	2
579.356	1	11
579.696	1	0
580.036	1	4
580.375	1	5
580.715	1	13
581.055	1	0
581.394	1	9
581.734	1	11
582.074	1	4
582.414	1	-4
582.753	1	1
583.093	1	6
583.433	1	22
583.772	1	1
584.112	1	11
584.452	1	8
584.791	1	10
585.131	1	6
585.471	1	-2
585.811	1	3
586.150	1	6
586.490	1	3
586.830	1	-11
587.169	1	8
587.509	1	8
587.849	1	5
588.188	1	3
588.528	1	12
588.867	1	-1
589.207	1	-4
589.547	1	-2
589.886	1	0
590.226	1	12
590.566	1	3
590.905	1	7
591.245	1	-2
591.585	1	8
591.924	1	3
592.264	1	3
592.603	1	1
592.943	1	6
593.283	1	-8
593.622	1	6
593.962	1	9
594.301	1	-4
594.641	1	12
594.981	1	-4
595.320	1	6
595.660	1	2
595.999	1	5
596.339	1	15
596.678	1	0
597.018	1	3
597.358	1	-1
597.697	1	1
598.037	1	7
598.376	1	4
598.716	1	7
599.055	1	0
599.395	1	4
599.734	1	3
600.074	1	24
600.413	1	4
600.753	1	4
601.092	1	-1
601.432	1	-3
601.771	1	10
602.111	1	2
602.451	1	3
602.790	1	6
603.130	1	11
603.469	1	8
603.809	1	-2
604.148	1	1
604.487	1	9
604.827	1	5
605.166	1	5
605.506	1	-1
605.845	1	5
606.185	1	6
606.524	1	1
606.864	1	20
607.203	1	-13
607.543	1	5
607.882	1	7
608.222	1	-5
608.561	1	2
608.901	1	13
609.240	1	-10
609.579	1	10
609.919	1	6
610.258	1	3
610.598	1	2
610.937	1	6
611.277	1	-2
611.616	1	-2
611.955	1	-10
612.295	1	9
612.634	1	2
612.974	1	7
613.313	1	4
613.652	1	-2
613.992	1	-3
614.331	1	2
614.671	1	3
615.010	1	0
615.349	1	6
615.689	1	13
616.028	1	11
616.368	1	4
616.707	1	11
617.046	1	8
617.386	1	3
617.725	1	4
618.064	1	7
618.404	1	-2
618.743	1	0
619.082	1	6
619.422	1	2
619.761	1	5
620.100	1	-5
620.440	1	4
620.779	1	14
621.118	1	3
621.458	1	9
621.797	1	6
622.136	1	-2
622.476	1	13
622.815	1	2
623.154	1	-1
623.494	1	2
623.833	1	3
624.172	1	1
624.511	1	7
624.851	1	5
625.190	1	-2
625.529	1	1
625.869	1	5
626.208	1	-2
626.547	1	12
626.886	1	0
627.226	1	5
627.565	1	4
627.904	1	6
628.243	1	8
628.583	1	-4
628.922	1	0
629.261	1	-11
629.600	1	5
629.940	1	9
630.279	1	3
630.618	1	-3
630.957	1	-3
631.297	1	8
631.636	1	6
631.975	1	9
632.314	1	0
632.653	1	4
632.993	1	17
633.332	1	-3
633.671	1	-6
634.010	1	-1
634.349	1	-1
634.689	1	10
635.028	1	7
635.367	1	-2
635.706	1	0
636.045	1	13
636.384	1	4
636.724	1	5
637.063	1	5
637.402	1	-3
637.741	1	14
638.080	1	12
638.419	1	1
638.759	1	-3
639.098	1	-5
639.437	1	7
639.776	1	-10
640.115	1	0
640.454	1	-2
640.793	1	-3
641.132	1	10
641.472	1	3
641.811	1	0
642.150	1	-7
642.489	1	-1
642.828	1	5
643.167	1	6
643.506	1	5
643.845	1	-5
644.184	1	3
644.524	1	2
644.863	1	3
645.202	1	10
645.541	1	5
645.880	1	7
646.219	1	9
646.558	1	6
646.897	1	2
647.236	1	4
647.575	1	-8
647.914	1	-5
648.253	1	8
648.592	1	-2
648.931	1	1
649.270	1	-2
649.610	1	2
649.949	1	0
650.288	1	12
650.627	1	-5
650.966	1	5
651.305	1	2
651.644	1	5
651.983	1	-7
652.322	1	3
652.661	1	-6
653.000	1	5
653.339	1	4
653.678	1	2
654.017	1	3
654.356	1	5
654.695	1	5
655.034	1	4
655.373	1	-1
655.712	1	10
656.051	1	5
656.390	1	1
656.729	1	-3
657.068	1	-10
657.406	1	6
657.745	1	5
658.084	1	-6
658.423	1	1
658.762	1	15
659.101	1	11
659.440	1	-2
659.779	1	7
660.118	1	0
660.457	1	2
660.796	1	-2
661.135	1	13
661.474	1	4
661.813	1	-1
662.152	1	0
662.491	1	16
662.829	1	8
663.168	1	-4
663.507	1	2
663.846	1	4
664.185	1	-1
664.524	1	5
664.863	1	7
665.202	1	-3
665.541	1	-5
665.879	1	3
666.218	1	5
666.557	1	8
666.896	1	2
667.235	1	7
667.574	1	24
667.913	1	7
668.251	1	4
668.590	1	11
668.929	1	7
669.268	1	-3
669.607	1	-5
669.946	1	0
670.285	1	8
670.623	1	22
670.962	1	0
671.301	1	-2
671.640	1	-6
671.979	1	-1
672.317	1	-1
672.656	1	6
672.995	1	6
673.334	1	-2
673.673	1	8
674.011	1	3
674.350	1	1
674.689	1	11
675.028	1	17
675.367	1	-11
675.705	1	10
676.044	1	3
676.383	1	3
676.722	1	2
677.060	1	12
677.399	1	-4
677.738	1	-7
678.077	1	6
678.416	1	5
678.754	1	4
679.093	1	9
679.432	1	6
679.771	1	2
680.109	1	5
680.448	1	11
680.787	1	9
681.125	1	7
681.464	1	-6
681.803	1	-4
682.142	1	-2
682.480	1	13
682.819	1	2
683.158	1	-2
683.496	1	0
683.835	1	-1
684.174	1	8
684.512	1	15
684.851	1	2
685.190	1	-1
685.529	1	-2
685.867	1	2
686.206	1	5
686.545	1	0
686.883	1	-4
687.222	1	8
687.561	1	5
687.899	1	16
688.238	1	14
688.577	1	5
688.746	1	12