File: Data/GaN_130K_350ms/GaN_sample F_spot6_UVVIS_130 K_200um_350 ms 2x2mm1_191.txt
340.368	1	6
340.710	1	11
341.052	1	-6
341.394	1	-7
341.737	1	1
342.079	1	6
342.421	1	2
342.763	1	6
343.105	1	-2
343.447	1	5
343.789	1	1
344.131	1	5
344.473	1	3
344.815	1	-3
345.157	1	-11
345.499	1	-2
345.841	1	-2
346.183	1	7
346.526	1	4
346.868	1	8
347.210	1	-3
347.552	1	5
347.894	1	1
348.236	1	5
348.578	1	6
348.920	1	-1
349.262	1	5
349.604	1	7
349.946	1	5
350.288	1	-3
350.630	1	4
350.972	1	4
351.314	1	-8
351.656	1	4
351.998	1	2
352.340	1	17
352.682	1	2
353.024	1	7
353.366	1	4
353.708	1	-2
354.050	1	12
354.392	1	9
354.734	1	-3
355.076	1	-5
355.418	1	4
355.760	1	1
356.102	1	0
356.444	1	-7
356.785	1	7
357.127	1	18
357.469	1	13
357.811	1	13
358.153	1	3
358.495	1	8
358.837	1	12
359.179	1	10
359.521	1	6
359.863	1	5
360.205	1	6
360.547	1	0
360.889	1	4
361.231	1	2
361.572	1	10
361.914	1	15
362.256	1	4
362.598	1	8
362.940	1	-2
363.282	1	15
363.624	1	14
363.966	1	13
364.308	1	20
364.649	1	14
364.991	1	14
365.333	1	9
365.675	1	18
366.017	1	8
366.359	1	22
366.701	1	19
367.042	1	27
367.384	1	28
367.726	1	17
368.068	1	9
368.410	1	11
368.752	1	22
369.093	1	11
369.435	1	12
369.777	1	26
370.119	1	19
370.461	1	17
370.803	1	10
371.144	1	12
371.486	1	12
371.828	1	10
372.170	1	20
372.512	1	14
372.853	1	5
373.195	1	13
373.537	1	25
373.879	1	19
374.220	1	7
374.562	1	5
374.904	1	14
375.246	1	13
375.588	1	17
375.929	1	11
376.271	1	9
376.613	1	-1
376.955	1	10
377.296	1	12
377.638	1	1
377.980	1	-1
378.321	1	11
378.663	1	20
379.005	1	18
379.347	1	11
379.688	1	4
380.030	1	2
380.372	1	10
380.714	1	18
381.055	1	12
381.397	1	1
381.739	1	17
382.080	1	7
382.422	1	6
382.764	1	-2
383.105	1	-1
383.447	1	6
383.789	1	16
384.130	1	12
384.472	1	11
384.814	1	9
385.156	1	5
385.497	1	-7
385.839	1	5
386.180	1	8
386.522	1	4
386.864	1	15
387.205	1	2
387.547	1	6
387.889	1	-3
388.230	1	-5
388.572	1	6
388.914	1	7
389.255	1	12
389.597	1	-14
389.939	1	10
390.280	1	14
390.622	1	20
390.963	1	10
391.305	1	0
391.647	1	10
391.988	1	7
392.330	1	7
392.671	1	1
393.013	1	9
393.355	1	8
393.696	1	-6
394.038	1	5
394.379	1	10
394.721	1	1
395.062	1	1
395.404	1	-7
395.746	1	14
396.087	1	4
396.429	1	9
396.770	1	10
397.112	1	8
397.453	1	1
397.795	1	-3
398.136	1	-2
398.478	1	6
398.819	1	-4
399.161	1	5
399.503	1	10
399.844	1	0
400.186	1	3
400.527	1	17
400.869	1	8
401.210	1	-4
401.552	1	15
401.893	1	-2
402.235	1	14
402.576	1	13
402.918	1	14
403.259	1	-3
403.601	1	3
403.942	1	3
404.284	1	-1
404.625	1	15
404.967	1	1
405.308	1	12
405.649	1	3
405.991	1	7
406.332	1	13
406.674	1	6
407.015	1	9
407.357	1	2
407.698	1	11
408.040	1	10
408.381	1	10
408.722	1	16
409.064	1	7
409.405	1	16
409.747	1	1
410.088	1	16
410.430	1	9
410.771	1	-12
411.112	1	11
411.454	1	3
411.795	1	11
412.137	1	0
412.478	1	6
412.819	1	6
413.161	1	7
413.502	1	19
413.844	1	2
414.185	1	7
414.526	1	7
414.868	1	6
415.209	1	3
415.550	1	3
415.892	1	13
416.233	1	20
416.575	1	1
416.916	1	5
417.257	1	-2
417.599	1	8
417.940	1	7
418.281	1	10
418.623	1	10
418.964	1	5
419.305	1	11
419.647	1	16
419.988	1	11
420.329	1	11
420.671	1	4
421.012	1	3
421.353	1	3
421.695	1	-1
422.036	1	5
422.377	1	14
422.718	1	4
423.060	1	12
423.401	1	19
423.742	1	14
424.084	1	8
424.425	1	-1
424.766	1	6
425.107	1	11
425.449	1	9
425.790	1	8
426.131	1	15
426.472	1	3
426.814	1	2
427.155	1	10
427.496	1	9
427.837	1	10
428.179	1	6
428.520	1	15
428.861	1	6
429.202	1	11
429.544	1	13
429.885	1	9
430.226	1	6
430.567	1	7
430.909	1	12
431.250	1	8
431.591	1	8
431.932	1	0
432.273	1	18
432.615	1	14
432.956	1	1
433.297	1	10
433.638	1	11
433.979	1	6
434.320	1	7
434.662	1	2
435.003	1	13
435.344	1	15
435.685	1	-4
436.026	1	7
436.368	1	3
436.709	1	-5
437.050	1	13
437.391	1	13
437.732	1	8
438.073	1	8
438.414	1	1
438.756	1	0
439.097	1	10
439.438	1	19
439.779	1	11
440.120	1	4
440.461	1	11
440.802	1	4
441.143	1	2
441.485	1	9
441.826	1	4
442.167	1	9
442.508	1	6
442.849	1	7
443.190	1	-6
443.531	1	15
443.872	1	12
444.213	1	5
444.554	1	12
444.895	1	6
445.237	1	0
445.578	1	-3
445.919	1	4
446.260	1	13
446.601	1	14
446.942	1	3
447.283	1	12
447.624	1	4
447.965	1	6
448.306	1	3
448.647	1	19
448.988	1	7
449.329	1	2
449.670	1	1
450.011	1	-10
450.352	1	20
450.693	1	-3
451.034	1	-4
451.375	1	2
451.716	1	-5
452.057	1	13
452.398	1	2
452.739	1	9
453.080	1	2
453.421	1	6
453.762	1	0
454.103	1	-4
454.444	1	10
454.785	1	14
455.126	1	-6
455.467	1	-3
455.808	1	1
456.149	1	-7
456.490	1	11
456.831	1	0
457.172	1	0
457.513	1	-1
457.854	1	7
458.195	1	-4
458.536	1	3
458.877	1	20
459.218	1	7
459.559	1	-3
459.899	1	4
460.240	1	8
460.581	1	12
460.922	1	9
461.263	1	18
461.604	1	-7
461.945	1	14
462.286	1	4
462.627	1	1
462.968	1	12
463.309	1	6
463.649	1	3
463.990	1	4
464.331	1	13
464.672	1	5
465.013	1	-3
465.354	1	3
465.695	1	10
466.036	1	5
466.376	1	2
466.717	1	8
467.058	1	3
467.399	1	6
467.740	1	20
468.081	1	5
468.422	1	10
468.762	1	1
469.103	1	8
469.444	1	4
469.785	1	12
470.126	1	-11
470.467	1	1
470.807	1	5
471.148	1	9
471.489	1	1
471.830	1	8
472.171	1	11
472.511	1	9
472.852	1	3
473.193	1	7
473.534	1	6
473.875	1	13
474.215	1	2
474.556	1	3
474.897	1	-8
475.238	1	14
475.578	1	-1
475.919	1	-6
476.260	1	8
476.601	1	3
476.942	1	18
477.282	1	3
477.623	1	-1
477.964	1	0
478.305	1	8
478.645	1	2
478.986	1	0
479.327	1	6
479.667	1	11
480.008	1	-4
480.349	1	0
480.690	1	-1
481.030	1	4
481.371	1	13
481.712	1	10
482.053	1	6
482.393	1	12
482.734	1	-5
483.075	1	11
483.415	1	-3
483.756	1	-3
484.097	1	6
484.437	1	-2
484.778	1	11
485.119	1	2
485.459	1	-10
485.800	1	11
486.141	1	4
486.481	1	1
486.822	1	2
487.163	1	-1
487.503	1	3
487.844	1	-11
488.185	1	1
488.525	1	11
488.866	1	11
489.207	1	6
489.547	1	6
489.888	1	11
490.228	1	8
490.569	1	-5
490.910	1	2
491.250	1	2
491.591	1	-2
491.932	1	8
492.272	1	2
492.613	1	-3
492.953	1	4
493.294	1	6
493.635	1	7
493.975	1	15
494.316	1	7
494.656	1	-1
494.997	1	0
495.337	1	4
495.678	1	5
496.019	1	-1
496.359	1	8
496.700	1	6
497.040	1	12
497.381	1	11
497.721	1	-1
498.062	1	1
498.403	1	7
498.743	1	10
499.084	1	13
499.424	1	-6
499.765	1	-1
500.105	1	-1
500.446	1	2
500.786	1	12
501.127	1	6
501.467	1	5
501.808	1	2
502.148	1	3
502.489	1	7
502.829	1	-2
503.170	1	3
503.510	1	3
503.851	1	-3
504.191	1	0
504.532	1	6
504.872	1	4
505.213	1	9
505.553	1	4
505.894	1	4
506.234	1	-1
506.575	1	5
506.915	1	6
507.256	1	10
507.596	1	12
507.936	1	-8
508.277	1	3
508.617	1	3
508.958	1	14
509.298	1	2
509.639	1	11
509.979	1	4
510.319	1	15
510.660	1	7
511.000	1	14
511.341	1	3
511.681	1	1
512.022	1	16
512.362	1	7
512.702	1	7
513.043	1	1
513.383	1	5
513.724	1	8
514.064	1	5
514.404	1	10
514.745	1	4
515.085	1	9
515.425	1	5
515.766	1	11
516.106	1	-2
516.447	1	0
516.787	1	3
517.127	1	2
517.468	1	3
517.808	1	6
518.148	1	6
518.489	1	12
518.829	1	7
519.169	1	19
519.510	1	0
519.850	1	16
520.190	1	9
520.531	1	11
520.871	1	-1
521.211	1	10
521.552	1	14
521.892	1	6
522.232	1	-2
522.573	1	5
522.913	1	15
523.253	1	10
523.593	1	6
523.934	1	1
524.274	1	-8
524.614	1	12
524.955	1	13
525.295	1	6
525.635	1	11
525.975	1	9
526.316	1	1
526.656	1	12
526.996	1	9
527.337	1	15
527.677	1	11
528.017	1	4
528.357	1	14
528.698	1	2
529.038	1	2
529.378	1	-1
529.718	1	9
530.058	1	3
530.399	1	-3
530.739	1	9
531.079	1	10
531.419	1	11
531.760	1	0
532.100	1	11
532.440	1	11
532.780	1	4
533.120	1	18
533.461	1	10
533.801	1	14
534.141	1	5
534.481	1	8
534.821	1	18
535.162	1	5
535.502	1	20
535.842	1	6
536.182	1	15
536.522	1	1
536.862	1	-1
537.203	1	-1
537.543	1	9
537.883	1	2
538.223	1	22
538.563	1	12
538.903	1	21
539.243	1	8
539.584	1	8
539.924	1	9
540.264	1	-3
540.604	1	26
540.944	1	6
541.284	1	11
541.624	1	16
541.964	1	8
542.305	1	4
542.645	1	8
542.985	1	15
543.325	1	4
543.665	1	4
544.005	1	7
544.345	1	-1
544.685	1	15
545.025	1	9
545.365	1	19
545.705	1	7
546.045	1	8
546.386	1	6
546.726	1	4
547.066	1	9
547.406	1	-8
547.746	1	5
548.086	1	-4
548.426	1	8
548.766	1	6
549.106	1	0
549.446	1	5
549.786	1	8
550.126	1	17
550.466	1	0
550.806	1	14
551.146	1	1
551.486	1	0
551.826	1	10
552.166	1	8
552.506	1	-2
552.846	1	0
553.186	1	0
553.526	1	14
553.866	1	-4
554.206	1	12
554.546	1	8
554.886	1	-2
555.226	1	3
555.566	1	9
555.906	1	12
556.246	1	1
556.586	1	4
556.926	1	4
557.266	1	6
557.606	1	-4
557.946	1	8
558.286	1	8
558.626	1	-3
558.966	1	-5
559.306	1	4
559.646	1	3
559.986	1	6
560.325	1	1
560.665	1	10
561.005	1	10
561.345	1	11
561.685	1	8
562.025	1	6
562.365	1	5
562.705	1	8
563.045	1	-7
563.385	1	9
563.725	1	0
564.064	1	14
564.404	1	16
564.744	1	3
565.084	1	3
565.424	1	-8
565.764	1	12
566.104	1	7
566.444	1	14
566.783	1	11
567.123	1	11
567.463	1	1
567.803	1	10
568.143	1	10
568.483	1	5
568.823	1	2
569.162	1	7
569.502	1	4
569.842	1	0
570.182	1	0
570.522	1	-9
570.862	1	19
571.201	1	9
571.541	1	4
571.881	1	-8
572.221	1	6
572.561	1	6
572.900	1	9
573.240	1	4
573.580	1	-1
573.920	1	12
574.260	1	8
574.599	1	12
574.939	1	11
575.279	1	1
575.619	1	9
575.959	1	8
576.298	1	6
576.638	1	0
576.978	1	-9
577.318	1	5
577.657	1	14
577.997	1	11
578.337	1	-4
578.677	1	6
579.016	1	-1
579.356	1	9
579.696	1	-3
580.036	1	-1
580.375	1	5
580.715	1	5
581.055	1	10
581.394	1	2
581.734	1	11
582.074	1	3
582.414	1	3
582.753	1	8
583.093	1	4
583.433	1	11
583.772	1	-5
584.112	1	10
584.452	1	12
584.791	1	12
585.131	1	6
585.471	1	8
585.811	1	2
586.150	1	16
586.490	1	-1
586.830	1	-2
587.169	1	8
587.509	1	8
587.849	1	12
588.188	1	19
588.528	1	11
588.867	1	2
589.207	1	-6
589.547	1	0
589.886	1	1
590.226	1	-2
590.566	1	3
590.905	1	18
591.245	1	7
591.585	1	-7
591.924	1	-5
592.264	1	5
592.603	1	-3
592.943	1	-6
593.283	1	-11
593.622	1	10
593.962	1	17
594.301	1	-6
594.641	1	4
594.981	1	-11
595.320	1	-2
595.660	1	6
595.999	1	9
596.339	1	15
596.678	1	-10
597.018	1	2
597.358	1	2
597.697	1	-4
598.037	1	8
598.376	1	0
598.716	1	5
599.055	1	-1
599.395	1	-6
599.734	1	5
600.074	1	2
600.413	1	18
600.753	1	5
601.092	1	2
601.432	1	-1
601.771	1	12
602.111	1	6
602.451	1	3
602.790	1	1
603.130	1	17
603.469	1	2
603.809	1	11
604.148	1	11
604.487	1	17
604.827	1	-2
605.166	1	8
605.506	1	2
605.845	1	-5
606.185	1	3
606.524	1	0
606.864	1	11
607.203	1	6
607.543	1	7
607.882	1	9
608.222	1	-5
608.561	1	7
608.901	1	13
609.240	1	-2
609.579	1	14
609.919	1	10
610.258	1	-3
610.598	1	3
610.937	1	4
611.277	1	7
611.616	1	-4
611.955	1	2
612.295	1	12
612.634	1	1
612.974	1	8
613.313	1	3
613.652	1	-12
613.992	1	1
614.331	1	6
614.671	1	-2
615.010	1	-10
615.349	1	9
615.689	1	3
616.028	1	9
616.368	1	2
616.707	1	14
617.046	1	0
617.386	1	4
617.725	1	1
618.064	1	2
618.404	1	-2
618.743	1	4
619.082	1	-1
619.422	1	-4
619.761	1	11
620.100	1	2
620.440	1	9
620.779	1	6
621.118	1	8
621.458	1	5
621.797	1	3
622.136	1	11
622.476	1	9
622.815	1	-1
623.154	1	-4
623.494	1	-1
623.833	1	13
624.172	1	9
624.511	1	13
624.851	1	1
625.190	1	-5
625.529	1	6
625.869	1	7
626.208	1	2
626.547	1	1
626.886	1	2
627.226	1	11
627.565	1	1
627.904	1	9
628.243	1	8
628.583	1	-4
628.922	1	-8
629.261	1	-10
629.600	1	1
629.940	1	5
630.279	1	14
630.618	1	4
630.957	1	3
631.297	1	9
631.636	1	4
631.975	1	4
632.314	1	6
632.653	1	11
632.993	1	12
633.332	1	-4
633.671	1	1
634.010	1	4
634.349	1	4
634.689	1	5
635.028	1	5
635.367	1	4
635.706	1	2
636.045	1	17
636.384	1	-4
636.724	1	6
637.063	1	8
637.402	1	0
637.741	1	19
638.080	1	14
638.419	1	8
638.759	1	1
639.098	1	2
639.437	1	8
639.776	1	14
640.115	1	0
640.454	1	7
640.793	1	-8
641.132	1	13
641.472	1	4
641.811	1	-1
642.150	1	-10
642.489	1	-2
642.828	1	-2
643.167	1	-2
643.506	1	12
643.845	1	-3
644.184	1	-5
644.524	1	-4
644.863	1	10
645.202	1	10
645.541	1	-5
645.880	1	11
646.219	1	-3
646.558	1	-6
646.897	1	0
647.236	1	-1
647.575	1	-6
647.914	1	-1
648.253	1	-2
648.592	1	2
648.931	1	-5
649.270	1	-7
649.610	1	2
649.949	1	-5
650.288	1	2
650.627	1	0
650.966	1	3
651.305	1	8
651.644	1	0
651.983	1	-5
652.322	1	-2
652.661	1	-6
653.000	1	8
653.339	1	5
653.678	1	0
654.017	1	-1
654.356	1	3
654.695	1	-6
655.034	1	4
655.373	1	-2
655.712	1	-1
656.051	1	-4
656.390	1	2
656.729	1	1
657.068	1	-1
657.406	1	14
657.745	1	3
658.084	1	-6
658.423	1	7
658.762	1	14
659.101	1	9
659.440	1	-11
659.779	1	5
660.118	1	-3
660.457	1	2
660.796	1	4
661.135	1	11
661.474	1	6
661.813	1	-5
662.152	1	1
662.491	1	14
662.829	1	14
663.168	1	-3
663.507	1	0
663.846	1	1
664.185	1	-5
664.524	1	0
664.863	1	-4
665.202	1	0
665.541	1	-5
665.879	1	11
666.218	1	6
666.557	1	8
666.896	1	6
667.235	1	9
667.574	1	20
667.913	1	15
668.251	1	7
668.590	1	3
668.929	1	0
669.268	1	-1
669.607	1	-2
669.946	1	6
670.285	1	0
670.623	1	19
670.962	1	2
671.301	1	4
671.640	1	-8
671.979	1	1
672.317	1	-3
672.656	1	0
672.995	1	-4
673.334	1	-2
673.673	1	5
674.011	1	2
674.350	1	-1
674.689	1	7
675.028	1	15
675.367	1	5
675.705	1	17
676.044	1	3
676.383	1	8
676.722	1	-4
677.060	1	8
677.399	1	12
677.738	1	-4
678.077	1	8
678.416	1	2
678.754	1	3
679.093	1	-2
679.432	1	7
679.771	1	2
680.109	1	5
680.448	1	2
680.787	1	3
681.125	1	22
681.464	1	-7
681.803	1	-2
682.142	1	1
682.480	1	7
682.819	1	7
683.158	1	8
683.496	1	-2
683.835	1	-7
684.174	1	11
684.512	1	12
684.851	1	1
685.190	1	1
685.529	1	-7
685.867	1	-4
686.206	1	5
686.545	1	6
686.883	1	4
687.222	1	-5
687.561	1	11
687.899	1	7
688.238	1	6
688.577	1	-1
688.746	1	6