File: Data/GaN_130K_350ms/GaN_sample F_spot6_UVVIS_130 K_200um_350 ms 2x2mm1_147.txt
340.368	1	7
340.710	1	7
341.052	1	-4
341.394	1	0
341.737	1	17
342.079	1	2
342.421	1	16
342.763	1	5
343.105	1	-2
343.447	1	10
343.789	1	3
344.131	1	1
344.473	1	-1
344.815	1	-5
345.157	1	-5
345.499	1	-3
345.841	1	3
346.183	1	10
346.526	1	-2
346.868	1	8
347.210	1	3
347.552	1	-2
347.894	1	-4
348.236	1	14
348.578	1	-4
348.920	1	15
349.262	1	9
349.604	1	-2
349.946	1	1
350.288	1	-12
350.630	1	10
350.972	1	11
351.314	1	-1
351.656	1	12
351.998	1	-2
352.340	1	13
352.682	1	2
353.024	1	2
353.366	1	16
353.708	1	2
354.050	1	7
354.392	1	3
354.734	1	-5
355.076	1	8
355.418	1	12
355.760	1	11
356.102	1	4
356.444	1	-4
356.785	1	7
357.127	1	16
357.469	1	-2
357.811	1	10
358.153	1	4
358.495	1	19
358.837	1	11
359.179	1	6
359.521	1	2
359.863	1	13
360.205	1	0
360.547	1	8
360.889	1	14
361.231	1	2
361.572	1	16
361.914	1	16
362.256	1	11
362.598	1	13
362.940	1	12
363.282	1	26
363.624	1	16
363.966	1	33
364.308	1	34
364.649	1	24
364.991	1	28
365.333	1	27
365.675	1	23
366.017	1	41
366.359	1	36
366.701	1	39
367.042	1	46
367.384	1	59
367.726	1	44
368.068	1	38
368.410	1	43
368.752	1	48
369.093	1	37
369.435	1	29
369.777	1	40
370.119	1	48
370.461	1	36
370.803	1	33
371.144	1	32
371.486	1	31
371.828	1	18
372.170	1	32
372.512	1	36
372.853	1	24
373.195	1	23
373.537	1	18
373.879	1	28
374.220	1	13
374.562	1	12
374.904	1	26
375.246	1	26
375.588	1	24
375.929	1	12
376.271	1	17
376.613	1	10
376.955	1	20
377.296	1	11
377.638	1	0
377.980	1	10
378.321	1	10
378.663	1	22
379.005	1	32
379.347	1	13
379.688	1	8
380.030	1	10
380.372	1	20
380.714	1	20
381.055	1	14
381.397	1	12
381.739	1	15
382.080	1	9
382.422	1	16
382.764	1	4
383.105	1	5
383.447	1	15
383.789	1	16
384.130	1	13
384.472	1	1
384.814	1	16
385.156	1	4
385.497	1	12
385.839	1	12
386.180	1	11
386.522	1	4
386.864	1	13
387.205	1	12
387.547	1	14
387.889	1	-1
388.230	1	9
388.572	1	21
388.914	1	7
389.255	1	8
389.597	1	1
389.939	1	17
390.280	1	11
390.622	1	20
390.963	1	11
391.305	1	6
391.647	1	4
391.988	1	7
392.330	1	3
392.671	1	-3
393.013	1	14
393.355	1	11
393.696	1	8
394.038	1	13
394.379	1	10
394.721	1	8
395.062	1	7
395.404	1	1
395.746	1	14
396.087	1	13
396.429	1	16
396.770	1	17
397.112	1	12
397.453	1	6
397.795	1	6
398.136	1	-5
398.478	1	12
398.819	1	-10
399.161	1	14
399.503	1	14
399.844	1	6
400.186	1	6
400.527	1	10
400.869	1	10
401.210	1	6
401.552	1	19
401.893	1	-6
402.235	1	6
402.576	1	10
402.918	1	13
403.259	1	2
403.601	1	11
403.942	1	0
404.284	1	9
404.625	1	12
404.967	1	0
405.308	1	-4
405.649	1	8
405.991	1	15
406.332	1	13
406.674	1	18
407.015	1	1
407.357	1	13
407.698	1	0
408.040	1	13
408.381	1	14
408.722	1	13
409.064	1	15
409.405	1	8
409.747	1	4
410.088	1	15
410.430	1	14
410.771	1	-2
411.112	1	14
411.454	1	10
411.795	1	3
412.137	1	1
412.478	1	2
412.819	1	5
413.161	1	19
413.502	1	14
413.844	1	13
414.185	1	7
414.526	1	5
414.868	1	8
415.209	1	1
415.550	1	7
415.892	1	15
416.233	1	16
416.575	1	20
416.916	1	7
417.257	1	14
417.599	1	7
417.940	1	12
418.281	1	15
418.623	1	6
418.964	1	10
419.305	1	1
419.647	1	12
419.988	1	21
420.329	1	13
420.671	1	4
421.012	1	10
421.353	1	-4
421.695	1	-2
422.036	1	0
422.377	1	15
422.718	1	9
423.060	1	15
423.401	1	12
423.742	1	10
424.084	1	9
424.425	1	18
424.766	1	-2
425.107	1	3
425.449	1	10
425.790	1	11
426.131	1	21
426.472	1	8
426.814	1	7
427.155	1	6
427.496	1	5
427.837	1	6
428.179	1	5
428.520	1	4
428.861	1	7
429.202	1	14
429.544	1	16
429.885	1	6
430.226	1	0
430.567	1	7
430.909	1	7
431.250	1	8
431.591	1	3
431.932	1	7
432.273	1	6
432.615	1	19
432.956	1	2
433.297	1	14
433.638	1	3
433.979	1	8
434.320	1	20
434.662	1	-2
435.003	1	19
435.344	1	13
435.685	1	-6
436.026	1	12
436.368	1	6
436.709	1	2
437.050	1	10
437.391	1	13
437.732	1	14
438.073	1	19
438.414	1	4
438.756	1	8
439.097	1	1
439.438	1	5
439.779	1	12
440.120	1	9
440.461	1	22
440.802	1	8
441.143	1	-4
441.485	1	4
441.826	1	9
442.167	1	4
442.508	1	4
442.849	1	2
443.190	1	7
443.531	1	6
443.872	1	11
444.213	1	16
444.554	1	15
444.895	1	12
445.237	1	9
445.578	1	-2
445.919	1	-3
446.260	1	8
446.601	1	4
446.942	1	6
447.283	1	9
447.624	1	9
447.965	1	2
448.306	1	12
448.647	1	13
448.988	1	2
449.329	1	-4
449.670	1	9
450.011	1	0
450.352	1	10
450.693	1	4
451.034	1	-8
451.375	1	11
451.716	1	5
452.057	1	19
452.398	1	-1
452.739	1	7
453.080	1	-1
453.421	1	10
453.762	1	7
454.103	1	11
454.444	1	5
454.785	1	12
455.126	1	2
455.467	1	1
455.808	1	11
456.149	1	3
456.490	1	12
456.831	1	7
457.172	1	1
457.513	1	3
457.854	1	7
458.195	1	-5
458.536	1	10
458.877	1	21
459.218	1	9
459.559	1	-1
459.899	1	-5
460.240	1	12
460.581	1	7
460.922	1	10
461.263	1	5
461.604	1	-11
461.945	1	0
462.286	1	6
462.627	1	2
462.968	1	1
463.309	1	7
463.649	1	5
463.990	1	-2
464.331	1	6
464.672	1	6
465.013	1	-4
465.354	1	3
465.695	1	9
466.036	1	5
466.376	1	9
466.717	1	9
467.058	1	7
467.399	1	2
467.740	1	15
468.081	1	8
468.422	1	11
468.762	1	-2
469.103	1	4
469.444	1	7
469.785	1	13
470.126	1	-5
470.467	1	8
470.807	1	-3
471.148	1	7
471.489	1	-4
471.830	1	0
472.171	1	3
472.511	1	2
472.852	1	11
473.193	1	11
473.534	1	7
473.875	1	16
474.215	1	2
474.556	1	5
474.897	1	-3
475.238	1	14
475.578	1	3
475.919	1	-3
476.260	1	7
476.601	1	-1
476.942	1	12
477.282	1	15
477.623	1	-4
477.964	1	3
478.305	1	16
478.645	1	4
478.986	1	0
479.327	1	4
479.667	1	-1
480.008	1	6
480.349	1	-1
480.690	1	2
481.030	1	2
481.371	1	13
481.712	1	6
482.053	1	-1
482.393	1	6
482.734	1	3
483.075	1	17
483.415	1	3
483.756	1	1
484.097	1	-6
484.437	1	11
484.778	1	10
485.119	1	8
485.459	1	-4
485.800	1	-1
486.141	1	5
486.481	1	-3
486.822	1	13
487.163	1	6
487.503	1	3
487.844	1	4
488.185	1	1
488.525	1	1
488.866	1	9
489.207	1	6
489.547	1	4
489.888	1	13
490.228	1	4
490.569	1	12
490.910	1	1
491.250	1	8
491.591	1	0
491.932	1	5
492.272	1	10
492.613	1	8
492.953	1	3
493.294	1	12
493.635	1	17
493.975	1	14
494.316	1	13
494.656	1	3
494.997	1	11
495.337	1	4
495.678	1	0
496.019	1	9
496.359	1	14
496.700	1	6
497.040	1	7
497.381	1	2
497.721	1	9
498.062	1	-1
498.403	1	-1
498.743	1	17
499.084	1	18
499.424	1	-5
499.765	1	8
500.105	1	9
500.446	1	6
500.786	1	13
501.127	1	7
501.467	1	4
501.808	1	12
502.148	1	7
502.489	1	13
502.829	1	4
503.170	1	7
503.510	1	9
503.851	1	12
504.191	1	14
504.532	1	13
504.872	1	7
505.213	1	12
505.553	1	8
505.894	1	10
506.234	1	5
506.575	1	2
506.915	1	1
507.256	1	18
507.596	1	7
507.936	1	4
508.277	1	12
508.617	1	8
508.958	1	23
509.298	1	7
509.639	1	2
509.979	1	9
510.319	1	24
510.660	1	12
511.000	1	18
511.341	1	7
511.681	1	14
512.022	1	14
512.362	1	7
512.702	1	22
513.043	1	13
513.383	1	14
513.724	1	10
514.064	1	6
514.404	1	29
514.745	1	16
515.085	1	16
515.425	1	14
515.766	1	10
516.106	1	11
516.447	1	9
516.787	1	8
517.127	1	19
517.468	1	17
517.808	1	14
518.148	1	17
518.489	1	9
518.829	1	21
519.169	1	23
519.510	1	14
519.850	1	18
520.190	1	17
520.531	1	29
520.871	1	13
521.211	1	22
521.552	1	9
521.892	1	13
522.232	1	9
522.573	1	23
522.913	1	14
523.253	1	14
523.593	1	14
523.934	1	7
524.274	1	7
524.614	1	21
524.955	1	16
525.295	1	16
525.635	1	9
525.975	1	15
526.316	1	9
526.656	1	13
526.996	1	13
527.337	1	28
527.677	1	12
528.017	1	18
528.357	1	10
528.698	1	6
529.038	1	10
529.378	1	24
529.718	1	20
530.058	1	19
530.399	1	12
530.739	1	18
531.079	1	15
531.419	1	15
531.760	1	4
532.100	1	18
532.440	1	20
532.780	1	12
533.120	1	25
533.461	1	12
533.801	1	27
534.141	1	15
534.481	1	10
534.821	1	15
535.162	1	21
535.502	1	17
535.842	1	13
536.182	1	18
536.522	1	10
536.862	1	14
537.203	1	6
537.543	1	15
537.883	1	4
538.223	1	11
538.563	1	13
538.903	1	21
539.243	1	21
539.584	1	17
539.924	1	14
540.264	1	7
540.604	1	21
540.944	1	20
541.284	1	24
541.624	1	15
541.964	1	9
542.305	1	14
542.645	1	13
542.985	1	10
543.325	1	17
543.665	1	9
544.005	1	16
544.345	1	19
544.685	1	24
545.025	1	7
545.365	1	17
545.705	1	11
546.045	1	15
546.386	1	11
546.726	1	10
547.066	1	13
547.406	1	4
547.746	1	16
548.086	1	6
548.426	1	8
548.766	1	14
549.106	1	7
549.446	1	6
549.786	1	12
550.126	1	20
550.466	1	13
550.806	1	16
551.146	1	11
551.486	1	13
551.826	1	12
552.166	1	9
552.506	1	10
552.846	1	1
553.186	1	13
553.526	1	12
553.866	1	8
554.206	1	8
554.546	1	11
554.886	1	5
555.226	1	20
555.566	1	13
555.906	1	9
556.246	1	12
556.586	1	11
556.926	1	8
557.266	1	5
557.606	1	5
557.946	1	20
558.286	1	17
558.626	1	-8
558.966	1	7
559.306	1	4
559.646	1	13
559.986	1	15
560.325	1	1
560.665	1	14
561.005	1	14
561.345	1	21
561.685	1	9
562.025	1	8
562.365	1	19
562.705	1	5
563.045	1	1
563.385	1	15
563.725	1	7
564.064	1	15
564.404	1	1
564.744	1	10
565.084	1	14
565.424	1	2
565.764	1	9
566.104	1	14
566.444	1	17
566.783	1	7
567.123	1	10
567.463	1	6
567.803	1	11
568.143	1	17
568.483	1	7
568.823	1	-1
569.162	1	17
569.502	1	5
569.842	1	16
570.182	1	13
570.522	1	-15
570.862	1	20
571.201	1	17
571.541	1	3
571.881	1	12
572.221	1	19
572.561	1	13
572.900	1	7
573.240	1	4
573.580	1	8
573.920	1	20
574.260	1	15
574.599	1	13
574.939	1	11
575.279	1	5
575.619	1	11
575.959	1	14
576.298	1	8
576.638	1	3
576.978	1	-1
577.318	1	16
577.657	1	19
577.997	1	10
578.337	1	2
578.677	1	17
579.016	1	-1
579.356	1	13
579.696	1	-6
580.036	1	8
580.375	1	4
580.715	1	9
581.055	1	0
581.394	1	4
581.734	1	5
582.074	1	2
582.414	1	-3
582.753	1	7
583.093	1	4
583.433	1	13
583.772	1	5
584.112	1	6
584.452	1	9
584.791	1	11
585.131	1	10
585.471	1	4
585.811	1	7
586.150	1	7
586.490	1	1
586.830	1	-1
587.169	1	4
587.509	1	0
587.849	1	4
588.188	1	15
588.528	1	18
588.867	1	5
589.207	1	-2
589.547	1	3
589.886	1	10
590.226	1	13
590.566	1	11
590.905	1	12
591.245	1	-3
591.585	1	8
591.924	1	1
592.264	1	9
592.603	1	2
592.943	1	2
593.283	1	-1
593.622	1	4
593.962	1	8
594.301	1	0
594.641	1	9
594.981	1	-16
595.320	1	7
595.660	1	6
595.999	1	7
596.339	1	16
596.678	1	-2
597.018	1	7
597.358	1	14
597.697	1	4
598.037	1	4
598.376	1	4
598.716	1	3
599.055	1	2
599.395	1	1
599.734	1	5
600.074	1	9
600.413	1	15
600.753	1	13
601.092	1	5
601.432	1	-4
601.771	1	6
602.111	1	10
602.451	1	7
602.790	1	7
603.130	1	7
603.469	1	11
603.809	1	6
604.148	1	13
604.487	1	10
604.827	1	2
605.166	1	17
605.506	1	5
605.845	1	-13
606.185	1	11
606.524	1	1
606.864	1	14
607.203	1	0
607.543	1	3
607.882	1	8
608.222	1	1
608.561	1	3
608.901	1	9
609.240	1	2
609.579	1	2
609.919	1	9
610.258	1	-2
610.598	1	4
610.937	1	7
611.277	1	13
611.616	1	-3
611.955	1	7
612.295	1	5
612.634	1	4
612.974	1	-1
613.313	1	-1
613.652	1	-9
613.992	1	4
614.331	1	11
614.671	1	12
615.010	1	-1
615.349	1	1
615.689	1	8
616.028	1	9
616.368	1	6
616.707	1	13
617.046	1	0
617.386	1	-1
617.725	1	7
618.064	1	-2
618.404	1	2
618.743	1	1
619.082	1	0
619.422	1	4
619.761	1	6
620.100	1	8
620.440	1	9
620.779	1	3
621.118	1	2
621.458	1	7
621.797	1	3
622.136	1	4
622.476	1	15
622.815	1	4
623.154	1	-3
623.494	1	11
623.833	1	6
624.172	1	7
624.511	1	1
624.851	1	-3
625.190	1	2
625.529	1	4
625.869	1	5
626.208	1	7
626.547	1	-2
626.886	1	-2
627.226	1	5
627.565	1	1
627.904	1	15
628.243	1	6
628.583	1	-10
628.922	1	-7
629.261	1	-10
629.600	1	7
629.940	1	10
630.279	1	10
630.618	1	3
630.957	1	1
631.297	1	2
631.636	1	9
631.975	1	7
632.314	1	-2
632.653	1	4
632.993	1	5
633.332	1	3
633.671	1	-1
634.010	1	0
634.349	1	-5
634.689	1	13
635.028	1	4
635.367	1	6
635.706	1	-3
636.045	1	14
636.384	1	3
636.724	1	6
637.063	1	2
637.402	1	4
637.741	1	7
638.080	1	13
638.419	1	8
638.759	1	-1
639.098	1	-1
639.437	1	12
639.776	1	5
640.115	1	9
640.454	1	4
640.793	1	-4
641.132	1	10
641.472	1	4
641.811	1	1
642.150	1	-4
642.489	1	-7
642.828	1	-3
643.167	1	3
643.506	1	11
643.845	1	-2
644.184	1	-6
644.524	1	-10
644.863	1	9
645.202	1	13
645.541	1	5
645.880	1	1
646.219	1	3
646.558	1	1
646.897	1	6
647.236	1	-1
647.575	1	2
647.914	1	-6
648.253	1	1
648.592	1	-2
648.931	1	1
649.270	1	-1
649.610	1	7
649.949	1	4
650.288	1	2
650.627	1	11
650.966	1	6
651.305	1	-6
651.644	1	3
651.983	1	-7
652.322	1	-4
652.661	1	-4
653.000	1	10
653.339	1	3
653.678	1	0
654.017	1	-3
654.356	1	2
654.695	1	-3
655.034	1	4
655.373	1	0
655.712	1	-6
656.051	1	6
656.390	1	2
656.729	1	5
657.068	1	3
657.406	1	5
657.745	1	-4
658.084	1	2
658.423	1	7
658.762	1	22
659.101	1	8
659.440	1	-3
659.779	1	7
660.118	1	2
660.457	1	-8
660.796	1	8
661.135	1	6
661.474	1	12
661.813	1	-1
662.152	1	2
662.491	1	15
662.829	1	8
663.168	1	5
663.507	1	8
663.846	1	-5
664.185	1	0
664.524	1	1
664.863	1	0
665.202	1	8
665.541	1	-4
665.879	1	1
666.218	1	0
666.557	1	-1
666.896	1	3
667.235	1	11
667.574	1	7
667.913	1	8
668.251	1	-2
668.590	1	6
668.929	1	7
669.268	1	-4
669.607	1	-4
669.946	1	13
670.285	1	8
670.623	1	17
670.962	1	6
671.301	1	-3
671.640	1	5
671.979	1	6
672.317	1	-2
672.656	1	2
672.995	1	1
673.334	1	-5
673.673	1	14
674.011	1	6
674.350	1	7
674.689	1	7
675.028	1	18
675.367	1	-5
675.705	1	16
676.044	1	-2
676.383	1	4
676.722	1	-2
677.060	1	11
677.399	1	2
677.738	1	-1
678.077	1	0
678.416	1	12
678.754	1	2
679.093	1	5
679.432	1	0
679.771	1	4
680.109	1	2
680.448	1	8
680.787	1	3
681.125	1	8
681.464	1	4
681.803	1	2
682.142	1	-6
682.480	1	7
682.819	1	4
683.158	1	8
683.496	1	2
683.835	1	0
684.174	1	8
684.512	1	8
684.851	1	-2
685.190	1	4
685.529	1	1
685.867	1	6
686.206	1	6
686.545	1	8
686.883	1	4
687.222	1	4
687.561	1	9
687.899	1	0
688.238	1	19
688.577	1	-6
688.746	1	7