File: Data/GaN_130K_350ms/GaN_sample F_spot6_UVVIS_130 K_200um_350 ms 2x2mm1_141.txt
340.368	1	8
340.710	1	10
341.052	1	-7
341.394	1	0
341.737	1	5
342.079	1	2
342.421	1	8
342.763	1	3
343.105	1	2
343.447	1	12
343.789	1	14
344.131	1	6
344.473	1	3
344.815	1	-10
345.157	1	-5
345.499	1	-2
345.841	1	3
346.183	1	9
346.526	1	4
346.868	1	9
347.210	1	0
347.552	1	0
347.894	1	-2
348.236	1	-2
348.578	1	8
348.920	1	9
349.262	1	7
349.604	1	5
349.946	1	3
350.288	1	-2
350.630	1	10
350.972	1	8
351.314	1	-2
351.656	1	13
351.998	1	2
352.340	1	15
352.682	1	3
353.024	1	-1
353.366	1	9
353.708	1	0
354.050	1	2
354.392	1	2
354.734	1	-1
355.076	1	6
355.418	1	5
355.760	1	9
356.102	1	13
356.444	1	-2
356.785	1	9
357.127	1	4
357.469	1	5
357.811	1	9
358.153	1	6
358.495	1	14
358.837	1	12
359.179	1	1
359.521	1	5
359.863	1	10
360.205	1	7
360.547	1	8
360.889	1	0
361.231	1	3
361.572	1	20
361.914	1	16
362.256	1	11
362.598	1	20
362.940	1	16
363.282	1	32
363.624	1	30
363.966	1	41
364.308	1	41
364.649	1	33
364.991	1	22
365.333	1	35
365.675	1	34
366.017	1	48
366.359	1	45
366.701	1	42
367.042	1	41
367.384	1	42
367.726	1	41
368.068	1	37
368.410	1	42
368.752	1	54
369.093	1	43
369.435	1	33
369.777	1	41
370.119	1	41
370.461	1	46
370.803	1	28
371.144	1	40
371.486	1	35
371.828	1	44
372.170	1	27
372.512	1	33
372.853	1	18
373.195	1	23
373.537	1	19
373.879	1	37
374.220	1	22
374.562	1	15
374.904	1	31
375.246	1	26
375.588	1	22
375.929	1	6
376.271	1	20
376.613	1	18
376.955	1	20
377.296	1	16
377.638	1	14
377.980	1	8
378.321	1	12
378.663	1	25
379.005	1	30
379.347	1	17
379.688	1	11
380.030	1	6
380.372	1	24
380.714	1	22
381.055	1	14
381.397	1	6
381.739	1	5
382.080	1	14
382.422	1	22
382.764	1	12
383.105	1	12
383.447	1	11
383.789	1	12
384.130	1	14
384.472	1	19
384.814	1	6
385.156	1	12
385.497	1	9
385.839	1	9
386.180	1	15
386.522	1	12
386.864	1	7
387.205	1	15
387.547	1	10
387.889	1	5
388.230	1	3
388.572	1	10
388.914	1	12
389.255	1	15
389.597	1	-8
389.939	1	15
390.280	1	18
390.622	1	11
390.963	1	13
391.305	1	18
391.647	1	12
391.988	1	23
392.330	1	6
392.671	1	1
393.013	1	18
393.355	1	9
393.696	1	4
394.038	1	13
394.379	1	13
394.721	1	17
395.062	1	10
395.404	1	-6
395.746	1	13
396.087	1	19
396.429	1	11
396.770	1	14
397.112	1	8
397.453	1	16
397.795	1	4
398.136	1	12
398.478	1	13
398.819	1	-1
399.161	1	5
399.503	1	14
399.844	1	1
400.186	1	8
400.527	1	16
400.869	1	16
401.210	1	9
401.552	1	5
401.893	1	-3
402.235	1	15
402.576	1	10
402.918	1	15
403.259	1	0
403.601	1	22
403.942	1	6
404.284	1	5
404.625	1	18
404.967	1	6
405.308	1	8
405.649	1	9
405.991	1	15
406.332	1	5
406.674	1	14
407.015	1	9
407.357	1	15
407.698	1	7
408.040	1	15
408.381	1	16
408.722	1	12
409.064	1	16
409.405	1	13
409.747	1	8
410.088	1	7
410.430	1	17
410.771	1	-4
411.112	1	8
411.454	1	13
411.795	1	7
412.137	1	7
412.478	1	3
412.819	1	4
413.161	1	19
413.502	1	2
413.844	1	9
414.185	1	17
414.526	1	9
414.868	1	8
415.209	1	6
415.550	1	10
415.892	1	7
416.233	1	14
416.575	1	12
416.916	1	4
417.257	1	9
417.599	1	21
417.940	1	9
418.281	1	8
418.623	1	17
418.964	1	17
419.305	1	3
419.647	1	9
419.988	1	17
420.329	1	7
420.671	1	2
421.012	1	1
421.353	1	2
421.695	1	10
422.036	1	10
422.377	1	21
422.718	1	-1
423.060	1	9
423.401	1	12
423.742	1	13
424.084	1	14
424.425	1	7
424.766	1	3
425.107	1	9
425.449	1	13
425.790	1	17
426.131	1	14
426.472	1	6
426.814	1	4
427.155	1	8
427.496	1	11
427.837	1	10
428.179	1	15
428.520	1	11
428.861	1	9
429.202	1	3
429.544	1	5
429.885	1	10
430.226	1	13
430.567	1	4
430.909	1	11
431.250	1	14
431.591	1	5
431.932	1	-2
432.273	1	14
432.615	1	20
432.956	1	-2
433.297	1	7
433.638	1	8
433.979	1	13
434.320	1	11
434.662	1	9
435.003	1	19
435.344	1	8
435.685	1	-5
436.026	1	18
436.368	1	-4
436.709	1	3
437.050	1	11
437.391	1	13
437.732	1	13
438.073	1	8
438.414	1	8
438.756	1	4
439.097	1	3
439.438	1	15
439.779	1	9
440.120	1	9
440.461	1	18
440.802	1	8
441.143	1	-4
441.485	1	12
441.826	1	5
442.167	1	-1
442.508	1	1
442.849	1	5
443.190	1	6
443.531	1	12
443.872	1	19
444.213	1	-1
444.554	1	5
444.895	1	10
445.237	1	2
445.578	1	0
445.919	1	4
446.260	1	-1
446.601	1	6
446.942	1	5
447.283	1	2
447.624	1	1
447.965	1	8
448.306	1	8
448.647	1	18
448.988	1	12
449.329	1	0
449.670	1	5
450.011	1	10
450.352	1	12
450.693	1	1
451.034	1	9
451.375	1	10
451.716	1	2
452.057	1	22
452.398	1	-1
452.739	1	4
453.080	1	1
453.421	1	4
453.762	1	10
454.103	1	8
454.444	1	-2
454.785	1	20
455.126	1	2
455.467	1	4
455.808	1	12
456.149	1	-3
456.490	1	10
456.831	1	13
457.172	1	6
457.513	1	-2
457.854	1	10
458.195	1	-4
458.536	1	9
458.877	1	23
459.218	1	9
459.559	1	5
459.899	1	3
460.240	1	18
460.581	1	0
460.922	1	12
461.263	1	14
461.604	1	-10
461.945	1	11
462.286	1	6
462.627	1	8
462.968	1	6
463.309	1	0
463.649	1	3
463.990	1	3
464.331	1	0
464.672	1	11
465.013	1	6
465.354	1	1
465.695	1	14
466.036	1	0
466.376	1	9
466.717	1	8
467.058	1	12
467.399	1	-1
467.740	1	11
468.081	1	3
468.422	1	13
468.762	1	0
469.103	1	-2
469.444	1	4
469.785	1	6
470.126	1	-4
470.467	1	3
470.807	1	3
471.148	1	5
471.489	1	-3
471.830	1	4
472.171	1	7
472.511	1	9
472.852	1	6
473.193	1	13
473.534	1	7
473.875	1	16
474.215	1	5
474.556	1	13
474.897	1	-5
475.238	1	18
475.578	1	9
475.919	1	-2
476.260	1	3
476.601	1	0
476.942	1	16
477.282	1	10
477.623	1	-7
477.964	1	3
478.305	1	18
478.645	1	4
478.986	1	8
479.327	1	9
479.667	1	3
480.008	1	-2
480.349	1	1
480.690	1	9
481.030	1	6
481.371	1	8
481.712	1	8
482.053	1	9
482.393	1	16
482.734	1	6
483.075	1	17
483.415	1	0
483.756	1	-1
484.097	1	-2
484.437	1	4
484.778	1	10
485.119	1	9
485.459	1	0
485.800	1	10
486.141	1	1
486.481	1	1
486.822	1	8
487.163	1	4
487.503	1	-1
487.844	1	1
488.185	1	9
488.525	1	10
488.866	1	7
489.207	1	0
489.547	1	5
489.888	1	11
490.228	1	6
490.569	1	11
490.910	1	3
491.250	1	9
491.591	1	6
491.932	1	3
492.272	1	2
492.613	1	6
492.953	1	9
493.294	1	19
493.635	1	19
493.975	1	14
494.316	1	18
494.656	1	7
494.997	1	0
495.337	1	6
495.678	1	13
496.019	1	2
496.359	1	15
496.700	1	0
497.040	1	19
497.381	1	0
497.721	1	5
498.062	1	1
498.403	1	-6
498.743	1	16
499.084	1	19
499.424	1	4
499.765	1	6
500.105	1	16
500.446	1	8
500.786	1	17
501.127	1	8
501.467	1	11
501.808	1	12
502.148	1	9
502.489	1	9
502.829	1	13
503.170	1	-1
503.510	1	10
503.851	1	8
504.191	1	8
504.532	1	14
504.872	1	14
505.213	1	3
505.553	1	15
505.894	1	17
506.234	1	8
506.575	1	14
506.915	1	-5
507.256	1	14
507.596	1	2
507.936	1	5
508.277	1	3
508.617	1	9
508.958	1	15
509.298	1	17
509.639	1	13
509.979	1	5
510.319	1	21
510.660	1	1
511.000	1	15
511.341	1	1
511.681	1	17
512.022	1	15
512.362	1	13
512.702	1	19
513.043	1	15
513.383	1	14
513.724	1	0
514.064	1	8
514.404	1	20
514.745	1	14
515.085	1	16
515.425	1	14
515.766	1	14
516.106	1	6
516.447	1	12
516.787	1	19
517.127	1	16
517.468	1	14
517.808	1	7
518.148	1	15
518.489	1	14
518.829	1	25
519.169	1	19
519.510	1	12
519.850	1	23
520.190	1	27
520.531	1	20
520.871	1	8
521.211	1	21
521.552	1	13
521.892	1	35
522.232	1	4
522.573	1	15
522.913	1	27
523.253	1	14
523.593	1	17
523.934	1	16
524.274	1	6
524.614	1	16
524.955	1	18
525.295	1	25
525.635	1	12
525.975	1	25
526.316	1	13
526.656	1	21
526.996	1	11
527.337	1	24
527.677	1	8
528.017	1	17
528.357	1	19
528.698	1	4
529.038	1	13
529.378	1	16
529.718	1	16
530.058	1	3
530.399	1	21
530.739	1	13
531.079	1	20
531.419	1	19
531.760	1	21
532.100	1	25
532.440	1	27
532.780	1	9
533.120	1	20
533.461	1	14
533.801	1	26
534.141	1	21
534.481	1	20
534.821	1	24
535.162	1	18
535.502	1	21
535.842	1	12
536.182	1	15
536.522	1	7
536.862	1	18
537.203	1	7
537.543	1	17
537.883	1	12
538.223	1	22
538.563	1	23
538.903	1	25
539.243	1	16
539.584	1	16
539.924	1	9
540.264	1	9
540.604	1	26
540.944	1	17
541.284	1	13
541.624	1	23
541.964	1	15
542.305	1	17
542.645	1	9
542.985	1	21
543.325	1	12
543.665	1	26
544.005	1	26
544.345	1	21
544.685	1	17
545.025	1	12
545.365	1	16
545.705	1	14
546.045	1	15
546.386	1	10
546.726	1	15
547.066	1	9
547.406	1	1
547.746	1	8
548.086	1	8
548.426	1	21
548.766	1	16
549.106	1	13
549.446	1	5
549.786	1	22
550.126	1	24
550.466	1	13
550.806	1	13
551.146	1	18
551.486	1	12
551.826	1	18
552.166	1	20
552.506	1	13
552.846	1	3
553.186	1	18
553.526	1	15
553.866	1	0
554.206	1	7
554.546	1	15
554.886	1	17
555.226	1	6
555.566	1	12
555.906	1	5
556.246	1	15
556.586	1	8
556.926	1	2
557.266	1	11
557.606	1	19
557.946	1	10
558.286	1	16
558.626	1	0
558.966	1	5
559.306	1	3
559.646	1	13
559.986	1	12
560.325	1	7
560.665	1	12
561.005	1	12
561.345	1	10
561.685	1	11
562.025	1	2
562.365	1	15
562.705	1	17
563.045	1	8
563.385	1	15
563.725	1	6
564.064	1	14
564.404	1	13
564.744	1	13
565.084	1	7
565.424	1	8
565.764	1	10
566.104	1	3
566.444	1	15
566.783	1	15
567.123	1	11
567.463	1	8
567.803	1	12
568.143	1	16
568.483	1	14
568.823	1	-1
569.162	1	14
569.502	1	7
569.842	1	6
570.182	1	1
570.522	1	1
570.862	1	21
571.201	1	13
571.541	1	3
571.881	1	10
572.221	1	17
572.561	1	3
572.900	1	11
573.240	1	9
573.580	1	9
573.920	1	18
574.260	1	5
574.599	1	11
574.939	1	10
575.279	1	0
575.619	1	9
575.959	1	13
576.298	1	8
576.638	1	-3
576.978	1	0
577.318	1	11
577.657	1	19
577.997	1	13
578.337	1	1
578.677	1	14
579.016	1	3
579.356	1	15
579.696	1	7
580.036	1	3
580.375	1	-4
580.715	1	6
581.055	1	13
581.394	1	1
581.734	1	8
582.074	1	6
582.414	1	0
582.753	1	8
583.093	1	14
583.433	1	9
583.772	1	1
584.112	1	7
584.452	1	19
584.791	1	6
585.131	1	4
585.471	1	6
585.811	1	5
586.150	1	8
586.490	1	7
586.830	1	-5
587.169	1	11
587.509	1	7
587.849	1	6
588.188	1	12
588.528	1	18
588.867	1	7
589.207	1	12
589.547	1	-6
589.886	1	1
590.226	1	11
590.566	1	0
590.905	1	10
591.245	1	7
591.585	1	7
591.924	1	0
592.264	1	6
592.603	1	4
592.943	1	4
593.283	1	-2
593.622	1	10
593.962	1	5
594.301	1	-4
594.641	1	7
594.981	1	-9
595.320	1	12
595.660	1	9
595.999	1	7
596.339	1	16
596.678	1	-3
597.018	1	1
597.358	1	-1
597.697	1	2
598.037	1	7
598.376	1	9
598.716	1	4
599.055	1	1
599.395	1	-4
599.734	1	8
600.074	1	10
600.413	1	9
600.753	1	7
601.092	1	7
601.432	1	-4
601.771	1	18
602.111	1	11
602.451	1	6
602.790	1	1
603.130	1	7
603.469	1	2
603.809	1	1
604.148	1	9
604.487	1	11
604.827	1	8
605.166	1	8
605.506	1	8
605.845	1	5
606.185	1	5
606.524	1	11
606.864	1	16
607.203	1	3
607.543	1	8
607.882	1	10
608.222	1	-6
608.561	1	0
608.901	1	11
609.240	1	-8
609.579	1	7
609.919	1	6
610.258	1	4
610.598	1	1
610.937	1	17
611.277	1	6
611.616	1	6
611.955	1	3
612.295	1	17
612.634	1	0
612.974	1	9
613.313	1	0
613.652	1	-2
613.992	1	4
614.331	1	7
614.671	1	2
615.010	1	-1
615.349	1	2
615.689	1	7
616.028	1	15
616.368	1	7
616.707	1	18
617.046	1	12
617.386	1	-1
617.725	1	6
618.064	1	9
618.404	1	4
618.743	1	9
619.082	1	11
619.422	1	7
619.761	1	8
620.100	1	0
620.440	1	-1
620.779	1	8
621.118	1	0
621.458	1	4
621.797	1	-1
622.136	1	4
622.476	1	13
622.815	1	0
623.154	1	6
623.494	1	8
623.833	1	9
624.172	1	4
624.511	1	7
624.851	1	2
625.190	1	3
625.529	1	5
625.869	1	9
626.208	1	0
626.547	1	4
626.886	1	-2
627.226	1	-4
627.565	1	8
627.904	1	6
628.243	1	6
628.583	1	3
628.922	1	-7
629.261	1	-6
629.600	1	11
629.940	1	6
630.279	1	14
630.618	1	2
630.957	1	9
631.297	1	2
631.636	1	14
631.975	1	6
632.314	1	3
632.653	1	14
632.993	1	3
633.332	1	6
633.671	1	0
634.010	1	4
634.349	1	5
634.689	1	9
635.028	1	17
635.367	1	3
635.706	1	3
636.045	1	21
636.384	1	4
636.724	1	10
637.063	1	8
637.402	1	0
637.741	1	19
638.080	1	3
638.419	1	-6
638.759	1	4
639.098	1	-6
639.437	1	1
639.776	1	3
640.115	1	-3
640.454	1	10
640.793	1	-6
641.132	1	9
641.472	1	7
641.811	1	-1
642.150	1	-6
642.489	1	-2
642.828	1	-2
643.167	1	5
643.506	1	14
643.845	1	3
644.184	1	2
644.524	1	-1
644.863	1	0
645.202	1	18
645.541	1	4
645.880	1	4
646.219	1	1
646.558	1	0
646.897	1	5
647.236	1	3
647.575	1	-1
647.914	1	-3
648.253	1	8
648.592	1	-4
648.931	1	0
649.270	1	-7
649.610	1	3
649.949	1	9
650.288	1	4
650.627	1	2
650.966	1	-2
651.305	1	-3
651.644	1	10
651.983	1	-4
652.322	1	3
652.661	1	3
653.000	1	0
653.339	1	12
653.678	1	7
654.017	1	-8
654.356	1	2
654.695	1	14
655.034	1	2
655.373	1	6
655.712	1	-5
656.051	1	4
656.390	1	0
656.729	1	3
657.068	1	-1
657.406	1	5
657.745	1	-3
658.084	1	4
658.423	1	0
658.762	1	16
659.101	1	12
659.440	1	-3
659.779	1	-3
660.118	1	-3
660.457	1	2
660.796	1	4
661.135	1	16
661.474	1	1
661.813	1	6
662.152	1	8
662.491	1	11
662.829	1	10
663.168	1	-4
663.507	1	6
663.846	1	5
664.185	1	-3
664.524	1	3
664.863	1	3
665.202	1	2
665.541	1	1
665.879	1	2
666.218	1	8
666.557	1	7
666.896	1	16
667.235	1	1
667.574	1	18
667.913	1	11
668.251	1	0
668.590	1	4
668.929	1	8
669.268	1	1
669.607	1	0
669.946	1	9
670.285	1	10
670.623	1	11
670.962	1	-3
671.301	1	-7
671.640	1	-15
671.979	1	3
672.317	1	5
672.656	1	7
672.995	1	0
673.334	1	2
673.673	1	7
674.011	1	3
674.350	1	3
674.689	1	9
675.028	1	9
675.367	1	-6
675.705	1	9
676.044	1	3
676.383	1	10
676.722	1	5
677.060	1	1
677.399	1	2
677.738	1	1
678.077	1	0
678.416	1	4
678.754	1	18
679.093	1	3
679.432	1	0
679.771	1	3
680.109	1	7
680.448	1	9
680.787	1	13
681.125	1	11
681.464	1	-1
681.803	1	0
682.142	1	-7
682.480	1	9
682.819	1	5
683.158	1	4
683.496	1	3
683.835	1	-7
684.174	1	12
684.512	1	8
684.851	1	-5
685.190	1	2
685.529	1	5
685.867	1	5
686.206	1	5
686.545	1	-7
686.883	1	-1
687.222	1	5
687.561	1	11
687.899	1	-7
688.238	1	13
688.577	1	-9
688.746	1	6