File: Data/GaN_130K_350ms/GaN_sample F_spot6_UVVIS_130 K_200um_350 ms 2x2mm1_197.txt
340.368	1	-5
340.710	1	7
341.052	1	-1
341.394	1	6
341.737	1	6
342.079	1	-1
342.421	1	8
342.763	1	2
343.105	1	6
343.447	1	13
343.789	1	-6
344.131	1	3
344.473	1	3
344.815	1	-3
345.157	1	-21
345.499	1	-1
345.841	1	-2
346.183	1	8
346.526	1	0
346.868	1	4
347.210	1	3
347.552	1	-4
347.894	1	6
348.236	1	8
348.578	1	-5
348.920	1	5
349.262	1	2
349.604	1	7
349.946	1	4
350.288	1	-11
350.630	1	8
350.972	1	15
351.314	1	-2
351.656	1	13
351.998	1	0
352.340	1	12
352.682	1	-6
353.024	1	4
353.366	1	7
353.708	1	3
354.050	1	-4
354.392	1	7
354.734	1	-2
355.076	1	3
355.418	1	2
355.760	1	1
356.102	1	9
356.444	1	-4
356.785	1	11
357.127	1	10
357.469	1	1
357.811	1	8
358.153	1	-2
358.495	1	14
358.837	1	1
359.179	1	6
359.521	1	-3
359.863	1	2
360.205	1	1
360.547	1	4
360.889	1	4
361.231	1	5
361.572	1	8
361.914	1	13
362.256	1	16
362.598	1	5
362.940	1	1
363.282	1	19
363.624	1	9
363.966	1	19
364.308	1	11
364.649	1	18
364.991	1	7
365.333	1	12
365.675	1	12
366.017	1	23
366.359	1	18
366.701	1	19
367.042	1	24
367.384	1	29
367.726	1	18
368.068	1	4
368.410	1	17
368.752	1	26
369.093	1	20
369.435	1	16
369.777	1	19
370.119	1	19
370.461	1	8
370.803	1	17
371.144	1	25
371.486	1	20
371.828	1	19
372.170	1	13
372.512	1	19
372.853	1	4
373.195	1	7
373.537	1	11
373.879	1	17
374.220	1	2
374.562	1	11
374.904	1	12
375.246	1	13
375.588	1	8
375.929	1	7
376.271	1	21
376.613	1	4
376.955	1	5
377.296	1	7
377.638	1	-3
377.980	1	2
378.321	1	12
378.663	1	10
379.005	1	14
379.347	1	6
379.688	1	0
380.030	1	7
380.372	1	8
380.714	1	13
381.055	1	11
381.397	1	1
381.739	1	6
382.080	1	-10
382.422	1	15
382.764	1	6
383.105	1	11
383.447	1	-2
383.789	1	5
384.130	1	-1
384.472	1	4
384.814	1	4
385.156	1	4
385.497	1	6
385.839	1	13
386.180	1	5
386.522	1	2
386.864	1	12
387.205	1	4
387.547	1	8
387.889	1	1
388.230	1	3
388.572	1	13
388.914	1	0
389.255	1	7
389.597	1	-8
389.939	1	3
390.280	1	13
390.622	1	10
390.963	1	11
391.305	1	15
391.647	1	12
391.988	1	10
392.330	1	0
392.671	1	5
393.013	1	4
393.355	1	-5
393.696	1	-5
394.038	1	13
394.379	1	16
394.721	1	5
395.062	1	-4
395.404	1	-1
395.746	1	8
396.087	1	19
396.429	1	0
396.770	1	19
397.112	1	8
397.453	1	13
397.795	1	0
398.136	1	13
398.478	1	3
398.819	1	-5
399.161	1	10
399.503	1	13
399.844	1	-3
400.186	1	5
400.527	1	8
400.869	1	13
401.210	1	-3
401.552	1	6
401.893	1	-6
402.235	1	-1
402.576	1	12
402.918	1	7
403.259	1	9
403.601	1	7
403.942	1	6
404.284	1	1
404.625	1	23
404.967	1	2
405.308	1	5
405.649	1	4
405.991	1	13
406.332	1	4
406.674	1	6
407.015	1	3
407.357	1	6
407.698	1	-1
408.040	1	11
408.381	1	19
408.722	1	6
409.064	1	1
409.405	1	5
409.747	1	3
410.088	1	14
410.430	1	11
410.771	1	-4
411.112	1	13
411.454	1	13
411.795	1	5
412.137	1	-5
412.478	1	3
412.819	1	6
413.161	1	14
413.502	1	6
413.844	1	5
414.185	1	17
414.526	1	9
414.868	1	8
415.209	1	5
415.550	1	3
415.892	1	6
416.233	1	16
416.575	1	4
416.916	1	7
417.257	1	5
417.599	1	4
417.940	1	10
418.281	1	2
418.623	1	15
418.964	1	-3
419.305	1	-4
419.647	1	14
419.988	1	16
420.329	1	15
420.671	1	0
421.012	1	4
421.353	1	-1
421.695	1	0
422.036	1	12
422.377	1	4
422.718	1	4
423.060	1	13
423.401	1	8
423.742	1	8
424.084	1	6
424.425	1	1
424.766	1	7
425.107	1	17
425.449	1	0
425.790	1	13
426.131	1	15
426.472	1	7
426.814	1	10
427.155	1	1
427.496	1	5
427.837	1	1
428.179	1	2
428.520	1	14
428.861	1	10
429.202	1	17
429.544	1	9
429.885	1	1
430.226	1	7
430.567	1	5
430.909	1	1
431.250	1	5
431.591	1	9
431.932	1	-1
432.273	1	8
432.615	1	15
432.956	1	1
433.297	1	18
433.638	1	12
433.979	1	2
434.320	1	3
434.662	1	11
435.003	1	8
435.344	1	7
435.685	1	-7
436.026	1	6
436.368	1	9
436.709	1	-5
437.050	1	11
437.391	1	12
437.732	1	6
438.073	1	10
438.414	1	5
438.756	1	6
439.097	1	7
439.438	1	9
439.779	1	11
440.120	1	2
440.461	1	12
440.802	1	-8
441.143	1	-1
441.485	1	4
441.826	1	-2
442.167	1	3
442.508	1	4
442.849	1	11
443.190	1	-2
443.531	1	-1
443.872	1	10
444.213	1	4
444.554	1	9
444.895	1	3
445.237	1	2
445.578	1	0
445.919	1	5
446.260	1	5
446.601	1	17
446.942	1	4
447.283	1	12
447.624	1	1
447.965	1	0
448.306	1	3
448.647	1	18
448.988	1	15
449.329	1	-10
449.670	1	5
450.011	1	-1
450.352	1	16
450.693	1	4
451.034	1	2
451.375	1	1
451.716	1	-2
452.057	1	10
452.398	1	0
452.739	1	0
453.080	1	4
453.421	1	14
453.762	1	11
454.103	1	0
454.444	1	10
454.785	1	15
455.126	1	-5
455.467	1	1
455.808	1	12
456.149	1	2
456.490	1	9
456.831	1	2
457.172	1	1
457.513	1	1
457.854	1	-2
458.195	1	4
458.536	1	7
458.877	1	19
459.218	1	13
459.559	1	1
459.899	1	1
460.240	1	14
460.581	1	-3
460.922	1	2
461.263	1	8
461.604	1	-8
461.945	1	9
462.286	1	-4
462.627	1	5
462.968	1	-1
463.309	1	5
463.649	1	-2
463.990	1	5
464.331	1	7
464.672	1	2
465.013	1	-4
465.354	1	1
465.695	1	11
466.036	1	3
466.376	1	1
466.717	1	8
467.058	1	1
467.399	1	1
467.740	1	4
468.081	1	18
468.422	1	0
468.762	1	-5
469.103	1	6
469.444	1	2
469.785	1	15
470.126	1	-11
470.467	1	7
470.807	1	8
471.148	1	2
471.489	1	13
471.830	1	4
472.171	1	5
472.511	1	12
472.852	1	7
473.193	1	4
473.534	1	8
473.875	1	11
474.215	1	5
474.556	1	6
474.897	1	3
475.238	1	14
475.578	1	0
475.919	1	-3
476.260	1	-3
476.601	1	7
476.942	1	9
477.282	1	6
477.623	1	1
477.964	1	4
478.305	1	20
478.645	1	1
478.986	1	3
479.327	1	-4
479.667	1	5
480.008	1	0
480.349	1	-1
480.690	1	-3
481.030	1	-14
481.371	1	7
481.712	1	6
482.053	1	-1
482.393	1	7
482.734	1	9
483.075	1	12
483.415	1	11
483.756	1	7
484.097	1	2
484.437	1	-4
484.778	1	16
485.119	1	19
485.459	1	-3
485.800	1	15
486.141	1	-1
486.481	1	-3
486.822	1	12
487.163	1	7
487.503	1	-2
487.844	1	3
488.185	1	5
488.525	1	17
488.866	1	1
489.207	1	7
489.547	1	0
489.888	1	12
490.228	1	-6
490.569	1	4
490.910	1	2
491.250	1	12
491.591	1	-2
491.932	1	1
492.272	1	-5
492.613	1	7
492.953	1	7
493.294	1	14
493.635	1	6
493.975	1	11
494.316	1	7
494.656	1	10
494.997	1	-5
495.337	1	9
495.678	1	-9
496.019	1	0
496.359	1	18
496.700	1	-1
497.040	1	18
497.381	1	1
497.721	1	7
498.062	1	-1
498.403	1	-2
498.743	1	12
499.084	1	6
499.424	1	-13
499.765	1	0
500.105	1	-1
500.446	1	1
500.786	1	8
501.127	1	7
501.467	1	-4
501.808	1	9
502.148	1	-2
502.489	1	10
502.829	1	0
503.170	1	3
503.510	1	7
503.851	1	-1
504.191	1	2
504.532	1	6
504.872	1	-1
505.213	1	2
505.553	1	6
505.894	1	13
506.234	1	2
506.575	1	3
506.915	1	0
507.256	1	13
507.596	1	-1
507.936	1	-5
508.277	1	4
508.617	1	1
508.958	1	9
509.298	1	0
509.639	1	-2
509.979	1	4
510.319	1	14
510.660	1	-1
511.000	1	5
511.341	1	-10
511.681	1	2
512.022	1	11
512.362	1	3
512.702	1	13
513.043	1	11
513.383	1	11
513.724	1	-5
514.064	1	10
514.404	1	18
514.745	1	-1
515.085	1	2
515.425	1	-1
515.766	1	16
516.106	1	8
516.447	1	-2
516.787	1	4
517.127	1	6
517.468	1	11
517.808	1	3
518.148	1	7
518.489	1	3
518.829	1	5
519.169	1	4
519.510	1	-2
519.850	1	22
520.190	1	10
520.531	1	16
520.871	1	0
521.211	1	15
521.552	1	9
521.892	1	12
522.232	1	1
522.573	1	5
522.913	1	10
523.253	1	18
523.593	1	8
523.934	1	4
524.274	1	-1
524.614	1	4
524.955	1	14
525.295	1	5
525.635	1	4
525.975	1	12
526.316	1	5
526.656	1	10
526.996	1	9
527.337	1	21
527.677	1	5
528.017	1	11
528.357	1	12
528.698	1	-1
529.038	1	10
529.378	1	14
529.718	1	17
530.058	1	8
530.399	1	5
530.739	1	10
531.079	1	18
531.419	1	7
531.760	1	7
532.100	1	8
532.440	1	9
532.780	1	1
533.120	1	14
533.461	1	0
533.801	1	10
534.141	1	9
534.481	1	9
534.821	1	14
535.162	1	13
535.502	1	15
535.842	1	5
536.182	1	11
536.522	1	4
536.862	1	8
537.203	1	10
537.543	1	16
537.883	1	-4
538.223	1	13
538.563	1	14
538.903	1	26
539.243	1	4
539.584	1	10
539.924	1	-1
540.264	1	1
540.604	1	11
540.944	1	14
541.284	1	10
541.624	1	16
541.964	1	4
542.305	1	9
542.645	1	5
542.985	1	10
543.325	1	1
543.665	1	15
544.005	1	6
544.345	1	8
544.685	1	16
545.025	1	-6
545.365	1	6
545.705	1	3
546.045	1	9
546.386	1	7
546.726	1	-1
547.066	1	9
547.406	1	-7
547.746	1	7
548.086	1	3
548.426	1	13
548.766	1	5
549.106	1	1
549.446	1	5
549.786	1	13
550.126	1	9
550.466	1	3
550.806	1	8
551.146	1	5
551.486	1	3
551.826	1	3
552.166	1	9
552.506	1	4
552.846	1	-4
553.186	1	4
553.526	1	8
553.866	1	-7
554.206	1	1
554.546	1	11
554.886	1	9
555.226	1	6
555.566	1	10
555.906	1	-1
556.246	1	15
556.586	1	5
556.926	1	0
557.266	1	5
557.606	1	4
557.946	1	14
558.286	1	11
558.626	1	-11
558.966	1	5
559.306	1	-5
559.646	1	8
559.986	1	6
560.325	1	2
560.665	1	12
561.005	1	5
561.345	1	8
561.685	1	-7
562.025	1	1
562.365	1	17
562.705	1	8
563.045	1	1
563.385	1	9
563.725	1	3
564.064	1	9
564.404	1	5
564.744	1	9
565.084	1	-3
565.424	1	0
565.764	1	1
566.104	1	1
566.444	1	13
566.783	1	14
567.123	1	2
567.463	1	-1
567.803	1	2
568.143	1	20
568.483	1	10
568.823	1	-7
569.162	1	4
569.502	1	-2
569.842	1	4
570.182	1	4
570.522	1	-13
570.862	1	22
571.201	1	9
571.541	1	2
571.881	1	-6
572.221	1	16
572.561	1	-1
572.900	1	4
573.240	1	3
573.580	1	4
573.920	1	4
574.260	1	2
574.599	1	2
574.939	1	10
575.279	1	-4
575.619	1	6
575.959	1	0
576.298	1	10
576.638	1	1
576.978	1	-5
577.318	1	-2
577.657	1	12
577.997	1	10
578.337	1	1
578.677	1	7
579.016	1	-6
579.356	1	8
579.696	1	-6
580.036	1	4
580.375	1	-6
580.715	1	5
581.055	1	14
581.394	1	-3
581.734	1	4
582.074	1	7
582.414	1	-7
582.753	1	7
583.093	1	4
583.433	1	4
583.772	1	5
584.112	1	6
584.452	1	19
584.791	1	4
585.131	1	10
585.471	1	2
585.811	1	4
586.150	1	5
586.490	1	9
586.830	1	-2
587.169	1	5
587.509	1	2
587.849	1	7
588.188	1	2
588.528	1	7
588.867	1	6
589.207	1	5
589.547	1	5
589.886	1	4
590.226	1	6
590.566	1	3
590.905	1	4
591.245	1	-2
591.585	1	0
591.924	1	-6
592.264	1	4
592.603	1	2
592.943	1	-1
593.283	1	-3
593.622	1	14
593.962	1	3
594.301	1	-13
594.641	1	9
594.981	1	0
595.320	1	17
595.660	1	12
595.999	1	11
596.339	1	0
596.678	1	-8
597.018	1	5
597.358	1	4
597.697	1	1
598.037	1	4
598.376	1	1
598.716	1	5
599.055	1	7
599.395	1	-3
599.734	1	-2
600.074	1	1
600.413	1	15
600.753	1	10
601.092	1	-1
601.432	1	-3
601.771	1	12
602.111	1	2
602.451	1	10
602.790	1	5
603.130	1	13
603.469	1	2
603.809	1	5
604.148	1	5
604.487	1	15
604.827	1	10
605.166	1	5
605.506	1	4
605.845	1	-1
606.185	1	5
606.524	1	-3
606.864	1	13
607.203	1	-2
607.543	1	-1
607.882	1	-2
608.222	1	-8
608.561	1	-4
608.901	1	13
609.240	1	-2
609.579	1	2
609.919	1	5
610.258	1	-1
610.598	1	-5
610.937	1	12
611.277	1	2
611.616	1	-7
611.955	1	-9
612.295	1	10
612.634	1	6
612.974	1	6
613.313	1	4
613.652	1	-11
613.992	1	-1
614.331	1	11
614.671	1	2
615.010	1	-7
615.349	1	8
615.689	1	8
616.028	1	14
616.368	1	10
616.707	1	7
617.046	1	9
617.386	1	-4
617.725	1	9
618.064	1	8
618.404	1	7
618.743	1	4
619.082	1	-1
619.422	1	0
619.761	1	6
620.100	1	9
620.440	1	4
620.779	1	4
621.118	1	13
621.458	1	2
621.797	1	0
622.136	1	2
622.476	1	7
622.815	1	-1
623.154	1	3
623.494	1	6
623.833	1	4
624.172	1	-5
624.511	1	-5
624.851	1	1
625.190	1	-3
625.529	1	-3
625.869	1	7
626.208	1	1
626.547	1	-1
626.886	1	1
627.226	1	3
627.565	1	4
627.904	1	3
628.243	1	6
628.583	1	-11
628.922	1	-4
629.261	1	-1
629.600	1	-5
629.940	1	5
630.279	1	7
630.618	1	8
630.957	1	9
631.297	1	0
631.636	1	8
631.975	1	4
632.314	1	-4
632.653	1	0
632.993	1	7
633.332	1	-2
633.671	1	4
634.010	1	-3
634.349	1	7
634.689	1	11
635.028	1	9
635.367	1	3
635.706	1	2
636.045	1	18
636.384	1	0
636.724	1	8
637.063	1	0
637.402	1	-2
637.741	1	8
638.080	1	10
638.419	1	1
638.759	1	2
639.098	1	2
639.437	1	8
639.776	1	5
640.115	1	7
640.454	1	3
640.793	1	-4
641.132	1	15
641.472	1	1
641.811	1	4
642.150	1	-6
642.489	1	-2
642.828	1	13
643.167	1	1
643.506	1	11
643.845	1	-5
644.184	1	-5
644.524	1	5
644.863	1	6
645.202	1	4
645.541	1	-4
645.880	1	9
646.219	1	5
646.558	1	-1
646.897	1	0
647.236	1	-4
647.575	1	3
647.914	1	-1
648.253	1	1
648.592	1	-1
648.931	1	-3
649.270	1	-7
649.610	1	2
649.949	1	7
650.288	1	10
650.627	1	6
650.966	1	6
651.305	1	1
651.644	1	6
651.983	1	-7
652.322	1	-6
652.661	1	2
653.000	1	0
653.339	1	9
653.678	1	6
654.017	1	-3
654.356	1	10
654.695	1	1
655.034	1	-2
655.373	1	5
655.712	1	1
656.051	1	6
656.390	1	4
656.729	1	7
657.068	1	6
657.406	1	6
657.745	1	3
658.084	1	7
658.423	1	3
658.762	1	21
659.101	1	5
659.440	1	-5
659.779	1	-3
660.118	1	-6
660.457	1	0
660.796	1	3
661.135	1	12
661.474	1	1
661.813	1	2
662.152	1	9
662.491	1	13
662.829	1	11
663.168	1	-11
663.507	1	7
663.846	1	-1
664.185	1	-1
664.524	1	-8
664.863	1	5
665.202	1	-6
665.541	1	-4
665.879	1	4
666.218	1	5
666.557	1	5
666.896	1	4
667.235	1	11
667.574	1	18
667.913	1	8
668.251	1	7
668.590	1	9
668.929	1	9
669.268	1	-1
669.607	1	4
669.946	1	7
670.285	1	15
670.623	1	14
670.962	1	9
671.301	1	0
671.640	1	-6
671.979	1	4
672.317	1	-9
672.656	1	-1
672.995	1	2
673.334	1	-12
673.673	1	8
674.011	1	1
674.350	1	11
674.689	1	16
675.028	1	8
675.367	1	-3
675.705	1	8
676.044	1	-3
676.383	1	10
676.722	1	-2
677.060	1	1
677.399	1	4
677.738	1	2
678.077	1	3
678.416	1	12
678.754	1	8
679.093	1	0
679.432	1	3
679.771	1	3
680.109	1	5
680.448	1	3
680.787	1	7
681.125	1	10
681.464	1	5
681.803	1	8
682.142	1	-3
682.480	1	10
682.819	1	7
683.158	1	4
683.496	1	4
683.835	1	-3
684.174	1	2
684.512	1	4
684.851	1	-7
685.190	1	2
685.529	1	1
685.867	1	4
686.206	1	1
686.545	1	4
686.883	1	-1
687.222	1	-1
687.561	1	17
687.899	1	-3
688.238	1	14
688.577	1	-3
688.746	1	12