File: Data/GaN_130K_350ms/GaN_sample F_spot6_UVVIS_130 K_200um_350 ms 2x2mm1_149.txt
340.368	1	6
340.710	1	10
341.052	1	-10
341.394	1	2
341.737	1	-3
342.079	1	5
342.421	1	6
342.763	1	6
343.105	1	8
343.447	1	9
343.789	1	7
344.131	1	3
344.473	1	1
344.815	1	4
345.157	1	-10
345.499	1	-6
345.841	1	-3
346.183	1	7
346.526	1	-5
346.868	1	6
347.210	1	8
347.552	1	8
347.894	1	7
348.236	1	-2
348.578	1	-1
348.920	1	3
349.262	1	10
349.604	1	10
349.946	1	15
350.288	1	-7
350.630	1	10
350.972	1	16
351.314	1	-5
351.656	1	14
351.998	1	5
352.340	1	19
352.682	1	5
353.024	1	-1
353.366	1	6
353.708	1	-1
354.050	1	6
354.392	1	13
354.734	1	1
355.076	1	8
355.418	1	14
355.760	1	11
356.102	1	2
356.444	1	0
356.785	1	11
357.127	1	2
357.469	1	5
357.811	1	9
358.153	1	8
358.495	1	13
358.837	1	15
359.179	1	2
359.521	1	8
359.863	1	6
360.205	1	10
360.547	1	8
360.889	1	11
361.231	1	7
361.572	1	23
361.914	1	14
362.256	1	17
362.598	1	4
362.940	1	8
363.282	1	25
363.624	1	22
363.966	1	36
364.308	1	34
364.649	1	32
364.991	1	24
365.333	1	27
365.675	1	35
366.017	1	35
366.359	1	43
366.701	1	37
367.042	1	44
367.384	1	51
367.726	1	55
368.068	1	37
368.410	1	37
368.752	1	46
369.093	1	47
369.435	1	29
369.777	1	31
370.119	1	50
370.461	1	35
370.803	1	26
371.144	1	43
371.486	1	30
371.828	1	29
372.170	1	36
372.512	1	34
372.853	1	24
373.195	1	27
373.537	1	31
373.879	1	26
374.220	1	8
374.562	1	18
374.904	1	24
375.246	1	28
375.588	1	27
375.929	1	5
376.271	1	20
376.613	1	12
376.955	1	22
377.296	1	15
377.638	1	27
377.980	1	8
378.321	1	19
378.663	1	22
379.005	1	27
379.347	1	10
379.688	1	8
380.030	1	11
380.372	1	13
380.714	1	24
381.055	1	14
381.397	1	9
381.739	1	10
382.080	1	5
382.422	1	23
382.764	1	8
383.105	1	14
383.447	1	17
383.789	1	14
384.130	1	20
384.472	1	15
384.814	1	8
385.156	1	9
385.497	1	7
385.839	1	14
386.180	1	9
386.522	1	11
386.864	1	24
387.205	1	18
387.547	1	20
387.889	1	10
388.230	1	5
388.572	1	14
388.914	1	9
389.255	1	14
389.597	1	2
389.939	1	12
390.280	1	14
390.622	1	11
390.963	1	14
391.305	1	13
391.647	1	17
391.988	1	24
392.330	1	7
392.671	1	7
393.013	1	12
393.355	1	9
393.696	1	7
394.038	1	11
394.379	1	19
394.721	1	11
395.062	1	12
395.404	1	-2
395.746	1	22
396.087	1	14
396.429	1	10
396.770	1	24
397.112	1	15
397.453	1	18
397.795	1	6
398.136	1	9
398.478	1	7
398.819	1	-7
399.161	1	18
399.503	1	15
399.844	1	6
400.186	1	11
400.527	1	26
400.869	1	16
401.210	1	4
401.552	1	20
401.893	1	-4
402.235	1	4
402.576	1	12
402.918	1	16
403.259	1	1
403.601	1	18
403.942	1	1
404.284	1	3
404.625	1	14
404.967	1	12
405.308	1	7
405.649	1	3
405.991	1	7
406.332	1	11
406.674	1	16
407.015	1	3
407.357	1	9
407.698	1	13
408.040	1	10
408.381	1	14
408.722	1	9
409.064	1	6
409.405	1	10
409.747	1	3
410.088	1	16
410.430	1	16
410.771	1	-14
411.112	1	20
411.454	1	9
411.795	1	1
412.137	1	-2
412.478	1	1
412.819	1	6
413.161	1	12
413.502	1	18
413.844	1	-1
414.185	1	19
414.526	1	9
414.868	1	10
415.209	1	13
415.550	1	2
415.892	1	15
416.233	1	8
416.575	1	16
416.916	1	8
417.257	1	10
417.599	1	0
417.940	1	16
418.281	1	11
418.623	1	7
418.964	1	11
419.305	1	8
419.647	1	3
419.988	1	12
420.329	1	14
420.671	1	-6
421.012	1	9
421.353	1	-1
421.695	1	10
422.036	1	16
422.377	1	8
422.718	1	10
423.060	1	11
423.401	1	12
423.742	1	13
424.084	1	12
424.425	1	6
424.766	1	6
425.107	1	4
425.449	1	4
425.790	1	15
426.131	1	16
426.472	1	11
426.814	1	14
427.155	1	0
427.496	1	3
427.837	1	15
428.179	1	10
428.520	1	20
428.861	1	4
429.202	1	1
429.544	1	11
429.885	1	1
430.226	1	7
430.567	1	2
430.909	1	7
431.250	1	12
431.591	1	18
431.932	1	9
432.273	1	8
432.615	1	13
432.956	1	-4
433.297	1	15
433.638	1	10
433.979	1	11
434.320	1	16
434.662	1	6
435.003	1	20
435.344	1	6
435.685	1	-16
436.026	1	9
436.368	1	6
436.709	1	-3
437.050	1	3
437.391	1	12
437.732	1	4
438.073	1	13
438.414	1	-7
438.756	1	7
439.097	1	4
439.438	1	11
439.779	1	3
440.120	1	3
440.461	1	14
440.802	1	0
441.143	1	1
441.485	1	12
441.826	1	10
442.167	1	4
442.508	1	4
442.849	1	5
443.190	1	10
443.531	1	9
443.872	1	11
444.213	1	14
444.554	1	13
444.895	1	-7
445.237	1	2
445.578	1	-10
445.919	1	2
446.260	1	6
446.601	1	10
446.942	1	0
447.283	1	9
447.624	1	-3
447.965	1	7
448.306	1	7
448.647	1	12
448.988	1	6
449.329	1	-2
449.670	1	2
450.011	1	-2
450.352	1	10
450.693	1	-8
451.034	1	5
451.375	1	13
451.716	1	-10
452.057	1	14
452.398	1	2
452.739	1	5
453.080	1	13
453.421	1	4
453.762	1	5
454.103	1	2
454.444	1	1
454.785	1	8
455.126	1	-4
455.467	1	9
455.808	1	8
456.149	1	-2
456.490	1	3
456.831	1	10
457.172	1	9
457.513	1	-5
457.854	1	14
458.195	1	-1
458.536	1	11
458.877	1	19
459.218	1	8
459.559	1	6
459.899	1	-6
460.240	1	14
460.581	1	2
460.922	1	-1
461.263	1	10
461.604	1	2
461.945	1	7
462.286	1	9
462.627	1	8
462.968	1	-1
463.309	1	7
463.649	1	4
463.990	1	2
464.331	1	8
464.672	1	10
465.013	1	-4
465.354	1	3
465.695	1	8
466.036	1	14
466.376	1	4
466.717	1	13
467.058	1	6
467.399	1	-3
467.740	1	8
468.081	1	9
468.422	1	6
468.762	1	3
469.103	1	5
469.444	1	-2
469.785	1	5
470.126	1	-8
470.467	1	4
470.807	1	-1
471.148	1	3
471.489	1	2
471.830	1	1
472.171	1	2
472.511	1	0
472.852	1	8
473.193	1	13
473.534	1	7
473.875	1	16
474.215	1	6
474.556	1	12
474.897	1	2
475.238	1	8
475.578	1	9
475.919	1	7
476.260	1	0
476.601	1	0
476.942	1	12
477.282	1	12
477.623	1	0
477.964	1	9
478.305	1	12
478.645	1	-2
478.986	1	-7
479.327	1	4
479.667	1	4
480.008	1	0
480.349	1	-9
480.690	1	8
481.030	1	0
481.371	1	9
481.712	1	-1
482.053	1	6
482.393	1	15
482.734	1	0
483.075	1	14
483.415	1	6
483.756	1	1
484.097	1	5
484.437	1	8
484.778	1	13
485.119	1	6
485.459	1	1
485.800	1	13
486.141	1	6
486.481	1	1
486.822	1	13
487.163	1	-1
487.503	1	-4
487.844	1	6
488.185	1	5
488.525	1	7
488.866	1	2
489.207	1	12
489.547	1	-2
489.888	1	11
490.228	1	-2
490.569	1	3
490.910	1	-9
491.250	1	10
491.591	1	1
491.932	1	7
492.272	1	0
492.613	1	1
492.953	1	3
493.294	1	5
493.635	1	5
493.975	1	15
494.316	1	11
494.656	1	11
494.997	1	8
495.337	1	2
495.678	1	-2
496.019	1	6
496.359	1	14
496.700	1	-2
497.040	1	11
497.381	1	13
497.721	1	3
498.062	1	1
498.403	1	2
498.743	1	16
499.084	1	15
499.424	1	3
499.765	1	10
500.105	1	12
500.446	1	17
500.786	1	11
501.127	1	9
501.467	1	7
501.808	1	17
502.148	1	2
502.489	1	12
502.829	1	7
503.170	1	8
503.510	1	20
503.851	1	-4
504.191	1	14
504.532	1	8
504.872	1	17
505.213	1	12
505.553	1	19
505.894	1	6
506.234	1	3
506.575	1	1
506.915	1	11
507.256	1	19
507.596	1	3
507.936	1	-6
508.277	1	12
508.617	1	9
508.958	1	14
509.298	1	9
509.639	1	13
509.979	1	2
510.319	1	17
510.660	1	3
511.000	1	11
511.341	1	9
511.681	1	8
512.022	1	23
512.362	1	14
512.702	1	18
513.043	1	7
513.383	1	18
513.724	1	3
514.064	1	10
514.404	1	21
514.745	1	11
515.085	1	23
515.425	1	18
515.766	1	11
516.106	1	10
516.447	1	9
516.787	1	13
517.127	1	10
517.468	1	15
517.808	1	14
518.148	1	10
518.489	1	11
518.829	1	18
519.169	1	25
519.510	1	8
519.850	1	23
520.190	1	26
520.531	1	22
520.871	1	12
521.211	1	12
521.552	1	15
521.892	1	24
522.232	1	1
522.573	1	10
522.913	1	22
523.253	1	20
523.593	1	18
523.934	1	9
524.274	1	6
524.614	1	19
524.955	1	19
525.295	1	26
525.635	1	19
525.975	1	19
526.316	1	19
526.656	1	12
526.996	1	9
527.337	1	20
527.677	1	1
528.017	1	24
528.357	1	21
528.698	1	13
529.038	1	-2
529.378	1	23
529.718	1	18
530.058	1	11
530.399	1	19
530.739	1	13
531.079	1	15
531.419	1	20
531.760	1	14
532.100	1	16
532.440	1	22
532.780	1	11
533.120	1	23
533.461	1	12
533.801	1	21
534.141	1	14
534.481	1	16
534.821	1	19
535.162	1	23
535.502	1	13
535.842	1	19
536.182	1	20
536.522	1	14
536.862	1	12
537.203	1	20
537.543	1	23
537.883	1	13
538.223	1	17
538.563	1	13
538.903	1	29
539.243	1	16
539.584	1	17
539.924	1	11
540.264	1	10
540.604	1	13
540.944	1	17
541.284	1	18
541.624	1	19
541.964	1	7
542.305	1	16
542.645	1	9
542.985	1	14
543.325	1	9
543.665	1	16
544.005	1	23
544.345	1	8
544.685	1	15
545.025	1	8
545.365	1	17
545.705	1	8
546.045	1	18
546.386	1	11
546.726	1	7
547.066	1	3
547.406	1	-4
547.746	1	8
548.086	1	7
548.426	1	9
548.766	1	12
549.106	1	3
549.446	1	12
549.786	1	14
550.126	1	16
550.466	1	20
550.806	1	20
551.146	1	11
551.486	1	16
551.826	1	11
552.166	1	19
552.506	1	21
552.846	1	2
553.186	1	13
553.526	1	19
553.866	1	0
554.206	1	18
554.546	1	19
554.886	1	4
555.226	1	15
555.566	1	14
555.906	1	10
556.246	1	10
556.586	1	14
556.926	1	12
557.266	1	18
557.606	1	14
557.946	1	17
558.286	1	18
558.626	1	3
558.966	1	6
559.306	1	15
559.646	1	9
559.986	1	9
560.325	1	1
560.665	1	17
561.005	1	5
561.345	1	12
561.685	1	13
562.025	1	4
562.365	1	9
562.705	1	15
563.045	1	5
563.385	1	15
563.725	1	10
564.064	1	19
564.404	1	5
564.744	1	13
565.084	1	16
565.424	1	4
565.764	1	14
566.104	1	7
566.444	1	18
566.783	1	13
567.123	1	3
567.463	1	6
567.803	1	15
568.143	1	18
568.483	1	19
568.823	1	4
569.162	1	19
569.502	1	12
569.842	1	8
570.182	1	6
570.522	1	-10
570.862	1	17
571.201	1	8
571.541	1	12
571.881	1	11
572.221	1	14
572.561	1	7
572.900	1	9
573.240	1	6
573.580	1	3
573.920	1	13
574.260	1	14
574.599	1	13
574.939	1	27
575.279	1	1
575.619	1	9
575.959	1	6
576.298	1	6
576.638	1	2
576.978	1	4
577.318	1	4
577.657	1	17
577.997	1	10
578.337	1	2
578.677	1	10
579.016	1	7
579.356	1	5
579.696	1	0
580.036	1	8
580.375	1	3
580.715	1	9
581.055	1	7
581.394	1	9
581.734	1	21
582.074	1	18
582.414	1	9
582.753	1	11
583.093	1	8
583.433	1	8
583.772	1	3
584.112	1	20
584.452	1	12
584.791	1	6
585.131	1	9
585.471	1	-6
585.811	1	9
586.150	1	11
586.490	1	3
586.830	1	-4
587.169	1	8
587.509	1	13
587.849	1	14
588.188	1	11
588.528	1	12
588.867	1	5
589.207	1	4
589.547	1	6
589.886	1	9
590.226	1	9
590.566	1	6
590.905	1	13
591.245	1	0
591.585	1	9
591.924	1	4
592.264	1	12
592.603	1	-2
592.943	1	7
593.283	1	-8
593.622	1	11
593.962	1	7
594.301	1	1
594.641	1	11
594.981	1	2
595.320	1	12
595.660	1	7
595.999	1	6
596.339	1	11
596.678	1	7
597.018	1	4
597.358	1	1
597.697	1	7
598.037	1	12
598.376	1	2
598.716	1	8
599.055	1	-3
599.395	1	-6
599.734	1	0
600.074	1	5
600.413	1	14
600.753	1	5
601.092	1	0
601.432	1	-6
601.771	1	10
602.111	1	4
602.451	1	8
602.790	1	6
603.130	1	3
603.469	1	10
603.809	1	0
604.148	1	8
604.487	1	13
604.827	1	0
605.166	1	10
605.506	1	4
605.845	1	5
606.185	1	10
606.524	1	9
606.864	1	15
607.203	1	-2
607.543	1	1
607.882	1	4
608.222	1	-2
608.561	1	5
608.901	1	10
609.240	1	-4
609.579	1	15
609.919	1	8
610.258	1	10
610.598	1	4
610.937	1	14
611.277	1	9
611.616	1	-9
611.955	1	4
612.295	1	15
612.634	1	2
612.974	1	10
613.313	1	4
613.652	1	-14
613.992	1	-3
614.331	1	8
614.671	1	9
615.010	1	3
615.349	1	2
615.689	1	-3
616.028	1	11
616.368	1	9
616.707	1	11
617.046	1	11
617.386	1	0
617.725	1	3
618.064	1	8
618.404	1	10
618.743	1	11
619.082	1	0
619.422	1	8
619.761	1	2
620.100	1	-4
620.440	1	5
620.779	1	4
621.118	1	-1
621.458	1	13
621.797	1	8
622.136	1	7
622.476	1	8
622.815	1	-1
623.154	1	4
623.494	1	15
623.833	1	3
624.172	1	0
624.511	1	9
624.851	1	4
625.190	1	9
625.529	1	1
625.869	1	5
626.208	1	-1
626.547	1	3
626.886	1	1
627.226	1	-1
627.565	1	7
627.904	1	6
628.243	1	13
628.583	1	-3
628.922	1	1
629.261	1	-8
629.600	1	19
629.940	1	16
630.279	1	8
630.618	1	3
630.957	1	8
631.297	1	-6
631.636	1	4
631.975	1	2
632.314	1	5
632.653	1	2
632.993	1	11
633.332	1	-3
633.671	1	-1
634.010	1	-8
634.349	1	0
634.689	1	6
635.028	1	10
635.367	1	1
635.706	1	-4
636.045	1	11
636.384	1	4
636.724	1	8
637.063	1	14
637.402	1	-1
637.741	1	10
638.080	1	10
638.419	1	-2
638.759	1	10
639.098	1	5
639.437	1	15
639.776	1	9
640.115	1	-1
640.454	1	5
640.793	1	-5
641.132	1	8
641.472	1	6
641.811	1	5
642.150	1	-8
642.489	1	0
642.828	1	5
643.167	1	10
643.506	1	11
643.845	1	-5
644.184	1	1
644.524	1	2
644.863	1	-2
645.202	1	11
645.541	1	2
645.880	1	7
646.219	1	12
646.558	1	-1
646.897	1	0
647.236	1	-3
647.575	1	-5
647.914	1	2
648.253	1	1
648.592	1	-1
648.931	1	-7
649.270	1	-9
649.610	1	1
649.949	1	3
650.288	1	11
650.627	1	-1
650.966	1	8
651.305	1	0
651.644	1	5
651.983	1	-10
652.322	1	-4
652.661	1	-3
653.000	1	3
653.339	1	4
653.678	1	0
654.017	1	6
654.356	1	7
654.695	1	0
655.034	1	-1
655.373	1	7
655.712	1	1
656.051	1	5
656.390	1	-5
656.729	1	0
657.068	1	2
657.406	1	1
657.745	1	3
658.084	1	-3
658.423	1	1
658.762	1	17
659.101	1	3
659.440	1	-8
659.779	1	1
660.118	1	-8
660.457	1	2
660.796	1	11
661.135	1	11
661.474	1	-2
661.813	1	5
662.152	1	-4
662.491	1	14
662.829	1	5
663.168	1	-4
663.507	1	4
663.846	1	-1
664.185	1	-1
664.524	1	-2
664.863	1	2
665.202	1	-1
665.541	1	2
665.879	1	4
666.218	1	19
666.557	1	9
666.896	1	2
667.235	1	6
667.574	1	17
667.913	1	3
668.251	1	1
668.590	1	6
668.929	1	3
669.268	1	2
669.607	1	-2
669.946	1	14
670.285	1	10
670.623	1	10
670.962	1	-1
671.301	1	0
671.640	1	-5
671.979	1	5
672.317	1	7
672.656	1	-7
672.995	1	4
673.334	1	-8
673.673	1	3
674.011	1	5
674.350	1	7
674.689	1	6
675.028	1	10
675.367	1	3
675.705	1	12
676.044	1	-7
676.383	1	-1
676.722	1	4
677.060	1	2
677.399	1	7
677.738	1	-1
678.077	1	8
678.416	1	4
678.754	1	6
679.093	1	-1
679.432	1	10
679.771	1	5
680.109	1	1
680.448	1	0
680.787	1	5
681.125	1	15
681.464	1	3
681.803	1	-7
682.142	1	-8
682.480	1	7
682.819	1	-1
683.158	1	0
683.496	1	-6
683.835	1	-2
684.174	1	13
684.512	1	15
684.851	1	-1
685.190	1	9
685.529	1	0
685.867	1	2
686.206	1	8
686.545	1	-2
686.883	1	1
687.222	1	12
687.561	1	18
687.899	1	7
688.238	1	14
688.577	1	6
688.746	1	8