File: Data/GaN_130K_350ms/GaN_sample F_spot6_UVVIS_130 K_200um_350 ms 2x2mm1_235.txt
340.368	1	8
340.710	1	10
341.052	1	-7
341.394	1	1
341.737	1	-1
342.079	1	5
342.421	1	9
342.763	1	-2
343.105	1	2
343.447	1	4
343.789	1	5
344.131	1	4
344.473	1	-1
344.815	1	-8
345.157	1	-11
345.499	1	-10
345.841	1	4
346.183	1	4
346.526	1	8
346.868	1	10
347.210	1	0
347.552	1	0
347.894	1	1
348.236	1	-1
348.578	1	-7
348.920	1	7
349.262	1	13
349.604	1	2
349.946	1	5
350.288	1	-7
350.630	1	14
350.972	1	5
351.314	1	-1
351.656	1	7
351.998	1	1
352.340	1	18
352.682	1	2
353.024	1	5
353.366	1	3
353.708	1	-5
354.050	1	6
354.392	1	11
354.734	1	-1
355.076	1	5
355.418	1	0
355.760	1	-8
356.102	1	6
356.444	1	-12
356.785	1	8
357.127	1	5
357.469	1	-7
357.811	1	4
358.153	1	-5
358.495	1	6
358.837	1	-2
359.179	1	-1
359.521	1	0
359.863	1	6
360.205	1	6
360.547	1	-4
360.889	1	7
361.231	1	-1
361.572	1	13
361.914	1	10
362.256	1	4
362.598	1	9
362.940	1	-2
363.282	1	4
363.624	1	11
363.966	1	17
364.308	1	10
364.649	1	8
364.991	1	5
365.333	1	-1
365.675	1	7
366.017	1	18
366.359	1	10
366.701	1	16
367.042	1	18
367.384	1	15
367.726	1	16
368.068	1	6
368.410	1	6
368.752	1	24
369.093	1	13
369.435	1	8
369.777	1	8
370.119	1	14
370.461	1	13
370.803	1	12
371.144	1	11
371.486	1	12
371.828	1	2
372.170	1	-4
372.512	1	7
372.853	1	-2
373.195	1	7
373.537	1	12
373.879	1	17
374.220	1	-2
374.562	1	-2
374.904	1	2
375.246	1	14
375.588	1	11
375.929	1	2
376.271	1	14
376.613	1	0
376.955	1	10
377.296	1	9
377.638	1	-1
377.980	1	-1
378.321	1	13
378.663	1	8
379.005	1	8
379.347	1	0
379.688	1	11
380.030	1	2
380.372	1	0
380.714	1	7
381.055	1	5
381.397	1	4
381.739	1	16
382.080	1	-8
382.422	1	8
382.764	1	9
383.105	1	3
383.447	1	8
383.789	1	8
384.130	1	11
384.472	1	8
384.814	1	4
385.156	1	1
385.497	1	3
385.839	1	4
386.180	1	13
386.522	1	3
386.864	1	7
387.205	1	1
387.547	1	11
387.889	1	4
388.230	1	-2
388.572	1	5
388.914	1	6
389.255	1	-2
389.597	1	-4
389.939	1	8
390.280	1	14
390.622	1	1
390.963	1	7
391.305	1	-4
391.647	1	10
391.988	1	10
392.330	1	-2
392.671	1	4
393.013	1	7
393.355	1	5
393.696	1	-1
394.038	1	11
394.379	1	-3
394.721	1	23
395.062	1	-1
395.404	1	-7
395.746	1	15
396.087	1	11
396.429	1	12
396.770	1	2
397.112	1	8
397.453	1	6
397.795	1	-2
398.136	1	7
398.478	1	14
398.819	1	-3
399.161	1	2
399.503	1	17
399.844	1	-2
400.186	1	8
400.527	1	10
400.869	1	6
401.210	1	0
401.552	1	13
401.893	1	-5
402.235	1	13
402.576	1	8
402.918	1	13
403.259	1	-6
403.601	1	14
403.942	1	2
404.284	1	2
404.625	1	14
404.967	1	-4
405.308	1	-1
405.649	1	3
405.991	1	9
406.332	1	10
406.674	1	9
407.015	1	8
407.357	1	-4
407.698	1	9
408.040	1	7
408.381	1	14
408.722	1	7
409.064	1	5
409.405	1	17
409.747	1	-3
410.088	1	9
410.430	1	17
410.771	1	-19
411.112	1	9
411.454	1	3
411.795	1	7
412.137	1	-2
412.478	1	-5
412.819	1	9
413.161	1	16
413.502	1	18
413.844	1	4
414.185	1	12
414.526	1	9
414.868	1	0
415.209	1	0
415.550	1	-1
415.892	1	3
416.233	1	8
416.575	1	5
416.916	1	-8
417.257	1	3
417.599	1	-4
417.940	1	6
418.281	1	0
418.623	1	10
418.964	1	-2
419.305	1	1
419.647	1	9
419.988	1	10
420.329	1	7
420.671	1	2
421.012	1	10
421.353	1	0
421.695	1	3
422.036	1	4
422.377	1	9
422.718	1	11
423.060	1	2
423.401	1	9
423.742	1	5
424.084	1	10
424.425	1	7
424.766	1	7
425.107	1	8
425.449	1	3
425.790	1	9
426.131	1	9
426.472	1	-1
426.814	1	1
427.155	1	1
427.496	1	8
427.837	1	14
428.179	1	-1
428.520	1	8
428.861	1	-3
429.202	1	10
429.544	1	-1
429.885	1	6
430.226	1	-2
430.567	1	4
430.909	1	1
431.250	1	16
431.591	1	5
431.932	1	3
432.273	1	14
432.615	1	13
432.956	1	-5
433.297	1	11
433.638	1	2
433.979	1	12
434.320	1	6
434.662	1	8
435.003	1	14
435.344	1	9
435.685	1	3
436.026	1	0
436.368	1	0
436.709	1	0
437.050	1	8
437.391	1	10
437.732	1	18
438.073	1	2
438.414	1	9
438.756	1	-10
439.097	1	10
439.438	1	8
439.779	1	15
440.120	1	2
440.461	1	16
440.802	1	-6
441.143	1	2
441.485	1	4
441.826	1	4
442.167	1	6
442.508	1	2
442.849	1	4
443.190	1	8
443.531	1	7
443.872	1	11
444.213	1	10
444.554	1	0
444.895	1	2
445.237	1	-6
445.578	1	4
445.919	1	-2
446.260	1	10
446.601	1	11
446.942	1	4
447.283	1	4
447.624	1	-1
447.965	1	-1
448.306	1	4
448.647	1	22
448.988	1	-1
449.329	1	-1
449.670	1	0
450.011	1	7
450.352	1	7
450.693	1	4
451.034	1	-2
451.375	1	7
451.716	1	-8
452.057	1	12
452.398	1	-2
452.739	1	6
453.080	1	7
453.421	1	6
453.762	1	8
454.103	1	-1
454.444	1	10
454.785	1	6
455.126	1	1
455.467	1	1
455.808	1	3
456.149	1	-2
456.490	1	8
456.831	1	-6
457.172	1	0
457.513	1	2
457.854	1	3
458.195	1	-7
458.536	1	1
458.877	1	24
459.218	1	11
459.559	1	3
459.899	1	7
460.240	1	13
460.581	1	1
460.922	1	3
461.263	1	14
461.604	1	-9
461.945	1	13
462.286	1	9
462.627	1	8
462.968	1	-3
463.309	1	3
463.649	1	-1
463.990	1	8
464.331	1	0
464.672	1	2
465.013	1	3
465.354	1	0
465.695	1	5
466.036	1	-1
466.376	1	6
466.717	1	14
467.058	1	7
467.399	1	-2
467.740	1	12
468.081	1	11
468.422	1	16
468.762	1	-2
469.103	1	-2
469.444	1	-2
469.785	1	7
470.126	1	-7
470.467	1	3
470.807	1	1
471.148	1	8
471.489	1	0
471.830	1	5
472.171	1	4
472.511	1	6
472.852	1	3
473.193	1	10
473.534	1	6
473.875	1	13
474.215	1	2
474.556	1	12
474.897	1	-11
475.238	1	7
475.578	1	-5
475.919	1	-5
476.260	1	2
476.601	1	2
476.942	1	17
477.282	1	3
477.623	1	-10
477.964	1	-3
478.305	1	12
478.645	1	-1
478.986	1	-1
479.327	1	-3
479.667	1	9
480.008	1	-1
480.349	1	2
480.690	1	2
481.030	1	8
481.371	1	6
481.712	1	1
482.053	1	-3
482.393	1	11
482.734	1	-2
483.075	1	13
483.415	1	1
483.756	1	-2
484.097	1	-8
484.437	1	-7
484.778	1	10
485.119	1	9
485.459	1	-3
485.800	1	16
486.141	1	5
486.481	1	4
486.822	1	14
487.163	1	-6
487.503	1	-2
487.844	1	-3
488.185	1	8
488.525	1	6
488.866	1	5
489.207	1	7
489.547	1	11
489.888	1	10
490.228	1	6
490.569	1	9
490.910	1	0
491.250	1	5
491.591	1	-4
491.932	1	2
492.272	1	2
492.613	1	5
492.953	1	10
493.294	1	1
493.635	1	10
493.975	1	10
494.316	1	9
494.656	1	1
494.997	1	-5
495.337	1	5
495.678	1	-2
496.019	1	2
496.359	1	5
496.700	1	4
497.040	1	0
497.381	1	-1
497.721	1	2
498.062	1	1
498.403	1	-2
498.743	1	8
499.084	1	20
499.424	1	-4
499.765	1	8
500.105	1	8
500.446	1	8
500.786	1	10
501.127	1	3
501.467	1	-1
501.808	1	4
502.148	1	-3
502.489	1	8
502.829	1	-6
503.170	1	-4
503.510	1	3
503.851	1	2
504.191	1	4
504.532	1	-1
504.872	1	3
505.213	1	0
505.553	1	1
505.894	1	14
506.234	1	1
506.575	1	6
506.915	1	3
507.256	1	16
507.596	1	4
507.936	1	-1
508.277	1	3
508.617	1	7
508.958	1	13
509.298	1	4
509.639	1	1
509.979	1	-6
510.319	1	9
510.660	1	-12
511.000	1	5
511.341	1	-8
511.681	1	-3
512.022	1	8
512.362	1	-2
512.702	1	7
513.043	1	2
513.383	1	3
513.724	1	-1
514.064	1	-1
514.404	1	14
514.745	1	0
515.085	1	8
515.425	1	4
515.766	1	7
516.106	1	1
516.447	1	1
516.787	1	0
517.127	1	14
517.468	1	10
517.808	1	3
518.148	1	3
518.489	1	13
518.829	1	9
519.169	1	6
519.510	1	-5
519.850	1	15
520.190	1	3
520.531	1	13
520.871	1	-8
521.211	1	8
521.552	1	9
521.892	1	10
522.232	1	-8
522.573	1	3
522.913	1	12
523.253	1	7
523.593	1	16
523.934	1	5
524.274	1	-3
524.614	1	0
524.955	1	10
525.295	1	8
525.635	1	2
525.975	1	16
526.316	1	8
526.656	1	9
526.996	1	5
527.337	1	11
527.677	1	3
528.017	1	3
528.357	1	12
528.698	1	2
529.038	1	-2
529.378	1	11
529.718	1	12
530.058	1	2
530.399	1	7
530.739	1	6
531.079	1	10
531.419	1	12
531.760	1	-7
532.100	1	9
532.440	1	7
532.780	1	-4
533.120	1	3
533.461	1	-2
533.801	1	15
534.141	1	13
534.481	1	10
534.821	1	12
535.162	1	12
535.502	1	12
535.842	1	10
536.182	1	2
536.522	1	-3
536.862	1	-5
537.203	1	-9
537.543	1	8
537.883	1	-8
538.223	1	5
538.563	1	12
538.903	1	17
539.243	1	8
539.584	1	5
539.924	1	1
540.264	1	1
540.604	1	9
540.944	1	9
541.284	1	0
541.624	1	12
541.964	1	6
542.305	1	-1
542.645	1	4
542.985	1	3
543.325	1	4
543.665	1	11
544.005	1	10
544.345	1	8
544.685	1	3
545.025	1	0
545.365	1	10
545.705	1	5
546.045	1	7
546.386	1	2
546.726	1	-1
547.066	1	7
547.406	1	-2
547.746	1	5
548.086	1	-4
548.426	1	9
548.766	1	7
549.106	1	4
549.446	1	1
549.786	1	5
550.126	1	9
550.466	1	12
550.806	1	4
551.146	1	5
551.486	1	6
551.826	1	5
552.166	1	13
552.506	1	5
552.846	1	2
553.186	1	3
553.526	1	6
553.866	1	-17
554.206	1	2
554.546	1	13
554.886	1	1
555.226	1	2
555.566	1	7
555.906	1	1
556.246	1	4
556.586	1	9
556.926	1	1
557.266	1	4
557.606	1	3
557.946	1	7
558.286	1	14
558.626	1	-5
558.966	1	3
559.306	1	2
559.646	1	5
559.986	1	0
560.325	1	-8
560.665	1	9
561.005	1	5
561.345	1	7
561.685	1	-1
562.025	1	0
562.365	1	11
562.705	1	8
563.045	1	1
563.385	1	2
563.725	1	1
564.064	1	5
564.404	1	-2
564.744	1	1
565.084	1	2
565.424	1	4
565.764	1	2
566.104	1	9
566.444	1	14
566.783	1	12
567.123	1	6
567.463	1	7
567.803	1	15
568.143	1	16
568.483	1	8
568.823	1	-7
569.162	1	7
569.502	1	-6
569.842	1	3
570.182	1	-1
570.522	1	-9
570.862	1	12
571.201	1	-1
571.541	1	-5
571.881	1	-1
572.221	1	5
572.561	1	12
572.900	1	7
573.240	1	-7
573.580	1	10
573.920	1	3
574.260	1	5
574.599	1	6
574.939	1	4
575.279	1	-4
575.619	1	10
575.959	1	2
576.298	1	2
576.638	1	-4
576.978	1	-4
577.318	1	4
577.657	1	4
577.997	1	10
578.337	1	9
578.677	1	10
579.016	1	5
579.356	1	4
579.696	1	-7
580.036	1	5
580.375	1	-2
580.715	1	15
581.055	1	-3
581.394	1	2
581.734	1	11
582.074	1	-3
582.414	1	0
582.753	1	-2
583.093	1	8
583.433	1	7
583.772	1	12
584.112	1	12
584.452	1	6
584.791	1	2
585.131	1	16
585.471	1	5
585.811	1	0
586.150	1	14
586.490	1	-2
586.830	1	-8
587.169	1	9
587.509	1	0
587.849	1	3
588.188	1	8
588.528	1	11
588.867	1	10
589.207	1	4
589.547	1	-4
589.886	1	5
590.226	1	6
590.566	1	10
590.905	1	10
591.245	1	2
591.585	1	9
591.924	1	5
592.264	1	-3
592.603	1	1
592.943	1	-4
593.283	1	-4
593.622	1	4
593.962	1	6
594.301	1	-7
594.641	1	9
594.981	1	-5
595.320	1	11
595.660	1	0
595.999	1	9
596.339	1	3
596.678	1	-7
597.018	1	0
597.358	1	-5
597.697	1	3
598.037	1	11
598.376	1	-8
598.716	1	-1
599.055	1	-5
599.395	1	0
599.734	1	-4
600.074	1	0
600.413	1	4
600.753	1	-6
601.092	1	-7
601.432	1	-2
601.771	1	9
602.111	1	-1
602.451	1	0
602.790	1	0
603.130	1	9
603.469	1	2
603.809	1	5
604.148	1	-1
604.487	1	13
604.827	1	1
605.166	1	9
605.506	1	5
605.845	1	-4
606.185	1	9
606.524	1	-3
606.864	1	19
607.203	1	-4
607.543	1	-2
607.882	1	17
608.222	1	-11
608.561	1	3
608.901	1	9
609.240	1	-4
609.579	1	7
609.919	1	7
610.258	1	2
610.598	1	1
610.937	1	10
611.277	1	2
611.616	1	5
611.955	1	-5
612.295	1	5
612.634	1	-2
612.974	1	6
613.313	1	-5
613.652	1	-8
613.992	1	1
614.331	1	9
614.671	1	5
615.010	1	5
615.349	1	9
615.689	1	9
616.028	1	7
616.368	1	2
616.707	1	8
617.046	1	13
617.386	1	-9
617.725	1	1
618.064	1	5
618.404	1	0
618.743	1	10
619.082	1	-4
619.422	1	1
619.761	1	10
620.100	1	-3
620.440	1	8
620.779	1	0
621.118	1	1
621.458	1	1
621.797	1	-5
622.136	1	13
622.476	1	2
622.815	1	-4
623.154	1	2
623.494	1	8
623.833	1	11
624.172	1	10
624.511	1	2
624.851	1	-4
625.190	1	-3
625.529	1	4
625.869	1	3
626.208	1	-2
626.547	1	9
626.886	1	-1
627.226	1	-3
627.565	1	5
627.904	1	7
628.243	1	9
628.583	1	-14
628.922	1	-3
629.261	1	-9
629.600	1	2
629.940	1	8
630.279	1	13
630.618	1	0
630.957	1	4
631.297	1	-1
631.636	1	12
631.975	1	2
632.314	1	3
632.653	1	1
632.993	1	3
633.332	1	3
633.671	1	-5
634.010	1	-3
634.349	1	-2
634.689	1	7
635.028	1	-1
635.367	1	4
635.706	1	4
636.045	1	19
636.384	1	-5
636.724	1	10
637.063	1	6
637.402	1	-2
637.741	1	8
638.080	1	8
638.419	1	18
638.759	1	-7
639.098	1	1
639.437	1	7
639.776	1	5
640.115	1	6
640.454	1	7
640.793	1	3
641.132	1	9
641.472	1	-1
641.811	1	1
642.150	1	-7
642.489	1	-5
642.828	1	5
643.167	1	8
643.506	1	10
643.845	1	-10
644.184	1	-5
644.524	1	-5
644.863	1	-8
645.202	1	15
645.541	1	5
645.880	1	6
646.219	1	2
646.558	1	0
646.897	1	3
647.236	1	1
647.575	1	4
647.914	1	-11
648.253	1	2
648.592	1	-6
648.931	1	-1
649.270	1	-9
649.610	1	2
649.949	1	6
650.288	1	12
650.627	1	5
650.966	1	6
651.305	1	1
651.644	1	6
651.983	1	-11
652.322	1	1
652.661	1	-1
653.000	1	0
653.339	1	6
653.678	1	12
654.017	1	-2
654.356	1	-1
654.695	1	10
655.034	1	-4
655.373	1	4
655.712	1	0
656.051	1	-3
656.390	1	4
656.729	1	-1
657.068	1	-1
657.406	1	4
657.745	1	10
658.084	1	-1
658.423	1	7
658.762	1	10
659.101	1	5
659.440	1	-3
659.779	1	2
660.118	1	-3
660.457	1	8
660.796	1	2
661.135	1	6
661.474	1	12
661.813	1	-5
662.152	1	2
662.491	1	17
662.829	1	14
663.168	1	0
663.507	1	2
663.846	1	4
664.185	1	-3
664.524	1	-2
664.863	1	0
665.202	1	2
665.541	1	-3
665.879	1	-3
666.218	1	4
666.557	1	5
666.896	1	9
667.235	1	1
667.574	1	13
667.913	1	15
668.251	1	-5
668.590	1	9
668.929	1	4
669.268	1	3
669.607	1	0
669.946	1	9
670.285	1	9
670.623	1	19
670.962	1	3
671.301	1	3
671.640	1	-1
671.979	1	2
672.317	1	7
672.656	1	-3
672.995	1	10
673.334	1	-1
673.673	1	1
674.011	1	7
674.350	1	9
674.689	1	11
675.028	1	6
675.367	1	-7
675.705	1	11
676.044	1	4
676.383	1	3
676.722	1	3
677.060	1	6
677.399	1	-1
677.738	1	7
678.077	1	3
678.416	1	-4
678.754	1	8
679.093	1	5
679.432	1	8
679.771	1	3
680.109	1	12
680.448	1	9
680.787	1	8
681.125	1	8
681.464	1	0
681.803	1	-2
682.142	1	-6
682.480	1	10
682.819	1	5
683.158	1	-1
683.496	1	5
683.835	1	-8
684.174	1	10
684.512	1	8
684.851	1	0
685.190	1	-3
685.529	1	-5
685.867	1	2
686.206	1	12
686.545	1	2
686.883	1	1
687.222	1	2
687.561	1	9
687.899	1	-2
688.238	1	10
688.577	1	-11
688.746	1	14