File: Data/GaN_130K_350ms/GaN_sample F_spot6_UVVIS_130 K_200um_350 ms 2x2mm1_310.txt
340.368	1	1
340.710	1	11
341.052	1	-9
341.394	1	3
341.737	1	7
342.079	1	7
342.421	1	5
342.763	1	6
343.105	1	-2
343.447	1	9
343.789	1	3
344.131	1	-2
344.473	1	6
344.815	1	-10
345.157	1	-9
345.499	1	-3
345.841	1	4
346.183	1	8
346.526	1	-7
346.868	1	6
347.210	1	1
347.552	1	-1
347.894	1	-1
348.236	1	-1
348.578	1	-2
348.920	1	6
349.262	1	1
349.604	1	8
349.946	1	6
350.288	1	-13
350.630	1	7
350.972	1	7
351.314	1	-9
351.656	1	8
351.998	1	1
352.340	1	6
352.682	1	2
353.024	1	-5
353.366	1	3
353.708	1	-6
354.050	1	5
354.392	1	-3
354.734	1	-7
355.076	1	3
355.418	1	2
355.760	1	11
356.102	1	-7
356.444	1	-12
356.785	1	6
357.127	1	8
357.469	1	2
357.811	1	9
358.153	1	-5
358.495	1	10
358.837	1	3
359.179	1	12
359.521	1	3
359.863	1	-9
360.205	1	2
360.547	1	-2
360.889	1	1
361.231	1	3
361.572	1	10
361.914	1	9
362.256	1	6
362.598	1	-4
362.940	1	0
363.282	1	13
363.624	1	2
363.966	1	15
364.308	1	10
364.649	1	11
364.991	1	7
365.333	1	-5
365.675	1	7
366.017	1	13
366.359	1	11
366.701	1	10
367.042	1	4
367.384	1	8
367.726	1	3
368.068	1	-1
368.410	1	0
368.752	1	12
369.093	1	5
369.435	1	10
369.777	1	7
370.119	1	13
370.461	1	6
370.803	1	7
371.144	1	10
371.486	1	7
371.828	1	9
372.170	1	9
372.512	1	9
372.853	1	-3
373.195	1	1
373.537	1	6
373.879	1	7
374.220	1	0
374.562	1	-2
374.904	1	12
375.246	1	9
375.588	1	4
375.929	1	-4
376.271	1	13
376.613	1	4
376.955	1	3
377.296	1	2
377.638	1	-10
377.980	1	4
378.321	1	6
378.663	1	6
379.005	1	16
379.347	1	-3
379.688	1	1
380.030	1	3
380.372	1	10
380.714	1	13
381.055	1	1
381.397	1	8
381.739	1	8
382.080	1	-1
382.422	1	14
382.764	1	-3
383.105	1	7
383.447	1	3
383.789	1	-1
384.130	1	6
384.472	1	14
384.814	1	-1
385.156	1	-1
385.497	1	-1
385.839	1	5
386.180	1	-1
386.522	1	2
386.864	1	5
387.205	1	12
387.547	1	2
387.889	1	-3
388.230	1	8
388.572	1	12
388.914	1	6
389.255	1	0
389.597	1	-10
389.939	1	6
390.280	1	11
390.622	1	7
390.963	1	3
391.305	1	6
391.647	1	0
391.988	1	18
392.330	1	3
392.671	1	-2
393.013	1	8
393.355	1	2
393.696	1	-3
394.038	1	10
394.379	1	1
394.721	1	6
395.062	1	-5
395.404	1	-6
395.746	1	11
396.087	1	10
396.429	1	4
396.770	1	7
397.112	1	14
397.453	1	12
397.795	1	-11
398.136	1	8
398.478	1	8
398.819	1	-6
399.161	1	5
399.503	1	7
399.844	1	-7
400.186	1	-1
400.527	1	7
400.869	1	5
401.210	1	-4
401.552	1	2
401.893	1	-8
402.235	1	5
402.576	1	1
402.918	1	10
403.259	1	-5
403.601	1	-1
403.942	1	1
404.284	1	-2
404.625	1	10
404.967	1	0
405.308	1	4
405.649	1	8
405.991	1	0
406.332	1	6
406.674	1	5
407.015	1	-2
407.357	1	1
407.698	1	-2
408.040	1	9
408.381	1	8
408.722	1	7
409.064	1	5
409.405	1	7
409.747	1	3
410.088	1	10
410.430	1	7
410.771	1	-15
411.112	1	10
411.454	1	4
411.795	1	10
412.137	1	-3
412.478	1	-6
412.819	1	-1
413.161	1	13
413.502	1	15
413.844	1	6
414.185	1	13
414.526	1	9
414.868	1	0
415.209	1	-7
415.550	1	2
415.892	1	3
416.233	1	7
416.575	1	9
416.916	1	-1
417.257	1	8
417.599	1	4
417.940	1	6
418.281	1	-5
418.623	1	5
418.964	1	-2
419.305	1	4
419.647	1	9
419.988	1	12
420.329	1	9
420.671	1	-6
421.012	1	4
421.353	1	-7
421.695	1	2
422.036	1	3
422.377	1	3
422.718	1	10
423.060	1	0
423.401	1	5
423.742	1	-1
424.084	1	11
424.425	1	2
424.766	1	-4
425.107	1	-3
425.449	1	4
425.790	1	14
426.131	1	26
426.472	1	16
426.814	1	1
427.155	1	-6
427.496	1	-3
427.837	1	10
428.179	1	10
428.520	1	2
428.861	1	0
429.202	1	4
429.544	1	6
429.885	1	6
430.226	1	-4
430.567	1	2
430.909	1	8
431.250	1	19
431.591	1	2
431.932	1	1
432.273	1	15
432.615	1	8
432.956	1	-4
433.297	1	14
433.638	1	6
433.979	1	8
434.320	1	7
434.662	1	2
435.003	1	8
435.344	1	5
435.685	1	-3
436.026	1	7
436.368	1	-4
436.709	1	-2
437.050	1	5
437.391	1	5
437.732	1	9
438.073	1	11
438.414	1	-4
438.756	1	5
439.097	1	2
439.438	1	-3
439.779	1	1
440.120	1	2
440.461	1	17
440.802	1	-12
441.143	1	-3
441.485	1	17
441.826	1	4
442.167	1	3
442.508	1	-3
442.849	1	2
443.190	1	-3
443.531	1	-2
443.872	1	8
444.213	1	-2
444.554	1	14
444.895	1	-2
445.237	1	-5
445.578	1	-5
445.919	1	2
446.260	1	12
446.601	1	6
446.942	1	1
447.283	1	8
447.624	1	5
447.965	1	-2
448.306	1	4
448.647	1	19
448.988	1	10
449.329	1	-3
449.670	1	-1
450.011	1	-3
450.352	1	9
450.693	1	-3
451.034	1	0
451.375	1	3
451.716	1	-9
452.057	1	7
452.398	1	-10
452.739	1	8
453.080	1	-5
453.421	1	-4
453.762	1	10
454.103	1	-2
454.444	1	6
454.785	1	6
455.126	1	-9
455.467	1	5
455.808	1	9
456.149	1	0
456.490	1	1
456.831	1	0
457.172	1	0
457.513	1	-16
457.854	1	2
458.195	1	-8
458.536	1	1
458.877	1	13
459.218	1	9
459.559	1	8
459.899	1	-2
460.240	1	14
460.581	1	1
460.922	1	7
461.263	1	5
461.604	1	-8
461.945	1	9
462.286	1	6
462.627	1	-3
462.968	1	4
463.309	1	5
463.649	1	-6
463.990	1	0
464.331	1	6
464.672	1	10
465.013	1	-5
465.354	1	3
465.695	1	7
466.036	1	-1
466.376	1	5
466.717	1	6
467.058	1	8
467.399	1	-6
467.740	1	9
468.081	1	16
468.422	1	5
468.762	1	-2
469.103	1	6
469.444	1	4
469.785	1	7
470.126	1	-9
470.467	1	3
470.807	1	7
471.148	1	-2
471.489	1	-2
471.830	1	11
472.171	1	6
472.511	1	-1
472.852	1	9
473.193	1	2
473.534	1	6
473.875	1	15
474.215	1	14
474.556	1	-2
474.897	1	-12
475.238	1	12
475.578	1	1
475.919	1	-6
476.260	1	-1
476.601	1	-1
476.942	1	2
477.282	1	8
477.623	1	-7
477.964	1	-5
478.305	1	20
478.645	1	-4
478.986	1	6
479.327	1	8
479.667	1	6
480.008	1	-7
480.349	1	-6
480.690	1	3
481.030	1	4
481.371	1	8
481.712	1	9
482.053	1	-3
482.393	1	16
482.734	1	2
483.075	1	9
483.415	1	-2
483.756	1	0
484.097	1	-3
484.437	1	2
484.778	1	13
485.119	1	8
485.459	1	-6
485.800	1	4
486.141	1	0
486.481	1	7
486.822	1	5
487.163	1	-1
487.503	1	-7
487.844	1	-3
488.185	1	3
488.525	1	8
488.866	1	3
489.207	1	-2
489.547	1	0
489.888	1	15
490.228	1	0
490.569	1	7
490.910	1	-4
491.250	1	5
491.591	1	-4
491.932	1	0
492.272	1	-5
492.613	1	-3
492.953	1	2
493.294	1	3
493.635	1	-9
493.975	1	10
494.316	1	2
494.656	1	6
494.997	1	-3
495.337	1	-8
495.678	1	-1
496.019	1	-5
496.359	1	12
496.700	1	3
497.040	1	-2
497.381	1	-2
497.721	1	-6
498.062	1	0
498.403	1	-6
498.743	1	11
499.084	1	4
499.424	1	0
499.765	1	0
500.105	1	6
500.446	1	6
500.786	1	8
501.127	1	7
501.467	1	-1
501.808	1	8
502.148	1	4
502.489	1	-5
502.829	1	3
503.170	1	-3
503.510	1	10
503.851	1	2
504.191	1	0
504.532	1	3
504.872	1	1
505.213	1	-1
505.553	1	0
505.894	1	9
506.234	1	-1
506.575	1	-1
506.915	1	1
507.256	1	6
507.596	1	-1
507.936	1	-1
508.277	1	-5
508.617	1	-3
508.958	1	9
509.298	1	-4
509.639	1	5
509.979	1	-8
510.319	1	13
510.660	1	-3
511.000	1	2
511.341	1	0
511.681	1	9
512.022	1	5
512.362	1	8
512.702	1	5
513.043	1	-1
513.383	1	1
513.724	1	-7
514.064	1	5
514.404	1	8
514.745	1	-1
515.085	1	10
515.425	1	-2
515.766	1	3
516.106	1	-1
516.447	1	4
516.787	1	-1
517.127	1	-2
517.468	1	-2
517.808	1	-1
518.148	1	5
518.489	1	0
518.829	1	5
519.169	1	8
519.510	1	2
519.850	1	13
520.190	1	11
520.531	1	6
520.871	1	1
521.211	1	4
521.552	1	-1
521.892	1	9
522.232	1	-4
522.573	1	1
522.913	1	12
523.253	1	5
523.593	1	7
523.934	1	5
524.274	1	0
524.614	1	7
524.955	1	8
525.295	1	0
525.635	1	5
525.975	1	22
526.316	1	-7
526.656	1	9
526.996	1	-3
527.337	1	9
527.677	1	-7
528.017	1	2
528.357	1	11
528.698	1	-3
529.038	1	-7
529.378	1	9
529.718	1	9
530.058	1	-11
530.399	1	10
530.739	1	1
531.079	1	12
531.419	1	-1
531.760	1	2
532.100	1	1
532.440	1	-2
532.780	1	3
533.120	1	9
533.461	1	4
533.801	1	14
534.141	1	8
534.481	1	12
534.821	1	5
535.162	1	15
535.502	1	5
535.842	1	10
536.182	1	9
536.522	1	-3
536.862	1	-2
537.203	1	-3
537.543	1	6
537.883	1	-11
538.223	1	4
538.563	1	14
538.903	1	7
539.243	1	-1
539.584	1	11
539.924	1	6
540.264	1	5
540.604	1	8
540.944	1	6
541.284	1	9
541.624	1	18
541.964	1	-3
542.305	1	5
542.645	1	1
542.985	1	8
543.325	1	0
543.665	1	6
544.005	1	14
544.345	1	-2
544.685	1	14
545.025	1	2
545.365	1	10
545.705	1	-3
546.045	1	9
546.386	1	3
546.726	1	-7
547.066	1	6
547.406	1	-8
547.746	1	2
548.086	1	5
548.426	1	7
548.766	1	7
549.106	1	-4
549.446	1	1
549.786	1	9
550.126	1	16
550.466	1	10
550.806	1	14
551.146	1	2
551.486	1	4
551.826	1	1
552.166	1	1
552.506	1	12
552.846	1	-5
553.186	1	5
553.526	1	4
553.866	1	-9
554.206	1	-2
554.546	1	5
554.886	1	-6
555.226	1	12
555.566	1	-2
555.906	1	6
556.246	1	3
556.586	1	1
556.926	1	-1
557.266	1	3
557.606	1	-3
557.946	1	0
558.286	1	8
558.626	1	-14
558.966	1	-2
559.306	1	3
559.646	1	6
559.986	1	3
560.325	1	-4
560.665	1	5
561.005	1	2
561.345	1	3
561.685	1	-2
562.025	1	0
562.365	1	11
562.705	1	7
563.045	1	-6
563.385	1	7
563.725	1	-1
564.064	1	12
564.404	1	6
564.744	1	3
565.084	1	-1
565.424	1	-10
565.764	1	8
566.104	1	0
566.444	1	10
566.783	1	14
567.123	1	6
567.463	1	-3
567.803	1	14
568.143	1	11
568.483	1	8
568.823	1	-5
569.162	1	10
569.502	1	7
569.842	1	1
570.182	1	-12
570.522	1	-12
570.862	1	8
571.201	1	9
571.541	1	-2
571.881	1	6
572.221	1	5
572.561	1	2
572.900	1	-5
573.240	1	1
573.580	1	3
573.920	1	11
574.260	1	-3
574.599	1	1
574.939	1	10
575.279	1	-10
575.619	1	3
575.959	1	1
576.298	1	8
576.638	1	-2
576.978	1	-5
577.318	1	0
577.657	1	9
577.997	1	2
578.337	1	2
578.677	1	7
579.016	1	0
579.356	1	10
579.696	1	-2
580.036	1	0
580.375	1	-2
580.715	1	2
581.055	1	5
581.394	1	5
581.734	1	8
582.074	1	-5
582.414	1	-1
582.753	1	5
583.093	1	-2
583.433	1	-2
583.772	1	-1
584.112	1	1
584.452	1	6
584.791	1	12
585.131	1	3
585.471	1	2
585.811	1	7
586.150	1	4
586.490	1	3
586.830	1	-6
587.169	1	12
587.509	1	13
587.849	1	2
588.188	1	9
588.528	1	13
588.867	1	6
589.207	1	-7
589.547	1	0
589.886	1	-1
590.226	1	10
590.566	1	1
590.905	1	14
591.245	1	-4
591.585	1	7
591.924	1	0
592.264	1	0
592.603	1	-1
592.943	1	4
593.283	1	-6
593.622	1	1
593.962	1	9
594.301	1	-13
594.641	1	8
594.981	1	-8
595.320	1	4
595.660	1	-2
595.999	1	-2
596.339	1	3
596.678	1	-5
597.018	1	2
597.358	1	-6
597.697	1	-3
598.037	1	3
598.376	1	0
598.716	1	-2
599.055	1	0
599.395	1	1
599.734	1	7
600.074	1	0
600.413	1	3
600.753	1	0
601.092	1	-7
601.432	1	-2
601.771	1	8
602.111	1	-5
602.451	1	3
602.790	1	-10
603.130	1	5
603.469	1	0
603.809	1	4
604.148	1	9
604.487	1	12
604.827	1	3
605.166	1	7
605.506	1	1
605.845	1	-7
606.185	1	4
606.524	1	5
606.864	1	16
607.203	1	-8
607.543	1	6
607.882	1	13
608.222	1	-5
608.561	1	-8
608.901	1	5
609.240	1	-5
609.579	1	4
609.919	1	2
610.258	1	9
610.598	1	0
610.937	1	10
611.277	1	1
611.616	1	0
611.955	1	4
612.295	1	3
612.634	1	0
612.974	1	7
613.313	1	-2
613.652	1	-9
613.992	1	-4
614.331	1	2
614.671	1	1
615.010	1	-4
615.349	1	0
615.689	1	4
616.028	1	7
616.368	1	5
616.707	1	10
617.046	1	6
617.386	1	-9
617.725	1	4
618.064	1	-4
618.404	1	-2
618.743	1	3
619.082	1	0
619.422	1	-6
619.761	1	1
620.100	1	-8
620.440	1	0
620.779	1	3
621.118	1	-1
621.458	1	8
621.797	1	-2
622.136	1	1
622.476	1	9
622.815	1	-7
623.154	1	3
623.494	1	8
623.833	1	11
624.172	1	-5
624.511	1	4
624.851	1	-5
625.190	1	-2
625.529	1	4
625.869	1	-1
626.208	1	-5
626.547	1	6
626.886	1	-11
627.226	1	3
627.565	1	2
627.904	1	4
628.243	1	7
628.583	1	-7
628.922	1	-1
629.261	1	-6
629.600	1	4
629.940	1	4
630.279	1	6
630.618	1	3
630.957	1	0
631.297	1	4
631.636	1	-3
631.975	1	4
632.314	1	-6
632.653	1	2
632.993	1	8
633.332	1	-5
633.671	1	-1
634.010	1	3
634.349	1	2
634.689	1	4
635.028	1	0
635.367	1	-6
635.706	1	-3
636.045	1	18
636.384	1	-1
636.724	1	4
637.063	1	7
637.402	1	2
637.741	1	13
638.080	1	11
638.419	1	3
638.759	1	-1
639.098	1	-6
639.437	1	7
639.776	1	-3
640.115	1	10
640.454	1	6
640.793	1	3
641.132	1	12
641.472	1	0
641.811	1	3
642.150	1	-6
642.489	1	-9
642.828	1	2
643.167	1	0
643.506	1	4
643.845	1	3
644.184	1	-7
644.524	1	-7
644.863	1	3
645.202	1	11
645.541	1	3
645.880	1	8
646.219	1	5
646.558	1	7
646.897	1	0
647.236	1	0
647.575	1	-7
647.914	1	-9
648.253	1	5
648.592	1	-4
648.931	1	-5
649.270	1	-1
649.610	1	4
649.949	1	2
650.288	1	11
650.627	1	8
650.966	1	1
651.305	1	-1
651.644	1	-1
651.983	1	1
652.322	1	2
652.661	1	-1
653.000	1	-4
653.339	1	11
653.678	1	-1
654.017	1	0
654.356	1	7
654.695	1	1
655.034	1	7
655.373	1	-9
655.712	1	-3
656.051	1	9
656.390	1	-10
656.729	1	6
657.068	1	1
657.406	1	0
657.745	1	-4
658.084	1	-5
658.423	1	3
658.762	1	18
659.101	1	11
659.440	1	-12
659.779	1	-3
660.118	1	-4
660.457	1	-3
660.796	1	-1
661.135	1	10
661.474	1	6
661.813	1	1
662.152	1	4
662.491	1	13
662.829	1	9
663.168	1	-2
663.507	1	-1
663.846	1	8
664.185	1	-9
664.524	1	-3
664.863	1	7
665.202	1	3
665.541	1	-4
665.879	1	-3
666.218	1	4
666.557	1	3
666.896	1	11
667.235	1	11
667.574	1	13
667.913	1	-2
668.251	1	4
668.590	1	7
668.929	1	-2
669.268	1	4
669.607	1	-1
669.946	1	4
670.285	1	1
670.623	1	10
670.962	1	-3
671.301	1	2
671.640	1	-1
671.979	1	-4
672.317	1	2
672.656	1	-3
672.995	1	-1
673.334	1	-2
673.673	1	2
674.011	1	7
674.350	1	-5
674.689	1	7
675.028	1	12
675.367	1	-2
675.705	1	14
676.044	1	-3
676.383	1	5
676.722	1	-5
677.060	1	0
677.399	1	5
677.738	1	-7
678.077	1	4
678.416	1	-2
678.754	1	1
679.093	1	6
679.432	1	0
679.771	1	1
680.109	1	0
680.448	1	2
680.787	1	3
681.125	1	10
681.464	1	1
681.803	1	-9
682.142	1	-1
682.480	1	8
682.819	1	0
683.158	1	-4
683.496	1	3
683.835	1	-1
684.174	1	14
684.512	1	13
684.851	1	6
685.190	1	1
685.529	1	-3
685.867	1	5
686.206	1	6
686.545	1	-2
686.883	1	1
687.222	1	-1
687.561	1	9
687.899	1	1
688.238	1	2
688.577	1	-4
688.746	1	5