File: Data/GaN_130K_350ms/GaN_sample F_spot6_UVVIS_130 K_200um_350 ms 2x2mm1_253.txt
340.368	1	6
340.710	1	7
341.052	1	-9
341.394	1	-8
341.737	1	1
342.079	1	0
342.421	1	4
342.763	1	4
343.105	1	11
343.447	1	6
343.789	1	2
344.131	1	8
344.473	1	2
344.815	1	-12
345.157	1	-8
345.499	1	0
345.841	1	2
346.183	1	5
346.526	1	-5
346.868	1	2
347.210	1	-1
347.552	1	-5
347.894	1	-1
348.236	1	-5
348.578	1	-2
348.920	1	0
349.262	1	1
349.604	1	12
349.946	1	8
350.288	1	-10
350.630	1	5
350.972	1	11
351.314	1	-5
351.656	1	2
351.998	1	8
352.340	1	9
352.682	1	1
353.024	1	-2
353.366	1	5
353.708	1	-7
354.050	1	-1
354.392	1	10
354.734	1	-14
355.076	1	9
355.418	1	0
355.760	1	4
356.102	1	3
356.444	1	-4
356.785	1	12
357.127	1	-2
357.469	1	1
357.811	1	4
358.153	1	3
358.495	1	6
358.837	1	2
359.179	1	4
359.521	1	-3
359.863	1	-5
360.205	1	3
360.547	1	-1
360.889	1	-3
361.231	1	-2
361.572	1	11
361.914	1	6
362.256	1	3
362.598	1	9
362.940	1	-7
363.282	1	13
363.624	1	3
363.966	1	21
364.308	1	9
364.649	1	18
364.991	1	7
365.333	1	2
365.675	1	9
366.017	1	9
366.359	1	13
366.701	1	6
367.042	1	20
367.384	1	21
367.726	1	11
368.068	1	5
368.410	1	-3
368.752	1	17
369.093	1	12
369.435	1	7
369.777	1	11
370.119	1	1
370.461	1	10
370.803	1	4
371.144	1	4
371.486	1	8
371.828	1	1
372.170	1	6
372.512	1	13
372.853	1	1
373.195	1	1
373.537	1	3
373.879	1	12
374.220	1	11
374.562	1	0
374.904	1	9
375.246	1	12
375.588	1	3
375.929	1	1
376.271	1	12
376.613	1	-6
376.955	1	11
377.296	1	9
377.638	1	-7
377.980	1	1
378.321	1	5
378.663	1	11
379.005	1	13
379.347	1	10
379.688	1	-2
380.030	1	4
380.372	1	10
380.714	1	9
381.055	1	11
381.397	1	8
381.739	1	6
382.080	1	0
382.422	1	11
382.764	1	5
383.105	1	3
383.447	1	5
383.789	1	12
384.130	1	10
384.472	1	13
384.814	1	0
385.156	1	7
385.497	1	7
385.839	1	11
386.180	1	14
386.522	1	6
386.864	1	14
387.205	1	4
387.547	1	8
387.889	1	-1
388.230	1	-9
388.572	1	13
388.914	1	-1
389.255	1	14
389.597	1	-10
389.939	1	14
390.280	1	8
390.622	1	3
390.963	1	8
391.305	1	6
391.647	1	5
391.988	1	11
392.330	1	0
392.671	1	-4
393.013	1	7
393.355	1	5
393.696	1	-4
394.038	1	9
394.379	1	9
394.721	1	6
395.062	1	1
395.404	1	-5
395.746	1	9
396.087	1	14
396.429	1	2
396.770	1	9
397.112	1	0
397.453	1	11
397.795	1	0
398.136	1	5
398.478	1	3
398.819	1	-8
399.161	1	4
399.503	1	22
399.844	1	4
400.186	1	-5
400.527	1	2
400.869	1	3
401.210	1	-11
401.552	1	16
401.893	1	-17
402.235	1	2
402.576	1	6
402.918	1	8
403.259	1	-4
403.601	1	1
403.942	1	2
404.284	1	-2
404.625	1	9
404.967	1	3
405.308	1	-1
405.649	1	2
405.991	1	9
406.332	1	12
406.674	1	15
407.015	1	4
407.357	1	3
407.698	1	2
408.040	1	8
408.381	1	15
408.722	1	-1
409.064	1	14
409.405	1	8
409.747	1	1
410.088	1	15
410.430	1	9
410.771	1	-8
411.112	1	6
411.454	1	3
411.795	1	6
412.137	1	-3
412.478	1	-7
412.819	1	4
413.161	1	6
413.502	1	5
413.844	1	10
414.185	1	10
414.526	1	6
414.868	1	2
415.209	1	0
415.550	1	3
415.892	1	11
416.233	1	16
416.575	1	6
416.916	1	6
417.257	1	-1
417.599	1	-1
417.940	1	9
418.281	1	2
418.623	1	5
418.964	1	0
419.305	1	-3
419.647	1	2
419.988	1	12
420.329	1	8
420.671	1	3
421.012	1	-1
421.353	1	4
421.695	1	4
422.036	1	13
422.377	1	12
422.718	1	6
423.060	1	9
423.401	1	14
423.742	1	0
424.084	1	3
424.425	1	-5
424.766	1	6
425.107	1	16
425.449	1	6
425.790	1	5
426.131	1	12
426.472	1	5
426.814	1	7
427.155	1	-9
427.496	1	3
427.837	1	7
428.179	1	-1
428.520	1	9
428.861	1	2
429.202	1	0
429.544	1	10
429.885	1	3
430.226	1	2
430.567	1	7
430.909	1	-4
431.250	1	12
431.591	1	2
431.932	1	-3
432.273	1	6
432.615	1	12
432.956	1	0
433.297	1	14
433.638	1	4
433.979	1	0
434.320	1	11
434.662	1	4
435.003	1	9
435.344	1	11
435.685	1	2
436.026	1	8
436.368	1	-2
436.709	1	-3
437.050	1	0
437.391	1	16
437.732	1	0
438.073	1	5
438.414	1	-2
438.756	1	5
439.097	1	1
439.438	1	10
439.779	1	8
440.120	1	4
440.461	1	19
440.802	1	-9
441.143	1	-5
441.485	1	4
441.826	1	-7
442.167	1	3
442.508	1	-2
442.849	1	6
443.190	1	12
443.531	1	-6
443.872	1	7
444.213	1	-3
444.554	1	6
444.895	1	2
445.237	1	-6
445.578	1	-1
445.919	1	-9
446.260	1	6
446.601	1	6
446.942	1	1
447.283	1	8
447.624	1	4
447.965	1	6
448.306	1	3
448.647	1	8
448.988	1	3
449.329	1	-5
449.670	1	3
450.011	1	2
450.352	1	5
450.693	1	-1
451.034	1	-2
451.375	1	2
451.716	1	1
452.057	1	6
452.398	1	-4
452.739	1	3
453.080	1	1
453.421	1	3
453.762	1	4
454.103	1	3
454.444	1	6
454.785	1	10
455.126	1	-10
455.467	1	1
455.808	1	6
456.149	1	-6
456.490	1	2
456.831	1	2
457.172	1	-2
457.513	1	-7
457.854	1	3
458.195	1	-1
458.536	1	2
458.877	1	24
459.218	1	12
459.559	1	-4
459.899	1	4
460.240	1	5
460.581	1	-3
460.922	1	5
461.263	1	3
461.604	1	-15
461.945	1	6
462.286	1	6
462.627	1	-4
462.968	1	3
463.309	1	1
463.649	1	-4
463.990	1	1
464.331	1	13
464.672	1	6
465.013	1	-10
465.354	1	9
465.695	1	9
466.036	1	6
466.376	1	3
466.717	1	1
467.058	1	3
467.399	1	-4
467.740	1	22
468.081	1	4
468.422	1	3
468.762	1	3
469.103	1	1
469.444	1	4
469.785	1	-2
470.126	1	-10
470.467	1	1
470.807	1	5
471.148	1	-2
471.489	1	-4
471.830	1	1
472.171	1	7
472.511	1	7
472.852	1	2
473.193	1	6
473.534	1	2
473.875	1	5
474.215	1	3
474.556	1	-4
474.897	1	-15
475.238	1	9
475.578	1	2
475.919	1	0
476.260	1	4
476.601	1	1
476.942	1	11
477.282	1	7
477.623	1	-10
477.964	1	-6
478.305	1	8
478.645	1	7
478.986	1	0
479.327	1	1
479.667	1	4
480.008	1	-11
480.349	1	-1
480.690	1	11
481.030	1	-1
481.371	1	5
481.712	1	6
482.053	1	-7
482.393	1	8
482.734	1	5
483.075	1	12
483.415	1	3
483.756	1	-7
484.097	1	3
484.437	1	-1
484.778	1	8
485.119	1	12
485.459	1	-8
485.800	1	5
486.141	1	0
486.481	1	-6
486.822	1	2
487.163	1	3
487.503	1	0
487.844	1	-3
488.185	1	5
488.525	1	4
488.866	1	11
489.207	1	-5
489.547	1	4
489.888	1	9
490.228	1	1
490.569	1	3
490.910	1	-9
491.250	1	10
491.591	1	-4
491.932	1	5
492.272	1	6
492.613	1	-2
492.953	1	3
493.294	1	0
493.635	1	3
493.975	1	12
494.316	1	-10
494.656	1	-3
494.997	1	0
495.337	1	-6
495.678	1	-2
496.019	1	-4
496.359	1	8
496.700	1	-1
497.040	1	10
497.381	1	3
497.721	1	3
498.062	1	-5
498.403	1	-2
498.743	1	15
499.084	1	9
499.424	1	-4
499.765	1	-3
500.105	1	9
500.446	1	12
500.786	1	7
501.127	1	10
501.467	1	5
501.808	1	4
502.148	1	14
502.489	1	5
502.829	1	11
503.170	1	-2
503.510	1	-4
503.851	1	-1
504.191	1	2
504.532	1	10
504.872	1	11
505.213	1	4
505.553	1	4
505.894	1	9
506.234	1	7
506.575	1	0
506.915	1	5
507.256	1	4
507.596	1	-6
507.936	1	-4
508.277	1	1
508.617	1	-2
508.958	1	12
509.298	1	7
509.639	1	8
509.979	1	-1
510.319	1	6
510.660	1	-6
511.000	1	6
511.341	1	3
511.681	1	11
512.022	1	4
512.362	1	-1
512.702	1	17
513.043	1	5
513.383	1	9
513.724	1	-10
514.064	1	-7
514.404	1	0
514.745	1	6
515.085	1	14
515.425	1	5
515.766	1	4
516.106	1	-1
516.447	1	-2
516.787	1	6
517.127	1	1
517.468	1	1
517.808	1	7
518.148	1	7
518.489	1	5
518.829	1	11
519.169	1	5
519.510	1	0
519.850	1	7
520.190	1	10
520.531	1	8
520.871	1	-13
521.211	1	7
521.552	1	1
521.892	1	6
522.232	1	-5
522.573	1	0
522.913	1	5
523.253	1	8
523.593	1	10
523.934	1	-2
524.274	1	5
524.614	1	13
524.955	1	12
525.295	1	11
525.635	1	4
525.975	1	13
526.316	1	3
526.656	1	2
526.996	1	-3
527.337	1	10
527.677	1	-7
528.017	1	-6
528.357	1	17
528.698	1	-8
529.038	1	-5
529.378	1	9
529.718	1	9
530.058	1	0
530.399	1	8
530.739	1	3
531.079	1	5
531.419	1	7
531.760	1	3
532.100	1	4
532.440	1	20
532.780	1	2
533.120	1	1
533.461	1	0
533.801	1	17
534.141	1	8
534.481	1	0
534.821	1	14
535.162	1	14
535.502	1	7
535.842	1	3
536.182	1	17
536.522	1	2
536.862	1	-2
537.203	1	-2
537.543	1	4
537.883	1	-2
538.223	1	11
538.563	1	3
538.903	1	12
539.243	1	-2
539.584	1	11
539.924	1	9
540.264	1	-2
540.604	1	16
540.944	1	4
541.284	1	10
541.624	1	15
541.964	1	2
542.305	1	-1
542.645	1	-2
542.985	1	14
543.325	1	5
543.665	1	10
544.005	1	10
544.345	1	3
544.685	1	4
545.025	1	0
545.365	1	6
545.705	1	3
546.045	1	2
546.386	1	4
546.726	1	-4
547.066	1	-7
547.406	1	-19
547.746	1	3
548.086	1	0
548.426	1	6
548.766	1	4
549.106	1	-4
549.446	1	1
549.786	1	7
550.126	1	8
550.466	1	20
550.806	1	11
551.146	1	6
551.486	1	10
551.826	1	-2
552.166	1	7
552.506	1	7
552.846	1	0
553.186	1	0
553.526	1	2
553.866	1	-8
554.206	1	5
554.546	1	13
554.886	1	4
555.226	1	6
555.566	1	8
555.906	1	0
556.246	1	3
556.586	1	1
556.926	1	6
557.266	1	5
557.606	1	-1
557.946	1	5
558.286	1	8
558.626	1	-3
558.966	1	10
559.306	1	7
559.646	1	6
559.986	1	3
560.325	1	-5
560.665	1	3
561.005	1	-5
561.345	1	9
561.685	1	2
562.025	1	7
562.365	1	8
562.705	1	3
563.045	1	-1
563.385	1	1
563.725	1	-4
564.064	1	10
564.404	1	2
564.744	1	1
565.084	1	5
565.424	1	1
565.764	1	5
566.104	1	2
566.444	1	14
566.783	1	8
567.123	1	8
567.463	1	-5
567.803	1	9
568.143	1	7
568.483	1	8
568.823	1	-9
569.162	1	4
569.502	1	-6
569.842	1	-3
570.182	1	9
570.522	1	-15
570.862	1	13
571.201	1	1
571.541	1	-8
571.881	1	-1
572.221	1	8
572.561	1	5
572.900	1	2
573.240	1	-2
573.580	1	10
573.920	1	6
574.260	1	1
574.599	1	5
574.939	1	7
575.279	1	-7
575.619	1	9
575.959	1	9
576.298	1	-2
576.638	1	3
576.978	1	-2
577.318	1	12
577.657	1	11
577.997	1	4
578.337	1	3
578.677	1	13
579.016	1	1
579.356	1	6
579.696	1	3
580.036	1	4
580.375	1	0
580.715	1	9
581.055	1	-3
581.394	1	2
581.734	1	6
582.074	1	-8
582.414	1	-3
582.753	1	-1
583.093	1	7
583.433	1	-8
583.772	1	7
584.112	1	-2
584.452	1	11
584.791	1	3
585.131	1	9
585.471	1	0
585.811	1	6
586.150	1	9
586.490	1	-1
586.830	1	-11
587.169	1	-1
587.509	1	4
587.849	1	3
588.188	1	10
588.528	1	8
588.867	1	9
589.207	1	-2
589.547	1	-4
589.886	1	3
590.226	1	3
590.566	1	3
590.905	1	7
591.245	1	5
591.585	1	2
591.924	1	1
592.264	1	6
592.603	1	8
592.943	1	2
593.283	1	-6
593.622	1	1
593.962	1	0
594.301	1	-8
594.641	1	5
594.981	1	-10
595.320	1	9
595.660	1	0
595.999	1	15
596.339	1	5
596.678	1	1
597.018	1	-1
597.358	1	-2
597.697	1	3
598.037	1	5
598.376	1	-3
598.716	1	3
599.055	1	2
599.395	1	5
599.734	1	-2
600.074	1	3
600.413	1	8
600.753	1	-8
601.092	1	-4
601.432	1	-10
601.771	1	11
602.111	1	-4
602.451	1	2
602.790	1	2
603.130	1	0
603.469	1	0
603.809	1	-2
604.148	1	2
604.487	1	1
604.827	1	3
605.166	1	7
605.506	1	5
605.845	1	-4
606.185	1	2
606.524	1	4
606.864	1	12
607.203	1	-9
607.543	1	-3
607.882	1	14
608.222	1	-10
608.561	1	1
608.901	1	2
609.240	1	0
609.579	1	6
609.919	1	5
610.258	1	-2
610.598	1	6
610.937	1	6
611.277	1	3
611.616	1	-7
611.955	1	0
612.295	1	10
612.634	1	4
612.974	1	2
613.313	1	-3
613.652	1	-6
613.992	1	5
614.331	1	3
614.671	1	-4
615.010	1	2
615.349	1	10
615.689	1	-3
616.028	1	13
616.368	1	14
616.707	1	7
617.046	1	7
617.386	1	-6
617.725	1	5
618.064	1	3
618.404	1	1
618.743	1	10
619.082	1	8
619.422	1	-5
619.761	1	5
620.100	1	2
620.440	1	6
620.779	1	5
621.118	1	0
621.458	1	8
621.797	1	-4
622.136	1	11
622.476	1	7
622.815	1	-8
623.154	1	-5
623.494	1	13
623.833	1	8
624.172	1	-8
624.511	1	10
624.851	1	4
625.190	1	-3
625.529	1	-4
625.869	1	10
626.208	1	6
626.547	1	11
626.886	1	11
627.226	1	-2
627.565	1	1
627.904	1	6
628.243	1	10
628.583	1	-5
628.922	1	-7
629.261	1	-10
629.600	1	3
629.940	1	7
630.279	1	13
630.618	1	0
630.957	1	5
631.297	1	1
631.636	1	7
631.975	1	1
632.314	1	-2
632.653	1	4
632.993	1	17
633.332	1	3
633.671	1	-8
634.010	1	-2
634.349	1	-2
634.689	1	6
635.028	1	15
635.367	1	3
635.706	1	-2
636.045	1	6
636.384	1	1
636.724	1	13
637.063	1	7
637.402	1	-6
637.741	1	4
638.080	1	11
638.419	1	8
638.759	1	1
639.098	1	-4
639.437	1	8
639.776	1	-4
640.115	1	9
640.454	1	-2
640.793	1	-5
641.132	1	9
641.472	1	3
641.811	1	-6
642.150	1	-13
642.489	1	-6
642.828	1	2
643.167	1	5
643.506	1	10
643.845	1	0
644.184	1	-12
644.524	1	1
644.863	1	2
645.202	1	4
645.541	1	-8
645.880	1	8
646.219	1	8
646.558	1	4
646.897	1	-2
647.236	1	-6
647.575	1	-3
647.914	1	-5
648.253	1	1
648.592	1	0
648.931	1	-3
649.270	1	-1
649.610	1	-9
649.949	1	2
650.288	1	7
650.627	1	-1
650.966	1	10
651.305	1	9
651.644	1	-3
651.983	1	-5
652.322	1	-9
652.661	1	1
653.000	1	4
653.339	1	0
653.678	1	-3
654.017	1	-6
654.356	1	14
654.695	1	8
655.034	1	3
655.373	1	1
655.712	1	0
656.051	1	-6
656.390	1	0
656.729	1	8
657.068	1	3
657.406	1	6
657.745	1	-6
658.084	1	-6
658.423	1	1
658.762	1	19
659.101	1	-2
659.440	1	-5
659.779	1	12
660.118	1	-3
660.457	1	-5
660.796	1	6
661.135	1	12
661.474	1	-2
661.813	1	-4
662.152	1	-2
662.491	1	14
662.829	1	6
663.168	1	1
663.507	1	7
663.846	1	-1
664.185	1	0
664.524	1	3
664.863	1	4
665.202	1	-1
665.541	1	-8
665.879	1	1
666.218	1	6
666.557	1	3
666.896	1	2
667.235	1	6
667.574	1	18
667.913	1	6
668.251	1	4
668.590	1	7
668.929	1	3
669.268	1	-2
669.607	1	-4
669.946	1	5
670.285	1	7
670.623	1	12
670.962	1	0
671.301	1	-3
671.640	1	-3
671.979	1	-5
672.317	1	-10
672.656	1	-5
672.995	1	6
673.334	1	-14
673.673	1	10
674.011	1	-10
674.350	1	8
674.689	1	16
675.028	1	5
675.367	1	-8
675.705	1	6
676.044	1	2
676.383	1	2
676.722	1	-5
677.060	1	-2
677.399	1	6
677.738	1	-10
678.077	1	4
678.416	1	0
678.754	1	8
679.093	1	-3
679.432	1	0
679.771	1	-2
680.109	1	-4
680.448	1	9
680.787	1	3
681.125	1	11
681.464	1	-11
681.803	1	-11
682.142	1	7
682.480	1	3
682.819	1	3
683.158	1	-1
683.496	1	-5
683.835	1	1
684.174	1	9
684.512	1	5
684.851	1	-10
685.190	1	4
685.529	1	-6
685.867	1	4
686.206	1	4
686.545	1	-4
686.883	1	3
687.222	1	7
687.561	1	15
687.899	1	-3
688.238	1	10
688.577	1	2
688.746	1	11