File: Data/GaN_130K_350ms/GaN_sample F_spot6_UVVIS_130 K_200um_350 ms 2x2mm1_146.txt
340.368	1	9
340.710	1	11
341.052	1	-4
341.394	1	4
341.737	1	5
342.079	1	5
342.421	1	8
342.763	1	2
343.105	1	12
343.447	1	4
343.789	1	8
344.131	1	1
344.473	1	-2
344.815	1	-8
345.157	1	-12
345.499	1	3
345.841	1	1
346.183	1	14
346.526	1	-5
346.868	1	2
347.210	1	10
347.552	1	-1
347.894	1	3
348.236	1	6
348.578	1	2
348.920	1	-2
349.262	1	12
349.604	1	4
349.946	1	3
350.288	1	-6
350.630	1	12
350.972	1	7
351.314	1	9
351.656	1	13
351.998	1	0
352.340	1	17
352.682	1	2
353.024	1	8
353.366	1	12
353.708	1	12
354.050	1	11
354.392	1	9
354.734	1	-1
355.076	1	4
355.418	1	3
355.760	1	10
356.102	1	-1
356.444	1	-6
356.785	1	17
357.127	1	8
357.469	1	2
357.811	1	13
358.153	1	1
358.495	1	15
358.837	1	12
359.179	1	-2
359.521	1	1
359.863	1	8
360.205	1	11
360.547	1	8
360.889	1	9
361.231	1	17
361.572	1	14
361.914	1	10
362.256	1	11
362.598	1	19
362.940	1	3
363.282	1	30
363.624	1	20
363.966	1	29
364.308	1	20
364.649	1	26
364.991	1	26
365.333	1	22
365.675	1	36
366.017	1	26
366.359	1	35
366.701	1	45
367.042	1	46
367.384	1	48
367.726	1	33
368.068	1	32
368.410	1	32
368.752	1	37
369.093	1	40
369.435	1	33
369.777	1	34
370.119	1	36
370.461	1	29
370.803	1	29
371.144	1	27
371.486	1	34
371.828	1	29
372.170	1	33
372.512	1	43
372.853	1	27
373.195	1	30
373.537	1	33
373.879	1	28
374.220	1	22
374.562	1	15
374.904	1	20
375.246	1	21
375.588	1	14
375.929	1	9
376.271	1	27
376.613	1	7
376.955	1	13
377.296	1	13
377.638	1	11
377.980	1	5
378.321	1	19
378.663	1	14
379.005	1	32
379.347	1	1
379.688	1	10
380.030	1	9
380.372	1	14
380.714	1	18
381.055	1	8
381.397	1	16
381.739	1	8
382.080	1	7
382.422	1	19
382.764	1	9
383.105	1	9
383.447	1	20
383.789	1	12
384.130	1	16
384.472	1	16
384.814	1	6
385.156	1	2
385.497	1	1
385.839	1	20
386.180	1	18
386.522	1	12
386.864	1	12
387.205	1	4
387.547	1	8
387.889	1	6
388.230	1	4
388.572	1	11
388.914	1	15
389.255	1	11
389.597	1	-8
389.939	1	8
390.280	1	7
390.622	1	13
390.963	1	16
391.305	1	16
391.647	1	7
391.988	1	15
392.330	1	4
392.671	1	0
393.013	1	10
393.355	1	8
393.696	1	5
394.038	1	14
394.379	1	15
394.721	1	15
395.062	1	4
395.404	1	-1
395.746	1	20
396.087	1	15
396.429	1	13
396.770	1	16
397.112	1	12
397.453	1	19
397.795	1	1
398.136	1	0
398.478	1	10
398.819	1	-3
399.161	1	12
399.503	1	10
399.844	1	6
400.186	1	-4
400.527	1	14
400.869	1	8
401.210	1	10
401.552	1	11
401.893	1	1
402.235	1	5
402.576	1	9
402.918	1	12
403.259	1	0
403.601	1	11
403.942	1	-2
404.284	1	6
404.625	1	19
404.967	1	5
405.308	1	1
405.649	1	9
405.991	1	11
406.332	1	12
406.674	1	15
407.015	1	4
407.357	1	7
407.698	1	3
408.040	1	7
408.381	1	16
408.722	1	9
409.064	1	13
409.405	1	7
409.747	1	2
410.088	1	15
410.430	1	17
410.771	1	-8
411.112	1	23
411.454	1	15
411.795	1	9
412.137	1	0
412.478	1	17
412.819	1	14
413.161	1	24
413.502	1	25
413.844	1	3
414.185	1	13
414.526	1	4
414.868	1	4
415.209	1	2
415.550	1	-2
415.892	1	14
416.233	1	15
416.575	1	15
416.916	1	9
417.257	1	7
417.599	1	8
417.940	1	17
418.281	1	3
418.623	1	16
418.964	1	8
419.305	1	0
419.647	1	12
419.988	1	25
420.329	1	9
420.671	1	-3
421.012	1	5
421.353	1	11
421.695	1	0
422.036	1	2
422.377	1	19
422.718	1	10
423.060	1	7
423.401	1	7
423.742	1	6
424.084	1	8
424.425	1	8
424.766	1	-4
425.107	1	13
425.449	1	1
425.790	1	17
426.131	1	26
426.472	1	4
426.814	1	10
427.155	1	5
427.496	1	13
427.837	1	8
428.179	1	0
428.520	1	9
428.861	1	-5
429.202	1	10
429.544	1	15
429.885	1	14
430.226	1	3
430.567	1	7
430.909	1	8
431.250	1	13
431.591	1	9
431.932	1	5
432.273	1	12
432.615	1	17
432.956	1	-1
433.297	1	11
433.638	1	1
433.979	1	11
434.320	1	14
434.662	1	9
435.003	1	8
435.344	1	8
435.685	1	-6
436.026	1	6
436.368	1	2
436.709	1	4
437.050	1	5
437.391	1	13
437.732	1	6
438.073	1	16
438.414	1	-3
438.756	1	9
439.097	1	4
439.438	1	5
439.779	1	9
440.120	1	6
440.461	1	15
440.802	1	9
441.143	1	-4
441.485	1	10
441.826	1	6
442.167	1	7
442.508	1	3
442.849	1	13
443.190	1	4
443.531	1	7
443.872	1	8
444.213	1	4
444.554	1	6
444.895	1	2
445.237	1	-1
445.578	1	7
445.919	1	-2
446.260	1	14
446.601	1	9
446.942	1	11
447.283	1	9
447.624	1	3
447.965	1	4
448.306	1	10
448.647	1	17
448.988	1	6
449.329	1	1
449.670	1	2
450.011	1	2
450.352	1	14
450.693	1	8
451.034	1	-4
451.375	1	18
451.716	1	-4
452.057	1	11
452.398	1	-2
452.739	1	7
453.080	1	6
453.421	1	-2
453.762	1	3
454.103	1	3
454.444	1	8
454.785	1	9
455.126	1	-6
455.467	1	6
455.808	1	8
456.149	1	-4
456.490	1	3
456.831	1	6
457.172	1	11
457.513	1	-3
457.854	1	9
458.195	1	-6
458.536	1	-2
458.877	1	19
459.218	1	12
459.559	1	2
459.899	1	3
460.240	1	14
460.581	1	-1
460.922	1	4
461.263	1	5
461.604	1	-7
461.945	1	12
462.286	1	15
462.627	1	5
462.968	1	-4
463.309	1	4
463.649	1	2
463.990	1	9
464.331	1	13
464.672	1	5
465.013	1	2
465.354	1	13
465.695	1	13
466.036	1	6
466.376	1	8
466.717	1	4
467.058	1	21
467.399	1	4
467.740	1	20
468.081	1	8
468.422	1	11
468.762	1	2
469.103	1	7
469.444	1	-3
469.785	1	10
470.126	1	5
470.467	1	4
470.807	1	0
471.148	1	4
471.489	1	3
471.830	1	3
472.171	1	2
472.511	1	14
472.852	1	8
473.193	1	2
473.534	1	10
473.875	1	9
474.215	1	9
474.556	1	6
474.897	1	-5
475.238	1	17
475.578	1	9
475.919	1	-2
476.260	1	4
476.601	1	10
476.942	1	11
477.282	1	4
477.623	1	-9
477.964	1	-1
478.305	1	11
478.645	1	1
478.986	1	-2
479.327	1	-4
479.667	1	6
480.008	1	8
480.349	1	4
480.690	1	11
481.030	1	5
481.371	1	15
481.712	1	16
482.053	1	6
482.393	1	15
482.734	1	0
483.075	1	8
483.415	1	2
483.756	1	5
484.097	1	4
484.437	1	-2
484.778	1	14
485.119	1	5
485.459	1	-1
485.800	1	16
486.141	1	9
486.481	1	3
486.822	1	13
487.163	1	-3
487.503	1	-1
487.844	1	-4
488.185	1	13
488.525	1	13
488.866	1	15
489.207	1	0
489.547	1	7
489.888	1	15
490.228	1	-3
490.569	1	4
490.910	1	-3
491.250	1	7
491.591	1	3
491.932	1	11
492.272	1	11
492.613	1	4
492.953	1	-3
493.294	1	5
493.635	1	12
493.975	1	12
494.316	1	15
494.656	1	2
494.997	1	-3
495.337	1	9
495.678	1	9
496.019	1	4
496.359	1	16
496.700	1	9
497.040	1	13
497.381	1	5
497.721	1	10
498.062	1	2
498.403	1	0
498.743	1	11
499.084	1	6
499.424	1	5
499.765	1	16
500.105	1	5
500.446	1	1
500.786	1	9
501.127	1	13
501.467	1	5
501.808	1	8
502.148	1	11
502.489	1	2
502.829	1	2
503.170	1	3
503.510	1	13
503.851	1	1
504.191	1	9
504.532	1	19
504.872	1	12
505.213	1	17
505.553	1	9
505.894	1	12
506.234	1	5
506.575	1	8
506.915	1	10
507.256	1	24
507.596	1	1
507.936	1	5
508.277	1	5
508.617	1	10
508.958	1	18
509.298	1	5
509.639	1	11
509.979	1	15
510.319	1	24
510.660	1	2
511.000	1	12
511.341	1	9
511.681	1	11
512.022	1	11
512.362	1	7
512.702	1	21
513.043	1	9
513.383	1	15
513.724	1	4
514.064	1	8
514.404	1	16
514.745	1	9
515.085	1	15
515.425	1	12
515.766	1	15
516.106	1	14
516.447	1	12
516.787	1	18
517.127	1	14
517.468	1	15
517.808	1	19
518.148	1	19
518.489	1	11
518.829	1	6
519.169	1	17
519.510	1	6
519.850	1	15
520.190	1	31
520.531	1	20
520.871	1	5
521.211	1	17
521.552	1	14
521.892	1	14
522.232	1	14
522.573	1	9
522.913	1	26
523.253	1	17
523.593	1	26
523.934	1	10
524.274	1	3
524.614	1	22
524.955	1	20
525.295	1	17
525.635	1	8
525.975	1	17
526.316	1	8
526.656	1	18
526.996	1	20
527.337	1	28
527.677	1	6
528.017	1	17
528.357	1	13
528.698	1	8
529.038	1	7
529.378	1	10
529.718	1	19
530.058	1	8
530.399	1	14
530.739	1	15
531.079	1	25
531.419	1	16
531.760	1	13
532.100	1	17
532.440	1	16
532.780	1	14
533.120	1	12
533.461	1	4
533.801	1	30
534.141	1	13
534.481	1	12
534.821	1	23
535.162	1	19
535.502	1	19
535.842	1	17
536.182	1	20
536.522	1	10
536.862	1	12
537.203	1	4
537.543	1	22
537.883	1	7
538.223	1	13
538.563	1	23
538.903	1	26
539.243	1	21
539.584	1	19
539.924	1	12
540.264	1	4
540.604	1	26
540.944	1	12
541.284	1	6
541.624	1	13
541.964	1	12
542.305	1	11
542.645	1	11
542.985	1	18
543.325	1	19
543.665	1	12
544.005	1	18
544.345	1	21
544.685	1	15
545.025	1	10
545.365	1	11
545.705	1	14
546.045	1	15
546.386	1	9
546.726	1	18
547.066	1	17
547.406	1	6
547.746	1	11
548.086	1	6
548.426	1	13
548.766	1	9
549.106	1	8
549.446	1	2
549.786	1	11
550.126	1	22
550.466	1	18
550.806	1	22
551.146	1	3
551.486	1	22
551.826	1	10
552.166	1	26
552.506	1	8
552.846	1	13
553.186	1	14
553.526	1	22
553.866	1	3
554.206	1	0
554.546	1	8
554.886	1	10
555.226	1	11
555.566	1	12
555.906	1	13
556.246	1	12
556.586	1	9
556.926	1	8
557.266	1	12
557.606	1	7
557.946	1	10
558.286	1	16
558.626	1	-3
558.966	1	8
559.306	1	10
559.646	1	16
559.986	1	8
560.325	1	-2
560.665	1	10
561.005	1	18
561.345	1	13
561.685	1	11
562.025	1	10
562.365	1	5
562.705	1	17
563.045	1	4
563.385	1	9
563.725	1	11
564.064	1	14
564.404	1	7
564.744	1	1
565.084	1	10
565.424	1	-2
565.764	1	20
566.104	1	13
566.444	1	17
566.783	1	17
567.123	1	7
567.463	1	4
567.803	1	15
568.143	1	24
568.483	1	14
568.823	1	-5
569.162	1	14
569.502	1	7
569.842	1	8
570.182	1	4
570.522	1	-5
570.862	1	20
571.201	1	5
571.541	1	8
571.881	1	14
572.221	1	15
572.561	1	11
572.900	1	5
573.240	1	6
573.580	1	17
573.920	1	20
574.260	1	2
574.599	1	6
574.939	1	9
575.279	1	1
575.619	1	13
575.959	1	2
576.298	1	6
576.638	1	5
576.978	1	-4
577.318	1	1
577.657	1	11
577.997	1	16
578.337	1	2
578.677	1	17
579.016	1	2
579.356	1	5
579.696	1	5
580.036	1	4
580.375	1	4
580.715	1	13
581.055	1	5
581.394	1	-2
581.734	1	13
582.074	1	1
582.414	1	1
582.753	1	8
583.093	1	9
583.433	1	4
583.772	1	9
584.112	1	13
584.452	1	18
584.791	1	5
585.131	1	10
585.471	1	5
585.811	1	8
586.150	1	13
586.490	1	7
586.830	1	-3
587.169	1	11
587.509	1	6
587.849	1	9
588.188	1	17
588.528	1	7
588.867	1	14
589.207	1	1
589.547	1	-9
589.886	1	3
590.226	1	19
590.566	1	12
590.905	1	12
591.245	1	8
591.585	1	7
591.924	1	11
592.264	1	-1
592.603	1	10
592.943	1	2
593.283	1	-5
593.622	1	9
593.962	1	12
594.301	1	-7
594.641	1	3
594.981	1	-7
595.320	1	-1
595.660	1	11
595.999	1	6
596.339	1	5
596.678	1	4
597.018	1	7
597.358	1	-2
597.697	1	10
598.037	1	5
598.376	1	2
598.716	1	12
599.055	1	2
599.395	1	-3
599.734	1	-3
600.074	1	7
600.413	1	11
600.753	1	10
601.092	1	8
601.432	1	-2
601.771	1	4
602.111	1	8
602.451	1	3
602.790	1	7
603.130	1	13
603.469	1	2
603.809	1	9
604.148	1	7
604.487	1	10
604.827	1	-1
605.166	1	6
605.506	1	11
605.845	1	10
606.185	1	6
606.524	1	4
606.864	1	4
607.203	1	15
607.543	1	8
607.882	1	10
608.222	1	-5
608.561	1	0
608.901	1	9
609.240	1	0
609.579	1	-1
609.919	1	6
610.258	1	1
610.598	1	1
610.937	1	6
611.277	1	6
611.616	1	-6
611.955	1	-4
612.295	1	7
612.634	1	-3
612.974	1	17
613.313	1	0
613.652	1	-4
613.992	1	10
614.331	1	8
614.671	1	2
615.010	1	-1
615.349	1	11
615.689	1	8
616.028	1	11
616.368	1	10
616.707	1	8
617.046	1	8
617.386	1	-1
617.725	1	10
618.064	1	8
618.404	1	1
618.743	1	5
619.082	1	9
619.422	1	8
619.761	1	4
620.100	1	0
620.440	1	3
620.779	1	6
621.118	1	4
621.458	1	3
621.797	1	2
622.136	1	11
622.476	1	12
622.815	1	2
623.154	1	4
623.494	1	8
623.833	1	2
624.172	1	4
624.511	1	7
624.851	1	2
625.190	1	-2
625.529	1	0
625.869	1	3
626.208	1	0
626.547	1	7
626.886	1	0
627.226	1	6
627.565	1	3
627.904	1	4
628.243	1	14
628.583	1	-8
628.922	1	-5
629.261	1	-4
629.600	1	6
629.940	1	8
630.279	1	11
630.618	1	-1
630.957	1	4
631.297	1	2
631.636	1	3
631.975	1	4
632.314	1	11
632.653	1	8
632.993	1	15
633.332	1	4
633.671	1	1
634.010	1	-4
634.349	1	0
634.689	1	9
635.028	1	13
635.367	1	7
635.706	1	2
636.045	1	16
636.384	1	4
636.724	1	8
637.063	1	10
637.402	1	-15
637.741	1	16
638.080	1	9
638.419	1	-4
638.759	1	9
639.098	1	-3
639.437	1	10
639.776	1	1
640.115	1	10
640.454	1	5
640.793	1	0
641.132	1	14
641.472	1	5
641.811	1	9
642.150	1	-1
642.489	1	-2
642.828	1	-3
643.167	1	10
643.506	1	10
643.845	1	-10
644.184	1	-1
644.524	1	5
644.863	1	-5
645.202	1	4
645.541	1	4
645.880	1	9
646.219	1	-1
646.558	1	-4
646.897	1	-5
647.236	1	-2
647.575	1	-2
647.914	1	-5
648.253	1	3
648.592	1	-4
648.931	1	0
649.270	1	-6
649.610	1	6
649.949	1	4
650.288	1	16
650.627	1	5
650.966	1	2
651.305	1	-1
651.644	1	7
651.983	1	-13
652.322	1	-6
652.661	1	1
653.000	1	9
653.339	1	1
653.678	1	6
654.017	1	5
654.356	1	6
654.695	1	9
655.034	1	5
655.373	1	7
655.712	1	3
656.051	1	4
656.390	1	6
656.729	1	10
657.068	1	13
657.406	1	6
657.745	1	-1
658.084	1	10
658.423	1	8
658.762	1	10
659.101	1	2
659.440	1	-7
659.779	1	3
660.118	1	-3
660.457	1	-9
660.796	1	10
661.135	1	11
661.474	1	2
661.813	1	-6
662.152	1	1
662.491	1	17
662.829	1	9
663.168	1	-6
663.507	1	8
663.846	1	-4
664.185	1	-3
664.524	1	4
664.863	1	-2
665.202	1	0
665.541	1	-5
665.879	1	-2
666.218	1	4
666.557	1	3
666.896	1	11
667.235	1	5
667.574	1	4
667.913	1	6
668.251	1	8
668.590	1	7
668.929	1	14
669.268	1	-3
669.607	1	1
669.946	1	2
670.285	1	7
670.623	1	21
670.962	1	1
671.301	1	-4
671.640	1	5
671.979	1	0
672.317	1	6
672.656	1	0
672.995	1	9
673.334	1	-8
673.673	1	5
674.011	1	-2
674.350	1	9
674.689	1	7
675.028	1	19
675.367	1	6
675.705	1	5
676.044	1	4
676.383	1	9
676.722	1	3
677.060	1	11
677.399	1	-3
677.738	1	4
678.077	1	4
678.416	1	5
678.754	1	5
679.093	1	1
679.432	1	6
679.771	1	10
680.109	1	4
680.448	1	-3
680.787	1	12
681.125	1	8
681.464	1	-1
681.803	1	-6
682.142	1	-10
682.480	1	17
682.819	1	0
683.158	1	3
683.496	1	-7
683.835	1	-7
684.174	1	13
684.512	1	6
684.851	1	-1
685.190	1	-4
685.529	1	-1
685.867	1	5
686.206	1	3
686.545	1	2
686.883	1	7
687.222	1	5
687.561	1	13
687.899	1	6
688.238	1	13
688.577	1	5
688.746	1	2