File: Data/GaN_130K_350ms/GaN_sample F_spot6_UVVIS_130 K_200um_350 ms 2x2mm1_216.txt
340.368	1	8
340.710	1	14
341.052	1	8
341.394	1	-1
341.737	1	6
342.079	1	-2
342.421	1	4
342.763	1	9
343.105	1	3
343.447	1	3
343.789	1	9
344.131	1	9
344.473	1	5
344.815	1	-4
345.157	1	-12
345.499	1	-2
345.841	1	1
346.183	1	2
346.526	1	4
346.868	1	-1
347.210	1	-2
347.552	1	0
347.894	1	-3
348.236	1	-6
348.578	1	0
348.920	1	-4
349.262	1	13
349.604	1	14
349.946	1	1
350.288	1	-5
350.630	1	7
350.972	1	12
351.314	1	-2
351.656	1	14
351.998	1	6
352.340	1	11
352.682	1	1
353.024	1	5
353.366	1	5
353.708	1	-2
354.050	1	1
354.392	1	12
354.734	1	-3
355.076	1	7
355.418	1	5
355.760	1	0
356.102	1	1
356.444	1	-10
356.785	1	15
357.127	1	4
357.469	1	-4
357.811	1	1
358.153	1	-1
358.495	1	8
358.837	1	5
359.179	1	-1
359.521	1	-12
359.863	1	0
360.205	1	-1
360.547	1	-1
360.889	1	4
361.231	1	3
361.572	1	9
361.914	1	11
362.256	1	4
362.598	1	9
362.940	1	4
363.282	1	14
363.624	1	11
363.966	1	14
364.308	1	19
364.649	1	10
364.991	1	13
365.333	1	9
365.675	1	19
366.017	1	10
366.359	1	16
366.701	1	24
367.042	1	22
367.384	1	22
367.726	1	23
368.068	1	16
368.410	1	14
368.752	1	22
369.093	1	18
369.435	1	7
369.777	1	16
370.119	1	19
370.461	1	18
370.803	1	9
371.144	1	6
371.486	1	13
371.828	1	14
372.170	1	9
372.512	1	10
372.853	1	4
373.195	1	12
373.537	1	13
373.879	1	10
374.220	1	3
374.562	1	-1
374.904	1	11
375.246	1	17
375.588	1	13
375.929	1	-2
376.271	1	11
376.613	1	2
376.955	1	11
377.296	1	5
377.638	1	11
377.980	1	-9
378.321	1	1
378.663	1	3
379.005	1	13
379.347	1	16
379.688	1	4
380.030	1	5
380.372	1	12
380.714	1	22
381.055	1	15
381.397	1	4
381.739	1	6
382.080	1	4
382.422	1	9
382.764	1	1
383.105	1	11
383.447	1	3
383.789	1	5
384.130	1	8
384.472	1	9
384.814	1	-4
385.156	1	-1
385.497	1	3
385.839	1	9
386.180	1	16
386.522	1	2
386.864	1	4
387.205	1	-1
387.547	1	15
387.889	1	-2
388.230	1	9
388.572	1	9
388.914	1	14
389.255	1	3
389.597	1	-10
389.939	1	2
390.280	1	19
390.622	1	3
390.963	1	7
391.305	1	2
391.647	1	7
391.988	1	13
392.330	1	-6
392.671	1	-4
393.013	1	6
393.355	1	-6
393.696	1	-7
394.038	1	5
394.379	1	13
394.721	1	8
395.062	1	4
395.404	1	-4
395.746	1	3
396.087	1	11
396.429	1	1
396.770	1	7
397.112	1	6
397.453	1	11
397.795	1	9
398.136	1	-2
398.478	1	9
398.819	1	-10
399.161	1	4
399.503	1	11
399.844	1	-3
400.186	1	5
400.527	1	3
400.869	1	-2
401.210	1	-10
401.552	1	3
401.893	1	-5
402.235	1	21
402.576	1	4
402.918	1	9
403.259	1	0
403.601	1	13
403.942	1	2
404.284	1	8
404.625	1	11
404.967	1	7
405.308	1	5
405.649	1	11
405.991	1	5
406.332	1	4
406.674	1	17
407.015	1	3
407.357	1	8
407.698	1	1
408.040	1	9
408.381	1	11
408.722	1	8
409.064	1	0
409.405	1	15
409.747	1	0
410.088	1	21
410.430	1	9
410.771	1	-6
411.112	1	8
411.454	1	4
411.795	1	9
412.137	1	-1
412.478	1	-3
412.819	1	7
413.161	1	14
413.502	1	11
413.844	1	-2
414.185	1	0
414.526	1	9
414.868	1	2
415.209	1	-1
415.550	1	4
415.892	1	9
416.233	1	16
416.575	1	9
416.916	1	7
417.257	1	3
417.599	1	1
417.940	1	12
418.281	1	9
418.623	1	14
418.964	1	0
419.305	1	4
419.647	1	7
419.988	1	16
420.329	1	7
420.671	1	-3
421.012	1	4
421.353	1	2
421.695	1	-1
422.036	1	11
422.377	1	7
422.718	1	-2
423.060	1	8
423.401	1	10
423.742	1	2
424.084	1	6
424.425	1	10
424.766	1	2
425.107	1	7
425.449	1	9
425.790	1	8
426.131	1	20
426.472	1	6
426.814	1	2
427.155	1	1
427.496	1	0
427.837	1	3
428.179	1	5
428.520	1	9
428.861	1	2
429.202	1	10
429.544	1	17
429.885	1	9
430.226	1	0
430.567	1	8
430.909	1	3
431.250	1	11
431.591	1	1
431.932	1	5
432.273	1	4
432.615	1	7
432.956	1	-3
433.297	1	8
433.638	1	5
433.979	1	4
434.320	1	11
434.662	1	0
435.003	1	14
435.344	1	2
435.685	1	-4
436.026	1	13
436.368	1	0
436.709	1	8
437.050	1	4
437.391	1	17
437.732	1	4
438.073	1	14
438.414	1	0
438.756	1	-5
439.097	1	12
439.438	1	4
439.779	1	12
440.120	1	10
440.461	1	16
440.802	1	-10
441.143	1	-8
441.485	1	8
441.826	1	4
442.167	1	7
442.508	1	-2
442.849	1	6
443.190	1	6
443.531	1	4
443.872	1	16
444.213	1	-1
444.554	1	6
444.895	1	-2
445.237	1	-3
445.578	1	-7
445.919	1	3
446.260	1	2
446.601	1	13
446.942	1	0
447.283	1	8
447.624	1	5
447.965	1	7
448.306	1	-3
448.647	1	12
448.988	1	6
449.329	1	-9
449.670	1	-2
450.011	1	-3
450.352	1	1
450.693	1	-5
451.034	1	-2
451.375	1	13
451.716	1	1
452.057	1	19
452.398	1	-12
452.739	1	8
453.080	1	-3
453.421	1	5
453.762	1	11
454.103	1	-1
454.444	1	9
454.785	1	6
455.126	1	-3
455.467	1	4
455.808	1	14
456.149	1	-6
456.490	1	7
456.831	1	9
457.172	1	-4
457.513	1	2
457.854	1	4
458.195	1	-3
458.536	1	1
458.877	1	20
459.218	1	8
459.559	1	1
459.899	1	1
460.240	1	11
460.581	1	-5
460.922	1	7
461.263	1	8
461.604	1	-9
461.945	1	14
462.286	1	7
462.627	1	-1
462.968	1	8
463.309	1	-2
463.649	1	-9
463.990	1	5
464.331	1	8
464.672	1	10
465.013	1	-12
465.354	1	-2
465.695	1	0
466.036	1	7
466.376	1	8
466.717	1	10
467.058	1	8
467.399	1	-5
467.740	1	12
468.081	1	7
468.422	1	7
468.762	1	0
469.103	1	-7
469.444	1	-2
469.785	1	6
470.126	1	-10
470.467	1	9
470.807	1	1
471.148	1	2
471.489	1	-3
471.830	1	4
472.171	1	3
472.511	1	4
472.852	1	5
473.193	1	8
473.534	1	4
473.875	1	13
474.215	1	3
474.556	1	-2
474.897	1	-6
475.238	1	10
475.578	1	0
475.919	1	-1
476.260	1	2
476.601	1	6
476.942	1	8
477.282	1	4
477.623	1	-5
477.964	1	0
478.305	1	21
478.645	1	6
478.986	1	-5
479.327	1	-7
479.667	1	4
480.008	1	-3
480.349	1	5
480.690	1	1
481.030	1	7
481.371	1	9
481.712	1	4
482.053	1	-3
482.393	1	13
482.734	1	5
483.075	1	16
483.415	1	-3
483.756	1	3
484.097	1	2
484.437	1	2
484.778	1	11
485.119	1	0
485.459	1	0
485.800	1	6
486.141	1	0
486.481	1	-7
486.822	1	10
487.163	1	-7
487.503	1	-8
487.844	1	7
488.185	1	-2
488.525	1	4
488.866	1	-3
489.207	1	2
489.547	1	6
489.888	1	8
490.228	1	2
490.569	1	8
490.910	1	-4
491.250	1	11
491.591	1	-7
491.932	1	-6
492.272	1	4
492.613	1	-5
492.953	1	7
493.294	1	6
493.635	1	9
493.975	1	19
494.316	1	1
494.656	1	-2
494.997	1	6
495.337	1	5
495.678	1	1
496.019	1	-4
496.359	1	-2
496.700	1	2
497.040	1	4
497.381	1	2
497.721	1	10
498.062	1	-3
498.403	1	-7
498.743	1	7
499.084	1	9
499.424	1	-12
499.765	1	1
500.105	1	11
500.446	1	1
500.786	1	3
501.127	1	12
501.467	1	6
501.808	1	11
502.148	1	12
502.489	1	11
502.829	1	-1
503.170	1	-1
503.510	1	4
503.851	1	2
504.191	1	5
504.532	1	8
504.872	1	4
505.213	1	5
505.553	1	5
505.894	1	11
506.234	1	-5
506.575	1	7
506.915	1	4
507.256	1	8
507.596	1	1
507.936	1	-6
508.277	1	2
508.617	1	1
508.958	1	4
509.298	1	6
509.639	1	7
509.979	1	-7
510.319	1	18
510.660	1	1
511.000	1	13
511.341	1	1
511.681	1	3
512.022	1	12
512.362	1	2
512.702	1	16
513.043	1	4
513.383	1	8
513.724	1	-1
514.064	1	1
514.404	1	12
514.745	1	-4
515.085	1	8
515.425	1	13
515.766	1	6
516.106	1	3
516.447	1	2
516.787	1	18
517.127	1	4
517.468	1	9
517.808	1	8
518.148	1	5
518.489	1	8
518.829	1	11
519.169	1	11
519.510	1	-8
519.850	1	7
520.190	1	18
520.531	1	14
520.871	1	6
521.211	1	10
521.552	1	3
521.892	1	14
522.232	1	-6
522.573	1	4
522.913	1	15
523.253	1	11
523.593	1	12
523.934	1	-1
524.274	1	-7
524.614	1	14
524.955	1	9
525.295	1	11
525.635	1	-4
525.975	1	10
526.316	1	3
526.656	1	6
526.996	1	5
527.337	1	14
527.677	1	-1
528.017	1	9
528.357	1	14
528.698	1	3
529.038	1	5
529.378	1	7
529.718	1	6
530.058	1	11
530.399	1	4
530.739	1	6
531.079	1	10
531.419	1	2
531.760	1	-2
532.100	1	15
532.440	1	15
532.780	1	3
533.120	1	16
533.461	1	10
533.801	1	18
534.141	1	11
534.481	1	10
534.821	1	16
535.162	1	14
535.502	1	10
535.842	1	2
536.182	1	7
536.522	1	-5
536.862	1	-2
537.203	1	5
537.543	1	19
537.883	1	-2
538.223	1	10
538.563	1	14
538.903	1	16
539.243	1	6
539.584	1	16
539.924	1	4
540.264	1	7
540.604	1	6
540.944	1	14
541.284	1	9
541.624	1	14
541.964	1	11
542.305	1	11
542.645	1	7
542.985	1	10
543.325	1	-2
543.665	1	18
544.005	1	5
544.345	1	6
544.685	1	13
545.025	1	0
545.365	1	7
545.705	1	6
546.045	1	9
546.386	1	3
546.726	1	6
547.066	1	9
547.406	1	-10
547.746	1	7
548.086	1	1
548.426	1	6
548.766	1	-2
549.106	1	-6
549.446	1	5
549.786	1	13
550.126	1	6
550.466	1	10
550.806	1	-1
551.146	1	5
551.486	1	9
551.826	1	4
552.166	1	10
552.506	1	2
552.846	1	3
553.186	1	3
553.526	1	8
553.866	1	-4
554.206	1	0
554.546	1	7
554.886	1	0
555.226	1	-1
555.566	1	-4
555.906	1	-5
556.246	1	0
556.586	1	1
556.926	1	-1
557.266	1	1
557.606	1	-2
557.946	1	11
558.286	1	12
558.626	1	-10
558.966	1	-3
559.306	1	6
559.646	1	2
559.986	1	12
560.325	1	-7
560.665	1	12
561.005	1	0
561.345	1	6
561.685	1	13
562.025	1	5
562.365	1	5
562.705	1	9
563.045	1	2
563.385	1	-1
563.725	1	3
564.064	1	9
564.404	1	-1
564.744	1	4
565.084	1	3
565.424	1	2
565.764	1	9
566.104	1	7
566.444	1	10
566.783	1	8
567.123	1	9
567.463	1	4
567.803	1	13
568.143	1	6
568.483	1	-2
568.823	1	-10
569.162	1	10
569.502	1	4
569.842	1	-1
570.182	1	0
570.522	1	-6
570.862	1	21
571.201	1	0
571.541	1	3
571.881	1	1
572.221	1	19
572.561	1	9
572.900	1	10
573.240	1	10
573.580	1	0
573.920	1	16
574.260	1	6
574.599	1	11
574.939	1	10
575.279	1	3
575.619	1	2
575.959	1	0
576.298	1	4
576.638	1	3
576.978	1	5
577.318	1	7
577.657	1	15
577.997	1	14
578.337	1	3
578.677	1	20
579.016	1	4
579.356	1	4
579.696	1	-2
580.036	1	-1
580.375	1	-4
580.715	1	9
581.055	1	1
581.394	1	2
581.734	1	5
582.074	1	-5
582.414	1	1
582.753	1	13
583.093	1	6
583.433	1	13
583.772	1	1
584.112	1	7
584.452	1	10
584.791	1	4
585.131	1	11
585.471	1	4
585.811	1	3
586.150	1	16
586.490	1	-6
586.830	1	-9
587.169	1	9
587.509	1	9
587.849	1	2
588.188	1	5
588.528	1	9
588.867	1	7
589.207	1	0
589.547	1	-10
589.886	1	1
590.226	1	11
590.566	1	1
590.905	1	11
591.245	1	2
591.585	1	3
591.924	1	6
592.264	1	11
592.603	1	2
592.943	1	-3
593.283	1	-1
593.622	1	9
593.962	1	5
594.301	1	-5
594.641	1	15
594.981	1	-4
595.320	1	4
595.660	1	10
595.999	1	6
596.339	1	17
596.678	1	-5
597.018	1	5
597.358	1	-1
597.697	1	2
598.037	1	7
598.376	1	1
598.716	1	5
599.055	1	5
599.395	1	-4
599.734	1	-4
600.074	1	9
600.413	1	10
600.753	1	-1
601.092	1	5
601.432	1	-5
601.771	1	19
602.111	1	3
602.451	1	1
602.790	1	2
603.130	1	8
603.469	1	3
603.809	1	-3
604.148	1	7
604.487	1	16
604.827	1	5
605.166	1	10
605.506	1	-2
605.845	1	3
606.185	1	12
606.524	1	2
606.864	1	12
607.203	1	6
607.543	1	9
607.882	1	6
608.222	1	0
608.561	1	-2
608.901	1	9
609.240	1	-10
609.579	1	11
609.919	1	10
610.258	1	2
610.598	1	-2
610.937	1	12
611.277	1	6
611.616	1	2
611.955	1	-10
612.295	1	9
612.634	1	2
612.974	1	13
613.313	1	2
613.652	1	-7
613.992	1	-1
614.331	1	2
614.671	1	5
615.010	1	-3
615.349	1	2
615.689	1	3
616.028	1	12
616.368	1	6
616.707	1	6
617.046	1	4
617.386	1	-3
617.725	1	8
618.064	1	6
618.404	1	-7
618.743	1	9
619.082	1	2
619.422	1	8
619.761	1	3
620.100	1	2
620.440	1	10
620.779	1	1
621.118	1	-5
621.458	1	5
621.797	1	-5
622.136	1	5
622.476	1	5
622.815	1	0
623.154	1	0
623.494	1	5
623.833	1	0
624.172	1	10
624.511	1	0
624.851	1	2
625.190	1	-1
625.529	1	-2
625.869	1	13
626.208	1	-3
626.547	1	7
626.886	1	1
627.226	1	1
627.565	1	7
627.904	1	5
628.243	1	9
628.583	1	0
628.922	1	-1
629.261	1	-7
629.600	1	0
629.940	1	5
630.279	1	13
630.618	1	-4
630.957	1	2
631.297	1	-1
631.636	1	4
631.975	1	7
632.314	1	-1
632.653	1	-7
632.993	1	3
633.332	1	-10
633.671	1	-8
634.010	1	-5
634.349	1	8
634.689	1	8
635.028	1	13
635.367	1	0
635.706	1	-3
636.045	1	11
636.384	1	-4
636.724	1	8
637.063	1	4
637.402	1	7
637.741	1	13
638.080	1	16
638.419	1	1
638.759	1	14
639.098	1	1
639.437	1	8
639.776	1	-3
640.115	1	0
640.454	1	9
640.793	1	-6
641.132	1	5
641.472	1	8
641.811	1	-3
642.150	1	-14
642.489	1	0
642.828	1	9
643.167	1	10
643.506	1	11
643.845	1	-5
644.184	1	-8
644.524	1	-9
644.863	1	-3
645.202	1	9
645.541	1	-6
645.880	1	9
646.219	1	9
646.558	1	-6
646.897	1	-2
647.236	1	-10
647.575	1	-9
647.914	1	-2
648.253	1	0
648.592	1	-1
648.931	1	-6
649.270	1	6
649.610	1	2
649.949	1	11
650.288	1	6
650.627	1	8
650.966	1	6
651.305	1	3
651.644	1	1
651.983	1	-12
652.322	1	-3
652.661	1	4
653.000	1	5
653.339	1	10
653.678	1	-2
654.017	1	-3
654.356	1	1
654.695	1	-4
655.034	1	-5
655.373	1	5
655.712	1	6
656.051	1	-1
656.390	1	-6
656.729	1	4
657.068	1	-1
657.406	1	1
657.745	1	0
658.084	1	-5
658.423	1	-2
658.762	1	11
659.101	1	5
659.440	1	-5
659.779	1	4
660.118	1	-2
660.457	1	-10
660.796	1	5
661.135	1	7
661.474	1	8
661.813	1	-2
662.152	1	1
662.491	1	13
662.829	1	6
663.168	1	-4
663.507	1	4
663.846	1	1
664.185	1	0
664.524	1	-6
664.863	1	3
665.202	1	2
665.541	1	-4
665.879	1	7
666.218	1	7
666.557	1	-3
666.896	1	2
667.235	1	7
667.574	1	12
667.913	1	4
668.251	1	-1
668.590	1	4
668.929	1	1
669.268	1	3
669.607	1	-3
669.946	1	13
670.285	1	0
670.623	1	5
670.962	1	-9
671.301	1	1
671.640	1	-14
671.979	1	-2
672.317	1	4
672.656	1	-4
672.995	1	0
673.334	1	0
673.673	1	7
674.011	1	1
674.350	1	0
674.689	1	1
675.028	1	3
675.367	1	-5
675.705	1	13
676.044	1	-1
676.383	1	2
676.722	1	-6
677.060	1	16
677.399	1	-1
677.738	1	0
678.077	1	13
678.416	1	10
678.754	1	10
679.093	1	5
679.432	1	6
679.771	1	2
680.109	1	4
680.448	1	3
680.787	1	15
681.125	1	4
681.464	1	0
681.803	1	-1
682.142	1	-6
682.480	1	0
682.819	1	1
683.158	1	12
683.496	1	-2
683.835	1	-1
684.174	1	4
684.512	1	13
684.851	1	-2
685.190	1	-1
685.529	1	-7
685.867	1	4
686.206	1	4
686.545	1	0
686.883	1	2
687.222	1	1
687.561	1	12
687.899	1	0
688.238	1	2
688.577	1	1
688.746	1	8