File: Data/GaN_130K_350ms/GaN_sample F_spot6_UVVIS_130 K_200um_350 ms 2x2mm1_139.txt
340.368	1	10
340.710	1	8
341.052	1	-2
341.394	1	2
341.737	1	3
342.079	1	5
342.421	1	12
342.763	1	8
343.105	1	7
343.447	1	6
343.789	1	6
344.131	1	1
344.473	1	4
344.815	1	-6
345.157	1	-9
345.499	1	1
345.841	1	-4
346.183	1	24
346.526	1	-4
346.868	1	11
347.210	1	3
347.552	1	12
347.894	1	1
348.236	1	10
348.578	1	6
348.920	1	4
349.262	1	12
349.604	1	7
349.946	1	17
350.288	1	-7
350.630	1	9
350.972	1	13
351.314	1	-1
351.656	1	4
351.998	1	2
352.340	1	22
352.682	1	-4
353.024	1	0
353.366	1	9
353.708	1	7
354.050	1	-1
354.392	1	13
354.734	1	5
355.076	1	4
355.418	1	10
355.760	1	9
356.102	1	-4
356.444	1	-13
356.785	1	6
357.127	1	24
357.469	1	14
357.811	1	12
358.153	1	3
358.495	1	8
358.837	1	10
359.179	1	6
359.521	1	2
359.863	1	9
360.205	1	9
360.547	1	4
360.889	1	19
361.231	1	24
361.572	1	12
361.914	1	20
362.256	1	8
362.598	1	19
362.940	1	13
363.282	1	26
363.624	1	26
363.966	1	35
364.308	1	36
364.649	1	40
364.991	1	29
365.333	1	24
365.675	1	40
366.017	1	49
366.359	1	39
366.701	1	45
367.042	1	46
367.384	1	52
367.726	1	48
368.068	1	46
368.410	1	37
368.752	1	49
369.093	1	48
369.435	1	31
369.777	1	36
370.119	1	59
370.461	1	38
370.803	1	41
371.144	1	43
371.486	1	31
371.828	1	34
372.170	1	30
372.512	1	29
372.853	1	22
373.195	1	28
373.537	1	25
373.879	1	16
374.220	1	13
374.562	1	23
374.904	1	26
375.246	1	21
375.588	1	13
375.929	1	16
376.271	1	26
376.613	1	21
376.955	1	25
377.296	1	17
377.638	1	12
377.980	1	9
378.321	1	22
378.663	1	15
379.005	1	22
379.347	1	15
379.688	1	22
380.030	1	15
380.372	1	16
380.714	1	17
381.055	1	14
381.397	1	12
381.739	1	11
382.080	1	-4
382.422	1	13
382.764	1	12
383.105	1	14
383.447	1	18
383.789	1	13
384.130	1	20
384.472	1	15
384.814	1	11
385.156	1	12
385.497	1	11
385.839	1	16
386.180	1	20
386.522	1	8
386.864	1	21
387.205	1	5
387.547	1	18
387.889	1	13
388.230	1	15
388.572	1	12
388.914	1	19
389.255	1	20
389.597	1	2
389.939	1	17
390.280	1	23
390.622	1	6
390.963	1	12
391.305	1	10
391.647	1	12
391.988	1	13
392.330	1	4
392.671	1	5
393.013	1	8
393.355	1	4
393.696	1	8
394.038	1	14
394.379	1	18
394.721	1	11
395.062	1	7
395.404	1	10
395.746	1	10
396.087	1	1
396.429	1	21
396.770	1	13
397.112	1	9
397.453	1	10
397.795	1	2
398.136	1	13
398.478	1	14
398.819	1	-5
399.161	1	8
399.503	1	17
399.844	1	7
400.186	1	4
400.527	1	15
400.869	1	9
401.210	1	7
401.552	1	20
401.893	1	-5
402.235	1	9
402.576	1	14
402.918	1	9
403.259	1	0
403.601	1	9
403.942	1	5
404.284	1	10
404.625	1	28
404.967	1	3
405.308	1	4
405.649	1	3
405.991	1	8
406.332	1	13
406.674	1	17
407.015	1	10
407.357	1	17
407.698	1	9
408.040	1	9
408.381	1	12
408.722	1	15
409.064	1	9
409.405	1	6
409.747	1	1
410.088	1	17
410.430	1	13
410.771	1	-2
411.112	1	18
411.454	1	6
411.795	1	9
412.137	1	7
412.478	1	4
412.819	1	7
413.161	1	19
413.502	1	22
413.844	1	9
414.185	1	7
414.526	1	2
414.868	1	-2
415.209	1	4
415.550	1	5
415.892	1	17
416.233	1	14
416.575	1	9
416.916	1	8
417.257	1	15
417.599	1	12
417.940	1	9
418.281	1	11
418.623	1	19
418.964	1	2
419.305	1	11
419.647	1	9
419.988	1	17
420.329	1	10
420.671	1	5
421.012	1	15
421.353	1	5
421.695	1	5
422.036	1	14
422.377	1	11
422.718	1	5
423.060	1	15
423.401	1	8
423.742	1	5
424.084	1	15
424.425	1	12
424.766	1	7
425.107	1	3
425.449	1	14
425.790	1	18
426.131	1	16
426.472	1	2
426.814	1	17
427.155	1	3
427.496	1	11
427.837	1	10
428.179	1	1
428.520	1	5
428.861	1	1
429.202	1	5
429.544	1	9
429.885	1	13
430.226	1	9
430.567	1	4
430.909	1	11
431.250	1	12
431.591	1	3
431.932	1	-5
432.273	1	0
432.615	1	13
432.956	1	4
433.297	1	8
433.638	1	5
433.979	1	16
434.320	1	10
434.662	1	14
435.003	1	21
435.344	1	1
435.685	1	-5
436.026	1	13
436.368	1	0
436.709	1	4
437.050	1	16
437.391	1	22
437.732	1	14
438.073	1	15
438.414	1	6
438.756	1	2
439.097	1	10
439.438	1	11
439.779	1	16
440.120	1	1
440.461	1	17
440.802	1	8
441.143	1	-2
441.485	1	8
441.826	1	-2
442.167	1	9
442.508	1	0
442.849	1	6
443.190	1	12
443.531	1	3
443.872	1	9
444.213	1	0
444.554	1	2
444.895	1	9
445.237	1	2
445.578	1	-7
445.919	1	7
446.260	1	9
446.601	1	8
446.942	1	12
447.283	1	8
447.624	1	11
447.965	1	4
448.306	1	6
448.647	1	18
448.988	1	7
449.329	1	4
449.670	1	0
450.011	1	-1
450.352	1	17
450.693	1	2
451.034	1	-6
451.375	1	5
451.716	1	-11
452.057	1	13
452.398	1	-3
452.739	1	10
453.080	1	9
453.421	1	9
453.762	1	16
454.103	1	1
454.444	1	4
454.785	1	8
455.126	1	-2
455.467	1	-1
455.808	1	5
456.149	1	-4
456.490	1	9
456.831	1	7
457.172	1	-1
457.513	1	-3
457.854	1	4
458.195	1	-8
458.536	1	2
458.877	1	24
459.218	1	12
459.559	1	5
459.899	1	3
460.240	1	17
460.581	1	1
460.922	1	1
461.263	1	9
461.604	1	-8
461.945	1	3
462.286	1	12
462.627	1	-6
462.968	1	7
463.309	1	5
463.649	1	-2
463.990	1	4
464.331	1	18
464.672	1	13
465.013	1	0
465.354	1	-1
465.695	1	12
466.036	1	0
466.376	1	3
466.717	1	5
467.058	1	13
467.399	1	0
467.740	1	11
468.081	1	7
468.422	1	7
468.762	1	2
469.103	1	8
469.444	1	-2
469.785	1	12
470.126	1	-5
470.467	1	6
470.807	1	6
471.148	1	2
471.489	1	3
471.830	1	3
472.171	1	9
472.511	1	7
472.852	1	10
473.193	1	7
473.534	1	3
473.875	1	9
474.215	1	1
474.556	1	6
474.897	1	-8
475.238	1	17
475.578	1	6
475.919	1	-3
476.260	1	8
476.601	1	-5
476.942	1	11
477.282	1	13
477.623	1	5
477.964	1	-3
478.305	1	7
478.645	1	10
478.986	1	-11
479.327	1	-3
479.667	1	10
480.008	1	0
480.349	1	5
480.690	1	8
481.030	1	8
481.371	1	13
481.712	1	9
482.053	1	2
482.393	1	18
482.734	1	11
483.075	1	12
483.415	1	1
483.756	1	11
484.097	1	0
484.437	1	-5
484.778	1	25
485.119	1	6
485.459	1	0
485.800	1	14
486.141	1	7
486.481	1	0
486.822	1	12
487.163	1	-2
487.503	1	-8
487.844	1	0
488.185	1	6
488.525	1	12
488.866	1	-6
489.207	1	-7
489.547	1	1
489.888	1	15
490.228	1	9
490.569	1	9
490.910	1	4
491.250	1	13
491.591	1	0
491.932	1	14
492.272	1	10
492.613	1	0
492.953	1	4
493.294	1	11
493.635	1	12
493.975	1	13
494.316	1	9
494.656	1	1
494.997	1	5
495.337	1	6
495.678	1	4
496.019	1	-1
496.359	1	11
496.700	1	10
497.040	1	20
497.381	1	15
497.721	1	11
498.062	1	-2
498.403	1	2
498.743	1	13
499.084	1	22
499.424	1	6
499.765	1	2
500.105	1	12
500.446	1	16
500.786	1	14
501.127	1	13
501.467	1	9
501.808	1	13
502.148	1	8
502.489	1	12
502.829	1	6
503.170	1	1
503.510	1	13
503.851	1	8
504.191	1	15
504.532	1	5
504.872	1	7
505.213	1	14
505.553	1	11
505.894	1	16
506.234	1	6
506.575	1	13
506.915	1	10
507.256	1	12
507.596	1	-1
507.936	1	10
508.277	1	4
508.617	1	1
508.958	1	23
509.298	1	11
509.639	1	13
509.979	1	10
510.319	1	28
510.660	1	8
511.000	1	22
511.341	1	7
511.681	1	6
512.022	1	21
512.362	1	5
512.702	1	12
513.043	1	15
513.383	1	21
513.724	1	11
514.064	1	9
514.404	1	15
514.745	1	16
515.085	1	22
515.425	1	11
515.766	1	12
516.106	1	13
516.447	1	10
516.787	1	17
517.127	1	13
517.468	1	20
517.808	1	8
518.148	1	26
518.489	1	13
518.829	1	19
519.169	1	19
519.510	1	14
519.850	1	25
520.190	1	20
520.531	1	27
520.871	1	9
521.211	1	25
521.552	1	22
521.892	1	27
522.232	1	6
522.573	1	13
522.913	1	21
523.253	1	22
523.593	1	23
523.934	1	23
524.274	1	7
524.614	1	22
524.955	1	22
525.295	1	20
525.635	1	13
525.975	1	20
526.316	1	17
526.656	1	18
526.996	1	15
527.337	1	24
527.677	1	13
528.017	1	13
528.357	1	23
528.698	1	8
529.038	1	12
529.378	1	17
529.718	1	27
530.058	1	19
530.399	1	21
530.739	1	20
531.079	1	17
531.419	1	22
531.760	1	12
532.100	1	16
532.440	1	21
532.780	1	17
533.120	1	18
533.461	1	23
533.801	1	28
534.141	1	19
534.481	1	22
534.821	1	26
535.162	1	22
535.502	1	19
535.842	1	20
536.182	1	19
536.522	1	7
536.862	1	13
537.203	1	3
537.543	1	19
537.883	1	6
538.223	1	27
538.563	1	21
538.903	1	24
539.243	1	11
539.584	1	21
539.924	1	12
540.264	1	11
540.604	1	10
540.944	1	21
541.284	1	14
541.624	1	16
541.964	1	12
542.305	1	23
542.645	1	8
542.985	1	19
543.325	1	9
543.665	1	28
544.005	1	16
544.345	1	29
544.685	1	24
545.025	1	-2
545.365	1	17
545.705	1	8
546.045	1	3
546.386	1	16
546.726	1	12
547.066	1	10
547.406	1	3
547.746	1	19
548.086	1	6
548.426	1	26
548.766	1	15
549.106	1	4
549.446	1	16
549.786	1	10
550.126	1	28
550.466	1	16
550.806	1	25
551.146	1	12
551.486	1	13
551.826	1	11
552.166	1	22
552.506	1	15
552.846	1	14
553.186	1	15
553.526	1	12
553.866	1	3
554.206	1	15
554.546	1	14
554.886	1	9
555.226	1	22
555.566	1	10
555.906	1	5
556.246	1	17
556.586	1	19
556.926	1	14
557.266	1	6
557.606	1	7
557.946	1	16
558.286	1	26
558.626	1	2
558.966	1	6
559.306	1	16
559.646	1	19
559.986	1	17
560.325	1	1
560.665	1	23
561.005	1	19
561.345	1	18
561.685	1	7
562.025	1	2
562.365	1	17
562.705	1	8
563.045	1	5
563.385	1	4
563.725	1	0
564.064	1	20
564.404	1	8
564.744	1	14
565.084	1	16
565.424	1	4
565.764	1	9
566.104	1	10
566.444	1	21
566.783	1	22
567.123	1	3
567.463	1	6
567.803	1	16
568.143	1	22
568.483	1	11
568.823	1	4
569.162	1	17
569.502	1	3
569.842	1	3
570.182	1	3
570.522	1	3
570.862	1	20
571.201	1	14
571.541	1	19
571.881	1	4
572.221	1	23
572.561	1	5
572.900	1	13
573.240	1	9
573.580	1	9
573.920	1	19
574.260	1	10
574.599	1	11
574.939	1	11
575.279	1	-3
575.619	1	14
575.959	1	13
576.298	1	8
576.638	1	2
576.978	1	2
577.318	1	9
577.657	1	21
577.997	1	19
578.337	1	4
578.677	1	10
579.016	1	-4
579.356	1	11
579.696	1	6
580.036	1	6
580.375	1	8
580.715	1	18
581.055	1	14
581.394	1	3
581.734	1	4
582.074	1	3
582.414	1	5
582.753	1	12
583.093	1	14
583.433	1	4
583.772	1	12
584.112	1	14
584.452	1	22
584.791	1	1
585.131	1	5
585.471	1	5
585.811	1	6
586.150	1	16
586.490	1	5
586.830	1	-5
587.169	1	11
587.509	1	11
587.849	1	3
588.188	1	7
588.528	1	15
588.867	1	5
589.207	1	3
589.547	1	15
589.886	1	5
590.226	1	8
590.566	1	2
590.905	1	14
591.245	1	3
591.585	1	12
591.924	1	-2
592.264	1	4
592.603	1	5
592.943	1	12
593.283	1	-1
593.622	1	18
593.962	1	10
594.301	1	-7
594.641	1	15
594.981	1	-6
595.320	1	8
595.660	1	9
595.999	1	10
596.339	1	5
596.678	1	-1
597.018	1	3
597.358	1	5
597.697	1	13
598.037	1	5
598.376	1	4
598.716	1	9
599.055	1	5
599.395	1	-1
599.734	1	2
600.074	1	14
600.413	1	20
600.753	1	5
601.092	1	2
601.432	1	-2
601.771	1	16
602.111	1	8
602.451	1	14
602.790	1	1
603.130	1	14
603.469	1	5
603.809	1	3
604.148	1	19
604.487	1	12
604.827	1	0
605.166	1	14
605.506	1	10
605.845	1	6
606.185	1	11
606.524	1	12
606.864	1	10
607.203	1	7
607.543	1	-2
607.882	1	2
608.222	1	-12
608.561	1	6
608.901	1	4
609.240	1	1
609.579	1	12
609.919	1	5
610.258	1	6
610.598	1	11
610.937	1	8
611.277	1	-1
611.616	1	-3
611.955	1	-2
612.295	1	13
612.634	1	8
612.974	1	5
613.313	1	6
613.652	1	-7
613.992	1	9
614.331	1	16
614.671	1	5
615.010	1	2
615.349	1	12
615.689	1	2
616.028	1	15
616.368	1	1
616.707	1	9
617.046	1	9
617.386	1	-10
617.725	1	7
618.064	1	2
618.404	1	3
618.743	1	4
619.082	1	5
619.422	1	1
619.761	1	6
620.100	1	-1
620.440	1	5
620.779	1	10
621.118	1	2
621.458	1	8
621.797	1	4
622.136	1	-2
622.476	1	16
622.815	1	3
623.154	1	4
623.494	1	9
623.833	1	10
624.172	1	-2
624.511	1	7
624.851	1	-1
625.190	1	1
625.529	1	-7
625.869	1	0
626.208	1	5
626.547	1	2
626.886	1	2
627.226	1	1
627.565	1	9
627.904	1	8
628.243	1	6
628.583	1	-5
628.922	1	-3
629.261	1	-10
629.600	1	7
629.940	1	14
630.279	1	13
630.618	1	-3
630.957	1	-3
631.297	1	0
631.636	1	12
631.975	1	9
632.314	1	4
632.653	1	-3
632.993	1	11
633.332	1	0
633.671	1	-7
634.010	1	-2
634.349	1	7
634.689	1	12
635.028	1	12
635.367	1	-3
635.706	1	-2
636.045	1	15
636.384	1	13
636.724	1	11
637.063	1	11
637.402	1	2
637.741	1	3
638.080	1	5
638.419	1	-5
638.759	1	5
639.098	1	1
639.437	1	6
639.776	1	3
640.115	1	5
640.454	1	-1
640.793	1	-7
641.132	1	16
641.472	1	-5
641.811	1	0
642.150	1	0
642.489	1	-1
642.828	1	3
643.167	1	7
643.506	1	5
643.845	1	-6
644.184	1	0
644.524	1	1
644.863	1	1
645.202	1	2
645.541	1	3
645.880	1	11
646.219	1	3
646.558	1	7
646.897	1	0
647.236	1	1
647.575	1	-14
647.914	1	3
648.253	1	14
648.592	1	-4
648.931	1	2
649.270	1	0
649.610	1	-4
649.949	1	0
650.288	1	8
650.627	1	8
650.966	1	2
651.305	1	4
651.644	1	2
651.983	1	-7
652.322	1	5
652.661	1	-5
653.000	1	-2
653.339	1	3
653.678	1	-1
654.017	1	8
654.356	1	9
654.695	1	1
655.034	1	3
655.373	1	-2
655.712	1	3
656.051	1	7
656.390	1	7
656.729	1	-1
657.068	1	1
657.406	1	6
657.745	1	4
658.084	1	-3
658.423	1	2
658.762	1	16
659.101	1	10
659.440	1	-1
659.779	1	7
660.118	1	0
660.457	1	-1
660.796	1	5
661.135	1	17
661.474	1	6
661.813	1	5
662.152	1	3
662.491	1	17
662.829	1	11
663.168	1	-3
663.507	1	3
663.846	1	-2
664.185	1	-3
664.524	1	-3
664.863	1	13
665.202	1	-1
665.541	1	1
665.879	1	3
666.218	1	2
666.557	1	4
666.896	1	6
667.235	1	13
667.574	1	12
667.913	1	4
668.251	1	5
668.590	1	7
668.929	1	7
669.268	1	-3
669.607	1	0
669.946	1	12
670.285	1	10
670.623	1	10
670.962	1	1
671.301	1	4
671.640	1	-10
671.979	1	6
672.317	1	-1
672.656	1	0
672.995	1	-3
673.334	1	-7
673.673	1	13
674.011	1	1
674.350	1	6
674.689	1	7
675.028	1	1
675.367	1	-5
675.705	1	9
676.044	1	6
676.383	1	3
676.722	1	-3
677.060	1	20
677.399	1	4
677.738	1	0
678.077	1	6
678.416	1	11
678.754	1	10
679.093	1	5
679.432	1	2
679.771	1	5
680.109	1	5
680.448	1	7
680.787	1	7
681.125	1	18
681.464	1	1
681.803	1	1
682.142	1	4
682.480	1	11
682.819	1	3
683.158	1	7
683.496	1	-2
683.835	1	9
684.174	1	7
684.512	1	7
684.851	1	2
685.190	1	11
685.529	1	-5
685.867	1	8
686.206	1	7
686.545	1	0
686.883	1	5
687.222	1	7
687.561	1	13
687.899	1	6
688.238	1	16
688.577	1	4
688.746	1	6