File: Data/GaN_130K_350ms/GaN_sample F_spot6_UVVIS_130 K_200um_350 ms 2x2mm1_205.txt
340.368	1	7
340.710	1	11
341.052	1	3
341.394	1	-3
341.737	1	12
342.079	1	8
342.421	1	11
342.763	1	2
343.105	1	2
343.447	1	7
343.789	1	5
344.131	1	-2
344.473	1	2
344.815	1	-2
345.157	1	-7
345.499	1	-2
345.841	1	-1
346.183	1	1
346.526	1	3
346.868	1	11
347.210	1	5
347.552	1	0
347.894	1	7
348.236	1	-12
348.578	1	1
348.920	1	3
349.262	1	8
349.604	1	11
349.946	1	7
350.288	1	-6
350.630	1	10
350.972	1	8
351.314	1	-5
351.656	1	11
351.998	1	2
352.340	1	12
352.682	1	4
353.024	1	-1
353.366	1	7
353.708	1	4
354.050	1	-1
354.392	1	9
354.734	1	3
355.076	1	9
355.418	1	3
355.760	1	4
356.102	1	-3
356.444	1	-5
356.785	1	5
357.127	1	3
357.469	1	-1
357.811	1	-3
358.153	1	6
358.495	1	3
358.837	1	1
359.179	1	5
359.521	1	-2
359.863	1	2
360.205	1	9
360.547	1	-1
360.889	1	-3
361.231	1	4
361.572	1	19
361.914	1	12
362.256	1	7
362.598	1	9
362.940	1	-5
363.282	1	11
363.624	1	4
363.966	1	21
364.308	1	19
364.649	1	13
364.991	1	15
365.333	1	4
365.675	1	23
366.017	1	22
366.359	1	20
366.701	1	14
367.042	1	20
367.384	1	31
367.726	1	26
368.068	1	12
368.410	1	7
368.752	1	34
369.093	1	11
369.435	1	13
369.777	1	15
370.119	1	26
370.461	1	28
370.803	1	20
371.144	1	12
371.486	1	11
371.828	1	18
372.170	1	18
372.512	1	19
372.853	1	1
373.195	1	19
373.537	1	15
373.879	1	22
374.220	1	-1
374.562	1	3
374.904	1	14
375.246	1	10
375.588	1	6
375.929	1	7
376.271	1	13
376.613	1	2
376.955	1	10
377.296	1	9
377.638	1	2
377.980	1	5
378.321	1	5
378.663	1	9
379.005	1	21
379.347	1	12
379.688	1	-1
380.030	1	6
380.372	1	13
380.714	1	14
381.055	1	10
381.397	1	11
381.739	1	4
382.080	1	-5
382.422	1	9
382.764	1	-2
383.105	1	9
383.447	1	3
383.789	1	6
384.130	1	14
384.472	1	5
384.814	1	7
385.156	1	-2
385.497	1	3
385.839	1	6
386.180	1	14
386.522	1	3
386.864	1	20
387.205	1	5
387.547	1	14
387.889	1	-2
388.230	1	2
388.572	1	13
388.914	1	11
389.255	1	4
389.597	1	-8
389.939	1	10
390.280	1	10
390.622	1	4
390.963	1	7
391.305	1	9
391.647	1	0
391.988	1	11
392.330	1	0
392.671	1	6
393.013	1	8
393.355	1	5
393.696	1	-4
394.038	1	19
394.379	1	9
394.721	1	13
395.062	1	-8
395.404	1	1
395.746	1	17
396.087	1	9
396.429	1	7
396.770	1	13
397.112	1	16
397.453	1	14
397.795	1	-8
398.136	1	2
398.478	1	2
398.819	1	-7
399.161	1	17
399.503	1	11
399.844	1	5
400.186	1	-1
400.527	1	14
400.869	1	4
401.210	1	-3
401.552	1	12
401.893	1	-8
402.235	1	15
402.576	1	3
402.918	1	9
403.259	1	2
403.601	1	13
403.942	1	11
404.284	1	-3
404.625	1	12
404.967	1	2
405.308	1	7
405.649	1	2
405.991	1	10
406.332	1	7
406.674	1	4
407.015	1	7
407.357	1	3
407.698	1	8
408.040	1	-4
408.381	1	21
408.722	1	6
409.064	1	11
409.405	1	9
409.747	1	-1
410.088	1	17
410.430	1	10
410.771	1	-2
411.112	1	10
411.454	1	9
411.795	1	4
412.137	1	4
412.478	1	3
412.819	1	9
413.161	1	13
413.502	1	18
413.844	1	7
414.185	1	4
414.526	1	11
414.868	1	-7
415.209	1	9
415.550	1	6
415.892	1	9
416.233	1	5
416.575	1	7
416.916	1	4
417.257	1	10
417.599	1	1
417.940	1	8
418.281	1	11
418.623	1	19
418.964	1	9
419.305	1	1
419.647	1	14
419.988	1	19
420.329	1	8
420.671	1	1
421.012	1	6
421.353	1	-1
421.695	1	7
422.036	1	4
422.377	1	13
422.718	1	5
423.060	1	9
423.401	1	9
423.742	1	8
424.084	1	0
424.425	1	8
424.766	1	16
425.107	1	7
425.449	1	8
425.790	1	14
426.131	1	11
426.472	1	2
426.814	1	6
427.155	1	6
427.496	1	7
427.837	1	10
428.179	1	-1
428.520	1	15
428.861	1	6
429.202	1	10
429.544	1	12
429.885	1	9
430.226	1	4
430.567	1	15
430.909	1	3
431.250	1	10
431.591	1	3
431.932	1	9
432.273	1	8
432.615	1	17
432.956	1	-1
433.297	1	9
433.638	1	9
433.979	1	14
434.320	1	5
434.662	1	13
435.003	1	11
435.344	1	13
435.685	1	-7
436.026	1	12
436.368	1	1
436.709	1	-9
437.050	1	8
437.391	1	11
437.732	1	6
438.073	1	9
438.414	1	7
438.756	1	2
439.097	1	12
439.438	1	9
439.779	1	14
440.120	1	6
440.461	1	10
440.802	1	-7
441.143	1	-5
441.485	1	2
441.826	1	0
442.167	1	2
442.508	1	0
442.849	1	3
443.190	1	4
443.531	1	4
443.872	1	13
444.213	1	-1
444.554	1	8
444.895	1	-3
445.237	1	7
445.578	1	-5
445.919	1	8
446.260	1	0
446.601	1	6
446.942	1	13
447.283	1	2
447.624	1	9
447.965	1	0
448.306	1	7
448.647	1	10
448.988	1	0
449.329	1	6
449.670	1	5
450.011	1	-5
450.352	1	2
450.693	1	-5
451.034	1	0
451.375	1	4
451.716	1	-7
452.057	1	16
452.398	1	-5
452.739	1	3
453.080	1	1
453.421	1	1
453.762	1	-1
454.103	1	-6
454.444	1	3
454.785	1	7
455.126	1	0
455.467	1	4
455.808	1	14
456.149	1	3
456.490	1	3
456.831	1	9
457.172	1	13
457.513	1	-4
457.854	1	10
458.195	1	-8
458.536	1	2
458.877	1	33
459.218	1	11
459.559	1	7
459.899	1	2
460.240	1	15
460.581	1	-8
460.922	1	2
461.263	1	2
461.604	1	-8
461.945	1	5
462.286	1	10
462.627	1	3
462.968	1	-1
463.309	1	6
463.649	1	-4
463.990	1	7
464.331	1	7
464.672	1	7
465.013	1	-2
465.354	1	-3
465.695	1	15
466.036	1	10
466.376	1	6
466.717	1	5
467.058	1	10
467.399	1	5
467.740	1	10
468.081	1	3
468.422	1	7
468.762	1	-1
469.103	1	7
469.444	1	-7
469.785	1	14
470.126	1	-8
470.467	1	0
470.807	1	6
471.148	1	-7
471.489	1	-5
471.830	1	-3
472.171	1	4
472.511	1	1
472.852	1	4
473.193	1	6
473.534	1	4
473.875	1	12
474.215	1	1
474.556	1	9
474.897	1	2
475.238	1	16
475.578	1	2
475.919	1	-2
476.260	1	6
476.601	1	6
476.942	1	5
477.282	1	8
477.623	1	3
477.964	1	-8
478.305	1	5
478.645	1	1
478.986	1	-1
479.327	1	10
479.667	1	4
480.008	1	-2
480.349	1	5
480.690	1	-2
481.030	1	-1
481.371	1	13
481.712	1	0
482.053	1	0
482.393	1	7
482.734	1	9
483.075	1	13
483.415	1	8
483.756	1	4
484.097	1	0
484.437	1	4
484.778	1	9
485.119	1	18
485.459	1	-6
485.800	1	5
486.141	1	-4
486.481	1	-1
486.822	1	8
487.163	1	7
487.503	1	-4
487.844	1	7
488.185	1	17
488.525	1	7
488.866	1	7
489.207	1	4
489.547	1	-3
489.888	1	12
490.228	1	4
490.569	1	6
490.910	1	-9
491.250	1	9
491.591	1	-6
491.932	1	5
492.272	1	2
492.613	1	-8
492.953	1	3
493.294	1	9
493.635	1	3
493.975	1	5
494.316	1	15
494.656	1	-3
494.997	1	-3
495.337	1	4
495.678	1	6
496.019	1	0
496.359	1	7
496.700	1	1
497.040	1	10
497.381	1	2
497.721	1	9
498.062	1	3
498.403	1	7
498.743	1	13
499.084	1	16
499.424	1	-4
499.765	1	4
500.105	1	3
500.446	1	7
500.786	1	10
501.127	1	10
501.467	1	1
501.808	1	4
502.148	1	2
502.489	1	1
502.829	1	6
503.170	1	2
503.510	1	0
503.851	1	2
504.191	1	-10
504.532	1	6
504.872	1	7
505.213	1	9
505.553	1	6
505.894	1	3
506.234	1	4
506.575	1	4
506.915	1	2
507.256	1	8
507.596	1	5
507.936	1	-4
508.277	1	10
508.617	1	-7
508.958	1	14
509.298	1	-2
509.639	1	6
509.979	1	-3
510.319	1	12
510.660	1	1
511.000	1	13
511.341	1	2
511.681	1	8
512.022	1	21
512.362	1	3
512.702	1	16
513.043	1	4
513.383	1	12
513.724	1	4
514.064	1	5
514.404	1	12
514.745	1	2
515.085	1	5
515.425	1	7
515.766	1	12
516.106	1	7
516.447	1	2
516.787	1	8
517.127	1	6
517.468	1	4
517.808	1	3
518.148	1	10
518.489	1	17
518.829	1	13
519.169	1	4
519.510	1	5
519.850	1	13
520.190	1	13
520.531	1	15
520.871	1	3
521.211	1	16
521.552	1	8
521.892	1	15
522.232	1	1
522.573	1	1
522.913	1	11
523.253	1	9
523.593	1	11
523.934	1	-4
524.274	1	2
524.614	1	7
524.955	1	10
525.295	1	0
525.635	1	-3
525.975	1	18
526.316	1	3
526.656	1	6
526.996	1	0
527.337	1	12
527.677	1	8
528.017	1	5
528.357	1	0
528.698	1	-3
529.038	1	4
529.378	1	0
529.718	1	12
530.058	1	2
530.399	1	7
530.739	1	2
531.079	1	14
531.419	1	4
531.760	1	5
532.100	1	11
532.440	1	13
532.780	1	11
533.120	1	5
533.461	1	6
533.801	1	7
534.141	1	19
534.481	1	7
534.821	1	8
535.162	1	7
535.502	1	10
535.842	1	12
536.182	1	3
536.522	1	3
536.862	1	2
537.203	1	-1
537.543	1	14
537.883	1	0
538.223	1	10
538.563	1	13
538.903	1	17
539.243	1	-3
539.584	1	7
539.924	1	3
540.264	1	0
540.604	1	14
540.944	1	16
541.284	1	12
541.624	1	17
541.964	1	9
542.305	1	10
542.645	1	-2
542.985	1	4
543.325	1	4
543.665	1	8
544.005	1	26
544.345	1	2
544.685	1	17
545.025	1	0
545.365	1	18
545.705	1	0
546.045	1	-2
546.386	1	-1
546.726	1	3
547.066	1	10
547.406	1	-8
547.746	1	6
548.086	1	2
548.426	1	12
548.766	1	8
549.106	1	1
549.446	1	6
549.786	1	0
550.126	1	15
550.466	1	16
550.806	1	9
551.146	1	2
551.486	1	1
551.826	1	1
552.166	1	7
552.506	1	10
552.846	1	10
553.186	1	14
553.526	1	11
553.866	1	-7
554.206	1	-4
554.546	1	7
554.886	1	6
555.226	1	0
555.566	1	3
555.906	1	9
556.246	1	7
556.586	1	7
556.926	1	10
557.266	1	7
557.606	1	8
557.946	1	0
558.286	1	13
558.626	1	-4
558.966	1	-2
559.306	1	5
559.646	1	8
559.986	1	1
560.325	1	-2
560.665	1	13
561.005	1	8
561.345	1	11
561.685	1	2
562.025	1	14
562.365	1	5
562.705	1	6
563.045	1	4
563.385	1	11
563.725	1	4
564.064	1	18
564.404	1	4
564.744	1	6
565.084	1	3
565.424	1	1
565.764	1	7
566.104	1	3
566.444	1	10
566.783	1	15
567.123	1	9
567.463	1	4
567.803	1	9
568.143	1	19
568.483	1	11
568.823	1	-7
569.162	1	13
569.502	1	3
569.842	1	7
570.182	1	1
570.522	1	-15
570.862	1	24
571.201	1	4
571.541	1	2
571.881	1	-3
572.221	1	7
572.561	1	9
572.900	1	11
573.240	1	-5
573.580	1	-2
573.920	1	16
574.260	1	1
574.599	1	9
574.939	1	15
575.279	1	-5
575.619	1	5
575.959	1	5
576.298	1	-1
576.638	1	0
576.978	1	0
577.318	1	-2
577.657	1	14
577.997	1	2
578.337	1	2
578.677	1	5
579.016	1	-1
579.356	1	14
579.696	1	-11
580.036	1	6
580.375	1	0
580.715	1	12
581.055	1	2
581.394	1	5
581.734	1	5
582.074	1	2
582.414	1	1
582.753	1	2
583.093	1	4
583.433	1	12
583.772	1	6
584.112	1	13
584.452	1	7
584.791	1	-4
585.131	1	7
585.471	1	-2
585.811	1	3
586.150	1	12
586.490	1	3
586.830	1	-6
587.169	1	7
587.509	1	7
587.849	1	1
588.188	1	9
588.528	1	10
588.867	1	0
589.207	1	-5
589.547	1	3
589.886	1	4
590.226	1	15
590.566	1	4
590.905	1	10
591.245	1	1
591.585	1	7
591.924	1	6
592.264	1	4
592.603	1	-3
592.943	1	1
593.283	1	-7
593.622	1	13
593.962	1	8
594.301	1	-5
594.641	1	1
594.981	1	-1
595.320	1	10
595.660	1	4
595.999	1	2
596.339	1	4
596.678	1	-3
597.018	1	5
597.358	1	-3
597.697	1	-2
598.037	1	6
598.376	1	-1
598.716	1	5
599.055	1	0
599.395	1	1
599.734	1	-5
600.074	1	9
600.413	1	13
600.753	1	-1
601.092	1	0
601.432	1	4
601.771	1	8
602.111	1	-1
602.451	1	8
602.790	1	5
603.130	1	6
603.469	1	4
603.809	1	-3
604.148	1	4
604.487	1	11
604.827	1	-3
605.166	1	8
605.506	1	6
605.845	1	-2
606.185	1	10
606.524	1	3
606.864	1	16
607.203	1	2
607.543	1	14
607.882	1	10
608.222	1	1
608.561	1	-4
608.901	1	8
609.240	1	1
609.579	1	12
609.919	1	8
610.258	1	2
610.598	1	-1
610.937	1	7
611.277	1	12
611.616	1	-7
611.955	1	-4
612.295	1	16
612.634	1	-3
612.974	1	6
613.313	1	1
613.652	1	-2
613.992	1	-2
614.331	1	2
614.671	1	5
615.010	1	-8
615.349	1	8
615.689	1	-1
616.028	1	8
616.368	1	11
616.707	1	4
617.046	1	4
617.386	1	-13
617.725	1	2
618.064	1	13
618.404	1	-11
618.743	1	8
619.082	1	-1
619.422	1	5
619.761	1	9
620.100	1	-7
620.440	1	8
620.779	1	9
621.118	1	3
621.458	1	3
621.797	1	-8
622.136	1	-1
622.476	1	0
622.815	1	0
623.154	1	7
623.494	1	9
623.833	1	7
624.172	1	-1
624.511	1	1
624.851	1	-6
625.190	1	-1
625.529	1	-1
625.869	1	10
626.208	1	2
626.547	1	6
626.886	1	-1
627.226	1	-5
627.565	1	10
627.904	1	3
628.243	1	13
628.583	1	-7
628.922	1	2
629.261	1	-4
629.600	1	1
629.940	1	13
630.279	1	7
630.618	1	3
630.957	1	-3
631.297	1	0
631.636	1	5
631.975	1	6
632.314	1	3
632.653	1	0
632.993	1	2
633.332	1	3
633.671	1	-7
634.010	1	-1
634.349	1	5
634.689	1	-1
635.028	1	2
635.367	1	7
635.706	1	11
636.045	1	10
636.384	1	9
636.724	1	4
637.063	1	-3
637.402	1	4
637.741	1	7
638.080	1	10
638.419	1	4
638.759	1	4
639.098	1	1
639.437	1	14
639.776	1	5
640.115	1	8
640.454	1	8
640.793	1	-9
641.132	1	6
641.472	1	8
641.811	1	-5
642.150	1	-14
642.489	1	-9
642.828	1	-2
643.167	1	12
643.506	1	2
643.845	1	-1
644.184	1	-8
644.524	1	11
644.863	1	4
645.202	1	10
645.541	1	3
645.880	1	6
646.219	1	-4
646.558	1	1
646.897	1	0
647.236	1	1
647.575	1	-7
647.914	1	-6
648.253	1	5
648.592	1	2
648.931	1	-1
649.270	1	-6
649.610	1	-2
649.949	1	0
650.288	1	3
650.627	1	3
650.966	1	3
651.305	1	8
651.644	1	3
651.983	1	-5
652.322	1	4
652.661	1	-1
653.000	1	5
653.339	1	4
653.678	1	-1
654.017	1	-5
654.356	1	11
654.695	1	-4
655.034	1	4
655.373	1	-4
655.712	1	4
656.051	1	2
656.390	1	3
656.729	1	6
657.068	1	-3
657.406	1	5
657.745	1	-1
658.084	1	1
658.423	1	0
658.762	1	8
659.101	1	0
659.440	1	-5
659.779	1	-4
660.118	1	-5
660.457	1	0
660.796	1	3
661.135	1	6
661.474	1	3
661.813	1	1
662.152	1	-6
662.491	1	12
662.829	1	3
663.168	1	7
663.507	1	-2
663.846	1	0
664.185	1	-4
664.524	1	-9
664.863	1	4
665.202	1	-5
665.541	1	-3
665.879	1	7
666.218	1	2
666.557	1	12
666.896	1	2
667.235	1	5
667.574	1	24
667.913	1	10
668.251	1	-5
668.590	1	6
668.929	1	9
669.268	1	5
669.607	1	6
669.946	1	13
670.285	1	2
670.623	1	13
670.962	1	-3
671.301	1	4
671.640	1	-7
671.979	1	2
672.317	1	-1
672.656	1	-7
672.995	1	-3
673.334	1	-12
673.673	1	5
674.011	1	-2
674.350	1	9
674.689	1	4
675.028	1	10
675.367	1	-3
675.705	1	15
676.044	1	3
676.383	1	12
676.722	1	2
677.060	1	4
677.399	1	-3
677.738	1	2
678.077	1	-5
678.416	1	4
678.754	1	7
679.093	1	-3
679.432	1	7
679.771	1	5
680.109	1	2
680.448	1	8
680.787	1	9
681.125	1	7
681.464	1	4
681.803	1	-9
682.142	1	-6
682.480	1	7
682.819	1	2
683.158	1	10
683.496	1	6
683.835	1	-4
684.174	1	8
684.512	1	9
684.851	1	6
685.190	1	-1
685.529	1	-6
685.867	1	5
686.206	1	8
686.545	1	0
686.883	1	0
687.222	1	-5
687.561	1	14
687.899	1	1
688.238	1	8
688.577	1	0
688.746	1	2