File: Data/GaN_130K_350ms/GaN_sample F_spot6_UVVIS_130 K_200um_350 ms 2x2mm1_293.txt
340.368	1	8
340.710	1	10
341.052	1	-4
341.394	1	-4
341.737	1	15
342.079	1	7
342.421	1	13
342.763	1	-3
343.105	1	3
343.447	1	3
343.789	1	3
344.131	1	3
344.473	1	-2
344.815	1	-4
345.157	1	-18
345.499	1	-5
345.841	1	5
346.183	1	12
346.526	1	0
346.868	1	3
347.210	1	-6
347.552	1	-3
347.894	1	-1
348.236	1	-1
348.578	1	4
348.920	1	2
349.262	1	6
349.604	1	2
349.946	1	4
350.288	1	-7
350.630	1	3
350.972	1	13
351.314	1	-5
351.656	1	5
351.998	1	-1
352.340	1	5
352.682	1	-5
353.024	1	-5
353.366	1	5
353.708	1	-3
354.050	1	-1
354.392	1	2
354.734	1	1
355.076	1	2
355.418	1	7
355.760	1	0
356.102	1	-4
356.444	1	-7
356.785	1	8
357.127	1	18
357.469	1	2
357.811	1	13
358.153	1	2
358.495	1	1
358.837	1	6
359.179	1	-1
359.521	1	-5
359.863	1	-3
360.205	1	-3
360.547	1	4
360.889	1	-2
361.231	1	-7
361.572	1	1
361.914	1	4
362.256	1	7
362.598	1	8
362.940	1	-10
363.282	1	2
363.624	1	11
363.966	1	14
364.308	1	23
364.649	1	14
364.991	1	9
365.333	1	-3
365.675	1	10
366.017	1	12
366.359	1	9
366.701	1	2
367.042	1	9
367.384	1	8
367.726	1	18
368.068	1	5
368.410	1	7
368.752	1	22
369.093	1	13
369.435	1	5
369.777	1	1
370.119	1	12
370.461	1	19
370.803	1	7
371.144	1	11
371.486	1	13
371.828	1	9
372.170	1	0
372.512	1	6
372.853	1	-1
373.195	1	4
373.537	1	2
373.879	1	7
374.220	1	0
374.562	1	3
374.904	1	12
375.246	1	8
375.588	1	3
375.929	1	-4
376.271	1	2
376.613	1	1
376.955	1	8
377.296	1	6
377.638	1	-5
377.980	1	6
378.321	1	11
378.663	1	9
379.005	1	13
379.347	1	-1
379.688	1	1
380.030	1	1
380.372	1	13
380.714	1	13
381.055	1	1
381.397	1	1
381.739	1	7
382.080	1	0
382.422	1	11
382.764	1	3
383.105	1	7
383.447	1	-3
383.789	1	14
384.130	1	5
384.472	1	11
384.814	1	-1
385.156	1	2
385.497	1	8
385.839	1	1
386.180	1	5
386.522	1	3
386.864	1	4
387.205	1	0
387.547	1	7
387.889	1	-6
388.230	1	1
388.572	1	4
388.914	1	3
389.255	1	0
389.597	1	-11
389.939	1	3
390.280	1	15
390.622	1	0
390.963	1	6
391.305	1	11
391.647	1	1
391.988	1	13
392.330	1	5
392.671	1	2
393.013	1	10
393.355	1	4
393.696	1	0
394.038	1	9
394.379	1	6
394.721	1	6
395.062	1	-3
395.404	1	-5
395.746	1	5
396.087	1	12
396.429	1	5
396.770	1	5
397.112	1	0
397.453	1	8
397.795	1	1
398.136	1	9
398.478	1	8
398.819	1	-5
399.161	1	5
399.503	1	15
399.844	1	0
400.186	1	-4
400.527	1	8
400.869	1	8
401.210	1	-1
401.552	1	7
401.893	1	-7
402.235	1	0
402.576	1	8
402.918	1	3
403.259	1	0
403.601	1	2
403.942	1	3
404.284	1	-3
404.625	1	11
404.967	1	5
405.308	1	1
405.649	1	12
405.991	1	5
406.332	1	1
406.674	1	9
407.015	1	12
407.357	1	2
407.698	1	-3
408.040	1	4
408.381	1	17
408.722	1	7
409.064	1	7
409.405	1	8
409.747	1	-9
410.088	1	15
410.430	1	14
410.771	1	-8
411.112	1	12
411.454	1	5
411.795	1	2
412.137	1	7
412.478	1	0
412.819	1	-2
413.161	1	11
413.502	1	13
413.844	1	2
414.185	1	0
414.526	1	4
414.868	1	-6
415.209	1	0
415.550	1	-3
415.892	1	3
416.233	1	10
416.575	1	3
416.916	1	10
417.257	1	12
417.599	1	6
417.940	1	1
418.281	1	2
418.623	1	4
418.964	1	6
419.305	1	-1
419.647	1	5
419.988	1	13
420.329	1	6
420.671	1	5
421.012	1	-2
421.353	1	4
421.695	1	-3
422.036	1	10
422.377	1	5
422.718	1	1
423.060	1	4
423.401	1	9
423.742	1	10
424.084	1	7
424.425	1	4
424.766	1	5
425.107	1	9
425.449	1	3
425.790	1	6
426.131	1	12
426.472	1	3
426.814	1	3
427.155	1	-8
427.496	1	3
427.837	1	-1
428.179	1	7
428.520	1	12
428.861	1	2
429.202	1	3
429.544	1	8
429.885	1	-1
430.226	1	3
430.567	1	1
430.909	1	4
431.250	1	11
431.591	1	4
431.932	1	-3
432.273	1	8
432.615	1	11
432.956	1	-4
433.297	1	6
433.638	1	0
433.979	1	1
434.320	1	5
434.662	1	8
435.003	1	10
435.344	1	7
435.685	1	-12
436.026	1	6
436.368	1	1
436.709	1	3
437.050	1	10
437.391	1	16
437.732	1	6
438.073	1	9
438.414	1	-3
438.756	1	-1
439.097	1	2
439.438	1	7
439.779	1	11
440.120	1	7
440.461	1	11
440.802	1	-1
441.143	1	-8
441.485	1	6
441.826	1	0
442.167	1	-3
442.508	1	6
442.849	1	5
443.190	1	-1
443.531	1	10
443.872	1	11
444.213	1	-2
444.554	1	11
444.895	1	4
445.237	1	-7
445.578	1	2
445.919	1	-2
446.260	1	5
446.601	1	10
446.942	1	-2
447.283	1	8
447.624	1	2
447.965	1	9
448.306	1	5
448.647	1	18
448.988	1	5
449.329	1	4
449.670	1	9
450.011	1	-2
450.352	1	8
450.693	1	-1
451.034	1	0
451.375	1	12
451.716	1	0
452.057	1	10
452.398	1	-1
452.739	1	4
453.080	1	-1
453.421	1	-2
453.762	1	4
454.103	1	6
454.444	1	8
454.785	1	13
455.126	1	-4
455.467	1	-1
455.808	1	9
456.149	1	-1
456.490	1	1
456.831	1	1
457.172	1	2
457.513	1	-5
457.854	1	6
458.195	1	-12
458.536	1	2
458.877	1	15
459.218	1	-1
459.559	1	1
459.899	1	11
460.240	1	10
460.581	1	0
460.922	1	10
461.263	1	1
461.604	1	-8
461.945	1	5
462.286	1	-2
462.627	1	1
462.968	1	4
463.309	1	-3
463.649	1	-3
463.990	1	1
464.331	1	12
464.672	1	7
465.013	1	-7
465.354	1	8
465.695	1	7
466.036	1	6
466.376	1	7
466.717	1	6
467.058	1	7
467.399	1	-6
467.740	1	14
468.081	1	4
468.422	1	2
468.762	1	-6
469.103	1	-1
469.444	1	-2
469.785	1	8
470.126	1	-11
470.467	1	5
470.807	1	2
471.148	1	4
471.489	1	0
471.830	1	2
472.171	1	4
472.511	1	1
472.852	1	8
473.193	1	6
473.534	1	8
473.875	1	-1
474.215	1	8
474.556	1	1
474.897	1	-4
475.238	1	12
475.578	1	-5
475.919	1	-7
476.260	1	0
476.601	1	-4
476.942	1	6
477.282	1	2
477.623	1	-1
477.964	1	-1
478.305	1	15
478.645	1	3
478.986	1	-1
479.327	1	3
479.667	1	-4
480.008	1	4
480.349	1	2
480.690	1	-5
481.030	1	-2
481.371	1	9
481.712	1	7
482.053	1	-1
482.393	1	13
482.734	1	-1
483.075	1	8
483.415	1	-3
483.756	1	-2
484.097	1	8
484.437	1	-1
484.778	1	12
485.119	1	14
485.459	1	-8
485.800	1	7
486.141	1	2
486.481	1	-4
486.822	1	3
487.163	1	3
487.503	1	1
487.844	1	-2
488.185	1	13
488.525	1	5
488.866	1	0
489.207	1	5
489.547	1	-5
489.888	1	14
490.228	1	4
490.569	1	-6
490.910	1	-4
491.250	1	4
491.591	1	-8
491.932	1	-2
492.272	1	-6
492.613	1	-1
492.953	1	-6
493.294	1	8
493.635	1	11
493.975	1	14
494.316	1	2
494.656	1	-1
494.997	1	-3
495.337	1	2
495.678	1	-2
496.019	1	-4
496.359	1	5
496.700	1	7
497.040	1	5
497.381	1	7
497.721	1	0
498.062	1	-5
498.403	1	-7
498.743	1	15
499.084	1	5
499.424	1	-4
499.765	1	-6
500.105	1	2
500.446	1	-1
500.786	1	7
501.127	1	9
501.467	1	-2
501.808	1	-2
502.148	1	0
502.489	1	-3
502.829	1	7
503.170	1	1
503.510	1	5
503.851	1	-3
504.191	1	0
504.532	1	4
504.872	1	6
505.213	1	-3
505.553	1	4
505.894	1	-3
506.234	1	4
506.575	1	3
506.915	1	-3
507.256	1	5
507.596	1	-15
507.936	1	-7
508.277	1	-2
508.617	1	-2
508.958	1	8
509.298	1	4
509.639	1	9
509.979	1	-2
510.319	1	13
510.660	1	-6
511.000	1	1
511.341	1	0
511.681	1	5
512.022	1	17
512.362	1	0
512.702	1	10
513.043	1	1
513.383	1	4
513.724	1	0
514.064	1	-5
514.404	1	14
514.745	1	2
515.085	1	7
515.425	1	5
515.766	1	5
516.106	1	-3
516.447	1	-1
516.787	1	6
517.127	1	5
517.468	1	-1
517.808	1	-1
518.148	1	12
518.489	1	1
518.829	1	16
519.169	1	2
519.510	1	-6
519.850	1	10
520.190	1	7
520.531	1	10
520.871	1	-2
521.211	1	10
521.552	1	-2
521.892	1	0
522.232	1	-4
522.573	1	0
522.913	1	1
523.253	1	6
523.593	1	7
523.934	1	-1
524.274	1	-8
524.614	1	3
524.955	1	13
525.295	1	6
525.635	1	-8
525.975	1	16
526.316	1	0
526.656	1	12
526.996	1	2
527.337	1	11
527.677	1	-7
528.017	1	1
528.357	1	1
528.698	1	-2
529.038	1	-8
529.378	1	0
529.718	1	4
530.058	1	1
530.399	1	0
530.739	1	7
531.079	1	5
531.419	1	4
531.760	1	6
532.100	1	9
532.440	1	10
532.780	1	2
533.120	1	13
533.461	1	-8
533.801	1	19
534.141	1	-1
534.481	1	-1
534.821	1	16
535.162	1	6
535.502	1	10
535.842	1	0
536.182	1	8
536.522	1	-6
536.862	1	5
537.203	1	-3
537.543	1	6
537.883	1	-3
538.223	1	5
538.563	1	10
538.903	1	11
539.243	1	1
539.584	1	-3
539.924	1	7
540.264	1	-5
540.604	1	10
540.944	1	3
541.284	1	8
541.624	1	6
541.964	1	2
542.305	1	-7
542.645	1	-6
542.985	1	4
543.325	1	4
543.665	1	11
544.005	1	10
544.345	1	8
544.685	1	13
545.025	1	6
545.365	1	13
545.705	1	2
546.045	1	5
546.386	1	-3
546.726	1	-1
547.066	1	4
547.406	1	-9
547.746	1	5
548.086	1	-12
548.426	1	7
548.766	1	-2
549.106	1	-1
549.446	1	1
549.786	1	8
550.126	1	12
550.466	1	4
550.806	1	17
551.146	1	10
551.486	1	10
551.826	1	-2
552.166	1	4
552.506	1	5
552.846	1	3
553.186	1	-2
553.526	1	8
553.866	1	-5
554.206	1	-3
554.546	1	8
554.886	1	-1
555.226	1	8
555.566	1	-1
555.906	1	-5
556.246	1	1
556.586	1	5
556.926	1	5
557.266	1	4
557.606	1	-2
557.946	1	1
558.286	1	14
558.626	1	-12
558.966	1	5
559.306	1	-1
559.646	1	5
559.986	1	0
560.325	1	-11
560.665	1	12
561.005	1	-2
561.345	1	3
561.685	1	-2
562.025	1	-1
562.365	1	4
562.705	1	0
563.045	1	6
563.385	1	8
563.725	1	3
564.064	1	5
564.404	1	5
564.744	1	5
565.084	1	12
565.424	1	-8
565.764	1	8
566.104	1	6
566.444	1	2
566.783	1	19
567.123	1	3
567.463	1	6
567.803	1	11
568.143	1	5
568.483	1	2
568.823	1	-3
569.162	1	14
569.502	1	1
569.842	1	3
570.182	1	5
570.522	1	-15
570.862	1	14
571.201	1	-1
571.541	1	-2
571.881	1	4
572.221	1	8
572.561	1	-3
572.900	1	-3
573.240	1	-8
573.580	1	5
573.920	1	14
574.260	1	2
574.599	1	11
574.939	1	8
575.279	1	-6
575.619	1	2
575.959	1	3
576.298	1	-9
576.638	1	-8
576.978	1	-2
577.318	1	7
577.657	1	8
577.997	1	9
578.337	1	4
578.677	1	9
579.016	1	0
579.356	1	6
579.696	1	-4
580.036	1	-5
580.375	1	-1
580.715	1	7
581.055	1	5
581.394	1	-4
581.734	1	0
582.074	1	3
582.414	1	6
582.753	1	1
583.093	1	4
583.433	1	0
583.772	1	-2
584.112	1	0
584.452	1	17
584.791	1	9
585.131	1	7
585.471	1	-5
585.811	1	4
586.150	1	16
586.490	1	5
586.830	1	-6
587.169	1	0
587.509	1	8
587.849	1	0
588.188	1	6
588.528	1	2
588.867	1	0
589.207	1	-4
589.547	1	1
589.886	1	10
590.226	1	9
590.566	1	7
590.905	1	3
591.245	1	3
591.585	1	0
591.924	1	-7
592.264	1	7
592.603	1	-1
592.943	1	0
593.283	1	-9
593.622	1	4
593.962	1	11
594.301	1	-4
594.641	1	3
594.981	1	-9
595.320	1	11
595.660	1	2
595.999	1	10
596.339	1	11
596.678	1	-8
597.018	1	3
597.358	1	-8
597.697	1	3
598.037	1	3
598.376	1	-2
598.716	1	8
599.055	1	2
599.395	1	2
599.734	1	-2
600.074	1	10
600.413	1	12
600.753	1	3
601.092	1	1
601.432	1	-8
601.771	1	15
602.111	1	-1
602.451	1	5
602.790	1	0
603.130	1	14
603.469	1	4
603.809	1	1
604.148	1	11
604.487	1	11
604.827	1	4
605.166	1	8
605.506	1	-4
605.845	1	5
606.185	1	11
606.524	1	-4
606.864	1	8
607.203	1	-1
607.543	1	7
607.882	1	5
608.222	1	-2
608.561	1	7
608.901	1	4
609.240	1	-6
609.579	1	7
609.919	1	15
610.258	1	-2
610.598	1	3
610.937	1	13
611.277	1	1
611.616	1	0
611.955	1	-8
612.295	1	2
612.634	1	2
612.974	1	4
613.313	1	4
613.652	1	-2
613.992	1	4
614.331	1	7
614.671	1	2
615.010	1	-3
615.349	1	4
615.689	1	3
616.028	1	13
616.368	1	0
616.707	1	6
617.046	1	10
617.386	1	-1
617.725	1	9
618.064	1	-1
618.404	1	3
618.743	1	8
619.082	1	3
619.422	1	4
619.761	1	5
620.100	1	0
620.440	1	0
620.779	1	0
621.118	1	4
621.458	1	10
621.797	1	1
622.136	1	8
622.476	1	2
622.815	1	-1
623.154	1	7
623.494	1	0
623.833	1	1
624.172	1	4
624.511	1	9
624.851	1	3
625.190	1	-3
625.529	1	3
625.869	1	0
626.208	1	3
626.547	1	6
626.886	1	4
627.226	1	1
627.565	1	0
627.904	1	0
628.243	1	4
628.583	1	-2
628.922	1	-8
629.261	1	-14
629.600	1	-3
629.940	1	8
630.279	1	12
630.618	1	-8
630.957	1	-2
631.297	1	0
631.636	1	1
631.975	1	1
632.314	1	-7
632.653	1	2
632.993	1	5
633.332	1	0
633.671	1	-2
634.010	1	0
634.349	1	3
634.689	1	11
635.028	1	16
635.367	1	2
635.706	1	2
636.045	1	10
636.384	1	1
636.724	1	3
637.063	1	5
637.402	1	-1
637.741	1	8
638.080	1	8
638.419	1	7
638.759	1	-2
639.098	1	3
639.437	1	-1
639.776	1	8
640.115	1	7
640.454	1	3
640.793	1	-8
641.132	1	13
641.472	1	-3
641.811	1	-6
642.150	1	-10
642.489	1	-6
642.828	1	1
643.167	1	2
643.506	1	7
643.845	1	-2
644.184	1	-6
644.524	1	3
644.863	1	5
645.202	1	-1
645.541	1	-1
645.880	1	-2
646.219	1	4
646.558	1	4
646.897	1	-1
647.236	1	-9
647.575	1	-5
647.914	1	-8
648.253	1	1
648.592	1	10
648.931	1	-5
649.270	1	2
649.610	1	-9
649.949	1	2
650.288	1	11
650.627	1	11
650.966	1	-1
651.305	1	-2
651.644	1	-3
651.983	1	-14
652.322	1	-3
652.661	1	-9
653.000	1	0
653.339	1	2
653.678	1	-1
654.017	1	4
654.356	1	4
654.695	1	-8
655.034	1	9
655.373	1	-3
655.712	1	2
656.051	1	4
656.390	1	-4
656.729	1	5
657.068	1	3
657.406	1	5
657.745	1	-1
658.084	1	6
658.423	1	-3
658.762	1	13
659.101	1	2
659.440	1	-7
659.779	1	3
660.118	1	-9
660.457	1	-1
660.796	1	3
661.135	1	7
661.474	1	10
661.813	1	0
662.152	1	5
662.491	1	18
662.829	1	11
663.168	1	3
663.507	1	3
663.846	1	2
664.185	1	-1
664.524	1	-4
664.863	1	7
665.202	1	0
665.541	1	5
665.879	1	11
666.218	1	10
666.557	1	5
666.896	1	7
667.235	1	9
667.574	1	11
667.913	1	12
668.251	1	5
668.590	1	15
668.929	1	11
669.268	1	-8
669.607	1	-7
669.946	1	9
670.285	1	5
670.623	1	10
670.962	1	0
671.301	1	0
671.640	1	-14
671.979	1	10
672.317	1	1
672.656	1	-6
672.995	1	-4
673.334	1	-10
673.673	1	6
674.011	1	4
674.350	1	-3
674.689	1	3
675.028	1	13
675.367	1	-4
675.705	1	14
676.044	1	8
676.383	1	0
676.722	1	-3
677.060	1	8
677.399	1	3
677.738	1	-6
678.077	1	13
678.416	1	0
678.754	1	10
679.093	1	5
679.432	1	-2
679.771	1	4
680.109	1	-1
680.448	1	9
680.787	1	1
681.125	1	7
681.464	1	-3
681.803	1	-1
682.142	1	1
682.480	1	15
682.819	1	4
683.158	1	3
683.496	1	-6
683.835	1	-10
684.174	1	5
684.512	1	12
684.851	1	3
685.190	1	1
685.529	1	-13
685.867	1	-6
686.206	1	-2
686.545	1	-5
686.883	1	-1
687.222	1	-1
687.561	1	6
687.899	1	1
688.238	1	3
688.577	1	-3
688.746	1	6