File: Data/GaN_130K_350ms/GaN_sample F_spot6_UVVIS_130 K_200um_350 ms 2x2mm1_180.txt
340.368	1	9
340.710	1	16
341.052	1	-5
341.394	1	2
341.737	1	7
342.079	1	2
342.421	1	12
342.763	1	3
343.105	1	-1
343.447	1	10
343.789	1	1
344.131	1	5
344.473	1	8
344.815	1	-14
345.157	1	-19
345.499	1	0
345.841	1	0
346.183	1	12
346.526	1	0
346.868	1	2
347.210	1	4
347.552	1	1
347.894	1	3
348.236	1	-3
348.578	1	0
348.920	1	14
349.262	1	8
349.604	1	11
349.946	1	7
350.288	1	-14
350.630	1	7
350.972	1	8
351.314	1	-1
351.656	1	8
351.998	1	-1
352.340	1	11
352.682	1	-2
353.024	1	0
353.366	1	9
353.708	1	-12
354.050	1	7
354.392	1	7
354.734	1	2
355.076	1	0
355.418	1	6
355.760	1	6
356.102	1	4
356.444	1	-2
356.785	1	11
357.127	1	16
357.469	1	-1
357.811	1	10
358.153	1	10
358.495	1	7
358.837	1	12
359.179	1	6
359.521	1	4
359.863	1	6
360.205	1	-1
360.547	1	-2
360.889	1	0
361.231	1	-4
361.572	1	22
361.914	1	9
362.256	1	0
362.598	1	8
362.940	1	4
363.282	1	11
363.624	1	16
363.966	1	27
364.308	1	21
364.649	1	22
364.991	1	25
365.333	1	16
365.675	1	18
366.017	1	29
366.359	1	21
366.701	1	24
367.042	1	22
367.384	1	29
367.726	1	19
368.068	1	23
368.410	1	19
368.752	1	25
369.093	1	27
369.435	1	9
369.777	1	30
370.119	1	29
370.461	1	20
370.803	1	24
371.144	1	9
371.486	1	22
371.828	1	21
372.170	1	14
372.512	1	20
372.853	1	4
373.195	1	10
373.537	1	19
373.879	1	27
374.220	1	12
374.562	1	3
374.904	1	9
375.246	1	18
375.588	1	13
375.929	1	-2
376.271	1	11
376.613	1	12
376.955	1	8
377.296	1	-1
377.638	1	5
377.980	1	-2
378.321	1	14
378.663	1	6
379.005	1	15
379.347	1	4
379.688	1	7
380.030	1	4
380.372	1	8
380.714	1	22
381.055	1	0
381.397	1	5
381.739	1	13
382.080	1	6
382.422	1	19
382.764	1	7
383.105	1	7
383.447	1	11
383.789	1	14
384.130	1	14
384.472	1	7
384.814	1	10
385.156	1	2
385.497	1	5
385.839	1	8
386.180	1	18
386.522	1	15
386.864	1	14
387.205	1	6
387.547	1	14
387.889	1	-2
388.230	1	0
388.572	1	13
388.914	1	4
389.255	1	11
389.597	1	-3
389.939	1	2
390.280	1	2
390.622	1	9
390.963	1	5
391.305	1	12
391.647	1	10
391.988	1	13
392.330	1	4
392.671	1	-2
393.013	1	5
393.355	1	4
393.696	1	-6
394.038	1	15
394.379	1	10
394.721	1	7
395.062	1	-8
395.404	1	-8
395.746	1	9
396.087	1	16
396.429	1	-1
396.770	1	10
397.112	1	5
397.453	1	17
397.795	1	0
398.136	1	5
398.478	1	9
398.819	1	-5
399.161	1	5
399.503	1	12
399.844	1	1
400.186	1	-2
400.527	1	16
400.869	1	6
401.210	1	1
401.552	1	9
401.893	1	0
402.235	1	8
402.576	1	10
402.918	1	13
403.259	1	5
403.601	1	6
403.942	1	9
404.284	1	-2
404.625	1	17
404.967	1	4
405.308	1	5
405.649	1	9
405.991	1	6
406.332	1	5
406.674	1	8
407.015	1	7
407.357	1	3
407.698	1	8
408.040	1	4
408.381	1	15
408.722	1	10
409.064	1	5
409.405	1	9
409.747	1	7
410.088	1	11
410.430	1	20
410.771	1	-5
411.112	1	15
411.454	1	8
411.795	1	12
412.137	1	-1
412.478	1	1
412.819	1	9
413.161	1	10
413.502	1	17
413.844	1	6
414.185	1	12
414.526	1	13
414.868	1	9
415.209	1	10
415.550	1	10
415.892	1	10
416.233	1	2
416.575	1	7
416.916	1	1
417.257	1	11
417.599	1	1
417.940	1	17
418.281	1	3
418.623	1	6
418.964	1	3
419.305	1	-5
419.647	1	14
419.988	1	11
420.329	1	14
420.671	1	6
421.012	1	1
421.353	1	-2
421.695	1	2
422.036	1	3
422.377	1	10
422.718	1	2
423.060	1	11
423.401	1	11
423.742	1	10
424.084	1	14
424.425	1	13
424.766	1	2
425.107	1	8
425.449	1	13
425.790	1	12
426.131	1	17
426.472	1	4
426.814	1	6
427.155	1	-4
427.496	1	6
427.837	1	6
428.179	1	11
428.520	1	5
428.861	1	6
429.202	1	13
429.544	1	16
429.885	1	9
430.226	1	0
430.567	1	5
430.909	1	8
431.250	1	22
431.591	1	-2
431.932	1	5
432.273	1	13
432.615	1	12
432.956	1	3
433.297	1	19
433.638	1	7
433.979	1	-2
434.320	1	-1
434.662	1	7
435.003	1	19
435.344	1	6
435.685	1	-3
436.026	1	6
436.368	1	1
436.709	1	3
437.050	1	10
437.391	1	20
437.732	1	8
438.073	1	13
438.414	1	-10
438.756	1	3
439.097	1	4
439.438	1	7
439.779	1	15
440.120	1	-1
440.461	1	15
440.802	1	0
441.143	1	-4
441.485	1	2
441.826	1	3
442.167	1	6
442.508	1	7
442.849	1	5
443.190	1	5
443.531	1	9
443.872	1	19
444.213	1	9
444.554	1	3
444.895	1	-3
445.237	1	2
445.578	1	-2
445.919	1	4
446.260	1	2
446.601	1	12
446.942	1	8
447.283	1	4
447.624	1	5
447.965	1	-3
448.306	1	2
448.647	1	13
448.988	1	8
449.329	1	-4
449.670	1	5
450.011	1	1
450.352	1	16
450.693	1	2
451.034	1	4
451.375	1	7
451.716	1	-2
452.057	1	13
452.398	1	-4
452.739	1	9
453.080	1	-3
453.421	1	6
453.762	1	9
454.103	1	1
454.444	1	10
454.785	1	5
455.126	1	1
455.467	1	5
455.808	1	19
456.149	1	-3
456.490	1	6
456.831	1	4
457.172	1	6
457.513	1	4
457.854	1	4
458.195	1	-2
458.536	1	7
458.877	1	16
459.218	1	10
459.559	1	-2
459.899	1	-1
460.240	1	16
460.581	1	-1
460.922	1	5
461.263	1	5
461.604	1	-13
461.945	1	9
462.286	1	10
462.627	1	1
462.968	1	4
463.309	1	2
463.649	1	-1
463.990	1	-2
464.331	1	12
464.672	1	13
465.013	1	-2
465.354	1	5
465.695	1	13
466.036	1	4
466.376	1	-5
466.717	1	3
467.058	1	5
467.399	1	-3
467.740	1	14
468.081	1	17
468.422	1	9
468.762	1	-7
469.103	1	4
469.444	1	-4
469.785	1	10
470.126	1	-7
470.467	1	0
470.807	1	9
471.148	1	6
471.489	1	-7
471.830	1	4
472.171	1	6
472.511	1	-2
472.852	1	10
473.193	1	12
473.534	1	2
473.875	1	7
474.215	1	4
474.556	1	8
474.897	1	-1
475.238	1	12
475.578	1	5
475.919	1	5
476.260	1	5
476.601	1	-9
476.942	1	4
477.282	1	16
477.623	1	-3
477.964	1	1
478.305	1	11
478.645	1	-3
478.986	1	8
479.327	1	5
479.667	1	7
480.008	1	5
480.349	1	1
480.690	1	8
481.030	1	-1
481.371	1	11
481.712	1	-3
482.053	1	2
482.393	1	8
482.734	1	-4
483.075	1	18
483.415	1	2
483.756	1	10
484.097	1	-4
484.437	1	1
484.778	1	10
485.119	1	10
485.459	1	-2
485.800	1	10
486.141	1	4
486.481	1	2
486.822	1	14
487.163	1	1
487.503	1	-3
487.844	1	0
488.185	1	8
488.525	1	9
488.866	1	0
489.207	1	0
489.547	1	1
489.888	1	8
490.228	1	4
490.569	1	8
490.910	1	0
491.250	1	2
491.591	1	-2
491.932	1	3
492.272	1	-4
492.613	1	-5
492.953	1	9
493.294	1	4
493.635	1	12
493.975	1	3
494.316	1	7
494.656	1	0
494.997	1	4
495.337	1	3
495.678	1	3
496.019	1	1
496.359	1	23
496.700	1	6
497.040	1	14
497.381	1	6
497.721	1	-2
498.062	1	0
498.403	1	-2
498.743	1	9
499.084	1	19
499.424	1	-1
499.765	1	0
500.105	1	3
500.446	1	7
500.786	1	9
501.127	1	2
501.467	1	5
501.808	1	10
502.148	1	0
502.489	1	5
502.829	1	5
503.170	1	4
503.510	1	11
503.851	1	6
504.191	1	1
504.532	1	14
504.872	1	-1
505.213	1	5
505.553	1	9
505.894	1	12
506.234	1	2
506.575	1	4
506.915	1	4
507.256	1	15
507.596	1	-2
507.936	1	1
508.277	1	2
508.617	1	-6
508.958	1	11
509.298	1	0
509.639	1	3
509.979	1	7
510.319	1	21
510.660	1	-2
511.000	1	9
511.341	1	8
511.681	1	14
512.022	1	17
512.362	1	1
512.702	1	11
513.043	1	10
513.383	1	5
513.724	1	5
514.064	1	4
514.404	1	7
514.745	1	4
515.085	1	10
515.425	1	2
515.766	1	7
516.106	1	2
516.447	1	4
516.787	1	12
517.127	1	11
517.468	1	12
517.808	1	7
518.148	1	11
518.489	1	4
518.829	1	7
519.169	1	12
519.510	1	-2
519.850	1	16
520.190	1	20
520.531	1	15
520.871	1	-3
521.211	1	10
521.552	1	13
521.892	1	16
522.232	1	-2
522.573	1	2
522.913	1	12
523.253	1	17
523.593	1	16
523.934	1	5
524.274	1	0
524.614	1	14
524.955	1	16
525.295	1	18
525.635	1	7
525.975	1	12
526.316	1	5
526.656	1	15
526.996	1	18
527.337	1	25
527.677	1	2
528.017	1	5
528.357	1	6
528.698	1	-1
529.038	1	-2
529.378	1	10
529.718	1	18
530.058	1	7
530.399	1	19
530.739	1	10
531.079	1	4
531.419	1	8
531.760	1	10
532.100	1	12
532.440	1	9
532.780	1	4
533.120	1	12
533.461	1	13
533.801	1	19
534.141	1	-1
534.481	1	9
534.821	1	22
535.162	1	11
535.502	1	13
535.842	1	5
536.182	1	21
536.522	1	0
536.862	1	7
537.203	1	15
537.543	1	11
537.883	1	-2
538.223	1	9
538.563	1	20
538.903	1	12
539.243	1	9
539.584	1	12
539.924	1	4
540.264	1	13
540.604	1	20
540.944	1	6
541.284	1	12
541.624	1	14
541.964	1	7
542.305	1	4
542.645	1	6
542.985	1	1
543.325	1	10
543.665	1	24
544.005	1	12
544.345	1	8
544.685	1	11
545.025	1	6
545.365	1	14
545.705	1	5
546.045	1	16
546.386	1	6
546.726	1	6
547.066	1	20
547.406	1	-3
547.746	1	12
548.086	1	1
548.426	1	12
548.766	1	3
549.106	1	0
549.446	1	8
549.786	1	16
550.126	1	13
550.466	1	22
550.806	1	21
551.146	1	11
551.486	1	4
551.826	1	8
552.166	1	12
552.506	1	1
552.846	1	1
553.186	1	7
553.526	1	12
553.866	1	-2
554.206	1	12
554.546	1	6
554.886	1	7
555.226	1	5
555.566	1	8
555.906	1	12
556.246	1	13
556.586	1	5
556.926	1	4
557.266	1	3
557.606	1	11
557.946	1	9
558.286	1	9
558.626	1	-9
558.966	1	0
559.306	1	4
559.646	1	12
559.986	1	17
560.325	1	-5
560.665	1	12
561.005	1	7
561.345	1	13
561.685	1	5
562.025	1	6
562.365	1	7
562.705	1	20
563.045	1	-1
563.385	1	6
563.725	1	10
564.064	1	13
564.404	1	7
564.744	1	11
565.084	1	13
565.424	1	-1
565.764	1	14
566.104	1	2
566.444	1	25
566.783	1	7
567.123	1	3
567.463	1	9
567.803	1	17
568.143	1	7
568.483	1	1
568.823	1	-3
569.162	1	14
569.502	1	0
569.842	1	-8
570.182	1	0
570.522	1	-4
570.862	1	15
571.201	1	16
571.541	1	6
571.881	1	-2
572.221	1	10
572.561	1	5
572.900	1	6
573.240	1	-6
573.580	1	-1
573.920	1	4
574.260	1	7
574.599	1	9
574.939	1	8
575.279	1	-3
575.619	1	5
575.959	1	14
576.298	1	1
576.638	1	1
576.978	1	1
577.318	1	8
577.657	1	11
577.997	1	9
578.337	1	1
578.677	1	13
579.016	1	5
579.356	1	11
579.696	1	2
580.036	1	-1
580.375	1	3
580.715	1	8
581.055	1	6
581.394	1	10
581.734	1	8
582.074	1	4
582.414	1	-2
582.753	1	5
583.093	1	12
583.433	1	11
583.772	1	8
584.112	1	5
584.452	1	7
584.791	1	13
585.131	1	6
585.471	1	0
585.811	1	2
586.150	1	9
586.490	1	8
586.830	1	-4
587.169	1	5
587.509	1	-3
587.849	1	4
588.188	1	1
588.528	1	11
588.867	1	0
589.207	1	-3
589.547	1	-1
589.886	1	3
590.226	1	14
590.566	1	6
590.905	1	8
591.245	1	2
591.585	1	8
591.924	1	7
592.264	1	3
592.603	1	1
592.943	1	5
593.283	1	-4
593.622	1	10
593.962	1	13
594.301	1	-1
594.641	1	3
594.981	1	-8
595.320	1	10
595.660	1	10
595.999	1	6
596.339	1	11
596.678	1	4
597.018	1	6
597.358	1	4
597.697	1	1
598.037	1	11
598.376	1	4
598.716	1	6
599.055	1	-1
599.395	1	-1
599.734	1	3
600.074	1	14
600.413	1	0
600.753	1	7
601.092	1	0
601.432	1	-4
601.771	1	9
602.111	1	7
602.451	1	7
602.790	1	-6
603.130	1	9
603.469	1	2
603.809	1	0
604.148	1	15
604.487	1	18
604.827	1	-3
605.166	1	5
605.506	1	5
605.845	1	-2
606.185	1	13
606.524	1	1
606.864	1	12
607.203	1	-6
607.543	1	-4
607.882	1	12
608.222	1	-1
608.561	1	-7
608.901	1	12
609.240	1	-3
609.579	1	17
609.919	1	7
610.258	1	6
610.598	1	8
610.937	1	0
611.277	1	6
611.616	1	0
611.955	1	12
612.295	1	7
612.634	1	4
612.974	1	2
613.313	1	4
613.652	1	-10
613.992	1	4
614.331	1	1
614.671	1	1
615.010	1	-3
615.349	1	3
615.689	1	5
616.028	1	5
616.368	1	8
616.707	1	5
617.046	1	5
617.386	1	-5
617.725	1	2
618.064	1	5
618.404	1	-4
618.743	1	6
619.082	1	7
619.422	1	-10
619.761	1	12
620.100	1	-7
620.440	1	13
620.779	1	12
621.118	1	2
621.458	1	10
621.797	1	-6
622.136	1	6
622.476	1	5
622.815	1	2
623.154	1	4
623.494	1	-1
623.833	1	6
624.172	1	4
624.511	1	6
624.851	1	-3
625.190	1	1
625.529	1	7
625.869	1	3
626.208	1	-1
626.547	1	4
626.886	1	-2
627.226	1	-5
627.565	1	7
627.904	1	-1
628.243	1	9
628.583	1	-6
628.922	1	-4
629.261	1	-4
629.600	1	3
629.940	1	5
630.279	1	10
630.618	1	-9
630.957	1	6
631.297	1	2
631.636	1	11
631.975	1	2
632.314	1	2
632.653	1	2
632.993	1	9
633.332	1	1
633.671	1	-4
634.010	1	7
634.349	1	5
634.689	1	6
635.028	1	4
635.367	1	2
635.706	1	-7
636.045	1	12
636.384	1	7
636.724	1	-1
637.063	1	6
637.402	1	-3
637.741	1	6
638.080	1	8
638.419	1	4
638.759	1	2
639.098	1	3
639.437	1	7
639.776	1	-4
640.115	1	6
640.454	1	2
640.793	1	1
641.132	1	9
641.472	1	2
641.811	1	12
642.150	1	-8
642.489	1	-2
642.828	1	6
643.167	1	-5
643.506	1	7
643.845	1	-1
644.184	1	-5
644.524	1	0
644.863	1	2
645.202	1	8
645.541	1	9
645.880	1	5
646.219	1	12
646.558	1	0
646.897	1	-1
647.236	1	-10
647.575	1	-3
647.914	1	-1
648.253	1	6
648.592	1	-1
648.931	1	1
649.270	1	-6
649.610	1	5
649.949	1	5
650.288	1	1
650.627	1	9
650.966	1	4
651.305	1	-2
651.644	1	3
651.983	1	-5
652.322	1	6
652.661	1	-10
653.000	1	-3
653.339	1	8
653.678	1	-3
654.017	1	-1
654.356	1	9
654.695	1	2
655.034	1	6
655.373	1	1
655.712	1	1
656.051	1	10
656.390	1	-5
656.729	1	-1
657.068	1	-3
657.406	1	2
657.745	1	1
658.084	1	-1
658.423	1	4
658.762	1	13
659.101	1	-1
659.440	1	-5
659.779	1	7
660.118	1	-7
660.457	1	-10
660.796	1	10
661.135	1	13
661.474	1	22
661.813	1	12
662.152	1	2
662.491	1	6
662.829	1	4
663.168	1	-1
663.507	1	10
663.846	1	1
664.185	1	-1
664.524	1	-4
664.863	1	-1
665.202	1	9
665.541	1	3
665.879	1	2
666.218	1	11
666.557	1	11
666.896	1	10
667.235	1	0
667.574	1	12
667.913	1	2
668.251	1	1
668.590	1	7
668.929	1	9
669.268	1	2
669.607	1	1
669.946	1	16
670.285	1	9
670.623	1	11
670.962	1	2
671.301	1	8
671.640	1	-2
671.979	1	2
672.317	1	3
672.656	1	-1
672.995	1	2
673.334	1	-16
673.673	1	9
674.011	1	3
674.350	1	7
674.689	1	7
675.028	1	11
675.367	1	2
675.705	1	12
676.044	1	5
676.383	1	3
676.722	1	2
677.060	1	9
677.399	1	0
677.738	1	-2
678.077	1	-7
678.416	1	10
678.754	1	2
679.093	1	9
679.432	1	12
679.771	1	10
680.109	1	2
680.448	1	6
680.787	1	6
681.125	1	7
681.464	1	0
681.803	1	-5
682.142	1	-3
682.480	1	11
682.819	1	9
683.158	1	-3
683.496	1	-1
683.835	1	-2
684.174	1	-1
684.512	1	11
684.851	1	-1
685.190	1	1
685.529	1	-5
685.867	1	7
686.206	1	5
686.545	1	-1
686.883	1	0
687.222	1	1
687.561	1	20
687.899	1	1
688.238	1	6
688.577	1	-3
688.746	1	4