File: Data/GaN_130K_350ms/GaN_sample F_spot6_UVVIS_130 K_200um_350 ms 2x2mm1_287.txt
340.368	1	4
340.710	1	8
341.052	1	-3
341.394	1	-5
341.737	1	0
342.079	1	-2
342.421	1	5
342.763	1	-1
343.105	1	4
343.447	1	1
343.789	1	-1
344.131	1	4
344.473	1	-8
344.815	1	-8
345.157	1	-12
345.499	1	-6
345.841	1	5
346.183	1	1
346.526	1	7
346.868	1	2
347.210	1	5
347.552	1	-3
347.894	1	-3
348.236	1	0
348.578	1	5
348.920	1	5
349.262	1	8
349.604	1	4
349.946	1	8
350.288	1	-12
350.630	1	7
350.972	1	1
351.314	1	-6
351.656	1	12
351.998	1	-4
352.340	1	5
352.682	1	0
353.024	1	-4
353.366	1	1
353.708	1	1
354.050	1	3
354.392	1	10
354.734	1	-13
355.076	1	1
355.418	1	1
355.760	1	7
356.102	1	8
356.444	1	-9
356.785	1	1
357.127	1	1
357.469	1	-7
357.811	1	-1
358.153	1	4
358.495	1	9
358.837	1	1
359.179	1	4
359.521	1	-2
359.863	1	3
360.205	1	1
360.547	1	-3
360.889	1	-3
361.231	1	2
361.572	1	5
361.914	1	-4
362.256	1	6
362.598	1	-6
362.940	1	-2
363.282	1	20
363.624	1	-1
363.966	1	14
364.308	1	11
364.649	1	7
364.991	1	9
365.333	1	6
365.675	1	4
366.017	1	15
366.359	1	8
366.701	1	13
367.042	1	7
367.384	1	12
367.726	1	0
368.068	1	-4
368.410	1	1
368.752	1	17
369.093	1	15
369.435	1	7
369.777	1	4
370.119	1	9
370.461	1	9
370.803	1	-1
371.144	1	2
371.486	1	8
371.828	1	7
372.170	1	-2
372.512	1	8
372.853	1	-3
373.195	1	9
373.537	1	5
373.879	1	14
374.220	1	4
374.562	1	5
374.904	1	3
375.246	1	10
375.588	1	3
375.929	1	-5
376.271	1	9
376.613	1	-4
376.955	1	5
377.296	1	-1
377.638	1	-4
377.980	1	9
378.321	1	10
378.663	1	8
379.005	1	20
379.347	1	9
379.688	1	-3
380.030	1	4
380.372	1	9
380.714	1	13
381.055	1	1
381.397	1	-4
381.739	1	5
382.080	1	-3
382.422	1	9
382.764	1	8
383.105	1	16
383.447	1	7
383.789	1	5
384.130	1	10
384.472	1	7
384.814	1	0
385.156	1	2
385.497	1	-4
385.839	1	7
386.180	1	13
386.522	1	1
386.864	1	14
387.205	1	-2
387.547	1	10
387.889	1	-2
388.230	1	0
388.572	1	18
388.914	1	9
389.255	1	0
389.597	1	-13
389.939	1	10
390.280	1	7
390.622	1	3
390.963	1	0
391.305	1	8
391.647	1	9
391.988	1	7
392.330	1	3
392.671	1	-3
393.013	1	-1
393.355	1	-6
393.696	1	0
394.038	1	6
394.379	1	9
394.721	1	3
395.062	1	-8
395.404	1	0
395.746	1	4
396.087	1	13
396.429	1	11
396.770	1	8
397.112	1	8
397.453	1	15
397.795	1	-7
398.136	1	6
398.478	1	5
398.819	1	-16
399.161	1	5
399.503	1	7
399.844	1	3
400.186	1	-7
400.527	1	0
400.869	1	7
401.210	1	6
401.552	1	21
401.893	1	-5
402.235	1	10
402.576	1	1
402.918	1	17
403.259	1	-6
403.601	1	1
403.942	1	0
404.284	1	-5
404.625	1	3
404.967	1	3
405.308	1	-1
405.649	1	-1
405.991	1	-5
406.332	1	0
406.674	1	9
407.015	1	1
407.357	1	1
407.698	1	1
408.040	1	-3
408.381	1	12
408.722	1	5
409.064	1	2
409.405	1	8
409.747	1	3
410.088	1	11
410.430	1	14
410.771	1	-10
411.112	1	7
411.454	1	5
411.795	1	7
412.137	1	-7
412.478	1	2
412.819	1	-2
413.161	1	13
413.502	1	8
413.844	1	10
414.185	1	3
414.526	1	-1
414.868	1	9
415.209	1	0
415.550	1	-2
415.892	1	8
416.233	1	10
416.575	1	6
416.916	1	0
417.257	1	-5
417.599	1	8
417.940	1	7
418.281	1	-4
418.623	1	4
418.964	1	3
419.305	1	2
419.647	1	16
419.988	1	13
420.329	1	17
420.671	1	-1
421.012	1	0
421.353	1	-1
421.695	1	-2
422.036	1	-2
422.377	1	6
422.718	1	0
423.060	1	2
423.401	1	11
423.742	1	6
424.084	1	6
424.425	1	4
424.766	1	2
425.107	1	6
425.449	1	4
425.790	1	10
426.131	1	11
426.472	1	-1
426.814	1	1
427.155	1	-1
427.496	1	-1
427.837	1	1
428.179	1	8
428.520	1	7
428.861	1	1
429.202	1	13
429.544	1	17
429.885	1	3
430.226	1	-4
430.567	1	8
430.909	1	9
431.250	1	8
431.591	1	-2
431.932	1	-1
432.273	1	18
432.615	1	9
432.956	1	5
433.297	1	11
433.638	1	-4
433.979	1	12
434.320	1	8
434.662	1	2
435.003	1	21
435.344	1	5
435.685	1	-2
436.026	1	-2
436.368	1	-4
436.709	1	4
437.050	1	10
437.391	1	6
437.732	1	8
438.073	1	13
438.414	1	3
438.756	1	8
439.097	1	2
439.438	1	8
439.779	1	11
440.120	1	-1
440.461	1	15
440.802	1	-8
441.143	1	2
441.485	1	10
441.826	1	-1
442.167	1	3
442.508	1	-2
442.849	1	8
443.190	1	6
443.531	1	5
443.872	1	8
444.213	1	-2
444.554	1	7
444.895	1	2
445.237	1	0
445.578	1	-3
445.919	1	3
446.260	1	2
446.601	1	7
446.942	1	-3
447.283	1	1
447.624	1	4
447.965	1	5
448.306	1	3
448.647	1	5
448.988	1	0
449.329	1	-3
449.670	1	4
450.011	1	-1
450.352	1	9
450.693	1	3
451.034	1	-10
451.375	1	9
451.716	1	-5
452.057	1	11
452.398	1	-5
452.739	1	-2
453.080	1	-4
453.421	1	3
453.762	1	10
454.103	1	-4
454.444	1	8
454.785	1	4
455.126	1	-8
455.467	1	-1
455.808	1	8
456.149	1	-4
456.490	1	4
456.831	1	-2
457.172	1	0
457.513	1	-3
457.854	1	0
458.195	1	-8
458.536	1	9
458.877	1	14
459.218	1	3
459.559	1	3
459.899	1	5
460.240	1	11
460.581	1	-3
460.922	1	-5
461.263	1	8
461.604	1	-7
461.945	1	15
462.286	1	6
462.627	1	-8
462.968	1	3
463.309	1	4
463.649	1	2
463.990	1	-2
464.331	1	12
464.672	1	8
465.013	1	-6
465.354	1	-2
465.695	1	13
466.036	1	4
466.376	1	-1
466.717	1	1
467.058	1	3
467.399	1	-1
467.740	1	14
468.081	1	10
468.422	1	6
468.762	1	2
469.103	1	6
469.444	1	-4
469.785	1	9
470.126	1	-8
470.467	1	2
470.807	1	16
471.148	1	2
471.489	1	-10
471.830	1	3
472.171	1	7
472.511	1	3
472.852	1	11
473.193	1	2
473.534	1	1
473.875	1	10
474.215	1	10
474.556	1	8
474.897	1	-13
475.238	1	22
475.578	1	3
475.919	1	-6
476.260	1	1
476.601	1	-2
476.942	1	8
477.282	1	6
477.623	1	-6
477.964	1	-6
478.305	1	10
478.645	1	-5
478.986	1	1
479.327	1	-5
479.667	1	10
480.008	1	-6
480.349	1	1
480.690	1	3
481.030	1	-3
481.371	1	9
481.712	1	3
482.053	1	3
482.393	1	12
482.734	1	0
483.075	1	22
483.415	1	-5
483.756	1	3
484.097	1	-3
484.437	1	-1
484.778	1	8
485.119	1	1
485.459	1	-7
485.800	1	-2
486.141	1	-4
486.481	1	-2
486.822	1	6
487.163	1	-1
487.503	1	-4
487.844	1	-9
488.185	1	-2
488.525	1	4
488.866	1	0
489.207	1	-5
489.547	1	1
489.888	1	7
490.228	1	5
490.569	1	8
490.910	1	-8
491.250	1	1
491.591	1	-2
491.932	1	-1
492.272	1	-8
492.613	1	-4
492.953	1	4
493.294	1	9
493.635	1	7
493.975	1	4
494.316	1	7
494.656	1	2
494.997	1	9
495.337	1	-12
495.678	1	-1
496.019	1	-7
496.359	1	8
496.700	1	0
497.040	1	6
497.381	1	-5
497.721	1	-2
498.062	1	-8
498.403	1	1
498.743	1	5
499.084	1	15
499.424	1	-2
499.765	1	-5
500.105	1	1
500.446	1	4
500.786	1	-8
501.127	1	1
501.467	1	-4
501.808	1	10
502.148	1	0
502.489	1	-2
502.829	1	-2
503.170	1	-7
503.510	1	4
503.851	1	-4
504.191	1	5
504.532	1	4
504.872	1	-5
505.213	1	8
505.553	1	-1
505.894	1	5
506.234	1	-7
506.575	1	0
506.915	1	5
507.256	1	13
507.596	1	-6
507.936	1	-9
508.277	1	-2
508.617	1	-2
508.958	1	5
509.298	1	-2
509.639	1	-1
509.979	1	-1
510.319	1	15
510.660	1	-1
511.000	1	4
511.341	1	-8
511.681	1	14
512.022	1	16
512.362	1	0
512.702	1	6
513.043	1	-4
513.383	1	0
513.724	1	-3
514.064	1	4
514.404	1	13
514.745	1	7
515.085	1	11
515.425	1	1
515.766	1	4
516.106	1	5
516.447	1	-4
516.787	1	18
517.127	1	9
517.468	1	1
517.808	1	9
518.148	1	12
518.489	1	5
518.829	1	9
519.169	1	13
519.510	1	-4
519.850	1	14
520.190	1	16
520.531	1	11
520.871	1	1
521.211	1	5
521.552	1	5
521.892	1	12
522.232	1	-7
522.573	1	8
522.913	1	12
523.253	1	4
523.593	1	12
523.934	1	-13
524.274	1	-4
524.614	1	8
524.955	1	6
525.295	1	1
525.635	1	-11
525.975	1	2
526.316	1	3
526.656	1	5
526.996	1	-9
527.337	1	13
527.677	1	-4
528.017	1	6
528.357	1	12
528.698	1	-5
529.038	1	-3
529.378	1	2
529.718	1	11
530.058	1	6
530.399	1	4
530.739	1	7
531.079	1	4
531.419	1	7
531.760	1	0
532.100	1	9
532.440	1	7
532.780	1	6
533.120	1	6
533.461	1	1
533.801	1	19
534.141	1	-1
534.481	1	8
534.821	1	15
535.162	1	11
535.502	1	9
535.842	1	8
536.182	1	7
536.522	1	-7
536.862	1	-1
537.203	1	-1
537.543	1	5
537.883	1	-13
538.223	1	5
538.563	1	9
538.903	1	11
539.243	1	8
539.584	1	7
539.924	1	0
540.264	1	10
540.604	1	3
540.944	1	8
541.284	1	4
541.624	1	18
541.964	1	-1
542.305	1	-8
542.645	1	4
542.985	1	-3
543.325	1	-1
543.665	1	9
544.005	1	11
544.345	1	11
544.685	1	12
545.025	1	0
545.365	1	10
545.705	1	5
546.045	1	7
546.386	1	-2
546.726	1	4
547.066	1	0
547.406	1	-1
547.746	1	1
548.086	1	-5
548.426	1	4
548.766	1	8
549.106	1	-2
549.446	1	3
549.786	1	6
550.126	1	5
550.466	1	5
550.806	1	12
551.146	1	-1
551.486	1	2
551.826	1	-4
552.166	1	6
552.506	1	7
552.846	1	-4
553.186	1	2
553.526	1	3
553.866	1	-3
554.206	1	12
554.546	1	10
554.886	1	5
555.226	1	-1
555.566	1	4
555.906	1	-4
556.246	1	1
556.586	1	1
556.926	1	5
557.266	1	6
557.606	1	-4
557.946	1	8
558.286	1	3
558.626	1	-10
558.966	1	-3
559.306	1	5
559.646	1	3
559.986	1	-7
560.325	1	1
560.665	1	11
561.005	1	1
561.345	1	7
561.685	1	4
562.025	1	6
562.365	1	6
562.705	1	4
563.045	1	1
563.385	1	11
563.725	1	5
564.064	1	8
564.404	1	0
564.744	1	11
565.084	1	9
565.424	1	-1
565.764	1	5
566.104	1	5
566.444	1	7
566.783	1	9
567.123	1	6
567.463	1	2
567.803	1	4
568.143	1	17
568.483	1	1
568.823	1	-7
569.162	1	9
569.502	1	2
569.842	1	-8
570.182	1	-1
570.522	1	-5
570.862	1	20
571.201	1	4
571.541	1	-2
571.881	1	4
572.221	1	6
572.561	1	6
572.900	1	6
573.240	1	-6
573.580	1	6
573.920	1	7
574.260	1	4
574.599	1	1
574.939	1	4
575.279	1	-6
575.619	1	4
575.959	1	2
576.298	1	3
576.638	1	2
576.978	1	-9
577.318	1	3
577.657	1	19
577.997	1	8
578.337	1	-4
578.677	1	17
579.016	1	-1
579.356	1	2
579.696	1	3
580.036	1	-4
580.375	1	1
580.715	1	7
581.055	1	-8
581.394	1	6
581.734	1	9
582.074	1	-9
582.414	1	4
582.753	1	-1
583.093	1	5
583.433	1	7
583.772	1	6
584.112	1	2
584.452	1	8
584.791	1	-2
585.131	1	8
585.471	1	4
585.811	1	-4
586.150	1	4
586.490	1	0
586.830	1	-8
587.169	1	10
587.509	1	10
587.849	1	6
588.188	1	6
588.528	1	11
588.867	1	-2
589.207	1	-11
589.547	1	3
589.886	1	3
590.226	1	12
590.566	1	8
590.905	1	7
591.245	1	-1
591.585	1	6
591.924	1	-3
592.264	1	2
592.603	1	0
592.943	1	1
593.283	1	-9
593.622	1	-3
593.962	1	9
594.301	1	-14
594.641	1	-1
594.981	1	-6
595.320	1	3
595.660	1	4
595.999	1	-3
596.339	1	9
596.678	1	2
597.018	1	7
597.358	1	-11
597.697	1	7
598.037	1	7
598.376	1	1
598.716	1	3
599.055	1	-1
599.395	1	-6
599.734	1	5
600.074	1	8
600.413	1	6
600.753	1	2
601.092	1	4
601.432	1	-2
601.771	1	13
602.111	1	1
602.451	1	0
602.790	1	7
603.130	1	-1
603.469	1	0
603.809	1	-2
604.148	1	6
604.487	1	10
604.827	1	2
605.166	1	6
605.506	1	2
605.845	1	0
606.185	1	2
606.524	1	2
606.864	1	6
607.203	1	-5
607.543	1	-5
607.882	1	11
608.222	1	-11
608.561	1	3
608.901	1	5
609.240	1	-3
609.579	1	16
609.919	1	6
610.258	1	-5
610.598	1	-1
610.937	1	13
611.277	1	1
611.616	1	-11
611.955	1	-6
612.295	1	7
612.634	1	-4
612.974	1	19
613.313	1	4
613.652	1	-1
613.992	1	-6
614.331	1	-1
614.671	1	5
615.010	1	-8
615.349	1	6
615.689	1	2
616.028	1	10
616.368	1	10
616.707	1	16
617.046	1	6
617.386	1	-8
617.725	1	6
618.064	1	5
618.404	1	1
618.743	1	-2
619.082	1	3
619.422	1	-2
619.761	1	1
620.100	1	-8
620.440	1	15
620.779	1	3
621.118	1	2
621.458	1	3
621.797	1	5
622.136	1	1
622.476	1	9
622.815	1	-6
623.154	1	1
623.494	1	1
623.833	1	14
624.172	1	2
624.511	1	10
624.851	1	4
625.190	1	-3
625.529	1	-1
625.869	1	11
626.208	1	-3
626.547	1	1
626.886	1	-2
627.226	1	4
627.565	1	-2
627.904	1	2
628.243	1	5
628.583	1	-12
628.922	1	-7
629.261	1	-8
629.600	1	7
629.940	1	12
630.279	1	2
630.618	1	-3
630.957	1	0
631.297	1	1
631.636	1	13
631.975	1	0
632.314	1	2
632.653	1	-1
632.993	1	8
633.332	1	4
633.671	1	-10
634.010	1	-18
634.349	1	3
634.689	1	13
635.028	1	5
635.367	1	9
635.706	1	1
636.045	1	15
636.384	1	6
636.724	1	7
637.063	1	6
637.402	1	1
637.741	1	10
638.080	1	6
638.419	1	-3
638.759	1	3
639.098	1	-8
639.437	1	14
639.776	1	-2
640.115	1	4
640.454	1	4
640.793	1	-3
641.132	1	7
641.472	1	3
641.811	1	-3
642.150	1	-13
642.489	1	-11
642.828	1	-1
643.167	1	11
643.506	1	6
643.845	1	-4
644.184	1	3
644.524	1	-2
644.863	1	2
645.202	1	13
645.541	1	8
645.880	1	3
646.219	1	-2
646.558	1	-6
646.897	1	0
647.236	1	-6
647.575	1	-6
647.914	1	-11
648.253	1	5
648.592	1	-5
648.931	1	2
649.270	1	2
649.610	1	-8
649.949	1	-9
650.288	1	9
650.627	1	7
650.966	1	2
651.305	1	-1
651.644	1	5
651.983	1	-8
652.322	1	3
652.661	1	-5
653.000	1	-2
653.339	1	6
653.678	1	-5
654.017	1	-2
654.356	1	3
654.695	1	0
655.034	1	-4
655.373	1	2
655.712	1	-2
656.051	1	4
656.390	1	-2
656.729	1	6
657.068	1	-1
657.406	1	10
657.745	1	-3
658.084	1	-1
658.423	1	5
658.762	1	6
659.101	1	10
659.440	1	-6
659.779	1	-8
660.118	1	2
660.457	1	5
660.796	1	1
661.135	1	12
661.474	1	3
661.813	1	-13
662.152	1	0
662.491	1	7
662.829	1	13
663.168	1	1
663.507	1	-3
663.846	1	6
664.185	1	2
664.524	1	-4
664.863	1	4
665.202	1	-1
665.541	1	-12
665.879	1	6
666.218	1	6
666.557	1	9
666.896	1	6
667.235	1	-4
667.574	1	9
667.913	1	2
668.251	1	2
668.590	1	1
668.929	1	6
669.268	1	5
669.607	1	-4
669.946	1	4
670.285	1	17
670.623	1	15
670.962	1	-4
671.301	1	-6
671.640	1	-6
671.979	1	10
672.317	1	-2
672.656	1	-1
672.995	1	-1
673.334	1	3
673.673	1	5
674.011	1	3
674.350	1	1
674.689	1	11
675.028	1	12
675.367	1	-7
675.705	1	9
676.044	1	-6
676.383	1	4
676.722	1	-7
677.060	1	9
677.399	1	0
677.738	1	-5
678.077	1	7
678.416	1	1
678.754	1	0
679.093	1	3
679.432	1	10
679.771	1	0
680.109	1	4
680.448	1	6
680.787	1	6
681.125	1	11
681.464	1	-7
681.803	1	-4
682.142	1	-5
682.480	1	15
682.819	1	2
683.158	1	14
683.496	1	-4
683.835	1	-7
684.174	1	4
684.512	1	11
684.851	1	-7
685.190	1	9
685.529	1	-5
685.867	1	1
686.206	1	1
686.545	1	0
686.883	1	-4
687.222	1	1
687.561	1	13
687.899	1	-4
688.238	1	10
688.577	1	-6
688.746	1	10