File: Data/GaN_130K_350ms/GaN_sample F_spot6_UVVIS_130 K_200um_350 ms 2x2mm1_23.txt
340.368	1	3
340.710	1	15
341.052	1	2
341.394	1	0
341.737	1	6
342.079	1	-1
342.421	1	4
342.763	1	6
343.105	1	0
343.447	1	4
343.789	1	3
344.131	1	-4
344.473	1	3
344.815	1	-5
345.157	1	-15
345.499	1	-4
345.841	1	2
346.183	1	8
346.526	1	-5
346.868	1	2
347.210	1	3
347.552	1	-3
347.894	1	3
348.236	1	-2
348.578	1	-3
348.920	1	-1
349.262	1	7
349.604	1	7
349.946	1	2
350.288	1	-11
350.630	1	14
350.972	1	3
351.314	1	-5
351.656	1	9
351.998	1	1
352.340	1	11
352.682	1	0
353.024	1	0
353.366	1	4
353.708	1	-4
354.050	1	4
354.392	1	4
354.734	1	4
355.076	1	0
355.418	1	1
355.760	1	2
356.102	1	4
356.444	1	1
356.785	1	-1
357.127	1	-3
357.469	1	-11
357.811	1	0
358.153	1	-7
358.495	1	7
358.837	1	-1
359.179	1	4
359.521	1	-11
359.863	1	-2
360.205	1	-2
360.547	1	-2
360.889	1	-2
361.231	1	0
361.572	1	7
361.914	1	-5
362.256	1	0
362.598	1	5
362.940	1	-5
363.282	1	16
363.624	1	-1
363.966	1	19
364.308	1	4
364.649	1	3
364.991	1	1
365.333	1	-7
365.675	1	-3
366.017	1	0
366.359	1	2
366.701	1	-1
367.042	1	6
367.384	1	6
367.726	1	3
368.068	1	-10
368.410	1	-6
368.752	1	6
369.093	1	3
369.435	1	-1
369.777	1	2
370.119	1	8
370.461	1	1
370.803	1	-1
371.144	1	1
371.486	1	0
371.828	1	-1
372.170	1	-5
372.512	1	-4
372.853	1	-2
373.195	1	-4
373.537	1	4
373.879	1	6
374.220	1	0
374.562	1	-4
374.904	1	-7
375.246	1	1
375.588	1	2
375.929	1	-10
376.271	1	1
376.613	1	2
376.955	1	6
377.296	1	5
377.638	1	-8
377.980	1	-10
378.321	1	6
378.663	1	2
379.005	1	15
379.347	1	-2
379.688	1	-2
380.030	1	-4
380.372	1	-1
380.714	1	14
381.055	1	5
381.397	1	4
381.739	1	1
382.080	1	-7
382.422	1	9
382.764	1	4
383.105	1	1
383.447	1	-1
383.789	1	6
384.130	1	8
384.472	1	-1
384.814	1	-4
385.156	1	-9
385.497	1	-5
385.839	1	0
386.180	1	-2
386.522	1	-2
386.864	1	6
387.205	1	10
387.547	1	12
387.889	1	-13
388.230	1	2
388.572	1	-2
388.914	1	-3
389.255	1	1
389.597	1	-19
389.939	1	2
390.280	1	7
390.622	1	4
390.963	1	1
391.305	1	0
391.647	1	0
391.988	1	1
392.330	1	-6
392.671	1	-1
393.013	1	2
393.355	1	1
393.696	1	0
394.038	1	4
394.379	1	4
394.721	1	4
395.062	1	-5
395.404	1	-8
395.746	1	6
396.087	1	8
396.429	1	1
396.770	1	7
397.112	1	9
397.453	1	0
397.795	1	-10
398.136	1	-2
398.478	1	-3
398.819	1	-14
399.161	1	6
399.503	1	12
399.844	1	-3
400.186	1	-7
400.527	1	2
400.869	1	3
401.210	1	-3
401.552	1	12
401.893	1	-2
402.235	1	8
402.576	1	-5
402.918	1	-4
403.259	1	-2
403.601	1	1
403.942	1	-7
404.284	1	-3
404.625	1	11
404.967	1	-2
405.308	1	-1
405.649	1	1
405.991	1	-3
406.332	1	12
406.674	1	6
407.015	1	1
407.357	1	-10
407.698	1	-3
408.040	1	2
408.381	1	14
408.722	1	5
409.064	1	3
409.405	1	3
409.747	1	-5
410.088	1	13
410.430	1	19
410.771	1	-16
411.112	1	8
411.454	1	1
411.795	1	-1
412.137	1	-3
412.478	1	3
412.819	1	2
413.161	1	9
413.502	1	17
413.844	1	-2
414.185	1	4
414.526	1	1
414.868	1	-2
415.209	1	2
415.550	1	-8
415.892	1	2
416.233	1	3
416.575	1	-5
416.916	1	3
417.257	1	3
417.599	1	-3
417.940	1	4
418.281	1	-1
418.623	1	6
418.964	1	-7
419.305	1	-2
419.647	1	8
419.988	1	5
420.329	1	4
420.671	1	-11
421.012	1	4
421.353	1	-9
421.695	1	-4
422.036	1	4
422.377	1	5
422.718	1	-5
423.060	1	-2
423.401	1	2
423.742	1	-2
424.084	1	6
424.425	1	-1
424.766	1	-1
425.107	1	7
425.449	1	5
425.790	1	6
426.131	1	16
426.472	1	-1
426.814	1	6
427.155	1	-6
427.496	1	-2
427.837	1	3
428.179	1	0
428.520	1	3
428.861	1	-4
429.202	1	-4
429.544	1	5
429.885	1	7
430.226	1	-2
430.567	1	5
430.909	1	-4
431.250	1	2
431.591	1	-1
431.932	1	-1
432.273	1	5
432.615	1	4
432.956	1	-4
433.297	1	9
433.638	1	0
433.979	1	4
434.320	1	3
434.662	1	-3
435.003	1	9
435.344	1	5
435.685	1	-7
436.026	1	0
436.368	1	-2
436.709	1	-5
437.050	1	-2
437.391	1	17
437.732	1	-4
438.073	1	8
438.414	1	-13
438.756	1	4
439.097	1	11
439.438	1	2
439.779	1	10
440.120	1	0
440.461	1	14
440.802	1	1
441.143	1	0
441.485	1	7
441.826	1	-1
442.167	1	0
442.508	1	1
442.849	1	2
443.190	1	2
443.531	1	-6
443.872	1	3
444.213	1	5
444.554	1	-5
444.895	1	4
445.237	1	-13
445.578	1	-5
445.919	1	-2
446.260	1	13
446.601	1	6
446.942	1	2
447.283	1	5
447.624	1	-1
447.965	1	-1
448.306	1	0
448.647	1	9
448.988	1	3
449.329	1	0
449.670	1	2
450.011	1	-5
450.352	1	8
450.693	1	6
451.034	1	-14
451.375	1	5
451.716	1	-2
452.057	1	13
452.398	1	-8
452.739	1	2
453.080	1	-1
453.421	1	1
453.762	1	0
454.103	1	8
454.444	1	2
454.785	1	0
455.126	1	-9
455.467	1	-1
455.808	1	6
456.149	1	-3
456.490	1	7
456.831	1	-1
457.172	1	-5
457.513	1	-9
457.854	1	7
458.195	1	-9
458.536	1	3
458.877	1	14
459.218	1	-3
459.559	1	0
459.899	1	9
460.240	1	14
460.581	1	2
460.922	1	8
461.263	1	-2
461.604	1	-10
461.945	1	3
462.286	1	12
462.627	1	5
462.968	1	-5
463.309	1	0
463.649	1	-7
463.990	1	4
464.331	1	3
464.672	1	8
465.013	1	-4
465.354	1	0
465.695	1	15
466.036	1	-1
466.376	1	8
466.717	1	6
467.058	1	5
467.399	1	13
467.740	1	15
468.081	1	11
468.422	1	3
468.762	1	-2
469.103	1	6
469.444	1	-3
469.785	1	4
470.126	1	-6
470.467	1	2
470.807	1	4
471.148	1	-1
471.489	1	3
471.830	1	8
472.171	1	3
472.511	1	3
472.852	1	5
473.193	1	3
473.534	1	-8
473.875	1	9
474.215	1	7
474.556	1	-2
474.897	1	-3
475.238	1	6
475.578	1	-10
475.919	1	-10
476.260	1	7
476.601	1	0
476.942	1	7
477.282	1	1
477.623	1	-9
477.964	1	0
478.305	1	10
478.645	1	0
478.986	1	-1
479.327	1	-3
479.667	1	6
480.008	1	-8
480.349	1	3
480.690	1	2
481.030	1	3
481.371	1	4
481.712	1	-8
482.053	1	-2
482.393	1	1
482.734	1	11
483.075	1	11
483.415	1	-3
483.756	1	-5
484.097	1	-4
484.437	1	-3
484.778	1	8
485.119	1	0
485.459	1	-4
485.800	1	4
486.141	1	-5
486.481	1	-2
486.822	1	3
487.163	1	0
487.503	1	-10
487.844	1	-3
488.185	1	-1
488.525	1	3
488.866	1	-3
489.207	1	2
489.547	1	-1
489.888	1	9
490.228	1	3
490.569	1	4
490.910	1	0
491.250	1	7
491.591	1	-5
491.932	1	4
492.272	1	-3
492.613	1	1
492.953	1	1
493.294	1	7
493.635	1	3
493.975	1	13
494.316	1	10
494.656	1	0
494.997	1	-9
495.337	1	0
495.678	1	-1
496.019	1	2
496.359	1	6
496.700	1	2
497.040	1	9
497.381	1	-2
497.721	1	5
498.062	1	-3
498.403	1	-6
498.743	1	6
499.084	1	7
499.424	1	-4
499.765	1	-6
500.105	1	4
500.446	1	-1
500.786	1	11
501.127	1	6
501.467	1	0
501.808	1	4
502.148	1	0
502.489	1	-1
502.829	1	-9
503.170	1	-15
503.510	1	5
503.851	1	0
504.191	1	-5
504.532	1	0
504.872	1	-9
505.213	1	-9
505.553	1	2
505.894	1	5
506.234	1	-7
506.575	1	-4
506.915	1	-4
507.256	1	12
507.596	1	2
507.936	1	-5
508.277	1	1
508.617	1	-12
508.958	1	5
509.298	1	2
509.639	1	0
509.979	1	-6
510.319	1	11
510.660	1	-1
511.000	1	6
511.341	1	-4
511.681	1	4
512.022	1	8
512.362	1	3
512.702	1	-2
513.043	1	1
513.383	1	14
513.724	1	1
514.064	1	0
514.404	1	-1
514.745	1	-2
515.085	1	9
515.425	1	11
515.766	1	9
516.106	1	-2
516.447	1	3
516.787	1	1
517.127	1	5
517.468	1	-2
517.808	1	-3
518.148	1	12
518.489	1	8
518.829	1	1
519.169	1	6
519.510	1	0
519.850	1	1
520.190	1	9
520.531	1	11
520.871	1	-5
521.211	1	5
521.552	1	1
521.892	1	2
522.232	1	-7
522.573	1	-3
522.913	1	0
523.253	1	0
523.593	1	2
523.934	1	2
524.274	1	-2
524.614	1	-1
524.955	1	9
525.295	1	7
525.635	1	-2
525.975	1	9
526.316	1	8
526.656	1	6
526.996	1	1
527.337	1	9
527.677	1	-8
528.017	1	-1
528.357	1	-4
528.698	1	-10
529.038	1	-1
529.378	1	6
529.718	1	11
530.058	1	-5
530.399	1	2
530.739	1	1
531.079	1	-3
531.419	1	-1
531.760	1	-2
532.100	1	-4
532.440	1	2
532.780	1	-7
533.120	1	-1
533.461	1	0
533.801	1	7
534.141	1	5
534.481	1	8
534.821	1	8
535.162	1	7
535.502	1	2
535.842	1	1
536.182	1	7
536.522	1	-12
536.862	1	-8
537.203	1	-3
537.543	1	4
537.883	1	0
538.223	1	8
538.563	1	7
538.903	1	16
539.243	1	0
539.584	1	8
539.924	1	7
540.264	1	-7
540.604	1	7
540.944	1	-3
541.284	1	-3
541.624	1	17
541.964	1	-9
542.305	1	-1
542.645	1	-7
542.985	1	2
543.325	1	4
543.665	1	11
544.005	1	6
544.345	1	3
544.685	1	6
545.025	1	-4
545.365	1	9
545.705	1	-5
546.045	1	-3
546.386	1	-2
546.726	1	-1
547.066	1	-4
547.406	1	-10
547.746	1	6
548.086	1	-12
548.426	1	6
548.766	1	6
549.106	1	-13
549.446	1	-2
549.786	1	9
550.126	1	5
550.466	1	3
550.806	1	13
551.146	1	3
551.486	1	1
551.826	1	-4
552.166	1	4
552.506	1	9
552.846	1	-2
553.186	1	-3
553.526	1	5
553.866	1	-16
554.206	1	3
554.546	1	2
554.886	1	-7
555.226	1	3
555.566	1	-2
555.906	1	-1
556.246	1	5
556.586	1	8
556.926	1	1
557.266	1	1
557.606	1	6
557.946	1	9
558.286	1	2
558.626	1	-10
558.966	1	-4
559.306	1	7
559.646	1	1
559.986	1	1
560.325	1	-10
560.665	1	0
561.005	1	-8
561.345	1	3
561.685	1	0
562.025	1	-3
562.365	1	7
562.705	1	3
563.045	1	-1
563.385	1	5
563.725	1	0
564.064	1	6
564.404	1	-1
564.744	1	0
565.084	1	-2
565.424	1	-9
565.764	1	5
566.104	1	0
566.444	1	10
566.783	1	5
567.123	1	0
567.463	1	2
567.803	1	6
568.143	1	5
568.483	1	3
568.823	1	-12
569.162	1	8
569.502	1	-1
569.842	1	-4
570.182	1	6
570.522	1	-12
570.862	1	14
571.201	1	3
571.541	1	4
571.881	1	3
572.221	1	4
572.561	1	2
572.900	1	-1
573.240	1	-5
573.580	1	-1
573.920	1	8
574.260	1	5
574.599	1	5
574.939	1	8
575.279	1	-10
575.619	1	5
575.959	1	4
576.298	1	4
576.638	1	-5
576.978	1	-4
577.318	1	-2
577.657	1	11
577.997	1	2
578.337	1	-11
578.677	1	11
579.016	1	-3
579.356	1	10
579.696	1	0
580.036	1	4
580.375	1	-5
580.715	1	15
581.055	1	2
581.394	1	2
581.734	1	4
582.074	1	1
582.414	1	-6
582.753	1	5
583.093	1	6
583.433	1	0
583.772	1	1
584.112	1	4
584.452	1	12
584.791	1	1
585.131	1	4
585.471	1	-5
585.811	1	-3
586.150	1	8
586.490	1	-1
586.830	1	-15
587.169	1	-3
587.509	1	3
587.849	1	2
588.188	1	12
588.528	1	8
588.867	1	5
589.207	1	6
589.547	1	3
589.886	1	3
590.226	1	10
590.566	1	0
590.905	1	2
591.245	1	-3
591.585	1	8
591.924	1	2
592.264	1	-3
592.603	1	1
592.943	1	6
593.283	1	-5
593.622	1	1
593.962	1	5
594.301	1	-8
594.641	1	9
594.981	1	2
595.320	1	9
595.660	1	7
595.999	1	9
596.339	1	13
596.678	1	-4
597.018	1	3
597.358	1	-8
597.697	1	0
598.037	1	-1
598.376	1	2
598.716	1	0
599.055	1	-8
599.395	1	2
599.734	1	-4
600.074	1	7
600.413	1	10
600.753	1	-2
601.092	1	4
601.432	1	-8
601.771	1	6
602.111	1	2
602.451	1	3
602.790	1	-5
603.130	1	-5
603.469	1	3
603.809	1	4
604.148	1	10
604.487	1	-11
604.827	1	0
605.166	1	6
605.506	1	4
605.845	1	-4
606.185	1	5
606.524	1	1
606.864	1	10
607.203	1	-4
607.543	1	8
607.882	1	15
608.222	1	-3
608.561	1	-1
608.901	1	10
609.240	1	-1
609.579	1	14
609.919	1	2
610.258	1	2
610.598	1	3
610.937	1	13
611.277	1	10
611.616	1	-7
611.955	1	2
612.295	1	8
612.634	1	-1
612.974	1	5
613.313	1	-4
613.652	1	-7
613.992	1	2
614.331	1	11
614.671	1	4
615.010	1	-1
615.349	1	1
615.689	1	6
616.028	1	11
616.368	1	6
616.707	1	13
617.046	1	11
617.386	1	-3
617.725	1	3
618.064	1	8
618.404	1	5
618.743	1	9
619.082	1	-1
619.422	1	1
619.761	1	9
620.100	1	-1
620.440	1	5
620.779	1	8
621.118	1	-1
621.458	1	10
621.797	1	-1
622.136	1	6
622.476	1	4
622.815	1	-1
623.154	1	-4
623.494	1	2
623.833	1	17
624.172	1	-5
624.511	1	5
624.851	1	3
625.190	1	-10
625.529	1	4
625.869	1	9
626.208	1	-5
626.547	1	7
626.886	1	-1
627.226	1	2
627.565	1	-10
627.904	1	-1
628.243	1	7
628.583	1	-7
628.922	1	-6
629.261	1	-2
629.600	1	11
629.940	1	0
630.279	1	7
630.618	1	-6
630.957	1	2
631.297	1	-1
631.636	1	3
631.975	1	10
632.314	1	3
632.653	1	5
632.993	1	8
633.332	1	-2
633.671	1	-4
634.010	1	0
634.349	1	11
634.689	1	3
635.028	1	8
635.367	1	-1
635.706	1	-1
636.045	1	11
636.384	1	6
636.724	1	13
637.063	1	9
637.402	1	-2
637.741	1	6
638.080	1	1
638.419	1	-3
638.759	1	9
639.098	1	1
639.437	1	11
639.776	1	2
640.115	1	1
640.454	1	7
640.793	1	-7
641.132	1	8
641.472	1	3
641.811	1	-7
642.150	1	-12
642.489	1	-8
642.828	1	4
643.167	1	2
643.506	1	1
643.845	1	-7
644.184	1	-1
644.524	1	-8
644.863	1	0
645.202	1	9
645.541	1	0
645.880	1	-4
646.219	1	-6
646.558	1	-13
646.897	1	-1
647.236	1	-6
647.575	1	-6
647.914	1	-1
648.253	1	6
648.592	1	5
648.931	1	-1
649.270	1	-5
649.610	1	0
649.949	1	-3
650.288	1	10
650.627	1	13
650.966	1	0
651.305	1	-2
651.644	1	5
651.983	1	-16
652.322	1	1
652.661	1	-13
653.000	1	3
653.339	1	5
653.678	1	-1
654.017	1	-9
654.356	1	-7
654.695	1	0
655.034	1	6
655.373	1	-4
655.712	1	1
656.051	1	0
656.390	1	0
656.729	1	4
657.068	1	-8
657.406	1	9
657.745	1	4
658.084	1	1
658.423	1	11
658.762	1	11
659.101	1	6
659.440	1	-8
659.779	1	2
660.118	1	-2
660.457	1	-1
660.796	1	-1
661.135	1	4
661.474	1	5
661.813	1	-4
662.152	1	8
662.491	1	16
662.829	1	9
663.168	1	-2
663.507	1	-1
663.846	1	4
664.185	1	-3
664.524	1	-7
664.863	1	-1
665.202	1	1
665.541	1	-1
665.879	1	-10
666.218	1	5
666.557	1	1
666.896	1	4
667.235	1	11
667.574	1	15
667.913	1	6
668.251	1	1
668.590	1	1
668.929	1	-1
669.268	1	0
669.607	1	2
669.946	1	1
670.285	1	-2
670.623	1	15
670.962	1	-1
671.301	1	-3
671.640	1	-13
671.979	1	4
672.317	1	6
672.656	1	-6
672.995	1	4
673.334	1	-3
673.673	1	2
674.011	1	-1
674.350	1	2
674.689	1	7
675.028	1	4
675.367	1	-3
675.705	1	14
676.044	1	8
676.383	1	-1
676.722	1	1
677.060	1	0
677.399	1	-3
677.738	1	-2
678.077	1	0
678.416	1	4
678.754	1	5
679.093	1	3
679.432	1	-1
679.771	1	1
680.109	1	-1
680.448	1	2
680.787	1	1
681.125	1	5
681.464	1	0
681.803	1	-5
682.142	1	-3
682.480	1	10
682.819	1	-4
683.158	1	0
683.496	1	-4
683.835	1	0
684.174	1	0
684.512	1	14
684.851	1	-9
685.190	1	4
685.529	1	1
685.867	1	-1
686.206	1	0
686.545	1	-2
686.883	1	-4
687.222	1	-1
687.561	1	11
687.899	1	4
688.238	1	7
688.577	1	4
688.746	1	0