File: Data/GaN_130K_350ms/GaN_sample F_spot6_UVVIS_130 K_200um_350 ms 2x2mm1_257.txt
340.368	1	2
340.710	1	8
341.052	1	1
341.394	1	-1
341.737	1	3
342.079	1	3
342.421	1	6
342.763	1	0
343.105	1	2
343.447	1	5
343.789	1	7
344.131	1	7
344.473	1	6
344.815	1	-9
345.157	1	-10
345.499	1	6
345.841	1	4
346.183	1	2
346.526	1	-4
346.868	1	12
347.210	1	-4
347.552	1	-1
347.894	1	-3
348.236	1	3
348.578	1	6
348.920	1	1
349.262	1	9
349.604	1	5
349.946	1	12
350.288	1	-5
350.630	1	3
350.972	1	9
351.314	1	-7
351.656	1	6
351.998	1	-1
352.340	1	8
352.682	1	3
353.024	1	-4
353.366	1	12
353.708	1	6
354.050	1	-6
354.392	1	5
354.734	1	6
355.076	1	7
355.418	1	4
355.760	1	-3
356.102	1	5
356.444	1	-12
356.785	1	7
357.127	1	1
357.469	1	-3
357.811	1	-2
358.153	1	-5
358.495	1	7
358.837	1	4
359.179	1	11
359.521	1	-5
359.863	1	-11
360.205	1	-2
360.547	1	1
360.889	1	5
361.231	1	4
361.572	1	9
361.914	1	3
362.256	1	2
362.598	1	9
362.940	1	-7
363.282	1	13
363.624	1	13
363.966	1	16
364.308	1	15
364.649	1	11
364.991	1	13
365.333	1	2
365.675	1	11
366.017	1	21
366.359	1	20
366.701	1	4
367.042	1	9
367.384	1	19
367.726	1	8
368.068	1	-4
368.410	1	0
368.752	1	24
369.093	1	10
369.435	1	1
369.777	1	5
370.119	1	13
370.461	1	10
370.803	1	5
371.144	1	5
371.486	1	4
371.828	1	8
372.170	1	7
372.512	1	15
372.853	1	-5
373.195	1	-2
373.537	1	13
373.879	1	4
374.220	1	6
374.562	1	1
374.904	1	7
375.246	1	9
375.588	1	10
375.929	1	-5
376.271	1	4
376.613	1	-2
376.955	1	5
377.296	1	6
377.638	1	-4
377.980	1	2
378.321	1	7
378.663	1	9
379.005	1	18
379.347	1	-1
379.688	1	3
380.030	1	-2
380.372	1	12
380.714	1	11
381.055	1	12
381.397	1	4
381.739	1	6
382.080	1	0
382.422	1	1
382.764	1	-3
383.105	1	7
383.447	1	7
383.789	1	12
384.130	1	3
384.472	1	8
384.814	1	-1
385.156	1	6
385.497	1	-1
385.839	1	14
386.180	1	6
386.522	1	8
386.864	1	4
387.205	1	0
387.547	1	6
387.889	1	-4
388.230	1	4
388.572	1	9
388.914	1	0
389.255	1	-6
389.597	1	-16
389.939	1	6
390.280	1	18
390.622	1	16
390.963	1	8
391.305	1	2
391.647	1	9
391.988	1	10
392.330	1	3
392.671	1	1
393.013	1	5
393.355	1	1
393.696	1	0
394.038	1	4
394.379	1	13
394.721	1	3
395.062	1	4
395.404	1	-6
395.746	1	12
396.087	1	4
396.429	1	11
396.770	1	7
397.112	1	9
397.453	1	5
397.795	1	-1
398.136	1	-5
398.478	1	2
398.819	1	-8
399.161	1	-8
399.503	1	17
399.844	1	-5
400.186	1	-2
400.527	1	8
400.869	1	10
401.210	1	4
401.552	1	6
401.893	1	-4
402.235	1	7
402.576	1	8
402.918	1	13
403.259	1	2
403.601	1	13
403.942	1	-1
404.284	1	6
404.625	1	12
404.967	1	5
405.308	1	6
405.649	1	8
405.991	1	4
406.332	1	3
406.674	1	9
407.015	1	1
407.357	1	1
407.698	1	6
408.040	1	3
408.381	1	10
408.722	1	6
409.064	1	-5
409.405	1	10
409.747	1	2
410.088	1	19
410.430	1	17
410.771	1	-1
411.112	1	9
411.454	1	10
411.795	1	8
412.137	1	-1
412.478	1	-2
412.819	1	0
413.161	1	9
413.502	1	13
413.844	1	5
414.185	1	9
414.526	1	6
414.868	1	4
415.209	1	6
415.550	1	6
415.892	1	12
416.233	1	8
416.575	1	-1
416.916	1	-2
417.257	1	2
417.599	1	2
417.940	1	9
418.281	1	2
418.623	1	2
418.964	1	1
419.305	1	7
419.647	1	3
419.988	1	22
420.329	1	8
420.671	1	6
421.012	1	7
421.353	1	11
421.695	1	4
422.036	1	3
422.377	1	5
422.718	1	4
423.060	1	6
423.401	1	8
423.742	1	-4
424.084	1	2
424.425	1	5
424.766	1	3
425.107	1	5
425.449	1	8
425.790	1	9
426.131	1	13
426.472	1	5
426.814	1	3
427.155	1	8
427.496	1	1
427.837	1	3
428.179	1	5
428.520	1	14
428.861	1	6
429.202	1	8
429.544	1	15
429.885	1	6
430.226	1	4
430.567	1	8
430.909	1	6
431.250	1	10
431.591	1	-3
431.932	1	-4
432.273	1	3
432.615	1	3
432.956	1	-6
433.297	1	3
433.638	1	10
433.979	1	15
434.320	1	8
434.662	1	7
435.003	1	10
435.344	1	7
435.685	1	2
436.026	1	9
436.368	1	-1
436.709	1	9
437.050	1	9
437.391	1	7
437.732	1	6
438.073	1	10
438.414	1	6
438.756	1	2
439.097	1	-3
439.438	1	10
439.779	1	10
440.120	1	7
440.461	1	14
440.802	1	2
441.143	1	-2
441.485	1	15
441.826	1	4
442.167	1	1
442.508	1	3
442.849	1	-3
443.190	1	0
443.531	1	0
443.872	1	12
444.213	1	2
444.554	1	-1
444.895	1	1
445.237	1	-7
445.578	1	3
445.919	1	0
446.260	1	4
446.601	1	1
446.942	1	11
447.283	1	10
447.624	1	-4
447.965	1	4
448.306	1	5
448.647	1	14
448.988	1	0
449.329	1	-3
449.670	1	-2
450.011	1	2
450.352	1	4
450.693	1	-2
451.034	1	2
451.375	1	6
451.716	1	-8
452.057	1	17
452.398	1	-1
452.739	1	13
453.080	1	-3
453.421	1	11
453.762	1	4
454.103	1	2
454.444	1	4
454.785	1	11
455.126	1	-5
455.467	1	3
455.808	1	0
456.149	1	-3
456.490	1	3
456.831	1	7
457.172	1	8
457.513	1	-7
457.854	1	9
458.195	1	-14
458.536	1	14
458.877	1	23
459.218	1	13
459.559	1	2
459.899	1	0
460.240	1	10
460.581	1	-5
460.922	1	6
461.263	1	0
461.604	1	-13
461.945	1	5
462.286	1	6
462.627	1	-3
462.968	1	0
463.309	1	13
463.649	1	2
463.990	1	8
464.331	1	6
464.672	1	8
465.013	1	0
465.354	1	4
465.695	1	7
466.036	1	4
466.376	1	3
466.717	1	10
467.058	1	4
467.399	1	2
467.740	1	15
468.081	1	5
468.422	1	0
468.762	1	-1
469.103	1	5
469.444	1	11
469.785	1	-1
470.126	1	0
470.467	1	2
470.807	1	5
471.148	1	-5
471.489	1	0
471.830	1	2
472.171	1	2
472.511	1	-2
472.852	1	-2
473.193	1	10
473.534	1	7
473.875	1	8
474.215	1	-2
474.556	1	7
474.897	1	3
475.238	1	11
475.578	1	0
475.919	1	-3
476.260	1	-1
476.601	1	-4
476.942	1	8
477.282	1	16
477.623	1	0
477.964	1	2
478.305	1	12
478.645	1	-1
478.986	1	0
479.327	1	-6
479.667	1	0
480.008	1	1
480.349	1	-2
480.690	1	6
481.030	1	-1
481.371	1	2
481.712	1	3
482.053	1	3
482.393	1	10
482.734	1	1
483.075	1	16
483.415	1	5
483.756	1	1
484.097	1	4
484.437	1	-3
484.778	1	11
485.119	1	5
485.459	1	-7
485.800	1	16
486.141	1	0
486.481	1	-2
486.822	1	-3
487.163	1	0
487.503	1	-6
487.844	1	0
488.185	1	2
488.525	1	11
488.866	1	5
489.207	1	-7
489.547	1	0
489.888	1	8
490.228	1	4
490.569	1	5
490.910	1	5
491.250	1	7
491.591	1	-10
491.932	1	-5
492.272	1	6
492.613	1	1
492.953	1	-3
493.294	1	10
493.635	1	8
493.975	1	15
494.316	1	5
494.656	1	-9
494.997	1	7
495.337	1	0
495.678	1	1
496.019	1	3
496.359	1	11
496.700	1	-3
497.040	1	0
497.381	1	4
497.721	1	-7
498.062	1	-1
498.403	1	-3
498.743	1	6
499.084	1	13
499.424	1	-15
499.765	1	-4
500.105	1	4
500.446	1	5
500.786	1	8
501.127	1	4
501.467	1	14
501.808	1	2
502.148	1	-1
502.489	1	4
502.829	1	0
503.170	1	-11
503.510	1	1
503.851	1	7
504.191	1	1
504.532	1	4
504.872	1	12
505.213	1	2
505.553	1	5
505.894	1	-1
506.234	1	1
506.575	1	0
506.915	1	-5
507.256	1	7
507.596	1	3
507.936	1	-1
508.277	1	-1
508.617	1	-7
508.958	1	3
509.298	1	-1
509.639	1	9
509.979	1	-4
510.319	1	10
510.660	1	-9
511.000	1	0
511.341	1	-5
511.681	1	9
512.022	1	3
512.362	1	0
512.702	1	3
513.043	1	-2
513.383	1	3
513.724	1	4
514.064	1	-5
514.404	1	10
514.745	1	1
515.085	1	5
515.425	1	-1
515.766	1	1
516.106	1	-9
516.447	1	-6
516.787	1	-2
517.127	1	8
517.468	1	1
517.808	1	8
518.148	1	8
518.489	1	10
518.829	1	5
519.169	1	6
519.510	1	1
519.850	1	5
520.190	1	10
520.531	1	14
520.871	1	-4
521.211	1	7
521.552	1	7
521.892	1	14
522.232	1	2
522.573	1	-2
522.913	1	6
523.253	1	6
523.593	1	9
523.934	1	-1
524.274	1	-6
524.614	1	8
524.955	1	10
525.295	1	7
525.635	1	-1
525.975	1	4
526.316	1	-3
526.656	1	1
526.996	1	5
527.337	1	10
527.677	1	-8
528.017	1	4
528.357	1	6
528.698	1	5
529.038	1	-3
529.378	1	6
529.718	1	6
530.058	1	-1
530.399	1	4
530.739	1	9
531.079	1	-1
531.419	1	8
531.760	1	6
532.100	1	9
532.440	1	7
532.780	1	4
533.120	1	8
533.461	1	-8
533.801	1	14
534.141	1	3
534.481	1	3
534.821	1	9
535.162	1	2
535.502	1	-2
535.842	1	6
536.182	1	0
536.522	1	0
536.862	1	1
537.203	1	-4
537.543	1	6
537.883	1	5
538.223	1	4
538.563	1	14
538.903	1	16
539.243	1	-4
539.584	1	6
539.924	1	-2
540.264	1	-5
540.604	1	8
540.944	1	-7
541.284	1	2
541.624	1	10
541.964	1	-3
542.305	1	3
542.645	1	1
542.985	1	7
543.325	1	0
543.665	1	10
544.005	1	8
544.345	1	3
544.685	1	9
545.025	1	-3
545.365	1	9
545.705	1	1
546.045	1	3
546.386	1	7
546.726	1	-9
547.066	1	1
547.406	1	-9
547.746	1	-2
548.086	1	-1
548.426	1	7
548.766	1	7
549.106	1	-8
549.446	1	-3
549.786	1	2
550.126	1	5
550.466	1	8
550.806	1	1
551.146	1	8
551.486	1	3
551.826	1	3
552.166	1	9
552.506	1	5
552.846	1	-5
553.186	1	4
553.526	1	7
553.866	1	-8
554.206	1	7
554.546	1	4
554.886	1	3
555.226	1	2
555.566	1	0
555.906	1	2
556.246	1	1
556.586	1	-5
556.926	1	5
557.266	1	6
557.606	1	-3
557.946	1	4
558.286	1	15
558.626	1	-9
558.966	1	4
559.306	1	4
559.646	1	4
559.986	1	9
560.325	1	-12
560.665	1	-3
561.005	1	-3
561.345	1	2
561.685	1	6
562.025	1	-2
562.365	1	7
562.705	1	8
563.045	1	3
563.385	1	1
563.725	1	2
564.064	1	6
564.404	1	7
564.744	1	4
565.084	1	4
565.424	1	-2
565.764	1	-1
566.104	1	3
566.444	1	14
566.783	1	8
567.123	1	5
567.463	1	0
567.803	1	-3
568.143	1	14
568.483	1	1
568.823	1	-7
569.162	1	6
569.502	1	-9
569.842	1	1
570.182	1	1
570.522	1	-6
570.862	1	9
571.201	1	2
571.541	1	-2
571.881	1	2
572.221	1	17
572.561	1	11
572.900	1	2
573.240	1	0
573.580	1	-4
573.920	1	13
574.260	1	0
574.599	1	8
574.939	1	7
575.279	1	-5
575.619	1	9
575.959	1	10
576.298	1	1
576.638	1	-5
576.978	1	-7
577.318	1	3
577.657	1	12
577.997	1	4
578.337	1	3
578.677	1	10
579.016	1	0
579.356	1	15
579.696	1	-3
580.036	1	4
580.375	1	-2
580.715	1	7
581.055	1	-5
581.394	1	3
581.734	1	14
582.074	1	-5
582.414	1	-7
582.753	1	5
583.093	1	0
583.433	1	-1
583.772	1	2
584.112	1	9
584.452	1	9
584.791	1	6
585.131	1	4
585.471	1	1
585.811	1	6
586.150	1	18
586.490	1	5
586.830	1	-5
587.169	1	5
587.509	1	6
587.849	1	1
588.188	1	15
588.528	1	-4
588.867	1	-5
589.207	1	-1
589.547	1	-1
589.886	1	-1
590.226	1	12
590.566	1	8
590.905	1	7
591.245	1	1
591.585	1	5
591.924	1	2
592.264	1	2
592.603	1	-2
592.943	1	4
593.283	1	-4
593.622	1	4
593.962	1	7
594.301	1	-10
594.641	1	3
594.981	1	-14
595.320	1	2
595.660	1	-7
595.999	1	3
596.339	1	5
596.678	1	-3
597.018	1	2
597.358	1	-1
597.697	1	8
598.037	1	3
598.376	1	2
598.716	1	9
599.055	1	6
599.395	1	-10
599.734	1	4
600.074	1	7
600.413	1	-1
600.753	1	4
601.092	1	3
601.432	1	4
601.771	1	6
602.111	1	-4
602.451	1	-3
602.790	1	2
603.130	1	-2
603.469	1	1
603.809	1	5
604.148	1	4
604.487	1	3
604.827	1	4
605.166	1	12
605.506	1	-2
605.845	1	-6
606.185	1	10
606.524	1	5
606.864	1	14
607.203	1	-2
607.543	1	-5
607.882	1	5
608.222	1	-11
608.561	1	-3
608.901	1	8
609.240	1	-2
609.579	1	6
609.919	1	12
610.258	1	5
610.598	1	4
610.937	1	5
611.277	1	-1
611.616	1	-6
611.955	1	7
612.295	1	6
612.634	1	3
612.974	1	5
613.313	1	4
613.652	1	-5
613.992	1	4
614.331	1	17
614.671	1	-4
615.010	1	1
615.349	1	1
615.689	1	4
616.028	1	8
616.368	1	2
616.707	1	11
617.046	1	3
617.386	1	-8
617.725	1	-1
618.064	1	13
618.404	1	1
618.743	1	12
619.082	1	4
619.422	1	-3
619.761	1	7
620.100	1	-2
620.440	1	3
620.779	1	7
621.118	1	1
621.458	1	8
621.797	1	0
622.136	1	-3
622.476	1	8
622.815	1	-9
623.154	1	-1
623.494	1	7
623.833	1	8
624.172	1	0
624.511	1	-3
624.851	1	-6
625.190	1	-1
625.529	1	1
625.869	1	3
626.208	1	3
626.547	1	6
626.886	1	2
627.226	1	-2
627.565	1	7
627.904	1	8
628.243	1	9
628.583	1	-6
628.922	1	-3
629.261	1	-4
629.600	1	6
629.940	1	9
630.279	1	11
630.618	1	-2
630.957	1	5
631.297	1	-1
631.636	1	13
631.975	1	6
632.314	1	0
632.653	1	-3
632.993	1	5
633.332	1	3
633.671	1	-5
634.010	1	-7
634.349	1	-4
634.689	1	16
635.028	1	5
635.367	1	3
635.706	1	5
636.045	1	11
636.384	1	-1
636.724	1	16
637.063	1	2
637.402	1	4
637.741	1	4
638.080	1	19
638.419	1	3
638.759	1	5
639.098	1	-6
639.437	1	10
639.776	1	-10
640.115	1	9
640.454	1	13
640.793	1	-8
641.132	1	13
641.472	1	3
641.811	1	1
642.150	1	-7
642.489	1	1
642.828	1	1
643.167	1	3
643.506	1	9
643.845	1	-6
644.184	1	3
644.524	1	3
644.863	1	1
645.202	1	12
645.541	1	-4
645.880	1	2
646.219	1	8
646.558	1	5
646.897	1	1
647.236	1	2
647.575	1	-1
647.914	1	-1
648.253	1	-1
648.592	1	-3
648.931	1	-2
649.270	1	-2
649.610	1	3
649.949	1	8
650.288	1	6
650.627	1	-8
650.966	1	-1
651.305	1	-1
651.644	1	1
651.983	1	1
652.322	1	-1
652.661	1	4
653.000	1	2
653.339	1	4
653.678	1	0
654.017	1	-5
654.356	1	-1
654.695	1	1
655.034	1	-3
655.373	1	4
655.712	1	-3
656.051	1	11
656.390	1	3
656.729	1	-3
657.068	1	-2
657.406	1	-5
657.745	1	3
658.084	1	-2
658.423	1	2
658.762	1	17
659.101	1	9
659.440	1	-11
659.779	1	7
660.118	1	5
660.457	1	-8
660.796	1	0
661.135	1	8
661.474	1	2
661.813	1	6
662.152	1	-3
662.491	1	15
662.829	1	11
663.168	1	-10
663.507	1	7
663.846	1	-1
664.185	1	5
664.524	1	-5
664.863	1	0
665.202	1	-3
665.541	1	1
665.879	1	5
666.218	1	-1
666.557	1	-3
666.896	1	9
667.235	1	4
667.574	1	4
667.913	1	9
668.251	1	-2
668.590	1	8
668.929	1	5
669.268	1	-3
669.607	1	-2
669.946	1	8
670.285	1	10
670.623	1	11
670.962	1	-1
671.301	1	6
671.640	1	-12
671.979	1	2
672.317	1	3
672.656	1	1
672.995	1	4
673.334	1	-5
673.673	1	2
674.011	1	4
674.350	1	0
674.689	1	1
675.028	1	4
675.367	1	-3
675.705	1	9
676.044	1	-1
676.383	1	0
676.722	1	4
677.060	1	1
677.399	1	-1
677.738	1	-4
678.077	1	1
678.416	1	0
678.754	1	5
679.093	1	3
679.432	1	2
679.771	1	9
680.109	1	7
680.448	1	4
680.787	1	2
681.125	1	10
681.464	1	5
681.803	1	0
682.142	1	-3
682.480	1	5
682.819	1	6
683.158	1	6
683.496	1	-11
683.835	1	-5
684.174	1	-1
684.512	1	16
684.851	1	3
685.190	1	13
685.529	1	-4
685.867	1	1
686.206	1	7
686.545	1	-1
686.883	1	-4
687.222	1	7
687.561	1	20
687.899	1	-2
688.238	1	8
688.577	1	2
688.746	1	7