File: Data/GaN_130K_350ms/GaN_sample F_spot6_UVVIS_130 K_200um_350 ms 2x2mm1_119.txt
340.368	1	4
340.710	1	11
341.052	1	-3
341.394	1	-3
341.737	1	-1
342.079	1	7
342.421	1	17
342.763	1	3
343.105	1	-6
343.447	1	10
343.789	1	6
344.131	1	12
344.473	1	8
344.815	1	-6
345.157	1	-7
345.499	1	7
345.841	1	5
346.183	1	11
346.526	1	6
346.868	1	10
347.210	1	5
347.552	1	1
347.894	1	2
348.236	1	0
348.578	1	-3
348.920	1	3
349.262	1	6
349.604	1	9
349.946	1	2
350.288	1	-1
350.630	1	5
350.972	1	18
351.314	1	3
351.656	1	15
351.998	1	2
352.340	1	17
352.682	1	5
353.024	1	4
353.366	1	15
353.708	1	-2
354.050	1	11
354.392	1	17
354.734	1	17
355.076	1	6
355.418	1	10
355.760	1	9
356.102	1	2
356.444	1	-1
356.785	1	11
357.127	1	15
357.469	1	7
357.811	1	13
358.153	1	5
358.495	1	18
358.837	1	15
359.179	1	21
359.521	1	14
359.863	1	22
360.205	1	8
360.547	1	5
360.889	1	15
361.231	1	16
361.572	1	40
361.914	1	18
362.256	1	24
362.598	1	33
362.940	1	17
363.282	1	41
363.624	1	31
363.966	1	44
364.308	1	48
364.649	1	55
364.991	1	50
365.333	1	44
365.675	1	55
366.017	1	58
366.359	1	58
366.701	1	65
367.042	1	57
367.384	1	74
367.726	1	75
368.068	1	58
368.410	1	63
368.752	1	78
369.093	1	65
369.435	1	67
369.777	1	62
370.119	1	63
370.461	1	62
370.803	1	52
371.144	1	48
371.486	1	54
371.828	1	55
372.170	1	46
372.512	1	40
372.853	1	39
373.195	1	42
373.537	1	50
373.879	1	45
374.220	1	39
374.562	1	31
374.904	1	38
375.246	1	48
375.588	1	34
375.929	1	21
376.271	1	30
376.613	1	19
376.955	1	29
377.296	1	24
377.638	1	13
377.980	1	16
378.321	1	15
378.663	1	23
379.005	1	43
379.347	1	18
379.688	1	7
380.030	1	17
380.372	1	29
380.714	1	27
381.055	1	19
381.397	1	17
381.739	1	8
382.080	1	16
382.422	1	23
382.764	1	13
383.105	1	21
383.447	1	18
383.789	1	25
384.130	1	20
384.472	1	21
384.814	1	15
385.156	1	16
385.497	1	7
385.839	1	17
386.180	1	13
386.522	1	19
386.864	1	19
387.205	1	17
387.547	1	22
387.889	1	8
388.230	1	10
388.572	1	24
388.914	1	12
389.255	1	8
389.597	1	-2
389.939	1	21
390.280	1	27
390.622	1	12
390.963	1	17
391.305	1	17
391.647	1	12
391.988	1	21
392.330	1	1
392.671	1	-1
393.013	1	17
393.355	1	16
393.696	1	9
394.038	1	17
394.379	1	11
394.721	1	17
395.062	1	18
395.404	1	9
395.746	1	13
396.087	1	20
396.429	1	13
396.770	1	23
397.112	1	17
397.453	1	9
397.795	1	-5
398.136	1	15
398.478	1	18
398.819	1	-5
399.161	1	12
399.503	1	18
399.844	1	0
400.186	1	5
400.527	1	20
400.869	1	10
401.210	1	2
401.552	1	14
401.893	1	2
402.235	1	14
402.576	1	3
402.918	1	16
403.259	1	7
403.601	1	11
403.942	1	6
404.284	1	10
404.625	1	12
404.967	1	16
405.308	1	5
405.649	1	6
405.991	1	10
406.332	1	9
406.674	1	10
407.015	1	8
407.357	1	18
407.698	1	3
408.040	1	5
408.381	1	19
408.722	1	8
409.064	1	11
409.405	1	13
409.747	1	6
410.088	1	19
410.430	1	24
410.771	1	-2
411.112	1	7
411.454	1	12
411.795	1	17
412.137	1	7
412.478	1	8
412.819	1	15
413.161	1	11
413.502	1	16
413.844	1	13
414.185	1	17
414.526	1	14
414.868	1	10
415.209	1	4
415.550	1	4
415.892	1	11
416.233	1	16
416.575	1	21
416.916	1	-3
417.257	1	7
417.599	1	2
417.940	1	6
418.281	1	16
418.623	1	9
418.964	1	3
419.305	1	8
419.647	1	15
419.988	1	16
420.329	1	21
420.671	1	11
421.012	1	9
421.353	1	10
421.695	1	8
422.036	1	7
422.377	1	13
422.718	1	8
423.060	1	6
423.401	1	11
423.742	1	1
424.084	1	14
424.425	1	15
424.766	1	10
425.107	1	11
425.449	1	3
425.790	1	15
426.131	1	11
426.472	1	1
426.814	1	4
427.155	1	4
427.496	1	7
427.837	1	15
428.179	1	13
428.520	1	12
428.861	1	-1
429.202	1	11
429.544	1	13
429.885	1	9
430.226	1	7
430.567	1	14
430.909	1	3
431.250	1	17
431.591	1	4
431.932	1	10
432.273	1	14
432.615	1	10
432.956	1	2
433.297	1	13
433.638	1	11
433.979	1	9
434.320	1	6
434.662	1	12
435.003	1	20
435.344	1	6
435.685	1	-3
436.026	1	14
436.368	1	-1
436.709	1	5
437.050	1	12
437.391	1	23
437.732	1	8
438.073	1	4
438.414	1	7
438.756	1	0
439.097	1	12
439.438	1	14
439.779	1	16
440.120	1	9
440.461	1	17
440.802	1	-4
441.143	1	0
441.485	1	9
441.826	1	4
442.167	1	11
442.508	1	8
442.849	1	11
443.190	1	1
443.531	1	14
443.872	1	15
444.213	1	0
444.554	1	7
444.895	1	11
445.237	1	3
445.578	1	-1
445.919	1	0
446.260	1	8
446.601	1	6
446.942	1	14
447.283	1	19
447.624	1	7
447.965	1	4
448.306	1	8
448.647	1	18
448.988	1	7
449.329	1	-2
449.670	1	4
450.011	1	-9
450.352	1	14
450.693	1	-1
451.034	1	4
451.375	1	5
451.716	1	-3
452.057	1	8
452.398	1	-7
452.739	1	1
453.080	1	2
453.421	1	2
453.762	1	10
454.103	1	0
454.444	1	-4
454.785	1	20
455.126	1	-3
455.467	1	-3
455.808	1	20
456.149	1	-5
456.490	1	11
456.831	1	11
457.172	1	6
457.513	1	10
457.854	1	4
458.195	1	-6
458.536	1	6
458.877	1	21
459.218	1	10
459.559	1	5
459.899	1	8
460.240	1	18
460.581	1	1
460.922	1	9
461.263	1	7
461.604	1	-6
461.945	1	10
462.286	1	5
462.627	1	-1
462.968	1	1
463.309	1	9
463.649	1	-1
463.990	1	1
464.331	1	12
464.672	1	9
465.013	1	4
465.354	1	10
465.695	1	10
466.036	1	-6
466.376	1	8
466.717	1	9
467.058	1	10
467.399	1	-1
467.740	1	13
468.081	1	7
468.422	1	9
468.762	1	-1
469.103	1	10
469.444	1	-8
469.785	1	8
470.126	1	-9
470.467	1	4
470.807	1	4
471.148	1	3
471.489	1	3
471.830	1	7
472.171	1	3
472.511	1	12
472.852	1	18
473.193	1	5
473.534	1	3
473.875	1	14
474.215	1	2
474.556	1	5
474.897	1	2
475.238	1	18
475.578	1	5
475.919	1	0
476.260	1	1
476.601	1	3
476.942	1	13
477.282	1	13
477.623	1	3
477.964	1	3
478.305	1	10
478.645	1	4
478.986	1	-3
479.327	1	8
479.667	1	11
480.008	1	-5
480.349	1	8
480.690	1	1
481.030	1	12
481.371	1	8
481.712	1	13
482.053	1	8
482.393	1	18
482.734	1	8
483.075	1	15
483.415	1	0
483.756	1	5
484.097	1	5
484.437	1	3
484.778	1	18
485.119	1	13
485.459	1	0
485.800	1	14
486.141	1	6
486.481	1	1
486.822	1	6
487.163	1	12
487.503	1	5
487.844	1	-3
488.185	1	7
488.525	1	8
488.866	1	18
489.207	1	2
489.547	1	9
489.888	1	16
490.228	1	8
490.569	1	11
490.910	1	-2
491.250	1	13
491.591	1	2
491.932	1	8
492.272	1	5
492.613	1	1
492.953	1	9
493.294	1	16
493.635	1	14
493.975	1	10
494.316	1	16
494.656	1	15
494.997	1	19
495.337	1	14
495.678	1	15
496.019	1	8
496.359	1	18
496.700	1	13
497.040	1	10
497.381	1	16
497.721	1	11
498.062	1	10
498.403	1	7
498.743	1	10
499.084	1	19
499.424	1	5
499.765	1	2
500.105	1	13
500.446	1	18
500.786	1	15
501.127	1	15
501.467	1	11
501.808	1	4
502.148	1	17
502.489	1	14
502.829	1	13
503.170	1	10
503.510	1	22
503.851	1	5
504.191	1	23
504.532	1	18
504.872	1	13
505.213	1	22
505.553	1	16
505.894	1	27
506.234	1	12
506.575	1	21
506.915	1	18
507.256	1	23
507.596	1	20
507.936	1	17
508.277	1	13
508.617	1	9
508.958	1	30
509.298	1	20
509.639	1	12
509.979	1	17
510.319	1	30
510.660	1	9
511.000	1	26
511.341	1	20
511.681	1	22
512.022	1	22
512.362	1	22
512.702	1	17
513.043	1	22
513.383	1	23
513.724	1	9
514.064	1	24
514.404	1	28
514.745	1	11
515.085	1	25
515.425	1	21
515.766	1	23
516.106	1	19
516.447	1	17
516.787	1	19
517.127	1	19
517.468	1	28
517.808	1	24
518.148	1	35
518.489	1	23
518.829	1	28
519.169	1	21
519.510	1	21
519.850	1	38
520.190	1	26
520.531	1	22
520.871	1	21
521.211	1	30
521.552	1	17
521.892	1	36
522.232	1	23
522.573	1	29
522.913	1	39
523.253	1	35
523.593	1	39
523.934	1	26
524.274	1	25
524.614	1	41
524.955	1	32
525.295	1	21
525.635	1	18
525.975	1	32
526.316	1	35
526.656	1	41
526.996	1	18
527.337	1	31
527.677	1	27
528.017	1	29
528.357	1	28
528.698	1	29
529.038	1	22
529.378	1	19
529.718	1	34
530.058	1	18
530.399	1	26
530.739	1	44
531.079	1	25
531.419	1	23
531.760	1	33
532.100	1	27
532.440	1	23
532.780	1	37
533.120	1	35
533.461	1	21
533.801	1	40
534.141	1	34
534.481	1	24
534.821	1	39
535.162	1	34
535.502	1	23
535.842	1	34
536.182	1	32
536.522	1	14
536.862	1	21
537.203	1	20
537.543	1	31
537.883	1	14
538.223	1	31
538.563	1	20
538.903	1	28
539.243	1	38
539.584	1	29
539.924	1	27
540.264	1	21
540.604	1	20
540.944	1	30
541.284	1	21
541.624	1	23
541.964	1	22
542.305	1	12
542.645	1	24
542.985	1	25
543.325	1	16
543.665	1	23
544.005	1	26
544.345	1	27
544.685	1	28
545.025	1	21
545.365	1	29
545.705	1	16
546.045	1	19
546.386	1	18
546.726	1	24
547.066	1	30
547.406	1	3
547.746	1	33
548.086	1	6
548.426	1	20
548.766	1	17
549.106	1	18
549.446	1	22
549.786	1	25
550.126	1	28
550.466	1	15
550.806	1	42
551.146	1	18
551.486	1	17
551.826	1	16
552.166	1	32
552.506	1	18
552.846	1	15
553.186	1	21
553.526	1	26
553.866	1	8
554.206	1	22
554.546	1	16
554.886	1	14
555.226	1	21
555.566	1	19
555.906	1	19
556.246	1	20
556.586	1	18
556.926	1	21
557.266	1	8
557.606	1	19
557.946	1	18
558.286	1	21
558.626	1	11
558.966	1	15
559.306	1	15
559.646	1	18
559.986	1	20
560.325	1	6
560.665	1	20
561.005	1	18
561.345	1	18
561.685	1	4
562.025	1	22
562.365	1	13
562.705	1	16
563.045	1	15
563.385	1	17
563.725	1	16
564.064	1	22
564.404	1	11
564.744	1	12
565.084	1	9
565.424	1	2
565.764	1	14
566.104	1	15
566.444	1	26
566.783	1	22
567.123	1	12
567.463	1	13
567.803	1	19
568.143	1	24
568.483	1	10
568.823	1	5
569.162	1	19
569.502	1	11
569.842	1	19
570.182	1	14
570.522	1	4
570.862	1	20
571.201	1	19
571.541	1	2
571.881	1	5
572.221	1	16
572.561	1	19
572.900	1	6
573.240	1	7
573.580	1	11
573.920	1	21
574.260	1	8
574.599	1	16
574.939	1	8
575.279	1	5
575.619	1	11
575.959	1	8
576.298	1	15
576.638	1	7
576.978	1	3
577.318	1	15
577.657	1	25
577.997	1	20
578.337	1	10
578.677	1	20
579.016	1	7
579.356	1	21
579.696	1	2
580.036	1	9
580.375	1	-8
580.715	1	6
581.055	1	17
581.394	1	10
581.734	1	21
582.074	1	9
582.414	1	9
582.753	1	18
583.093	1	10
583.433	1	11
583.772	1	9
584.112	1	17
584.452	1	18
584.791	1	16
585.131	1	22
585.471	1	4
585.811	1	6
586.150	1	15
586.490	1	7
586.830	1	-1
587.169	1	17
587.509	1	7
587.849	1	15
588.188	1	18
588.528	1	19
588.867	1	7
589.207	1	-1
589.547	1	8
589.886	1	4
590.226	1	10
590.566	1	11
590.905	1	18
591.245	1	3
591.585	1	14
591.924	1	4
592.264	1	2
592.603	1	7
592.943	1	4
593.283	1	1
593.622	1	23
593.962	1	4
594.301	1	-1
594.641	1	3
594.981	1	-6
595.320	1	11
595.660	1	10
595.999	1	9
596.339	1	12
596.678	1	6
597.018	1	11
597.358	1	6
597.697	1	7
598.037	1	17
598.376	1	2
598.716	1	8
599.055	1	-1
599.395	1	1
599.734	1	4
600.074	1	14
600.413	1	10
600.753	1	10
601.092	1	7
601.432	1	-2
601.771	1	18
602.111	1	9
602.451	1	19
602.790	1	-5
603.130	1	12
603.469	1	5
603.809	1	6
604.148	1	16
604.487	1	15
604.827	1	1
605.166	1	9
605.506	1	17
605.845	1	3
606.185	1	5
606.524	1	9
606.864	1	16
607.203	1	8
607.543	1	10
607.882	1	8
608.222	1	-7
608.561	1	6
608.901	1	11
609.240	1	5
609.579	1	10
609.919	1	6
610.258	1	9
610.598	1	7
610.937	1	2
611.277	1	3
611.616	1	0
611.955	1	-3
612.295	1	11
612.634	1	5
612.974	1	8
613.313	1	0
613.652	1	-1
613.992	1	10
614.331	1	11
614.671	1	11
615.010	1	4
615.349	1	7
615.689	1	16
616.028	1	17
616.368	1	10
616.707	1	16
617.046	1	10
617.386	1	9
617.725	1	-1
618.064	1	9
618.404	1	-4
618.743	1	9
619.082	1	5
619.422	1	12
619.761	1	10
620.100	1	3
620.440	1	8
620.779	1	6
621.118	1	4
621.458	1	-2
621.797	1	0
622.136	1	8
622.476	1	2
622.815	1	-6
623.154	1	1
623.494	1	15
623.833	1	6
624.172	1	2
624.511	1	8
624.851	1	-1
625.190	1	-3
625.529	1	5
625.869	1	7
626.208	1	6
626.547	1	13
626.886	1	-5
627.226	1	-7
627.565	1	2
627.904	1	8
628.243	1	6
628.583	1	3
628.922	1	3
629.261	1	-4
629.600	1	9
629.940	1	10
630.279	1	9
630.618	1	-3
630.957	1	13
631.297	1	5
631.636	1	10
631.975	1	7
632.314	1	-1
632.653	1	12
632.993	1	11
633.332	1	-3
633.671	1	-5
634.010	1	4
634.349	1	2
634.689	1	8
635.028	1	11
635.367	1	0
635.706	1	4
636.045	1	18
636.384	1	8
636.724	1	8
637.063	1	10
637.402	1	7
637.741	1	17
638.080	1	16
638.419	1	7
638.759	1	13
639.098	1	0
639.437	1	12
639.776	1	0
640.115	1	9
640.454	1	10
640.793	1	-1
641.132	1	19
641.472	1	5
641.811	1	3
642.150	1	-15
642.489	1	7
642.828	1	6
643.167	1	13
643.506	1	14
643.845	1	-6
644.184	1	0
644.524	1	4
644.863	1	7
645.202	1	9
645.541	1	-1
645.880	1	7
646.219	1	3
646.558	1	5
646.897	1	-3
647.236	1	1
647.575	1	-4
647.914	1	1
648.253	1	10
648.592	1	0
648.931	1	-3
649.270	1	-2
649.610	1	11
649.949	1	12
650.288	1	14
650.627	1	6
650.966	1	8
651.305	1	-7
651.644	1	7
651.983	1	-9
652.322	1	3
652.661	1	-13
653.000	1	13
653.339	1	10
653.678	1	1
654.017	1	-3
654.356	1	0
654.695	1	1
655.034	1	4
655.373	1	7
655.712	1	-2
656.051	1	-7
656.390	1	10
656.729	1	-1
657.068	1	-1
657.406	1	9
657.745	1	5
658.084	1	8
658.423	1	3
658.762	1	15
659.101	1	8
659.440	1	-9
659.779	1	9
660.118	1	3
660.457	1	0
660.796	1	0
661.135	1	16
661.474	1	12
661.813	1	-3
662.152	1	-2
662.491	1	10
662.829	1	13
663.168	1	4
663.507	1	7
663.846	1	-1
664.185	1	-1
664.524	1	3
664.863	1	10
665.202	1	0
665.541	1	2
665.879	1	2
666.218	1	10
666.557	1	4
666.896	1	4
667.235	1	10
667.574	1	18
667.913	1	8
668.251	1	-1
668.590	1	-1
668.929	1	6
669.268	1	-6
669.607	1	8
669.946	1	21
670.285	1	8
670.623	1	16
670.962	1	-4
671.301	1	1
671.640	1	-13
671.979	1	6
672.317	1	6
672.656	1	4
672.995	1	0
673.334	1	-2
673.673	1	12
674.011	1	0
674.350	1	11
674.689	1	12
675.028	1	6
675.367	1	-10
675.705	1	12
676.044	1	8
676.383	1	10
676.722	1	1
677.060	1	7
677.399	1	7
677.738	1	-3
678.077	1	12
678.416	1	7
678.754	1	10
679.093	1	2
679.432	1	17
679.771	1	9
680.109	1	7
680.448	1	0
680.787	1	6
681.125	1	8
681.464	1	-1
681.803	1	5
682.142	1	-4
682.480	1	12
682.819	1	14
683.158	1	12
683.496	1	4
683.835	1	-1
684.174	1	4
684.512	1	15
684.851	1	-4
685.190	1	2
685.529	1	-9
685.867	1	-2
686.206	1	7
686.545	1	9
686.883	1	-5
687.222	1	6
687.561	1	15
687.899	1	-5
688.238	1	9
688.577	1	4
688.746	1	7