File: Data/GaN_130K_350ms/GaN_sample F_spot6_UVVIS_130 K_200um_350 ms 2x2mm1_154.txt
340.368	1	2
340.710	1	14
341.052	1	2
341.394	1	1
341.737	1	-3
342.079	1	6
342.421	1	5
342.763	1	6
343.105	1	3
343.447	1	7
343.789	1	2
344.131	1	1
344.473	1	5
344.815	1	0
345.157	1	-6
345.499	1	6
345.841	1	-6
346.183	1	7
346.526	1	4
346.868	1	5
347.210	1	11
347.552	1	0
347.894	1	-9
348.236	1	1
348.578	1	3
348.920	1	12
349.262	1	8
349.604	1	7
349.946	1	2
350.288	1	-6
350.630	1	7
350.972	1	8
351.314	1	-10
351.656	1	11
351.998	1	7
352.340	1	12
352.682	1	7
353.024	1	3
353.366	1	13
353.708	1	-1
354.050	1	4
354.392	1	5
354.734	1	3
355.076	1	10
355.418	1	13
355.760	1	3
356.102	1	3
356.444	1	-4
356.785	1	4
357.127	1	11
357.469	1	3
357.811	1	13
358.153	1	1
358.495	1	5
358.837	1	4
359.179	1	6
359.521	1	4
359.863	1	7
360.205	1	10
360.547	1	3
360.889	1	11
361.231	1	8
361.572	1	19
361.914	1	19
362.256	1	8
362.598	1	15
362.940	1	1
363.282	1	20
363.624	1	19
363.966	1	32
364.308	1	19
364.649	1	20
364.991	1	31
365.333	1	18
365.675	1	29
366.017	1	30
366.359	1	33
366.701	1	39
367.042	1	36
367.384	1	41
367.726	1	39
368.068	1	20
368.410	1	35
368.752	1	37
369.093	1	28
369.435	1	33
369.777	1	28
370.119	1	31
370.461	1	39
370.803	1	29
371.144	1	20
371.486	1	33
371.828	1	30
372.170	1	28
372.512	1	27
372.853	1	15
373.195	1	27
373.537	1	23
373.879	1	22
374.220	1	11
374.562	1	22
374.904	1	15
375.246	1	21
375.588	1	19
375.929	1	11
376.271	1	18
376.613	1	15
376.955	1	19
377.296	1	4
377.638	1	-4
377.980	1	7
378.321	1	9
378.663	1	15
379.005	1	26
379.347	1	7
379.688	1	4
380.030	1	11
380.372	1	14
380.714	1	18
381.055	1	7
381.397	1	4
381.739	1	19
382.080	1	6
382.422	1	15
382.764	1	7
383.105	1	6
383.447	1	26
383.789	1	14
384.130	1	20
384.472	1	14
384.814	1	5
385.156	1	10
385.497	1	5
385.839	1	10
386.180	1	16
386.522	1	13
386.864	1	13
387.205	1	5
387.547	1	12
387.889	1	-3
388.230	1	7
388.572	1	13
388.914	1	6
389.255	1	5
389.597	1	-6
389.939	1	16
390.280	1	13
390.622	1	7
390.963	1	11
391.305	1	10
391.647	1	12
391.988	1	13
392.330	1	-2
392.671	1	7
393.013	1	3
393.355	1	9
393.696	1	0
394.038	1	18
394.379	1	13
394.721	1	5
395.062	1	6
395.404	1	-4
395.746	1	14
396.087	1	16
396.429	1	12
396.770	1	12
397.112	1	6
397.453	1	19
397.795	1	2
398.136	1	9
398.478	1	6
398.819	1	3
399.161	1	9
399.503	1	11
399.844	1	-1
400.186	1	5
400.527	1	16
400.869	1	11
401.210	1	-3
401.552	1	15
401.893	1	-7
402.235	1	5
402.576	1	0
402.918	1	17
403.259	1	5
403.601	1	4
403.942	1	10
404.284	1	6
404.625	1	5
404.967	1	2
405.308	1	11
405.649	1	14
405.991	1	11
406.332	1	10
406.674	1	12
407.015	1	12
407.357	1	10
407.698	1	4
408.040	1	7
408.381	1	25
408.722	1	15
409.064	1	9
409.405	1	13
409.747	1	-2
410.088	1	12
410.430	1	15
410.771	1	-3
411.112	1	12
411.454	1	10
411.795	1	17
412.137	1	-2
412.478	1	1
412.819	1	8
413.161	1	10
413.502	1	17
413.844	1	13
414.185	1	17
414.526	1	11
414.868	1	6
415.209	1	3
415.550	1	1
415.892	1	12
416.233	1	12
416.575	1	9
416.916	1	-2
417.257	1	8
417.599	1	12
417.940	1	7
418.281	1	6
418.623	1	10
418.964	1	1
419.305	1	10
419.647	1	7
419.988	1	19
420.329	1	15
420.671	1	0
421.012	1	1
421.353	1	-2
421.695	1	-1
422.036	1	7
422.377	1	14
422.718	1	5
423.060	1	10
423.401	1	2
423.742	1	15
424.084	1	13
424.425	1	13
424.766	1	6
425.107	1	2
425.449	1	-2
425.790	1	17
426.131	1	10
426.472	1	6
426.814	1	8
427.155	1	4
427.496	1	9
427.837	1	6
428.179	1	8
428.520	1	3
428.861	1	4
429.202	1	10
429.544	1	14
429.885	1	0
430.226	1	5
430.567	1	2
430.909	1	6
431.250	1	13
431.591	1	5
431.932	1	4
432.273	1	15
432.615	1	16
432.956	1	-1
433.297	1	18
433.638	1	4
433.979	1	6
434.320	1	12
434.662	1	7
435.003	1	15
435.344	1	11
435.685	1	-5
436.026	1	17
436.368	1	0
436.709	1	-4
437.050	1	14
437.391	1	19
437.732	1	7
438.073	1	11
438.414	1	-2
438.756	1	2
439.097	1	4
439.438	1	6
439.779	1	7
440.120	1	10
440.461	1	17
440.802	1	-5
441.143	1	-4
441.485	1	3
441.826	1	-4
442.167	1	1
442.508	1	9
442.849	1	15
443.190	1	10
443.531	1	3
443.872	1	16
444.213	1	7
444.554	1	8
444.895	1	3
445.237	1	2
445.578	1	-6
445.919	1	5
446.260	1	6
446.601	1	-1
446.942	1	8
447.283	1	2
447.624	1	6
447.965	1	4
448.306	1	12
448.647	1	13
448.988	1	-6
449.329	1	1
449.670	1	3
450.011	1	4
450.352	1	13
450.693	1	5
451.034	1	-1
451.375	1	9
451.716	1	-6
452.057	1	12
452.398	1	-14
452.739	1	11
453.080	1	2
453.421	1	8
453.762	1	5
454.103	1	3
454.444	1	7
454.785	1	11
455.126	1	-1
455.467	1	6
455.808	1	11
456.149	1	-4
456.490	1	11
456.831	1	6
457.172	1	3
457.513	1	-1
457.854	1	4
458.195	1	-7
458.536	1	3
458.877	1	19
459.218	1	10
459.559	1	0
459.899	1	5
460.240	1	5
460.581	1	5
460.922	1	0
461.263	1	7
461.604	1	-3
461.945	1	13
462.286	1	6
462.627	1	7
462.968	1	14
463.309	1	3
463.649	1	-4
463.990	1	0
464.331	1	16
464.672	1	12
465.013	1	-4
465.354	1	0
465.695	1	7
466.036	1	3
466.376	1	7
466.717	1	12
467.058	1	8
467.399	1	4
467.740	1	18
468.081	1	11
468.422	1	0
468.762	1	4
469.103	1	6
469.444	1	0
469.785	1	0
470.126	1	-5
470.467	1	14
470.807	1	-5
471.148	1	1
471.489	1	-3
471.830	1	6
472.171	1	10
472.511	1	-2
472.852	1	13
473.193	1	5
473.534	1	5
473.875	1	9
474.215	1	5
474.556	1	12
474.897	1	-1
475.238	1	10
475.578	1	9
475.919	1	-2
476.260	1	4
476.601	1	1
476.942	1	14
477.282	1	3
477.623	1	-4
477.964	1	-9
478.305	1	11
478.645	1	-5
478.986	1	-3
479.327	1	6
479.667	1	2
480.008	1	5
480.349	1	-4
480.690	1	4
481.030	1	3
481.371	1	10
481.712	1	8
482.053	1	8
482.393	1	5
482.734	1	12
483.075	1	11
483.415	1	1
483.756	1	1
484.097	1	-8
484.437	1	11
484.778	1	15
485.119	1	8
485.459	1	0
485.800	1	3
486.141	1	-2
486.481	1	6
486.822	1	12
487.163	1	1
487.503	1	-14
487.844	1	4
488.185	1	6
488.525	1	7
488.866	1	5
489.207	1	-2
489.547	1	-1
489.888	1	15
490.228	1	9
490.569	1	5
490.910	1	-6
491.250	1	13
491.591	1	0
491.932	1	6
492.272	1	4
492.613	1	-6
492.953	1	7
493.294	1	9
493.635	1	2
493.975	1	12
494.316	1	4
494.656	1	6
494.997	1	-2
495.337	1	1
495.678	1	7
496.019	1	7
496.359	1	22
496.700	1	5
497.040	1	7
497.381	1	7
497.721	1	2
498.062	1	-1
498.403	1	-3
498.743	1	13
499.084	1	9
499.424	1	4
499.765	1	5
500.105	1	5
500.446	1	16
500.786	1	10
501.127	1	4
501.467	1	4
501.808	1	2
502.148	1	11
502.489	1	5
502.829	1	3
503.170	1	0
503.510	1	10
503.851	1	6
504.191	1	1
504.532	1	11
504.872	1	17
505.213	1	8
505.553	1	12
505.894	1	8
506.234	1	7
506.575	1	0
506.915	1	15
507.256	1	8
507.596	1	0
507.936	1	-6
508.277	1	-1
508.617	1	8
508.958	1	10
509.298	1	8
509.639	1	10
509.979	1	9
510.319	1	19
510.660	1	7
511.000	1	8
511.341	1	8
511.681	1	18
512.022	1	14
512.362	1	3
512.702	1	19
513.043	1	2
513.383	1	14
513.724	1	5
514.064	1	12
514.404	1	17
514.745	1	6
515.085	1	16
515.425	1	2
515.766	1	15
516.106	1	2
516.447	1	20
516.787	1	19
517.127	1	20
517.468	1	14
517.808	1	17
518.148	1	6
518.489	1	9
518.829	1	12
519.169	1	11
519.510	1	6
519.850	1	17
520.190	1	16
520.531	1	11
520.871	1	-1
521.211	1	10
521.552	1	7
521.892	1	12
522.232	1	5
522.573	1	10
522.913	1	9
523.253	1	19
523.593	1	14
523.934	1	9
524.274	1	4
524.614	1	15
524.955	1	9
525.295	1	19
525.635	1	17
525.975	1	24
526.316	1	13
526.656	1	8
526.996	1	13
527.337	1	17
527.677	1	6
528.017	1	10
528.357	1	17
528.698	1	8
529.038	1	8
529.378	1	16
529.718	1	21
530.058	1	11
530.399	1	14
530.739	1	16
531.079	1	19
531.419	1	12
531.760	1	11
532.100	1	16
532.440	1	22
532.780	1	12
533.120	1	16
533.461	1	8
533.801	1	35
534.141	1	22
534.481	1	14
534.821	1	15
535.162	1	7
535.502	1	21
535.842	1	18
536.182	1	24
536.522	1	12
536.862	1	16
537.203	1	18
537.543	1	12
537.883	1	2
538.223	1	9
538.563	1	10
538.903	1	22
539.243	1	5
539.584	1	19
539.924	1	14
540.264	1	13
540.604	1	15
540.944	1	8
541.284	1	12
541.624	1	22
541.964	1	11
542.305	1	6
542.645	1	12
542.985	1	18
543.325	1	12
543.665	1	15
544.005	1	21
544.345	1	15
544.685	1	19
545.025	1	8
545.365	1	13
545.705	1	8
546.045	1	15
546.386	1	6
546.726	1	5
547.066	1	13
547.406	1	6
547.746	1	2
548.086	1	0
548.426	1	13
548.766	1	14
549.106	1	-2
549.446	1	9
549.786	1	12
550.126	1	19
550.466	1	14
550.806	1	9
551.146	1	9
551.486	1	3
551.826	1	11
552.166	1	16
552.506	1	6
552.846	1	8
553.186	1	15
553.526	1	17
553.866	1	-1
554.206	1	10
554.546	1	9
554.886	1	13
555.226	1	5
555.566	1	8
555.906	1	9
556.246	1	14
556.586	1	4
556.926	1	-1
557.266	1	12
557.606	1	9
557.946	1	14
558.286	1	23
558.626	1	9
558.966	1	7
559.306	1	10
559.646	1	8
559.986	1	13
560.325	1	-2
560.665	1	11
561.005	1	4
561.345	1	15
561.685	1	10
562.025	1	12
562.365	1	6
562.705	1	18
563.045	1	5
563.385	1	20
563.725	1	2
564.064	1	16
564.404	1	5
564.744	1	12
565.084	1	15
565.424	1	-6
565.764	1	9
566.104	1	5
566.444	1	11
566.783	1	15
567.123	1	9
567.463	1	4
567.803	1	17
568.143	1	20
568.483	1	6
568.823	1	-1
569.162	1	4
569.502	1	7
569.842	1	-3
570.182	1	16
570.522	1	-5
570.862	1	27
571.201	1	8
571.541	1	9
571.881	1	3
572.221	1	12
572.561	1	8
572.900	1	7
573.240	1	2
573.580	1	6
573.920	1	14
574.260	1	8
574.599	1	11
574.939	1	0
575.279	1	-7
575.619	1	16
575.959	1	6
576.298	1	4
576.638	1	-4
576.978	1	-3
577.318	1	2
577.657	1	13
577.997	1	15
578.337	1	12
578.677	1	21
579.016	1	6
579.356	1	14
579.696	1	-2
580.036	1	5
580.375	1	1
580.715	1	8
581.055	1	13
581.394	1	3
581.734	1	3
582.074	1	-2
582.414	1	4
582.753	1	2
583.093	1	13
583.433	1	11
583.772	1	15
584.112	1	8
584.452	1	11
584.791	1	8
585.131	1	12
585.471	1	6
585.811	1	5
586.150	1	7
586.490	1	2
586.830	1	1
587.169	1	14
587.509	1	17
587.849	1	11
588.188	1	8
588.528	1	9
588.867	1	9
589.207	1	1
589.547	1	3
589.886	1	7
590.226	1	8
590.566	1	-2
590.905	1	9
591.245	1	1
591.585	1	4
591.924	1	7
592.264	1	3
592.603	1	3
592.943	1	-4
593.283	1	-1
593.622	1	12
593.962	1	11
594.301	1	-1
594.641	1	8
594.981	1	-5
595.320	1	7
595.660	1	4
595.999	1	14
596.339	1	1
596.678	1	-1
597.018	1	2
597.358	1	-1
597.697	1	-5
598.037	1	6
598.376	1	3
598.716	1	14
599.055	1	11
599.395	1	2
599.734	1	6
600.074	1	11
600.413	1	-1
600.753	1	12
601.092	1	7
601.432	1	-1
601.771	1	8
602.111	1	1
602.451	1	6
602.790	1	4
603.130	1	8
603.469	1	11
603.809	1	6
604.148	1	-1
604.487	1	12
604.827	1	8
605.166	1	5
605.506	1	-1
605.845	1	-1
606.185	1	6
606.524	1	11
606.864	1	13
607.203	1	3
607.543	1	-1
607.882	1	8
608.222	1	-12
608.561	1	1
608.901	1	8
609.240	1	-6
609.579	1	9
609.919	1	11
610.258	1	13
610.598	1	7
610.937	1	15
611.277	1	3
611.616	1	2
611.955	1	-8
612.295	1	13
612.634	1	2
612.974	1	3
613.313	1	11
613.652	1	4
613.992	1	4
614.331	1	13
614.671	1	-1
615.010	1	6
615.349	1	0
615.689	1	12
616.028	1	23
616.368	1	11
616.707	1	10
617.046	1	3
617.386	1	8
617.725	1	-1
618.064	1	7
618.404	1	6
618.743	1	12
619.082	1	-1
619.422	1	-2
619.761	1	6
620.100	1	2
620.440	1	5
620.779	1	-2
621.118	1	8
621.458	1	7
621.797	1	0
622.136	1	6
622.476	1	13
622.815	1	0
623.154	1	3
623.494	1	10
623.833	1	6
624.172	1	5
624.511	1	4
624.851	1	-6
625.190	1	-2
625.529	1	1
625.869	1	6
626.208	1	5
626.547	1	4
626.886	1	-3
627.226	1	4
627.565	1	8
627.904	1	7
628.243	1	10
628.583	1	-12
628.922	1	0
629.261	1	-8
629.600	1	5
629.940	1	16
630.279	1	14
630.618	1	1
630.957	1	4
631.297	1	2
631.636	1	15
631.975	1	2
632.314	1	3
632.653	1	1
632.993	1	13
633.332	1	9
633.671	1	-6
634.010	1	-4
634.349	1	5
634.689	1	11
635.028	1	12
635.367	1	-1
635.706	1	-1
636.045	1	21
636.384	1	2
636.724	1	13
637.063	1	3
637.402	1	-2
637.741	1	6
638.080	1	13
638.419	1	12
638.759	1	2
639.098	1	-6
639.437	1	12
639.776	1	2
640.115	1	3
640.454	1	11
640.793	1	-3
641.132	1	17
641.472	1	4
641.811	1	15
642.150	1	-11
642.489	1	-9
642.828	1	-3
643.167	1	3
643.506	1	7
643.845	1	2
644.184	1	-7
644.524	1	-1
644.863	1	3
645.202	1	13
645.541	1	1
645.880	1	8
646.219	1	8
646.558	1	0
646.897	1	7
647.236	1	3
647.575	1	-1
647.914	1	-14
648.253	1	-4
648.592	1	4
648.931	1	-3
649.270	1	-2
649.610	1	1
649.949	1	4
650.288	1	4
650.627	1	-4
650.966	1	7
651.305	1	3
651.644	1	1
651.983	1	-10
652.322	1	4
652.661	1	3
653.000	1	-6
653.339	1	5
653.678	1	3
654.017	1	-4
654.356	1	8
654.695	1	-2
655.034	1	4
655.373	1	4
655.712	1	0
656.051	1	2
656.390	1	10
656.729	1	10
657.068	1	-2
657.406	1	6
657.745	1	4
658.084	1	-1
658.423	1	1
658.762	1	14
659.101	1	8
659.440	1	5
659.779	1	0
660.118	1	-3
660.457	1	-2
660.796	1	5
661.135	1	9
661.474	1	-1
661.813	1	4
662.152	1	3
662.491	1	11
662.829	1	11
663.168	1	1
663.507	1	1
663.846	1	8
664.185	1	-13
664.524	1	1
664.863	1	-6
665.202	1	2
665.541	1	-1
665.879	1	4
666.218	1	4
666.557	1	-1
666.896	1	5
667.235	1	11
667.574	1	22
667.913	1	10
668.251	1	5
668.590	1	2
668.929	1	9
669.268	1	-6
669.607	1	1
669.946	1	8
670.285	1	2
670.623	1	14
670.962	1	-1
671.301	1	0
671.640	1	-3
671.979	1	8
672.317	1	-2
672.656	1	1
672.995	1	0
673.334	1	2
673.673	1	15
674.011	1	7
674.350	1	-1
674.689	1	16
675.028	1	9
675.367	1	4
675.705	1	6
676.044	1	9
676.383	1	3
676.722	1	-3
677.060	1	7
677.399	1	1
677.738	1	-3
678.077	1	2
678.416	1	0
678.754	1	4
679.093	1	1
679.432	1	11
679.771	1	8
680.109	1	14
680.448	1	6
680.787	1	12
681.125	1	9
681.464	1	3
681.803	1	-2
682.142	1	2
682.480	1	11
682.819	1	9
683.158	1	-1
683.496	1	-2
683.835	1	-6
684.174	1	13
684.512	1	13
684.851	1	-7
685.190	1	-3
685.529	1	-2
685.867	1	4
686.206	1	6
686.545	1	-3
686.883	1	4
687.222	1	6
687.561	1	9
687.899	1	2
688.238	1	11
688.577	1	-2
688.746	1	-8