File: Data/GaN_130K_350ms/GaN_sample F_spot6_UVVIS_130 K_200um_350 ms 2x2mm1_132.txt
340.368	1	-1
340.710	1	11
341.052	1	-3
341.394	1	-5
341.737	1	4
342.079	1	5
342.421	1	3
342.763	1	7
343.105	1	-2
343.447	1	4
343.789	1	11
344.131	1	4
344.473	1	4
344.815	1	-4
345.157	1	-9
345.499	1	0
345.841	1	-7
346.183	1	11
346.526	1	-4
346.868	1	0
347.210	1	10
347.552	1	5
347.894	1	3
348.236	1	4
348.578	1	7
348.920	1	6
349.262	1	7
349.604	1	-3
349.946	1	11
350.288	1	-2
350.630	1	10
350.972	1	19
351.314	1	1
351.656	1	19
351.998	1	5
352.340	1	13
352.682	1	0
353.024	1	6
353.366	1	14
353.708	1	4
354.050	1	9
354.392	1	13
354.734	1	-1
355.076	1	6
355.418	1	11
355.760	1	8
356.102	1	0
356.444	1	-6
356.785	1	12
357.127	1	11
357.469	1	14
357.811	1	6
358.153	1	-2
358.495	1	16
358.837	1	7
359.179	1	9
359.521	1	5
359.863	1	13
360.205	1	11
360.547	1	6
360.889	1	16
361.231	1	20
361.572	1	20
361.914	1	13
362.256	1	20
362.598	1	24
362.940	1	15
363.282	1	32
363.624	1	33
363.966	1	41
364.308	1	39
364.649	1	30
364.991	1	43
365.333	1	28
365.675	1	45
366.017	1	52
366.359	1	50
366.701	1	57
367.042	1	49
367.384	1	61
367.726	1	55
368.068	1	63
368.410	1	59
368.752	1	56
369.093	1	51
369.435	1	50
369.777	1	51
370.119	1	53
370.461	1	54
370.803	1	45
371.144	1	51
371.486	1	48
371.828	1	46
372.170	1	30
372.512	1	34
372.853	1	30
373.195	1	31
373.537	1	35
373.879	1	37
374.220	1	33
374.562	1	25
374.904	1	32
375.246	1	33
375.588	1	25
375.929	1	12
376.271	1	24
376.613	1	10
376.955	1	26
377.296	1	23
377.638	1	11
377.980	1	12
378.321	1	17
378.663	1	18
379.005	1	34
379.347	1	19
379.688	1	11
380.030	1	13
380.372	1	30
380.714	1	33
381.055	1	14
381.397	1	20
381.739	1	21
382.080	1	8
382.422	1	16
382.764	1	7
383.105	1	19
383.447	1	21
383.789	1	17
384.130	1	26
384.472	1	20
384.814	1	4
385.156	1	14
385.497	1	20
385.839	1	12
386.180	1	25
386.522	1	10
386.864	1	17
387.205	1	10
387.547	1	26
387.889	1	9
388.230	1	12
388.572	1	15
388.914	1	11
389.255	1	5
389.597	1	-3
389.939	1	21
390.280	1	22
390.622	1	17
390.963	1	17
391.305	1	17
391.647	1	13
391.988	1	13
392.330	1	7
392.671	1	8
393.013	1	16
393.355	1	17
393.696	1	11
394.038	1	19
394.379	1	18
394.721	1	13
395.062	1	10
395.404	1	-2
395.746	1	16
396.087	1	22
396.429	1	14
396.770	1	15
397.112	1	15
397.453	1	14
397.795	1	-3
398.136	1	6
398.478	1	9
398.819	1	-4
399.161	1	14
399.503	1	27
399.844	1	8
400.186	1	2
400.527	1	16
400.869	1	9
401.210	1	3
401.552	1	21
401.893	1	-7
402.235	1	14
402.576	1	13
402.918	1	0
403.259	1	8
403.601	1	19
403.942	1	7
404.284	1	11
404.625	1	13
404.967	1	8
405.308	1	0
405.649	1	11
405.991	1	8
406.332	1	15
406.674	1	11
407.015	1	13
407.357	1	14
407.698	1	6
408.040	1	13
408.381	1	15
408.722	1	11
409.064	1	18
409.405	1	14
409.747	1	7
410.088	1	14
410.430	1	16
410.771	1	-4
411.112	1	12
411.454	1	8
411.795	1	16
412.137	1	7
412.478	1	16
412.819	1	14
413.161	1	7
413.502	1	19
413.844	1	7
414.185	1	11
414.526	1	9
414.868	1	4
415.209	1	0
415.550	1	0
415.892	1	3
416.233	1	10
416.575	1	9
416.916	1	8
417.257	1	5
417.599	1	4
417.940	1	17
418.281	1	-2
418.623	1	18
418.964	1	8
419.305	1	0
419.647	1	5
419.988	1	13
420.329	1	16
420.671	1	4
421.012	1	12
421.353	1	0
421.695	1	5
422.036	1	5
422.377	1	3
422.718	1	-1
423.060	1	7
423.401	1	13
423.742	1	6
424.084	1	12
424.425	1	9
424.766	1	3
425.107	1	7
425.449	1	8
425.790	1	19
426.131	1	16
426.472	1	7
426.814	1	11
427.155	1	1
427.496	1	13
427.837	1	14
428.179	1	10
428.520	1	20
428.861	1	1
429.202	1	5
429.544	1	14
429.885	1	6
430.226	1	4
430.567	1	9
430.909	1	8
431.250	1	16
431.591	1	6
431.932	1	2
432.273	1	12
432.615	1	23
432.956	1	-3
433.297	1	13
433.638	1	2
433.979	1	12
434.320	1	6
434.662	1	1
435.003	1	16
435.344	1	5
435.685	1	-7
436.026	1	8
436.368	1	6
436.709	1	-7
437.050	1	12
437.391	1	18
437.732	1	11
438.073	1	22
438.414	1	-3
438.756	1	5
439.097	1	12
439.438	1	5
439.779	1	13
440.120	1	3
440.461	1	21
440.802	1	-5
441.143	1	6
441.485	1	7
441.826	1	5
442.167	1	14
442.508	1	5
442.849	1	6
443.190	1	-2
443.531	1	0
443.872	1	18
444.213	1	2
444.554	1	11
444.895	1	-2
445.237	1	3
445.578	1	-1
445.919	1	-1
446.260	1	-3
446.601	1	17
446.942	1	5
447.283	1	9
447.624	1	7
447.965	1	6
448.306	1	3
448.647	1	8
448.988	1	11
449.329	1	-2
449.670	1	7
450.011	1	-6
450.352	1	5
450.693	1	8
451.034	1	1
451.375	1	10
451.716	1	1
452.057	1	16
452.398	1	-3
452.739	1	11
453.080	1	2
453.421	1	9
453.762	1	12
454.103	1	8
454.444	1	5
454.785	1	17
455.126	1	1
455.467	1	6
455.808	1	16
456.149	1	-4
456.490	1	14
456.831	1	4
457.172	1	-1
457.513	1	-5
457.854	1	6
458.195	1	-11
458.536	1	5
458.877	1	29
459.218	1	5
459.559	1	2
459.899	1	2
460.240	1	16
460.581	1	-8
460.922	1	1
461.263	1	12
461.604	1	-8
461.945	1	9
462.286	1	10
462.627	1	4
462.968	1	8
463.309	1	3
463.649	1	-2
463.990	1	5
464.331	1	9
464.672	1	5
465.013	1	-1
465.354	1	0
465.695	1	9
466.036	1	2
466.376	1	7
466.717	1	8
467.058	1	7
467.399	1	1
467.740	1	17
468.081	1	9
468.422	1	7
468.762	1	0
469.103	1	7
469.444	1	3
469.785	1	9
470.126	1	-6
470.467	1	4
470.807	1	6
471.148	1	8
471.489	1	1
471.830	1	3
472.171	1	9
472.511	1	11
472.852	1	15
473.193	1	0
473.534	1	-4
473.875	1	22
474.215	1	8
474.556	1	8
474.897	1	9
475.238	1	19
475.578	1	6
475.919	1	2
476.260	1	10
476.601	1	-2
476.942	1	8
477.282	1	2
477.623	1	0
477.964	1	3
478.305	1	17
478.645	1	1
478.986	1	2
479.327	1	9
479.667	1	10
480.008	1	-1
480.349	1	-1
480.690	1	11
481.030	1	1
481.371	1	13
481.712	1	1
482.053	1	3
482.393	1	14
482.734	1	10
483.075	1	5
483.415	1	10
483.756	1	3
484.097	1	-1
484.437	1	3
484.778	1	14
485.119	1	16
485.459	1	-10
485.800	1	15
486.141	1	6
486.481	1	-3
486.822	1	15
487.163	1	9
487.503	1	-8
487.844	1	4
488.185	1	12
488.525	1	9
488.866	1	11
489.207	1	8
489.547	1	8
489.888	1	18
490.228	1	5
490.569	1	7
490.910	1	2
491.250	1	16
491.591	1	-2
491.932	1	9
492.272	1	1
492.613	1	0
492.953	1	-2
493.294	1	17
493.635	1	5
493.975	1	21
494.316	1	1
494.656	1	10
494.997	1	-2
495.337	1	7
495.678	1	14
496.019	1	2
496.359	1	15
496.700	1	12
497.040	1	23
497.381	1	7
497.721	1	8
498.062	1	-2
498.403	1	8
498.743	1	18
499.084	1	19
499.424	1	-2
499.765	1	6
500.105	1	10
500.446	1	9
500.786	1	26
501.127	1	9
501.467	1	17
501.808	1	10
502.148	1	16
502.489	1	21
502.829	1	0
503.170	1	15
503.510	1	11
503.851	1	11
504.191	1	15
504.532	1	8
504.872	1	17
505.213	1	17
505.553	1	18
505.894	1	11
506.234	1	13
506.575	1	15
506.915	1	10
507.256	1	20
507.596	1	15
507.936	1	10
508.277	1	10
508.617	1	1
508.958	1	21
509.298	1	13
509.639	1	19
509.979	1	8
510.319	1	26
510.660	1	11
511.000	1	21
511.341	1	17
511.681	1	25
512.022	1	13
512.362	1	10
512.702	1	24
513.043	1	21
513.383	1	18
513.724	1	2
514.064	1	14
514.404	1	25
514.745	1	12
515.085	1	16
515.425	1	24
515.766	1	20
516.106	1	14
516.447	1	16
516.787	1	15
517.127	1	22
517.468	1	17
517.808	1	9
518.148	1	21
518.489	1	22
518.829	1	24
519.169	1	24
519.510	1	17
519.850	1	22
520.190	1	31
520.531	1	17
520.871	1	11
521.211	1	19
521.552	1	17
521.892	1	20
522.232	1	10
522.573	1	14
522.913	1	17
523.253	1	19
523.593	1	31
523.934	1	17
524.274	1	13
524.614	1	31
524.955	1	24
525.295	1	10
525.635	1	17
525.975	1	30
526.316	1	13
526.656	1	26
526.996	1	17
527.337	1	27
527.677	1	9
528.017	1	16
528.357	1	27
528.698	1	16
529.038	1	24
529.378	1	15
529.718	1	27
530.058	1	13
530.399	1	16
530.739	1	29
531.079	1	15
531.419	1	27
531.760	1	23
532.100	1	20
532.440	1	21
532.780	1	16
533.120	1	27
533.461	1	15
533.801	1	32
534.141	1	13
534.481	1	25
534.821	1	26
535.162	1	20
535.502	1	23
535.842	1	18
536.182	1	15
536.522	1	5
536.862	1	18
537.203	1	14
537.543	1	17
537.883	1	12
538.223	1	21
538.563	1	31
538.903	1	25
539.243	1	20
539.584	1	22
539.924	1	26
540.264	1	10
540.604	1	26
540.944	1	20
541.284	1	11
541.624	1	23
541.964	1	16
542.305	1	16
542.645	1	18
542.985	1	13
543.325	1	18
543.665	1	17
544.005	1	29
544.345	1	9
544.685	1	14
545.025	1	9
545.365	1	27
545.705	1	17
546.045	1	23
546.386	1	5
546.726	1	14
547.066	1	10
547.406	1	9
547.746	1	20
548.086	1	12
548.426	1	17
548.766	1	23
549.106	1	9
549.446	1	13
549.786	1	15
550.126	1	24
550.466	1	20
550.806	1	30
551.146	1	11
551.486	1	14
551.826	1	11
552.166	1	19
552.506	1	15
552.846	1	10
553.186	1	12
553.526	1	15
553.866	1	9
554.206	1	10
554.546	1	22
554.886	1	8
555.226	1	12
555.566	1	7
555.906	1	24
556.246	1	1
556.586	1	18
556.926	1	7
557.266	1	18
557.606	1	18
557.946	1	16
558.286	1	21
558.626	1	3
558.966	1	12
559.306	1	15
559.646	1	15
559.986	1	17
560.325	1	1
560.665	1	24
561.005	1	9
561.345	1	21
561.685	1	24
562.025	1	3
562.365	1	18
562.705	1	15
563.045	1	6
563.385	1	17
563.725	1	8
564.064	1	9
564.404	1	2
564.744	1	12
565.084	1	8
565.424	1	0
565.764	1	12
566.104	1	7
566.444	1	22
566.783	1	17
567.123	1	1
567.463	1	16
567.803	1	16
568.143	1	23
568.483	1	10
568.823	1	-1
569.162	1	18
569.502	1	17
569.842	1	13
570.182	1	12
570.522	1	7
570.862	1	27
571.201	1	6
571.541	1	-1
571.881	1	12
572.221	1	15
572.561	1	4
572.900	1	10
573.240	1	6
573.580	1	12
573.920	1	13
574.260	1	8
574.599	1	13
574.939	1	22
575.279	1	4
575.619	1	9
575.959	1	13
576.298	1	10
576.638	1	4
576.978	1	-1
577.318	1	7
577.657	1	16
577.997	1	4
578.337	1	10
578.677	1	17
579.016	1	7
579.356	1	9
579.696	1	6
580.036	1	7
580.375	1	8
580.715	1	13
581.055	1	16
581.394	1	5
581.734	1	17
582.074	1	15
582.414	1	4
582.753	1	8
583.093	1	2
583.433	1	8
583.772	1	8
584.112	1	14
584.452	1	16
584.791	1	16
585.131	1	15
585.471	1	4
585.811	1	-3
586.150	1	16
586.490	1	9
586.830	1	1
587.169	1	10
587.509	1	7
587.849	1	6
588.188	1	17
588.528	1	10
588.867	1	15
589.207	1	-7
589.547	1	3
589.886	1	8
590.226	1	13
590.566	1	9
590.905	1	6
591.245	1	9
591.585	1	5
591.924	1	9
592.264	1	7
592.603	1	10
592.943	1	11
593.283	1	-2
593.622	1	14
593.962	1	10
594.301	1	-4
594.641	1	10
594.981	1	0
595.320	1	16
595.660	1	11
595.999	1	12
596.339	1	10
596.678	1	3
597.018	1	1
597.358	1	-4
597.697	1	0
598.037	1	4
598.376	1	9
598.716	1	4
599.055	1	2
599.395	1	-3
599.734	1	-1
600.074	1	10
600.413	1	9
600.753	1	6
601.092	1	2
601.432	1	-8
601.771	1	5
602.111	1	0
602.451	1	8
602.790	1	4
603.130	1	0
603.469	1	5
603.809	1	9
604.148	1	15
604.487	1	11
604.827	1	1
605.166	1	12
605.506	1	11
605.845	1	6
606.185	1	9
606.524	1	4
606.864	1	21
607.203	1	3
607.543	1	6
607.882	1	1
608.222	1	1
608.561	1	4
608.901	1	19
609.240	1	4
609.579	1	10
609.919	1	6
610.258	1	9
610.598	1	4
610.937	1	12
611.277	1	4
611.616	1	2
611.955	1	1
612.295	1	16
612.634	1	1
612.974	1	12
613.313	1	1
613.652	1	6
613.992	1	9
614.331	1	2
614.671	1	4
615.010	1	-4
615.349	1	-1
615.689	1	17
616.028	1	11
616.368	1	9
616.707	1	12
617.046	1	3
617.386	1	0
617.725	1	4
618.064	1	11
618.404	1	-1
618.743	1	9
619.082	1	11
619.422	1	9
619.761	1	15
620.100	1	2
620.440	1	9
620.779	1	3
621.118	1	-1
621.458	1	8
621.797	1	2
622.136	1	10
622.476	1	8
622.815	1	4
623.154	1	6
623.494	1	5
623.833	1	10
624.172	1	4
624.511	1	5
624.851	1	5
625.190	1	5
625.529	1	0
625.869	1	8
626.208	1	-10
626.547	1	9
626.886	1	4
627.226	1	0
627.565	1	4
627.904	1	13
628.243	1	4
628.583	1	-3
628.922	1	-8
629.261	1	-3
629.600	1	15
629.940	1	8
630.279	1	11
630.618	1	-3
630.957	1	10
631.297	1	-1
631.636	1	9
631.975	1	13
632.314	1	4
632.653	1	8
632.993	1	10
633.332	1	3
633.671	1	-8
634.010	1	0
634.349	1	11
634.689	1	9
635.028	1	2
635.367	1	13
635.706	1	-4
636.045	1	13
636.384	1	7
636.724	1	11
637.063	1	4
637.402	1	3
637.741	1	9
638.080	1	9
638.419	1	-3
638.759	1	6
639.098	1	-3
639.437	1	8
639.776	1	4
640.115	1	8
640.454	1	14
640.793	1	-6
641.132	1	10
641.472	1	-4
641.811	1	-2
642.150	1	-5
642.489	1	-13
642.828	1	7
643.167	1	0
643.506	1	13
643.845	1	-5
644.184	1	13
644.524	1	6
644.863	1	3
645.202	1	9
645.541	1	-6
645.880	1	8
646.219	1	9
646.558	1	6
646.897	1	0
647.236	1	2
647.575	1	-6
647.914	1	-3
648.253	1	2
648.592	1	-6
648.931	1	-9
649.270	1	4
649.610	1	-1
649.949	1	0
650.288	1	-1
650.627	1	7
650.966	1	5
651.305	1	-4
651.644	1	3
651.983	1	-11
652.322	1	8
652.661	1	-3
653.000	1	1
653.339	1	-5
653.678	1	4
654.017	1	-1
654.356	1	10
654.695	1	2
655.034	1	4
655.373	1	5
655.712	1	0
656.051	1	9
656.390	1	7
656.729	1	6
657.068	1	-6
657.406	1	8
657.745	1	0
658.084	1	0
658.423	1	11
658.762	1	16
659.101	1	9
659.440	1	-4
659.779	1	6
660.118	1	-7
660.457	1	-1
660.796	1	5
661.135	1	9
661.474	1	6
661.813	1	4
662.152	1	4
662.491	1	12
662.829	1	12
663.168	1	-4
663.507	1	3
663.846	1	-2
664.185	1	-2
664.524	1	-3
664.863	1	7
665.202	1	2
665.541	1	0
665.879	1	10
666.218	1	7
666.557	1	9
666.896	1	7
667.235	1	7
667.574	1	20
667.913	1	8
668.251	1	0
668.590	1	3
668.929	1	9
669.268	1	5
669.607	1	11
669.946	1	8
670.285	1	3
670.623	1	20
670.962	1	-5
671.301	1	4
671.640	1	-5
671.979	1	-7
672.317	1	1
672.656	1	1
672.995	1	4
673.334	1	0
673.673	1	10
674.011	1	5
674.350	1	-6
674.689	1	8
675.028	1	7
675.367	1	-6
675.705	1	12
676.044	1	8
676.383	1	8
676.722	1	4
677.060	1	0
677.399	1	0
677.738	1	-6
678.077	1	8
678.416	1	10
678.754	1	4
679.093	1	5
679.432	1	10
679.771	1	9
680.109	1	1
680.448	1	10
680.787	1	15
681.125	1	16
681.464	1	-6
681.803	1	-2
682.142	1	1
682.480	1	14
682.819	1	-2
683.158	1	4
683.496	1	0
683.835	1	-5
684.174	1	20
684.512	1	12
684.851	1	4
685.190	1	-2
685.529	1	-1
685.867	1	9
686.206	1	8
686.545	1	4
686.883	1	6
687.222	1	0
687.561	1	15
687.899	1	13
688.238	1	14
688.577	1	-7
688.746	1	10