File: Data/GaN_130K_350ms/GaN_sample F_spot6_UVVIS_130 K_200um_350 ms 2x2mm1_168.txt
340.368	1	2
340.710	1	14
341.052	1	-1
341.394	1	0
341.737	1	-1
342.079	1	2
342.421	1	0
342.763	1	9
343.105	1	4
343.447	1	5
343.789	1	2
344.131	1	3
344.473	1	1
344.815	1	-14
345.157	1	-3
345.499	1	0
345.841	1	1
346.183	1	3
346.526	1	2
346.868	1	3
347.210	1	2
347.552	1	2
347.894	1	2
348.236	1	2
348.578	1	3
348.920	1	10
349.262	1	7
349.604	1	3
349.946	1	5
350.288	1	-6
350.630	1	11
350.972	1	12
351.314	1	-3
351.656	1	8
351.998	1	3
352.340	1	8
352.682	1	0
353.024	1	-1
353.366	1	10
353.708	1	0
354.050	1	7
354.392	1	12
354.734	1	2
355.076	1	9
355.418	1	6
355.760	1	3
356.102	1	-2
356.444	1	-2
356.785	1	9
357.127	1	11
357.469	1	0
357.811	1	12
358.153	1	4
358.495	1	9
358.837	1	4
359.179	1	5
359.521	1	1
359.863	1	5
360.205	1	1
360.547	1	12
360.889	1	10
361.231	1	7
361.572	1	16
361.914	1	11
362.256	1	5
362.598	1	13
362.940	1	6
363.282	1	19
363.624	1	14
363.966	1	25
364.308	1	23
364.649	1	28
364.991	1	23
365.333	1	15
365.675	1	24
366.017	1	29
366.359	1	32
366.701	1	23
367.042	1	35
367.384	1	45
367.726	1	30
368.068	1	29
368.410	1	28
368.752	1	44
369.093	1	44
369.435	1	27
369.777	1	17
370.119	1	16
370.461	1	27
370.803	1	19
371.144	1	37
371.486	1	20
371.828	1	26
372.170	1	17
372.512	1	24
372.853	1	15
373.195	1	19
373.537	1	26
373.879	1	21
374.220	1	16
374.562	1	9
374.904	1	16
375.246	1	21
375.588	1	10
375.929	1	10
376.271	1	10
376.613	1	8
376.955	1	14
377.296	1	13
377.638	1	-8
377.980	1	5
378.321	1	5
378.663	1	10
379.005	1	27
379.347	1	5
379.688	1	4
380.030	1	0
380.372	1	20
380.714	1	21
381.055	1	9
381.397	1	14
381.739	1	15
382.080	1	10
382.422	1	23
382.764	1	4
383.105	1	9
383.447	1	4
383.789	1	7
384.130	1	10
384.472	1	10
384.814	1	4
385.156	1	0
385.497	1	5
385.839	1	17
386.180	1	16
386.522	1	9
386.864	1	17
387.205	1	3
387.547	1	9
387.889	1	11
388.230	1	7
388.572	1	18
388.914	1	4
389.255	1	6
389.597	1	-8
389.939	1	11
390.280	1	16
390.622	1	10
390.963	1	10
391.305	1	17
391.647	1	9
391.988	1	11
392.330	1	3
392.671	1	2
393.013	1	7
393.355	1	7
393.696	1	3
394.038	1	18
394.379	1	13
394.721	1	8
395.062	1	2
395.404	1	-4
395.746	1	16
396.087	1	10
396.429	1	2
396.770	1	17
397.112	1	14
397.453	1	18
397.795	1	3
398.136	1	8
398.478	1	12
398.819	1	-2
399.161	1	17
399.503	1	13
399.844	1	2
400.186	1	3
400.527	1	12
400.869	1	3
401.210	1	-1
401.552	1	17
401.893	1	-1
402.235	1	11
402.576	1	3
402.918	1	10
403.259	1	-3
403.601	1	7
403.942	1	14
404.284	1	9
404.625	1	17
404.967	1	8
405.308	1	4
405.649	1	14
405.991	1	5
406.332	1	14
406.674	1	14
407.015	1	4
407.357	1	6
407.698	1	17
408.040	1	15
408.381	1	16
408.722	1	17
409.064	1	5
409.405	1	9
409.747	1	-1
410.088	1	20
410.430	1	14
410.771	1	-11
411.112	1	15
411.454	1	-5
411.795	1	8
412.137	1	-1
412.478	1	8
412.819	1	13
413.161	1	18
413.502	1	15
413.844	1	3
414.185	1	6
414.526	1	10
414.868	1	11
415.209	1	8
415.550	1	-1
415.892	1	9
416.233	1	9
416.575	1	11
416.916	1	4
417.257	1	8
417.599	1	3
417.940	1	10
418.281	1	-3
418.623	1	9
418.964	1	5
419.305	1	4
419.647	1	13
419.988	1	20
420.329	1	18
420.671	1	1
421.012	1	8
421.353	1	5
421.695	1	3
422.036	1	6
422.377	1	11
422.718	1	0
423.060	1	13
423.401	1	7
423.742	1	2
424.084	1	7
424.425	1	15
424.766	1	10
425.107	1	6
425.449	1	15
425.790	1	13
426.131	1	15
426.472	1	10
426.814	1	15
427.155	1	4
427.496	1	6
427.837	1	16
428.179	1	9
428.520	1	13
428.861	1	-4
429.202	1	9
429.544	1	14
429.885	1	9
430.226	1	3
430.567	1	4
430.909	1	9
431.250	1	10
431.591	1	7
431.932	1	2
432.273	1	13
432.615	1	16
432.956	1	-1
433.297	1	12
433.638	1	10
433.979	1	8
434.320	1	7
434.662	1	15
435.003	1	17
435.344	1	3
435.685	1	-3
436.026	1	11
436.368	1	0
436.709	1	3
437.050	1	13
437.391	1	12
437.732	1	9
438.073	1	12
438.414	1	0
438.756	1	5
439.097	1	8
439.438	1	10
439.779	1	12
440.120	1	0
440.461	1	15
440.802	1	-7
441.143	1	3
441.485	1	12
441.826	1	8
442.167	1	-1
442.508	1	7
442.849	1	4
443.190	1	14
443.531	1	4
443.872	1	15
444.213	1	1
444.554	1	8
444.895	1	8
445.237	1	3
445.578	1	6
445.919	1	-7
446.260	1	5
446.601	1	6
446.942	1	6
447.283	1	6
447.624	1	1
447.965	1	9
448.306	1	5
448.647	1	15
448.988	1	8
449.329	1	1
449.670	1	16
450.011	1	-9
450.352	1	9
450.693	1	11
451.034	1	-5
451.375	1	8
451.716	1	-9
452.057	1	18
452.398	1	-3
452.739	1	6
453.080	1	3
453.421	1	10
453.762	1	13
454.103	1	8
454.444	1	18
454.785	1	11
455.126	1	-4
455.467	1	6
455.808	1	19
456.149	1	-4
456.490	1	5
456.831	1	11
457.172	1	1
457.513	1	1
457.854	1	0
458.195	1	-8
458.536	1	3
458.877	1	19
459.218	1	10
459.559	1	6
459.899	1	-2
460.240	1	13
460.581	1	4
460.922	1	4
461.263	1	3
461.604	1	-6
461.945	1	5
462.286	1	8
462.627	1	-2
462.968	1	6
463.309	1	8
463.649	1	5
463.990	1	6
464.331	1	9
464.672	1	1
465.013	1	-4
465.354	1	4
465.695	1	6
466.036	1	2
466.376	1	1
466.717	1	10
467.058	1	4
467.399	1	-1
467.740	1	4
468.081	1	12
468.422	1	5
468.762	1	4
469.103	1	5
469.444	1	2
469.785	1	7
470.126	1	-10
470.467	1	13
470.807	1	6
471.148	1	-6
471.489	1	-4
471.830	1	6
472.171	1	8
472.511	1	6
472.852	1	14
473.193	1	1
473.534	1	2
473.875	1	12
474.215	1	5
474.556	1	13
474.897	1	-5
475.238	1	11
475.578	1	8
475.919	1	3
476.260	1	-3
476.601	1	6
476.942	1	12
477.282	1	10
477.623	1	4
477.964	1	3
478.305	1	16
478.645	1	4
478.986	1	2
479.327	1	-7
479.667	1	2
480.008	1	-11
480.349	1	-1
480.690	1	-1
481.030	1	3
481.371	1	8
481.712	1	7
482.053	1	7
482.393	1	12
482.734	1	7
483.075	1	11
483.415	1	10
483.756	1	-1
484.097	1	3
484.437	1	0
484.778	1	17
485.119	1	15
485.459	1	0
485.800	1	8
486.141	1	6
486.481	1	-8
486.822	1	10
487.163	1	0
487.503	1	-2
487.844	1	5
488.185	1	1
488.525	1	6
488.866	1	1
489.207	1	5
489.547	1	-1
489.888	1	14
490.228	1	4
490.569	1	-2
490.910	1	-6
491.250	1	8
491.591	1	4
491.932	1	6
492.272	1	8
492.613	1	11
492.953	1	6
493.294	1	7
493.635	1	15
493.975	1	7
494.316	1	3
494.656	1	8
494.997	1	10
495.337	1	6
495.678	1	-1
496.019	1	2
496.359	1	16
496.700	1	-4
497.040	1	19
497.381	1	-2
497.721	1	5
498.062	1	1
498.403	1	4
498.743	1	13
499.084	1	9
499.424	1	0
499.765	1	-3
500.105	1	7
500.446	1	4
500.786	1	9
501.127	1	9
501.467	1	8
501.808	1	11
502.148	1	9
502.489	1	6
502.829	1	3
503.170	1	1
503.510	1	7
503.851	1	6
504.191	1	-1
504.532	1	7
504.872	1	8
505.213	1	9
505.553	1	17
505.894	1	15
506.234	1	7
506.575	1	0
506.915	1	-1
507.256	1	18
507.596	1	7
507.936	1	2
508.277	1	3
508.617	1	2
508.958	1	13
509.298	1	4
509.639	1	13
509.979	1	2
510.319	1	9
510.660	1	6
511.000	1	14
511.341	1	8
511.681	1	15
512.022	1	19
512.362	1	5
512.702	1	12
513.043	1	12
513.383	1	10
513.724	1	5
514.064	1	3
514.404	1	15
514.745	1	8
515.085	1	12
515.425	1	12
515.766	1	8
516.106	1	3
516.447	1	9
516.787	1	16
517.127	1	12
517.468	1	7
517.808	1	15
518.148	1	18
518.489	1	13
518.829	1	22
519.169	1	21
519.510	1	-2
519.850	1	19
520.190	1	17
520.531	1	14
520.871	1	6
521.211	1	13
521.552	1	5
521.892	1	11
522.232	1	3
522.573	1	7
522.913	1	16
523.253	1	12
523.593	1	18
523.934	1	9
524.274	1	7
524.614	1	15
524.955	1	10
525.295	1	9
525.635	1	12
525.975	1	21
526.316	1	12
526.656	1	8
526.996	1	9
527.337	1	13
527.677	1	12
528.017	1	11
528.357	1	16
528.698	1	-4
529.038	1	7
529.378	1	9
529.718	1	9
530.058	1	0
530.399	1	8
530.739	1	8
531.079	1	15
531.419	1	12
531.760	1	8
532.100	1	10
532.440	1	14
532.780	1	9
533.120	1	12
533.461	1	3
533.801	1	25
534.141	1	15
534.481	1	9
534.821	1	11
535.162	1	6
535.502	1	21
535.842	1	6
536.182	1	16
536.522	1	0
536.862	1	9
537.203	1	6
537.543	1	21
537.883	1	9
538.223	1	7
538.563	1	20
538.903	1	20
539.243	1	15
539.584	1	14
539.924	1	3
540.264	1	2
540.604	1	13
540.944	1	8
541.284	1	15
541.624	1	16
541.964	1	2
542.305	1	5
542.645	1	7
542.985	1	15
543.325	1	8
543.665	1	20
544.005	1	17
544.345	1	2
544.685	1	19
545.025	1	5
545.365	1	15
545.705	1	8
546.045	1	11
546.386	1	10
546.726	1	4
547.066	1	9
547.406	1	-2
547.746	1	2
548.086	1	6
548.426	1	12
548.766	1	23
549.106	1	-3
549.446	1	12
549.786	1	5
550.126	1	16
550.466	1	13
550.806	1	13
551.146	1	13
551.486	1	10
551.826	1	11
552.166	1	5
552.506	1	12
552.846	1	14
553.186	1	10
553.526	1	9
553.866	1	-5
554.206	1	14
554.546	1	14
554.886	1	10
555.226	1	19
555.566	1	7
555.906	1	1
556.246	1	11
556.586	1	2
556.926	1	8
557.266	1	12
557.606	1	5
557.946	1	13
558.286	1	15
558.626	1	-2
558.966	1	0
559.306	1	11
559.646	1	9
559.986	1	17
560.325	1	3
560.665	1	11
561.005	1	15
561.345	1	12
561.685	1	9
562.025	1	10
562.365	1	15
562.705	1	4
563.045	1	9
563.385	1	13
563.725	1	4
564.064	1	15
564.404	1	13
564.744	1	2
565.084	1	9
565.424	1	-3
565.764	1	11
566.104	1	2
566.444	1	16
566.783	1	10
567.123	1	5
567.463	1	4
567.803	1	19
568.143	1	22
568.483	1	-3
568.823	1	3
569.162	1	20
569.502	1	8
569.842	1	2
570.182	1	-4
570.522	1	-6
570.862	1	23
571.201	1	1
571.541	1	6
571.881	1	12
572.221	1	7
572.561	1	8
572.900	1	6
573.240	1	-2
573.580	1	2
573.920	1	12
574.260	1	9
574.599	1	15
574.939	1	6
575.279	1	1
575.619	1	15
575.959	1	7
576.298	1	8
576.638	1	5
576.978	1	-2
577.318	1	12
577.657	1	22
577.997	1	10
578.337	1	1
578.677	1	14
579.016	1	-5
579.356	1	16
579.696	1	3
580.036	1	-5
580.375	1	-1
580.715	1	3
581.055	1	7
581.394	1	7
581.734	1	8
582.074	1	-1
582.414	1	-4
582.753	1	8
583.093	1	9
583.433	1	6
583.772	1	2
584.112	1	16
584.452	1	14
584.791	1	0
585.131	1	17
585.471	1	6
585.811	1	2
586.150	1	5
586.490	1	2
586.830	1	1
587.169	1	12
587.509	1	8
587.849	1	9
588.188	1	5
588.528	1	12
588.867	1	2
589.207	1	-1
589.547	1	2
589.886	1	5
590.226	1	5
590.566	1	12
590.905	1	9
591.245	1	4
591.585	1	5
591.924	1	11
592.264	1	6
592.603	1	-3
592.943	1	-2
593.283	1	-4
593.622	1	13
593.962	1	16
594.301	1	-10
594.641	1	3
594.981	1	-1
595.320	1	8
595.660	1	6
595.999	1	9
596.339	1	6
596.678	1	3
597.018	1	11
597.358	1	3
597.697	1	9
598.037	1	8
598.376	1	-2
598.716	1	6
599.055	1	10
599.395	1	0
599.734	1	10
600.074	1	6
600.413	1	10
600.753	1	1
601.092	1	5
601.432	1	-5
601.771	1	8
602.111	1	-2
602.451	1	1
602.790	1	-2
603.130	1	11
603.469	1	4
603.809	1	7
604.148	1	11
604.487	1	15
604.827	1	-1
605.166	1	11
605.506	1	8
605.845	1	4
606.185	1	5
606.524	1	10
606.864	1	22
607.203	1	-1
607.543	1	11
607.882	1	11
608.222	1	6
608.561	1	-6
608.901	1	9
609.240	1	-5
609.579	1	17
609.919	1	12
610.258	1	1
610.598	1	6
610.937	1	9
611.277	1	10
611.616	1	5
611.955	1	-2
612.295	1	10
612.634	1	2
612.974	1	3
613.313	1	3
613.652	1	-5
613.992	1	-3
614.331	1	1
614.671	1	5
615.010	1	-3
615.349	1	-1
615.689	1	5
616.028	1	18
616.368	1	14
616.707	1	19
617.046	1	2
617.386	1	7
617.725	1	9
618.064	1	-1
618.404	1	9
618.743	1	6
619.082	1	6
619.422	1	7
619.761	1	10
620.100	1	-2
620.440	1	2
620.779	1	-1
621.118	1	10
621.458	1	7
621.797	1	2
622.136	1	6
622.476	1	9
622.815	1	-1
623.154	1	7
623.494	1	4
623.833	1	10
624.172	1	1
624.511	1	6
624.851	1	-10
625.190	1	3
625.529	1	7
625.869	1	2
626.208	1	9
626.547	1	5
626.886	1	0
627.226	1	4
627.565	1	6
627.904	1	7
628.243	1	5
628.583	1	-4
628.922	1	-2
629.261	1	-9
629.600	1	2
629.940	1	12
630.279	1	12
630.618	1	-1
630.957	1	3
631.297	1	0
631.636	1	7
631.975	1	11
632.314	1	-1
632.653	1	-1
632.993	1	8
633.332	1	-5
633.671	1	1
634.010	1	1
634.349	1	8
634.689	1	12
635.028	1	14
635.367	1	1
635.706	1	-3
636.045	1	10
636.384	1	10
636.724	1	16
637.063	1	1
637.402	1	4
637.741	1	5
638.080	1	12
638.419	1	4
638.759	1	5
639.098	1	-5
639.437	1	12
639.776	1	6
640.115	1	11
640.454	1	6
640.793	1	-13
641.132	1	4
641.472	1	-3
641.811	1	4
642.150	1	-11
642.489	1	-4
642.828	1	6
643.167	1	0
643.506	1	5
643.845	1	-2
644.184	1	-4
644.524	1	10
644.863	1	-1
645.202	1	4
645.541	1	6
645.880	1	4
646.219	1	6
646.558	1	-1
646.897	1	6
647.236	1	-1
647.575	1	-6
647.914	1	-7
648.253	1	4
648.592	1	2
648.931	1	-4
649.270	1	-3
649.610	1	-2
649.949	1	8
650.288	1	6
650.627	1	-2
650.966	1	-2
651.305	1	2
651.644	1	5
651.983	1	-9
652.322	1	0
652.661	1	0
653.000	1	10
653.339	1	9
653.678	1	0
654.017	1	2
654.356	1	7
654.695	1	4
655.034	1	6
655.373	1	0
655.712	1	14
656.051	1	3
656.390	1	-3
656.729	1	10
657.068	1	2
657.406	1	13
657.745	1	-6
658.084	1	4
658.423	1	6
658.762	1	14
659.101	1	8
659.440	1	-2
659.779	1	-2
660.118	1	1
660.457	1	4
660.796	1	6
661.135	1	16
661.474	1	16
661.813	1	-4
662.152	1	-3
662.491	1	22
662.829	1	17
663.168	1	-4
663.507	1	4
663.846	1	9
664.185	1	2
664.524	1	0
664.863	1	-3
665.202	1	-3
665.541	1	2
665.879	1	1
666.218	1	11
666.557	1	5
666.896	1	13
667.235	1	16
667.574	1	16
667.913	1	4
668.251	1	9
668.590	1	7
668.929	1	7
669.268	1	-1
669.607	1	-1
669.946	1	6
670.285	1	-1
670.623	1	20
670.962	1	-5
671.301	1	-2
671.640	1	-8
671.979	1	6
672.317	1	7
672.656	1	0
672.995	1	8
673.334	1	4
673.673	1	13
674.011	1	5
674.350	1	0
674.689	1	6
675.028	1	10
675.367	1	-8
675.705	1	11
676.044	1	9
676.383	1	3
676.722	1	3
677.060	1	5
677.399	1	-3
677.738	1	-3
678.077	1	1
678.416	1	14
678.754	1	8
679.093	1	1
679.432	1	6
679.771	1	2
680.109	1	6
680.448	1	10
680.787	1	11
681.125	1	6
681.464	1	4
681.803	1	-4
682.142	1	-8
682.480	1	6
682.819	1	12
683.158	1	3
683.496	1	1
683.835	1	0
684.174	1	15
684.512	1	13
684.851	1	4
685.190	1	4
685.529	1	4
685.867	1	-4
686.206	1	11
686.545	1	5
686.883	1	-4
687.222	1	-3
687.561	1	10
687.899	1	-3
688.238	1	9
688.577	1	0
688.746	1	5