File: Data/GaN_130K_350ms/GaN_sample F_spot6_UVVIS_130 K_200um_350 ms 2x2mm1_267.txt
340.368	1	0
340.710	1	1
341.052	1	-3
341.394	1	5
341.737	1	0
342.079	1	0
342.421	1	3
342.763	1	8
343.105	1	7
343.447	1	11
343.789	1	2
344.131	1	8
344.473	1	6
344.815	1	-6
345.157	1	-14
345.499	1	-3
345.841	1	-2
346.183	1	9
346.526	1	-6
346.868	1	-5
347.210	1	1
347.552	1	5
347.894	1	-2
348.236	1	-5
348.578	1	-5
348.920	1	-1
349.262	1	7
349.604	1	0
349.946	1	2
350.288	1	-7
350.630	1	5
350.972	1	13
351.314	1	-1
351.656	1	10
351.998	1	-3
352.340	1	14
352.682	1	-4
353.024	1	5
353.366	1	8
353.708	1	2
354.050	1	7
354.392	1	6
354.734	1	1
355.076	1	-1
355.418	1	10
355.760	1	2
356.102	1	-2
356.444	1	-1
356.785	1	4
357.127	1	16
357.469	1	3
357.811	1	3
358.153	1	-3
358.495	1	8
358.837	1	2
359.179	1	-2
359.521	1	5
359.863	1	-7
360.205	1	5
360.547	1	6
360.889	1	3
361.231	1	-4
361.572	1	4
361.914	1	6
362.256	1	1
362.598	1	9
362.940	1	2
363.282	1	2
363.624	1	20
363.966	1	15
364.308	1	9
364.649	1	0
364.991	1	21
365.333	1	-3
365.675	1	13
366.017	1	23
366.359	1	2
366.701	1	7
367.042	1	19
367.384	1	8
367.726	1	7
368.068	1	3
368.410	1	15
368.752	1	17
369.093	1	14
369.435	1	-2
369.777	1	6
370.119	1	10
370.461	1	16
370.803	1	6
371.144	1	8
371.486	1	8
371.828	1	4
372.170	1	12
372.512	1	9
372.853	1	-10
373.195	1	7
373.537	1	10
373.879	1	14
374.220	1	1
374.562	1	-6
374.904	1	10
375.246	1	9
375.588	1	12
375.929	1	3
376.271	1	15
376.613	1	0
376.955	1	1
377.296	1	1
377.638	1	-3
377.980	1	-7
378.321	1	8
378.663	1	7
379.005	1	12
379.347	1	-1
379.688	1	6
380.030	1	1
380.372	1	12
380.714	1	12
381.055	1	7
381.397	1	6
381.739	1	12
382.080	1	-5
382.422	1	9
382.764	1	7
383.105	1	4
383.447	1	2
383.789	1	6
384.130	1	1
384.472	1	8
384.814	1	-3
385.156	1	2
385.497	1	1
385.839	1	9
386.180	1	10
386.522	1	1
386.864	1	7
387.205	1	-8
387.547	1	1
387.889	1	-8
388.230	1	7
388.572	1	12
388.914	1	3
389.255	1	-5
389.597	1	-8
389.939	1	2
390.280	1	12
390.622	1	4
390.963	1	3
391.305	1	7
391.647	1	5
391.988	1	8
392.330	1	-5
392.671	1	1
393.013	1	6
393.355	1	-1
393.696	1	-4
394.038	1	9
394.379	1	12
394.721	1	5
395.062	1	1
395.404	1	-7
395.746	1	4
396.087	1	14
396.429	1	1
396.770	1	8
397.112	1	0
397.453	1	8
397.795	1	-2
398.136	1	4
398.478	1	3
398.819	1	-9
399.161	1	8
399.503	1	7
399.844	1	-6
400.186	1	1
400.527	1	9
400.869	1	-3
401.210	1	0
401.552	1	7
401.893	1	-8
402.235	1	2
402.576	1	7
402.918	1	11
403.259	1	-3
403.601	1	9
403.942	1	5
404.284	1	0
404.625	1	12
404.967	1	-6
405.308	1	5
405.649	1	5
405.991	1	4
406.332	1	9
406.674	1	10
407.015	1	4
407.357	1	0
407.698	1	1
408.040	1	7
408.381	1	18
408.722	1	12
409.064	1	1
409.405	1	9
409.747	1	4
410.088	1	15
410.430	1	13
410.771	1	-4
411.112	1	3
411.454	1	7
411.795	1	10
412.137	1	-1
412.478	1	1
412.819	1	4
413.161	1	11
413.502	1	8
413.844	1	4
414.185	1	10
414.526	1	1
414.868	1	4
415.209	1	0
415.550	1	-2
415.892	1	9
416.233	1	14
416.575	1	9
416.916	1	10
417.257	1	4
417.599	1	5
417.940	1	13
418.281	1	1
418.623	1	5
418.964	1	2
419.305	1	3
419.647	1	10
419.988	1	12
420.329	1	14
420.671	1	2
421.012	1	-4
421.353	1	-3
421.695	1	4
422.036	1	3
422.377	1	6
422.718	1	7
423.060	1	10
423.401	1	2
423.742	1	4
424.084	1	0
424.425	1	10
424.766	1	7
425.107	1	8
425.449	1	7
425.790	1	5
426.131	1	13
426.472	1	5
426.814	1	6
427.155	1	0
427.496	1	9
427.837	1	12
428.179	1	2
428.520	1	6
428.861	1	10
429.202	1	17
429.544	1	14
429.885	1	3
430.226	1	-3
430.567	1	10
430.909	1	4
431.250	1	6
431.591	1	3
431.932	1	-1
432.273	1	13
432.615	1	17
432.956	1	-6
433.297	1	17
433.638	1	4
433.979	1	-1
434.320	1	1
434.662	1	2
435.003	1	10
435.344	1	2
435.685	1	-11
436.026	1	8
436.368	1	3
436.709	1	4
437.050	1	11
437.391	1	12
437.732	1	5
438.073	1	17
438.414	1	-2
438.756	1	0
439.097	1	4
439.438	1	3
439.779	1	12
440.120	1	6
440.461	1	2
440.802	1	-3
441.143	1	-2
441.485	1	13
441.826	1	3
442.167	1	8
442.508	1	0
442.849	1	5
443.190	1	4
443.531	1	7
443.872	1	4
444.213	1	3
444.554	1	8
444.895	1	-1
445.237	1	4
445.578	1	6
445.919	1	-3
446.260	1	-1
446.601	1	8
446.942	1	9
447.283	1	3
447.624	1	9
447.965	1	6
448.306	1	5
448.647	1	19
448.988	1	6
449.329	1	2
449.670	1	5
450.011	1	0
450.352	1	8
450.693	1	-2
451.034	1	-7
451.375	1	4
451.716	1	3
452.057	1	9
452.398	1	-9
452.739	1	7
453.080	1	2
453.421	1	-2
453.762	1	6
454.103	1	1
454.444	1	8
454.785	1	8
455.126	1	-4
455.467	1	-5
455.808	1	4
456.149	1	-1
456.490	1	18
456.831	1	-6
457.172	1	4
457.513	1	1
457.854	1	9
458.195	1	-3
458.536	1	11
458.877	1	23
459.218	1	5
459.559	1	7
459.899	1	7
460.240	1	11
460.581	1	-5
460.922	1	7
461.263	1	6
461.604	1	-16
461.945	1	8
462.286	1	-3
462.627	1	-3
462.968	1	-1
463.309	1	14
463.649	1	-4
463.990	1	6
464.331	1	12
464.672	1	9
465.013	1	-9
465.354	1	4
465.695	1	11
466.036	1	2
466.376	1	-5
466.717	1	12
467.058	1	14
467.399	1	-2
467.740	1	17
468.081	1	11
468.422	1	7
468.762	1	2
469.103	1	2
469.444	1	4
469.785	1	4
470.126	1	-8
470.467	1	-1
470.807	1	9
471.148	1	6
471.489	1	4
471.830	1	8
472.171	1	6
472.511	1	5
472.852	1	5
473.193	1	11
473.534	1	9
473.875	1	7
474.215	1	2
474.556	1	12
474.897	1	-6
475.238	1	15
475.578	1	-2
475.919	1	-7
476.260	1	6
476.601	1	0
476.942	1	1
477.282	1	7
477.623	1	-3
477.964	1	-5
478.305	1	9
478.645	1	-1
478.986	1	6
479.327	1	-1
479.667	1	9
480.008	1	-13
480.349	1	2
480.690	1	1
481.030	1	2
481.371	1	2
481.712	1	-2
482.053	1	6
482.393	1	8
482.734	1	4
483.075	1	17
483.415	1	-4
483.756	1	-7
484.097	1	3
484.437	1	2
484.778	1	12
485.119	1	4
485.459	1	-10
485.800	1	0
486.141	1	0
486.481	1	-5
486.822	1	12
487.163	1	-7
487.503	1	-6
487.844	1	0
488.185	1	7
488.525	1	6
488.866	1	6
489.207	1	-3
489.547	1	6
489.888	1	-1
490.228	1	3
490.569	1	7
490.910	1	1
491.250	1	9
491.591	1	-1
491.932	1	1
492.272	1	7
492.613	1	-8
492.953	1	10
493.294	1	4
493.635	1	2
493.975	1	15
494.316	1	0
494.656	1	-1
494.997	1	-2
495.337	1	2
495.678	1	2
496.019	1	0
496.359	1	8
496.700	1	1
497.040	1	21
497.381	1	11
497.721	1	4
498.062	1	-6
498.403	1	-3
498.743	1	12
499.084	1	13
499.424	1	5
499.765	1	-2
500.105	1	3
500.446	1	9
500.786	1	9
501.127	1	5
501.467	1	0
501.808	1	-1
502.148	1	13
502.489	1	4
502.829	1	3
503.170	1	-4
503.510	1	-4
503.851	1	-1
504.191	1	5
504.532	1	6
504.872	1	-1
505.213	1	10
505.553	1	7
505.894	1	3
506.234	1	4
506.575	1	3
506.915	1	-5
507.256	1	10
507.596	1	5
507.936	1	-8
508.277	1	0
508.617	1	-6
508.958	1	7
509.298	1	-1
509.639	1	11
509.979	1	-5
510.319	1	15
510.660	1	-2
511.000	1	10
511.341	1	-5
511.681	1	4
512.022	1	1
512.362	1	-3
512.702	1	11
513.043	1	3
513.383	1	10
513.724	1	-6
514.064	1	5
514.404	1	9
514.745	1	2
515.085	1	6
515.425	1	-1
515.766	1	7
516.106	1	3
516.447	1	1
516.787	1	-1
517.127	1	3
517.468	1	8
517.808	1	7
518.148	1	9
518.489	1	5
518.829	1	7
519.169	1	5
519.510	1	-1
519.850	1	6
520.190	1	6
520.531	1	8
520.871	1	-2
521.211	1	9
521.552	1	10
521.892	1	13
522.232	1	-6
522.573	1	2
522.913	1	8
523.253	1	7
523.593	1	5
523.934	1	2
524.274	1	-6
524.614	1	12
524.955	1	11
525.295	1	5
525.635	1	8
525.975	1	6
526.316	1	0
526.656	1	7
526.996	1	1
527.337	1	8
527.677	1	-3
528.017	1	6
528.357	1	1
528.698	1	-1
529.038	1	2
529.378	1	4
529.718	1	24
530.058	1	-6
530.399	1	8
530.739	1	3
531.079	1	12
531.419	1	1
531.760	1	-2
532.100	1	13
532.440	1	10
532.780	1	0
533.120	1	10
533.461	1	4
533.801	1	24
534.141	1	1
534.481	1	3
534.821	1	21
535.162	1	6
535.502	1	6
535.842	1	4
536.182	1	-2
536.522	1	1
536.862	1	-1
537.203	1	4
537.543	1	-2
537.883	1	12
538.223	1	2
538.563	1	12
538.903	1	8
539.243	1	7
539.584	1	8
539.924	1	0
540.264	1	3
540.604	1	12
540.944	1	6
541.284	1	11
541.624	1	12
541.964	1	-6
542.305	1	1
542.645	1	-2
542.985	1	5
543.325	1	13
543.665	1	14
544.005	1	1
544.345	1	5
544.685	1	13
545.025	1	-3
545.365	1	19
545.705	1	3
546.045	1	9
546.386	1	8
546.726	1	5
547.066	1	8
547.406	1	-8
547.746	1	-2
548.086	1	-6
548.426	1	0
548.766	1	1
549.106	1	-9
549.446	1	-2
549.786	1	9
550.126	1	12
550.466	1	9
550.806	1	10
551.146	1	-5
551.486	1	5
551.826	1	-2
552.166	1	4
552.506	1	3
552.846	1	-6
553.186	1	9
553.526	1	7
553.866	1	3
554.206	1	7
554.546	1	5
554.886	1	3
555.226	1	0
555.566	1	-7
555.906	1	3
556.246	1	7
556.586	1	2
556.926	1	8
557.266	1	7
557.606	1	2
557.946	1	11
558.286	1	6
558.626	1	-7
558.966	1	-5
559.306	1	4
559.646	1	4
559.986	1	4
560.325	1	6
560.665	1	11
561.005	1	3
561.345	1	7
561.685	1	9
562.025	1	3
562.365	1	10
562.705	1	6
563.045	1	-1
563.385	1	2
563.725	1	3
564.064	1	7
564.404	1	11
564.744	1	-3
565.084	1	-3
565.424	1	-3
565.764	1	5
566.104	1	-2
566.444	1	12
566.783	1	2
567.123	1	6
567.463	1	1
567.803	1	12
568.143	1	5
568.483	1	8
568.823	1	-10
569.162	1	2
569.502	1	5
569.842	1	-1
570.182	1	1
570.522	1	-7
570.862	1	23
571.201	1	0
571.541	1	2
571.881	1	4
572.221	1	8
572.561	1	7
572.900	1	5
573.240	1	-6
573.580	1	-2
573.920	1	10
574.260	1	12
574.599	1	18
574.939	1	6
575.279	1	-6
575.619	1	5
575.959	1	8
576.298	1	6
576.638	1	1
576.978	1	-1
577.318	1	7
577.657	1	6
577.997	1	1
578.337	1	6
578.677	1	14
579.016	1	-2
579.356	1	6
579.696	1	0
580.036	1	-1
580.375	1	-3
580.715	1	10
581.055	1	-6
581.394	1	4
581.734	1	5
582.074	1	1
582.414	1	-7
582.753	1	5
583.093	1	-2
583.433	1	4
583.772	1	3
584.112	1	6
584.452	1	10
584.791	1	12
585.131	1	12
585.471	1	-7
585.811	1	5
586.150	1	11
586.490	1	3
586.830	1	0
587.169	1	9
587.509	1	-3
587.849	1	5
588.188	1	9
588.528	1	3
588.867	1	0
589.207	1	2
589.547	1	-2
589.886	1	0
590.226	1	16
590.566	1	5
590.905	1	7
591.245	1	-4
591.585	1	12
591.924	1	3
592.264	1	14
592.603	1	3
592.943	1	-5
593.283	1	-5
593.622	1	3
593.962	1	8
594.301	1	-6
594.641	1	8
594.981	1	-3
595.320	1	3
595.660	1	1
595.999	1	7
596.339	1	-4
596.678	1	2
597.018	1	3
597.358	1	0
597.697	1	4
598.037	1	8
598.376	1	4
598.716	1	8
599.055	1	6
599.395	1	-7
599.734	1	-2
600.074	1	0
600.413	1	5
600.753	1	-1
601.092	1	-5
601.432	1	-7
601.771	1	4
602.111	1	6
602.451	1	0
602.790	1	-5
603.130	1	5
603.469	1	-3
603.809	1	6
604.148	1	8
604.487	1	7
604.827	1	-5
605.166	1	3
605.506	1	5
605.845	1	-2
606.185	1	7
606.524	1	1
606.864	1	9
607.203	1	-2
607.543	1	-1
607.882	1	2
608.222	1	-8
608.561	1	-2
608.901	1	5
609.240	1	-5
609.579	1	5
609.919	1	12
610.258	1	-4
610.598	1	15
610.937	1	6
611.277	1	7
611.616	1	-6
611.955	1	-6
612.295	1	10
612.634	1	6
612.974	1	10
613.313	1	2
613.652	1	-9
613.992	1	2
614.331	1	2
614.671	1	5
615.010	1	-10
615.349	1	6
615.689	1	6
616.028	1	14
616.368	1	-1
616.707	1	14
617.046	1	10
617.386	1	-3
617.725	1	6
618.064	1	2
618.404	1	0
618.743	1	17
619.082	1	3
619.422	1	-1
619.761	1	4
620.100	1	-5
620.440	1	4
620.779	1	4
621.118	1	4
621.458	1	7
621.797	1	8
622.136	1	1
622.476	1	2
622.815	1	-13
623.154	1	0
623.494	1	2
623.833	1	6
624.172	1	-1
624.511	1	9
624.851	1	-2
625.190	1	-7
625.529	1	0
625.869	1	4
626.208	1	-1
626.547	1	4
626.886	1	1
627.226	1	-3
627.565	1	2
627.904	1	-4
628.243	1	11
628.583	1	-10
628.922	1	-6
629.261	1	-9
629.600	1	-3
629.940	1	3
630.279	1	12
630.618	1	5
630.957	1	14
631.297	1	-6
631.636	1	1
631.975	1	6
632.314	1	7
632.653	1	5
632.993	1	7
633.332	1	0
633.671	1	0
634.010	1	-7
634.349	1	0
634.689	1	14
635.028	1	0
635.367	1	11
635.706	1	-3
636.045	1	20
636.384	1	6
636.724	1	9
637.063	1	4
637.402	1	-6
637.741	1	5
638.080	1	10
638.419	1	5
638.759	1	-6
639.098	1	5
639.437	1	10
639.776	1	0
640.115	1	6
640.454	1	7
640.793	1	-11
641.132	1	3
641.472	1	-1
641.811	1	-3
642.150	1	-14
642.489	1	-14
642.828	1	-5
643.167	1	7
643.506	1	13
643.845	1	-3
644.184	1	-7
644.524	1	3
644.863	1	-1
645.202	1	15
645.541	1	-4
645.880	1	1
646.219	1	5
646.558	1	4
646.897	1	1
647.236	1	5
647.575	1	-2
647.914	1	-2
648.253	1	5
648.592	1	-8
648.931	1	3
649.270	1	-4
649.610	1	5
649.949	1	4
650.288	1	3
650.627	1	-2
650.966	1	15
651.305	1	-7
651.644	1	1
651.983	1	-8
652.322	1	-1
652.661	1	0
653.000	1	3
653.339	1	7
653.678	1	2
654.017	1	-2
654.356	1	0
654.695	1	0
655.034	1	3
655.373	1	3
655.712	1	-1
656.051	1	6
656.390	1	3
656.729	1	-2
657.068	1	0
657.406	1	1
657.745	1	1
658.084	1	0
658.423	1	-6
658.762	1	7
659.101	1	4
659.440	1	-4
659.779	1	-3
660.118	1	-2
660.457	1	-4
660.796	1	-2
661.135	1	8
661.474	1	6
661.813	1	-1
662.152	1	-7
662.491	1	20
662.829	1	10
663.168	1	-1
663.507	1	7
663.846	1	-3
664.185	1	-7
664.524	1	-4
664.863	1	4
665.202	1	-3
665.541	1	-11
665.879	1	11
666.218	1	0
666.557	1	7
666.896	1	6
667.235	1	5
667.574	1	6
667.913	1	3
668.251	1	-1
668.590	1	12
668.929	1	-7
669.268	1	-3
669.607	1	-4
669.946	1	15
670.285	1	7
670.623	1	8
670.962	1	2
671.301	1	5
671.640	1	-3
671.979	1	6
672.317	1	-9
672.656	1	0
672.995	1	9
673.334	1	-7
673.673	1	7
674.011	1	-2
674.350	1	-1
674.689	1	11
675.028	1	7
675.367	1	-11
675.705	1	12
676.044	1	2
676.383	1	2
676.722	1	-2
677.060	1	-4
677.399	1	-4
677.738	1	-2
678.077	1	-4
678.416	1	2
678.754	1	2
679.093	1	-1
679.432	1	12
679.771	1	12
680.109	1	4
680.448	1	1
680.787	1	2
681.125	1	16
681.464	1	-3
681.803	1	-2
682.142	1	-10
682.480	1	4
682.819	1	-1
683.158	1	1
683.496	1	1
683.835	1	-4
684.174	1	10
684.512	1	9
684.851	1	-15
685.190	1	3
685.529	1	-3
685.867	1	3
686.206	1	5
686.545	1	-4
686.883	1	-6
687.222	1	6
687.561	1	17
687.899	1	-5
688.238	1	6
688.577	1	-3
688.746	1	-2