File: Data/GaN_130K_350ms/GaN_sample F_spot6_UVVIS_130 K_200um_350 ms 2x2mm1_254.txt
340.368	1	-3
340.710	1	10
341.052	1	-5
341.394	1	-8
341.737	1	4
342.079	1	3
342.421	1	-1
342.763	1	3
343.105	1	0
343.447	1	14
343.789	1	4
344.131	1	12
344.473	1	4
344.815	1	-16
345.157	1	-13
345.499	1	-3
345.841	1	3
346.183	1	7
346.526	1	0
346.868	1	1
347.210	1	1
347.552	1	-2
347.894	1	6
348.236	1	5
348.578	1	1
348.920	1	10
349.262	1	9
349.604	1	8
349.946	1	12
350.288	1	-7
350.630	1	10
350.972	1	5
351.314	1	5
351.656	1	9
351.998	1	-2
352.340	1	11
352.682	1	-1
353.024	1	-1
353.366	1	10
353.708	1	-6
354.050	1	13
354.392	1	8
354.734	1	7
355.076	1	-1
355.418	1	3
355.760	1	-5
356.102	1	3
356.444	1	-14
356.785	1	9
357.127	1	7
357.469	1	-3
357.811	1	4
358.153	1	-3
358.495	1	9
358.837	1	-10
359.179	1	4
359.521	1	-6
359.863	1	-5
360.205	1	1
360.547	1	-2
360.889	1	-3
361.231	1	4
361.572	1	5
361.914	1	-1
362.256	1	-1
362.598	1	0
362.940	1	-7
363.282	1	18
363.624	1	8
363.966	1	12
364.308	1	16
364.649	1	18
364.991	1	5
365.333	1	2
365.675	1	11
366.017	1	13
366.359	1	8
366.701	1	12
367.042	1	11
367.384	1	26
367.726	1	15
368.068	1	1
368.410	1	-6
368.752	1	16
369.093	1	5
369.435	1	4
369.777	1	10
370.119	1	7
370.461	1	9
370.803	1	11
371.144	1	4
371.486	1	10
371.828	1	5
372.170	1	16
372.512	1	19
372.853	1	7
373.195	1	3
373.537	1	14
373.879	1	12
374.220	1	-4
374.562	1	0
374.904	1	10
375.246	1	10
375.588	1	7
375.929	1	-6
376.271	1	6
376.613	1	4
376.955	1	12
377.296	1	3
377.638	1	-1
377.980	1	-6
378.321	1	0
378.663	1	2
379.005	1	14
379.347	1	-3
379.688	1	-8
380.030	1	5
380.372	1	5
380.714	1	13
381.055	1	2
381.397	1	4
381.739	1	11
382.080	1	1
382.422	1	9
382.764	1	7
383.105	1	4
383.447	1	7
383.789	1	9
384.130	1	8
384.472	1	11
384.814	1	-4
385.156	1	2
385.497	1	0
385.839	1	6
386.180	1	15
386.522	1	1
386.864	1	11
387.205	1	5
387.547	1	8
387.889	1	-3
388.230	1	10
388.572	1	15
388.914	1	2
389.255	1	-4
389.597	1	-7
389.939	1	-2
390.280	1	12
390.622	1	-2
390.963	1	12
391.305	1	1
391.647	1	0
391.988	1	11
392.330	1	1
392.671	1	0
393.013	1	9
393.355	1	2
393.696	1	7
394.038	1	3
394.379	1	12
394.721	1	8
395.062	1	0
395.404	1	-1
395.746	1	12
396.087	1	16
396.429	1	6
396.770	1	16
397.112	1	11
397.453	1	11
397.795	1	0
398.136	1	6
398.478	1	5
398.819	1	-11
399.161	1	3
399.503	1	11
399.844	1	-1
400.186	1	2
400.527	1	6
400.869	1	4
401.210	1	0
401.552	1	8
401.893	1	-4
402.235	1	12
402.576	1	-2
402.918	1	-3
403.259	1	0
403.601	1	5
403.942	1	8
404.284	1	4
404.625	1	2
404.967	1	1
405.308	1	7
405.649	1	11
405.991	1	7
406.332	1	2
406.674	1	12
407.015	1	3
407.357	1	2
407.698	1	3
408.040	1	4
408.381	1	10
408.722	1	0
409.064	1	7
409.405	1	6
409.747	1	1
410.088	1	11
410.430	1	12
410.771	1	-6
411.112	1	6
411.454	1	0
411.795	1	6
412.137	1	-3
412.478	1	4
412.819	1	8
413.161	1	11
413.502	1	13
413.844	1	1
414.185	1	11
414.526	1	7
414.868	1	-4
415.209	1	-2
415.550	1	5
415.892	1	9
416.233	1	16
416.575	1	7
416.916	1	-3
417.257	1	5
417.599	1	-2
417.940	1	3
418.281	1	1
418.623	1	5
418.964	1	-5
419.305	1	-2
419.647	1	12
419.988	1	12
420.329	1	12
420.671	1	6
421.012	1	4
421.353	1	-4
421.695	1	6
422.036	1	11
422.377	1	11
422.718	1	5
423.060	1	11
423.401	1	10
423.742	1	8
424.084	1	14
424.425	1	0
424.766	1	9
425.107	1	2
425.449	1	10
425.790	1	10
426.131	1	21
426.472	1	2
426.814	1	0
427.155	1	-9
427.496	1	-1
427.837	1	15
428.179	1	8
428.520	1	6
428.861	1	1
429.202	1	3
429.544	1	23
429.885	1	1
430.226	1	-1
430.567	1	9
430.909	1	15
431.250	1	12
431.591	1	5
431.932	1	-2
432.273	1	13
432.615	1	11
432.956	1	3
433.297	1	15
433.638	1	5
433.979	1	1
434.320	1	13
434.662	1	6
435.003	1	12
435.344	1	9
435.685	1	-11
436.026	1	12
436.368	1	2
436.709	1	2
437.050	1	17
437.391	1	11
437.732	1	3
438.073	1	9
438.414	1	-6
438.756	1	1
439.097	1	6
439.438	1	-1
439.779	1	14
440.120	1	3
440.461	1	5
440.802	1	0
441.143	1	1
441.485	1	11
441.826	1	-2
442.167	1	8
442.508	1	-3
442.849	1	4
443.190	1	9
443.531	1	-2
443.872	1	5
444.213	1	2
444.554	1	7
444.895	1	7
445.237	1	-8
445.578	1	-2
445.919	1	-3
446.260	1	8
446.601	1	10
446.942	1	3
447.283	1	-1
447.624	1	4
447.965	1	3
448.306	1	4
448.647	1	12
448.988	1	9
449.329	1	1
449.670	1	3
450.011	1	-5
450.352	1	16
450.693	1	2
451.034	1	-5
451.375	1	-5
451.716	1	-11
452.057	1	9
452.398	1	0
452.739	1	7
453.080	1	2
453.421	1	2
453.762	1	4
454.103	1	-2
454.444	1	2
454.785	1	12
455.126	1	1
455.467	1	4
455.808	1	11
456.149	1	-12
456.490	1	0
456.831	1	2
457.172	1	0
457.513	1	-5
457.854	1	9
458.195	1	-6
458.536	1	3
458.877	1	24
459.218	1	15
459.559	1	1
459.899	1	-3
460.240	1	12
460.581	1	5
460.922	1	4
461.263	1	8
461.604	1	-8
461.945	1	8
462.286	1	6
462.627	1	-6
462.968	1	0
463.309	1	2
463.649	1	0
463.990	1	4
464.331	1	7
464.672	1	5
465.013	1	-4
465.354	1	0
465.695	1	0
466.036	1	12
466.376	1	2
466.717	1	8
467.058	1	8
467.399	1	0
467.740	1	16
468.081	1	17
468.422	1	4
468.762	1	-2
469.103	1	2
469.444	1	1
469.785	1	7
470.126	1	-6
470.467	1	14
470.807	1	4
471.148	1	1
471.489	1	4
471.830	1	12
472.171	1	6
472.511	1	6
472.852	1	5
473.193	1	4
473.534	1	-6
473.875	1	7
474.215	1	1
474.556	1	3
474.897	1	-6
475.238	1	11
475.578	1	9
475.919	1	-1
476.260	1	1
476.601	1	2
476.942	1	8
477.282	1	8
477.623	1	-7
477.964	1	-5
478.305	1	6
478.645	1	3
478.986	1	1
479.327	1	-3
479.667	1	-2
480.008	1	1
480.349	1	1
480.690	1	2
481.030	1	2
481.371	1	9
481.712	1	3
482.053	1	-3
482.393	1	14
482.734	1	1
483.075	1	14
483.415	1	5
483.756	1	4
484.097	1	3
484.437	1	3
484.778	1	14
485.119	1	8
485.459	1	-8
485.800	1	14
486.141	1	-5
486.481	1	-5
486.822	1	3
487.163	1	2
487.503	1	-7
487.844	1	-3
488.185	1	2
488.525	1	2
488.866	1	8
489.207	1	3
489.547	1	-9
489.888	1	8
490.228	1	8
490.569	1	2
490.910	1	-5
491.250	1	13
491.591	1	-5
491.932	1	16
492.272	1	-7
492.613	1	-1
492.953	1	6
493.294	1	2
493.635	1	3
493.975	1	8
494.316	1	6
494.656	1	-3
494.997	1	5
495.337	1	-4
495.678	1	-2
496.019	1	3
496.359	1	9
496.700	1	4
497.040	1	7
497.381	1	0
497.721	1	2
498.062	1	4
498.403	1	-3
498.743	1	11
499.084	1	10
499.424	1	-3
499.765	1	3
500.105	1	-3
500.446	1	-3
500.786	1	3
501.127	1	1
501.467	1	2
501.808	1	1
502.148	1	-2
502.489	1	0
502.829	1	9
503.170	1	-1
503.510	1	6
503.851	1	-4
504.191	1	0
504.532	1	7
504.872	1	14
505.213	1	-9
505.553	1	1
505.894	1	6
506.234	1	-5
506.575	1	0
506.915	1	3
507.256	1	14
507.596	1	2
507.936	1	1
508.277	1	-6
508.617	1	4
508.958	1	-6
509.298	1	-4
509.639	1	7
509.979	1	2
510.319	1	10
510.660	1	-6
511.000	1	8
511.341	1	2
511.681	1	2
512.022	1	8
512.362	1	-1
512.702	1	3
513.043	1	0
513.383	1	6
513.724	1	1
514.064	1	-9
514.404	1	12
514.745	1	2
515.085	1	13
515.425	1	9
515.766	1	9
516.106	1	-9
516.447	1	-8
516.787	1	1
517.127	1	-2
517.468	1	13
517.808	1	0
518.148	1	7
518.489	1	-1
518.829	1	6
519.169	1	10
519.510	1	-2
519.850	1	-3
520.190	1	17
520.531	1	8
520.871	1	-5
521.211	1	8
521.552	1	2
521.892	1	5
522.232	1	-1
522.573	1	1
522.913	1	6
523.253	1	11
523.593	1	13
523.934	1	7
524.274	1	-10
524.614	1	8
524.955	1	11
525.295	1	5
525.635	1	-4
525.975	1	11
526.316	1	0
526.656	1	9
526.996	1	3
527.337	1	18
527.677	1	5
528.017	1	9
528.357	1	10
528.698	1	2
529.038	1	-1
529.378	1	12
529.718	1	8
530.058	1	-6
530.399	1	3
530.739	1	5
531.079	1	10
531.419	1	12
531.760	1	-2
532.100	1	7
532.440	1	12
532.780	1	5
533.120	1	9
533.461	1	-1
533.801	1	10
534.141	1	8
534.481	1	1
534.821	1	7
535.162	1	5
535.502	1	9
535.842	1	4
536.182	1	10
536.522	1	-2
536.862	1	-4
537.203	1	1
537.543	1	6
537.883	1	0
538.223	1	6
538.563	1	8
538.903	1	11
539.243	1	4
539.584	1	11
539.924	1	2
540.264	1	-1
540.604	1	16
540.944	1	16
541.284	1	-1
541.624	1	15
541.964	1	-10
542.305	1	5
542.645	1	0
542.985	1	17
543.325	1	-1
543.665	1	5
544.005	1	10
544.345	1	4
544.685	1	3
545.025	1	11
545.365	1	6
545.705	1	-4
546.045	1	7
546.386	1	3
546.726	1	-7
547.066	1	7
547.406	1	-3
547.746	1	-1
548.086	1	-4
548.426	1	2
548.766	1	7
549.106	1	-6
549.446	1	-2
549.786	1	6
550.126	1	4
550.466	1	6
550.806	1	8
551.146	1	0
551.486	1	-4
551.826	1	8
552.166	1	9
552.506	1	6
552.846	1	0
553.186	1	7
553.526	1	2
553.866	1	-3
554.206	1	2
554.546	1	10
554.886	1	8
555.226	1	9
555.566	1	4
555.906	1	-3
556.246	1	9
556.586	1	6
556.926	1	3
557.266	1	3
557.606	1	-5
557.946	1	7
558.286	1	8
558.626	1	-11
558.966	1	-7
559.306	1	2
559.646	1	7
559.986	1	4
560.325	1	-5
560.665	1	7
561.005	1	-1
561.345	1	6
561.685	1	0
562.025	1	-2
562.365	1	-1
562.705	1	1
563.045	1	-1
563.385	1	3
563.725	1	1
564.064	1	6
564.404	1	5
564.744	1	-2
565.084	1	5
565.424	1	1
565.764	1	1
566.104	1	5
566.444	1	13
566.783	1	6
567.123	1	-1
567.463	1	4
567.803	1	9
568.143	1	12
568.483	1	5
568.823	1	-8
569.162	1	8
569.502	1	-5
569.842	1	2
570.182	1	-2
570.522	1	-14
570.862	1	17
571.201	1	3
571.541	1	4
571.881	1	4
572.221	1	8
572.561	1	7
572.900	1	-1
573.240	1	1
573.580	1	2
573.920	1	13
574.260	1	-1
574.599	1	3
574.939	1	6
575.279	1	-2
575.619	1	3
575.959	1	7
576.298	1	3
576.638	1	1
576.978	1	-10
577.318	1	4
577.657	1	11
577.997	1	11
578.337	1	7
578.677	1	8
579.016	1	3
579.356	1	6
579.696	1	-8
580.036	1	3
580.375	1	-4
580.715	1	3
581.055	1	3
581.394	1	3
581.734	1	6
582.074	1	-3
582.414	1	-3
582.753	1	-2
583.093	1	10
583.433	1	12
583.772	1	6
584.112	1	7
584.452	1	15
584.791	1	5
585.131	1	12
585.471	1	0
585.811	1	6
586.150	1	9
586.490	1	4
586.830	1	-8
587.169	1	9
587.509	1	-1
587.849	1	9
588.188	1	14
588.528	1	8
588.867	1	6
589.207	1	-1
589.547	1	-6
589.886	1	7
590.226	1	10
590.566	1	10
590.905	1	7
591.245	1	-8
591.585	1	7
591.924	1	-1
592.264	1	6
592.603	1	1
592.943	1	8
593.283	1	-5
593.622	1	6
593.962	1	5
594.301	1	-6
594.641	1	9
594.981	1	1
595.320	1	2
595.660	1	9
595.999	1	12
596.339	1	13
596.678	1	-4
597.018	1	-2
597.358	1	-10
597.697	1	-7
598.037	1	9
598.376	1	3
598.716	1	13
599.055	1	-4
599.395	1	-4
599.734	1	1
600.074	1	7
600.413	1	5
600.753	1	-2
601.092	1	5
601.432	1	-5
601.771	1	9
602.111	1	8
602.451	1	5
602.790	1	-9
603.130	1	2
603.469	1	2
603.809	1	0
604.148	1	19
604.487	1	10
604.827	1	-2
605.166	1	12
605.506	1	7
605.845	1	-2
606.185	1	8
606.524	1	-5
606.864	1	7
607.203	1	2
607.543	1	0
607.882	1	11
608.222	1	-7
608.561	1	-3
608.901	1	17
609.240	1	-10
609.579	1	8
609.919	1	8
610.258	1	-5
610.598	1	-2
610.937	1	10
611.277	1	9
611.616	1	1
611.955	1	-2
612.295	1	5
612.634	1	-7
612.974	1	11
613.313	1	2
613.652	1	-11
613.992	1	4
614.331	1	7
614.671	1	4
615.010	1	2
615.349	1	-4
615.689	1	8
616.028	1	7
616.368	1	4
616.707	1	14
617.046	1	9
617.386	1	-13
617.725	1	10
618.064	1	2
618.404	1	3
618.743	1	9
619.082	1	0
619.422	1	-6
619.761	1	4
620.100	1	2
620.440	1	9
620.779	1	7
621.118	1	-1
621.458	1	4
621.797	1	0
622.136	1	5
622.476	1	10
622.815	1	-11
623.154	1	0
623.494	1	11
623.833	1	10
624.172	1	-2
624.511	1	11
624.851	1	3
625.190	1	-1
625.529	1	-3
625.869	1	0
626.208	1	3
626.547	1	5
626.886	1	0
627.226	1	-7
627.565	1	2
627.904	1	12
628.243	1	9
628.583	1	-1
628.922	1	-4
629.261	1	-6
629.600	1	3
629.940	1	12
630.279	1	7
630.618	1	-5
630.957	1	7
631.297	1	4
631.636	1	13
631.975	1	3
632.314	1	4
632.653	1	0
632.993	1	4
633.332	1	-2
633.671	1	-2
634.010	1	-3
634.349	1	2
634.689	1	13
635.028	1	14
635.367	1	4
635.706	1	2
636.045	1	10
636.384	1	3
636.724	1	-1
637.063	1	0
637.402	1	-9
637.741	1	7
638.080	1	2
638.419	1	10
638.759	1	2
639.098	1	-4
639.437	1	5
639.776	1	3
640.115	1	6
640.454	1	8
640.793	1	-8
641.132	1	17
641.472	1	7
641.811	1	-1
642.150	1	-4
642.489	1	1
642.828	1	8
643.167	1	7
643.506	1	9
643.845	1	1
644.184	1	-1
644.524	1	-2
644.863	1	6
645.202	1	-2
645.541	1	3
645.880	1	10
646.219	1	7
646.558	1	7
646.897	1	-2
647.236	1	4
647.575	1	-6
647.914	1	-1
648.253	1	1
648.592	1	2
648.931	1	1
649.270	1	-4
649.610	1	2
649.949	1	-2
650.288	1	-2
650.627	1	5
650.966	1	0
651.305	1	-5
651.644	1	5
651.983	1	-13
652.322	1	0
652.661	1	1
653.000	1	-2
653.339	1	2
653.678	1	-3
654.017	1	-3
654.356	1	2
654.695	1	2
655.034	1	0
655.373	1	-3
655.712	1	6
656.051	1	8
656.390	1	-4
656.729	1	2
657.068	1	-1
657.406	1	-2
657.745	1	3
658.084	1	-3
658.423	1	11
658.762	1	12
659.101	1	12
659.440	1	-10
659.779	1	3
660.118	1	-8
660.457	1	-2
660.796	1	0
661.135	1	7
661.474	1	12
661.813	1	5
662.152	1	7
662.491	1	4
662.829	1	5
663.168	1	-5
663.507	1	3
663.846	1	-3
664.185	1	-2
664.524	1	-10
664.863	1	12
665.202	1	5
665.541	1	-2
665.879	1	8
666.218	1	-1
666.557	1	-1
666.896	1	4
667.235	1	10
667.574	1	21
667.913	1	3
668.251	1	4
668.590	1	-7
668.929	1	0
669.268	1	-4
669.607	1	-2
669.946	1	9
670.285	1	6
670.623	1	9
670.962	1	-11
671.301	1	-5
671.640	1	-9
671.979	1	10
672.317	1	3
672.656	1	1
672.995	1	-2
673.334	1	-2
673.673	1	13
674.011	1	1
674.350	1	6
674.689	1	5
675.028	1	15
675.367	1	-3
675.705	1	17
676.044	1	8
676.383	1	-1
676.722	1	5
677.060	1	3
677.399	1	-1
677.738	1	-4
678.077	1	12
678.416	1	6
678.754	1	0
679.093	1	-5
679.432	1	8
679.771	1	5
680.109	1	-8
680.448	1	-1
680.787	1	5
681.125	1	6
681.464	1	-1
681.803	1	-4
682.142	1	-4
682.480	1	14
682.819	1	3
683.158	1	-4
683.496	1	1
683.835	1	-10
684.174	1	2
684.512	1	5
684.851	1	-2
685.190	1	-2
685.529	1	-11
685.867	1	-7
686.206	1	5
686.545	1	0
686.883	1	4
687.222	1	1
687.561	1	5
687.899	1	-5
688.238	1	15
688.577	1	-2
688.746	1	4