File: Data/GaN_130K_350ms/GaN_sample F_spot6_UVVIS_130 K_200um_350 ms 2x2mm1_225.txt
340.368	1	3
340.710	1	13
341.052	1	1
341.394	1	0
341.737	1	-5
342.079	1	7
342.421	1	9
342.763	1	11
343.105	1	10
343.447	1	2
343.789	1	5
344.131	1	2
344.473	1	9
344.815	1	-12
345.157	1	-8
345.499	1	-4
345.841	1	-4
346.183	1	8
346.526	1	1
346.868	1	2
347.210	1	1
347.552	1	-3
347.894	1	0
348.236	1	4
348.578	1	4
348.920	1	-8
349.262	1	13
349.604	1	3
349.946	1	1
350.288	1	-2
350.630	1	6
350.972	1	10
351.314	1	1
351.656	1	10
351.998	1	5
352.340	1	15
352.682	1	2
353.024	1	-1
353.366	1	7
353.708	1	-2
354.050	1	9
354.392	1	15
354.734	1	-1
355.076	1	7
355.418	1	-4
355.760	1	3
356.102	1	2
356.444	1	-5
356.785	1	3
357.127	1	15
357.469	1	8
357.811	1	8
358.153	1	4
358.495	1	9
358.837	1	7
359.179	1	6
359.521	1	-1
359.863	1	4
360.205	1	8
360.547	1	1
360.889	1	2
361.231	1	8
361.572	1	11
361.914	1	2
362.256	1	-5
362.598	1	7
362.940	1	-4
363.282	1	9
363.624	1	8
363.966	1	16
364.308	1	14
364.649	1	13
364.991	1	11
365.333	1	8
365.675	1	12
366.017	1	13
366.359	1	16
366.701	1	20
367.042	1	24
367.384	1	19
367.726	1	10
368.068	1	10
368.410	1	6
368.752	1	18
369.093	1	16
369.435	1	9
369.777	1	9
370.119	1	18
370.461	1	19
370.803	1	15
371.144	1	10
371.486	1	14
371.828	1	18
372.170	1	6
372.512	1	13
372.853	1	4
373.195	1	8
373.537	1	16
373.879	1	24
374.220	1	2
374.562	1	-1
374.904	1	3
375.246	1	13
375.588	1	3
375.929	1	-1
376.271	1	9
376.613	1	-6
376.955	1	7
377.296	1	9
377.638	1	-5
377.980	1	0
378.321	1	7
378.663	1	9
379.005	1	11
379.347	1	4
379.688	1	6
380.030	1	9
380.372	1	11
380.714	1	17
381.055	1	6
381.397	1	6
381.739	1	10
382.080	1	7
382.422	1	19
382.764	1	2
383.105	1	-1
383.447	1	11
383.789	1	9
384.130	1	11
384.472	1	14
384.814	1	5
385.156	1	2
385.497	1	-1
385.839	1	5
386.180	1	4
386.522	1	-1
386.864	1	7
387.205	1	-1
387.547	1	15
387.889	1	-9
388.230	1	2
388.572	1	5
388.914	1	15
389.255	1	2
389.597	1	-3
389.939	1	6
390.280	1	6
390.622	1	3
390.963	1	2
391.305	1	6
391.647	1	7
391.988	1	7
392.330	1	8
392.671	1	0
393.013	1	3
393.355	1	0
393.696	1	0
394.038	1	7
394.379	1	5
394.721	1	8
395.062	1	-3
395.404	1	1
395.746	1	5
396.087	1	9
396.429	1	10
396.770	1	12
397.112	1	8
397.453	1	8
397.795	1	-7
398.136	1	8
398.478	1	3
398.819	1	-9
399.161	1	19
399.503	1	6
399.844	1	0
400.186	1	8
400.527	1	7
400.869	1	14
401.210	1	3
401.552	1	7
401.893	1	-7
402.235	1	4
402.576	1	8
402.918	1	8
403.259	1	-9
403.601	1	-1
403.942	1	-6
404.284	1	-3
404.625	1	7
404.967	1	-3
405.308	1	5
405.649	1	6
405.991	1	10
406.332	1	14
406.674	1	17
407.015	1	20
407.357	1	4
407.698	1	6
408.040	1	2
408.381	1	14
408.722	1	-2
409.064	1	2
409.405	1	5
409.747	1	0
410.088	1	18
410.430	1	18
410.771	1	-3
411.112	1	4
411.454	1	7
411.795	1	2
412.137	1	-6
412.478	1	2
412.819	1	7
413.161	1	13
413.502	1	15
413.844	1	5
414.185	1	6
414.526	1	1
414.868	1	-1
415.209	1	5
415.550	1	8
415.892	1	15
416.233	1	17
416.575	1	14
416.916	1	8
417.257	1	3
417.599	1	0
417.940	1	11
418.281	1	2
418.623	1	5
418.964	1	1
419.305	1	2
419.647	1	12
419.988	1	14
420.329	1	14
420.671	1	2
421.012	1	-6
421.353	1	4
421.695	1	5
422.036	1	-3
422.377	1	8
422.718	1	3
423.060	1	6
423.401	1	2
423.742	1	8
424.084	1	13
424.425	1	11
424.766	1	8
425.107	1	14
425.449	1	7
425.790	1	14
426.131	1	18
426.472	1	3
426.814	1	11
427.155	1	-4
427.496	1	2
427.837	1	10
428.179	1	14
428.520	1	9
428.861	1	1
429.202	1	9
429.544	1	11
429.885	1	-3
430.226	1	1
430.567	1	11
430.909	1	7
431.250	1	10
431.591	1	-4
431.932	1	2
432.273	1	9
432.615	1	14
432.956	1	-8
433.297	1	15
433.638	1	0
433.979	1	13
434.320	1	8
434.662	1	12
435.003	1	10
435.344	1	10
435.685	1	-3
436.026	1	7
436.368	1	6
436.709	1	6
437.050	1	10
437.391	1	22
437.732	1	0
438.073	1	23
438.414	1	6
438.756	1	3
439.097	1	9
439.438	1	6
439.779	1	8
440.120	1	12
440.461	1	11
440.802	1	-15
441.143	1	5
441.485	1	4
441.826	1	4
442.167	1	5
442.508	1	-10
442.849	1	6
443.190	1	0
443.531	1	4
443.872	1	8
444.213	1	6
444.554	1	6
444.895	1	5
445.237	1	3
445.578	1	1
445.919	1	-2
446.260	1	6
446.601	1	4
446.942	1	8
447.283	1	1
447.624	1	5
447.965	1	6
448.306	1	9
448.647	1	19
448.988	1	6
449.329	1	-7
449.670	1	-1
450.011	1	-3
450.352	1	9
450.693	1	5
451.034	1	-4
451.375	1	7
451.716	1	-5
452.057	1	17
452.398	1	-5
452.739	1	4
453.080	1	2
453.421	1	5
453.762	1	9
454.103	1	9
454.444	1	8
454.785	1	11
455.126	1	-1
455.467	1	0
455.808	1	12
456.149	1	-7
456.490	1	9
456.831	1	13
457.172	1	-2
457.513	1	-3
457.854	1	2
458.195	1	-14
458.536	1	1
458.877	1	16
459.218	1	5
459.559	1	3
459.899	1	-1
460.240	1	19
460.581	1	-1
460.922	1	4
461.263	1	11
461.604	1	-10
461.945	1	13
462.286	1	8
462.627	1	6
462.968	1	-1
463.309	1	7
463.649	1	3
463.990	1	-2
464.331	1	12
464.672	1	13
465.013	1	0
465.354	1	8
465.695	1	5
466.036	1	7
466.376	1	-1
466.717	1	14
467.058	1	8
467.399	1	-1
467.740	1	11
468.081	1	13
468.422	1	5
468.762	1	5
469.103	1	5
469.444	1	1
469.785	1	11
470.126	1	-7
470.467	1	1
470.807	1	4
471.148	1	-8
471.489	1	-1
471.830	1	8
472.171	1	0
472.511	1	4
472.852	1	3
473.193	1	12
473.534	1	-2
473.875	1	15
474.215	1	3
474.556	1	2
474.897	1	2
475.238	1	11
475.578	1	3
475.919	1	-4
476.260	1	11
476.601	1	1
476.942	1	13
477.282	1	4
477.623	1	4
477.964	1	-3
478.305	1	12
478.645	1	-3
478.986	1	-1
479.327	1	-4
479.667	1	2
480.008	1	0
480.349	1	3
480.690	1	-3
481.030	1	-1
481.371	1	4
481.712	1	3
482.053	1	6
482.393	1	6
482.734	1	-3
483.075	1	16
483.415	1	10
483.756	1	1
484.097	1	1
484.437	1	3
484.778	1	12
485.119	1	15
485.459	1	-5
485.800	1	17
486.141	1	3
486.481	1	-1
486.822	1	16
487.163	1	-1
487.503	1	-13
487.844	1	1
488.185	1	8
488.525	1	6
488.866	1	-5
489.207	1	-9
489.547	1	-1
489.888	1	15
490.228	1	3
490.569	1	4
490.910	1	-2
491.250	1	9
491.591	1	3
491.932	1	1
492.272	1	5
492.613	1	-1
492.953	1	4
493.294	1	5
493.635	1	8
493.975	1	17
494.316	1	9
494.656	1	-2
494.997	1	3
495.337	1	-4
495.678	1	1
496.019	1	-8
496.359	1	5
496.700	1	2
497.040	1	13
497.381	1	-3
497.721	1	9
498.062	1	-14
498.403	1	-1
498.743	1	6
499.084	1	8
499.424	1	-7
499.765	1	4
500.105	1	11
500.446	1	0
500.786	1	11
501.127	1	9
501.467	1	1
501.808	1	0
502.148	1	6
502.489	1	7
502.829	1	-1
503.170	1	5
503.510	1	3
503.851	1	4
504.191	1	7
504.532	1	2
504.872	1	2
505.213	1	3
505.553	1	2
505.894	1	16
506.234	1	1
506.575	1	-11
506.915	1	5
507.256	1	9
507.596	1	10
507.936	1	1
508.277	1	5
508.617	1	1
508.958	1	7
509.298	1	-3
509.639	1	2
509.979	1	-1
510.319	1	13
510.660	1	2
511.000	1	17
511.341	1	3
511.681	1	10
512.022	1	10
512.362	1	0
512.702	1	9
513.043	1	8
513.383	1	23
513.724	1	-1
514.064	1	-6
514.404	1	16
514.745	1	2
515.085	1	9
515.425	1	0
515.766	1	13
516.106	1	3
516.447	1	-1
516.787	1	6
517.127	1	5
517.468	1	10
517.808	1	-3
518.148	1	3
518.489	1	14
518.829	1	5
519.169	1	11
519.510	1	4
519.850	1	12
520.190	1	19
520.531	1	7
520.871	1	3
521.211	1	23
521.552	1	9
521.892	1	13
522.232	1	-1
522.573	1	1
522.913	1	8
523.253	1	7
523.593	1	11
523.934	1	3
524.274	1	-1
524.614	1	6
524.955	1	12
525.295	1	4
525.635	1	3
525.975	1	11
526.316	1	-4
526.656	1	0
526.996	1	8
527.337	1	9
527.677	1	-6
528.017	1	9
528.357	1	6
528.698	1	3
529.038	1	2
529.378	1	9
529.718	1	14
530.058	1	4
530.399	1	0
530.739	1	5
531.079	1	5
531.419	1	3
531.760	1	9
532.100	1	8
532.440	1	10
532.780	1	10
533.120	1	7
533.461	1	0
533.801	1	16
534.141	1	11
534.481	1	7
534.821	1	7
535.162	1	11
535.502	1	7
535.842	1	20
536.182	1	13
536.522	1	-7
536.862	1	9
537.203	1	-9
537.543	1	6
537.883	1	6
538.223	1	13
538.563	1	8
538.903	1	8
539.243	1	9
539.584	1	5
539.924	1	1
540.264	1	-1
540.604	1	3
540.944	1	7
541.284	1	9
541.624	1	14
541.964	1	-6
542.305	1	5
542.645	1	-4
542.985	1	9
543.325	1	0
543.665	1	4
544.005	1	5
544.345	1	0
544.685	1	14
545.025	1	11
545.365	1	10
545.705	1	-5
546.045	1	4
546.386	1	-1
546.726	1	2
547.066	1	7
547.406	1	-8
547.746	1	-2
548.086	1	-3
548.426	1	0
548.766	1	4
549.106	1	1
549.446	1	0
549.786	1	6
550.126	1	11
550.466	1	9
550.806	1	6
551.146	1	-7
551.486	1	0
551.826	1	-1
552.166	1	16
552.506	1	5
552.846	1	-7
553.186	1	5
553.526	1	0
553.866	1	-2
554.206	1	-4
554.546	1	6
554.886	1	8
555.226	1	8
555.566	1	10
555.906	1	3
556.246	1	18
556.586	1	11
556.926	1	0
557.266	1	16
557.606	1	0
557.946	1	12
558.286	1	19
558.626	1	-6
558.966	1	-1
559.306	1	-1
559.646	1	3
559.986	1	4
560.325	1	-7
560.665	1	8
561.005	1	7
561.345	1	6
561.685	1	10
562.025	1	0
562.365	1	3
562.705	1	11
563.045	1	3
563.385	1	8
563.725	1	1
564.064	1	13
564.404	1	5
564.744	1	4
565.084	1	8
565.424	1	5
565.764	1	8
566.104	1	4
566.444	1	15
566.783	1	8
567.123	1	3
567.463	1	7
567.803	1	0
568.143	1	18
568.483	1	3
568.823	1	1
569.162	1	8
569.502	1	4
569.842	1	2
570.182	1	1
570.522	1	-10
570.862	1	15
571.201	1	17
571.541	1	6
571.881	1	-1
572.221	1	2
572.561	1	11
572.900	1	2
573.240	1	2
573.580	1	5
573.920	1	11
574.260	1	2
574.599	1	8
574.939	1	4
575.279	1	2
575.619	1	7
575.959	1	-3
576.298	1	8
576.638	1	-5
576.978	1	-8
577.318	1	2
577.657	1	16
577.997	1	3
578.337	1	10
578.677	1	11
579.016	1	5
579.356	1	3
579.696	1	-2
580.036	1	3
580.375	1	5
580.715	1	12
581.055	1	10
581.394	1	-3
581.734	1	4
582.074	1	0
582.414	1	1
582.753	1	2
583.093	1	1
583.433	1	5
583.772	1	6
584.112	1	3
584.452	1	8
584.791	1	5
585.131	1	14
585.471	1	-6
585.811	1	1
586.150	1	8
586.490	1	4
586.830	1	-7
587.169	1	-9
587.509	1	6
587.849	1	7
588.188	1	12
588.528	1	1
588.867	1	4
589.207	1	3
589.547	1	0
589.886	1	0
590.226	1	11
590.566	1	-4
590.905	1	14
591.245	1	-1
591.585	1	8
591.924	1	-5
592.264	1	4
592.603	1	6
592.943	1	4
593.283	1	-7
593.622	1	10
593.962	1	10
594.301	1	-6
594.641	1	13
594.981	1	-3
595.320	1	0
595.660	1	10
595.999	1	12
596.339	1	0
596.678	1	0
597.018	1	-3
597.358	1	1
597.697	1	0
598.037	1	3
598.376	1	-3
598.716	1	14
599.055	1	8
599.395	1	-7
599.734	1	-4
600.074	1	7
600.413	1	11
600.753	1	1
601.092	1	3
601.432	1	-2
601.771	1	7
602.111	1	0
602.451	1	2
602.790	1	7
603.130	1	5
603.469	1	1
603.809	1	-2
604.148	1	11
604.487	1	14
604.827	1	2
605.166	1	7
605.506	1	0
605.845	1	-2
606.185	1	11
606.524	1	1
606.864	1	6
607.203	1	-2
607.543	1	8
607.882	1	9
608.222	1	-6
608.561	1	-3
608.901	1	1
609.240	1	-10
609.579	1	4
609.919	1	15
610.258	1	1
610.598	1	2
610.937	1	8
611.277	1	6
611.616	1	0
611.955	1	4
612.295	1	6
612.634	1	4
612.974	1	8
613.313	1	1
613.652	1	-2
613.992	1	0
614.331	1	-1
614.671	1	10
615.010	1	4
615.349	1	6
615.689	1	11
616.028	1	11
616.368	1	14
616.707	1	12
617.046	1	9
617.386	1	-6
617.725	1	7
618.064	1	7
618.404	1	0
618.743	1	6
619.082	1	-3
619.422	1	2
619.761	1	1
620.100	1	-10
620.440	1	3
620.779	1	8
621.118	1	11
621.458	1	1
621.797	1	5
622.136	1	10
622.476	1	9
622.815	1	-4
623.154	1	-1
623.494	1	0
623.833	1	11
624.172	1	-2
624.511	1	11
624.851	1	-2
625.190	1	2
625.529	1	-3
625.869	1	4
626.208	1	1
626.547	1	-1
626.886	1	1
627.226	1	-3
627.565	1	0
627.904	1	15
628.243	1	10
628.583	1	-13
628.922	1	0
629.261	1	-12
629.600	1	-3
629.940	1	10
630.279	1	13
630.618	1	-2
630.957	1	-2
631.297	1	-2
631.636	1	6
631.975	1	8
632.314	1	4
632.653	1	1
632.993	1	7
633.332	1	-7
633.671	1	-1
634.010	1	-4
634.349	1	7
634.689	1	5
635.028	1	9
635.367	1	2
635.706	1	1
636.045	1	12
636.384	1	-1
636.724	1	12
637.063	1	7
637.402	1	-4
637.741	1	12
638.080	1	16
638.419	1	4
638.759	1	1
639.098	1	-4
639.437	1	11
639.776	1	11
640.115	1	8
640.454	1	5
640.793	1	-9
641.132	1	8
641.472	1	7
641.811	1	4
642.150	1	-3
642.489	1	-2
642.828	1	5
643.167	1	0
643.506	1	12
643.845	1	-6
644.184	1	-5
644.524	1	-6
644.863	1	10
645.202	1	11
645.541	1	9
645.880	1	-2
646.219	1	-4
646.558	1	2
646.897	1	-3
647.236	1	3
647.575	1	-4
647.914	1	-4
648.253	1	2
648.592	1	5
648.931	1	-3
649.270	1	-8
649.610	1	-2
649.949	1	-2
650.288	1	10
650.627	1	2
650.966	1	2
651.305	1	-7
651.644	1	1
651.983	1	0
652.322	1	-6
652.661	1	3
653.000	1	1
653.339	1	-4
653.678	1	-5
654.017	1	-8
654.356	1	6
654.695	1	-2
655.034	1	2
655.373	1	3
655.712	1	1
656.051	1	3
656.390	1	-3
656.729	1	-3
657.068	1	-10
657.406	1	4
657.745	1	0
658.084	1	-2
658.423	1	0
658.762	1	11
659.101	1	2
659.440	1	-2
659.779	1	3
660.118	1	-3
660.457	1	0
660.796	1	4
661.135	1	9
661.474	1	5
661.813	1	-4
662.152	1	7
662.491	1	14
662.829	1	5
663.168	1	-9
663.507	1	1
663.846	1	9
664.185	1	1
664.524	1	-4
664.863	1	-2
665.202	1	-8
665.541	1	-4
665.879	1	1
666.218	1	13
666.557	1	10
666.896	1	11
667.235	1	3
667.574	1	11
667.913	1	8
668.251	1	2
668.590	1	6
668.929	1	14
669.268	1	-2
669.607	1	1
669.946	1	13
670.285	1	7
670.623	1	13
670.962	1	-3
671.301	1	-1
671.640	1	-2
671.979	1	14
672.317	1	-3
672.656	1	-4
672.995	1	-1
673.334	1	-6
673.673	1	8
674.011	1	8
674.350	1	1
674.689	1	6
675.028	1	14
675.367	1	-3
675.705	1	15
676.044	1	-2
676.383	1	2
676.722	1	1
677.060	1	8
677.399	1	2
677.738	1	-4
678.077	1	8
678.416	1	5
678.754	1	6
679.093	1	4
679.432	1	5
679.771	1	3
680.109	1	-1
680.448	1	4
680.787	1	7
681.125	1	8
681.464	1	4
681.803	1	1
682.142	1	-2
682.480	1	10
682.819	1	2
683.158	1	-7
683.496	1	6
683.835	1	1
684.174	1	12
684.512	1	11
684.851	1	-7
685.190	1	4
685.529	1	-6
685.867	1	7
686.206	1	2
686.545	1	-6
686.883	1	1
687.222	1	8
687.561	1	13
687.899	1	3
688.238	1	2
688.577	1	-3
688.746	1	9