File: Data/GaN_130K_350ms/GaN_sample F_spot6_UVVIS_130 K_200um_350 ms 2x2mm1_118.txt
340.368	1	4
340.710	1	5
341.052	1	-6
341.394	1	8
341.737	1	4
342.079	1	5
342.421	1	20
342.763	1	7
343.105	1	7
343.447	1	7
343.789	1	6
344.131	1	7
344.473	1	-4
344.815	1	0
345.157	1	-8
345.499	1	-1
345.841	1	-2
346.183	1	11
346.526	1	-2
346.868	1	2
347.210	1	11
347.552	1	1
347.894	1	7
348.236	1	7
348.578	1	-1
348.920	1	0
349.262	1	8
349.604	1	11
349.946	1	12
350.288	1	-17
350.630	1	19
350.972	1	9
351.314	1	-1
351.656	1	17
351.998	1	10
352.340	1	16
352.682	1	6
353.024	1	1
353.366	1	10
353.708	1	-1
354.050	1	9
354.392	1	10
354.734	1	-3
355.076	1	4
355.418	1	17
355.760	1	16
356.102	1	7
356.444	1	-1
356.785	1	15
357.127	1	17
357.469	1	6
357.811	1	18
358.153	1	16
358.495	1	14
358.837	1	18
359.179	1	12
359.521	1	14
359.863	1	17
360.205	1	15
360.547	1	11
360.889	1	18
361.231	1	21
361.572	1	23
361.914	1	32
362.256	1	27
362.598	1	20
362.940	1	25
363.282	1	39
363.624	1	34
363.966	1	46
364.308	1	45
364.649	1	55
364.991	1	48
365.333	1	52
365.675	1	53
366.017	1	65
366.359	1	67
366.701	1	64
367.042	1	70
367.384	1	72
367.726	1	70
368.068	1	62
368.410	1	69
368.752	1	72
369.093	1	70
369.435	1	56
369.777	1	70
370.119	1	70
370.461	1	64
370.803	1	55
371.144	1	64
371.486	1	57
371.828	1	53
372.170	1	41
372.512	1	36
372.853	1	45
373.195	1	37
373.537	1	44
373.879	1	54
374.220	1	31
374.562	1	36
374.904	1	35
375.246	1	39
375.588	1	35
375.929	1	25
376.271	1	29
376.613	1	26
376.955	1	30
377.296	1	20
377.638	1	18
377.980	1	11
378.321	1	23
378.663	1	29
379.005	1	40
379.347	1	25
379.688	1	13
380.030	1	22
380.372	1	16
380.714	1	33
381.055	1	14
381.397	1	17
381.739	1	14
382.080	1	9
382.422	1	21
382.764	1	12
383.105	1	16
383.447	1	21
383.789	1	24
384.130	1	17
384.472	1	17
384.814	1	16
385.156	1	19
385.497	1	8
385.839	1	27
386.180	1	19
386.522	1	12
386.864	1	27
387.205	1	19
387.547	1	15
387.889	1	7
388.230	1	16
388.572	1	25
388.914	1	12
389.255	1	12
389.597	1	-1
389.939	1	19
390.280	1	24
390.622	1	9
390.963	1	18
391.305	1	13
391.647	1	17
391.988	1	11
392.330	1	12
392.671	1	5
393.013	1	15
393.355	1	14
393.696	1	2
394.038	1	16
394.379	1	23
394.721	1	19
395.062	1	6
395.404	1	0
395.746	1	15
396.087	1	17
396.429	1	6
396.770	1	9
397.112	1	6
397.453	1	19
397.795	1	6
398.136	1	9
398.478	1	10
398.819	1	8
399.161	1	16
399.503	1	16
399.844	1	6
400.186	1	7
400.527	1	16
400.869	1	6
401.210	1	4
401.552	1	15
401.893	1	0
402.235	1	8
402.576	1	6
402.918	1	16
403.259	1	5
403.601	1	7
403.942	1	7
404.284	1	13
404.625	1	17
404.967	1	15
405.308	1	12
405.649	1	17
405.991	1	6
406.332	1	11
406.674	1	24
407.015	1	11
407.357	1	15
407.698	1	12
408.040	1	2
408.381	1	6
408.722	1	7
409.064	1	14
409.405	1	9
409.747	1	6
410.088	1	8
410.430	1	21
410.771	1	1
411.112	1	18
411.454	1	8
411.795	1	5
412.137	1	-1
412.478	1	5
412.819	1	7
413.161	1	15
413.502	1	21
413.844	1	6
414.185	1	16
414.526	1	5
414.868	1	6
415.209	1	8
415.550	1	9
415.892	1	10
416.233	1	18
416.575	1	5
416.916	1	5
417.257	1	15
417.599	1	6
417.940	1	21
418.281	1	7
418.623	1	8
418.964	1	7
419.305	1	15
419.647	1	14
419.988	1	20
420.329	1	12
420.671	1	7
421.012	1	3
421.353	1	4
421.695	1	9
422.036	1	6
422.377	1	19
422.718	1	9
423.060	1	12
423.401	1	13
423.742	1	12
424.084	1	5
424.425	1	8
424.766	1	9
425.107	1	5
425.449	1	6
425.790	1	9
426.131	1	14
426.472	1	8
426.814	1	8
427.155	1	0
427.496	1	5
427.837	1	15
428.179	1	8
428.520	1	7
428.861	1	9
429.202	1	10
429.544	1	18
429.885	1	12
430.226	1	-2
430.567	1	14
430.909	1	10
431.250	1	13
431.591	1	3
431.932	1	3
432.273	1	4
432.615	1	8
432.956	1	-1
433.297	1	12
433.638	1	20
433.979	1	11
434.320	1	1
434.662	1	6
435.003	1	19
435.344	1	14
435.685	1	-8
436.026	1	13
436.368	1	-5
436.709	1	-2
437.050	1	11
437.391	1	15
437.732	1	9
438.073	1	15
438.414	1	-4
438.756	1	5
439.097	1	7
439.438	1	4
439.779	1	15
440.120	1	4
440.461	1	21
440.802	1	-3
441.143	1	1
441.485	1	2
441.826	1	9
442.167	1	6
442.508	1	4
442.849	1	13
443.190	1	13
443.531	1	1
443.872	1	6
444.213	1	6
444.554	1	4
444.895	1	-1
445.237	1	-2
445.578	1	-3
445.919	1	3
446.260	1	8
446.601	1	6
446.942	1	3
447.283	1	2
447.624	1	4
447.965	1	5
448.306	1	8
448.647	1	15
448.988	1	12
449.329	1	0
449.670	1	4
450.011	1	-1
450.352	1	14
450.693	1	13
451.034	1	-4
451.375	1	7
451.716	1	-1
452.057	1	17
452.398	1	2
452.739	1	2
453.080	1	6
453.421	1	10
453.762	1	2
454.103	1	3
454.444	1	7
454.785	1	16
455.126	1	1
455.467	1	4
455.808	1	12
456.149	1	4
456.490	1	8
456.831	1	7
457.172	1	0
457.513	1	-3
457.854	1	0
458.195	1	4
458.536	1	9
458.877	1	19
459.218	1	10
459.559	1	2
459.899	1	-1
460.240	1	21
460.581	1	7
460.922	1	8
461.263	1	14
461.604	1	-7
461.945	1	7
462.286	1	7
462.627	1	-2
462.968	1	5
463.309	1	16
463.649	1	-4
463.990	1	-3
464.331	1	13
464.672	1	12
465.013	1	-3
465.354	1	0
465.695	1	8
466.036	1	0
466.376	1	9
466.717	1	16
467.058	1	7
467.399	1	-8
467.740	1	15
468.081	1	12
468.422	1	16
468.762	1	0
469.103	1	13
469.444	1	-4
469.785	1	10
470.126	1	-4
470.467	1	10
470.807	1	5
471.148	1	6
471.489	1	0
471.830	1	13
472.171	1	12
472.511	1	9
472.852	1	11
473.193	1	11
473.534	1	5
473.875	1	12
474.215	1	0
474.556	1	14
474.897	1	1
475.238	1	14
475.578	1	5
475.919	1	3
476.260	1	3
476.601	1	14
476.942	1	13
477.282	1	5
477.623	1	-8
477.964	1	-1
478.305	1	15
478.645	1	-8
478.986	1	3
479.327	1	4
479.667	1	7
480.008	1	7
480.349	1	-4
480.690	1	12
481.030	1	10
481.371	1	15
481.712	1	14
482.053	1	0
482.393	1	10
482.734	1	6
483.075	1	19
483.415	1	4
483.756	1	5
484.097	1	8
484.437	1	3
484.778	1	15
485.119	1	16
485.459	1	-7
485.800	1	8
486.141	1	2
486.481	1	7
486.822	1	18
487.163	1	5
487.503	1	-1
487.844	1	3
488.185	1	4
488.525	1	14
488.866	1	13
489.207	1	8
489.547	1	6
489.888	1	13
490.228	1	10
490.569	1	6
490.910	1	4
491.250	1	9
491.591	1	11
491.932	1	11
492.272	1	4
492.613	1	1
492.953	1	19
493.294	1	17
493.635	1	18
493.975	1	27
494.316	1	17
494.656	1	9
494.997	1	7
495.337	1	2
495.678	1	11
496.019	1	4
496.359	1	14
496.700	1	14
497.040	1	16
497.381	1	12
497.721	1	10
498.062	1	4
498.403	1	11
498.743	1	18
499.084	1	21
499.424	1	13
499.765	1	8
500.105	1	13
500.446	1	8
500.786	1	13
501.127	1	17
501.467	1	14
501.808	1	26
502.148	1	9
502.489	1	16
502.829	1	22
503.170	1	9
503.510	1	18
503.851	1	14
504.191	1	14
504.532	1	17
504.872	1	21
505.213	1	17
505.553	1	21
505.894	1	23
506.234	1	13
506.575	1	13
506.915	1	19
507.256	1	21
507.596	1	14
507.936	1	16
508.277	1	18
508.617	1	11
508.958	1	30
509.298	1	15
509.639	1	25
509.979	1	10
510.319	1	22
510.660	1	1
511.000	1	23
511.341	1	14
511.681	1	23
512.022	1	35
512.362	1	14
512.702	1	19
513.043	1	25
513.383	1	18
513.724	1	10
514.064	1	10
514.404	1	27
514.745	1	15
515.085	1	22
515.425	1	23
515.766	1	32
516.106	1	15
516.447	1	24
516.787	1	27
517.127	1	23
517.468	1	34
517.808	1	17
518.148	1	30
518.489	1	32
518.829	1	31
519.169	1	24
519.510	1	29
519.850	1	31
520.190	1	37
520.531	1	39
520.871	1	21
521.211	1	38
521.552	1	25
521.892	1	27
522.232	1	21
522.573	1	20
522.913	1	33
523.253	1	36
523.593	1	22
523.934	1	17
524.274	1	19
524.614	1	37
524.955	1	29
525.295	1	28
525.635	1	20
525.975	1	39
526.316	1	15
526.656	1	18
526.996	1	23
527.337	1	30
527.677	1	26
528.017	1	18
528.357	1	23
528.698	1	25
529.038	1	11
529.378	1	32
529.718	1	32
530.058	1	19
530.399	1	37
530.739	1	24
531.079	1	30
531.419	1	35
531.760	1	25
532.100	1	25
532.440	1	21
532.780	1	32
533.120	1	23
533.461	1	22
533.801	1	32
534.141	1	27
534.481	1	24
534.821	1	43
535.162	1	27
535.502	1	29
535.842	1	42
536.182	1	27
536.522	1	21
536.862	1	21
537.203	1	8
537.543	1	34
537.883	1	11
538.223	1	23
538.563	1	42
538.903	1	42
539.243	1	34
539.584	1	30
539.924	1	20
540.264	1	24
540.604	1	28
540.944	1	31
541.284	1	35
541.624	1	29
541.964	1	22
542.305	1	18
542.645	1	15
542.985	1	24
543.325	1	22
543.665	1	31
544.005	1	39
544.345	1	28
544.685	1	29
545.025	1	12
545.365	1	34
545.705	1	24
546.045	1	19
546.386	1	28
546.726	1	21
547.066	1	20
547.406	1	22
547.746	1	21
548.086	1	12
548.426	1	14
548.766	1	27
549.106	1	12
549.446	1	21
549.786	1	18
550.126	1	28
550.466	1	27
550.806	1	22
551.146	1	17
551.486	1	18
551.826	1	31
552.166	1	16
552.506	1	28
552.846	1	21
553.186	1	18
553.526	1	25
553.866	1	18
554.206	1	21
554.546	1	14
554.886	1	15
555.226	1	26
555.566	1	21
555.906	1	24
556.246	1	26
556.586	1	25
556.926	1	25
557.266	1	21
557.606	1	16
557.946	1	23
558.286	1	23
558.626	1	9
558.966	1	3
559.306	1	24
559.646	1	17
559.986	1	17
560.325	1	13
560.665	1	17
561.005	1	14
561.345	1	18
561.685	1	17
562.025	1	18
562.365	1	20
562.705	1	18
563.045	1	9
563.385	1	16
563.725	1	12
564.064	1	21
564.404	1	7
564.744	1	12
565.084	1	21
565.424	1	14
565.764	1	18
566.104	1	8
566.444	1	24
566.783	1	23
567.123	1	8
567.463	1	17
567.803	1	18
568.143	1	24
568.483	1	7
568.823	1	-3
569.162	1	12
569.502	1	4
569.842	1	7
570.182	1	13
570.522	1	1
570.862	1	29
571.201	1	11
571.541	1	-1
571.881	1	9
572.221	1	13
572.561	1	10
572.900	1	21
573.240	1	7
573.580	1	16
573.920	1	18
574.260	1	15
574.599	1	10
574.939	1	20
575.279	1	5
575.619	1	16
575.959	1	12
576.298	1	6
576.638	1	11
576.978	1	-3
577.318	1	7
577.657	1	22
577.997	1	10
578.337	1	5
578.677	1	16
579.016	1	12
579.356	1	15
579.696	1	10
580.036	1	10
580.375	1	3
580.715	1	11
581.055	1	19
581.394	1	3
581.734	1	6
582.074	1	4
582.414	1	7
582.753	1	14
583.093	1	8
583.433	1	16
583.772	1	14
584.112	1	11
584.452	1	28
584.791	1	11
585.131	1	13
585.471	1	3
585.811	1	9
586.150	1	19
586.490	1	8
586.830	1	0
587.169	1	16
587.509	1	8
587.849	1	12
588.188	1	12
588.528	1	24
588.867	1	3
589.207	1	6
589.547	1	1
589.886	1	11
590.226	1	22
590.566	1	15
590.905	1	8
591.245	1	7
591.585	1	7
591.924	1	11
592.264	1	4
592.603	1	7
592.943	1	1
593.283	1	-6
593.622	1	14
593.962	1	11
594.301	1	-5
594.641	1	9
594.981	1	-3
595.320	1	6
595.660	1	5
595.999	1	10
596.339	1	15
596.678	1	-1
597.018	1	6
597.358	1	-1
597.697	1	-5
598.037	1	6
598.376	1	-2
598.716	1	12
599.055	1	8
599.395	1	-2
599.734	1	5
600.074	1	16
600.413	1	10
600.753	1	0
601.092	1	8
601.432	1	-5
601.771	1	11
602.111	1	0
602.451	1	7
602.790	1	3
603.130	1	15
603.469	1	3
603.809	1	3
604.148	1	10
604.487	1	8
604.827	1	1
605.166	1	10
605.506	1	15
605.845	1	-1
606.185	1	6
606.524	1	7
606.864	1	16
607.203	1	0
607.543	1	11
607.882	1	12
608.222	1	-1
608.561	1	1
608.901	1	10
609.240	1	-2
609.579	1	11
609.919	1	16
610.258	1	-1
610.598	1	4
610.937	1	15
611.277	1	8
611.616	1	2
611.955	1	-2
612.295	1	9
612.634	1	8
612.974	1	5
613.313	1	7
613.652	1	-2
613.992	1	9
614.331	1	6
614.671	1	15
615.010	1	2
615.349	1	4
615.689	1	2
616.028	1	21
616.368	1	16
616.707	1	13
617.046	1	15
617.386	1	2
617.725	1	0
618.064	1	8
618.404	1	-5
618.743	1	7
619.082	1	2
619.422	1	3
619.761	1	16
620.100	1	-1
620.440	1	-2
620.779	1	4
621.118	1	15
621.458	1	3
621.797	1	-2
622.136	1	12
622.476	1	12
622.815	1	9
623.154	1	-1
623.494	1	3
623.833	1	6
624.172	1	3
624.511	1	12
624.851	1	-1
625.190	1	-1
625.529	1	3
625.869	1	13
626.208	1	0
626.547	1	11
626.886	1	-9
627.226	1	2
627.565	1	1
627.904	1	5
628.243	1	8
628.583	1	-12
628.922	1	-3
629.261	1	4
629.600	1	10
629.940	1	10
630.279	1	15
630.618	1	9
630.957	1	5
631.297	1	7
631.636	1	4
631.975	1	6
632.314	1	0
632.653	1	0
632.993	1	-3
633.332	1	-2
633.671	1	-1
634.010	1	2
634.349	1	-2
634.689	1	11
635.028	1	9
635.367	1	14
635.706	1	10
636.045	1	10
636.384	1	10
636.724	1	8
637.063	1	9
637.402	1	5
637.741	1	10
638.080	1	9
638.419	1	9
638.759	1	6
639.098	1	6
639.437	1	19
639.776	1	1
640.115	1	3
640.454	1	10
640.793	1	-6
641.132	1	15
641.472	1	8
641.811	1	0
642.150	1	-10
642.489	1	-5
642.828	1	2
643.167	1	6
643.506	1	12
643.845	1	-7
644.184	1	-6
644.524	1	12
644.863	1	2
645.202	1	5
645.541	1	-3
645.880	1	8
646.219	1	5
646.558	1	-3
646.897	1	-1
647.236	1	-3
647.575	1	2
647.914	1	3
648.253	1	2
648.592	1	0
648.931	1	-4
649.270	1	-7
649.610	1	-2
649.949	1	9
650.288	1	4
650.627	1	5
650.966	1	5
651.305	1	-4
651.644	1	4
651.983	1	-3
652.322	1	3
652.661	1	7
653.000	1	-3
653.339	1	6
653.678	1	-1
654.017	1	4
654.356	1	-1
654.695	1	-1
655.034	1	3
655.373	1	1
655.712	1	12
656.051	1	9
656.390	1	0
656.729	1	1
657.068	1	2
657.406	1	11
657.745	1	3
658.084	1	3
658.423	1	5
658.762	1	13
659.101	1	2
659.440	1	2
659.779	1	11
660.118	1	-2
660.457	1	2
660.796	1	11
661.135	1	17
661.474	1	0
661.813	1	0
662.152	1	9
662.491	1	19
662.829	1	8
663.168	1	5
663.507	1	7
663.846	1	-3
664.185	1	4
664.524	1	-3
664.863	1	14
665.202	1	-6
665.541	1	4
665.879	1	0
666.218	1	1
666.557	1	-1
666.896	1	5
667.235	1	10
667.574	1	13
667.913	1	4
668.251	1	2
668.590	1	6
668.929	1	10
669.268	1	5
669.607	1	-2
669.946	1	9
670.285	1	8
670.623	1	16
670.962	1	0
671.301	1	6
671.640	1	-1
671.979	1	0
672.317	1	1
672.656	1	5
672.995	1	4
673.334	1	-3
673.673	1	10
674.011	1	0
674.350	1	0
674.689	1	8
675.028	1	11
675.367	1	-1
675.705	1	18
676.044	1	9
676.383	1	11
676.722	1	6
677.060	1	1
677.399	1	5
677.738	1	-2
678.077	1	9
678.416	1	10
678.754	1	11
679.093	1	6
679.432	1	4
679.771	1	6
680.109	1	5
680.448	1	6
680.787	1	5
681.125	1	2
681.464	1	-1
681.803	1	-5
682.142	1	-4
682.480	1	14
682.819	1	-1
683.158	1	7
683.496	1	5
683.835	1	-7
684.174	1	11
684.512	1	5
684.851	1	-3
685.190	1	3
685.529	1	-2
685.867	1	5
686.206	1	9
686.545	1	4
686.883	1	3
687.222	1	10
687.561	1	16
687.899	1	1
688.238	1	13
688.577	1	2
688.746	1	6