File: Data/GaN_130K_350ms/GaN_sample F_spot6_UVVIS_130 K_200um_350 ms 2x2mm1_107.txt
340.368	1	-1
340.710	1	7
341.052	1	-8
341.394	1	5
341.737	1	10
342.079	1	7
342.421	1	9
342.763	1	-1
343.105	1	6
343.447	1	1
343.789	1	6
344.131	1	-1
344.473	1	-3
344.815	1	-2
345.157	1	-4
345.499	1	-5
345.841	1	-1
346.183	1	4
346.526	1	8
346.868	1	4
347.210	1	3
347.552	1	4
347.894	1	6
348.236	1	-3
348.578	1	-2
348.920	1	9
349.262	1	9
349.604	1	5
349.946	1	9
350.288	1	-7
350.630	1	5
350.972	1	11
351.314	1	-3
351.656	1	13
351.998	1	3
352.340	1	12
352.682	1	3
353.024	1	5
353.366	1	14
353.708	1	4
354.050	1	13
354.392	1	9
354.734	1	10
355.076	1	4
355.418	1	13
355.760	1	9
356.102	1	4
356.444	1	-2
356.785	1	15
357.127	1	8
357.469	1	7
357.811	1	15
358.153	1	11
358.495	1	24
358.837	1	14
359.179	1	16
359.521	1	9
359.863	1	23
360.205	1	22
360.547	1	20
360.889	1	27
361.231	1	13
361.572	1	53
361.914	1	41
362.256	1	36
362.598	1	39
362.940	1	42
363.282	1	49
363.624	1	54
363.966	1	60
364.308	1	62
364.649	1	65
364.991	1	70
365.333	1	66
365.675	1	74
366.017	1	85
366.359	1	104
366.701	1	87
367.042	1	99
367.384	1	89
367.726	1	99
368.068	1	89
368.410	1	94
368.752	1	98
369.093	1	91
369.435	1	91
369.777	1	87
370.119	1	94
370.461	1	80
370.803	1	79
371.144	1	77
371.486	1	80
371.828	1	69
372.170	1	55
372.512	1	67
372.853	1	53
373.195	1	63
373.537	1	68
373.879	1	64
374.220	1	51
374.562	1	42
374.904	1	52
375.246	1	49
375.588	1	41
375.929	1	35
376.271	1	45
376.613	1	29
376.955	1	44
377.296	1	27
377.638	1	28
377.980	1	25
378.321	1	23
378.663	1	26
379.005	1	53
379.347	1	35
379.688	1	30
380.030	1	26
380.372	1	26
380.714	1	33
381.055	1	32
381.397	1	33
381.739	1	26
382.080	1	15
382.422	1	40
382.764	1	20
383.105	1	26
383.447	1	25
383.789	1	43
384.130	1	32
384.472	1	30
384.814	1	16
385.156	1	11
385.497	1	28
385.839	1	25
386.180	1	34
386.522	1	22
386.864	1	25
387.205	1	20
387.547	1	16
387.889	1	5
388.230	1	18
388.572	1	20
388.914	1	20
389.255	1	20
389.597	1	10
389.939	1	15
390.280	1	24
390.622	1	19
390.963	1	22
391.305	1	21
391.647	1	25
391.988	1	32
392.330	1	19
392.671	1	8
393.013	1	31
393.355	1	15
393.696	1	13
394.038	1	25
394.379	1	25
394.721	1	14
395.062	1	9
395.404	1	2
395.746	1	17
396.087	1	23
396.429	1	14
396.770	1	20
397.112	1	17
397.453	1	17
397.795	1	2
398.136	1	14
398.478	1	10
398.819	1	0
399.161	1	21
399.503	1	25
399.844	1	5
400.186	1	10
400.527	1	15
400.869	1	22
401.210	1	-2
401.552	1	22
401.893	1	-1
402.235	1	16
402.576	1	12
402.918	1	17
403.259	1	5
403.601	1	12
403.942	1	10
404.284	1	13
404.625	1	21
404.967	1	11
405.308	1	6
405.649	1	8
405.991	1	15
406.332	1	14
406.674	1	16
407.015	1	10
407.357	1	22
407.698	1	6
408.040	1	10
408.381	1	13
408.722	1	15
409.064	1	19
409.405	1	10
409.747	1	6
410.088	1	27
410.430	1	23
410.771	1	-1
411.112	1	18
411.454	1	12
411.795	1	9
412.137	1	5
412.478	1	12
412.819	1	7
413.161	1	16
413.502	1	16
413.844	1	11
414.185	1	13
414.526	1	6
414.868	1	2
415.209	1	2
415.550	1	13
415.892	1	12
416.233	1	15
416.575	1	12
416.916	1	8
417.257	1	8
417.599	1	5
417.940	1	18
418.281	1	6
418.623	1	8
418.964	1	10
419.305	1	6
419.647	1	20
419.988	1	22
420.329	1	7
420.671	1	2
421.012	1	10
421.353	1	9
421.695	1	5
422.036	1	13
422.377	1	15
422.718	1	13
423.060	1	19
423.401	1	11
423.742	1	5
424.084	1	11
424.425	1	10
424.766	1	18
425.107	1	2
425.449	1	12
425.790	1	13
426.131	1	19
426.472	1	2
426.814	1	16
427.155	1	9
427.496	1	2
427.837	1	15
428.179	1	15
428.520	1	25
428.861	1	13
429.202	1	5
429.544	1	12
429.885	1	2
430.226	1	10
430.567	1	5
430.909	1	4
431.250	1	11
431.591	1	0
431.932	1	6
432.273	1	15
432.615	1	14
432.956	1	3
433.297	1	14
433.638	1	5
433.979	1	6
434.320	1	13
434.662	1	10
435.003	1	17
435.344	1	3
435.685	1	-10
436.026	1	5
436.368	1	-4
436.709	1	0
437.050	1	8
437.391	1	14
437.732	1	7
438.073	1	11
438.414	1	6
438.756	1	4
439.097	1	5
439.438	1	10
439.779	1	12
440.120	1	4
440.461	1	16
440.802	1	3
441.143	1	-8
441.485	1	11
441.826	1	13
442.167	1	15
442.508	1	4
442.849	1	6
443.190	1	4
443.531	1	4
443.872	1	14
444.213	1	4
444.554	1	12
444.895	1	-5
445.237	1	0
445.578	1	2
445.919	1	2
446.260	1	12
446.601	1	9
446.942	1	13
447.283	1	5
447.624	1	4
447.965	1	6
448.306	1	4
448.647	1	14
448.988	1	14
449.329	1	10
449.670	1	1
450.011	1	-3
450.352	1	6
450.693	1	-1
451.034	1	3
451.375	1	12
451.716	1	-3
452.057	1	11
452.398	1	-15
452.739	1	7
453.080	1	3
453.421	1	19
453.762	1	13
454.103	1	8
454.444	1	5
454.785	1	14
455.126	1	3
455.467	1	3
455.808	1	12
456.149	1	-2
456.490	1	3
456.831	1	11
457.172	1	9
457.513	1	-2
457.854	1	12
458.195	1	-2
458.536	1	7
458.877	1	29
459.218	1	13
459.559	1	8
459.899	1	5
460.240	1	11
460.581	1	4
460.922	1	6
461.263	1	13
461.604	1	-1
461.945	1	14
462.286	1	10
462.627	1	-1
462.968	1	8
463.309	1	16
463.649	1	0
463.990	1	-2
464.331	1	12
464.672	1	13
465.013	1	8
465.354	1	12
465.695	1	15
466.036	1	6
466.376	1	8
466.717	1	12
467.058	1	11
467.399	1	1
467.740	1	10
468.081	1	12
468.422	1	13
468.762	1	2
469.103	1	11
469.444	1	0
469.785	1	8
470.126	1	3
470.467	1	10
470.807	1	9
471.148	1	8
471.489	1	2
471.830	1	11
472.171	1	12
472.511	1	6
472.852	1	9
473.193	1	15
473.534	1	9
473.875	1	20
474.215	1	3
474.556	1	14
474.897	1	3
475.238	1	14
475.578	1	4
475.919	1	8
476.260	1	16
476.601	1	6
476.942	1	13
477.282	1	8
477.623	1	1
477.964	1	-2
478.305	1	17
478.645	1	4
478.986	1	0
479.327	1	5
479.667	1	8
480.008	1	3
480.349	1	3
480.690	1	12
481.030	1	-1
481.371	1	16
481.712	1	15
482.053	1	4
482.393	1	11
482.734	1	13
483.075	1	20
483.415	1	8
483.756	1	8
484.097	1	-6
484.437	1	3
484.778	1	13
485.119	1	16
485.459	1	-1
485.800	1	8
486.141	1	16
486.481	1	0
486.822	1	19
487.163	1	3
487.503	1	5
487.844	1	9
488.185	1	13
488.525	1	10
488.866	1	10
489.207	1	-1
489.547	1	13
489.888	1	27
490.228	1	14
490.569	1	4
490.910	1	1
491.250	1	17
491.591	1	11
491.932	1	7
492.272	1	16
492.613	1	10
492.953	1	16
493.294	1	16
493.635	1	25
493.975	1	20
494.316	1	18
494.656	1	13
494.997	1	13
495.337	1	13
495.678	1	14
496.019	1	2
496.359	1	25
496.700	1	21
497.040	1	25
497.381	1	14
497.721	1	17
498.062	1	3
498.403	1	15
498.743	1	37
499.084	1	18
499.424	1	6
499.765	1	20
500.105	1	21
500.446	1	28
500.786	1	26
501.127	1	14
501.467	1	30
501.808	1	19
502.148	1	13
502.489	1	24
502.829	1	20
503.170	1	13
503.510	1	22
503.851	1	21
504.191	1	19
504.532	1	27
504.872	1	20
505.213	1	14
505.553	1	32
505.894	1	26
506.234	1	25
506.575	1	12
506.915	1	13
507.256	1	31
507.596	1	23
507.936	1	18
508.277	1	16
508.617	1	28
508.958	1	25
509.298	1	16
509.639	1	37
509.979	1	33
510.319	1	39
510.660	1	23
511.000	1	35
511.341	1	24
511.681	1	36
512.022	1	35
512.362	1	21
512.702	1	39
513.043	1	40
513.383	1	36
513.724	1	30
514.064	1	24
514.404	1	40
514.745	1	24
515.085	1	37
515.425	1	34
515.766	1	30
516.106	1	31
516.447	1	25
516.787	1	28
517.127	1	38
517.468	1	32
517.808	1	29
518.148	1	42
518.489	1	41
518.829	1	44
519.169	1	40
519.510	1	35
519.850	1	45
520.190	1	41
520.531	1	50
520.871	1	46
521.211	1	44
521.552	1	32
521.892	1	35
522.232	1	33
522.573	1	37
522.913	1	34
523.253	1	35
523.593	1	48
523.934	1	32
524.274	1	29
524.614	1	38
524.955	1	32
525.295	1	34
525.635	1	36
525.975	1	50
526.316	1	34
526.656	1	36
526.996	1	39
527.337	1	46
527.677	1	30
528.017	1	37
528.357	1	48
528.698	1	35
529.038	1	37
529.378	1	45
529.718	1	45
530.058	1	48
530.399	1	39
530.739	1	41
531.079	1	44
531.419	1	51
531.760	1	33
532.100	1	41
532.440	1	44
532.780	1	37
533.120	1	42
533.461	1	34
533.801	1	43
534.141	1	37
534.481	1	30
534.821	1	54
535.162	1	42
535.502	1	48
535.842	1	43
536.182	1	46
536.522	1	38
536.862	1	38
537.203	1	29
537.543	1	45
537.883	1	30
538.223	1	46
538.563	1	45
538.903	1	45
539.243	1	39
539.584	1	33
539.924	1	34
540.264	1	27
540.604	1	36
540.944	1	41
541.284	1	41
541.624	1	47
541.964	1	27
542.305	1	38
542.645	1	30
542.985	1	42
543.325	1	34
543.665	1	36
544.005	1	38
544.345	1	36
544.685	1	44
545.025	1	24
545.365	1	42
545.705	1	26
546.045	1	34
546.386	1	29
546.726	1	30
547.066	1	27
547.406	1	22
547.746	1	33
548.086	1	22
548.426	1	40
548.766	1	37
549.106	1	31
549.446	1	31
549.786	1	40
550.126	1	34
550.466	1	38
550.806	1	27
551.146	1	34
551.486	1	32
551.826	1	27
552.166	1	35
552.506	1	28
552.846	1	29
553.186	1	28
553.526	1	29
553.866	1	26
554.206	1	26
554.546	1	33
554.886	1	24
555.226	1	37
555.566	1	34
555.906	1	29
556.246	1	33
556.586	1	34
556.926	1	21
557.266	1	30
557.606	1	26
557.946	1	25
558.286	1	32
558.626	1	20
558.966	1	32
559.306	1	18
559.646	1	27
559.986	1	22
560.325	1	26
560.665	1	32
561.005	1	27
561.345	1	27
561.685	1	27
562.025	1	15
562.365	1	21
562.705	1	12
563.045	1	18
563.385	1	21
563.725	1	16
564.064	1	20
564.404	1	16
564.744	1	22
565.084	1	19
565.424	1	25
565.764	1	27
566.104	1	15
566.444	1	31
566.783	1	24
567.123	1	19
567.463	1	18
567.803	1	19
568.143	1	28
568.483	1	14
568.823	1	10
569.162	1	17
569.502	1	21
569.842	1	22
570.182	1	20
570.522	1	5
570.862	1	25
571.201	1	24
571.541	1	17
571.881	1	18
572.221	1	23
572.561	1	17
572.900	1	8
573.240	1	11
573.580	1	19
573.920	1	24
574.260	1	6
574.599	1	28
574.939	1	23
575.279	1	4
575.619	1	17
575.959	1	15
576.298	1	3
576.638	1	7
576.978	1	11
577.318	1	18
577.657	1	23
577.997	1	10
578.337	1	7
578.677	1	16
579.016	1	14
579.356	1	15
579.696	1	0
580.036	1	4
580.375	1	11
580.715	1	17
581.055	1	16
581.394	1	11
581.734	1	19
582.074	1	3
582.414	1	8
582.753	1	11
583.093	1	11
583.433	1	12
583.772	1	16
584.112	1	15
584.452	1	11
584.791	1	18
585.131	1	17
585.471	1	10
585.811	1	9
586.150	1	12
586.490	1	1
586.830	1	-4
587.169	1	14
587.509	1	15
587.849	1	11
588.188	1	15
588.528	1	16
588.867	1	17
589.207	1	1
589.547	1	6
589.886	1	2
590.226	1	20
590.566	1	9
590.905	1	12
591.245	1	10
591.585	1	12
591.924	1	9
592.264	1	8
592.603	1	5
592.943	1	5
593.283	1	9
593.622	1	14
593.962	1	10
594.301	1	10
594.641	1	13
594.981	1	-1
595.320	1	11
595.660	1	6
595.999	1	18
596.339	1	21
596.678	1	4
597.018	1	9
597.358	1	6
597.697	1	6
598.037	1	13
598.376	1	6
598.716	1	10
599.055	1	4
599.395	1	3
599.734	1	2
600.074	1	8
600.413	1	14
600.753	1	4
601.092	1	12
601.432	1	6
601.771	1	11
602.111	1	8
602.451	1	17
602.790	1	13
603.130	1	9
603.469	1	6
603.809	1	9
604.148	1	13
604.487	1	16
604.827	1	11
605.166	1	10
605.506	1	13
605.845	1	-5
606.185	1	8
606.524	1	3
606.864	1	19
607.203	1	-3
607.543	1	11
607.882	1	10
608.222	1	-3
608.561	1	2
608.901	1	14
609.240	1	0
609.579	1	15
609.919	1	15
610.258	1	3
610.598	1	0
610.937	1	2
611.277	1	14
611.616	1	3
611.955	1	7
612.295	1	11
612.634	1	11
612.974	1	8
613.313	1	0
613.652	1	0
613.992	1	11
614.331	1	7
614.671	1	9
615.010	1	-1
615.349	1	10
615.689	1	13
616.028	1	11
616.368	1	2
616.707	1	12
617.046	1	12
617.386	1	10
617.725	1	10
618.064	1	5
618.404	1	-5
618.743	1	12
619.082	1	2
619.422	1	12
619.761	1	7
620.100	1	8
620.440	1	11
620.779	1	3
621.118	1	12
621.458	1	12
621.797	1	1
622.136	1	12
622.476	1	13
622.815	1	7
623.154	1	4
623.494	1	13
623.833	1	11
624.172	1	13
624.511	1	7
624.851	1	7
625.190	1	2
625.529	1	0
625.869	1	10
626.208	1	5
626.547	1	4
626.886	1	7
627.226	1	4
627.565	1	6
627.904	1	19
628.243	1	8
628.583	1	-7
628.922	1	-5
629.261	1	3
629.600	1	10
629.940	1	16
630.279	1	17
630.618	1	1
630.957	1	7
631.297	1	4
631.636	1	13
631.975	1	7
632.314	1	7
632.653	1	8
632.993	1	13
633.332	1	9
633.671	1	2
634.010	1	-4
634.349	1	11
634.689	1	10
635.028	1	5
635.367	1	10
635.706	1	-3
636.045	1	17
636.384	1	6
636.724	1	9
637.063	1	8
637.402	1	1
637.741	1	3
638.080	1	17
638.419	1	9
638.759	1	-1
639.098	1	4
639.437	1	8
639.776	1	-7
640.115	1	11
640.454	1	3
640.793	1	-5
641.132	1	15
641.472	1	7
641.811	1	9
642.150	1	1
642.489	1	4
642.828	1	5
643.167	1	8
643.506	1	14
643.845	1	-9
644.184	1	2
644.524	1	-9
644.863	1	2
645.202	1	14
645.541	1	13
645.880	1	17
646.219	1	1
646.558	1	3
646.897	1	3
647.236	1	-3
647.575	1	-3
647.914	1	5
648.253	1	3
648.592	1	-3
648.931	1	1
649.270	1	-8
649.610	1	3
649.949	1	0
650.288	1	9
650.627	1	13
650.966	1	14
651.305	1	9
651.644	1	-4
651.983	1	-12
652.322	1	1
652.661	1	7
653.000	1	3
653.339	1	4
653.678	1	-8
654.017	1	-2
654.356	1	11
654.695	1	14
655.034	1	10
655.373	1	3
655.712	1	-1
656.051	1	1
656.390	1	6
656.729	1	5
657.068	1	4
657.406	1	4
657.745	1	4
658.084	1	-5
658.423	1	-2
658.762	1	15
659.101	1	3
659.440	1	-7
659.779	1	11
660.118	1	6
660.457	1	4
660.796	1	7
661.135	1	8
661.474	1	2
661.813	1	2
662.152	1	1
662.491	1	19
662.829	1	3
663.168	1	-6
663.507	1	3
663.846	1	9
664.185	1	1
664.524	1	-1
664.863	1	10
665.202	1	5
665.541	1	5
665.879	1	4
666.218	1	0
666.557	1	2
666.896	1	5
667.235	1	12
667.574	1	10
667.913	1	5
668.251	1	-4
668.590	1	1
668.929	1	14
669.268	1	5
669.607	1	-7
669.946	1	6
670.285	1	15
670.623	1	16
670.962	1	-4
671.301	1	9
671.640	1	2
671.979	1	11
672.317	1	7
672.656	1	-1
672.995	1	7
673.334	1	-10
673.673	1	5
674.011	1	7
674.350	1	4
674.689	1	5
675.028	1	15
675.367	1	1
675.705	1	11
676.044	1	3
676.383	1	-2
676.722	1	-6
677.060	1	-5
677.399	1	3
677.738	1	1
678.077	1	6
678.416	1	2
678.754	1	7
679.093	1	5
679.432	1	8
679.771	1	5
680.109	1	-1
680.448	1	4
680.787	1	13
681.125	1	10
681.464	1	-3
681.803	1	7
682.142	1	2
682.480	1	17
682.819	1	13
683.158	1	4
683.496	1	2
683.835	1	4
684.174	1	11
684.512	1	14
684.851	1	-1
685.190	1	10
685.529	1	-7
685.867	1	15
686.206	1	3
686.545	1	0
686.883	1	0
687.222	1	1
687.561	1	14
687.899	1	3
688.238	1	18
688.577	1	2
688.746	1	10