File: Data/GaN_130K_350ms/GaN_sample F_spot6_UVVIS_130 K_200um_350 ms 2x2mm1_176.txt
340.368	1	2
340.710	1	14
341.052	1	-3
341.394	1	-4
341.737	1	9
342.079	1	-1
342.421	1	-1
342.763	1	2
343.105	1	1
343.447	1	13
343.789	1	1
344.131	1	7
344.473	1	4
344.815	1	-3
345.157	1	-3
345.499	1	-7
345.841	1	1
346.183	1	3
346.526	1	5
346.868	1	0
347.210	1	4
347.552	1	-1
347.894	1	1
348.236	1	3
348.578	1	-3
348.920	1	7
349.262	1	13
349.604	1	14
349.946	1	1
350.288	1	-2
350.630	1	12
350.972	1	11
351.314	1	3
351.656	1	7
351.998	1	-4
352.340	1	8
352.682	1	6
353.024	1	-5
353.366	1	15
353.708	1	5
354.050	1	7
354.392	1	6
354.734	1	-8
355.076	1	9
355.418	1	14
355.760	1	8
356.102	1	5
356.444	1	4
356.785	1	18
357.127	1	6
357.469	1	1
357.811	1	1
358.153	1	10
358.495	1	6
358.837	1	-5
359.179	1	6
359.521	1	5
359.863	1	7
360.205	1	5
360.547	1	5
360.889	1	3
361.231	1	7
361.572	1	16
361.914	1	6
362.256	1	8
362.598	1	11
362.940	1	6
363.282	1	23
363.624	1	16
363.966	1	29
364.308	1	20
364.649	1	23
364.991	1	17
365.333	1	12
365.675	1	17
366.017	1	22
366.359	1	21
366.701	1	20
367.042	1	22
367.384	1	28
367.726	1	26
368.068	1	11
368.410	1	17
368.752	1	27
369.093	1	24
369.435	1	20
369.777	1	19
370.119	1	26
370.461	1	21
370.803	1	19
371.144	1	18
371.486	1	17
371.828	1	19
372.170	1	18
372.512	1	22
372.853	1	5
373.195	1	18
373.537	1	11
373.879	1	18
374.220	1	12
374.562	1	2
374.904	1	13
375.246	1	24
375.588	1	12
375.929	1	2
376.271	1	13
376.613	1	-1
376.955	1	20
377.296	1	4
377.638	1	5
377.980	1	6
378.321	1	8
378.663	1	13
379.005	1	18
379.347	1	15
379.688	1	11
380.030	1	7
380.372	1	23
380.714	1	20
381.055	1	9
381.397	1	5
381.739	1	20
382.080	1	-1
382.422	1	25
382.764	1	14
383.105	1	8
383.447	1	7
383.789	1	13
384.130	1	17
384.472	1	15
384.814	1	2
385.156	1	5
385.497	1	2
385.839	1	8
386.180	1	9
386.522	1	9
386.864	1	17
387.205	1	7
387.547	1	17
387.889	1	1
388.230	1	9
388.572	1	6
388.914	1	4
389.255	1	3
389.597	1	-4
389.939	1	8
390.280	1	23
390.622	1	8
390.963	1	15
391.305	1	1
391.647	1	11
391.988	1	2
392.330	1	2
392.671	1	0
393.013	1	7
393.355	1	15
393.696	1	1
394.038	1	14
394.379	1	14
394.721	1	17
395.062	1	6
395.404	1	-1
395.746	1	12
396.087	1	6
396.429	1	9
396.770	1	8
397.112	1	12
397.453	1	9
397.795	1	0
398.136	1	4
398.478	1	9
398.819	1	-7
399.161	1	1
399.503	1	18
399.844	1	2
400.186	1	-6
400.527	1	21
400.869	1	9
401.210	1	5
401.552	1	14
401.893	1	3
402.235	1	11
402.576	1	4
402.918	1	11
403.259	1	2
403.601	1	19
403.942	1	11
404.284	1	0
404.625	1	13
404.967	1	1
405.308	1	9
405.649	1	9
405.991	1	3
406.332	1	10
406.674	1	12
407.015	1	7
407.357	1	10
407.698	1	6
408.040	1	15
408.381	1	13
408.722	1	10
409.064	1	6
409.405	1	9
409.747	1	1
410.088	1	14
410.430	1	21
410.771	1	-11
411.112	1	14
411.454	1	1
411.795	1	11
412.137	1	-1
412.478	1	8
412.819	1	8
413.161	1	9
413.502	1	17
413.844	1	8
414.185	1	3
414.526	1	13
414.868	1	-1
415.209	1	3
415.550	1	5
415.892	1	8
416.233	1	17
416.575	1	0
416.916	1	-2
417.257	1	6
417.599	1	-4
417.940	1	8
418.281	1	8
418.623	1	6
418.964	1	8
419.305	1	6
419.647	1	10
419.988	1	14
420.329	1	9
420.671	1	0
421.012	1	10
421.353	1	3
421.695	1	6
422.036	1	13
422.377	1	8
422.718	1	5
423.060	1	8
423.401	1	8
423.742	1	7
424.084	1	11
424.425	1	-7
424.766	1	6
425.107	1	7
425.449	1	11
425.790	1	13
426.131	1	18
426.472	1	9
426.814	1	13
427.155	1	-6
427.496	1	5
427.837	1	7
428.179	1	7
428.520	1	14
428.861	1	6
429.202	1	17
429.544	1	14
429.885	1	6
430.226	1	8
430.567	1	15
430.909	1	10
431.250	1	8
431.591	1	4
431.932	1	7
432.273	1	5
432.615	1	21
432.956	1	-5
433.297	1	16
433.638	1	3
433.979	1	2
434.320	1	3
434.662	1	15
435.003	1	13
435.344	1	5
435.685	1	-14
436.026	1	4
436.368	1	10
436.709	1	10
437.050	1	11
437.391	1	20
437.732	1	12
438.073	1	12
438.414	1	-3
438.756	1	6
439.097	1	13
439.438	1	5
439.779	1	9
440.120	1	-1
440.461	1	21
440.802	1	-13
441.143	1	2
441.485	1	11
441.826	1	6
442.167	1	12
442.508	1	4
442.849	1	3
443.190	1	0
443.531	1	6
443.872	1	11
444.213	1	5
444.554	1	8
444.895	1	-2
445.237	1	6
445.578	1	0
445.919	1	1
446.260	1	7
446.601	1	5
446.942	1	2
447.283	1	10
447.624	1	5
447.965	1	1
448.306	1	5
448.647	1	22
448.988	1	13
449.329	1	3
449.670	1	1
450.011	1	0
450.352	1	6
450.693	1	3
451.034	1	-5
451.375	1	12
451.716	1	-7
452.057	1	12
452.398	1	-2
452.739	1	8
453.080	1	2
453.421	1	6
453.762	1	12
454.103	1	-3
454.444	1	11
454.785	1	10
455.126	1	-4
455.467	1	6
455.808	1	9
456.149	1	0
456.490	1	7
456.831	1	2
457.172	1	2
457.513	1	-4
457.854	1	-4
458.195	1	-5
458.536	1	9
458.877	1	29
459.218	1	6
459.559	1	-3
459.899	1	-2
460.240	1	14
460.581	1	2
460.922	1	6
461.263	1	7
461.604	1	-11
461.945	1	13
462.286	1	18
462.627	1	-6
462.968	1	7
463.309	1	2
463.649	1	-2
463.990	1	6
464.331	1	9
464.672	1	6
465.013	1	-1
465.354	1	1
465.695	1	8
466.036	1	7
466.376	1	2
466.717	1	6
467.058	1	-1
467.399	1	-5
467.740	1	12
468.081	1	16
468.422	1	9
468.762	1	2
469.103	1	8
469.444	1	1
469.785	1	10
470.126	1	-8
470.467	1	9
470.807	1	1
471.148	1	2
471.489	1	-2
471.830	1	5
472.171	1	-4
472.511	1	6
472.852	1	14
473.193	1	10
473.534	1	4
473.875	1	13
474.215	1	0
474.556	1	5
474.897	1	-2
475.238	1	23
475.578	1	5
475.919	1	-3
476.260	1	1
476.601	1	-3
476.942	1	11
477.282	1	8
477.623	1	4
477.964	1	-6
478.305	1	11
478.645	1	-2
478.986	1	-9
479.327	1	-7
479.667	1	7
480.008	1	5
480.349	1	7
480.690	1	1
481.030	1	4
481.371	1	6
481.712	1	10
482.053	1	3
482.393	1	5
482.734	1	6
483.075	1	17
483.415	1	6
483.756	1	0
484.097	1	-3
484.437	1	7
484.778	1	9
485.119	1	7
485.459	1	-12
485.800	1	12
486.141	1	7
486.481	1	1
486.822	1	16
487.163	1	-3
487.503	1	-2
487.844	1	1
488.185	1	8
488.525	1	19
488.866	1	4
489.207	1	1
489.547	1	9
489.888	1	6
490.228	1	2
490.569	1	-3
490.910	1	3
491.250	1	11
491.591	1	6
491.932	1	0
492.272	1	5
492.613	1	1
492.953	1	0
493.294	1	8
493.635	1	2
493.975	1	17
494.316	1	3
494.656	1	7
494.997	1	5
495.337	1	8
495.678	1	1
496.019	1	6
496.359	1	6
496.700	1	1
497.040	1	12
497.381	1	6
497.721	1	7
498.062	1	-5
498.403	1	1
498.743	1	15
499.084	1	17
499.424	1	3
499.765	1	-2
500.105	1	9
500.446	1	10
500.786	1	13
501.127	1	10
501.467	1	-1
501.808	1	9
502.148	1	7
502.489	1	12
502.829	1	5
503.170	1	-6
503.510	1	12
503.851	1	-1
504.191	1	7
504.532	1	8
504.872	1	4
505.213	1	5
505.553	1	5
505.894	1	-1
506.234	1	3
506.575	1	3
506.915	1	4
507.256	1	15
507.596	1	5
507.936	1	-3
508.277	1	-1
508.617	1	8
508.958	1	-1
509.298	1	0
509.639	1	8
509.979	1	5
510.319	1	29
510.660	1	-1
511.000	1	9
511.341	1	2
511.681	1	9
512.022	1	13
512.362	1	4
512.702	1	19
513.043	1	9
513.383	1	10
513.724	1	0
514.064	1	5
514.404	1	14
514.745	1	3
515.085	1	10
515.425	1	3
515.766	1	14
516.106	1	1
516.447	1	7
516.787	1	15
517.127	1	5
517.468	1	8
517.808	1	7
518.148	1	9
518.489	1	12
518.829	1	5
519.169	1	6
519.510	1	5
519.850	1	21
520.190	1	19
520.531	1	15
520.871	1	4
521.211	1	17
521.552	1	7
521.892	1	19
522.232	1	-4
522.573	1	-5
522.913	1	13
523.253	1	15
523.593	1	7
523.934	1	6
524.274	1	-4
524.614	1	15
524.955	1	13
525.295	1	15
525.635	1	2
525.975	1	13
526.316	1	0
526.656	1	10
526.996	1	6
527.337	1	12
527.677	1	2
528.017	1	10
528.357	1	12
528.698	1	-3
529.038	1	4
529.378	1	16
529.718	1	20
530.058	1	4
530.399	1	12
530.739	1	12
531.079	1	10
531.419	1	12
531.760	1	0
532.100	1	9
532.440	1	13
532.780	1	5
533.120	1	10
533.461	1	4
533.801	1	20
534.141	1	9
534.481	1	4
534.821	1	14
535.162	1	5
535.502	1	5
535.842	1	10
536.182	1	6
536.522	1	5
536.862	1	10
537.203	1	1
537.543	1	8
537.883	1	1
538.223	1	16
538.563	1	16
538.903	1	22
539.243	1	14
539.584	1	9
539.924	1	2
540.264	1	-1
540.604	1	10
540.944	1	8
541.284	1	8
541.624	1	17
541.964	1	2
542.305	1	11
542.645	1	3
542.985	1	9
543.325	1	6
543.665	1	14
544.005	1	14
544.345	1	9
544.685	1	12
545.025	1	12
545.365	1	12
545.705	1	6
546.045	1	12
546.386	1	1
546.726	1	3
547.066	1	18
547.406	1	9
547.746	1	14
548.086	1	2
548.426	1	12
548.766	1	11
549.106	1	-4
549.446	1	4
549.786	1	4
550.126	1	20
550.466	1	4
550.806	1	0
551.146	1	6
551.486	1	-3
551.826	1	12
552.166	1	6
552.506	1	12
552.846	1	-5
553.186	1	0
553.526	1	11
553.866	1	-4
554.206	1	11
554.546	1	13
554.886	1	13
555.226	1	11
555.566	1	5
555.906	1	6
556.246	1	3
556.586	1	1
556.926	1	7
557.266	1	0
557.606	1	5
557.946	1	5
558.286	1	15
558.626	1	-2
558.966	1	8
559.306	1	4
559.646	1	14
559.986	1	4
560.325	1	-2
560.665	1	7
561.005	1	6
561.345	1	3
561.685	1	12
562.025	1	11
562.365	1	8
562.705	1	10
563.045	1	-1
563.385	1	9
563.725	1	6
564.064	1	9
564.404	1	1
564.744	1	11
565.084	1	3
565.424	1	3
565.764	1	11
566.104	1	5
566.444	1	14
566.783	1	13
567.123	1	6
567.463	1	-1
567.803	1	16
568.143	1	17
568.483	1	13
568.823	1	-5
569.162	1	9
569.502	1	4
569.842	1	-4
570.182	1	11
570.522	1	-5
570.862	1	17
571.201	1	-1
571.541	1	2
571.881	1	6
572.221	1	7
572.561	1	7
572.900	1	6
573.240	1	1
573.580	1	-2
573.920	1	16
574.260	1	6
574.599	1	9
574.939	1	5
575.279	1	-1
575.619	1	17
575.959	1	10
576.298	1	3
576.638	1	2
576.978	1	4
577.318	1	10
577.657	1	12
577.997	1	9
578.337	1	7
578.677	1	15
579.016	1	2
579.356	1	14
579.696	1	4
580.036	1	-1
580.375	1	-1
580.715	1	15
581.055	1	9
581.394	1	12
581.734	1	11
582.074	1	9
582.414	1	3
582.753	1	1
583.093	1	-3
583.433	1	5
583.772	1	-4
584.112	1	8
584.452	1	11
584.791	1	11
585.131	1	9
585.471	1	1
585.811	1	6
586.150	1	13
586.490	1	0
586.830	1	0
587.169	1	3
587.509	1	12
587.849	1	2
588.188	1	10
588.528	1	7
588.867	1	1
589.207	1	2
589.547	1	3
589.886	1	-2
590.226	1	16
590.566	1	9
590.905	1	7
591.245	1	3
591.585	1	6
591.924	1	-3
592.264	1	-2
592.603	1	4
592.943	1	6
593.283	1	-2
593.622	1	9
593.962	1	11
594.301	1	-4
594.641	1	6
594.981	1	-3
595.320	1	13
595.660	1	-10
595.999	1	2
596.339	1	5
596.678	1	-3
597.018	1	1
597.358	1	-1
597.697	1	1
598.037	1	7
598.376	1	9
598.716	1	14
599.055	1	3
599.395	1	-9
599.734	1	7
600.074	1	8
600.413	1	10
600.753	1	9
601.092	1	8
601.432	1	0
601.771	1	4
602.111	1	6
602.451	1	-4
602.790	1	6
603.130	1	-2
603.469	1	4
603.809	1	7
604.148	1	3
604.487	1	4
604.827	1	9
605.166	1	10
605.506	1	5
605.845	1	2
606.185	1	7
606.524	1	3
606.864	1	13
607.203	1	0
607.543	1	11
607.882	1	10
608.222	1	-2
608.561	1	-3
608.901	1	17
609.240	1	-1
609.579	1	-2
609.919	1	10
610.258	1	-2
610.598	1	13
610.937	1	8
611.277	1	12
611.616	1	-6
611.955	1	0
612.295	1	9
612.634	1	2
612.974	1	7
613.313	1	9
613.652	1	-9
613.992	1	5
614.331	1	-1
614.671	1	5
615.010	1	-2
615.349	1	5
615.689	1	11
616.028	1	12
616.368	1	8
616.707	1	7
617.046	1	4
617.386	1	0
617.725	1	4
618.064	1	5
618.404	1	-2
618.743	1	11
619.082	1	-2
619.422	1	3
619.761	1	7
620.100	1	-4
620.440	1	1
620.779	1	8
621.118	1	3
621.458	1	3
621.797	1	-3
622.136	1	-2
622.476	1	11
622.815	1	-7
623.154	1	5
623.494	1	6
623.833	1	15
624.172	1	-1
624.511	1	-2
624.851	1	10
625.190	1	0
625.529	1	3
625.869	1	11
626.208	1	3
626.547	1	-1
626.886	1	2
627.226	1	0
627.565	1	2
627.904	1	2
628.243	1	12
628.583	1	1
628.922	1	-6
629.261	1	-5
629.600	1	3
629.940	1	12
630.279	1	13
630.618	1	2
630.957	1	7
631.297	1	4
631.636	1	6
631.975	1	-3
632.314	1	-3
632.653	1	2
632.993	1	9
633.332	1	0
633.671	1	-6
634.010	1	-10
634.349	1	6
634.689	1	18
635.028	1	15
635.367	1	-1
635.706	1	2
636.045	1	10
636.384	1	5
636.724	1	4
637.063	1	10
637.402	1	-3
637.741	1	10
638.080	1	15
638.419	1	5
638.759	1	9
639.098	1	2
639.437	1	-6
639.776	1	1
640.115	1	17
640.454	1	7
640.793	1	-4
641.132	1	4
641.472	1	10
641.811	1	4
642.150	1	-6
642.489	1	-5
642.828	1	6
643.167	1	2
643.506	1	6
643.845	1	0
644.184	1	-7
644.524	1	-1
644.863	1	2
645.202	1	11
645.541	1	0
645.880	1	15
646.219	1	2
646.558	1	-1
646.897	1	3
647.236	1	-2
647.575	1	-8
647.914	1	-2
648.253	1	6
648.592	1	0
648.931	1	-7
649.270	1	-1
649.610	1	-1
649.949	1	2
650.288	1	2
650.627	1	7
650.966	1	4
651.305	1	3
651.644	1	2
651.983	1	-4
652.322	1	4
652.661	1	2
653.000	1	17
653.339	1	7
653.678	1	-3
654.017	1	3
654.356	1	7
654.695	1	-1
655.034	1	2
655.373	1	-2
655.712	1	2
656.051	1	6
656.390	1	-2
656.729	1	8
657.068	1	-5
657.406	1	4
657.745	1	0
658.084	1	-5
658.423	1	1
658.762	1	20
659.101	1	0
659.440	1	-4
659.779	1	1
660.118	1	-1
660.457	1	3
660.796	1	10
661.135	1	4
661.474	1	11
661.813	1	-3
662.152	1	4
662.491	1	19
662.829	1	17
663.168	1	-4
663.507	1	6
663.846	1	-3
664.185	1	-3
664.524	1	-4
664.863	1	6
665.202	1	5
665.541	1	-1
665.879	1	2
666.218	1	3
666.557	1	4
666.896	1	5
667.235	1	10
667.574	1	13
667.913	1	2
668.251	1	-4
668.590	1	4
668.929	1	6
669.268	1	-3
669.607	1	-2
669.946	1	9
670.285	1	14
670.623	1	12
670.962	1	0
671.301	1	0
671.640	1	-7
671.979	1	12
672.317	1	-7
672.656	1	-4
672.995	1	9
673.334	1	-7
673.673	1	13
674.011	1	3
674.350	1	10
674.689	1	15
675.028	1	13
675.367	1	-1
675.705	1	8
676.044	1	5
676.383	1	5
676.722	1	1
677.060	1	2
677.399	1	-3
677.738	1	-2
678.077	1	5
678.416	1	-3
678.754	1	3
679.093	1	-5
679.432	1	5
679.771	1	4
680.109	1	4
680.448	1	3
680.787	1	7
681.125	1	6
681.464	1	-1
681.803	1	7
682.142	1	-2
682.480	1	15
682.819	1	13
683.158	1	5
683.496	1	-1
683.835	1	-10
684.174	1	7
684.512	1	14
684.851	1	1
685.190	1	-2
685.529	1	-2
685.867	1	7
686.206	1	12
686.545	1	6
686.883	1	-1
687.222	1	2
687.561	1	11
687.899	1	-4
688.238	1	14
688.577	1	0
688.746	1	8