File: Data/GaN_130K_350ms/GaN_sample F_spot6_UVVIS_130 K_200um_350 ms 2x2mm1_201.txt
340.368	1	11
340.710	1	4
341.052	1	-8
341.394	1	1
341.737	1	-2
342.079	1	1
342.421	1	6
342.763	1	10
343.105	1	-2
343.447	1	16
343.789	1	4
344.131	1	6
344.473	1	4
344.815	1	-4
345.157	1	-9
345.499	1	0
345.841	1	4
346.183	1	9
346.526	1	0
346.868	1	5
347.210	1	5
347.552	1	-4
347.894	1	-11
348.236	1	-5
348.578	1	-1
348.920	1	3
349.262	1	8
349.604	1	0
349.946	1	7
350.288	1	-7
350.630	1	3
350.972	1	10
351.314	1	-2
351.656	1	14
351.998	1	1
352.340	1	12
352.682	1	1
353.024	1	-1
353.366	1	2
353.708	1	-2
354.050	1	9
354.392	1	8
354.734	1	-4
355.076	1	10
355.418	1	11
355.760	1	3
356.102	1	7
356.444	1	-6
356.785	1	17
357.127	1	2
357.469	1	2
357.811	1	1
358.153	1	-2
358.495	1	2
358.837	1	12
359.179	1	4
359.521	1	-4
359.863	1	1
360.205	1	1
360.547	1	2
360.889	1	1
361.231	1	1
361.572	1	11
361.914	1	9
362.256	1	11
362.598	1	16
362.940	1	-1
363.282	1	15
363.624	1	13
363.966	1	26
364.308	1	19
364.649	1	9
364.991	1	8
365.333	1	8
365.675	1	15
366.017	1	22
366.359	1	18
366.701	1	9
367.042	1	9
367.384	1	26
367.726	1	17
368.068	1	12
368.410	1	15
368.752	1	26
369.093	1	23
369.435	1	15
369.777	1	26
370.119	1	20
370.461	1	14
370.803	1	9
371.144	1	16
371.486	1	7
371.828	1	16
372.170	1	13
372.512	1	10
372.853	1	16
373.195	1	8
373.537	1	17
373.879	1	12
374.220	1	8
374.562	1	1
374.904	1	6
375.246	1	10
375.588	1	9
375.929	1	2
376.271	1	18
376.613	1	0
376.955	1	16
377.296	1	7
377.638	1	-5
377.980	1	8
378.321	1	6
378.663	1	17
379.005	1	22
379.347	1	6
379.688	1	4
380.030	1	5
380.372	1	4
380.714	1	25
381.055	1	0
381.397	1	7
381.739	1	12
382.080	1	-6
382.422	1	18
382.764	1	3
383.105	1	7
383.447	1	2
383.789	1	12
384.130	1	4
384.472	1	18
384.814	1	-3
385.156	1	5
385.497	1	5
385.839	1	11
386.180	1	7
386.522	1	-1
386.864	1	15
387.205	1	10
387.547	1	10
387.889	1	3
388.230	1	3
388.572	1	15
388.914	1	-1
389.255	1	2
389.597	1	-10
389.939	1	2
390.280	1	13
390.622	1	11
390.963	1	19
391.305	1	10
391.647	1	8
391.988	1	15
392.330	1	10
392.671	1	2
393.013	1	12
393.355	1	2
393.696	1	1
394.038	1	10
394.379	1	12
394.721	1	13
395.062	1	4
395.404	1	-5
395.746	1	-4
396.087	1	5
396.429	1	16
396.770	1	10
397.112	1	10
397.453	1	7
397.795	1	0
398.136	1	5
398.478	1	8
398.819	1	-9
399.161	1	12
399.503	1	18
399.844	1	-3
400.186	1	-1
400.527	1	13
400.869	1	2
401.210	1	1
401.552	1	7
401.893	1	-7
402.235	1	7
402.576	1	7
402.918	1	14
403.259	1	0
403.601	1	3
403.942	1	5
404.284	1	2
404.625	1	16
404.967	1	14
405.308	1	4
405.649	1	1
405.991	1	7
406.332	1	23
406.674	1	15
407.015	1	-4
407.357	1	7
407.698	1	9
408.040	1	7
408.381	1	8
408.722	1	17
409.064	1	0
409.405	1	13
409.747	1	8
410.088	1	15
410.430	1	20
410.771	1	-5
411.112	1	17
411.454	1	6
411.795	1	3
412.137	1	2
412.478	1	-8
412.819	1	16
413.161	1	11
413.502	1	12
413.844	1	17
414.185	1	18
414.526	1	8
414.868	1	-1
415.209	1	12
415.550	1	6
415.892	1	3
416.233	1	16
416.575	1	-2
416.916	1	7
417.257	1	9
417.599	1	1
417.940	1	10
418.281	1	2
418.623	1	7
418.964	1	3
419.305	1	7
419.647	1	15
419.988	1	14
420.329	1	13
420.671	1	5
421.012	1	2
421.353	1	-7
421.695	1	8
422.036	1	3
422.377	1	2
422.718	1	5
423.060	1	9
423.401	1	2
423.742	1	2
424.084	1	8
424.425	1	6
424.766	1	4
425.107	1	8
425.449	1	11
425.790	1	6
426.131	1	16
426.472	1	9
426.814	1	4
427.155	1	1
427.496	1	10
427.837	1	11
428.179	1	9
428.520	1	3
428.861	1	3
429.202	1	10
429.544	1	11
429.885	1	7
430.226	1	6
430.567	1	0
430.909	1	17
431.250	1	7
431.591	1	5
431.932	1	7
432.273	1	17
432.615	1	21
432.956	1	2
433.297	1	11
433.638	1	11
433.979	1	13
434.320	1	8
434.662	1	0
435.003	1	20
435.344	1	6
435.685	1	3
436.026	1	6
436.368	1	-2
436.709	1	0
437.050	1	8
437.391	1	11
437.732	1	6
438.073	1	7
438.414	1	2
438.756	1	4
439.097	1	6
439.438	1	12
439.779	1	12
440.120	1	6
440.461	1	21
440.802	1	-5
441.143	1	0
441.485	1	5
441.826	1	7
442.167	1	7
442.508	1	-3
442.849	1	6
443.190	1	4
443.531	1	7
443.872	1	5
444.213	1	0
444.554	1	5
444.895	1	2
445.237	1	-1
445.578	1	3
445.919	1	-1
446.260	1	6
446.601	1	10
446.942	1	4
447.283	1	5
447.624	1	2
447.965	1	7
448.306	1	3
448.647	1	19
448.988	1	1
449.329	1	1
449.670	1	-1
450.011	1	0
450.352	1	-2
450.693	1	3
451.034	1	-2
451.375	1	11
451.716	1	-9
452.057	1	11
452.398	1	2
452.739	1	8
453.080	1	5
453.421	1	6
453.762	1	4
454.103	1	-3
454.444	1	4
454.785	1	16
455.126	1	-4
455.467	1	4
455.808	1	7
456.149	1	-6
456.490	1	9
456.831	1	7
457.172	1	0
457.513	1	-8
457.854	1	3
458.195	1	-7
458.536	1	10
458.877	1	19
459.218	1	5
459.559	1	4
459.899	1	4
460.240	1	23
460.581	1	-4
460.922	1	9
461.263	1	10
461.604	1	-6
461.945	1	11
462.286	1	14
462.627	1	2
462.968	1	3
463.309	1	10
463.649	1	0
463.990	1	6
464.331	1	12
464.672	1	3
465.013	1	-8
465.354	1	8
465.695	1	9
466.036	1	3
466.376	1	14
466.717	1	15
467.058	1	12
467.399	1	-2
467.740	1	8
468.081	1	10
468.422	1	6
468.762	1	-5
469.103	1	11
469.444	1	3
469.785	1	12
470.126	1	-8
470.467	1	7
470.807	1	2
471.148	1	2
471.489	1	2
471.830	1	7
472.171	1	7
472.511	1	0
472.852	1	10
473.193	1	3
473.534	1	3
473.875	1	14
474.215	1	7
474.556	1	4
474.897	1	-5
475.238	1	8
475.578	1	8
475.919	1	2
476.260	1	6
476.601	1	2
476.942	1	8
477.282	1	4
477.623	1	2
477.964	1	4
478.305	1	18
478.645	1	3
478.986	1	1
479.327	1	1
479.667	1	12
480.008	1	0
480.349	1	1
480.690	1	2
481.030	1	2
481.371	1	9
481.712	1	2
482.053	1	10
482.393	1	12
482.734	1	1
483.075	1	12
483.415	1	-2
483.756	1	6
484.097	1	4
484.437	1	3
484.778	1	11
485.119	1	12
485.459	1	-8
485.800	1	5
486.141	1	2
486.481	1	-5
486.822	1	11
487.163	1	-1
487.503	1	1
487.844	1	4
488.185	1	1
488.525	1	6
488.866	1	5
489.207	1	13
489.547	1	0
489.888	1	10
490.228	1	-4
490.569	1	2
490.910	1	-7
491.250	1	6
491.591	1	0
491.932	1	0
492.272	1	-2
492.613	1	-4
492.953	1	4
493.294	1	15
493.635	1	2
493.975	1	14
494.316	1	5
494.656	1	0
494.997	1	0
495.337	1	-1
495.678	1	-1
496.019	1	5
496.359	1	9
496.700	1	-3
497.040	1	5
497.381	1	-2
497.721	1	0
498.062	1	-5
498.403	1	-8
498.743	1	8
499.084	1	12
499.424	1	2
499.765	1	8
500.105	1	4
500.446	1	-1
500.786	1	3
501.127	1	8
501.467	1	5
501.808	1	9
502.148	1	10
502.489	1	12
502.829	1	-7
503.170	1	9
503.510	1	10
503.851	1	4
504.191	1	7
504.532	1	5
504.872	1	-3
505.213	1	1
505.553	1	1
505.894	1	10
506.234	1	7
506.575	1	-1
506.915	1	2
507.256	1	7
507.596	1	12
507.936	1	-11
508.277	1	-1
508.617	1	-3
508.958	1	3
509.298	1	12
509.639	1	11
509.979	1	10
510.319	1	11
510.660	1	-1
511.000	1	11
511.341	1	3
511.681	1	7
512.022	1	11
512.362	1	-3
512.702	1	10
513.043	1	4
513.383	1	14
513.724	1	2
514.064	1	-2
514.404	1	13
514.745	1	0
515.085	1	7
515.425	1	8
515.766	1	8
516.106	1	6
516.447	1	17
516.787	1	2
517.127	1	5
517.468	1	17
517.808	1	7
518.148	1	12
518.489	1	14
518.829	1	11
519.169	1	9
519.510	1	8
519.850	1	14
520.190	1	13
520.531	1	20
520.871	1	0
521.211	1	1
521.552	1	4
521.892	1	15
522.232	1	-12
522.573	1	0
522.913	1	1
523.253	1	6
523.593	1	14
523.934	1	1
524.274	1	0
524.614	1	18
524.955	1	13
525.295	1	10
525.635	1	12
525.975	1	11
526.316	1	-2
526.656	1	11
526.996	1	8
527.337	1	19
527.677	1	5
528.017	1	5
528.357	1	12
528.698	1	5
529.038	1	0
529.378	1	8
529.718	1	14
530.058	1	8
530.399	1	4
530.739	1	6
531.079	1	8
531.419	1	10
531.760	1	-1
532.100	1	5
532.440	1	8
532.780	1	1
533.120	1	17
533.461	1	8
533.801	1	18
534.141	1	3
534.481	1	11
534.821	1	14
535.162	1	12
535.502	1	3
535.842	1	16
536.182	1	6
536.522	1	0
536.862	1	8
537.203	1	8
537.543	1	11
537.883	1	-3
538.223	1	9
538.563	1	3
538.903	1	7
539.243	1	1
539.584	1	10
539.924	1	12
540.264	1	2
540.604	1	8
540.944	1	13
541.284	1	7
541.624	1	7
541.964	1	0
542.305	1	6
542.645	1	5
542.985	1	13
543.325	1	10
543.665	1	17
544.005	1	16
544.345	1	10
544.685	1	15
545.025	1	6
545.365	1	16
545.705	1	2
546.045	1	9
546.386	1	9
546.726	1	-8
547.066	1	11
547.406	1	-5
547.746	1	15
548.086	1	0
548.426	1	14
548.766	1	6
549.106	1	-9
549.446	1	6
549.786	1	7
550.126	1	15
550.466	1	14
550.806	1	19
551.146	1	-1
551.486	1	5
551.826	1	6
552.166	1	10
552.506	1	7
552.846	1	10
553.186	1	10
553.526	1	15
553.866	1	-2
554.206	1	3
554.546	1	10
554.886	1	8
555.226	1	4
555.566	1	2
555.906	1	7
556.246	1	10
556.586	1	4
556.926	1	10
557.266	1	9
557.606	1	-2
557.946	1	6
558.286	1	9
558.626	1	-4
558.966	1	3
559.306	1	2
559.646	1	6
559.986	1	7
560.325	1	0
560.665	1	9
561.005	1	-4
561.345	1	9
561.685	1	5
562.025	1	3
562.365	1	15
562.705	1	9
563.045	1	-1
563.385	1	3
563.725	1	5
564.064	1	7
564.404	1	-4
564.744	1	8
565.084	1	5
565.424	1	-4
565.764	1	13
566.104	1	2
566.444	1	13
566.783	1	12
567.123	1	4
567.463	1	3
567.803	1	13
568.143	1	14
568.483	1	0
568.823	1	-4
569.162	1	5
569.502	1	-6
569.842	1	3
570.182	1	4
570.522	1	-2
570.862	1	22
571.201	1	3
571.541	1	1
571.881	1	9
572.221	1	9
572.561	1	7
572.900	1	9
573.240	1	5
573.580	1	-1
573.920	1	8
574.260	1	12
574.599	1	17
574.939	1	10
575.279	1	-2
575.619	1	1
575.959	1	-5
576.298	1	1
576.638	1	6
576.978	1	2
577.318	1	11
577.657	1	7
577.997	1	8
578.337	1	6
578.677	1	8
579.016	1	-4
579.356	1	7
579.696	1	-1
580.036	1	2
580.375	1	0
580.715	1	3
581.055	1	5
581.394	1	7
581.734	1	5
582.074	1	-3
582.414	1	3
582.753	1	6
583.093	1	9
583.433	1	12
583.772	1	9
584.112	1	0
584.452	1	15
584.791	1	5
585.131	1	10
585.471	1	2
585.811	1	4
586.150	1	3
586.490	1	6
586.830	1	-11
587.169	1	6
587.509	1	-3
587.849	1	13
588.188	1	19
588.528	1	8
588.867	1	8
589.207	1	0
589.547	1	-6
589.886	1	5
590.226	1	10
590.566	1	9
590.905	1	4
591.245	1	6
591.585	1	4
591.924	1	4
592.264	1	6
592.603	1	-6
592.943	1	0
593.283	1	-1
593.622	1	16
593.962	1	15
594.301	1	-6
594.641	1	11
594.981	1	-12
595.320	1	5
595.660	1	-1
595.999	1	2
596.339	1	12
596.678	1	0
597.018	1	3
597.358	1	-9
597.697	1	-4
598.037	1	4
598.376	1	-1
598.716	1	7
599.055	1	-4
599.395	1	-6
599.734	1	-3
600.074	1	11
600.413	1	5
600.753	1	9
601.092	1	4
601.432	1	-8
601.771	1	10
602.111	1	-3
602.451	1	9
602.790	1	-1
603.130	1	4
603.469	1	-1
603.809	1	1
604.148	1	9
604.487	1	9
604.827	1	7
605.166	1	11
605.506	1	4
605.845	1	6
606.185	1	9
606.524	1	8
606.864	1	17
607.203	1	1
607.543	1	3
607.882	1	5
608.222	1	-3
608.561	1	0
608.901	1	7
609.240	1	-8
609.579	1	7
609.919	1	11
610.258	1	-4
610.598	1	1
610.937	1	12
611.277	1	8
611.616	1	-7
611.955	1	-9
612.295	1	7
612.634	1	-3
612.974	1	14
613.313	1	1
613.652	1	-4
613.992	1	1
614.331	1	3
614.671	1	8
615.010	1	0
615.349	1	-1
615.689	1	6
616.028	1	18
616.368	1	1
616.707	1	13
617.046	1	7
617.386	1	6
617.725	1	2
618.064	1	3
618.404	1	-4
618.743	1	4
619.082	1	-3
619.422	1	5
619.761	1	6
620.100	1	-4
620.440	1	7
620.779	1	9
621.118	1	2
621.458	1	5
621.797	1	3
622.136	1	5
622.476	1	18
622.815	1	-4
623.154	1	8
623.494	1	8
623.833	1	2
624.172	1	-6
624.511	1	9
624.851	1	3
625.190	1	1
625.529	1	-1
625.869	1	10
626.208	1	1
626.547	1	0
626.886	1	8
627.226	1	6
627.565	1	0
627.904	1	9
628.243	1	8
628.583	1	-7
628.922	1	0
629.261	1	-1
629.600	1	-7
629.940	1	14
630.279	1	15
630.618	1	-2
630.957	1	1
631.297	1	1
631.636	1	2
631.975	1	3
632.314	1	-1
632.653	1	5
632.993	1	11
633.332	1	-3
633.671	1	0
634.010	1	5
634.349	1	-3
634.689	1	7
635.028	1	4
635.367	1	2
635.706	1	-7
636.045	1	15
636.384	1	1
636.724	1	11
637.063	1	3
637.402	1	4
637.741	1	8
638.080	1	3
638.419	1	6
638.759	1	2
639.098	1	-1
639.437	1	7
639.776	1	9
640.115	1	11
640.454	1	11
640.793	1	-5
641.132	1	11
641.472	1	3
641.811	1	-3
642.150	1	0
642.489	1	-4
642.828	1	2
643.167	1	15
643.506	1	3
643.845	1	-1
644.184	1	1
644.524	1	-8
644.863	1	-10
645.202	1	8
645.541	1	5
645.880	1	10
646.219	1	1
646.558	1	7
646.897	1	-1
647.236	1	8
647.575	1	-3
647.914	1	-6
648.253	1	4
648.592	1	-6
648.931	1	-1
649.270	1	-11
649.610	1	-1
649.949	1	2
650.288	1	7
650.627	1	9
650.966	1	8
651.305	1	6
651.644	1	5
651.983	1	-2
652.322	1	4
652.661	1	4
653.000	1	7
653.339	1	8
653.678	1	-6
654.017	1	-8
654.356	1	10
654.695	1	2
655.034	1	-1
655.373	1	2
655.712	1	-5
656.051	1	-4
656.390	1	2
656.729	1	11
657.068	1	3
657.406	1	-1
657.745	1	1
658.084	1	2
658.423	1	12
658.762	1	11
659.101	1	5
659.440	1	-10
659.779	1	-3
660.118	1	0
660.457	1	-2
660.796	1	5
661.135	1	9
661.474	1	7
661.813	1	-4
662.152	1	8
662.491	1	4
662.829	1	6
663.168	1	-9
663.507	1	13
663.846	1	0
664.185	1	1
664.524	1	1
664.863	1	10
665.202	1	2
665.541	1	-1
665.879	1	2
666.218	1	10
666.557	1	6
666.896	1	4
667.235	1	5
667.574	1	18
667.913	1	-1
668.251	1	-1
668.590	1	11
668.929	1	9
669.268	1	-4
669.607	1	-3
669.946	1	-1
670.285	1	8
670.623	1	8
670.962	1	-1
671.301	1	-1
671.640	1	-14
671.979	1	6
672.317	1	-1
672.656	1	-3
672.995	1	6
673.334	1	-4
673.673	1	2
674.011	1	6
674.350	1	0
674.689	1	9
675.028	1	6
675.367	1	-4
675.705	1	5
676.044	1	-4
676.383	1	3
676.722	1	-8
677.060	1	8
677.399	1	-5
677.738	1	2
678.077	1	-6
678.416	1	1
678.754	1	9
679.093	1	4
679.432	1	8
679.771	1	6
680.109	1	1
680.448	1	2
680.787	1	12
681.125	1	1
681.464	1	-2
681.803	1	0
682.142	1	-4
682.480	1	15
682.819	1	3
683.158	1	2
683.496	1	-15
683.835	1	2
684.174	1	-1
684.512	1	12
684.851	1	5
685.190	1	-1
685.529	1	-3
685.867	1	-2
686.206	1	14
686.545	1	2
686.883	1	5
687.222	1	1
687.561	1	16
687.899	1	5
688.238	1	10
688.577	1	1
688.746	1	8