File: Data/GaN_130K_350ms/GaN_sample F_spot6_UVVIS_130 K_200um_350 ms 2x2mm1_143.txt
340.368	1	4
340.710	1	11
341.052	1	-4
341.394	1	8
341.737	1	12
342.079	1	-2
342.421	1	9
342.763	1	3
343.105	1	7
343.447	1	11
343.789	1	-2
344.131	1	1
344.473	1	1
344.815	1	-4
345.157	1	-5
345.499	1	1
345.841	1	-2
346.183	1	3
346.526	1	1
346.868	1	11
347.210	1	2
347.552	1	4
347.894	1	0
348.236	1	-6
348.578	1	-2
348.920	1	-6
349.262	1	13
349.604	1	3
349.946	1	9
350.288	1	-14
350.630	1	5
350.972	1	8
351.314	1	7
351.656	1	12
351.998	1	7
352.340	1	22
352.682	1	-3
353.024	1	4
353.366	1	1
353.708	1	-1
354.050	1	17
354.392	1	12
354.734	1	1
355.076	1	5
355.418	1	9
355.760	1	6
356.102	1	3
356.444	1	-3
356.785	1	17
357.127	1	17
357.469	1	-1
357.811	1	5
358.153	1	3
358.495	1	4
358.837	1	6
359.179	1	0
359.521	1	8
359.863	1	3
360.205	1	9
360.547	1	7
360.889	1	7
361.231	1	8
361.572	1	21
361.914	1	15
362.256	1	17
362.598	1	13
362.940	1	19
363.282	1	32
363.624	1	24
363.966	1	28
364.308	1	32
364.649	1	25
364.991	1	18
365.333	1	15
365.675	1	21
366.017	1	40
366.359	1	44
366.701	1	34
367.042	1	44
367.384	1	43
367.726	1	40
368.068	1	33
368.410	1	36
368.752	1	33
369.093	1	39
369.435	1	34
369.777	1	35
370.119	1	43
370.461	1	36
370.803	1	32
371.144	1	36
371.486	1	26
371.828	1	22
372.170	1	27
372.512	1	23
372.853	1	21
373.195	1	32
373.537	1	26
373.879	1	28
374.220	1	26
374.562	1	17
374.904	1	16
375.246	1	21
375.588	1	15
375.929	1	3
376.271	1	27
376.613	1	18
376.955	1	23
377.296	1	15
377.638	1	7
377.980	1	6
378.321	1	29
378.663	1	21
379.005	1	29
379.347	1	8
379.688	1	6
380.030	1	16
380.372	1	21
380.714	1	30
381.055	1	15
381.397	1	15
381.739	1	22
382.080	1	5
382.422	1	17
382.764	1	15
383.105	1	8
383.447	1	5
383.789	1	9
384.130	1	9
384.472	1	9
384.814	1	6
385.156	1	10
385.497	1	16
385.839	1	16
386.180	1	16
386.522	1	4
386.864	1	26
387.205	1	11
387.547	1	21
387.889	1	-4
388.230	1	9
388.572	1	15
388.914	1	8
389.255	1	16
389.597	1	-2
389.939	1	16
390.280	1	19
390.622	1	8
390.963	1	20
391.305	1	16
391.647	1	8
391.988	1	20
392.330	1	-2
392.671	1	7
393.013	1	1
393.355	1	10
393.696	1	-3
394.038	1	19
394.379	1	18
394.721	1	7
395.062	1	2
395.404	1	-1
395.746	1	23
396.087	1	26
396.429	1	12
396.770	1	11
397.112	1	15
397.453	1	21
397.795	1	-6
398.136	1	10
398.478	1	8
398.819	1	0
399.161	1	11
399.503	1	11
399.844	1	3
400.186	1	3
400.527	1	14
400.869	1	8
401.210	1	-4
401.552	1	4
401.893	1	3
402.235	1	16
402.576	1	3
402.918	1	8
403.259	1	-2
403.601	1	2
403.942	1	8
404.284	1	-3
404.625	1	14
404.967	1	2
405.308	1	9
405.649	1	13
405.991	1	11
406.332	1	17
406.674	1	14
407.015	1	3
407.357	1	5
407.698	1	4
408.040	1	7
408.381	1	17
408.722	1	12
409.064	1	13
409.405	1	11
409.747	1	10
410.088	1	9
410.430	1	24
410.771	1	-8
411.112	1	13
411.454	1	7
411.795	1	5
412.137	1	10
412.478	1	5
412.819	1	5
413.161	1	15
413.502	1	11
413.844	1	4
414.185	1	10
414.526	1	-2
414.868	1	9
415.209	1	3
415.550	1	4
415.892	1	10
416.233	1	17
416.575	1	5
416.916	1	2
417.257	1	13
417.599	1	10
417.940	1	12
418.281	1	9
418.623	1	9
418.964	1	-1
419.305	1	12
419.647	1	19
419.988	1	12
420.329	1	22
420.671	1	0
421.012	1	15
421.353	1	0
421.695	1	8
422.036	1	15
422.377	1	6
422.718	1	0
423.060	1	1
423.401	1	8
423.742	1	8
424.084	1	7
424.425	1	13
424.766	1	5
425.107	1	2
425.449	1	11
425.790	1	1
426.131	1	20
426.472	1	6
426.814	1	8
427.155	1	4
427.496	1	7
427.837	1	3
428.179	1	8
428.520	1	17
428.861	1	6
429.202	1	8
429.544	1	13
429.885	1	9
430.226	1	10
430.567	1	7
430.909	1	10
431.250	1	16
431.591	1	6
431.932	1	-3
432.273	1	22
432.615	1	14
432.956	1	5
433.297	1	24
433.638	1	-1
433.979	1	9
434.320	1	1
434.662	1	4
435.003	1	8
435.344	1	13
435.685	1	-3
436.026	1	11
436.368	1	2
436.709	1	2
437.050	1	16
437.391	1	14
437.732	1	3
438.073	1	15
438.414	1	3
438.756	1	11
439.097	1	8
439.438	1	13
439.779	1	13
440.120	1	6
440.461	1	8
440.802	1	-2
441.143	1	-7
441.485	1	8
441.826	1	7
442.167	1	3
442.508	1	14
442.849	1	9
443.190	1	4
443.531	1	0
443.872	1	11
444.213	1	11
444.554	1	7
444.895	1	4
445.237	1	-4
445.578	1	7
445.919	1	0
446.260	1	7
446.601	1	13
446.942	1	0
447.283	1	10
447.624	1	11
447.965	1	5
448.306	1	12
448.647	1	13
448.988	1	3
449.329	1	4
449.670	1	4
450.011	1	-1
450.352	1	9
450.693	1	2
451.034	1	-3
451.375	1	14
451.716	1	5
452.057	1	18
452.398	1	-11
452.739	1	14
453.080	1	-1
453.421	1	1
453.762	1	9
454.103	1	5
454.444	1	5
454.785	1	19
455.126	1	-10
455.467	1	3
455.808	1	13
456.149	1	-8
456.490	1	11
456.831	1	10
457.172	1	3
457.513	1	3
457.854	1	0
458.195	1	1
458.536	1	9
458.877	1	22
459.218	1	2
459.559	1	6
459.899	1	-2
460.240	1	18
460.581	1	2
460.922	1	6
461.263	1	11
461.604	1	-13
461.945	1	19
462.286	1	5
462.627	1	6
462.968	1	2
463.309	1	5
463.649	1	0
463.990	1	-6
464.331	1	9
464.672	1	8
465.013	1	6
465.354	1	14
465.695	1	4
466.036	1	4
466.376	1	5
466.717	1	9
467.058	1	13
467.399	1	-1
467.740	1	19
468.081	1	15
468.422	1	3
468.762	1	13
469.103	1	-1
469.444	1	1
469.785	1	11
470.126	1	-5
470.467	1	7
470.807	1	4
471.148	1	3
471.489	1	-1
471.830	1	2
472.171	1	4
472.511	1	1
472.852	1	13
473.193	1	3
473.534	1	3
473.875	1	18
474.215	1	6
474.556	1	9
474.897	1	-5
475.238	1	15
475.578	1	2
475.919	1	1
476.260	1	5
476.601	1	3
476.942	1	8
477.282	1	11
477.623	1	-3
477.964	1	1
478.305	1	21
478.645	1	7
478.986	1	6
479.327	1	2
479.667	1	4
480.008	1	-3
480.349	1	10
480.690	1	9
481.030	1	4
481.371	1	12
481.712	1	3
482.053	1	7
482.393	1	17
482.734	1	8
483.075	1	17
483.415	1	7
483.756	1	6
484.097	1	6
484.437	1	7
484.778	1	13
485.119	1	5
485.459	1	-1
485.800	1	7
486.141	1	11
486.481	1	-1
486.822	1	20
487.163	1	1
487.503	1	3
487.844	1	5
488.185	1	10
488.525	1	13
488.866	1	4
489.207	1	2
489.547	1	13
489.888	1	8
490.228	1	18
490.569	1	-2
490.910	1	-5
491.250	1	11
491.591	1	-4
491.932	1	-2
492.272	1	5
492.613	1	2
492.953	1	3
493.294	1	18
493.635	1	14
493.975	1	11
494.316	1	10
494.656	1	-2
494.997	1	4
495.337	1	8
495.678	1	5
496.019	1	10
496.359	1	8
496.700	1	7
497.040	1	17
497.381	1	1
497.721	1	-2
498.062	1	12
498.403	1	-9
498.743	1	13
499.084	1	14
499.424	1	4
499.765	1	8
500.105	1	12
500.446	1	8
500.786	1	17
501.127	1	19
501.467	1	9
501.808	1	8
502.148	1	14
502.489	1	13
502.829	1	4
503.170	1	1
503.510	1	6
503.851	1	2
504.191	1	8
504.532	1	14
504.872	1	15
505.213	1	13
505.553	1	10
505.894	1	16
506.234	1	10
506.575	1	7
506.915	1	12
507.256	1	14
507.596	1	5
507.936	1	8
508.277	1	-5
508.617	1	10
508.958	1	17
509.298	1	7
509.639	1	15
509.979	1	14
510.319	1	21
510.660	1	-3
511.000	1	6
511.341	1	11
511.681	1	19
512.022	1	17
512.362	1	13
512.702	1	20
513.043	1	10
513.383	1	12
513.724	1	1
514.064	1	13
514.404	1	17
514.745	1	7
515.085	1	12
515.425	1	12
515.766	1	24
516.106	1	13
516.447	1	4
516.787	1	13
517.127	1	10
517.468	1	20
517.808	1	7
518.148	1	18
518.489	1	11
518.829	1	17
519.169	1	6
519.510	1	4
519.850	1	21
520.190	1	24
520.531	1	23
520.871	1	9
521.211	1	15
521.552	1	13
521.892	1	22
522.232	1	17
522.573	1	10
522.913	1	11
523.253	1	17
523.593	1	20
523.934	1	17
524.274	1	7
524.614	1	18
524.955	1	25
525.295	1	19
525.635	1	18
525.975	1	21
526.316	1	14
526.656	1	18
526.996	1	19
527.337	1	28
527.677	1	5
528.017	1	11
528.357	1	20
528.698	1	5
529.038	1	15
529.378	1	20
529.718	1	10
530.058	1	11
530.399	1	22
530.739	1	13
531.079	1	10
531.419	1	13
531.760	1	21
532.100	1	19
532.440	1	28
532.780	1	18
533.120	1	21
533.461	1	12
533.801	1	28
534.141	1	13
534.481	1	18
534.821	1	17
535.162	1	14
535.502	1	16
535.842	1	13
536.182	1	21
536.522	1	13
536.862	1	8
537.203	1	6
537.543	1	14
537.883	1	11
538.223	1	10
538.563	1	20
538.903	1	9
539.243	1	17
539.584	1	18
539.924	1	11
540.264	1	6
540.604	1	14
540.944	1	22
541.284	1	11
541.624	1	18
541.964	1	-2
542.305	1	15
542.645	1	7
542.985	1	20
543.325	1	7
543.665	1	7
544.005	1	21
544.345	1	15
544.685	1	15
545.025	1	3
545.365	1	27
545.705	1	10
546.045	1	11
546.386	1	13
546.726	1	13
547.066	1	12
547.406	1	13
547.746	1	9
548.086	1	5
548.426	1	17
548.766	1	14
549.106	1	5
549.446	1	6
549.786	1	20
550.126	1	17
550.466	1	28
550.806	1	18
551.146	1	12
551.486	1	10
551.826	1	5
552.166	1	18
552.506	1	8
552.846	1	8
553.186	1	7
553.526	1	9
553.866	1	-4
554.206	1	10
554.546	1	22
554.886	1	11
555.226	1	14
555.566	1	17
555.906	1	6
556.246	1	10
556.586	1	12
556.926	1	-2
557.266	1	14
557.606	1	14
557.946	1	14
558.286	1	23
558.626	1	-1
558.966	1	6
559.306	1	8
559.646	1	15
559.986	1	8
560.325	1	-4
560.665	1	21
561.005	1	9
561.345	1	13
561.685	1	16
562.025	1	4
562.365	1	6
562.705	1	13
563.045	1	8
563.385	1	8
563.725	1	3
564.064	1	11
564.404	1	-1
564.744	1	15
565.084	1	12
565.424	1	-4
565.764	1	10
566.104	1	10
566.444	1	19
566.783	1	19
567.123	1	3
567.463	1	5
567.803	1	17
568.143	1	14
568.483	1	19
568.823	1	1
569.162	1	14
569.502	1	5
569.842	1	1
570.182	1	15
570.522	1	-3
570.862	1	15
571.201	1	12
571.541	1	6
571.881	1	7
572.221	1	9
572.561	1	15
572.900	1	6
573.240	1	10
573.580	1	6
573.920	1	14
574.260	1	12
574.599	1	12
574.939	1	12
575.279	1	-3
575.619	1	6
575.959	1	2
576.298	1	4
576.638	1	1
576.978	1	-3
577.318	1	1
577.657	1	21
577.997	1	10
578.337	1	10
578.677	1	13
579.016	1	5
579.356	1	10
579.696	1	-2
580.036	1	1
580.375	1	5
580.715	1	7
581.055	1	8
581.394	1	7
581.734	1	21
582.074	1	10
582.414	1	2
582.753	1	14
583.093	1	0
583.433	1	7
583.772	1	15
584.112	1	13
584.452	1	9
584.791	1	10
585.131	1	10
585.471	1	11
585.811	1	1
586.150	1	13
586.490	1	10
586.830	1	-5
587.169	1	22
587.509	1	8
587.849	1	9
588.188	1	11
588.528	1	25
588.867	1	8
589.207	1	-6
589.547	1	5
589.886	1	7
590.226	1	13
590.566	1	5
590.905	1	13
591.245	1	4
591.585	1	2
591.924	1	5
592.264	1	8
592.603	1	12
592.943	1	7
593.283	1	-7
593.622	1	12
593.962	1	6
594.301	1	-4
594.641	1	6
594.981	1	-5
595.320	1	9
595.660	1	9
595.999	1	15
596.339	1	10
596.678	1	-3
597.018	1	2
597.358	1	-1
597.697	1	6
598.037	1	7
598.376	1	0
598.716	1	5
599.055	1	4
599.395	1	1
599.734	1	2
600.074	1	13
600.413	1	5
600.753	1	1
601.092	1	7
601.432	1	0
601.771	1	8
602.111	1	2
602.451	1	7
602.790	1	2
603.130	1	12
603.469	1	7
603.809	1	3
604.148	1	9
604.487	1	10
604.827	1	10
605.166	1	14
605.506	1	-2
605.845	1	12
606.185	1	6
606.524	1	7
606.864	1	15
607.203	1	-3
607.543	1	-1
607.882	1	13
608.222	1	1
608.561	1	1
608.901	1	8
609.240	1	-3
609.579	1	14
609.919	1	6
610.258	1	-2
610.598	1	-1
610.937	1	2
611.277	1	8
611.616	1	-1
611.955	1	-4
612.295	1	6
612.634	1	2
612.974	1	9
613.313	1	8
613.652	1	3
613.992	1	8
614.331	1	6
614.671	1	7
615.010	1	3
615.349	1	3
615.689	1	5
616.028	1	11
616.368	1	-3
616.707	1	18
617.046	1	10
617.386	1	1
617.725	1	6
618.064	1	7
618.404	1	-1
618.743	1	6
619.082	1	1
619.422	1	-1
619.761	1	15
620.100	1	-1
620.440	1	7
620.779	1	10
621.118	1	6
621.458	1	8
621.797	1	-3
622.136	1	4
622.476	1	7
622.815	1	0
623.154	1	12
623.494	1	11
623.833	1	7
624.172	1	-6
624.511	1	3
624.851	1	-2
625.190	1	1
625.529	1	-4
625.869	1	4
626.208	1	5
626.547	1	-1
626.886	1	-2
627.226	1	2
627.565	1	3
627.904	1	7
628.243	1	8
628.583	1	-8
628.922	1	0
629.261	1	5
629.600	1	5
629.940	1	14
630.279	1	4
630.618	1	3
630.957	1	0
631.297	1	6
631.636	1	10
631.975	1	8
632.314	1	3
632.653	1	-6
632.993	1	5
633.332	1	3
633.671	1	-9
634.010	1	-2
634.349	1	-3
634.689	1	12
635.028	1	8
635.367	1	6
635.706	1	-4
636.045	1	17
636.384	1	-1
636.724	1	7
637.063	1	11
637.402	1	-1
637.741	1	7
638.080	1	9
638.419	1	4
638.759	1	12
639.098	1	-4
639.437	1	6
639.776	1	4
640.115	1	15
640.454	1	6
640.793	1	-4
641.132	1	14
641.472	1	8
641.811	1	1
642.150	1	-6
642.489	1	-7
642.828	1	4
643.167	1	5
643.506	1	-2
643.845	1	-3
644.184	1	-2
644.524	1	2
644.863	1	8
645.202	1	8
645.541	1	-2
645.880	1	17
646.219	1	5
646.558	1	5
646.897	1	5
647.236	1	3
647.575	1	-4
647.914	1	-7
648.253	1	2
648.592	1	-4
648.931	1	0
649.270	1	1
649.610	1	9
649.949	1	3
650.288	1	3
650.627	1	17
650.966	1	9
651.305	1	-2
651.644	1	6
651.983	1	-7
652.322	1	-6
652.661	1	-1
653.000	1	6
653.339	1	0
653.678	1	5
654.017	1	-4
654.356	1	7
654.695	1	0
655.034	1	4
655.373	1	0
655.712	1	6
656.051	1	9
656.390	1	6
656.729	1	0
657.068	1	-4
657.406	1	5
657.745	1	2
658.084	1	-1
658.423	1	0
658.762	1	11
659.101	1	2
659.440	1	-5
659.779	1	7
660.118	1	-5
660.457	1	1
660.796	1	12
661.135	1	7
661.474	1	8
661.813	1	-3
662.152	1	5
662.491	1	19
662.829	1	9
663.168	1	-8
663.507	1	9
663.846	1	3
664.185	1	0
664.524	1	-9
664.863	1	12
665.202	1	6
665.541	1	2
665.879	1	-2
666.218	1	1
666.557	1	5
666.896	1	6
667.235	1	14
667.574	1	11
667.913	1	1
668.251	1	9
668.590	1	14
668.929	1	9
669.268	1	-6
669.607	1	2
669.946	1	11
670.285	1	5
670.623	1	15
670.962	1	-3
671.301	1	-1
671.640	1	-15
671.979	1	10
672.317	1	3
672.656	1	3
672.995	1	-1
673.334	1	2
673.673	1	10
674.011	1	11
674.350	1	-3
674.689	1	6
675.028	1	17
675.367	1	2
675.705	1	21
676.044	1	9
676.383	1	6
676.722	1	8
677.060	1	14
677.399	1	-3
677.738	1	-6
678.077	1	2
678.416	1	7
678.754	1	5
679.093	1	0
679.432	1	4
679.771	1	5
680.109	1	7
680.448	1	1
680.787	1	12
681.125	1	3
681.464	1	-2
681.803	1	-6
682.142	1	-6
682.480	1	6
682.819	1	10
683.158	1	-1
683.496	1	9
683.835	1	-2
684.174	1	10
684.512	1	8
684.851	1	4
685.190	1	-3
685.529	1	-4
685.867	1	4
686.206	1	12
686.545	1	-2
686.883	1	-2
687.222	1	8
687.561	1	14
687.899	1	5
688.238	1	9
688.577	1	-1
688.746	1	-2