File: Data/GaN_130K_350ms/GaN_sample F_spot6_UVVIS_130 K_200um_350 ms 2x2mm1_179.txt
340.368	1	9
340.710	1	3
341.052	1	-2
341.394	1	2
341.737	1	1
342.079	1	-2
342.421	1	6
342.763	1	13
343.105	1	9
343.447	1	6
343.789	1	10
344.131	1	6
344.473	1	5
344.815	1	-2
345.157	1	-5
345.499	1	-2
345.841	1	-3
346.183	1	12
346.526	1	-1
346.868	1	11
347.210	1	5
347.552	1	3
347.894	1	6
348.236	1	6
348.578	1	3
348.920	1	11
349.262	1	7
349.604	1	4
349.946	1	2
350.288	1	-5
350.630	1	11
350.972	1	12
351.314	1	4
351.656	1	9
351.998	1	11
352.340	1	14
352.682	1	2
353.024	1	-1
353.366	1	10
353.708	1	-2
354.050	1	14
354.392	1	12
354.734	1	-7
355.076	1	2
355.418	1	10
355.760	1	8
356.102	1	-1
356.444	1	-10
356.785	1	13
357.127	1	12
357.469	1	-1
357.811	1	5
358.153	1	-6
358.495	1	16
358.837	1	-1
359.179	1	8
359.521	1	3
359.863	1	1
360.205	1	6
360.547	1	-1
360.889	1	1
361.231	1	3
361.572	1	16
361.914	1	4
362.256	1	12
362.598	1	19
362.940	1	10
363.282	1	18
363.624	1	12
363.966	1	17
364.308	1	22
364.649	1	22
364.991	1	12
365.333	1	8
365.675	1	14
366.017	1	12
366.359	1	12
366.701	1	21
367.042	1	28
367.384	1	31
367.726	1	20
368.068	1	16
368.410	1	15
368.752	1	30
369.093	1	27
369.435	1	17
369.777	1	31
370.119	1	24
370.461	1	22
370.803	1	21
371.144	1	15
371.486	1	24
371.828	1	21
372.170	1	21
372.512	1	24
372.853	1	12
373.195	1	14
373.537	1	14
373.879	1	18
374.220	1	5
374.562	1	8
374.904	1	12
375.246	1	11
375.588	1	12
375.929	1	4
376.271	1	11
376.613	1	7
376.955	1	17
377.296	1	7
377.638	1	4
377.980	1	-2
378.321	1	8
378.663	1	10
379.005	1	27
379.347	1	5
379.688	1	10
380.030	1	1
380.372	1	13
380.714	1	18
381.055	1	4
381.397	1	12
381.739	1	15
382.080	1	10
382.422	1	11
382.764	1	11
383.105	1	9
383.447	1	12
383.789	1	11
384.130	1	13
384.472	1	9
384.814	1	1
385.156	1	6
385.497	1	8
385.839	1	10
386.180	1	7
386.522	1	1
386.864	1	15
387.205	1	-1
387.547	1	17
387.889	1	-3
388.230	1	5
388.572	1	9
388.914	1	10
389.255	1	8
389.597	1	1
389.939	1	13
390.280	1	14
390.622	1	7
390.963	1	14
391.305	1	10
391.647	1	12
391.988	1	9
392.330	1	-2
392.671	1	-6
393.013	1	15
393.355	1	10
393.696	1	13
394.038	1	2
394.379	1	17
394.721	1	18
395.062	1	4
395.404	1	-6
395.746	1	10
396.087	1	14
396.429	1	6
396.770	1	15
397.112	1	7
397.453	1	14
397.795	1	-1
398.136	1	9
398.478	1	3
398.819	1	-4
399.161	1	8
399.503	1	17
399.844	1	0
400.186	1	-5
400.527	1	19
400.869	1	3
401.210	1	2
401.552	1	12
401.893	1	-1
402.235	1	9
402.576	1	7
402.918	1	9
403.259	1	2
403.601	1	15
403.942	1	6
404.284	1	7
404.625	1	16
404.967	1	8
405.308	1	13
405.649	1	11
405.991	1	1
406.332	1	10
406.674	1	4
407.015	1	1
407.357	1	3
407.698	1	7
408.040	1	3
408.381	1	10
408.722	1	9
409.064	1	5
409.405	1	6
409.747	1	5
410.088	1	16
410.430	1	18
410.771	1	5
411.112	1	17
411.454	1	5
411.795	1	4
412.137	1	1
412.478	1	8
412.819	1	4
413.161	1	4
413.502	1	17
413.844	1	10
414.185	1	13
414.526	1	15
414.868	1	7
415.209	1	4
415.550	1	7
415.892	1	5
416.233	1	15
416.575	1	7
416.916	1	1
417.257	1	12
417.599	1	-2
417.940	1	8
418.281	1	10
418.623	1	6
418.964	1	9
419.305	1	1
419.647	1	8
419.988	1	9
420.329	1	16
420.671	1	7
421.012	1	11
421.353	1	3
421.695	1	8
422.036	1	6
422.377	1	12
422.718	1	1
423.060	1	22
423.401	1	12
423.742	1	2
424.084	1	19
424.425	1	3
424.766	1	8
425.107	1	2
425.449	1	1
425.790	1	12
426.131	1	9
426.472	1	6
426.814	1	7
427.155	1	-3
427.496	1	1
427.837	1	8
428.179	1	6
428.520	1	6
428.861	1	-1
429.202	1	9
429.544	1	21
429.885	1	7
430.226	1	4
430.567	1	8
430.909	1	12
431.250	1	7
431.591	1	4
431.932	1	-2
432.273	1	4
432.615	1	15
432.956	1	2
433.297	1	13
433.638	1	3
433.979	1	9
434.320	1	7
434.662	1	1
435.003	1	14
435.344	1	10
435.685	1	6
436.026	1	8
436.368	1	4
436.709	1	2
437.050	1	17
437.391	1	17
437.732	1	9
438.073	1	9
438.414	1	6
438.756	1	5
439.097	1	1
439.438	1	3
439.779	1	16
440.120	1	-1
440.461	1	13
440.802	1	-6
441.143	1	0
441.485	1	12
441.826	1	4
442.167	1	5
442.508	1	5
442.849	1	3
443.190	1	4
443.531	1	5
443.872	1	12
444.213	1	5
444.554	1	3
444.895	1	3
445.237	1	-1
445.578	1	1
445.919	1	-2
446.260	1	3
446.601	1	4
446.942	1	0
447.283	1	13
447.624	1	0
447.965	1	0
448.306	1	7
448.647	1	18
448.988	1	3
449.329	1	-4
449.670	1	6
450.011	1	-10
450.352	1	19
450.693	1	10
451.034	1	4
451.375	1	17
451.716	1	-5
452.057	1	15
452.398	1	-5
452.739	1	-2
453.080	1	1
453.421	1	8
453.762	1	8
454.103	1	2
454.444	1	1
454.785	1	15
455.126	1	-7
455.467	1	2
455.808	1	7
456.149	1	4
456.490	1	9
456.831	1	5
457.172	1	8
457.513	1	-3
457.854	1	-2
458.195	1	-7
458.536	1	3
458.877	1	17
459.218	1	16
459.559	1	9
459.899	1	-6
460.240	1	16
460.581	1	9
460.922	1	1
461.263	1	6
461.604	1	-9
461.945	1	7
462.286	1	8
462.627	1	-5
462.968	1	4
463.309	1	5
463.649	1	-3
463.990	1	6
464.331	1	7
464.672	1	7
465.013	1	3
465.354	1	-4
465.695	1	5
466.036	1	0
466.376	1	4
466.717	1	7
467.058	1	6
467.399	1	0
467.740	1	10
468.081	1	15
468.422	1	5
468.762	1	4
469.103	1	10
469.444	1	5
469.785	1	12
470.126	1	-3
470.467	1	2
470.807	1	11
471.148	1	11
471.489	1	1
471.830	1	7
472.171	1	1
472.511	1	7
472.852	1	12
473.193	1	8
473.534	1	2
473.875	1	10
474.215	1	3
474.556	1	8
474.897	1	4
475.238	1	8
475.578	1	6
475.919	1	-1
476.260	1	7
476.601	1	1
476.942	1	6
477.282	1	2
477.623	1	-2
477.964	1	-7
478.305	1	15
478.645	1	0
478.986	1	4
479.327	1	-1
479.667	1	7
480.008	1	-7
480.349	1	2
480.690	1	9
481.030	1	5
481.371	1	10
481.712	1	3
482.053	1	5
482.393	1	8
482.734	1	-4
483.075	1	9
483.415	1	7
483.756	1	-3
484.097	1	8
484.437	1	-3
484.778	1	10
485.119	1	8
485.459	1	-4
485.800	1	7
486.141	1	5
486.481	1	-5
486.822	1	9
487.163	1	-2
487.503	1	-2
487.844	1	5
488.185	1	0
488.525	1	8
488.866	1	5
489.207	1	-3
489.547	1	7
489.888	1	11
490.228	1	0
490.569	1	8
490.910	1	-14
491.250	1	8
491.591	1	3
491.932	1	5
492.272	1	6
492.613	1	-1
492.953	1	1
493.294	1	12
493.635	1	8
493.975	1	8
494.316	1	7
494.656	1	7
494.997	1	6
495.337	1	2
495.678	1	1
496.019	1	-2
496.359	1	11
496.700	1	3
497.040	1	12
497.381	1	6
497.721	1	3
498.062	1	7
498.403	1	-2
498.743	1	9
499.084	1	9
499.424	1	-4
499.765	1	-3
500.105	1	12
500.446	1	4
500.786	1	0
501.127	1	-5
501.467	1	3
501.808	1	12
502.148	1	-5
502.489	1	-3
502.829	1	3
503.170	1	-2
503.510	1	3
503.851	1	6
504.191	1	3
504.532	1	11
504.872	1	4
505.213	1	6
505.553	1	2
505.894	1	7
506.234	1	1
506.575	1	4
506.915	1	12
507.256	1	14
507.596	1	3
507.936	1	1
508.277	1	3
508.617	1	3
508.958	1	6
509.298	1	10
509.639	1	7
509.979	1	0
510.319	1	13
510.660	1	-3
511.000	1	3
511.341	1	-7
511.681	1	3
512.022	1	7
512.362	1	4
512.702	1	6
513.043	1	5
513.383	1	14
513.724	1	-1
514.064	1	5
514.404	1	14
514.745	1	-5
515.085	1	12
515.425	1	3
515.766	1	10
516.106	1	6
516.447	1	3
516.787	1	-2
517.127	1	11
517.468	1	9
517.808	1	10
518.148	1	16
518.489	1	0
518.829	1	21
519.169	1	6
519.510	1	4
519.850	1	16
520.190	1	17
520.531	1	17
520.871	1	7
521.211	1	12
521.552	1	13
521.892	1	11
522.232	1	-1
522.573	1	9
522.913	1	14
523.253	1	8
523.593	1	12
523.934	1	3
524.274	1	0
524.614	1	14
524.955	1	9
525.295	1	16
525.635	1	5
525.975	1	24
526.316	1	5
526.656	1	12
526.996	1	5
527.337	1	17
527.677	1	5
528.017	1	4
528.357	1	15
528.698	1	6
529.038	1	1
529.378	1	12
529.718	1	16
530.058	1	1
530.399	1	13
530.739	1	13
531.079	1	10
531.419	1	14
531.760	1	4
532.100	1	10
532.440	1	12
532.780	1	6
533.120	1	18
533.461	1	5
533.801	1	17
534.141	1	5
534.481	1	5
534.821	1	9
535.162	1	16
535.502	1	13
535.842	1	11
536.182	1	14
536.522	1	5
536.862	1	12
537.203	1	2
537.543	1	14
537.883	1	2
538.223	1	8
538.563	1	12
538.903	1	18
539.243	1	11
539.584	1	18
539.924	1	4
540.264	1	9
540.604	1	19
540.944	1	11
541.284	1	14
541.624	1	13
541.964	1	6
542.305	1	5
542.645	1	8
542.985	1	10
543.325	1	1
543.665	1	7
544.005	1	18
544.345	1	3
544.685	1	20
545.025	1	-1
545.365	1	16
545.705	1	2
546.045	1	-1
546.386	1	4
546.726	1	0
547.066	1	6
547.406	1	-4
547.746	1	7
548.086	1	2
548.426	1	11
548.766	1	3
549.106	1	-5
549.446	1	0
549.786	1	7
550.126	1	16
550.466	1	11
550.806	1	9
551.146	1	10
551.486	1	3
551.826	1	0
552.166	1	10
552.506	1	18
552.846	1	-2
553.186	1	9
553.526	1	6
553.866	1	6
554.206	1	4
554.546	1	15
554.886	1	2
555.226	1	10
555.566	1	6
555.906	1	-1
556.246	1	14
556.586	1	12
556.926	1	15
557.266	1	4
557.606	1	-2
557.946	1	13
558.286	1	11
558.626	1	-5
558.966	1	5
559.306	1	-7
559.646	1	6
559.986	1	6
560.325	1	1
560.665	1	7
561.005	1	1
561.345	1	18
561.685	1	8
562.025	1	3
562.365	1	15
562.705	1	5
563.045	1	8
563.385	1	8
563.725	1	11
564.064	1	16
564.404	1	6
564.744	1	7
565.084	1	14
565.424	1	-4
565.764	1	7
566.104	1	6
566.444	1	6
566.783	1	2
567.123	1	13
567.463	1	1
567.803	1	13
568.143	1	17
568.483	1	15
568.823	1	-2
569.162	1	4
569.502	1	7
569.842	1	-1
570.182	1	2
570.522	1	-3
570.862	1	14
571.201	1	8
571.541	1	4
571.881	1	3
572.221	1	8
572.561	1	11
572.900	1	3
573.240	1	5
573.580	1	7
573.920	1	10
574.260	1	2
574.599	1	7
574.939	1	5
575.279	1	5
575.619	1	8
575.959	1	10
576.298	1	7
576.638	1	13
576.978	1	4
577.318	1	8
577.657	1	12
577.997	1	-3
578.337	1	4
578.677	1	9
579.016	1	7
579.356	1	6
579.696	1	-1
580.036	1	-2
580.375	1	-2
580.715	1	6
581.055	1	0
581.394	1	0
581.734	1	11
582.074	1	1
582.414	1	-6
582.753	1	9
583.093	1	7
583.433	1	6
583.772	1	0
584.112	1	12
584.452	1	9
584.791	1	5
585.131	1	11
585.471	1	4
585.811	1	7
586.150	1	12
586.490	1	-2
586.830	1	-3
587.169	1	10
587.509	1	3
587.849	1	6
588.188	1	8
588.528	1	10
588.867	1	3
589.207	1	5
589.547	1	3
589.886	1	10
590.226	1	4
590.566	1	2
590.905	1	3
591.245	1	4
591.585	1	0
591.924	1	5
592.264	1	-4
592.603	1	-2
592.943	1	0
593.283	1	-2
593.622	1	11
593.962	1	4
594.301	1	-1
594.641	1	10
594.981	1	-1
595.320	1	10
595.660	1	9
595.999	1	13
596.339	1	6
596.678	1	6
597.018	1	2
597.358	1	-1
597.697	1	2
598.037	1	5
598.376	1	6
598.716	1	-1
599.055	1	-2
599.395	1	-1
599.734	1	8
600.074	1	5
600.413	1	1
600.753	1	9
601.092	1	8
601.432	1	-6
601.771	1	3
602.111	1	-2
602.451	1	10
602.790	1	-8
603.130	1	13
603.469	1	4
603.809	1	8
604.148	1	4
604.487	1	12
604.827	1	1
605.166	1	10
605.506	1	3
605.845	1	-12
606.185	1	13
606.524	1	7
606.864	1	18
607.203	1	5
607.543	1	7
607.882	1	6
608.222	1	-5
608.561	1	-1
608.901	1	11
609.240	1	3
609.579	1	10
609.919	1	11
610.258	1	-3
610.598	1	4
610.937	1	8
611.277	1	4
611.616	1	-4
611.955	1	-7
612.295	1	8
612.634	1	-3
612.974	1	11
613.313	1	10
613.652	1	-12
613.992	1	-2
614.331	1	10
614.671	1	4
615.010	1	-4
615.349	1	6
615.689	1	4
616.028	1	9
616.368	1	4
616.707	1	18
617.046	1	3
617.386	1	7
617.725	1	2
618.064	1	12
618.404	1	-2
618.743	1	8
619.082	1	-3
619.422	1	8
619.761	1	15
620.100	1	-2
620.440	1	1
620.779	1	-1
621.118	1	-1
621.458	1	2
621.797	1	-6
622.136	1	5
622.476	1	10
622.815	1	-10
623.154	1	-1
623.494	1	2
623.833	1	19
624.172	1	4
624.511	1	12
624.851	1	0
625.190	1	0
625.529	1	-6
625.869	1	4
626.208	1	3
626.547	1	15
626.886	1	1
627.226	1	2
627.565	1	2
627.904	1	5
628.243	1	9
628.583	1	-11
628.922	1	4
629.261	1	-11
629.600	1	1
629.940	1	14
630.279	1	9
630.618	1	6
630.957	1	-3
631.297	1	2
631.636	1	12
631.975	1	6
632.314	1	0
632.653	1	4
632.993	1	15
633.332	1	1
633.671	1	-7
634.010	1	-3
634.349	1	8
634.689	1	0
635.028	1	12
635.367	1	6
635.706	1	0
636.045	1	16
636.384	1	4
636.724	1	14
637.063	1	1
637.402	1	-1
637.741	1	3
638.080	1	14
638.419	1	1
638.759	1	1
639.098	1	-1
639.437	1	4
639.776	1	1
640.115	1	12
640.454	1	8
640.793	1	-10
641.132	1	6
641.472	1	-5
641.811	1	3
642.150	1	0
642.489	1	2
642.828	1	3
643.167	1	4
643.506	1	12
643.845	1	-5
644.184	1	3
644.524	1	4
644.863	1	3
645.202	1	4
645.541	1	-1
645.880	1	3
646.219	1	10
646.558	1	-2
646.897	1	-1
647.236	1	-1
647.575	1	-5
647.914	1	-2
648.253	1	6
648.592	1	3
648.931	1	0
649.270	1	-9
649.610	1	4
649.949	1	3
650.288	1	6
650.627	1	5
650.966	1	7
651.305	1	-8
651.644	1	3
651.983	1	-2
652.322	1	9
652.661	1	4
653.000	1	4
653.339	1	9
653.678	1	0
654.017	1	8
654.356	1	8
654.695	1	1
655.034	1	2
655.373	1	3
655.712	1	-3
656.051	1	-1
656.390	1	3
656.729	1	-1
657.068	1	5
657.406	1	4
657.745	1	-1
658.084	1	4
658.423	1	5
658.762	1	19
659.101	1	-4
659.440	1	-7
659.779	1	0
660.118	1	-8
660.457	1	-1
660.796	1	14
661.135	1	9
661.474	1	1
661.813	1	3
662.152	1	6
662.491	1	17
662.829	1	8
663.168	1	-2
663.507	1	4
663.846	1	-7
664.185	1	-6
664.524	1	-6
664.863	1	5
665.202	1	-7
665.541	1	-3
665.879	1	3
666.218	1	11
666.557	1	3
666.896	1	7
667.235	1	-3
667.574	1	8
667.913	1	13
668.251	1	-2
668.590	1	5
668.929	1	5
669.268	1	-1
669.607	1	1
669.946	1	11
670.285	1	11
670.623	1	11
670.962	1	-7
671.301	1	-4
671.640	1	-8
671.979	1	1
672.317	1	0
672.656	1	-4
672.995	1	-3
673.334	1	5
673.673	1	3
674.011	1	-3
674.350	1	2
674.689	1	6
675.028	1	9
675.367	1	-5
675.705	1	13
676.044	1	3
676.383	1	7
676.722	1	-7
677.060	1	4
677.399	1	-2
677.738	1	-8
678.077	1	0
678.416	1	6
678.754	1	11
679.093	1	6
679.432	1	6
679.771	1	14
680.109	1	7
680.448	1	1
680.787	1	10
681.125	1	9
681.464	1	-3
681.803	1	5
682.142	1	-3
682.480	1	12
682.819	1	-1
683.158	1	-1
683.496	1	-3
683.835	1	-5
684.174	1	5
684.512	1	3
684.851	1	-2
685.190	1	4
685.529	1	-6
685.867	1	6
686.206	1	8
686.545	1	3
686.883	1	-6
687.222	1	15
687.561	1	10
687.899	1	3
688.238	1	10
688.577	1	1
688.746	1	11