File: Data/GaN_130K_350ms/GaN_sample F_spot6_UVVIS_130 K_200um_350 ms 2x2mm1_125.txt
340.368	1	12
340.710	1	13
341.052	1	-4
341.394	1	3
341.737	1	5
342.079	1	2
342.421	1	11
342.763	1	9
343.105	1	2
343.447	1	2
343.789	1	-1
344.131	1	8
344.473	1	-5
344.815	1	-5
345.157	1	-12
345.499	1	-2
345.841	1	3
346.183	1	20
346.526	1	-6
346.868	1	1
347.210	1	12
347.552	1	-2
347.894	1	4
348.236	1	12
348.578	1	-3
348.920	1	9
349.262	1	9
349.604	1	10
349.946	1	14
350.288	1	-7
350.630	1	9
350.972	1	12
351.314	1	-1
351.656	1	17
351.998	1	-2
352.340	1	16
352.682	1	3
353.024	1	5
353.366	1	9
353.708	1	7
354.050	1	6
354.392	1	17
354.734	1	3
355.076	1	13
355.418	1	5
355.760	1	6
356.102	1	-1
356.444	1	2
356.785	1	15
357.127	1	7
357.469	1	7
357.811	1	14
358.153	1	11
358.495	1	19
358.837	1	11
359.179	1	19
359.521	1	6
359.863	1	19
360.205	1	8
360.547	1	9
360.889	1	7
361.231	1	18
361.572	1	26
361.914	1	20
362.256	1	27
362.598	1	27
362.940	1	11
363.282	1	45
363.624	1	39
363.966	1	49
364.308	1	45
364.649	1	34
364.991	1	49
365.333	1	32
365.675	1	42
366.017	1	56
366.359	1	56
366.701	1	59
367.042	1	65
367.384	1	75
367.726	1	48
368.068	1	61
368.410	1	58
368.752	1	68
369.093	1	61
369.435	1	53
369.777	1	57
370.119	1	65
370.461	1	59
370.803	1	43
371.144	1	54
371.486	1	48
371.828	1	52
372.170	1	38
372.512	1	51
372.853	1	32
373.195	1	37
373.537	1	38
373.879	1	41
374.220	1	36
374.562	1	26
374.904	1	31
375.246	1	40
375.588	1	37
375.929	1	17
376.271	1	45
376.613	1	21
376.955	1	26
377.296	1	19
377.638	1	3
377.980	1	15
378.321	1	18
378.663	1	28
379.005	1	24
379.347	1	30
379.688	1	14
380.030	1	7
380.372	1	25
380.714	1	26
381.055	1	21
381.397	1	22
381.739	1	16
382.080	1	13
382.422	1	17
382.764	1	17
383.105	1	20
383.447	1	18
383.789	1	23
384.130	1	17
384.472	1	19
384.814	1	15
385.156	1	20
385.497	1	13
385.839	1	19
386.180	1	21
386.522	1	11
386.864	1	12
387.205	1	7
387.547	1	10
387.889	1	3
388.230	1	12
388.572	1	26
388.914	1	11
389.255	1	18
389.597	1	-7
389.939	1	16
390.280	1	17
390.622	1	15
390.963	1	21
391.305	1	14
391.647	1	18
391.988	1	22
392.330	1	13
392.671	1	2
393.013	1	21
393.355	1	3
393.696	1	10
394.038	1	16
394.379	1	21
394.721	1	10
395.062	1	5
395.404	1	10
395.746	1	21
396.087	1	16
396.429	1	10
396.770	1	16
397.112	1	18
397.453	1	25
397.795	1	6
398.136	1	13
398.478	1	9
398.819	1	-4
399.161	1	19
399.503	1	13
399.844	1	15
400.186	1	5
400.527	1	13
400.869	1	11
401.210	1	12
401.552	1	20
401.893	1	4
402.235	1	11
402.576	1	15
402.918	1	18
403.259	1	7
403.601	1	16
403.942	1	0
404.284	1	2
404.625	1	23
404.967	1	10
405.308	1	7
405.649	1	8
405.991	1	9
406.332	1	16
406.674	1	17
407.015	1	10
407.357	1	6
407.698	1	5
408.040	1	10
408.381	1	15
408.722	1	15
409.064	1	3
409.405	1	7
409.747	1	10
410.088	1	20
410.430	1	15
410.771	1	-7
411.112	1	18
411.454	1	13
411.795	1	10
412.137	1	-3
412.478	1	4
412.819	1	9
413.161	1	23
413.502	1	19
413.844	1	4
414.185	1	11
414.526	1	13
414.868	1	3
415.209	1	5
415.550	1	-1
415.892	1	8
416.233	1	15
416.575	1	13
416.916	1	10
417.257	1	11
417.599	1	4
417.940	1	18
418.281	1	1
418.623	1	5
418.964	1	3
419.305	1	1
419.647	1	10
419.988	1	11
420.329	1	16
420.671	1	9
421.012	1	16
421.353	1	-2
421.695	1	1
422.036	1	17
422.377	1	11
422.718	1	7
423.060	1	13
423.401	1	11
423.742	1	8
424.084	1	6
424.425	1	10
424.766	1	2
425.107	1	8
425.449	1	6
425.790	1	13
426.131	1	19
426.472	1	3
426.814	1	12
427.155	1	13
427.496	1	13
427.837	1	13
428.179	1	9
428.520	1	18
428.861	1	6
429.202	1	10
429.544	1	20
429.885	1	8
430.226	1	3
430.567	1	6
430.909	1	6
431.250	1	16
431.591	1	1
431.932	1	6
432.273	1	12
432.615	1	10
432.956	1	2
433.297	1	17
433.638	1	9
433.979	1	0
434.320	1	8
434.662	1	8
435.003	1	22
435.344	1	12
435.685	1	-12
436.026	1	10
436.368	1	8
436.709	1	4
437.050	1	17
437.391	1	13
437.732	1	3
438.073	1	20
438.414	1	-5
438.756	1	7
439.097	1	4
439.438	1	4
439.779	1	13
440.120	1	7
440.461	1	16
440.802	1	5
441.143	1	4
441.485	1	6
441.826	1	5
442.167	1	11
442.508	1	1
442.849	1	9
443.190	1	12
443.531	1	14
443.872	1	7
444.213	1	1
444.554	1	-2
444.895	1	11
445.237	1	1
445.578	1	-4
445.919	1	-6
446.260	1	7
446.601	1	6
446.942	1	13
447.283	1	8
447.624	1	7
447.965	1	3
448.306	1	2
448.647	1	17
448.988	1	0
449.329	1	1
449.670	1	1
450.011	1	-4
450.352	1	12
450.693	1	9
451.034	1	3
451.375	1	3
451.716	1	-2
452.057	1	17
452.398	1	-3
452.739	1	7
453.080	1	0
453.421	1	5
453.762	1	9
454.103	1	5
454.444	1	10
454.785	1	8
455.126	1	-8
455.467	1	0
455.808	1	14
456.149	1	1
456.490	1	3
456.831	1	6
457.172	1	-2
457.513	1	3
457.854	1	9
458.195	1	1
458.536	1	5
458.877	1	17
459.218	1	6
459.559	1	1
459.899	1	5
460.240	1	10
460.581	1	1
460.922	1	8
461.263	1	9
461.604	1	-6
461.945	1	12
462.286	1	11
462.627	1	2
462.968	1	5
463.309	1	6
463.649	1	4
463.990	1	6
464.331	1	9
464.672	1	11
465.013	1	2
465.354	1	8
465.695	1	14
466.036	1	1
466.376	1	13
466.717	1	4
467.058	1	11
467.399	1	1
467.740	1	16
468.081	1	18
468.422	1	6
468.762	1	-5
469.103	1	12
469.444	1	3
469.785	1	13
470.126	1	-8
470.467	1	6
470.807	1	2
471.148	1	6
471.489	1	4
471.830	1	12
472.171	1	2
472.511	1	7
472.852	1	5
473.193	1	4
473.534	1	-3
473.875	1	18
474.215	1	1
474.556	1	8
474.897	1	-1
475.238	1	15
475.578	1	0
475.919	1	-3
476.260	1	8
476.601	1	6
476.942	1	8
477.282	1	3
477.623	1	-2
477.964	1	1
478.305	1	18
478.645	1	6
478.986	1	-4
479.327	1	-5
479.667	1	4
480.008	1	-3
480.349	1	2
480.690	1	8
481.030	1	3
481.371	1	19
481.712	1	11
482.053	1	1
482.393	1	11
482.734	1	11
483.075	1	15
483.415	1	3
483.756	1	7
484.097	1	-1
484.437	1	2
484.778	1	14
485.119	1	13
485.459	1	-9
485.800	1	18
486.141	1	-3
486.481	1	4
486.822	1	5
487.163	1	5
487.503	1	1
487.844	1	9
488.185	1	6
488.525	1	2
488.866	1	12
489.207	1	0
489.547	1	8
489.888	1	18
490.228	1	8
490.569	1	0
490.910	1	-8
491.250	1	18
491.591	1	9
491.932	1	13
492.272	1	16
492.613	1	-2
492.953	1	5
493.294	1	12
493.635	1	14
493.975	1	0
494.316	1	6
494.656	1	11
494.997	1	11
495.337	1	11
495.678	1	4
496.019	1	3
496.359	1	21
496.700	1	9
497.040	1	9
497.381	1	4
497.721	1	5
498.062	1	8
498.403	1	13
498.743	1	20
499.084	1	15
499.424	1	1
499.765	1	9
500.105	1	8
500.446	1	15
500.786	1	17
501.127	1	13
501.467	1	10
501.808	1	11
502.148	1	18
502.489	1	15
502.829	1	8
503.170	1	2
503.510	1	16
503.851	1	15
504.191	1	16
504.532	1	11
504.872	1	20
505.213	1	22
505.553	1	6
505.894	1	16
506.234	1	8
506.575	1	9
506.915	1	13
507.256	1	23
507.596	1	14
507.936	1	2
508.277	1	7
508.617	1	11
508.958	1	19
509.298	1	19
509.639	1	23
509.979	1	15
510.319	1	26
510.660	1	5
511.000	1	21
511.341	1	17
511.681	1	16
512.022	1	18
512.362	1	20
512.702	1	22
513.043	1	21
513.383	1	23
513.724	1	13
514.064	1	10
514.404	1	33
514.745	1	16
515.085	1	18
515.425	1	9
515.766	1	23
516.106	1	14
516.447	1	14
516.787	1	20
517.127	1	21
517.468	1	18
517.808	1	17
518.148	1	19
518.489	1	17
518.829	1	19
519.169	1	25
519.510	1	12
519.850	1	27
520.190	1	24
520.531	1	28
520.871	1	9
521.211	1	23
521.552	1	30
521.892	1	29
522.232	1	12
522.573	1	20
522.913	1	26
523.253	1	19
523.593	1	29
523.934	1	17
524.274	1	13
524.614	1	25
524.955	1	28
525.295	1	33
525.635	1	9
525.975	1	25
526.316	1	8
526.656	1	25
526.996	1	28
527.337	1	27
527.677	1	3
528.017	1	26
528.357	1	23
528.698	1	17
529.038	1	22
529.378	1	23
529.718	1	23
530.058	1	15
530.399	1	19
530.739	1	27
531.079	1	13
531.419	1	16
531.760	1	25
532.100	1	31
532.440	1	33
532.780	1	23
533.120	1	26
533.461	1	24
533.801	1	39
534.141	1	13
534.481	1	17
534.821	1	39
535.162	1	24
535.502	1	26
535.842	1	32
536.182	1	38
536.522	1	10
536.862	1	32
537.203	1	17
537.543	1	26
537.883	1	10
538.223	1	24
538.563	1	22
538.903	1	27
539.243	1	25
539.584	1	21
539.924	1	26
540.264	1	7
540.604	1	32
540.944	1	31
541.284	1	22
541.624	1	30
541.964	1	17
542.305	1	8
542.645	1	22
542.985	1	23
543.325	1	30
543.665	1	24
544.005	1	21
544.345	1	17
544.685	1	24
545.025	1	15
545.365	1	30
545.705	1	10
546.045	1	23
546.386	1	23
546.726	1	15
547.066	1	11
547.406	1	4
547.746	1	20
548.086	1	17
548.426	1	25
548.766	1	16
549.106	1	7
549.446	1	17
549.786	1	15
550.126	1	20
550.466	1	18
550.806	1	24
551.146	1	18
551.486	1	16
551.826	1	11
552.166	1	18
552.506	1	18
552.846	1	10
553.186	1	25
553.526	1	20
553.866	1	5
554.206	1	7
554.546	1	17
554.886	1	18
555.226	1	17
555.566	1	9
555.906	1	13
556.246	1	15
556.586	1	13
556.926	1	15
557.266	1	18
557.606	1	15
557.946	1	20
558.286	1	19
558.626	1	14
558.966	1	12
559.306	1	14
559.646	1	13
559.986	1	13
560.325	1	3
560.665	1	11
561.005	1	15
561.345	1	23
561.685	1	18
562.025	1	14
562.365	1	21
562.705	1	14
563.045	1	12
563.385	1	18
563.725	1	9
564.064	1	25
564.404	1	12
564.744	1	12
565.084	1	11
565.424	1	13
565.764	1	11
566.104	1	12
566.444	1	17
566.783	1	21
567.123	1	20
567.463	1	15
567.803	1	17
568.143	1	20
568.483	1	10
568.823	1	-2
569.162	1	22
569.502	1	7
569.842	1	8
570.182	1	9
570.522	1	-7
570.862	1	37
571.201	1	13
571.541	1	8
571.881	1	9
572.221	1	19
572.561	1	11
572.900	1	10
573.240	1	1
573.580	1	4
573.920	1	15
574.260	1	3
574.599	1	22
574.939	1	23
575.279	1	1
575.619	1	10
575.959	1	15
576.298	1	7
576.638	1	5
576.978	1	4
577.318	1	12
577.657	1	19
577.997	1	7
578.337	1	11
578.677	1	6
579.016	1	7
579.356	1	23
579.696	1	5
580.036	1	5
580.375	1	6
580.715	1	11
581.055	1	5
581.394	1	17
581.734	1	18
582.074	1	10
582.414	1	6
582.753	1	9
583.093	1	14
583.433	1	14
583.772	1	13
584.112	1	9
584.452	1	20
584.791	1	2
585.131	1	17
585.471	1	10
585.811	1	12
586.150	1	7
586.490	1	5
586.830	1	-2
587.169	1	11
587.509	1	3
587.849	1	6
588.188	1	15
588.528	1	20
588.867	1	4
589.207	1	7
589.547	1	2
589.886	1	8
590.226	1	17
590.566	1	0
590.905	1	15
591.245	1	1
591.585	1	18
591.924	1	5
592.264	1	4
592.603	1	8
592.943	1	4
593.283	1	-9
593.622	1	10
593.962	1	10
594.301	1	2
594.641	1	1
594.981	1	-9
595.320	1	4
595.660	1	16
595.999	1	7
596.339	1	13
596.678	1	3
597.018	1	6
597.358	1	4
597.697	1	9
598.037	1	11
598.376	1	2
598.716	1	11
599.055	1	6
599.395	1	1
599.734	1	12
600.074	1	1
600.413	1	10
600.753	1	14
601.092	1	-1
601.432	1	-2
601.771	1	11
602.111	1	6
602.451	1	4
602.790	1	2
603.130	1	7
603.469	1	7
603.809	1	3
604.148	1	8
604.487	1	18
604.827	1	8
605.166	1	11
605.506	1	-2
605.845	1	-8
606.185	1	13
606.524	1	11
606.864	1	17
607.203	1	6
607.543	1	12
607.882	1	13
608.222	1	-9
608.561	1	-3
608.901	1	8
609.240	1	-1
609.579	1	16
609.919	1	9
610.258	1	-1
610.598	1	9
610.937	1	6
611.277	1	7
611.616	1	-11
611.955	1	0
612.295	1	9
612.634	1	0
612.974	1	5
613.313	1	6
613.652	1	4
613.992	1	3
614.331	1	7
614.671	1	11
615.010	1	-2
615.349	1	10
615.689	1	10
616.028	1	13
616.368	1	4
616.707	1	14
617.046	1	6
617.386	1	0
617.725	1	2
618.064	1	16
618.404	1	-1
618.743	1	11
619.082	1	2
619.422	1	4
619.761	1	7
620.100	1	2
620.440	1	4
620.779	1	10
621.118	1	3
621.458	1	9
621.797	1	-1
622.136	1	13
622.476	1	0
622.815	1	1
623.154	1	6
623.494	1	10
623.833	1	10
624.172	1	5
624.511	1	8
624.851	1	9
625.190	1	-1
625.529	1	9
625.869	1	11
626.208	1	2
626.547	1	10
626.886	1	0
627.226	1	-11
627.565	1	3
627.904	1	9
628.243	1	9
628.583	1	-5
628.922	1	-11
629.261	1	2
629.600	1	2
629.940	1	14
630.279	1	20
630.618	1	3
630.957	1	6
631.297	1	-1
631.636	1	8
631.975	1	8
632.314	1	7
632.653	1	0
632.993	1	14
633.332	1	5
633.671	1	-2
634.010	1	-14
634.349	1	-3
634.689	1	10
635.028	1	3
635.367	1	3
635.706	1	-2
636.045	1	9
636.384	1	5
636.724	1	10
637.063	1	2
637.402	1	-1
637.741	1	11
638.080	1	13
638.419	1	12
638.759	1	-3
639.098	1	0
639.437	1	13
639.776	1	0
640.115	1	17
640.454	1	12
640.793	1	-9
641.132	1	16
641.472	1	1
641.811	1	5
642.150	1	-4
642.489	1	1
642.828	1	-2
643.167	1	0
643.506	1	10
643.845	1	-3
644.184	1	-5
644.524	1	4
644.863	1	3
645.202	1	5
645.541	1	5
645.880	1	8
646.219	1	0
646.558	1	5
646.897	1	-4
647.236	1	2
647.575	1	-7
647.914	1	-3
648.253	1	2
648.592	1	2
648.931	1	-5
649.270	1	3
649.610	1	5
649.949	1	1
650.288	1	14
650.627	1	-2
650.966	1	5
651.305	1	-8
651.644	1	8
651.983	1	-3
652.322	1	-2
652.661	1	-4
653.000	1	-1
653.339	1	1
653.678	1	0
654.017	1	-2
654.356	1	3
654.695	1	8
655.034	1	2
655.373	1	-4
655.712	1	4
656.051	1	1
656.390	1	5
656.729	1	10
657.068	1	13
657.406	1	7
657.745	1	4
658.084	1	1
658.423	1	4
658.762	1	14
659.101	1	3
659.440	1	-1
659.779	1	10
660.118	1	-6
660.457	1	-2
660.796	1	2
661.135	1	12
661.474	1	0
661.813	1	1
662.152	1	1
662.491	1	14
662.829	1	12
663.168	1	-6
663.507	1	-1
663.846	1	1
664.185	1	3
664.524	1	-1
664.863	1	5
665.202	1	1
665.541	1	-1
665.879	1	1
666.218	1	1
666.557	1	10
666.896	1	4
667.235	1	10
667.574	1	15
667.913	1	5
668.251	1	0
668.590	1	6
668.929	1	5
669.268	1	-4
669.607	1	6
669.946	1	11
670.285	1	9
670.623	1	22
670.962	1	-7
671.301	1	15
671.640	1	-13
671.979	1	10
672.317	1	4
672.656	1	3
672.995	1	6
673.334	1	-2
673.673	1	4
674.011	1	1
674.350	1	7
674.689	1	5
675.028	1	12
675.367	1	2
675.705	1	15
676.044	1	9
676.383	1	6
676.722	1	0
677.060	1	5
677.399	1	2
677.738	1	-3
678.077	1	9
678.416	1	6
678.754	1	-1
679.093	1	10
679.432	1	3
679.771	1	8
680.109	1	5
680.448	1	2
680.787	1	6
681.125	1	15
681.464	1	4
681.803	1	1
682.142	1	-3
682.480	1	7
682.819	1	6
683.158	1	9
683.496	1	-2
683.835	1	-4
684.174	1	15
684.512	1	13
684.851	1	-3
685.190	1	0
685.529	1	-6
685.867	1	16
686.206	1	12
686.545	1	-4
686.883	1	-5
687.222	1	8
687.561	1	15
687.899	1	0
688.238	1	11
688.577	1	-5
688.746	1	1