File: Data/GaN_130K_350ms/GaN_sample F_spot6_UVVIS_130 K_200um_350 ms 2x2mm1_134.txt
340.368	1	7
340.710	1	5
341.052	1	1
341.394	1	4
341.737	1	5
342.079	1	13
342.421	1	6
342.763	1	13
343.105	1	7
343.447	1	8
343.789	1	6
344.131	1	7
344.473	1	-1
344.815	1	-6
345.157	1	-12
345.499	1	0
345.841	1	-4
346.183	1	5
346.526	1	1
346.868	1	0
347.210	1	4
347.552	1	-4
347.894	1	0
348.236	1	-6
348.578	1	5
348.920	1	7
349.262	1	10
349.604	1	4
349.946	1	6
350.288	1	0
350.630	1	5
350.972	1	9
351.314	1	4
351.656	1	7
351.998	1	3
352.340	1	17
352.682	1	3
353.024	1	10
353.366	1	8
353.708	1	9
354.050	1	15
354.392	1	8
354.734	1	-4
355.076	1	4
355.418	1	7
355.760	1	11
356.102	1	5
356.444	1	-4
356.785	1	8
357.127	1	13
357.469	1	5
357.811	1	6
358.153	1	3
358.495	1	17
358.837	1	15
359.179	1	13
359.521	1	7
359.863	1	9
360.205	1	12
360.547	1	8
360.889	1	15
361.231	1	11
361.572	1	23
361.914	1	21
362.256	1	16
362.598	1	18
362.940	1	21
363.282	1	33
363.624	1	33
363.966	1	26
364.308	1	42
364.649	1	46
364.991	1	31
365.333	1	31
365.675	1	40
366.017	1	47
366.359	1	51
366.701	1	55
367.042	1	45
367.384	1	50
367.726	1	45
368.068	1	54
368.410	1	42
368.752	1	54
369.093	1	49
369.435	1	50
369.777	1	41
370.119	1	53
370.461	1	42
370.803	1	48
371.144	1	43
371.486	1	41
371.828	1	35
372.170	1	32
372.512	1	38
372.853	1	30
373.195	1	33
373.537	1	36
373.879	1	26
374.220	1	31
374.562	1	26
374.904	1	21
375.246	1	35
375.588	1	21
375.929	1	18
376.271	1	32
376.613	1	18
376.955	1	28
377.296	1	19
377.638	1	17
377.980	1	20
378.321	1	18
378.663	1	18
379.005	1	21
379.347	1	13
379.688	1	16
380.030	1	8
380.372	1	26
380.714	1	25
381.055	1	22
381.397	1	8
381.739	1	17
382.080	1	17
382.422	1	21
382.764	1	13
383.105	1	7
383.447	1	21
383.789	1	30
384.130	1	17
384.472	1	15
384.814	1	1
385.156	1	14
385.497	1	9
385.839	1	17
386.180	1	15
386.522	1	18
386.864	1	20
387.205	1	4
387.547	1	17
387.889	1	5
388.230	1	8
388.572	1	19
388.914	1	1
389.255	1	17
389.597	1	4
389.939	1	11
390.280	1	19
390.622	1	2
390.963	1	9
391.305	1	14
391.647	1	18
391.988	1	12
392.330	1	5
392.671	1	1
393.013	1	10
393.355	1	11
393.696	1	-1
394.038	1	16
394.379	1	10
394.721	1	10
395.062	1	11
395.404	1	-1
395.746	1	13
396.087	1	17
396.429	1	15
396.770	1	12
397.112	1	16
397.453	1	10
397.795	1	11
398.136	1	3
398.478	1	7
398.819	1	-6
399.161	1	11
399.503	1	12
399.844	1	6
400.186	1	12
400.527	1	19
400.869	1	11
401.210	1	8
401.552	1	12
401.893	1	-2
402.235	1	-6
402.576	1	5
402.918	1	14
403.259	1	10
403.601	1	14
403.942	1	-2
404.284	1	12
404.625	1	13
404.967	1	8
405.308	1	10
405.649	1	1
405.991	1	10
406.332	1	9
406.674	1	13
407.015	1	6
407.357	1	13
407.698	1	10
408.040	1	12
408.381	1	19
408.722	1	13
409.064	1	9
409.405	1	11
409.747	1	3
410.088	1	16
410.430	1	17
410.771	1	-8
411.112	1	14
411.454	1	7
411.795	1	14
412.137	1	-2
412.478	1	11
412.819	1	14
413.161	1	16
413.502	1	13
413.844	1	11
414.185	1	16
414.526	1	9
414.868	1	2
415.209	1	11
415.550	1	5
415.892	1	14
416.233	1	13
416.575	1	11
416.916	1	0
417.257	1	9
417.599	1	0
417.940	1	15
418.281	1	9
418.623	1	7
418.964	1	7
419.305	1	5
419.647	1	11
419.988	1	19
420.329	1	16
420.671	1	6
421.012	1	1
421.353	1	-8
421.695	1	4
422.036	1	7
422.377	1	10
422.718	1	9
423.060	1	15
423.401	1	18
423.742	1	13
424.084	1	10
424.425	1	7
424.766	1	5
425.107	1	11
425.449	1	8
425.790	1	12
426.131	1	17
426.472	1	3
426.814	1	9
427.155	1	5
427.496	1	9
427.837	1	12
428.179	1	10
428.520	1	6
428.861	1	8
429.202	1	11
429.544	1	12
429.885	1	9
430.226	1	3
430.567	1	12
430.909	1	10
431.250	1	12
431.591	1	9
431.932	1	5
432.273	1	15
432.615	1	11
432.956	1	3
433.297	1	13
433.638	1	-4
433.979	1	11
434.320	1	7
434.662	1	10
435.003	1	15
435.344	1	5
435.685	1	-5
436.026	1	7
436.368	1	-1
436.709	1	6
437.050	1	9
437.391	1	21
437.732	1	6
438.073	1	16
438.414	1	-1
438.756	1	8
439.097	1	13
439.438	1	9
439.779	1	11
440.120	1	0
440.461	1	19
440.802	1	0
441.143	1	3
441.485	1	8
441.826	1	9
442.167	1	10
442.508	1	-2
442.849	1	3
443.190	1	4
443.531	1	3
443.872	1	14
444.213	1	9
444.554	1	2
444.895	1	10
445.237	1	4
445.578	1	0
445.919	1	-2
446.260	1	2
446.601	1	14
446.942	1	-2
447.283	1	11
447.624	1	12
447.965	1	7
448.306	1	-3
448.647	1	18
448.988	1	7
449.329	1	2
449.670	1	3
450.011	1	4
450.352	1	-1
450.693	1	-3
451.034	1	-10
451.375	1	9
451.716	1	2
452.057	1	20
452.398	1	-12
452.739	1	10
453.080	1	2
453.421	1	4
453.762	1	13
454.103	1	9
454.444	1	7
454.785	1	3
455.126	1	-2
455.467	1	2
455.808	1	9
456.149	1	-6
456.490	1	7
456.831	1	3
457.172	1	-1
457.513	1	1
457.854	1	2
458.195	1	0
458.536	1	5
458.877	1	24
459.218	1	4
459.559	1	0
459.899	1	8
460.240	1	16
460.581	1	-2
460.922	1	6
461.263	1	9
461.604	1	-8
461.945	1	14
462.286	1	4
462.627	1	5
462.968	1	2
463.309	1	14
463.649	1	3
463.990	1	3
464.331	1	6
464.672	1	9
465.013	1	-5
465.354	1	6
465.695	1	9
466.036	1	3
466.376	1	0
466.717	1	11
467.058	1	17
467.399	1	0
467.740	1	18
468.081	1	8
468.422	1	8
468.762	1	7
469.103	1	8
469.444	1	3
469.785	1	14
470.126	1	-4
470.467	1	8
470.807	1	3
471.148	1	8
471.489	1	5
471.830	1	5
472.171	1	6
472.511	1	5
472.852	1	8
473.193	1	8
473.534	1	-1
473.875	1	7
474.215	1	10
474.556	1	10
474.897	1	5
475.238	1	15
475.578	1	10
475.919	1	1
476.260	1	8
476.601	1	2
476.942	1	19
477.282	1	7
477.623	1	4
477.964	1	10
478.305	1	14
478.645	1	7
478.986	1	2
479.327	1	5
479.667	1	7
480.008	1	6
480.349	1	2
480.690	1	5
481.030	1	7
481.371	1	4
481.712	1	11
482.053	1	10
482.393	1	16
482.734	1	4
483.075	1	10
483.415	1	-3
483.756	1	-2
484.097	1	5
484.437	1	5
484.778	1	21
485.119	1	11
485.459	1	-8
485.800	1	13
486.141	1	-1
486.481	1	2
486.822	1	14
487.163	1	0
487.503	1	3
487.844	1	-1
488.185	1	7
488.525	1	18
488.866	1	10
489.207	1	-1
489.547	1	1
489.888	1	15
490.228	1	-1
490.569	1	20
490.910	1	-3
491.250	1	12
491.591	1	0
491.932	1	10
492.272	1	11
492.613	1	-5
492.953	1	13
493.294	1	13
493.635	1	9
493.975	1	20
494.316	1	13
494.656	1	9
494.997	1	0
495.337	1	16
495.678	1	8
496.019	1	-3
496.359	1	10
496.700	1	8
497.040	1	18
497.381	1	12
497.721	1	4
498.062	1	-5
498.403	1	5
498.743	1	12
499.084	1	28
499.424	1	5
499.765	1	2
500.105	1	13
500.446	1	15
500.786	1	13
501.127	1	0
501.467	1	23
501.808	1	8
502.148	1	6
502.489	1	10
502.829	1	9
503.170	1	7
503.510	1	18
503.851	1	8
504.191	1	13
504.532	1	12
504.872	1	9
505.213	1	9
505.553	1	14
505.894	1	18
506.234	1	12
506.575	1	12
506.915	1	12
507.256	1	22
507.596	1	14
507.936	1	5
508.277	1	17
508.617	1	4
508.958	1	19
509.298	1	14
509.639	1	15
509.979	1	14
510.319	1	26
510.660	1	6
511.000	1	11
511.341	1	15
511.681	1	13
512.022	1	23
512.362	1	21
512.702	1	16
513.043	1	7
513.383	1	14
513.724	1	6
514.064	1	6
514.404	1	16
514.745	1	5
515.085	1	20
515.425	1	13
515.766	1	19
516.106	1	5
516.447	1	14
516.787	1	19
517.127	1	15
517.468	1	18
517.808	1	8
518.148	1	15
518.489	1	15
518.829	1	26
519.169	1	16
519.510	1	19
519.850	1	35
520.190	1	24
520.531	1	23
520.871	1	8
521.211	1	16
521.552	1	16
521.892	1	22
522.232	1	12
522.573	1	11
522.913	1	16
523.253	1	21
523.593	1	27
523.934	1	19
524.274	1	8
524.614	1	22
524.955	1	22
525.295	1	16
525.635	1	16
525.975	1	25
526.316	1	17
526.656	1	17
526.996	1	14
527.337	1	29
527.677	1	17
528.017	1	14
528.357	1	4
528.698	1	11
529.038	1	23
529.378	1	24
529.718	1	23
530.058	1	11
530.399	1	30
530.739	1	24
531.079	1	26
531.419	1	23
531.760	1	13
532.100	1	18
532.440	1	23
532.780	1	13
533.120	1	25
533.461	1	6
533.801	1	22
534.141	1	23
534.481	1	25
534.821	1	33
535.162	1	28
535.502	1	13
535.842	1	23
536.182	1	27
536.522	1	16
536.862	1	16
537.203	1	11
537.543	1	28
537.883	1	11
538.223	1	25
538.563	1	29
538.903	1	20
539.243	1	18
539.584	1	14
539.924	1	17
540.264	1	13
540.604	1	19
540.944	1	25
541.284	1	20
541.624	1	18
541.964	1	9
542.305	1	21
542.645	1	11
542.985	1	18
543.325	1	17
543.665	1	19
544.005	1	19
544.345	1	18
544.685	1	19
545.025	1	12
545.365	1	27
545.705	1	6
546.045	1	19
546.386	1	16
546.726	1	9
547.066	1	22
547.406	1	-2
547.746	1	19
548.086	1	3
548.426	1	18
548.766	1	13
549.106	1	-2
549.446	1	15
549.786	1	16
550.126	1	22
550.466	1	11
550.806	1	23
551.146	1	7
551.486	1	9
551.826	1	16
552.166	1	19
552.506	1	15
552.846	1	9
553.186	1	13
553.526	1	13
553.866	1	4
554.206	1	22
554.546	1	8
554.886	1	11
555.226	1	18
555.566	1	20
555.906	1	10
556.246	1	11
556.586	1	7
556.926	1	20
557.266	1	16
557.606	1	4
557.946	1	18
558.286	1	24
558.626	1	2
558.966	1	25
559.306	1	12
559.646	1	12
559.986	1	20
560.325	1	1
560.665	1	14
561.005	1	7
561.345	1	19
561.685	1	15
562.025	1	3
562.365	1	25
562.705	1	11
563.045	1	13
563.385	1	8
563.725	1	4
564.064	1	26
564.404	1	5
564.744	1	19
565.084	1	10
565.424	1	12
565.764	1	14
566.104	1	7
566.444	1	23
566.783	1	16
567.123	1	11
567.463	1	14
567.803	1	12
568.143	1	20
568.483	1	10
568.823	1	-3
569.162	1	13
569.502	1	5
569.842	1	8
570.182	1	9
570.522	1	-7
570.862	1	27
571.201	1	8
571.541	1	7
571.881	1	13
572.221	1	10
572.561	1	14
572.900	1	9
573.240	1	5
573.580	1	2
573.920	1	15
574.260	1	1
574.599	1	5
574.939	1	15
575.279	1	1
575.619	1	11
575.959	1	9
576.298	1	12
576.638	1	6
576.978	1	0
577.318	1	6
577.657	1	17
577.997	1	12
578.337	1	3
578.677	1	15
579.016	1	6
579.356	1	14
579.696	1	12
580.036	1	6
580.375	1	9
580.715	1	15
581.055	1	11
581.394	1	1
581.734	1	11
582.074	1	4
582.414	1	2
582.753	1	8
583.093	1	7
583.433	1	16
583.772	1	12
584.112	1	14
584.452	1	12
584.791	1	5
585.131	1	9
585.471	1	6
585.811	1	6
586.150	1	15
586.490	1	7
586.830	1	-4
587.169	1	4
587.509	1	4
587.849	1	22
588.188	1	16
588.528	1	15
588.867	1	5
589.207	1	5
589.547	1	4
589.886	1	5
590.226	1	8
590.566	1	10
590.905	1	13
591.245	1	8
591.585	1	14
591.924	1	3
592.264	1	-3
592.603	1	7
592.943	1	6
593.283	1	0
593.622	1	10
593.962	1	6
594.301	1	-2
594.641	1	9
594.981	1	-4
595.320	1	5
595.660	1	4
595.999	1	6
596.339	1	10
596.678	1	1
597.018	1	7
597.358	1	3
597.697	1	-7
598.037	1	5
598.376	1	0
598.716	1	12
599.055	1	2
599.395	1	4
599.734	1	-2
600.074	1	7
600.413	1	11
600.753	1	11
601.092	1	1
601.432	1	-2
601.771	1	13
602.111	1	7
602.451	1	5
602.790	1	7
603.130	1	10
603.469	1	5
603.809	1	5
604.148	1	5
604.487	1	14
604.827	1	2
605.166	1	14
605.506	1	11
605.845	1	1
606.185	1	-1
606.524	1	14
606.864	1	8
607.203	1	6
607.543	1	8
607.882	1	12
608.222	1	-3
608.561	1	-4
608.901	1	14
609.240	1	2
609.579	1	15
609.919	1	17
610.258	1	2
610.598	1	5
610.937	1	8
611.277	1	10
611.616	1	-4
611.955	1	2
612.295	1	13
612.634	1	6
612.974	1	3
613.313	1	4
613.652	1	-4
613.992	1	11
614.331	1	7
614.671	1	9
615.010	1	-6
615.349	1	-4
615.689	1	8
616.028	1	10
616.368	1	8
616.707	1	27
617.046	1	5
617.386	1	3
617.725	1	0
618.064	1	5
618.404	1	11
618.743	1	12
619.082	1	6
619.422	1	5
619.761	1	14
620.100	1	1
620.440	1	12
620.779	1	7
621.118	1	11
621.458	1	9
621.797	1	3
622.136	1	5
622.476	1	11
622.815	1	12
623.154	1	0
623.494	1	10
623.833	1	3
624.172	1	4
624.511	1	13
624.851	1	5
625.190	1	-2
625.529	1	2
625.869	1	4
626.208	1	1
626.547	1	7
626.886	1	-2
627.226	1	3
627.565	1	11
627.904	1	5
628.243	1	4
628.583	1	-5
628.922	1	-3
629.261	1	-14
629.600	1	8
629.940	1	4
630.279	1	10
630.618	1	-2
630.957	1	6
631.297	1	-3
631.636	1	16
631.975	1	7
632.314	1	2
632.653	1	-4
632.993	1	18
633.332	1	5
633.671	1	0
634.010	1	-3
634.349	1	6
634.689	1	11
635.028	1	6
635.367	1	2
635.706	1	4
636.045	1	19
636.384	1	3
636.724	1	6
637.063	1	0
637.402	1	-2
637.741	1	9
638.080	1	8
638.419	1	11
638.759	1	11
639.098	1	-1
639.437	1	18
639.776	1	6
640.115	1	7
640.454	1	7
640.793	1	-4
641.132	1	17
641.472	1	0
641.811	1	-4
642.150	1	-11
642.489	1	3
642.828	1	1
643.167	1	4
643.506	1	3
643.845	1	-8
644.184	1	-2
644.524	1	0
644.863	1	-6
645.202	1	6
645.541	1	0
645.880	1	4
646.219	1	10
646.558	1	4
646.897	1	6
647.236	1	2
647.575	1	3
647.914	1	-5
648.253	1	7
648.592	1	11
648.931	1	2
649.270	1	-6
649.610	1	-4
649.949	1	11
650.288	1	11
650.627	1	5
650.966	1	8
651.305	1	1
651.644	1	5
651.983	1	-5
652.322	1	-3
652.661	1	2
653.000	1	9
653.339	1	11
653.678	1	12
654.017	1	1
654.356	1	9
654.695	1	-7
655.034	1	8
655.373	1	-2
655.712	1	2
656.051	1	8
656.390	1	6
656.729	1	8
657.068	1	-8
657.406	1	5
657.745	1	2
658.084	1	2
658.423	1	1
658.762	1	21
659.101	1	13
659.440	1	0
659.779	1	1
660.118	1	-4
660.457	1	3
660.796	1	8
661.135	1	7
661.474	1	5
661.813	1	-7
662.152	1	0
662.491	1	22
662.829	1	13
663.168	1	-1
663.507	1	4
663.846	1	6
664.185	1	4
664.524	1	1
664.863	1	9
665.202	1	-4
665.541	1	-2
665.879	1	2
666.218	1	8
666.557	1	11
666.896	1	9
667.235	1	1
667.574	1	19
667.913	1	4
668.251	1	5
668.590	1	6
668.929	1	12
669.268	1	-4
669.607	1	1
669.946	1	22
670.285	1	8
670.623	1	14
670.962	1	-2
671.301	1	2
671.640	1	2
671.979	1	-4
672.317	1	2
672.656	1	-5
672.995	1	7
673.334	1	-7
673.673	1	12
674.011	1	1
674.350	1	-1
674.689	1	15
675.028	1	9
675.367	1	1
675.705	1	8
676.044	1	7
676.383	1	3
676.722	1	-1
677.060	1	8
677.399	1	9
677.738	1	-3
678.077	1	-2
678.416	1	12
678.754	1	9
679.093	1	4
679.432	1	9
679.771	1	4
680.109	1	2
680.448	1	8
680.787	1	4
681.125	1	9
681.464	1	1
681.803	1	-3
682.142	1	-7
682.480	1	12
682.819	1	12
683.158	1	7
683.496	1	3
683.835	1	2
684.174	1	12
684.512	1	10
684.851	1	2
685.190	1	4
685.529	1	-8
685.867	1	8
686.206	1	6
686.545	1	-6
686.883	1	1
687.222	1	3
687.561	1	9
687.899	1	7
688.238	1	6
688.577	1	-7
688.746	1	9