File: Data/GaN_130K_350ms/GaN_sample F_spot6_UVVIS_130 K_200um_350 ms 2x2mm1_265.txt
340.368	1	2
340.710	1	7
341.052	1	-7
341.394	1	6
341.737	1	3
342.079	1	-6
342.421	1	12
342.763	1	-1
343.105	1	3
343.447	1	5
343.789	1	7
344.131	1	11
344.473	1	-1
344.815	1	-7
345.157	1	-4
345.499	1	-6
345.841	1	-3
346.183	1	11
346.526	1	6
346.868	1	2
347.210	1	-3
347.552	1	7
347.894	1	13
348.236	1	0
348.578	1	-1
348.920	1	4
349.262	1	7
349.604	1	0
349.946	1	12
350.288	1	-12
350.630	1	1
350.972	1	7
351.314	1	3
351.656	1	9
351.998	1	-1
352.340	1	15
352.682	1	1
353.024	1	-5
353.366	1	5
353.708	1	0
354.050	1	19
354.392	1	2
354.734	1	-5
355.076	1	7
355.418	1	5
355.760	1	4
356.102	1	6
356.444	1	-11
356.785	1	6
357.127	1	0
357.469	1	1
357.811	1	1
358.153	1	-1
358.495	1	7
358.837	1	3
359.179	1	-3
359.521	1	3
359.863	1	1
360.205	1	-7
360.547	1	2
360.889	1	3
361.231	1	-3
361.572	1	15
361.914	1	13
362.256	1	3
362.598	1	5
362.940	1	1
363.282	1	18
363.624	1	4
363.966	1	14
364.308	1	13
364.649	1	13
364.991	1	6
365.333	1	6
365.675	1	11
366.017	1	18
366.359	1	8
366.701	1	7
367.042	1	24
367.384	1	16
367.726	1	7
368.068	1	7
368.410	1	13
368.752	1	16
369.093	1	11
369.435	1	6
369.777	1	8
370.119	1	16
370.461	1	5
370.803	1	7
371.144	1	7
371.486	1	18
371.828	1	13
372.170	1	6
372.512	1	14
372.853	1	1
373.195	1	4
373.537	1	11
373.879	1	16
374.220	1	8
374.562	1	-1
374.904	1	11
375.246	1	3
375.588	1	17
375.929	1	-5
376.271	1	7
376.613	1	-6
376.955	1	10
377.296	1	1
377.638	1	-9
377.980	1	0
378.321	1	2
378.663	1	12
379.005	1	18
379.347	1	10
379.688	1	2
380.030	1	-6
380.372	1	19
380.714	1	17
381.055	1	5
381.397	1	4
381.739	1	4
382.080	1	0
382.422	1	2
382.764	1	12
383.105	1	3
383.447	1	4
383.789	1	6
384.130	1	11
384.472	1	16
384.814	1	1
385.156	1	3
385.497	1	-4
385.839	1	6
386.180	1	9
386.522	1	-1
386.864	1	9
387.205	1	2
387.547	1	12
387.889	1	-8
388.230	1	-2
388.572	1	8
388.914	1	11
389.255	1	4
389.597	1	-6
389.939	1	9
390.280	1	12
390.622	1	1
390.963	1	9
391.305	1	6
391.647	1	13
391.988	1	11
392.330	1	-3
392.671	1	5
393.013	1	5
393.355	1	-4
393.696	1	0
394.038	1	12
394.379	1	8
394.721	1	6
395.062	1	1
395.404	1	-6
395.746	1	13
396.087	1	12
396.429	1	1
396.770	1	20
397.112	1	4
397.453	1	10
397.795	1	-7
398.136	1	9
398.478	1	3
398.819	1	-3
399.161	1	18
399.503	1	7
399.844	1	2
400.186	1	7
400.527	1	2
400.869	1	-2
401.210	1	-3
401.552	1	14
401.893	1	-12
402.235	1	2
402.576	1	10
402.918	1	12
403.259	1	-3
403.601	1	8
403.942	1	11
404.284	1	-6
404.625	1	12
404.967	1	-9
405.308	1	6
405.649	1	7
405.991	1	10
406.332	1	11
406.674	1	7
407.015	1	9
407.357	1	-8
407.698	1	6
408.040	1	-7
408.381	1	13
408.722	1	3
409.064	1	3
409.405	1	1
409.747	1	-1
410.088	1	9
410.430	1	5
410.771	1	-1
411.112	1	6
411.454	1	6
411.795	1	6
412.137	1	-4
412.478	1	-3
412.819	1	4
413.161	1	12
413.502	1	12
413.844	1	1
414.185	1	12
414.526	1	4
414.868	1	-5
415.209	1	-5
415.550	1	4
415.892	1	14
416.233	1	7
416.575	1	3
416.916	1	5
417.257	1	13
417.599	1	-1
417.940	1	9
418.281	1	7
418.623	1	6
418.964	1	5
419.305	1	3
419.647	1	8
419.988	1	18
420.329	1	11
420.671	1	-2
421.012	1	13
421.353	1	-6
421.695	1	-3
422.036	1	-1
422.377	1	9
422.718	1	5
423.060	1	2
423.401	1	9
423.742	1	1
424.084	1	9
424.425	1	13
424.766	1	7
425.107	1	5
425.449	1	3
425.790	1	15
426.131	1	16
426.472	1	2
426.814	1	0
427.155	1	2
427.496	1	1
427.837	1	6
428.179	1	12
428.520	1	3
428.861	1	-6
429.202	1	4
429.544	1	6
429.885	1	-2
430.226	1	1
430.567	1	3
430.909	1	7
431.250	1	15
431.591	1	0
431.932	1	-5
432.273	1	3
432.615	1	9
432.956	1	0
433.297	1	10
433.638	1	5
433.979	1	-3
434.320	1	6
434.662	1	-2
435.003	1	11
435.344	1	8
435.685	1	-6
436.026	1	2
436.368	1	5
436.709	1	-1
437.050	1	8
437.391	1	13
437.732	1	-2
438.073	1	16
438.414	1	-6
438.756	1	6
439.097	1	1
439.438	1	8
439.779	1	6
440.120	1	1
440.461	1	8
440.802	1	-11
441.143	1	2
441.485	1	6
441.826	1	2
442.167	1	-2
442.508	1	-2
442.849	1	-2
443.190	1	5
443.531	1	4
443.872	1	15
444.213	1	-3
444.554	1	11
444.895	1	-1
445.237	1	4
445.578	1	-4
445.919	1	0
446.260	1	5
446.601	1	5
446.942	1	8
447.283	1	4
447.624	1	4
447.965	1	9
448.306	1	8
448.647	1	11
448.988	1	6
449.329	1	2
449.670	1	-2
450.011	1	-1
450.352	1	3
450.693	1	5
451.034	1	2
451.375	1	-1
451.716	1	3
452.057	1	15
452.398	1	-5
452.739	1	-2
453.080	1	3
453.421	1	2
453.762	1	7
454.103	1	4
454.444	1	-2
454.785	1	8
455.126	1	-6
455.467	1	4
455.808	1	11
456.149	1	1
456.490	1	0
456.831	1	5
457.172	1	0
457.513	1	-7
457.854	1	-2
458.195	1	-8
458.536	1	6
458.877	1	17
459.218	1	3
459.559	1	7
459.899	1	-3
460.240	1	11
460.581	1	0
460.922	1	12
461.263	1	6
461.604	1	-13
461.945	1	11
462.286	1	10
462.627	1	3
462.968	1	-9
463.309	1	0
463.649	1	4
463.990	1	-2
464.331	1	9
464.672	1	9
465.013	1	-6
465.354	1	0
465.695	1	7
466.036	1	3
466.376	1	4
466.717	1	5
467.058	1	0
467.399	1	6
467.740	1	19
468.081	1	11
468.422	1	6
468.762	1	1
469.103	1	6
469.444	1	-7
469.785	1	7
470.126	1	-9
470.467	1	4
470.807	1	-3
471.148	1	4
471.489	1	3
471.830	1	11
472.171	1	0
472.511	1	-1
472.852	1	6
473.193	1	-3
473.534	1	0
473.875	1	10
474.215	1	10
474.556	1	7
474.897	1	-7
475.238	1	10
475.578	1	3
475.919	1	-3
476.260	1	15
476.601	1	-3
476.942	1	-5
477.282	1	14
477.623	1	0
477.964	1	1
478.305	1	6
478.645	1	-7
478.986	1	6
479.327	1	7
479.667	1	9
480.008	1	-1
480.349	1	0
480.690	1	0
481.030	1	-4
481.371	1	6
481.712	1	3
482.053	1	3
482.393	1	5
482.734	1	2
483.075	1	12
483.415	1	1
483.756	1	3
484.097	1	-7
484.437	1	-4
484.778	1	8
485.119	1	8
485.459	1	-1
485.800	1	8
486.141	1	1
486.481	1	-4
486.822	1	2
487.163	1	-6
487.503	1	-4
487.844	1	-3
488.185	1	10
488.525	1	12
488.866	1	1
489.207	1	0
489.547	1	-1
489.888	1	15
490.228	1	-2
490.569	1	13
490.910	1	-2
491.250	1	5
491.591	1	-10
491.932	1	-1
492.272	1	4
492.613	1	0
492.953	1	11
493.294	1	8
493.635	1	8
493.975	1	17
494.316	1	2
494.656	1	2
494.997	1	9
495.337	1	0
495.678	1	-6
496.019	1	2
496.359	1	5
496.700	1	4
497.040	1	6
497.381	1	2
497.721	1	-1
498.062	1	6
498.403	1	2
498.743	1	12
499.084	1	15
499.424	1	-8
499.765	1	-6
500.105	1	5
500.446	1	9
500.786	1	11
501.127	1	1
501.467	1	7
501.808	1	16
502.148	1	5
502.489	1	2
502.829	1	3
503.170	1	0
503.510	1	1
503.851	1	2
504.191	1	2
504.532	1	14
504.872	1	7
505.213	1	4
505.553	1	2
505.894	1	10
506.234	1	-2
506.575	1	5
506.915	1	-2
507.256	1	8
507.596	1	-3
507.936	1	-4
508.277	1	-1
508.617	1	0
508.958	1	11
509.298	1	4
509.639	1	1
509.979	1	-4
510.319	1	9
510.660	1	-6
511.000	1	12
511.341	1	-2
511.681	1	-3
512.022	1	6
512.362	1	3
512.702	1	14
513.043	1	2
513.383	1	9
513.724	1	6
514.064	1	0
514.404	1	13
514.745	1	-2
515.085	1	17
515.425	1	3
515.766	1	13
516.106	1	-5
516.447	1	-1
516.787	1	-2
517.127	1	4
517.468	1	11
517.808	1	4
518.148	1	4
518.489	1	13
518.829	1	12
519.169	1	6
519.510	1	0
519.850	1	10
520.190	1	13
520.531	1	11
520.871	1	-5
521.211	1	8
521.552	1	14
521.892	1	6
522.232	1	-9
522.573	1	0
522.913	1	8
523.253	1	8
523.593	1	4
523.934	1	3
524.274	1	3
524.614	1	6
524.955	1	14
525.295	1	2
525.635	1	-2
525.975	1	13
526.316	1	-5
526.656	1	10
526.996	1	-2
527.337	1	11
527.677	1	2
528.017	1	3
528.357	1	12
528.698	1	-8
529.038	1	-6
529.378	1	2
529.718	1	14
530.058	1	-3
530.399	1	6
530.739	1	9
531.079	1	10
531.419	1	6
531.760	1	10
532.100	1	15
532.440	1	5
532.780	1	-1
533.120	1	3
533.461	1	0
533.801	1	19
534.141	1	14
534.481	1	14
534.821	1	12
535.162	1	7
535.502	1	11
535.842	1	12
536.182	1	15
536.522	1	-4
536.862	1	4
537.203	1	-3
537.543	1	5
537.883	1	-5
538.223	1	8
538.563	1	2
538.903	1	16
539.243	1	4
539.584	1	9
539.924	1	-4
540.264	1	-1
540.604	1	8
540.944	1	1
541.284	1	4
541.624	1	12
541.964	1	4
542.305	1	0
542.645	1	3
542.985	1	8
543.325	1	3
543.665	1	17
544.005	1	8
544.345	1	-2
544.685	1	13
545.025	1	-4
545.365	1	12
545.705	1	-2
546.045	1	9
546.386	1	6
546.726	1	-4
547.066	1	2
547.406	1	-9
547.746	1	13
548.086	1	-3
548.426	1	1
548.766	1	8
549.106	1	1
549.446	1	1
549.786	1	-2
550.126	1	8
550.466	1	7
550.806	1	20
551.146	1	2
551.486	1	2
551.826	1	6
552.166	1	5
552.506	1	6
552.846	1	-3
553.186	1	3
553.526	1	2
553.866	1	-10
554.206	1	2
554.546	1	9
554.886	1	-4
555.226	1	2
555.566	1	-1
555.906	1	-5
556.246	1	8
556.586	1	4
556.926	1	7
557.266	1	0
557.606	1	3
557.946	1	10
558.286	1	17
558.626	1	-15
558.966	1	0
559.306	1	0
559.646	1	11
559.986	1	0
560.325	1	-8
560.665	1	9
561.005	1	5
561.345	1	9
561.685	1	4
562.025	1	-3
562.365	1	11
562.705	1	4
563.045	1	5
563.385	1	1
563.725	1	3
564.064	1	9
564.404	1	5
564.744	1	-6
565.084	1	6
565.424	1	-3
565.764	1	4
566.104	1	-7
566.444	1	10
566.783	1	10
567.123	1	4
567.463	1	3
567.803	1	6
568.143	1	1
568.483	1	-3
568.823	1	-10
569.162	1	14
569.502	1	1
569.842	1	-11
570.182	1	0
570.522	1	-15
570.862	1	16
571.201	1	9
571.541	1	1
571.881	1	1
572.221	1	12
572.561	1	10
572.900	1	5
573.240	1	2
573.580	1	-1
573.920	1	12
574.260	1	0
574.599	1	7
574.939	1	6
575.279	1	-5
575.619	1	-1
575.959	1	3
576.298	1	5
576.638	1	-5
576.978	1	-5
577.318	1	3
577.657	1	13
577.997	1	10
578.337	1	8
578.677	1	16
579.016	1	6
579.356	1	15
579.696	1	-4
580.036	1	4
580.375	1	4
580.715	1	4
581.055	1	-5
581.394	1	-4
581.734	1	8
582.074	1	-3
582.414	1	-10
582.753	1	9
583.093	1	0
583.433	1	8
583.772	1	0
584.112	1	5
584.452	1	14
584.791	1	10
585.131	1	15
585.471	1	4
585.811	1	0
586.150	1	8
586.490	1	-2
586.830	1	-9
587.169	1	3
587.509	1	2
587.849	1	10
588.188	1	10
588.528	1	9
588.867	1	10
589.207	1	3
589.547	1	-5
589.886	1	5
590.226	1	12
590.566	1	2
590.905	1	14
591.245	1	-7
591.585	1	3
591.924	1	-3
592.264	1	4
592.603	1	9
592.943	1	-1
593.283	1	-3
593.622	1	2
593.962	1	7
594.301	1	-4
594.641	1	2
594.981	1	-7
595.320	1	12
595.660	1	3
595.999	1	10
596.339	1	6
596.678	1	-1
597.018	1	3
597.358	1	-1
597.697	1	5
598.037	1	4
598.376	1	-7
598.716	1	16
599.055	1	1
599.395	1	3
599.734	1	0
600.074	1	0
600.413	1	8
600.753	1	-3
601.092	1	3
601.432	1	-7
601.771	1	6
602.111	1	-3
602.451	1	7
602.790	1	2
603.130	1	0
603.469	1	-2
603.809	1	6
604.148	1	6
604.487	1	6
604.827	1	-8
605.166	1	5
605.506	1	4
605.845	1	-5
606.185	1	3
606.524	1	-6
606.864	1	14
607.203	1	-5
607.543	1	1
607.882	1	9
608.222	1	-3
608.561	1	1
608.901	1	8
609.240	1	-6
609.579	1	13
609.919	1	3
610.258	1	1
610.598	1	-1
610.937	1	4
611.277	1	7
611.616	1	-6
611.955	1	-3
612.295	1	7
612.634	1	-5
612.974	1	4
613.313	1	-3
613.652	1	7
613.992	1	4
614.331	1	0
614.671	1	1
615.010	1	-8
615.349	1	0
615.689	1	10
616.028	1	6
616.368	1	6
616.707	1	7
617.046	1	2
617.386	1	-10
617.725	1	-4
618.064	1	10
618.404	1	5
618.743	1	7
619.082	1	-3
619.422	1	1
619.761	1	5
620.100	1	-2
620.440	1	6
620.779	1	6
621.118	1	1
621.458	1	-2
621.797	1	-3
622.136	1	1
622.476	1	7
622.815	1	-4
623.154	1	0
623.494	1	10
623.833	1	9
624.172	1	3
624.511	1	6
624.851	1	-1
625.190	1	3
625.529	1	-4
625.869	1	6
626.208	1	2
626.547	1	1
626.886	1	-4
627.226	1	10
627.565	1	3
627.904	1	11
628.243	1	7
628.583	1	-6
628.922	1	-10
629.261	1	-5
629.600	1	1
629.940	1	2
630.279	1	12
630.618	1	7
630.957	1	8
631.297	1	6
631.636	1	5
631.975	1	4
632.314	1	0
632.653	1	1
632.993	1	13
633.332	1	1
633.671	1	-5
634.010	1	0
634.349	1	2
634.689	1	8
635.028	1	12
635.367	1	-4
635.706	1	-1
636.045	1	7
636.384	1	-9
636.724	1	14
637.063	1	7
637.402	1	-3
637.741	1	14
638.080	1	-1
638.419	1	2
638.759	1	5
639.098	1	3
639.437	1	10
639.776	1	2
640.115	1	3
640.454	1	6
640.793	1	-7
641.132	1	14
641.472	1	-5
641.811	1	-1
642.150	1	-8
642.489	1	2
642.828	1	5
643.167	1	4
643.506	1	7
643.845	1	-5
644.184	1	-12
644.524	1	3
644.863	1	-4
645.202	1	0
645.541	1	0
645.880	1	3
646.219	1	-3
646.558	1	0
646.897	1	-5
647.236	1	1
647.575	1	-8
647.914	1	1
648.253	1	6
648.592	1	-4
648.931	1	-7
649.270	1	-4
649.610	1	-9
649.949	1	-1
650.288	1	5
650.627	1	2
650.966	1	6
651.305	1	4
651.644	1	0
651.983	1	-5
652.322	1	-1
652.661	1	-1
653.000	1	1
653.339	1	9
653.678	1	-5
654.017	1	-2
654.356	1	8
654.695	1	-2
655.034	1	4
655.373	1	-3
655.712	1	1
656.051	1	3
656.390	1	-5
656.729	1	4
657.068	1	0
657.406	1	3
657.745	1	0
658.084	1	0
658.423	1	-10
658.762	1	10
659.101	1	-1
659.440	1	-10
659.779	1	-6
660.118	1	-8
660.457	1	-3
660.796	1	-2
661.135	1	4
661.474	1	5
661.813	1	-4
662.152	1	6
662.491	1	9
662.829	1	3
663.168	1	-4
663.507	1	1
663.846	1	0
664.185	1	-5
664.524	1	0
664.863	1	-3
665.202	1	3
665.541	1	-3
665.879	1	-1
666.218	1	15
666.557	1	2
666.896	1	14
667.235	1	3
667.574	1	13
667.913	1	8
668.251	1	4
668.590	1	7
668.929	1	9
669.268	1	-3
669.607	1	0
669.946	1	8
670.285	1	3
670.623	1	6
670.962	1	0
671.301	1	7
671.640	1	-3
671.979	1	2
672.317	1	4
672.656	1	-5
672.995	1	3
673.334	1	-3
673.673	1	5
674.011	1	-1
674.350	1	2
674.689	1	6
675.028	1	15
675.367	1	-2
675.705	1	6
676.044	1	6
676.383	1	4
676.722	1	-3
677.060	1	6
677.399	1	0
677.738	1	-5
678.077	1	8
678.416	1	7
678.754	1	0
679.093	1	5
679.432	1	3
679.771	1	6
680.109	1	3
680.448	1	7
680.787	1	3
681.125	1	10
681.464	1	2
681.803	1	-5
682.142	1	-3
682.480	1	17
682.819	1	1
683.158	1	9
683.496	1	-1
683.835	1	-8
684.174	1	5
684.512	1	7
684.851	1	4
685.190	1	5
685.529	1	-10
685.867	1	0
686.206	1	10
686.545	1	0
686.883	1	1
687.222	1	4
687.561	1	9
687.899	1	0
688.238	1	9
688.577	1	-1
688.746	1	-2