File: Data/GaN_130K_350ms/GaN_sample F_spot6_UVVIS_130 K_200um_350 ms 2x2mm1_108.txt
340.368	1	6
340.710	1	-1
341.052	1	-1
341.394	1	6
341.737	1	8
342.079	1	7
342.421	1	6
342.763	1	11
343.105	1	9
343.447	1	9
343.789	1	5
344.131	1	14
344.473	1	-2
344.815	1	-5
345.157	1	-10
345.499	1	-1
345.841	1	-1
346.183	1	16
346.526	1	3
346.868	1	5
347.210	1	12
347.552	1	-3
347.894	1	0
348.236	1	6
348.578	1	0
348.920	1	7
349.262	1	18
349.604	1	6
349.946	1	17
350.288	1	0
350.630	1	9
350.972	1	13
351.314	1	3
351.656	1	12
351.998	1	11
352.340	1	10
352.682	1	4
353.024	1	2
353.366	1	10
353.708	1	11
354.050	1	16
354.392	1	6
354.734	1	8
355.076	1	5
355.418	1	15
355.760	1	8
356.102	1	5
356.444	1	-2
356.785	1	21
357.127	1	6
357.469	1	10
357.811	1	18
358.153	1	14
358.495	1	24
358.837	1	21
359.179	1	11
359.521	1	6
359.863	1	21
360.205	1	21
360.547	1	18
360.889	1	30
361.231	1	15
361.572	1	31
361.914	1	38
362.256	1	26
362.598	1	44
362.940	1	29
363.282	1	46
363.624	1	45
363.966	1	63
364.308	1	61
364.649	1	66
364.991	1	71
365.333	1	58
365.675	1	83
366.017	1	82
366.359	1	93
366.701	1	77
367.042	1	95
367.384	1	104
367.726	1	85
368.068	1	84
368.410	1	87
368.752	1	99
369.093	1	94
369.435	1	74
369.777	1	79
370.119	1	84
370.461	1	80
370.803	1	74
371.144	1	78
371.486	1	65
371.828	1	66
372.170	1	58
372.512	1	64
372.853	1	44
373.195	1	48
373.537	1	60
373.879	1	57
374.220	1	40
374.562	1	44
374.904	1	48
375.246	1	49
375.588	1	33
375.929	1	31
376.271	1	52
376.613	1	33
376.955	1	39
377.296	1	31
377.638	1	34
377.980	1	20
378.321	1	30
378.663	1	41
379.005	1	38
379.347	1	28
379.688	1	28
380.030	1	20
380.372	1	36
380.714	1	32
381.055	1	25
381.397	1	33
381.739	1	29
382.080	1	14
382.422	1	41
382.764	1	18
383.105	1	16
383.447	1	31
383.789	1	27
384.130	1	32
384.472	1	15
384.814	1	10
385.156	1	20
385.497	1	15
385.839	1	19
386.180	1	30
386.522	1	11
386.864	1	24
387.205	1	22
387.547	1	12
387.889	1	6
388.230	1	17
388.572	1	16
388.914	1	11
389.255	1	8
389.597	1	3
389.939	1	19
390.280	1	23
390.622	1	9
390.963	1	19
391.305	1	19
391.647	1	7
391.988	1	19
392.330	1	14
392.671	1	13
393.013	1	14
393.355	1	15
393.696	1	12
394.038	1	22
394.379	1	29
394.721	1	27
395.062	1	6
395.404	1	6
395.746	1	15
396.087	1	15
396.429	1	22
396.770	1	23
397.112	1	16
397.453	1	14
397.795	1	7
398.136	1	7
398.478	1	15
398.819	1	1
399.161	1	23
399.503	1	20
399.844	1	13
400.186	1	12
400.527	1	20
400.869	1	19
401.210	1	1
401.552	1	24
401.893	1	8
402.235	1	10
402.576	1	17
402.918	1	19
403.259	1	6
403.601	1	19
403.942	1	8
404.284	1	8
404.625	1	17
404.967	1	19
405.308	1	7
405.649	1	6
405.991	1	19
406.332	1	19
406.674	1	28
407.015	1	3
407.357	1	15
407.698	1	4
408.040	1	14
408.381	1	17
408.722	1	13
409.064	1	13
409.405	1	18
409.747	1	1
410.088	1	16
410.430	1	12
410.771	1	1
411.112	1	12
411.454	1	20
411.795	1	7
412.137	1	3
412.478	1	6
412.819	1	14
413.161	1	14
413.502	1	16
413.844	1	9
414.185	1	17
414.526	1	15
414.868	1	9
415.209	1	6
415.550	1	14
415.892	1	10
416.233	1	13
416.575	1	10
416.916	1	10
417.257	1	11
417.599	1	5
417.940	1	9
418.281	1	5
418.623	1	7
418.964	1	2
419.305	1	16
419.647	1	17
419.988	1	9
420.329	1	11
420.671	1	10
421.012	1	2
421.353	1	7
421.695	1	2
422.036	1	4
422.377	1	9
422.718	1	16
423.060	1	5
423.401	1	12
423.742	1	9
424.084	1	13
424.425	1	11
424.766	1	21
425.107	1	14
425.449	1	18
425.790	1	11
426.131	1	18
426.472	1	0
426.814	1	14
427.155	1	3
427.496	1	1
427.837	1	11
428.179	1	18
428.520	1	12
428.861	1	2
429.202	1	10
429.544	1	10
429.885	1	6
430.226	1	3
430.567	1	11
430.909	1	9
431.250	1	16
431.591	1	0
431.932	1	3
432.273	1	21
432.615	1	18
432.956	1	-2
433.297	1	12
433.638	1	11
433.979	1	11
434.320	1	12
434.662	1	5
435.003	1	11
435.344	1	16
435.685	1	-1
436.026	1	10
436.368	1	4
436.709	1	10
437.050	1	14
437.391	1	17
437.732	1	9
438.073	1	17
438.414	1	5
438.756	1	10
439.097	1	8
439.438	1	17
439.779	1	15
440.120	1	7
440.461	1	23
440.802	1	3
441.143	1	-4
441.485	1	1
441.826	1	1
442.167	1	16
442.508	1	3
442.849	1	14
443.190	1	4
443.531	1	6
443.872	1	14
444.213	1	8
444.554	1	6
444.895	1	-1
445.237	1	5
445.578	1	10
445.919	1	3
446.260	1	8
446.601	1	6
446.942	1	7
447.283	1	16
447.624	1	5
447.965	1	17
448.306	1	6
448.647	1	15
448.988	1	7
449.329	1	6
449.670	1	6
450.011	1	0
450.352	1	17
450.693	1	4
451.034	1	6
451.375	1	-3
451.716	1	-1
452.057	1	17
452.398	1	6
452.739	1	11
453.080	1	-1
453.421	1	13
453.762	1	11
454.103	1	1
454.444	1	4
454.785	1	9
455.126	1	-3
455.467	1	2
455.808	1	10
456.149	1	-8
456.490	1	9
456.831	1	11
457.172	1	7
457.513	1	-3
457.854	1	7
458.195	1	-2
458.536	1	7
458.877	1	31
459.218	1	12
459.559	1	5
459.899	1	3
460.240	1	8
460.581	1	7
460.922	1	9
461.263	1	13
461.604	1	-5
461.945	1	19
462.286	1	3
462.627	1	2
462.968	1	11
463.309	1	2
463.649	1	3
463.990	1	10
464.331	1	14
464.672	1	8
465.013	1	3
465.354	1	-1
465.695	1	11
466.036	1	12
466.376	1	7
466.717	1	4
467.058	1	-7
467.399	1	-1
467.740	1	19
468.081	1	7
468.422	1	11
468.762	1	-4
469.103	1	10
469.444	1	5
469.785	1	10
470.126	1	-5
470.467	1	8
470.807	1	7
471.148	1	3
471.489	1	5
471.830	1	-3
472.171	1	7
472.511	1	10
472.852	1	10
473.193	1	6
473.534	1	9
473.875	1	20
474.215	1	-1
474.556	1	3
474.897	1	-2
475.238	1	15
475.578	1	1
475.919	1	2
476.260	1	2
476.601	1	0
476.942	1	7
477.282	1	14
477.623	1	2
477.964	1	10
478.305	1	20
478.645	1	15
478.986	1	8
479.327	1	6
479.667	1	15
480.008	1	9
480.349	1	3
480.690	1	12
481.030	1	15
481.371	1	13
481.712	1	7
482.053	1	3
482.393	1	14
482.734	1	2
483.075	1	23
483.415	1	7
483.756	1	5
484.097	1	-2
484.437	1	1
484.778	1	17
485.119	1	16
485.459	1	6
485.800	1	18
486.141	1	7
486.481	1	14
486.822	1	18
487.163	1	9
487.503	1	3
487.844	1	7
488.185	1	14
488.525	1	12
488.866	1	6
489.207	1	15
489.547	1	10
489.888	1	23
490.228	1	14
490.569	1	12
490.910	1	2
491.250	1	11
491.591	1	7
491.932	1	17
492.272	1	10
492.613	1	3
492.953	1	13
493.294	1	13
493.635	1	20
493.975	1	22
494.316	1	17
494.656	1	8
494.997	1	11
495.337	1	11
495.678	1	8
496.019	1	9
496.359	1	21
496.700	1	9
497.040	1	23
497.381	1	19
497.721	1	18
498.062	1	8
498.403	1	5
498.743	1	19
499.084	1	22
499.424	1	12
499.765	1	24
500.105	1	18
500.446	1	16
500.786	1	32
501.127	1	17
501.467	1	23
501.808	1	13
502.148	1	9
502.489	1	11
502.829	1	15
503.170	1	20
503.510	1	18
503.851	1	14
504.191	1	23
504.532	1	23
504.872	1	23
505.213	1	31
505.553	1	18
505.894	1	11
506.234	1	28
506.575	1	25
506.915	1	19
507.256	1	34
507.596	1	14
507.936	1	23
508.277	1	24
508.617	1	9
508.958	1	25
509.298	1	30
509.639	1	42
509.979	1	19
510.319	1	44
510.660	1	21
511.000	1	23
511.341	1	25
511.681	1	33
512.022	1	43
512.362	1	21
512.702	1	31
513.043	1	25
513.383	1	36
513.724	1	31
514.064	1	19
514.404	1	33
514.745	1	32
515.085	1	48
515.425	1	35
515.766	1	35
516.106	1	25
516.447	1	31
516.787	1	34
517.127	1	38
517.468	1	38
517.808	1	29
518.148	1	36
518.489	1	37
518.829	1	40
519.169	1	37
519.510	1	38
519.850	1	37
520.190	1	44
520.531	1	36
520.871	1	33
521.211	1	37
521.552	1	44
521.892	1	47
522.232	1	28
522.573	1	36
522.913	1	55
523.253	1	33
523.593	1	38
523.934	1	37
524.274	1	29
524.614	1	41
524.955	1	40
525.295	1	49
525.635	1	32
525.975	1	41
526.316	1	41
526.656	1	32
526.996	1	36
527.337	1	41
527.677	1	28
528.017	1	40
528.357	1	37
528.698	1	35
529.038	1	23
529.378	1	44
529.718	1	34
530.058	1	42
530.399	1	40
530.739	1	39
531.079	1	38
531.419	1	37
531.760	1	32
532.100	1	40
532.440	1	42
532.780	1	43
533.120	1	44
533.461	1	36
533.801	1	45
534.141	1	39
534.481	1	32
534.821	1	48
535.162	1	42
535.502	1	38
535.842	1	36
536.182	1	36
536.522	1	28
536.862	1	36
537.203	1	34
537.543	1	38
537.883	1	25
538.223	1	43
538.563	1	29
538.903	1	52
539.243	1	40
539.584	1	45
539.924	1	34
540.264	1	34
540.604	1	40
540.944	1	41
541.284	1	39
541.624	1	36
541.964	1	28
542.305	1	32
542.645	1	29
542.985	1	37
543.325	1	27
543.665	1	37
544.005	1	30
544.345	1	33
544.685	1	39
545.025	1	27
545.365	1	37
545.705	1	20
546.045	1	31
546.386	1	26
546.726	1	28
547.066	1	32
547.406	1	19
547.746	1	29
548.086	1	18
548.426	1	32
548.766	1	33
549.106	1	15
549.446	1	24
549.786	1	33
550.126	1	31
550.466	1	37
550.806	1	43
551.146	1	33
551.486	1	28
551.826	1	20
552.166	1	32
552.506	1	43
552.846	1	28
553.186	1	31
553.526	1	37
553.866	1	20
554.206	1	25
554.546	1	31
554.886	1	33
555.226	1	28
555.566	1	33
555.906	1	34
556.246	1	20
556.586	1	20
556.926	1	22
557.266	1	14
557.606	1	12
557.946	1	23
558.286	1	36
558.626	1	9
558.966	1	18
559.306	1	25
559.646	1	27
559.986	1	25
560.325	1	19
560.665	1	21
561.005	1	17
561.345	1	32
561.685	1	30
562.025	1	11
562.365	1	28
562.705	1	27
563.045	1	16
563.385	1	18
563.725	1	11
564.064	1	20
564.404	1	20
564.744	1	19
565.084	1	18
565.424	1	8
565.764	1	19
566.104	1	8
566.444	1	33
566.783	1	22
567.123	1	24
567.463	1	19
567.803	1	22
568.143	1	24
568.483	1	15
568.823	1	4
569.162	1	17
569.502	1	12
569.842	1	7
570.182	1	20
570.522	1	0
570.862	1	29
571.201	1	21
571.541	1	10
571.881	1	15
572.221	1	20
572.561	1	11
572.900	1	10
573.240	1	12
573.580	1	14
573.920	1	24
574.260	1	11
574.599	1	17
574.939	1	16
575.279	1	1
575.619	1	21
575.959	1	12
576.298	1	10
576.638	1	15
576.978	1	13
577.318	1	14
577.657	1	30
577.997	1	13
578.337	1	6
578.677	1	19
579.016	1	10
579.356	1	16
579.696	1	5
580.036	1	14
580.375	1	11
580.715	1	17
581.055	1	23
581.394	1	20
581.734	1	14
582.074	1	1
582.414	1	7
582.753	1	12
583.093	1	12
583.433	1	14
583.772	1	13
584.112	1	15
584.452	1	17
584.791	1	8
585.131	1	25
585.471	1	15
585.811	1	9
586.150	1	12
586.490	1	10
586.830	1	0
587.169	1	10
587.509	1	10
587.849	1	9
588.188	1	23
588.528	1	13
588.867	1	5
589.207	1	10
589.547	1	-1
589.886	1	7
590.226	1	19
590.566	1	7
590.905	1	11
591.245	1	14
591.585	1	19
591.924	1	5
592.264	1	11
592.603	1	14
592.943	1	9
593.283	1	4
593.622	1	14
593.962	1	25
594.301	1	0
594.641	1	12
594.981	1	-1
595.320	1	12
595.660	1	8
595.999	1	7
596.339	1	20
596.678	1	11
597.018	1	10
597.358	1	9
597.697	1	1
598.037	1	10
598.376	1	5
598.716	1	10
599.055	1	5
599.395	1	-6
599.734	1	2
600.074	1	9
600.413	1	13
600.753	1	10
601.092	1	10
601.432	1	5
601.771	1	4
602.111	1	7
602.451	1	15
602.790	1	9
603.130	1	10
603.469	1	3
603.809	1	4
604.148	1	19
604.487	1	18
604.827	1	2
605.166	1	18
605.506	1	6
605.845	1	5
606.185	1	5
606.524	1	10
606.864	1	16
607.203	1	1
607.543	1	10
607.882	1	8
608.222	1	3
608.561	1	6
608.901	1	20
609.240	1	0
609.579	1	16
609.919	1	6
610.258	1	12
610.598	1	18
610.937	1	12
611.277	1	6
611.616	1	-4
611.955	1	4
612.295	1	16
612.634	1	6
612.974	1	11
613.313	1	-1
613.652	1	-4
613.992	1	9
614.331	1	6
614.671	1	6
615.010	1	-2
615.349	1	-2
615.689	1	13
616.028	1	14
616.368	1	5
616.707	1	15
617.046	1	13
617.386	1	1
617.725	1	6
618.064	1	11
618.404	1	-1
618.743	1	11
619.082	1	13
619.422	1	11
619.761	1	6
620.100	1	-2
620.440	1	12
620.779	1	3
621.118	1	1
621.458	1	6
621.797	1	7
622.136	1	3
622.476	1	11
622.815	1	3
623.154	1	4
623.494	1	16
623.833	1	10
624.172	1	5
624.511	1	7
624.851	1	-1
625.190	1	0
625.529	1	0
625.869	1	3
626.208	1	-2
626.547	1	6
626.886	1	5
627.226	1	12
627.565	1	7
627.904	1	7
628.243	1	13
628.583	1	-11
628.922	1	2
629.261	1	-9
629.600	1	8
629.940	1	11
630.279	1	13
630.618	1	3
630.957	1	5
631.297	1	3
631.636	1	11
631.975	1	3
632.314	1	4
632.653	1	4
632.993	1	18
633.332	1	-1
633.671	1	4
634.010	1	-5
634.349	1	5
634.689	1	9
635.028	1	18
635.367	1	8
635.706	1	10
636.045	1	15
636.384	1	-1
636.724	1	11
637.063	1	9
637.402	1	1
637.741	1	16
638.080	1	9
638.419	1	8
638.759	1	11
639.098	1	6
639.437	1	10
639.776	1	6
640.115	1	6
640.454	1	9
640.793	1	-5
641.132	1	14
641.472	1	12
641.811	1	0
642.150	1	-15
642.489	1	-3
642.828	1	8
643.167	1	10
643.506	1	7
643.845	1	1
644.184	1	-2
644.524	1	4
644.863	1	5
645.202	1	12
645.541	1	10
645.880	1	2
646.219	1	7
646.558	1	0
646.897	1	-1
647.236	1	7
647.575	1	-6
647.914	1	-1
648.253	1	-1
648.592	1	4
648.931	1	0
649.270	1	-2
649.610	1	6
649.949	1	7
650.288	1	7
650.627	1	8
650.966	1	5
651.305	1	-1
651.644	1	0
651.983	1	-8
652.322	1	-1
652.661	1	-5
653.000	1	7
653.339	1	1
653.678	1	0
654.017	1	10
654.356	1	2
654.695	1	-1
655.034	1	10
655.373	1	-1
655.712	1	-5
656.051	1	6
656.390	1	-7
656.729	1	4
657.068	1	6
657.406	1	5
657.745	1	3
658.084	1	8
658.423	1	1
658.762	1	12
659.101	1	14
659.440	1	-5
659.779	1	2
660.118	1	4
660.457	1	-6
660.796	1	13
661.135	1	11
661.474	1	9
661.813	1	5
662.152	1	10
662.491	1	14
662.829	1	10
663.168	1	0
663.507	1	11
663.846	1	5
664.185	1	-3
664.524	1	-7
664.863	1	1
665.202	1	4
665.541	1	-6
665.879	1	-3
666.218	1	6
666.557	1	7
666.896	1	6
667.235	1	6
667.574	1	15
667.913	1	8
668.251	1	3
668.590	1	10
668.929	1	13
669.268	1	4
669.607	1	1
669.946	1	13
670.285	1	9
670.623	1	9
670.962	1	1
671.301	1	-5
671.640	1	-8
671.979	1	-2
672.317	1	8
672.656	1	0
672.995	1	8
673.334	1	-8
673.673	1	13
674.011	1	2
674.350	1	0
674.689	1	10
675.028	1	4
675.367	1	5
675.705	1	15
676.044	1	7
676.383	1	3
676.722	1	1
677.060	1	3
677.399	1	4
677.738	1	6
678.077	1	6
678.416	1	9
678.754	1	5
679.093	1	6
679.432	1	6
679.771	1	6
680.109	1	-3
680.448	1	7
680.787	1	10
681.125	1	18
681.464	1	6
681.803	1	-3
682.142	1	1
682.480	1	11
682.819	1	10
683.158	1	7
683.496	1	-6
683.835	1	-5
684.174	1	19
684.512	1	13
684.851	1	8
685.190	1	3
685.529	1	9
685.867	1	4
686.206	1	13
686.545	1	-1
686.883	1	3
687.222	1	8
687.561	1	12
687.899	1	10
688.238	1	9
688.577	1	2
688.746	1	16