File: Data/GaN_130K_350ms/GaN_sample F_spot6_UVVIS_130 K_200um_350 ms 2x2mm1_22.txt
340.368	1	4
340.710	1	5
341.052	1	-11
341.394	1	-13
341.737	1	4
342.079	1	2
342.421	1	10
342.763	1	2
343.105	1	2
343.447	1	2
343.789	1	2
344.131	1	1
344.473	1	-7
344.815	1	-6
345.157	1	-9
345.499	1	-5
345.841	1	1
346.183	1	4
346.526	1	-7
346.868	1	0
347.210	1	-4
347.552	1	-1
347.894	1	-4
348.236	1	2
348.578	1	6
348.920	1	-2
349.262	1	1
349.604	1	6
349.946	1	4
350.288	1	-7
350.630	1	4
350.972	1	6
351.314	1	1
351.656	1	11
351.998	1	-1
352.340	1	6
352.682	1	-4
353.024	1	1
353.366	1	2
353.708	1	1
354.050	1	5
354.392	1	11
354.734	1	0
355.076	1	2
355.418	1	-2
355.760	1	1
356.102	1	-5
356.444	1	-9
356.785	1	2
357.127	1	9
357.469	1	-5
357.811	1	1
358.153	1	-5
358.495	1	6
358.837	1	-8
359.179	1	-3
359.521	1	7
359.863	1	-2
360.205	1	2
360.547	1	-6
360.889	1	-1
361.231	1	-10
361.572	1	5
361.914	1	-1
362.256	1	0
362.598	1	-3
362.940	1	-3
363.282	1	8
363.624	1	2
363.966	1	12
364.308	1	11
364.649	1	4
364.991	1	-4
365.333	1	5
365.675	1	-2
366.017	1	-4
366.359	1	0
366.701	1	-2
367.042	1	6
367.384	1	11
367.726	1	5
368.068	1	-5
368.410	1	-8
368.752	1	6
369.093	1	8
369.435	1	-4
369.777	1	1
370.119	1	8
370.461	1	11
370.803	1	-1
371.144	1	-1
371.486	1	-2
371.828	1	-1
372.170	1	-8
372.512	1	-1
372.853	1	-7
373.195	1	-4
373.537	1	-3
373.879	1	7
374.220	1	-7
374.562	1	-7
374.904	1	-3
375.246	1	-2
375.588	1	0
375.929	1	-4
376.271	1	3
376.613	1	0
376.955	1	-6
377.296	1	-3
377.638	1	-16
377.980	1	-17
378.321	1	-4
378.663	1	7
379.005	1	17
379.347	1	-7
379.688	1	-2
380.030	1	-10
380.372	1	1
380.714	1	6
381.055	1	5
381.397	1	4
381.739	1	8
382.080	1	-5
382.422	1	7
382.764	1	0
383.105	1	2
383.447	1	7
383.789	1	-5
384.130	1	13
384.472	1	1
384.814	1	-4
385.156	1	-5
385.497	1	-8
385.839	1	-3
386.180	1	6
386.522	1	3
386.864	1	6
387.205	1	-1
387.547	1	4
387.889	1	-6
388.230	1	-7
388.572	1	-1
388.914	1	8
389.255	1	1
389.597	1	-11
389.939	1	13
390.280	1	2
390.622	1	3
390.963	1	2
391.305	1	-6
391.647	1	-5
391.988	1	10
392.330	1	2
392.671	1	-10
393.013	1	5
393.355	1	-3
393.696	1	-8
394.038	1	5
394.379	1	-3
394.721	1	-9
395.062	1	-2
395.404	1	-15
395.746	1	-1
396.087	1	6
396.429	1	4
396.770	1	-3
397.112	1	10
397.453	1	12
397.795	1	-11
398.136	1	2
398.478	1	-3
398.819	1	-11
399.161	1	3
399.503	1	5
399.844	1	2
400.186	1	-1
400.527	1	1
400.869	1	11
401.210	1	-6
401.552	1	11
401.893	1	-10
402.235	1	8
402.576	1	2
402.918	1	11
403.259	1	1
403.601	1	4
403.942	1	2
404.284	1	-1
404.625	1	12
404.967	1	-4
405.308	1	-6
405.649	1	-3
405.991	1	0
406.332	1	-3
406.674	1	8
407.015	1	-2
407.357	1	1
407.698	1	-7
408.040	1	0
408.381	1	12
408.722	1	0
409.064	1	3
409.405	1	1
409.747	1	6
410.088	1	9
410.430	1	13
410.771	1	-8
411.112	1	5
411.454	1	11
411.795	1	-4
412.137	1	-4
412.478	1	1
412.819	1	8
413.161	1	8
413.502	1	12
413.844	1	0
414.185	1	9
414.526	1	-3
414.868	1	6
415.209	1	-1
415.550	1	-4
415.892	1	4
416.233	1	0
416.575	1	-6
416.916	1	2
417.257	1	5
417.599	1	3
417.940	1	2
418.281	1	-1
418.623	1	-2
418.964	1	-6
419.305	1	-7
419.647	1	5
419.988	1	11
420.329	1	3
420.671	1	-8
421.012	1	-3
421.353	1	2
421.695	1	10
422.036	1	1
422.377	1	5
422.718	1	-2
423.060	1	3
423.401	1	12
423.742	1	2
424.084	1	1
424.425	1	-4
424.766	1	-4
425.107	1	4
425.449	1	2
425.790	1	6
426.131	1	14
426.472	1	-3
426.814	1	-1
427.155	1	-6
427.496	1	4
427.837	1	5
428.179	1	2
428.520	1	-4
428.861	1	-3
429.202	1	3
429.544	1	4
429.885	1	12
430.226	1	-4
430.567	1	0
430.909	1	-1
431.250	1	-1
431.591	1	-7
431.932	1	-7
432.273	1	-1
432.615	1	11
432.956	1	-6
433.297	1	5
433.638	1	9
433.979	1	6
434.320	1	0
434.662	1	5
435.003	1	8
435.344	1	6
435.685	1	-15
436.026	1	0
436.368	1	-13
436.709	1	0
437.050	1	4
437.391	1	5
437.732	1	1
438.073	1	2
438.414	1	-4
438.756	1	-3
439.097	1	0
439.438	1	3
439.779	1	8
440.120	1	7
440.461	1	11
440.802	1	-14
441.143	1	-14
441.485	1	7
441.826	1	7
442.167	1	11
442.508	1	4
442.849	1	2
443.190	1	-2
443.531	1	2
443.872	1	5
444.213	1	4
444.554	1	1
444.895	1	-5
445.237	1	-3
445.578	1	-8
445.919	1	-9
446.260	1	3
446.601	1	5
446.942	1	11
447.283	1	3
447.624	1	-1
447.965	1	-2
448.306	1	-3
448.647	1	4
448.988	1	7
449.329	1	-5
449.670	1	5
450.011	1	4
450.352	1	4
450.693	1	-3
451.034	1	-8
451.375	1	3
451.716	1	-9
452.057	1	13
452.398	1	-9
452.739	1	5
453.080	1	-9
453.421	1	8
453.762	1	3
454.103	1	-7
454.444	1	3
454.785	1	5
455.126	1	-6
455.467	1	7
455.808	1	5
456.149	1	-6
456.490	1	6
456.831	1	-6
457.172	1	2
457.513	1	0
457.854	1	5
458.195	1	-10
458.536	1	-3
458.877	1	18
459.218	1	6
459.559	1	-3
459.899	1	6
460.240	1	15
460.581	1	1
460.922	1	2
461.263	1	7
461.604	1	-10
461.945	1	8
462.286	1	7
462.627	1	-6
462.968	1	-2
463.309	1	10
463.649	1	-1
463.990	1	1
464.331	1	5
464.672	1	9
465.013	1	2
465.354	1	1
465.695	1	7
466.036	1	7
466.376	1	-2
466.717	1	9
467.058	1	0
467.399	1	-2
467.740	1	13
468.081	1	11
468.422	1	14
468.762	1	-1
469.103	1	1
469.444	1	2
469.785	1	6
470.126	1	-15
470.467	1	-2
470.807	1	4
471.148	1	-5
471.489	1	-4
471.830	1	2
472.171	1	5
472.511	1	1
472.852	1	7
473.193	1	0
473.534	1	0
473.875	1	9
474.215	1	0
474.556	1	7
474.897	1	-3
475.238	1	6
475.578	1	0
475.919	1	-8
476.260	1	2
476.601	1	2
476.942	1	10
477.282	1	3
477.623	1	-5
477.964	1	-8
478.305	1	16
478.645	1	0
478.986	1	1
479.327	1	5
479.667	1	5
480.008	1	-9
480.349	1	7
480.690	1	4
481.030	1	-4
481.371	1	11
481.712	1	1
482.053	1	5
482.393	1	5
482.734	1	1
483.075	1	19
483.415	1	3
483.756	1	5
484.097	1	0
484.437	1	-8
484.778	1	10
485.119	1	16
485.459	1	-9
485.800	1	7
486.141	1	7
486.481	1	-2
486.822	1	10
487.163	1	-9
487.503	1	-5
487.844	1	-3
488.185	1	3
488.525	1	5
488.866	1	2
489.207	1	3
489.547	1	-7
489.888	1	2
490.228	1	13
490.569	1	5
490.910	1	-8
491.250	1	9
491.591	1	0
491.932	1	2
492.272	1	0
492.613	1	1
492.953	1	-7
493.294	1	7
493.635	1	3
493.975	1	7
494.316	1	2
494.656	1	-2
494.997	1	-2
495.337	1	-5
495.678	1	-17
496.019	1	-4
496.359	1	13
496.700	1	0
497.040	1	7
497.381	1	1
497.721	1	-2
498.062	1	-4
498.403	1	-3
498.743	1	7
499.084	1	8
499.424	1	-12
499.765	1	4
500.105	1	-2
500.446	1	3
500.786	1	0
501.127	1	3
501.467	1	3
501.808	1	5
502.148	1	9
502.489	1	3
502.829	1	-1
503.170	1	-10
503.510	1	3
503.851	1	-3
504.191	1	2
504.532	1	8
504.872	1	5
505.213	1	0
505.553	1	-2
505.894	1	2
506.234	1	1
506.575	1	7
506.915	1	-2
507.256	1	3
507.596	1	1
507.936	1	-7
508.277	1	-5
508.617	1	-6
508.958	1	6
509.298	1	0
509.639	1	11
509.979	1	-6
510.319	1	9
510.660	1	-7
511.000	1	-1
511.341	1	-3
511.681	1	2
512.022	1	6
512.362	1	-9
512.702	1	3
513.043	1	-3
513.383	1	-3
513.724	1	-16
514.064	1	3
514.404	1	7
514.745	1	2
515.085	1	5
515.425	1	-9
515.766	1	10
516.106	1	-4
516.447	1	5
516.787	1	0
517.127	1	-1
517.468	1	2
517.808	1	-3
518.148	1	3
518.489	1	3
518.829	1	5
519.169	1	6
519.510	1	-4
519.850	1	17
520.190	1	6
520.531	1	6
520.871	1	-7
521.211	1	6
521.552	1	9
521.892	1	9
522.232	1	-7
522.573	1	9
522.913	1	9
523.253	1	10
523.593	1	3
523.934	1	-7
524.274	1	-9
524.614	1	-1
524.955	1	4
525.295	1	3
525.635	1	-3
525.975	1	2
526.316	1	4
526.656	1	2
526.996	1	5
527.337	1	2
527.677	1	-6
528.017	1	6
528.357	1	0
528.698	1	-8
529.038	1	-9
529.378	1	-2
529.718	1	6
530.058	1	0
530.399	1	-1
530.739	1	1
531.079	1	2
531.419	1	-2
531.760	1	-5
532.100	1	2
532.440	1	10
532.780	1	-1
533.120	1	2
533.461	1	-2
533.801	1	3
534.141	1	4
534.481	1	-2
534.821	1	7
535.162	1	3
535.502	1	-2
535.842	1	8
536.182	1	4
536.522	1	-12
536.862	1	1
537.203	1	-5
537.543	1	2
537.883	1	3
538.223	1	17
538.563	1	4
538.903	1	11
539.243	1	2
539.584	1	14
539.924	1	7
540.264	1	-8
540.604	1	2
540.944	1	0
541.284	1	1
541.624	1	12
541.964	1	-2
542.305	1	2
542.645	1	-8
542.985	1	1
543.325	1	4
543.665	1	12
544.005	1	6
544.345	1	5
544.685	1	6
545.025	1	1
545.365	1	6
545.705	1	5
546.045	1	-1
546.386	1	0
546.726	1	-9
547.066	1	6
547.406	1	-7
547.746	1	-2
548.086	1	1
548.426	1	-5
548.766	1	3
549.106	1	-12
549.446	1	-10
549.786	1	15
550.126	1	15
550.466	1	4
550.806	1	-1
551.146	1	3
551.486	1	0
551.826	1	2
552.166	1	-3
552.506	1	5
552.846	1	0
553.186	1	-3
553.526	1	-5
553.866	1	-8
554.206	1	-2
554.546	1	4
554.886	1	-8
555.226	1	3
555.566	1	-2
555.906	1	-4
556.246	1	1
556.586	1	-6
556.926	1	10
557.266	1	-3
557.606	1	0
557.946	1	4
558.286	1	12
558.626	1	-14
558.966	1	-8
559.306	1	-8
559.646	1	4
559.986	1	1
560.325	1	1
560.665	1	4
561.005	1	-8
561.345	1	3
561.685	1	1
562.025	1	0
562.365	1	11
562.705	1	4
563.045	1	-3
563.385	1	8
563.725	1	2
564.064	1	7
564.404	1	5
564.744	1	12
565.084	1	-3
565.424	1	-4
565.764	1	8
566.104	1	1
566.444	1	15
566.783	1	12
567.123	1	6
567.463	1	7
567.803	1	7
568.143	1	11
568.483	1	8
568.823	1	-4
569.162	1	11
569.502	1	1
569.842	1	0
570.182	1	-8
570.522	1	-17
570.862	1	14
571.201	1	5
571.541	1	1
571.881	1	-1
572.221	1	4
572.561	1	-4
572.900	1	1
573.240	1	-1
573.580	1	-3
573.920	1	9
574.260	1	-5
574.599	1	2
574.939	1	11
575.279	1	-7
575.619	1	3
575.959	1	-4
576.298	1	-1
576.638	1	-4
576.978	1	-8
577.318	1	2
577.657	1	18
577.997	1	9
578.337	1	3
578.677	1	3
579.016	1	1
579.356	1	6
579.696	1	-4
580.036	1	-3
580.375	1	-7
580.715	1	11
581.055	1	6
581.394	1	3
581.734	1	8
582.074	1	3
582.414	1	1
582.753	1	9
583.093	1	1
583.433	1	1
583.772	1	4
584.112	1	-3
584.452	1	7
584.791	1	8
585.131	1	9
585.471	1	-4
585.811	1	8
586.150	1	10
586.490	1	-2
586.830	1	-10
587.169	1	7
587.509	1	8
587.849	1	2
588.188	1	10
588.528	1	3
588.867	1	-4
589.207	1	-9
589.547	1	-2
589.886	1	6
590.226	1	3
590.566	1	-1
590.905	1	6
591.245	1	1
591.585	1	6
591.924	1	2
592.264	1	1
592.603	1	2
592.943	1	4
593.283	1	-11
593.622	1	1
593.962	1	-4
594.301	1	-8
594.641	1	4
594.981	1	-3
595.320	1	5
595.660	1	2
595.999	1	16
596.339	1	2
596.678	1	1
597.018	1	0
597.358	1	-2
597.697	1	2
598.037	1	-2
598.376	1	-7
598.716	1	1
599.055	1	0
599.395	1	-3
599.734	1	-3
600.074	1	1
600.413	1	9
600.753	1	-3
601.092	1	-3
601.432	1	-6
601.771	1	10
602.111	1	2
602.451	1	2
602.790	1	1
603.130	1	4
603.469	1	-2
603.809	1	4
604.148	1	2
604.487	1	13
604.827	1	1
605.166	1	7
605.506	1	2
605.845	1	-5
606.185	1	0
606.524	1	4
606.864	1	6
607.203	1	3
607.543	1	3
607.882	1	10
608.222	1	-10
608.561	1	-11
608.901	1	3
609.240	1	-8
609.579	1	5
609.919	1	0
610.258	1	1
610.598	1	0
610.937	1	4
611.277	1	4
611.616	1	-3
611.955	1	3
612.295	1	0
612.634	1	-3
612.974	1	-4
613.313	1	2
613.652	1	-5
613.992	1	5
614.331	1	7
614.671	1	6
615.010	1	-2
615.349	1	1
615.689	1	3
616.028	1	7
616.368	1	1
616.707	1	14
617.046	1	12
617.386	1	0
617.725	1	-2
618.064	1	9
618.404	1	-5
618.743	1	11
619.082	1	-2
619.422	1	-1
619.761	1	9
620.100	1	-10
620.440	1	9
620.779	1	0
621.118	1	1
621.458	1	7
621.797	1	0
622.136	1	5
622.476	1	7
622.815	1	0
623.154	1	-8
623.494	1	8
623.833	1	8
624.172	1	-3
624.511	1	-1
624.851	1	4
625.190	1	0
625.529	1	-8
625.869	1	-1
626.208	1	-2
626.547	1	4
626.886	1	-5
627.226	1	1
627.565	1	3
627.904	1	3
628.243	1	9
628.583	1	-4
628.922	1	1
629.261	1	-9
629.600	1	1
629.940	1	2
630.279	1	1
630.618	1	-1
630.957	1	-10
631.297	1	2
631.636	1	2
631.975	1	9
632.314	1	-1
632.653	1	-1
632.993	1	11
633.332	1	0
633.671	1	1
634.010	1	0
634.349	1	0
634.689	1	8
635.028	1	2
635.367	1	-1
635.706	1	2
636.045	1	6
636.384	1	5
636.724	1	-1
637.063	1	3
637.402	1	-3
637.741	1	16
638.080	1	13
638.419	1	3
638.759	1	-6
639.098	1	-4
639.437	1	9
639.776	1	-4
640.115	1	6
640.454	1	-4
640.793	1	-11
641.132	1	6
641.472	1	0
641.811	1	0
642.150	1	-1
642.489	1	0
642.828	1	3
643.167	1	-5
643.506	1	15
643.845	1	-7
644.184	1	-13
644.524	1	-2
644.863	1	-2
645.202	1	2
645.541	1	8
645.880	1	3
646.219	1	1
646.558	1	-5
646.897	1	3
647.236	1	-7
647.575	1	-6
647.914	1	-11
648.253	1	5
648.592	1	-2
648.931	1	-9
649.270	1	-5
649.610	1	-1
649.949	1	3
650.288	1	4
650.627	1	-1
650.966	1	7
651.305	1	-10
651.644	1	3
651.983	1	-12
652.322	1	1
652.661	1	-8
653.000	1	-1
653.339	1	-5
653.678	1	3
654.017	1	-7
654.356	1	12
654.695	1	11
655.034	1	-3
655.373	1	-6
655.712	1	6
656.051	1	7
656.390	1	-2
656.729	1	5
657.068	1	-7
657.406	1	-1
657.745	1	1
658.084	1	0
658.423	1	0
658.762	1	13
659.101	1	2
659.440	1	-11
659.779	1	14
660.118	1	-4
660.457	1	-6
660.796	1	-3
661.135	1	14
661.474	1	9
661.813	1	4
662.152	1	-1
662.491	1	11
662.829	1	6
663.168	1	1
663.507	1	6
663.846	1	5
664.185	1	-7
664.524	1	0
664.863	1	0
665.202	1	9
665.541	1	-5
665.879	1	9
666.218	1	2
666.557	1	5
666.896	1	8
667.235	1	5
667.574	1	17
667.913	1	7
668.251	1	13
668.590	1	4
668.929	1	10
669.268	1	-5
669.607	1	-9
669.946	1	2
670.285	1	6
670.623	1	10
670.962	1	0
671.301	1	11
671.640	1	-10
671.979	1	6
672.317	1	-3
672.656	1	-4
672.995	1	2
673.334	1	-8
673.673	1	5
674.011	1	4
674.350	1	5
674.689	1	3
675.028	1	8
675.367	1	-3
675.705	1	8
676.044	1	3
676.383	1	2
676.722	1	2
677.060	1	13
677.399	1	-6
677.738	1	1
678.077	1	2
678.416	1	13
678.754	1	2
679.093	1	7
679.432	1	3
679.771	1	4
680.109	1	5
680.448	1	7
680.787	1	5
681.125	1	12
681.464	1	3
681.803	1	-8
682.142	1	-3
682.480	1	7
682.819	1	7
683.158	1	6
683.496	1	-11
683.835	1	-6
684.174	1	0
684.512	1	9
684.851	1	-1
685.190	1	3
685.529	1	2
685.867	1	8
686.206	1	3
686.545	1	-2
686.883	1	-3
687.222	1	8
687.561	1	14
687.899	1	-2
688.238	1	1
688.577	1	-5
688.746	1	1