File: Data/GaN_130K_350ms/GaN_sample F_spot6_UVVIS_130 K_200um_350 ms 2x2mm1_172.txt
340.368	1	1
340.710	1	15
341.052	1	7
341.394	1	12
341.737	1	2
342.079	1	-1
342.421	1	10
342.763	1	5
343.105	1	9
343.447	1	4
343.789	1	1
344.131	1	7
344.473	1	-3
344.815	1	-6
345.157	1	-9
345.499	1	2
345.841	1	-2
346.183	1	-7
346.526	1	0
346.868	1	5
347.210	1	2
347.552	1	-1
347.894	1	4
348.236	1	8
348.578	1	2
348.920	1	-2
349.262	1	7
349.604	1	11
349.946	1	9
350.288	1	-10
350.630	1	6
350.972	1	1
351.314	1	-3
351.656	1	7
351.998	1	4
352.340	1	7
352.682	1	-3
353.024	1	9
353.366	1	9
353.708	1	-11
354.050	1	4
354.392	1	6
354.734	1	-3
355.076	1	-1
355.418	1	-2
355.760	1	4
356.102	1	3
356.444	1	-1
356.785	1	15
357.127	1	4
357.469	1	1
357.811	1	4
358.153	1	6
358.495	1	10
358.837	1	12
359.179	1	6
359.521	1	2
359.863	1	7
360.205	1	11
360.547	1	4
360.889	1	1
361.231	1	2
361.572	1	13
361.914	1	12
362.256	1	11
362.598	1	11
362.940	1	7
363.282	1	17
363.624	1	13
363.966	1	17
364.308	1	22
364.649	1	16
364.991	1	21
365.333	1	15
365.675	1	20
366.017	1	22
366.359	1	18
366.701	1	27
367.042	1	32
367.384	1	25
367.726	1	25
368.068	1	14
368.410	1	29
368.752	1	27
369.093	1	29
369.435	1	21
369.777	1	12
370.119	1	24
370.461	1	20
370.803	1	24
371.144	1	16
371.486	1	18
371.828	1	17
372.170	1	12
372.512	1	18
372.853	1	17
373.195	1	18
373.537	1	15
373.879	1	21
374.220	1	13
374.562	1	2
374.904	1	16
375.246	1	21
375.588	1	12
375.929	1	3
376.271	1	17
376.613	1	11
376.955	1	12
377.296	1	10
377.638	1	4
377.980	1	-3
378.321	1	8
378.663	1	11
379.005	1	23
379.347	1	7
379.688	1	-2
380.030	1	-1
380.372	1	16
380.714	1	24
381.055	1	4
381.397	1	11
381.739	1	7
382.080	1	7
382.422	1	22
382.764	1	1
383.105	1	9
383.447	1	3
383.789	1	13
384.130	1	13
384.472	1	22
384.814	1	16
385.156	1	-1
385.497	1	-3
385.839	1	7
386.180	1	5
386.522	1	3
386.864	1	13
387.205	1	5
387.547	1	10
387.889	1	5
388.230	1	3
388.572	1	18
388.914	1	12
389.255	1	-1
389.597	1	3
389.939	1	9
390.280	1	6
390.622	1	5
390.963	1	7
391.305	1	17
391.647	1	10
391.988	1	11
392.330	1	11
392.671	1	4
393.013	1	6
393.355	1	4
393.696	1	4
394.038	1	4
394.379	1	10
394.721	1	11
395.062	1	1
395.404	1	-7
395.746	1	14
396.087	1	17
396.429	1	3
396.770	1	14
397.112	1	8
397.453	1	12
397.795	1	-3
398.136	1	15
398.478	1	5
398.819	1	-9
399.161	1	7
399.503	1	11
399.844	1	6
400.186	1	9
400.527	1	6
400.869	1	10
401.210	1	-9
401.552	1	18
401.893	1	-11
402.235	1	8
402.576	1	7
402.918	1	21
403.259	1	-10
403.601	1	16
403.942	1	7
404.284	1	1
404.625	1	19
404.967	1	7
405.308	1	8
405.649	1	5
405.991	1	6
406.332	1	10
406.674	1	19
407.015	1	10
407.357	1	4
407.698	1	12
408.040	1	9
408.381	1	13
408.722	1	4
409.064	1	6
409.405	1	16
409.747	1	5
410.088	1	8
410.430	1	11
410.771	1	-13
411.112	1	10
411.454	1	12
411.795	1	0
412.137	1	0
412.478	1	6
412.819	1	8
413.161	1	9
413.502	1	14
413.844	1	2
414.185	1	10
414.526	1	7
414.868	1	3
415.209	1	7
415.550	1	6
415.892	1	12
416.233	1	10
416.575	1	10
416.916	1	10
417.257	1	10
417.599	1	4
417.940	1	4
418.281	1	0
418.623	1	15
418.964	1	5
419.305	1	0
419.647	1	8
419.988	1	13
420.329	1	8
420.671	1	-3
421.012	1	12
421.353	1	1
421.695	1	2
422.036	1	4
422.377	1	4
422.718	1	1
423.060	1	9
423.401	1	-2
423.742	1	8
424.084	1	5
424.425	1	13
424.766	1	10
425.107	1	7
425.449	1	5
425.790	1	10
426.131	1	17
426.472	1	12
426.814	1	15
427.155	1	0
427.496	1	5
427.837	1	3
428.179	1	2
428.520	1	8
428.861	1	-2
429.202	1	5
429.544	1	10
429.885	1	2
430.226	1	5
430.567	1	2
430.909	1	9
431.250	1	8
431.591	1	-2
431.932	1	3
432.273	1	13
432.615	1	13
432.956	1	1
433.297	1	14
433.638	1	3
433.979	1	3
434.320	1	4
434.662	1	5
435.003	1	12
435.344	1	10
435.685	1	-2
436.026	1	8
436.368	1	1
436.709	1	9
437.050	1	5
437.391	1	17
437.732	1	5
438.073	1	18
438.414	1	3
438.756	1	11
439.097	1	9
439.438	1	15
439.779	1	9
440.120	1	6
440.461	1	17
440.802	1	-6
441.143	1	3
441.485	1	-2
441.826	1	2
442.167	1	7
442.508	1	-9
442.849	1	12
443.190	1	12
443.531	1	6
443.872	1	5
444.213	1	-2
444.554	1	9
444.895	1	-3
445.237	1	-4
445.578	1	-3
445.919	1	0
446.260	1	8
446.601	1	9
446.942	1	6
447.283	1	7
447.624	1	2
447.965	1	-3
448.306	1	11
448.647	1	7
448.988	1	11
449.329	1	3
449.670	1	-2
450.011	1	0
450.352	1	12
450.693	1	4
451.034	1	0
451.375	1	3
451.716	1	-1
452.057	1	13
452.398	1	-3
452.739	1	6
453.080	1	4
453.421	1	12
453.762	1	-3
454.103	1	-3
454.444	1	4
454.785	1	13
455.126	1	2
455.467	1	-1
455.808	1	16
456.149	1	1
456.490	1	19
456.831	1	5
457.172	1	0
457.513	1	1
457.854	1	5
458.195	1	-4
458.536	1	4
458.877	1	21
459.218	1	1
459.559	1	5
459.899	1	-2
460.240	1	17
460.581	1	4
460.922	1	6
461.263	1	3
461.604	1	-10
461.945	1	6
462.286	1	11
462.627	1	9
462.968	1	1
463.309	1	7
463.649	1	0
463.990	1	-1
464.331	1	8
464.672	1	5
465.013	1	-2
465.354	1	9
465.695	1	15
466.036	1	7
466.376	1	10
466.717	1	12
467.058	1	6
467.399	1	-3
467.740	1	11
468.081	1	15
468.422	1	3
468.762	1	-7
469.103	1	3
469.444	1	0
469.785	1	9
470.126	1	-7
470.467	1	2
470.807	1	7
471.148	1	-1
471.489	1	0
471.830	1	-1
472.171	1	2
472.511	1	4
472.852	1	12
473.193	1	16
473.534	1	5
473.875	1	12
474.215	1	9
474.556	1	8
474.897	1	-4
475.238	1	18
475.578	1	-4
475.919	1	-14
476.260	1	4
476.601	1	4
476.942	1	3
477.282	1	-1
477.623	1	-7
477.964	1	-4
478.305	1	15
478.645	1	2
478.986	1	-4
479.327	1	-7
479.667	1	11
480.008	1	3
480.349	1	10
480.690	1	6
481.030	1	-2
481.371	1	9
481.712	1	3
482.053	1	6
482.393	1	9
482.734	1	1
483.075	1	15
483.415	1	9
483.756	1	3
484.097	1	3
484.437	1	-1
484.778	1	14
485.119	1	8
485.459	1	-9
485.800	1	26
486.141	1	6
486.481	1	-3
486.822	1	7
487.163	1	3
487.503	1	-7
487.844	1	-2
488.185	1	-2
488.525	1	12
488.866	1	3
489.207	1	4
489.547	1	1
489.888	1	9
490.228	1	6
490.569	1	1
490.910	1	-7
491.250	1	8
491.591	1	-10
491.932	1	4
492.272	1	0
492.613	1	-6
492.953	1	-2
493.294	1	14
493.635	1	9
493.975	1	15
494.316	1	2
494.656	1	6
494.997	1	1
495.337	1	0
495.678	1	-6
496.019	1	2
496.359	1	20
496.700	1	10
497.040	1	13
497.381	1	1
497.721	1	7
498.062	1	-6
498.403	1	-9
498.743	1	11
499.084	1	16
499.424	1	-1
499.765	1	1
500.105	1	8
500.446	1	5
500.786	1	9
501.127	1	7
501.467	1	1
501.808	1	12
502.148	1	8
502.489	1	8
502.829	1	0
503.170	1	3
503.510	1	13
503.851	1	12
504.191	1	4
504.532	1	6
504.872	1	-1
505.213	1	4
505.553	1	6
505.894	1	3
506.234	1	4
506.575	1	2
506.915	1	6
507.256	1	13
507.596	1	9
507.936	1	-5
508.277	1	8
508.617	1	2
508.958	1	12
509.298	1	7
509.639	1	10
509.979	1	5
510.319	1	17
510.660	1	-3
511.000	1	12
511.341	1	2
511.681	1	15
512.022	1	10
512.362	1	2
512.702	1	16
513.043	1	7
513.383	1	13
513.724	1	7
514.064	1	2
514.404	1	8
514.745	1	-4
515.085	1	15
515.425	1	10
515.766	1	12
516.106	1	7
516.447	1	8
516.787	1	12
517.127	1	9
517.468	1	12
517.808	1	8
518.148	1	11
518.489	1	8
518.829	1	16
519.169	1	13
519.510	1	2
519.850	1	12
520.190	1	14
520.531	1	15
520.871	1	6
521.211	1	19
521.552	1	23
521.892	1	12
522.232	1	7
522.573	1	0
522.913	1	12
523.253	1	12
523.593	1	8
523.934	1	2
524.274	1	0
524.614	1	13
524.955	1	16
525.295	1	11
525.635	1	7
525.975	1	12
526.316	1	5
526.656	1	13
526.996	1	7
527.337	1	22
527.677	1	-2
528.017	1	7
528.357	1	20
528.698	1	11
529.038	1	7
529.378	1	11
529.718	1	12
530.058	1	10
530.399	1	13
530.739	1	5
531.079	1	1
531.419	1	9
531.760	1	4
532.100	1	12
532.440	1	10
532.780	1	7
533.120	1	14
533.461	1	11
533.801	1	24
534.141	1	11
534.481	1	6
534.821	1	17
535.162	1	9
535.502	1	5
535.842	1	9
536.182	1	12
536.522	1	2
536.862	1	7
537.203	1	-8
537.543	1	13
537.883	1	2
538.223	1	10
538.563	1	14
538.903	1	19
539.243	1	8
539.584	1	4
539.924	1	7
540.264	1	3
540.604	1	8
540.944	1	8
541.284	1	10
541.624	1	22
541.964	1	5
542.305	1	4
542.645	1	3
542.985	1	13
543.325	1	11
543.665	1	18
544.005	1	11
544.345	1	6
544.685	1	10
545.025	1	15
545.365	1	15
545.705	1	7
546.045	1	5
546.386	1	11
546.726	1	4
547.066	1	13
547.406	1	-13
547.746	1	8
548.086	1	2
548.426	1	3
548.766	1	16
549.106	1	2
549.446	1	7
549.786	1	9
550.126	1	10
550.466	1	11
550.806	1	12
551.146	1	6
551.486	1	9
551.826	1	13
552.166	1	5
552.506	1	14
552.846	1	3
553.186	1	-2
553.526	1	10
553.866	1	-4
554.206	1	3
554.546	1	1
554.886	1	10
555.226	1	12
555.566	1	2
555.906	1	-1
556.246	1	12
556.586	1	6
556.926	1	12
557.266	1	8
557.606	1	6
557.946	1	0
558.286	1	22
558.626	1	3
558.966	1	-1
559.306	1	3
559.646	1	11
559.986	1	4
560.325	1	0
560.665	1	12
561.005	1	7
561.345	1	11
561.685	1	1
562.025	1	8
562.365	1	8
562.705	1	4
563.045	1	1
563.385	1	6
563.725	1	1
564.064	1	7
564.404	1	1
564.744	1	10
565.084	1	5
565.424	1	5
565.764	1	9
566.104	1	1
566.444	1	11
566.783	1	16
567.123	1	12
567.463	1	-1
567.803	1	16
568.143	1	9
568.483	1	7
568.823	1	-4
569.162	1	10
569.502	1	9
569.842	1	3
570.182	1	-3
570.522	1	-7
570.862	1	14
571.201	1	6
571.541	1	0
571.881	1	6
572.221	1	12
572.561	1	7
572.900	1	8
573.240	1	15
573.580	1	6
573.920	1	13
574.260	1	-2
574.599	1	5
574.939	1	11
575.279	1	2
575.619	1	12
575.959	1	2
576.298	1	10
576.638	1	6
576.978	1	1
577.318	1	-4
577.657	1	18
577.997	1	10
578.337	1	8
578.677	1	10
579.016	1	4
579.356	1	6
579.696	1	5
580.036	1	5
580.375	1	-2
580.715	1	8
581.055	1	7
581.394	1	1
581.734	1	10
582.074	1	13
582.414	1	-3
582.753	1	1
583.093	1	3
583.433	1	16
583.772	1	4
584.112	1	10
584.452	1	14
584.791	1	3
585.131	1	5
585.471	1	3
585.811	1	5
586.150	1	5
586.490	1	-4
586.830	1	-16
587.169	1	14
587.509	1	1
587.849	1	0
588.188	1	15
588.528	1	17
588.867	1	4
589.207	1	4
589.547	1	-1
589.886	1	15
590.226	1	12
590.566	1	5
590.905	1	9
591.245	1	-3
591.585	1	-2
591.924	1	-3
592.264	1	6
592.603	1	-6
592.943	1	0
593.283	1	-4
593.622	1	7
593.962	1	13
594.301	1	2
594.641	1	9
594.981	1	-4
595.320	1	10
595.660	1	3
595.999	1	12
596.339	1	11
596.678	1	-9
597.018	1	7
597.358	1	1
597.697	1	2
598.037	1	-1
598.376	1	10
598.716	1	4
599.055	1	-3
599.395	1	-6
599.734	1	0
600.074	1	-3
600.413	1	9
600.753	1	3
601.092	1	4
601.432	1	0
601.771	1	10
602.111	1	1
602.451	1	2
602.790	1	2
603.130	1	1
603.469	1	-7
603.809	1	-4
604.148	1	12
604.487	1	7
604.827	1	1
605.166	1	9
605.506	1	1
605.845	1	-3
606.185	1	2
606.524	1	6
606.864	1	7
607.203	1	3
607.543	1	1
607.882	1	12
608.222	1	1
608.561	1	-3
608.901	1	6
609.240	1	-1
609.579	1	8
609.919	1	14
610.258	1	-2
610.598	1	7
610.937	1	-1
611.277	1	9
611.616	1	-4
611.955	1	-1
612.295	1	3
612.634	1	-5
612.974	1	-2
613.313	1	0
613.652	1	-6
613.992	1	0
614.331	1	3
614.671	1	-7
615.010	1	-7
615.349	1	-2
615.689	1	7
616.028	1	8
616.368	1	7
616.707	1	15
617.046	1	11
617.386	1	-3
617.725	1	1
618.064	1	5
618.404	1	-4
618.743	1	12
619.082	1	6
619.422	1	5
619.761	1	11
620.100	1	1
620.440	1	9
620.779	1	5
621.118	1	1
621.458	1	9
621.797	1	2
622.136	1	2
622.476	1	2
622.815	1	-9
623.154	1	7
623.494	1	6
623.833	1	1
624.172	1	6
624.511	1	10
624.851	1	-5
625.190	1	7
625.529	1	1
625.869	1	8
626.208	1	12
626.547	1	8
626.886	1	3
627.226	1	6
627.565	1	0
627.904	1	9
628.243	1	11
628.583	1	-6
628.922	1	2
629.261	1	-9
629.600	1	4
629.940	1	4
630.279	1	10
630.618	1	2
630.957	1	7
631.297	1	0
631.636	1	8
631.975	1	7
632.314	1	-2
632.653	1	2
632.993	1	3
633.332	1	-1
633.671	1	3
634.010	1	-5
634.349	1	5
634.689	1	1
635.028	1	6
635.367	1	13
635.706	1	6
636.045	1	15
636.384	1	-4
636.724	1	13
637.063	1	9
637.402	1	-5
637.741	1	11
638.080	1	5
638.419	1	10
638.759	1	-1
639.098	1	-14
639.437	1	17
639.776	1	-4
640.115	1	5
640.454	1	7
640.793	1	-5
641.132	1	10
641.472	1	0
641.811	1	7
642.150	1	-1
642.489	1	0
642.828	1	2
643.167	1	4
643.506	1	5
643.845	1	-3
644.184	1	-3
644.524	1	2
644.863	1	4
645.202	1	3
645.541	1	3
645.880	1	-2
646.219	1	-6
646.558	1	3
646.897	1	1
647.236	1	-3
647.575	1	-6
647.914	1	5
648.253	1	2
648.592	1	-1
648.931	1	-3
649.270	1	-2
649.610	1	-1
649.949	1	4
650.288	1	5
650.627	1	7
650.966	1	-4
651.305	1	0
651.644	1	3
651.983	1	-11
652.322	1	0
652.661	1	6
653.000	1	-2
653.339	1	4
653.678	1	-5
654.017	1	4
654.356	1	12
654.695	1	-4
655.034	1	-8
655.373	1	12
655.712	1	10
656.051	1	13
656.390	1	5
656.729	1	2
657.068	1	-1
657.406	1	9
657.745	1	5
658.084	1	3
658.423	1	4
658.762	1	11
659.101	1	9
659.440	1	-7
659.779	1	-4
660.118	1	-5
660.457	1	-8
660.796	1	-1
661.135	1	2
661.474	1	6
661.813	1	-2
662.152	1	6
662.491	1	9
662.829	1	6
663.168	1	-8
663.507	1	3
663.846	1	2
664.185	1	-10
664.524	1	2
664.863	1	-2
665.202	1	1
665.541	1	0
665.879	1	1
666.218	1	5
666.557	1	5
666.896	1	5
667.235	1	3
667.574	1	10
667.913	1	3
668.251	1	2
668.590	1	6
668.929	1	9
669.268	1	2
669.607	1	-5
669.946	1	7
670.285	1	2
670.623	1	15
670.962	1	-6
671.301	1	-1
671.640	1	-14
671.979	1	-3
672.317	1	-7
672.656	1	-8
672.995	1	0
673.334	1	-9
673.673	1	1
674.011	1	3
674.350	1	4
674.689	1	15
675.028	1	8
675.367	1	-8
675.705	1	8
676.044	1	10
676.383	1	-2
676.722	1	1
677.060	1	-8
677.399	1	0
677.738	1	1
678.077	1	1
678.416	1	2
678.754	1	0
679.093	1	7
679.432	1	6
679.771	1	0
680.109	1	1
680.448	1	8
680.787	1	8
681.125	1	13
681.464	1	1
681.803	1	-2
682.142	1	2
682.480	1	9
682.819	1	3
683.158	1	2
683.496	1	-2
683.835	1	-8
684.174	1	0
684.512	1	16
684.851	1	3
685.190	1	4
685.529	1	2
685.867	1	4
686.206	1	2
686.545	1	-2
686.883	1	-1
687.222	1	1
687.561	1	11
687.899	1	6
688.238	1	9
688.577	1	-2
688.746	1	2