File: Data/GaN_130K_350ms/GaN_sample F_spot6_UVVIS_130 K_200um_350 ms 2x2mm1_121.txt
340.368	1	7
340.710	1	7
341.052	1	-1
341.394	1	-2
341.737	1	6
342.079	1	1
342.421	1	7
342.763	1	2
343.105	1	6
343.447	1	7
343.789	1	3
344.131	1	0
344.473	1	0
344.815	1	-16
345.157	1	-1
345.499	1	-2
345.841	1	2
346.183	1	7
346.526	1	2
346.868	1	7
347.210	1	7
347.552	1	5
347.894	1	5
348.236	1	-2
348.578	1	7
348.920	1	3
349.262	1	8
349.604	1	3
349.946	1	10
350.288	1	2
350.630	1	13
350.972	1	12
351.314	1	3
351.656	1	15
351.998	1	-4
352.340	1	17
352.682	1	2
353.024	1	-1
353.366	1	10
353.708	1	3
354.050	1	8
354.392	1	8
354.734	1	11
355.076	1	4
355.418	1	9
355.760	1	10
356.102	1	2
356.444	1	0
356.785	1	11
357.127	1	2
357.469	1	6
357.811	1	17
358.153	1	13
358.495	1	10
358.837	1	10
359.179	1	12
359.521	1	13
359.863	1	12
360.205	1	25
360.547	1	5
360.889	1	17
361.231	1	15
361.572	1	26
361.914	1	27
362.256	1	22
362.598	1	25
362.940	1	21
363.282	1	37
363.624	1	35
363.966	1	45
364.308	1	50
364.649	1	43
364.991	1	56
365.333	1	43
365.675	1	51
366.017	1	68
366.359	1	60
366.701	1	62
367.042	1	67
367.384	1	74
367.726	1	72
368.068	1	68
368.410	1	65
368.752	1	76
369.093	1	66
369.435	1	53
369.777	1	64
370.119	1	64
370.461	1	58
370.803	1	61
371.144	1	56
371.486	1	50
371.828	1	60
372.170	1	30
372.512	1	50
372.853	1	39
373.195	1	41
373.537	1	41
373.879	1	32
374.220	1	38
374.562	1	38
374.904	1	44
375.246	1	38
375.588	1	31
375.929	1	24
376.271	1	40
376.613	1	33
376.955	1	33
377.296	1	27
377.638	1	8
377.980	1	25
378.321	1	26
378.663	1	19
379.005	1	27
379.347	1	23
379.688	1	14
380.030	1	13
380.372	1	26
380.714	1	20
381.055	1	13
381.397	1	24
381.739	1	25
382.080	1	13
382.422	1	32
382.764	1	20
383.105	1	17
383.447	1	19
383.789	1	18
384.130	1	13
384.472	1	10
384.814	1	16
385.156	1	19
385.497	1	12
385.839	1	24
386.180	1	27
386.522	1	17
386.864	1	20
387.205	1	10
387.547	1	23
387.889	1	10
388.230	1	10
388.572	1	10
388.914	1	17
389.255	1	15
389.597	1	7
389.939	1	9
390.280	1	24
390.622	1	9
390.963	1	16
391.305	1	18
391.647	1	14
391.988	1	11
392.330	1	3
392.671	1	15
393.013	1	12
393.355	1	19
393.696	1	11
394.038	1	11
394.379	1	12
394.721	1	19
395.062	1	6
395.404	1	-1
395.746	1	13
396.087	1	21
396.429	1	13
396.770	1	15
397.112	1	9
397.453	1	21
397.795	1	8
398.136	1	14
398.478	1	10
398.819	1	-5
399.161	1	15
399.503	1	19
399.844	1	13
400.186	1	5
400.527	1	13
400.869	1	18
401.210	1	7
401.552	1	21
401.893	1	2
402.235	1	11
402.576	1	9
402.918	1	13
403.259	1	4
403.601	1	18
403.942	1	12
404.284	1	7
404.625	1	11
404.967	1	14
405.308	1	-2
405.649	1	16
405.991	1	9
406.332	1	9
406.674	1	13
407.015	1	8
407.357	1	2
407.698	1	8
408.040	1	12
408.381	1	13
408.722	1	9
409.064	1	15
409.405	1	13
409.747	1	7
410.088	1	22
410.430	1	22
410.771	1	-1
411.112	1	16
411.454	1	16
411.795	1	18
412.137	1	7
412.478	1	-1
412.819	1	0
413.161	1	14
413.502	1	23
413.844	1	1
414.185	1	12
414.526	1	0
414.868	1	9
415.209	1	5
415.550	1	9
415.892	1	16
416.233	1	14
416.575	1	7
416.916	1	3
417.257	1	8
417.599	1	9
417.940	1	8
418.281	1	7
418.623	1	13
418.964	1	7
419.305	1	5
419.647	1	9
419.988	1	23
420.329	1	7
420.671	1	8
421.012	1	7
421.353	1	5
421.695	1	9
422.036	1	17
422.377	1	11
422.718	1	5
423.060	1	-2
423.401	1	17
423.742	1	11
424.084	1	15
424.425	1	16
424.766	1	16
425.107	1	14
425.449	1	13
425.790	1	13
426.131	1	16
426.472	1	9
426.814	1	1
427.155	1	3
427.496	1	12
427.837	1	13
428.179	1	5
428.520	1	14
428.861	1	3
429.202	1	9
429.544	1	14
429.885	1	6
430.226	1	13
430.567	1	16
430.909	1	11
431.250	1	9
431.591	1	5
431.932	1	8
432.273	1	13
432.615	1	16
432.956	1	2
433.297	1	13
433.638	1	6
433.979	1	5
434.320	1	10
434.662	1	12
435.003	1	16
435.344	1	8
435.685	1	-6
436.026	1	11
436.368	1	12
436.709	1	-7
437.050	1	6
437.391	1	14
437.732	1	5
438.073	1	18
438.414	1	-8
438.756	1	8
439.097	1	20
439.438	1	7
439.779	1	11
440.120	1	5
440.461	1	17
440.802	1	-4
441.143	1	3
441.485	1	13
441.826	1	2
442.167	1	8
442.508	1	4
442.849	1	8
443.190	1	11
443.531	1	3
443.872	1	9
444.213	1	1
444.554	1	5
444.895	1	11
445.237	1	-1
445.578	1	3
445.919	1	0
446.260	1	6
446.601	1	-4
446.942	1	17
447.283	1	13
447.624	1	10
447.965	1	8
448.306	1	7
448.647	1	19
448.988	1	8
449.329	1	10
449.670	1	7
450.011	1	-2
450.352	1	8
450.693	1	6
451.034	1	1
451.375	1	15
451.716	1	-5
452.057	1	11
452.398	1	-4
452.739	1	11
453.080	1	5
453.421	1	7
453.762	1	6
454.103	1	7
454.444	1	-1
454.785	1	12
455.126	1	-2
455.467	1	1
455.808	1	12
456.149	1	-1
456.490	1	10
456.831	1	12
457.172	1	12
457.513	1	-7
457.854	1	6
458.195	1	1
458.536	1	3
458.877	1	25
459.218	1	13
459.559	1	2
459.899	1	2
460.240	1	15
460.581	1	-3
460.922	1	10
461.263	1	8
461.604	1	0
461.945	1	11
462.286	1	10
462.627	1	1
462.968	1	-4
463.309	1	6
463.649	1	1
463.990	1	9
464.331	1	3
464.672	1	6
465.013	1	-2
465.354	1	3
465.695	1	18
466.036	1	11
466.376	1	7
466.717	1	4
467.058	1	4
467.399	1	10
467.740	1	14
468.081	1	13
468.422	1	6
468.762	1	-1
469.103	1	7
469.444	1	7
469.785	1	5
470.126	1	0
470.467	1	0
470.807	1	5
471.148	1	-1
471.489	1	3
471.830	1	2
472.171	1	8
472.511	1	13
472.852	1	13
473.193	1	5
473.534	1	1
473.875	1	14
474.215	1	8
474.556	1	10
474.897	1	-3
475.238	1	25
475.578	1	4
475.919	1	10
476.260	1	8
476.601	1	3
476.942	1	11
477.282	1	18
477.623	1	4
477.964	1	-1
478.305	1	17
478.645	1	-1
478.986	1	0
479.327	1	0
479.667	1	9
480.008	1	-2
480.349	1	0
480.690	1	2
481.030	1	0
481.371	1	8
481.712	1	9
482.053	1	8
482.393	1	1
482.734	1	-2
483.075	1	13
483.415	1	4
483.756	1	9
484.097	1	-1
484.437	1	0
484.778	1	12
485.119	1	18
485.459	1	-7
485.800	1	7
486.141	1	1
486.481	1	7
486.822	1	5
487.163	1	10
487.503	1	1
487.844	1	3
488.185	1	6
488.525	1	9
488.866	1	14
489.207	1	6
489.547	1	9
489.888	1	15
490.228	1	8
490.569	1	6
490.910	1	-3
491.250	1	17
491.591	1	5
491.932	1	13
492.272	1	7
492.613	1	3
492.953	1	21
493.294	1	12
493.635	1	14
493.975	1	7
494.316	1	15
494.656	1	14
494.997	1	6
495.337	1	8
495.678	1	2
496.019	1	10
496.359	1	14
496.700	1	5
497.040	1	16
497.381	1	5
497.721	1	13
498.062	1	4
498.403	1	8
498.743	1	18
499.084	1	18
499.424	1	-2
499.765	1	9
500.105	1	10
500.446	1	11
500.786	1	13
501.127	1	18
501.467	1	14
501.808	1	5
502.148	1	17
502.489	1	15
502.829	1	13
503.170	1	9
503.510	1	18
503.851	1	12
504.191	1	17
504.532	1	14
504.872	1	20
505.213	1	25
505.553	1	12
505.894	1	21
506.234	1	13
506.575	1	21
506.915	1	22
507.256	1	22
507.596	1	18
507.936	1	8
508.277	1	12
508.617	1	-2
508.958	1	16
509.298	1	28
509.639	1	16
509.979	1	22
510.319	1	30
510.660	1	13
511.000	1	22
511.341	1	15
511.681	1	26
512.022	1	23
512.362	1	17
512.702	1	24
513.043	1	19
513.383	1	22
513.724	1	15
514.064	1	10
514.404	1	25
514.745	1	24
515.085	1	20
515.425	1	19
515.766	1	29
516.106	1	10
516.447	1	19
516.787	1	23
517.127	1	22
517.468	1	25
517.808	1	28
518.148	1	14
518.489	1	27
518.829	1	31
519.169	1	25
519.510	1	21
519.850	1	22
520.190	1	23
520.531	1	44
520.871	1	15
521.211	1	29
521.552	1	26
521.892	1	26
522.232	1	18
522.573	1	18
522.913	1	35
523.253	1	27
523.593	1	24
523.934	1	11
524.274	1	10
524.614	1	33
524.955	1	34
525.295	1	21
525.635	1	26
525.975	1	36
526.316	1	17
526.656	1	29
526.996	1	22
527.337	1	29
527.677	1	22
528.017	1	39
528.357	1	22
528.698	1	20
529.038	1	16
529.378	1	37
529.718	1	36
530.058	1	27
530.399	1	31
530.739	1	17
531.079	1	32
531.419	1	36
531.760	1	24
532.100	1	32
532.440	1	36
532.780	1	27
533.120	1	35
533.461	1	23
533.801	1	37
534.141	1	24
534.481	1	22
534.821	1	41
535.162	1	29
535.502	1	24
535.842	1	38
536.182	1	26
536.522	1	25
536.862	1	16
537.203	1	10
537.543	1	28
537.883	1	24
538.223	1	35
538.563	1	34
538.903	1	25
539.243	1	24
539.584	1	25
539.924	1	20
540.264	1	17
540.604	1	29
540.944	1	39
541.284	1	15
541.624	1	20
541.964	1	11
542.305	1	22
542.645	1	21
542.985	1	31
543.325	1	19
543.665	1	27
544.005	1	28
544.345	1	16
544.685	1	25
545.025	1	19
545.365	1	32
545.705	1	25
546.045	1	18
546.386	1	14
546.726	1	14
547.066	1	17
547.406	1	12
547.746	1	21
548.086	1	20
548.426	1	16
548.766	1	10
549.106	1	6
549.446	1	13
549.786	1	31
550.126	1	28
550.466	1	31
550.806	1	20
551.146	1	17
551.486	1	13
551.826	1	15
552.166	1	16
552.506	1	21
552.846	1	22
553.186	1	14
553.526	1	22
553.866	1	6
554.206	1	22
554.546	1	23
554.886	1	18
555.226	1	17
555.566	1	18
555.906	1	11
556.246	1	17
556.586	1	17
556.926	1	17
557.266	1	18
557.606	1	14
557.946	1	16
558.286	1	21
558.626	1	0
558.966	1	19
559.306	1	13
559.646	1	17
559.986	1	12
560.325	1	6
560.665	1	15
561.005	1	11
561.345	1	15
561.685	1	22
562.025	1	5
562.365	1	24
562.705	1	15
563.045	1	9
563.385	1	17
563.725	1	12
564.064	1	21
564.404	1	9
564.744	1	3
565.084	1	7
565.424	1	8
565.764	1	23
566.104	1	12
566.444	1	17
566.783	1	15
567.123	1	11
567.463	1	8
567.803	1	20
568.143	1	18
568.483	1	22
568.823	1	4
569.162	1	11
569.502	1	5
569.842	1	8
570.182	1	17
570.522	1	6
570.862	1	19
571.201	1	8
571.541	1	8
571.881	1	9
572.221	1	14
572.561	1	13
572.900	1	4
573.240	1	3
573.580	1	10
573.920	1	20
574.260	1	16
574.599	1	19
574.939	1	13
575.279	1	1
575.619	1	18
575.959	1	15
576.298	1	13
576.638	1	4
576.978	1	2
577.318	1	21
577.657	1	18
577.997	1	19
578.337	1	10
578.677	1	16
579.016	1	11
579.356	1	22
579.696	1	0
580.036	1	16
580.375	1	12
580.715	1	21
581.055	1	6
581.394	1	7
581.734	1	7
582.074	1	5
582.414	1	6
582.753	1	11
583.093	1	5
583.433	1	11
583.772	1	11
584.112	1	13
584.452	1	21
584.791	1	7
585.131	1	12
585.471	1	5
585.811	1	8
586.150	1	12
586.490	1	11
586.830	1	-6
587.169	1	12
587.509	1	2
587.849	1	8
588.188	1	16
588.528	1	20
588.867	1	0
589.207	1	10
589.547	1	8
589.886	1	15
590.226	1	14
590.566	1	2
590.905	1	11
591.245	1	1
591.585	1	17
591.924	1	5
592.264	1	7
592.603	1	1
592.943	1	14
593.283	1	4
593.622	1	16
593.962	1	18
594.301	1	-4
594.641	1	2
594.981	1	-5
595.320	1	4
595.660	1	5
595.999	1	2
596.339	1	12
596.678	1	-1
597.018	1	5
597.358	1	-1
597.697	1	3
598.037	1	8
598.376	1	-3
598.716	1	6
599.055	1	1
599.395	1	1
599.734	1	2
600.074	1	5
600.413	1	17
600.753	1	4
601.092	1	5
601.432	1	-1
601.771	1	11
602.111	1	2
602.451	1	10
602.790	1	1
603.130	1	11
603.469	1	2
603.809	1	7
604.148	1	15
604.487	1	18
604.827	1	-1
605.166	1	18
605.506	1	6
605.845	1	8
606.185	1	9
606.524	1	11
606.864	1	16
607.203	1	12
607.543	1	0
607.882	1	14
608.222	1	-4
608.561	1	-3
608.901	1	5
609.240	1	-7
609.579	1	13
609.919	1	18
610.258	1	7
610.598	1	4
610.937	1	9
611.277	1	11
611.616	1	0
611.955	1	-1
612.295	1	9
612.634	1	4
612.974	1	10
613.313	1	4
613.652	1	11
613.992	1	5
614.331	1	8
614.671	1	4
615.010	1	-4
615.349	1	3
615.689	1	17
616.028	1	8
616.368	1	7
616.707	1	15
617.046	1	8
617.386	1	2
617.725	1	1
618.064	1	7
618.404	1	2
618.743	1	7
619.082	1	-1
619.422	1	10
619.761	1	4
620.100	1	-1
620.440	1	5
620.779	1	6
621.118	1	9
621.458	1	11
621.797	1	4
622.136	1	0
622.476	1	12
622.815	1	4
623.154	1	6
623.494	1	12
623.833	1	12
624.172	1	2
624.511	1	11
624.851	1	-2
625.190	1	2
625.529	1	0
625.869	1	-5
626.208	1	-2
626.547	1	5
626.886	1	1
627.226	1	0
627.565	1	8
627.904	1	5
628.243	1	16
628.583	1	-3
628.922	1	7
629.261	1	-9
629.600	1	3
629.940	1	11
630.279	1	15
630.618	1	-4
630.957	1	12
631.297	1	-8
631.636	1	13
631.975	1	4
632.314	1	13
632.653	1	1
632.993	1	1
633.332	1	4
633.671	1	-4
634.010	1	-4
634.349	1	0
634.689	1	13
635.028	1	1
635.367	1	6
635.706	1	2
636.045	1	22
636.384	1	3
636.724	1	10
637.063	1	8
637.402	1	3
637.741	1	19
638.080	1	11
638.419	1	1
638.759	1	4
639.098	1	2
639.437	1	5
639.776	1	10
640.115	1	3
640.454	1	5
640.793	1	-11
641.132	1	7
641.472	1	4
641.811	1	-5
642.150	1	-10
642.489	1	0
642.828	1	-5
643.167	1	11
643.506	1	19
643.845	1	-1
644.184	1	0
644.524	1	-2
644.863	1	3
645.202	1	15
645.541	1	0
645.880	1	9
646.219	1	10
646.558	1	7
646.897	1	-2
647.236	1	3
647.575	1	0
647.914	1	-6
648.253	1	10
648.592	1	-4
648.931	1	-8
649.270	1	5
649.610	1	3
649.949	1	9
650.288	1	11
650.627	1	-3
650.966	1	16
651.305	1	9
651.644	1	8
651.983	1	-14
652.322	1	-4
652.661	1	1
653.000	1	1
653.339	1	12
653.678	1	-7
654.017	1	-1
654.356	1	5
654.695	1	8
655.034	1	2
655.373	1	1
655.712	1	6
656.051	1	-1
656.390	1	-8
656.729	1	4
657.068	1	-6
657.406	1	4
657.745	1	8
658.084	1	11
658.423	1	4
658.762	1	9
659.101	1	1
659.440	1	-9
659.779	1	2
660.118	1	8
660.457	1	-9
660.796	1	10
661.135	1	12
661.474	1	12
661.813	1	-1
662.152	1	2
662.491	1	16
662.829	1	14
663.168	1	0
663.507	1	3
663.846	1	6
664.185	1	-7
664.524	1	2
664.863	1	7
665.202	1	1
665.541	1	-6
665.879	1	3
666.218	1	-1
666.557	1	0
666.896	1	1
667.235	1	8
667.574	1	20
667.913	1	10
668.251	1	3
668.590	1	8
668.929	1	11
669.268	1	8
669.607	1	3
669.946	1	10
670.285	1	3
670.623	1	13
670.962	1	6
671.301	1	3
671.640	1	-10
671.979	1	4
672.317	1	-2
672.656	1	3
672.995	1	6
673.334	1	-6
673.673	1	4
674.011	1	11
674.350	1	6
674.689	1	8
675.028	1	13
675.367	1	3
675.705	1	6
676.044	1	10
676.383	1	11
676.722	1	5
677.060	1	10
677.399	1	-1
677.738	1	3
678.077	1	11
678.416	1	12
678.754	1	5
679.093	1	5
679.432	1	9
679.771	1	9
680.109	1	8
680.448	1	6
680.787	1	6
681.125	1	11
681.464	1	4
681.803	1	2
682.142	1	-7
682.480	1	17
682.819	1	2
683.158	1	7
683.496	1	0
683.835	1	-6
684.174	1	10
684.512	1	13
684.851	1	1
685.190	1	5
685.529	1	8
685.867	1	2
686.206	1	13
686.545	1	2
686.883	1	3
687.222	1	-7
687.561	1	15
687.899	1	3
688.238	1	10
688.577	1	-1
688.746	1	18