File: Data/GaN_130K_350ms/GaN_sample F_spot6_UVVIS_130 K_200um_350 ms 2x2mm1_129.txt
340.368	1	5
340.710	1	3
341.052	1	-10
341.394	1	4
341.737	1	0
342.079	1	11
342.421	1	13
342.763	1	11
343.105	1	7
343.447	1	11
343.789	1	5
344.131	1	8
344.473	1	3
344.815	1	-4
345.157	1	-9
345.499	1	9
345.841	1	4
346.183	1	2
346.526	1	-6
346.868	1	4
347.210	1	1
347.552	1	-4
347.894	1	8
348.236	1	3
348.578	1	0
348.920	1	1
349.262	1	8
349.604	1	18
349.946	1	8
350.288	1	2
350.630	1	7
350.972	1	8
351.314	1	-2
351.656	1	11
351.998	1	10
352.340	1	9
352.682	1	4
353.024	1	-3
353.366	1	9
353.708	1	0
354.050	1	12
354.392	1	15
354.734	1	6
355.076	1	6
355.418	1	16
355.760	1	3
356.102	1	6
356.444	1	-3
356.785	1	13
357.127	1	11
357.469	1	6
357.811	1	17
358.153	1	-1
358.495	1	13
358.837	1	12
359.179	1	15
359.521	1	13
359.863	1	11
360.205	1	7
360.547	1	7
360.889	1	6
361.231	1	14
361.572	1	28
361.914	1	19
362.256	1	18
362.598	1	20
362.940	1	11
363.282	1	25
363.624	1	25
363.966	1	49
364.308	1	45
364.649	1	53
364.991	1	36
365.333	1	33
365.675	1	40
366.017	1	51
366.359	1	56
366.701	1	48
367.042	1	47
367.384	1	63
367.726	1	59
368.068	1	48
368.410	1	52
368.752	1	60
369.093	1	43
369.435	1	52
369.777	1	50
370.119	1	52
370.461	1	43
370.803	1	44
371.144	1	35
371.486	1	54
371.828	1	37
372.170	1	35
372.512	1	35
372.853	1	27
373.195	1	45
373.537	1	28
373.879	1	39
374.220	1	23
374.562	1	28
374.904	1	36
375.246	1	37
375.588	1	26
375.929	1	16
376.271	1	21
376.613	1	26
376.955	1	22
377.296	1	18
377.638	1	13
377.980	1	9
378.321	1	13
378.663	1	24
379.005	1	32
379.347	1	18
379.688	1	5
380.030	1	24
380.372	1	19
380.714	1	25
381.055	1	17
381.397	1	13
381.739	1	15
382.080	1	8
382.422	1	25
382.764	1	16
383.105	1	17
383.447	1	21
383.789	1	15
384.130	1	16
384.472	1	20
384.814	1	15
385.156	1	15
385.497	1	11
385.839	1	14
386.180	1	19
386.522	1	16
386.864	1	25
387.205	1	13
387.547	1	15
387.889	1	4
388.230	1	15
388.572	1	23
388.914	1	28
389.255	1	9
389.597	1	10
389.939	1	11
390.280	1	24
390.622	1	22
390.963	1	9
391.305	1	11
391.647	1	14
391.988	1	15
392.330	1	13
392.671	1	9
393.013	1	11
393.355	1	8
393.696	1	9
394.038	1	12
394.379	1	19
394.721	1	19
395.062	1	7
395.404	1	-2
395.746	1	26
396.087	1	19
396.429	1	17
396.770	1	16
397.112	1	19
397.453	1	15
397.795	1	2
398.136	1	9
398.478	1	12
398.819	1	-6
399.161	1	23
399.503	1	9
399.844	1	7
400.186	1	3
400.527	1	13
400.869	1	11
401.210	1	6
401.552	1	16
401.893	1	-8
402.235	1	6
402.576	1	3
402.918	1	14
403.259	1	-3
403.601	1	6
403.942	1	7
404.284	1	0
404.625	1	24
404.967	1	6
405.308	1	14
405.649	1	19
405.991	1	13
406.332	1	14
406.674	1	18
407.015	1	-2
407.357	1	15
407.698	1	3
408.040	1	12
408.381	1	26
408.722	1	10
409.064	1	12
409.405	1	9
409.747	1	5
410.088	1	7
410.430	1	19
410.771	1	1
411.112	1	15
411.454	1	18
411.795	1	9
412.137	1	2
412.478	1	12
412.819	1	16
413.161	1	16
413.502	1	9
413.844	1	11
414.185	1	13
414.526	1	10
414.868	1	7
415.209	1	-3
415.550	1	14
415.892	1	16
416.233	1	4
416.575	1	8
416.916	1	1
417.257	1	16
417.599	1	9
417.940	1	12
418.281	1	11
418.623	1	10
418.964	1	3
419.305	1	0
419.647	1	17
419.988	1	20
420.329	1	12
420.671	1	-2
421.012	1	5
421.353	1	-2
421.695	1	11
422.036	1	8
422.377	1	14
422.718	1	6
423.060	1	5
423.401	1	9
423.742	1	4
424.084	1	13
424.425	1	8
424.766	1	13
425.107	1	10
425.449	1	11
425.790	1	19
426.131	1	15
426.472	1	13
426.814	1	3
427.155	1	5
427.496	1	8
427.837	1	8
428.179	1	10
428.520	1	6
428.861	1	6
429.202	1	10
429.544	1	18
429.885	1	13
430.226	1	6
430.567	1	0
430.909	1	7
431.250	1	21
431.591	1	5
431.932	1	1
432.273	1	10
432.615	1	10
432.956	1	5
433.297	1	18
433.638	1	1
433.979	1	3
434.320	1	5
434.662	1	11
435.003	1	26
435.344	1	12
435.685	1	-4
436.026	1	5
436.368	1	7
436.709	1	0
437.050	1	15
437.391	1	13
437.732	1	-2
438.073	1	12
438.414	1	7
438.756	1	10
439.097	1	11
439.438	1	10
439.779	1	13
440.120	1	7
440.461	1	17
440.802	1	-1
441.143	1	6
441.485	1	12
441.826	1	0
442.167	1	7
442.508	1	5
442.849	1	11
443.190	1	4
443.531	1	3
443.872	1	7
444.213	1	0
444.554	1	12
444.895	1	2
445.237	1	-4
445.578	1	5
445.919	1	1
446.260	1	7
446.601	1	16
446.942	1	7
447.283	1	6
447.624	1	4
447.965	1	-5
448.306	1	4
448.647	1	18
448.988	1	13
449.329	1	0
449.670	1	-2
450.011	1	-3
450.352	1	3
450.693	1	0
451.034	1	-2
451.375	1	14
451.716	1	-4
452.057	1	19
452.398	1	-2
452.739	1	10
453.080	1	10
453.421	1	3
453.762	1	14
454.103	1	-2
454.444	1	12
454.785	1	11
455.126	1	-1
455.467	1	6
455.808	1	16
456.149	1	-3
456.490	1	2
456.831	1	14
457.172	1	8
457.513	1	-4
457.854	1	3
458.195	1	-1
458.536	1	8
458.877	1	22
459.218	1	6
459.559	1	6
459.899	1	7
460.240	1	19
460.581	1	3
460.922	1	8
461.263	1	11
461.604	1	-3
461.945	1	10
462.286	1	9
462.627	1	8
462.968	1	-1
463.309	1	7
463.649	1	5
463.990	1	5
464.331	1	7
464.672	1	6
465.013	1	-7
465.354	1	9
465.695	1	10
466.036	1	8
466.376	1	12
466.717	1	10
467.058	1	5
467.399	1	3
467.740	1	18
468.081	1	11
468.422	1	10
468.762	1	5
469.103	1	10
469.444	1	6
469.785	1	5
470.126	1	-9
470.467	1	13
470.807	1	9
471.148	1	10
471.489	1	-8
471.830	1	3
472.171	1	7
472.511	1	5
472.852	1	5
473.193	1	3
473.534	1	2
473.875	1	13
474.215	1	-3
474.556	1	8
474.897	1	2
475.238	1	14
475.578	1	7
475.919	1	-3
476.260	1	7
476.601	1	5
476.942	1	4
477.282	1	3
477.623	1	5
477.964	1	-4
478.305	1	9
478.645	1	11
478.986	1	-2
479.327	1	1
479.667	1	6
480.008	1	-2
480.349	1	-4
480.690	1	4
481.030	1	-1
481.371	1	8
481.712	1	5
482.053	1	5
482.393	1	7
482.734	1	1
483.075	1	18
483.415	1	4
483.756	1	6
484.097	1	11
484.437	1	4
484.778	1	20
485.119	1	10
485.459	1	-1
485.800	1	6
486.141	1	15
486.481	1	0
486.822	1	17
487.163	1	0
487.503	1	-3
487.844	1	-2
488.185	1	3
488.525	1	14
488.866	1	5
489.207	1	7
489.547	1	9
489.888	1	16
490.228	1	9
490.569	1	6
490.910	1	-6
491.250	1	2
491.591	1	-6
491.932	1	13
492.272	1	7
492.613	1	2
492.953	1	11
493.294	1	7
493.635	1	6
493.975	1	23
494.316	1	12
494.656	1	4
494.997	1	-1
495.337	1	4
495.678	1	9
496.019	1	8
496.359	1	20
496.700	1	1
497.040	1	15
497.381	1	6
497.721	1	5
498.062	1	2
498.403	1	3
498.743	1	20
499.084	1	22
499.424	1	6
499.765	1	9
500.105	1	21
500.446	1	9
500.786	1	17
501.127	1	16
501.467	1	9
501.808	1	15
502.148	1	5
502.489	1	18
502.829	1	13
503.170	1	3
503.510	1	24
503.851	1	12
504.191	1	10
504.532	1	21
504.872	1	10
505.213	1	15
505.553	1	9
505.894	1	29
506.234	1	11
506.575	1	8
506.915	1	12
507.256	1	14
507.596	1	-1
507.936	1	11
508.277	1	15
508.617	1	12
508.958	1	22
509.298	1	14
509.639	1	20
509.979	1	5
510.319	1	22
510.660	1	12
511.000	1	14
511.341	1	11
511.681	1	23
512.022	1	20
512.362	1	28
512.702	1	22
513.043	1	17
513.383	1	17
513.724	1	9
514.064	1	17
514.404	1	26
514.745	1	7
515.085	1	24
515.425	1	13
515.766	1	23
516.106	1	14
516.447	1	16
516.787	1	22
517.127	1	19
517.468	1	21
517.808	1	24
518.148	1	15
518.489	1	12
518.829	1	38
519.169	1	16
519.510	1	11
519.850	1	26
520.190	1	31
520.531	1	25
520.871	1	14
521.211	1	21
521.552	1	17
521.892	1	22
522.232	1	12
522.573	1	11
522.913	1	24
523.253	1	25
523.593	1	27
523.934	1	18
524.274	1	15
524.614	1	18
524.955	1	21
525.295	1	30
525.635	1	12
525.975	1	28
526.316	1	16
526.656	1	26
526.996	1	17
527.337	1	25
527.677	1	10
528.017	1	14
528.357	1	29
528.698	1	13
529.038	1	14
529.378	1	12
529.718	1	31
530.058	1	13
530.399	1	21
530.739	1	20
531.079	1	17
531.419	1	19
531.760	1	19
532.100	1	22
532.440	1	27
532.780	1	15
533.120	1	22
533.461	1	15
533.801	1	26
534.141	1	17
534.481	1	27
534.821	1	25
535.162	1	21
535.502	1	24
535.842	1	25
536.182	1	25
536.522	1	14
536.862	1	19
537.203	1	13
537.543	1	19
537.883	1	6
538.223	1	26
538.563	1	32
538.903	1	27
539.243	1	21
539.584	1	28
539.924	1	16
540.264	1	15
540.604	1	29
540.944	1	30
541.284	1	20
541.624	1	24
541.964	1	11
542.305	1	23
542.645	1	14
542.985	1	23
543.325	1	19
543.665	1	21
544.005	1	23
544.345	1	14
544.685	1	20
545.025	1	10
545.365	1	27
545.705	1	16
546.045	1	21
546.386	1	13
546.726	1	7
547.066	1	20
547.406	1	12
547.746	1	17
548.086	1	18
548.426	1	15
548.766	1	15
549.106	1	12
549.446	1	18
549.786	1	16
550.126	1	23
550.466	1	14
550.806	1	19
551.146	1	18
551.486	1	21
551.826	1	17
552.166	1	26
552.506	1	21
552.846	1	7
553.186	1	14
553.526	1	14
553.866	1	1
554.206	1	8
554.546	1	13
554.886	1	12
555.226	1	19
555.566	1	10
555.906	1	9
556.246	1	21
556.586	1	13
556.926	1	18
557.266	1	17
557.606	1	16
557.946	1	19
558.286	1	16
558.626	1	0
558.966	1	14
559.306	1	4
559.646	1	15
559.986	1	8
560.325	1	2
560.665	1	14
561.005	1	4
561.345	1	26
561.685	1	8
562.025	1	4
562.365	1	11
562.705	1	11
563.045	1	13
563.385	1	6
563.725	1	8
564.064	1	21
564.404	1	12
564.744	1	9
565.084	1	15
565.424	1	6
565.764	1	12
566.104	1	14
566.444	1	20
566.783	1	25
567.123	1	12
567.463	1	9
567.803	1	11
568.143	1	21
568.483	1	11
568.823	1	-3
569.162	1	20
569.502	1	6
569.842	1	0
570.182	1	9
570.522	1	-9
570.862	1	20
571.201	1	17
571.541	1	4
571.881	1	13
572.221	1	18
572.561	1	9
572.900	1	5
573.240	1	2
573.580	1	9
573.920	1	30
574.260	1	9
574.599	1	12
574.939	1	12
575.279	1	0
575.619	1	13
575.959	1	11
576.298	1	-1
576.638	1	6
576.978	1	5
577.318	1	10
577.657	1	19
577.997	1	9
578.337	1	17
578.677	1	9
579.016	1	7
579.356	1	11
579.696	1	1
580.036	1	10
580.375	1	5
580.715	1	13
581.055	1	11
581.394	1	4
581.734	1	10
582.074	1	3
582.414	1	0
582.753	1	7
583.093	1	10
583.433	1	9
583.772	1	8
584.112	1	17
584.452	1	10
584.791	1	10
585.131	1	11
585.471	1	4
585.811	1	7
586.150	1	11
586.490	1	1
586.830	1	4
587.169	1	-1
587.509	1	1
587.849	1	3
588.188	1	4
588.528	1	13
588.867	1	10
589.207	1	0
589.547	1	3
589.886	1	5
590.226	1	11
590.566	1	3
590.905	1	7
591.245	1	-4
591.585	1	1
591.924	1	2
592.264	1	6
592.603	1	-1
592.943	1	5
593.283	1	-1
593.622	1	14
593.962	1	13
594.301	1	-7
594.641	1	4
594.981	1	2
595.320	1	13
595.660	1	5
595.999	1	18
596.339	1	20
596.678	1	-6
597.018	1	5
597.358	1	1
597.697	1	3
598.037	1	5
598.376	1	3
598.716	1	10
599.055	1	7
599.395	1	-6
599.734	1	7
600.074	1	5
600.413	1	6
600.753	1	9
601.092	1	2
601.432	1	-3
601.771	1	7
602.111	1	1
602.451	1	0
602.790	1	13
603.130	1	12
603.469	1	2
603.809	1	9
604.148	1	4
604.487	1	12
604.827	1	6
605.166	1	20
605.506	1	2
605.845	1	12
606.185	1	14
606.524	1	12
606.864	1	16
607.203	1	-2
607.543	1	6
607.882	1	8
608.222	1	-2
608.561	1	3
608.901	1	10
609.240	1	-1
609.579	1	16
609.919	1	13
610.258	1	3
610.598	1	12
610.937	1	2
611.277	1	11
611.616	1	-3
611.955	1	3
612.295	1	15
612.634	1	11
612.974	1	7
613.313	1	-4
613.652	1	-7
613.992	1	3
614.331	1	9
614.671	1	7
615.010	1	8
615.349	1	4
615.689	1	6
616.028	1	14
616.368	1	8
616.707	1	11
617.046	1	17
617.386	1	-10
617.725	1	1
618.064	1	7
618.404	1	6
618.743	1	13
619.082	1	0
619.422	1	5
619.761	1	4
620.100	1	-1
620.440	1	6
620.779	1	5
621.118	1	4
621.458	1	12
621.797	1	6
622.136	1	8
622.476	1	6
622.815	1	0
623.154	1	4
623.494	1	11
623.833	1	11
624.172	1	-1
624.511	1	10
624.851	1	1
625.190	1	-11
625.529	1	1
625.869	1	11
626.208	1	0
626.547	1	7
626.886	1	10
627.226	1	2
627.565	1	7
627.904	1	5
628.243	1	8
628.583	1	0
628.922	1	8
629.261	1	-8
629.600	1	1
629.940	1	6
630.279	1	1
630.618	1	4
630.957	1	11
631.297	1	0
631.636	1	11
631.975	1	11
632.314	1	3
632.653	1	0
632.993	1	7
633.332	1	7
633.671	1	-8
634.010	1	3
634.349	1	1
634.689	1	18
635.028	1	8
635.367	1	6
635.706	1	4
636.045	1	13
636.384	1	1
636.724	1	14
637.063	1	9
637.402	1	-4
637.741	1	8
638.080	1	16
638.419	1	7
638.759	1	7
639.098	1	0
639.437	1	7
639.776	1	-2
640.115	1	8
640.454	1	9
640.793	1	-1
641.132	1	18
641.472	1	8
641.811	1	0
642.150	1	-6
642.489	1	-1
642.828	1	3
643.167	1	8
643.506	1	9
643.845	1	-3
644.184	1	-6
644.524	1	-1
644.863	1	1
645.202	1	5
645.541	1	-1
645.880	1	6
646.219	1	3
646.558	1	2
646.897	1	1
647.236	1	-5
647.575	1	3
647.914	1	-1
648.253	1	9
648.592	1	5
648.931	1	-3
649.270	1	1
649.610	1	5
649.949	1	3
650.288	1	9
650.627	1	2
650.966	1	12
651.305	1	6
651.644	1	6
651.983	1	-11
652.322	1	2
652.661	1	-3
653.000	1	-4
653.339	1	5
653.678	1	0
654.017	1	-4
654.356	1	4
654.695	1	-4
655.034	1	6
655.373	1	6
655.712	1	2
656.051	1	-4
656.390	1	3
656.729	1	10
657.068	1	3
657.406	1	3
657.745	1	7
658.084	1	1
658.423	1	1
658.762	1	12
659.101	1	7
659.440	1	5
659.779	1	8
660.118	1	-9
660.457	1	1
660.796	1	6
661.135	1	14
661.474	1	9
661.813	1	2
662.152	1	2
662.491	1	20
662.829	1	13
663.168	1	0
663.507	1	8
663.846	1	5
664.185	1	3
664.524	1	-1
664.863	1	2
665.202	1	4
665.541	1	5
665.879	1	4
666.218	1	13
666.557	1	10
666.896	1	14
667.235	1	5
667.574	1	21
667.913	1	12
668.251	1	6
668.590	1	8
668.929	1	6
669.268	1	-2
669.607	1	2
669.946	1	11
670.285	1	13
670.623	1	3
670.962	1	-2
671.301	1	12
671.640	1	-2
671.979	1	17
672.317	1	3
672.656	1	-10
672.995	1	3
673.334	1	5
673.673	1	9
674.011	1	7
674.350	1	1
674.689	1	13
675.028	1	18
675.367	1	0
675.705	1	13
676.044	1	6
676.383	1	0
676.722	1	8
677.060	1	14
677.399	1	11
677.738	1	-5
678.077	1	14
678.416	1	8
678.754	1	0
679.093	1	4
679.432	1	4
679.771	1	15
680.109	1	7
680.448	1	10
680.787	1	2
681.125	1	3
681.464	1	11
681.803	1	0
682.142	1	5
682.480	1	15
682.819	1	9
683.158	1	1
683.496	1	4
683.835	1	-3
684.174	1	7
684.512	1	12
684.851	1	4
685.190	1	6
685.529	1	-2
685.867	1	-2
686.206	1	10
686.545	1	2
686.883	1	2
687.222	1	12
687.561	1	16
687.899	1	8
688.238	1	7
688.577	1	10
688.746	1	6