File: Data/GaN_130K_350ms/GaN_sample F_spot6_UVVIS_130 K_200um_350 ms 2x2mm1_299.txt
340.368	1	-2
340.710	1	1
341.052	1	-1
341.394	1	-7
341.737	1	6
342.079	1	7
342.421	1	9
342.763	1	4
343.105	1	8
343.447	1	7
343.789	1	13
344.131	1	3
344.473	1	0
344.815	1	-3
345.157	1	-13
345.499	1	7
345.841	1	-4
346.183	1	8
346.526	1	1
346.868	1	2
347.210	1	-1
347.552	1	6
347.894	1	0
348.236	1	-1
348.578	1	-1
348.920	1	-3
349.262	1	2
349.604	1	-7
349.946	1	3
350.288	1	-8
350.630	1	10
350.972	1	8
351.314	1	-5
351.656	1	11
351.998	1	0
352.340	1	17
352.682	1	2
353.024	1	-14
353.366	1	8
353.708	1	1
354.050	1	5
354.392	1	11
354.734	1	0
355.076	1	1
355.418	1	7
355.760	1	1
356.102	1	-3
356.444	1	-7
356.785	1	7
357.127	1	9
357.469	1	-1
357.811	1	1
358.153	1	-3
358.495	1	-1
358.837	1	3
359.179	1	-1
359.521	1	-4
359.863	1	-2
360.205	1	6
360.547	1	0
360.889	1	-2
361.231	1	1
361.572	1	13
361.914	1	-2
362.256	1	-4
362.598	1	3
362.940	1	-12
363.282	1	12
363.624	1	10
363.966	1	10
364.308	1	14
364.649	1	11
364.991	1	3
365.333	1	-7
365.675	1	5
366.017	1	10
366.359	1	19
366.701	1	9
367.042	1	10
367.384	1	13
367.726	1	3
368.068	1	8
368.410	1	6
368.752	1	15
369.093	1	-2
369.435	1	4
369.777	1	9
370.119	1	1
370.461	1	6
370.803	1	9
371.144	1	7
371.486	1	12
371.828	1	5
372.170	1	7
372.512	1	3
372.853	1	3
373.195	1	-2
373.537	1	10
373.879	1	2
374.220	1	4
374.562	1	1
374.904	1	2
375.246	1	17
375.588	1	1
375.929	1	-10
376.271	1	9
376.613	1	-4
376.955	1	2
377.296	1	2
377.638	1	-12
377.980	1	2
378.321	1	5
378.663	1	-1
379.005	1	14
379.347	1	-8
379.688	1	2
380.030	1	-1
380.372	1	6
380.714	1	12
381.055	1	9
381.397	1	8
381.739	1	4
382.080	1	-6
382.422	1	14
382.764	1	5
383.105	1	1
383.447	1	5
383.789	1	2
384.130	1	11
384.472	1	11
384.814	1	10
385.156	1	5
385.497	1	1
385.839	1	3
386.180	1	7
386.522	1	2
386.864	1	4
387.205	1	0
387.547	1	6
387.889	1	-12
388.230	1	-8
388.572	1	5
388.914	1	1
389.255	1	-2
389.597	1	-18
389.939	1	3
390.280	1	15
390.622	1	-4
390.963	1	2
391.305	1	7
391.647	1	8
391.988	1	11
392.330	1	-1
392.671	1	-11
393.013	1	4
393.355	1	4
393.696	1	-5
394.038	1	5
394.379	1	1
394.721	1	6
395.062	1	5
395.404	1	-9
395.746	1	18
396.087	1	14
396.429	1	1
396.770	1	10
397.112	1	-1
397.453	1	9
397.795	1	-9
398.136	1	6
398.478	1	7
398.819	1	-8
399.161	1	3
399.503	1	4
399.844	1	1
400.186	1	1
400.527	1	5
400.869	1	3
401.210	1	-1
401.552	1	1
401.893	1	-7
402.235	1	4
402.576	1	11
402.918	1	13
403.259	1	-5
403.601	1	2
403.942	1	9
404.284	1	10
404.625	1	17
404.967	1	7
405.308	1	5
405.649	1	9
405.991	1	-2
406.332	1	-8
406.674	1	12
407.015	1	13
407.357	1	2
407.698	1	-1
408.040	1	2
408.381	1	15
408.722	1	6
409.064	1	1
409.405	1	7
409.747	1	3
410.088	1	13
410.430	1	6
410.771	1	-6
411.112	1	-2
411.454	1	9
411.795	1	1
412.137	1	-9
412.478	1	4
412.819	1	-3
413.161	1	7
413.502	1	10
413.844	1	7
414.185	1	9
414.526	1	9
414.868	1	-2
415.209	1	-6
415.550	1	-1
415.892	1	6
416.233	1	8
416.575	1	11
416.916	1	-1
417.257	1	10
417.599	1	-2
417.940	1	12
418.281	1	-3
418.623	1	6
418.964	1	-7
419.305	1	6
419.647	1	12
419.988	1	10
420.329	1	10
420.671	1	-2
421.012	1	-5
421.353	1	-8
421.695	1	-2
422.036	1	8
422.377	1	7
422.718	1	2
423.060	1	3
423.401	1	5
423.742	1	6
424.084	1	6
424.425	1	6
424.766	1	-3
425.107	1	4
425.449	1	9
425.790	1	11
426.131	1	9
426.472	1	0
426.814	1	0
427.155	1	-1
427.496	1	5
427.837	1	7
428.179	1	12
428.520	1	0
428.861	1	1
429.202	1	3
429.544	1	6
429.885	1	4
430.226	1	0
430.567	1	0
430.909	1	12
431.250	1	14
431.591	1	-11
431.932	1	0
432.273	1	10
432.615	1	12
432.956	1	-3
433.297	1	4
433.638	1	0
433.979	1	0
434.320	1	12
434.662	1	-6
435.003	1	17
435.344	1	-1
435.685	1	4
436.026	1	5
436.368	1	4
436.709	1	-5
437.050	1	7
437.391	1	16
437.732	1	13
438.073	1	11
438.414	1	-4
438.756	1	2
439.097	1	1
439.438	1	8
439.779	1	11
440.120	1	4
440.461	1	6
440.802	1	-12
441.143	1	-5
441.485	1	11
441.826	1	-1
442.167	1	6
442.508	1	0
442.849	1	8
443.190	1	0
443.531	1	0
443.872	1	2
444.213	1	0
444.554	1	3
444.895	1	5
445.237	1	-8
445.578	1	3
445.919	1	-7
446.260	1	4
446.601	1	11
446.942	1	-4
447.283	1	9
447.624	1	5
447.965	1	0
448.306	1	3
448.647	1	20
448.988	1	8
449.329	1	-3
449.670	1	-1
450.011	1	8
450.352	1	5
450.693	1	-5
451.034	1	-2
451.375	1	6
451.716	1	-4
452.057	1	11
452.398	1	-9
452.739	1	0
453.080	1	-1
453.421	1	8
453.762	1	4
454.103	1	1
454.444	1	3
454.785	1	11
455.126	1	-4
455.467	1	5
455.808	1	9
456.149	1	1
456.490	1	-3
456.831	1	4
457.172	1	6
457.513	1	-10
457.854	1	-5
458.195	1	-7
458.536	1	-1
458.877	1	19
459.218	1	-1
459.559	1	-2
459.899	1	4
460.240	1	13
460.581	1	-4
460.922	1	8
461.263	1	3
461.604	1	-10
461.945	1	13
462.286	1	4
462.627	1	-3
462.968	1	1
463.309	1	0
463.649	1	-6
463.990	1	2
464.331	1	6
464.672	1	9
465.013	1	-5
465.354	1	1
465.695	1	14
466.036	1	7
466.376	1	5
466.717	1	9
467.058	1	2
467.399	1	-4
467.740	1	17
468.081	1	12
468.422	1	-1
468.762	1	-14
469.103	1	2
469.444	1	0
469.785	1	8
470.126	1	-10
470.467	1	2
470.807	1	5
471.148	1	7
471.489	1	-8
471.830	1	8
472.171	1	4
472.511	1	-3
472.852	1	9
473.193	1	5
473.534	1	6
473.875	1	9
474.215	1	4
474.556	1	1
474.897	1	-1
475.238	1	10
475.578	1	9
475.919	1	-3
476.260	1	3
476.601	1	-1
476.942	1	4
477.282	1	7
477.623	1	-2
477.964	1	-4
478.305	1	14
478.645	1	-1
478.986	1	-4
479.327	1	0
479.667	1	3
480.008	1	-4
480.349	1	-2
480.690	1	-3
481.030	1	5
481.371	1	9
481.712	1	2
482.053	1	-10
482.393	1	8
482.734	1	-4
483.075	1	14
483.415	1	-1
483.756	1	-5
484.097	1	-4
484.437	1	3
484.778	1	13
485.119	1	11
485.459	1	-5
485.800	1	3
486.141	1	1
486.481	1	-2
486.822	1	6
487.163	1	0
487.503	1	-11
487.844	1	5
488.185	1	2
488.525	1	9
488.866	1	-2
489.207	1	-2
489.547	1	-2
489.888	1	10
490.228	1	7
490.569	1	-3
490.910	1	-11
491.250	1	5
491.591	1	0
491.932	1	3
492.272	1	-4
492.613	1	-8
492.953	1	1
493.294	1	3
493.635	1	6
493.975	1	9
494.316	1	4
494.656	1	0
494.997	1	-2
495.337	1	2
495.678	1	4
496.019	1	-6
496.359	1	4
496.700	1	-2
497.040	1	11
497.381	1	3
497.721	1	-2
498.062	1	1
498.403	1	1
498.743	1	-3
499.084	1	7
499.424	1	-2
499.765	1	-1
500.105	1	3
500.446	1	5
500.786	1	5
501.127	1	-4
501.467	1	3
501.808	1	-2
502.148	1	-3
502.489	1	6
502.829	1	2
503.170	1	0
503.510	1	6
503.851	1	0
504.191	1	7
504.532	1	6
504.872	1	2
505.213	1	8
505.553	1	-3
505.894	1	6
506.234	1	-1
506.575	1	10
506.915	1	1
507.256	1	2
507.596	1	-7
507.936	1	-9
508.277	1	1
508.617	1	-5
508.958	1	4
509.298	1	2
509.639	1	4
509.979	1	-3
510.319	1	13
510.660	1	-6
511.000	1	-2
511.341	1	-4
511.681	1	6
512.022	1	4
512.362	1	0
512.702	1	3
513.043	1	6
513.383	1	7
513.724	1	-4
514.064	1	4
514.404	1	11
514.745	1	-6
515.085	1	9
515.425	1	3
515.766	1	12
516.106	1	-1
516.447	1	-7
516.787	1	6
517.127	1	6
517.468	1	-3
517.808	1	-3
518.148	1	4
518.489	1	0
518.829	1	8
519.169	1	-2
519.510	1	-4
519.850	1	19
520.190	1	6
520.531	1	8
520.871	1	-1
521.211	1	7
521.552	1	1
521.892	1	8
522.232	1	-3
522.573	1	2
522.913	1	6
523.253	1	12
523.593	1	9
523.934	1	2
524.274	1	-7
524.614	1	12
524.955	1	3
525.295	1	7
525.635	1	-1
525.975	1	10
526.316	1	-3
526.656	1	1
526.996	1	5
527.337	1	8
527.677	1	2
528.017	1	-1
528.357	1	1
528.698	1	0
529.038	1	-3
529.378	1	9
529.718	1	11
530.058	1	2
530.399	1	-2
530.739	1	7
531.079	1	8
531.419	1	2
531.760	1	1
532.100	1	5
532.440	1	11
532.780	1	8
533.120	1	8
533.461	1	8
533.801	1	14
534.141	1	8
534.481	1	1
534.821	1	15
535.162	1	6
535.502	1	3
535.842	1	7
536.182	1	9
536.522	1	-2
536.862	1	5
537.203	1	2
537.543	1	6
537.883	1	-5
538.223	1	2
538.563	1	8
538.903	1	11
539.243	1	1
539.584	1	5
539.924	1	1
540.264	1	-3
540.604	1	15
540.944	1	5
541.284	1	8
541.624	1	6
541.964	1	3
542.305	1	-4
542.645	1	3
542.985	1	3
543.325	1	-2
543.665	1	10
544.005	1	10
544.345	1	1
544.685	1	12
545.025	1	-2
545.365	1	15
545.705	1	4
546.045	1	16
546.386	1	-1
546.726	1	-9
547.066	1	-2
547.406	1	-13
547.746	1	0
548.086	1	-12
548.426	1	3
548.766	1	0
549.106	1	-3
549.446	1	4
549.786	1	10
550.126	1	12
550.466	1	15
550.806	1	2
551.146	1	0
551.486	1	-4
551.826	1	6
552.166	1	6
552.506	1	-2
552.846	1	-3
553.186	1	6
553.526	1	4
553.866	1	-11
554.206	1	2
554.546	1	10
554.886	1	0
555.226	1	2
555.566	1	1
555.906	1	-2
556.246	1	1
556.586	1	0
556.926	1	3
557.266	1	8
557.606	1	0
557.946	1	4
558.286	1	14
558.626	1	-12
558.966	1	2
559.306	1	7
559.646	1	5
559.986	1	0
560.325	1	-12
560.665	1	1
561.005	1	-1
561.345	1	8
561.685	1	3
562.025	1	2
562.365	1	6
562.705	1	5
563.045	1	-4
563.385	1	2
563.725	1	-1
564.064	1	11
564.404	1	7
564.744	1	6
565.084	1	7
565.424	1	-6
565.764	1	-1
566.104	1	-2
566.444	1	8
566.783	1	12
567.123	1	1
567.463	1	2
567.803	1	6
568.143	1	16
568.483	1	8
568.823	1	-5
569.162	1	8
569.502	1	0
569.842	1	-5
570.182	1	0
570.522	1	-9
570.862	1	10
571.201	1	2
571.541	1	-2
571.881	1	-2
572.221	1	11
572.561	1	2
572.900	1	1
573.240	1	1
573.580	1	-3
573.920	1	5
574.260	1	3
574.599	1	1
574.939	1	1
575.279	1	1
575.619	1	-3
575.959	1	10
576.298	1	0
576.638	1	-6
576.978	1	-6
577.318	1	-2
577.657	1	14
577.997	1	12
578.337	1	4
578.677	1	6
579.016	1	4
579.356	1	2
579.696	1	-1
580.036	1	-1
580.375	1	-6
580.715	1	8
581.055	1	12
581.394	1	-2
581.734	1	5
582.074	1	-2
582.414	1	-7
582.753	1	0
583.093	1	5
583.433	1	2
583.772	1	6
584.112	1	9
584.452	1	6
584.791	1	-1
585.131	1	2
585.471	1	-1
585.811	1	3
586.150	1	6
586.490	1	2
586.830	1	-9
587.169	1	2
587.509	1	9
587.849	1	-2
588.188	1	-2
588.528	1	12
588.867	1	3
589.207	1	-1
589.547	1	-4
589.886	1	3
590.226	1	7
590.566	1	5
590.905	1	3
591.245	1	0
591.585	1	5
591.924	1	2
592.264	1	-2
592.603	1	-8
592.943	1	5
593.283	1	-7
593.622	1	9
593.962	1	13
594.301	1	-5
594.641	1	5
594.981	1	-15
595.320	1	4
595.660	1	-2
595.999	1	3
596.339	1	7
596.678	1	0
597.018	1	2
597.358	1	-8
597.697	1	3
598.037	1	2
598.376	1	-1
598.716	1	3
599.055	1	-1
599.395	1	5
599.734	1	-7
600.074	1	-5
600.413	1	1
600.753	1	-5
601.092	1	2
601.432	1	-8
601.771	1	6
602.111	1	-1
602.451	1	-4
602.790	1	0
603.130	1	6
603.469	1	7
603.809	1	7
604.148	1	13
604.487	1	5
604.827	1	2
605.166	1	11
605.506	1	1
605.845	1	-8
606.185	1	1
606.524	1	4
606.864	1	10
607.203	1	2
607.543	1	-1
607.882	1	15
608.222	1	-14
608.561	1	-8
608.901	1	12
609.240	1	-6
609.579	1	10
609.919	1	3
610.258	1	-4
610.598	1	1
610.937	1	9
611.277	1	5
611.616	1	-2
611.955	1	-6
612.295	1	3
612.634	1	0
612.974	1	4
613.313	1	-1
613.652	1	-4
613.992	1	-6
614.331	1	1
614.671	1	-2
615.010	1	2
615.349	1	5
615.689	1	12
616.028	1	14
616.368	1	5
616.707	1	11
617.046	1	9
617.386	1	-6
617.725	1	2
618.064	1	-1
618.404	1	2
618.743	1	9
619.082	1	-3
619.422	1	2
619.761	1	4
620.100	1	1
620.440	1	5
620.779	1	7
621.118	1	-2
621.458	1	5
621.797	1	2
622.136	1	1
622.476	1	7
622.815	1	-2
623.154	1	-1
623.494	1	5
623.833	1	4
624.172	1	-4
624.511	1	6
624.851	1	-7
625.190	1	-13
625.529	1	9
625.869	1	3
626.208	1	7
626.547	1	0
626.886	1	-9
627.226	1	-1
627.565	1	3
627.904	1	8
628.243	1	14
628.583	1	-6
628.922	1	-18
629.261	1	-4
629.600	1	3
629.940	1	8
630.279	1	12
630.618	1	-6
630.957	1	3
631.297	1	-3
631.636	1	14
631.975	1	5
632.314	1	4
632.653	1	10
632.993	1	-4
633.332	1	7
633.671	1	-1
634.010	1	-4
634.349	1	-6
634.689	1	6
635.028	1	5
635.367	1	-1
635.706	1	-5
636.045	1	13
636.384	1	4
636.724	1	5
637.063	1	8
637.402	1	-14
637.741	1	9
638.080	1	0
638.419	1	3
638.759	1	6
639.098	1	-1
639.437	1	13
639.776	1	-4
640.115	1	5
640.454	1	3
640.793	1	-8
641.132	1	19
641.472	1	-2
641.811	1	3
642.150	1	-11
642.489	1	-3
642.828	1	-2
643.167	1	9
643.506	1	17
643.845	1	-2
644.184	1	-1
644.524	1	-1
644.863	1	-1
645.202	1	6
645.541	1	-1
645.880	1	5
646.219	1	-13
646.558	1	-7
646.897	1	-3
647.236	1	-3
647.575	1	-11
647.914	1	-5
648.253	1	2
648.592	1	-5
648.931	1	-9
649.270	1	-4
649.610	1	-2
649.949	1	-3
650.288	1	8
650.627	1	7
650.966	1	-1
651.305	1	7
651.644	1	-6
651.983	1	-6
652.322	1	4
652.661	1	-12
653.000	1	-1
653.339	1	2
653.678	1	-4
654.017	1	-5
654.356	1	-3
654.695	1	-4
655.034	1	4
655.373	1	-2
655.712	1	-10
656.051	1	5
656.390	1	5
656.729	1	8
657.068	1	-5
657.406	1	1
657.745	1	0
658.084	1	-5
658.423	1	2
658.762	1	22
659.101	1	2
659.440	1	1
659.779	1	-1
660.118	1	-5
660.457	1	-4
660.796	1	0
661.135	1	13
661.474	1	3
661.813	1	0
662.152	1	7
662.491	1	19
662.829	1	5
663.168	1	-7
663.507	1	3
663.846	1	-5
664.185	1	-1
664.524	1	-3
664.863	1	5
665.202	1	5
665.541	1	0
665.879	1	4
666.218	1	3
666.557	1	1
666.896	1	1
667.235	1	7
667.574	1	12
667.913	1	0
668.251	1	3
668.590	1	4
668.929	1	6
669.268	1	3
669.607	1	-2
669.946	1	9
670.285	1	11
670.623	1	8
670.962	1	7
671.301	1	1
671.640	1	-12
671.979	1	2
672.317	1	-5
672.656	1	1
672.995	1	2
673.334	1	-4
673.673	1	5
674.011	1	2
674.350	1	2
674.689	1	6
675.028	1	3
675.367	1	5
675.705	1	15
676.044	1	7
676.383	1	5
676.722	1	-4
677.060	1	4
677.399	1	0
677.738	1	-2
678.077	1	-1
678.416	1	3
678.754	1	4
679.093	1	0
679.432	1	-2
679.771	1	5
680.109	1	1
680.448	1	12
680.787	1	6
681.125	1	3
681.464	1	-7
681.803	1	-8
682.142	1	-9
682.480	1	9
682.819	1	0
683.158	1	3
683.496	1	-7
683.835	1	-5
684.174	1	7
684.512	1	16
684.851	1	-5
685.190	1	-1
685.529	1	-1
685.867	1	-7
686.206	1	-1
686.545	1	2
686.883	1	-6
687.222	1	0
687.561	1	9
687.899	1	-6
688.238	1	8
688.577	1	4
688.746	1	7