File: Data/GaN_130K_350ms/GaN_sample F_spot6_UVVIS_130 K_200um_350 ms 2x2mm1_109.txt
340.368	1	2
340.710	1	5
341.052	1	0
341.394	1	3
341.737	1	-5
342.079	1	-9
342.421	1	4
342.763	1	5
343.105	1	2
343.447	1	8
343.789	1	6
344.131	1	7
344.473	1	3
344.815	1	-5
345.157	1	-7
345.499	1	5
345.841	1	-11
346.183	1	4
346.526	1	1
346.868	1	4
347.210	1	-8
347.552	1	12
347.894	1	3
348.236	1	3
348.578	1	7
348.920	1	11
349.262	1	12
349.604	1	14
349.946	1	10
350.288	1	4
350.630	1	11
350.972	1	11
351.314	1	12
351.656	1	23
351.998	1	6
352.340	1	13
352.682	1	6
353.024	1	12
353.366	1	11
353.708	1	2
354.050	1	12
354.392	1	14
354.734	1	1
355.076	1	7
355.418	1	14
355.760	1	-1
356.102	1	8
356.444	1	4
356.785	1	18
357.127	1	12
357.469	1	13
357.811	1	12
358.153	1	9
358.495	1	21
358.837	1	15
359.179	1	12
359.521	1	8
359.863	1	16
360.205	1	12
360.547	1	24
360.889	1	29
361.231	1	21
361.572	1	38
361.914	1	34
362.256	1	35
362.598	1	35
362.940	1	36
363.282	1	47
363.624	1	42
363.966	1	66
364.308	1	55
364.649	1	59
364.991	1	67
365.333	1	69
365.675	1	70
366.017	1	81
366.359	1	75
366.701	1	87
367.042	1	94
367.384	1	93
367.726	1	97
368.068	1	79
368.410	1	86
368.752	1	101
369.093	1	91
369.435	1	81
369.777	1	79
370.119	1	81
370.461	1	76
370.803	1	68
371.144	1	64
371.486	1	74
371.828	1	63
372.170	1	50
372.512	1	54
372.853	1	53
373.195	1	59
373.537	1	51
373.879	1	45
374.220	1	53
374.562	1	44
374.904	1	41
375.246	1	42
375.588	1	52
375.929	1	37
376.271	1	36
376.613	1	38
376.955	1	36
377.296	1	32
377.638	1	22
377.980	1	26
378.321	1	34
378.663	1	36
379.005	1	33
379.347	1	25
379.688	1	28
380.030	1	27
380.372	1	34
380.714	1	27
381.055	1	21
381.397	1	20
381.739	1	27
382.080	1	12
382.422	1	35
382.764	1	17
383.105	1	31
383.447	1	21
383.789	1	23
384.130	1	30
384.472	1	22
384.814	1	23
385.156	1	29
385.497	1	29
385.839	1	24
386.180	1	30
386.522	1	15
386.864	1	23
387.205	1	17
387.547	1	28
387.889	1	13
388.230	1	15
388.572	1	23
388.914	1	17
389.255	1	24
389.597	1	1
389.939	1	24
390.280	1	17
390.622	1	21
390.963	1	14
391.305	1	24
391.647	1	17
391.988	1	18
392.330	1	4
392.671	1	12
393.013	1	23
393.355	1	10
393.696	1	6
394.038	1	29
394.379	1	25
394.721	1	16
395.062	1	7
395.404	1	5
395.746	1	17
396.087	1	27
396.429	1	16
396.770	1	21
397.112	1	16
397.453	1	18
397.795	1	11
398.136	1	6
398.478	1	13
398.819	1	3
399.161	1	24
399.503	1	26
399.844	1	7
400.186	1	3
400.527	1	17
400.869	1	17
401.210	1	3
401.552	1	17
401.893	1	0
402.235	1	15
402.576	1	19
402.918	1	19
403.259	1	12
403.601	1	16
403.942	1	10
404.284	1	3
404.625	1	18
404.967	1	5
405.308	1	4
405.649	1	18
405.991	1	11
406.332	1	17
406.674	1	17
407.015	1	13
407.357	1	15
407.698	1	10
408.040	1	12
408.381	1	19
408.722	1	10
409.064	1	17
409.405	1	-5
409.747	1	2
410.088	1	19
410.430	1	18
410.771	1	-9
411.112	1	17
411.454	1	17
411.795	1	4
412.137	1	7
412.478	1	8
412.819	1	10
413.161	1	12
413.502	1	22
413.844	1	11
414.185	1	14
414.526	1	17
414.868	1	5
415.209	1	4
415.550	1	6
415.892	1	8
416.233	1	15
416.575	1	15
416.916	1	5
417.257	1	12
417.599	1	11
417.940	1	7
418.281	1	8
418.623	1	16
418.964	1	3
419.305	1	4
419.647	1	18
419.988	1	13
420.329	1	23
420.671	1	9
421.012	1	8
421.353	1	1
421.695	1	1
422.036	1	5
422.377	1	21
422.718	1	8
423.060	1	6
423.401	1	9
423.742	1	16
424.084	1	6
424.425	1	8
424.766	1	10
425.107	1	6
425.449	1	2
425.790	1	13
426.131	1	19
426.472	1	5
426.814	1	5
427.155	1	5
427.496	1	10
427.837	1	12
428.179	1	1
428.520	1	17
428.861	1	14
429.202	1	8
429.544	1	13
429.885	1	1
430.226	1	4
430.567	1	12
430.909	1	3
431.250	1	20
431.591	1	9
431.932	1	1
432.273	1	8
432.615	1	16
432.956	1	-14
433.297	1	13
433.638	1	12
433.979	1	17
434.320	1	7
434.662	1	5
435.003	1	17
435.344	1	15
435.685	1	-12
436.026	1	5
436.368	1	-3
436.709	1	10
437.050	1	13
437.391	1	16
437.732	1	0
438.073	1	12
438.414	1	12
438.756	1	10
439.097	1	4
439.438	1	4
439.779	1	13
440.120	1	15
440.461	1	19
440.802	1	-11
441.143	1	0
441.485	1	11
441.826	1	5
442.167	1	2
442.508	1	10
442.849	1	3
443.190	1	-1
443.531	1	9
443.872	1	20
444.213	1	7
444.554	1	3
444.895	1	6
445.237	1	2
445.578	1	-8
445.919	1	6
446.260	1	2
446.601	1	10
446.942	1	7
447.283	1	6
447.624	1	2
447.965	1	6
448.306	1	4
448.647	1	20
448.988	1	9
449.329	1	-1
449.670	1	4
450.011	1	-5
450.352	1	8
450.693	1	2
451.034	1	7
451.375	1	8
451.716	1	-5
452.057	1	14
452.398	1	-6
452.739	1	0
453.080	1	1
453.421	1	3
453.762	1	6
454.103	1	7
454.444	1	14
454.785	1	7
455.126	1	-8
455.467	1	1
455.808	1	20
456.149	1	1
456.490	1	0
456.831	1	13
457.172	1	12
457.513	1	-5
457.854	1	3
458.195	1	-5
458.536	1	2
458.877	1	22
459.218	1	3
459.559	1	11
459.899	1	1
460.240	1	11
460.581	1	4
460.922	1	5
461.263	1	7
461.604	1	-1
461.945	1	9
462.286	1	7
462.627	1	7
462.968	1	-2
463.309	1	6
463.649	1	-2
463.990	1	10
464.331	1	19
464.672	1	6
465.013	1	-5
465.354	1	9
465.695	1	16
466.036	1	8
466.376	1	4
466.717	1	10
467.058	1	8
467.399	1	2
467.740	1	17
468.081	1	16
468.422	1	6
468.762	1	-1
469.103	1	10
469.444	1	4
469.785	1	6
470.126	1	-4
470.467	1	11
470.807	1	8
471.148	1	-5
471.489	1	1
471.830	1	7
472.171	1	8
472.511	1	12
472.852	1	8
473.193	1	5
473.534	1	9
473.875	1	12
474.215	1	8
474.556	1	13
474.897	1	12
475.238	1	15
475.578	1	6
475.919	1	-4
476.260	1	5
476.601	1	3
476.942	1	10
477.282	1	9
477.623	1	-6
477.964	1	0
478.305	1	18
478.645	1	0
478.986	1	7
479.327	1	0
479.667	1	8
480.008	1	3
480.349	1	7
480.690	1	11
481.030	1	8
481.371	1	11
481.712	1	7
482.053	1	7
482.393	1	8
482.734	1	16
483.075	1	15
483.415	1	0
483.756	1	9
484.097	1	7
484.437	1	-2
484.778	1	14
485.119	1	11
485.459	1	4
485.800	1	21
486.141	1	9
486.481	1	6
486.822	1	15
487.163	1	9
487.503	1	1
487.844	1	7
488.185	1	14
488.525	1	17
488.866	1	14
489.207	1	0
489.547	1	2
489.888	1	11
490.228	1	22
490.569	1	10
490.910	1	7
491.250	1	20
491.591	1	9
491.932	1	10
492.272	1	12
492.613	1	2
492.953	1	17
493.294	1	14
493.635	1	12
493.975	1	20
494.316	1	15
494.656	1	13
494.997	1	17
495.337	1	12
495.678	1	-2
496.019	1	9
496.359	1	19
496.700	1	9
497.040	1	15
497.381	1	20
497.721	1	15
498.062	1	10
498.403	1	13
498.743	1	25
499.084	1	25
499.424	1	12
499.765	1	16
500.105	1	15
500.446	1	17
500.786	1	26
501.127	1	20
501.467	1	18
501.808	1	16
502.148	1	21
502.489	1	25
502.829	1	18
503.170	1	9
503.510	1	21
503.851	1	16
504.191	1	23
504.532	1	27
504.872	1	14
505.213	1	21
505.553	1	29
505.894	1	27
506.234	1	15
506.575	1	29
506.915	1	21
507.256	1	36
507.596	1	14
507.936	1	32
508.277	1	23
508.617	1	14
508.958	1	31
509.298	1	25
509.639	1	33
509.979	1	28
510.319	1	33
510.660	1	17
511.000	1	36
511.341	1	18
511.681	1	33
512.022	1	34
512.362	1	22
512.702	1	24
513.043	1	31
513.383	1	33
513.724	1	16
514.064	1	33
514.404	1	36
514.745	1	16
515.085	1	23
515.425	1	22
515.766	1	35
516.106	1	14
516.447	1	32
516.787	1	30
517.127	1	30
517.468	1	41
517.808	1	27
518.148	1	44
518.489	1	36
518.829	1	40
519.169	1	32
519.510	1	28
519.850	1	42
520.190	1	45
520.531	1	47
520.871	1	28
521.211	1	39
521.552	1	32
521.892	1	48
522.232	1	25
522.573	1	33
522.913	1	37
523.253	1	43
523.593	1	38
523.934	1	33
524.274	1	29
524.614	1	35
524.955	1	34
525.295	1	43
525.635	1	29
525.975	1	40
526.316	1	29
526.656	1	42
526.996	1	33
527.337	1	42
527.677	1	22
528.017	1	34
528.357	1	40
528.698	1	31
529.038	1	27
529.378	1	44
529.718	1	45
530.058	1	42
530.399	1	27
530.739	1	35
531.079	1	44
531.419	1	36
531.760	1	26
532.100	1	44
532.440	1	39
532.780	1	26
533.120	1	37
533.461	1	42
533.801	1	45
534.141	1	35
534.481	1	36
534.821	1	43
535.162	1	40
535.502	1	38
535.842	1	43
536.182	1	44
536.522	1	34
536.862	1	36
537.203	1	25
537.543	1	37
537.883	1	30
538.223	1	43
538.563	1	38
538.903	1	38
539.243	1	37
539.584	1	39
539.924	1	33
540.264	1	33
540.604	1	32
540.944	1	37
541.284	1	25
541.624	1	40
541.964	1	22
542.305	1	27
542.645	1	27
542.985	1	38
543.325	1	29
543.665	1	19
544.005	1	40
544.345	1	28
544.685	1	48
545.025	1	26
545.365	1	41
545.705	1	25
546.045	1	34
546.386	1	36
546.726	1	14
547.066	1	34
547.406	1	22
547.746	1	41
548.086	1	14
548.426	1	33
548.766	1	37
549.106	1	16
549.446	1	35
549.786	1	29
550.126	1	29
550.466	1	38
550.806	1	41
551.146	1	32
551.486	1	22
551.826	1	32
552.166	1	41
552.506	1	22
552.846	1	22
553.186	1	31
553.526	1	21
553.866	1	20
554.206	1	28
554.546	1	42
554.886	1	15
555.226	1	35
555.566	1	25
555.906	1	20
556.246	1	32
556.586	1	30
556.926	1	20
557.266	1	22
557.606	1	15
557.946	1	23
558.286	1	30
558.626	1	20
558.966	1	17
559.306	1	28
559.646	1	28
559.986	1	25
560.325	1	13
560.665	1	21
561.005	1	22
561.345	1	22
561.685	1	19
562.025	1	15
562.365	1	18
562.705	1	22
563.045	1	12
563.385	1	23
563.725	1	19
564.064	1	23
564.404	1	13
564.744	1	16
565.084	1	21
565.424	1	14
565.764	1	22
566.104	1	17
566.444	1	24
566.783	1	21
567.123	1	17
567.463	1	22
567.803	1	26
568.143	1	16
568.483	1	24
568.823	1	11
569.162	1	21
569.502	1	16
569.842	1	17
570.182	1	11
570.522	1	-2
570.862	1	29
571.201	1	20
571.541	1	17
571.881	1	12
572.221	1	25
572.561	1	18
572.900	1	11
573.240	1	1
573.580	1	12
573.920	1	22
574.260	1	20
574.599	1	14
574.939	1	15
575.279	1	9
575.619	1	22
575.959	1	12
576.298	1	11
576.638	1	4
576.978	1	12
577.318	1	10
577.657	1	27
577.997	1	16
578.337	1	11
578.677	1	22
579.016	1	9
579.356	1	14
579.696	1	16
580.036	1	8
580.375	1	13
580.715	1	17
581.055	1	17
581.394	1	15
581.734	1	16
582.074	1	12
582.414	1	1
582.753	1	21
583.093	1	14
583.433	1	16
583.772	1	12
584.112	1	23
584.452	1	15
584.791	1	23
585.131	1	18
585.471	1	10
585.811	1	3
586.150	1	13
586.490	1	13
586.830	1	4
587.169	1	15
587.509	1	7
587.849	1	8
588.188	1	18
588.528	1	17
588.867	1	12
589.207	1	12
589.547	1	5
589.886	1	10
590.226	1	17
590.566	1	12
590.905	1	15
591.245	1	5
591.585	1	8
591.924	1	9
592.264	1	10
592.603	1	11
592.943	1	6
593.283	1	4
593.622	1	10
593.962	1	11
594.301	1	-7
594.641	1	10
594.981	1	1
595.320	1	10
595.660	1	11
595.999	1	10
596.339	1	15
596.678	1	6
597.018	1	6
597.358	1	5
597.697	1	3
598.037	1	17
598.376	1	8
598.716	1	4
599.055	1	7
599.395	1	8
599.734	1	4
600.074	1	11
600.413	1	15
600.753	1	9
601.092	1	6
601.432	1	-5
601.771	1	18
602.111	1	5
602.451	1	8
602.790	1	6
603.130	1	18
603.469	1	5
603.809	1	8
604.148	1	6
604.487	1	11
604.827	1	6
605.166	1	0
605.506	1	9
605.845	1	-1
606.185	1	6
606.524	1	5
606.864	1	9
607.203	1	6
607.543	1	6
607.882	1	7
608.222	1	1
608.561	1	7
608.901	1	7
609.240	1	-10
609.579	1	10
609.919	1	18
610.258	1	8
610.598	1	1
610.937	1	12
611.277	1	5
611.616	1	-6
611.955	1	3
612.295	1	12
612.634	1	6
612.974	1	10
613.313	1	7
613.652	1	6
613.992	1	0
614.331	1	1
614.671	1	7
615.010	1	-1
615.349	1	10
615.689	1	6
616.028	1	13
616.368	1	13
616.707	1	16
617.046	1	20
617.386	1	11
617.725	1	19
618.064	1	1
618.404	1	3
618.743	1	15
619.082	1	6
619.422	1	0
619.761	1	8
620.100	1	2
620.440	1	8
620.779	1	2
621.118	1	6
621.458	1	13
621.797	1	9
622.136	1	10
622.476	1	15
622.815	1	5
623.154	1	10
623.494	1	6
623.833	1	8
624.172	1	10
624.511	1	5
624.851	1	-3
625.190	1	0
625.529	1	6
625.869	1	4
626.208	1	1
626.547	1	6
626.886	1	6
627.226	1	5
627.565	1	2
627.904	1	7
628.243	1	10
628.583	1	-9
628.922	1	5
629.261	1	-8
629.600	1	5
629.940	1	10
630.279	1	12
630.618	1	1
630.957	1	8
631.297	1	3
631.636	1	10
631.975	1	3
632.314	1	-1
632.653	1	12
632.993	1	12
633.332	1	0
633.671	1	-3
634.010	1	-9
634.349	1	3
634.689	1	16
635.028	1	12
635.367	1	4
635.706	1	4
636.045	1	23
636.384	1	-2
636.724	1	6
637.063	1	9
637.402	1	0
637.741	1	11
638.080	1	20
638.419	1	2
638.759	1	4
639.098	1	-5
639.437	1	10
639.776	1	0
640.115	1	2
640.454	1	10
640.793	1	-6
641.132	1	15
641.472	1	0
641.811	1	4
642.150	1	-15
642.489	1	1
642.828	1	7
643.167	1	8
643.506	1	3
643.845	1	-6
644.184	1	5
644.524	1	4
644.863	1	5
645.202	1	12
645.541	1	2
645.880	1	1
646.219	1	-4
646.558	1	3
646.897	1	5
647.236	1	4
647.575	1	1
647.914	1	-1
648.253	1	0
648.592	1	2
648.931	1	-14
649.270	1	-3
649.610	1	3
649.949	1	15
650.288	1	9
650.627	1	6
650.966	1	9
651.305	1	0
651.644	1	11
651.983	1	-4
652.322	1	1
652.661	1	7
653.000	1	6
653.339	1	6
653.678	1	-2
654.017	1	0
654.356	1	15
654.695	1	4
655.034	1	4
655.373	1	7
655.712	1	8
656.051	1	10
656.390	1	11
656.729	1	-2
657.068	1	1
657.406	1	5
657.745	1	3
658.084	1	-3
658.423	1	8
658.762	1	18
659.101	1	11
659.440	1	6
659.779	1	3
660.118	1	1
660.457	1	3
660.796	1	11
661.135	1	9
661.474	1	7
661.813	1	2
662.152	1	2
662.491	1	17
662.829	1	7
663.168	1	1
663.507	1	-1
663.846	1	0
664.185	1	-2
664.524	1	-2
664.863	1	11
665.202	1	4
665.541	1	0
665.879	1	0
666.218	1	3
666.557	1	8
666.896	1	3
667.235	1	6
667.574	1	12
667.913	1	4
668.251	1	4
668.590	1	3
668.929	1	-2
669.268	1	-4
669.607	1	6
669.946	1	12
670.285	1	9
670.623	1	9
670.962	1	0
671.301	1	1
671.640	1	-3
671.979	1	5
672.317	1	3
672.656	1	6
672.995	1	9
673.334	1	-4
673.673	1	9
674.011	1	-3
674.350	1	6
674.689	1	6
675.028	1	18
675.367	1	1
675.705	1	19
676.044	1	11
676.383	1	11
676.722	1	15
677.060	1	8
677.399	1	2
677.738	1	5
678.077	1	10
678.416	1	9
678.754	1	8
679.093	1	6
679.432	1	-4
679.771	1	17
680.109	1	3
680.448	1	4
680.787	1	8
681.125	1	8
681.464	1	2
681.803	1	5
682.142	1	3
682.480	1	10
682.819	1	5
683.158	1	3
683.496	1	7
683.835	1	-2
684.174	1	3
684.512	1	16
684.851	1	2
685.190	1	2
685.529	1	-5
685.867	1	7
686.206	1	17
686.545	1	2
686.883	1	4
687.222	1	11
687.561	1	13
687.899	1	4
688.238	1	15
688.577	1	-2
688.746	1	-2