File: Data/GaN_130K_350ms/GaN_sample F_spot6_UVVIS_130 K_200um_350 ms 2x2mm1_214.txt
340.368	1	3
340.710	1	12
341.052	1	-11
341.394	1	-1
341.737	1	1
342.079	1	4
342.421	1	3
342.763	1	-4
343.105	1	0
343.447	1	7
343.789	1	1
344.131	1	2
344.473	1	-5
344.815	1	-8
345.157	1	-3
345.499	1	-7
345.841	1	9
346.183	1	12
346.526	1	-4
346.868	1	2
347.210	1	7
347.552	1	6
347.894	1	4
348.236	1	1
348.578	1	2
348.920	1	1
349.262	1	8
349.604	1	3
349.946	1	7
350.288	1	-10
350.630	1	6
350.972	1	8
351.314	1	4
351.656	1	14
351.998	1	6
352.340	1	12
352.682	1	-4
353.024	1	0
353.366	1	11
353.708	1	4
354.050	1	1
354.392	1	13
354.734	1	4
355.076	1	6
355.418	1	5
355.760	1	2
356.102	1	0
356.444	1	-8
356.785	1	15
357.127	1	9
357.469	1	3
357.811	1	3
358.153	1	-1
358.495	1	8
358.837	1	8
359.179	1	10
359.521	1	3
359.863	1	1
360.205	1	4
360.547	1	0
360.889	1	7
361.231	1	3
361.572	1	17
361.914	1	4
362.256	1	-5
362.598	1	0
362.940	1	-7
363.282	1	16
363.624	1	8
363.966	1	17
364.308	1	19
364.649	1	9
364.991	1	10
365.333	1	-1
365.675	1	14
366.017	1	11
366.359	1	14
366.701	1	11
367.042	1	19
367.384	1	23
367.726	1	19
368.068	1	7
368.410	1	12
368.752	1	18
369.093	1	8
369.435	1	16
369.777	1	17
370.119	1	22
370.461	1	18
370.803	1	10
371.144	1	11
371.486	1	3
371.828	1	20
372.170	1	3
372.512	1	15
372.853	1	13
373.195	1	6
373.537	1	13
373.879	1	12
374.220	1	6
374.562	1	3
374.904	1	6
375.246	1	11
375.588	1	11
375.929	1	1
376.271	1	19
376.613	1	4
376.955	1	11
377.296	1	-1
377.638	1	-13
377.980	1	-1
378.321	1	7
378.663	1	1
379.005	1	15
379.347	1	5
379.688	1	2
380.030	1	4
380.372	1	9
380.714	1	21
381.055	1	12
381.397	1	3
381.739	1	8
382.080	1	-10
382.422	1	12
382.764	1	-3
383.105	1	1
383.447	1	10
383.789	1	6
384.130	1	2
384.472	1	8
384.814	1	4
385.156	1	12
385.497	1	3
385.839	1	5
386.180	1	6
386.522	1	0
386.864	1	13
387.205	1	2
387.547	1	12
387.889	1	4
388.230	1	2
388.572	1	2
388.914	1	4
389.255	1	10
389.597	1	-2
389.939	1	5
390.280	1	15
390.622	1	4
390.963	1	4
391.305	1	4
391.647	1	12
391.988	1	10
392.330	1	0
392.671	1	2
393.013	1	12
393.355	1	6
393.696	1	-1
394.038	1	11
394.379	1	7
394.721	1	10
395.062	1	-5
395.404	1	-13
395.746	1	1
396.087	1	16
396.429	1	8
396.770	1	11
397.112	1	9
397.453	1	20
397.795	1	-3
398.136	1	8
398.478	1	9
398.819	1	-10
399.161	1	13
399.503	1	9
399.844	1	5
400.186	1	0
400.527	1	10
400.869	1	4
401.210	1	-5
401.552	1	14
401.893	1	-9
402.235	1	5
402.576	1	-3
402.918	1	8
403.259	1	6
403.601	1	10
403.942	1	0
404.284	1	-1
404.625	1	12
404.967	1	-2
405.308	1	5
405.649	1	5
405.991	1	1
406.332	1	1
406.674	1	10
407.015	1	1
407.357	1	5
407.698	1	6
408.040	1	-1
408.381	1	9
408.722	1	9
409.064	1	5
409.405	1	7
409.747	1	-1
410.088	1	15
410.430	1	17
410.771	1	-6
411.112	1	7
411.454	1	-2
411.795	1	5
412.137	1	1
412.478	1	-3
412.819	1	3
413.161	1	8
413.502	1	21
413.844	1	7
414.185	1	12
414.526	1	10
414.868	1	1
415.209	1	4
415.550	1	-2
415.892	1	15
416.233	1	10
416.575	1	4
416.916	1	7
417.257	1	8
417.599	1	4
417.940	1	6
418.281	1	-2
418.623	1	12
418.964	1	7
419.305	1	-4
419.647	1	16
419.988	1	14
420.329	1	10
420.671	1	-3
421.012	1	5
421.353	1	1
421.695	1	5
422.036	1	2
422.377	1	4
422.718	1	4
423.060	1	-4
423.401	1	5
423.742	1	6
424.084	1	11
424.425	1	6
424.766	1	4
425.107	1	8
425.449	1	9
425.790	1	14
426.131	1	23
426.472	1	3
426.814	1	4
427.155	1	-1
427.496	1	8
427.837	1	9
428.179	1	2
428.520	1	11
428.861	1	-4
429.202	1	5
429.544	1	14
429.885	1	-4
430.226	1	1
430.567	1	-1
430.909	1	13
431.250	1	5
431.591	1	9
431.932	1	4
432.273	1	19
432.615	1	17
432.956	1	-2
433.297	1	11
433.638	1	13
433.979	1	1
434.320	1	18
434.662	1	12
435.003	1	12
435.344	1	11
435.685	1	0
436.026	1	0
436.368	1	2
436.709	1	11
437.050	1	3
437.391	1	12
437.732	1	4
438.073	1	12
438.414	1	0
438.756	1	6
439.097	1	11
439.438	1	7
439.779	1	16
440.120	1	11
440.461	1	14
440.802	1	-3
441.143	1	-1
441.485	1	5
441.826	1	1
442.167	1	-1
442.508	1	-3
442.849	1	6
443.190	1	5
443.531	1	-4
443.872	1	10
444.213	1	11
444.554	1	4
444.895	1	-2
445.237	1	-3
445.578	1	0
445.919	1	-3
446.260	1	11
446.601	1	1
446.942	1	6
447.283	1	6
447.624	1	6
447.965	1	-1
448.306	1	5
448.647	1	13
448.988	1	6
449.329	1	0
449.670	1	6
450.011	1	8
450.352	1	14
450.693	1	-2
451.034	1	-2
451.375	1	8
451.716	1	-3
452.057	1	9
452.398	1	-7
452.739	1	1
453.080	1	0
453.421	1	3
453.762	1	5
454.103	1	-5
454.444	1	7
454.785	1	4
455.126	1	-3
455.467	1	10
455.808	1	13
456.149	1	-8
456.490	1	12
456.831	1	7
457.172	1	7
457.513	1	-12
457.854	1	-4
458.195	1	-11
458.536	1	4
458.877	1	14
459.218	1	0
459.559	1	10
459.899	1	3
460.240	1	12
460.581	1	3
460.922	1	6
461.263	1	12
461.604	1	-16
461.945	1	13
462.286	1	10
462.627	1	3
462.968	1	-1
463.309	1	7
463.649	1	-9
463.990	1	-3
464.331	1	4
464.672	1	7
465.013	1	-1
465.354	1	4
465.695	1	11
466.036	1	2
466.376	1	4
466.717	1	6
467.058	1	2
467.399	1	-5
467.740	1	13
468.081	1	9
468.422	1	6
468.762	1	10
469.103	1	13
469.444	1	5
469.785	1	2
470.126	1	-11
470.467	1	7
470.807	1	4
471.148	1	1
471.489	1	3
471.830	1	9
472.171	1	11
472.511	1	5
472.852	1	7
473.193	1	6
473.534	1	2
473.875	1	9
474.215	1	4
474.556	1	6
474.897	1	1
475.238	1	14
475.578	1	4
475.919	1	-13
476.260	1	5
476.601	1	5
476.942	1	8
477.282	1	3
477.623	1	-4
477.964	1	-4
478.305	1	18
478.645	1	7
478.986	1	-4
479.327	1	-3
479.667	1	3
480.008	1	1
480.349	1	-1
480.690	1	-2
481.030	1	-2
481.371	1	19
481.712	1	2
482.053	1	3
482.393	1	14
482.734	1	12
483.075	1	20
483.415	1	-1
483.756	1	-3
484.097	1	6
484.437	1	0
484.778	1	17
485.119	1	6
485.459	1	-7
485.800	1	15
486.141	1	3
486.481	1	-10
486.822	1	10
487.163	1	-4
487.503	1	-3
487.844	1	2
488.185	1	1
488.525	1	8
488.866	1	3
489.207	1	-3
489.547	1	7
489.888	1	10
490.228	1	-4
490.569	1	2
490.910	1	-11
491.250	1	8
491.591	1	4
491.932	1	2
492.272	1	0
492.613	1	-8
492.953	1	8
493.294	1	8
493.635	1	5
493.975	1	13
494.316	1	4
494.656	1	3
494.997	1	-3
495.337	1	7
495.678	1	-1
496.019	1	2
496.359	1	9
496.700	1	6
497.040	1	16
497.381	1	-2
497.721	1	-2
498.062	1	-4
498.403	1	-6
498.743	1	7
499.084	1	10
499.424	1	2
499.765	1	-1
500.105	1	4
500.446	1	4
500.786	1	7
501.127	1	0
501.467	1	-5
501.808	1	7
502.148	1	3
502.489	1	11
502.829	1	10
503.170	1	-4
503.510	1	9
503.851	1	3
504.191	1	12
504.532	1	2
504.872	1	13
505.213	1	-1
505.553	1	1
505.894	1	17
506.234	1	-2
506.575	1	-7
506.915	1	1
507.256	1	12
507.596	1	-7
507.936	1	-4
508.277	1	-10
508.617	1	10
508.958	1	10
509.298	1	8
509.639	1	12
509.979	1	3
510.319	1	11
510.660	1	0
511.000	1	13
511.341	1	4
511.681	1	7
512.022	1	16
512.362	1	4
512.702	1	13
513.043	1	15
513.383	1	7
513.724	1	-1
514.064	1	-6
514.404	1	5
514.745	1	6
515.085	1	11
515.425	1	0
515.766	1	12
516.106	1	-4
516.447	1	-4
516.787	1	11
517.127	1	9
517.468	1	11
517.808	1	4
518.148	1	7
518.489	1	13
518.829	1	14
519.169	1	13
519.510	1	0
519.850	1	11
520.190	1	15
520.531	1	8
520.871	1	11
521.211	1	4
521.552	1	3
521.892	1	-1
522.232	1	-3
522.573	1	-4
522.913	1	7
523.253	1	21
523.593	1	10
523.934	1	-3
524.274	1	0
524.614	1	7
524.955	1	9
525.295	1	12
525.635	1	11
525.975	1	17
526.316	1	-1
526.656	1	11
526.996	1	11
527.337	1	17
527.677	1	1
528.017	1	8
528.357	1	14
528.698	1	-1
529.038	1	8
529.378	1	5
529.718	1	6
530.058	1	-4
530.399	1	2
530.739	1	13
531.079	1	5
531.419	1	6
531.760	1	5
532.100	1	8
532.440	1	14
532.780	1	9
533.120	1	10
533.461	1	2
533.801	1	25
534.141	1	11
534.481	1	6
534.821	1	6
535.162	1	2
535.502	1	1
535.842	1	6
536.182	1	11
536.522	1	0
536.862	1	7
537.203	1	4
537.543	1	15
537.883	1	-1
538.223	1	11
538.563	1	10
538.903	1	17
539.243	1	9
539.584	1	13
539.924	1	7
540.264	1	3
540.604	1	6
540.944	1	17
541.284	1	13
541.624	1	14
541.964	1	-2
542.305	1	5
542.645	1	-1
542.985	1	23
543.325	1	10
543.665	1	9
544.005	1	16
544.345	1	1
544.685	1	17
545.025	1	-5
545.365	1	7
545.705	1	6
546.045	1	9
546.386	1	6
546.726	1	3
547.066	1	9
547.406	1	-11
547.746	1	13
548.086	1	-4
548.426	1	12
548.766	1	12
549.106	1	-3
549.446	1	5
549.786	1	8
550.126	1	11
550.466	1	14
550.806	1	7
551.146	1	-2
551.486	1	12
551.826	1	10
552.166	1	14
552.506	1	11
552.846	1	-2
553.186	1	8
553.526	1	14
553.866	1	-12
554.206	1	-3
554.546	1	8
554.886	1	1
555.226	1	8
555.566	1	2
555.906	1	0
556.246	1	5
556.586	1	-2
556.926	1	5
557.266	1	8
557.606	1	1
557.946	1	4
558.286	1	12
558.626	1	-10
558.966	1	1
559.306	1	9
559.646	1	7
559.986	1	-5
560.325	1	-8
560.665	1	9
561.005	1	5
561.345	1	10
561.685	1	1
562.025	1	9
562.365	1	17
562.705	1	7
563.045	1	-4
563.385	1	2
563.725	1	-3
564.064	1	9
564.404	1	-3
564.744	1	9
565.084	1	2
565.424	1	1
565.764	1	4
566.104	1	8
566.444	1	6
566.783	1	9
567.123	1	5
567.463	1	6
567.803	1	10
568.143	1	12
568.483	1	6
568.823	1	-3
569.162	1	12
569.502	1	10
569.842	1	5
570.182	1	5
570.522	1	-16
570.862	1	21
571.201	1	6
571.541	1	3
571.881	1	0
572.221	1	11
572.561	1	5
572.900	1	5
573.240	1	1
573.580	1	6
573.920	1	3
574.260	1	10
574.599	1	7
574.939	1	6
575.279	1	-2
575.619	1	14
575.959	1	6
576.298	1	6
576.638	1	-11
576.978	1	-2
577.318	1	0
577.657	1	14
577.997	1	8
578.337	1	-5
578.677	1	10
579.016	1	5
579.356	1	13
579.696	1	7
580.036	1	-1
580.375	1	-8
580.715	1	14
581.055	1	-2
581.394	1	2
581.734	1	7
582.074	1	-4
582.414	1	-11
582.753	1	10
583.093	1	1
583.433	1	13
583.772	1	8
584.112	1	11
584.452	1	10
584.791	1	10
585.131	1	8
585.471	1	7
585.811	1	2
586.150	1	2
586.490	1	6
586.830	1	-4
587.169	1	9
587.509	1	-2
587.849	1	11
588.188	1	16
588.528	1	8
588.867	1	9
589.207	1	-8
589.547	1	2
589.886	1	0
590.226	1	0
590.566	1	2
590.905	1	4
591.245	1	-5
591.585	1	8
591.924	1	3
592.264	1	5
592.603	1	0
592.943	1	-1
593.283	1	-8
593.622	1	0
593.962	1	2
594.301	1	7
594.641	1	4
594.981	1	5
595.320	1	11
595.660	1	5
595.999	1	5
596.339	1	7
596.678	1	-9
597.018	1	2
597.358	1	-5
597.697	1	0
598.037	1	-6
598.376	1	2
598.716	1	7
599.055	1	-6
599.395	1	-3
599.734	1	3
600.074	1	12
600.413	1	8
600.753	1	1
601.092	1	-1
601.432	1	-1
601.771	1	2
602.111	1	-2
602.451	1	6
602.790	1	4
603.130	1	2
603.469	1	2
603.809	1	-7
604.148	1	10
604.487	1	17
604.827	1	4
605.166	1	11
605.506	1	6
605.845	1	-3
606.185	1	3
606.524	1	1
606.864	1	14
607.203	1	8
607.543	1	-1
607.882	1	8
608.222	1	-2
608.561	1	-3
608.901	1	9
609.240	1	0
609.579	1	7
609.919	1	3
610.258	1	-3
610.598	1	6
610.937	1	5
611.277	1	2
611.616	1	-7
611.955	1	-5
612.295	1	8
612.634	1	3
612.974	1	2
613.313	1	-1
613.652	1	-4
613.992	1	0
614.331	1	12
614.671	1	12
615.010	1	-4
615.349	1	3
615.689	1	2
616.028	1	13
616.368	1	-1
616.707	1	19
617.046	1	16
617.386	1	-7
617.725	1	-2
618.064	1	-5
618.404	1	4
618.743	1	10
619.082	1	1
619.422	1	-4
619.761	1	13
620.100	1	0
620.440	1	5
620.779	1	1
621.118	1	-2
621.458	1	10
621.797	1	5
622.136	1	4
622.476	1	14
622.815	1	-6
623.154	1	7
623.494	1	11
623.833	1	9
624.172	1	0
624.511	1	9
624.851	1	4
625.190	1	-6
625.529	1	4
625.869	1	8
626.208	1	3
626.547	1	-4
626.886	1	-3
627.226	1	0
627.565	1	-2
627.904	1	5
628.243	1	12
628.583	1	-14
628.922	1	-1
629.261	1	-5
629.600	1	10
629.940	1	8
630.279	1	3
630.618	1	-2
630.957	1	2
631.297	1	-2
631.636	1	8
631.975	1	6
632.314	1	4
632.653	1	-2
632.993	1	14
633.332	1	4
633.671	1	-4
634.010	1	2
634.349	1	0
634.689	1	17
635.028	1	6
635.367	1	8
635.706	1	0
636.045	1	21
636.384	1	2
636.724	1	-4
637.063	1	5
637.402	1	-7
637.741	1	12
638.080	1	13
638.419	1	7
638.759	1	2
639.098	1	-5
639.437	1	6
639.776	1	-3
640.115	1	12
640.454	1	10
640.793	1	-4
641.132	1	16
641.472	1	3
641.811	1	7
642.150	1	-4
642.489	1	-5
642.828	1	0
643.167	1	7
643.506	1	9
643.845	1	-3
644.184	1	-1
644.524	1	8
644.863	1	-4
645.202	1	14
645.541	1	0
645.880	1	1
646.219	1	9
646.558	1	5
646.897	1	8
647.236	1	-2
647.575	1	3
647.914	1	-1
648.253	1	8
648.592	1	3
648.931	1	1
649.270	1	-10
649.610	1	6
649.949	1	7
650.288	1	2
650.627	1	1
650.966	1	0
651.305	1	-5
651.644	1	-1
651.983	1	-10
652.322	1	8
652.661	1	-5
653.000	1	5
653.339	1	5
653.678	1	2
654.017	1	-7
654.356	1	4
654.695	1	4
655.034	1	-4
655.373	1	-8
655.712	1	5
656.051	1	-2
656.390	1	-1
656.729	1	10
657.068	1	-1
657.406	1	3
657.745	1	5
658.084	1	6
658.423	1	3
658.762	1	16
659.101	1	3
659.440	1	-8
659.779	1	0
660.118	1	-4
660.457	1	-4
660.796	1	5
661.135	1	15
661.474	1	4
661.813	1	0
662.152	1	1
662.491	1	15
662.829	1	13
663.168	1	-2
663.507	1	-4
663.846	1	5
664.185	1	10
664.524	1	-4
664.863	1	6
665.202	1	-1
665.541	1	1
665.879	1	-6
666.218	1	10
666.557	1	7
666.896	1	3
667.235	1	7
667.574	1	13
667.913	1	4
668.251	1	3
668.590	1	9
668.929	1	-2
669.268	1	4
669.607	1	2
669.946	1	10
670.285	1	-4
670.623	1	10
670.962	1	1
671.301	1	6
671.640	1	-2
671.979	1	1
672.317	1	-5
672.656	1	0
672.995	1	4
673.334	1	2
673.673	1	7
674.011	1	-2
674.350	1	3
674.689	1	14
675.028	1	8
675.367	1	-3
675.705	1	17
676.044	1	10
676.383	1	0
676.722	1	-9
677.060	1	2
677.399	1	1
677.738	1	-2
678.077	1	4
678.416	1	-1
678.754	1	4
679.093	1	-7
679.432	1	6
679.771	1	6
680.109	1	10
680.448	1	8
680.787	1	13
681.125	1	9
681.464	1	1
681.803	1	1
682.142	1	-1
682.480	1	14
682.819	1	0
683.158	1	0
683.496	1	3
683.835	1	-5
684.174	1	5
684.512	1	11
684.851	1	8
685.190	1	-4
685.529	1	-9
685.867	1	2
686.206	1	4
686.545	1	3
686.883	1	-1
687.222	1	4
687.561	1	5
687.899	1	0
688.238	1	10
688.577	1	6
688.746	1	2