File: Data/GaN_130K_350ms/GaN_sample F_spot6_UVVIS_130 K_200um_350 ms 2x2mm1_166.txt
340.368	1	4
340.710	1	6
341.052	1	-4
341.394	1	5
341.737	1	-3
342.079	1	1
342.421	1	1
342.763	1	3
343.105	1	8
343.447	1	10
343.789	1	-1
344.131	1	-1
344.473	1	2
344.815	1	-2
345.157	1	-11
345.499	1	4
345.841	1	0
346.183	1	4
346.526	1	1
346.868	1	7
347.210	1	2
347.552	1	3
347.894	1	8
348.236	1	7
348.578	1	4
348.920	1	4
349.262	1	5
349.604	1	3
349.946	1	3
350.288	1	-5
350.630	1	-5
350.972	1	16
351.314	1	2
351.656	1	17
351.998	1	-7
352.340	1	13
352.682	1	3
353.024	1	-1
353.366	1	18
353.708	1	-2
354.050	1	4
354.392	1	12
354.734	1	-1
355.076	1	2
355.418	1	10
355.760	1	18
356.102	1	1
356.444	1	-5
356.785	1	14
357.127	1	9
357.469	1	5
357.811	1	8
358.153	1	7
358.495	1	20
358.837	1	8
359.179	1	5
359.521	1	4
359.863	1	8
360.205	1	-1
360.547	1	2
360.889	1	-2
361.231	1	7
361.572	1	12
361.914	1	0
362.256	1	15
362.598	1	7
362.940	1	3
363.282	1	26
363.624	1	19
363.966	1	32
364.308	1	20
364.649	1	26
364.991	1	24
365.333	1	16
365.675	1	23
366.017	1	30
366.359	1	26
366.701	1	28
367.042	1	38
367.384	1	28
367.726	1	28
368.068	1	31
368.410	1	27
368.752	1	39
369.093	1	30
369.435	1	24
369.777	1	20
370.119	1	32
370.461	1	37
370.803	1	27
371.144	1	26
371.486	1	24
371.828	1	17
372.170	1	19
372.512	1	25
372.853	1	20
373.195	1	10
373.537	1	15
373.879	1	16
374.220	1	13
374.562	1	6
374.904	1	17
375.246	1	22
375.588	1	6
375.929	1	5
376.271	1	14
376.613	1	8
376.955	1	18
377.296	1	0
377.638	1	2
377.980	1	2
378.321	1	14
378.663	1	14
379.005	1	28
379.347	1	16
379.688	1	3
380.030	1	13
380.372	1	21
380.714	1	29
381.055	1	9
381.397	1	10
381.739	1	16
382.080	1	-4
382.422	1	19
382.764	1	1
383.105	1	10
383.447	1	9
383.789	1	8
384.130	1	9
384.472	1	14
384.814	1	11
385.156	1	11
385.497	1	10
385.839	1	8
386.180	1	14
386.522	1	6
386.864	1	15
387.205	1	5
387.547	1	12
387.889	1	-2
388.230	1	-4
388.572	1	17
388.914	1	2
389.255	1	12
389.597	1	-10
389.939	1	10
390.280	1	5
390.622	1	7
390.963	1	11
391.305	1	12
391.647	1	11
391.988	1	12
392.330	1	4
392.671	1	-6
393.013	1	14
393.355	1	3
393.696	1	-1
394.038	1	12
394.379	1	14
394.721	1	10
395.062	1	0
395.404	1	0
395.746	1	13
396.087	1	8
396.429	1	4
396.770	1	15
397.112	1	12
397.453	1	11
397.795	1	5
398.136	1	15
398.478	1	10
398.819	1	-6
399.161	1	17
399.503	1	11
399.844	1	4
400.186	1	5
400.527	1	11
400.869	1	14
401.210	1	-14
401.552	1	18
401.893	1	-10
402.235	1	9
402.576	1	2
402.918	1	10
403.259	1	7
403.601	1	16
403.942	1	1
404.284	1	-5
404.625	1	15
404.967	1	3
405.308	1	13
405.649	1	8
405.991	1	17
406.332	1	12
406.674	1	9
407.015	1	6
407.357	1	9
407.698	1	7
408.040	1	5
408.381	1	7
408.722	1	8
409.064	1	7
409.405	1	7
409.747	1	7
410.088	1	12
410.430	1	19
410.771	1	-16
411.112	1	11
411.454	1	3
411.795	1	9
412.137	1	3
412.478	1	10
412.819	1	10
413.161	1	7
413.502	1	17
413.844	1	6
414.185	1	15
414.526	1	5
414.868	1	-3
415.209	1	2
415.550	1	5
415.892	1	16
416.233	1	7
416.575	1	6
416.916	1	9
417.257	1	4
417.599	1	9
417.940	1	19
418.281	1	-1
418.623	1	17
418.964	1	4
419.305	1	5
419.647	1	14
419.988	1	13
420.329	1	11
420.671	1	-2
421.012	1	11
421.353	1	1
421.695	1	7
422.036	1	13
422.377	1	12
422.718	1	0
423.060	1	15
423.401	1	9
423.742	1	14
424.084	1	8
424.425	1	7
424.766	1	1
425.107	1	6
425.449	1	0
425.790	1	14
426.131	1	19
426.472	1	3
426.814	1	3
427.155	1	-6
427.496	1	4
427.837	1	7
428.179	1	-3
428.520	1	16
428.861	1	2
429.202	1	11
429.544	1	7
429.885	1	7
430.226	1	4
430.567	1	3
430.909	1	3
431.250	1	15
431.591	1	5
431.932	1	0
432.273	1	10
432.615	1	7
432.956	1	-1
433.297	1	8
433.638	1	9
433.979	1	11
434.320	1	19
434.662	1	7
435.003	1	12
435.344	1	12
435.685	1	-6
436.026	1	12
436.368	1	9
436.709	1	9
437.050	1	8
437.391	1	15
437.732	1	8
438.073	1	11
438.414	1	-6
438.756	1	1
439.097	1	8
439.438	1	8
439.779	1	19
440.120	1	9
440.461	1	13
440.802	1	0
441.143	1	-2
441.485	1	6
441.826	1	2
442.167	1	11
442.508	1	5
442.849	1	2
443.190	1	4
443.531	1	3
443.872	1	7
444.213	1	7
444.554	1	6
444.895	1	10
445.237	1	8
445.578	1	-1
445.919	1	2
446.260	1	3
446.601	1	14
446.942	1	2
447.283	1	10
447.624	1	-2
447.965	1	7
448.306	1	8
448.647	1	21
448.988	1	12
449.329	1	2
449.670	1	11
450.011	1	-4
450.352	1	8
450.693	1	10
451.034	1	-2
451.375	1	15
451.716	1	3
452.057	1	18
452.398	1	-10
452.739	1	8
453.080	1	-7
453.421	1	6
453.762	1	9
454.103	1	-1
454.444	1	4
454.785	1	21
455.126	1	-11
455.467	1	9
455.808	1	13
456.149	1	-1
456.490	1	11
456.831	1	6
457.172	1	4
457.513	1	3
457.854	1	13
458.195	1	-6
458.536	1	12
458.877	1	24
459.218	1	13
459.559	1	2
459.899	1	-2
460.240	1	14
460.581	1	4
460.922	1	3
461.263	1	4
461.604	1	-9
461.945	1	8
462.286	1	7
462.627	1	13
462.968	1	0
463.309	1	8
463.649	1	0
463.990	1	1
464.331	1	16
464.672	1	3
465.013	1	-6
465.354	1	3
465.695	1	11
466.036	1	7
466.376	1	4
466.717	1	6
467.058	1	5
467.399	1	8
467.740	1	12
468.081	1	9
468.422	1	2
468.762	1	4
469.103	1	-4
469.444	1	6
469.785	1	9
470.126	1	-3
470.467	1	5
470.807	1	9
471.148	1	6
471.489	1	0
471.830	1	9
472.171	1	11
472.511	1	-2
472.852	1	5
473.193	1	11
473.534	1	1
473.875	1	9
474.215	1	8
474.556	1	5
474.897	1	-1
475.238	1	14
475.578	1	7
475.919	1	-3
476.260	1	8
476.601	1	8
476.942	1	8
477.282	1	9
477.623	1	-6
477.964	1	-1
478.305	1	11
478.645	1	6
478.986	1	0
479.327	1	-3
479.667	1	16
480.008	1	4
480.349	1	6
480.690	1	3
481.030	1	3
481.371	1	7
481.712	1	7
482.053	1	5
482.393	1	-2
482.734	1	0
483.075	1	17
483.415	1	9
483.756	1	5
484.097	1	-6
484.437	1	3
484.778	1	10
485.119	1	8
485.459	1	-5
485.800	1	12
486.141	1	8
486.481	1	4
486.822	1	9
487.163	1	-1
487.503	1	-2
487.844	1	3
488.185	1	12
488.525	1	9
488.866	1	6
489.207	1	3
489.547	1	6
489.888	1	12
490.228	1	4
490.569	1	2
490.910	1	-3
491.250	1	8
491.591	1	-6
491.932	1	0
492.272	1	7
492.613	1	1
492.953	1	10
493.294	1	6
493.635	1	11
493.975	1	10
494.316	1	13
494.656	1	5
494.997	1	-3
495.337	1	3
495.678	1	4
496.019	1	-3
496.359	1	11
496.700	1	3
497.040	1	10
497.381	1	5
497.721	1	-3
498.062	1	7
498.403	1	1
498.743	1	6
499.084	1	22
499.424	1	-8
499.765	1	5
500.105	1	8
500.446	1	7
500.786	1	6
501.127	1	5
501.467	1	13
501.808	1	6
502.148	1	5
502.489	1	2
502.829	1	7
503.170	1	9
503.510	1	17
503.851	1	-2
504.191	1	3
504.532	1	3
504.872	1	6
505.213	1	10
505.553	1	12
505.894	1	17
506.234	1	6
506.575	1	10
506.915	1	8
507.256	1	12
507.596	1	-2
507.936	1	0
508.277	1	2
508.617	1	-1
508.958	1	6
509.298	1	6
509.639	1	12
509.979	1	3
510.319	1	17
510.660	1	2
511.000	1	7
511.341	1	6
511.681	1	15
512.022	1	10
512.362	1	2
512.702	1	16
513.043	1	18
513.383	1	8
513.724	1	2
514.064	1	5
514.404	1	11
514.745	1	-2
515.085	1	13
515.425	1	1
515.766	1	18
516.106	1	3
516.447	1	14
516.787	1	12
517.127	1	3
517.468	1	9
517.808	1	4
518.148	1	16
518.489	1	2
518.829	1	12
519.169	1	14
519.510	1	2
519.850	1	20
520.190	1	16
520.531	1	12
520.871	1	5
521.211	1	5
521.552	1	9
521.892	1	19
522.232	1	4
522.573	1	7
522.913	1	13
523.253	1	11
523.593	1	14
523.934	1	8
524.274	1	-10
524.614	1	5
524.955	1	22
525.295	1	14
525.635	1	2
525.975	1	16
526.316	1	7
526.656	1	9
526.996	1	4
527.337	1	18
527.677	1	7
528.017	1	10
528.357	1	10
528.698	1	7
529.038	1	-5
529.378	1	25
529.718	1	13
530.058	1	6
530.399	1	1
530.739	1	11
531.079	1	13
531.419	1	11
531.760	1	10
532.100	1	5
532.440	1	14
532.780	1	7
533.120	1	12
533.461	1	13
533.801	1	17
534.141	1	4
534.481	1	20
534.821	1	20
535.162	1	9
535.502	1	13
535.842	1	5
536.182	1	19
536.522	1	4
536.862	1	7
537.203	1	1
537.543	1	6
537.883	1	5
538.223	1	12
538.563	1	21
538.903	1	15
539.243	1	14
539.584	1	7
539.924	1	7
540.264	1	10
540.604	1	16
540.944	1	13
541.284	1	10
541.624	1	15
541.964	1	15
542.305	1	12
542.645	1	7
542.985	1	8
543.325	1	7
543.665	1	21
544.005	1	4
544.345	1	5
544.685	1	22
545.025	1	2
545.365	1	10
545.705	1	8
546.045	1	14
546.386	1	2
546.726	1	3
547.066	1	13
547.406	1	-3
547.746	1	8
548.086	1	2
548.426	1	2
548.766	1	18
549.106	1	5
549.446	1	6
549.786	1	16
550.126	1	12
550.466	1	10
550.806	1	20
551.146	1	12
551.486	1	-1
551.826	1	1
552.166	1	20
552.506	1	13
552.846	1	8
553.186	1	10
553.526	1	8
553.866	1	1
554.206	1	3
554.546	1	8
554.886	1	9
555.226	1	10
555.566	1	4
555.906	1	6
556.246	1	8
556.586	1	6
556.926	1	2
557.266	1	8
557.606	1	6
557.946	1	6
558.286	1	18
558.626	1	-1
558.966	1	9
559.306	1	10
559.646	1	10
559.986	1	12
560.325	1	-1
560.665	1	10
561.005	1	8
561.345	1	9
561.685	1	6
562.025	1	-10
562.365	1	14
562.705	1	9
563.045	1	9
563.385	1	12
563.725	1	-3
564.064	1	8
564.404	1	4
564.744	1	18
565.084	1	5
565.424	1	-9
565.764	1	-4
566.104	1	11
566.444	1	10
566.783	1	20
567.123	1	5
567.463	1	8
567.803	1	9
568.143	1	13
568.483	1	14
568.823	1	-4
569.162	1	8
569.502	1	0
569.842	1	8
570.182	1	3
570.522	1	-13
570.862	1	18
571.201	1	9
571.541	1	12
571.881	1	9
572.221	1	8
572.561	1	4
572.900	1	10
573.240	1	2
573.580	1	-1
573.920	1	6
574.260	1	1
574.599	1	9
574.939	1	13
575.279	1	1
575.619	1	8
575.959	1	8
576.298	1	2
576.638	1	2
576.978	1	3
577.318	1	5
577.657	1	9
577.997	1	13
578.337	1	1
578.677	1	10
579.016	1	4
579.356	1	19
579.696	1	3
580.036	1	2
580.375	1	4
580.715	1	3
581.055	1	1
581.394	1	5
581.734	1	10
582.074	1	1
582.414	1	3
582.753	1	6
583.093	1	7
583.433	1	11
583.772	1	6
584.112	1	10
584.452	1	11
584.791	1	8
585.131	1	16
585.471	1	-6
585.811	1	10
586.150	1	0
586.490	1	3
586.830	1	-10
587.169	1	11
587.509	1	6
587.849	1	6
588.188	1	10
588.528	1	17
588.867	1	10
589.207	1	-3
589.547	1	-2
589.886	1	3
590.226	1	9
590.566	1	5
590.905	1	10
591.245	1	2
591.585	1	8
591.924	1	7
592.264	1	2
592.603	1	2
592.943	1	7
593.283	1	7
593.622	1	1
593.962	1	8
594.301	1	-5
594.641	1	10
594.981	1	3
595.320	1	9
595.660	1	9
595.999	1	12
596.339	1	7
596.678	1	6
597.018	1	2
597.358	1	10
597.697	1	9
598.037	1	8
598.376	1	9
598.716	1	3
599.055	1	6
599.395	1	-7
599.734	1	-11
600.074	1	2
600.413	1	3
600.753	1	4
601.092	1	-2
601.432	1	3
601.771	1	18
602.111	1	0
602.451	1	6
602.790	1	0
603.130	1	8
603.469	1	7
603.809	1	5
604.148	1	13
604.487	1	9
604.827	1	9
605.166	1	11
605.506	1	10
605.845	1	2
606.185	1	0
606.524	1	0
606.864	1	18
607.203	1	1
607.543	1	3
607.882	1	10
608.222	1	-1
608.561	1	5
608.901	1	17
609.240	1	4
609.579	1	13
609.919	1	8
610.258	1	2
610.598	1	-4
610.937	1	10
611.277	1	11
611.616	1	-13
611.955	1	-2
612.295	1	8
612.634	1	15
612.974	1	5
613.313	1	4
613.652	1	-3
613.992	1	0
614.331	1	4
614.671	1	8
615.010	1	-6
615.349	1	0
615.689	1	1
616.028	1	14
616.368	1	10
616.707	1	20
617.046	1	8
617.386	1	2
617.725	1	2
618.064	1	10
618.404	1	-2
618.743	1	10
619.082	1	-3
619.422	1	-1
619.761	1	8
620.100	1	-2
620.440	1	5
620.779	1	8
621.118	1	0
621.458	1	9
621.797	1	-5
622.136	1	3
622.476	1	6
622.815	1	1
623.154	1	1
623.494	1	6
623.833	1	1
624.172	1	3
624.511	1	7
624.851	1	-4
625.190	1	2
625.529	1	3
625.869	1	0
626.208	1	7
626.547	1	10
626.886	1	8
627.226	1	-1
627.565	1	1
627.904	1	9
628.243	1	15
628.583	1	-8
628.922	1	-5
629.261	1	-4
629.600	1	7
629.940	1	12
630.279	1	12
630.618	1	-1
630.957	1	4
631.297	1	-2
631.636	1	-2
631.975	1	5
632.314	1	-2
632.653	1	3
632.993	1	13
633.332	1	-1
633.671	1	-1
634.010	1	-9
634.349	1	4
634.689	1	9
635.028	1	5
635.367	1	3
635.706	1	-6
636.045	1	11
636.384	1	1
636.724	1	12
637.063	1	-2
637.402	1	2
637.741	1	5
638.080	1	11
638.419	1	12
638.759	1	3
639.098	1	-3
639.437	1	14
639.776	1	3
640.115	1	5
640.454	1	10
640.793	1	-6
641.132	1	10
641.472	1	9
641.811	1	4
642.150	1	-1
642.489	1	1
642.828	1	-2
643.167	1	9
643.506	1	3
643.845	1	-3
644.184	1	-2
644.524	1	-5
644.863	1	3
645.202	1	9
645.541	1	8
645.880	1	10
646.219	1	10
646.558	1	7
646.897	1	-6
647.236	1	0
647.575	1	-5
647.914	1	0
648.253	1	4
648.592	1	-2
648.931	1	-3
649.270	1	-2
649.610	1	-2
649.949	1	-2
650.288	1	7
650.627	1	11
650.966	1	8
651.305	1	1
651.644	1	-2
651.983	1	-10
652.322	1	-6
652.661	1	-2
653.000	1	-2
653.339	1	8
653.678	1	-4
654.017	1	4
654.356	1	-2
654.695	1	-6
655.034	1	-4
655.373	1	3
655.712	1	5
656.051	1	12
656.390	1	3
656.729	1	8
657.068	1	7
657.406	1	0
657.745	1	-5
658.084	1	0
658.423	1	8
658.762	1	19
659.101	1	12
659.440	1	-7
659.779	1	1
660.118	1	-9
660.457	1	6
660.796	1	4
661.135	1	8
661.474	1	5
661.813	1	4
662.152	1	-3
662.491	1	12
662.829	1	14
663.168	1	1
663.507	1	7
663.846	1	-2
664.185	1	-10
664.524	1	-1
664.863	1	-3
665.202	1	1
665.541	1	3
665.879	1	3
666.218	1	8
666.557	1	4
666.896	1	6
667.235	1	1
667.574	1	16
667.913	1	18
668.251	1	9
668.590	1	5
668.929	1	1
669.268	1	-1
669.607	1	2
669.946	1	8
670.285	1	14
670.623	1	9
670.962	1	-2
671.301	1	-6
671.640	1	-3
671.979	1	-10
672.317	1	-5
672.656	1	-5
672.995	1	14
673.334	1	-10
673.673	1	0
674.011	1	4
674.350	1	1
674.689	1	6
675.028	1	9
675.367	1	1
675.705	1	11
676.044	1	4
676.383	1	5
676.722	1	-1
677.060	1	1
677.399	1	0
677.738	1	4
678.077	1	6
678.416	1	12
678.754	1	-2
679.093	1	7
679.432	1	-3
679.771	1	5
680.109	1	5
680.448	1	4
680.787	1	10
681.125	1	6
681.464	1	1
681.803	1	-1
682.142	1	-2
682.480	1	6
682.819	1	5
683.158	1	3
683.496	1	-1
683.835	1	-5
684.174	1	1
684.512	1	5
684.851	1	-5
685.190	1	2
685.529	1	-7
685.867	1	4
686.206	1	8
686.545	1	0
686.883	1	3
687.222	1	3
687.561	1	7
687.899	1	3
688.238	1	8
688.577	1	-4
688.746	1	7