File: Data/GaN_130K_350ms/GaN_sample F_spot6_UVVIS_130 K_200um_350 ms 2x2mm1_184.txt
340.368	1	4
340.710	1	-1
341.052	1	0
341.394	1	-3
341.737	1	11
342.079	1	-6
342.421	1	3
342.763	1	0
343.105	1	7
343.447	1	-1
343.789	1	3
344.131	1	0
344.473	1	2
344.815	1	-6
345.157	1	-12
345.499	1	0
345.841	1	-8
346.183	1	9
346.526	1	-4
346.868	1	5
347.210	1	-4
347.552	1	5
347.894	1	-1
348.236	1	6
348.578	1	-2
348.920	1	2
349.262	1	5
349.604	1	9
349.946	1	10
350.288	1	-3
350.630	1	8
350.972	1	7
351.314	1	1
351.656	1	10
351.998	1	13
352.340	1	9
352.682	1	1
353.024	1	-3
353.366	1	10
353.708	1	-6
354.050	1	10
354.392	1	8
354.734	1	-10
355.076	1	5
355.418	1	10
355.760	1	2
356.102	1	7
356.444	1	-9
356.785	1	7
357.127	1	5
357.469	1	2
357.811	1	1
358.153	1	-2
358.495	1	10
358.837	1	6
359.179	1	12
359.521	1	2
359.863	1	7
360.205	1	5
360.547	1	1
360.889	1	6
361.231	1	-3
361.572	1	15
361.914	1	6
362.256	1	12
362.598	1	4
362.940	1	13
363.282	1	14
363.624	1	15
363.966	1	23
364.308	1	18
364.649	1	17
364.991	1	10
365.333	1	15
365.675	1	22
366.017	1	14
366.359	1	29
366.701	1	11
367.042	1	25
367.384	1	31
367.726	1	18
368.068	1	8
368.410	1	15
368.752	1	26
369.093	1	12
369.435	1	17
369.777	1	17
370.119	1	29
370.461	1	25
370.803	1	23
371.144	1	16
371.486	1	23
371.828	1	18
372.170	1	9
372.512	1	16
372.853	1	13
373.195	1	20
373.537	1	12
373.879	1	19
374.220	1	6
374.562	1	5
374.904	1	10
375.246	1	21
375.588	1	8
375.929	1	4
376.271	1	13
376.613	1	5
376.955	1	7
377.296	1	2
377.638	1	-7
377.980	1	-4
378.321	1	8
378.663	1	15
379.005	1	24
379.347	1	10
379.688	1	8
380.030	1	15
380.372	1	4
380.714	1	14
381.055	1	4
381.397	1	5
381.739	1	9
382.080	1	-1
382.422	1	15
382.764	1	5
383.105	1	3
383.447	1	12
383.789	1	10
384.130	1	4
384.472	1	13
384.814	1	3
385.156	1	20
385.497	1	7
385.839	1	10
386.180	1	7
386.522	1	9
386.864	1	13
387.205	1	0
387.547	1	10
387.889	1	5
388.230	1	1
388.572	1	9
388.914	1	6
389.255	1	7
389.597	1	-1
389.939	1	13
390.280	1	9
390.622	1	10
390.963	1	11
391.305	1	4
391.647	1	16
391.988	1	16
392.330	1	7
392.671	1	-5
393.013	1	7
393.355	1	-3
393.696	1	-6
394.038	1	12
394.379	1	12
394.721	1	3
395.062	1	14
395.404	1	-3
395.746	1	16
396.087	1	18
396.429	1	14
396.770	1	7
397.112	1	8
397.453	1	12
397.795	1	1
398.136	1	10
398.478	1	5
398.819	1	-7
399.161	1	16
399.503	1	16
399.844	1	-4
400.186	1	3
400.527	1	10
400.869	1	11
401.210	1	7
401.552	1	10
401.893	1	-1
402.235	1	2
402.576	1	6
402.918	1	13
403.259	1	-3
403.601	1	9
403.942	1	11
404.284	1	2
404.625	1	13
404.967	1	2
405.308	1	7
405.649	1	8
405.991	1	8
406.332	1	25
406.674	1	20
407.015	1	14
407.357	1	1
407.698	1	6
408.040	1	5
408.381	1	19
408.722	1	7
409.064	1	4
409.405	1	4
409.747	1	5
410.088	1	11
410.430	1	18
410.771	1	-7
411.112	1	14
411.454	1	3
411.795	1	6
412.137	1	6
412.478	1	9
412.819	1	2
413.161	1	14
413.502	1	21
413.844	1	-1
414.185	1	11
414.526	1	6
414.868	1	7
415.209	1	3
415.550	1	11
415.892	1	11
416.233	1	5
416.575	1	9
416.916	1	5
417.257	1	-1
417.599	1	6
417.940	1	10
418.281	1	6
418.623	1	6
418.964	1	-1
419.305	1	3
419.647	1	15
419.988	1	23
420.329	1	5
420.671	1	-3
421.012	1	10
421.353	1	9
421.695	1	6
422.036	1	17
422.377	1	12
422.718	1	9
423.060	1	9
423.401	1	4
423.742	1	7
424.084	1	12
424.425	1	2
424.766	1	10
425.107	1	5
425.449	1	4
425.790	1	13
426.131	1	20
426.472	1	10
426.814	1	4
427.155	1	1
427.496	1	8
427.837	1	8
428.179	1	7
428.520	1	15
428.861	1	5
429.202	1	10
429.544	1	8
429.885	1	6
430.226	1	6
430.567	1	0
430.909	1	7
431.250	1	9
431.591	1	7
431.932	1	10
432.273	1	9
432.615	1	15
432.956	1	6
433.297	1	14
433.638	1	6
433.979	1	4
434.320	1	6
434.662	1	1
435.003	1	24
435.344	1	0
435.685	1	-14
436.026	1	4
436.368	1	6
436.709	1	-2
437.050	1	7
437.391	1	10
437.732	1	-6
438.073	1	14
438.414	1	-2
438.756	1	6
439.097	1	12
439.438	1	10
439.779	1	19
440.120	1	3
440.461	1	11
440.802	1	1
441.143	1	-4
441.485	1	10
441.826	1	12
442.167	1	13
442.508	1	2
442.849	1	6
443.190	1	5
443.531	1	-2
443.872	1	5
444.213	1	9
444.554	1	7
444.895	1	1
445.237	1	-2
445.578	1	-1
445.919	1	3
446.260	1	1
446.601	1	4
446.942	1	6
447.283	1	6
447.624	1	2
447.965	1	8
448.306	1	8
448.647	1	18
448.988	1	5
449.329	1	8
449.670	1	-1
450.011	1	-1
450.352	1	12
450.693	1	-2
451.034	1	3
451.375	1	3
451.716	1	-4
452.057	1	15
452.398	1	5
452.739	1	7
453.080	1	10
453.421	1	2
453.762	1	7
454.103	1	7
454.444	1	3
454.785	1	12
455.126	1	-7
455.467	1	9
455.808	1	12
456.149	1	-3
456.490	1	10
456.831	1	2
457.172	1	0
457.513	1	-3
457.854	1	1
458.195	1	-2
458.536	1	-2
458.877	1	24
459.218	1	6
459.559	1	5
459.899	1	5
460.240	1	17
460.581	1	-1
460.922	1	2
461.263	1	7
461.604	1	1
461.945	1	17
462.286	1	9
462.627	1	-4
462.968	1	-6
463.309	1	4
463.649	1	1
463.990	1	1
464.331	1	10
464.672	1	12
465.013	1	0
465.354	1	7
465.695	1	8
466.036	1	5
466.376	1	3
466.717	1	17
467.058	1	6
467.399	1	2
467.740	1	14
468.081	1	7
468.422	1	7
468.762	1	-1
469.103	1	13
469.444	1	5
469.785	1	4
470.126	1	-4
470.467	1	5
470.807	1	3
471.148	1	-1
471.489	1	-1
471.830	1	3
472.171	1	-5
472.511	1	-6
472.852	1	23
473.193	1	4
473.534	1	-1
473.875	1	17
474.215	1	-5
474.556	1	2
474.897	1	-1
475.238	1	14
475.578	1	-6
475.919	1	-9
476.260	1	-1
476.601	1	-2
476.942	1	3
477.282	1	11
477.623	1	-4
477.964	1	-4
478.305	1	15
478.645	1	2
478.986	1	1
479.327	1	4
479.667	1	-1
480.008	1	1
480.349	1	1
480.690	1	5
481.030	1	6
481.371	1	5
481.712	1	5
482.053	1	0
482.393	1	13
482.734	1	6
483.075	1	10
483.415	1	-4
483.756	1	-3
484.097	1	-2
484.437	1	1
484.778	1	10
485.119	1	9
485.459	1	-2
485.800	1	8
486.141	1	0
486.481	1	-6
486.822	1	14
487.163	1	-4
487.503	1	-2
487.844	1	6
488.185	1	4
488.525	1	12
488.866	1	5
489.207	1	0
489.547	1	5
489.888	1	6
490.228	1	11
490.569	1	5
490.910	1	-3
491.250	1	12
491.591	1	-3
491.932	1	3
492.272	1	1
492.613	1	12
492.953	1	4
493.294	1	11
493.635	1	12
493.975	1	11
494.316	1	1
494.656	1	5
494.997	1	2
495.337	1	-6
495.678	1	4
496.019	1	-7
496.359	1	14
496.700	1	5
497.040	1	13
497.381	1	2
497.721	1	7
498.062	1	5
498.403	1	-8
498.743	1	13
499.084	1	11
499.424	1	-5
499.765	1	-9
500.105	1	8
500.446	1	8
500.786	1	12
501.127	1	0
501.467	1	1
501.808	1	1
502.148	1	8
502.489	1	3
502.829	1	3
503.170	1	5
503.510	1	7
503.851	1	2
504.191	1	14
504.532	1	3
504.872	1	11
505.213	1	2
505.553	1	11
505.894	1	17
506.234	1	11
506.575	1	4
506.915	1	6
507.256	1	10
507.596	1	3
507.936	1	-1
508.277	1	3
508.617	1	1
508.958	1	9
509.298	1	-14
509.639	1	7
509.979	1	3
510.319	1	21
510.660	1	3
511.000	1	3
511.341	1	-3
511.681	1	15
512.022	1	11
512.362	1	13
512.702	1	5
513.043	1	14
513.383	1	1
513.724	1	-7
514.064	1	8
514.404	1	10
514.745	1	4
515.085	1	10
515.425	1	5
515.766	1	13
516.106	1	-5
516.447	1	4
516.787	1	5
517.127	1	-2
517.468	1	12
517.808	1	2
518.148	1	11
518.489	1	6
518.829	1	22
519.169	1	15
519.510	1	3
519.850	1	16
520.190	1	22
520.531	1	11
520.871	1	9
521.211	1	11
521.552	1	6
521.892	1	10
522.232	1	1
522.573	1	7
522.913	1	9
523.253	1	17
523.593	1	12
523.934	1	9
524.274	1	-3
524.614	1	19
524.955	1	15
525.295	1	16
525.635	1	3
525.975	1	20
526.316	1	3
526.656	1	13
526.996	1	5
527.337	1	14
527.677	1	0
528.017	1	2
528.357	1	13
528.698	1	4
529.038	1	8
529.378	1	10
529.718	1	9
530.058	1	1
530.399	1	11
530.739	1	14
531.079	1	17
531.419	1	7
531.760	1	4
532.100	1	13
532.440	1	12
532.780	1	1
533.120	1	19
533.461	1	4
533.801	1	17
534.141	1	1
534.481	1	13
534.821	1	18
535.162	1	14
535.502	1	12
535.842	1	15
536.182	1	9
536.522	1	-1
536.862	1	3
537.203	1	2
537.543	1	11
537.883	1	1
538.223	1	18
538.563	1	19
538.903	1	20
539.243	1	2
539.584	1	10
539.924	1	7
540.264	1	8
540.604	1	4
540.944	1	13
541.284	1	6
541.624	1	16
541.964	1	12
542.305	1	2
542.645	1	2
542.985	1	13
543.325	1	5
543.665	1	18
544.005	1	7
544.345	1	6
544.685	1	16
545.025	1	5
545.365	1	15
545.705	1	1
546.045	1	8
546.386	1	4
546.726	1	4
547.066	1	23
547.406	1	1
547.746	1	10
548.086	1	1
548.426	1	8
548.766	1	10
549.106	1	3
549.446	1	-1
549.786	1	14
550.126	1	15
550.466	1	14
550.806	1	8
551.146	1	5
551.486	1	-6
551.826	1	7
552.166	1	19
552.506	1	14
552.846	1	7
553.186	1	2
553.526	1	0
553.866	1	1
554.206	1	2
554.546	1	10
554.886	1	-6
555.226	1	12
555.566	1	1
555.906	1	10
556.246	1	4
556.586	1	5
556.926	1	10
557.266	1	0
557.606	1	10
557.946	1	6
558.286	1	22
558.626	1	-7
558.966	1	8
559.306	1	4
559.646	1	12
559.986	1	8
560.325	1	1
560.665	1	14
561.005	1	-1
561.345	1	11
561.685	1	8
562.025	1	8
562.365	1	8
562.705	1	12
563.045	1	-4
563.385	1	5
563.725	1	3
564.064	1	1
564.404	1	3
564.744	1	-4
565.084	1	1
565.424	1	-6
565.764	1	15
566.104	1	-3
566.444	1	4
566.783	1	9
567.123	1	8
567.463	1	12
567.803	1	7
568.143	1	15
568.483	1	7
568.823	1	-2
569.162	1	5
569.502	1	2
569.842	1	-3
570.182	1	-1
570.522	1	-5
570.862	1	12
571.201	1	6
571.541	1	9
571.881	1	6
572.221	1	8
572.561	1	0
572.900	1	5
573.240	1	-9
573.580	1	4
573.920	1	3
574.260	1	3
574.599	1	10
574.939	1	11
575.279	1	-1
575.619	1	1
575.959	1	5
576.298	1	6
576.638	1	0
576.978	1	-6
577.318	1	1
577.657	1	13
577.997	1	-1
578.337	1	8
578.677	1	12
579.016	1	5
579.356	1	1
579.696	1	1
580.036	1	2
580.375	1	-8
580.715	1	11
581.055	1	-6
581.394	1	-1
581.734	1	8
582.074	1	-3
582.414	1	-5
582.753	1	3
583.093	1	10
583.433	1	5
583.772	1	4
584.112	1	10
584.452	1	17
584.791	1	9
585.131	1	9
585.471	1	1
585.811	1	2
586.150	1	6
586.490	1	0
586.830	1	-3
587.169	1	2
587.509	1	7
587.849	1	9
588.188	1	17
588.528	1	8
588.867	1	7
589.207	1	3
589.547	1	-2
589.886	1	2
590.226	1	9
590.566	1	-3
590.905	1	11
591.245	1	4
591.585	1	5
591.924	1	4
592.264	1	1
592.603	1	0
592.943	1	4
593.283	1	-3
593.622	1	-1
593.962	1	-3
594.301	1	-7
594.641	1	5
594.981	1	-1
595.320	1	5
595.660	1	0
595.999	1	13
596.339	1	4
596.678	1	7
597.018	1	5
597.358	1	1
597.697	1	-2
598.037	1	2
598.376	1	-6
598.716	1	8
599.055	1	1
599.395	1	-6
599.734	1	-1
600.074	1	3
600.413	1	12
600.753	1	-1
601.092	1	8
601.432	1	-6
601.771	1	4
602.111	1	9
602.451	1	10
602.790	1	1
603.130	1	12
603.469	1	7
603.809	1	2
604.148	1	9
604.487	1	12
604.827	1	10
605.166	1	8
605.506	1	8
605.845	1	-6
606.185	1	9
606.524	1	10
606.864	1	14
607.203	1	3
607.543	1	-3
607.882	1	3
608.222	1	-4
608.561	1	-2
608.901	1	14
609.240	1	-4
609.579	1	12
609.919	1	8
610.258	1	-2
610.598	1	8
610.937	1	10
611.277	1	9
611.616	1	-7
611.955	1	9
612.295	1	13
612.634	1	-3
612.974	1	7
613.313	1	-2
613.652	1	-1
613.992	1	0
614.331	1	10
614.671	1	4
615.010	1	-5
615.349	1	-3
615.689	1	3
616.028	1	11
616.368	1	4
616.707	1	10
617.046	1	8
617.386	1	0
617.725	1	-4
618.064	1	3
618.404	1	2
618.743	1	10
619.082	1	-3
619.422	1	8
619.761	1	8
620.100	1	8
620.440	1	3
620.779	1	7
621.118	1	6
621.458	1	11
621.797	1	6
622.136	1	3
622.476	1	18
622.815	1	4
623.154	1	5
623.494	1	11
623.833	1	13
624.172	1	-1
624.511	1	8
624.851	1	3
625.190	1	-3
625.529	1	0
625.869	1	8
626.208	1	5
626.547	1	4
626.886	1	-1
627.226	1	3
627.565	1	12
627.904	1	9
628.243	1	11
628.583	1	-7
628.922	1	-11
629.261	1	-7
629.600	1	1
629.940	1	13
630.279	1	15
630.618	1	0
630.957	1	1
631.297	1	5
631.636	1	4
631.975	1	0
632.314	1	3
632.653	1	5
632.993	1	5
633.332	1	2
633.671	1	-3
634.010	1	-7
634.349	1	6
634.689	1	9
635.028	1	10
635.367	1	2
635.706	1	-6
636.045	1	15
636.384	1	-3
636.724	1	6
637.063	1	11
637.402	1	1
637.741	1	7
638.080	1	9
638.419	1	9
638.759	1	1
639.098	1	-5
639.437	1	7
639.776	1	-3
640.115	1	4
640.454	1	3
640.793	1	-6
641.132	1	9
641.472	1	3
641.811	1	5
642.150	1	-6
642.489	1	-2
642.828	1	-3
643.167	1	8
643.506	1	13
643.845	1	-2
644.184	1	-2
644.524	1	3
644.863	1	1
645.202	1	5
645.541	1	4
645.880	1	8
646.219	1	4
646.558	1	-6
646.897	1	-1
647.236	1	-3
647.575	1	-9
647.914	1	-8
648.253	1	-1
648.592	1	3
648.931	1	-4
649.270	1	2
649.610	1	9
649.949	1	5
650.288	1	10
650.627	1	5
650.966	1	9
651.305	1	-5
651.644	1	7
651.983	1	-16
652.322	1	12
652.661	1	4
653.000	1	2
653.339	1	6
653.678	1	10
654.017	1	-2
654.356	1	6
654.695	1	-2
655.034	1	-1
655.373	1	1
655.712	1	-2
656.051	1	3
656.390	1	-2
656.729	1	9
657.068	1	10
657.406	1	10
657.745	1	1
658.084	1	-2
658.423	1	9
658.762	1	7
659.101	1	19
659.440	1	-7
659.779	1	-5
660.118	1	-1
660.457	1	4
660.796	1	8
661.135	1	6
661.474	1	5
661.813	1	6
662.152	1	7
662.491	1	15
662.829	1	10
663.168	1	-13
663.507	1	-2
663.846	1	3
664.185	1	1
664.524	1	-10
664.863	1	5
665.202	1	-2
665.541	1	-5
665.879	1	5
666.218	1	-3
666.557	1	2
666.896	1	8
667.235	1	-1
667.574	1	12
667.913	1	8
668.251	1	-1
668.590	1	8
668.929	1	8
669.268	1	-4
669.607	1	-3
669.946	1	8
670.285	1	6
670.623	1	11
670.962	1	-4
671.301	1	-4
671.640	1	-3
671.979	1	6
672.317	1	-5
672.656	1	1
672.995	1	4
673.334	1	-5
673.673	1	9
674.011	1	5
674.350	1	1
674.689	1	7
675.028	1	10
675.367	1	1
675.705	1	14
676.044	1	14
676.383	1	3
676.722	1	-2
677.060	1	1
677.399	1	-4
677.738	1	-4
678.077	1	4
678.416	1	11
678.754	1	-1
679.093	1	4
679.432	1	11
679.771	1	6
680.109	1	2
680.448	1	10
680.787	1	11
681.125	1	9
681.464	1	7
681.803	1	-8
682.142	1	-8
682.480	1	6
682.819	1	10
683.158	1	13
683.496	1	7
683.835	1	-1
684.174	1	2
684.512	1	8
684.851	1	4
685.190	1	3
685.529	1	0
685.867	1	-7
686.206	1	16
686.545	1	4
686.883	1	3
687.222	1	3
687.561	1	7
687.899	1	0
688.238	1	9
688.577	1	2
688.746	1	5