File: Data/GaN_130K_350ms/GaN_sample F_spot6_UVVIS_130 K_200um_350 ms 2x2mm1_133.txt
340.368	1	9
340.710	1	10
341.052	1	-6
341.394	1	1
341.737	1	3
342.079	1	3
342.421	1	13
342.763	1	5
343.105	1	5
343.447	1	5
343.789	1	-5
344.131	1	3
344.473	1	-1
344.815	1	-1
345.157	1	-3
345.499	1	2
345.841	1	-4
346.183	1	7
346.526	1	9
346.868	1	3
347.210	1	5
347.552	1	2
347.894	1	1
348.236	1	5
348.578	1	-2
348.920	1	-2
349.262	1	11
349.604	1	5
349.946	1	-2
350.288	1	-1
350.630	1	10
350.972	1	11
351.314	1	2
351.656	1	13
351.998	1	3
352.340	1	20
352.682	1	8
353.024	1	3
353.366	1	8
353.708	1	-4
354.050	1	21
354.392	1	7
354.734	1	6
355.076	1	2
355.418	1	7
355.760	1	7
356.102	1	6
356.444	1	3
356.785	1	16
357.127	1	13
357.469	1	8
357.811	1	14
358.153	1	-5
358.495	1	10
358.837	1	9
359.179	1	9
359.521	1	11
359.863	1	11
360.205	1	13
360.547	1	11
360.889	1	17
361.231	1	6
361.572	1	23
361.914	1	11
362.256	1	19
362.598	1	27
362.940	1	25
363.282	1	18
363.624	1	28
363.966	1	32
364.308	1	32
364.649	1	38
364.991	1	36
365.333	1	23
365.675	1	43
366.017	1	42
366.359	1	52
366.701	1	51
367.042	1	55
367.384	1	59
367.726	1	45
368.068	1	42
368.410	1	39
368.752	1	57
369.093	1	44
369.435	1	47
369.777	1	49
370.119	1	49
370.461	1	51
370.803	1	40
371.144	1	42
371.486	1	39
371.828	1	36
372.170	1	33
372.512	1	46
372.853	1	20
373.195	1	24
373.537	1	32
373.879	1	31
374.220	1	25
374.562	1	29
374.904	1	21
375.246	1	33
375.588	1	23
375.929	1	11
376.271	1	27
376.613	1	13
376.955	1	20
377.296	1	19
377.638	1	8
377.980	1	17
378.321	1	22
378.663	1	16
379.005	1	31
379.347	1	17
379.688	1	17
380.030	1	6
380.372	1	18
380.714	1	27
381.055	1	14
381.397	1	11
381.739	1	22
382.080	1	10
382.422	1	18
382.764	1	18
383.105	1	18
383.447	1	16
383.789	1	12
384.130	1	10
384.472	1	20
384.814	1	2
385.156	1	9
385.497	1	12
385.839	1	11
386.180	1	22
386.522	1	7
386.864	1	18
387.205	1	13
387.547	1	19
387.889	1	9
388.230	1	3
388.572	1	10
388.914	1	13
389.255	1	11
389.597	1	9
389.939	1	17
390.280	1	12
390.622	1	4
390.963	1	13
391.305	1	8
391.647	1	6
391.988	1	16
392.330	1	7
392.671	1	-3
393.013	1	13
393.355	1	2
393.696	1	5
394.038	1	17
394.379	1	21
394.721	1	9
395.062	1	7
395.404	1	-5
395.746	1	19
396.087	1	23
396.429	1	7
396.770	1	7
397.112	1	8
397.453	1	14
397.795	1	6
398.136	1	13
398.478	1	14
398.819	1	0
399.161	1	20
399.503	1	16
399.844	1	-1
400.186	1	4
400.527	1	3
400.869	1	16
401.210	1	2
401.552	1	12
401.893	1	-7
402.235	1	7
402.576	1	10
402.918	1	12
403.259	1	2
403.601	1	10
403.942	1	4
404.284	1	1
404.625	1	22
404.967	1	4
405.308	1	14
405.649	1	12
405.991	1	9
406.332	1	21
406.674	1	14
407.015	1	10
407.357	1	10
407.698	1	4
408.040	1	0
408.381	1	21
408.722	1	2
409.064	1	13
409.405	1	13
409.747	1	0
410.088	1	4
410.430	1	17
410.771	1	-6
411.112	1	18
411.454	1	4
411.795	1	18
412.137	1	-1
412.478	1	9
412.819	1	15
413.161	1	15
413.502	1	22
413.844	1	6
414.185	1	13
414.526	1	5
414.868	1	2
415.209	1	3
415.550	1	3
415.892	1	16
416.233	1	10
416.575	1	10
416.916	1	14
417.257	1	15
417.599	1	16
417.940	1	2
418.281	1	3
418.623	1	11
418.964	1	4
419.305	1	7
419.647	1	20
419.988	1	15
420.329	1	16
420.671	1	3
421.012	1	2
421.353	1	15
421.695	1	0
422.036	1	4
422.377	1	21
422.718	1	10
423.060	1	11
423.401	1	13
423.742	1	9
424.084	1	10
424.425	1	17
424.766	1	9
425.107	1	9
425.449	1	13
425.790	1	14
426.131	1	13
426.472	1	0
426.814	1	11
427.155	1	4
427.496	1	5
427.837	1	5
428.179	1	8
428.520	1	-4
428.861	1	5
429.202	1	18
429.544	1	13
429.885	1	12
430.226	1	13
430.567	1	10
430.909	1	2
431.250	1	14
431.591	1	5
431.932	1	3
432.273	1	-1
432.615	1	25
432.956	1	3
433.297	1	16
433.638	1	12
433.979	1	13
434.320	1	9
434.662	1	14
435.003	1	21
435.344	1	18
435.685	1	-4
436.026	1	10
436.368	1	9
436.709	1	5
437.050	1	12
437.391	1	27
437.732	1	2
438.073	1	18
438.414	1	7
438.756	1	0
439.097	1	13
439.438	1	13
439.779	1	13
440.120	1	4
440.461	1	10
440.802	1	-6
441.143	1	3
441.485	1	14
441.826	1	10
442.167	1	11
442.508	1	0
442.849	1	8
443.190	1	6
443.531	1	-2
443.872	1	3
444.213	1	7
444.554	1	14
444.895	1	4
445.237	1	5
445.578	1	3
445.919	1	7
446.260	1	2
446.601	1	9
446.942	1	8
447.283	1	12
447.624	1	13
447.965	1	7
448.306	1	7
448.647	1	8
448.988	1	2
449.329	1	5
449.670	1	11
450.011	1	9
450.352	1	6
450.693	1	1
451.034	1	-1
451.375	1	11
451.716	1	5
452.057	1	12
452.398	1	-4
452.739	1	8
453.080	1	4
453.421	1	11
453.762	1	11
454.103	1	-2
454.444	1	6
454.785	1	7
455.126	1	-5
455.467	1	6
455.808	1	17
456.149	1	0
456.490	1	11
456.831	1	17
457.172	1	-5
457.513	1	-4
457.854	1	-1
458.195	1	-5
458.536	1	4
458.877	1	24
459.218	1	6
459.559	1	8
459.899	1	2
460.240	1	14
460.581	1	3
460.922	1	9
461.263	1	2
461.604	1	-18
461.945	1	14
462.286	1	12
462.627	1	3
462.968	1	0
463.309	1	8
463.649	1	1
463.990	1	0
464.331	1	7
464.672	1	12
465.013	1	-7
465.354	1	3
465.695	1	15
466.036	1	7
466.376	1	5
466.717	1	15
467.058	1	7
467.399	1	-6
467.740	1	18
468.081	1	14
468.422	1	10
468.762	1	-8
469.103	1	12
469.444	1	-1
469.785	1	18
470.126	1	-9
470.467	1	11
470.807	1	7
471.148	1	5
471.489	1	0
471.830	1	1
472.171	1	4
472.511	1	13
472.852	1	15
473.193	1	9
473.534	1	7
473.875	1	23
474.215	1	-2
474.556	1	4
474.897	1	2
475.238	1	15
475.578	1	7
475.919	1	-4
476.260	1	-3
476.601	1	6
476.942	1	12
477.282	1	7
477.623	1	8
477.964	1	8
478.305	1	18
478.645	1	-7
478.986	1	3
479.327	1	3
479.667	1	8
480.008	1	7
480.349	1	2
480.690	1	11
481.030	1	9
481.371	1	11
481.712	1	1
482.053	1	2
482.393	1	19
482.734	1	2
483.075	1	20
483.415	1	3
483.756	1	12
484.097	1	1
484.437	1	-1
484.778	1	14
485.119	1	11
485.459	1	0
485.800	1	6
486.141	1	4
486.481	1	-1
486.822	1	9
487.163	1	-3
487.503	1	-8
487.844	1	2
488.185	1	4
488.525	1	9
488.866	1	10
489.207	1	-1
489.547	1	7
489.888	1	14
490.228	1	16
490.569	1	9
490.910	1	0
491.250	1	8
491.591	1	5
491.932	1	6
492.272	1	5
492.613	1	13
492.953	1	14
493.294	1	13
493.635	1	8
493.975	1	14
494.316	1	8
494.656	1	12
494.997	1	7
495.337	1	0
495.678	1	17
496.019	1	-1
496.359	1	19
496.700	1	5
497.040	1	20
497.381	1	8
497.721	1	9
498.062	1	5
498.403	1	7
498.743	1	14
499.084	1	16
499.424	1	-3
499.765	1	2
500.105	1	11
500.446	1	15
500.786	1	14
501.127	1	13
501.467	1	3
501.808	1	17
502.148	1	5
502.489	1	0
502.829	1	4
503.170	1	5
503.510	1	8
503.851	1	2
504.191	1	9
504.532	1	11
504.872	1	11
505.213	1	10
505.553	1	17
505.894	1	12
506.234	1	9
506.575	1	17
506.915	1	14
507.256	1	23
507.596	1	7
507.936	1	-3
508.277	1	8
508.617	1	6
508.958	1	13
509.298	1	12
509.639	1	8
509.979	1	17
510.319	1	28
510.660	1	12
511.000	1	12
511.341	1	9
511.681	1	18
512.022	1	27
512.362	1	3
512.702	1	20
513.043	1	22
513.383	1	18
513.724	1	16
514.064	1	6
514.404	1	27
514.745	1	7
515.085	1	26
515.425	1	5
515.766	1	23
516.106	1	3
516.447	1	9
516.787	1	27
517.127	1	25
517.468	1	18
517.808	1	17
518.148	1	20
518.489	1	20
518.829	1	18
519.169	1	22
519.510	1	15
519.850	1	31
520.190	1	23
520.531	1	17
520.871	1	10
521.211	1	18
521.552	1	21
521.892	1	15
522.232	1	3
522.573	1	19
522.913	1	21
523.253	1	18
523.593	1	25
523.934	1	14
524.274	1	6
524.614	1	22
524.955	1	24
525.295	1	22
525.635	1	17
525.975	1	26
526.316	1	5
526.656	1	22
526.996	1	12
527.337	1	25
527.677	1	5
528.017	1	26
528.357	1	21
528.698	1	16
529.038	1	19
529.378	1	25
529.718	1	25
530.058	1	17
530.399	1	19
530.739	1	15
531.079	1	23
531.419	1	27
531.760	1	14
532.100	1	19
532.440	1	30
532.780	1	11
533.120	1	6
533.461	1	19
533.801	1	26
534.141	1	15
534.481	1	24
534.821	1	22
535.162	1	28
535.502	1	14
535.842	1	22
536.182	1	28
536.522	1	15
536.862	1	16
537.203	1	8
537.543	1	23
537.883	1	4
538.223	1	25
538.563	1	21
538.903	1	25
539.243	1	14
539.584	1	21
539.924	1	17
540.264	1	16
540.604	1	12
540.944	1	17
541.284	1	14
541.624	1	32
541.964	1	20
542.305	1	17
542.645	1	0
542.985	1	24
543.325	1	27
543.665	1	19
544.005	1	13
544.345	1	18
544.685	1	19
545.025	1	9
545.365	1	23
545.705	1	9
546.045	1	15
546.386	1	5
546.726	1	12
547.066	1	14
547.406	1	1
547.746	1	13
548.086	1	4
548.426	1	14
548.766	1	17
549.106	1	10
549.446	1	5
549.786	1	17
550.126	1	21
550.466	1	16
550.806	1	28
551.146	1	12
551.486	1	15
551.826	1	18
552.166	1	15
552.506	1	17
552.846	1	7
553.186	1	17
553.526	1	13
553.866	1	5
554.206	1	11
554.546	1	15
554.886	1	6
555.226	1	16
555.566	1	11
555.906	1	11
556.246	1	8
556.586	1	15
556.926	1	17
557.266	1	17
557.606	1	6
557.946	1	11
558.286	1	26
558.626	1	-6
558.966	1	10
559.306	1	5
559.646	1	4
559.986	1	20
560.325	1	10
560.665	1	16
561.005	1	15
561.345	1	12
561.685	1	13
562.025	1	11
562.365	1	12
562.705	1	8
563.045	1	0
563.385	1	15
563.725	1	9
564.064	1	18
564.404	1	14
564.744	1	15
565.084	1	8
565.424	1	-6
565.764	1	17
566.104	1	22
566.444	1	22
566.783	1	20
567.123	1	5
567.463	1	5
567.803	1	16
568.143	1	15
568.483	1	9
568.823	1	4
569.162	1	26
569.502	1	9
569.842	1	4
570.182	1	12
570.522	1	-7
570.862	1	13
571.201	1	3
571.541	1	7
571.881	1	8
572.221	1	13
572.561	1	8
572.900	1	16
573.240	1	8
573.580	1	10
573.920	1	18
574.260	1	7
574.599	1	14
574.939	1	13
575.279	1	2
575.619	1	11
575.959	1	4
576.298	1	8
576.638	1	0
576.978	1	-2
577.318	1	10
577.657	1	20
577.997	1	9
578.337	1	16
578.677	1	30
579.016	1	7
579.356	1	15
579.696	1	0
580.036	1	8
580.375	1	0
580.715	1	14
581.055	1	1
581.394	1	3
581.734	1	11
582.074	1	6
582.414	1	4
582.753	1	2
583.093	1	6
583.433	1	16
583.772	1	8
584.112	1	15
584.452	1	7
584.791	1	3
585.131	1	14
585.471	1	9
585.811	1	1
586.150	1	10
586.490	1	10
586.830	1	2
587.169	1	7
587.509	1	10
587.849	1	3
588.188	1	12
588.528	1	14
588.867	1	10
589.207	1	-3
589.547	1	-2
589.886	1	11
590.226	1	18
590.566	1	3
590.905	1	12
591.245	1	8
591.585	1	3
591.924	1	8
592.264	1	-6
592.603	1	4
592.943	1	1
593.283	1	6
593.622	1	5
593.962	1	14
594.301	1	-6
594.641	1	8
594.981	1	-6
595.320	1	11
595.660	1	13
595.999	1	22
596.339	1	11
596.678	1	7
597.018	1	8
597.358	1	-4
597.697	1	-5
598.037	1	15
598.376	1	2
598.716	1	0
599.055	1	6
599.395	1	6
599.734	1	0
600.074	1	13
600.413	1	11
600.753	1	4
601.092	1	5
601.432	1	-4
601.771	1	21
602.111	1	5
602.451	1	5
602.790	1	3
603.130	1	15
603.469	1	15
603.809	1	10
604.148	1	12
604.487	1	11
604.827	1	-1
605.166	1	5
605.506	1	-2
605.845	1	4
606.185	1	13
606.524	1	6
606.864	1	10
607.203	1	-5
607.543	1	2
607.882	1	10
608.222	1	-7
608.561	1	5
608.901	1	12
609.240	1	-5
609.579	1	14
609.919	1	5
610.258	1	5
610.598	1	2
610.937	1	16
611.277	1	11
611.616	1	2
611.955	1	-4
612.295	1	14
612.634	1	3
612.974	1	0
613.313	1	4
613.652	1	-2
613.992	1	2
614.331	1	3
614.671	1	11
615.010	1	0
615.349	1	-3
615.689	1	8
616.028	1	12
616.368	1	2
616.707	1	11
617.046	1	9
617.386	1	-9
617.725	1	4
618.064	1	2
618.404	1	10
618.743	1	8
619.082	1	6
619.422	1	3
619.761	1	5
620.100	1	3
620.440	1	8
620.779	1	7
621.118	1	2
621.458	1	5
621.797	1	7
622.136	1	6
622.476	1	15
622.815	1	-2
623.154	1	-1
623.494	1	9
623.833	1	14
624.172	1	10
624.511	1	8
624.851	1	-4
625.190	1	-10
625.529	1	3
625.869	1	5
626.208	1	11
626.547	1	9
626.886	1	2
627.226	1	1
627.565	1	6
627.904	1	5
628.243	1	12
628.583	1	-7
628.922	1	-6
629.261	1	-13
629.600	1	1
629.940	1	13
630.279	1	10
630.618	1	-1
630.957	1	0
631.297	1	0
631.636	1	12
631.975	1	3
632.314	1	4
632.653	1	3
632.993	1	10
633.332	1	2
633.671	1	0
634.010	1	1
634.349	1	-7
634.689	1	15
635.028	1	13
635.367	1	7
635.706	1	2
636.045	1	14
636.384	1	4
636.724	1	8
637.063	1	6
637.402	1	-3
637.741	1	5
638.080	1	3
638.419	1	-1
638.759	1	8
639.098	1	-1
639.437	1	13
639.776	1	-3
640.115	1	7
640.454	1	8
640.793	1	-6
641.132	1	7
641.472	1	-1
641.811	1	9
642.150	1	-5
642.489	1	1
642.828	1	0
643.167	1	3
643.506	1	13
643.845	1	0
644.184	1	3
644.524	1	6
644.863	1	3
645.202	1	10
645.541	1	1
645.880	1	0
646.219	1	4
646.558	1	4
646.897	1	6
647.236	1	4
647.575	1	1
647.914	1	-5
648.253	1	3
648.592	1	-3
648.931	1	-13
649.270	1	-3
649.610	1	11
649.949	1	9
650.288	1	12
650.627	1	3
650.966	1	11
651.305	1	6
651.644	1	8
651.983	1	-5
652.322	1	-7
652.661	1	6
653.000	1	-1
653.339	1	14
653.678	1	0
654.017	1	3
654.356	1	3
654.695	1	-1
655.034	1	8
655.373	1	8
655.712	1	6
656.051	1	8
656.390	1	7
656.729	1	2
657.068	1	5
657.406	1	7
657.745	1	4
658.084	1	1
658.423	1	6
658.762	1	16
659.101	1	12
659.440	1	-3
659.779	1	6
660.118	1	-2
660.457	1	4
660.796	1	8
661.135	1	10
661.474	1	5
661.813	1	2
662.152	1	-2
662.491	1	19
662.829	1	5
663.168	1	6
663.507	1	4
663.846	1	-4
664.185	1	4
664.524	1	-3
664.863	1	3
665.202	1	0
665.541	1	-1
665.879	1	5
666.218	1	2
666.557	1	4
666.896	1	7
667.235	1	13
667.574	1	14
667.913	1	15
668.251	1	7
668.590	1	2
668.929	1	8
669.268	1	-3
669.607	1	6
669.946	1	4
670.285	1	10
670.623	1	8
670.962	1	-3
671.301	1	2
671.640	1	-7
671.979	1	-2
672.317	1	1
672.656	1	-1
672.995	1	3
673.334	1	-3
673.673	1	12
674.011	1	-3
674.350	1	6
674.689	1	1
675.028	1	15
675.367	1	-6
675.705	1	10
676.044	1	4
676.383	1	2
676.722	1	6
677.060	1	8
677.399	1	0
677.738	1	-3
678.077	1	2
678.416	1	12
678.754	1	6
679.093	1	-4
679.432	1	3
679.771	1	5
680.109	1	1
680.448	1	12
680.787	1	2
681.125	1	11
681.464	1	1
681.803	1	5
682.142	1	1
682.480	1	17
682.819	1	8
683.158	1	9
683.496	1	-2
683.835	1	-2
684.174	1	9
684.512	1	7
684.851	1	-4
685.190	1	1
685.529	1	1
685.867	1	-6
686.206	1	9
686.545	1	4
686.883	1	-5
687.222	1	-2
687.561	1	16
687.899	1	1
688.238	1	14
688.577	1	-8
688.746	1	12