File: Data/GaN_130K_350ms/GaN_sample F_spot6_UVVIS_130 K_200um_350 ms 2x2mm1_111.txt
340.368	1	11
340.710	1	9
341.052	1	-2
341.394	1	-8
341.737	1	6
342.079	1	11
342.421	1	5
342.763	1	2
343.105	1	0
343.447	1	9
343.789	1	2
344.131	1	16
344.473	1	1
344.815	1	-1
345.157	1	-12
345.499	1	-8
345.841	1	4
346.183	1	9
346.526	1	5
346.868	1	8
347.210	1	6
347.552	1	3
347.894	1	3
348.236	1	5
348.578	1	4
348.920	1	13
349.262	1	7
349.604	1	11
349.946	1	22
350.288	1	-3
350.630	1	13
350.972	1	14
351.314	1	-3
351.656	1	19
351.998	1	7
352.340	1	6
352.682	1	6
353.024	1	-2
353.366	1	13
353.708	1	3
354.050	1	8
354.392	1	13
354.734	1	7
355.076	1	16
355.418	1	13
355.760	1	13
356.102	1	10
356.444	1	0
356.785	1	12
357.127	1	20
357.469	1	10
357.811	1	3
358.153	1	10
358.495	1	15
358.837	1	12
359.179	1	10
359.521	1	7
359.863	1	12
360.205	1	22
360.547	1	26
360.889	1	20
361.231	1	28
361.572	1	34
361.914	1	32
362.256	1	36
362.598	1	40
362.940	1	24
363.282	1	41
363.624	1	48
363.966	1	52
364.308	1	70
364.649	1	58
364.991	1	61
365.333	1	54
365.675	1	70
366.017	1	73
366.359	1	79
366.701	1	84
367.042	1	92
367.384	1	103
367.726	1	86
368.068	1	72
368.410	1	80
368.752	1	89
369.093	1	86
369.435	1	69
369.777	1	69
370.119	1	82
370.461	1	78
370.803	1	71
371.144	1	62
371.486	1	75
371.828	1	58
372.170	1	57
372.512	1	56
372.853	1	57
373.195	1	53
373.537	1	53
373.879	1	54
374.220	1	46
374.562	1	37
374.904	1	50
375.246	1	46
375.588	1	38
375.929	1	34
376.271	1	37
376.613	1	29
376.955	1	35
377.296	1	30
377.638	1	32
377.980	1	28
378.321	1	24
378.663	1	25
379.005	1	38
379.347	1	35
379.688	1	16
380.030	1	22
380.372	1	45
380.714	1	27
381.055	1	28
381.397	1	25
381.739	1	23
382.080	1	16
382.422	1	31
382.764	1	15
383.105	1	16
383.447	1	21
383.789	1	24
384.130	1	27
384.472	1	24
384.814	1	19
385.156	1	22
385.497	1	30
385.839	1	25
386.180	1	24
386.522	1	17
386.864	1	31
387.205	1	13
387.547	1	21
387.889	1	12
388.230	1	18
388.572	1	23
388.914	1	20
389.255	1	17
389.597	1	1
389.939	1	20
390.280	1	19
390.622	1	18
390.963	1	19
391.305	1	18
391.647	1	16
391.988	1	26
392.330	1	10
392.671	1	11
393.013	1	21
393.355	1	14
393.696	1	14
394.038	1	17
394.379	1	15
394.721	1	5
395.062	1	8
395.404	1	0
395.746	1	13
396.087	1	15
396.429	1	11
396.770	1	15
397.112	1	19
397.453	1	18
397.795	1	10
398.136	1	16
398.478	1	9
398.819	1	4
399.161	1	19
399.503	1	23
399.844	1	5
400.186	1	4
400.527	1	22
400.869	1	11
401.210	1	7
401.552	1	12
401.893	1	-2
402.235	1	17
402.576	1	17
402.918	1	22
403.259	1	8
403.601	1	9
403.942	1	3
404.284	1	9
404.625	1	22
404.967	1	7
405.308	1	8
405.649	1	17
405.991	1	19
406.332	1	12
406.674	1	20
407.015	1	13
407.357	1	10
407.698	1	17
408.040	1	13
408.381	1	9
408.722	1	6
409.064	1	11
409.405	1	10
409.747	1	10
410.088	1	16
410.430	1	13
410.771	1	-5
411.112	1	22
411.454	1	15
411.795	1	12
412.137	1	6
412.478	1	11
412.819	1	13
413.161	1	21
413.502	1	13
413.844	1	12
414.185	1	15
414.526	1	7
414.868	1	8
415.209	1	6
415.550	1	11
415.892	1	14
416.233	1	16
416.575	1	15
416.916	1	14
417.257	1	11
417.599	1	4
417.940	1	14
418.281	1	13
418.623	1	5
418.964	1	4
419.305	1	9
419.647	1	16
419.988	1	18
420.329	1	11
420.671	1	5
421.012	1	2
421.353	1	2
421.695	1	2
422.036	1	16
422.377	1	11
422.718	1	10
423.060	1	19
423.401	1	8
423.742	1	15
424.084	1	17
424.425	1	11
424.766	1	12
425.107	1	9
425.449	1	10
425.790	1	22
426.131	1	14
426.472	1	4
426.814	1	14
427.155	1	6
427.496	1	18
427.837	1	11
428.179	1	9
428.520	1	3
428.861	1	6
429.202	1	15
429.544	1	20
429.885	1	9
430.226	1	8
430.567	1	10
430.909	1	4
431.250	1	11
431.591	1	10
431.932	1	10
432.273	1	15
432.615	1	17
432.956	1	-2
433.297	1	21
433.638	1	12
433.979	1	8
434.320	1	9
434.662	1	5
435.003	1	12
435.344	1	12
435.685	1	-11
436.026	1	8
436.368	1	5
436.709	1	6
437.050	1	13
437.391	1	21
437.732	1	17
438.073	1	15
438.414	1	3
438.756	1	5
439.097	1	9
439.438	1	13
439.779	1	10
440.120	1	4
440.461	1	12
440.802	1	0
441.143	1	2
441.485	1	7
441.826	1	9
442.167	1	3
442.508	1	-2
442.849	1	7
443.190	1	7
443.531	1	10
443.872	1	10
444.213	1	5
444.554	1	4
444.895	1	1
445.237	1	-9
445.578	1	10
445.919	1	7
446.260	1	2
446.601	1	12
446.942	1	3
447.283	1	8
447.624	1	5
447.965	1	9
448.306	1	14
448.647	1	17
448.988	1	4
449.329	1	0
449.670	1	3
450.011	1	-1
450.352	1	8
450.693	1	2
451.034	1	4
451.375	1	5
451.716	1	-2
452.057	1	18
452.398	1	-2
452.739	1	13
453.080	1	6
453.421	1	5
453.762	1	7
454.103	1	2
454.444	1	10
454.785	1	11
455.126	1	-3
455.467	1	7
455.808	1	8
456.149	1	7
456.490	1	5
456.831	1	8
457.172	1	9
457.513	1	0
457.854	1	10
458.195	1	-8
458.536	1	6
458.877	1	19
459.218	1	8
459.559	1	2
459.899	1	-5
460.240	1	16
460.581	1	10
460.922	1	16
461.263	1	6
461.604	1	-4
461.945	1	13
462.286	1	10
462.627	1	-9
462.968	1	10
463.309	1	12
463.649	1	-3
463.990	1	6
464.331	1	18
464.672	1	10
465.013	1	-3
465.354	1	6
465.695	1	13
466.036	1	4
466.376	1	7
466.717	1	19
467.058	1	10
467.399	1	9
467.740	1	17
468.081	1	19
468.422	1	17
468.762	1	5
469.103	1	4
469.444	1	6
469.785	1	14
470.126	1	8
470.467	1	17
470.807	1	13
471.148	1	12
471.489	1	-5
471.830	1	9
472.171	1	-2
472.511	1	-2
472.852	1	13
473.193	1	10
473.534	1	7
473.875	1	19
474.215	1	6
474.556	1	8
474.897	1	-7
475.238	1	14
475.578	1	0
475.919	1	-3
476.260	1	14
476.601	1	-2
476.942	1	18
477.282	1	6
477.623	1	-7
477.964	1	8
478.305	1	14
478.645	1	4
478.986	1	11
479.327	1	3
479.667	1	9
480.008	1	-2
480.349	1	3
480.690	1	10
481.030	1	2
481.371	1	17
481.712	1	4
482.053	1	7
482.393	1	17
482.734	1	1
483.075	1	14
483.415	1	6
483.756	1	14
484.097	1	9
484.437	1	7
484.778	1	23
485.119	1	10
485.459	1	-1
485.800	1	13
486.141	1	4
486.481	1	5
486.822	1	9
487.163	1	0
487.503	1	1
487.844	1	-1
488.185	1	13
488.525	1	10
488.866	1	5
489.207	1	-2
489.547	1	10
489.888	1	15
490.228	1	13
490.569	1	15
490.910	1	14
491.250	1	13
491.591	1	6
491.932	1	13
492.272	1	5
492.613	1	6
492.953	1	9
493.294	1	18
493.635	1	18
493.975	1	17
494.316	1	19
494.656	1	7
494.997	1	10
495.337	1	12
495.678	1	0
496.019	1	5
496.359	1	27
496.700	1	14
497.040	1	23
497.381	1	13
497.721	1	14
498.062	1	0
498.403	1	6
498.743	1	21
499.084	1	19
499.424	1	4
499.765	1	11
500.105	1	25
500.446	1	24
500.786	1	23
501.127	1	16
501.467	1	25
501.808	1	12
502.148	1	23
502.489	1	19
502.829	1	17
503.170	1	15
503.510	1	27
503.851	1	10
504.191	1	15
504.532	1	18
504.872	1	18
505.213	1	19
505.553	1	15
505.894	1	26
506.234	1	14
506.575	1	19
506.915	1	26
507.256	1	33
507.596	1	22
507.936	1	16
508.277	1	35
508.617	1	27
508.958	1	19
509.298	1	26
509.639	1	31
509.979	1	15
510.319	1	31
510.660	1	21
511.000	1	28
511.341	1	16
511.681	1	28
512.022	1	42
512.362	1	18
512.702	1	34
513.043	1	29
513.383	1	26
513.724	1	22
514.064	1	9
514.404	1	21
514.745	1	30
515.085	1	35
515.425	1	21
515.766	1	41
516.106	1	19
516.447	1	32
516.787	1	25
517.127	1	36
517.468	1	42
517.808	1	16
518.148	1	35
518.489	1	44
518.829	1	29
519.169	1	31
519.510	1	27
519.850	1	45
520.190	1	42
520.531	1	46
520.871	1	31
521.211	1	43
521.552	1	27
521.892	1	25
522.232	1	30
522.573	1	30
522.913	1	23
523.253	1	33
523.593	1	51
523.934	1	32
524.274	1	26
524.614	1	37
524.955	1	49
525.295	1	41
525.635	1	23
525.975	1	45
526.316	1	35
526.656	1	43
526.996	1	32
527.337	1	43
527.677	1	23
528.017	1	31
528.357	1	39
528.698	1	23
529.038	1	23
529.378	1	39
529.718	1	46
530.058	1	39
530.399	1	29
530.739	1	40
531.079	1	38
531.419	1	32
531.760	1	29
532.100	1	36
532.440	1	40
532.780	1	34
533.120	1	31
533.461	1	33
533.801	1	38
534.141	1	35
534.481	1	45
534.821	1	39
535.162	1	39
535.502	1	39
535.842	1	39
536.182	1	31
536.522	1	34
536.862	1	27
537.203	1	25
537.543	1	42
537.883	1	27
538.223	1	26
538.563	1	41
538.903	1	44
539.243	1	26
539.584	1	34
539.924	1	28
540.264	1	18
540.604	1	38
540.944	1	30
541.284	1	25
541.624	1	41
541.964	1	22
542.305	1	28
542.645	1	30
542.985	1	36
543.325	1	31
543.665	1	28
544.005	1	29
544.345	1	39
544.685	1	26
545.025	1	29
545.365	1	39
545.705	1	34
546.045	1	25
546.386	1	37
546.726	1	29
547.066	1	23
547.406	1	11
547.746	1	33
548.086	1	28
548.426	1	29
548.766	1	33
549.106	1	16
549.446	1	35
549.786	1	28
550.126	1	35
550.466	1	39
550.806	1	24
551.146	1	35
551.486	1	32
551.826	1	25
552.166	1	23
552.506	1	21
552.846	1	11
553.186	1	16
553.526	1	20
553.866	1	16
554.206	1	25
554.546	1	34
554.886	1	19
555.226	1	28
555.566	1	20
555.906	1	17
556.246	1	29
556.586	1	26
556.926	1	27
557.266	1	19
557.606	1	14
557.946	1	19
558.286	1	26
558.626	1	12
558.966	1	22
559.306	1	13
559.646	1	23
559.986	1	22
560.325	1	10
560.665	1	28
561.005	1	26
561.345	1	15
561.685	1	22
562.025	1	8
562.365	1	21
562.705	1	23
563.045	1	12
563.385	1	20
563.725	1	21
564.064	1	27
564.404	1	10
564.744	1	20
565.084	1	16
565.424	1	13
565.764	1	19
566.104	1	16
566.444	1	22
566.783	1	27
567.123	1	15
567.463	1	13
567.803	1	17
568.143	1	28
568.483	1	26
568.823	1	4
569.162	1	16
569.502	1	15
569.842	1	11
570.182	1	7
570.522	1	6
570.862	1	25
571.201	1	14
571.541	1	12
571.881	1	15
572.221	1	17
572.561	1	18
572.900	1	11
573.240	1	11
573.580	1	13
573.920	1	16
574.260	1	20
574.599	1	21
574.939	1	24
575.279	1	2
575.619	1	30
575.959	1	12
576.298	1	11
576.638	1	4
576.978	1	7
577.318	1	16
577.657	1	21
577.997	1	20
578.337	1	7
578.677	1	14
579.016	1	14
579.356	1	18
579.696	1	5
580.036	1	9
580.375	1	10
580.715	1	14
581.055	1	10
581.394	1	3
581.734	1	14
582.074	1	8
582.414	1	9
582.753	1	10
583.093	1	12
583.433	1	14
583.772	1	12
584.112	1	17
584.452	1	21
584.791	1	5
585.131	1	13
585.471	1	12
585.811	1	14
586.150	1	12
586.490	1	15
586.830	1	3
587.169	1	21
587.509	1	7
587.849	1	9
588.188	1	9
588.528	1	17
588.867	1	22
589.207	1	5
589.547	1	2
589.886	1	15
590.226	1	22
590.566	1	20
590.905	1	7
591.245	1	9
591.585	1	8
591.924	1	6
592.264	1	8
592.603	1	1
592.943	1	-3
593.283	1	2
593.622	1	8
593.962	1	15
594.301	1	-2
594.641	1	9
594.981	1	-3
595.320	1	13
595.660	1	9
595.999	1	13
596.339	1	18
596.678	1	3
597.018	1	5
597.358	1	7
597.697	1	11
598.037	1	15
598.376	1	8
598.716	1	14
599.055	1	10
599.395	1	-6
599.734	1	0
600.074	1	18
600.413	1	26
600.753	1	11
601.092	1	12
601.432	1	1
601.771	1	16
602.111	1	13
602.451	1	3
602.790	1	4
603.130	1	7
603.469	1	1
603.809	1	13
604.148	1	15
604.487	1	13
604.827	1	9
605.166	1	17
605.506	1	3
605.845	1	8
606.185	1	3
606.524	1	9
606.864	1	19
607.203	1	11
607.543	1	8
607.882	1	9
608.222	1	-7
608.561	1	0
608.901	1	9
609.240	1	-1
609.579	1	10
609.919	1	15
610.258	1	2
610.598	1	8
610.937	1	13
611.277	1	9
611.616	1	-6
611.955	1	8
612.295	1	20
612.634	1	2
612.974	1	18
613.313	1	8
613.652	1	10
613.992	1	2
614.331	1	14
614.671	1	11
615.010	1	-6
615.349	1	10
615.689	1	6
616.028	1	15
616.368	1	16
616.707	1	5
617.046	1	14
617.386	1	5
617.725	1	2
618.064	1	13
618.404	1	15
618.743	1	8
619.082	1	15
619.422	1	4
619.761	1	7
620.100	1	-7
620.440	1	8
620.779	1	12
621.118	1	13
621.458	1	18
621.797	1	-2
622.136	1	6
622.476	1	10
622.815	1	2
623.154	1	3
623.494	1	7
623.833	1	10
624.172	1	4
624.511	1	4
624.851	1	8
625.190	1	0
625.529	1	5
625.869	1	1
626.208	1	9
626.547	1	1
626.886	1	7
627.226	1	-4
627.565	1	-1
627.904	1	11
628.243	1	10
628.583	1	-12
628.922	1	1
629.261	1	5
629.600	1	12
629.940	1	15
630.279	1	19
630.618	1	4
630.957	1	7
631.297	1	-3
631.636	1	10
631.975	1	10
632.314	1	1
632.653	1	7
632.993	1	8
633.332	1	1
633.671	1	-9
634.010	1	4
634.349	1	6
634.689	1	12
635.028	1	13
635.367	1	8
635.706	1	2
636.045	1	18
636.384	1	7
636.724	1	20
637.063	1	11
637.402	1	10
637.741	1	8
638.080	1	4
638.419	1	13
638.759	1	10
639.098	1	-8
639.437	1	17
639.776	1	1
640.115	1	6
640.454	1	6
640.793	1	-16
641.132	1	5
641.472	1	3
641.811	1	5
642.150	1	-7
642.489	1	9
642.828	1	-2
643.167	1	12
643.506	1	17
643.845	1	0
644.184	1	-2
644.524	1	7
644.863	1	5
645.202	1	7
645.541	1	-6
645.880	1	7
646.219	1	8
646.558	1	-4
646.897	1	-1
647.236	1	-3
647.575	1	-6
647.914	1	8
648.253	1	4
648.592	1	0
648.931	1	-7
649.270	1	-5
649.610	1	2
649.949	1	10
650.288	1	7
650.627	1	12
650.966	1	8
651.305	1	0
651.644	1	1
651.983	1	-7
652.322	1	7
652.661	1	-6
653.000	1	4
653.339	1	8
653.678	1	6
654.017	1	-2
654.356	1	7
654.695	1	-9
655.034	1	0
655.373	1	1
655.712	1	7
656.051	1	13
656.390	1	4
656.729	1	11
657.068	1	6
657.406	1	-2
657.745	1	0
658.084	1	1
658.423	1	-3
658.762	1	18
659.101	1	14
659.440	1	-5
659.779	1	1
660.118	1	-1
660.457	1	4
660.796	1	14
661.135	1	8
661.474	1	2
661.813	1	2
662.152	1	8
662.491	1	25
662.829	1	5
663.168	1	-7
663.507	1	2
663.846	1	-1
664.185	1	8
664.524	1	1
664.863	1	0
665.202	1	5
665.541	1	-3
665.879	1	7
666.218	1	12
666.557	1	12
666.896	1	7
667.235	1	11
667.574	1	17
667.913	1	8
668.251	1	1
668.590	1	-5
668.929	1	7
669.268	1	6
669.607	1	2
669.946	1	10
670.285	1	7
670.623	1	20
670.962	1	-5
671.301	1	3
671.640	1	1
671.979	1	2
672.317	1	0
672.656	1	6
672.995	1	1
673.334	1	4
673.673	1	12
674.011	1	-3
674.350	1	6
674.689	1	8
675.028	1	19
675.367	1	7
675.705	1	19
676.044	1	2
676.383	1	7
676.722	1	2
677.060	1	6
677.399	1	1
677.738	1	-4
678.077	1	1
678.416	1	12
678.754	1	5
679.093	1	5
679.432	1	6
679.771	1	9
680.109	1	1
680.448	1	10
680.787	1	8
681.125	1	15
681.464	1	9
681.803	1	0
682.142	1	-3
682.480	1	7
682.819	1	12
683.158	1	5
683.496	1	1
683.835	1	-8
684.174	1	6
684.512	1	9
684.851	1	7
685.190	1	5
685.529	1	-6
685.867	1	6
686.206	1	7
686.545	1	-6
686.883	1	-1
687.222	1	9
687.561	1	23
687.899	1	6
688.238	1	16
688.577	1	-5
688.746	1	11