File: Data/GaN_130K_350ms/GaN_sample F_spot6_UVVIS_130 K_200um_350 ms 2x2mm1_221.txt
340.368	1	2
340.710	1	6
341.052	1	-6
341.394	1	0
341.737	1	12
342.079	1	3
342.421	1	5
342.763	1	10
343.105	1	-4
343.447	1	12
343.789	1	1
344.131	1	1
344.473	1	1
344.815	1	-3
345.157	1	-2
345.499	1	-1
345.841	1	7
346.183	1	12
346.526	1	0
346.868	1	2
347.210	1	1
347.552	1	2
347.894	1	8
348.236	1	1
348.578	1	7
348.920	1	-4
349.262	1	11
349.604	1	6
349.946	1	4
350.288	1	-3
350.630	1	5
350.972	1	11
351.314	1	9
351.656	1	25
351.998	1	3
352.340	1	13
352.682	1	1
353.024	1	8
353.366	1	6
353.708	1	-4
354.050	1	3
354.392	1	10
354.734	1	-1
355.076	1	4
355.418	1	-3
355.760	1	4
356.102	1	4
356.444	1	-12
356.785	1	7
357.127	1	9
357.469	1	3
357.811	1	9
358.153	1	1
358.495	1	5
358.837	1	4
359.179	1	8
359.521	1	-7
359.863	1	6
360.205	1	-2
360.547	1	4
360.889	1	4
361.231	1	-3
361.572	1	16
361.914	1	6
362.256	1	-1
362.598	1	11
362.940	1	1
363.282	1	16
363.624	1	10
363.966	1	25
364.308	1	16
364.649	1	13
364.991	1	8
365.333	1	5
365.675	1	22
366.017	1	16
366.359	1	15
366.701	1	20
367.042	1	12
367.384	1	27
367.726	1	10
368.068	1	11
368.410	1	9
368.752	1	21
369.093	1	17
369.435	1	11
369.777	1	27
370.119	1	17
370.461	1	16
370.803	1	10
371.144	1	18
371.486	1	15
371.828	1	21
372.170	1	13
372.512	1	15
372.853	1	4
373.195	1	7
373.537	1	12
373.879	1	11
374.220	1	-1
374.562	1	0
374.904	1	6
375.246	1	22
375.588	1	7
375.929	1	1
376.271	1	10
376.613	1	-1
376.955	1	13
377.296	1	10
377.638	1	-10
377.980	1	4
378.321	1	2
378.663	1	13
379.005	1	13
379.347	1	8
379.688	1	4
380.030	1	5
380.372	1	8
380.714	1	18
381.055	1	11
381.397	1	2
381.739	1	9
382.080	1	6
382.422	1	17
382.764	1	-1
383.105	1	1
383.447	1	5
383.789	1	5
384.130	1	5
384.472	1	11
384.814	1	0
385.156	1	2
385.497	1	7
385.839	1	4
386.180	1	10
386.522	1	10
386.864	1	11
387.205	1	3
387.547	1	14
387.889	1	0
388.230	1	1
388.572	1	17
388.914	1	6
389.255	1	6
389.597	1	3
389.939	1	12
390.280	1	14
390.622	1	-4
390.963	1	11
391.305	1	11
391.647	1	6
391.988	1	13
392.330	1	1
392.671	1	-1
393.013	1	2
393.355	1	-1
393.696	1	-4
394.038	1	10
394.379	1	3
394.721	1	8
395.062	1	4
395.404	1	0
395.746	1	8
396.087	1	12
396.429	1	3
396.770	1	12
397.112	1	15
397.453	1	17
397.795	1	-5
398.136	1	2
398.478	1	9
398.819	1	-7
399.161	1	7
399.503	1	12
399.844	1	-5
400.186	1	-4
400.527	1	15
400.869	1	3
401.210	1	-4
401.552	1	19
401.893	1	-5
402.235	1	10
402.576	1	-1
402.918	1	20
403.259	1	1
403.601	1	1
403.942	1	-2
404.284	1	-5
404.625	1	20
404.967	1	4
405.308	1	-1
405.649	1	7
405.991	1	12
406.332	1	9
406.674	1	13
407.015	1	1
407.357	1	4
407.698	1	-2
408.040	1	4
408.381	1	5
408.722	1	14
409.064	1	11
409.405	1	2
409.747	1	3
410.088	1	19
410.430	1	21
410.771	1	-18
411.112	1	19
411.454	1	7
411.795	1	2
412.137	1	-6
412.478	1	6
412.819	1	2
413.161	1	10
413.502	1	11
413.844	1	8
414.185	1	7
414.526	1	2
414.868	1	0
415.209	1	4
415.550	1	3
415.892	1	4
416.233	1	11
416.575	1	14
416.916	1	-1
417.257	1	12
417.599	1	4
417.940	1	6
418.281	1	10
418.623	1	4
418.964	1	8
419.305	1	7
419.647	1	6
419.988	1	19
420.329	1	13
420.671	1	-4
421.012	1	-3
421.353	1	-3
421.695	1	0
422.036	1	8
422.377	1	10
422.718	1	4
423.060	1	12
423.401	1	6
423.742	1	-2
424.084	1	8
424.425	1	6
424.766	1	14
425.107	1	14
425.449	1	9
425.790	1	13
426.131	1	14
426.472	1	4
426.814	1	14
427.155	1	1
427.496	1	3
427.837	1	3
428.179	1	1
428.520	1	9
428.861	1	7
429.202	1	7
429.544	1	8
429.885	1	4
430.226	1	9
430.567	1	4
430.909	1	7
431.250	1	11
431.591	1	3
431.932	1	11
432.273	1	13
432.615	1	10
432.956	1	-10
433.297	1	11
433.638	1	5
433.979	1	2
434.320	1	8
434.662	1	1
435.003	1	14
435.344	1	12
435.685	1	0
436.026	1	11
436.368	1	4
436.709	1	5
437.050	1	8
437.391	1	11
437.732	1	8
438.073	1	17
438.414	1	-7
438.756	1	6
439.097	1	9
439.438	1	5
439.779	1	13
440.120	1	-5
440.461	1	14
440.802	1	-2
441.143	1	-5
441.485	1	6
441.826	1	1
442.167	1	9
442.508	1	5
442.849	1	9
443.190	1	0
443.531	1	10
443.872	1	15
444.213	1	-1
444.554	1	0
444.895	1	11
445.237	1	-9
445.578	1	0
445.919	1	5
446.260	1	10
446.601	1	10
446.942	1	2
447.283	1	6
447.624	1	4
447.965	1	4
448.306	1	7
448.647	1	14
448.988	1	6
449.329	1	4
449.670	1	0
450.011	1	-4
450.352	1	13
450.693	1	6
451.034	1	-4
451.375	1	-3
451.716	1	-5
452.057	1	12
452.398	1	-8
452.739	1	7
453.080	1	1
453.421	1	2
453.762	1	6
454.103	1	-4
454.444	1	11
454.785	1	11
455.126	1	-2
455.467	1	7
455.808	1	10
456.149	1	-4
456.490	1	5
456.831	1	7
457.172	1	-2
457.513	1	-3
457.854	1	1
458.195	1	-12
458.536	1	2
458.877	1	21
459.218	1	3
459.559	1	3
459.899	1	3
460.240	1	8
460.581	1	-6
460.922	1	2
461.263	1	10
461.604	1	-4
461.945	1	10
462.286	1	-2
462.627	1	-2
462.968	1	0
463.309	1	2
463.649	1	-1
463.990	1	1
464.331	1	11
464.672	1	3
465.013	1	-5
465.354	1	2
465.695	1	14
466.036	1	9
466.376	1	4
466.717	1	8
467.058	1	5
467.399	1	-3
467.740	1	16
468.081	1	9
468.422	1	11
468.762	1	5
469.103	1	9
469.444	1	9
469.785	1	10
470.126	1	-8
470.467	1	1
470.807	1	7
471.148	1	1
471.489	1	-3
471.830	1	5
472.171	1	9
472.511	1	10
472.852	1	6
473.193	1	-1
473.534	1	-4
473.875	1	11
474.215	1	8
474.556	1	2
474.897	1	-3
475.238	1	15
475.578	1	13
475.919	1	-2
476.260	1	1
476.601	1	0
476.942	1	4
477.282	1	0
477.623	1	-5
477.964	1	0
478.305	1	10
478.645	1	-2
478.986	1	-1
479.327	1	-5
479.667	1	5
480.008	1	2
480.349	1	4
480.690	1	12
481.030	1	-3
481.371	1	7
481.712	1	9
482.053	1	7
482.393	1	10
482.734	1	14
483.075	1	11
483.415	1	6
483.756	1	-8
484.097	1	-1
484.437	1	5
484.778	1	3
485.119	1	3
485.459	1	1
485.800	1	14
486.141	1	5
486.481	1	-1
486.822	1	13
487.163	1	5
487.503	1	0
487.844	1	5
488.185	1	0
488.525	1	1
488.866	1	4
489.207	1	2
489.547	1	0
489.888	1	12
490.228	1	3
490.569	1	6
490.910	1	-4
491.250	1	3
491.591	1	-9
491.932	1	0
492.272	1	1
492.613	1	3
492.953	1	9
493.294	1	10
493.635	1	6
493.975	1	9
494.316	1	2
494.656	1	4
494.997	1	2
495.337	1	1
495.678	1	-6
496.019	1	-6
496.359	1	11
496.700	1	2
497.040	1	4
497.381	1	-2
497.721	1	1
498.062	1	5
498.403	1	-1
498.743	1	14
499.084	1	9
499.424	1	-13
499.765	1	-2
500.105	1	0
500.446	1	5
500.786	1	2
501.127	1	2
501.467	1	-8
501.808	1	2
502.148	1	3
502.489	1	11
502.829	1	-2
503.170	1	-5
503.510	1	6
503.851	1	-3
504.191	1	5
504.532	1	6
504.872	1	13
505.213	1	-1
505.553	1	2
505.894	1	3
506.234	1	-6
506.575	1	-6
506.915	1	-1
507.256	1	12
507.596	1	-1
507.936	1	6
508.277	1	6
508.617	1	-3
508.958	1	11
509.298	1	7
509.639	1	7
509.979	1	3
510.319	1	15
510.660	1	2
511.000	1	-1
511.341	1	-3
511.681	1	9
512.022	1	9
512.362	1	1
512.702	1	4
513.043	1	9
513.383	1	1
513.724	1	-1
514.064	1	3
514.404	1	9
514.745	1	3
515.085	1	11
515.425	1	5
515.766	1	11
516.106	1	6
516.447	1	4
516.787	1	7
517.127	1	7
517.468	1	10
517.808	1	0
518.148	1	12
518.489	1	8
518.829	1	7
519.169	1	5
519.510	1	7
519.850	1	18
520.190	1	14
520.531	1	10
520.871	1	2
521.211	1	13
521.552	1	0
521.892	1	8
522.232	1	3
522.573	1	2
522.913	1	12
523.253	1	7
523.593	1	14
523.934	1	9
524.274	1	3
524.614	1	4
524.955	1	14
525.295	1	5
525.635	1	2
525.975	1	19
526.316	1	-5
526.656	1	8
526.996	1	8
527.337	1	22
527.677	1	-4
528.017	1	1
528.357	1	5
528.698	1	0
529.038	1	-4
529.378	1	10
529.718	1	23
530.058	1	11
530.399	1	8
530.739	1	6
531.079	1	5
531.419	1	17
531.760	1	5
532.100	1	10
532.440	1	13
532.780	1	8
533.120	1	7
533.461	1	11
533.801	1	10
534.141	1	4
534.481	1	0
534.821	1	15
535.162	1	12
535.502	1	3
535.842	1	13
536.182	1	10
536.522	1	2
536.862	1	5
537.203	1	-1
537.543	1	12
537.883	1	-4
538.223	1	12
538.563	1	10
538.903	1	16
539.243	1	9
539.584	1	20
539.924	1	6
540.264	1	3
540.604	1	5
540.944	1	0
541.284	1	11
541.624	1	7
541.964	1	-3
542.305	1	9
542.645	1	8
542.985	1	7
543.325	1	5
543.665	1	15
544.005	1	14
544.345	1	9
544.685	1	13
545.025	1	2
545.365	1	13
545.705	1	-1
546.045	1	6
546.386	1	7
546.726	1	-1
547.066	1	13
547.406	1	-11
547.746	1	6
548.086	1	-8
548.426	1	7
548.766	1	11
549.106	1	-7
549.446	1	4
549.786	1	9
550.126	1	16
550.466	1	15
550.806	1	10
551.146	1	1
551.486	1	7
551.826	1	5
552.166	1	13
552.506	1	3
552.846	1	5
553.186	1	3
553.526	1	12
553.866	1	-6
554.206	1	-2
554.546	1	3
554.886	1	-3
555.226	1	9
555.566	1	-2
555.906	1	2
556.246	1	16
556.586	1	3
556.926	1	-1
557.266	1	7
557.606	1	0
557.946	1	8
558.286	1	9
558.626	1	-3
558.966	1	7
559.306	1	5
559.646	1	5
559.986	1	10
560.325	1	-6
560.665	1	12
561.005	1	6
561.345	1	11
561.685	1	2
562.025	1	-3
562.365	1	9
562.705	1	7
563.045	1	-6
563.385	1	6
563.725	1	3
564.064	1	2
564.404	1	8
564.744	1	7
565.084	1	1
565.424	1	-4
565.764	1	13
566.104	1	6
566.444	1	11
566.783	1	14
567.123	1	10
567.463	1	3
567.803	1	16
568.143	1	15
568.483	1	-1
568.823	1	-2
569.162	1	9
569.502	1	7
569.842	1	5
570.182	1	4
570.522	1	-9
570.862	1	18
571.201	1	12
571.541	1	0
571.881	1	1
572.221	1	5
572.561	1	6
572.900	1	13
573.240	1	0
573.580	1	1
573.920	1	14
574.260	1	3
574.599	1	11
574.939	1	5
575.279	1	-16
575.619	1	5
575.959	1	0
576.298	1	-3
576.638	1	-2
576.978	1	-9
577.318	1	3
577.657	1	11
577.997	1	11
578.337	1	0
578.677	1	8
579.016	1	1
579.356	1	11
579.696	1	3
580.036	1	-5
580.375	1	-9
580.715	1	11
581.055	1	0
581.394	1	2
581.734	1	6
582.074	1	3
582.414	1	-10
582.753	1	6
583.093	1	11
583.433	1	10
583.772	1	3
584.112	1	3
584.452	1	10
584.791	1	6
585.131	1	13
585.471	1	8
585.811	1	8
586.150	1	16
586.490	1	4
586.830	1	-1
587.169	1	2
587.509	1	6
587.849	1	1
588.188	1	3
588.528	1	15
588.867	1	5
589.207	1	-1
589.547	1	0
589.886	1	-3
590.226	1	3
590.566	1	7
590.905	1	12
591.245	1	-2
591.585	1	-1
591.924	1	6
592.264	1	-1
592.603	1	4
592.943	1	2
593.283	1	-7
593.622	1	11
593.962	1	8
594.301	1	-11
594.641	1	9
594.981	1	-6
595.320	1	10
595.660	1	8
595.999	1	13
596.339	1	16
596.678	1	-1
597.018	1	5
597.358	1	-5
597.697	1	8
598.037	1	8
598.376	1	5
598.716	1	4
599.055	1	-1
599.395	1	-12
599.734	1	-1
600.074	1	2
600.413	1	30
600.753	1	0
601.092	1	-5
601.432	1	-3
601.771	1	12
602.111	1	-1
602.451	1	10
602.790	1	-2
603.130	1	6
603.469	1	0
603.809	1	12
604.148	1	10
604.487	1	8
604.827	1	1
605.166	1	8
605.506	1	4
605.845	1	-6
606.185	1	7
606.524	1	-2
606.864	1	13
607.203	1	-6
607.543	1	5
607.882	1	10
608.222	1	-3
608.561	1	-2
608.901	1	3
609.240	1	-6
609.579	1	9
609.919	1	6
610.258	1	-2
610.598	1	3
610.937	1	8
611.277	1	2
611.616	1	-9
611.955	1	2
612.295	1	8
612.634	1	1
612.974	1	16
613.313	1	2
613.652	1	-8
613.992	1	8
614.331	1	1
614.671	1	8
615.010	1	-5
615.349	1	4
615.689	1	9
616.028	1	4
616.368	1	7
616.707	1	11
617.046	1	8
617.386	1	3
617.725	1	7
618.064	1	7
618.404	1	7
618.743	1	13
619.082	1	-2
619.422	1	5
619.761	1	8
620.100	1	0
620.440	1	13
620.779	1	-2
621.118	1	-2
621.458	1	3
621.797	1	-3
622.136	1	6
622.476	1	10
622.815	1	-3
623.154	1	-2
623.494	1	9
623.833	1	6
624.172	1	-4
624.511	1	2
624.851	1	-6
625.190	1	7
625.529	1	0
625.869	1	1
626.208	1	-1
626.547	1	4
626.886	1	0
627.226	1	6
627.565	1	-2
627.904	1	2
628.243	1	13
628.583	1	-14
628.922	1	-3
629.261	1	-11
629.600	1	3
629.940	1	2
630.279	1	11
630.618	1	2
630.957	1	6
631.297	1	-5
631.636	1	8
631.975	1	9
632.314	1	7
632.653	1	4
632.993	1	15
633.332	1	3
633.671	1	-7
634.010	1	0
634.349	1	4
634.689	1	13
635.028	1	6
635.367	1	6
635.706	1	4
636.045	1	8
636.384	1	-1
636.724	1	7
637.063	1	4
637.402	1	-5
637.741	1	6
638.080	1	13
638.419	1	7
638.759	1	5
639.098	1	0
639.437	1	6
639.776	1	4
640.115	1	1
640.454	1	5
640.793	1	-10
641.132	1	8
641.472	1	-4
641.811	1	-1
642.150	1	-6
642.489	1	-9
642.828	1	3
643.167	1	6
643.506	1	10
643.845	1	-3
644.184	1	-1
644.524	1	4
644.863	1	3
645.202	1	16
645.541	1	3
645.880	1	6
646.219	1	4
646.558	1	-4
646.897	1	0
647.236	1	-4
647.575	1	-5
647.914	1	-5
648.253	1	-7
648.592	1	7
648.931	1	1
649.270	1	4
649.610	1	3
649.949	1	6
650.288	1	5
650.627	1	-2
650.966	1	10
651.305	1	0
651.644	1	-5
651.983	1	-10
652.322	1	-5
652.661	1	-1
653.000	1	7
653.339	1	-2
653.678	1	3
654.017	1	-10
654.356	1	7
654.695	1	-1
655.034	1	4
655.373	1	-1
655.712	1	1
656.051	1	5
656.390	1	2
656.729	1	7
657.068	1	-9
657.406	1	7
657.745	1	2
658.084	1	-2
658.423	1	14
658.762	1	6
659.101	1	12
659.440	1	-5
659.779	1	0
660.118	1	2
660.457	1	1
660.796	1	-2
661.135	1	7
661.474	1	-2
661.813	1	-5
662.152	1	-1
662.491	1	7
662.829	1	11
663.168	1	0
663.507	1	1
663.846	1	-1
664.185	1	-4
664.524	1	0
664.863	1	4
665.202	1	-5
665.541	1	1
665.879	1	3
666.218	1	3
666.557	1	12
666.896	1	7
667.235	1	6
667.574	1	18
667.913	1	6
668.251	1	0
668.590	1	2
668.929	1	9
669.268	1	4
669.607	1	8
669.946	1	16
670.285	1	5
670.623	1	18
670.962	1	2
671.301	1	3
671.640	1	-9
671.979	1	5
672.317	1	-4
672.656	1	7
672.995	1	3
673.334	1	-3
673.673	1	13
674.011	1	-1
674.350	1	3
674.689	1	9
675.028	1	8
675.367	1	-9
675.705	1	11
676.044	1	13
676.383	1	12
676.722	1	-4
677.060	1	4
677.399	1	4
677.738	1	4
678.077	1	3
678.416	1	12
678.754	1	2
679.093	1	1
679.432	1	-1
679.771	1	5
680.109	1	5
680.448	1	2
680.787	1	13
681.125	1	16
681.464	1	2
681.803	1	-3
682.142	1	0
682.480	1	15
682.819	1	6
683.158	1	6
683.496	1	0
683.835	1	-4
684.174	1	-2
684.512	1	10
684.851	1	3
685.190	1	2
685.529	1	-13
685.867	1	1
686.206	1	9
686.545	1	2
686.883	1	1
687.222	1	4
687.561	1	7
687.899	1	6
688.238	1	17
688.577	1	-2
688.746	1	1