File: Data/GaN_130K_350ms/GaN_sample F_spot6_UVVIS_130 K_200um_350 ms 2x2mm1_275.txt
340.368	1	2
340.710	1	8
341.052	1	-6
341.394	1	-1
341.737	1	5
342.079	1	3
342.421	1	12
342.763	1	1
343.105	1	-1
343.447	1	5
343.789	1	0
344.131	1	5
344.473	1	-1
344.815	1	-7
345.157	1	-15
345.499	1	-2
345.841	1	-4
346.183	1	0
346.526	1	-3
346.868	1	8
347.210	1	9
347.552	1	-5
347.894	1	2
348.236	1	4
348.578	1	1
348.920	1	1
349.262	1	9
349.604	1	14
349.946	1	3
350.288	1	-9
350.630	1	-1
350.972	1	3
351.314	1	-1
351.656	1	5
351.998	1	9
352.340	1	9
352.682	1	-3
353.024	1	-3
353.366	1	5
353.708	1	-5
354.050	1	5
354.392	1	0
354.734	1	-4
355.076	1	7
355.418	1	7
355.760	1	2
356.102	1	0
356.444	1	-4
356.785	1	8
357.127	1	2
357.469	1	-1
357.811	1	1
358.153	1	-1
358.495	1	16
358.837	1	5
359.179	1	4
359.521	1	-7
359.863	1	-2
360.205	1	3
360.547	1	-6
360.889	1	-1
361.231	1	-1
361.572	1	9
361.914	1	5
362.256	1	7
362.598	1	1
362.940	1	-4
363.282	1	11
363.624	1	7
363.966	1	23
364.308	1	9
364.649	1	9
364.991	1	4
365.333	1	3
365.675	1	5
366.017	1	7
366.359	1	14
366.701	1	10
367.042	1	12
367.384	1	10
367.726	1	11
368.068	1	7
368.410	1	-3
368.752	1	11
369.093	1	6
369.435	1	-4
369.777	1	8
370.119	1	11
370.461	1	3
370.803	1	9
371.144	1	10
371.486	1	12
371.828	1	10
372.170	1	10
372.512	1	9
372.853	1	-6
373.195	1	4
373.537	1	8
373.879	1	13
374.220	1	6
374.562	1	2
374.904	1	15
375.246	1	4
375.588	1	-5
375.929	1	1
376.271	1	21
376.613	1	7
376.955	1	6
377.296	1	6
377.638	1	-2
377.980	1	-4
378.321	1	5
378.663	1	4
379.005	1	11
379.347	1	1
379.688	1	0
380.030	1	-3
380.372	1	13
380.714	1	10
381.055	1	4
381.397	1	4
381.739	1	7
382.080	1	0
382.422	1	9
382.764	1	8
383.105	1	0
383.447	1	10
383.789	1	10
384.130	1	15
384.472	1	11
384.814	1	-1
385.156	1	8
385.497	1	0
385.839	1	9
386.180	1	9
386.522	1	0
386.864	1	5
387.205	1	6
387.547	1	6
387.889	1	-9
388.230	1	7
388.572	1	0
388.914	1	-3
389.255	1	0
389.597	1	-10
389.939	1	9
390.280	1	8
390.622	1	3
390.963	1	12
391.305	1	-8
391.647	1	13
391.988	1	6
392.330	1	0
392.671	1	-6
393.013	1	7
393.355	1	-3
393.696	1	5
394.038	1	9
394.379	1	11
394.721	1	14
395.062	1	-3
395.404	1	-3
395.746	1	7
396.087	1	13
396.429	1	2
396.770	1	14
397.112	1	9
397.453	1	7
397.795	1	-8
398.136	1	-1
398.478	1	1
398.819	1	-14
399.161	1	9
399.503	1	10
399.844	1	1
400.186	1	4
400.527	1	7
400.869	1	6
401.210	1	-2
401.552	1	1
401.893	1	-11
402.235	1	7
402.576	1	5
402.918	1	2
403.259	1	-6
403.601	1	6
403.942	1	-1
404.284	1	2
404.625	1	11
404.967	1	5
405.308	1	1
405.649	1	8
405.991	1	9
406.332	1	3
406.674	1	8
407.015	1	2
407.357	1	2
407.698	1	1
408.040	1	8
408.381	1	8
408.722	1	9
409.064	1	14
409.405	1	4
409.747	1	4
410.088	1	10
410.430	1	5
410.771	1	-6
411.112	1	10
411.454	1	-1
411.795	1	2
412.137	1	5
412.478	1	0
412.819	1	8
413.161	1	6
413.502	1	22
413.844	1	6
414.185	1	6
414.526	1	2
414.868	1	1
415.209	1	-1
415.550	1	12
415.892	1	4
416.233	1	0
416.575	1	4
416.916	1	4
417.257	1	7
417.599	1	-1
417.940	1	9
418.281	1	8
418.623	1	4
418.964	1	1
419.305	1	0
419.647	1	5
419.988	1	9
420.329	1	14
420.671	1	-3
421.012	1	3
421.353	1	-10
421.695	1	4
422.036	1	3
422.377	1	9
422.718	1	9
423.060	1	12
423.401	1	3
423.742	1	3
424.084	1	23
424.425	1	3
424.766	1	6
425.107	1	8
425.449	1	0
425.790	1	9
426.131	1	8
426.472	1	5
426.814	1	0
427.155	1	-2
427.496	1	9
427.837	1	7
428.179	1	11
428.520	1	13
428.861	1	-7
429.202	1	9
429.544	1	8
429.885	1	5
430.226	1	4
430.567	1	5
430.909	1	2
431.250	1	10
431.591	1	6
431.932	1	5
432.273	1	4
432.615	1	16
432.956	1	-7
433.297	1	11
433.638	1	5
433.979	1	7
434.320	1	8
434.662	1	6
435.003	1	13
435.344	1	13
435.685	1	-1
436.026	1	4
436.368	1	-1
436.709	1	-3
437.050	1	7
437.391	1	10
437.732	1	7
438.073	1	14
438.414	1	1
438.756	1	-1
439.097	1	-1
439.438	1	6
439.779	1	16
440.120	1	11
440.461	1	10
440.802	1	-11
441.143	1	-2
441.485	1	4
441.826	1	-1
442.167	1	8
442.508	1	-4
442.849	1	17
443.190	1	2
443.531	1	1
443.872	1	13
444.213	1	0
444.554	1	-1
444.895	1	5
445.237	1	-4
445.578	1	-6
445.919	1	-9
446.260	1	5
446.601	1	5
446.942	1	4
447.283	1	3
447.624	1	4
447.965	1	2
448.306	1	4
448.647	1	6
448.988	1	1
449.329	1	-9
449.670	1	3
450.011	1	0
450.352	1	8
450.693	1	4
451.034	1	-10
451.375	1	1
451.716	1	2
452.057	1	14
452.398	1	1
452.739	1	2
453.080	1	0
453.421	1	5
453.762	1	6
454.103	1	-5
454.444	1	8
454.785	1	9
455.126	1	-9
455.467	1	3
455.808	1	7
456.149	1	-9
456.490	1	2
456.831	1	1
457.172	1	2
457.513	1	0
457.854	1	7
458.195	1	-1
458.536	1	3
458.877	1	22
459.218	1	8
459.559	1	8
459.899	1	6
460.240	1	10
460.581	1	4
460.922	1	5
461.263	1	10
461.604	1	-15
461.945	1	5
462.286	1	18
462.627	1	0
462.968	1	-6
463.309	1	-9
463.649	1	-1
463.990	1	3
464.331	1	6
464.672	1	6
465.013	1	-1
465.354	1	-3
465.695	1	10
466.036	1	0
466.376	1	5
466.717	1	10
467.058	1	2
467.399	1	-6
467.740	1	22
468.081	1	10
468.422	1	-4
468.762	1	-7
469.103	1	2
469.444	1	2
469.785	1	13
470.126	1	-6
470.467	1	-6
470.807	1	1
471.148	1	-3
471.489	1	-3
471.830	1	1
472.171	1	2
472.511	1	4
472.852	1	0
473.193	1	1
473.534	1	-1
473.875	1	12
474.215	1	-6
474.556	1	8
474.897	1	-4
475.238	1	12
475.578	1	3
475.919	1	1
476.260	1	3
476.601	1	2
476.942	1	10
477.282	1	7
477.623	1	-6
477.964	1	-4
478.305	1	10
478.645	1	-1
478.986	1	-2
479.327	1	0
479.667	1	7
480.008	1	1
480.349	1	-4
480.690	1	-6
481.030	1	10
481.371	1	4
481.712	1	4
482.053	1	4
482.393	1	7
482.734	1	3
483.075	1	10
483.415	1	-1
483.756	1	4
484.097	1	5
484.437	1	3
484.778	1	8
485.119	1	10
485.459	1	-18
485.800	1	9
486.141	1	-1
486.481	1	2
486.822	1	-3
487.163	1	-5
487.503	1	-10
487.844	1	-4
488.185	1	-2
488.525	1	0
488.866	1	1
489.207	1	-1
489.547	1	0
489.888	1	5
490.228	1	6
490.569	1	0
490.910	1	-3
491.250	1	7
491.591	1	-5
491.932	1	2
492.272	1	-1
492.613	1	-6
492.953	1	1
493.294	1	4
493.635	1	-3
493.975	1	5
494.316	1	5
494.656	1	6
494.997	1	-6
495.337	1	-1
495.678	1	-13
496.019	1	-12
496.359	1	8
496.700	1	-1
497.040	1	12
497.381	1	7
497.721	1	3
498.062	1	-4
498.403	1	-6
498.743	1	9
499.084	1	9
499.424	1	-4
499.765	1	-4
500.105	1	-4
500.446	1	0
500.786	1	6
501.127	1	13
501.467	1	-10
501.808	1	0
502.148	1	6
502.489	1	-1
502.829	1	-6
503.170	1	0
503.510	1	6
503.851	1	7
504.191	1	1
504.532	1	3
504.872	1	6
505.213	1	1
505.553	1	4
505.894	1	5
506.234	1	4
506.575	1	-5
506.915	1	4
507.256	1	10
507.596	1	2
507.936	1	-4
508.277	1	-5
508.617	1	-5
508.958	1	7
509.298	1	0
509.639	1	5
509.979	1	-3
510.319	1	9
510.660	1	-10
511.000	1	1
511.341	1	-1
511.681	1	6
512.022	1	-7
512.362	1	-4
512.702	1	6
513.043	1	8
513.383	1	2
513.724	1	4
514.064	1	-1
514.404	1	22
514.745	1	1
515.085	1	11
515.425	1	4
515.766	1	7
516.106	1	0
516.447	1	-2
516.787	1	6
517.127	1	-2
517.468	1	-2
517.808	1	-4
518.148	1	-2
518.489	1	3
518.829	1	9
519.169	1	11
519.510	1	-4
519.850	1	4
520.190	1	3
520.531	1	6
520.871	1	-6
521.211	1	2
521.552	1	1
521.892	1	6
522.232	1	-8
522.573	1	12
522.913	1	10
523.253	1	8
523.593	1	13
523.934	1	3
524.274	1	-3
524.614	1	10
524.955	1	2
525.295	1	0
525.635	1	-1
525.975	1	14
526.316	1	2
526.656	1	8
526.996	1	0
527.337	1	17
527.677	1	3
528.017	1	0
528.357	1	8
528.698	1	-3
529.038	1	-3
529.378	1	8
529.718	1	10
530.058	1	4
530.399	1	2
530.739	1	5
531.079	1	7
531.419	1	3
531.760	1	6
532.100	1	-2
532.440	1	4
532.780	1	-3
533.120	1	9
533.461	1	-3
533.801	1	19
534.141	1	8
534.481	1	3
534.821	1	16
535.162	1	8
535.502	1	6
535.842	1	2
536.182	1	10
536.522	1	-3
536.862	1	-2
537.203	1	-3
537.543	1	17
537.883	1	-8
538.223	1	9
538.563	1	7
538.903	1	8
539.243	1	4
539.584	1	8
539.924	1	1
540.264	1	-3
540.604	1	5
540.944	1	5
541.284	1	11
541.624	1	17
541.964	1	2
542.305	1	2
542.645	1	0
542.985	1	5
543.325	1	2
543.665	1	5
544.005	1	3
544.345	1	-2
544.685	1	10
545.025	1	-2
545.365	1	6
545.705	1	-1
546.045	1	6
546.386	1	1
546.726	1	-2
547.066	1	2
547.406	1	-9
547.746	1	6
548.086	1	-6
548.426	1	6
548.766	1	6
549.106	1	-11
549.446	1	0
549.786	1	5
550.126	1	14
550.466	1	6
550.806	1	13
551.146	1	3
551.486	1	4
551.826	1	0
552.166	1	5
552.506	1	7
552.846	1	5
553.186	1	1
553.526	1	-8
553.866	1	-8
554.206	1	-4
554.546	1	7
554.886	1	6
555.226	1	1
555.566	1	-2
555.906	1	2
556.246	1	8
556.586	1	-4
556.926	1	1
557.266	1	0
557.606	1	-2
557.946	1	2
558.286	1	7
558.626	1	-7
558.966	1	-8
559.306	1	4
559.646	1	10
559.986	1	6
560.325	1	-14
560.665	1	9
561.005	1	1
561.345	1	14
561.685	1	4
562.025	1	4
562.365	1	1
562.705	1	9
563.045	1	-1
563.385	1	10
563.725	1	2
564.064	1	17
564.404	1	8
564.744	1	2
565.084	1	0
565.424	1	-2
565.764	1	4
566.104	1	-5
566.444	1	2
566.783	1	10
567.123	1	8
567.463	1	8
567.803	1	5
568.143	1	22
568.483	1	14
568.823	1	0
569.162	1	14
569.502	1	1
569.842	1	-1
570.182	1	0
570.522	1	-4
570.862	1	12
571.201	1	2
571.541	1	-3
571.881	1	4
572.221	1	9
572.561	1	6
572.900	1	7
573.240	1	6
573.580	1	-1
573.920	1	9
574.260	1	1
574.599	1	3
574.939	1	16
575.279	1	0
575.619	1	0
575.959	1	3
576.298	1	3
576.638	1	3
576.978	1	6
577.318	1	4
577.657	1	7
577.997	1	11
578.337	1	-1
578.677	1	7
579.016	1	0
579.356	1	12
579.696	1	-3
580.036	1	-3
580.375	1	-8
580.715	1	1
581.055	1	7
581.394	1	6
581.734	1	3
582.074	1	4
582.414	1	-8
582.753	1	9
583.093	1	-3
583.433	1	11
583.772	1	3
584.112	1	5
584.452	1	16
584.791	1	9
585.131	1	9
585.471	1	4
585.811	1	-9
586.150	1	-3
586.490	1	6
586.830	1	-11
587.169	1	11
587.509	1	2
587.849	1	2
588.188	1	13
588.528	1	4
588.867	1	9
589.207	1	-4
589.547	1	-13
589.886	1	1
590.226	1	13
590.566	1	0
590.905	1	6
591.245	1	-9
591.585	1	4
591.924	1	4
592.264	1	4
592.603	1	2
592.943	1	0
593.283	1	-7
593.622	1	10
593.962	1	4
594.301	1	-8
594.641	1	2
594.981	1	-11
595.320	1	8
595.660	1	3
595.999	1	7
596.339	1	7
596.678	1	1
597.018	1	3
597.358	1	-3
597.697	1	1
598.037	1	4
598.376	1	2
598.716	1	5
599.055	1	4
599.395	1	-5
599.734	1	-5
600.074	1	4
600.413	1	12
600.753	1	4
601.092	1	-3
601.432	1	-1
601.771	1	7
602.111	1	3
602.451	1	3
602.790	1	0
603.130	1	9
603.469	1	5
603.809	1	2
604.148	1	6
604.487	1	2
604.827	1	8
605.166	1	6
605.506	1	5
605.845	1	-7
606.185	1	7
606.524	1	-1
606.864	1	8
607.203	1	1
607.543	1	-1
607.882	1	11
608.222	1	-8
608.561	1	3
608.901	1	1
609.240	1	-7
609.579	1	10
609.919	1	11
610.258	1	2
610.598	1	-6
610.937	1	-4
611.277	1	10
611.616	1	-1
611.955	1	-6
612.295	1	8
612.634	1	0
612.974	1	-2
613.313	1	0
613.652	1	-15
613.992	1	0
614.331	1	-3
614.671	1	9
615.010	1	-3
615.349	1	2
615.689	1	5
616.028	1	7
616.368	1	3
616.707	1	17
617.046	1	-1
617.386	1	0
617.725	1	-1
618.064	1	4
618.404	1	-2
618.743	1	9
619.082	1	7
619.422	1	5
619.761	1	2
620.100	1	-4
620.440	1	3
620.779	1	8
621.118	1	6
621.458	1	5
621.797	1	-6
622.136	1	-3
622.476	1	2
622.815	1	-4
623.154	1	1
623.494	1	-1
623.833	1	5
624.172	1	2
624.511	1	6
624.851	1	8
625.190	1	-3
625.529	1	6
625.869	1	-6
626.208	1	0
626.547	1	6
626.886	1	6
627.226	1	6
627.565	1	-2
627.904	1	11
628.243	1	10
628.583	1	-1
628.922	1	3
629.261	1	-12
629.600	1	2
629.940	1	8
630.279	1	6
630.618	1	-9
630.957	1	3
631.297	1	8
631.636	1	7
631.975	1	6
632.314	1	-5
632.653	1	4
632.993	1	20
633.332	1	-1
633.671	1	-6
634.010	1	2
634.349	1	-3
634.689	1	16
635.028	1	17
635.367	1	5
635.706	1	-5
636.045	1	11
636.384	1	4
636.724	1	-1
637.063	1	4
637.402	1	-13
637.741	1	5
638.080	1	14
638.419	1	7
638.759	1	-10
639.098	1	-2
639.437	1	12
639.776	1	0
640.115	1	8
640.454	1	-2
640.793	1	-13
641.132	1	19
641.472	1	-3
641.811	1	-5
642.150	1	-10
642.489	1	-4
642.828	1	1
643.167	1	1
643.506	1	15
643.845	1	-11
644.184	1	-5
644.524	1	1
644.863	1	0
645.202	1	10
645.541	1	0
645.880	1	3
646.219	1	3
646.558	1	0
646.897	1	-2
647.236	1	3
647.575	1	-3
647.914	1	-1
648.253	1	3
648.592	1	-4
648.931	1	1
649.270	1	-2
649.610	1	-2
649.949	1	2
650.288	1	13
650.627	1	8
650.966	1	9
651.305	1	-9
651.644	1	-3
651.983	1	-7
652.322	1	-3
652.661	1	0
653.000	1	-2
653.339	1	2
653.678	1	-3
654.017	1	3
654.356	1	-9
654.695	1	-1
655.034	1	-4
655.373	1	1
655.712	1	5
656.051	1	11
656.390	1	-1
656.729	1	3
657.068	1	1
657.406	1	3
657.745	1	2
658.084	1	-1
658.423	1	5
658.762	1	13
659.101	1	4
659.440	1	-4
659.779	1	5
660.118	1	-5
660.457	1	-1
660.796	1	13
661.135	1	5
661.474	1	1
661.813	1	-8
662.152	1	-1
662.491	1	15
662.829	1	11
663.168	1	-8
663.507	1	2
663.846	1	-7
664.185	1	-4
664.524	1	0
664.863	1	1
665.202	1	1
665.541	1	-10
665.879	1	-7
666.218	1	3
666.557	1	0
666.896	1	2
667.235	1	0
667.574	1	13
667.913	1	6
668.251	1	11
668.590	1	-2
668.929	1	-5
669.268	1	-3
669.607	1	1
669.946	1	3
670.285	1	5
670.623	1	13
670.962	1	-1
671.301	1	0
671.640	1	0
671.979	1	4
672.317	1	-2
672.656	1	-7
672.995	1	1
673.334	1	-2
673.673	1	14
674.011	1	1
674.350	1	5
674.689	1	5
675.028	1	11
675.367	1	-16
675.705	1	7
676.044	1	2
676.383	1	10
676.722	1	-7
677.060	1	13
677.399	1	-4
677.738	1	-12
678.077	1	4
678.416	1	0
678.754	1	7
679.093	1	4
679.432	1	6
679.771	1	4
680.109	1	1
680.448	1	5
680.787	1	7
681.125	1	5
681.464	1	-13
681.803	1	-7
682.142	1	-2
682.480	1	14
682.819	1	-6
683.158	1	4
683.496	1	3
683.835	1	-6
684.174	1	-3
684.512	1	1
684.851	1	-7
685.190	1	-5
685.529	1	0
685.867	1	0
686.206	1	13
686.545	1	-1
686.883	1	2
687.222	1	0
687.561	1	5
687.899	1	-4
688.238	1	10
688.577	1	3
688.746	1	10