File: Data/GaN_130K_350ms/GaN_sample F_spot6_UVVIS_130 K_200um_350 ms 2x2mm1_209.txt
340.368	1	9
340.710	1	3
341.052	1	-5
341.394	1	8
341.737	1	10
342.079	1	0
342.421	1	-2
342.763	1	1
343.105	1	-1
343.447	1	6
343.789	1	7
344.131	1	4
344.473	1	4
344.815	1	2
345.157	1	-8
345.499	1	2
345.841	1	1
346.183	1	11
346.526	1	2
346.868	1	11
347.210	1	4
347.552	1	6
347.894	1	3
348.236	1	0
348.578	1	4
348.920	1	3
349.262	1	13
349.604	1	5
349.946	1	1
350.288	1	-4
350.630	1	8
350.972	1	9
351.314	1	5
351.656	1	17
351.998	1	0
352.340	1	13
352.682	1	-1
353.024	1	-3
353.366	1	12
353.708	1	-9
354.050	1	7
354.392	1	-3
354.734	1	-12
355.076	1	-2
355.418	1	7
355.760	1	1
356.102	1	10
356.444	1	-7
356.785	1	6
357.127	1	16
357.469	1	2
357.811	1	15
358.153	1	9
358.495	1	11
358.837	1	0
359.179	1	4
359.521	1	-7
359.863	1	-1
360.205	1	6
360.547	1	-4
360.889	1	7
361.231	1	2
361.572	1	5
361.914	1	-1
362.256	1	6
362.598	1	0
362.940	1	-5
363.282	1	21
363.624	1	13
363.966	1	22
364.308	1	19
364.649	1	11
364.991	1	16
365.333	1	6
365.675	1	16
366.017	1	18
366.359	1	16
366.701	1	11
367.042	1	22
367.384	1	24
367.726	1	19
368.068	1	7
368.410	1	11
368.752	1	23
369.093	1	17
369.435	1	9
369.777	1	11
370.119	1	19
370.461	1	13
370.803	1	10
371.144	1	10
371.486	1	16
371.828	1	14
372.170	1	14
372.512	1	9
372.853	1	2
373.195	1	9
373.537	1	21
373.879	1	12
374.220	1	7
374.562	1	-4
374.904	1	16
375.246	1	16
375.588	1	14
375.929	1	0
376.271	1	5
376.613	1	3
376.955	1	13
377.296	1	8
377.638	1	-10
377.980	1	7
378.321	1	6
378.663	1	15
379.005	1	14
379.347	1	0
379.688	1	10
380.030	1	4
380.372	1	8
380.714	1	20
381.055	1	6
381.397	1	-7
381.739	1	8
382.080	1	10
382.422	1	19
382.764	1	4
383.105	1	-3
383.447	1	1
383.789	1	10
384.130	1	12
384.472	1	11
384.814	1	4
385.156	1	3
385.497	1	-4
385.839	1	12
386.180	1	8
386.522	1	6
386.864	1	13
387.205	1	4
387.547	1	5
387.889	1	-3
388.230	1	2
388.572	1	5
388.914	1	9
389.255	1	8
389.597	1	-9
389.939	1	7
390.280	1	21
390.622	1	6
390.963	1	8
391.305	1	10
391.647	1	-2
391.988	1	15
392.330	1	0
392.671	1	2
393.013	1	4
393.355	1	1
393.696	1	4
394.038	1	15
394.379	1	8
394.721	1	4
395.062	1	-4
395.404	1	-5
395.746	1	7
396.087	1	14
396.429	1	5
396.770	1	4
397.112	1	11
397.453	1	18
397.795	1	6
398.136	1	1
398.478	1	6
398.819	1	-9
399.161	1	9
399.503	1	7
399.844	1	7
400.186	1	-8
400.527	1	13
400.869	1	5
401.210	1	4
401.552	1	7
401.893	1	-8
402.235	1	3
402.576	1	9
402.918	1	3
403.259	1	1
403.601	1	6
403.942	1	11
404.284	1	4
404.625	1	17
404.967	1	2
405.308	1	4
405.649	1	16
405.991	1	-1
406.332	1	8
406.674	1	7
407.015	1	14
407.357	1	-1
407.698	1	5
408.040	1	-3
408.381	1	19
408.722	1	3
409.064	1	4
409.405	1	9
409.747	1	4
410.088	1	20
410.430	1	12
410.771	1	-7
411.112	1	14
411.454	1	13
411.795	1	9
412.137	1	-2
412.478	1	1
412.819	1	11
413.161	1	14
413.502	1	11
413.844	1	3
414.185	1	8
414.526	1	6
414.868	1	4
415.209	1	3
415.550	1	5
415.892	1	11
416.233	1	7
416.575	1	10
416.916	1	-9
417.257	1	4
417.599	1	1
417.940	1	3
418.281	1	4
418.623	1	9
418.964	1	-1
419.305	1	-1
419.647	1	8
419.988	1	16
420.329	1	16
420.671	1	9
421.012	1	4
421.353	1	-2
421.695	1	1
422.036	1	6
422.377	1	-2
422.718	1	6
423.060	1	-5
423.401	1	7
423.742	1	4
424.084	1	9
424.425	1	10
424.766	1	5
425.107	1	12
425.449	1	5
425.790	1	15
426.131	1	3
426.472	1	10
426.814	1	6
427.155	1	-5
427.496	1	8
427.837	1	17
428.179	1	10
428.520	1	12
428.861	1	-2
429.202	1	7
429.544	1	16
429.885	1	2
430.226	1	2
430.567	1	0
430.909	1	10
431.250	1	12
431.591	1	7
431.932	1	2
432.273	1	9
432.615	1	10
432.956	1	-3
433.297	1	12
433.638	1	3
433.979	1	10
434.320	1	3
434.662	1	6
435.003	1	5
435.344	1	7
435.685	1	-7
436.026	1	6
436.368	1	0
436.709	1	-3
437.050	1	4
437.391	1	13
437.732	1	14
438.073	1	18
438.414	1	-1
438.756	1	5
439.097	1	5
439.438	1	4
439.779	1	7
440.120	1	-9
440.461	1	12
440.802	1	-1
441.143	1	3
441.485	1	15
441.826	1	1
442.167	1	2
442.508	1	4
442.849	1	5
443.190	1	9
443.531	1	9
443.872	1	15
444.213	1	3
444.554	1	5
444.895	1	2
445.237	1	2
445.578	1	3
445.919	1	1
446.260	1	8
446.601	1	8
446.942	1	2
447.283	1	3
447.624	1	5
447.965	1	7
448.306	1	5
448.647	1	14
448.988	1	6
449.329	1	4
449.670	1	7
450.011	1	-2
450.352	1	10
450.693	1	4
451.034	1	3
451.375	1	11
451.716	1	6
452.057	1	16
452.398	1	-4
452.739	1	7
453.080	1	3
453.421	1	11
453.762	1	9
454.103	1	-5
454.444	1	9
454.785	1	2
455.126	1	-13
455.467	1	-1
455.808	1	5
456.149	1	-6
456.490	1	6
456.831	1	5
457.172	1	2
457.513	1	7
457.854	1	1
458.195	1	0
458.536	1	2
458.877	1	22
459.218	1	15
459.559	1	-5
459.899	1	-2
460.240	1	15
460.581	1	2
460.922	1	9
461.263	1	-4
461.604	1	-7
461.945	1	7
462.286	1	-1
462.627	1	2
462.968	1	-1
463.309	1	2
463.649	1	-2
463.990	1	11
464.331	1	7
464.672	1	3
465.013	1	-4
465.354	1	18
465.695	1	4
466.036	1	12
466.376	1	7
466.717	1	6
467.058	1	9
467.399	1	-2
467.740	1	21
468.081	1	11
468.422	1	12
468.762	1	-3
469.103	1	9
469.444	1	4
469.785	1	9
470.126	1	-12
470.467	1	-2
470.807	1	0
471.148	1	1
471.489	1	2
471.830	1	6
472.171	1	5
472.511	1	-2
472.852	1	3
473.193	1	7
473.534	1	-4
473.875	1	13
474.215	1	-3
474.556	1	8
474.897	1	-8
475.238	1	10
475.578	1	1
475.919	1	-1
476.260	1	5
476.601	1	-7
476.942	1	8
477.282	1	2
477.623	1	-3
477.964	1	1
478.305	1	14
478.645	1	5
478.986	1	-2
479.327	1	0
479.667	1	8
480.008	1	2
480.349	1	4
480.690	1	3
481.030	1	4
481.371	1	11
481.712	1	6
482.053	1	5
482.393	1	14
482.734	1	4
483.075	1	16
483.415	1	-4
483.756	1	1
484.097	1	2
484.437	1	0
484.778	1	12
485.119	1	13
485.459	1	-4
485.800	1	11
486.141	1	1
486.481	1	-7
486.822	1	8
487.163	1	-5
487.503	1	1
487.844	1	5
488.185	1	9
488.525	1	5
488.866	1	8
489.207	1	4
489.547	1	3
489.888	1	9
490.228	1	1
490.569	1	0
490.910	1	-6
491.250	1	7
491.591	1	0
491.932	1	1
492.272	1	4
492.613	1	5
492.953	1	6
493.294	1	15
493.635	1	-3
493.975	1	10
494.316	1	5
494.656	1	4
494.997	1	0
495.337	1	-5
495.678	1	-6
496.019	1	2
496.359	1	16
496.700	1	3
497.040	1	12
497.381	1	-3
497.721	1	7
498.062	1	-4
498.403	1	-1
498.743	1	6
499.084	1	10
499.424	1	-3
499.765	1	3
500.105	1	0
500.446	1	7
500.786	1	10
501.127	1	3
501.467	1	2
501.808	1	5
502.148	1	0
502.489	1	9
502.829	1	-1
503.170	1	3
503.510	1	5
503.851	1	2
504.191	1	9
504.532	1	4
504.872	1	4
505.213	1	4
505.553	1	6
505.894	1	8
506.234	1	-2
506.575	1	8
506.915	1	4
507.256	1	12
507.596	1	-2
507.936	1	3
508.277	1	6
508.617	1	4
508.958	1	15
509.298	1	7
509.639	1	-2
509.979	1	-3
510.319	1	12
510.660	1	2
511.000	1	14
511.341	1	1
511.681	1	6
512.022	1	6
512.362	1	1
512.702	1	16
513.043	1	2
513.383	1	9
513.724	1	-5
514.064	1	1
514.404	1	6
514.745	1	10
515.085	1	5
515.425	1	1
515.766	1	14
516.106	1	5
516.447	1	-2
516.787	1	6
517.127	1	12
517.468	1	2
517.808	1	15
518.148	1	4
518.489	1	12
518.829	1	16
519.169	1	10
519.510	1	1
519.850	1	10
520.190	1	11
520.531	1	18
520.871	1	3
521.211	1	6
521.552	1	4
521.892	1	6
522.232	1	1
522.573	1	5
522.913	1	13
523.253	1	17
523.593	1	5
523.934	1	12
524.274	1	-1
524.614	1	13
524.955	1	4
525.295	1	10
525.635	1	7
525.975	1	7
526.316	1	2
526.656	1	3
526.996	1	5
527.337	1	9
527.677	1	6
528.017	1	7
528.357	1	11
528.698	1	-9
529.038	1	5
529.378	1	12
529.718	1	5
530.058	1	1
530.399	1	9
530.739	1	8
531.079	1	8
531.419	1	11
531.760	1	-3
532.100	1	10
532.440	1	4
532.780	1	4
533.120	1	11
533.461	1	-4
533.801	1	21
534.141	1	9
534.481	1	8
534.821	1	16
535.162	1	15
535.502	1	2
535.842	1	9
536.182	1	7
536.522	1	0
536.862	1	1
537.203	1	1
537.543	1	10
537.883	1	3
538.223	1	14
538.563	1	13
538.903	1	13
539.243	1	5
539.584	1	7
539.924	1	1
540.264	1	2
540.604	1	18
540.944	1	13
541.284	1	5
541.624	1	4
541.964	1	-1
542.305	1	4
542.645	1	0
542.985	1	10
543.325	1	-3
543.665	1	4
544.005	1	16
544.345	1	7
544.685	1	6
545.025	1	-1
545.365	1	11
545.705	1	9
546.045	1	18
546.386	1	5
546.726	1	2
547.066	1	11
547.406	1	-20
547.746	1	4
548.086	1	-1
548.426	1	5
548.766	1	9
549.106	1	-12
549.446	1	11
549.786	1	1
550.126	1	9
550.466	1	7
550.806	1	14
551.146	1	5
551.486	1	5
551.826	1	10
552.166	1	2
552.506	1	8
552.846	1	-3
553.186	1	9
553.526	1	7
553.866	1	-8
554.206	1	-1
554.546	1	9
554.886	1	1
555.226	1	6
555.566	1	2
555.906	1	-1
556.246	1	-1
556.586	1	0
556.926	1	3
557.266	1	3
557.606	1	-2
557.946	1	10
558.286	1	7
558.626	1	-3
558.966	1	1
559.306	1	7
559.646	1	19
559.986	1	6
560.325	1	-4
560.665	1	4
561.005	1	6
561.345	1	4
561.685	1	6
562.025	1	-1
562.365	1	10
562.705	1	10
563.045	1	6
563.385	1	12
563.725	1	5
564.064	1	12
564.404	1	10
564.744	1	10
565.084	1	15
565.424	1	-3
565.764	1	3
566.104	1	5
566.444	1	12
566.783	1	10
567.123	1	11
567.463	1	8
567.803	1	11
568.143	1	19
568.483	1	-1
568.823	1	-4
569.162	1	12
569.502	1	5
569.842	1	0
570.182	1	0
570.522	1	-10
570.862	1	18
571.201	1	5
571.541	1	4
571.881	1	6
572.221	1	10
572.561	1	1
572.900	1	7
573.240	1	-3
573.580	1	0
573.920	1	17
574.260	1	11
574.599	1	16
574.939	1	4
575.279	1	0
575.619	1	3
575.959	1	6
576.298	1	8
576.638	1	-7
576.978	1	-1
577.318	1	3
577.657	1	10
577.997	1	12
578.337	1	-2
578.677	1	15
579.016	1	-2
579.356	1	11
579.696	1	-2
580.036	1	5
580.375	1	1
580.715	1	15
581.055	1	8
581.394	1	-2
581.734	1	5
582.074	1	6
582.414	1	-2
582.753	1	-2
583.093	1	-8
583.433	1	10
583.772	1	3
584.112	1	10
584.452	1	1
584.791	1	5
585.131	1	14
585.471	1	-4
585.811	1	9
586.150	1	15
586.490	1	3
586.830	1	6
587.169	1	4
587.509	1	12
587.849	1	5
588.188	1	15
588.528	1	12
588.867	1	5
589.207	1	3
589.547	1	-4
589.886	1	-4
590.226	1	13
590.566	1	-4
590.905	1	7
591.245	1	2
591.585	1	9
591.924	1	3
592.264	1	3
592.603	1	-4
592.943	1	5
593.283	1	-2
593.622	1	10
593.962	1	11
594.301	1	-3
594.641	1	5
594.981	1	-9
595.320	1	13
595.660	1	8
595.999	1	6
596.339	1	10
596.678	1	-6
597.018	1	3
597.358	1	0
597.697	1	3
598.037	1	1
598.376	1	1
598.716	1	8
599.055	1	-2
599.395	1	1
599.734	1	0
600.074	1	10
600.413	1	11
600.753	1	3
601.092	1	8
601.432	1	0
601.771	1	13
602.111	1	-1
602.451	1	2
602.790	1	6
603.130	1	6
603.469	1	-3
603.809	1	-1
604.148	1	8
604.487	1	6
604.827	1	0
605.166	1	14
605.506	1	5
605.845	1	3
606.185	1	9
606.524	1	4
606.864	1	13
607.203	1	3
607.543	1	7
607.882	1	8
608.222	1	-6
608.561	1	1
608.901	1	10
609.240	1	-3
609.579	1	5
609.919	1	15
610.258	1	-2
610.598	1	-3
610.937	1	7
611.277	1	13
611.616	1	-4
611.955	1	-7
612.295	1	12
612.634	1	-6
612.974	1	1
613.313	1	-4
613.652	1	-6
613.992	1	-5
614.331	1	1
614.671	1	5
615.010	1	-9
615.349	1	0
615.689	1	1
616.028	1	5
616.368	1	14
616.707	1	12
617.046	1	8
617.386	1	-1
617.725	1	1
618.064	1	2
618.404	1	-3
618.743	1	7
619.082	1	4
619.422	1	6
619.761	1	8
620.100	1	-1
620.440	1	9
620.779	1	5
621.118	1	3
621.458	1	9
621.797	1	-1
622.136	1	2
622.476	1	8
622.815	1	-6
623.154	1	7
623.494	1	9
623.833	1	10
624.172	1	3
624.511	1	2
624.851	1	-1
625.190	1	7
625.529	1	3
625.869	1	4
626.208	1	-8
626.547	1	4
626.886	1	-9
627.226	1	4
627.565	1	8
627.904	1	4
628.243	1	12
628.583	1	-16
628.922	1	-4
629.261	1	-14
629.600	1	7
629.940	1	7
630.279	1	4
630.618	1	8
630.957	1	1
631.297	1	-1
631.636	1	-1
631.975	1	-1
632.314	1	-2
632.653	1	3
632.993	1	14
633.332	1	-5
633.671	1	-10
634.010	1	-8
634.349	1	3
634.689	1	10
635.028	1	10
635.367	1	0
635.706	1	-9
636.045	1	20
636.384	1	2
636.724	1	11
637.063	1	-2
637.402	1	-3
637.741	1	7
638.080	1	16
638.419	1	2
638.759	1	1
639.098	1	-3
639.437	1	10
639.776	1	-6
640.115	1	15
640.454	1	1
640.793	1	-7
641.132	1	1
641.472	1	6
641.811	1	-1
642.150	1	-2
642.489	1	2
642.828	1	-5
643.167	1	7
643.506	1	13
643.845	1	-4
644.184	1	-7
644.524	1	-12
644.863	1	0
645.202	1	8
645.541	1	7
645.880	1	5
646.219	1	13
646.558	1	0
646.897	1	8
647.236	1	-4
647.575	1	-2
647.914	1	-1
648.253	1	10
648.592	1	-6
648.931	1	-6
649.270	1	-3
649.610	1	0
649.949	1	5
650.288	1	7
650.627	1	6
650.966	1	4
651.305	1	-4
651.644	1	9
651.983	1	-12
652.322	1	-1
652.661	1	0
653.000	1	-1
653.339	1	7
653.678	1	7
654.017	1	-2
654.356	1	6
654.695	1	1
655.034	1	0
655.373	1	3
655.712	1	7
656.051	1	1
656.390	1	5
656.729	1	11
657.068	1	4
657.406	1	-3
657.745	1	-1
658.084	1	8
658.423	1	2
658.762	1	17
659.101	1	7
659.440	1	-9
659.779	1	0
660.118	1	-4
660.457	1	1
660.796	1	10
661.135	1	8
661.474	1	-1
661.813	1	4
662.152	1	3
662.491	1	17
662.829	1	15
663.168	1	-4
663.507	1	2
663.846	1	-2
664.185	1	-9
664.524	1	-5
664.863	1	10
665.202	1	4
665.541	1	-3
665.879	1	2
666.218	1	8
666.557	1	12
666.896	1	0
667.235	1	-1
667.574	1	9
667.913	1	8
668.251	1	8
668.590	1	1
668.929	1	5
669.268	1	4
669.607	1	3
669.946	1	12
670.285	1	7
670.623	1	4
670.962	1	-1
671.301	1	7
671.640	1	-1
671.979	1	-4
672.317	1	-1
672.656	1	-7
672.995	1	4
673.334	1	-3
673.673	1	-2
674.011	1	0
674.350	1	7
674.689	1	7
675.028	1	16
675.367	1	6
675.705	1	18
676.044	1	4
676.383	1	1
676.722	1	-2
677.060	1	1
677.399	1	-9
677.738	1	-2
678.077	1	7
678.416	1	12
678.754	1	2
679.093	1	-2
679.432	1	3
679.771	1	5
680.109	1	-1
680.448	1	4
680.787	1	6
681.125	1	8
681.464	1	-1
681.803	1	0
682.142	1	-2
682.480	1	7
682.819	1	7
683.158	1	2
683.496	1	1
683.835	1	-14
684.174	1	1
684.512	1	8
684.851	1	-8
685.190	1	1
685.529	1	1
685.867	1	3
686.206	1	9
686.545	1	-7
686.883	1	4
687.222	1	-4
687.561	1	8
687.899	1	-14
688.238	1	7
688.577	1	-1
688.746	1	1