File: Data/GaN_130K_350ms/GaN_sample F_spot6_UVVIS_130 K_200um_350 ms 2x2mm1_148.txt
340.368	1	2
340.710	1	13
341.052	1	0
341.394	1	-6
341.737	1	8
342.079	1	10
342.421	1	4
342.763	1	5
343.105	1	6
343.447	1	5
343.789	1	9
344.131	1	11
344.473	1	0
344.815	1	-7
345.157	1	-1
345.499	1	1
345.841	1	-5
346.183	1	13
346.526	1	0
346.868	1	7
347.210	1	3
347.552	1	10
347.894	1	10
348.236	1	-2
348.578	1	5
348.920	1	9
349.262	1	4
349.604	1	8
349.946	1	10
350.288	1	-3
350.630	1	5
350.972	1	14
351.314	1	-5
351.656	1	11
351.998	1	4
352.340	1	5
352.682	1	4
353.024	1	3
353.366	1	12
353.708	1	-6
354.050	1	13
354.392	1	14
354.734	1	-1
355.076	1	6
355.418	1	10
355.760	1	3
356.102	1	1
356.444	1	-6
356.785	1	9
357.127	1	7
357.469	1	-2
357.811	1	5
358.153	1	5
358.495	1	7
358.837	1	10
359.179	1	3
359.521	1	4
359.863	1	9
360.205	1	8
360.547	1	10
360.889	1	12
361.231	1	15
361.572	1	18
361.914	1	10
362.256	1	5
362.598	1	23
362.940	1	11
363.282	1	22
363.624	1	18
363.966	1	32
364.308	1	33
364.649	1	36
364.991	1	23
365.333	1	11
365.675	1	26
366.017	1	37
366.359	1	28
366.701	1	35
367.042	1	45
367.384	1	48
367.726	1	39
368.068	1	23
368.410	1	43
368.752	1	44
369.093	1	46
369.435	1	34
369.777	1	26
370.119	1	43
370.461	1	40
370.803	1	33
371.144	1	29
371.486	1	25
371.828	1	32
372.170	1	37
372.512	1	32
372.853	1	23
373.195	1	14
373.537	1	18
373.879	1	31
374.220	1	18
374.562	1	14
374.904	1	24
375.246	1	24
375.588	1	21
375.929	1	14
376.271	1	19
376.613	1	10
376.955	1	18
377.296	1	13
377.638	1	6
377.980	1	4
378.321	1	12
378.663	1	26
379.005	1	25
379.347	1	13
379.688	1	5
380.030	1	7
380.372	1	20
380.714	1	22
381.055	1	13
381.397	1	16
381.739	1	10
382.080	1	-1
382.422	1	21
382.764	1	6
383.105	1	7
383.447	1	20
383.789	1	19
384.130	1	18
384.472	1	15
384.814	1	10
385.156	1	-1
385.497	1	9
385.839	1	6
386.180	1	12
386.522	1	8
386.864	1	17
387.205	1	17
387.547	1	13
387.889	1	9
388.230	1	6
388.572	1	15
388.914	1	1
389.255	1	16
389.597	1	-3
389.939	1	3
390.280	1	7
390.622	1	14
390.963	1	7
391.305	1	18
391.647	1	12
391.988	1	12
392.330	1	4
392.671	1	5
393.013	1	4
393.355	1	6
393.696	1	2
394.038	1	11
394.379	1	15
394.721	1	18
395.062	1	3
395.404	1	0
395.746	1	7
396.087	1	16
396.429	1	14
396.770	1	9
397.112	1	9
397.453	1	9
397.795	1	3
398.136	1	12
398.478	1	8
398.819	1	0
399.161	1	14
399.503	1	13
399.844	1	0
400.186	1	-1
400.527	1	16
400.869	1	15
401.210	1	-2
401.552	1	12
401.893	1	-13
402.235	1	2
402.576	1	3
402.918	1	10
403.259	1	-4
403.601	1	10
403.942	1	9
404.284	1	4
404.625	1	12
404.967	1	-3
405.308	1	7
405.649	1	13
405.991	1	2
406.332	1	14
406.674	1	23
407.015	1	2
407.357	1	14
407.698	1	3
408.040	1	14
408.381	1	13
408.722	1	11
409.064	1	11
409.405	1	19
409.747	1	8
410.088	1	20
410.430	1	15
410.771	1	-6
411.112	1	15
411.454	1	4
411.795	1	15
412.137	1	10
412.478	1	18
412.819	1	12
413.161	1	22
413.502	1	15
413.844	1	7
414.185	1	7
414.526	1	4
414.868	1	6
415.209	1	2
415.550	1	8
415.892	1	4
416.233	1	16
416.575	1	12
416.916	1	1
417.257	1	2
417.599	1	4
417.940	1	16
418.281	1	3
418.623	1	8
418.964	1	10
419.305	1	13
419.647	1	9
419.988	1	16
420.329	1	19
420.671	1	-1
421.012	1	7
421.353	1	4
421.695	1	3
422.036	1	8
422.377	1	12
422.718	1	-3
423.060	1	10
423.401	1	13
423.742	1	5
424.084	1	9
424.425	1	7
424.766	1	0
425.107	1	8
425.449	1	5
425.790	1	21
426.131	1	10
426.472	1	5
426.814	1	9
427.155	1	4
427.496	1	12
427.837	1	8
428.179	1	8
428.520	1	22
428.861	1	7
429.202	1	12
429.544	1	14
429.885	1	7
430.226	1	5
430.567	1	4
430.909	1	12
431.250	1	5
431.591	1	4
431.932	1	1
432.273	1	6
432.615	1	16
432.956	1	6
433.297	1	23
433.638	1	7
433.979	1	-3
434.320	1	9
434.662	1	7
435.003	1	14
435.344	1	3
435.685	1	7
436.026	1	-2
436.368	1	1
436.709	1	4
437.050	1	3
437.391	1	19
437.732	1	12
438.073	1	19
438.414	1	0
438.756	1	5
439.097	1	10
439.438	1	5
439.779	1	7
440.120	1	4
440.461	1	15
440.802	1	4
441.143	1	-8
441.485	1	13
441.826	1	6
442.167	1	6
442.508	1	6
442.849	1	7
443.190	1	6
443.531	1	4
443.872	1	11
444.213	1	-1
444.554	1	7
444.895	1	0
445.237	1	-1
445.578	1	-3
445.919	1	10
446.260	1	5
446.601	1	14
446.942	1	6
447.283	1	9
447.624	1	8
447.965	1	-1
448.306	1	6
448.647	1	12
448.988	1	11
449.329	1	2
449.670	1	8
450.011	1	0
450.352	1	9
450.693	1	-3
451.034	1	-5
451.375	1	1
451.716	1	-4
452.057	1	11
452.398	1	-1
452.739	1	-7
453.080	1	-2
453.421	1	6
453.762	1	10
454.103	1	2
454.444	1	16
454.785	1	16
455.126	1	-9
455.467	1	4
455.808	1	8
456.149	1	-3
456.490	1	0
456.831	1	17
457.172	1	9
457.513	1	1
457.854	1	3
458.195	1	0
458.536	1	0
458.877	1	22
459.218	1	11
459.559	1	3
459.899	1	10
460.240	1	21
460.581	1	2
460.922	1	7
461.263	1	6
461.604	1	-4
461.945	1	14
462.286	1	8
462.627	1	4
462.968	1	5
463.309	1	3
463.649	1	-4
463.990	1	7
464.331	1	11
464.672	1	9
465.013	1	-2
465.354	1	4
465.695	1	7
466.036	1	1
466.376	1	6
466.717	1	8
467.058	1	4
467.399	1	2
467.740	1	7
468.081	1	8
468.422	1	13
468.762	1	-4
469.103	1	8
469.444	1	-5
469.785	1	6
470.126	1	-3
470.467	1	1
470.807	1	1
471.148	1	6
471.489	1	5
471.830	1	14
472.171	1	10
472.511	1	5
472.852	1	12
473.193	1	10
473.534	1	2
473.875	1	15
474.215	1	-1
474.556	1	-1
474.897	1	-5
475.238	1	16
475.578	1	8
475.919	1	-10
476.260	1	7
476.601	1	10
476.942	1	12
477.282	1	11
477.623	1	3
477.964	1	-3
478.305	1	19
478.645	1	-7
478.986	1	4
479.327	1	2
479.667	1	8
480.008	1	1
480.349	1	-4
480.690	1	4
481.030	1	4
481.371	1	7
481.712	1	10
482.053	1	8
482.393	1	6
482.734	1	7
483.075	1	15
483.415	1	5
483.756	1	-2
484.097	1	7
484.437	1	2
484.778	1	9
485.119	1	8
485.459	1	-5
485.800	1	13
486.141	1	12
486.481	1	2
486.822	1	15
487.163	1	4
487.503	1	0
487.844	1	1
488.185	1	4
488.525	1	6
488.866	1	15
489.207	1	0
489.547	1	3
489.888	1	13
490.228	1	13
490.569	1	13
490.910	1	2
491.250	1	5
491.591	1	2
491.932	1	5
492.272	1	7
492.613	1	7
492.953	1	7
493.294	1	13
493.635	1	3
493.975	1	16
494.316	1	15
494.656	1	7
494.997	1	6
495.337	1	8
495.678	1	7
496.019	1	2
496.359	1	7
496.700	1	11
497.040	1	20
497.381	1	5
497.721	1	4
498.062	1	1
498.403	1	3
498.743	1	13
499.084	1	15
499.424	1	-6
499.765	1	2
500.105	1	5
500.446	1	6
500.786	1	13
501.127	1	5
501.467	1	8
501.808	1	9
502.148	1	17
502.489	1	2
502.829	1	3
503.170	1	2
503.510	1	20
503.851	1	5
504.191	1	9
504.532	1	11
504.872	1	18
505.213	1	10
505.553	1	18
505.894	1	17
506.234	1	2
506.575	1	-2
506.915	1	11
507.256	1	16
507.596	1	6
507.936	1	5
508.277	1	8
508.617	1	5
508.958	1	15
509.298	1	2
509.639	1	7
509.979	1	2
510.319	1	18
510.660	1	1
511.000	1	20
511.341	1	14
511.681	1	12
512.022	1	20
512.362	1	7
512.702	1	14
513.043	1	8
513.383	1	14
513.724	1	3
514.064	1	7
514.404	1	21
514.745	1	6
515.085	1	9
515.425	1	9
515.766	1	19
516.106	1	7
516.447	1	5
516.787	1	17
517.127	1	10
517.468	1	15
517.808	1	12
518.148	1	12
518.489	1	17
518.829	1	17
519.169	1	14
519.510	1	6
519.850	1	11
520.190	1	24
520.531	1	19
520.871	1	5
521.211	1	23
521.552	1	13
521.892	1	11
522.232	1	5
522.573	1	12
522.913	1	23
523.253	1	20
523.593	1	14
523.934	1	7
524.274	1	9
524.614	1	7
524.955	1	16
525.295	1	15
525.635	1	15
525.975	1	17
526.316	1	5
526.656	1	20
526.996	1	8
527.337	1	21
527.677	1	16
528.017	1	19
528.357	1	16
528.698	1	4
529.038	1	3
529.378	1	13
529.718	1	19
530.058	1	9
530.399	1	20
530.739	1	13
531.079	1	12
531.419	1	17
531.760	1	5
532.100	1	16
532.440	1	17
532.780	1	2
533.120	1	25
533.461	1	13
533.801	1	19
534.141	1	17
534.481	1	13
534.821	1	26
535.162	1	18
535.502	1	12
535.842	1	9
536.182	1	16
536.522	1	7
536.862	1	20
537.203	1	11
537.543	1	18
537.883	1	4
538.223	1	13
538.563	1	21
538.903	1	23
539.243	1	11
539.584	1	7
539.924	1	16
540.264	1	15
540.604	1	11
540.944	1	26
541.284	1	26
541.624	1	16
541.964	1	1
542.305	1	8
542.645	1	7
542.985	1	18
543.325	1	10
543.665	1	16
544.005	1	19
544.345	1	6
544.685	1	18
545.025	1	11
545.365	1	18
545.705	1	19
546.045	1	12
546.386	1	12
546.726	1	6
547.066	1	13
547.406	1	-2
547.746	1	12
548.086	1	1
548.426	1	8
548.766	1	18
549.106	1	-6
549.446	1	9
549.786	1	14
550.126	1	19
550.466	1	14
550.806	1	14
551.146	1	12
551.486	1	13
551.826	1	14
552.166	1	20
552.506	1	8
552.846	1	9
553.186	1	14
553.526	1	1
553.866	1	0
554.206	1	7
554.546	1	26
554.886	1	-1
555.226	1	4
555.566	1	1
555.906	1	11
556.246	1	10
556.586	1	13
556.926	1	6
557.266	1	8
557.606	1	9
557.946	1	16
558.286	1	17
558.626	1	2
558.966	1	5
559.306	1	18
559.646	1	13
559.986	1	11
560.325	1	5
560.665	1	27
561.005	1	4
561.345	1	12
561.685	1	6
562.025	1	2
562.365	1	18
562.705	1	10
563.045	1	11
563.385	1	8
563.725	1	10
564.064	1	19
564.404	1	4
564.744	1	6
565.084	1	10
565.424	1	-4
565.764	1	6
566.104	1	1
566.444	1	16
566.783	1	14
567.123	1	9
567.463	1	12
567.803	1	16
568.143	1	26
568.483	1	16
568.823	1	-1
569.162	1	23
569.502	1	5
569.842	1	8
570.182	1	15
570.522	1	-7
570.862	1	15
571.201	1	16
571.541	1	7
571.881	1	2
572.221	1	10
572.561	1	12
572.900	1	4
573.240	1	4
573.580	1	8
573.920	1	17
574.260	1	12
574.599	1	16
574.939	1	12
575.279	1	0
575.619	1	-1
575.959	1	8
576.298	1	0
576.638	1	5
576.978	1	-5
577.318	1	18
577.657	1	16
577.997	1	13
578.337	1	4
578.677	1	14
579.016	1	1
579.356	1	7
579.696	1	10
580.036	1	0
580.375	1	7
580.715	1	4
581.055	1	12
581.394	1	13
581.734	1	14
582.074	1	-7
582.414	1	6
582.753	1	8
583.093	1	5
583.433	1	10
583.772	1	5
584.112	1	16
584.452	1	21
584.791	1	5
585.131	1	11
585.471	1	3
585.811	1	7
586.150	1	15
586.490	1	5
586.830	1	6
587.169	1	3
587.509	1	9
587.849	1	5
588.188	1	8
588.528	1	13
588.867	1	7
589.207	1	-1
589.547	1	2
589.886	1	7
590.226	1	14
590.566	1	-1
590.905	1	6
591.245	1	6
591.585	1	10
591.924	1	2
592.264	1	2
592.603	1	3
592.943	1	2
593.283	1	-3
593.622	1	15
593.962	1	12
594.301	1	-6
594.641	1	3
594.981	1	-7
595.320	1	10
595.660	1	5
595.999	1	9
596.339	1	14
596.678	1	3
597.018	1	2
597.358	1	-7
597.697	1	4
598.037	1	8
598.376	1	0
598.716	1	10
599.055	1	11
599.395	1	-3
599.734	1	12
600.074	1	12
600.413	1	12
600.753	1	10
601.092	1	6
601.432	1	3
601.771	1	5
602.111	1	7
602.451	1	12
602.790	1	-3
603.130	1	6
603.469	1	6
603.809	1	2
604.148	1	8
604.487	1	14
604.827	1	9
605.166	1	18
605.506	1	8
605.845	1	4
606.185	1	4
606.524	1	9
606.864	1	17
607.203	1	9
607.543	1	4
607.882	1	12
608.222	1	-6
608.561	1	10
608.901	1	8
609.240	1	-1
609.579	1	5
609.919	1	11
610.258	1	2
610.598	1	5
610.937	1	7
611.277	1	9
611.616	1	-6
611.955	1	1
612.295	1	2
612.634	1	-5
612.974	1	11
613.313	1	-1
613.652	1	-4
613.992	1	-5
614.331	1	6
614.671	1	2
615.010	1	-2
615.349	1	1
615.689	1	15
616.028	1	15
616.368	1	9
616.707	1	18
617.046	1	13
617.386	1	2
617.725	1	14
618.064	1	1
618.404	1	6
618.743	1	-3
619.082	1	5
619.422	1	8
619.761	1	7
620.100	1	4
620.440	1	3
620.779	1	7
621.118	1	4
621.458	1	4
621.797	1	4
622.136	1	6
622.476	1	6
622.815	1	-4
623.154	1	-2
623.494	1	13
623.833	1	10
624.172	1	2
624.511	1	5
624.851	1	3
625.190	1	5
625.529	1	-3
625.869	1	8
626.208	1	3
626.547	1	4
626.886	1	2
627.226	1	2
627.565	1	2
627.904	1	13
628.243	1	5
628.583	1	-2
628.922	1	-3
629.261	1	-8
629.600	1	0
629.940	1	14
630.279	1	3
630.618	1	4
630.957	1	0
631.297	1	0
631.636	1	7
631.975	1	7
632.314	1	4
632.653	1	4
632.993	1	16
633.332	1	2
633.671	1	5
634.010	1	-6
634.349	1	9
634.689	1	7
635.028	1	11
635.367	1	0
635.706	1	3
636.045	1	11
636.384	1	3
636.724	1	7
637.063	1	3
637.402	1	-4
637.741	1	11
638.080	1	6
638.419	1	-3
638.759	1	2
639.098	1	4
639.437	1	5
639.776	1	-2
640.115	1	13
640.454	1	16
640.793	1	-5
641.132	1	8
641.472	1	-1
641.811	1	3
642.150	1	-13
642.489	1	1
642.828	1	4
643.167	1	6
643.506	1	11
643.845	1	4
644.184	1	-3
644.524	1	2
644.863	1	-5
645.202	1	10
645.541	1	-6
645.880	1	4
646.219	1	12
646.558	1	4
646.897	1	3
647.236	1	-5
647.575	1	-1
647.914	1	2
648.253	1	0
648.592	1	-1
648.931	1	-11
649.270	1	1
649.610	1	4
649.949	1	5
650.288	1	2
650.627	1	11
650.966	1	0
651.305	1	-2
651.644	1	1
651.983	1	-13
652.322	1	0
652.661	1	0
653.000	1	5
653.339	1	6
653.678	1	4
654.017	1	-5
654.356	1	7
654.695	1	-4
655.034	1	3
655.373	1	-4
655.712	1	-1
656.051	1	9
656.390	1	4
656.729	1	5
657.068	1	2
657.406	1	7
657.745	1	-2
658.084	1	-6
658.423	1	2
658.762	1	10
659.101	1	6
659.440	1	-2
659.779	1	1
660.118	1	1
660.457	1	5
660.796	1	7
661.135	1	23
661.474	1	8
661.813	1	4
662.152	1	6
662.491	1	8
662.829	1	6
663.168	1	-10
663.507	1	3
663.846	1	-3
664.185	1	-5
664.524	1	-9
664.863	1	6
665.202	1	-3
665.541	1	-1
665.879	1	7
666.218	1	14
666.557	1	5
666.896	1	11
667.235	1	6
667.574	1	15
667.913	1	3
668.251	1	2
668.590	1	11
668.929	1	3
669.268	1	-5
669.607	1	1
669.946	1	13
670.285	1	1
670.623	1	19
670.962	1	-5
671.301	1	6
671.640	1	-8
671.979	1	6
672.317	1	-3
672.656	1	-1
672.995	1	0
673.334	1	-7
673.673	1	11
674.011	1	6
674.350	1	5
674.689	1	6
675.028	1	12
675.367	1	-1
675.705	1	18
676.044	1	6
676.383	1	4
676.722	1	-1
677.060	1	3
677.399	1	-1
677.738	1	5
678.077	1	2
678.416	1	0
678.754	1	-1
679.093	1	-6
679.432	1	-1
679.771	1	12
680.109	1	11
680.448	1	9
680.787	1	13
681.125	1	12
681.464	1	1
681.803	1	-4
682.142	1	-2
682.480	1	9
682.819	1	5
683.158	1	2
683.496	1	-3
683.835	1	4
684.174	1	3
684.512	1	12
684.851	1	1
685.190	1	-5
685.529	1	-7
685.867	1	-1
686.206	1	12
686.545	1	13
686.883	1	-1
687.222	1	3
687.561	1	15
687.899	1	8
688.238	1	16
688.577	1	5
688.746	1	1