File: Data/GaN_130K_350ms/GaN_sample F_spot6_UVVIS_130 K_200um_350 ms 2x2mm1_114.txt
340.368	1	2
340.710	1	4
341.052	1	1
341.394	1	3
341.737	1	5
342.079	1	-2
342.421	1	3
342.763	1	13
343.105	1	8
343.447	1	3
343.789	1	4
344.131	1	13
344.473	1	-1
344.815	1	-4
345.157	1	3
345.499	1	-4
345.841	1	-8
346.183	1	2
346.526	1	2
346.868	1	9
347.210	1	-3
347.552	1	0
347.894	1	-1
348.236	1	-2
348.578	1	2
348.920	1	8
349.262	1	4
349.604	1	5
349.946	1	4
350.288	1	0
350.630	1	14
350.972	1	11
351.314	1	-5
351.656	1	9
351.998	1	1
352.340	1	18
352.682	1	0
353.024	1	3
353.366	1	2
353.708	1	-2
354.050	1	16
354.392	1	3
354.734	1	7
355.076	1	2
355.418	1	8
355.760	1	15
356.102	1	-1
356.444	1	1
356.785	1	23
357.127	1	14
357.469	1	14
357.811	1	12
358.153	1	5
358.495	1	21
358.837	1	20
359.179	1	11
359.521	1	7
359.863	1	22
360.205	1	18
360.547	1	18
360.889	1	29
361.231	1	21
361.572	1	28
361.914	1	25
362.256	1	26
362.598	1	32
362.940	1	28
363.282	1	40
363.624	1	45
363.966	1	51
364.308	1	56
364.649	1	62
364.991	1	56
365.333	1	58
365.675	1	51
366.017	1	74
366.359	1	73
366.701	1	69
367.042	1	85
367.384	1	81
367.726	1	75
368.068	1	70
368.410	1	71
368.752	1	89
369.093	1	77
369.435	1	53
369.777	1	74
370.119	1	74
370.461	1	72
370.803	1	59
371.144	1	55
371.486	1	70
371.828	1	60
372.170	1	50
372.512	1	59
372.853	1	47
373.195	1	47
373.537	1	47
373.879	1	54
374.220	1	37
374.562	1	34
374.904	1	53
375.246	1	41
375.588	1	42
375.929	1	25
376.271	1	43
376.613	1	28
376.955	1	34
377.296	1	42
377.638	1	15
377.980	1	14
378.321	1	33
378.663	1	32
379.005	1	39
379.347	1	19
379.688	1	20
380.030	1	16
380.372	1	32
380.714	1	28
381.055	1	6
381.397	1	20
381.739	1	21
382.080	1	20
382.422	1	28
382.764	1	12
383.105	1	24
383.447	1	22
383.789	1	29
384.130	1	18
384.472	1	25
384.814	1	14
385.156	1	19
385.497	1	14
385.839	1	34
386.180	1	23
386.522	1	17
386.864	1	26
387.205	1	8
387.547	1	18
387.889	1	15
388.230	1	16
388.572	1	20
388.914	1	17
389.255	1	10
389.597	1	-3
389.939	1	25
390.280	1	19
390.622	1	20
390.963	1	19
391.305	1	19
391.647	1	19
391.988	1	24
392.330	1	18
392.671	1	12
393.013	1	23
393.355	1	10
393.696	1	10
394.038	1	18
394.379	1	16
394.721	1	22
395.062	1	16
395.404	1	-1
395.746	1	14
396.087	1	19
396.429	1	16
396.770	1	9
397.112	1	18
397.453	1	23
397.795	1	14
398.136	1	17
398.478	1	22
398.819	1	-6
399.161	1	22
399.503	1	7
399.844	1	-3
400.186	1	10
400.527	1	15
400.869	1	20
401.210	1	1
401.552	1	14
401.893	1	-1
402.235	1	22
402.576	1	10
402.918	1	25
403.259	1	6
403.601	1	18
403.942	1	11
404.284	1	8
404.625	1	15
404.967	1	14
405.308	1	13
405.649	1	9
405.991	1	10
406.332	1	13
406.674	1	18
407.015	1	10
407.357	1	3
407.698	1	13
408.040	1	15
408.381	1	14
408.722	1	12
409.064	1	12
409.405	1	8
409.747	1	1
410.088	1	20
410.430	1	13
410.771	1	1
411.112	1	10
411.454	1	18
411.795	1	13
412.137	1	7
412.478	1	8
412.819	1	9
413.161	1	16
413.502	1	21
413.844	1	14
414.185	1	25
414.526	1	6
414.868	1	11
415.209	1	4
415.550	1	8
415.892	1	8
416.233	1	13
416.575	1	14
416.916	1	5
417.257	1	3
417.599	1	13
417.940	1	16
418.281	1	8
418.623	1	18
418.964	1	0
419.305	1	9
419.647	1	14
419.988	1	15
420.329	1	14
420.671	1	10
421.012	1	11
421.353	1	9
421.695	1	4
422.036	1	12
422.377	1	12
422.718	1	9
423.060	1	2
423.401	1	19
423.742	1	10
424.084	1	7
424.425	1	12
424.766	1	2
425.107	1	15
425.449	1	13
425.790	1	12
426.131	1	17
426.472	1	6
426.814	1	15
427.155	1	-2
427.496	1	8
427.837	1	10
428.179	1	11
428.520	1	9
428.861	1	9
429.202	1	18
429.544	1	20
429.885	1	12
430.226	1	9
430.567	1	7
430.909	1	3
431.250	1	16
431.591	1	-1
431.932	1	8
432.273	1	18
432.615	1	23
432.956	1	-3
433.297	1	14
433.638	1	12
433.979	1	7
434.320	1	7
434.662	1	8
435.003	1	18
435.344	1	6
435.685	1	1
436.026	1	12
436.368	1	0
436.709	1	7
437.050	1	13
437.391	1	17
437.732	1	5
438.073	1	10
438.414	1	9
438.756	1	4
439.097	1	7
439.438	1	4
439.779	1	16
440.120	1	15
440.461	1	20
440.802	1	-1
441.143	1	0
441.485	1	12
441.826	1	8
442.167	1	6
442.508	1	12
442.849	1	5
443.190	1	0
443.531	1	9
443.872	1	9
444.213	1	5
444.554	1	11
444.895	1	0
445.237	1	5
445.578	1	5
445.919	1	4
446.260	1	8
446.601	1	9
446.942	1	1
447.283	1	23
447.624	1	9
447.965	1	1
448.306	1	7
448.647	1	12
448.988	1	9
449.329	1	2
449.670	1	-2
450.011	1	-1
450.352	1	11
450.693	1	1
451.034	1	7
451.375	1	2
451.716	1	0
452.057	1	21
452.398	1	-1
452.739	1	3
453.080	1	8
453.421	1	4
453.762	1	5
454.103	1	0
454.444	1	10
454.785	1	9
455.126	1	-1
455.467	1	9
455.808	1	18
456.149	1	-9
456.490	1	11
456.831	1	5
457.172	1	9
457.513	1	-4
457.854	1	2
458.195	1	1
458.536	1	8
458.877	1	20
459.218	1	7
459.559	1	9
459.899	1	-1
460.240	1	17
460.581	1	-1
460.922	1	12
461.263	1	14
461.604	1	-2
461.945	1	14
462.286	1	11
462.627	1	14
462.968	1	9
463.309	1	10
463.649	1	1
463.990	1	-2
464.331	1	12
464.672	1	7
465.013	1	-5
465.354	1	9
465.695	1	8
466.036	1	9
466.376	1	10
466.717	1	8
467.058	1	8
467.399	1	7
467.740	1	13
468.081	1	9
468.422	1	8
468.762	1	8
469.103	1	8
469.444	1	6
469.785	1	13
470.126	1	-17
470.467	1	12
470.807	1	13
471.148	1	12
471.489	1	3
471.830	1	-3
472.171	1	7
472.511	1	-6
472.852	1	3
473.193	1	7
473.534	1	6
473.875	1	10
474.215	1	0
474.556	1	2
474.897	1	0
475.238	1	15
475.578	1	6
475.919	1	0
476.260	1	11
476.601	1	9
476.942	1	13
477.282	1	14
477.623	1	-6
477.964	1	3
478.305	1	14
478.645	1	4
478.986	1	2
479.327	1	-2
479.667	1	8
480.008	1	2
480.349	1	4
480.690	1	4
481.030	1	0
481.371	1	11
481.712	1	11
482.053	1	10
482.393	1	16
482.734	1	6
483.075	1	9
483.415	1	-2
483.756	1	-1
484.097	1	8
484.437	1	8
484.778	1	16
485.119	1	13
485.459	1	-9
485.800	1	15
486.141	1	18
486.481	1	8
486.822	1	22
487.163	1	6
487.503	1	8
487.844	1	10
488.185	1	7
488.525	1	8
488.866	1	12
489.207	1	5
489.547	1	2
489.888	1	14
490.228	1	10
490.569	1	19
490.910	1	3
491.250	1	13
491.591	1	7
491.932	1	8
492.272	1	7
492.613	1	3
492.953	1	4
493.294	1	10
493.635	1	5
493.975	1	11
494.316	1	8
494.656	1	6
494.997	1	14
495.337	1	11
495.678	1	6
496.019	1	8
496.359	1	23
496.700	1	8
497.040	1	24
497.381	1	11
497.721	1	17
498.062	1	5
498.403	1	6
498.743	1	27
499.084	1	22
499.424	1	17
499.765	1	12
500.105	1	21
500.446	1	16
500.786	1	21
501.127	1	10
501.467	1	13
501.808	1	15
502.148	1	12
502.489	1	18
502.829	1	12
503.170	1	14
503.510	1	25
503.851	1	24
504.191	1	12
504.532	1	16
504.872	1	17
505.213	1	33
505.553	1	14
505.894	1	17
506.234	1	9
506.575	1	13
506.915	1	23
507.256	1	33
507.596	1	8
507.936	1	16
508.277	1	21
508.617	1	15
508.958	1	26
509.298	1	25
509.639	1	22
509.979	1	20
510.319	1	31
510.660	1	20
511.000	1	22
511.341	1	9
511.681	1	19
512.022	1	31
512.362	1	28
512.702	1	40
513.043	1	13
513.383	1	26
513.724	1	23
514.064	1	24
514.404	1	34
514.745	1	6
515.085	1	36
515.425	1	27
515.766	1	30
516.106	1	26
516.447	1	30
516.787	1	25
517.127	1	32
517.468	1	22
517.808	1	31
518.148	1	33
518.489	1	18
518.829	1	34
519.169	1	33
519.510	1	16
519.850	1	34
520.190	1	40
520.531	1	37
520.871	1	27
521.211	1	27
521.552	1	36
521.892	1	25
522.232	1	17
522.573	1	27
522.913	1	44
523.253	1	27
523.593	1	30
523.934	1	31
524.274	1	12
524.614	1	34
524.955	1	40
525.295	1	40
525.635	1	26
525.975	1	41
526.316	1	16
526.656	1	33
526.996	1	27
527.337	1	32
527.677	1	26
528.017	1	30
528.357	1	23
528.698	1	35
529.038	1	26
529.378	1	31
529.718	1	45
530.058	1	26
530.399	1	35
530.739	1	33
531.079	1	27
531.419	1	30
531.760	1	33
532.100	1	41
532.440	1	37
532.780	1	33
533.120	1	43
533.461	1	24
533.801	1	40
534.141	1	37
534.481	1	21
534.821	1	44
535.162	1	34
535.502	1	32
535.842	1	27
536.182	1	26
536.522	1	25
536.862	1	41
537.203	1	32
537.543	1	21
537.883	1	20
538.223	1	39
538.563	1	33
538.903	1	31
539.243	1	26
539.584	1	36
539.924	1	31
540.264	1	24
540.604	1	34
540.944	1	26
541.284	1	25
541.624	1	29
541.964	1	20
542.305	1	25
542.645	1	21
542.985	1	24
543.325	1	14
543.665	1	37
544.005	1	39
544.345	1	21
544.685	1	27
545.025	1	25
545.365	1	30
545.705	1	27
546.045	1	35
546.386	1	19
546.726	1	26
547.066	1	22
547.406	1	18
547.746	1	21
548.086	1	18
548.426	1	33
548.766	1	33
549.106	1	15
549.446	1	27
549.786	1	35
550.126	1	31
550.466	1	32
550.806	1	33
551.146	1	12
551.486	1	20
551.826	1	35
552.166	1	31
552.506	1	27
552.846	1	23
553.186	1	27
553.526	1	25
553.866	1	10
554.206	1	25
554.546	1	19
554.886	1	16
555.226	1	29
555.566	1	23
555.906	1	16
556.246	1	27
556.586	1	18
556.926	1	18
557.266	1	21
557.606	1	25
557.946	1	27
558.286	1	24
558.626	1	23
558.966	1	14
559.306	1	22
559.646	1	19
559.986	1	16
560.325	1	11
560.665	1	17
561.005	1	9
561.345	1	41
561.685	1	20
562.025	1	16
562.365	1	20
562.705	1	16
563.045	1	16
563.385	1	23
563.725	1	14
564.064	1	26
564.404	1	17
564.744	1	25
565.084	1	14
565.424	1	7
565.764	1	16
566.104	1	9
566.444	1	24
566.783	1	16
567.123	1	13
567.463	1	20
567.803	1	15
568.143	1	20
568.483	1	18
568.823	1	2
569.162	1	19
569.502	1	13
569.842	1	15
570.182	1	3
570.522	1	-2
570.862	1	23
571.201	1	14
571.541	1	12
571.881	1	8
572.221	1	25
572.561	1	14
572.900	1	21
573.240	1	13
573.580	1	20
573.920	1	21
574.260	1	15
574.599	1	14
574.939	1	20
575.279	1	6
575.619	1	12
575.959	1	15
576.298	1	8
576.638	1	9
576.978	1	-1
577.318	1	14
577.657	1	20
577.997	1	21
578.337	1	13
578.677	1	18
579.016	1	15
579.356	1	20
579.696	1	9
580.036	1	6
580.375	1	11
580.715	1	11
581.055	1	11
581.394	1	9
581.734	1	15
582.074	1	4
582.414	1	9
582.753	1	13
583.093	1	17
583.433	1	19
583.772	1	17
584.112	1	18
584.452	1	22
584.791	1	1
585.131	1	7
585.471	1	4
585.811	1	10
586.150	1	22
586.490	1	6
586.830	1	3
587.169	1	12
587.509	1	9
587.849	1	12
588.188	1	16
588.528	1	15
588.867	1	10
589.207	1	0
589.547	1	-1
589.886	1	9
590.226	1	13
590.566	1	6
590.905	1	14
591.245	1	4
591.585	1	22
591.924	1	20
592.264	1	13
592.603	1	6
592.943	1	10
593.283	1	6
593.622	1	10
593.962	1	18
594.301	1	3
594.641	1	9
594.981	1	-5
595.320	1	14
595.660	1	1
595.999	1	15
596.339	1	18
596.678	1	10
597.018	1	7
597.358	1	3
597.697	1	14
598.037	1	1
598.376	1	9
598.716	1	10
599.055	1	14
599.395	1	9
599.734	1	2
600.074	1	19
600.413	1	7
600.753	1	7
601.092	1	9
601.432	1	-2
601.771	1	6
602.111	1	7
602.451	1	8
602.790	1	2
603.130	1	8
603.469	1	6
603.809	1	2
604.148	1	12
604.487	1	14
604.827	1	14
605.166	1	16
605.506	1	2
605.845	1	1
606.185	1	16
606.524	1	5
606.864	1	21
607.203	1	4
607.543	1	6
607.882	1	11
608.222	1	-7
608.561	1	-2
608.901	1	15
609.240	1	0
609.579	1	11
609.919	1	7
610.258	1	8
610.598	1	13
610.937	1	13
611.277	1	-2
611.616	1	0
611.955	1	0
612.295	1	8
612.634	1	5
612.974	1	11
613.313	1	11
613.652	1	3
613.992	1	10
614.331	1	15
614.671	1	10
615.010	1	1
615.349	1	15
615.689	1	8
616.028	1	19
616.368	1	14
616.707	1	13
617.046	1	8
617.386	1	-3
617.725	1	12
618.064	1	7
618.404	1	8
618.743	1	10
619.082	1	6
619.422	1	1
619.761	1	10
620.100	1	7
620.440	1	15
620.779	1	9
621.118	1	12
621.458	1	8
621.797	1	7
622.136	1	8
622.476	1	8
622.815	1	-2
623.154	1	5
623.494	1	16
623.833	1	6
624.172	1	-3
624.511	1	1
624.851	1	-6
625.190	1	9
625.529	1	-1
625.869	1	10
626.208	1	2
626.547	1	-1
626.886	1	6
627.226	1	-1
627.565	1	3
627.904	1	10
628.243	1	10
628.583	1	1
628.922	1	0
629.261	1	-9
629.600	1	6
629.940	1	13
630.279	1	10
630.618	1	-2
630.957	1	12
631.297	1	1
631.636	1	14
631.975	1	11
632.314	1	0
632.653	1	8
632.993	1	7
633.332	1	3
633.671	1	3
634.010	1	1
634.349	1	1
634.689	1	12
635.028	1	11
635.367	1	9
635.706	1	-3
636.045	1	15
636.384	1	7
636.724	1	6
637.063	1	9
637.402	1	3
637.741	1	20
638.080	1	3
638.419	1	20
638.759	1	2
639.098	1	1
639.437	1	12
639.776	1	4
640.115	1	13
640.454	1	10
640.793	1	-2
641.132	1	15
641.472	1	4
641.811	1	-3
642.150	1	-9
642.489	1	-4
642.828	1	3
643.167	1	6
643.506	1	9
643.845	1	-1
644.184	1	-3
644.524	1	1
644.863	1	8
645.202	1	15
645.541	1	12
645.880	1	5
646.219	1	4
646.558	1	1
646.897	1	-2
647.236	1	-6
647.575	1	-5
647.914	1	-4
648.253	1	8
648.592	1	-8
648.931	1	-3
649.270	1	0
649.610	1	6
649.949	1	2
650.288	1	13
650.627	1	2
650.966	1	8
651.305	1	5
651.644	1	12
651.983	1	-11
652.322	1	9
652.661	1	0
653.000	1	55
653.339	1	15
653.678	1	5
654.017	1	9
654.356	1	8
654.695	1	-4
655.034	1	4
655.373	1	-5
655.712	1	1
656.051	1	7
656.390	1	-2
656.729	1	11
657.068	1	1
657.406	1	9
657.745	1	3
658.084	1	-1
658.423	1	5
658.762	1	19
659.101	1	3
659.440	1	5
659.779	1	15
660.118	1	2
660.457	1	-8
660.796	1	7
661.135	1	9
661.474	1	16
661.813	1	-6
662.152	1	0
662.491	1	16
662.829	1	10
663.168	1	-2
663.507	1	7
663.846	1	2
664.185	1	-6
664.524	1	-3
664.863	1	-5
665.202	1	3
665.541	1	2
665.879	1	5
666.218	1	3
666.557	1	3
666.896	1	14
667.235	1	8
667.574	1	19
667.913	1	3
668.251	1	7
668.590	1	0
668.929	1	6
669.268	1	4
669.607	1	1
669.946	1	8
670.285	1	5
670.623	1	19
670.962	1	0
671.301	1	-4
671.640	1	-1
671.979	1	0
672.317	1	3
672.656	1	-4
672.995	1	3
673.334	1	-4
673.673	1	10
674.011	1	1
674.350	1	0
674.689	1	12
675.028	1	15
675.367	1	0
675.705	1	19
676.044	1	0
676.383	1	-10
676.722	1	0
677.060	1	1
677.399	1	12
677.738	1	-4
678.077	1	-1
678.416	1	9
678.754	1	12
679.093	1	4
679.432	1	13
679.771	1	8
680.109	1	-2
680.448	1	11
680.787	1	8
681.125	1	11
681.464	1	3
681.803	1	-11
682.142	1	1
682.480	1	14
682.819	1	7
683.158	1	14
683.496	1	5
683.835	1	9
684.174	1	5
684.512	1	16
684.851	1	-2
685.190	1	3
685.529	1	-4
685.867	1	13
686.206	1	10
686.545	1	3
686.883	1	3
687.222	1	1
687.561	1	14
687.899	1	4
688.238	1	9
688.577	1	-1
688.746	1	6