File: Data/GaN_200K_800ms/GaN_sample F_spot 12_UVVIS_200 K_200um_800 ms 2x2mm1_81.txt
340.368	1	-2
340.710	1	-9
341.052	1	7
341.394	1	-4
341.737	1	10
342.079	1	-1
342.421	1	-4
342.763	1	1
343.105	1	8
343.447	1	-3
343.789	1	-4
344.131	1	1
344.473	1	-2
344.815	1	0
345.157	1	-3
345.499	1	4
345.841	1	13
346.183	1	0
346.526	1	2
346.868	1	8
347.210	1	-2
347.552	1	-1
347.894	1	6
348.236	1	11
348.578	1	4
348.920	1	0
349.262	1	3
349.604	1	8
349.946	1	5
350.288	1	12
350.630	1	0
350.972	1	5
351.314	1	15
351.656	1	12
351.998	1	14
352.340	1	21
352.682	1	13
353.024	1	9
353.366	1	16
353.708	1	4
354.050	1	5
354.392	1	4
354.734	1	10
355.076	1	8
355.418	1	-5
355.760	1	3
356.102	1	18
356.444	1	17
356.785	1	13
357.127	1	12
357.469	1	21
357.811	1	11
358.153	1	24
358.495	1	23
358.837	1	19
359.179	1	25
359.521	1	20
359.863	1	30
360.205	1	18
360.547	1	27
360.889	1	22
361.231	1	27
361.572	1	40
361.914	1	48
362.256	1	49
362.598	1	36
362.940	1	41
363.282	1	54
363.624	1	58
363.966	1	56
364.308	1	58
364.649	1	71
364.991	1	68
365.333	1	77
365.675	1	73
366.017	1	89
366.359	1	93
366.701	1	108
367.042	1	111
367.384	1	126
367.726	1	132
368.068	1	125
368.410	1	141
368.752	1	140
369.093	1	128
369.435	1	143
369.777	1	147
370.119	1	141
370.461	1	161
370.803	1	144
371.144	1	126
371.486	1	138
371.828	1	123
372.170	1	127
372.512	1	107
372.853	1	112
373.195	1	108
373.537	1	110
373.879	1	93
374.220	1	117
374.562	1	108
374.904	1	87
375.246	1	86
375.588	1	70
375.929	1	88
376.271	1	81
376.613	1	73
376.955	1	67
377.296	1	62
377.638	1	69
377.980	1	62
378.321	1	55
378.663	1	44
379.005	1	57
379.347	1	45
379.688	1	55
380.030	1	41
380.372	1	44
380.714	1	53
381.055	1	49
381.397	1	31
381.739	1	44
382.080	1	38
382.422	1	36
382.764	1	30
383.105	1	24
383.447	1	22
383.789	1	33
384.130	1	31
384.472	1	26
384.814	1	27
385.156	1	26
385.497	1	29
385.839	1	27
386.180	1	31
386.522	1	29
386.864	1	25
387.205	1	18
387.547	1	27
387.889	1	16
388.230	1	22
388.572	1	9
388.914	1	12
389.255	1	12
389.597	1	20
389.939	1	14
390.280	1	11
390.622	1	13
390.963	1	17
391.305	1	21
391.647	1	7
391.988	1	14
392.330	1	13
392.671	1	11
393.013	1	9
393.355	1	11
393.696	1	12
394.038	1	16
394.379	1	14
394.721	1	3
395.062	1	9
395.404	1	0
395.746	1	13
396.087	1	4
396.429	1	8
396.770	1	3
397.112	1	18
397.453	1	19
397.795	1	10
398.136	1	5
398.478	1	13
398.819	1	12
399.161	1	22
399.503	1	22
399.844	1	11
400.186	1	6
400.527	1	3
400.869	1	10
401.210	1	10
401.552	1	2
401.893	1	3
402.235	1	11
402.576	1	-5
402.918	1	8
403.259	1	13
403.601	1	-4
403.942	1	15
404.284	1	6
404.625	1	10
404.967	1	12
405.308	1	9
405.649	1	9
405.991	1	0
406.332	1	-2
406.674	1	-2
407.015	1	9
407.357	1	9
407.698	1	14
408.040	1	4
408.381	1	-1
408.722	1	-5
409.064	1	-4
409.405	1	14
409.747	1	13
410.088	1	8
410.430	1	9
410.771	1	9
411.112	1	2
411.454	1	-3
411.795	1	4
412.137	1	6
412.478	1	17
412.819	1	2
413.161	1	4
413.502	1	8
413.844	1	5
414.185	1	14
414.526	1	-8
414.868	1	1
415.209	1	-2
415.550	1	-2
415.892	1	3
416.233	1	10
416.575	1	15
416.916	1	-4
417.257	1	1
417.599	1	5
417.940	1	9
418.281	1	3
418.623	1	-1
418.964	1	-11
419.305	1	-10
419.647	1	1
419.988	1	3
420.329	1	-5
420.671	1	13
421.012	1	4
421.353	1	-1
421.695	1	3
422.036	1	9
422.377	1	1
422.718	1	12
423.060	1	5
423.401	1	1
423.742	1	6
424.084	1	0
424.425	1	3
424.766	1	5
425.107	1	-3
425.449	1	2
425.790	1	-4
426.131	1	1
426.472	1	4
426.814	1	2
427.155	1	-2
427.496	1	1
427.837	1	-3
428.179	1	3
428.520	1	10
428.861	1	-1
429.202	1	10
429.544	1	4
429.885	1	16
430.226	1	-5
430.567	1	1
430.909	1	6
431.250	1	5
431.591	1	13
431.932	1	0
432.273	1	1
432.615	1	1
432.956	1	-3
433.297	1	-5
433.638	1	4
433.979	1	2
434.320	1	9
434.662	1	-3
435.003	1	8
435.344	1	5
435.685	1	2
436.026	1	6
436.368	1	-1
436.709	1	0
437.050	1	1
437.391	1	12
437.732	1	-1
438.073	1	7
438.414	1	2
438.756	1	-5
439.097	1	-3
439.438	1	-1
439.779	1	4
440.120	1	3
440.461	1	-4
440.802	1	0
441.143	1	15
441.485	1	5
441.826	1	2
442.167	1	5
442.508	1	0
442.849	1	10
443.190	1	7
443.531	1	6
443.872	1	10
444.213	1	-2
444.554	1	17
444.895	1	1
445.237	1	-4
445.578	1	-7
445.919	1	-5
446.260	1	-4
446.601	1	0
446.942	1	5
447.283	1	5
447.624	1	11
447.965	1	3
448.306	1	8
448.647	1	-5
448.988	1	-1
449.329	1	0
449.670	1	6
450.011	1	3
450.352	1	-2
450.693	1	1
451.034	1	0
451.375	1	11
451.716	1	6
452.057	1	4
452.398	1	-4
452.739	1	6
453.080	1	6
453.421	1	0
453.762	1	-1
454.103	1	5
454.444	1	-6
454.785	1	-3
455.126	1	0
455.467	1	0
455.808	1	3
456.149	1	3
456.490	1	7
456.831	1	6
457.172	1	0
457.513	1	3
457.854	1	0
458.195	1	-5
458.536	1	7
458.877	1	1
459.218	1	8
459.559	1	4
459.899	1	-1
460.240	1	8
460.581	1	13
460.922	1	0
461.263	1	-4
461.604	1	-1
461.945	1	4
462.286	1	4
462.627	1	3
462.968	1	1
463.309	1	-4
463.649	1	-3
463.990	1	0
464.331	1	-1
464.672	1	6
465.013	1	-3
465.354	1	4
465.695	1	-1
466.036	1	2
466.376	1	3
466.717	1	15
467.058	1	6
467.399	1	6
467.740	1	4
468.081	1	6
468.422	1	-3
468.762	1	3
469.103	1	2
469.444	1	-4
469.785	1	-11
470.126	1	-5
470.467	1	4
470.807	1	9
471.148	1	4
471.489	1	3
471.830	1	3
472.171	1	9
472.511	1	-3
472.852	1	2
473.193	1	7
473.534	1	13
473.875	1	13
474.215	1	12
474.556	1	3
474.897	1	5
475.238	1	10
475.578	1	-4
475.919	1	-10
476.260	1	7
476.601	1	1
476.942	1	12
477.282	1	7
477.623	1	-9
477.964	1	2
478.305	1	8
478.645	1	8
478.986	1	0
479.327	1	-2
479.667	1	4
480.008	1	-2
480.349	1	8
480.690	1	11
481.030	1	0
481.371	1	4
481.712	1	4
482.053	1	1
482.393	1	2
482.734	1	-11
483.075	1	5
483.415	1	6
483.756	1	12
484.097	1	5
484.437	1	-1
484.778	1	13
485.119	1	6
485.459	1	14
485.800	1	0
486.141	1	-3
486.481	1	3
486.822	1	15
487.163	1	2
487.503	1	1
487.844	1	-1
488.185	1	8
488.525	1	13
488.866	1	14
489.207	1	-2
489.547	1	1
489.888	1	-7
490.228	1	9
490.569	1	19
490.910	1	1
491.250	1	-7
491.591	1	0
491.932	1	12
492.272	1	10
492.613	1	-1
492.953	1	0
493.294	1	1
493.635	1	9
493.975	1	2
494.316	1	5
494.656	1	6
494.997	1	6
495.337	1	13
495.678	1	1
496.019	1	2
496.359	1	-1
496.700	1	10
497.040	1	0
497.381	1	7
497.721	1	5
498.062	1	6
498.403	1	2
498.743	1	-4
499.084	1	7
499.424	1	8
499.765	1	-4
500.105	1	3
500.446	1	-1
500.786	1	-5
501.127	1	1
501.467	1	-5
501.808	1	9
502.148	1	11
502.489	1	6
502.829	1	7
503.170	1	13
503.510	1	17
503.851	1	3
504.191	1	10
504.532	1	12
504.872	1	1
505.213	1	10
505.553	1	1
505.894	1	1
506.234	1	13
506.575	1	10
506.915	1	14
507.256	1	21
507.596	1	16
507.936	1	3
508.277	1	9
508.617	1	5
508.958	1	7
509.298	1	12
509.639	1	1
509.979	1	9
510.319	1	5
510.660	1	1
511.000	1	7
511.341	1	4
511.681	1	13
512.022	1	-3
512.362	1	6
512.702	1	8
513.043	1	13
513.383	1	8
513.724	1	10
514.064	1	16
514.404	1	6
514.745	1	4
515.085	1	11
515.425	1	-2
515.766	1	6
516.106	1	8
516.447	1	21
516.787	1	14
517.127	1	14
517.468	1	5
517.808	1	11
518.148	1	21
518.489	1	12
518.829	1	14
519.169	1	13
519.510	1	12
519.850	1	15
520.190	1	6
520.531	1	17
520.871	1	1
521.211	1	-1
521.552	1	13
521.892	1	15
522.232	1	16
522.573	1	7
522.913	1	7
523.253	1	10
523.593	1	11
523.934	1	3
524.274	1	5
524.614	1	9
524.955	1	4
525.295	1	12
525.635	1	5
525.975	1	9
526.316	1	15
526.656	1	14
526.996	1	6
527.337	1	14
527.677	1	13
528.017	1	10
528.357	1	22
528.698	1	8
529.038	1	20
529.378	1	23
529.718	1	11
530.058	1	24
530.399	1	11
530.739	1	12
531.079	1	26
531.419	1	16
531.760	1	16
532.100	1	5
532.440	1	16
532.780	1	4
533.120	1	21
533.461	1	11
533.801	1	25
534.141	1	-1
534.481	1	8
534.821	1	15
535.162	1	14
535.502	1	13
535.842	1	18
536.182	1	14
536.522	1	14
536.862	1	20
537.203	1	2
537.543	1	12
537.883	1	4
538.223	1	18
538.563	1	15
538.903	1	4
539.243	1	16
539.584	1	9
539.924	1	19
540.264	1	12
540.604	1	18
540.944	1	16
541.284	1	18
541.624	1	20
541.964	1	21
542.305	1	22
542.645	1	15
542.985	1	18
543.325	1	14
543.665	1	20
544.005	1	17
544.345	1	14
544.685	1	18
545.025	1	16
545.365	1	19
545.705	1	11
546.045	1	2
546.386	1	23
546.726	1	0
547.066	1	19
547.406	1	16
547.746	1	0
548.086	1	23
548.426	1	11
548.766	1	17
549.106	1	10
549.446	1	23
549.786	1	11
550.126	1	19
550.466	1	16
550.806	1	7
551.146	1	25
551.486	1	24
551.826	1	16
552.166	1	7
552.506	1	17
552.846	1	21
553.186	1	16
553.526	1	9
553.866	1	29
554.206	1	22
554.546	1	18
554.886	1	24
555.226	1	14
555.566	1	19
555.906	1	24
556.246	1	18
556.586	1	14
556.926	1	16
557.266	1	8
557.606	1	20
557.946	1	26
558.286	1	18
558.626	1	18
558.966	1	15
559.306	1	10
559.646	1	11
559.986	1	6
560.325	1	11
560.665	1	6
561.005	1	8
561.345	1	18
561.685	1	11
562.025	1	10
562.365	1	22
562.705	1	9
563.045	1	25
563.385	1	5
563.725	1	10
564.064	1	12
564.404	1	7
564.744	1	20
565.084	1	22
565.424	1	15
565.764	1	16
566.104	1	15
566.444	1	10
566.783	1	10
567.123	1	22
567.463	1	26
567.803	1	10
568.143	1	9
568.483	1	22
568.823	1	18
569.162	1	15
569.502	1	14
569.842	1	23
570.182	1	20
570.522	1	6
570.862	1	9
571.201	1	25
571.541	1	24
571.881	1	21
572.221	1	13
572.561	1	14
572.900	1	14
573.240	1	15
573.580	1	18
573.920	1	18
574.260	1	20
574.599	1	13
574.939	1	18
575.279	1	25
575.619	1	13
575.959	1	14
576.298	1	28
576.638	1	18
576.978	1	17
577.318	1	18
577.657	1	13
577.997	1	13
578.337	1	27
578.677	1	14
579.016	1	23
579.356	1	12
579.696	1	22
580.036	1	7
580.375	1	10
580.715	1	19
581.055	1	24
581.394	1	10
581.734	1	7
582.074	1	13
582.414	1	22
582.753	1	13
583.093	1	13
583.433	1	17
583.772	1	16
584.112	1	13
584.452	1	18
584.791	1	10
585.131	1	9
585.471	1	20
585.811	1	18
586.150	1	8
586.490	1	19
586.830	1	17
587.169	1	6
587.509	1	8
587.849	1	19
588.188	1	13
588.528	1	12
588.867	1	15
589.207	1	14
589.547	1	10
589.886	1	7
590.226	1	17
590.566	1	7
590.905	1	3
591.245	1	13
591.585	1	14
591.924	1	12
592.264	1	18
592.603	1	20
592.943	1	9
593.283	1	16
593.622	1	16
593.962	1	12
594.301	1	15
594.641	1	12
594.981	1	4
595.320	1	22
595.660	1	19
595.999	1	4
596.339	1	18
596.678	1	5
597.018	1	6
597.358	1	9
597.697	1	14
598.037	1	16
598.376	1	15
598.716	1	12
599.055	1	18
599.395	1	8
599.734	1	8
600.074	1	14
600.413	1	13
600.753	1	15
601.092	1	23
601.432	1	6
601.771	1	10
602.111	1	14
602.451	1	11
602.790	1	8
603.130	1	14
603.469	1	4
603.809	1	11
604.148	1	16
604.487	1	9
604.827	1	17
605.166	1	8
605.506	1	13
605.845	1	15
606.185	1	18
606.524	1	10
606.864	1	14
607.203	1	3
607.543	1	17
607.882	1	16
608.222	1	23
608.561	1	3
608.901	1	16
609.240	1	9
609.579	1	19
609.919	1	23
610.258	1	19
610.598	1	11
610.937	1	14
611.277	1	11
611.616	1	11
611.955	1	16
612.295	1	7
612.634	1	4
612.974	1	-1
613.313	1	22
613.652	1	2
613.992	1	18
614.331	1	7
614.671	1	7
615.010	1	-5
615.349	1	21
615.689	1	21
616.028	1	5
616.368	1	8
616.707	1	1
617.046	1	9
617.386	1	8
617.725	1	-6
618.064	1	2
618.404	1	7
618.743	1	12
619.082	1	14
619.422	1	0
619.761	1	11
620.100	1	15
620.440	1	13
620.779	1	4
621.118	1	8
621.458	1	6
621.797	1	6
622.136	1	21
622.476	1	12
622.815	1	18
623.154	1	16
623.494	1	17
623.833	1	22
624.172	1	10
624.511	1	12
624.851	1	-5
625.190	1	9
625.529	1	22
625.869	1	13
626.208	1	12
626.547	1	13
626.886	1	11
627.226	1	20
627.565	1	8
627.904	1	9
628.243	1	8
628.583	1	4
628.922	1	12
629.261	1	12
629.600	1	13
629.940	1	11
630.279	1	11
630.618	1	1
630.957	1	12
631.297	1	10
631.636	1	-2
631.975	1	16
632.314	1	8
632.653	1	9
632.993	1	8
633.332	1	5
633.671	1	9
634.010	1	-2
634.349	1	23
634.689	1	15
635.028	1	12
635.367	1	7
635.706	1	6
636.045	1	16
636.384	1	6
636.724	1	14
637.063	1	-2
637.402	1	14
637.741	1	7
638.080	1	6
638.419	1	6
638.759	1	-1
639.098	1	8
639.437	1	8
639.776	1	4
640.115	1	6
640.454	1	8
640.793	1	13
641.132	1	20
641.472	1	13
641.811	1	5
642.150	1	-6
642.489	1	8
642.828	1	-5
643.167	1	1
643.506	1	0
643.845	1	8
644.184	1	13
644.524	1	5
644.863	1	0
645.202	1	13
645.541	1	10
645.880	1	6
646.219	1	4
646.558	1	5
646.897	1	11
647.236	1	11
647.575	1	1
647.914	1	11
648.253	1	14
648.592	1	-2
648.931	1	22
649.270	1	12
649.610	1	12
649.949	1	2
650.288	1	10
650.627	1	10
650.966	1	13
651.305	1	4
651.644	1	6
651.983	1	4
652.322	1	-1
652.661	1	11
653.000	1	12
653.339	1	11
653.678	1	9
654.017	1	4
654.356	1	7
654.695	1	11
655.034	1	6
655.373	1	12
655.712	1	8
656.051	1	7
656.390	1	2
656.729	1	9
657.068	1	10
657.406	1	11
657.745	1	-1
658.084	1	8
658.423	1	17
658.762	1	7
659.101	1	9
659.440	1	19
659.779	1	-1
660.118	1	0
660.457	1	5
660.796	1	0
661.135	1	1
661.474	1	3
661.813	1	7
662.152	1	4
662.491	1	10
662.829	1	-8
663.168	1	5
663.507	1	14
663.846	1	4
664.185	1	9
664.524	1	0
664.863	1	0
665.202	1	0
665.541	1	-12
665.879	1	-7
666.218	1	7
666.557	1	2
666.896	1	1
667.235	1	-2
667.574	1	5
667.913	1	5
668.251	1	4
668.590	1	14
668.929	1	-3
669.268	1	6
669.607	1	1
669.946	1	1
670.285	1	10
670.623	1	4
670.962	1	10
671.301	1	5
671.640	1	9
671.979	1	1
672.317	1	10
672.656	1	5
672.995	1	24
673.334	1	9
673.673	1	10
674.011	1	1
674.350	1	0
674.689	1	10
675.028	1	7
675.367	1	9
675.705	1	11
676.044	1	1
676.383	1	8
676.722	1	10
677.060	1	3
677.399	1	0
677.738	1	6
678.077	1	11
678.416	1	11
678.754	1	5
679.093	1	12
679.432	1	-4
679.771	1	7
680.109	1	16
680.448	1	11
680.787	1	6
681.125	1	7
681.464	1	5
681.803	1	5
682.142	1	18
682.480	1	20
682.819	1	-1
683.158	1	3
683.496	1	13
683.835	1	12
684.174	1	9
684.512	1	10
684.851	1	12
685.190	1	1
685.529	1	3
685.867	1	5
686.206	1	4
686.545	1	1
686.883	1	6
687.222	1	14
687.561	1	11
687.899	1	11
688.238	1	17
688.577	1	2
688.746	1	5