File: Data/GaN_200K_800ms/GaN_sample F_spot 12_UVVIS_200 K_200um_800 ms 2x2mm1_22.txt
340.368	1	2
340.710	1	-3
341.052	1	6
341.394	1	-4
341.737	1	6
342.079	1	2
342.421	1	-2
342.763	1	1
343.105	1	9
343.447	1	0
343.789	1	6
344.131	1	5
344.473	1	4
344.815	1	0
345.157	1	-2
345.499	1	10
345.841	1	6
346.183	1	-6
346.526	1	-2
346.868	1	1
347.210	1	-7
347.552	1	-3
347.894	1	8
348.236	1	9
348.578	1	8
348.920	1	5
349.262	1	-1
349.604	1	2
349.946	1	4
350.288	1	7
350.630	1	8
350.972	1	-2
351.314	1	11
351.656	1	4
351.998	1	9
352.340	1	4
352.682	1	12
353.024	1	8
353.366	1	6
353.708	1	6
354.050	1	-5
354.392	1	1
354.734	1	9
355.076	1	-3
355.418	1	-11
355.760	1	3
356.102	1	5
356.444	1	5
356.785	1	3
357.127	1	-1
357.469	1	8
357.811	1	4
358.153	1	7
358.495	1	0
358.837	1	-3
359.179	1	-2
359.521	1	1
359.863	1	2
360.205	1	-4
360.547	1	6
360.889	1	-6
361.231	1	-3
361.572	1	2
361.914	1	4
362.256	1	1
362.598	1	-6
362.940	1	-8
363.282	1	9
363.624	1	3
363.966	1	1
364.308	1	-5
364.649	1	2
364.991	1	1
365.333	1	0
365.675	1	-11
366.017	1	-1
366.359	1	1
366.701	1	4
367.042	1	-4
367.384	1	2
367.726	1	5
368.068	1	5
368.410	1	17
368.752	1	6
369.093	1	-9
369.435	1	6
369.777	1	4
370.119	1	1
370.461	1	8
370.803	1	4
371.144	1	-1
371.486	1	3
371.828	1	-7
372.170	1	4
372.512	1	2
372.853	1	0
373.195	1	-2
373.537	1	3
373.879	1	0
374.220	1	15
374.562	1	10
374.904	1	4
375.246	1	1
375.588	1	3
375.929	1	9
376.271	1	8
376.613	1	1
376.955	1	-2
377.296	1	1
377.638	1	0
377.980	1	5
378.321	1	-1
378.663	1	0
379.005	1	12
379.347	1	8
379.688	1	3
380.030	1	5
380.372	1	-3
380.714	1	-1
381.055	1	1
381.397	1	1
381.739	1	1
382.080	1	5
382.422	1	1
382.764	1	3
383.105	1	1
383.447	1	-6
383.789	1	-6
384.130	1	0
384.472	1	-1
384.814	1	0
385.156	1	-11
385.497	1	11
385.839	1	-2
386.180	1	4
386.522	1	9
386.864	1	9
387.205	1	-2
387.547	1	-7
387.889	1	-1
388.230	1	6
388.572	1	-10
388.914	1	1
389.255	1	-8
389.597	1	6
389.939	1	6
390.280	1	2
390.622	1	-1
390.963	1	12
391.305	1	9
391.647	1	7
391.988	1	-8
392.330	1	2
392.671	1	2
393.013	1	4
393.355	1	-1
393.696	1	11
394.038	1	4
394.379	1	-3
394.721	1	2
395.062	1	0
395.404	1	2
395.746	1	4
396.087	1	-10
396.429	1	12
396.770	1	-1
397.112	1	7
397.453	1	10
397.795	1	8
398.136	1	-5
398.478	1	2
398.819	1	6
399.161	1	12
399.503	1	1
399.844	1	0
400.186	1	4
400.527	1	5
400.869	1	3
401.210	1	-2
401.552	1	-1
401.893	1	-3
402.235	1	-5
402.576	1	-3
402.918	1	13
403.259	1	6
403.601	1	-3
403.942	1	9
404.284	1	9
404.625	1	3
404.967	1	3
405.308	1	7
405.649	1	1
405.991	1	-3
406.332	1	-1
406.674	1	-8
407.015	1	3
407.357	1	-11
407.698	1	9
408.040	1	-9
408.381	1	4
408.722	1	-4
409.064	1	7
409.405	1	5
409.747	1	7
410.088	1	1
410.430	1	5
410.771	1	-1
411.112	1	-5
411.454	1	-2
411.795	1	-3
412.137	1	9
412.478	1	11
412.819	1	1
413.161	1	3
413.502	1	6
413.844	1	5
414.185	1	-5
414.526	1	-2
414.868	1	0
415.209	1	8
415.550	1	-10
415.892	1	4
416.233	1	1
416.575	1	26
416.916	1	-1
417.257	1	2
417.599	1	0
417.940	1	7
418.281	1	5
418.623	1	2
418.964	1	-9
419.305	1	5
419.647	1	4
419.988	1	-11
420.329	1	-1
420.671	1	2
421.012	1	0
421.353	1	2
421.695	1	-5
422.036	1	3
422.377	1	9
422.718	1	11
423.060	1	-4
423.401	1	3
423.742	1	4
424.084	1	3
424.425	1	5
424.766	1	1
425.107	1	-2
425.449	1	3
425.790	1	-10
426.131	1	8
426.472	1	0
426.814	1	-2
427.155	1	-1
427.496	1	-2
427.837	1	3
428.179	1	-8
428.520	1	1
428.861	1	-6
429.202	1	4
429.544	1	-9
429.885	1	3
430.226	1	-4
430.567	1	-1
430.909	1	2
431.250	1	-2
431.591	1	9
431.932	1	2
432.273	1	-3
432.615	1	-4
432.956	1	-6
433.297	1	-5
433.638	1	-10
433.979	1	10
434.320	1	9
434.662	1	1
435.003	1	2
435.344	1	-10
435.685	1	4
436.026	1	7
436.368	1	-1
436.709	1	0
437.050	1	4
437.391	1	11
437.732	1	-1
438.073	1	0
438.414	1	-2
438.756	1	7
439.097	1	-8
439.438	1	0
439.779	1	7
440.120	1	-5
440.461	1	4
440.802	1	-4
441.143	1	9
441.485	1	-3
441.826	1	6
442.167	1	6
442.508	1	-4
442.849	1	10
443.190	1	-6
443.531	1	11
443.872	1	3
444.213	1	8
444.554	1	11
444.895	1	-3
445.237	1	-5
445.578	1	-7
445.919	1	-5
446.260	1	-8
446.601	1	0
446.942	1	7
447.283	1	-3
447.624	1	-7
447.965	1	-2
448.306	1	-2
448.647	1	-4
448.988	1	2
449.329	1	4
449.670	1	3
450.011	1	8
450.352	1	3
450.693	1	-2
451.034	1	0
451.375	1	6
451.716	1	-11
452.057	1	8
452.398	1	9
452.739	1	0
453.080	1	-2
453.421	1	-6
453.762	1	3
454.103	1	-8
454.444	1	-2
454.785	1	2
455.126	1	2
455.467	1	3
455.808	1	-4
456.149	1	1
456.490	1	-2
456.831	1	9
457.172	1	-9
457.513	1	14
457.854	1	-2
458.195	1	3
458.536	1	11
458.877	1	-2
459.218	1	-4
459.559	1	6
459.899	1	4
460.240	1	0
460.581	1	18
460.922	1	3
461.263	1	-4
461.604	1	-3
461.945	1	1
462.286	1	6
462.627	1	3
462.968	1	3
463.309	1	2
463.649	1	-1
463.990	1	-6
464.331	1	-3
464.672	1	3
465.013	1	2
465.354	1	4
465.695	1	-3
466.036	1	-3
466.376	1	-2
466.717	1	2
467.058	1	-1
467.399	1	7
467.740	1	-3
468.081	1	13
468.422	1	-1
468.762	1	-5
469.103	1	-4
469.444	1	-4
469.785	1	-21
470.126	1	-2
470.467	1	1
470.807	1	-2
471.148	1	-6
471.489	1	2
471.830	1	-1
472.171	1	14
472.511	1	-5
472.852	1	5
473.193	1	4
473.534	1	9
473.875	1	15
474.215	1	9
474.556	1	1
474.897	1	9
475.238	1	-2
475.578	1	-4
475.919	1	-7
476.260	1	1
476.601	1	-6
476.942	1	8
477.282	1	-7
477.623	1	-4
477.964	1	-7
478.305	1	0
478.645	1	11
478.986	1	-5
479.327	1	-13
479.667	1	0
480.008	1	-4
480.349	1	-4
480.690	1	7
481.030	1	-7
481.371	1	-1
481.712	1	0
482.053	1	3
482.393	1	4
482.734	1	1
483.075	1	-1
483.415	1	-1
483.756	1	5
484.097	1	-3
484.437	1	-10
484.778	1	6
485.119	1	0
485.459	1	11
485.800	1	-6
486.141	1	-5
486.481	1	10
486.822	1	8
487.163	1	2
487.503	1	3
487.844	1	5
488.185	1	-4
488.525	1	9
488.866	1	0
489.207	1	-4
489.547	1	-2
489.888	1	1
490.228	1	3
490.569	1	11
490.910	1	3
491.250	1	-1
491.591	1	-5
491.932	1	-7
492.272	1	3
492.613	1	0
492.953	1	-5
493.294	1	-1
493.635	1	12
493.975	1	6
494.316	1	6
494.656	1	-3
494.997	1	-4
495.337	1	5
495.678	1	2
496.019	1	4
496.359	1	-6
496.700	1	-1
497.040	1	0
497.381	1	2
497.721	1	4
498.062	1	6
498.403	1	1
498.743	1	3
499.084	1	-6
499.424	1	14
499.765	1	7
500.105	1	-2
500.446	1	-11
500.786	1	1
501.127	1	3
501.467	1	-1
501.808	1	7
502.148	1	4
502.489	1	8
502.829	1	-2
503.170	1	5
503.510	1	3
503.851	1	-1
504.191	1	7
504.532	1	5
504.872	1	-6
505.213	1	8
505.553	1	-12
505.894	1	1
506.234	1	2
506.575	1	3
506.915	1	4
507.256	1	0
507.596	1	-2
507.936	1	6
508.277	1	-6
508.617	1	-4
508.958	1	-10
509.298	1	12
509.639	1	-1
509.979	1	-1
510.319	1	4
510.660	1	-4
511.000	1	-2
511.341	1	2
511.681	1	12
512.022	1	-3
512.362	1	5
512.702	1	-6
513.043	1	7
513.383	1	-2
513.724	1	8
514.064	1	12
514.404	1	-5
514.745	1	-5
515.085	1	4
515.425	1	-4
515.766	1	-11
516.106	1	-2
516.447	1	15
516.787	1	3
517.127	1	2
517.468	1	-1
517.808	1	3
518.148	1	7
518.489	1	-3
518.829	1	9
519.169	1	9
519.510	1	13
519.850	1	-2
520.190	1	-3
520.531	1	7
520.871	1	-1
521.211	1	-2
521.552	1	7
521.892	1	8
522.232	1	7
522.573	1	-3
522.913	1	4
523.253	1	6
523.593	1	-3
523.934	1	-8
524.274	1	8
524.614	1	5
524.955	1	-4
525.295	1	1
525.635	1	-2
525.975	1	1
526.316	1	14
526.656	1	3
526.996	1	10
527.337	1	-3
527.677	1	6
528.017	1	-8
528.357	1	1
528.698	1	2
529.038	1	6
529.378	1	0
529.718	1	1
530.058	1	-2
530.399	1	5
530.739	1	6
531.079	1	1
531.419	1	8
531.760	1	-4
532.100	1	-3
532.440	1	2
532.780	1	-9
533.120	1	6
533.461	1	9
533.801	1	17
534.141	1	-8
534.481	1	-5
534.821	1	10
535.162	1	0
535.502	1	2
535.842	1	14
536.182	1	-8
536.522	1	-1
536.862	1	6
537.203	1	-8
537.543	1	-9
537.883	1	6
538.223	1	-2
538.563	1	5
538.903	1	-3
539.243	1	1
539.584	1	-1
539.924	1	15
540.264	1	2
540.604	1	-1
540.944	1	1
541.284	1	9
541.624	1	0
541.964	1	11
542.305	1	6
542.645	1	3
542.985	1	4
543.325	1	-4
543.665	1	6
544.005	1	6
544.345	1	4
544.685	1	5
545.025	1	1
545.365	1	7
545.705	1	-9
546.045	1	-11
546.386	1	6
546.726	1	-4
547.066	1	4
547.406	1	-1
547.746	1	-13
548.086	1	1
548.426	1	-9
548.766	1	0
549.106	1	-3
549.446	1	2
549.786	1	1
550.126	1	7
550.466	1	5
550.806	1	0
551.146	1	-5
551.486	1	4
551.826	1	6
552.166	1	0
552.506	1	3
552.846	1	3
553.186	1	11
553.526	1	-4
553.866	1	3
554.206	1	5
554.546	1	0
554.886	1	-2
555.226	1	-5
555.566	1	10
555.906	1	11
556.246	1	4
556.586	1	-3
556.926	1	5
557.266	1	-8
557.606	1	11
557.946	1	14
558.286	1	5
558.626	1	12
558.966	1	2
559.306	1	-9
559.646	1	-3
559.986	1	-10
560.325	1	-2
560.665	1	4
561.005	1	-3
561.345	1	5
561.685	1	4
562.025	1	-6
562.365	1	5
562.705	1	3
563.045	1	-4
563.385	1	-9
563.725	1	1
564.064	1	-2
564.404	1	4
564.744	1	1
565.084	1	-8
565.424	1	2
565.764	1	-3
566.104	1	7
566.444	1	-10
566.783	1	-4
567.123	1	2
567.463	1	3
567.803	1	6
568.143	1	0
568.483	1	-1
568.823	1	7
569.162	1	2
569.502	1	-1
569.842	1	7
570.182	1	6
570.522	1	-4
570.862	1	6
571.201	1	11
571.541	1	7
571.881	1	10
572.221	1	-7
572.561	1	-3
572.900	1	2
573.240	1	1
573.580	1	-6
573.920	1	6
574.260	1	10
574.599	1	-3
574.939	1	0
575.279	1	6
575.619	1	5
575.959	1	-5
576.298	1	10
576.638	1	0
576.978	1	4
577.318	1	5
577.657	1	-2
577.997	1	-1
578.337	1	9
578.677	1	-2
579.016	1	3
579.356	1	-3
579.696	1	-1
580.036	1	-5
580.375	1	5
580.715	1	1
581.055	1	2
581.394	1	-10
581.734	1	-6
582.074	1	-7
582.414	1	9
582.753	1	-4
583.093	1	-7
583.433	1	-3
583.772	1	4
584.112	1	-3
584.452	1	7
584.791	1	-1
585.131	1	8
585.471	1	12
585.811	1	10
586.150	1	6
586.490	1	3
586.830	1	-7
587.169	1	8
587.509	1	3
587.849	1	5
588.188	1	10
588.528	1	3
588.867	1	-7
589.207	1	-3
589.547	1	1
589.886	1	-5
590.226	1	-1
590.566	1	5
590.905	1	6
591.245	1	-6
591.585	1	0
591.924	1	-3
592.264	1	3
592.603	1	4
592.943	1	1
593.283	1	4
593.622	1	0
593.962	1	2
594.301	1	-2
594.641	1	-8
594.981	1	-5
595.320	1	5
595.660	1	1
595.999	1	-10
596.339	1	9
596.678	1	-12
597.018	1	5
597.358	1	3
597.697	1	1
598.037	1	4
598.376	1	6
598.716	1	15
599.055	1	2
599.395	1	0
599.734	1	1
600.074	1	1
600.413	1	15
600.753	1	10
601.092	1	13
601.432	1	-6
601.771	1	1
602.111	1	0
602.451	1	5
602.790	1	9
603.130	1	3
603.469	1	-17
603.809	1	7
604.148	1	4
604.487	1	3
604.827	1	10
605.166	1	10
605.506	1	-5
605.845	1	2
606.185	1	13
606.524	1	-4
606.864	1	-2
607.203	1	-2
607.543	1	-6
607.882	1	0
608.222	1	14
608.561	1	2
608.901	1	6
609.240	1	-7
609.579	1	3
609.919	1	5
610.258	1	10
610.598	1	-3
610.937	1	4
611.277	1	-9
611.616	1	1
611.955	1	0
612.295	1	3
612.634	1	0
612.974	1	-4
613.313	1	6
613.652	1	5
613.992	1	2
614.331	1	4
614.671	1	-3
615.010	1	-2
615.349	1	1
615.689	1	13
616.028	1	1
616.368	1	2
616.707	1	4
617.046	1	-7
617.386	1	2
617.725	1	-4
618.064	1	0
618.404	1	2
618.743	1	4
619.082	1	5
619.422	1	-7
619.761	1	2
620.100	1	14
620.440	1	-5
620.779	1	-8
621.118	1	-1
621.458	1	12
621.797	1	-9
622.136	1	9
622.476	1	6
622.815	1	14
623.154	1	4
623.494	1	5
623.833	1	7
624.172	1	7
624.511	1	1
624.851	1	-15
625.190	1	-3
625.529	1	-1
625.869	1	-4
626.208	1	2
626.547	1	2
626.886	1	-5
627.226	1	8
627.565	1	4
627.904	1	2
628.243	1	9
628.583	1	10
628.922	1	7
629.261	1	5
629.600	1	10
629.940	1	2
630.279	1	-1
630.618	1	-4
630.957	1	-1
631.297	1	1
631.636	1	-5
631.975	1	15
632.314	1	8
632.653	1	-5
632.993	1	0
633.332	1	-6
633.671	1	-3
634.010	1	-3
634.349	1	10
634.689	1	1
635.028	1	4
635.367	1	-2
635.706	1	4
636.045	1	8
636.384	1	8
636.724	1	4
637.063	1	-2
637.402	1	4
637.741	1	1
638.080	1	-4
638.419	1	3
638.759	1	-5
639.098	1	14
639.437	1	6
639.776	1	3
640.115	1	0
640.454	1	-2
640.793	1	9
641.132	1	3
641.472	1	11
641.811	1	7
642.150	1	-13
642.489	1	8
642.828	1	2
643.167	1	5
643.506	1	-13
643.845	1	-5
644.184	1	-5
644.524	1	-2
644.863	1	-2
645.202	1	-1
645.541	1	-5
645.880	1	-2
646.219	1	2
646.558	1	0
646.897	1	6
647.236	1	0
647.575	1	10
647.914	1	-3
648.253	1	7
648.592	1	-8
648.931	1	7
649.270	1	5
649.610	1	2
649.949	1	6
650.288	1	5
650.627	1	-4
650.966	1	1
651.305	1	2
651.644	1	15
651.983	1	-6
652.322	1	-4
652.661	1	-6
653.000	1	-1
653.339	1	5
653.678	1	9
654.017	1	-2
654.356	1	2
654.695	1	2
655.034	1	8
655.373	1	8
655.712	1	3
656.051	1	4
656.390	1	-8
656.729	1	4
657.068	1	4
657.406	1	1
657.745	1	4
658.084	1	5
658.423	1	5
658.762	1	1
659.101	1	11
659.440	1	12
659.779	1	6
660.118	1	-4
660.457	1	3
660.796	1	-8
661.135	1	-6
661.474	1	1
661.813	1	14
662.152	1	9
662.491	1	1
662.829	1	3
663.168	1	5
663.507	1	11
663.846	1	2
664.185	1	5
664.524	1	4
664.863	1	-5
665.202	1	-1
665.541	1	-12
665.879	1	-4
666.218	1	-4
666.557	1	5
666.896	1	1
667.235	1	4
667.574	1	-5
667.913	1	-2
668.251	1	-2
668.590	1	1
668.929	1	-15
669.268	1	8
669.607	1	-4
669.946	1	2
670.285	1	13
670.623	1	5
670.962	1	3
671.301	1	-6
671.640	1	8
671.979	1	-5
672.317	1	8
672.656	1	4
672.995	1	12
673.334	1	1
673.673	1	3
674.011	1	2
674.350	1	6
674.689	1	-5
675.028	1	-12
675.367	1	0
675.705	1	5
676.044	1	2
676.383	1	-1
676.722	1	0
677.060	1	-3
677.399	1	-1
677.738	1	4
678.077	1	1
678.416	1	4
678.754	1	-7
679.093	1	12
679.432	1	-7
679.771	1	-3
680.109	1	4
680.448	1	-2
680.787	1	-3
681.125	1	4
681.464	1	8
681.803	1	-5
682.142	1	4
682.480	1	10
682.819	1	5
683.158	1	0
683.496	1	14
683.835	1	1
684.174	1	4
684.512	1	2
684.851	1	3
685.190	1	-2
685.529	1	4
685.867	1	3
686.206	1	1
686.545	1	1
686.883	1	-6
687.222	1	1
687.561	1	5
687.899	1	1
688.238	1	3
688.577	1	0
688.746	1	4