File: Data/GaN_200K_800ms/GaN_sample F_spot 12_UVVIS_200 K_200um_800 ms 2x2mm1_165.txt
340.368	1	3
340.710	1	-7
341.052	1	12
341.394	1	-3
341.737	1	8
342.079	1	2
342.421	1	0
342.763	1	1
343.105	1	3
343.447	1	-5
343.789	1	-1
344.131	1	-4
344.473	1	-3
344.815	1	2
345.157	1	-6
345.499	1	1
345.841	1	7
346.183	1	-6
346.526	1	-4
346.868	1	3
347.210	1	-4
347.552	1	-6
347.894	1	12
348.236	1	3
348.578	1	7
348.920	1	0
349.262	1	2
349.604	1	4
349.946	1	-5
350.288	1	9
350.630	1	3
350.972	1	0
351.314	1	13
351.656	1	10
351.998	1	11
352.340	1	8
352.682	1	3
353.024	1	19
353.366	1	18
353.708	1	0
354.050	1	-2
354.392	1	-2
354.734	1	13
355.076	1	9
355.418	1	-1
355.760	1	-4
356.102	1	20
356.444	1	16
356.785	1	19
357.127	1	-4
357.469	1	3
357.811	1	7
358.153	1	10
358.495	1	4
358.837	1	-1
359.179	1	5
359.521	1	10
359.863	1	4
360.205	1	16
360.547	1	7
360.889	1	4
361.231	1	7
361.572	1	11
361.914	1	12
362.256	1	22
362.598	1	13
362.940	1	16
363.282	1	9
363.624	1	31
363.966	1	17
364.308	1	13
364.649	1	24
364.991	1	24
365.333	1	30
365.675	1	12
366.017	1	35
366.359	1	33
366.701	1	36
367.042	1	33
367.384	1	37
367.726	1	51
368.068	1	38
368.410	1	51
368.752	1	43
369.093	1	33
369.435	1	50
369.777	1	41
370.119	1	42
370.461	1	45
370.803	1	47
371.144	1	38
371.486	1	46
371.828	1	44
372.170	1	43
372.512	1	37
372.853	1	31
373.195	1	36
373.537	1	38
373.879	1	20
374.220	1	42
374.562	1	40
374.904	1	28
375.246	1	34
375.588	1	18
375.929	1	29
376.271	1	24
376.613	1	17
376.955	1	21
377.296	1	23
377.638	1	21
377.980	1	13
378.321	1	19
378.663	1	10
379.005	1	21
379.347	1	20
379.688	1	10
380.030	1	12
380.372	1	11
380.714	1	20
381.055	1	17
381.397	1	15
381.739	1	11
382.080	1	12
382.422	1	10
382.764	1	8
383.105	1	3
383.447	1	14
383.789	1	9
384.130	1	12
384.472	1	8
384.814	1	12
385.156	1	8
385.497	1	4
385.839	1	11
386.180	1	4
386.522	1	13
386.864	1	22
387.205	1	5
387.547	1	1
387.889	1	2
388.230	1	19
388.572	1	4
388.914	1	6
389.255	1	1
389.597	1	8
389.939	1	1
390.280	1	9
390.622	1	12
390.963	1	12
391.305	1	8
391.647	1	-4
391.988	1	12
392.330	1	12
392.671	1	-1
393.013	1	5
393.355	1	10
393.696	1	1
394.038	1	3
394.379	1	8
394.721	1	-7
395.062	1	7
395.404	1	1
395.746	1	12
396.087	1	2
396.429	1	9
396.770	1	-9
397.112	1	9
397.453	1	8
397.795	1	4
398.136	1	1
398.478	1	6
398.819	1	7
399.161	1	13
399.503	1	2
399.844	1	4
400.186	1	4
400.527	1	1
400.869	1	-3
401.210	1	6
401.552	1	-8
401.893	1	8
402.235	1	-5
402.576	1	4
402.918	1	5
403.259	1	9
403.601	1	-2
403.942	1	13
404.284	1	6
404.625	1	5
404.967	1	-2
405.308	1	-1
405.649	1	6
405.991	1	-2
406.332	1	6
406.674	1	-7
407.015	1	10
407.357	1	-2
407.698	1	3
408.040	1	-2
408.381	1	5
408.722	1	-14
409.064	1	4
409.405	1	8
409.747	1	1
410.088	1	2
410.430	1	12
410.771	1	3
411.112	1	-1
411.454	1	-5
411.795	1	1
412.137	1	2
412.478	1	10
412.819	1	-7
413.161	1	-5
413.502	1	4
413.844	1	4
414.185	1	7
414.526	1	1
414.868	1	2
415.209	1	-6
415.550	1	-3
415.892	1	1
416.233	1	4
416.575	1	11
416.916	1	2
417.257	1	0
417.599	1	7
417.940	1	7
418.281	1	2
418.623	1	-6
418.964	1	-11
419.305	1	2
419.647	1	-7
419.988	1	5
420.329	1	-2
420.671	1	3
421.012	1	4
421.353	1	-1
421.695	1	-5
422.036	1	-3
422.377	1	-2
422.718	1	11
423.060	1	-8
423.401	1	7
423.742	1	5
424.084	1	0
424.425	1	6
424.766	1	-5
425.107	1	0
425.449	1	2
425.790	1	-11
426.131	1	-1
426.472	1	-4
426.814	1	2
427.155	1	-7
427.496	1	6
427.837	1	-5
428.179	1	-10
428.520	1	6
428.861	1	1
429.202	1	1
429.544	1	2
429.885	1	9
430.226	1	-6
430.567	1	-9
430.909	1	-2
431.250	1	-4
431.591	1	1
431.932	1	-2
432.273	1	2
432.615	1	-1
432.956	1	-1
433.297	1	4
433.638	1	-2
433.979	1	-3
434.320	1	3
434.662	1	-2
435.003	1	-1
435.344	1	-1
435.685	1	4
436.026	1	2
436.368	1	5
436.709	1	3
437.050	1	3
437.391	1	7
437.732	1	-2
438.073	1	8
438.414	1	3
438.756	1	-1
439.097	1	-11
439.438	1	3
439.779	1	3
440.120	1	2
440.461	1	0
440.802	1	-1
441.143	1	13
441.485	1	7
441.826	1	5
442.167	1	6
442.508	1	2
442.849	1	6
443.190	1	0
443.531	1	2
443.872	1	3
444.213	1	-2
444.554	1	15
444.895	1	-3
445.237	1	-4
445.578	1	-4
445.919	1	-1
446.260	1	0
446.601	1	-4
446.942	1	2
447.283	1	-4
447.624	1	3
447.965	1	1
448.306	1	2
448.647	1	2
448.988	1	6
449.329	1	-2
449.670	1	5
450.011	1	0
450.352	1	5
450.693	1	0
451.034	1	-3
451.375	1	9
451.716	1	9
452.057	1	13
452.398	1	-9
452.739	1	12
453.080	1	-1
453.421	1	2
453.762	1	0
454.103	1	2
454.444	1	-11
454.785	1	-7
455.126	1	-7
455.467	1	5
455.808	1	-2
456.149	1	8
456.490	1	-3
456.831	1	-4
457.172	1	-3
457.513	1	12
457.854	1	2
458.195	1	-10
458.536	1	9
458.877	1	4
459.218	1	0
459.559	1	6
459.899	1	1
460.240	1	0
460.581	1	9
460.922	1	-3
461.263	1	1
461.604	1	1
461.945	1	-1
462.286	1	3
462.627	1	8
462.968	1	3
463.309	1	-11
463.649	1	0
463.990	1	-6
464.331	1	-3
464.672	1	-6
465.013	1	3
465.354	1	-5
465.695	1	-4
466.036	1	-4
466.376	1	-7
466.717	1	1
467.058	1	4
467.399	1	7
467.740	1	-3
468.081	1	2
468.422	1	-5
468.762	1	-10
469.103	1	-10
469.444	1	-9
469.785	1	-13
470.126	1	-1
470.467	1	3
470.807	1	6
471.148	1	4
471.489	1	0
471.830	1	1
472.171	1	13
472.511	1	-6
472.852	1	0
473.193	1	9
473.534	1	3
473.875	1	5
474.215	1	17
474.556	1	4
474.897	1	3
475.238	1	-4
475.578	1	-1
475.919	1	1
476.260	1	1
476.601	1	-5
476.942	1	10
477.282	1	-2
477.623	1	-4
477.964	1	-5
478.305	1	-5
478.645	1	3
478.986	1	-2
479.327	1	-9
479.667	1	1
480.008	1	-8
480.349	1	-8
480.690	1	5
481.030	1	-3
481.371	1	-1
481.712	1	1
482.053	1	12
482.393	1	2
482.734	1	-11
483.075	1	-3
483.415	1	3
483.756	1	8
484.097	1	-3
484.437	1	-5
484.778	1	5
485.119	1	1
485.459	1	6
485.800	1	2
486.141	1	1
486.481	1	4
486.822	1	5
487.163	1	0
487.503	1	-1
487.844	1	5
488.185	1	1
488.525	1	2
488.866	1	-6
489.207	1	7
489.547	1	-3
489.888	1	-3
490.228	1	4
490.569	1	13
490.910	1	-3
491.250	1	-3
491.591	1	-4
491.932	1	0
492.272	1	3
492.613	1	-4
492.953	1	3
493.294	1	0
493.635	1	3
493.975	1	4
494.316	1	0
494.656	1	2
494.997	1	-1
495.337	1	5
495.678	1	-5
496.019	1	-2
496.359	1	2
496.700	1	7
497.040	1	4
497.381	1	-1
497.721	1	-5
498.062	1	4
498.403	1	2
498.743	1	4
499.084	1	1
499.424	1	1
499.765	1	0
500.105	1	-5
500.446	1	-14
500.786	1	-2
501.127	1	-2
501.467	1	2
501.808	1	5
502.148	1	6
502.489	1	16
502.829	1	3
503.170	1	4
503.510	1	9
503.851	1	7
504.191	1	5
504.532	1	9
504.872	1	3
505.213	1	5
505.553	1	4
505.894	1	-10
506.234	1	5
506.575	1	2
506.915	1	-1
507.256	1	4
507.596	1	6
507.936	1	5
508.277	1	-8
508.617	1	-5
508.958	1	3
509.298	1	9
509.639	1	4
509.979	1	-3
510.319	1	13
510.660	1	1
511.000	1	-1
511.341	1	1
511.681	1	0
512.022	1	-4
512.362	1	-4
512.702	1	-6
513.043	1	4
513.383	1	-2
513.724	1	2
514.064	1	16
514.404	1	-2
514.745	1	1
515.085	1	11
515.425	1	-1
515.766	1	-5
516.106	1	-2
516.447	1	10
516.787	1	12
517.127	1	7
517.468	1	2
517.808	1	-1
518.148	1	5
518.489	1	1
518.829	1	0
519.169	1	3
519.510	1	6
519.850	1	11
520.190	1	2
520.531	1	9
520.871	1	6
521.211	1	-2
521.552	1	20
521.892	1	-2
522.232	1	6
522.573	1	-1
522.913	1	-2
523.253	1	1
523.593	1	2
523.934	1	6
524.274	1	-3
524.614	1	-1
524.955	1	2
525.295	1	3
525.635	1	7
525.975	1	2
526.316	1	14
526.656	1	2
526.996	1	10
527.337	1	-3
527.677	1	6
528.017	1	-5
528.357	1	7
528.698	1	4
529.038	1	-6
529.378	1	8
529.718	1	12
530.058	1	-5
530.399	1	11
530.739	1	12
531.079	1	7
531.419	1	12
531.760	1	11
532.100	1	3
532.440	1	2
532.780	1	2
533.120	1	9
533.461	1	5
533.801	1	16
534.141	1	-2
534.481	1	-6
534.821	1	-2
535.162	1	7
535.502	1	0
535.842	1	1
536.182	1	3
536.522	1	4
536.862	1	11
537.203	1	0
537.543	1	6
537.883	1	-3
538.223	1	9
538.563	1	11
538.903	1	-7
539.243	1	6
539.584	1	0
539.924	1	12
540.264	1	-3
540.604	1	9
540.944	1	-12
541.284	1	11
541.624	1	1
541.964	1	4
542.305	1	8
542.645	1	6
542.985	1	14
543.325	1	10
543.665	1	7
544.005	1	8
544.345	1	10
544.685	1	7
545.025	1	2
545.365	1	5
545.705	1	-9
546.045	1	9
546.386	1	8
546.726	1	-8
547.066	1	4
547.406	1	4
547.746	1	-9
548.086	1	6
548.426	1	5
548.766	1	14
549.106	1	5
549.446	1	2
549.786	1	-1
550.126	1	7
550.466	1	3
550.806	1	-2
551.146	1	5
551.486	1	0
551.826	1	4
552.166	1	5
552.506	1	11
552.846	1	1
553.186	1	6
553.526	1	-1
553.866	1	7
554.206	1	1
554.546	1	8
554.886	1	2
555.226	1	-10
555.566	1	3
555.906	1	14
556.246	1	-4
556.586	1	3
556.926	1	9
557.266	1	1
557.606	1	9
557.946	1	8
558.286	1	2
558.626	1	4
558.966	1	3
559.306	1	-1
559.646	1	5
559.986	1	5
560.325	1	-6
560.665	1	7
561.005	1	-4
561.345	1	8
561.685	1	9
562.025	1	9
562.365	1	11
562.705	1	-1
563.045	1	2
563.385	1	1
563.725	1	8
564.064	1	-3
564.404	1	4
564.744	1	5
565.084	1	4
565.424	1	3
565.764	1	5
566.104	1	5
566.444	1	-2
566.783	1	3
567.123	1	10
567.463	1	11
567.803	1	0
568.143	1	-7
568.483	1	1
568.823	1	0
569.162	1	15
569.502	1	1
569.842	1	2
570.182	1	2
570.522	1	-8
570.862	1	0
571.201	1	6
571.541	1	14
571.881	1	11
572.221	1	8
572.561	1	3
572.900	1	-2
573.240	1	4
573.580	1	-6
573.920	1	8
574.260	1	10
574.599	1	5
574.939	1	9
575.279	1	13
575.619	1	13
575.959	1	3
576.298	1	11
576.638	1	-6
576.978	1	6
577.318	1	12
577.657	1	-3
577.997	1	2
578.337	1	17
578.677	1	9
579.016	1	16
579.356	1	-4
579.696	1	10
580.036	1	6
580.375	1	6
580.715	1	4
581.055	1	8
581.394	1	3
581.734	1	-4
582.074	1	0
582.414	1	5
582.753	1	6
583.093	1	12
583.433	1	0
583.772	1	20
584.112	1	-3
584.452	1	10
584.791	1	-4
585.131	1	8
585.471	1	5
585.811	1	15
586.150	1	8
586.490	1	9
586.830	1	-3
587.169	1	6
587.509	1	6
587.849	1	4
588.188	1	8
588.528	1	-5
588.867	1	5
589.207	1	2
589.547	1	9
589.886	1	3
590.226	1	7
590.566	1	0
590.905	1	1
591.245	1	-5
591.585	1	3
591.924	1	5
592.264	1	9
592.603	1	5
592.943	1	7
593.283	1	6
593.622	1	-3
593.962	1	5
594.301	1	5
594.641	1	0
594.981	1	1
595.320	1	6
595.660	1	6
595.999	1	-1
596.339	1	7
596.678	1	-2
597.018	1	-3
597.358	1	3
597.697	1	7
598.037	1	6
598.376	1	-1
598.716	1	5
599.055	1	11
599.395	1	3
599.734	1	3
600.074	1	4
600.413	1	9
600.753	1	4
601.092	1	14
601.432	1	2
601.771	1	9
602.111	1	2
602.451	1	17
602.790	1	-1
603.130	1	4
603.469	1	2
603.809	1	11
604.148	1	0
604.487	1	4
604.827	1	7
605.166	1	-2
605.506	1	2
605.845	1	2
606.185	1	3
606.524	1	-3
606.864	1	-5
607.203	1	8
607.543	1	-5
607.882	1	6
608.222	1	7
608.561	1	8
608.901	1	6
609.240	1	6
609.579	1	11
609.919	1	12
610.258	1	13
610.598	1	2
610.937	1	1
611.277	1	-3
611.616	1	8
611.955	1	11
612.295	1	1
612.634	1	3
612.974	1	-5
613.313	1	8
613.652	1	9
613.992	1	5
614.331	1	3
614.671	1	9
615.010	1	-2
615.349	1	17
615.689	1	9
616.028	1	-2
616.368	1	-1
616.707	1	6
617.046	1	9
617.386	1	4
617.725	1	12
618.064	1	-2
618.404	1	-2
618.743	1	10
619.082	1	6
619.422	1	-9
619.761	1	5
620.100	1	7
620.440	1	-2
620.779	1	-6
621.118	1	9
621.458	1	8
621.797	1	7
622.136	1	13
622.476	1	3
622.815	1	11
623.154	1	10
623.494	1	8
623.833	1	10
624.172	1	-8
624.511	1	6
624.851	1	-6
625.190	1	1
625.529	1	-2
625.869	1	7
626.208	1	2
626.547	1	-2
626.886	1	14
627.226	1	6
627.565	1	6
627.904	1	-2
628.243	1	10
628.583	1	6
628.922	1	4
629.261	1	9
629.600	1	3
629.940	1	7
630.279	1	-9
630.618	1	0
630.957	1	0
631.297	1	1
631.636	1	-3
631.975	1	24
632.314	1	0
632.653	1	1
632.993	1	-7
633.332	1	3
633.671	1	4
634.010	1	-7
634.349	1	9
634.689	1	10
635.028	1	13
635.367	1	8
635.706	1	-1
636.045	1	6
636.384	1	6
636.724	1	0
637.063	1	-4
637.402	1	3
637.741	1	0
638.080	1	-2
638.419	1	-3
638.759	1	2
639.098	1	4
639.437	1	-8
639.776	1	5
640.115	1	-6
640.454	1	2
640.793	1	7
641.132	1	9
641.472	1	9
641.811	1	9
642.150	1	-6
642.489	1	4
642.828	1	-3
643.167	1	-1
643.506	1	-3
643.845	1	-1
644.184	1	5
644.524	1	-2
644.863	1	-5
645.202	1	-4
645.541	1	4
645.880	1	7
646.219	1	5
646.558	1	-1
646.897	1	-1
647.236	1	4
647.575	1	3
647.914	1	7
648.253	1	10
648.592	1	1
648.931	1	13
649.270	1	3
649.610	1	-6
649.949	1	15
650.288	1	3
650.627	1	11
650.966	1	-6
651.305	1	-6
651.644	1	10
651.983	1	3
652.322	1	4
652.661	1	-1
653.000	1	8
653.339	1	9
653.678	1	3
654.017	1	3
654.356	1	8
654.695	1	10
655.034	1	4
655.373	1	7
655.712	1	-1
656.051	1	4
656.390	1	-2
656.729	1	6
657.068	1	9
657.406	1	7
657.745	1	-5
658.084	1	0
658.423	1	13
658.762	1	3
659.101	1	8
659.440	1	-2
659.779	1	1
660.118	1	8
660.457	1	3
660.796	1	-11
661.135	1	4
661.474	1	-6
661.813	1	18
662.152	1	3
662.491	1	0
662.829	1	1
663.168	1	5
663.507	1	9
663.846	1	-1
664.185	1	0
664.524	1	0
664.863	1	-3
665.202	1	3
665.541	1	-6
665.879	1	-11
666.218	1	-5
666.557	1	1
666.896	1	5
667.235	1	12
667.574	1	-4
667.913	1	4
668.251	1	-3
668.590	1	5
668.929	1	-14
669.268	1	-1
669.607	1	-2
669.946	1	9
670.285	1	3
670.623	1	5
670.962	1	3
671.301	1	-3
671.640	1	12
671.979	1	-5
672.317	1	10
672.656	1	-2
672.995	1	10
673.334	1	-7
673.673	1	9
674.011	1	3
674.350	1	-5
674.689	1	-4
675.028	1	3
675.367	1	4
675.705	1	8
676.044	1	0
676.383	1	2
676.722	1	-4
677.060	1	2
677.399	1	-10
677.738	1	9
678.077	1	7
678.416	1	4
678.754	1	-2
679.093	1	6
679.432	1	1
679.771	1	2
680.109	1	7
680.448	1	0
680.787	1	-1
681.125	1	4
681.464	1	0
681.803	1	4
682.142	1	10
682.480	1	13
682.819	1	-1
683.158	1	5
683.496	1	2
683.835	1	6
684.174	1	2
684.512	1	4
684.851	1	2
685.190	1	1
685.529	1	1
685.867	1	-6
686.206	1	5
686.545	1	4
686.883	1	1
687.222	1	0
687.561	1	7
687.899	1	3
688.238	1	4
688.577	1	6
688.746	1	4