File: Data/GaN_200K_800ms/GaN_sample F_spot 12_UVVIS_200 K_200um_800 ms 2x2mm1_211.txt
340.368	1	7
340.710	1	-7
341.052	1	2
341.394	1	-2
341.737	1	2
342.079	1	-3
342.421	1	-5
342.763	1	3
343.105	1	1
343.447	1	-4
343.789	1	-5
344.131	1	-6
344.473	1	-1
344.815	1	1
345.157	1	-3
345.499	1	2
345.841	1	12
346.183	1	-9
346.526	1	-2
346.868	1	10
347.210	1	-7
347.552	1	-5
347.894	1	-9
348.236	1	2
348.578	1	3
348.920	1	0
349.262	1	-4
349.604	1	4
349.946	1	-6
350.288	1	8
350.630	1	13
350.972	1	-1
351.314	1	5
351.656	1	10
351.998	1	0
352.340	1	7
352.682	1	5
353.024	1	3
353.366	1	15
353.708	1	4
354.050	1	4
354.392	1	-2
354.734	1	3
355.076	1	8
355.418	1	-15
355.760	1	-1
356.102	1	21
356.444	1	7
356.785	1	11
357.127	1	7
357.469	1	10
357.811	1	-2
358.153	1	13
358.495	1	2
358.837	1	-5
359.179	1	9
359.521	1	15
359.863	1	13
360.205	1	1
360.547	1	10
360.889	1	-4
361.231	1	-5
361.572	1	6
361.914	1	6
362.256	1	6
362.598	1	-2
362.940	1	7
363.282	1	16
363.624	1	12
363.966	1	11
364.308	1	9
364.649	1	13
364.991	1	16
365.333	1	2
365.675	1	4
366.017	1	29
366.359	1	20
366.701	1	13
367.042	1	22
367.384	1	23
367.726	1	29
368.068	1	27
368.410	1	34
368.752	1	35
369.093	1	32
369.435	1	40
369.777	1	22
370.119	1	25
370.461	1	36
370.803	1	32
371.144	1	26
371.486	1	35
371.828	1	32
372.170	1	40
372.512	1	17
372.853	1	20
373.195	1	30
373.537	1	29
373.879	1	20
374.220	1	32
374.562	1	28
374.904	1	24
375.246	1	24
375.588	1	9
375.929	1	29
376.271	1	10
376.613	1	6
376.955	1	15
377.296	1	17
377.638	1	9
377.980	1	12
378.321	1	-7
378.663	1	2
379.005	1	20
379.347	1	10
379.688	1	14
380.030	1	2
380.372	1	8
380.714	1	18
381.055	1	22
381.397	1	10
381.739	1	9
382.080	1	12
382.422	1	7
382.764	1	5
383.105	1	4
383.447	1	1
383.789	1	2
384.130	1	2
384.472	1	6
384.814	1	4
385.156	1	-1
385.497	1	6
385.839	1	8
386.180	1	8
386.522	1	11
386.864	1	12
387.205	1	3
387.547	1	2
387.889	1	-2
388.230	1	7
388.572	1	-3
388.914	1	9
389.255	1	-1
389.597	1	7
389.939	1	7
390.280	1	1
390.622	1	4
390.963	1	6
391.305	1	5
391.647	1	-2
391.988	1	4
392.330	1	6
392.671	1	2
393.013	1	5
393.355	1	-3
393.696	1	9
394.038	1	5
394.379	1	3
394.721	1	-9
395.062	1	6
395.404	1	-7
395.746	1	4
396.087	1	-3
396.429	1	8
396.770	1	1
397.112	1	11
397.453	1	9
397.795	1	3
398.136	1	-11
398.478	1	6
398.819	1	6
399.161	1	11
399.503	1	1
399.844	1	3
400.186	1	2
400.527	1	-1
400.869	1	8
401.210	1	-1
401.552	1	0
401.893	1	-5
402.235	1	-9
402.576	1	-3
402.918	1	3
403.259	1	2
403.601	1	1
403.942	1	7
404.284	1	11
404.625	1	-1
404.967	1	5
405.308	1	5
405.649	1	7
405.991	1	3
406.332	1	2
406.674	1	-2
407.015	1	6
407.357	1	-1
407.698	1	9
408.040	1	-4
408.381	1	7
408.722	1	-17
409.064	1	-2
409.405	1	6
409.747	1	-2
410.088	1	1
410.430	1	4
410.771	1	1
411.112	1	-6
411.454	1	1
411.795	1	0
412.137	1	4
412.478	1	10
412.819	1	-3
413.161	1	4
413.502	1	-1
413.844	1	4
414.185	1	12
414.526	1	-6
414.868	1	5
415.209	1	-2
415.550	1	-4
415.892	1	4
416.233	1	6
416.575	1	14
416.916	1	2
417.257	1	-2
417.599	1	5
417.940	1	-1
418.281	1	-4
418.623	1	-11
418.964	1	-8
419.305	1	0
419.647	1	-11
419.988	1	-5
420.329	1	-4
420.671	1	11
421.012	1	-1
421.353	1	-1
421.695	1	10
422.036	1	-1
422.377	1	0
422.718	1	7
423.060	1	-8
423.401	1	3
423.742	1	5
424.084	1	-5
424.425	1	0
424.766	1	3
425.107	1	-9
425.449	1	0
425.790	1	1
426.131	1	0
426.472	1	1
426.814	1	6
427.155	1	-10
427.496	1	-7
427.837	1	-6
428.179	1	-4
428.520	1	-5
428.861	1	0
429.202	1	4
429.544	1	1
429.885	1	0
430.226	1	-3
430.567	1	5
430.909	1	5
431.250	1	-7
431.591	1	2
431.932	1	-5
432.273	1	-8
432.615	1	-8
432.956	1	-6
433.297	1	-3
433.638	1	-5
433.979	1	2
434.320	1	-1
434.662	1	2
435.003	1	4
435.344	1	4
435.685	1	-6
436.026	1	7
436.368	1	0
436.709	1	-1
437.050	1	-8
437.391	1	12
437.732	1	-4
438.073	1	1
438.414	1	-10
438.756	1	0
439.097	1	1
439.438	1	-8
439.779	1	2
440.120	1	2
440.461	1	-2
440.802	1	-2
441.143	1	3
441.485	1	3
441.826	1	4
442.167	1	7
442.508	1	-5
442.849	1	5
443.190	1	0
443.531	1	6
443.872	1	4
444.213	1	5
444.554	1	3
444.895	1	-6
445.237	1	-8
445.578	1	-5
445.919	1	-5
446.260	1	-8
446.601	1	-9
446.942	1	-6
447.283	1	-5
447.624	1	0
447.965	1	10
448.306	1	-6
448.647	1	-7
448.988	1	0
449.329	1	-8
449.670	1	9
450.011	1	8
450.352	1	-7
450.693	1	-5
451.034	1	-8
451.375	1	2
451.716	1	1
452.057	1	6
452.398	1	3
452.739	1	-2
453.080	1	-6
453.421	1	-7
453.762	1	-4
454.103	1	1
454.444	1	-14
454.785	1	-1
455.126	1	-4
455.467	1	-1
455.808	1	5
456.149	1	1
456.490	1	3
456.831	1	11
457.172	1	1
457.513	1	3
457.854	1	-1
458.195	1	-2
458.536	1	1
458.877	1	3
459.218	1	-3
459.559	1	13
459.899	1	3
460.240	1	-5
460.581	1	12
460.922	1	1
461.263	1	-1
461.604	1	-10
461.945	1	-4
462.286	1	0
462.627	1	18
462.968	1	6
463.309	1	-5
463.649	1	3
463.990	1	-1
464.331	1	-3
464.672	1	-2
465.013	1	-6
465.354	1	-4
465.695	1	-10
466.036	1	-6
466.376	1	-7
466.717	1	2
467.058	1	1
467.399	1	6
467.740	1	3
468.081	1	6
468.422	1	-4
468.762	1	-7
469.103	1	-4
469.444	1	-4
469.785	1	-7
470.126	1	-12
470.467	1	2
470.807	1	7
471.148	1	4
471.489	1	0
471.830	1	3
472.171	1	3
472.511	1	-3
472.852	1	0
473.193	1	9
473.534	1	6
473.875	1	10
474.215	1	12
474.556	1	-4
474.897	1	10
475.238	1	1
475.578	1	-5
475.919	1	-8
476.260	1	1
476.601	1	-7
476.942	1	17
477.282	1	4
477.623	1	-3
477.964	1	-3
478.305	1	-1
478.645	1	10
478.986	1	1
479.327	1	-8
479.667	1	-9
480.008	1	3
480.349	1	-4
480.690	1	8
481.030	1	-11
481.371	1	0
481.712	1	-1
482.053	1	5
482.393	1	-7
482.734	1	-11
483.075	1	1
483.415	1	6
483.756	1	9
484.097	1	-3
484.437	1	-6
484.778	1	5
485.119	1	-7
485.459	1	12
485.800	1	-3
486.141	1	-3
486.481	1	-6
486.822	1	4
487.163	1	-8
487.503	1	1
487.844	1	2
488.185	1	3
488.525	1	2
488.866	1	1
489.207	1	-10
489.547	1	-3
489.888	1	-10
490.228	1	4
490.569	1	10
490.910	1	-4
491.250	1	-1
491.591	1	0
491.932	1	1
492.272	1	3
492.613	1	1
492.953	1	-4
493.294	1	-4
493.635	1	0
493.975	1	-5
494.316	1	6
494.656	1	-9
494.997	1	-1
495.337	1	10
495.678	1	-1
496.019	1	5
496.359	1	3
496.700	1	0
497.040	1	-10
497.381	1	-9
497.721	1	3
498.062	1	9
498.403	1	3
498.743	1	5
499.084	1	1
499.424	1	-2
499.765	1	-3
500.105	1	5
500.446	1	-5
500.786	1	1
501.127	1	2
501.467	1	-4
501.808	1	6
502.148	1	2
502.489	1	7
502.829	1	3
503.170	1	10
503.510	1	6
503.851	1	-8
504.191	1	0
504.532	1	8
504.872	1	5
505.213	1	9
505.553	1	-10
505.894	1	-1
506.234	1	7
506.575	1	11
506.915	1	19
507.256	1	-6
507.596	1	3
507.936	1	0
508.277	1	-1
508.617	1	-4
508.958	1	-12
509.298	1	3
509.639	1	-2
509.979	1	-1
510.319	1	7
510.660	1	-3
511.000	1	-13
511.341	1	4
511.681	1	2
512.022	1	-11
512.362	1	2
512.702	1	0
513.043	1	9
513.383	1	-11
513.724	1	-6
514.064	1	-2
514.404	1	-2
514.745	1	0
515.085	1	1
515.425	1	-3
515.766	1	-3
516.106	1	-3
516.447	1	13
516.787	1	9
517.127	1	0
517.468	1	1
517.808	1	-2
518.148	1	6
518.489	1	2
518.829	1	3
519.169	1	-1
519.510	1	-2
519.850	1	11
520.190	1	5
520.531	1	5
520.871	1	-2
521.211	1	-10
521.552	1	7
521.892	1	4
522.232	1	12
522.573	1	-5
522.913	1	3
523.253	1	-9
523.593	1	-5
523.934	1	-5
524.274	1	1
524.614	1	9
524.955	1	-1
525.295	1	10
525.635	1	2
525.975	1	9
526.316	1	4
526.656	1	5
526.996	1	0
527.337	1	-1
527.677	1	2
528.017	1	-7
528.357	1	6
528.698	1	11
529.038	1	0
529.378	1	1
529.718	1	11
530.058	1	6
530.399	1	10
530.739	1	9
531.079	1	-1
531.419	1	1
531.760	1	4
532.100	1	3
532.440	1	3
532.780	1	0
533.120	1	8
533.461	1	2
533.801	1	9
534.141	1	-1
534.481	1	-1
534.821	1	2
535.162	1	-7
535.502	1	-7
535.842	1	-3
536.182	1	-4
536.522	1	-9
536.862	1	15
537.203	1	1
537.543	1	1
537.883	1	3
538.223	1	-5
538.563	1	6
538.903	1	-14
539.243	1	6
539.584	1	2
539.924	1	6
540.264	1	-4
540.604	1	5
540.944	1	3
541.284	1	5
541.624	1	7
541.964	1	12
542.305	1	8
542.645	1	3
542.985	1	6
543.325	1	4
543.665	1	7
544.005	1	11
544.345	1	5
544.685	1	1
545.025	1	5
545.365	1	-4
545.705	1	5
546.045	1	-5
546.386	1	4
546.726	1	-7
547.066	1	7
547.406	1	-3
547.746	1	-2
548.086	1	-2
548.426	1	-4
548.766	1	2
549.106	1	-5
549.446	1	5
549.786	1	7
550.126	1	15
550.466	1	7
550.806	1	2
551.146	1	9
551.486	1	-2
551.826	1	8
552.166	1	0
552.506	1	7
552.846	1	1
553.186	1	14
553.526	1	-4
553.866	1	5
554.206	1	7
554.546	1	6
554.886	1	13
555.226	1	1
555.566	1	13
555.906	1	9
556.246	1	8
556.586	1	0
556.926	1	11
557.266	1	3
557.606	1	4
557.946	1	16
558.286	1	10
558.626	1	2
558.966	1	5
559.306	1	-1
559.646	1	-2
559.986	1	2
560.325	1	-6
560.665	1	1
561.005	1	0
561.345	1	-1
561.685	1	4
562.025	1	-3
562.365	1	6
562.705	1	-5
563.045	1	-1
563.385	1	-9
563.725	1	2
564.064	1	-4
564.404	1	1
564.744	1	5
565.084	1	2
565.424	1	1
565.764	1	5
566.104	1	5
566.444	1	4
566.783	1	5
567.123	1	4
567.463	1	7
567.803	1	1
568.143	1	3
568.483	1	10
568.823	1	6
569.162	1	10
569.502	1	8
569.842	1	0
570.182	1	7
570.522	1	-5
570.862	1	2
571.201	1	18
571.541	1	13
571.881	1	12
572.221	1	-2
572.561	1	-2
572.900	1	-1
573.240	1	2
573.580	1	4
573.920	1	10
574.260	1	6
574.599	1	-1
574.939	1	0
575.279	1	14
575.619	1	3
575.959	1	-4
576.298	1	8
576.638	1	-4
576.978	1	8
577.318	1	17
577.657	1	2
577.997	1	1
578.337	1	16
578.677	1	9
579.016	1	8
579.356	1	-8
579.696	1	6
580.036	1	2
580.375	1	4
580.715	1	1
581.055	1	5
581.394	1	-2
581.734	1	-1
582.074	1	-3
582.414	1	5
582.753	1	0
583.093	1	-1
583.433	1	2
583.772	1	11
584.112	1	4
584.452	1	8
584.791	1	6
585.131	1	4
585.471	1	17
585.811	1	5
586.150	1	4
586.490	1	4
586.830	1	8
587.169	1	4
587.509	1	3
587.849	1	8
588.188	1	9
588.528	1	3
588.867	1	10
589.207	1	3
589.547	1	-3
589.886	1	3
590.226	1	15
590.566	1	11
590.905	1	9
591.245	1	2
591.585	1	8
591.924	1	7
592.264	1	10
592.603	1	3
592.943	1	10
593.283	1	-1
593.622	1	5
593.962	1	11
594.301	1	13
594.641	1	-2
594.981	1	1
595.320	1	-1
595.660	1	-7
595.999	1	-1
596.339	1	8
596.678	1	1
597.018	1	0
597.358	1	7
597.697	1	2
598.037	1	-7
598.376	1	0
598.716	1	1
599.055	1	7
599.395	1	-1
599.734	1	4
600.074	1	5
600.413	1	11
600.753	1	12
601.092	1	13
601.432	1	-2
601.771	1	11
602.111	1	4
602.451	1	10
602.790	1	-8
603.130	1	11
603.469	1	3
603.809	1	8
604.148	1	6
604.487	1	2
604.827	1	12
605.166	1	8
605.506	1	6
605.845	1	1
606.185	1	10
606.524	1	5
606.864	1	3
607.203	1	-3
607.543	1	2
607.882	1	4
608.222	1	10
608.561	1	1
608.901	1	7
609.240	1	-6
609.579	1	6
609.919	1	16
610.258	1	3
610.598	1	-11
610.937	1	9
611.277	1	10
611.616	1	5
611.955	1	3
612.295	1	-4
612.634	1	7
612.974	1	-9
613.313	1	16
613.652	1	8
613.992	1	0
614.331	1	0
614.671	1	4
615.010	1	3
615.349	1	14
615.689	1	16
616.028	1	2
616.368	1	6
616.707	1	1
617.046	1	-2
617.386	1	2
617.725	1	-3
618.064	1	-4
618.404	1	5
618.743	1	14
619.082	1	0
619.422	1	-8
619.761	1	12
620.100	1	1
620.440	1	5
620.779	1	3
621.118	1	2
621.458	1	12
621.797	1	-1
622.136	1	13
622.476	1	4
622.815	1	5
623.154	1	1
623.494	1	13
623.833	1	9
624.172	1	5
624.511	1	-2
624.851	1	-9
625.190	1	1
625.529	1	3
625.869	1	1
626.208	1	8
626.547	1	3
626.886	1	1
627.226	1	-3
627.565	1	-1
627.904	1	0
628.243	1	10
628.583	1	-4
628.922	1	3
629.261	1	13
629.600	1	14
629.940	1	2
630.279	1	-7
630.618	1	4
630.957	1	0
631.297	1	-3
631.636	1	-5
631.975	1	10
632.314	1	-3
632.653	1	10
632.993	1	-3
633.332	1	5
633.671	1	1
634.010	1	-4
634.349	1	7
634.689	1	5
635.028	1	7
635.367	1	1
635.706	1	0
636.045	1	10
636.384	1	-2
636.724	1	4
637.063	1	3
637.402	1	1
637.741	1	4
638.080	1	5
638.419	1	4
638.759	1	-10
639.098	1	6
639.437	1	11
639.776	1	-2
640.115	1	0
640.454	1	-5
640.793	1	7
641.132	1	8
641.472	1	4
641.811	1	2
642.150	1	-3
642.489	1	4
642.828	1	-3
643.167	1	0
643.506	1	-6
643.845	1	-8
644.184	1	9
644.524	1	6
644.863	1	-9
645.202	1	2
645.541	1	1
645.880	1	2
646.219	1	3
646.558	1	4
646.897	1	-1
647.236	1	0
647.575	1	5
647.914	1	-3
648.253	1	1
648.592	1	-10
648.931	1	15
649.270	1	3
649.610	1	-1
649.949	1	-2
650.288	1	5
650.627	1	0
650.966	1	8
651.305	1	6
651.644	1	13
651.983	1	1
652.322	1	-2
652.661	1	-2
653.000	1	5
653.339	1	13
653.678	1	1
654.017	1	2
654.356	1	-11
654.695	1	13
655.034	1	5
655.373	1	4
655.712	1	-5
656.051	1	7
656.390	1	0
656.729	1	6
657.068	1	2
657.406	1	3
657.745	1	-9
658.084	1	3
658.423	1	4
658.762	1	-3
659.101	1	11
659.440	1	-3
659.779	1	1
660.118	1	4
660.457	1	-3
660.796	1	-1
661.135	1	-5
661.474	1	2
661.813	1	7
662.152	1	0
662.491	1	-8
662.829	1	-9
663.168	1	5
663.507	1	7
663.846	1	-3
664.185	1	9
664.524	1	4
664.863	1	-1
665.202	1	12
665.541	1	-14
665.879	1	-6
666.218	1	-8
666.557	1	6
666.896	1	-3
667.235	1	2
667.574	1	0
667.913	1	0
668.251	1	-8
668.590	1	2
668.929	1	-7
669.268	1	-1
669.607	1	-4
669.946	1	8
670.285	1	10
670.623	1	2
670.962	1	6
671.301	1	2
671.640	1	5
671.979	1	1
672.317	1	7
672.656	1	-1
672.995	1	-1
673.334	1	-6
673.673	1	5
674.011	1	-3
674.350	1	-4
674.689	1	1
675.028	1	4
675.367	1	8
675.705	1	7
676.044	1	1
676.383	1	1
676.722	1	-2
677.060	1	-3
677.399	1	-6
677.738	1	4
678.077	1	-2
678.416	1	0
678.754	1	-1
679.093	1	8
679.432	1	7
679.771	1	6
680.109	1	11
680.448	1	3
680.787	1	0
681.125	1	7
681.464	1	-1
681.803	1	-7
682.142	1	4
682.480	1	8
682.819	1	5
683.158	1	2
683.496	1	4
683.835	1	2
684.174	1	0
684.512	1	6
684.851	1	-3
685.190	1	-6
685.529	1	-7
685.867	1	3
686.206	1	-6
686.545	1	-10
686.883	1	-1
687.222	1	6
687.561	1	2
687.899	1	3
688.238	1	1
688.577	1	-1
688.746	1	2