File: Data/GaN_200K_800ms/GaN_sample F_spot 12_UVVIS_200 K_200um_800 ms 2x2mm1_185.txt
340.368	1	8
340.710	1	-7
341.052	1	5
341.394	1	-8
341.737	1	6
342.079	1	1
342.421	1	0
342.763	1	10
343.105	1	-2
343.447	1	-7
343.789	1	-3
344.131	1	-6
344.473	1	-5
344.815	1	6
345.157	1	-3
345.499	1	-5
345.841	1	6
346.183	1	1
346.526	1	10
346.868	1	9
347.210	1	-12
347.552	1	-9
347.894	1	8
348.236	1	6
348.578	1	2
348.920	1	1
349.262	1	2
349.604	1	5
349.946	1	0
350.288	1	4
350.630	1	2
350.972	1	4
351.314	1	3
351.656	1	1
351.998	1	12
352.340	1	6
352.682	1	3
353.024	1	6
353.366	1	11
353.708	1	4
354.050	1	4
354.392	1	-5
354.734	1	14
355.076	1	8
355.418	1	-11
355.760	1	-4
356.102	1	13
356.444	1	9
356.785	1	9
357.127	1	2
357.469	1	4
357.811	1	2
358.153	1	7
358.495	1	5
358.837	1	-8
359.179	1	3
359.521	1	14
359.863	1	6
360.205	1	5
360.547	1	10
360.889	1	8
361.231	1	-8
361.572	1	12
361.914	1	10
362.256	1	11
362.598	1	-4
362.940	1	11
363.282	1	15
363.624	1	25
363.966	1	13
364.308	1	17
364.649	1	13
364.991	1	20
365.333	1	16
365.675	1	12
366.017	1	22
366.359	1	34
366.701	1	26
367.042	1	38
367.384	1	36
367.726	1	35
368.068	1	40
368.410	1	43
368.752	1	27
369.093	1	38
369.435	1	38
369.777	1	35
370.119	1	36
370.461	1	55
370.803	1	38
371.144	1	31
371.486	1	35
371.828	1	32
372.170	1	41
372.512	1	26
372.853	1	31
373.195	1	25
373.537	1	25
373.879	1	34
374.220	1	41
374.562	1	30
374.904	1	19
375.246	1	32
375.588	1	34
375.929	1	31
376.271	1	23
376.613	1	14
376.955	1	7
377.296	1	14
377.638	1	20
377.980	1	23
378.321	1	9
378.663	1	11
379.005	1	22
379.347	1	8
379.688	1	9
380.030	1	4
380.372	1	11
380.714	1	6
381.055	1	13
381.397	1	4
381.739	1	15
382.080	1	13
382.422	1	12
382.764	1	9
383.105	1	11
383.447	1	6
383.789	1	0
384.130	1	5
384.472	1	8
384.814	1	2
385.156	1	-2
385.497	1	7
385.839	1	-3
386.180	1	3
386.522	1	13
386.864	1	6
387.205	1	0
387.547	1	-6
387.889	1	13
388.230	1	22
388.572	1	-4
388.914	1	9
389.255	1	0
389.597	1	5
389.939	1	6
390.280	1	6
390.622	1	-3
390.963	1	13
391.305	1	13
391.647	1	0
391.988	1	5
392.330	1	13
392.671	1	5
393.013	1	-15
393.355	1	9
393.696	1	4
394.038	1	3
394.379	1	8
394.721	1	-5
395.062	1	11
395.404	1	5
395.746	1	7
396.087	1	3
396.429	1	8
396.770	1	1
397.112	1	14
397.453	1	20
397.795	1	3
398.136	1	-4
398.478	1	0
398.819	1	1
399.161	1	10
399.503	1	-3
399.844	1	4
400.186	1	-2
400.527	1	-4
400.869	1	-7
401.210	1	0
401.552	1	-7
401.893	1	3
402.235	1	0
402.576	1	0
402.918	1	15
403.259	1	12
403.601	1	5
403.942	1	15
404.284	1	5
404.625	1	6
404.967	1	-1
405.308	1	0
405.649	1	-5
405.991	1	-1
406.332	1	-1
406.674	1	-1
407.015	1	4
407.357	1	-12
407.698	1	6
408.040	1	-1
408.381	1	5
408.722	1	-10
409.064	1	7
409.405	1	10
409.747	1	10
410.088	1	8
410.430	1	6
410.771	1	5
411.112	1	-5
411.454	1	-2
411.795	1	-9
412.137	1	5
412.478	1	13
412.819	1	-2
413.161	1	-3
413.502	1	3
413.844	1	6
414.185	1	10
414.526	1	0
414.868	1	-4
415.209	1	6
415.550	1	-9
415.892	1	-4
416.233	1	7
416.575	1	11
416.916	1	-10
417.257	1	-8
417.599	1	0
417.940	1	15
418.281	1	-5
418.623	1	-6
418.964	1	-10
419.305	1	-6
419.647	1	0
419.988	1	7
420.329	1	-8
420.671	1	1
421.012	1	13
421.353	1	0
421.695	1	-8
422.036	1	-6
422.377	1	-2
422.718	1	9
423.060	1	-4
423.401	1	6
423.742	1	1
424.084	1	-4
424.425	1	6
424.766	1	-2
425.107	1	2
425.449	1	6
425.790	1	-8
426.131	1	2
426.472	1	5
426.814	1	12
427.155	1	-9
427.496	1	-2
427.837	1	-3
428.179	1	-7
428.520	1	-6
428.861	1	-1
429.202	1	-3
429.544	1	-2
429.885	1	3
430.226	1	-3
430.567	1	2
430.909	1	1
431.250	1	10
431.591	1	6
431.932	1	-1
432.273	1	-3
432.615	1	-11
432.956	1	-6
433.297	1	5
433.638	1	-2
433.979	1	10
434.320	1	3
434.662	1	-2
435.003	1	1
435.344	1	2
435.685	1	-10
436.026	1	3
436.368	1	-2
436.709	1	-6
437.050	1	0
437.391	1	4
437.732	1	-10
438.073	1	4
438.414	1	-2
438.756	1	-7
439.097	1	-4
439.438	1	7
439.779	1	1
440.120	1	1
440.461	1	2
440.802	1	-3
441.143	1	3
441.485	1	2
441.826	1	1
442.167	1	7
442.508	1	-5
442.849	1	-2
443.190	1	1
443.531	1	8
443.872	1	12
444.213	1	-3
444.554	1	9
444.895	1	0
445.237	1	-2
445.578	1	-8
445.919	1	-6
446.260	1	1
446.601	1	-6
446.942	1	6
447.283	1	0
447.624	1	2
447.965	1	-6
448.306	1	1
448.647	1	-4
448.988	1	3
449.329	1	-8
449.670	1	-1
450.011	1	1
450.352	1	-2
450.693	1	-13
451.034	1	-7
451.375	1	2
451.716	1	-2
452.057	1	5
452.398	1	-9
452.739	1	3
453.080	1	-3
453.421	1	-2
453.762	1	1
454.103	1	1
454.444	1	-11
454.785	1	-4
455.126	1	-6
455.467	1	8
455.808	1	0
456.149	1	1
456.490	1	-8
456.831	1	9
457.172	1	-2
457.513	1	-2
457.854	1	3
458.195	1	2
458.536	1	10
458.877	1	3
459.218	1	-3
459.559	1	3
459.899	1	2
460.240	1	-5
460.581	1	15
460.922	1	3
461.263	1	-1
461.604	1	-4
461.945	1	2
462.286	1	-6
462.627	1	13
462.968	1	3
463.309	1	-3
463.649	1	-10
463.990	1	-5
464.331	1	0
464.672	1	-3
465.013	1	-9
465.354	1	-9
465.695	1	2
466.036	1	-5
466.376	1	-1
466.717	1	5
467.058	1	-1
467.399	1	6
467.740	1	10
468.081	1	5
468.422	1	-3
468.762	1	-2
469.103	1	2
469.444	1	-6
469.785	1	1
470.126	1	-7
470.467	1	-2
470.807	1	-2
471.148	1	-8
471.489	1	1
471.830	1	6
472.171	1	8
472.511	1	-7
472.852	1	1
473.193	1	3
473.534	1	16
473.875	1	12
474.215	1	11
474.556	1	5
474.897	1	-1
475.238	1	-1
475.578	1	-9
475.919	1	-4
476.260	1	3
476.601	1	-1
476.942	1	13
477.282	1	-8
477.623	1	-9
477.964	1	-1
478.305	1	-3
478.645	1	10
478.986	1	3
479.327	1	-9
479.667	1	-7
480.008	1	9
480.349	1	-4
480.690	1	-5
481.030	1	-4
481.371	1	2
481.712	1	0
482.053	1	5
482.393	1	8
482.734	1	-5
483.075	1	2
483.415	1	-1
483.756	1	5
484.097	1	-11
484.437	1	-7
484.778	1	2
485.119	1	-3
485.459	1	8
485.800	1	8
486.141	1	3
486.481	1	0
486.822	1	3
487.163	1	-1
487.503	1	0
487.844	1	4
488.185	1	-2
488.525	1	-4
488.866	1	-3
489.207	1	-4
489.547	1	-5
489.888	1	6
490.228	1	7
490.569	1	15
490.910	1	-5
491.250	1	2
491.591	1	-10
491.932	1	-4
492.272	1	8
492.613	1	1
492.953	1	-2
493.294	1	-5
493.635	1	4
493.975	1	-5
494.316	1	7
494.656	1	-3
494.997	1	-2
495.337	1	14
495.678	1	-2
496.019	1	5
496.359	1	-6
496.700	1	2
497.040	1	3
497.381	1	-3
497.721	1	-6
498.062	1	0
498.403	1	8
498.743	1	-5
499.084	1	-7
499.424	1	7
499.765	1	0
500.105	1	-8
500.446	1	-8
500.786	1	-5
501.127	1	7
501.467	1	-6
501.808	1	10
502.148	1	7
502.489	1	5
502.829	1	3
503.170	1	15
503.510	1	5
503.851	1	-5
504.191	1	-2
504.532	1	-1
504.872	1	-1
505.213	1	-6
505.553	1	-4
505.894	1	2
506.234	1	13
506.575	1	8
506.915	1	8
507.256	1	6
507.596	1	5
507.936	1	0
508.277	1	6
508.617	1	-3
508.958	1	-3
509.298	1	1
509.639	1	-6
509.979	1	-5
510.319	1	9
510.660	1	-1
511.000	1	5
511.341	1	-4
511.681	1	0
512.022	1	-7
512.362	1	-1
512.702	1	1
513.043	1	12
513.383	1	-4
513.724	1	3
514.064	1	9
514.404	1	3
514.745	1	5
515.085	1	10
515.425	1	1
515.766	1	-7
516.106	1	4
516.447	1	15
516.787	1	4
517.127	1	9
517.468	1	3
517.808	1	4
518.148	1	9
518.489	1	-1
518.829	1	2
519.169	1	8
519.510	1	2
519.850	1	17
520.190	1	-6
520.531	1	3
520.871	1	1
521.211	1	-7
521.552	1	9
521.892	1	10
522.232	1	-6
522.573	1	7
522.913	1	4
523.253	1	7
523.593	1	-5
523.934	1	11
524.274	1	7
524.614	1	1
524.955	1	-8
525.295	1	5
525.635	1	5
525.975	1	2
526.316	1	10
526.656	1	-4
526.996	1	8
527.337	1	5
527.677	1	6
528.017	1	-3
528.357	1	4
528.698	1	6
529.038	1	3
529.378	1	4
529.718	1	8
530.058	1	10
530.399	1	3
530.739	1	2
531.079	1	16
531.419	1	0
531.760	1	7
532.100	1	-2
532.440	1	12
532.780	1	-1
533.120	1	3
533.461	1	1
533.801	1	8
534.141	1	1
534.481	1	0
534.821	1	14
535.162	1	-1
535.502	1	-6
535.842	1	8
536.182	1	5
536.522	1	-7
536.862	1	4
537.203	1	1
537.543	1	4
537.883	1	-3
538.223	1	8
538.563	1	4
538.903	1	-4
539.243	1	-6
539.584	1	-3
539.924	1	20
540.264	1	0
540.604	1	1
540.944	1	0
541.284	1	8
541.624	1	11
541.964	1	6
542.305	1	6
542.645	1	9
542.985	1	6
543.325	1	-3
543.665	1	7
544.005	1	10
544.345	1	7
544.685	1	3
545.025	1	2
545.365	1	-1
545.705	1	7
546.045	1	-4
546.386	1	10
546.726	1	-4
547.066	1	4
547.406	1	6
547.746	1	-3
548.086	1	-1
548.426	1	2
548.766	1	3
549.106	1	5
549.446	1	-6
549.786	1	-3
550.126	1	17
550.466	1	4
550.806	1	8
551.146	1	3
551.486	1	7
551.826	1	6
552.166	1	3
552.506	1	11
552.846	1	7
553.186	1	3
553.526	1	-2
553.866	1	-3
554.206	1	3
554.546	1	10
554.886	1	7
555.226	1	2
555.566	1	3
555.906	1	4
556.246	1	3
556.586	1	1
556.926	1	11
557.266	1	-7
557.606	1	4
557.946	1	-1
558.286	1	2
558.626	1	6
558.966	1	6
559.306	1	5
559.646	1	-1
559.986	1	-4
560.325	1	4
560.665	1	4
561.005	1	-1
561.345	1	-1
561.685	1	0
562.025	1	5
562.365	1	5
562.705	1	-10
563.045	1	1
563.385	1	-5
563.725	1	6
564.064	1	7
564.404	1	10
564.744	1	2
565.084	1	0
565.424	1	7
565.764	1	4
566.104	1	6
566.444	1	1
566.783	1	0
567.123	1	-5
567.463	1	10
567.803	1	-6
568.143	1	3
568.483	1	16
568.823	1	-1
569.162	1	11
569.502	1	-5
569.842	1	7
570.182	1	9
570.522	1	-9
570.862	1	-2
571.201	1	13
571.541	1	5
571.881	1	11
572.221	1	-7
572.561	1	0
572.900	1	-2
573.240	1	7
573.580	1	0
573.920	1	15
574.260	1	14
574.599	1	2
574.939	1	5
575.279	1	9
575.619	1	8
575.959	1	-10
576.298	1	18
576.638	1	-4
576.978	1	17
577.318	1	14
577.657	1	-3
577.997	1	-2
578.337	1	8
578.677	1	7
579.016	1	16
579.356	1	1
579.696	1	7
580.036	1	-1
580.375	1	4
580.715	1	0
581.055	1	2
581.394	1	2
581.734	1	-5
582.074	1	-6
582.414	1	14
582.753	1	-1
583.093	1	10
583.433	1	4
583.772	1	10
584.112	1	0
584.452	1	4
584.791	1	-3
585.131	1	5
585.471	1	8
585.811	1	15
586.150	1	-1
586.490	1	10
586.830	1	-4
587.169	1	16
587.509	1	1
587.849	1	11
588.188	1	7
588.528	1	6
588.867	1	12
589.207	1	6
589.547	1	-1
589.886	1	-3
590.226	1	9
590.566	1	-2
590.905	1	8
591.245	1	-5
591.585	1	9
591.924	1	8
592.264	1	8
592.603	1	6
592.943	1	8
593.283	1	9
593.622	1	-4
593.962	1	7
594.301	1	11
594.641	1	-1
594.981	1	-7
595.320	1	4
595.660	1	-8
595.999	1	-8
596.339	1	9
596.678	1	2
597.018	1	-3
597.358	1	-4
597.697	1	4
598.037	1	-1
598.376	1	3
598.716	1	6
599.055	1	10
599.395	1	-1
599.734	1	9
600.074	1	-1
600.413	1	8
600.753	1	3
601.092	1	11
601.432	1	-3
601.771	1	8
602.111	1	9
602.451	1	11
602.790	1	0
603.130	1	0
603.469	1	-2
603.809	1	10
604.148	1	4
604.487	1	7
604.827	1	0
605.166	1	4
605.506	1	4
605.845	1	3
606.185	1	18
606.524	1	-2
606.864	1	-8
607.203	1	-4
607.543	1	3
607.882	1	6
608.222	1	10
608.561	1	3
608.901	1	2
609.240	1	-8
609.579	1	6
609.919	1	10
610.258	1	6
610.598	1	-6
610.937	1	-1
611.277	1	0
611.616	1	-5
611.955	1	-1
612.295	1	-5
612.634	1	4
612.974	1	-17
613.313	1	10
613.652	1	8
613.992	1	-3
614.331	1	5
614.671	1	1
615.010	1	0
615.349	1	7
615.689	1	12
616.028	1	-2
616.368	1	-2
616.707	1	3
617.046	1	3
617.386	1	-1
617.725	1	2
618.064	1	-6
618.404	1	2
618.743	1	2
619.082	1	4
619.422	1	-4
619.761	1	10
620.100	1	6
620.440	1	2
620.779	1	-9
621.118	1	4
621.458	1	1
621.797	1	1
622.136	1	16
622.476	1	9
622.815	1	9
623.154	1	8
623.494	1	10
623.833	1	8
624.172	1	1
624.511	1	-3
624.851	1	-10
625.190	1	4
625.529	1	6
625.869	1	9
626.208	1	8
626.547	1	-7
626.886	1	0
627.226	1	4
627.565	1	14
627.904	1	-3
628.243	1	3
628.583	1	6
628.922	1	1
629.261	1	-1
629.600	1	7
629.940	1	7
630.279	1	-3
630.618	1	5
630.957	1	3
631.297	1	-7
631.636	1	-1
631.975	1	12
632.314	1	2
632.653	1	1
632.993	1	-4
633.332	1	2
633.671	1	2
634.010	1	-4
634.349	1	13
634.689	1	-2
635.028	1	7
635.367	1	-1
635.706	1	7
636.045	1	4
636.384	1	8
636.724	1	-3
637.063	1	-8
637.402	1	0
637.741	1	3
638.080	1	-2
638.419	1	-2
638.759	1	-10
639.098	1	1
639.437	1	14
639.776	1	0
640.115	1	7
640.454	1	-9
640.793	1	6
641.132	1	2
641.472	1	3
641.811	1	0
642.150	1	-10
642.489	1	8
642.828	1	-6
643.167	1	3
643.506	1	-3
643.845	1	6
644.184	1	0
644.524	1	-7
644.863	1	1
645.202	1	-6
645.541	1	-1
645.880	1	-5
646.219	1	3
646.558	1	3
646.897	1	0
647.236	1	5
647.575	1	13
647.914	1	-5
648.253	1	9
648.592	1	6
648.931	1	8
649.270	1	-2
649.610	1	2
649.949	1	-5
650.288	1	4
650.627	1	-7
650.966	1	3
651.305	1	6
651.644	1	9
651.983	1	-1
652.322	1	0
652.661	1	-6
653.000	1	-3
653.339	1	7
653.678	1	7
654.017	1	-8
654.356	1	2
654.695	1	9
655.034	1	8
655.373	1	13
655.712	1	12
656.051	1	6
656.390	1	5
656.729	1	2
657.068	1	2
657.406	1	2
657.745	1	1
658.084	1	7
658.423	1	1
658.762	1	6
659.101	1	9
659.440	1	1
659.779	1	7
660.118	1	2
660.457	1	-4
660.796	1	-6
661.135	1	-11
661.474	1	6
661.813	1	5
662.152	1	-5
662.491	1	-13
662.829	1	0
663.168	1	17
663.507	1	14
663.846	1	-3
664.185	1	5
664.524	1	7
664.863	1	-8
665.202	1	3
665.541	1	-3
665.879	1	-3
666.218	1	-7
666.557	1	2
666.896	1	-1
667.235	1	6
667.574	1	-4
667.913	1	8
668.251	1	-9
668.590	1	-9
668.929	1	-17
669.268	1	-1
669.607	1	-1
669.946	1	5
670.285	1	5
670.623	1	-6
670.962	1	6
671.301	1	4
671.640	1	-2
671.979	1	-4
672.317	1	1
672.656	1	3
672.995	1	11
673.334	1	8
673.673	1	-4
674.011	1	-3
674.350	1	4
674.689	1	7
675.028	1	2
675.367	1	5
675.705	1	8
676.044	1	0
676.383	1	6
676.722	1	4
677.060	1	0
677.399	1	-5
677.738	1	2
678.077	1	10
678.416	1	-1
678.754	1	-4
679.093	1	11
679.432	1	-2
679.771	1	4
680.109	1	12
680.448	1	-4
680.787	1	-7
681.125	1	5
681.464	1	-3
681.803	1	0
682.142	1	-1
682.480	1	2
682.819	1	-6
683.158	1	-4
683.496	1	-3
683.835	1	3
684.174	1	-2
684.512	1	-1
684.851	1	5
685.190	1	-3
685.529	1	-4
685.867	1	-1
686.206	1	0
686.545	1	-1
686.883	1	6
687.222	1	-1
687.561	1	8
687.899	1	3
688.238	1	3
688.577	1	-1
688.746	1	3