File: Data/GaN_200K_800ms/GaN_sample F_spot 12_UVVIS_200 K_200um_800 ms 2x2mm1_74.txt
340.368	1	10
340.710	1	-6
341.052	1	0
341.394	1	4
341.737	1	16
342.079	1	-7
342.421	1	5
342.763	1	11
343.105	1	10
343.447	1	-2
343.789	1	0
344.131	1	-1
344.473	1	3
344.815	1	2
345.157	1	2
345.499	1	4
345.841	1	7
346.183	1	-1
346.526	1	-7
346.868	1	6
347.210	1	-9
347.552	1	-1
347.894	1	4
348.236	1	15
348.578	1	4
348.920	1	3
349.262	1	-3
349.604	1	2
349.946	1	3
350.288	1	21
350.630	1	11
350.972	1	11
351.314	1	7
351.656	1	10
351.998	1	14
352.340	1	13
352.682	1	10
353.024	1	14
353.366	1	25
353.708	1	15
354.050	1	3
354.392	1	8
354.734	1	24
355.076	1	16
355.418	1	4
355.760	1	14
356.102	1	23
356.444	1	13
356.785	1	24
357.127	1	7
357.469	1	21
357.811	1	12
358.153	1	24
358.495	1	13
358.837	1	15
359.179	1	18
359.521	1	37
359.863	1	26
360.205	1	20
360.547	1	35
360.889	1	33
361.231	1	35
361.572	1	34
361.914	1	46
362.256	1	53
362.598	1	50
362.940	1	54
363.282	1	62
363.624	1	62
363.966	1	61
364.308	1	68
364.649	1	87
364.991	1	90
365.333	1	89
365.675	1	93
366.017	1	101
366.359	1	111
366.701	1	128
367.042	1	138
367.384	1	148
367.726	1	148
368.068	1	153
368.410	1	181
368.752	1	148
369.093	1	170
369.435	1	164
369.777	1	175
370.119	1	178
370.461	1	183
370.803	1	170
371.144	1	168
371.486	1	154
371.828	1	158
372.170	1	150
372.512	1	134
372.853	1	135
373.195	1	127
373.537	1	131
373.879	1	117
374.220	1	127
374.562	1	109
374.904	1	99
375.246	1	101
375.588	1	109
375.929	1	96
376.271	1	98
376.613	1	79
376.955	1	73
377.296	1	72
377.638	1	74
377.980	1	72
378.321	1	57
378.663	1	60
379.005	1	68
379.347	1	55
379.688	1	64
380.030	1	50
380.372	1	48
380.714	1	55
381.055	1	61
381.397	1	36
381.739	1	54
382.080	1	37
382.422	1	36
382.764	1	29
383.105	1	40
383.447	1	42
383.789	1	37
384.130	1	29
384.472	1	32
384.814	1	23
385.156	1	25
385.497	1	30
385.839	1	30
386.180	1	26
386.522	1	40
386.864	1	26
387.205	1	18
387.547	1	23
387.889	1	24
388.230	1	32
388.572	1	19
388.914	1	22
389.255	1	25
389.597	1	27
389.939	1	20
390.280	1	17
390.622	1	21
390.963	1	23
391.305	1	15
391.647	1	17
391.988	1	19
392.330	1	22
392.671	1	12
393.013	1	25
393.355	1	18
393.696	1	20
394.038	1	14
394.379	1	23
394.721	1	8
395.062	1	14
395.404	1	7
395.746	1	20
396.087	1	7
396.429	1	16
396.770	1	4
397.112	1	9
397.453	1	20
397.795	1	13
398.136	1	1
398.478	1	15
398.819	1	10
399.161	1	25
399.503	1	8
399.844	1	9
400.186	1	12
400.527	1	7
400.869	1	3
401.210	1	11
401.552	1	-2
401.893	1	-8
402.235	1	3
402.576	1	4
402.918	1	13
403.259	1	18
403.601	1	-4
403.942	1	16
404.284	1	10
404.625	1	12
404.967	1	2
405.308	1	2
405.649	1	6
405.991	1	-2
406.332	1	11
406.674	1	7
407.015	1	13
407.357	1	0
407.698	1	10
408.040	1	1
408.381	1	4
408.722	1	-7
409.064	1	2
409.405	1	11
409.747	1	1
410.088	1	7
410.430	1	8
410.771	1	12
411.112	1	6
411.454	1	4
411.795	1	2
412.137	1	7
412.478	1	11
412.819	1	4
413.161	1	7
413.502	1	3
413.844	1	-3
414.185	1	10
414.526	1	8
414.868	1	10
415.209	1	5
415.550	1	0
415.892	1	0
416.233	1	18
416.575	1	16
416.916	1	-1
417.257	1	-3
417.599	1	1
417.940	1	13
418.281	1	8
418.623	1	-1
418.964	1	-7
419.305	1	10
419.647	1	1
419.988	1	1
420.329	1	4
420.671	1	0
421.012	1	-3
421.353	1	5
421.695	1	6
422.036	1	8
422.377	1	6
422.718	1	11
423.060	1	0
423.401	1	3
423.742	1	7
424.084	1	2
424.425	1	3
424.766	1	2
425.107	1	3
425.449	1	9
425.790	1	-7
426.131	1	10
426.472	1	1
426.814	1	-1
427.155	1	-5
427.496	1	-4
427.837	1	0
428.179	1	2
428.520	1	-2
428.861	1	-3
429.202	1	5
429.544	1	0
429.885	1	6
430.226	1	-3
430.567	1	6
430.909	1	5
431.250	1	5
431.591	1	14
431.932	1	-6
432.273	1	2
432.615	1	-9
432.956	1	0
433.297	1	2
433.638	1	7
433.979	1	3
434.320	1	9
434.662	1	4
435.003	1	9
435.344	1	12
435.685	1	2
436.026	1	5
436.368	1	4
436.709	1	1
437.050	1	-6
437.391	1	7
437.732	1	1
438.073	1	7
438.414	1	-4
438.756	1	-10
439.097	1	-4
439.438	1	1
439.779	1	5
440.120	1	1
440.461	1	8
440.802	1	6
441.143	1	7
441.485	1	7
441.826	1	7
442.167	1	2
442.508	1	-12
442.849	1	13
443.190	1	6
443.531	1	7
443.872	1	7
444.213	1	1
444.554	1	16
444.895	1	6
445.237	1	1
445.578	1	-4
445.919	1	-1
446.260	1	3
446.601	1	1
446.942	1	7
447.283	1	2
447.624	1	5
447.965	1	7
448.306	1	3
448.647	1	-3
448.988	1	3
449.329	1	8
449.670	1	17
450.011	1	-2
450.352	1	1
450.693	1	-9
451.034	1	-1
451.375	1	-2
451.716	1	1
452.057	1	11
452.398	1	7
452.739	1	2
453.080	1	3
453.421	1	-5
453.762	1	7
454.103	1	-7
454.444	1	-6
454.785	1	0
455.126	1	0
455.467	1	4
455.808	1	9
456.149	1	11
456.490	1	3
456.831	1	2
457.172	1	-1
457.513	1	13
457.854	1	-2
458.195	1	4
458.536	1	6
458.877	1	6
459.218	1	1
459.559	1	4
459.899	1	-5
460.240	1	0
460.581	1	13
460.922	1	-3
461.263	1	1
461.604	1	3
461.945	1	5
462.286	1	2
462.627	1	13
462.968	1	9
463.309	1	-4
463.649	1	-3
463.990	1	10
464.331	1	1
464.672	1	-8
465.013	1	-5
465.354	1	10
465.695	1	-5
466.036	1	-1
466.376	1	-5
466.717	1	7
467.058	1	0
467.399	1	6
467.740	1	-3
468.081	1	-3
468.422	1	-3
468.762	1	-1
469.103	1	-9
469.444	1	-2
469.785	1	-9
470.126	1	-5
470.467	1	0
470.807	1	3
471.148	1	2
471.489	1	3
471.830	1	2
472.171	1	8
472.511	1	-6
472.852	1	7
473.193	1	12
473.534	1	8
473.875	1	14
474.215	1	9
474.556	1	9
474.897	1	12
475.238	1	11
475.578	1	-2
475.919	1	-1
476.260	1	4
476.601	1	1
476.942	1	8
477.282	1	-4
477.623	1	-10
477.964	1	2
478.305	1	1
478.645	1	15
478.986	1	-1
479.327	1	3
479.667	1	-2
480.008	1	5
480.349	1	7
480.690	1	7
481.030	1	-4
481.371	1	9
481.712	1	11
482.053	1	9
482.393	1	2
482.734	1	-3
483.075	1	0
483.415	1	2
483.756	1	4
484.097	1	7
484.437	1	7
484.778	1	8
485.119	1	-8
485.459	1	19
485.800	1	2
486.141	1	-1
486.481	1	12
486.822	1	4
487.163	1	2
487.503	1	0
487.844	1	10
488.185	1	7
488.525	1	-1
488.866	1	3
489.207	1	-3
489.547	1	11
489.888	1	-5
490.228	1	9
490.569	1	8
490.910	1	11
491.250	1	5
491.591	1	-4
491.932	1	2
492.272	1	7
492.613	1	10
492.953	1	-4
493.294	1	4
493.635	1	8
493.975	1	-7
494.316	1	8
494.656	1	-1
494.997	1	16
495.337	1	20
495.678	1	8
496.019	1	4
496.359	1	-3
496.700	1	9
497.040	1	2
497.381	1	-2
497.721	1	8
498.062	1	-1
498.403	1	9
498.743	1	8
499.084	1	10
499.424	1	-2
499.765	1	9
500.105	1	6
500.446	1	0
500.786	1	9
501.127	1	6
501.467	1	3
501.808	1	11
502.148	1	9
502.489	1	18
502.829	1	2
503.170	1	19
503.510	1	14
503.851	1	-2
504.191	1	18
504.532	1	11
504.872	1	14
505.213	1	14
505.553	1	2
505.894	1	7
506.234	1	13
506.575	1	11
506.915	1	11
507.256	1	11
507.596	1	13
507.936	1	8
508.277	1	6
508.617	1	8
508.958	1	0
509.298	1	2
509.639	1	2
509.979	1	4
510.319	1	18
510.660	1	5
511.000	1	7
511.341	1	16
511.681	1	15
512.022	1	3
512.362	1	12
512.702	1	5
513.043	1	23
513.383	1	-2
513.724	1	12
514.064	1	25
514.404	1	4
514.745	1	5
515.085	1	9
515.425	1	10
515.766	1	1
516.106	1	9
516.447	1	25
516.787	1	23
517.127	1	20
517.468	1	3
517.808	1	12
518.148	1	16
518.489	1	12
518.829	1	23
519.169	1	15
519.510	1	10
519.850	1	13
520.190	1	9
520.531	1	14
520.871	1	11
521.211	1	2
521.552	1	15
521.892	1	10
522.232	1	7
522.573	1	13
522.913	1	14
523.253	1	13
523.593	1	3
523.934	1	14
524.274	1	12
524.614	1	10
524.955	1	4
525.295	1	24
525.635	1	5
525.975	1	15
526.316	1	22
526.656	1	9
526.996	1	25
527.337	1	4
527.677	1	23
528.017	1	9
528.357	1	17
528.698	1	15
529.038	1	22
529.378	1	21
529.718	1	18
530.058	1	20
530.399	1	27
530.739	1	14
531.079	1	19
531.419	1	18
531.760	1	21
532.100	1	10
532.440	1	19
532.780	1	6
533.120	1	24
533.461	1	15
533.801	1	26
534.141	1	10
534.481	1	10
534.821	1	23
535.162	1	13
535.502	1	12
535.842	1	21
536.182	1	18
536.522	1	0
536.862	1	30
537.203	1	8
537.543	1	15
537.883	1	11
538.223	1	16
538.563	1	13
538.903	1	9
539.243	1	7
539.584	1	8
539.924	1	15
540.264	1	12
540.604	1	18
540.944	1	14
541.284	1	15
541.624	1	26
541.964	1	24
542.305	1	19
542.645	1	20
542.985	1	22
543.325	1	19
543.665	1	29
544.005	1	24
544.345	1	17
544.685	1	18
545.025	1	19
545.365	1	16
545.705	1	9
546.045	1	7
546.386	1	16
546.726	1	11
547.066	1	28
547.406	1	14
547.746	1	1
548.086	1	15
548.426	1	13
548.766	1	18
549.106	1	16
549.446	1	12
549.786	1	17
550.126	1	31
550.466	1	17
550.806	1	22
551.146	1	22
551.486	1	10
551.826	1	26
552.166	1	26
552.506	1	17
552.846	1	23
553.186	1	27
553.526	1	15
553.866	1	17
554.206	1	29
554.546	1	25
554.886	1	18
555.226	1	13
555.566	1	23
555.906	1	20
556.246	1	13
556.586	1	19
556.926	1	25
557.266	1	15
557.606	1	20
557.946	1	29
558.286	1	19
558.626	1	15
558.966	1	18
559.306	1	5
559.646	1	8
559.986	1	16
560.325	1	8
560.665	1	19
561.005	1	10
561.345	1	13
561.685	1	20
562.025	1	17
562.365	1	25
562.705	1	12
563.045	1	11
563.385	1	6
563.725	1	15
564.064	1	14
564.404	1	14
564.744	1	9
565.084	1	18
565.424	1	22
565.764	1	19
566.104	1	19
566.444	1	13
566.783	1	15
567.123	1	27
567.463	1	22
567.803	1	5
568.143	1	23
568.483	1	19
568.823	1	22
569.162	1	31
569.502	1	20
569.842	1	15
570.182	1	25
570.522	1	14
570.862	1	18
571.201	1	15
571.541	1	22
571.881	1	31
572.221	1	9
572.561	1	17
572.900	1	9
573.240	1	18
573.580	1	14
573.920	1	31
574.260	1	26
574.599	1	18
574.939	1	19
575.279	1	27
575.619	1	18
575.959	1	2
576.298	1	24
576.638	1	-2
576.978	1	23
577.318	1	29
577.657	1	13
577.997	1	10
578.337	1	35
578.677	1	23
579.016	1	23
579.356	1	21
579.696	1	27
580.036	1	12
580.375	1	30
580.715	1	25
581.055	1	17
581.394	1	10
581.734	1	9
582.074	1	6
582.414	1	19
582.753	1	11
583.093	1	15
583.433	1	14
583.772	1	24
584.112	1	15
584.452	1	17
584.791	1	21
585.131	1	19
585.471	1	21
585.811	1	27
586.150	1	18
586.490	1	17
586.830	1	15
587.169	1	6
587.509	1	11
587.849	1	20
588.188	1	23
588.528	1	19
588.867	1	18
589.207	1	20
589.547	1	7
589.886	1	15
590.226	1	18
590.566	1	17
590.905	1	17
591.245	1	14
591.585	1	20
591.924	1	13
592.264	1	30
592.603	1	18
592.943	1	24
593.283	1	12
593.622	1	9
593.962	1	14
594.301	1	23
594.641	1	5
594.981	1	5
595.320	1	15
595.660	1	12
595.999	1	6
596.339	1	13
596.678	1	6
597.018	1	9
597.358	1	16
597.697	1	13
598.037	1	13
598.376	1	17
598.716	1	18
599.055	1	23
599.395	1	9
599.734	1	10
600.074	1	8
600.413	1	30
600.753	1	19
601.092	1	16
601.432	1	10
601.771	1	24
602.111	1	21
602.451	1	13
602.790	1	1
603.130	1	21
603.469	1	16
603.809	1	20
604.148	1	5
604.487	1	3
604.827	1	16
605.166	1	15
605.506	1	16
605.845	1	18
606.185	1	15
606.524	1	4
606.864	1	16
607.203	1	9
607.543	1	11
607.882	1	20
608.222	1	14
608.561	1	20
608.901	1	13
609.240	1	19
609.579	1	25
609.919	1	15
610.258	1	35
610.598	1	12
610.937	1	9
611.277	1	15
611.616	1	15
611.955	1	16
612.295	1	11
612.634	1	16
612.974	1	-6
613.313	1	14
613.652	1	18
613.992	1	12
614.331	1	14
614.671	1	15
615.010	1	2
615.349	1	14
615.689	1	15
616.028	1	4
616.368	1	12
616.707	1	7
617.046	1	11
617.386	1	18
617.725	1	15
618.064	1	2
618.404	1	3
618.743	1	16
619.082	1	11
619.422	1	8
619.761	1	16
620.100	1	18
620.440	1	10
620.779	1	8
621.118	1	6
621.458	1	6
621.797	1	8
622.136	1	22
622.476	1	13
622.815	1	20
623.154	1	13
623.494	1	17
623.833	1	24
624.172	1	13
624.511	1	0
624.851	1	1
625.190	1	18
625.529	1	9
625.869	1	19
626.208	1	10
626.547	1	10
626.886	1	14
627.226	1	15
627.565	1	-3
627.904	1	6
628.243	1	14
628.583	1	8
628.922	1	12
629.261	1	6
629.600	1	16
629.940	1	14
630.279	1	5
630.618	1	5
630.957	1	13
631.297	1	12
631.636	1	-6
631.975	1	22
632.314	1	8
632.653	1	11
632.993	1	8
633.332	1	5
633.671	1	5
634.010	1	2
634.349	1	20
634.689	1	10
635.028	1	11
635.367	1	10
635.706	1	10
636.045	1	14
636.384	1	9
636.724	1	7
637.063	1	-1
637.402	1	10
637.741	1	10
638.080	1	13
638.419	1	-2
638.759	1	6
639.098	1	4
639.437	1	16
639.776	1	5
640.115	1	6
640.454	1	5
640.793	1	12
641.132	1	16
641.472	1	19
641.811	1	9
642.150	1	5
642.489	1	19
642.828	1	-2
643.167	1	0
643.506	1	5
643.845	1	9
644.184	1	10
644.524	1	8
644.863	1	12
645.202	1	12
645.541	1	6
645.880	1	13
646.219	1	11
646.558	1	10
646.897	1	10
647.236	1	7
647.575	1	13
647.914	1	5
648.253	1	16
648.592	1	5
648.931	1	17
649.270	1	6
649.610	1	13
649.949	1	4
650.288	1	13
650.627	1	8
650.966	1	14
651.305	1	9
651.644	1	23
651.983	1	13
652.322	1	8
652.661	1	0
653.000	1	10
653.339	1	16
653.678	1	4
654.017	1	3
654.356	1	-1
654.695	1	9
655.034	1	6
655.373	1	19
655.712	1	6
656.051	1	14
656.390	1	5
656.729	1	20
657.068	1	8
657.406	1	15
657.745	1	13
658.084	1	7
658.423	1	16
658.762	1	0
659.101	1	12
659.440	1	6
659.779	1	11
660.118	1	11
660.457	1	2
660.796	1	-4
661.135	1	6
661.474	1	7
661.813	1	21
662.152	1	11
662.491	1	0
662.829	1	-2
663.168	1	5
663.507	1	7
663.846	1	1
664.185	1	9
664.524	1	10
664.863	1	8
665.202	1	10
665.541	1	-10
665.879	1	-6
666.218	1	7
666.557	1	4
666.896	1	-4
667.235	1	17
667.574	1	5
667.913	1	3
668.251	1	5
668.590	1	8
668.929	1	-6
669.268	1	7
669.607	1	3
669.946	1	7
670.285	1	6
670.623	1	5
670.962	1	2
671.301	1	6
671.640	1	7
671.979	1	11
672.317	1	7
672.656	1	4
672.995	1	4
673.334	1	6
673.673	1	5
674.011	1	4
674.350	1	2
674.689	1	4
675.028	1	3
675.367	1	3
675.705	1	5
676.044	1	5
676.383	1	11
676.722	1	4
677.060	1	5
677.399	1	4
677.738	1	12
678.077	1	11
678.416	1	11
678.754	1	11
679.093	1	14
679.432	1	-3
679.771	1	3
680.109	1	12
680.448	1	7
680.787	1	6
681.125	1	8
681.464	1	12
681.803	1	4
682.142	1	15
682.480	1	12
682.819	1	8
683.158	1	10
683.496	1	7
683.835	1	5
684.174	1	2
684.512	1	8
684.851	1	10
685.190	1	1
685.529	1	8
685.867	1	10
686.206	1	5
686.545	1	-6
686.883	1	11
687.222	1	13
687.561	1	13
687.899	1	3
688.238	1	12
688.577	1	8
688.746	1	5