File: Data/GaN_200K_800ms/GaN_sample F_spot 12_UVVIS_200 K_200um_800 ms 2x2mm1_210.txt
340.368	1	5
340.710	1	-4
341.052	1	5
341.394	1	-12
341.737	1	6
342.079	1	1
342.421	1	-1
342.763	1	6
343.105	1	1
343.447	1	-4
343.789	1	-4
344.131	1	6
344.473	1	-4
344.815	1	2
345.157	1	-4
345.499	1	-5
345.841	1	11
346.183	1	-8
346.526	1	0
346.868	1	7
347.210	1	-10
347.552	1	-4
347.894	1	-5
348.236	1	-1
348.578	1	-5
348.920	1	-3
349.262	1	0
349.604	1	-2
349.946	1	-8
350.288	1	10
350.630	1	-2
350.972	1	-2
351.314	1	2
351.656	1	11
351.998	1	7
352.340	1	16
352.682	1	2
353.024	1	8
353.366	1	12
353.708	1	-5
354.050	1	-3
354.392	1	-3
354.734	1	-1
355.076	1	2
355.418	1	-15
355.760	1	-10
356.102	1	14
356.444	1	8
356.785	1	11
357.127	1	-1
357.469	1	11
357.811	1	0
358.153	1	12
358.495	1	1
358.837	1	-9
359.179	1	2
359.521	1	9
359.863	1	5
360.205	1	-3
360.547	1	5
360.889	1	6
361.231	1	5
361.572	1	10
361.914	1	13
362.256	1	11
362.598	1	6
362.940	1	4
363.282	1	13
363.624	1	21
363.966	1	11
364.308	1	13
364.649	1	20
364.991	1	11
365.333	1	18
365.675	1	1
366.017	1	24
366.359	1	17
366.701	1	17
367.042	1	26
367.384	1	29
367.726	1	30
368.068	1	35
368.410	1	44
368.752	1	25
369.093	1	29
369.435	1	23
369.777	1	37
370.119	1	33
370.461	1	43
370.803	1	36
371.144	1	27
371.486	1	30
371.828	1	36
372.170	1	31
372.512	1	22
372.853	1	27
373.195	1	19
373.537	1	29
373.879	1	20
374.220	1	30
374.562	1	31
374.904	1	29
375.246	1	20
375.588	1	21
375.929	1	16
376.271	1	14
376.613	1	19
376.955	1	11
377.296	1	9
377.638	1	13
377.980	1	14
378.321	1	2
378.663	1	9
379.005	1	15
379.347	1	10
379.688	1	15
380.030	1	13
380.372	1	7
380.714	1	11
381.055	1	18
381.397	1	10
381.739	1	7
382.080	1	6
382.422	1	16
382.764	1	9
383.105	1	3
383.447	1	1
383.789	1	5
384.130	1	15
384.472	1	0
384.814	1	-3
385.156	1	8
385.497	1	8
385.839	1	-5
386.180	1	4
386.522	1	8
386.864	1	19
387.205	1	6
387.547	1	-7
387.889	1	-4
388.230	1	6
388.572	1	-4
388.914	1	6
389.255	1	-8
389.597	1	7
389.939	1	-4
390.280	1	9
390.622	1	3
390.963	1	10
391.305	1	8
391.647	1	-1
391.988	1	5
392.330	1	9
392.671	1	-2
393.013	1	-11
393.355	1	9
393.696	1	14
394.038	1	4
394.379	1	7
394.721	1	-5
395.062	1	6
395.404	1	2
395.746	1	5
396.087	1	-3
396.429	1	8
396.770	1	-1
397.112	1	14
397.453	1	13
397.795	1	6
398.136	1	3
398.478	1	-2
398.819	1	3
399.161	1	15
399.503	1	12
399.844	1	0
400.186	1	9
400.527	1	-3
400.869	1	-5
401.210	1	0
401.552	1	-3
401.893	1	-5
402.235	1	4
402.576	1	4
402.918	1	10
403.259	1	2
403.601	1	-3
403.942	1	7
404.284	1	0
404.625	1	4
404.967	1	1
405.308	1	-2
405.649	1	-1
405.991	1	-5
406.332	1	4
406.674	1	-1
407.015	1	6
407.357	1	1
407.698	1	12
408.040	1	0
408.381	1	1
408.722	1	-11
409.064	1	0
409.405	1	8
409.747	1	-7
410.088	1	7
410.430	1	14
410.771	1	0
411.112	1	5
411.454	1	4
411.795	1	0
412.137	1	8
412.478	1	12
412.819	1	-11
413.161	1	-1
413.502	1	7
413.844	1	8
414.185	1	0
414.526	1	-2
414.868	1	3
415.209	1	-3
415.550	1	-1
415.892	1	6
416.233	1	9
416.575	1	14
416.916	1	-2
417.257	1	3
417.599	1	3
417.940	1	7
418.281	1	1
418.623	1	-7
418.964	1	-11
419.305	1	7
419.647	1	1
419.988	1	2
420.329	1	-9
420.671	1	4
421.012	1	7
421.353	1	0
421.695	1	1
422.036	1	-2
422.377	1	2
422.718	1	7
423.060	1	3
423.401	1	1
423.742	1	-1
424.084	1	-3
424.425	1	5
424.766	1	-2
425.107	1	3
425.449	1	-3
425.790	1	-6
426.131	1	2
426.472	1	3
426.814	1	-3
427.155	1	-9
427.496	1	-7
427.837	1	4
428.179	1	-4
428.520	1	2
428.861	1	-4
429.202	1	1
429.544	1	1
429.885	1	3
430.226	1	-9
430.567	1	4
430.909	1	4
431.250	1	-4
431.591	1	3
431.932	1	3
432.273	1	1
432.615	1	-1
432.956	1	-7
433.297	1	-6
433.638	1	-6
433.979	1	12
434.320	1	-5
434.662	1	-1
435.003	1	2
435.344	1	1
435.685	1	1
436.026	1	-1
436.368	1	1
436.709	1	-4
437.050	1	8
437.391	1	13
437.732	1	-3
438.073	1	-8
438.414	1	-4
438.756	1	-4
439.097	1	-8
439.438	1	-3
439.779	1	-6
440.120	1	-2
440.461	1	-1
440.802	1	-2
441.143	1	8
441.485	1	7
441.826	1	9
442.167	1	3
442.508	1	2
442.849	1	2
443.190	1	-2
443.531	1	1
443.872	1	13
444.213	1	5
444.554	1	16
444.895	1	-10
445.237	1	-1
445.578	1	-4
445.919	1	-6
446.260	1	-4
446.601	1	-2
446.942	1	0
447.283	1	1
447.624	1	2
447.965	1	2
448.306	1	8
448.647	1	-12
448.988	1	-5
449.329	1	0
449.670	1	3
450.011	1	10
450.352	1	-3
450.693	1	-10
451.034	1	-8
451.375	1	-3
451.716	1	1
452.057	1	0
452.398	1	2
452.739	1	0
453.080	1	-4
453.421	1	1
453.762	1	7
454.103	1	-1
454.444	1	-6
454.785	1	-1
455.126	1	-2
455.467	1	2
455.808	1	1
456.149	1	4
456.490	1	-5
456.831	1	1
457.172	1	-2
457.513	1	6
457.854	1	2
458.195	1	0
458.536	1	4
458.877	1	2
459.218	1	-8
459.559	1	8
459.899	1	-4
460.240	1	0
460.581	1	19
460.922	1	1
461.263	1	-3
461.604	1	-2
461.945	1	-6
462.286	1	-3
462.627	1	4
462.968	1	0
463.309	1	-2
463.649	1	3
463.990	1	8
464.331	1	-5
464.672	1	0
465.013	1	3
465.354	1	4
465.695	1	-7
466.036	1	-10
466.376	1	-4
466.717	1	2
467.058	1	-8
467.399	1	6
467.740	1	2
468.081	1	-1
468.422	1	0
468.762	1	-15
469.103	1	-7
469.444	1	-1
469.785	1	-2
470.126	1	-14
470.467	1	-4
470.807	1	-1
471.148	1	10
471.489	1	7
471.830	1	4
472.171	1	9
472.511	1	-3
472.852	1	-1
473.193	1	9
473.534	1	6
473.875	1	10
474.215	1	9
474.556	1	-3
474.897	1	4
475.238	1	4
475.578	1	-15
475.919	1	2
476.260	1	-5
476.601	1	4
476.942	1	11
477.282	1	0
477.623	1	-1
477.964	1	-5
478.305	1	-1
478.645	1	8
478.986	1	-7
479.327	1	-10
479.667	1	3
480.008	1	-2
480.349	1	-14
480.690	1	2
481.030	1	-5
481.371	1	1
481.712	1	2
482.053	1	2
482.393	1	3
482.734	1	-9
483.075	1	-5
483.415	1	7
483.756	1	10
484.097	1	-1
484.437	1	-4
484.778	1	0
485.119	1	-2
485.459	1	11
485.800	1	-10
486.141	1	-4
486.481	1	-8
486.822	1	4
487.163	1	-4
487.503	1	5
487.844	1	2
488.185	1	5
488.525	1	2
488.866	1	11
489.207	1	2
489.547	1	0
489.888	1	1
490.228	1	5
490.569	1	12
490.910	1	6
491.250	1	-10
491.591	1	2
491.932	1	-2
492.272	1	0
492.613	1	-8
492.953	1	-10
493.294	1	-5
493.635	1	4
493.975	1	-5
494.316	1	7
494.656	1	-5
494.997	1	-6
495.337	1	0
495.678	1	3
496.019	1	-4
496.359	1	-8
496.700	1	2
497.040	1	-5
497.381	1	5
497.721	1	5
498.062	1	3
498.403	1	4
498.743	1	-1
499.084	1	-1
499.424	1	-1
499.765	1	-4
500.105	1	0
500.446	1	-3
500.786	1	-5
501.127	1	-6
501.467	1	-3
501.808	1	-4
502.148	1	2
502.489	1	3
502.829	1	5
503.170	1	6
503.510	1	3
503.851	1	-2
504.191	1	8
504.532	1	2
504.872	1	3
505.213	1	9
505.553	1	-7
505.894	1	-11
506.234	1	1
506.575	1	9
506.915	1	-1
507.256	1	12
507.596	1	2
507.936	1	2
508.277	1	-4
508.617	1	1
508.958	1	0
509.298	1	8
509.639	1	-7
509.979	1	4
510.319	1	-1
510.660	1	0
511.000	1	-1
511.341	1	9
511.681	1	-1
512.022	1	-5
512.362	1	-3
512.702	1	2
513.043	1	12
513.383	1	-3
513.724	1	5
514.064	1	13
514.404	1	2
514.745	1	-3
515.085	1	3
515.425	1	-1
515.766	1	-2
516.106	1	7
516.447	1	7
516.787	1	9
517.127	1	0
517.468	1	1
517.808	1	3
518.148	1	0
518.489	1	3
518.829	1	4
519.169	1	8
519.510	1	0
519.850	1	6
520.190	1	1
520.531	1	2
520.871	1	1
521.211	1	-4
521.552	1	14
521.892	1	7
522.232	1	10
522.573	1	-2
522.913	1	9
523.253	1	6
523.593	1	-1
523.934	1	7
524.274	1	3
524.614	1	1
524.955	1	-4
525.295	1	1
525.635	1	0
525.975	1	-3
526.316	1	15
526.656	1	-3
526.996	1	10
527.337	1	0
527.677	1	6
528.017	1	-4
528.357	1	5
528.698	1	7
529.038	1	2
529.378	1	8
529.718	1	17
530.058	1	1
530.399	1	12
530.739	1	3
531.079	1	7
531.419	1	10
531.760	1	3
532.100	1	4
532.440	1	5
532.780	1	6
533.120	1	13
533.461	1	5
533.801	1	14
534.141	1	-11
534.481	1	-4
534.821	1	8
535.162	1	2
535.502	1	3
535.842	1	5
536.182	1	7
536.522	1	-5
536.862	1	12
537.203	1	-5
537.543	1	0
537.883	1	8
538.223	1	-2
538.563	1	7
538.903	1	-3
539.243	1	-2
539.584	1	7
539.924	1	8
540.264	1	5
540.604	1	9
540.944	1	-1
541.284	1	7
541.624	1	6
541.964	1	10
542.305	1	7
542.645	1	2
542.985	1	5
543.325	1	-3
543.665	1	6
544.005	1	16
544.345	1	5
544.685	1	8
545.025	1	-2
545.365	1	8
545.705	1	-4
546.045	1	3
546.386	1	16
546.726	1	0
547.066	1	7
547.406	1	10
547.746	1	-5
548.086	1	5
548.426	1	-9
548.766	1	7
549.106	1	7
549.446	1	-5
549.786	1	7
550.126	1	17
550.466	1	6
550.806	1	3
551.146	1	-2
551.486	1	5
551.826	1	2
552.166	1	3
552.506	1	12
552.846	1	10
553.186	1	9
553.526	1	10
553.866	1	2
554.206	1	14
554.546	1	13
554.886	1	7
555.226	1	-9
555.566	1	3
555.906	1	6
556.246	1	0
556.586	1	7
556.926	1	11
557.266	1	-1
557.606	1	4
557.946	1	16
558.286	1	11
558.626	1	12
558.966	1	1
559.306	1	-2
559.646	1	0
559.986	1	-7
560.325	1	-10
560.665	1	2
561.005	1	1
561.345	1	12
561.685	1	10
562.025	1	4
562.365	1	7
562.705	1	-2
563.045	1	3
563.385	1	-9
563.725	1	2
564.064	1	4
564.404	1	6
564.744	1	5
565.084	1	4
565.424	1	13
565.764	1	2
566.104	1	3
566.444	1	1
566.783	1	-6
567.123	1	3
567.463	1	8
567.803	1	1
568.143	1	-1
568.483	1	9
568.823	1	8
569.162	1	16
569.502	1	-2
569.842	1	15
570.182	1	10
570.522	1	-4
570.862	1	3
571.201	1	8
571.541	1	7
571.881	1	15
572.221	1	13
572.561	1	8
572.900	1	0
573.240	1	11
573.580	1	6
573.920	1	9
574.260	1	13
574.599	1	-5
574.939	1	9
575.279	1	13
575.619	1	17
575.959	1	-2
576.298	1	19
576.638	1	-5
576.978	1	13
577.318	1	4
577.657	1	-5
577.997	1	0
578.337	1	16
578.677	1	9
579.016	1	9
579.356	1	-3
579.696	1	14
580.036	1	8
580.375	1	6
580.715	1	-1
581.055	1	9
581.394	1	4
581.734	1	0
582.074	1	8
582.414	1	7
582.753	1	0
583.093	1	-3
583.433	1	-9
583.772	1	9
584.112	1	3
584.452	1	11
584.791	1	-2
585.131	1	-1
585.471	1	12
585.811	1	14
586.150	1	-2
586.490	1	10
586.830	1	-2
587.169	1	17
587.509	1	0
587.849	1	-1
588.188	1	15
588.528	1	8
588.867	1	14
589.207	1	1
589.547	1	8
589.886	1	-5
590.226	1	6
590.566	1	5
590.905	1	8
591.245	1	1
591.585	1	2
591.924	1	-2
592.264	1	4
592.603	1	1
592.943	1	3
593.283	1	7
593.622	1	-6
593.962	1	5
594.301	1	10
594.641	1	-2
594.981	1	-5
595.320	1	0
595.660	1	7
595.999	1	-7
596.339	1	7
596.678	1	-3
597.018	1	2
597.358	1	7
597.697	1	5
598.037	1	-1
598.376	1	8
598.716	1	12
599.055	1	18
599.395	1	-1
599.734	1	3
600.074	1	5
600.413	1	10
600.753	1	14
601.092	1	10
601.432	1	1
601.771	1	3
602.111	1	7
602.451	1	2
602.790	1	7
603.130	1	1
603.469	1	-2
603.809	1	-1
604.148	1	2
604.487	1	8
604.827	1	13
605.166	1	5
605.506	1	-3
605.845	1	5
606.185	1	8
606.524	1	-4
606.864	1	0
607.203	1	-4
607.543	1	7
607.882	1	5
608.222	1	0
608.561	1	4
608.901	1	5
609.240	1	0
609.579	1	7
609.919	1	13
610.258	1	11
610.598	1	6
610.937	1	5
611.277	1	4
611.616	1	4
611.955	1	3
612.295	1	-4
612.634	1	-5
612.974	1	-7
613.313	1	14
613.652	1	1
613.992	1	-3
614.331	1	1
614.671	1	18
615.010	1	6
615.349	1	11
615.689	1	15
616.028	1	6
616.368	1	3
616.707	1	8
617.046	1	9
617.386	1	7
617.725	1	6
618.064	1	-6
618.404	1	8
618.743	1	10
619.082	1	6
619.422	1	-9
619.761	1	5
620.100	1	10
620.440	1	2
620.779	1	4
621.118	1	8
621.458	1	4
621.797	1	10
622.136	1	10
622.476	1	5
622.815	1	11
623.154	1	2
623.494	1	9
623.833	1	1
624.172	1	4
624.511	1	-1
624.851	1	-14
625.190	1	8
625.529	1	7
625.869	1	9
626.208	1	-3
626.547	1	9
626.886	1	16
627.226	1	-1
627.565	1	0
627.904	1	2
628.243	1	11
628.583	1	4
628.922	1	8
629.261	1	8
629.600	1	18
629.940	1	-1
630.279	1	-10
630.618	1	1
630.957	1	4
631.297	1	8
631.636	1	0
631.975	1	10
632.314	1	-1
632.653	1	2
632.993	1	-3
633.332	1	7
633.671	1	2
634.010	1	-3
634.349	1	7
634.689	1	5
635.028	1	12
635.367	1	0
635.706	1	7
636.045	1	16
636.384	1	1
636.724	1	6
637.063	1	-6
637.402	1	4
637.741	1	0
638.080	1	-1
638.419	1	-3
638.759	1	-5
639.098	1	5
639.437	1	5
639.776	1	4
640.115	1	-4
640.454	1	10
640.793	1	11
641.132	1	6
641.472	1	7
641.811	1	5
642.150	1	-8
642.489	1	-1
642.828	1	-7
643.167	1	-1
643.506	1	-9
643.845	1	0
644.184	1	-3
644.524	1	3
644.863	1	2
645.202	1	2
645.541	1	-4
645.880	1	3
646.219	1	4
646.558	1	1
646.897	1	5
647.236	1	-2
647.575	1	3
647.914	1	-11
648.253	1	11
648.592	1	3
648.931	1	8
649.270	1	-8
649.610	1	8
649.949	1	1
650.288	1	2
650.627	1	-1
650.966	1	6
651.305	1	-2
651.644	1	13
651.983	1	-1
652.322	1	-3
652.661	1	-8
653.000	1	-1
653.339	1	7
653.678	1	-4
654.017	1	2
654.356	1	-1
654.695	1	2
655.034	1	-1
655.373	1	14
655.712	1	-4
656.051	1	0
656.390	1	-2
656.729	1	15
657.068	1	7
657.406	1	8
657.745	1	2
658.084	1	8
658.423	1	7
658.762	1	4
659.101	1	11
659.440	1	-1
659.779	1	-1
660.118	1	-1
660.457	1	3
660.796	1	-4
661.135	1	-1
661.474	1	3
661.813	1	6
662.152	1	-3
662.491	1	-7
662.829	1	-10
663.168	1	1
663.507	1	8
663.846	1	-7
664.185	1	0
664.524	1	-3
664.863	1	-2
665.202	1	7
665.541	1	-8
665.879	1	-10
666.218	1	-11
666.557	1	4
666.896	1	-4
667.235	1	4
667.574	1	-10
667.913	1	-3
668.251	1	-7
668.590	1	2
668.929	1	-2
669.268	1	-1
669.607	1	8
669.946	1	9
670.285	1	6
670.623	1	7
670.962	1	3
671.301	1	3
671.640	1	5
671.979	1	-1
672.317	1	4
672.656	1	2
672.995	1	1
673.334	1	7
673.673	1	3
674.011	1	-1
674.350	1	8
674.689	1	3
675.028	1	4
675.367	1	8
675.705	1	15
676.044	1	1
676.383	1	-3
676.722	1	1
677.060	1	6
677.399	1	-5
677.738	1	11
678.077	1	12
678.416	1	11
678.754	1	10
679.093	1	7
679.432	1	-3
679.771	1	-4
680.109	1	16
680.448	1	0
680.787	1	-4
681.125	1	7
681.464	1	-4
681.803	1	0
682.142	1	9
682.480	1	19
682.819	1	0
683.158	1	2
683.496	1	4
683.835	1	2
684.174	1	-4
684.512	1	8
684.851	1	6
685.190	1	-2
685.529	1	7
685.867	1	-1
686.206	1	-1
686.545	1	-7
686.883	1	1
687.222	1	9
687.561	1	12
687.899	1	9
688.238	1	6
688.577	1	4
688.746	1	-1