File: Data/GaN_200K_800ms/GaN_sample F_spot 12_UVVIS_200 K_200um_800 ms 2x2mm1_2.txt
340.368	1	-1
340.710	1	-3
341.052	1	11
341.394	1	6
341.737	1	3
342.079	1	-7
342.421	1	0
342.763	1	-1
343.105	1	9
343.447	1	7
343.789	1	-4
344.131	1	-6
344.473	1	-4
344.815	1	-9
345.157	1	2
345.499	1	5
345.841	1	4
346.183	1	-1
346.526	1	-2
346.868	1	5
347.210	1	-6
347.552	1	-2
347.894	1	0
348.236	1	9
348.578	1	2
348.920	1	-1
349.262	1	1
349.604	1	0
349.946	1	-1
350.288	1	6
350.630	1	2
350.972	1	-4
351.314	1	-1
351.656	1	1
351.998	1	10
352.340	1	4
352.682	1	4
353.024	1	8
353.366	1	7
353.708	1	0
354.050	1	-6
354.392	1	-6
354.734	1	6
355.076	1	1
355.418	1	-12
355.760	1	-6
356.102	1	9
356.444	1	1
356.785	1	4
357.127	1	-4
357.469	1	2
357.811	1	-2
358.153	1	2
358.495	1	-3
358.837	1	-8
359.179	1	-4
359.521	1	8
359.863	1	3
360.205	1	-2
360.547	1	1
360.889	1	-2
361.231	1	-8
361.572	1	-9
361.914	1	7
362.256	1	-2
362.598	1	0
362.940	1	-4
363.282	1	-5
363.624	1	3
363.966	1	2
364.308	1	3
364.649	1	7
364.991	1	-2
365.333	1	-9
365.675	1	-5
366.017	1	6
366.359	1	-4
366.701	1	3
367.042	1	1
367.384	1	-5
367.726	1	-1
368.068	1	3
368.410	1	10
368.752	1	-11
369.093	1	-3
369.435	1	-1
369.777	1	-3
370.119	1	0
370.461	1	13
370.803	1	-7
371.144	1	-9
371.486	1	12
371.828	1	2
372.170	1	0
372.512	1	-9
372.853	1	2
373.195	1	-4
373.537	1	0
373.879	1	-7
374.220	1	12
374.562	1	-2
374.904	1	3
375.246	1	4
375.588	1	10
375.929	1	2
376.271	1	9
376.613	1	-2
376.955	1	-2
377.296	1	-1
377.638	1	6
377.980	1	0
378.321	1	-7
378.663	1	4
379.005	1	8
379.347	1	3
379.688	1	-1
380.030	1	-5
380.372	1	2
380.714	1	5
381.055	1	1
381.397	1	9
381.739	1	5
382.080	1	3
382.422	1	5
382.764	1	-8
383.105	1	-14
383.447	1	-8
383.789	1	-9
384.130	1	4
384.472	1	-1
384.814	1	-9
385.156	1	-1
385.497	1	5
385.839	1	1
386.180	1	-2
386.522	1	6
386.864	1	7
387.205	1	-1
387.547	1	-7
387.889	1	-9
388.230	1	10
388.572	1	3
388.914	1	9
389.255	1	-4
389.597	1	5
389.939	1	2
390.280	1	1
390.622	1	-3
390.963	1	7
391.305	1	7
391.647	1	5
391.988	1	10
392.330	1	10
392.671	1	-8
393.013	1	-3
393.355	1	9
393.696	1	9
394.038	1	-3
394.379	1	-2
394.721	1	-14
395.062	1	2
395.404	1	-8
395.746	1	3
396.087	1	-5
396.429	1	0
396.770	1	-2
397.112	1	13
397.453	1	12
397.795	1	5
398.136	1	-7
398.478	1	6
398.819	1	2
399.161	1	3
399.503	1	-5
399.844	1	5
400.186	1	-3
400.527	1	-7
400.869	1	-5
401.210	1	0
401.552	1	-12
401.893	1	-3
402.235	1	-3
402.576	1	-4
402.918	1	6
403.259	1	4
403.601	1	-1
403.942	1	9
404.284	1	7
404.625	1	9
404.967	1	-7
405.308	1	1
405.649	1	-1
405.991	1	-3
406.332	1	3
406.674	1	-8
407.015	1	2
407.357	1	-3
407.698	1	15
408.040	1	-7
408.381	1	2
408.722	1	-14
409.064	1	-3
409.405	1	8
409.747	1	1
410.088	1	-2
410.430	1	11
410.771	1	1
411.112	1	5
411.454	1	-8
411.795	1	-3
412.137	1	6
412.478	1	9
412.819	1	-2
413.161	1	8
413.502	1	0
413.844	1	4
414.185	1	5
414.526	1	5
414.868	1	1
415.209	1	-1
415.550	1	-2
415.892	1	-5
416.233	1	5
416.575	1	3
416.916	1	2
417.257	1	-6
417.599	1	2
417.940	1	11
418.281	1	-6
418.623	1	5
418.964	1	-10
419.305	1	5
419.647	1	0
419.988	1	-5
420.329	1	-8
420.671	1	9
421.012	1	5
421.353	1	-4
421.695	1	-1
422.036	1	-2
422.377	1	-7
422.718	1	5
423.060	1	-5
423.401	1	5
423.742	1	-4
424.084	1	7
424.425	1	8
424.766	1	-8
425.107	1	-11
425.449	1	1
425.790	1	-2
426.131	1	-7
426.472	1	0
426.814	1	0
427.155	1	-2
427.496	1	-11
427.837	1	-7
428.179	1	-7
428.520	1	-4
428.861	1	-4
429.202	1	-6
429.544	1	-2
429.885	1	4
430.226	1	-13
430.567	1	-1
430.909	1	6
431.250	1	5
431.591	1	3
431.932	1	-6
432.273	1	-6
432.615	1	-10
432.956	1	-3
433.297	1	-1
433.638	1	-7
433.979	1	-2
434.320	1	3
434.662	1	-5
435.003	1	1
435.344	1	0
435.685	1	0
436.026	1	5
436.368	1	3
436.709	1	-1
437.050	1	-2
437.391	1	13
437.732	1	-7
438.073	1	-2
438.414	1	-10
438.756	1	0
439.097	1	-4
439.438	1	-7
439.779	1	-2
440.120	1	0
440.461	1	0
440.802	1	-15
441.143	1	5
441.485	1	6
441.826	1	1
442.167	1	-3
442.508	1	-1
442.849	1	8
443.190	1	8
443.531	1	-2
443.872	1	8
444.213	1	5
444.554	1	12
444.895	1	-10
445.237	1	2
445.578	1	-12
445.919	1	-7
446.260	1	1
446.601	1	-1
446.942	1	-1
447.283	1	8
447.624	1	-2
447.965	1	2
448.306	1	-7
448.647	1	-8
448.988	1	-8
449.329	1	-1
449.670	1	5
450.011	1	10
450.352	1	-6
450.693	1	-7
451.034	1	-1
451.375	1	7
451.716	1	2
452.057	1	2
452.398	1	-7
452.739	1	-4
453.080	1	7
453.421	1	2
453.762	1	-3
454.103	1	-3
454.444	1	-11
454.785	1	-4
455.126	1	-9
455.467	1	0
455.808	1	-4
456.149	1	12
456.490	1	1
456.831	1	6
457.172	1	-2
457.513	1	9
457.854	1	-2
458.195	1	3
458.536	1	-1
458.877	1	5
459.218	1	-7
459.559	1	0
459.899	1	2
460.240	1	0
460.581	1	11
460.922	1	10
461.263	1	-4
461.604	1	-2
461.945	1	7
462.286	1	0
462.627	1	4
462.968	1	-3
463.309	1	-2
463.649	1	-3
463.990	1	6
464.331	1	-7
464.672	1	-9
465.013	1	-6
465.354	1	4
465.695	1	-6
466.036	1	-5
466.376	1	-11
466.717	1	9
467.058	1	0
467.399	1	2
467.740	1	-1
468.081	1	-4
468.422	1	-15
468.762	1	-9
469.103	1	1
469.444	1	-5
469.785	1	-11
470.126	1	-8
470.467	1	-2
470.807	1	7
471.148	1	8
471.489	1	-4
471.830	1	0
472.171	1	2
472.511	1	0
472.852	1	1
473.193	1	0
473.534	1	4
473.875	1	6
474.215	1	12
474.556	1	6
474.897	1	1
475.238	1	3
475.578	1	-7
475.919	1	3
476.260	1	0
476.601	1	6
476.942	1	10
477.282	1	-5
477.623	1	-9
477.964	1	2
478.305	1	-1
478.645	1	2
478.986	1	5
479.327	1	-8
479.667	1	-1
480.008	1	-3
480.349	1	-2
480.690	1	-5
481.030	1	-10
481.371	1	7
481.712	1	2
482.053	1	7
482.393	1	-5
482.734	1	-5
483.075	1	-8
483.415	1	-1
483.756	1	6
484.097	1	-1
484.437	1	-4
484.778	1	-7
485.119	1	2
485.459	1	15
485.800	1	-6
486.141	1	1
486.481	1	-4
486.822	1	1
487.163	1	-7
487.503	1	1
487.844	1	-3
488.185	1	-4
488.525	1	8
488.866	1	7
489.207	1	1
489.547	1	-1
489.888	1	-4
490.228	1	3
490.569	1	13
490.910	1	7
491.250	1	-5
491.591	1	-7
491.932	1	-1
492.272	1	5
492.613	1	3
492.953	1	-6
493.294	1	-3
493.635	1	4
493.975	1	-2
494.316	1	2
494.656	1	3
494.997	1	3
495.337	1	9
495.678	1	3
496.019	1	-5
496.359	1	-4
496.700	1	8
497.040	1	-8
497.381	1	0
497.721	1	-8
498.062	1	6
498.403	1	9
498.743	1	-5
499.084	1	-3
499.424	1	-4
499.765	1	5
500.105	1	-6
500.446	1	-7
500.786	1	-5
501.127	1	-8
501.467	1	-1
501.808	1	-4
502.148	1	-7
502.489	1	-3
502.829	1	-4
503.170	1	4
503.510	1	4
503.851	1	1
504.191	1	5
504.532	1	6
504.872	1	1
505.213	1	7
505.553	1	-7
505.894	1	-7
506.234	1	15
506.575	1	14
506.915	1	1
507.256	1	-3
507.596	1	8
507.936	1	2
508.277	1	-6
508.617	1	-9
508.958	1	-4
509.298	1	7
509.639	1	-13
509.979	1	0
510.319	1	0
510.660	1	2
511.000	1	1
511.341	1	1
511.681	1	4
512.022	1	-9
512.362	1	-1
512.702	1	-7
513.043	1	8
513.383	1	-7
513.724	1	0
514.064	1	-2
514.404	1	-6
514.745	1	5
515.085	1	-5
515.425	1	-3
515.766	1	-12
516.106	1	-5
516.447	1	11
516.787	1	0
517.127	1	-1
517.468	1	0
517.808	1	-7
518.148	1	-5
518.489	1	-7
518.829	1	4
519.169	1	-3
519.510	1	2
519.850	1	9
520.190	1	9
520.531	1	5
520.871	1	11
521.211	1	-9
521.552	1	10
521.892	1	-3
522.232	1	0
522.573	1	-7
522.913	1	8
523.253	1	2
523.593	1	-3
523.934	1	9
524.274	1	-11
524.614	1	-1
524.955	1	-6
525.295	1	1
525.635	1	-2
525.975	1	-4
526.316	1	3
526.656	1	-6
526.996	1	0
527.337	1	0
527.677	1	1
528.017	1	-10
528.357	1	-2
528.698	1	3
529.038	1	2
529.378	1	4
529.718	1	12
530.058	1	-1
530.399	1	0
530.739	1	1
531.079	1	1
531.419	1	-2
531.760	1	-1
532.100	1	-3
532.440	1	-5
532.780	1	-10
533.120	1	2
533.461	1	0
533.801	1	9
534.141	1	-16
534.481	1	-10
534.821	1	-1
535.162	1	-5
535.502	1	-8
535.842	1	3
536.182	1	-2
536.522	1	-9
536.862	1	5
537.203	1	0
537.543	1	-2
537.883	1	-2
538.223	1	9
538.563	1	3
538.903	1	-16
539.243	1	-1
539.584	1	2
539.924	1	13
540.264	1	0
540.604	1	5
540.944	1	-10
541.284	1	1
541.624	1	3
541.964	1	11
542.305	1	1
542.645	1	-1
542.985	1	5
543.325	1	3
543.665	1	11
544.005	1	2
544.345	1	-5
544.685	1	-2
545.025	1	-8
545.365	1	0
545.705	1	-6
546.045	1	-7
546.386	1	-8
546.726	1	-4
547.066	1	0
547.406	1	0
547.746	1	-16
548.086	1	-2
548.426	1	-11
548.766	1	3
549.106	1	-3
549.446	1	-4
549.786	1	-7
550.126	1	5
550.466	1	-1
550.806	1	4
551.146	1	2
551.486	1	-6
551.826	1	1
552.166	1	1
552.506	1	1
552.846	1	2
553.186	1	-2
553.526	1	-10
553.866	1	8
554.206	1	-1
554.546	1	-6
554.886	1	8
555.226	1	-8
555.566	1	5
555.906	1	0
556.246	1	0
556.586	1	0
556.926	1	1
557.266	1	-4
557.606	1	1
557.946	1	5
558.286	1	-1
558.626	1	10
558.966	1	-2
559.306	1	-8
559.646	1	1
559.986	1	-9
560.325	1	-10
560.665	1	3
561.005	1	-1
561.345	1	0
561.685	1	2
562.025	1	1
562.365	1	5
562.705	1	3
563.045	1	5
563.385	1	-7
563.725	1	-7
564.064	1	6
564.404	1	-3
564.744	1	3
565.084	1	-8
565.424	1	2
565.764	1	-13
566.104	1	1
566.444	1	0
566.783	1	-1
567.123	1	-6
567.463	1	-1
567.803	1	-7
568.143	1	-1
568.483	1	4
568.823	1	-4
569.162	1	3
569.502	1	-5
569.842	1	8
570.182	1	0
570.522	1	-5
570.862	1	-8
571.201	1	3
571.541	1	4
571.881	1	10
572.221	1	-4
572.561	1	-5
572.900	1	-5
573.240	1	2
573.580	1	-2
573.920	1	6
574.260	1	10
574.599	1	-9
574.939	1	4
575.279	1	9
575.619	1	10
575.959	1	-12
576.298	1	9
576.638	1	-5
576.978	1	10
577.318	1	4
577.657	1	3
577.997	1	2
578.337	1	13
578.677	1	0
579.016	1	15
579.356	1	-4
579.696	1	4
580.036	1	-4
580.375	1	2
580.715	1	-3
581.055	1	-3
581.394	1	10
581.734	1	-4
582.074	1	-5
582.414	1	6
582.753	1	-9
583.093	1	-11
583.433	1	0
583.772	1	2
584.112	1	-7
584.452	1	-7
584.791	1	-2
585.131	1	-2
585.471	1	-1
585.811	1	9
586.150	1	-2
586.490	1	-2
586.830	1	-4
587.169	1	2
587.509	1	0
587.849	1	-3
588.188	1	-1
588.528	1	4
588.867	1	9
589.207	1	7
589.547	1	-4
589.886	1	-6
590.226	1	5
590.566	1	-7
590.905	1	5
591.245	1	1
591.585	1	4
591.924	1	7
592.264	1	0
592.603	1	1
592.943	1	-4
593.283	1	3
593.622	1	0
593.962	1	4
594.301	1	5
594.641	1	-4
594.981	1	-7
595.320	1	-3
595.660	1	3
595.999	1	-7
596.339	1	0
596.678	1	-2
597.018	1	-10
597.358	1	-3
597.697	1	-3
598.037	1	3
598.376	1	2
598.716	1	2
599.055	1	4
599.395	1	2
599.734	1	2
600.074	1	1
600.413	1	9
600.753	1	5
601.092	1	4
601.432	1	-10
601.771	1	1
602.111	1	-3
602.451	1	-3
602.790	1	-1
603.130	1	6
603.469	1	-6
603.809	1	-4
604.148	1	-2
604.487	1	0
604.827	1	4
605.166	1	2
605.506	1	2
605.845	1	1
606.185	1	6
606.524	1	-2
606.864	1	-5
607.203	1	5
607.543	1	4
607.882	1	4
608.222	1	6
608.561	1	-1
608.901	1	7
609.240	1	-11
609.579	1	5
609.919	1	10
610.258	1	8
610.598	1	-4
610.937	1	-3
611.277	1	1
611.616	1	-3
611.955	1	2
612.295	1	-3
612.634	1	-1
612.974	1	-11
613.313	1	-2
613.652	1	0
613.992	1	-12
614.331	1	0
614.671	1	1
615.010	1	-13
615.349	1	2
615.689	1	11
616.028	1	7
616.368	1	2
616.707	1	-4
617.046	1	-4
617.386	1	-5
617.725	1	2
618.064	1	-5
618.404	1	0
618.743	1	4
619.082	1	4
619.422	1	-10
619.761	1	3
620.100	1	-1
620.440	1	1
620.779	1	-5
621.118	1	-15
621.458	1	-6
621.797	1	-6
622.136	1	10
622.476	1	11
622.815	1	8
623.154	1	-3
623.494	1	10
623.833	1	11
624.172	1	3
624.511	1	6
624.851	1	-10
625.190	1	-6
625.529	1	3
625.869	1	6
626.208	1	-1
626.547	1	-3
626.886	1	-5
627.226	1	0
627.565	1	4
627.904	1	-4
628.243	1	0
628.583	1	-10
628.922	1	4
629.261	1	5
629.600	1	4
629.940	1	-7
630.279	1	-8
630.618	1	0
630.957	1	0
631.297	1	3
631.636	1	-16
631.975	1	8
632.314	1	1
632.653	1	6
632.993	1	-2
633.332	1	-7
633.671	1	-7
634.010	1	-7
634.349	1	9
634.689	1	6
635.028	1	0
635.367	1	-3
635.706	1	-5
636.045	1	8
636.384	1	-11
636.724	1	-1
637.063	1	0
637.402	1	2
637.741	1	-1
638.080	1	0
638.419	1	-1
638.759	1	-5
639.098	1	2
639.437	1	1
639.776	1	-3
640.115	1	-5
640.454	1	-10
640.793	1	4
641.132	1	4
641.472	1	1
641.811	1	2
642.150	1	-19
642.489	1	8
642.828	1	-11
643.167	1	-4
643.506	1	-15
643.845	1	-2
644.184	1	-6
644.524	1	-1
644.863	1	-11
645.202	1	-1
645.541	1	7
645.880	1	-3
646.219	1	2
646.558	1	-3
646.897	1	1
647.236	1	2
647.575	1	4
647.914	1	-7
648.253	1	4
648.592	1	-5
648.931	1	6
649.270	1	11
649.610	1	5
649.949	1	-8
650.288	1	6
650.627	1	1
650.966	1	3
651.305	1	1
651.644	1	7
651.983	1	1
652.322	1	-9
652.661	1	-5
653.000	1	0
653.339	1	12
653.678	1	-1
654.017	1	-1
654.356	1	-5
654.695	1	-2
655.034	1	4
655.373	1	2
655.712	1	5
656.051	1	-2
656.390	1	1
656.729	1	6
657.068	1	6
657.406	1	11
657.745	1	2
658.084	1	8
658.423	1	5
658.762	1	-4
659.101	1	3
659.440	1	4
659.779	1	-2
660.118	1	7
660.457	1	4
660.796	1	-20
661.135	1	-1
661.474	1	2
661.813	1	14
662.152	1	4
662.491	1	0
662.829	1	-2
663.168	1	-4
663.507	1	19
663.846	1	-8
664.185	1	3
664.524	1	0
664.863	1	-9
665.202	1	5
665.541	1	-12
665.879	1	-9
666.218	1	-14
666.557	1	0
666.896	1	1
667.235	1	9
667.574	1	-8
667.913	1	3
668.251	1	-4
668.590	1	-8
668.929	1	-14
669.268	1	2
669.607	1	0
669.946	1	2
670.285	1	4
670.623	1	6
670.962	1	4
671.301	1	-5
671.640	1	4
671.979	1	-3
672.317	1	14
672.656	1	-2
672.995	1	4
673.334	1	5
673.673	1	-2
674.011	1	1
674.350	1	3
674.689	1	7
675.028	1	-6
675.367	1	-3
675.705	1	3
676.044	1	3
676.383	1	3
676.722	1	6
677.060	1	-6
677.399	1	3
677.738	1	1
678.077	1	2
678.416	1	-4
678.754	1	1
679.093	1	8
679.432	1	-7
679.771	1	-3
680.109	1	8
680.448	1	-7
680.787	1	3
681.125	1	-2
681.464	1	2
681.803	1	-2
682.142	1	10
682.480	1	2
682.819	1	-6
683.158	1	-1
683.496	1	5
683.835	1	1
684.174	1	6
684.512	1	-2
684.851	1	3
685.190	1	-8
685.529	1	3
685.867	1	-2
686.206	1	-5
686.545	1	-5
686.883	1	-1
687.222	1	8
687.561	1	9
687.899	1	-1
688.238	1	5
688.577	1	3
688.746	1	6