File: Data/GaN_200K_800ms/GaN_sample F_spot 12_UVVIS_200 K_200um_800 ms 2x2mm1_82.txt
340.368	1	8
340.710	1	-9
341.052	1	10
341.394	1	6
341.737	1	6
342.079	1	6
342.421	1	0
342.763	1	10
343.105	1	5
343.447	1	3
343.789	1	3
344.131	1	-1
344.473	1	-1
344.815	1	8
345.157	1	1
345.499	1	1
345.841	1	5
346.183	1	1
346.526	1	-9
346.868	1	1
347.210	1	11
347.552	1	4
347.894	1	1
348.236	1	12
348.578	1	3
348.920	1	11
349.262	1	5
349.604	1	15
349.946	1	-4
350.288	1	5
350.630	1	2
350.972	1	10
351.314	1	13
351.656	1	16
351.998	1	10
352.340	1	5
352.682	1	11
353.024	1	4
353.366	1	14
353.708	1	6
354.050	1	0
354.392	1	8
354.734	1	19
355.076	1	10
355.418	1	-11
355.760	1	9
356.102	1	26
356.444	1	24
356.785	1	25
357.127	1	17
357.469	1	12
357.811	1	12
358.153	1	26
358.495	1	22
358.837	1	15
359.179	1	21
359.521	1	27
359.863	1	24
360.205	1	20
360.547	1	28
360.889	1	18
361.231	1	33
361.572	1	44
361.914	1	33
362.256	1	34
362.598	1	35
362.940	1	47
363.282	1	38
363.624	1	63
363.966	1	56
364.308	1	63
364.649	1	76
364.991	1	72
365.333	1	75
365.675	1	72
366.017	1	86
366.359	1	98
366.701	1	100
367.042	1	101
367.384	1	118
367.726	1	127
368.068	1	131
368.410	1	146
368.752	1	134
369.093	1	142
369.435	1	135
369.777	1	142
370.119	1	141
370.461	1	143
370.803	1	144
371.144	1	137
371.486	1	127
371.828	1	125
372.170	1	124
372.512	1	113
372.853	1	106
373.195	1	99
373.537	1	91
373.879	1	98
374.220	1	106
374.562	1	92
374.904	1	72
375.246	1	80
375.588	1	76
375.929	1	85
376.271	1	76
376.613	1	69
376.955	1	63
377.296	1	61
377.638	1	70
377.980	1	62
378.321	1	43
378.663	1	54
379.005	1	58
379.347	1	50
379.688	1	43
380.030	1	51
380.372	1	39
380.714	1	51
381.055	1	43
381.397	1	39
381.739	1	37
382.080	1	32
382.422	1	25
382.764	1	30
383.105	1	28
383.447	1	28
383.789	1	26
384.130	1	34
384.472	1	29
384.814	1	27
385.156	1	19
385.497	1	29
385.839	1	24
386.180	1	32
386.522	1	32
386.864	1	27
387.205	1	13
387.547	1	16
387.889	1	23
388.230	1	24
388.572	1	17
388.914	1	26
389.255	1	15
389.597	1	23
389.939	1	23
390.280	1	19
390.622	1	16
390.963	1	26
391.305	1	16
391.647	1	17
391.988	1	16
392.330	1	23
392.671	1	4
393.013	1	7
393.355	1	12
393.696	1	24
394.038	1	14
394.379	1	16
394.721	1	1
395.062	1	12
395.404	1	8
395.746	1	9
396.087	1	0
396.429	1	12
396.770	1	2
397.112	1	7
397.453	1	20
397.795	1	7
398.136	1	7
398.478	1	6
398.819	1	16
399.161	1	15
399.503	1	8
399.844	1	1
400.186	1	3
400.527	1	8
400.869	1	3
401.210	1	16
401.552	1	-11
401.893	1	-4
402.235	1	10
402.576	1	4
402.918	1	11
403.259	1	10
403.601	1	3
403.942	1	12
404.284	1	10
404.625	1	13
404.967	1	7
405.308	1	3
405.649	1	2
405.991	1	2
406.332	1	13
406.674	1	2
407.015	1	10
407.357	1	10
407.698	1	8
408.040	1	1
408.381	1	14
408.722	1	-10
409.064	1	4
409.405	1	19
409.747	1	4
410.088	1	14
410.430	1	9
410.771	1	11
411.112	1	6
411.454	1	0
411.795	1	-1
412.137	1	9
412.478	1	9
412.819	1	6
413.161	1	0
413.502	1	-6
413.844	1	2
414.185	1	2
414.526	1	2
414.868	1	6
415.209	1	3
415.550	1	-1
415.892	1	8
416.233	1	8
416.575	1	13
416.916	1	1
417.257	1	9
417.599	1	16
417.940	1	3
418.281	1	8
418.623	1	4
418.964	1	-7
419.305	1	7
419.647	1	-3
419.988	1	-2
420.329	1	-11
420.671	1	12
421.012	1	6
421.353	1	-3
421.695	1	-4
422.036	1	-2
422.377	1	4
422.718	1	14
423.060	1	-5
423.401	1	7
423.742	1	6
424.084	1	3
424.425	1	8
424.766	1	6
425.107	1	0
425.449	1	5
425.790	1	-6
426.131	1	7
426.472	1	4
426.814	1	4
427.155	1	1
427.496	1	2
427.837	1	0
428.179	1	-7
428.520	1	-3
428.861	1	4
429.202	1	11
429.544	1	1
429.885	1	4
430.226	1	-11
430.567	1	3
430.909	1	9
431.250	1	0
431.591	1	12
431.932	1	5
432.273	1	-3
432.615	1	-5
432.956	1	-9
433.297	1	-1
433.638	1	12
433.979	1	9
434.320	1	7
434.662	1	6
435.003	1	6
435.344	1	8
435.685	1	0
436.026	1	6
436.368	1	0
436.709	1	7
437.050	1	-7
437.391	1	9
437.732	1	-10
438.073	1	-3
438.414	1	-1
438.756	1	0
439.097	1	-7
439.438	1	-11
439.779	1	10
440.120	1	-10
440.461	1	5
440.802	1	-3
441.143	1	14
441.485	1	3
441.826	1	-7
442.167	1	11
442.508	1	-1
442.849	1	-1
443.190	1	7
443.531	1	3
443.872	1	11
444.213	1	4
444.554	1	14
444.895	1	-7
445.237	1	-5
445.578	1	-14
445.919	1	-6
446.260	1	1
446.601	1	-4
446.942	1	6
447.283	1	5
447.624	1	5
447.965	1	8
448.306	1	-4
448.647	1	-6
448.988	1	-4
449.329	1	11
449.670	1	2
450.011	1	12
450.352	1	6
450.693	1	-5
451.034	1	-2
451.375	1	-1
451.716	1	2
452.057	1	2
452.398	1	1
452.739	1	5
453.080	1	6
453.421	1	-5
453.762	1	6
454.103	1	-1
454.444	1	-9
454.785	1	6
455.126	1	-3
455.467	1	5
455.808	1	2
456.149	1	9
456.490	1	2
456.831	1	9
457.172	1	2
457.513	1	10
457.854	1	1
458.195	1	4
458.536	1	9
458.877	1	8
459.218	1	2
459.559	1	8
459.899	1	-2
460.240	1	-3
460.581	1	16
460.922	1	13
461.263	1	-7
461.604	1	-2
461.945	1	8
462.286	1	4
462.627	1	8
462.968	1	-4
463.309	1	-3
463.649	1	-1
463.990	1	2
464.331	1	-5
464.672	1	-4
465.013	1	4
465.354	1	3
465.695	1	0
466.036	1	2
466.376	1	-3
466.717	1	5
467.058	1	10
467.399	1	7
467.740	1	-3
468.081	1	7
468.422	1	1
468.762	1	-5
469.103	1	-4
469.444	1	4
469.785	1	-9
470.126	1	7
470.467	1	-3
470.807	1	10
471.148	1	1
471.489	1	15
471.830	1	2
472.171	1	4
472.511	1	-4
472.852	1	1
473.193	1	12
473.534	1	10
473.875	1	9
474.215	1	9
474.556	1	8
474.897	1	2
475.238	1	0
475.578	1	-6
475.919	1	6
476.260	1	5
476.601	1	-2
476.942	1	11
477.282	1	-4
477.623	1	3
477.964	1	-4
478.305	1	5
478.645	1	2
478.986	1	-3
479.327	1	-2
479.667	1	-1
480.008	1	3
480.349	1	-2
480.690	1	10
481.030	1	0
481.371	1	3
481.712	1	8
482.053	1	10
482.393	1	8
482.734	1	3
483.075	1	3
483.415	1	3
483.756	1	8
484.097	1	6
484.437	1	3
484.778	1	7
485.119	1	-4
485.459	1	14
485.800	1	2
486.141	1	-2
486.481	1	7
486.822	1	2
487.163	1	2
487.503	1	9
487.844	1	5
488.185	1	14
488.525	1	-4
488.866	1	5
489.207	1	2
489.547	1	-6
489.888	1	-2
490.228	1	9
490.569	1	16
490.910	1	6
491.250	1	-4
491.591	1	7
491.932	1	9
492.272	1	9
492.613	1	-5
492.953	1	1
493.294	1	0
493.635	1	2
493.975	1	2
494.316	1	7
494.656	1	9
494.997	1	1
495.337	1	11
495.678	1	5
496.019	1	-1
496.359	1	-10
496.700	1	8
497.040	1	2
497.381	1	5
497.721	1	8
498.062	1	-1
498.403	1	6
498.743	1	3
499.084	1	4
499.424	1	13
499.765	1	3
500.105	1	5
500.446	1	0
500.786	1	4
501.127	1	4
501.467	1	-1
501.808	1	15
502.148	1	10
502.489	1	9
502.829	1	9
503.170	1	2
503.510	1	14
503.851	1	8
504.191	1	12
504.532	1	8
504.872	1	1
505.213	1	14
505.553	1	10
505.894	1	3
506.234	1	16
506.575	1	3
506.915	1	12
507.256	1	10
507.596	1	3
507.936	1	8
508.277	1	6
508.617	1	7
508.958	1	-7
509.298	1	12
509.639	1	5
509.979	1	8
510.319	1	9
510.660	1	7
511.000	1	-6
511.341	1	3
511.681	1	14
512.022	1	10
512.362	1	3
512.702	1	12
513.043	1	9
513.383	1	6
513.724	1	14
514.064	1	16
514.404	1	7
514.745	1	9
515.085	1	1
515.425	1	0
515.766	1	4
516.106	1	12
516.447	1	14
516.787	1	13
517.127	1	11
517.468	1	5
517.808	1	10
518.148	1	8
518.489	1	5
518.829	1	12
519.169	1	12
519.510	1	10
519.850	1	5
520.190	1	17
520.531	1	14
520.871	1	16
521.211	1	-1
521.552	1	14
521.892	1	16
522.232	1	-3
522.573	1	7
522.913	1	14
523.253	1	18
523.593	1	3
523.934	1	6
524.274	1	8
524.614	1	16
524.955	1	11
525.295	1	12
525.635	1	12
525.975	1	17
526.316	1	24
526.656	1	13
526.996	1	17
527.337	1	4
527.677	1	20
528.017	1	4
528.357	1	7
528.698	1	19
529.038	1	14
529.378	1	25
529.718	1	18
530.058	1	12
530.399	1	16
530.739	1	14
531.079	1	10
531.419	1	10
531.760	1	14
532.100	1	4
532.440	1	14
532.780	1	12
533.120	1	15
533.461	1	18
533.801	1	18
534.141	1	2
534.481	1	0
534.821	1	19
535.162	1	19
535.502	1	7
535.842	1	26
536.182	1	19
536.522	1	7
536.862	1	14
537.203	1	7
537.543	1	12
537.883	1	10
538.223	1	22
538.563	1	16
538.903	1	13
539.243	1	11
539.584	1	18
539.924	1	19
540.264	1	10
540.604	1	7
540.944	1	12
541.284	1	16
541.624	1	29
541.964	1	23
542.305	1	17
542.645	1	12
542.985	1	13
543.325	1	4
543.665	1	24
544.005	1	23
544.345	1	9
544.685	1	10
545.025	1	15
545.365	1	24
545.705	1	6
546.045	1	3
546.386	1	26
546.726	1	4
547.066	1	15
547.406	1	25
547.746	1	10
548.086	1	11
548.426	1	6
548.766	1	20
549.106	1	12
549.446	1	10
549.786	1	15
550.126	1	27
550.466	1	16
550.806	1	15
551.146	1	14
551.486	1	15
551.826	1	34
552.166	1	21
552.506	1	12
552.846	1	23
553.186	1	24
553.526	1	15
553.866	1	19
554.206	1	26
554.546	1	27
554.886	1	28
555.226	1	4
555.566	1	18
555.906	1	22
556.246	1	17
556.586	1	6
556.926	1	21
557.266	1	11
557.606	1	16
557.946	1	26
558.286	1	15
558.626	1	17
558.966	1	12
559.306	1	7
559.646	1	3
559.986	1	6
560.325	1	7
560.665	1	10
561.005	1	19
561.345	1	17
561.685	1	13
562.025	1	23
562.365	1	8
562.705	1	14
563.045	1	11
563.385	1	3
563.725	1	12
564.064	1	5
564.404	1	21
564.744	1	11
565.084	1	10
565.424	1	16
565.764	1	14
566.104	1	10
566.444	1	19
566.783	1	11
567.123	1	13
567.463	1	17
567.803	1	14
568.143	1	5
568.483	1	21
568.823	1	18
569.162	1	24
569.502	1	9
569.842	1	19
570.182	1	7
570.522	1	7
570.862	1	13
571.201	1	32
571.541	1	21
571.881	1	38
572.221	1	9
572.561	1	3
572.900	1	8
573.240	1	13
573.580	1	13
573.920	1	21
574.260	1	24
574.599	1	5
574.939	1	22
575.279	1	19
575.619	1	14
575.959	1	12
576.298	1	24
576.638	1	19
576.978	1	25
577.318	1	11
577.657	1	3
577.997	1	10
578.337	1	17
578.677	1	29
579.016	1	18
579.356	1	10
579.696	1	25
580.036	1	11
580.375	1	22
580.715	1	9
581.055	1	17
581.394	1	4
581.734	1	-2
582.074	1	6
582.414	1	29
582.753	1	8
583.093	1	17
583.433	1	24
583.772	1	30
584.112	1	10
584.452	1	17
584.791	1	8
585.131	1	18
585.471	1	23
585.811	1	12
586.150	1	13
586.490	1	6
586.830	1	28
587.169	1	18
587.509	1	9
587.849	1	12
588.188	1	16
588.528	1	17
588.867	1	13
589.207	1	17
589.547	1	7
589.886	1	10
590.226	1	12
590.566	1	11
590.905	1	10
591.245	1	10
591.585	1	10
591.924	1	14
592.264	1	13
592.603	1	11
592.943	1	8
593.283	1	12
593.622	1	14
593.962	1	17
594.301	1	16
594.641	1	8
594.981	1	11
595.320	1	18
595.660	1	15
595.999	1	9
596.339	1	11
596.678	1	5
597.018	1	7
597.358	1	19
597.697	1	10
598.037	1	16
598.376	1	9
598.716	1	18
599.055	1	20
599.395	1	11
599.734	1	14
600.074	1	14
600.413	1	24
600.753	1	19
601.092	1	21
601.432	1	11
601.771	1	16
602.111	1	19
602.451	1	12
602.790	1	10
603.130	1	9
603.469	1	-1
603.809	1	20
604.148	1	11
604.487	1	14
604.827	1	14
605.166	1	14
605.506	1	2
605.845	1	15
606.185	1	26
606.524	1	0
606.864	1	22
607.203	1	12
607.543	1	18
607.882	1	21
608.222	1	12
608.561	1	10
608.901	1	15
609.240	1	10
609.579	1	16
609.919	1	12
610.258	1	16
610.598	1	13
610.937	1	11
611.277	1	14
611.616	1	10
611.955	1	13
612.295	1	17
612.634	1	6
612.974	1	8
613.313	1	9
613.652	1	17
613.992	1	3
614.331	1	3
614.671	1	14
615.010	1	5
615.349	1	18
615.689	1	25
616.028	1	10
616.368	1	14
616.707	1	13
617.046	1	11
617.386	1	13
617.725	1	4
618.064	1	9
618.404	1	7
618.743	1	13
619.082	1	7
619.422	1	2
619.761	1	14
620.100	1	10
620.440	1	5
620.779	1	2
621.118	1	13
621.458	1	12
621.797	1	4
622.136	1	16
622.476	1	3
622.815	1	18
623.154	1	17
623.494	1	24
623.833	1	11
624.172	1	3
624.511	1	9
624.851	1	-9
625.190	1	12
625.529	1	6
625.869	1	15
626.208	1	10
626.547	1	0
626.886	1	7
627.226	1	10
627.565	1	10
627.904	1	11
628.243	1	13
628.583	1	7
628.922	1	14
629.261	1	12
629.600	1	14
629.940	1	8
630.279	1	0
630.618	1	6
630.957	1	14
631.297	1	12
631.636	1	0
631.975	1	16
632.314	1	3
632.653	1	9
632.993	1	4
633.332	1	18
633.671	1	13
634.010	1	0
634.349	1	14
634.689	1	11
635.028	1	14
635.367	1	6
635.706	1	3
636.045	1	14
636.384	1	14
636.724	1	6
637.063	1	0
637.402	1	10
637.741	1	6
638.080	1	2
638.419	1	6
638.759	1	8
639.098	1	12
639.437	1	12
639.776	1	4
640.115	1	3
640.454	1	4
640.793	1	12
641.132	1	4
641.472	1	16
641.811	1	9
642.150	1	-2
642.489	1	8
642.828	1	9
643.167	1	4
643.506	1	-2
643.845	1	2
644.184	1	4
644.524	1	13
644.863	1	1
645.202	1	7
645.541	1	11
645.880	1	17
646.219	1	3
646.558	1	2
646.897	1	7
647.236	1	6
647.575	1	13
647.914	1	0
648.253	1	16
648.592	1	2
648.931	1	23
649.270	1	9
649.610	1	-5
649.949	1	-2
650.288	1	8
650.627	1	6
650.966	1	5
651.305	1	14
651.644	1	18
651.983	1	3
652.322	1	7
652.661	1	5
653.000	1	4
653.339	1	13
653.678	1	5
654.017	1	3
654.356	1	0
654.695	1	8
655.034	1	11
655.373	1	16
655.712	1	13
656.051	1	15
656.390	1	5
656.729	1	7
657.068	1	8
657.406	1	17
657.745	1	6
658.084	1	13
658.423	1	9
658.762	1	7
659.101	1	14
659.440	1	6
659.779	1	7
660.118	1	6
660.457	1	9
660.796	1	1
661.135	1	5
661.474	1	0
661.813	1	17
662.152	1	12
662.491	1	-3
662.829	1	3
663.168	1	14
663.507	1	16
663.846	1	-5
664.185	1	16
664.524	1	9
664.863	1	2
665.202	1	11
665.541	1	0
665.879	1	-2
666.218	1	3
666.557	1	4
666.896	1	-1
667.235	1	15
667.574	1	4
667.913	1	16
668.251	1	0
668.590	1	6
668.929	1	-2
669.268	1	3
669.607	1	-1
669.946	1	2
670.285	1	9
670.623	1	10
670.962	1	5
671.301	1	5
671.640	1	8
671.979	1	8
672.317	1	11
672.656	1	4
672.995	1	16
673.334	1	14
673.673	1	3
674.011	1	2
674.350	1	9
674.689	1	6
675.028	1	-3
675.367	1	10
675.705	1	12
676.044	1	3
676.383	1	9
676.722	1	3
677.060	1	-7
677.399	1	-4
677.738	1	-3
678.077	1	6
678.416	1	2
678.754	1	4
679.093	1	5
679.432	1	3
679.771	1	12
680.109	1	14
680.448	1	8
680.787	1	12
681.125	1	8
681.464	1	7
681.803	1	6
682.142	1	14
682.480	1	12
682.819	1	9
683.158	1	4
683.496	1	5
683.835	1	6
684.174	1	2
684.512	1	7
684.851	1	11
685.190	1	6
685.529	1	0
685.867	1	-1
686.206	1	-8
686.545	1	-3
686.883	1	1
687.222	1	12
687.561	1	12
687.899	1	8
688.238	1	5
688.577	1	8
688.746	1	7