File: Data/GaN_200K_800ms/GaN_sample F_spot 12_UVVIS_200 K_200um_800 ms 2x2mm1_372.txt
340.368	1	4
340.710	1	-6
341.052	1	-1
341.394	1	-8
341.737	1	4
342.079	1	-3
342.421	1	-10
342.763	1	3
343.105	1	0
343.447	1	-5
343.789	1	3
344.131	1	-8
344.473	1	-10
344.815	1	-3
345.157	1	-6
345.499	1	1
345.841	1	3
346.183	1	-6
346.526	1	-10
346.868	1	6
347.210	1	-14
347.552	1	-13
347.894	1	4
348.236	1	8
348.578	1	7
348.920	1	4
349.262	1	0
349.604	1	3
349.946	1	-2
350.288	1	4
350.630	1	-4
350.972	1	-2
351.314	1	4
351.656	1	8
351.998	1	-7
352.340	1	1
352.682	1	6
353.024	1	-2
353.366	1	2
353.708	1	-6
354.050	1	-4
354.392	1	-4
354.734	1	-3
355.076	1	-7
355.418	1	-23
355.760	1	-3
356.102	1	15
356.444	1	-8
356.785	1	4
357.127	1	2
357.469	1	1
357.811	1	-7
358.153	1	11
358.495	1	5
358.837	1	-8
359.179	1	4
359.521	1	4
359.863	1	-2
360.205	1	4
360.547	1	2
360.889	1	0
361.231	1	-11
361.572	1	4
361.914	1	2
362.256	1	1
362.598	1	-6
362.940	1	-9
363.282	1	3
363.624	1	9
363.966	1	-5
364.308	1	0
364.649	1	9
364.991	1	5
365.333	1	-2
365.675	1	1
366.017	1	5
366.359	1	8
366.701	1	8
367.042	1	4
367.384	1	16
367.726	1	13
368.068	1	21
368.410	1	22
368.752	1	5
369.093	1	10
369.435	1	14
369.777	1	6
370.119	1	8
370.461	1	21
370.803	1	16
371.144	1	5
371.486	1	13
371.828	1	7
372.170	1	12
372.512	1	1
372.853	1	8
373.195	1	7
373.537	1	8
373.879	1	11
374.220	1	12
374.562	1	13
374.904	1	14
375.246	1	8
375.588	1	6
375.929	1	10
376.271	1	14
376.613	1	-2
376.955	1	1
377.296	1	2
377.638	1	9
377.980	1	9
378.321	1	3
378.663	1	0
379.005	1	12
379.347	1	12
379.688	1	0
380.030	1	9
380.372	1	2
380.714	1	1
381.055	1	7
381.397	1	-2
381.739	1	13
382.080	1	11
382.422	1	12
382.764	1	-1
383.105	1	3
383.447	1	0
383.789	1	-9
384.130	1	-4
384.472	1	4
384.814	1	4
385.156	1	-3
385.497	1	7
385.839	1	-9
386.180	1	6
386.522	1	15
386.864	1	0
387.205	1	4
387.547	1	-9
387.889	1	0
388.230	1	11
388.572	1	1
388.914	1	0
389.255	1	-4
389.597	1	10
389.939	1	8
390.280	1	-7
390.622	1	2
390.963	1	9
391.305	1	2
391.647	1	5
391.988	1	5
392.330	1	11
392.671	1	7
393.013	1	-3
393.355	1	3
393.696	1	-1
394.038	1	2
394.379	1	4
394.721	1	7
395.062	1	8
395.404	1	-3
395.746	1	7
396.087	1	-5
396.429	1	5
396.770	1	-1
397.112	1	-3
397.453	1	1
397.795	1	2
398.136	1	-8
398.478	1	-11
398.819	1	-3
399.161	1	16
399.503	1	1
399.844	1	0
400.186	1	1
400.527	1	-2
400.869	1	4
401.210	1	1
401.552	1	-7
401.893	1	0
402.235	1	-1
402.576	1	-5
402.918	1	8
403.259	1	-1
403.601	1	-14
403.942	1	11
404.284	1	14
404.625	1	10
404.967	1	-9
405.308	1	0
405.649	1	-4
405.991	1	2
406.332	1	4
406.674	1	-4
407.015	1	-2
407.357	1	0
407.698	1	12
408.040	1	2
408.381	1	4
408.722	1	-16
409.064	1	-4
409.405	1	6
409.747	1	-1
410.088	1	-5
410.430	1	-4
410.771	1	2
411.112	1	-1
411.454	1	-2
411.795	1	-13
412.137	1	1
412.478	1	6
412.819	1	-2
413.161	1	6
413.502	1	-3
413.844	1	-3
414.185	1	5
414.526	1	-1
414.868	1	0
415.209	1	-3
415.550	1	-6
415.892	1	2
416.233	1	3
416.575	1	4
416.916	1	-15
417.257	1	0
417.599	1	-2
417.940	1	10
418.281	1	-1
418.623	1	-10
418.964	1	-9
419.305	1	-4
419.647	1	-2
419.988	1	-9
420.329	1	-3
420.671	1	-9
421.012	1	-1
421.353	1	-10
421.695	1	-1
422.036	1	-3
422.377	1	-5
422.718	1	7
423.060	1	4
423.401	1	4
423.742	1	6
424.084	1	5
424.425	1	-1
424.766	1	-3
425.107	1	1
425.449	1	4
425.790	1	-17
426.131	1	-3
426.472	1	2
426.814	1	1
427.155	1	-12
427.496	1	4
427.837	1	-2
428.179	1	-6
428.520	1	0
428.861	1	-8
429.202	1	-4
429.544	1	-2
429.885	1	8
430.226	1	-13
430.567	1	2
430.909	1	3
431.250	1	-3
431.591	1	10
431.932	1	-1
432.273	1	1
432.615	1	-14
432.956	1	-13
433.297	1	6
433.638	1	-2
433.979	1	11
434.320	1	0
434.662	1	0
435.003	1	3
435.344	1	-3
435.685	1	-5
436.026	1	-4
436.368	1	7
436.709	1	-6
437.050	1	-3
437.391	1	6
437.732	1	-8
438.073	1	-9
438.414	1	-14
438.756	1	-6
439.097	1	-11
439.438	1	-3
439.779	1	-7
440.120	1	-5
440.461	1	-1
440.802	1	-3
441.143	1	2
441.485	1	1
441.826	1	1
442.167	1	-2
442.508	1	0
442.849	1	11
443.190	1	2
443.531	1	9
443.872	1	7
444.213	1	3
444.554	1	0
444.895	1	4
445.237	1	-3
445.578	1	-10
445.919	1	-7
446.260	1	-9
446.601	1	1
446.942	1	1
447.283	1	-8
447.624	1	4
447.965	1	-1
448.306	1	3
448.647	1	-9
448.988	1	-2
449.329	1	-2
449.670	1	5
450.011	1	6
450.352	1	1
450.693	1	-1
451.034	1	-6
451.375	1	-1
451.716	1	-1
452.057	1	2
452.398	1	-6
452.739	1	-3
453.080	1	-4
453.421	1	2
453.762	1	-7
454.103	1	1
454.444	1	-14
454.785	1	-3
455.126	1	-6
455.467	1	3
455.808	1	1
456.149	1	2
456.490	1	-3
456.831	1	1
457.172	1	-4
457.513	1	5
457.854	1	-3
458.195	1	-8
458.536	1	7
458.877	1	-10
459.218	1	1
459.559	1	4
459.899	1	5
460.240	1	-1
460.581	1	9
460.922	1	2
461.263	1	-7
461.604	1	-3
461.945	1	2
462.286	1	-1
462.627	1	5
462.968	1	5
463.309	1	-11
463.649	1	0
463.990	1	5
464.331	1	-2
464.672	1	-14
465.013	1	-2
465.354	1	-2
465.695	1	-4
466.036	1	-9
466.376	1	-5
466.717	1	-11
467.058	1	1
467.399	1	1
467.740	1	3
468.081	1	-3
468.422	1	-8
468.762	1	-8
469.103	1	-7
469.444	1	-4
469.785	1	-11
470.126	1	-7
470.467	1	-7
470.807	1	-3
471.148	1	7
471.489	1	4
471.830	1	-5
472.171	1	3
472.511	1	-8
472.852	1	-5
473.193	1	-9
473.534	1	10
473.875	1	16
474.215	1	7
474.556	1	0
474.897	1	4
475.238	1	-1
475.578	1	-9
475.919	1	-1
476.260	1	-4
476.601	1	4
476.942	1	4
477.282	1	-3
477.623	1	-7
477.964	1	-8
478.305	1	-6
478.645	1	1
478.986	1	-10
479.327	1	-12
479.667	1	-3
480.008	1	-6
480.349	1	-4
480.690	1	-4
481.030	1	-8
481.371	1	3
481.712	1	8
482.053	1	1
482.393	1	8
482.734	1	-11
483.075	1	-7
483.415	1	-2
483.756	1	0
484.097	1	3
484.437	1	-2
484.778	1	0
485.119	1	-6
485.459	1	15
485.800	1	-4
486.141	1	0
486.481	1	-3
486.822	1	4
487.163	1	-3
487.503	1	0
487.844	1	0
488.185	1	8
488.525	1	-6
488.866	1	-5
489.207	1	-5
489.547	1	-8
489.888	1	2
490.228	1	4
490.569	1	12
490.910	1	6
491.250	1	-10
491.591	1	-4
491.932	1	3
492.272	1	-7
492.613	1	3
492.953	1	-3
493.294	1	-5
493.635	1	3
493.975	1	-3
494.316	1	2
494.656	1	-2
494.997	1	0
495.337	1	5
495.678	1	4
496.019	1	-5
496.359	1	0
496.700	1	-1
497.040	1	-2
497.381	1	-7
497.721	1	-3
498.062	1	1
498.403	1	-4
498.743	1	-6
499.084	1	-3
499.424	1	-3
499.765	1	-1
500.105	1	-2
500.446	1	-8
500.786	1	-3
501.127	1	2
501.467	1	-8
501.808	1	2
502.148	1	2
502.489	1	2
502.829	1	0
503.170	1	4
503.510	1	9
503.851	1	-2
504.191	1	4
504.532	1	0
504.872	1	3
505.213	1	4
505.553	1	-10
505.894	1	-9
506.234	1	6
506.575	1	0
506.915	1	-2
507.256	1	6
507.596	1	-4
507.936	1	-5
508.277	1	-1
508.617	1	6
508.958	1	-5
509.298	1	-3
509.639	1	-5
509.979	1	-3
510.319	1	0
510.660	1	4
511.000	1	-2
511.341	1	3
511.681	1	0
512.022	1	-2
512.362	1	-4
512.702	1	-1
513.043	1	7
513.383	1	-11
513.724	1	6
514.064	1	13
514.404	1	-3
514.745	1	0
515.085	1	0
515.425	1	-5
515.766	1	-1
516.106	1	0
516.447	1	2
516.787	1	2
517.127	1	-4
517.468	1	-5
517.808	1	2
518.148	1	5
518.489	1	-4
518.829	1	-1
519.169	1	0
519.510	1	-1
519.850	1	4
520.190	1	4
520.531	1	1
520.871	1	4
521.211	1	-6
521.552	1	7
521.892	1	3
522.232	1	9
522.573	1	-2
522.913	1	6
523.253	1	-11
523.593	1	-5
523.934	1	-5
524.274	1	-4
524.614	1	-12
524.955	1	-2
525.295	1	5
525.635	1	1
525.975	1	2
526.316	1	7
526.656	1	-6
526.996	1	2
527.337	1	-3
527.677	1	8
528.017	1	-1
528.357	1	-5
528.698	1	-5
529.038	1	-2
529.378	1	7
529.718	1	9
530.058	1	-3
530.399	1	6
530.739	1	-2
531.079	1	5
531.419	1	4
531.760	1	8
532.100	1	-19
532.440	1	0
532.780	1	-6
533.120	1	7
533.461	1	7
533.801	1	10
534.141	1	-10
534.481	1	-10
534.821	1	4
535.162	1	1
535.502	1	-9
535.842	1	7
536.182	1	-8
536.522	1	1
536.862	1	6
537.203	1	-10
537.543	1	-1
537.883	1	3
538.223	1	-4
538.563	1	3
538.903	1	-14
539.243	1	-4
539.584	1	-5
539.924	1	16
540.264	1	-7
540.604	1	5
540.944	1	2
541.284	1	6
541.624	1	3
541.964	1	7
542.305	1	1
542.645	1	-3
542.985	1	5
543.325	1	5
543.665	1	8
544.005	1	12
544.345	1	-1
544.685	1	-3
545.025	1	-9
545.365	1	-2
545.705	1	2
546.045	1	-6
546.386	1	1
546.726	1	-12
547.066	1	-1
547.406	1	0
547.746	1	-13
548.086	1	2
548.426	1	-12
548.766	1	-2
549.106	1	8
549.446	1	10
549.786	1	-4
550.126	1	17
550.466	1	-1
550.806	1	0
551.146	1	-5
551.486	1	-5
551.826	1	9
552.166	1	7
552.506	1	-3
552.846	1	-5
553.186	1	10
553.526	1	-3
553.866	1	-4
554.206	1	4
554.546	1	6
554.886	1	4
555.226	1	2
555.566	1	4
555.906	1	4
556.246	1	-4
556.586	1	-7
556.926	1	7
557.266	1	-1
557.606	1	1
557.946	1	10
558.286	1	4
558.626	1	6
558.966	1	0
559.306	1	-1
559.646	1	-7
559.986	1	-9
560.325	1	1
560.665	1	-1
561.005	1	-4
561.345	1	9
561.685	1	-3
562.025	1	2
562.365	1	6
562.705	1	-2
563.045	1	-10
563.385	1	-6
563.725	1	-6
564.064	1	-5
564.404	1	5
564.744	1	3
565.084	1	0
565.424	1	5
565.764	1	-5
566.104	1	-2
566.444	1	-8
566.783	1	-6
567.123	1	3
567.463	1	2
567.803	1	-1
568.143	1	-4
568.483	1	5
568.823	1	1
569.162	1	7
569.502	1	-2
569.842	1	1
570.182	1	-2
570.522	1	-9
570.862	1	-9
571.201	1	4
571.541	1	1
571.881	1	11
572.221	1	4
572.561	1	3
572.900	1	-4
573.240	1	-5
573.580	1	0
573.920	1	2
574.260	1	1
574.599	1	6
574.939	1	2
575.279	1	0
575.619	1	3
575.959	1	-11
576.298	1	9
576.638	1	-6
576.978	1	11
577.318	1	-2
577.657	1	-5
577.997	1	-1
578.337	1	11
578.677	1	8
579.016	1	15
579.356	1	-8
579.696	1	1
580.036	1	-3
580.375	1	3
580.715	1	-4
581.055	1	-9
581.394	1	-5
581.734	1	1
582.074	1	-12
582.414	1	4
582.753	1	-8
583.093	1	2
583.433	1	6
583.772	1	11
584.112	1	3
584.452	1	1
584.791	1	-2
585.131	1	6
585.471	1	0
585.811	1	1
586.150	1	2
586.490	1	14
586.830	1	3
587.169	1	6
587.509	1	-3
587.849	1	-2
588.188	1	12
588.528	1	4
588.867	1	-1
589.207	1	7
589.547	1	1
589.886	1	-9
590.226	1	9
590.566	1	0
590.905	1	-3
591.245	1	-2
591.585	1	14
591.924	1	0
592.264	1	1
592.603	1	-1
592.943	1	4
593.283	1	3
593.622	1	-4
593.962	1	-3
594.301	1	-3
594.641	1	0
594.981	1	-1
595.320	1	0
595.660	1	9
595.999	1	-11
596.339	1	4
596.678	1	-2
597.018	1	-6
597.358	1	1
597.697	1	-6
598.037	1	-4
598.376	1	7
598.716	1	1
599.055	1	13
599.395	1	-4
599.734	1	3
600.074	1	2
600.413	1	11
600.753	1	7
601.092	1	2
601.432	1	-5
601.771	1	6
602.111	1	4
602.451	1	2
602.790	1	3
603.130	1	6
603.469	1	-9
603.809	1	-2
604.148	1	2
604.487	1	2
604.827	1	-2
605.166	1	2
605.506	1	10
605.845	1	6
606.185	1	7
606.524	1	4
606.864	1	-6
607.203	1	-4
607.543	1	-8
607.882	1	4
608.222	1	0
608.561	1	6
608.901	1	10
609.240	1	-7
609.579	1	3
609.919	1	5
610.258	1	10
610.598	1	7
610.937	1	3
611.277	1	0
611.616	1	7
611.955	1	3
612.295	1	-5
612.634	1	-4
612.974	1	-14
613.313	1	10
613.652	1	0
613.992	1	1
614.331	1	-2
614.671	1	1
615.010	1	-14
615.349	1	5
615.689	1	3
616.028	1	-4
616.368	1	9
616.707	1	5
617.046	1	-2
617.386	1	4
617.725	1	-2
618.064	1	-5
618.404	1	-6
618.743	1	6
619.082	1	-1
619.422	1	-7
619.761	1	6
620.100	1	7
620.440	1	-1
620.779	1	-10
621.118	1	-4
621.458	1	0
621.797	1	1
622.136	1	9
622.476	1	1
622.815	1	5
623.154	1	0
623.494	1	15
623.833	1	7
624.172	1	2
624.511	1	2
624.851	1	-7
625.190	1	-8
625.529	1	3
625.869	1	10
626.208	1	0
626.547	1	-1
626.886	1	8
627.226	1	4
627.565	1	10
627.904	1	-3
628.243	1	-9
628.583	1	2
628.922	1	-8
629.261	1	7
629.600	1	16
629.940	1	-10
630.279	1	-7
630.618	1	0
630.957	1	4
631.297	1	-2
631.636	1	-14
631.975	1	2
632.314	1	-7
632.653	1	3
632.993	1	-7
633.332	1	-3
633.671	1	-7
634.010	1	-4
634.349	1	14
634.689	1	0
635.028	1	2
635.367	1	-10
635.706	1	9
636.045	1	3
636.384	1	3
636.724	1	5
637.063	1	3
637.402	1	1
637.741	1	-2
638.080	1	6
638.419	1	0
638.759	1	-10
639.098	1	6
639.437	1	4
639.776	1	-2
640.115	1	-7
640.454	1	-2
640.793	1	9
641.132	1	-2
641.472	1	2
641.811	1	4
642.150	1	-15
642.489	1	2
642.828	1	0
643.167	1	2
643.506	1	-11
643.845	1	-1
644.184	1	-5
644.524	1	-3
644.863	1	-4
645.202	1	-4
645.541	1	-6
645.880	1	3
646.219	1	4
646.558	1	-6
646.897	1	-7
647.236	1	-1
647.575	1	12
647.914	1	-1
648.253	1	1
648.592	1	-10
648.931	1	13
649.270	1	-6
649.610	1	6
649.949	1	-1
650.288	1	6
650.627	1	4
650.966	1	4
651.305	1	-10
651.644	1	3
651.983	1	4
652.322	1	-5
652.661	1	1
653.000	1	2
653.339	1	1
653.678	1	0
654.017	1	-2
654.356	1	-3
654.695	1	-7
655.034	1	-6
655.373	1	3
655.712	1	-6
656.051	1	-4
656.390	1	-3
656.729	1	16
657.068	1	-3
657.406	1	-4
657.745	1	-1
658.084	1	8
658.423	1	17
658.762	1	2
659.101	1	6
659.440	1	2
659.779	1	-6
660.118	1	5
660.457	1	-6
660.796	1	-8
661.135	1	-4
661.474	1	-6
661.813	1	10
662.152	1	7
662.491	1	3
662.829	1	-2
663.168	1	3
663.507	1	5
663.846	1	-3
664.185	1	10
664.524	1	8
664.863	1	-10
665.202	1	-3
665.541	1	-4
665.879	1	-2
666.218	1	-2
666.557	1	-6
666.896	1	-1
667.235	1	4
667.574	1	-4
667.913	1	-1
668.251	1	-1
668.590	1	1
668.929	1	-8
669.268	1	-10
669.607	1	-6
669.946	1	3
670.285	1	-3
670.623	1	-1
670.962	1	-3
671.301	1	-3
671.640	1	-6
671.979	1	-6
672.317	1	8
672.656	1	-5
672.995	1	3
673.334	1	-6
673.673	1	7
674.011	1	-1
674.350	1	-6
674.689	1	1
675.028	1	-8
675.367	1	8
675.705	1	2
676.044	1	1
676.383	1	0
676.722	1	2
677.060	1	-2
677.399	1	-11
677.738	1	3
678.077	1	1
678.416	1	1
678.754	1	-4
679.093	1	3
679.432	1	1
679.771	1	1
680.109	1	8
680.448	1	1
680.787	1	-2
681.125	1	6
681.464	1	4
681.803	1	-3
682.142	1	2
682.480	1	9
682.819	1	3
683.158	1	0
683.496	1	-1
683.835	1	-1
684.174	1	-3
684.512	1	2
684.851	1	5
685.190	1	-4
685.529	1	0
685.867	1	-1
686.206	1	-1
686.545	1	-7
686.883	1	-1
687.222	1	3
687.561	1	1
687.899	1	2
688.238	1	3
688.577	1	-5
688.746	1	6