File: Data/GaN_200K_800ms/GaN_sample F_spot 12_UVVIS_200 K_200um_800 ms 2x2mm1_63.txt
340.368	1	3
340.710	1	-2
341.052	1	14
341.394	1	-5
341.737	1	12
342.079	1	-5
342.421	1	4
342.763	1	9
343.105	1	8
343.447	1	-1
343.789	1	3
344.131	1	-1
344.473	1	4
344.815	1	9
345.157	1	6
345.499	1	3
345.841	1	9
346.183	1	4
346.526	1	-2
346.868	1	11
347.210	1	1
347.552	1	2
347.894	1	3
348.236	1	17
348.578	1	6
348.920	1	7
349.262	1	1
349.604	1	11
349.946	1	4
350.288	1	15
350.630	1	12
350.972	1	14
351.314	1	13
351.656	1	11
351.998	1	11
352.340	1	17
352.682	1	10
353.024	1	14
353.366	1	16
353.708	1	4
354.050	1	6
354.392	1	13
354.734	1	14
355.076	1	12
355.418	1	1
355.760	1	4
356.102	1	24
356.444	1	21
356.785	1	25
357.127	1	14
357.469	1	26
357.811	1	25
358.153	1	36
358.495	1	29
358.837	1	23
359.179	1	29
359.521	1	34
359.863	1	39
360.205	1	45
360.547	1	52
360.889	1	42
361.231	1	48
361.572	1	63
361.914	1	65
362.256	1	62
362.598	1	59
362.940	1	71
363.282	1	86
363.624	1	93
363.966	1	90
364.308	1	94
364.649	1	113
364.991	1	108
365.333	1	120
365.675	1	131
366.017	1	164
366.359	1	180
366.701	1	191
367.042	1	202
367.384	1	211
367.726	1	237
368.068	1	232
368.410	1	263
368.752	1	231
369.093	1	252
369.435	1	262
369.777	1	270
370.119	1	249
370.461	1	264
370.803	1	258
371.144	1	228
371.486	1	252
371.828	1	219
372.170	1	217
372.512	1	206
372.853	1	193
373.195	1	176
373.537	1	178
373.879	1	176
374.220	1	168
374.562	1	167
374.904	1	155
375.246	1	133
375.588	1	141
375.929	1	130
376.271	1	133
376.613	1	116
376.955	1	106
377.296	1	99
377.638	1	99
377.980	1	93
378.321	1	87
378.663	1	79
379.005	1	96
379.347	1	85
379.688	1	76
380.030	1	78
380.372	1	69
380.714	1	63
381.055	1	60
381.397	1	71
381.739	1	53
382.080	1	59
382.422	1	57
382.764	1	43
383.105	1	49
383.447	1	49
383.789	1	44
384.130	1	43
384.472	1	45
384.814	1	49
385.156	1	37
385.497	1	47
385.839	1	44
386.180	1	37
386.522	1	42
386.864	1	37
387.205	1	31
387.547	1	32
387.889	1	32
388.230	1	40
388.572	1	31
388.914	1	32
389.255	1	18
389.597	1	29
389.939	1	30
390.280	1	23
390.622	1	23
390.963	1	33
391.305	1	24
391.647	1	18
391.988	1	22
392.330	1	16
392.671	1	27
393.013	1	22
393.355	1	23
393.696	1	16
394.038	1	30
394.379	1	15
394.721	1	13
395.062	1	11
395.404	1	9
395.746	1	17
396.087	1	18
396.429	1	14
396.770	1	17
397.112	1	23
397.453	1	25
397.795	1	15
398.136	1	9
398.478	1	12
398.819	1	16
399.161	1	18
399.503	1	18
399.844	1	7
400.186	1	16
400.527	1	7
400.869	1	6
401.210	1	10
401.552	1	2
401.893	1	7
402.235	1	6
402.576	1	8
402.918	1	23
403.259	1	6
403.601	1	8
403.942	1	13
404.284	1	19
404.625	1	7
404.967	1	12
405.308	1	18
405.649	1	3
405.991	1	1
406.332	1	7
406.674	1	7
407.015	1	9
407.357	1	5
407.698	1	0
408.040	1	5
408.381	1	7
408.722	1	-3
409.064	1	10
409.405	1	8
409.747	1	7
410.088	1	3
410.430	1	17
410.771	1	4
411.112	1	4
411.454	1	6
411.795	1	1
412.137	1	12
412.478	1	10
412.819	1	-6
413.161	1	3
413.502	1	2
413.844	1	9
414.185	1	10
414.526	1	11
414.868	1	6
415.209	1	-1
415.550	1	-10
415.892	1	10
416.233	1	9
416.575	1	19
416.916	1	6
417.257	1	0
417.599	1	6
417.940	1	10
418.281	1	11
418.623	1	0
418.964	1	-3
419.305	1	13
419.647	1	-4
419.988	1	-1
420.329	1	3
420.671	1	6
421.012	1	10
421.353	1	-2
421.695	1	-1
422.036	1	6
422.377	1	2
422.718	1	13
423.060	1	-2
423.401	1	-3
423.742	1	6
424.084	1	8
424.425	1	15
424.766	1	9
425.107	1	1
425.449	1	0
425.790	1	-5
426.131	1	8
426.472	1	-2
426.814	1	8
427.155	1	-2
427.496	1	5
427.837	1	2
428.179	1	-2
428.520	1	14
428.861	1	0
429.202	1	8
429.544	1	8
429.885	1	4
430.226	1	5
430.567	1	3
430.909	1	0
431.250	1	1
431.591	1	5
431.932	1	5
432.273	1	4
432.615	1	0
432.956	1	-5
433.297	1	1
433.638	1	-3
433.979	1	10
434.320	1	9
434.662	1	1
435.003	1	13
435.344	1	-7
435.685	1	2
436.026	1	16
436.368	1	10
436.709	1	6
437.050	1	-3
437.391	1	14
437.732	1	-2
438.073	1	10
438.414	1	-5
438.756	1	-12
439.097	1	-2
439.438	1	2
439.779	1	4
440.120	1	10
440.461	1	2
440.802	1	-10
441.143	1	12
441.485	1	-2
441.826	1	0
442.167	1	3
442.508	1	-11
442.849	1	8
443.190	1	2
443.531	1	16
443.872	1	11
444.213	1	4
444.554	1	8
444.895	1	-9
445.237	1	-7
445.578	1	-7
445.919	1	-5
446.260	1	-1
446.601	1	6
446.942	1	7
447.283	1	-2
447.624	1	8
447.965	1	5
448.306	1	0
448.647	1	-1
448.988	1	-3
449.329	1	7
449.670	1	14
450.011	1	10
450.352	1	-4
450.693	1	-4
451.034	1	1
451.375	1	0
451.716	1	-3
452.057	1	2
452.398	1	3
452.739	1	11
453.080	1	-4
453.421	1	9
453.762	1	5
454.103	1	4
454.444	1	0
454.785	1	-2
455.126	1	4
455.467	1	8
455.808	1	-4
456.149	1	15
456.490	1	8
456.831	1	7
457.172	1	-5
457.513	1	10
457.854	1	0
458.195	1	-8
458.536	1	6
458.877	1	6
459.218	1	-3
459.559	1	4
459.899	1	2
460.240	1	3
460.581	1	6
460.922	1	15
461.263	1	3
461.604	1	2
461.945	1	6
462.286	1	8
462.627	1	8
462.968	1	2
463.309	1	-1
463.649	1	14
463.990	1	2
464.331	1	4
464.672	1	-1
465.013	1	8
465.354	1	8
465.695	1	-2
466.036	1	-6
466.376	1	3
466.717	1	-1
467.058	1	3
467.399	1	17
467.740	1	14
468.081	1	8
468.422	1	0
468.762	1	-11
469.103	1	-6
469.444	1	-5
469.785	1	-5
470.126	1	-6
470.467	1	-9
470.807	1	1
471.148	1	8
471.489	1	7
471.830	1	3
472.171	1	9
472.511	1	1
472.852	1	8
473.193	1	6
473.534	1	3
473.875	1	17
474.215	1	6
474.556	1	3
474.897	1	11
475.238	1	8
475.578	1	-2
475.919	1	5
476.260	1	10
476.601	1	11
476.942	1	12
477.282	1	1
477.623	1	-2
477.964	1	-2
478.305	1	7
478.645	1	13
478.986	1	-1
479.327	1	-1
479.667	1	3
480.008	1	4
480.349	1	-4
480.690	1	7
481.030	1	-7
481.371	1	5
481.712	1	2
482.053	1	2
482.393	1	4
482.734	1	-6
483.075	1	1
483.415	1	4
483.756	1	6
484.097	1	7
484.437	1	-5
484.778	1	9
485.119	1	2
485.459	1	20
485.800	1	7
486.141	1	5
486.481	1	4
486.822	1	21
487.163	1	3
487.503	1	3
487.844	1	1
488.185	1	12
488.525	1	7
488.866	1	12
489.207	1	-3
489.547	1	-1
489.888	1	-3
490.228	1	15
490.569	1	26
490.910	1	5
491.250	1	0
491.591	1	3
491.932	1	7
492.272	1	15
492.613	1	6
492.953	1	6
493.294	1	8
493.635	1	2
493.975	1	9
494.316	1	14
494.656	1	13
494.997	1	6
495.337	1	17
495.678	1	14
496.019	1	12
496.359	1	-1
496.700	1	11
497.040	1	-8
497.381	1	0
497.721	1	5
498.062	1	5
498.403	1	7
498.743	1	10
499.084	1	15
499.424	1	6
499.765	1	7
500.105	1	10
500.446	1	2
500.786	1	-2
501.127	1	8
501.467	1	14
501.808	1	5
502.148	1	10
502.489	1	4
502.829	1	9
503.170	1	13
503.510	1	19
503.851	1	7
504.191	1	13
504.532	1	11
504.872	1	9
505.213	1	13
505.553	1	7
505.894	1	5
506.234	1	13
506.575	1	16
506.915	1	26
507.256	1	11
507.596	1	16
507.936	1	12
508.277	1	2
508.617	1	13
508.958	1	4
509.298	1	11
509.639	1	3
509.979	1	15
510.319	1	18
510.660	1	10
511.000	1	10
511.341	1	13
511.681	1	19
512.022	1	15
512.362	1	14
512.702	1	8
513.043	1	11
513.383	1	1
513.724	1	11
514.064	1	24
514.404	1	11
514.745	1	12
515.085	1	13
515.425	1	12
515.766	1	8
516.106	1	16
516.447	1	24
516.787	1	17
517.127	1	12
517.468	1	17
517.808	1	16
518.148	1	19
518.489	1	4
518.829	1	30
519.169	1	7
519.510	1	26
519.850	1	13
520.190	1	19
520.531	1	16
520.871	1	17
521.211	1	16
521.552	1	29
521.892	1	17
522.232	1	19
522.573	1	17
522.913	1	19
523.253	1	17
523.593	1	18
523.934	1	13
524.274	1	13
524.614	1	12
524.955	1	13
525.295	1	15
525.635	1	22
525.975	1	16
526.316	1	33
526.656	1	15
526.996	1	16
527.337	1	17
527.677	1	25
528.017	1	10
528.357	1	19
528.698	1	25
529.038	1	24
529.378	1	32
529.718	1	32
530.058	1	21
530.399	1	34
530.739	1	24
531.079	1	23
531.419	1	31
531.760	1	26
532.100	1	27
532.440	1	19
532.780	1	29
533.120	1	21
533.461	1	16
533.801	1	34
534.141	1	11
534.481	1	16
534.821	1	23
535.162	1	19
535.502	1	21
535.842	1	20
536.182	1	12
536.522	1	19
536.862	1	34
537.203	1	9
537.543	1	24
537.883	1	16
538.223	1	24
538.563	1	21
538.903	1	14
539.243	1	24
539.584	1	12
539.924	1	28
540.264	1	24
540.604	1	19
540.944	1	16
541.284	1	20
541.624	1	23
541.964	1	24
542.305	1	32
542.645	1	20
542.985	1	29
543.325	1	24
543.665	1	19
544.005	1	27
544.345	1	24
544.685	1	8
545.025	1	23
545.365	1	16
545.705	1	28
546.045	1	24
546.386	1	25
546.726	1	15
547.066	1	23
547.406	1	28
547.746	1	12
548.086	1	25
548.426	1	22
548.766	1	29
549.106	1	28
549.446	1	29
549.786	1	22
550.126	1	35
550.466	1	25
550.806	1	25
551.146	1	31
551.486	1	27
551.826	1	30
552.166	1	31
552.506	1	25
552.846	1	27
553.186	1	32
553.526	1	27
553.866	1	30
554.206	1	36
554.546	1	33
554.886	1	37
555.226	1	4
555.566	1	34
555.906	1	30
556.246	1	31
556.586	1	23
556.926	1	32
557.266	1	25
557.606	1	24
557.946	1	33
558.286	1	35
558.626	1	17
558.966	1	39
559.306	1	21
559.646	1	23
559.986	1	24
560.325	1	13
560.665	1	24
561.005	1	30
561.345	1	28
561.685	1	14
562.025	1	18
562.365	1	31
562.705	1	16
563.045	1	23
563.385	1	20
563.725	1	20
564.064	1	33
564.404	1	30
564.744	1	27
565.084	1	19
565.424	1	28
565.764	1	30
566.104	1	21
566.444	1	25
566.783	1	23
567.123	1	29
567.463	1	40
567.803	1	20
568.143	1	23
568.483	1	27
568.823	1	21
569.162	1	39
569.502	1	22
569.842	1	30
570.182	1	31
570.522	1	6
570.862	1	23
571.201	1	34
571.541	1	30
571.881	1	39
572.221	1	23
572.561	1	25
572.900	1	10
573.240	1	32
573.580	1	25
573.920	1	24
574.260	1	31
574.599	1	23
574.939	1	25
575.279	1	34
575.619	1	31
575.959	1	27
576.298	1	38
576.638	1	12
576.978	1	33
577.318	1	28
577.657	1	15
577.997	1	15
578.337	1	40
578.677	1	18
579.016	1	23
579.356	1	24
579.696	1	21
580.036	1	27
580.375	1	26
580.715	1	31
581.055	1	17
581.394	1	30
581.734	1	24
582.074	1	21
582.414	1	32
582.753	1	19
583.093	1	25
583.433	1	15
583.772	1	26
584.112	1	32
584.452	1	31
584.791	1	16
585.131	1	25
585.471	1	32
585.811	1	25
586.150	1	17
586.490	1	26
586.830	1	22
587.169	1	26
587.509	1	12
587.849	1	22
588.188	1	24
588.528	1	29
588.867	1	24
589.207	1	23
589.547	1	33
589.886	1	10
590.226	1	33
590.566	1	21
590.905	1	24
591.245	1	16
591.585	1	24
591.924	1	19
592.264	1	20
592.603	1	21
592.943	1	25
593.283	1	27
593.622	1	10
593.962	1	23
594.301	1	17
594.641	1	17
594.981	1	17
595.320	1	18
595.660	1	10
595.999	1	15
596.339	1	16
596.678	1	17
597.018	1	17
597.358	1	21
597.697	1	24
598.037	1	13
598.376	1	14
598.716	1	28
599.055	1	18
599.395	1	19
599.734	1	16
600.074	1	18
600.413	1	16
600.753	1	25
601.092	1	29
601.432	1	14
601.771	1	34
602.111	1	23
602.451	1	26
602.790	1	19
603.130	1	18
603.469	1	17
603.809	1	12
604.148	1	23
604.487	1	10
604.827	1	26
605.166	1	31
605.506	1	17
605.845	1	25
606.185	1	26
606.524	1	14
606.864	1	11
607.203	1	24
607.543	1	11
607.882	1	27
608.222	1	16
608.561	1	21
608.901	1	23
609.240	1	14
609.579	1	29
609.919	1	21
610.258	1	22
610.598	1	20
610.937	1	18
611.277	1	13
611.616	1	24
611.955	1	13
612.295	1	9
612.634	1	17
612.974	1	9
613.313	1	17
613.652	1	21
613.992	1	19
614.331	1	19
614.671	1	18
615.010	1	-3
615.349	1	23
615.689	1	19
616.028	1	9
616.368	1	11
616.707	1	17
617.046	1	20
617.386	1	21
617.725	1	13
618.064	1	4
618.404	1	11
618.743	1	20
619.082	1	17
619.422	1	8
619.761	1	18
620.100	1	12
620.440	1	16
620.779	1	12
621.118	1	9
621.458	1	16
621.797	1	15
622.136	1	26
622.476	1	23
622.815	1	22
623.154	1	14
623.494	1	21
623.833	1	27
624.172	1	9
624.511	1	16
624.851	1	1
625.190	1	12
625.529	1	13
625.869	1	11
626.208	1	12
626.547	1	9
626.886	1	13
627.226	1	19
627.565	1	10
627.904	1	9
628.243	1	12
628.583	1	13
628.922	1	16
629.261	1	28
629.600	1	16
629.940	1	12
630.279	1	7
630.618	1	0
630.957	1	16
631.297	1	12
631.636	1	2
631.975	1	24
632.314	1	10
632.653	1	14
632.993	1	12
633.332	1	5
633.671	1	15
634.010	1	2
634.349	1	19
634.689	1	10
635.028	1	8
635.367	1	11
635.706	1	6
636.045	1	12
636.384	1	6
636.724	1	12
637.063	1	6
637.402	1	17
637.741	1	10
638.080	1	6
638.419	1	9
638.759	1	0
639.098	1	16
639.437	1	5
639.776	1	7
640.115	1	4
640.454	1	6
640.793	1	21
641.132	1	21
641.472	1	12
641.811	1	13
642.150	1	6
642.489	1	12
642.828	1	8
643.167	1	7
643.506	1	-3
643.845	1	4
644.184	1	9
644.524	1	9
644.863	1	12
645.202	1	14
645.541	1	10
645.880	1	19
646.219	1	24
646.558	1	5
646.897	1	7
647.236	1	14
647.575	1	15
647.914	1	0
648.253	1	16
648.592	1	1
648.931	1	13
649.270	1	11
649.610	1	7
649.949	1	2
650.288	1	12
650.627	1	3
650.966	1	8
651.305	1	8
651.644	1	19
651.983	1	12
652.322	1	6
652.661	1	7
653.000	1	9
653.339	1	17
653.678	1	14
654.017	1	4
654.356	1	3
654.695	1	15
655.034	1	16
655.373	1	6
655.712	1	5
656.051	1	5
656.390	1	0
656.729	1	24
657.068	1	10
657.406	1	8
657.745	1	2
658.084	1	15
658.423	1	12
658.762	1	7
659.101	1	14
659.440	1	9
659.779	1	6
660.118	1	14
660.457	1	0
660.796	1	4
661.135	1	0
661.474	1	2
661.813	1	24
662.152	1	8
662.491	1	-2
662.829	1	-4
663.168	1	12
663.507	1	17
663.846	1	9
664.185	1	7
664.524	1	13
664.863	1	-6
665.202	1	9
665.541	1	-4
665.879	1	-2
666.218	1	6
666.557	1	2
666.896	1	8
667.235	1	9
667.574	1	4
667.913	1	4
668.251	1	6
668.590	1	16
668.929	1	1
669.268	1	6
669.607	1	1
669.946	1	9
670.285	1	14
670.623	1	11
670.962	1	10
671.301	1	6
671.640	1	9
671.979	1	2
672.317	1	14
672.656	1	5
672.995	1	16
673.334	1	3
673.673	1	-2
674.011	1	7
674.350	1	8
674.689	1	13
675.028	1	0
675.367	1	-8
675.705	1	11
676.044	1	7
676.383	1	11
676.722	1	18
677.060	1	-1
677.399	1	0
677.738	1	17
678.077	1	19
678.416	1	14
678.754	1	7
679.093	1	14
679.432	1	9
679.771	1	17
680.109	1	17
680.448	1	13
680.787	1	5
681.125	1	17
681.464	1	12
681.803	1	4
682.142	1	17
682.480	1	20
682.819	1	10
683.158	1	5
683.496	1	7
683.835	1	12
684.174	1	12
684.512	1	6
684.851	1	10
685.190	1	0
685.529	1	10
685.867	1	7
686.206	1	5
686.545	1	7
686.883	1	-1
687.222	1	9
687.561	1	16
687.899	1	15
688.238	1	12
688.577	1	8
688.746	1	10