File: Data/GaN_200K_800ms/GaN_sample F_spot 12_UVVIS_200 K_200um_800 ms 2x2mm1_166.txt
340.368	1	4
340.710	1	-10
341.052	1	6
341.394	1	0
341.737	1	2
342.079	1	4
342.421	1	4
342.763	1	-1
343.105	1	3
343.447	1	-7
343.789	1	1
344.131	1	6
344.473	1	-1
344.815	1	-2
345.157	1	-1
345.499	1	-1
345.841	1	2
346.183	1	3
346.526	1	-3
346.868	1	5
347.210	1	-14
347.552	1	-8
347.894	1	0
348.236	1	8
348.578	1	-8
348.920	1	-1
349.262	1	-5
349.604	1	3
349.946	1	-2
350.288	1	13
350.630	1	9
350.972	1	-5
351.314	1	2
351.656	1	11
351.998	1	2
352.340	1	5
352.682	1	5
353.024	1	8
353.366	1	8
353.708	1	2
354.050	1	-2
354.392	1	0
354.734	1	2
355.076	1	12
355.418	1	-3
355.760	1	5
356.102	1	14
356.444	1	7
356.785	1	12
357.127	1	1
357.469	1	15
357.811	1	6
358.153	1	15
358.495	1	8
358.837	1	1
359.179	1	4
359.521	1	5
359.863	1	5
360.205	1	9
360.547	1	13
360.889	1	5
361.231	1	8
361.572	1	17
361.914	1	14
362.256	1	14
362.598	1	11
362.940	1	6
363.282	1	22
363.624	1	28
363.966	1	13
364.308	1	20
364.649	1	24
364.991	1	26
365.333	1	22
365.675	1	28
366.017	1	29
366.359	1	35
366.701	1	37
367.042	1	42
367.384	1	41
367.726	1	40
368.068	1	47
368.410	1	52
368.752	1	43
369.093	1	39
369.435	1	40
369.777	1	38
370.119	1	32
370.461	1	59
370.803	1	47
371.144	1	43
371.486	1	45
371.828	1	37
372.170	1	44
372.512	1	32
372.853	1	29
373.195	1	37
373.537	1	36
373.879	1	27
374.220	1	39
374.562	1	43
374.904	1	36
375.246	1	28
375.588	1	25
375.929	1	37
376.271	1	27
376.613	1	13
376.955	1	27
377.296	1	18
377.638	1	16
377.980	1	32
378.321	1	3
378.663	1	9
379.005	1	21
379.347	1	16
379.688	1	18
380.030	1	11
380.372	1	18
380.714	1	18
381.055	1	24
381.397	1	7
381.739	1	23
382.080	1	14
382.422	1	15
382.764	1	12
383.105	1	13
383.447	1	17
383.789	1	3
384.130	1	14
384.472	1	6
384.814	1	13
385.156	1	-1
385.497	1	17
385.839	1	15
386.180	1	8
386.522	1	15
386.864	1	15
387.205	1	13
387.547	1	-6
387.889	1	10
388.230	1	8
388.572	1	2
388.914	1	11
389.255	1	1
389.597	1	22
389.939	1	1
390.280	1	4
390.622	1	6
390.963	1	16
391.305	1	15
391.647	1	3
391.988	1	5
392.330	1	11
392.671	1	-1
393.013	1	1
393.355	1	1
393.696	1	10
394.038	1	-3
394.379	1	11
394.721	1	-3
395.062	1	3
395.404	1	5
395.746	1	6
396.087	1	4
396.429	1	2
396.770	1	-9
397.112	1	8
397.453	1	15
397.795	1	-4
398.136	1	-3
398.478	1	6
398.819	1	6
399.161	1	11
399.503	1	5
399.844	1	-3
400.186	1	1
400.527	1	0
400.869	1	4
401.210	1	9
401.552	1	-5
401.893	1	-8
402.235	1	-6
402.576	1	9
402.918	1	11
403.259	1	2
403.601	1	-4
403.942	1	9
404.284	1	15
404.625	1	7
404.967	1	2
405.308	1	0
405.649	1	-6
405.991	1	-4
406.332	1	-5
406.674	1	-3
407.015	1	9
407.357	1	-1
407.698	1	6
408.040	1	-2
408.381	1	3
408.722	1	-10
409.064	1	4
409.405	1	8
409.747	1	7
410.088	1	1
410.430	1	8
410.771	1	2
411.112	1	1
411.454	1	-4
411.795	1	-11
412.137	1	0
412.478	1	13
412.819	1	3
413.161	1	4
413.502	1	4
413.844	1	8
414.185	1	8
414.526	1	-4
414.868	1	-7
415.209	1	-1
415.550	1	8
415.892	1	8
416.233	1	9
416.575	1	13
416.916	1	-8
417.257	1	1
417.599	1	3
417.940	1	9
418.281	1	4
418.623	1	-1
418.964	1	-3
419.305	1	-1
419.647	1	1
419.988	1	4
420.329	1	-3
420.671	1	3
421.012	1	2
421.353	1	-5
421.695	1	0
422.036	1	1
422.377	1	5
422.718	1	5
423.060	1	-3
423.401	1	-1
423.742	1	1
424.084	1	-8
424.425	1	2
424.766	1	-6
425.107	1	2
425.449	1	-3
425.790	1	4
426.131	1	-5
426.472	1	4
426.814	1	8
427.155	1	-6
427.496	1	8
427.837	1	-2
428.179	1	-12
428.520	1	-3
428.861	1	-9
429.202	1	1
429.544	1	-4
429.885	1	-1
430.226	1	-10
430.567	1	2
430.909	1	13
431.250	1	2
431.591	1	8
431.932	1	-2
432.273	1	4
432.615	1	-14
432.956	1	-7
433.297	1	0
433.638	1	0
433.979	1	9
434.320	1	3
434.662	1	3
435.003	1	2
435.344	1	6
435.685	1	-2
436.026	1	5
436.368	1	8
436.709	1	-3
437.050	1	-6
437.391	1	5
437.732	1	-13
438.073	1	-4
438.414	1	-4
438.756	1	-5
439.097	1	2
439.438	1	-2
439.779	1	-5
440.120	1	-7
440.461	1	5
440.802	1	-1
441.143	1	6
441.485	1	4
441.826	1	-7
442.167	1	5
442.508	1	-4
442.849	1	17
443.190	1	-1
443.531	1	8
443.872	1	12
444.213	1	-3
444.554	1	7
444.895	1	-7
445.237	1	-4
445.578	1	-7
445.919	1	-9
446.260	1	-2
446.601	1	-3
446.942	1	0
447.283	1	-3
447.624	1	2
447.965	1	0
448.306	1	6
448.647	1	-5
448.988	1	1
449.329	1	2
449.670	1	10
450.011	1	6
450.352	1	-4
450.693	1	-11
451.034	1	-7
451.375	1	-4
451.716	1	5
452.057	1	6
452.398	1	6
452.739	1	3
453.080	1	2
453.421	1	-2
453.762	1	-3
454.103	1	5
454.444	1	-9
454.785	1	-2
455.126	1	-8
455.467	1	5
455.808	1	-11
456.149	1	5
456.490	1	-3
456.831	1	2
457.172	1	-6
457.513	1	5
457.854	1	8
458.195	1	0
458.536	1	8
458.877	1	4
459.218	1	-1
459.559	1	5
459.899	1	6
460.240	1	10
460.581	1	10
460.922	1	8
461.263	1	-8
461.604	1	2
461.945	1	7
462.286	1	0
462.627	1	16
462.968	1	0
463.309	1	-2
463.649	1	8
463.990	1	5
464.331	1	4
464.672	1	-5
465.013	1	2
465.354	1	5
465.695	1	-12
466.036	1	-3
466.376	1	-1
466.717	1	-1
467.058	1	0
467.399	1	8
467.740	1	1
468.081	1	12
468.422	1	-6
468.762	1	-5
469.103	1	-12
469.444	1	-8
469.785	1	-10
470.126	1	-1
470.467	1	-3
470.807	1	5
471.148	1	-1
471.489	1	-1
471.830	1	2
472.171	1	1
472.511	1	5
472.852	1	2
473.193	1	3
473.534	1	11
473.875	1	13
474.215	1	5
474.556	1	8
474.897	1	3
475.238	1	4
475.578	1	-4
475.919	1	-4
476.260	1	4
476.601	1	5
476.942	1	9
477.282	1	-9
477.623	1	-2
477.964	1	-2
478.305	1	-6
478.645	1	13
478.986	1	-1
479.327	1	-11
479.667	1	1
480.008	1	-5
480.349	1	-4
480.690	1	6
481.030	1	-11
481.371	1	3
481.712	1	4
482.053	1	4
482.393	1	4
482.734	1	-6
483.075	1	-6
483.415	1	-8
483.756	1	7
484.097	1	2
484.437	1	-7
484.778	1	-3
485.119	1	-4
485.459	1	17
485.800	1	0
486.141	1	5
486.481	1	1
486.822	1	3
487.163	1	1
487.503	1	0
487.844	1	7
488.185	1	-6
488.525	1	0
488.866	1	-4
489.207	1	0
489.547	1	-6
489.888	1	-5
490.228	1	8
490.569	1	4
490.910	1	5
491.250	1	-3
491.591	1	3
491.932	1	-4
492.272	1	4
492.613	1	-5
492.953	1	4
493.294	1	-6
493.635	1	1
493.975	1	1
494.316	1	9
494.656	1	-1
494.997	1	-1
495.337	1	8
495.678	1	2
496.019	1	-1
496.359	1	-8
496.700	1	3
497.040	1	0
497.381	1	-3
497.721	1	10
498.062	1	0
498.403	1	4
498.743	1	0
499.084	1	-5
499.424	1	3
499.765	1	1
500.105	1	5
500.446	1	-8
500.786	1	-7
501.127	1	1
501.467	1	-5
501.808	1	0
502.148	1	-2
502.489	1	7
502.829	1	6
503.170	1	14
503.510	1	3
503.851	1	0
504.191	1	3
504.532	1	11
504.872	1	4
505.213	1	9
505.553	1	-5
505.894	1	-14
506.234	1	6
506.575	1	2
506.915	1	13
507.256	1	1
507.596	1	-2
507.936	1	6
508.277	1	-4
508.617	1	0
508.958	1	1
509.298	1	14
509.639	1	-3
509.979	1	-5
510.319	1	9
510.660	1	1
511.000	1	-4
511.341	1	3
511.681	1	7
512.022	1	-1
512.362	1	4
512.702	1	-3
513.043	1	12
513.383	1	-1
513.724	1	-8
514.064	1	12
514.404	1	2
514.745	1	5
515.085	1	0
515.425	1	6
515.766	1	-6
516.106	1	6
516.447	1	14
516.787	1	7
517.127	1	4
517.468	1	7
517.808	1	-2
518.148	1	6
518.489	1	-9
518.829	1	9
519.169	1	2
519.510	1	4
519.850	1	18
520.190	1	14
520.531	1	11
520.871	1	9
521.211	1	2
521.552	1	10
521.892	1	4
522.232	1	1
522.573	1	4
522.913	1	9
523.253	1	4
523.593	1	-1
523.934	1	9
524.274	1	4
524.614	1	15
524.955	1	-4
525.295	1	2
525.635	1	-3
525.975	1	13
526.316	1	10
526.656	1	3
526.996	1	4
527.337	1	3
527.677	1	1
528.017	1	-6
528.357	1	3
528.698	1	5
529.038	1	4
529.378	1	10
529.718	1	12
530.058	1	5
530.399	1	6
530.739	1	5
531.079	1	7
531.419	1	1
531.760	1	13
532.100	1	-4
532.440	1	0
532.780	1	0
533.120	1	9
533.461	1	7
533.801	1	23
534.141	1	-1
534.481	1	-11
534.821	1	13
535.162	1	5
535.502	1	-4
535.842	1	11
536.182	1	2
536.522	1	-1
536.862	1	1
537.203	1	-4
537.543	1	6
537.883	1	6
538.223	1	12
538.563	1	7
538.903	1	-3
539.243	1	8
539.584	1	-3
539.924	1	10
540.264	1	5
540.604	1	6
540.944	1	-1
541.284	1	18
541.624	1	8
541.964	1	15
542.305	1	10
542.645	1	2
542.985	1	9
543.325	1	1
543.665	1	10
544.005	1	13
544.345	1	8
544.685	1	1
545.025	1	2
545.365	1	4
545.705	1	6
546.045	1	0
546.386	1	4
546.726	1	-5
547.066	1	-1
547.406	1	6
547.746	1	0
548.086	1	4
548.426	1	-6
548.766	1	8
549.106	1	-5
549.446	1	-1
549.786	1	-5
550.126	1	16
550.466	1	11
550.806	1	1
551.146	1	5
551.486	1	2
551.826	1	11
552.166	1	15
552.506	1	3
552.846	1	6
553.186	1	0
553.526	1	3
553.866	1	1
554.206	1	7
554.546	1	-3
554.886	1	6
555.226	1	-5
555.566	1	6
555.906	1	12
556.246	1	9
556.586	1	1
556.926	1	2
557.266	1	2
557.606	1	11
557.946	1	15
558.286	1	10
558.626	1	6
558.966	1	2
559.306	1	13
559.646	1	2
559.986	1	-1
560.325	1	3
560.665	1	6
561.005	1	-8
561.345	1	3
561.685	1	11
562.025	1	1
562.365	1	9
562.705	1	1
563.045	1	4
563.385	1	3
563.725	1	14
564.064	1	0
564.404	1	5
564.744	1	10
565.084	1	2
565.424	1	6
565.764	1	2
566.104	1	11
566.444	1	-6
566.783	1	-4
567.123	1	3
567.463	1	6
567.803	1	3
568.143	1	8
568.483	1	10
568.823	1	7
569.162	1	17
569.502	1	-1
569.842	1	11
570.182	1	13
570.522	1	-7
570.862	1	6
571.201	1	15
571.541	1	8
571.881	1	17
572.221	1	-2
572.561	1	3
572.900	1	5
573.240	1	0
573.580	1	7
573.920	1	12
574.260	1	12
574.599	1	4
574.939	1	5
575.279	1	9
575.619	1	8
575.959	1	-8
576.298	1	17
576.638	1	1
576.978	1	6
577.318	1	9
577.657	1	-4
577.997	1	2
578.337	1	9
578.677	1	8
579.016	1	23
579.356	1	-2
579.696	1	2
580.036	1	-3
580.375	1	7
580.715	1	5
581.055	1	1
581.394	1	5
581.734	1	-2
582.074	1	0
582.414	1	8
582.753	1	9
583.093	1	-2
583.433	1	2
583.772	1	13
584.112	1	-1
584.452	1	8
584.791	1	-8
585.131	1	5
585.471	1	9
585.811	1	12
586.150	1	-5
586.490	1	13
586.830	1	9
587.169	1	9
587.509	1	10
587.849	1	0
588.188	1	15
588.528	1	2
588.867	1	15
589.207	1	-1
589.547	1	7
589.886	1	0
590.226	1	2
590.566	1	6
590.905	1	5
591.245	1	1
591.585	1	-1
591.924	1	-1
592.264	1	2
592.603	1	6
592.943	1	0
593.283	1	5
593.622	1	3
593.962	1	10
594.301	1	11
594.641	1	4
594.981	1	2
595.320	1	3
595.660	1	6
595.999	1	-4
596.339	1	6
596.678	1	1
597.018	1	-4
597.358	1	4
597.697	1	2
598.037	1	-1
598.376	1	2
598.716	1	7
599.055	1	7
599.395	1	6
599.734	1	-3
600.074	1	3
600.413	1	12
600.753	1	13
601.092	1	26
601.432	1	-6
601.771	1	5
602.111	1	0
602.451	1	10
602.790	1	4
603.130	1	5
603.469	1	-4
603.809	1	-1
604.148	1	1
604.487	1	5
604.827	1	5
605.166	1	7
605.506	1	-3
605.845	1	0
606.185	1	8
606.524	1	0
606.864	1	7
607.203	1	-1
607.543	1	8
607.882	1	12
608.222	1	14
608.561	1	-3
608.901	1	3
609.240	1	3
609.579	1	6
609.919	1	6
610.258	1	3
610.598	1	8
610.937	1	1
611.277	1	-1
611.616	1	-8
611.955	1	5
612.295	1	3
612.634	1	0
612.974	1	-3
613.313	1	15
613.652	1	1
613.992	1	1
614.331	1	-3
614.671	1	12
615.010	1	-13
615.349	1	9
615.689	1	-1
616.028	1	9
616.368	1	-1
616.707	1	-5
617.046	1	8
617.386	1	6
617.725	1	-1
618.064	1	6
618.404	1	-3
618.743	1	1
619.082	1	1
619.422	1	-6
619.761	1	3
620.100	1	4
620.440	1	4
620.779	1	-2
621.118	1	5
621.458	1	8
621.797	1	-8
622.136	1	15
622.476	1	8
622.815	1	11
623.154	1	14
623.494	1	18
623.833	1	4
624.172	1	8
624.511	1	6
624.851	1	-11
625.190	1	-1
625.529	1	0
625.869	1	7
626.208	1	-3
626.547	1	8
626.886	1	7
627.226	1	1
627.565	1	3
627.904	1	-5
628.243	1	1
628.583	1	0
628.922	1	7
629.261	1	7
629.600	1	9
629.940	1	1
630.279	1	2
630.618	1	3
630.957	1	4
631.297	1	1
631.636	1	-5
631.975	1	16
632.314	1	-1
632.653	1	1
632.993	1	-6
633.332	1	-2
633.671	1	-7
634.010	1	-5
634.349	1	-3
634.689	1	7
635.028	1	0
635.367	1	5
635.706	1	-4
636.045	1	5
636.384	1	4
636.724	1	5
637.063	1	-5
637.402	1	0
637.741	1	-4
638.080	1	-1
638.419	1	4
638.759	1	1
639.098	1	8
639.437	1	11
639.776	1	5
640.115	1	4
640.454	1	-2
640.793	1	9
641.132	1	14
641.472	1	10
641.811	1	3
642.150	1	-8
642.489	1	6
642.828	1	-8
643.167	1	2
643.506	1	-9
643.845	1	8
644.184	1	0
644.524	1	-3
644.863	1	-2
645.202	1	5
645.541	1	4
645.880	1	5
646.219	1	4
646.558	1	2
646.897	1	1
647.236	1	11
647.575	1	5
647.914	1	3
648.253	1	6
648.592	1	2
648.931	1	14
649.270	1	9
649.610	1	6
649.949	1	-3
650.288	1	12
650.627	1	-3
650.966	1	3
651.305	1	-1
651.644	1	15
651.983	1	-1
652.322	1	-4
652.661	1	-5
653.000	1	5
653.339	1	20
653.678	1	-2
654.017	1	6
654.356	1	-6
654.695	1	10
655.034	1	5
655.373	1	9
655.712	1	-2
656.051	1	2
656.390	1	-1
656.729	1	12
657.068	1	7
657.406	1	4
657.745	1	-1
658.084	1	4
658.423	1	12
658.762	1	-2
659.101	1	15
659.440	1	-4
659.779	1	0
660.118	1	4
660.457	1	7
660.796	1	-6
661.135	1	1
661.474	1	-2
661.813	1	9
662.152	1	4
662.491	1	-5
662.829	1	-2
663.168	1	0
663.507	1	-1
663.846	1	-7
664.185	1	-4
664.524	1	1
664.863	1	2
665.202	1	7
665.541	1	-12
665.879	1	-5
666.218	1	0
666.557	1	8
666.896	1	3
667.235	1	0
667.574	1	8
667.913	1	2
668.251	1	2
668.590	1	-1
668.929	1	-8
669.268	1	2
669.607	1	-4
669.946	1	0
670.285	1	1
670.623	1	1
670.962	1	5
671.301	1	-1
671.640	1	6
671.979	1	3
672.317	1	7
672.656	1	-3
672.995	1	1
673.334	1	10
673.673	1	-3
674.011	1	1
674.350	1	11
674.689	1	-2
675.028	1	3
675.367	1	7
675.705	1	10
676.044	1	-6
676.383	1	3
676.722	1	2
677.060	1	6
677.399	1	-6
677.738	1	8
678.077	1	6
678.416	1	-2
678.754	1	-5
679.093	1	7
679.432	1	2
679.771	1	-4
680.109	1	4
680.448	1	7
680.787	1	-9
681.125	1	-6
681.464	1	10
681.803	1	4
682.142	1	3
682.480	1	8
682.819	1	2
683.158	1	-2
683.496	1	7
683.835	1	1
684.174	1	0
684.512	1	4
684.851	1	9
685.190	1	-5
685.529	1	-2
685.867	1	-3
686.206	1	-9
686.545	1	-8
686.883	1	6
687.222	1	-1
687.561	1	0
687.899	1	-3
688.238	1	6
688.577	1	4
688.746	1	0