File: Data/GaN_200K_800ms/GaN_sample F_spot 12_UVVIS_200 K_200um_800 ms 2x2mm1_379.txt
340.368	1	-8
340.710	1	-16
341.052	1	7
341.394	1	-5
341.737	1	3
342.079	1	-2
342.421	1	1
342.763	1	11
343.105	1	-3
343.447	1	-3
343.789	1	-5
344.131	1	2
344.473	1	-3
344.815	1	-10
345.157	1	0
345.499	1	-5
345.841	1	10
346.183	1	-11
346.526	1	-5
346.868	1	-3
347.210	1	-4
347.552	1	-1
347.894	1	1
348.236	1	5
348.578	1	1
348.920	1	-5
349.262	1	-5
349.604	1	4
349.946	1	2
350.288	1	14
350.630	1	3
350.972	1	-9
351.314	1	6
351.656	1	5
351.998	1	6
352.340	1	12
352.682	1	1
353.024	1	10
353.366	1	10
353.708	1	-4
354.050	1	-11
354.392	1	-6
354.734	1	5
355.076	1	1
355.418	1	-8
355.760	1	-3
356.102	1	11
356.444	1	1
356.785	1	4
357.127	1	-9
357.469	1	0
357.811	1	3
358.153	1	2
358.495	1	0
358.837	1	-8
359.179	1	0
359.521	1	-1
359.863	1	-2
360.205	1	-6
360.547	1	1
360.889	1	-5
361.231	1	-4
361.572	1	5
361.914	1	-4
362.256	1	1
362.598	1	-4
362.940	1	1
363.282	1	-1
363.624	1	14
363.966	1	-4
364.308	1	-4
364.649	1	3
364.991	1	14
365.333	1	3
365.675	1	4
366.017	1	3
366.359	1	6
366.701	1	5
367.042	1	9
367.384	1	17
367.726	1	12
368.068	1	12
368.410	1	22
368.752	1	7
369.093	1	5
369.435	1	13
369.777	1	3
370.119	1	-6
370.461	1	23
370.803	1	12
371.144	1	16
371.486	1	19
371.828	1	18
372.170	1	18
372.512	1	11
372.853	1	13
373.195	1	10
373.537	1	7
373.879	1	2
374.220	1	21
374.562	1	24
374.904	1	1
375.246	1	5
375.588	1	4
375.929	1	15
376.271	1	16
376.613	1	2
376.955	1	-4
377.296	1	2
377.638	1	11
377.980	1	6
378.321	1	-4
378.663	1	-3
379.005	1	1
379.347	1	1
379.688	1	7
380.030	1	0
380.372	1	-2
380.714	1	8
381.055	1	8
381.397	1	6
381.739	1	14
382.080	1	7
382.422	1	-4
382.764	1	-2
383.105	1	-1
383.447	1	0
383.789	1	-3
384.130	1	6
384.472	1	-5
384.814	1	2
385.156	1	-8
385.497	1	5
385.839	1	5
386.180	1	-1
386.522	1	14
386.864	1	3
387.205	1	-5
387.547	1	4
387.889	1	-3
388.230	1	15
388.572	1	-4
388.914	1	-2
389.255	1	-4
389.597	1	1
389.939	1	-1
390.280	1	1
390.622	1	-5
390.963	1	5
391.305	1	11
391.647	1	-2
391.988	1	-4
392.330	1	3
392.671	1	-6
393.013	1	-9
393.355	1	2
393.696	1	2
394.038	1	-3
394.379	1	-5
394.721	1	-14
395.062	1	-1
395.404	1	-5
395.746	1	4
396.087	1	-6
396.429	1	8
396.770	1	-8
397.112	1	2
397.453	1	6
397.795	1	11
398.136	1	-6
398.478	1	-1
398.819	1	-4
399.161	1	1
399.503	1	-1
399.844	1	-1
400.186	1	-1
400.527	1	-1
400.869	1	-2
401.210	1	4
401.552	1	-9
401.893	1	1
402.235	1	0
402.576	1	-5
402.918	1	6
403.259	1	2
403.601	1	-6
403.942	1	16
404.284	1	8
404.625	1	2
404.967	1	5
405.308	1	-6
405.649	1	-1
405.991	1	-14
406.332	1	6
406.674	1	-1
407.015	1	5
407.357	1	0
407.698	1	-1
408.040	1	-5
408.381	1	-1
408.722	1	-12
409.064	1	-1
409.405	1	-2
409.747	1	-4
410.088	1	0
410.430	1	7
410.771	1	0
411.112	1	5
411.454	1	-7
411.795	1	-4
412.137	1	-2
412.478	1	12
412.819	1	-7
413.161	1	-8
413.502	1	-3
413.844	1	4
414.185	1	5
414.526	1	-3
414.868	1	-4
415.209	1	2
415.550	1	-3
415.892	1	2
416.233	1	1
416.575	1	8
416.916	1	-15
417.257	1	-1
417.599	1	3
417.940	1	-1
418.281	1	-2
418.623	1	-3
418.964	1	-13
419.305	1	2
419.647	1	-9
419.988	1	-5
420.329	1	-4
420.671	1	3
421.012	1	0
421.353	1	-2
421.695	1	-10
422.036	1	-2
422.377	1	-1
422.718	1	9
423.060	1	-5
423.401	1	-8
423.742	1	-5
424.084	1	2
424.425	1	2
424.766	1	-8
425.107	1	-7
425.449	1	2
425.790	1	-5
426.131	1	-2
426.472	1	2
426.814	1	6
427.155	1	0
427.496	1	8
427.837	1	-15
428.179	1	-7
428.520	1	-1
428.861	1	-5
429.202	1	-4
429.544	1	2
429.885	1	-3
430.226	1	-13
430.567	1	-4
430.909	1	-6
431.250	1	-5
431.591	1	5
431.932	1	-2
432.273	1	-1
432.615	1	-13
432.956	1	-7
433.297	1	2
433.638	1	-1
433.979	1	9
434.320	1	2
434.662	1	0
435.003	1	-5
435.344	1	-4
435.685	1	-4
436.026	1	8
436.368	1	-6
436.709	1	-8
437.050	1	0
437.391	1	8
437.732	1	-2
438.073	1	-1
438.414	1	-14
438.756	1	-5
439.097	1	-3
439.438	1	-9
439.779	1	-7
440.120	1	-3
440.461	1	-2
440.802	1	-8
441.143	1	11
441.485	1	-3
441.826	1	-9
442.167	1	3
442.508	1	-9
442.849	1	1
443.190	1	2
443.531	1	4
443.872	1	8
444.213	1	0
444.554	1	12
444.895	1	-10
445.237	1	-8
445.578	1	-7
445.919	1	-3
446.260	1	3
446.601	1	-9
446.942	1	2
447.283	1	-3
447.624	1	-2
447.965	1	-3
448.306	1	-1
448.647	1	-1
448.988	1	1
449.329	1	2
449.670	1	7
450.011	1	5
450.352	1	-1
450.693	1	1
451.034	1	-10
451.375	1	-3
451.716	1	5
452.057	1	-1
452.398	1	-2
452.739	1	5
453.080	1	-8
453.421	1	-3
453.762	1	3
454.103	1	3
454.444	1	-10
454.785	1	-3
455.126	1	-14
455.467	1	3
455.808	1	0
456.149	1	-1
456.490	1	-5
456.831	1	4
457.172	1	0
457.513	1	4
457.854	1	-8
458.195	1	-10
458.536	1	5
458.877	1	4
459.218	1	0
459.559	1	4
459.899	1	-1
460.240	1	-2
460.581	1	17
460.922	1	14
461.263	1	-17
461.604	1	-13
461.945	1	2
462.286	1	1
462.627	1	4
462.968	1	7
463.309	1	-17
463.649	1	0
463.990	1	-3
464.331	1	-2
464.672	1	-4
465.013	1	-5
465.354	1	-1
465.695	1	-10
466.036	1	5
466.376	1	-13
466.717	1	-3
467.058	1	-7
467.399	1	9
467.740	1	1
468.081	1	5
468.422	1	-4
468.762	1	-8
469.103	1	-10
469.444	1	-5
469.785	1	-3
470.126	1	-13
470.467	1	-6
470.807	1	-2
471.148	1	0
471.489	1	-3
471.830	1	3
472.171	1	7
472.511	1	-6
472.852	1	-4
473.193	1	0
473.534	1	-2
473.875	1	13
474.215	1	6
474.556	1	4
474.897	1	-8
475.238	1	-4
475.578	1	-12
475.919	1	-1
476.260	1	1
476.601	1	-2
476.942	1	9
477.282	1	-10
477.623	1	-14
477.964	1	-2
478.305	1	-7
478.645	1	1
478.986	1	-11
479.327	1	-13
479.667	1	-3
480.008	1	-2
480.349	1	-8
480.690	1	-3
481.030	1	-14
481.371	1	-3
481.712	1	7
482.053	1	-9
482.393	1	-3
482.734	1	-7
483.075	1	-4
483.415	1	-6
483.756	1	-1
484.097	1	5
484.437	1	-10
484.778	1	8
485.119	1	-7
485.459	1	-1
485.800	1	-7
486.141	1	-8
486.481	1	-4
486.822	1	4
487.163	1	1
487.503	1	2
487.844	1	-3
488.185	1	0
488.525	1	2
488.866	1	7
489.207	1	5
489.547	1	2
489.888	1	-8
490.228	1	7
490.569	1	8
490.910	1	3
491.250	1	-13
491.591	1	-9
491.932	1	-3
492.272	1	5
492.613	1	-6
492.953	1	-16
493.294	1	11
493.635	1	-3
493.975	1	3
494.316	1	2
494.656	1	-5
494.997	1	-14
495.337	1	11
495.678	1	1
496.019	1	4
496.359	1	0
496.700	1	-2
497.040	1	-6
497.381	1	-1
497.721	1	-9
498.062	1	-1
498.403	1	1
498.743	1	6
499.084	1	-5
499.424	1	-1
499.765	1	-6
500.105	1	3
500.446	1	-13
500.786	1	-6
501.127	1	7
501.467	1	-17
501.808	1	2
502.148	1	4
502.489	1	5
502.829	1	5
503.170	1	7
503.510	1	9
503.851	1	-12
504.191	1	3
504.532	1	2
504.872	1	-6
505.213	1	6
505.553	1	-6
505.894	1	-5
506.234	1	6
506.575	1	5
506.915	1	3
507.256	1	6
507.596	1	-2
507.936	1	-4
508.277	1	-2
508.617	1	-5
508.958	1	-8
509.298	1	1
509.639	1	0
509.979	1	-9
510.319	1	1
510.660	1	1
511.000	1	-12
511.341	1	1
511.681	1	4
512.022	1	-9
512.362	1	-5
512.702	1	0
513.043	1	6
513.383	1	-13
513.724	1	-2
514.064	1	8
514.404	1	-7
514.745	1	2
515.085	1	-3
515.425	1	0
515.766	1	-10
516.106	1	1
516.447	1	11
516.787	1	2
517.127	1	-1
517.468	1	-6
517.808	1	-7
518.148	1	2
518.489	1	0
518.829	1	7
519.169	1	-3
519.510	1	6
519.850	1	8
520.190	1	-2
520.531	1	0
520.871	1	-4
521.211	1	-9
521.552	1	6
521.892	1	1
522.232	1	-1
522.573	1	1
522.913	1	-5
523.253	1	-2
523.593	1	-16
523.934	1	-1
524.274	1	3
524.614	1	3
524.955	1	-14
525.295	1	2
525.635	1	-3
525.975	1	11
526.316	1	11
526.656	1	5
526.996	1	1
527.337	1	2
527.677	1	2
528.017	1	-14
528.357	1	3
528.698	1	5
529.038	1	-6
529.378	1	2
529.718	1	2
530.058	1	-4
530.399	1	8
530.739	1	2
531.079	1	-5
531.419	1	5
531.760	1	-4
532.100	1	-3
532.440	1	-6
532.780	1	-7
533.120	1	5
533.461	1	5
533.801	1	11
534.141	1	-4
534.481	1	-10
534.821	1	4
535.162	1	5
535.502	1	-9
535.842	1	6
536.182	1	3
536.522	1	-6
536.862	1	7
537.203	1	-9
537.543	1	-5
537.883	1	-10
538.223	1	-5
538.563	1	4
538.903	1	-15
539.243	1	-7
539.584	1	-8
539.924	1	4
540.264	1	-6
540.604	1	-1
540.944	1	-2
541.284	1	5
541.624	1	-2
541.964	1	1
542.305	1	1
542.645	1	3
542.985	1	5
543.325	1	2
543.665	1	12
544.005	1	12
544.345	1	4
544.685	1	-5
545.025	1	4
545.365	1	3
545.705	1	-2
546.045	1	-9
546.386	1	3
546.726	1	-5
547.066	1	2
547.406	1	-2
547.746	1	-8
548.086	1	3
548.426	1	-4
548.766	1	0
549.106	1	3
549.446	1	1
549.786	1	-3
550.126	1	14
550.466	1	2
550.806	1	1
551.146	1	1
551.486	1	3
551.826	1	3
552.166	1	-1
552.506	1	9
552.846	1	-7
553.186	1	5
553.526	1	-9
553.866	1	-1
554.206	1	2
554.546	1	0
554.886	1	3
555.226	1	-12
555.566	1	-1
555.906	1	6
556.246	1	-1
556.586	1	4
556.926	1	4
557.266	1	-10
557.606	1	7
557.946	1	8
558.286	1	6
558.626	1	1
558.966	1	4
559.306	1	3
559.646	1	-3
559.986	1	-10
560.325	1	-5
560.665	1	5
561.005	1	-4
561.345	1	-2
561.685	1	1
562.025	1	-5
562.365	1	0
562.705	1	-2
563.045	1	-3
563.385	1	-17
563.725	1	-2
564.064	1	-9
564.404	1	-6
564.744	1	6
565.084	1	-4
565.424	1	9
565.764	1	0
566.104	1	-5
566.444	1	-3
566.783	1	-4
567.123	1	-2
567.463	1	2
567.803	1	-8
568.143	1	-2
568.483	1	6
568.823	1	3
569.162	1	1
569.502	1	-10
569.842	1	5
570.182	1	1
570.522	1	-13
570.862	1	-11
571.201	1	16
571.541	1	5
571.881	1	8
572.221	1	-4
572.561	1	-3
572.900	1	-4
573.240	1	-1
573.580	1	7
573.920	1	6
574.260	1	11
574.599	1	-2
574.939	1	10
575.279	1	15
575.619	1	-2
575.959	1	-3
576.298	1	8
576.638	1	-12
576.978	1	2
577.318	1	-1
577.657	1	-10
577.997	1	-12
578.337	1	6
578.677	1	8
579.016	1	11
579.356	1	-9
579.696	1	8
580.036	1	-12
580.375	1	2
580.715	1	-7
581.055	1	-3
581.394	1	5
581.734	1	-10
582.074	1	-3
582.414	1	2
582.753	1	1
583.093	1	1
583.433	1	-5
583.772	1	11
584.112	1	-8
584.452	1	-3
584.791	1	-8
585.131	1	9
585.471	1	-1
585.811	1	-3
586.150	1	-6
586.490	1	10
586.830	1	-3
587.169	1	3
587.509	1	-8
587.849	1	-2
588.188	1	11
588.528	1	10
588.867	1	1
589.207	1	-6
589.547	1	-3
589.886	1	-7
590.226	1	7
590.566	1	1
590.905	1	0
591.245	1	-9
591.585	1	2
591.924	1	-7
592.264	1	5
592.603	1	-2
592.943	1	4
593.283	1	-3
593.622	1	-2
593.962	1	6
594.301	1	-1
594.641	1	2
594.981	1	-9
595.320	1	-4
595.660	1	2
595.999	1	-10
596.339	1	6
596.678	1	-1
597.018	1	-2
597.358	1	2
597.697	1	-3
598.037	1	-6
598.376	1	4
598.716	1	4
599.055	1	2
599.395	1	-3
599.734	1	-2
600.074	1	-4
600.413	1	11
600.753	1	2
601.092	1	5
601.432	1	-1
601.771	1	6
602.111	1	-4
602.451	1	9
602.790	1	-6
603.130	1	3
603.469	1	-6
603.809	1	2
604.148	1	7
604.487	1	-1
604.827	1	-1
605.166	1	7
605.506	1	0
605.845	1	-1
606.185	1	8
606.524	1	0
606.864	1	1
607.203	1	-6
607.543	1	1
607.882	1	-3
608.222	1	-2
608.561	1	-5
608.901	1	-3
609.240	1	-1
609.579	1	4
609.919	1	14
610.258	1	5
610.598	1	-6
610.937	1	5
611.277	1	0
611.616	1	-3
611.955	1	3
612.295	1	-7
612.634	1	-1
612.974	1	-6
613.313	1	12
613.652	1	-3
613.992	1	0
614.331	1	-3
614.671	1	6
615.010	1	-1
615.349	1	2
615.689	1	7
616.028	1	-8
616.368	1	3
616.707	1	1
617.046	1	1
617.386	1	-4
617.725	1	-1
618.064	1	-7
618.404	1	2
618.743	1	3
619.082	1	-7
619.422	1	-13
619.761	1	4
620.100	1	1
620.440	1	1
620.779	1	3
621.118	1	-2
621.458	1	5
621.797	1	-3
622.136	1	-3
622.476	1	-3
622.815	1	4
623.154	1	2
623.494	1	12
623.833	1	3
624.172	1	-1
624.511	1	-6
624.851	1	-10
625.190	1	2
625.529	1	0
625.869	1	5
626.208	1	-6
626.547	1	-3
626.886	1	2
627.226	1	9
627.565	1	4
627.904	1	-2
628.243	1	11
628.583	1	0
628.922	1	3
629.261	1	4
629.600	1	4
629.940	1	-13
630.279	1	-7
630.618	1	6
630.957	1	2
631.297	1	-2
631.636	1	-10
631.975	1	15
632.314	1	4
632.653	1	10
632.993	1	-10
633.332	1	0
633.671	1	-4
634.010	1	-2
634.349	1	5
634.689	1	5
635.028	1	8
635.367	1	3
635.706	1	-8
636.045	1	3
636.384	1	-4
636.724	1	11
637.063	1	0
637.402	1	3
637.741	1	3
638.080	1	2
638.419	1	-12
638.759	1	-5
639.098	1	4
639.437	1	-8
639.776	1	-6
640.115	1	-1
640.454	1	-9
640.793	1	3
641.132	1	0
641.472	1	5
641.811	1	-3
642.150	1	-11
642.489	1	6
642.828	1	-7
643.167	1	-11
643.506	1	-7
643.845	1	-7
644.184	1	-3
644.524	1	-6
644.863	1	-4
645.202	1	6
645.541	1	4
645.880	1	5
646.219	1	5
646.558	1	-1
646.897	1	-2
647.236	1	2
647.575	1	-1
647.914	1	-2
648.253	1	4
648.592	1	3
648.931	1	2
649.270	1	6
649.610	1	4
649.949	1	-6
650.288	1	2
650.627	1	-5
650.966	1	-1
651.305	1	-4
651.644	1	4
651.983	1	3
652.322	1	-14
652.661	1	-4
653.000	1	2
653.339	1	12
653.678	1	-7
654.017	1	-12
654.356	1	1
654.695	1	0
655.034	1	4
655.373	1	9
655.712	1	4
656.051	1	8
656.390	1	-1
656.729	1	9
657.068	1	0
657.406	1	5
657.745	1	-2
658.084	1	8
658.423	1	6
658.762	1	-2
659.101	1	4
659.440	1	-4
659.779	1	4
660.118	1	6
660.457	1	-5
660.796	1	-9
661.135	1	-4
661.474	1	-10
661.813	1	11
662.152	1	7
662.491	1	-5
662.829	1	-5
663.168	1	-8
663.507	1	3
663.846	1	-8
664.185	1	-2
664.524	1	-3
664.863	1	-5
665.202	1	6
665.541	1	-14
665.879	1	-6
666.218	1	-8
666.557	1	-9
666.896	1	0
667.235	1	6
667.574	1	-10
667.913	1	-2
668.251	1	-6
668.590	1	-5
668.929	1	-8
669.268	1	0
669.607	1	-13
669.946	1	1
670.285	1	-2
670.623	1	-4
670.962	1	-3
671.301	1	3
671.640	1	6
671.979	1	-5
672.317	1	3
672.656	1	0
672.995	1	8
673.334	1	-4
673.673	1	2
674.011	1	2
674.350	1	1
674.689	1	-6
675.028	1	-13
675.367	1	-10
675.705	1	10
676.044	1	-4
676.383	1	3
676.722	1	-1
677.060	1	-5
677.399	1	-13
677.738	1	-3
678.077	1	-4
678.416	1	4
678.754	1	7
679.093	1	-3
679.432	1	1
679.771	1	3
680.109	1	3
680.448	1	1
680.787	1	0
681.125	1	-1
681.464	1	-2
681.803	1	-1
682.142	1	3
682.480	1	6
682.819	1	-11
683.158	1	-1
683.496	1	-3
683.835	1	0
684.174	1	-3
684.512	1	8
684.851	1	6
685.190	1	0
685.529	1	-5
685.867	1	4
686.206	1	-7
686.545	1	-7
686.883	1	8
687.222	1	2
687.561	1	-3
687.899	1	1
688.238	1	2
688.577	1	-3
688.746	1	-1