File: Data/GaN_200K_800ms/GaN_sample F_spot 12_UVVIS_200 K_200um_800 ms 2x2mm1_15.txt
340.368	1	0
340.710	1	-15
341.052	1	6
341.394	1	-7
341.737	1	12
342.079	1	-13
342.421	1	-8
342.763	1	4
343.105	1	-2
343.447	1	1
343.789	1	8
344.131	1	-1
344.473	1	-6
344.815	1	-1
345.157	1	-7
345.499	1	8
345.841	1	3
346.183	1	-3
346.526	1	-3
346.868	1	2
347.210	1	-6
347.552	1	-5
347.894	1	-3
348.236	1	16
348.578	1	5
348.920	1	-7
349.262	1	-2
349.604	1	3
349.946	1	-5
350.288	1	10
350.630	1	4
350.972	1	6
351.314	1	-1
351.656	1	2
351.998	1	4
352.340	1	5
352.682	1	9
353.024	1	7
353.366	1	10
353.708	1	9
354.050	1	0
354.392	1	7
354.734	1	3
355.076	1	2
355.418	1	-13
355.760	1	-4
356.102	1	13
356.444	1	4
356.785	1	4
357.127	1	-2
357.469	1	6
357.811	1	8
358.153	1	6
358.495	1	2
358.837	1	0
359.179	1	4
359.521	1	1
359.863	1	1
360.205	1	-7
360.547	1	8
360.889	1	-4
361.231	1	-9
361.572	1	5
361.914	1	9
362.256	1	4
362.598	1	-7
362.940	1	-3
363.282	1	3
363.624	1	4
363.966	1	6
364.308	1	-13
364.649	1	3
364.991	1	-7
365.333	1	-3
365.675	1	-11
366.017	1	-3
366.359	1	11
366.701	1	0
367.042	1	4
367.384	1	3
367.726	1	-5
368.068	1	1
368.410	1	1
368.752	1	-3
369.093	1	-3
369.435	1	-1
369.777	1	-11
370.119	1	-1
370.461	1	3
370.803	1	-7
371.144	1	-6
371.486	1	6
371.828	1	1
372.170	1	4
372.512	1	-3
372.853	1	-7
373.195	1	-9
373.537	1	1
373.879	1	-4
374.220	1	4
374.562	1	7
374.904	1	-1
375.246	1	5
375.588	1	-3
375.929	1	8
376.271	1	6
376.613	1	5
376.955	1	2
377.296	1	-4
377.638	1	1
377.980	1	3
378.321	1	-1
378.663	1	0
379.005	1	7
379.347	1	7
379.688	1	0
380.030	1	1
380.372	1	-6
380.714	1	2
381.055	1	-2
381.397	1	6
381.739	1	3
382.080	1	1
382.422	1	1
382.764	1	-8
383.105	1	-5
383.447	1	-4
383.789	1	-3
384.130	1	3
384.472	1	-3
384.814	1	-7
385.156	1	-6
385.497	1	2
385.839	1	-4
386.180	1	-2
386.522	1	4
386.864	1	-2
387.205	1	-1
387.547	1	-11
387.889	1	-2
388.230	1	10
388.572	1	-4
388.914	1	-2
389.255	1	4
389.597	1	-7
389.939	1	8
390.280	1	6
390.622	1	2
390.963	1	9
391.305	1	10
391.647	1	3
391.988	1	6
392.330	1	9
392.671	1	1
393.013	1	4
393.355	1	5
393.696	1	8
394.038	1	8
394.379	1	6
394.721	1	-7
395.062	1	2
395.404	1	-3
395.746	1	10
396.087	1	-1
396.429	1	1
396.770	1	5
397.112	1	7
397.453	1	6
397.795	1	2
398.136	1	-7
398.478	1	1
398.819	1	3
399.161	1	16
399.503	1	6
399.844	1	-3
400.186	1	-6
400.527	1	3
400.869	1	6
401.210	1	7
401.552	1	-13
401.893	1	2
402.235	1	4
402.576	1	5
402.918	1	19
403.259	1	4
403.601	1	6
403.942	1	15
404.284	1	10
404.625	1	1
404.967	1	6
405.308	1	4
405.649	1	9
405.991	1	-4
406.332	1	4
406.674	1	0
407.015	1	6
407.357	1	-3
407.698	1	5
408.040	1	-1
408.381	1	-4
408.722	1	-12
409.064	1	3
409.405	1	7
409.747	1	-2
410.088	1	-2
410.430	1	9
410.771	1	5
411.112	1	5
411.454	1	-6
411.795	1	-9
412.137	1	5
412.478	1	12
412.819	1	6
413.161	1	-2
413.502	1	-1
413.844	1	5
414.185	1	4
414.526	1	-3
414.868	1	-3
415.209	1	-5
415.550	1	-5
415.892	1	8
416.233	1	5
416.575	1	8
416.916	1	-8
417.257	1	2
417.599	1	5
417.940	1	9
418.281	1	6
418.623	1	-8
418.964	1	-4
419.305	1	-5
419.647	1	-1
419.988	1	-4
420.329	1	-3
420.671	1	9
421.012	1	-2
421.353	1	1
421.695	1	-3
422.036	1	-3
422.377	1	-1
422.718	1	9
423.060	1	-6
423.401	1	8
423.742	1	-2
424.084	1	0
424.425	1	8
424.766	1	-2
425.107	1	-1
425.449	1	4
425.790	1	-9
426.131	1	3
426.472	1	4
426.814	1	4
427.155	1	1
427.496	1	-12
427.837	1	1
428.179	1	-1
428.520	1	-3
428.861	1	-6
429.202	1	-7
429.544	1	2
429.885	1	-2
430.226	1	-8
430.567	1	2
430.909	1	4
431.250	1	3
431.591	1	4
431.932	1	-8
432.273	1	-4
432.615	1	-6
432.956	1	-13
433.297	1	0
433.638	1	-5
433.979	1	4
434.320	1	2
434.662	1	6
435.003	1	4
435.344	1	7
435.685	1	0
436.026	1	9
436.368	1	-1
436.709	1	5
437.050	1	-1
437.391	1	13
437.732	1	3
438.073	1	8
438.414	1	-4
438.756	1	3
439.097	1	0
439.438	1	-5
439.779	1	4
440.120	1	-8
440.461	1	4
440.802	1	-1
441.143	1	3
441.485	1	4
441.826	1	-5
442.167	1	5
442.508	1	-8
442.849	1	7
443.190	1	9
443.531	1	15
443.872	1	4
444.213	1	-6
444.554	1	13
444.895	1	-2
445.237	1	-5
445.578	1	-11
445.919	1	-8
446.260	1	-7
446.601	1	-4
446.942	1	-5
447.283	1	-5
447.624	1	0
447.965	1	5
448.306	1	2
448.647	1	-4
448.988	1	1
449.329	1	8
449.670	1	9
450.011	1	9
450.352	1	-1
450.693	1	0
451.034	1	-1
451.375	1	-6
451.716	1	10
452.057	1	8
452.398	1	-1
452.739	1	0
453.080	1	-3
453.421	1	0
453.762	1	3
454.103	1	-1
454.444	1	-9
454.785	1	-8
455.126	1	1
455.467	1	6
455.808	1	4
456.149	1	4
456.490	1	6
456.831	1	5
457.172	1	-2
457.513	1	7
457.854	1	7
458.195	1	3
458.536	1	10
458.877	1	0
459.218	1	-13
459.559	1	8
459.899	1	5
460.240	1	8
460.581	1	13
460.922	1	5
461.263	1	-4
461.604	1	-2
461.945	1	0
462.286	1	-1
462.627	1	10
462.968	1	7
463.309	1	-2
463.649	1	-4
463.990	1	0
464.331	1	1
464.672	1	4
465.013	1	-6
465.354	1	4
465.695	1	5
466.036	1	-2
466.376	1	-5
466.717	1	-2
467.058	1	-2
467.399	1	9
467.740	1	2
468.081	1	8
468.422	1	-7
468.762	1	-2
469.103	1	-16
469.444	1	1
469.785	1	-6
470.126	1	-14
470.467	1	4
470.807	1	3
471.148	1	-3
471.489	1	-4
471.830	1	1
472.171	1	-6
472.511	1	-5
472.852	1	1
473.193	1	5
473.534	1	12
473.875	1	8
474.215	1	5
474.556	1	-2
474.897	1	6
475.238	1	4
475.578	1	-5
475.919	1	-2
476.260	1	4
476.601	1	2
476.942	1	9
477.282	1	-6
477.623	1	-11
477.964	1	2
478.305	1	-3
478.645	1	11
478.986	1	-4
479.327	1	-6
479.667	1	3
480.008	1	-4
480.349	1	2
480.690	1	8
481.030	1	-2
481.371	1	10
481.712	1	-7
482.053	1	-1
482.393	1	0
482.734	1	0
483.075	1	-3
483.415	1	5
483.756	1	5
484.097	1	11
484.437	1	-4
484.778	1	11
485.119	1	-7
485.459	1	9
485.800	1	0
486.141	1	3
486.481	1	-1
486.822	1	4
487.163	1	0
487.503	1	2
487.844	1	8
488.185	1	3
488.525	1	-4
488.866	1	-2
489.207	1	-4
489.547	1	-5
489.888	1	-7
490.228	1	5
490.569	1	8
490.910	1	10
491.250	1	-4
491.591	1	-2
491.932	1	4
492.272	1	-1
492.613	1	-8
492.953	1	-2
493.294	1	-11
493.635	1	4
493.975	1	-1
494.316	1	3
494.656	1	-5
494.997	1	0
495.337	1	9
495.678	1	1
496.019	1	-5
496.359	1	-1
496.700	1	12
497.040	1	-2
497.381	1	-4
497.721	1	-8
498.062	1	-4
498.403	1	2
498.743	1	0
499.084	1	-2
499.424	1	13
499.765	1	1
500.105	1	0
500.446	1	-9
500.786	1	-4
501.127	1	6
501.467	1	2
501.808	1	9
502.148	1	7
502.489	1	2
502.829	1	2
503.170	1	6
503.510	1	8
503.851	1	-2
504.191	1	5
504.532	1	2
504.872	1	4
505.213	1	9
505.553	1	-5
505.894	1	-5
506.234	1	4
506.575	1	4
506.915	1	6
507.256	1	0
507.596	1	3
507.936	1	-2
508.277	1	8
508.617	1	-1
508.958	1	-2
509.298	1	5
509.639	1	-8
509.979	1	-1
510.319	1	10
510.660	1	-6
511.000	1	1
511.341	1	-3
511.681	1	0
512.022	1	0
512.362	1	-5
512.702	1	-2
513.043	1	-1
513.383	1	-4
513.724	1	5
514.064	1	2
514.404	1	-7
514.745	1	0
515.085	1	0
515.425	1	-3
515.766	1	-1
516.106	1	3
516.447	1	11
516.787	1	7
517.127	1	1
517.468	1	-8
517.808	1	-5
518.148	1	3
518.489	1	2
518.829	1	7
519.169	1	2
519.510	1	7
519.850	1	0
520.190	1	1
520.531	1	5
520.871	1	3
521.211	1	-14
521.552	1	11
521.892	1	-8
522.232	1	6
522.573	1	3
522.913	1	9
523.253	1	7
523.593	1	4
523.934	1	-6
524.274	1	3
524.614	1	1
524.955	1	-6
525.295	1	5
525.635	1	-4
525.975	1	7
526.316	1	13
526.656	1	1
526.996	1	7
527.337	1	-5
527.677	1	-1
528.017	1	-7
528.357	1	2
528.698	1	12
529.038	1	4
529.378	1	1
529.718	1	-2
530.058	1	2
530.399	1	4
530.739	1	-5
531.079	1	-7
531.419	1	10
531.760	1	9
532.100	1	-9
532.440	1	3
532.780	1	-7
533.120	1	-1
533.461	1	8
533.801	1	13
534.141	1	-8
534.481	1	-10
534.821	1	7
535.162	1	-5
535.502	1	0
535.842	1	3
536.182	1	0
536.522	1	-7
536.862	1	4
537.203	1	-1
537.543	1	0
537.883	1	4
538.223	1	5
538.563	1	8
538.903	1	-1
539.243	1	-10
539.584	1	-6
539.924	1	15
540.264	1	-3
540.604	1	4
540.944	1	-3
541.284	1	4
541.624	1	13
541.964	1	0
542.305	1	3
542.645	1	-4
542.985	1	4
543.325	1	2
543.665	1	11
544.005	1	13
544.345	1	11
544.685	1	-2
545.025	1	5
545.365	1	-7
545.705	1	-4
546.045	1	-2
546.386	1	-1
546.726	1	2
547.066	1	5
547.406	1	2
547.746	1	-5
548.086	1	-3
548.426	1	-3
548.766	1	-3
549.106	1	0
549.446	1	-5
549.786	1	0
550.126	1	12
550.466	1	2
550.806	1	-2
551.146	1	6
551.486	1	-4
551.826	1	0
552.166	1	0
552.506	1	12
552.846	1	6
553.186	1	3
553.526	1	-9
553.866	1	5
554.206	1	5
554.546	1	3
554.886	1	3
555.226	1	-8
555.566	1	8
555.906	1	1
556.246	1	6
556.586	1	-6
556.926	1	3
557.266	1	-4
557.606	1	7
557.946	1	6
558.286	1	-1
558.626	1	12
558.966	1	6
559.306	1	-14
559.646	1	-2
559.986	1	-3
560.325	1	-2
560.665	1	0
561.005	1	-3
561.345	1	5
561.685	1	3
562.025	1	-1
562.365	1	6
562.705	1	-3
563.045	1	-1
563.385	1	-4
563.725	1	0
564.064	1	-3
564.404	1	1
564.744	1	0
565.084	1	6
565.424	1	0
565.764	1	-9
566.104	1	0
566.444	1	4
566.783	1	-1
567.123	1	1
567.463	1	7
567.803	1	-3
568.143	1	2
568.483	1	3
568.823	1	2
569.162	1	-1
569.502	1	-3
569.842	1	-5
570.182	1	-4
570.522	1	-7
570.862	1	3
571.201	1	-1
571.541	1	11
571.881	1	11
572.221	1	-11
572.561	1	-1
572.900	1	0
573.240	1	2
573.580	1	2
573.920	1	-2
574.260	1	5
574.599	1	6
574.939	1	-1
575.279	1	11
575.619	1	3
575.959	1	-1
576.298	1	3
576.638	1	2
576.978	1	12
577.318	1	1
577.657	1	-11
577.997	1	-9
578.337	1	7
578.677	1	5
579.016	1	8
579.356	1	-12
579.696	1	3
580.036	1	-5
580.375	1	5
580.715	1	-3
581.055	1	4
581.394	1	0
581.734	1	-4
582.074	1	-1
582.414	1	7
582.753	1	-2
583.093	1	-5
583.433	1	-4
583.772	1	5
584.112	1	-3
584.452	1	-3
584.791	1	-1
585.131	1	9
585.471	1	6
585.811	1	9
586.150	1	1
586.490	1	11
586.830	1	3
587.169	1	2
587.509	1	1
587.849	1	2
588.188	1	18
588.528	1	2
588.867	1	7
589.207	1	1
589.547	1	-3
589.886	1	3
590.226	1	6
590.566	1	1
590.905	1	-2
591.245	1	-7
591.585	1	11
591.924	1	-1
592.264	1	-2
592.603	1	4
592.943	1	3
593.283	1	4
593.622	1	4
593.962	1	2
594.301	1	10
594.641	1	-7
594.981	1	-9
595.320	1	1
595.660	1	3
595.999	1	1
596.339	1	2
596.678	1	0
597.018	1	-4
597.358	1	4
597.697	1	4
598.037	1	3
598.376	1	3
598.716	1	7
599.055	1	2
599.395	1	-5
599.734	1	0
600.074	1	-9
600.413	1	8
600.753	1	-1
601.092	1	12
601.432	1	-3
601.771	1	1
602.111	1	4
602.451	1	7
602.790	1	0
603.130	1	-3
603.469	1	-5
603.809	1	7
604.148	1	4
604.487	1	-7
604.827	1	-1
605.166	1	0
605.506	1	5
605.845	1	9
606.185	1	7
606.524	1	-6
606.864	1	1
607.203	1	3
607.543	1	-3
607.882	1	5
608.222	1	8
608.561	1	4
608.901	1	6
609.240	1	1
609.579	1	5
609.919	1	5
610.258	1	5
610.598	1	8
610.937	1	2
611.277	1	2
611.616	1	-7
611.955	1	0
612.295	1	-8
612.634	1	6
612.974	1	-10
613.313	1	1
613.652	1	4
613.992	1	3
614.331	1	1
614.671	1	0
615.010	1	-10
615.349	1	7
615.689	1	16
616.028	1	1
616.368	1	-2
616.707	1	0
617.046	1	-1
617.386	1	9
617.725	1	-2
618.064	1	-13
618.404	1	-2
618.743	1	8
619.082	1	-2
619.422	1	-3
619.761	1	11
620.100	1	-1
620.440	1	3
620.779	1	-5
621.118	1	1
621.458	1	7
621.797	1	-1
622.136	1	15
622.476	1	7
622.815	1	8
623.154	1	12
623.494	1	6
623.833	1	4
624.172	1	1
624.511	1	1
624.851	1	-16
625.190	1	3
625.529	1	-1
625.869	1	17
626.208	1	-3
626.547	1	6
626.886	1	3
627.226	1	10
627.565	1	2
627.904	1	-4
628.243	1	6
628.583	1	-2
628.922	1	10
629.261	1	-5
629.600	1	13
629.940	1	9
630.279	1	-7
630.618	1	4
630.957	1	0
631.297	1	-9
631.636	1	-10
631.975	1	13
632.314	1	-2
632.653	1	-1
632.993	1	-5
633.332	1	1
633.671	1	0
634.010	1	-5
634.349	1	10
634.689	1	-3
635.028	1	5
635.367	1	6
635.706	1	0
636.045	1	9
636.384	1	-8
636.724	1	-2
637.063	1	9
637.402	1	5
637.741	1	-1
638.080	1	2
638.419	1	0
638.759	1	0
639.098	1	8
639.437	1	-2
639.776	1	-8
640.115	1	-10
640.454	1	-3
640.793	1	12
641.132	1	4
641.472	1	3
641.811	1	-2
642.150	1	-5
642.489	1	1
642.828	1	-3
643.167	1	1
643.506	1	-6
643.845	1	-4
644.184	1	-1
644.524	1	-2
644.863	1	-4
645.202	1	-7
645.541	1	5
645.880	1	1
646.219	1	6
646.558	1	0
646.897	1	-6
647.236	1	2
647.575	1	5
647.914	1	-2
648.253	1	4
648.592	1	-6
648.931	1	11
649.270	1	-2
649.610	1	-3
649.949	1	-3
650.288	1	11
650.627	1	0
650.966	1	3
651.305	1	6
651.644	1	9
651.983	1	-1
652.322	1	-3
652.661	1	-5
653.000	1	6
653.339	1	9
653.678	1	-4
654.017	1	-2
654.356	1	-11
654.695	1	11
655.034	1	1
655.373	1	9
655.712	1	8
656.051	1	-1
656.390	1	-10
656.729	1	6
657.068	1	-1
657.406	1	2
657.745	1	-7
658.084	1	10
658.423	1	6
658.762	1	-2
659.101	1	12
659.440	1	8
659.779	1	-2
660.118	1	4
660.457	1	-6
660.796	1	-6
661.135	1	-10
661.474	1	-10
661.813	1	3
662.152	1	4
662.491	1	-4
662.829	1	-9
663.168	1	3
663.507	1	15
663.846	1	-6
664.185	1	-3
664.524	1	-1
664.863	1	-4
665.202	1	1
665.541	1	-9
665.879	1	-9
666.218	1	-1
666.557	1	-1
666.896	1	-5
667.235	1	8
667.574	1	-1
667.913	1	4
668.251	1	-5
668.590	1	2
668.929	1	-11
669.268	1	-1
669.607	1	-5
669.946	1	2
670.285	1	-3
670.623	1	2
670.962	1	5
671.301	1	5
671.640	1	-3
671.979	1	-5
672.317	1	2
672.656	1	4
672.995	1	6
673.334	1	6
673.673	1	-1
674.011	1	4
674.350	1	-1
674.689	1	3
675.028	1	-8
675.367	1	2
675.705	1	2
676.044	1	4
676.383	1	9
676.722	1	-2
677.060	1	-4
677.399	1	-2
677.738	1	0
678.077	1	0
678.416	1	0
678.754	1	-5
679.093	1	3
679.432	1	4
679.771	1	-5
680.109	1	5
680.448	1	3
680.787	1	-2
681.125	1	0
681.464	1	8
681.803	1	-4
682.142	1	8
682.480	1	12
682.819	1	0
683.158	1	-1
683.496	1	0
683.835	1	1
684.174	1	-6
684.512	1	7
684.851	1	5
685.190	1	-2
685.529	1	1
685.867	1	3
686.206	1	-1
686.545	1	-5
686.883	1	3
687.222	1	10
687.561	1	3
687.899	1	-1
688.238	1	4
688.577	1	-3
688.746	1	1