File: Data/GaN_200K_800ms/GaN_sample F_spot 12_UVVIS_200 K_200um_800 ms 2x2mm1_347.txt
340.368	1	4
340.710	1	-4
341.052	1	4
341.394	1	3
341.737	1	-5
342.079	1	-3
342.421	1	-3
342.763	1	2
343.105	1	-1
343.447	1	-4
343.789	1	2
344.131	1	-1
344.473	1	-2
344.815	1	-2
345.157	1	-5
345.499	1	4
345.841	1	3
346.183	1	-12
346.526	1	-7
346.868	1	-2
347.210	1	-8
347.552	1	-1
347.894	1	0
348.236	1	6
348.578	1	3
348.920	1	-2
349.262	1	5
349.604	1	2
349.946	1	-2
350.288	1	11
350.630	1	5
350.972	1	1
351.314	1	0
351.656	1	2
351.998	1	7
352.340	1	6
352.682	1	0
353.024	1	10
353.366	1	2
353.708	1	0
354.050	1	-8
354.392	1	-10
354.734	1	5
355.076	1	6
355.418	1	-1
355.760	1	-10
356.102	1	7
356.444	1	0
356.785	1	8
357.127	1	4
357.469	1	-6
357.811	1	-10
358.153	1	5
358.495	1	-4
358.837	1	-6
359.179	1	3
359.521	1	-2
359.863	1	5
360.205	1	5
360.547	1	4
360.889	1	-6
361.231	1	0
361.572	1	10
361.914	1	-3
362.256	1	-2
362.598	1	-1
362.940	1	2
363.282	1	14
363.624	1	16
363.966	1	6
364.308	1	3
364.649	1	8
364.991	1	6
365.333	1	6
365.675	1	-2
366.017	1	9
366.359	1	-1
366.701	1	12
367.042	1	9
367.384	1	11
367.726	1	15
368.068	1	13
368.410	1	23
368.752	1	0
369.093	1	18
369.435	1	10
369.777	1	18
370.119	1	17
370.461	1	26
370.803	1	24
371.144	1	9
371.486	1	11
371.828	1	19
372.170	1	11
372.512	1	2
372.853	1	9
373.195	1	16
373.537	1	5
373.879	1	7
374.220	1	23
374.562	1	9
374.904	1	15
375.246	1	12
375.588	1	-1
375.929	1	2
376.271	1	6
376.613	1	3
376.955	1	5
377.296	1	3
377.638	1	9
377.980	1	6
378.321	1	3
378.663	1	0
379.005	1	13
379.347	1	7
379.688	1	14
380.030	1	8
380.372	1	-4
380.714	1	12
381.055	1	9
381.397	1	-4
381.739	1	2
382.080	1	4
382.422	1	3
382.764	1	1
383.105	1	0
383.447	1	1
383.789	1	5
384.130	1	-1
384.472	1	6
384.814	1	0
385.156	1	-5
385.497	1	5
385.839	1	8
386.180	1	6
386.522	1	3
386.864	1	0
387.205	1	3
387.547	1	1
387.889	1	-3
388.230	1	9
388.572	1	-2
388.914	1	4
389.255	1	1
389.597	1	13
389.939	1	2
390.280	1	0
390.622	1	-4
390.963	1	10
391.305	1	4
391.647	1	8
391.988	1	7
392.330	1	3
392.671	1	-2
393.013	1	2
393.355	1	7
393.696	1	-1
394.038	1	6
394.379	1	-1
394.721	1	-1
395.062	1	-6
395.404	1	-2
395.746	1	1
396.087	1	7
396.429	1	-7
396.770	1	-2
397.112	1	7
397.453	1	6
397.795	1	4
398.136	1	-6
398.478	1	-2
398.819	1	-6
399.161	1	4
399.503	1	-4
399.844	1	-1
400.186	1	1
400.527	1	-6
400.869	1	-4
401.210	1	0
401.552	1	-2
401.893	1	4
402.235	1	-2
402.576	1	-3
402.918	1	3
403.259	1	-3
403.601	1	-11
403.942	1	5
404.284	1	9
404.625	1	-3
404.967	1	-6
405.308	1	8
405.649	1	1
405.991	1	0
406.332	1	2
406.674	1	-13
407.015	1	-3
407.357	1	1
407.698	1	6
408.040	1	-6
408.381	1	6
408.722	1	-11
409.064	1	3
409.405	1	6
409.747	1	-5
410.088	1	8
410.430	1	2
410.771	1	1
411.112	1	-10
411.454	1	-7
411.795	1	0
412.137	1	7
412.478	1	17
412.819	1	1
413.161	1	3
413.502	1	-4
413.844	1	6
414.185	1	8
414.526	1	-4
414.868	1	2
415.209	1	-5
415.550	1	-3
415.892	1	3
416.233	1	0
416.575	1	13
416.916	1	-19
417.257	1	-8
417.599	1	-5
417.940	1	11
418.281	1	6
418.623	1	-2
418.964	1	-14
419.305	1	13
419.647	1	-6
419.988	1	0
420.329	1	-11
420.671	1	7
421.012	1	-1
421.353	1	-2
421.695	1	-2
422.036	1	-3
422.377	1	-8
422.718	1	3
423.060	1	-10
423.401	1	1
423.742	1	0
424.084	1	0
424.425	1	14
424.766	1	6
425.107	1	-7
425.449	1	-6
425.790	1	-10
426.131	1	0
426.472	1	-1
426.814	1	2
427.155	1	-2
427.496	1	5
427.837	1	-10
428.179	1	-3
428.520	1	-2
428.861	1	-1
429.202	1	-1
429.544	1	-7
429.885	1	5
430.226	1	-9
430.567	1	1
430.909	1	5
431.250	1	-7
431.591	1	1
431.932	1	-3
432.273	1	-1
432.615	1	-8
432.956	1	-9
433.297	1	3
433.638	1	-7
433.979	1	4
434.320	1	1
434.662	1	-1
435.003	1	1
435.344	1	-5
435.685	1	-7
436.026	1	7
436.368	1	-4
436.709	1	-8
437.050	1	3
437.391	1	4
437.732	1	-6
438.073	1	8
438.414	1	-4
438.756	1	-11
439.097	1	-11
439.438	1	-5
439.779	1	2
440.120	1	-1
440.461	1	-6
440.802	1	-5
441.143	1	8
441.485	1	2
441.826	1	-4
442.167	1	-3
442.508	1	-6
442.849	1	5
443.190	1	1
443.531	1	-4
443.872	1	6
444.213	1	1
444.554	1	15
444.895	1	-5
445.237	1	-2
445.578	1	-11
445.919	1	-7
446.260	1	-7
446.601	1	1
446.942	1	4
447.283	1	-4
447.624	1	-7
447.965	1	2
448.306	1	1
448.647	1	-10
448.988	1	5
449.329	1	-3
449.670	1	7
450.011	1	3
450.352	1	-5
450.693	1	-10
451.034	1	-2
451.375	1	2
451.716	1	0
452.057	1	6
452.398	1	-4
452.739	1	1
453.080	1	0
453.421	1	1
453.762	1	3
454.103	1	-5
454.444	1	-5
454.785	1	-2
455.126	1	-8
455.467	1	-3
455.808	1	0
456.149	1	3
456.490	1	-4
456.831	1	3
457.172	1	-11
457.513	1	1
457.854	1	1
458.195	1	-5
458.536	1	3
458.877	1	1
459.218	1	1
459.559	1	7
459.899	1	4
460.240	1	-1
460.581	1	14
460.922	1	-6
461.263	1	-1
461.604	1	-2
461.945	1	1
462.286	1	6
462.627	1	7
462.968	1	-1
463.309	1	-15
463.649	1	4
463.990	1	-4
464.331	1	-4
464.672	1	-11
465.013	1	5
465.354	1	-6
465.695	1	-8
466.036	1	-6
466.376	1	-3
466.717	1	2
467.058	1	-6
467.399	1	0
467.740	1	-1
468.081	1	-7
468.422	1	-7
468.762	1	-15
469.103	1	-7
469.444	1	-1
469.785	1	-10
470.126	1	-13
470.467	1	5
470.807	1	2
471.148	1	6
471.489	1	-3
471.830	1	-1
472.171	1	4
472.511	1	-8
472.852	1	6
473.193	1	3
473.534	1	4
473.875	1	15
474.215	1	10
474.556	1	0
474.897	1	-1
475.238	1	-10
475.578	1	-10
475.919	1	-2
476.260	1	7
476.601	1	-3
476.942	1	11
477.282	1	-11
477.623	1	-15
477.964	1	-12
478.305	1	-6
478.645	1	5
478.986	1	-2
479.327	1	-5
479.667	1	4
480.008	1	4
480.349	1	1
480.690	1	-8
481.030	1	-8
481.371	1	5
481.712	1	2
482.053	1	4
482.393	1	-7
482.734	1	-7
483.075	1	-6
483.415	1	-2
483.756	1	-2
484.097	1	-3
484.437	1	-8
484.778	1	13
485.119	1	-8
485.459	1	2
485.800	1	-8
486.141	1	-7
486.481	1	0
486.822	1	2
487.163	1	-1
487.503	1	-2
487.844	1	-9
488.185	1	4
488.525	1	-6
488.866	1	-3
489.207	1	-2
489.547	1	-9
489.888	1	-3
490.228	1	1
490.569	1	15
490.910	1	-6
491.250	1	-8
491.591	1	-4
491.932	1	-3
492.272	1	5
492.613	1	-6
492.953	1	-10
493.294	1	-2
493.635	1	-2
493.975	1	-1
494.316	1	7
494.656	1	-9
494.997	1	1
495.337	1	8
495.678	1	0
496.019	1	-6
496.359	1	-4
496.700	1	-1
497.040	1	-8
497.381	1	-2
497.721	1	-1
498.062	1	-3
498.403	1	3
498.743	1	-4
499.084	1	-1
499.424	1	2
499.765	1	-6
500.105	1	2
500.446	1	-9
500.786	1	-5
501.127	1	-5
501.467	1	-7
501.808	1	5
502.148	1	7
502.489	1	7
502.829	1	4
503.170	1	4
503.510	1	5
503.851	1	-5
504.191	1	11
504.532	1	1
504.872	1	1
505.213	1	11
505.553	1	-5
505.894	1	-10
506.234	1	10
506.575	1	7
506.915	1	4
507.256	1	5
507.596	1	1
507.936	1	-11
508.277	1	-8
508.617	1	0
508.958	1	-6
509.298	1	1
509.639	1	-11
509.979	1	-1
510.319	1	4
510.660	1	-4
511.000	1	0
511.341	1	-3
511.681	1	-2
512.022	1	-7
512.362	1	2
512.702	1	-1
513.043	1	1
513.383	1	-7
513.724	1	1
514.064	1	15
514.404	1	-1
514.745	1	-12
515.085	1	-2
515.425	1	-5
515.766	1	-1
516.106	1	-3
516.447	1	5
516.787	1	-3
517.127	1	-1
517.468	1	-7
517.808	1	-10
518.148	1	-2
518.489	1	0
518.829	1	6
519.169	1	1
519.510	1	1
519.850	1	3
520.190	1	-5
520.531	1	2
520.871	1	2
521.211	1	-9
521.552	1	2
521.892	1	3
522.232	1	-1
522.573	1	-4
522.913	1	6
523.253	1	7
523.593	1	-6
523.934	1	-1
524.274	1	-6
524.614	1	4
524.955	1	3
525.295	1	2
525.635	1	2
525.975	1	1
526.316	1	18
526.656	1	-3
526.996	1	4
527.337	1	-8
527.677	1	3
528.017	1	-11
528.357	1	1
528.698	1	3
529.038	1	5
529.378	1	-1
529.718	1	4
530.058	1	-6
530.399	1	3
530.739	1	7
531.079	1	5
531.419	1	2
531.760	1	4
532.100	1	-1
532.440	1	-7
532.780	1	-11
533.120	1	10
533.461	1	2
533.801	1	9
534.141	1	-12
534.481	1	-6
534.821	1	8
535.162	1	-9
535.502	1	-6
535.842	1	9
536.182	1	-2
536.522	1	-2
536.862	1	5
537.203	1	-2
537.543	1	1
537.883	1	-4
538.223	1	8
538.563	1	2
538.903	1	-8
539.243	1	-3
539.584	1	-1
539.924	1	3
540.264	1	-5
540.604	1	-3
540.944	1	-4
541.284	1	0
541.624	1	3
541.964	1	2
542.305	1	7
542.645	1	6
542.985	1	4
543.325	1	2
543.665	1	2
544.005	1	6
544.345	1	1
544.685	1	-8
545.025	1	7
545.365	1	2
545.705	1	2
546.045	1	0
546.386	1	2
546.726	1	-9
547.066	1	2
547.406	1	0
547.746	1	-8
548.086	1	2
548.426	1	-3
548.766	1	9
549.106	1	-8
549.446	1	-4
549.786	1	2
550.126	1	9
550.466	1	3
550.806	1	2
551.146	1	-7
551.486	1	5
551.826	1	-1
552.166	1	3
552.506	1	4
552.846	1	-1
553.186	1	2
553.526	1	-4
553.866	1	3
554.206	1	4
554.546	1	2
554.886	1	8
555.226	1	-17
555.566	1	-2
555.906	1	4
556.246	1	4
556.586	1	0
556.926	1	0
557.266	1	5
557.606	1	8
557.946	1	13
558.286	1	-3
558.626	1	2
558.966	1	8
559.306	1	-6
559.646	1	-5
559.986	1	2
560.325	1	-5
560.665	1	-3
561.005	1	-6
561.345	1	-3
561.685	1	-1
562.025	1	7
562.365	1	4
562.705	1	-5
563.045	1	-9
563.385	1	-12
563.725	1	5
564.064	1	10
564.404	1	2
564.744	1	4
565.084	1	-1
565.424	1	0
565.764	1	3
566.104	1	8
566.444	1	-11
566.783	1	-10
567.123	1	5
567.463	1	6
567.803	1	-10
568.143	1	-1
568.483	1	4
568.823	1	4
569.162	1	-3
569.502	1	-9
569.842	1	2
570.182	1	0
570.522	1	-8
570.862	1	-7
571.201	1	2
571.541	1	-1
571.881	1	7
572.221	1	0
572.561	1	2
572.900	1	1
573.240	1	5
573.580	1	-1
573.920	1	8
574.260	1	12
574.599	1	4
574.939	1	7
575.279	1	1
575.619	1	13
575.959	1	-9
576.298	1	10
576.638	1	-9
576.978	1	10
577.318	1	4
577.657	1	-4
577.997	1	-10
578.337	1	8
578.677	1	2
579.016	1	5
579.356	1	-5
579.696	1	0
580.036	1	-6
580.375	1	5
580.715	1	8
581.055	1	-1
581.394	1	0
581.734	1	-4
582.074	1	-3
582.414	1	0
582.753	1	-1
583.093	1	-1
583.433	1	-10
583.772	1	1
584.112	1	-4
584.452	1	1
584.791	1	-2
585.131	1	0
585.471	1	13
585.811	1	3
586.150	1	3
586.490	1	9
586.830	1	-2
587.169	1	6
587.509	1	6
587.849	1	-8
588.188	1	0
588.528	1	1
588.867	1	7
589.207	1	1
589.547	1	-1
589.886	1	-6
590.226	1	1
590.566	1	4
590.905	1	4
591.245	1	-3
591.585	1	3
591.924	1	-1
592.264	1	-3
592.603	1	-3
592.943	1	-2
593.283	1	0
593.622	1	0
593.962	1	-7
594.301	1	3
594.641	1	-2
594.981	1	-2
595.320	1	-1
595.660	1	-4
595.999	1	-7
596.339	1	3
596.678	1	-9
597.018	1	-1
597.358	1	8
597.697	1	-1
598.037	1	3
598.376	1	-4
598.716	1	5
599.055	1	9
599.395	1	-6
599.734	1	3
600.074	1	-2
600.413	1	5
600.753	1	7
601.092	1	15
601.432	1	-7
601.771	1	5
602.111	1	11
602.451	1	11
602.790	1	6
603.130	1	9
603.469	1	-2
603.809	1	5
604.148	1	-1
604.487	1	-10
604.827	1	-3
605.166	1	4
605.506	1	2
605.845	1	4
606.185	1	-2
606.524	1	-8
606.864	1	2
607.203	1	-7
607.543	1	5
607.882	1	4
608.222	1	10
608.561	1	-4
608.901	1	-6
609.240	1	-5
609.579	1	1
609.919	1	5
610.258	1	4
610.598	1	-1
610.937	1	2
611.277	1	-4
611.616	1	-6
611.955	1	4
612.295	1	4
612.634	1	3
612.974	1	-7
613.313	1	10
613.652	1	-4
613.992	1	-6
614.331	1	6
614.671	1	1
615.010	1	-1
615.349	1	1
615.689	1	2
616.028	1	2
616.368	1	3
616.707	1	-2
617.046	1	-2
617.386	1	5
617.725	1	-7
618.064	1	-12
618.404	1	-6
618.743	1	7
619.082	1	-2
619.422	1	-7
619.761	1	8
620.100	1	6
620.440	1	6
620.779	1	-4
621.118	1	3
621.458	1	-1
621.797	1	5
622.136	1	9
622.476	1	8
622.815	1	11
623.154	1	7
623.494	1	7
623.833	1	4
624.172	1	1
624.511	1	-3
624.851	1	-8
625.190	1	-2
625.529	1	9
625.869	1	5
626.208	1	-6
626.547	1	4
626.886	1	-1
627.226	1	3
627.565	1	-2
627.904	1	-5
628.243	1	4
628.583	1	1
628.922	1	6
629.261	1	7
629.600	1	7
629.940	1	-5
630.279	1	-9
630.618	1	2
630.957	1	3
631.297	1	-2
631.636	1	-11
631.975	1	13
632.314	1	-4
632.653	1	5
632.993	1	3
633.332	1	1
633.671	1	1
634.010	1	-5
634.349	1	10
634.689	1	-5
635.028	1	3
635.367	1	-1
635.706	1	9
636.045	1	15
636.384	1	-6
636.724	1	3
637.063	1	-3
637.402	1	6
637.741	1	5
638.080	1	1
638.419	1	-7
638.759	1	-3
639.098	1	4
639.437	1	0
639.776	1	-4
640.115	1	-4
640.454	1	-1
640.793	1	4
641.132	1	8
641.472	1	2
641.811	1	3
642.150	1	-7
642.489	1	4
642.828	1	-7
643.167	1	-6
643.506	1	-7
643.845	1	0
644.184	1	-2
644.524	1	-11
644.863	1	-5
645.202	1	0
645.541	1	2
645.880	1	10
646.219	1	6
646.558	1	-2
646.897	1	-1
647.236	1	0
647.575	1	5
647.914	1	-7
648.253	1	6
648.592	1	-4
648.931	1	7
649.270	1	0
649.610	1	-6
649.949	1	-3
650.288	1	7
650.627	1	-4
650.966	1	-7
651.305	1	0
651.644	1	4
651.983	1	-1
652.322	1	-5
652.661	1	-7
653.000	1	-4
653.339	1	-1
653.678	1	4
654.017	1	0
654.356	1	-10
654.695	1	3
655.034	1	-1
655.373	1	7
655.712	1	-8
656.051	1	2
656.390	1	-5
656.729	1	0
657.068	1	1
657.406	1	10
657.745	1	-1
658.084	1	-1
658.423	1	4
658.762	1	-4
659.101	1	12
659.440	1	0
659.779	1	-2
660.118	1	0
660.457	1	-4
660.796	1	-14
661.135	1	-13
661.474	1	-7
661.813	1	14
662.152	1	-5
662.491	1	1
662.829	1	-4
663.168	1	4
663.507	1	5
663.846	1	2
664.185	1	-8
664.524	1	-2
664.863	1	1
665.202	1	-5
665.541	1	-9
665.879	1	-9
666.218	1	-1
666.557	1	-8
666.896	1	-5
667.235	1	-3
667.574	1	-6
667.913	1	1
668.251	1	-2
668.590	1	0
668.929	1	-5
669.268	1	-3
669.607	1	-5
669.946	1	-6
670.285	1	-5
670.623	1	-3
670.962	1	-8
671.301	1	-4
671.640	1	2
671.979	1	-9
672.317	1	11
672.656	1	-5
672.995	1	8
673.334	1	-3
673.673	1	-5
674.011	1	0
674.350	1	4
674.689	1	-3
675.028	1	-2
675.367	1	-2
675.705	1	6
676.044	1	-5
676.383	1	0
676.722	1	3
677.060	1	-3
677.399	1	-3
677.738	1	6
678.077	1	7
678.416	1	-2
678.754	1	-17
679.093	1	7
679.432	1	1
679.771	1	5
680.109	1	5
680.448	1	-8
680.787	1	-5
681.125	1	6
681.464	1	3
681.803	1	3
682.142	1	-2
682.480	1	9
682.819	1	0
683.158	1	-6
683.496	1	0
683.835	1	2
684.174	1	-6
684.512	1	3
684.851	1	-3
685.190	1	-7
685.529	1	-3
685.867	1	0
686.206	1	0
686.545	1	-6
686.883	1	-11
687.222	1	1
687.561	1	-1
687.899	1	6
688.238	1	-2
688.577	1	4
688.746	1	-2