File: Data/GaN_200K_800ms/GaN_sample F_spot 12_UVVIS_200 K_200um_800 ms 2x2mm1_105.txt
340.368	1	7
340.710	1	-1
341.052	1	9
341.394	1	-6
341.737	1	3
342.079	1	4
342.421	1	8
342.763	1	11
343.105	1	12
343.447	1	-8
343.789	1	2
344.131	1	-5
344.473	1	5
344.815	1	5
345.157	1	-9
345.499	1	-5
345.841	1	9
346.183	1	-3
346.526	1	0
346.868	1	9
347.210	1	-6
347.552	1	7
347.894	1	6
348.236	1	11
348.578	1	3
348.920	1	8
349.262	1	4
349.604	1	9
349.946	1	-6
350.288	1	16
350.630	1	1
350.972	1	16
351.314	1	14
351.656	1	6
351.998	1	9
352.340	1	4
352.682	1	5
353.024	1	12
353.366	1	13
353.708	1	10
354.050	1	1
354.392	1	4
354.734	1	10
355.076	1	18
355.418	1	-1
355.760	1	6
356.102	1	14
356.444	1	17
356.785	1	13
357.127	1	7
357.469	1	5
357.811	1	16
358.153	1	9
358.495	1	25
358.837	1	2
359.179	1	7
359.521	1	19
359.863	1	12
360.205	1	10
360.547	1	18
360.889	1	19
361.231	1	13
361.572	1	24
361.914	1	37
362.256	1	31
362.598	1	24
362.940	1	28
363.282	1	38
363.624	1	29
363.966	1	36
364.308	1	37
364.649	1	42
364.991	1	46
365.333	1	42
365.675	1	40
366.017	1	60
366.359	1	62
366.701	1	61
367.042	1	73
367.384	1	79
367.726	1	74
368.068	1	83
368.410	1	95
368.752	1	88
369.093	1	79
369.435	1	102
369.777	1	88
370.119	1	90
370.461	1	98
370.803	1	87
371.144	1	84
371.486	1	89
371.828	1	84
372.170	1	86
372.512	1	70
372.853	1	72
373.195	1	70
373.537	1	74
373.879	1	64
374.220	1	70
374.562	1	65
374.904	1	59
375.246	1	44
375.588	1	55
375.929	1	60
376.271	1	50
376.613	1	51
376.955	1	39
377.296	1	48
377.638	1	43
377.980	1	52
378.321	1	36
378.663	1	26
379.005	1	42
379.347	1	34
379.688	1	25
380.030	1	29
380.372	1	40
380.714	1	31
381.055	1	37
381.397	1	34
381.739	1	36
382.080	1	21
382.422	1	28
382.764	1	25
383.105	1	12
383.447	1	27
383.789	1	16
384.130	1	17
384.472	1	13
384.814	1	11
385.156	1	21
385.497	1	22
385.839	1	10
386.180	1	13
386.522	1	17
386.864	1	10
387.205	1	2
387.547	1	7
387.889	1	2
388.230	1	23
388.572	1	12
388.914	1	4
389.255	1	4
389.597	1	10
389.939	1	12
390.280	1	7
390.622	1	3
390.963	1	22
391.305	1	16
391.647	1	16
391.988	1	8
392.330	1	12
392.671	1	6
393.013	1	7
393.355	1	6
393.696	1	13
394.038	1	3
394.379	1	5
394.721	1	4
395.062	1	9
395.404	1	7
395.746	1	15
396.087	1	3
396.429	1	9
396.770	1	6
397.112	1	12
397.453	1	19
397.795	1	4
398.136	1	3
398.478	1	6
398.819	1	4
399.161	1	9
399.503	1	9
399.844	1	7
400.186	1	10
400.527	1	9
400.869	1	-4
401.210	1	9
401.552	1	-2
401.893	1	0
402.235	1	0
402.576	1	0
402.918	1	13
403.259	1	4
403.601	1	0
403.942	1	4
404.284	1	3
404.625	1	6
404.967	1	8
405.308	1	2
405.649	1	-5
405.991	1	-4
406.332	1	12
406.674	1	2
407.015	1	20
407.357	1	5
407.698	1	9
408.040	1	-9
408.381	1	11
408.722	1	-16
409.064	1	0
409.405	1	3
409.747	1	-2
410.088	1	-2
410.430	1	5
410.771	1	-4
411.112	1	-2
411.454	1	0
411.795	1	-7
412.137	1	13
412.478	1	6
412.819	1	0
413.161	1	6
413.502	1	9
413.844	1	7
414.185	1	3
414.526	1	-3
414.868	1	10
415.209	1	3
415.550	1	-5
415.892	1	-4
416.233	1	5
416.575	1	7
416.916	1	-2
417.257	1	6
417.599	1	2
417.940	1	7
418.281	1	1
418.623	1	3
418.964	1	-6
419.305	1	1
419.647	1	2
419.988	1	6
420.329	1	-5
420.671	1	5
421.012	1	2
421.353	1	-1
421.695	1	7
422.036	1	15
422.377	1	0
422.718	1	7
423.060	1	1
423.401	1	3
423.742	1	9
424.084	1	10
424.425	1	12
424.766	1	6
425.107	1	-7
425.449	1	-9
425.790	1	-7
426.131	1	2
426.472	1	13
426.814	1	3
427.155	1	-3
427.496	1	3
427.837	1	-2
428.179	1	-1
428.520	1	2
428.861	1	-2
429.202	1	-1
429.544	1	3
429.885	1	-3
430.226	1	-3
430.567	1	2
430.909	1	5
431.250	1	0
431.591	1	9
431.932	1	0
432.273	1	1
432.615	1	-2
432.956	1	-8
433.297	1	4
433.638	1	4
433.979	1	6
434.320	1	9
434.662	1	0
435.003	1	6
435.344	1	3
435.685	1	-2
436.026	1	14
436.368	1	0
436.709	1	0
437.050	1	0
437.391	1	11
437.732	1	-9
438.073	1	-2
438.414	1	-10
438.756	1	-11
439.097	1	-6
439.438	1	4
439.779	1	10
440.120	1	2
440.461	1	-4
440.802	1	-3
441.143	1	9
441.485	1	-3
441.826	1	-1
442.167	1	5
442.508	1	-3
442.849	1	8
443.190	1	2
443.531	1	14
443.872	1	10
444.213	1	2
444.554	1	10
444.895	1	-3
445.237	1	-3
445.578	1	-3
445.919	1	3
446.260	1	-14
446.601	1	-9
446.942	1	-2
447.283	1	1
447.624	1	2
447.965	1	8
448.306	1	5
448.647	1	-6
448.988	1	-6
449.329	1	7
449.670	1	7
450.011	1	6
450.352	1	9
450.693	1	2
451.034	1	-1
451.375	1	-5
451.716	1	5
452.057	1	3
452.398	1	2
452.739	1	11
453.080	1	6
453.421	1	-3
453.762	1	6
454.103	1	-1
454.444	1	-1
454.785	1	8
455.126	1	-6
455.467	1	6
455.808	1	2
456.149	1	10
456.490	1	4
456.831	1	17
457.172	1	6
457.513	1	4
457.854	1	-2
458.195	1	-2
458.536	1	-3
458.877	1	0
459.218	1	6
459.559	1	-2
459.899	1	4
460.240	1	0
460.581	1	8
460.922	1	1
461.263	1	-3
461.604	1	-3
461.945	1	8
462.286	1	3
462.627	1	6
462.968	1	-4
463.309	1	-1
463.649	1	-8
463.990	1	4
464.331	1	-7
464.672	1	7
465.013	1	-1
465.354	1	3
465.695	1	-3
466.036	1	1
466.376	1	1
466.717	1	4
467.058	1	-2
467.399	1	14
467.740	1	3
468.081	1	2
468.422	1	-5
468.762	1	-7
469.103	1	-8
469.444	1	0
469.785	1	-3
470.126	1	-9
470.467	1	-1
470.807	1	8
471.148	1	6
471.489	1	-9
471.830	1	-3
472.171	1	9
472.511	1	-6
472.852	1	3
473.193	1	13
473.534	1	10
473.875	1	7
474.215	1	5
474.556	1	12
474.897	1	2
475.238	1	1
475.578	1	-2
475.919	1	0
476.260	1	-4
476.601	1	8
476.942	1	6
477.282	1	-4
477.623	1	-7
477.964	1	3
478.305	1	3
478.645	1	16
478.986	1	2
479.327	1	-5
479.667	1	-7
480.008	1	-7
480.349	1	0
480.690	1	2
481.030	1	-3
481.371	1	5
481.712	1	13
482.053	1	3
482.393	1	0
482.734	1	-4
483.075	1	-6
483.415	1	-6
483.756	1	5
484.097	1	-4
484.437	1	-5
484.778	1	8
485.119	1	-3
485.459	1	13
485.800	1	4
486.141	1	-2
486.481	1	4
486.822	1	15
487.163	1	5
487.503	1	1
487.844	1	10
488.185	1	2
488.525	1	3
488.866	1	9
489.207	1	-8
489.547	1	-6
489.888	1	-7
490.228	1	12
490.569	1	16
490.910	1	8
491.250	1	-6
491.591	1	-2
491.932	1	2
492.272	1	-2
492.613	1	-7
492.953	1	-3
493.294	1	4
493.635	1	-4
493.975	1	3
494.316	1	6
494.656	1	4
494.997	1	1
495.337	1	11
495.678	1	5
496.019	1	8
496.359	1	8
496.700	1	5
497.040	1	5
497.381	1	1
497.721	1	4
498.062	1	3
498.403	1	12
498.743	1	-1
499.084	1	3
499.424	1	11
499.765	1	11
500.105	1	-2
500.446	1	2
500.786	1	-3
501.127	1	2
501.467	1	-2
501.808	1	15
502.148	1	10
502.489	1	7
502.829	1	5
503.170	1	4
503.510	1	8
503.851	1	-1
504.191	1	13
504.532	1	5
504.872	1	2
505.213	1	10
505.553	1	-3
505.894	1	-1
506.234	1	11
506.575	1	8
506.915	1	11
507.256	1	15
507.596	1	2
507.936	1	9
508.277	1	-4
508.617	1	8
508.958	1	6
509.298	1	14
509.639	1	3
509.979	1	7
510.319	1	5
510.660	1	4
511.000	1	3
511.341	1	13
511.681	1	10
512.022	1	-8
512.362	1	3
512.702	1	2
513.043	1	16
513.383	1	-3
513.724	1	6
514.064	1	14
514.404	1	7
514.745	1	4
515.085	1	-1
515.425	1	-3
515.766	1	-9
516.106	1	7
516.447	1	16
516.787	1	12
517.127	1	4
517.468	1	10
517.808	1	5
518.148	1	13
518.489	1	3
518.829	1	19
519.169	1	8
519.510	1	13
519.850	1	4
520.190	1	1
520.531	1	7
520.871	1	9
521.211	1	1
521.552	1	10
521.892	1	6
522.232	1	14
522.573	1	6
522.913	1	12
523.253	1	5
523.593	1	1
523.934	1	9
524.274	1	9
524.614	1	8
524.955	1	3
525.295	1	19
525.635	1	3
525.975	1	12
526.316	1	14
526.656	1	14
526.996	1	15
527.337	1	-2
527.677	1	12
528.017	1	3
528.357	1	12
528.698	1	3
529.038	1	5
529.378	1	4
529.718	1	14
530.058	1	8
530.399	1	11
530.739	1	12
531.079	1	19
531.419	1	8
531.760	1	11
532.100	1	15
532.440	1	10
532.780	1	7
533.120	1	9
533.461	1	10
533.801	1	19
534.141	1	-1
534.481	1	-1
534.821	1	7
535.162	1	14
535.502	1	4
535.842	1	17
536.182	1	4
536.522	1	8
536.862	1	18
537.203	1	2
537.543	1	7
537.883	1	-1
538.223	1	12
538.563	1	13
538.903	1	7
539.243	1	8
539.584	1	11
539.924	1	16
540.264	1	11
540.604	1	14
540.944	1	8
541.284	1	17
541.624	1	18
541.964	1	23
542.305	1	15
542.645	1	15
542.985	1	1
543.325	1	13
543.665	1	23
544.005	1	13
544.345	1	17
544.685	1	15
545.025	1	11
545.365	1	10
545.705	1	12
546.045	1	5
546.386	1	14
546.726	1	-3
547.066	1	11
547.406	1	17
547.746	1	-6
548.086	1	9
548.426	1	10
548.766	1	16
549.106	1	11
549.446	1	9
549.786	1	1
550.126	1	13
550.466	1	13
550.806	1	15
551.146	1	14
551.486	1	14
551.826	1	15
552.166	1	6
552.506	1	14
552.846	1	12
553.186	1	22
553.526	1	7
553.866	1	13
554.206	1	13
554.546	1	15
554.886	1	7
555.226	1	9
555.566	1	16
555.906	1	16
556.246	1	17
556.586	1	9
556.926	1	9
557.266	1	3
557.606	1	12
557.946	1	15
558.286	1	12
558.626	1	7
558.966	1	5
559.306	1	12
559.646	1	5
559.986	1	11
560.325	1	7
560.665	1	11
561.005	1	11
561.345	1	14
561.685	1	13
562.025	1	14
562.365	1	15
562.705	1	10
563.045	1	8
563.385	1	6
563.725	1	14
564.064	1	14
564.404	1	12
564.744	1	17
565.084	1	9
565.424	1	20
565.764	1	7
566.104	1	18
566.444	1	9
566.783	1	15
567.123	1	14
567.463	1	19
567.803	1	6
568.143	1	14
568.483	1	10
568.823	1	0
569.162	1	14
569.502	1	4
569.842	1	11
570.182	1	15
570.522	1	-12
570.862	1	13
571.201	1	24
571.541	1	17
571.881	1	20
572.221	1	3
572.561	1	13
572.900	1	3
573.240	1	10
573.580	1	3
573.920	1	12
574.260	1	18
574.599	1	9
574.939	1	7
575.279	1	17
575.619	1	11
575.959	1	10
576.298	1	25
576.638	1	2
576.978	1	18
577.318	1	10
577.657	1	0
577.997	1	8
578.337	1	25
578.677	1	11
579.016	1	18
579.356	1	2
579.696	1	34
580.036	1	11
580.375	1	13
580.715	1	9
581.055	1	12
581.394	1	9
581.734	1	6
582.074	1	0
582.414	1	12
582.753	1	9
583.093	1	11
583.433	1	17
583.772	1	19
584.112	1	3
584.452	1	-3
584.791	1	14
585.131	1	8
585.471	1	16
585.811	1	17
586.150	1	18
586.490	1	14
586.830	1	2
587.169	1	16
587.509	1	13
587.849	1	16
588.188	1	15
588.528	1	13
588.867	1	12
589.207	1	13
589.547	1	13
589.886	1	1
590.226	1	14
590.566	1	2
590.905	1	8
591.245	1	4
591.585	1	27
591.924	1	6
592.264	1	15
592.603	1	6
592.943	1	8
593.283	1	12
593.622	1	7
593.962	1	15
594.301	1	8
594.641	1	2
594.981	1	2
595.320	1	5
595.660	1	0
595.999	1	12
596.339	1	11
596.678	1	7
597.018	1	1
597.358	1	13
597.697	1	11
598.037	1	4
598.376	1	11
598.716	1	18
599.055	1	12
599.395	1	7
599.734	1	10
600.074	1	11
600.413	1	26
600.753	1	12
601.092	1	18
601.432	1	4
601.771	1	4
602.111	1	2
602.451	1	13
602.790	1	13
603.130	1	13
603.469	1	6
603.809	1	14
604.148	1	17
604.487	1	10
604.827	1	15
605.166	1	13
605.506	1	4
605.845	1	7
606.185	1	13
606.524	1	9
606.864	1	10
607.203	1	12
607.543	1	10
607.882	1	12
608.222	1	17
608.561	1	1
608.901	1	13
609.240	1	12
609.579	1	13
609.919	1	11
610.258	1	14
610.598	1	11
610.937	1	10
611.277	1	4
611.616	1	8
611.955	1	1
612.295	1	4
612.634	1	14
612.974	1	-4
613.313	1	13
613.652	1	16
613.992	1	4
614.331	1	12
614.671	1	10
615.010	1	-7
615.349	1	10
615.689	1	19
616.028	1	15
616.368	1	5
616.707	1	9
617.046	1	4
617.386	1	11
617.725	1	2
618.064	1	3
618.404	1	9
618.743	1	9
619.082	1	8
619.422	1	-3
619.761	1	9
620.100	1	9
620.440	1	10
620.779	1	0
621.118	1	2
621.458	1	0
621.797	1	-1
622.136	1	16
622.476	1	13
622.815	1	13
623.154	1	9
623.494	1	10
623.833	1	7
624.172	1	10
624.511	1	0
624.851	1	1
625.190	1	2
625.529	1	9
625.869	1	2
626.208	1	2
626.547	1	10
626.886	1	12
627.226	1	12
627.565	1	8
627.904	1	5
628.243	1	8
628.583	1	4
628.922	1	7
629.261	1	7
629.600	1	10
629.940	1	3
630.279	1	-4
630.618	1	2
630.957	1	11
631.297	1	1
631.636	1	-5
631.975	1	14
632.314	1	9
632.653	1	15
632.993	1	-5
633.332	1	7
633.671	1	-2
634.010	1	-3
634.349	1	20
634.689	1	8
635.028	1	8
635.367	1	8
635.706	1	5
636.045	1	18
636.384	1	10
636.724	1	13
637.063	1	4
637.402	1	3
637.741	1	7
638.080	1	4
638.419	1	10
638.759	1	4
639.098	1	16
639.437	1	6
639.776	1	-1
640.115	1	3
640.454	1	3
640.793	1	17
641.132	1	8
641.472	1	11
641.811	1	-1
642.150	1	-9
642.489	1	15
642.828	1	7
643.167	1	-5
643.506	1	-7
643.845	1	-4
644.184	1	14
644.524	1	5
644.863	1	3
645.202	1	10
645.541	1	-2
645.880	1	4
646.219	1	8
646.558	1	4
646.897	1	3
647.236	1	5
647.575	1	8
647.914	1	7
648.253	1	15
648.592	1	0
648.931	1	11
649.270	1	0
649.610	1	3
649.949	1	6
650.288	1	13
650.627	1	6
650.966	1	6
651.305	1	3
651.644	1	16
651.983	1	9
652.322	1	-1
652.661	1	5
653.000	1	5
653.339	1	16
653.678	1	5
654.017	1	7
654.356	1	2
654.695	1	11
655.034	1	9
655.373	1	9
655.712	1	-2
656.051	1	12
656.390	1	5
656.729	1	7
657.068	1	-1
657.406	1	11
657.745	1	14
658.084	1	6
658.423	1	18
658.762	1	11
659.101	1	9
659.440	1	1
659.779	1	1
660.118	1	3
660.457	1	5
660.796	1	-6
661.135	1	5
661.474	1	-2
661.813	1	11
662.152	1	10
662.491	1	-2
662.829	1	-3
663.168	1	-1
663.507	1	12
663.846	1	0
664.185	1	7
664.524	1	0
664.863	1	-1
665.202	1	11
665.541	1	1
665.879	1	-7
666.218	1	2
666.557	1	9
666.896	1	3
667.235	1	14
667.574	1	7
667.913	1	11
668.251	1	-2
668.590	1	5
668.929	1	-12
669.268	1	4
669.607	1	5
669.946	1	0
670.285	1	6
670.623	1	2
670.962	1	7
671.301	1	6
671.640	1	13
671.979	1	6
672.317	1	1
672.656	1	-3
672.995	1	10
673.334	1	0
673.673	1	7
674.011	1	7
674.350	1	7
674.689	1	7
675.028	1	3
675.367	1	4
675.705	1	8
676.044	1	1
676.383	1	4
676.722	1	9
677.060	1	-6
677.399	1	-7
677.738	1	8
678.077	1	11
678.416	1	0
678.754	1	1
679.093	1	12
679.432	1	6
679.771	1	5
680.109	1	8
680.448	1	6
680.787	1	14
681.125	1	15
681.464	1	17
681.803	1	-4
682.142	1	7
682.480	1	23
682.819	1	5
683.158	1	0
683.496	1	10
683.835	1	2
684.174	1	9
684.512	1	7
684.851	1	9
685.190	1	-1
685.529	1	10
685.867	1	2
686.206	1	-3
686.545	1	2
686.883	1	1
687.222	1	-2
687.561	1	8
687.899	1	12
688.238	1	6
688.577	1	6
688.746	1	3