File: Data/GaN_200K_800ms/GaN_sample F_spot 12_UVVIS_200 K_200um_800 ms 2x2mm1_65.txt
340.368	1	11
340.710	1	-5
341.052	1	9
341.394	1	-4
341.737	1	7
342.079	1	7
342.421	1	2
342.763	1	7
343.105	1	10
343.447	1	-9
343.789	1	1
344.131	1	7
344.473	1	-6
344.815	1	12
345.157	1	-4
345.499	1	6
345.841	1	9
346.183	1	-6
346.526	1	4
346.868	1	9
347.210	1	6
347.552	1	2
347.894	1	14
348.236	1	10
348.578	1	6
348.920	1	4
349.262	1	4
349.604	1	16
349.946	1	10
350.288	1	19
350.630	1	15
350.972	1	6
351.314	1	8
351.656	1	16
351.998	1	13
352.340	1	11
352.682	1	10
353.024	1	12
353.366	1	20
353.708	1	11
354.050	1	5
354.392	1	11
354.734	1	15
355.076	1	18
355.418	1	8
355.760	1	10
356.102	1	20
356.444	1	19
356.785	1	29
357.127	1	28
357.469	1	21
357.811	1	28
358.153	1	28
358.495	1	25
358.837	1	23
359.179	1	36
359.521	1	44
359.863	1	38
360.205	1	41
360.547	1	40
360.889	1	38
361.231	1	47
361.572	1	50
361.914	1	60
362.256	1	65
362.598	1	48
362.940	1	67
363.282	1	76
363.624	1	91
363.966	1	92
364.308	1	95
364.649	1	109
364.991	1	114
365.333	1	120
365.675	1	126
366.017	1	150
366.359	1	154
366.701	1	161
367.042	1	187
367.384	1	184
367.726	1	209
368.068	1	211
368.410	1	232
368.752	1	225
369.093	1	248
369.435	1	244
369.777	1	240
370.119	1	218
370.461	1	247
370.803	1	228
371.144	1	227
371.486	1	211
371.828	1	222
372.170	1	202
372.512	1	191
372.853	1	172
373.195	1	172
373.537	1	161
373.879	1	157
374.220	1	166
374.562	1	147
374.904	1	128
375.246	1	141
375.588	1	126
375.929	1	121
376.271	1	124
376.613	1	98
376.955	1	105
377.296	1	80
377.638	1	92
377.980	1	91
378.321	1	72
378.663	1	87
379.005	1	73
379.347	1	71
379.688	1	76
380.030	1	65
380.372	1	68
380.714	1	65
381.055	1	61
381.397	1	62
381.739	1	68
382.080	1	56
382.422	1	49
382.764	1	35
383.105	1	48
383.447	1	35
383.789	1	47
384.130	1	46
384.472	1	34
384.814	1	41
385.156	1	44
385.497	1	37
385.839	1	41
386.180	1	41
386.522	1	51
386.864	1	45
387.205	1	22
387.547	1	25
387.889	1	28
388.230	1	35
388.572	1	27
388.914	1	30
389.255	1	32
389.597	1	28
389.939	1	28
390.280	1	24
390.622	1	32
390.963	1	20
391.305	1	28
391.647	1	22
391.988	1	23
392.330	1	26
392.671	1	11
393.013	1	22
393.355	1	16
393.696	1	23
394.038	1	23
394.379	1	18
394.721	1	5
395.062	1	16
395.404	1	7
395.746	1	18
396.087	1	12
396.429	1	22
396.770	1	6
397.112	1	14
397.453	1	22
397.795	1	9
398.136	1	15
398.478	1	16
398.819	1	6
399.161	1	16
399.503	1	15
399.844	1	11
400.186	1	12
400.527	1	17
400.869	1	8
401.210	1	9
401.552	1	-1
401.893	1	7
402.235	1	6
402.576	1	10
402.918	1	20
403.259	1	12
403.601	1	10
403.942	1	14
404.284	1	13
404.625	1	10
404.967	1	4
405.308	1	15
405.649	1	-1
405.991	1	8
406.332	1	11
406.674	1	6
407.015	1	8
407.357	1	0
407.698	1	6
408.040	1	-6
408.381	1	10
408.722	1	-8
409.064	1	5
409.405	1	11
409.747	1	1
410.088	1	16
410.430	1	13
410.771	1	8
411.112	1	4
411.454	1	4
411.795	1	4
412.137	1	12
412.478	1	22
412.819	1	-1
413.161	1	4
413.502	1	6
413.844	1	6
414.185	1	1
414.526	1	4
414.868	1	3
415.209	1	1
415.550	1	5
415.892	1	2
416.233	1	14
416.575	1	13
416.916	1	2
417.257	1	4
417.599	1	13
417.940	1	9
418.281	1	7
418.623	1	-1
418.964	1	-4
419.305	1	9
419.647	1	4
419.988	1	2
420.329	1	-2
420.671	1	5
421.012	1	-2
421.353	1	2
421.695	1	3
422.036	1	4
422.377	1	0
422.718	1	6
423.060	1	2
423.401	1	6
423.742	1	-1
424.084	1	10
424.425	1	5
424.766	1	7
425.107	1	0
425.449	1	3
425.790	1	2
426.131	1	8
426.472	1	4
426.814	1	4
427.155	1	2
427.496	1	7
427.837	1	-1
428.179	1	-5
428.520	1	5
428.861	1	13
429.202	1	7
429.544	1	0
429.885	1	4
430.226	1	-6
430.567	1	-7
430.909	1	2
431.250	1	-3
431.591	1	9
431.932	1	-5
432.273	1	4
432.615	1	-8
432.956	1	-13
433.297	1	10
433.638	1	-6
433.979	1	2
434.320	1	4
434.662	1	12
435.003	1	4
435.344	1	2
435.685	1	1
436.026	1	11
436.368	1	8
436.709	1	2
437.050	1	-1
437.391	1	10
437.732	1	1
438.073	1	1
438.414	1	-7
438.756	1	-3
439.097	1	-4
439.438	1	2
439.779	1	-2
440.120	1	1
440.461	1	10
440.802	1	-6
441.143	1	9
441.485	1	6
441.826	1	1
442.167	1	-7
442.508	1	-3
442.849	1	12
443.190	1	6
443.531	1	4
443.872	1	15
444.213	1	2
444.554	1	10
444.895	1	-6
445.237	1	8
445.578	1	-9
445.919	1	9
446.260	1	0
446.601	1	3
446.942	1	1
447.283	1	-2
447.624	1	-1
447.965	1	6
448.306	1	7
448.647	1	-4
448.988	1	-5
449.329	1	2
449.670	1	11
450.011	1	7
450.352	1	-6
450.693	1	3
451.034	1	-3
451.375	1	5
451.716	1	-5
452.057	1	5
452.398	1	7
452.739	1	9
453.080	1	0
453.421	1	2
453.762	1	16
454.103	1	5
454.444	1	-4
454.785	1	5
455.126	1	4
455.467	1	5
455.808	1	-4
456.149	1	7
456.490	1	2
456.831	1	6
457.172	1	-1
457.513	1	12
457.854	1	3
458.195	1	-1
458.536	1	8
458.877	1	-6
459.218	1	5
459.559	1	17
459.899	1	1
460.240	1	2
460.581	1	14
460.922	1	1
461.263	1	0
461.604	1	-10
461.945	1	6
462.286	1	16
462.627	1	11
462.968	1	4
463.309	1	3
463.649	1	-1
463.990	1	0
464.331	1	1
464.672	1	-6
465.013	1	-16
465.354	1	6
465.695	1	6
466.036	1	-2
466.376	1	-4
466.717	1	13
467.058	1	-1
467.399	1	9
467.740	1	5
468.081	1	3
468.422	1	-3
468.762	1	-5
469.103	1	1
469.444	1	-7
469.785	1	-6
470.126	1	-1
470.467	1	1
470.807	1	4
471.148	1	6
471.489	1	-8
471.830	1	5
472.171	1	1
472.511	1	-2
472.852	1	7
473.193	1	9
473.534	1	6
473.875	1	13
474.215	1	9
474.556	1	3
474.897	1	5
475.238	1	-2
475.578	1	0
475.919	1	6
476.260	1	1
476.601	1	0
476.942	1	14
477.282	1	-8
477.623	1	2
477.964	1	3
478.305	1	-1
478.645	1	14
478.986	1	-5
479.327	1	-5
479.667	1	7
480.008	1	6
480.349	1	3
480.690	1	4
481.030	1	-3
481.371	1	8
481.712	1	9
482.053	1	0
482.393	1	3
482.734	1	-10
483.075	1	6
483.415	1	10
483.756	1	3
484.097	1	4
484.437	1	-2
484.778	1	7
485.119	1	6
485.459	1	21
485.800	1	-2
486.141	1	0
486.481	1	4
486.822	1	5
487.163	1	-1
487.503	1	7
487.844	1	2
488.185	1	4
488.525	1	4
488.866	1	10
489.207	1	0
489.547	1	2
489.888	1	-1
490.228	1	9
490.569	1	15
490.910	1	7
491.250	1	3
491.591	1	4
491.932	1	7
492.272	1	8
492.613	1	14
492.953	1	3
493.294	1	-1
493.635	1	5
493.975	1	4
494.316	1	18
494.656	1	9
494.997	1	5
495.337	1	15
495.678	1	7
496.019	1	9
496.359	1	-7
496.700	1	4
497.040	1	5
497.381	1	7
497.721	1	12
498.062	1	1
498.403	1	14
498.743	1	3
499.084	1	0
499.424	1	3
499.765	1	0
500.105	1	4
500.446	1	-3
500.786	1	4
501.127	1	9
501.467	1	5
501.808	1	7
502.148	1	16
502.489	1	10
502.829	1	5
503.170	1	15
503.510	1	13
503.851	1	10
504.191	1	12
504.532	1	9
504.872	1	8
505.213	1	18
505.553	1	7
505.894	1	2
506.234	1	23
506.575	1	19
506.915	1	14
507.256	1	11
507.596	1	9
507.936	1	14
508.277	1	8
508.617	1	7
508.958	1	12
509.298	1	16
509.639	1	17
509.979	1	4
510.319	1	14
510.660	1	5
511.000	1	9
511.341	1	17
511.681	1	13
512.022	1	6
512.362	1	13
512.702	1	10
513.043	1	17
513.383	1	7
513.724	1	27
514.064	1	12
514.404	1	13
514.745	1	6
515.085	1	18
515.425	1	2
515.766	1	8
516.106	1	6
516.447	1	23
516.787	1	22
517.127	1	9
517.468	1	20
517.808	1	2
518.148	1	14
518.489	1	18
518.829	1	16
519.169	1	17
519.510	1	13
519.850	1	19
520.190	1	26
520.531	1	11
520.871	1	18
521.211	1	6
521.552	1	27
521.892	1	16
522.232	1	14
522.573	1	23
522.913	1	10
523.253	1	19
523.593	1	11
523.934	1	15
524.274	1	13
524.614	1	11
524.955	1	14
525.295	1	24
525.635	1	11
525.975	1	17
526.316	1	26
526.656	1	21
526.996	1	19
527.337	1	8
527.677	1	31
528.017	1	17
528.357	1	13
528.698	1	22
529.038	1	13
529.378	1	24
529.718	1	21
530.058	1	14
530.399	1	26
530.739	1	19
531.079	1	21
531.419	1	25
531.760	1	27
532.100	1	9
532.440	1	18
532.780	1	31
533.120	1	23
533.461	1	20
533.801	1	32
534.141	1	7
534.481	1	18
534.821	1	23
535.162	1	28
535.502	1	18
535.842	1	28
536.182	1	11
536.522	1	13
536.862	1	29
537.203	1	11
537.543	1	20
537.883	1	23
538.223	1	13
538.563	1	24
538.903	1	15
539.243	1	26
539.584	1	8
539.924	1	30
540.264	1	10
540.604	1	18
540.944	1	16
541.284	1	24
541.624	1	16
541.964	1	25
542.305	1	25
542.645	1	30
542.985	1	26
543.325	1	16
543.665	1	23
544.005	1	27
544.345	1	23
544.685	1	24
545.025	1	16
545.365	1	19
545.705	1	22
546.045	1	10
546.386	1	15
546.726	1	23
547.066	1	30
547.406	1	20
547.746	1	4
548.086	1	29
548.426	1	25
548.766	1	24
549.106	1	20
549.446	1	26
549.786	1	28
550.126	1	31
550.466	1	24
550.806	1	22
551.146	1	18
551.486	1	20
551.826	1	30
552.166	1	33
552.506	1	32
552.846	1	27
553.186	1	28
553.526	1	22
553.866	1	24
554.206	1	34
554.546	1	29
554.886	1	21
555.226	1	7
555.566	1	26
555.906	1	21
556.246	1	30
556.586	1	15
556.926	1	34
557.266	1	16
557.606	1	32
557.946	1	39
558.286	1	16
558.626	1	27
558.966	1	19
559.306	1	14
559.646	1	29
559.986	1	15
560.325	1	27
560.665	1	24
561.005	1	21
561.345	1	20
561.685	1	24
562.025	1	30
562.365	1	19
562.705	1	12
563.045	1	20
563.385	1	23
563.725	1	24
564.064	1	19
564.404	1	25
564.744	1	28
565.084	1	28
565.424	1	24
565.764	1	19
566.104	1	18
566.444	1	16
566.783	1	24
567.123	1	19
567.463	1	20
567.803	1	18
568.143	1	15
568.483	1	27
568.823	1	29
569.162	1	24
569.502	1	20
569.842	1	28
570.182	1	19
570.522	1	16
570.862	1	16
571.201	1	34
571.541	1	35
571.881	1	39
572.221	1	14
572.561	1	16
572.900	1	25
573.240	1	18
573.580	1	17
573.920	1	31
574.260	1	30
574.599	1	22
574.939	1	25
575.279	1	29
575.619	1	31
575.959	1	11
576.298	1	33
576.638	1	18
576.978	1	30
577.318	1	26
577.657	1	16
577.997	1	29
578.337	1	28
578.677	1	34
579.016	1	31
579.356	1	9
579.696	1	29
580.036	1	18
580.375	1	20
580.715	1	24
581.055	1	21
581.394	1	10
581.734	1	11
582.074	1	19
582.414	1	22
582.753	1	28
583.093	1	18
583.433	1	21
583.772	1	31
584.112	1	25
584.452	1	9
584.791	1	18
585.131	1	17
585.471	1	28
585.811	1	29
586.150	1	27
586.490	1	22
586.830	1	20
587.169	1	21
587.509	1	22
587.849	1	29
588.188	1	31
588.528	1	24
588.867	1	27
589.207	1	28
589.547	1	13
589.886	1	8
590.226	1	30
590.566	1	15
590.905	1	17
591.245	1	25
591.585	1	17
591.924	1	15
592.264	1	22
592.603	1	22
592.943	1	25
593.283	1	10
593.622	1	19
593.962	1	20
594.301	1	13
594.641	1	10
594.981	1	13
595.320	1	14
595.660	1	13
595.999	1	2
596.339	1	22
596.678	1	13
597.018	1	5
597.358	1	15
597.697	1	16
598.037	1	22
598.376	1	19
598.716	1	25
599.055	1	19
599.395	1	20
599.734	1	17
600.074	1	21
600.413	1	28
600.753	1	17
601.092	1	22
601.432	1	7
601.771	1	12
602.111	1	14
602.451	1	18
602.790	1	19
603.130	1	20
603.469	1	8
603.809	1	17
604.148	1	14
604.487	1	17
604.827	1	19
605.166	1	31
605.506	1	17
605.845	1	12
606.185	1	20
606.524	1	5
606.864	1	18
607.203	1	20
607.543	1	8
607.882	1	28
608.222	1	25
608.561	1	10
608.901	1	25
609.240	1	11
609.579	1	26
609.919	1	34
610.258	1	25
610.598	1	8
610.937	1	27
611.277	1	13
611.616	1	17
611.955	1	21
612.295	1	7
612.634	1	22
612.974	1	8
613.313	1	16
613.652	1	21
613.992	1	10
614.331	1	17
614.671	1	16
615.010	1	5
615.349	1	24
615.689	1	12
616.028	1	20
616.368	1	17
616.707	1	3
617.046	1	11
617.386	1	14
617.725	1	8
618.064	1	6
618.404	1	7
618.743	1	11
619.082	1	17
619.422	1	8
619.761	1	18
620.100	1	18
620.440	1	18
620.779	1	4
621.118	1	20
621.458	1	16
621.797	1	8
622.136	1	26
622.476	1	20
622.815	1	21
623.154	1	16
623.494	1	22
623.833	1	12
624.172	1	10
624.511	1	14
624.851	1	-3
625.190	1	15
625.529	1	25
625.869	1	19
626.208	1	5
626.547	1	24
626.886	1	17
627.226	1	20
627.565	1	9
627.904	1	14
628.243	1	14
628.583	1	11
628.922	1	19
629.261	1	16
629.600	1	19
629.940	1	6
630.279	1	4
630.618	1	4
630.957	1	11
631.297	1	13
631.636	1	2
631.975	1	25
632.314	1	5
632.653	1	16
632.993	1	10
633.332	1	22
633.671	1	9
634.010	1	9
634.349	1	17
634.689	1	6
635.028	1	16
635.367	1	9
635.706	1	9
636.045	1	23
636.384	1	20
636.724	1	10
637.063	1	11
637.402	1	11
637.741	1	2
638.080	1	7
638.419	1	8
638.759	1	6
639.098	1	15
639.437	1	14
639.776	1	10
640.115	1	11
640.454	1	6
640.793	1	18
641.132	1	19
641.472	1	11
641.811	1	2
642.150	1	1
642.489	1	14
642.828	1	7
643.167	1	11
643.506	1	2
643.845	1	11
644.184	1	18
644.524	1	11
644.863	1	7
645.202	1	10
645.541	1	12
645.880	1	14
646.219	1	5
646.558	1	4
646.897	1	11
647.236	1	10
647.575	1	17
647.914	1	3
648.253	1	22
648.592	1	10
648.931	1	16
649.270	1	7
649.610	1	10
649.949	1	7
650.288	1	17
650.627	1	9
650.966	1	11
651.305	1	17
651.644	1	23
651.983	1	19
652.322	1	7
652.661	1	3
653.000	1	7
653.339	1	20
653.678	1	8
654.017	1	-5
654.356	1	0
654.695	1	16
655.034	1	5
655.373	1	17
655.712	1	-2
656.051	1	12
656.390	1	6
656.729	1	19
657.068	1	12
657.406	1	20
657.745	1	1
658.084	1	9
658.423	1	5
658.762	1	4
659.101	1	17
659.440	1	5
659.779	1	13
660.118	1	9
660.457	1	6
660.796	1	-2
661.135	1	2
661.474	1	3
661.813	1	16
662.152	1	5
662.491	1	4
662.829	1	3
663.168	1	7
663.507	1	9
663.846	1	10
664.185	1	11
664.524	1	6
664.863	1	10
665.202	1	8
665.541	1	1
665.879	1	2
666.218	1	5
666.557	1	11
666.896	1	6
667.235	1	14
667.574	1	2
667.913	1	11
668.251	1	2
668.590	1	7
668.929	1	6
669.268	1	7
669.607	1	6
669.946	1	-2
670.285	1	11
670.623	1	13
670.962	1	15
671.301	1	10
671.640	1	8
671.979	1	4
672.317	1	10
672.656	1	15
672.995	1	14
673.334	1	-2
673.673	1	1
674.011	1	5
674.350	1	9
674.689	1	9
675.028	1	3
675.367	1	15
675.705	1	11
676.044	1	4
676.383	1	14
676.722	1	12
677.060	1	5
677.399	1	12
677.738	1	14
678.077	1	15
678.416	1	12
678.754	1	-1
679.093	1	16
679.432	1	0
679.771	1	7
680.109	1	14
680.448	1	4
680.787	1	9
681.125	1	25
681.464	1	2
681.803	1	8
682.142	1	13
682.480	1	21
682.819	1	10
683.158	1	8
683.496	1	14
683.835	1	11
684.174	1	5
684.512	1	10
684.851	1	9
685.190	1	2
685.529	1	3
685.867	1	6
686.206	1	-3
686.545	1	-6
686.883	1	12
687.222	1	6
687.561	1	8
687.899	1	9
688.238	1	7
688.577	1	9
688.746	1	6