File: Data/GaN_200K_800ms/GaN_sample F_spot 12_UVVIS_200 K_200um_800 ms 2x2mm1_523.txt
340.368	1	3
340.710	1	-11
341.052	1	3
341.394	1	-4
341.737	1	5
342.079	1	1
342.421	1	-10
342.763	1	3
343.105	1	4
343.447	1	1
343.789	1	3
344.131	1	-1
344.473	1	-9
344.815	1	-1
345.157	1	-8
345.499	1	0
345.841	1	-6
346.183	1	-2
346.526	1	-6
346.868	1	4
347.210	1	-13
347.552	1	-2
347.894	1	4
348.236	1	8
348.578	1	2
348.920	1	-1
349.262	1	5
349.604	1	4
349.946	1	0
350.288	1	6
350.630	1	-4
350.972	1	-6
351.314	1	5
351.656	1	6
351.998	1	2
352.340	1	9
352.682	1	4
353.024	1	9
353.366	1	8
353.708	1	0
354.050	1	-6
354.392	1	1
354.734	1	-4
355.076	1	2
355.418	1	-10
355.760	1	-6
356.102	1	16
356.444	1	1
356.785	1	3
357.127	1	-5
357.469	1	5
357.811	1	4
358.153	1	4
358.495	1	0
358.837	1	-5
359.179	1	-1
359.521	1	6
359.863	1	-1
360.205	1	1
360.547	1	5
360.889	1	-2
361.231	1	-9
361.572	1	6
361.914	1	6
362.256	1	9
362.598	1	-5
362.940	1	-4
363.282	1	3
363.624	1	9
363.966	1	-4
364.308	1	5
364.649	1	5
364.991	1	-5
365.333	1	-3
365.675	1	-9
366.017	1	3
366.359	1	7
366.701	1	3
367.042	1	8
367.384	1	6
367.726	1	-1
368.068	1	11
368.410	1	7
368.752	1	4
369.093	1	-3
369.435	1	5
369.777	1	-3
370.119	1	5
370.461	1	15
370.803	1	4
371.144	1	5
371.486	1	5
371.828	1	8
372.170	1	14
372.512	1	10
372.853	1	1
373.195	1	-4
373.537	1	3
373.879	1	-2
374.220	1	20
374.562	1	14
374.904	1	6
375.246	1	8
375.588	1	6
375.929	1	9
376.271	1	13
376.613	1	-5
376.955	1	-1
377.296	1	-12
377.638	1	2
377.980	1	3
378.321	1	-8
378.663	1	2
379.005	1	4
379.347	1	5
379.688	1	4
380.030	1	-8
380.372	1	-2
380.714	1	6
381.055	1	7
381.397	1	-6
381.739	1	8
382.080	1	-2
382.422	1	-2
382.764	1	0
383.105	1	-3
383.447	1	-3
383.789	1	-4
384.130	1	0
384.472	1	-1
384.814	1	-1
385.156	1	-5
385.497	1	-8
385.839	1	1
386.180	1	-3
386.522	1	8
386.864	1	5
387.205	1	-7
387.547	1	1
387.889	1	-5
388.230	1	1
388.572	1	-6
388.914	1	-7
389.255	1	-2
389.597	1	3
389.939	1	0
390.280	1	2
390.622	1	-7
390.963	1	6
391.305	1	6
391.647	1	2
391.988	1	0
392.330	1	5
392.671	1	-8
393.013	1	-4
393.355	1	-1
393.696	1	1
394.038	1	2
394.379	1	10
394.721	1	6
395.062	1	5
395.404	1	-3
395.746	1	7
396.087	1	-1
396.429	1	1
396.770	1	0
397.112	1	1
397.453	1	9
397.795	1	-1
398.136	1	-7
398.478	1	-2
398.819	1	-4
399.161	1	14
399.503	1	-4
399.844	1	1
400.186	1	-4
400.527	1	-3
400.869	1	5
401.210	1	0
401.552	1	-6
401.893	1	-3
402.235	1	-6
402.576	1	1
402.918	1	8
403.259	1	2
403.601	1	-6
403.942	1	8
404.284	1	4
404.625	1	8
404.967	1	4
405.308	1	4
405.649	1	6
405.991	1	-5
406.332	1	6
406.674	1	-7
407.015	1	3
407.357	1	0
407.698	1	7
408.040	1	-13
408.381	1	2
408.722	1	-13
409.064	1	-4
409.405	1	7
409.747	1	-3
410.088	1	1
410.430	1	5
410.771	1	-2
411.112	1	-5
411.454	1	-4
411.795	1	-8
412.137	1	2
412.478	1	6
412.819	1	-9
413.161	1	2
413.502	1	-7
413.844	1	-1
414.185	1	4
414.526	1	0
414.868	1	3
415.209	1	3
415.550	1	-14
415.892	1	-4
416.233	1	1
416.575	1	11
416.916	1	-6
417.257	1	-2
417.599	1	-1
417.940	1	4
418.281	1	-1
418.623	1	-10
418.964	1	-13
419.305	1	-1
419.647	1	-2
419.988	1	-2
420.329	1	-6
420.671	1	0
421.012	1	-1
421.353	1	-2
421.695	1	-1
422.036	1	1
422.377	1	4
422.718	1	3
423.060	1	-6
423.401	1	2
423.742	1	6
424.084	1	-7
424.425	1	-2
424.766	1	-7
425.107	1	-2
425.449	1	2
425.790	1	-10
426.131	1	-3
426.472	1	-9
426.814	1	3
427.155	1	-10
427.496	1	-8
427.837	1	-5
428.179	1	-4
428.520	1	6
428.861	1	1
429.202	1	13
429.544	1	1
429.885	1	-3
430.226	1	-8
430.567	1	-9
430.909	1	-3
431.250	1	3
431.591	1	4
431.932	1	-13
432.273	1	-8
432.615	1	-9
432.956	1	-8
433.297	1	-3
433.638	1	-3
433.979	1	3
434.320	1	7
434.662	1	1
435.003	1	11
435.344	1	3
435.685	1	-7
436.026	1	6
436.368	1	-9
436.709	1	-3
437.050	1	-5
437.391	1	13
437.732	1	3
438.073	1	-5
438.414	1	-17
438.756	1	-8
439.097	1	-11
439.438	1	-5
439.779	1	-5
440.120	1	-3
440.461	1	2
440.802	1	-6
441.143	1	-2
441.485	1	-2
441.826	1	-3
442.167	1	4
442.508	1	-4
442.849	1	8
443.190	1	2
443.531	1	10
443.872	1	-4
444.213	1	-1
444.554	1	7
444.895	1	-5
445.237	1	-5
445.578	1	-12
445.919	1	-7
446.260	1	3
446.601	1	-5
446.942	1	1
447.283	1	-12
447.624	1	-10
447.965	1	0
448.306	1	-2
448.647	1	-1
448.988	1	-3
449.329	1	-4
449.670	1	-3
450.011	1	5
450.352	1	-2
450.693	1	-4
451.034	1	-2
451.375	1	-3
451.716	1	-1
452.057	1	-2
452.398	1	-4
452.739	1	15
453.080	1	-7
453.421	1	-1
453.762	1	1
454.103	1	-1
454.444	1	-5
454.785	1	-3
455.126	1	-12
455.467	1	5
455.808	1	-2
456.149	1	2
456.490	1	-4
456.831	1	5
457.172	1	1
457.513	1	6
457.854	1	-1
458.195	1	-8
458.536	1	4
458.877	1	1
459.218	1	-10
459.559	1	2
459.899	1	1
460.240	1	-3
460.581	1	3
460.922	1	-1
461.263	1	-11
461.604	1	-1
461.945	1	-14
462.286	1	-1
462.627	1	2
462.968	1	3
463.309	1	0
463.649	1	3
463.990	1	-5
464.331	1	-1
464.672	1	3
465.013	1	-13
465.354	1	8
465.695	1	-4
466.036	1	-8
466.376	1	-5
466.717	1	0
467.058	1	-1
467.399	1	5
467.740	1	-5
468.081	1	0
468.422	1	-7
468.762	1	-2
469.103	1	4
469.444	1	-7
469.785	1	-8
470.126	1	-9
470.467	1	-4
470.807	1	-6
471.148	1	3
471.489	1	-5
471.830	1	-5
472.171	1	-2
472.511	1	-6
472.852	1	-5
473.193	1	4
473.534	1	5
473.875	1	12
474.215	1	-2
474.556	1	-4
474.897	1	7
475.238	1	-4
475.578	1	-9
475.919	1	0
476.260	1	-3
476.601	1	-7
476.942	1	2
477.282	1	1
477.623	1	-10
477.964	1	-4
478.305	1	3
478.645	1	10
478.986	1	-6
479.327	1	-9
479.667	1	-3
480.008	1	1
480.349	1	-4
480.690	1	-3
481.030	1	1
481.371	1	-7
481.712	1	3
482.053	1	5
482.393	1	-1
482.734	1	-13
483.075	1	-6
483.415	1	-4
483.756	1	6
484.097	1	-5
484.437	1	-6
484.778	1	5
485.119	1	-5
485.459	1	15
485.800	1	-11
486.141	1	-5
486.481	1	2
486.822	1	4
487.163	1	-2
487.503	1	7
487.844	1	-1
488.185	1	-6
488.525	1	-8
488.866	1	7
489.207	1	-6
489.547	1	-9
489.888	1	-5
490.228	1	2
490.569	1	6
490.910	1	1
491.250	1	-12
491.591	1	-5
491.932	1	2
492.272	1	6
492.613	1	-9
492.953	1	-1
493.294	1	-16
493.635	1	-7
493.975	1	5
494.316	1	4
494.656	1	-2
494.997	1	-7
495.337	1	6
495.678	1	0
496.019	1	8
496.359	1	-6
496.700	1	-7
497.040	1	-5
497.381	1	-3
497.721	1	-6
498.062	1	3
498.403	1	-7
498.743	1	-3
499.084	1	-10
499.424	1	-9
499.765	1	-11
500.105	1	-5
500.446	1	-3
500.786	1	-9
501.127	1	-1
501.467	1	-8
501.808	1	1
502.148	1	-2
502.489	1	5
502.829	1	-5
503.170	1	2
503.510	1	1
503.851	1	4
504.191	1	8
504.532	1	3
504.872	1	-2
505.213	1	5
505.553	1	-6
505.894	1	-2
506.234	1	9
506.575	1	6
506.915	1	-2
507.256	1	4
507.596	1	-6
507.936	1	7
508.277	1	-1
508.617	1	-6
508.958	1	-6
509.298	1	3
509.639	1	-4
509.979	1	-1
510.319	1	-6
510.660	1	0
511.000	1	-9
511.341	1	5
511.681	1	-2
512.022	1	-4
512.362	1	-5
512.702	1	-10
513.043	1	1
513.383	1	-7
513.724	1	2
514.064	1	6
514.404	1	1
514.745	1	-8
515.085	1	2
515.425	1	-6
515.766	1	-8
516.106	1	5
516.447	1	4
516.787	1	1
517.127	1	2
517.468	1	-3
517.808	1	-10
518.148	1	0
518.489	1	1
518.829	1	1
519.169	1	3
519.510	1	2
519.850	1	4
520.190	1	-6
520.531	1	1
520.871	1	8
521.211	1	-10
521.552	1	3
521.892	1	-4
522.232	1	10
522.573	1	-7
522.913	1	1
523.253	1	-3
523.593	1	-3
523.934	1	-5
524.274	1	1
524.614	1	-9
524.955	1	-8
525.295	1	2
525.635	1	-10
525.975	1	-1
526.316	1	5
526.656	1	-3
526.996	1	-2
527.337	1	-10
527.677	1	5
528.017	1	-8
528.357	1	1
528.698	1	0
529.038	1	-2
529.378	1	-5
529.718	1	4
530.058	1	3
530.399	1	11
530.739	1	-3
531.079	1	8
531.419	1	-3
531.760	1	5
532.100	1	-8
532.440	1	4
532.780	1	-1
533.120	1	8
533.461	1	-2
533.801	1	9
534.141	1	-9
534.481	1	-3
534.821	1	9
535.162	1	-2
535.502	1	-11
535.842	1	4
536.182	1	3
536.522	1	-6
536.862	1	2
537.203	1	-6
537.543	1	0
537.883	1	-11
538.223	1	3
538.563	1	-5
538.903	1	-14
539.243	1	0
539.584	1	-3
539.924	1	7
540.264	1	-2
540.604	1	1
540.944	1	-3
541.284	1	1
541.624	1	3
541.964	1	12
542.305	1	4
542.645	1	3
542.985	1	5
543.325	1	-3
543.665	1	10
544.005	1	12
544.345	1	3
544.685	1	4
545.025	1	5
545.365	1	5
545.705	1	8
546.045	1	-3
546.386	1	4
546.726	1	-4
547.066	1	5
547.406	1	-3
547.746	1	-2
548.086	1	4
548.426	1	-7
548.766	1	5
549.106	1	1
549.446	1	0
549.786	1	0
550.126	1	16
550.466	1	5
550.806	1	-3
551.146	1	-1
551.486	1	5
551.826	1	7
552.166	1	0
552.506	1	4
552.846	1	-3
553.186	1	2
553.526	1	-9
553.866	1	-5
554.206	1	10
554.546	1	-1
554.886	1	9
555.226	1	-5
555.566	1	6
555.906	1	2
556.246	1	4
556.586	1	0
556.926	1	-8
557.266	1	-2
557.606	1	1
557.946	1	11
558.286	1	0
558.626	1	5
558.966	1	-2
559.306	1	-5
559.646	1	-3
559.986	1	-10
560.325	1	-16
560.665	1	-4
561.005	1	-7
561.345	1	1
561.685	1	-4
562.025	1	-1
562.365	1	7
562.705	1	2
563.045	1	-3
563.385	1	-11
563.725	1	4
564.064	1	-8
564.404	1	5
564.744	1	0
565.084	1	-4
565.424	1	1
565.764	1	-1
566.104	1	-4
566.444	1	-13
566.783	1	-10
567.123	1	3
567.463	1	2
567.803	1	5
568.143	1	0
568.483	1	-5
568.823	1	8
569.162	1	2
569.502	1	-6
569.842	1	2
570.182	1	2
570.522	1	-5
570.862	1	-3
571.201	1	12
571.541	1	7
571.881	1	7
572.221	1	-1
572.561	1	-5
572.900	1	-7
573.240	1	-2
573.580	1	-5
573.920	1	6
574.260	1	6
574.599	1	4
574.939	1	0
575.279	1	7
575.619	1	-3
575.959	1	-11
576.298	1	9
576.638	1	0
576.978	1	6
577.318	1	6
577.657	1	-8
577.997	1	-9
578.337	1	14
578.677	1	7
579.016	1	7
579.356	1	-11
579.696	1	10
580.036	1	-5
580.375	1	-3
580.715	1	-8
581.055	1	-3
581.394	1	-8
581.734	1	-7
582.074	1	-5
582.414	1	-1
582.753	1	-1
583.093	1	-5
583.433	1	-6
583.772	1	6
584.112	1	1
584.452	1	-5
584.791	1	-11
585.131	1	1
585.471	1	3
585.811	1	5
586.150	1	-4
586.490	1	9
586.830	1	0
587.169	1	0
587.509	1	-1
587.849	1	-1
588.188	1	9
588.528	1	-2
588.867	1	1
589.207	1	2
589.547	1	-8
589.886	1	-7
590.226	1	2
590.566	1	2
590.905	1	3
591.245	1	-8
591.585	1	9
591.924	1	1
592.264	1	8
592.603	1	-8
592.943	1	6
593.283	1	-5
593.622	1	-9
593.962	1	-2
594.301	1	0
594.641	1	-3
594.981	1	-9
595.320	1	-6
595.660	1	2
595.999	1	-6
596.339	1	6
596.678	1	-10
597.018	1	-3
597.358	1	5
597.697	1	1
598.037	1	-5
598.376	1	-6
598.716	1	10
599.055	1	0
599.395	1	1
599.734	1	3
600.074	1	0
600.413	1	4
600.753	1	5
601.092	1	7
601.432	1	-11
601.771	1	7
602.111	1	4
602.451	1	2
602.790	1	6
603.130	1	4
603.469	1	-6
603.809	1	8
604.148	1	-9
604.487	1	-3
604.827	1	3
605.166	1	0
605.506	1	-10
605.845	1	-8
606.185	1	3
606.524	1	-2
606.864	1	-6
607.203	1	-3
607.543	1	-3
607.882	1	11
608.222	1	-1
608.561	1	6
608.901	1	3
609.240	1	-8
609.579	1	-1
609.919	1	10
610.258	1	9
610.598	1	-3
610.937	1	6
611.277	1	-1
611.616	1	-4
611.955	1	-7
612.295	1	-7
612.634	1	-11
612.974	1	-12
613.313	1	6
613.652	1	4
613.992	1	-3
614.331	1	-2
614.671	1	1
615.010	1	-6
615.349	1	6
615.689	1	9
616.028	1	-10
616.368	1	4
616.707	1	-3
617.046	1	4
617.386	1	-4
617.725	1	5
618.064	1	-8
618.404	1	0
618.743	1	5
619.082	1	0
619.422	1	-8
619.761	1	1
620.100	1	2
620.440	1	1
620.779	1	-4
621.118	1	4
621.458	1	3
621.797	1	-9
622.136	1	15
622.476	1	3
622.815	1	12
623.154	1	-3
623.494	1	9
623.833	1	5
624.172	1	-3
624.511	1	0
624.851	1	-9
625.190	1	-2
625.529	1	1
625.869	1	3
626.208	1	3
626.547	1	0
626.886	1	3
627.226	1	1
627.565	1	-1
627.904	1	-3
628.243	1	-1
628.583	1	-2
628.922	1	7
629.261	1	-2
629.600	1	5
629.940	1	-4
630.279	1	-5
630.618	1	0
630.957	1	3
631.297	1	10
631.636	1	-14
631.975	1	12
632.314	1	5
632.653	1	-7
632.993	1	4
633.332	1	-2
633.671	1	-5
634.010	1	-4
634.349	1	7
634.689	1	1
635.028	1	14
635.367	1	4
635.706	1	-6
636.045	1	9
636.384	1	-6
636.724	1	2
637.063	1	-3
637.402	1	11
637.741	1	3
638.080	1	-11
638.419	1	-10
638.759	1	-9
639.098	1	-3
639.437	1	3
639.776	1	-11
640.115	1	-4
640.454	1	-7
640.793	1	13
641.132	1	2
641.472	1	8
641.811	1	2
642.150	1	-14
642.489	1	5
642.828	1	-11
643.167	1	-7
643.506	1	-15
643.845	1	-10
644.184	1	1
644.524	1	-4
644.863	1	-10
645.202	1	-5
645.541	1	-5
645.880	1	-1
646.219	1	-2
646.558	1	-1
646.897	1	0
647.236	1	-2
647.575	1	4
647.914	1	-6
648.253	1	3
648.592	1	1
648.931	1	3
649.270	1	-5
649.610	1	-7
649.949	1	-5
650.288	1	-1
650.627	1	2
650.966	1	2
651.305	1	-3
651.644	1	-2
651.983	1	5
652.322	1	-9
652.661	1	-11
653.000	1	0
653.339	1	4
653.678	1	6
654.017	1	4
654.356	1	-7
654.695	1	-4
655.034	1	-3
655.373	1	5
655.712	1	1
656.051	1	-3
656.390	1	-5
656.729	1	14
657.068	1	8
657.406	1	-1
657.745	1	1
658.084	1	9
658.423	1	9
658.762	1	-5
659.101	1	1
659.440	1	0
659.779	1	0
660.118	1	-5
660.457	1	8
660.796	1	-9
661.135	1	-10
661.474	1	-8
661.813	1	6
662.152	1	-3
662.491	1	-13
662.829	1	-5
663.168	1	-5
663.507	1	11
663.846	1	-5
664.185	1	-4
664.524	1	2
664.863	1	-5
665.202	1	1
665.541	1	-10
665.879	1	-16
666.218	1	-7
666.557	1	-11
666.896	1	-5
667.235	1	9
667.574	1	0
667.913	1	4
668.251	1	-7
668.590	1	0
668.929	1	-6
669.268	1	-3
669.607	1	-4
669.946	1	8
670.285	1	5
670.623	1	-6
670.962	1	-3
671.301	1	1
671.640	1	-1
671.979	1	1
672.317	1	5
672.656	1	-6
672.995	1	10
673.334	1	-4
673.673	1	-1
674.011	1	-1
674.350	1	5
674.689	1	-1
675.028	1	0
675.367	1	4
675.705	1	-1
676.044	1	2
676.383	1	3
676.722	1	2
677.060	1	-7
677.399	1	-10
677.738	1	5
678.077	1	3
678.416	1	4
678.754	1	-7
679.093	1	6
679.432	1	-4
679.771	1	1
680.109	1	11
680.448	1	-2
680.787	1	-3
681.125	1	-1
681.464	1	3
681.803	1	-2
682.142	1	3
682.480	1	2
682.819	1	8
683.158	1	0
683.496	1	-1
683.835	1	-7
684.174	1	-6
684.512	1	2
684.851	1	5
685.190	1	2
685.529	1	-4
685.867	1	-3
686.206	1	-3
686.545	1	-15
686.883	1	0
687.222	1	5
687.561	1	-3
687.899	1	2
688.238	1	-1
688.577	1	-7
688.746	1	0