File: Data/GaN_200K_800ms/GaN_sample F_spot 12_UVVIS_200 K_200um_800 ms 2x2mm1_175.txt
340.368	1	7
340.710	1	-5
341.052	1	-1
341.394	1	-4
341.737	1	-4
342.079	1	-1
342.421	1	-5
342.763	1	-2
343.105	1	0
343.447	1	-8
343.789	1	-3
344.131	1	0
344.473	1	-2
344.815	1	1
345.157	1	2
345.499	1	3
345.841	1	0
346.183	1	0
346.526	1	-6
346.868	1	4
347.210	1	-13
347.552	1	-7
347.894	1	2
348.236	1	4
348.578	1	3
348.920	1	6
349.262	1	9
349.604	1	-2
349.946	1	-8
350.288	1	13
350.630	1	2
350.972	1	1
351.314	1	5
351.656	1	4
351.998	1	7
352.340	1	3
352.682	1	4
353.024	1	8
353.366	1	18
353.708	1	7
354.050	1	-3
354.392	1	-7
354.734	1	5
355.076	1	2
355.418	1	-10
355.760	1	3
356.102	1	9
356.444	1	13
356.785	1	4
357.127	1	2
357.469	1	5
357.811	1	1
358.153	1	17
358.495	1	8
358.837	1	-3
359.179	1	10
359.521	1	13
359.863	1	8
360.205	1	0
360.547	1	11
360.889	1	-7
361.231	1	4
361.572	1	8
361.914	1	8
362.256	1	21
362.598	1	7
362.940	1	15
363.282	1	18
363.624	1	23
363.966	1	14
364.308	1	7
364.649	1	24
364.991	1	21
365.333	1	15
365.675	1	7
366.017	1	24
366.359	1	30
366.701	1	31
367.042	1	35
367.384	1	43
367.726	1	28
368.068	1	49
368.410	1	44
368.752	1	26
369.093	1	43
369.435	1	37
369.777	1	41
370.119	1	37
370.461	1	56
370.803	1	43
371.144	1	44
371.486	1	36
371.828	1	33
372.170	1	31
372.512	1	24
372.853	1	33
373.195	1	32
373.537	1	28
373.879	1	28
374.220	1	40
374.562	1	39
374.904	1	25
375.246	1	28
375.588	1	20
375.929	1	16
376.271	1	34
376.613	1	15
376.955	1	14
377.296	1	17
377.638	1	25
377.980	1	14
378.321	1	6
378.663	1	4
379.005	1	19
379.347	1	20
379.688	1	19
380.030	1	11
380.372	1	7
380.714	1	18
381.055	1	21
381.397	1	20
381.739	1	15
382.080	1	13
382.422	1	9
382.764	1	-5
383.105	1	10
383.447	1	-3
383.789	1	3
384.130	1	5
384.472	1	3
384.814	1	10
385.156	1	7
385.497	1	15
385.839	1	3
386.180	1	8
386.522	1	14
386.864	1	13
387.205	1	0
387.547	1	2
387.889	1	8
388.230	1	12
388.572	1	-8
388.914	1	7
389.255	1	1
389.597	1	3
389.939	1	-1
390.280	1	4
390.622	1	5
390.963	1	9
391.305	1	16
391.647	1	1
391.988	1	0
392.330	1	19
392.671	1	3
393.013	1	-1
393.355	1	5
393.696	1	8
394.038	1	9
394.379	1	12
394.721	1	-3
395.062	1	1
395.404	1	1
395.746	1	10
396.087	1	5
396.429	1	15
396.770	1	3
397.112	1	4
397.453	1	16
397.795	1	3
398.136	1	-4
398.478	1	3
398.819	1	-4
399.161	1	16
399.503	1	3
399.844	1	4
400.186	1	-7
400.527	1	1
400.869	1	4
401.210	1	12
401.552	1	-2
401.893	1	-2
402.235	1	0
402.576	1	-4
402.918	1	11
403.259	1	3
403.601	1	-3
403.942	1	8
404.284	1	11
404.625	1	9
404.967	1	-6
405.308	1	11
405.649	1	-2
405.991	1	-8
406.332	1	2
406.674	1	-3
407.015	1	3
407.357	1	1
407.698	1	9
408.040	1	-10
408.381	1	2
408.722	1	-15
409.064	1	5
409.405	1	18
409.747	1	1
410.088	1	1
410.430	1	8
410.771	1	-2
411.112	1	2
411.454	1	-5
411.795	1	-3
412.137	1	12
412.478	1	8
412.819	1	-4
413.161	1	-6
413.502	1	-2
413.844	1	1
414.185	1	12
414.526	1	3
414.868	1	-8
415.209	1	4
415.550	1	-3
415.892	1	-3
416.233	1	7
416.575	1	4
416.916	1	-7
417.257	1	0
417.599	1	6
417.940	1	10
418.281	1	10
418.623	1	-9
418.964	1	-14
419.305	1	7
419.647	1	3
419.988	1	0
420.329	1	-9
420.671	1	1
421.012	1	16
421.353	1	-1
421.695	1	-3
422.036	1	1
422.377	1	-1
422.718	1	10
423.060	1	5
423.401	1	12
423.742	1	0
424.084	1	1
424.425	1	5
424.766	1	-5
425.107	1	-7
425.449	1	-3
425.790	1	-7
426.131	1	8
426.472	1	4
426.814	1	0
427.155	1	-3
427.496	1	0
427.837	1	-2
428.179	1	-4
428.520	1	4
428.861	1	-5
429.202	1	5
429.544	1	-1
429.885	1	3
430.226	1	-7
430.567	1	-3
430.909	1	5
431.250	1	3
431.591	1	-1
431.932	1	-1
432.273	1	2
432.615	1	-11
432.956	1	-2
433.297	1	14
433.638	1	-5
433.979	1	8
434.320	1	8
434.662	1	5
435.003	1	8
435.344	1	6
435.685	1	-1
436.026	1	1
436.368	1	6
436.709	1	-1
437.050	1	-7
437.391	1	11
437.732	1	-5
438.073	1	-3
438.414	1	-7
438.756	1	-5
439.097	1	-12
439.438	1	-6
439.779	1	1
440.120	1	5
440.461	1	3
440.802	1	-6
441.143	1	4
441.485	1	10
441.826	1	8
442.167	1	-5
442.508	1	-7
442.849	1	4
443.190	1	-2
443.531	1	9
443.872	1	7
444.213	1	9
444.554	1	5
444.895	1	2
445.237	1	-4
445.578	1	-3
445.919	1	-5
446.260	1	-6
446.601	1	-2
446.942	1	12
447.283	1	-4
447.624	1	-12
447.965	1	-10
448.306	1	10
448.647	1	4
448.988	1	-6
449.329	1	-5
449.670	1	1
450.011	1	6
450.352	1	0
450.693	1	-10
451.034	1	-4
451.375	1	1
451.716	1	7
452.057	1	2
452.398	1	3
452.739	1	7
453.080	1	-4
453.421	1	12
453.762	1	0
454.103	1	-2
454.444	1	-8
454.785	1	-11
455.126	1	-2
455.467	1	-3
455.808	1	0
456.149	1	1
456.490	1	3
456.831	1	7
457.172	1	4
457.513	1	7
457.854	1	1
458.195	1	-6
458.536	1	6
458.877	1	0
459.218	1	-1
459.559	1	0
459.899	1	2
460.240	1	7
460.581	1	24
460.922	1	3
461.263	1	-4
461.604	1	0
461.945	1	1
462.286	1	-1
462.627	1	6
462.968	1	-3
463.309	1	-1
463.649	1	-2
463.990	1	-1
464.331	1	-2
464.672	1	-1
465.013	1	-2
465.354	1	1
465.695	1	-3
466.036	1	12
466.376	1	-7
466.717	1	-1
467.058	1	3
467.399	1	8
467.740	1	4
468.081	1	2
468.422	1	-5
468.762	1	-5
469.103	1	-1
469.444	1	-11
469.785	1	-9
470.126	1	-12
470.467	1	-5
470.807	1	-5
471.148	1	-3
471.489	1	-4
471.830	1	1
472.171	1	5
472.511	1	-2
472.852	1	4
473.193	1	5
473.534	1	-2
473.875	1	2
474.215	1	7
474.556	1	3
474.897	1	3
475.238	1	3
475.578	1	-10
475.919	1	-4
476.260	1	-7
476.601	1	1
476.942	1	6
477.282	1	-7
477.623	1	-6
477.964	1	-5
478.305	1	-1
478.645	1	12
478.986	1	0
479.327	1	-3
479.667	1	1
480.008	1	-3
480.349	1	0
480.690	1	3
481.030	1	-5
481.371	1	6
481.712	1	4
482.053	1	1
482.393	1	8
482.734	1	-8
483.075	1	-2
483.415	1	1
483.756	1	4
484.097	1	-3
484.437	1	-5
484.778	1	-2
485.119	1	-2
485.459	1	11
485.800	1	2
486.141	1	-7
486.481	1	-6
486.822	1	8
487.163	1	-12
487.503	1	6
487.844	1	9
488.185	1	-6
488.525	1	1
488.866	1	1
489.207	1	-3
489.547	1	-6
489.888	1	-1
490.228	1	9
490.569	1	20
490.910	1	4
491.250	1	0
491.591	1	-5
491.932	1	5
492.272	1	0
492.613	1	-2
492.953	1	4
493.294	1	-4
493.635	1	7
493.975	1	2
494.316	1	9
494.656	1	-1
494.997	1	-1
495.337	1	17
495.678	1	1
496.019	1	-3
496.359	1	6
496.700	1	6
497.040	1	-6
497.381	1	2
497.721	1	-1
498.062	1	-3
498.403	1	3
498.743	1	2
499.084	1	4
499.424	1	5
499.765	1	-2
500.105	1	-1
500.446	1	-5
500.786	1	-12
501.127	1	2
501.467	1	-12
501.808	1	1
502.148	1	5
502.489	1	4
502.829	1	-3
503.170	1	12
503.510	1	6
503.851	1	1
504.191	1	4
504.532	1	4
504.872	1	-1
505.213	1	2
505.553	1	-6
505.894	1	-5
506.234	1	7
506.575	1	4
506.915	1	-1
507.256	1	17
507.596	1	4
507.936	1	14
508.277	1	-2
508.617	1	8
508.958	1	-14
509.298	1	3
509.639	1	-6
509.979	1	-2
510.319	1	6
510.660	1	-4
511.000	1	5
511.341	1	7
511.681	1	2
512.022	1	-5
512.362	1	-6
512.702	1	-2
513.043	1	4
513.383	1	-11
513.724	1	5
514.064	1	10
514.404	1	-1
514.745	1	-6
515.085	1	2
515.425	1	-7
515.766	1	-7
516.106	1	-1
516.447	1	17
516.787	1	15
517.127	1	2
517.468	1	5
517.808	1	4
518.148	1	6
518.489	1	-5
518.829	1	10
519.169	1	4
519.510	1	8
519.850	1	18
520.190	1	-2
520.531	1	9
520.871	1	5
521.211	1	-6
521.552	1	11
521.892	1	1
522.232	1	12
522.573	1	2
522.913	1	-1
523.253	1	0
523.593	1	-4
523.934	1	9
524.274	1	9
524.614	1	0
524.955	1	-4
525.295	1	-4
525.635	1	-3
525.975	1	17
526.316	1	12
526.656	1	-5
526.996	1	5
527.337	1	1
527.677	1	3
528.017	1	-3
528.357	1	-4
528.698	1	2
529.038	1	1
529.378	1	1
529.718	1	9
530.058	1	10
530.399	1	13
530.739	1	3
531.079	1	3
531.419	1	12
531.760	1	9
532.100	1	7
532.440	1	3
532.780	1	-5
533.120	1	15
533.461	1	4
533.801	1	18
534.141	1	-11
534.481	1	-8
534.821	1	3
535.162	1	-5
535.502	1	-4
535.842	1	4
536.182	1	10
536.522	1	1
536.862	1	10
537.203	1	-3
537.543	1	7
537.883	1	1
538.223	1	5
538.563	1	14
538.903	1	-11
539.243	1	9
539.584	1	-4
539.924	1	10
540.264	1	-1
540.604	1	-7
540.944	1	0
541.284	1	8
541.624	1	9
541.964	1	6
542.305	1	5
542.645	1	-5
542.985	1	7
543.325	1	-6
543.665	1	13
544.005	1	11
544.345	1	13
544.685	1	2
545.025	1	13
545.365	1	6
545.705	1	11
546.045	1	-5
546.386	1	2
546.726	1	-1
547.066	1	-2
547.406	1	10
547.746	1	-4
548.086	1	-1
548.426	1	-1
548.766	1	2
549.106	1	0
549.446	1	-1
549.786	1	-3
550.126	1	11
550.466	1	5
550.806	1	1
551.146	1	4
551.486	1	1
551.826	1	9
552.166	1	3
552.506	1	14
552.846	1	4
553.186	1	0
553.526	1	-1
553.866	1	9
554.206	1	14
554.546	1	11
554.886	1	6
555.226	1	0
555.566	1	6
555.906	1	4
556.246	1	5
556.586	1	0
556.926	1	2
557.266	1	0
557.606	1	-3
557.946	1	17
558.286	1	5
558.626	1	1
558.966	1	1
559.306	1	6
559.646	1	-9
559.986	1	0
560.325	1	2
560.665	1	4
561.005	1	-7
561.345	1	-1
561.685	1	2
562.025	1	7
562.365	1	4
562.705	1	2
563.045	1	2
563.385	1	-1
563.725	1	-3
564.064	1	2
564.404	1	1
564.744	1	8
565.084	1	-3
565.424	1	3
565.764	1	5
566.104	1	6
566.444	1	-2
566.783	1	-9
567.123	1	-2
567.463	1	10
567.803	1	-8
568.143	1	4
568.483	1	5
568.823	1	6
569.162	1	17
569.502	1	4
569.842	1	-1
570.182	1	0
570.522	1	-5
570.862	1	3
571.201	1	15
571.541	1	7
571.881	1	16
572.221	1	0
572.561	1	0
572.900	1	-11
573.240	1	5
573.580	1	6
573.920	1	6
574.260	1	21
574.599	1	4
574.939	1	1
575.279	1	7
575.619	1	6
575.959	1	-5
576.298	1	15
576.638	1	1
576.978	1	6
577.318	1	12
577.657	1	-1
577.997	1	10
578.337	1	18
578.677	1	9
579.016	1	14
579.356	1	-1
579.696	1	10
580.036	1	6
580.375	1	-1
580.715	1	4
581.055	1	-4
581.394	1	0
581.734	1	-8
582.074	1	-5
582.414	1	18
582.753	1	-1
583.093	1	9
583.433	1	-7
583.772	1	9
584.112	1	4
584.452	1	5
584.791	1	2
585.131	1	17
585.471	1	12
585.811	1	9
586.150	1	5
586.490	1	3
586.830	1	0
587.169	1	6
587.509	1	1
587.849	1	8
588.188	1	5
588.528	1	-3
588.867	1	14
589.207	1	7
589.547	1	0
589.886	1	-13
590.226	1	16
590.566	1	4
590.905	1	0
591.245	1	5
591.585	1	2
591.924	1	5
592.264	1	6
592.603	1	5
592.943	1	5
593.283	1	8
593.622	1	-1
593.962	1	3
594.301	1	13
594.641	1	-6
594.981	1	2
595.320	1	7
595.660	1	7
595.999	1	-4
596.339	1	13
596.678	1	1
597.018	1	-5
597.358	1	5
597.697	1	9
598.037	1	-2
598.376	1	7
598.716	1	5
599.055	1	7
599.395	1	2
599.734	1	5
600.074	1	-4
600.413	1	12
600.753	1	6
601.092	1	14
601.432	1	2
601.771	1	8
602.111	1	0
602.451	1	10
602.790	1	-3
603.130	1	1
603.469	1	-6
603.809	1	9
604.148	1	9
604.487	1	-7
604.827	1	15
605.166	1	2
605.506	1	10
605.845	1	-8
606.185	1	3
606.524	1	0
606.864	1	4
607.203	1	0
607.543	1	1
607.882	1	9
608.222	1	10
608.561	1	9
608.901	1	10
609.240	1	-4
609.579	1	2
609.919	1	7
610.258	1	8
610.598	1	2
610.937	1	10
611.277	1	-4
611.616	1	1
611.955	1	12
612.295	1	4
612.634	1	9
612.974	1	-13
613.313	1	7
613.652	1	1
613.992	1	-5
614.331	1	1
614.671	1	2
615.010	1	-6
615.349	1	2
615.689	1	4
616.028	1	2
616.368	1	5
616.707	1	6
617.046	1	-1
617.386	1	2
617.725	1	3
618.064	1	2
618.404	1	-2
618.743	1	7
619.082	1	0
619.422	1	-2
619.761	1	-1
620.100	1	7
620.440	1	4
620.779	1	-1
621.118	1	4
621.458	1	13
621.797	1	0
622.136	1	10
622.476	1	4
622.815	1	10
623.154	1	-2
623.494	1	14
623.833	1	8
624.172	1	4
624.511	1	2
624.851	1	-14
625.190	1	2
625.529	1	5
625.869	1	-1
626.208	1	3
626.547	1	0
626.886	1	3
627.226	1	-2
627.565	1	-2
627.904	1	2
628.243	1	5
628.583	1	8
628.922	1	10
629.261	1	6
629.600	1	11
629.940	1	-4
630.279	1	-8
630.618	1	2
630.957	1	-4
631.297	1	1
631.636	1	-2
631.975	1	16
632.314	1	5
632.653	1	-6
632.993	1	0
633.332	1	6
633.671	1	-3
634.010	1	-1
634.349	1	10
634.689	1	3
635.028	1	12
635.367	1	-3
635.706	1	0
636.045	1	4
636.384	1	3
636.724	1	-3
637.063	1	0
637.402	1	6
637.741	1	3
638.080	1	-2
638.419	1	-6
638.759	1	8
639.098	1	5
639.437	1	-7
639.776	1	-3
640.115	1	1
640.454	1	-2
640.793	1	8
641.132	1	0
641.472	1	-1
641.811	1	4
642.150	1	-7
642.489	1	6
642.828	1	-7
643.167	1	-2
643.506	1	-12
643.845	1	2
644.184	1	4
644.524	1	4
644.863	1	-5
645.202	1	7
645.541	1	-3
645.880	1	1
646.219	1	0
646.558	1	-3
646.897	1	5
647.236	1	-3
647.575	1	9
647.914	1	-2
648.253	1	14
648.592	1	-7
648.931	1	10
649.270	1	-8
649.610	1	8
649.949	1	-6
650.288	1	5
650.627	1	6
650.966	1	7
651.305	1	-3
651.644	1	9
651.983	1	0
652.322	1	-3
652.661	1	2
653.000	1	3
653.339	1	0
653.678	1	0
654.017	1	1
654.356	1	1
654.695	1	-3
655.034	1	5
655.373	1	2
655.712	1	8
656.051	1	10
656.390	1	-1
656.729	1	17
657.068	1	1
657.406	1	5
657.745	1	-4
658.084	1	0
658.423	1	7
658.762	1	-3
659.101	1	5
659.440	1	0
659.779	1	3
660.118	1	11
660.457	1	-5
660.796	1	-10
661.135	1	-6
661.474	1	3
661.813	1	11
662.152	1	2
662.491	1	0
662.829	1	8
663.168	1	9
663.507	1	5
663.846	1	-4
664.185	1	1
664.524	1	-1
664.863	1	1
665.202	1	2
665.541	1	-14
665.879	1	-3
666.218	1	-4
666.557	1	0
666.896	1	-1
667.235	1	1
667.574	1	3
667.913	1	3
668.251	1	1
668.590	1	6
668.929	1	-3
669.268	1	0
669.607	1	6
669.946	1	4
670.285	1	5
670.623	1	3
670.962	1	0
671.301	1	3
671.640	1	13
671.979	1	-6
672.317	1	2
672.656	1	-4
672.995	1	7
673.334	1	-1
673.673	1	4
674.011	1	-5
674.350	1	6
674.689	1	6
675.028	1	5
675.367	1	9
675.705	1	-2
676.044	1	1
676.383	1	8
676.722	1	7
677.060	1	-2
677.399	1	5
677.738	1	5
678.077	1	15
678.416	1	8
678.754	1	4
679.093	1	4
679.432	1	-4
679.771	1	6
680.109	1	13
680.448	1	5
680.787	1	-3
681.125	1	-2
681.464	1	-1
681.803	1	4
682.142	1	6
682.480	1	15
682.819	1	-1
683.158	1	-9
683.496	1	7
683.835	1	2
684.174	1	11
684.512	1	1
684.851	1	9
685.190	1	-2
685.529	1	-2
685.867	1	2
686.206	1	3
686.545	1	-7
686.883	1	4
687.222	1	0
687.561	1	6
687.899	1	9
688.238	1	5
688.577	1	1
688.746	1	7