File: Data/GaN_200K_800ms/GaN_sample F_spot 12_UVVIS_200 K_200um_800 ms 2x2mm1_509.txt
340.368	1	0
340.710	1	-13
341.052	1	0
341.394	1	-6
341.737	1	-3
342.079	1	-2
342.421	1	2
342.763	1	3
343.105	1	1
343.447	1	-14
343.789	1	-9
344.131	1	-10
344.473	1	-2
344.815	1	-2
345.157	1	-8
345.499	1	1
345.841	1	-1
346.183	1	-2
346.526	1	-6
346.868	1	3
347.210	1	-12
347.552	1	-8
347.894	1	-3
348.236	1	12
348.578	1	0
348.920	1	-3
349.262	1	-5
349.604	1	-11
349.946	1	-5
350.288	1	3
350.630	1	0
350.972	1	-9
351.314	1	-7
351.656	1	1
351.998	1	2
352.340	1	8
352.682	1	5
353.024	1	5
353.366	1	6
353.708	1	-2
354.050	1	-11
354.392	1	-2
354.734	1	6
355.076	1	-1
355.418	1	-8
355.760	1	-12
356.102	1	18
356.444	1	14
356.785	1	8
357.127	1	-1
357.469	1	0
357.811	1	4
358.153	1	4
358.495	1	0
358.837	1	-6
359.179	1	-5
359.521	1	7
359.863	1	-4
360.205	1	-3
360.547	1	1
360.889	1	-6
361.231	1	-7
361.572	1	10
361.914	1	-5
362.256	1	-4
362.598	1	-7
362.940	1	1
363.282	1	19
363.624	1	-3
363.966	1	7
364.308	1	-6
364.649	1	4
364.991	1	0
365.333	1	4
365.675	1	-13
366.017	1	6
366.359	1	0
366.701	1	5
367.042	1	4
367.384	1	3
367.726	1	4
368.068	1	6
368.410	1	13
368.752	1	2
369.093	1	3
369.435	1	19
369.777	1	-1
370.119	1	-1
370.461	1	20
370.803	1	11
371.144	1	-9
371.486	1	12
371.828	1	8
372.170	1	10
372.512	1	1
372.853	1	6
373.195	1	3
373.537	1	-6
373.879	1	-6
374.220	1	15
374.562	1	14
374.904	1	6
375.246	1	3
375.588	1	-5
375.929	1	3
376.271	1	13
376.613	1	-2
376.955	1	-11
377.296	1	0
377.638	1	-5
377.980	1	6
378.321	1	-6
378.663	1	-2
379.005	1	5
379.347	1	3
379.688	1	8
380.030	1	1
380.372	1	2
380.714	1	11
381.055	1	8
381.397	1	0
381.739	1	9
382.080	1	1
382.422	1	4
382.764	1	-5
383.105	1	-8
383.447	1	-6
383.789	1	-7
384.130	1	-2
384.472	1	-5
384.814	1	-6
385.156	1	-1
385.497	1	4
385.839	1	-2
386.180	1	3
386.522	1	3
386.864	1	9
387.205	1	-6
387.547	1	-4
387.889	1	6
388.230	1	13
388.572	1	-10
388.914	1	5
389.255	1	-2
389.597	1	8
389.939	1	5
390.280	1	0
390.622	1	-14
390.963	1	10
391.305	1	-1
391.647	1	5
391.988	1	1
392.330	1	8
392.671	1	-1
393.013	1	-7
393.355	1	0
393.696	1	2
394.038	1	-5
394.379	1	6
394.721	1	-7
395.062	1	2
395.404	1	-7
395.746	1	11
396.087	1	-13
396.429	1	5
396.770	1	2
397.112	1	5
397.453	1	10
397.795	1	8
398.136	1	-10
398.478	1	1
398.819	1	2
399.161	1	11
399.503	1	1
399.844	1	2
400.186	1	-3
400.527	1	0
400.869	1	1
401.210	1	-4
401.552	1	-8
401.893	1	-1
402.235	1	-10
402.576	1	-4
402.918	1	7
403.259	1	6
403.601	1	-3
403.942	1	0
404.284	1	1
404.625	1	-2
404.967	1	2
405.308	1	-2
405.649	1	0
405.991	1	-6
406.332	1	-3
406.674	1	-14
407.015	1	5
407.357	1	-5
407.698	1	6
408.040	1	-2
408.381	1	1
408.722	1	-12
409.064	1	-2
409.405	1	9
409.747	1	4
410.088	1	4
410.430	1	4
410.771	1	0
411.112	1	1
411.454	1	-13
411.795	1	-4
412.137	1	2
412.478	1	11
412.819	1	-3
413.161	1	-14
413.502	1	3
413.844	1	-3
414.185	1	5
414.526	1	0
414.868	1	-4
415.209	1	5
415.550	1	-5
415.892	1	-9
416.233	1	5
416.575	1	5
416.916	1	-12
417.257	1	-2
417.599	1	1
417.940	1	5
418.281	1	2
418.623	1	1
418.964	1	-8
419.305	1	6
419.647	1	-4
419.988	1	-5
420.329	1	-5
420.671	1	-1
421.012	1	-3
421.353	1	-5
421.695	1	-3
422.036	1	-7
422.377	1	-12
422.718	1	8
423.060	1	-13
423.401	1	1
423.742	1	1
424.084	1	-1
424.425	1	-1
424.766	1	0
425.107	1	-2
425.449	1	10
425.790	1	-10
426.131	1	-3
426.472	1	-2
426.814	1	9
427.155	1	-2
427.496	1	-6
427.837	1	-1
428.179	1	-16
428.520	1	5
428.861	1	0
429.202	1	-5
429.544	1	0
429.885	1	-2
430.226	1	-11
430.567	1	-3
430.909	1	2
431.250	1	-1
431.591	1	12
431.932	1	-6
432.273	1	-4
432.615	1	-2
432.956	1	-5
433.297	1	2
433.638	1	-1
433.979	1	-1
434.320	1	-2
434.662	1	-6
435.003	1	-1
435.344	1	0
435.685	1	4
436.026	1	8
436.368	1	-3
436.709	1	-3
437.050	1	-5
437.391	1	2
437.732	1	-8
438.073	1	0
438.414	1	-1
438.756	1	-8
439.097	1	-1
439.438	1	-12
439.779	1	-6
440.120	1	-7
440.461	1	-6
440.802	1	-8
441.143	1	2
441.485	1	0
441.826	1	5
442.167	1	-3
442.508	1	0
442.849	1	9
443.190	1	-10
443.531	1	3
443.872	1	5
444.213	1	1
444.554	1	5
444.895	1	-9
445.237	1	-7
445.578	1	-6
445.919	1	-2
446.260	1	0
446.601	1	-8
446.942	1	-2
447.283	1	1
447.624	1	7
447.965	1	1
448.306	1	-2
448.647	1	-8
448.988	1	5
449.329	1	-9
449.670	1	0
450.011	1	1
450.352	1	-2
450.693	1	-5
451.034	1	-4
451.375	1	4
451.716	1	-5
452.057	1	-2
452.398	1	-15
452.739	1	0
453.080	1	-5
453.421	1	3
453.762	1	6
454.103	1	-5
454.444	1	-8
454.785	1	-6
455.126	1	-11
455.467	1	4
455.808	1	-1
456.149	1	1
456.490	1	3
456.831	1	0
457.172	1	-9
457.513	1	-3
457.854	1	0
458.195	1	-10
458.536	1	0
458.877	1	2
459.218	1	0
459.559	1	1
459.899	1	-8
460.240	1	5
460.581	1	12
460.922	1	5
461.263	1	-3
461.604	1	-8
461.945	1	-2
462.286	1	4
462.627	1	1
462.968	1	-1
463.309	1	-2
463.649	1	-5
463.990	1	-8
464.331	1	-10
464.672	1	-3
465.013	1	-4
465.354	1	2
465.695	1	-6
466.036	1	0
466.376	1	-2
466.717	1	1
467.058	1	2
467.399	1	-1
467.740	1	0
468.081	1	-9
468.422	1	-7
468.762	1	-9
469.103	1	-3
469.444	1	-12
469.785	1	-10
470.126	1	-8
470.467	1	-7
470.807	1	-2
471.148	1	1
471.489	1	2
471.830	1	-5
472.171	1	6
472.511	1	-8
472.852	1	-3
473.193	1	10
473.534	1	11
473.875	1	6
474.215	1	1
474.556	1	-1
474.897	1	9
475.238	1	0
475.578	1	-10
475.919	1	-8
476.260	1	-1
476.601	1	-2
476.942	1	5
477.282	1	-4
477.623	1	-6
477.964	1	-5
478.305	1	-9
478.645	1	9
478.986	1	-3
479.327	1	-5
479.667	1	4
480.008	1	-8
480.349	1	-7
480.690	1	1
481.030	1	-9
481.371	1	1
481.712	1	6
482.053	1	7
482.393	1	-1
482.734	1	-2
483.075	1	0
483.415	1	0
483.756	1	-1
484.097	1	4
484.437	1	-3
484.778	1	4
485.119	1	-6
485.459	1	8
485.800	1	-6
486.141	1	-8
486.481	1	-6
486.822	1	1
487.163	1	-2
487.503	1	-1
487.844	1	-2
488.185	1	-4
488.525	1	2
488.866	1	2
489.207	1	5
489.547	1	-7
489.888	1	0
490.228	1	3
490.569	1	14
490.910	1	-9
491.250	1	-3
491.591	1	1
491.932	1	3
492.272	1	11
492.613	1	1
492.953	1	-8
493.294	1	-9
493.635	1	-1
493.975	1	1
494.316	1	5
494.656	1	-3
494.997	1	-7
495.337	1	4
495.678	1	-1
496.019	1	2
496.359	1	-7
496.700	1	-4
497.040	1	-8
497.381	1	-1
497.721	1	-2
498.062	1	-12
498.403	1	-11
498.743	1	-7
499.084	1	-5
499.424	1	6
499.765	1	0
500.105	1	-6
500.446	1	-8
500.786	1	-10
501.127	1	5
501.467	1	-13
501.808	1	5
502.148	1	2
502.489	1	2
502.829	1	0
503.170	1	10
503.510	1	8
503.851	1	-1
504.191	1	1
504.532	1	2
504.872	1	-3
505.213	1	8
505.553	1	-14
505.894	1	-6
506.234	1	15
506.575	1	6
506.915	1	1
507.256	1	11
507.596	1	8
507.936	1	1
508.277	1	-9
508.617	1	1
508.958	1	-10
509.298	1	5
509.639	1	-5
509.979	1	-2
510.319	1	-2
510.660	1	2
511.000	1	-9
511.341	1	-1
511.681	1	2
512.022	1	-8
512.362	1	-18
512.702	1	-4
513.043	1	13
513.383	1	-15
513.724	1	0
514.064	1	14
514.404	1	-3
514.745	1	-5
515.085	1	2
515.425	1	-7
515.766	1	-2
516.106	1	0
516.447	1	9
516.787	1	11
517.127	1	-2
517.468	1	0
517.808	1	-9
518.148	1	-8
518.489	1	1
518.829	1	8
519.169	1	1
519.510	1	-4
519.850	1	-3
520.190	1	-2
520.531	1	3
520.871	1	-1
521.211	1	-10
521.552	1	6
521.892	1	3
522.232	1	6
522.573	1	-3
522.913	1	1
523.253	1	-1
523.593	1	-6
523.934	1	2
524.274	1	10
524.614	1	-3
524.955	1	-8
525.295	1	3
525.635	1	-1
525.975	1	6
526.316	1	11
526.656	1	-5
526.996	1	-3
527.337	1	-3
527.677	1	0
528.017	1	-14
528.357	1	-7
528.698	1	-2
529.038	1	0
529.378	1	0
529.718	1	-2
530.058	1	10
530.399	1	-5
530.739	1	-4
531.079	1	3
531.419	1	0
531.760	1	3
532.100	1	-14
532.440	1	-3
532.780	1	2
533.120	1	4
533.461	1	-1
533.801	1	11
534.141	1	-15
534.481	1	-11
534.821	1	5
535.162	1	-1
535.502	1	-6
535.842	1	4
536.182	1	-3
536.522	1	-5
536.862	1	12
537.203	1	-9
537.543	1	-5
537.883	1	-2
538.223	1	3
538.563	1	10
538.903	1	-7
539.243	1	-3
539.584	1	-12
539.924	1	13
540.264	1	-3
540.604	1	-4
540.944	1	-4
541.284	1	6
541.624	1	2
541.964	1	3
542.305	1	-2
542.645	1	4
542.985	1	-4
543.325	1	-9
543.665	1	8
544.005	1	8
544.345	1	4
544.685	1	-3
545.025	1	-5
545.365	1	6
545.705	1	-2
546.045	1	-7
546.386	1	1
546.726	1	0
547.066	1	-7
547.406	1	6
547.746	1	-19
548.086	1	4
548.426	1	-13
548.766	1	-2
549.106	1	-8
549.446	1	4
549.786	1	-1
550.126	1	20
550.466	1	-2
550.806	1	-7
551.146	1	-9
551.486	1	5
551.826	1	-3
552.166	1	-6
552.506	1	3
552.846	1	-4
553.186	1	-1
553.526	1	-5
553.866	1	0
554.206	1	11
554.546	1	-2
554.886	1	5
555.226	1	-5
555.566	1	4
555.906	1	5
556.246	1	-9
556.586	1	-3
556.926	1	2
557.266	1	-4
557.606	1	13
557.946	1	2
558.286	1	0
558.626	1	2
558.966	1	5
559.306	1	2
559.646	1	-4
559.986	1	-3
560.325	1	-12
560.665	1	-7
561.005	1	-4
561.345	1	-3
561.685	1	0
562.025	1	-6
562.365	1	-1
562.705	1	-6
563.045	1	-2
563.385	1	-15
563.725	1	-7
564.064	1	-5
564.404	1	-1
564.744	1	-5
565.084	1	-6
565.424	1	-9
565.764	1	-5
566.104	1	2
566.444	1	-8
566.783	1	0
567.123	1	0
567.463	1	10
567.803	1	-6
568.143	1	-2
568.483	1	-2
568.823	1	-6
569.162	1	5
569.502	1	-1
569.842	1	10
570.182	1	-2
570.522	1	-8
570.862	1	3
571.201	1	9
571.541	1	5
571.881	1	5
572.221	1	-6
572.561	1	-7
572.900	1	-9
573.240	1	-2
573.580	1	-2
573.920	1	-3
574.260	1	7
574.599	1	3
574.939	1	9
575.279	1	3
575.619	1	6
575.959	1	-4
576.298	1	15
576.638	1	-12
576.978	1	10
577.318	1	3
577.657	1	-2
577.997	1	-8
578.337	1	10
578.677	1	14
579.016	1	1
579.356	1	-8
579.696	1	5
580.036	1	-3
580.375	1	1
580.715	1	2
581.055	1	0
581.394	1	-2
581.734	1	-14
582.074	1	-4
582.414	1	7
582.753	1	-6
583.093	1	-10
583.433	1	0
583.772	1	3
584.112	1	-4
584.452	1	-2
584.791	1	-1
585.131	1	1
585.471	1	4
585.811	1	-3
586.150	1	-6
586.490	1	4
586.830	1	-4
587.169	1	1
587.509	1	2
587.849	1	4
588.188	1	7
588.528	1	7
588.867	1	3
589.207	1	4
589.547	1	-1
589.886	1	-7
590.226	1	7
590.566	1	-1
590.905	1	-7
591.245	1	1
591.585	1	-4
591.924	1	-4
592.264	1	-8
592.603	1	8
592.943	1	1
593.283	1	2
593.622	1	-3
593.962	1	4
594.301	1	5
594.641	1	-11
594.981	1	-1
595.320	1	3
595.660	1	3
595.999	1	-10
596.339	1	4
596.678	1	-10
597.018	1	-5
597.358	1	1
597.697	1	-9
598.037	1	-4
598.376	1	7
598.716	1	6
599.055	1	4
599.395	1	-10
599.734	1	7
600.074	1	-3
600.413	1	4
600.753	1	-2
601.092	1	10
601.432	1	-8
601.771	1	5
602.111	1	-4
602.451	1	9
602.790	1	-1
603.130	1	-6
603.469	1	-12
603.809	1	0
604.148	1	6
604.487	1	-9
604.827	1	8
605.166	1	6
605.506	1	2
605.845	1	2
606.185	1	5
606.524	1	0
606.864	1	-2
607.203	1	3
607.543	1	-3
607.882	1	9
608.222	1	0
608.561	1	-2
608.901	1	3
609.240	1	-4
609.579	1	4
609.919	1	8
610.258	1	3
610.598	1	2
610.937	1	-3
611.277	1	-4
611.616	1	-7
611.955	1	0
612.295	1	-9
612.634	1	-1
612.974	1	-5
613.313	1	1
613.652	1	10
613.992	1	0
614.331	1	2
614.671	1	3
615.010	1	-5
615.349	1	5
615.689	1	5
616.028	1	0
616.368	1	-3
616.707	1	0
617.046	1	-2
617.386	1	2
617.725	1	0
618.064	1	-5
618.404	1	1
618.743	1	0
619.082	1	2
619.422	1	-13
619.761	1	8
620.100	1	-2
620.440	1	0
620.779	1	-4
621.118	1	-11
621.458	1	-3
621.797	1	-10
622.136	1	8
622.476	1	-8
622.815	1	8
623.154	1	2
623.494	1	14
623.833	1	7
624.172	1	-3
624.511	1	-4
624.851	1	-6
625.190	1	5
625.529	1	5
625.869	1	0
626.208	1	0
626.547	1	0
626.886	1	2
627.226	1	0
627.565	1	1
627.904	1	-7
628.243	1	-3
628.583	1	-1
628.922	1	6
629.261	1	6
629.600	1	12
629.940	1	-2
630.279	1	-3
630.618	1	-1
630.957	1	0
631.297	1	3
631.636	1	-14
631.975	1	3
632.314	1	-3
632.653	1	3
632.993	1	-3
633.332	1	-4
633.671	1	4
634.010	1	-3
634.349	1	10
634.689	1	-3
635.028	1	-5
635.367	1	-2
635.706	1	-2
636.045	1	11
636.384	1	-1
636.724	1	-1
637.063	1	2
637.402	1	4
637.741	1	-6
638.080	1	-1
638.419	1	-4
638.759	1	-8
639.098	1	-3
639.437	1	2
639.776	1	-8
640.115	1	-3
640.454	1	-12
640.793	1	6
641.132	1	8
641.472	1	0
641.811	1	-3
642.150	1	-13
642.489	1	3
642.828	1	-2
643.167	1	1
643.506	1	-17
643.845	1	-13
644.184	1	3
644.524	1	0
644.863	1	-5
645.202	1	-2
645.541	1	-2
645.880	1	-1
646.219	1	-2
646.558	1	-5
646.897	1	-1
647.236	1	4
647.575	1	3
647.914	1	-5
648.253	1	9
648.592	1	-13
648.931	1	10
649.270	1	-9
649.610	1	-3
649.949	1	-4
650.288	1	-2
650.627	1	-1
650.966	1	-3
651.305	1	2
651.644	1	12
651.983	1	0
652.322	1	3
652.661	1	-2
653.000	1	-2
653.339	1	2
653.678	1	-1
654.017	1	-1
654.356	1	-3
654.695	1	1
655.034	1	3
655.373	1	7
655.712	1	-3
656.051	1	-2
656.390	1	2
656.729	1	7
657.068	1	0
657.406	1	-4
657.745	1	-12
658.084	1	2
658.423	1	7
658.762	1	3
659.101	1	11
659.440	1	-8
659.779	1	-12
660.118	1	-7
660.457	1	0
660.796	1	-16
661.135	1	-11
661.474	1	-6
661.813	1	8
662.152	1	-1
662.491	1	-10
662.829	1	2
663.168	1	5
663.507	1	6
663.846	1	-7
664.185	1	2
664.524	1	3
664.863	1	-5
665.202	1	10
665.541	1	-7
665.879	1	-2
666.218	1	-11
666.557	1	-5
666.896	1	-4
667.235	1	-1
667.574	1	-4
667.913	1	-3
668.251	1	-8
668.590	1	-3
668.929	1	-14
669.268	1	1
669.607	1	-5
669.946	1	4
670.285	1	-4
670.623	1	-7
670.962	1	3
671.301	1	0
671.640	1	-3
671.979	1	-8
672.317	1	0
672.656	1	-3
672.995	1	9
673.334	1	-3
673.673	1	-7
674.011	1	-4
674.350	1	-4
674.689	1	-10
675.028	1	-6
675.367	1	8
675.705	1	15
676.044	1	-7
676.383	1	-4
676.722	1	8
677.060	1	-1
677.399	1	-13
677.738	1	2
678.077	1	4
678.416	1	0
678.754	1	-5
679.093	1	4
679.432	1	4
679.771	1	-3
680.109	1	3
680.448	1	0
680.787	1	-6
681.125	1	10
681.464	1	-4
681.803	1	-9
682.142	1	1
682.480	1	12
682.819	1	9
683.158	1	0
683.496	1	-2
683.835	1	1
684.174	1	-5
684.512	1	3
684.851	1	5
685.190	1	-3
685.529	1	-5
685.867	1	4
686.206	1	-10
686.545	1	-11
686.883	1	2
687.222	1	3
687.561	1	4
687.899	1	-3
688.238	1	12
688.577	1	-6
688.746	1	-4