File: Data/GaN_200K_800ms/GaN_sample F_spot 12_UVVIS_200 K_200um_800 ms 2x2mm1_6.txt
340.368	1	-4
340.710	1	-12
341.052	1	2
341.394	1	-2
341.737	1	2
342.079	1	-10
342.421	1	-1
342.763	1	2
343.105	1	2
343.447	1	0
343.789	1	3
344.131	1	1
344.473	1	-4
344.815	1	-1
345.157	1	1
345.499	1	-1
345.841	1	4
346.183	1	-4
346.526	1	-7
346.868	1	6
347.210	1	-10
347.552	1	-6
347.894	1	0
348.236	1	10
348.578	1	2
348.920	1	-2
349.262	1	8
349.604	1	2
349.946	1	-3
350.288	1	4
350.630	1	2
350.972	1	2
351.314	1	11
351.656	1	8
351.998	1	3
352.340	1	4
352.682	1	12
353.024	1	-3
353.366	1	9
353.708	1	1
354.050	1	-3
354.392	1	-5
354.734	1	2
355.076	1	-1
355.418	1	-15
355.760	1	-1
356.102	1	7
356.444	1	3
356.785	1	4
357.127	1	-4
357.469	1	5
357.811	1	-4
358.153	1	9
358.495	1	4
358.837	1	3
359.179	1	5
359.521	1	4
359.863	1	-4
360.205	1	-8
360.547	1	2
360.889	1	-7
361.231	1	-2
361.572	1	4
361.914	1	14
362.256	1	7
362.598	1	-8
362.940	1	0
363.282	1	-3
363.624	1	5
363.966	1	3
364.308	1	-1
364.649	1	-1
364.991	1	-1
365.333	1	-7
365.675	1	-8
366.017	1	-2
366.359	1	-7
366.701	1	-1
367.042	1	0
367.384	1	0
367.726	1	4
368.068	1	-6
368.410	1	9
368.752	1	-2
369.093	1	-2
369.435	1	3
369.777	1	-2
370.119	1	0
370.461	1	9
370.803	1	5
371.144	1	-1
371.486	1	7
371.828	1	3
372.170	1	8
372.512	1	-7
372.853	1	-4
373.195	1	-6
373.537	1	-6
373.879	1	-8
374.220	1	14
374.562	1	5
374.904	1	0
375.246	1	7
375.588	1	-2
375.929	1	1
376.271	1	-8
376.613	1	0
376.955	1	-5
377.296	1	-8
377.638	1	8
377.980	1	-1
378.321	1	6
378.663	1	-4
379.005	1	12
379.347	1	4
379.688	1	1
380.030	1	-3
380.372	1	6
380.714	1	10
381.055	1	2
381.397	1	1
381.739	1	-2
382.080	1	0
382.422	1	2
382.764	1	-2
383.105	1	3
383.447	1	1
383.789	1	-2
384.130	1	3
384.472	1	-5
384.814	1	-2
385.156	1	-6
385.497	1	-2
385.839	1	0
386.180	1	-1
386.522	1	17
386.864	1	5
387.205	1	-4
387.547	1	-9
387.889	1	-8
388.230	1	9
388.572	1	-6
388.914	1	0
389.255	1	-8
389.597	1	-1
389.939	1	3
390.280	1	1
390.622	1	9
390.963	1	5
391.305	1	0
391.647	1	-4
391.988	1	5
392.330	1	6
392.671	1	-11
393.013	1	0
393.355	1	11
393.696	1	0
394.038	1	7
394.379	1	6
394.721	1	-9
395.062	1	4
395.404	1	-9
395.746	1	7
396.087	1	-13
396.429	1	4
396.770	1	-3
397.112	1	5
397.453	1	7
397.795	1	4
398.136	1	-4
398.478	1	4
398.819	1	-1
399.161	1	12
399.503	1	-6
399.844	1	1
400.186	1	-2
400.527	1	-10
400.869	1	2
401.210	1	0
401.552	1	2
401.893	1	-7
402.235	1	-1
402.576	1	0
402.918	1	10
403.259	1	9
403.601	1	-4
403.942	1	5
404.284	1	5
404.625	1	7
404.967	1	0
405.308	1	-1
405.649	1	-1
405.991	1	-2
406.332	1	8
406.674	1	2
407.015	1	8
407.357	1	-5
407.698	1	7
408.040	1	1
408.381	1	-6
408.722	1	-11
409.064	1	1
409.405	1	5
409.747	1	6
410.088	1	-5
410.430	1	9
410.771	1	-5
411.112	1	3
411.454	1	-4
411.795	1	-5
412.137	1	4
412.478	1	15
412.819	1	-6
413.161	1	1
413.502	1	-2
413.844	1	1
414.185	1	8
414.526	1	0
414.868	1	4
415.209	1	-6
415.550	1	-7
415.892	1	-2
416.233	1	4
416.575	1	8
416.916	1	-6
417.257	1	-2
417.599	1	3
417.940	1	5
418.281	1	-1
418.623	1	0
418.964	1	-18
419.305	1	3
419.647	1	-9
419.988	1	-6
420.329	1	-12
420.671	1	-1
421.012	1	4
421.353	1	-2
421.695	1	0
422.036	1	3
422.377	1	-3
422.718	1	6
423.060	1	-6
423.401	1	0
423.742	1	8
424.084	1	2
424.425	1	7
424.766	1	1
425.107	1	-8
425.449	1	0
425.790	1	-7
426.131	1	1
426.472	1	-1
426.814	1	-1
427.155	1	-6
427.496	1	1
427.837	1	-11
428.179	1	-8
428.520	1	2
428.861	1	-1
429.202	1	-1
429.544	1	-8
429.885	1	-1
430.226	1	-8
430.567	1	0
430.909	1	3
431.250	1	5
431.591	1	4
431.932	1	-1
432.273	1	-5
432.615	1	-7
432.956	1	-10
433.297	1	2
433.638	1	-7
433.979	1	6
434.320	1	12
434.662	1	0
435.003	1	5
435.344	1	-1
435.685	1	1
436.026	1	2
436.368	1	5
436.709	1	2
437.050	1	-3
437.391	1	12
437.732	1	-8
438.073	1	8
438.414	1	-12
438.756	1	-8
439.097	1	-10
439.438	1	-5
439.779	1	0
440.120	1	4
440.461	1	2
440.802	1	-3
441.143	1	11
441.485	1	7
441.826	1	0
442.167	1	0
442.508	1	3
442.849	1	10
443.190	1	2
443.531	1	-2
443.872	1	9
444.213	1	-4
444.554	1	8
444.895	1	-4
445.237	1	-6
445.578	1	-14
445.919	1	-8
446.260	1	-6
446.601	1	-6
446.942	1	-5
447.283	1	-1
447.624	1	2
447.965	1	0
448.306	1	-5
448.647	1	-11
448.988	1	-2
449.329	1	-4
449.670	1	11
450.011	1	4
450.352	1	-1
450.693	1	-16
451.034	1	0
451.375	1	-6
451.716	1	-5
452.057	1	-7
452.398	1	0
452.739	1	7
453.080	1	-5
453.421	1	-1
453.762	1	0
454.103	1	-1
454.444	1	-7
454.785	1	-5
455.126	1	-10
455.467	1	6
455.808	1	-2
456.149	1	4
456.490	1	-1
456.831	1	9
457.172	1	-2
457.513	1	6
457.854	1	-2
458.195	1	-4
458.536	1	6
458.877	1	11
459.218	1	2
459.559	1	-3
459.899	1	11
460.240	1	2
460.581	1	18
460.922	1	-4
461.263	1	-4
461.604	1	-8
461.945	1	-3
462.286	1	2
462.627	1	16
462.968	1	-1
463.309	1	-7
463.649	1	6
463.990	1	-7
464.331	1	-4
464.672	1	-4
465.013	1	3
465.354	1	9
465.695	1	-1
466.036	1	-2
466.376	1	2
466.717	1	8
467.058	1	0
467.399	1	8
467.740	1	3
468.081	1	7
468.422	1	-2
468.762	1	1
469.103	1	-6
469.444	1	1
469.785	1	-13
470.126	1	-1
470.467	1	-3
470.807	1	5
471.148	1	1
471.489	1	1
471.830	1	-1
472.171	1	9
472.511	1	-4
472.852	1	-3
473.193	1	9
473.534	1	6
473.875	1	13
474.215	1	11
474.556	1	7
474.897	1	2
475.238	1	7
475.578	1	-8
475.919	1	3
476.260	1	-3
476.601	1	3
476.942	1	10
477.282	1	-3
477.623	1	-7
477.964	1	-3
478.305	1	-4
478.645	1	-1
478.986	1	-2
479.327	1	-3
479.667	1	2
480.008	1	2
480.349	1	-10
480.690	1	1
481.030	1	-4
481.371	1	1
481.712	1	4
482.053	1	0
482.393	1	1
482.734	1	-10
483.075	1	-4
483.415	1	0
483.756	1	7
484.097	1	2
484.437	1	-6
484.778	1	-3
485.119	1	-5
485.459	1	12
485.800	1	0
486.141	1	-1
486.481	1	-2
486.822	1	3
487.163	1	-4
487.503	1	-2
487.844	1	5
488.185	1	7
488.525	1	-5
488.866	1	-4
489.207	1	-3
489.547	1	-10
489.888	1	-2
490.228	1	-7
490.569	1	4
490.910	1	0
491.250	1	-2
491.591	1	-4
491.932	1	0
492.272	1	6
492.613	1	-10
492.953	1	-5
493.294	1	-2
493.635	1	-5
493.975	1	-1
494.316	1	4
494.656	1	-3
494.997	1	-3
495.337	1	8
495.678	1	4
496.019	1	-9
496.359	1	-2
496.700	1	2
497.040	1	7
497.381	1	3
497.721	1	-3
498.062	1	4
498.403	1	-7
498.743	1	-1
499.084	1	-2
499.424	1	1
499.765	1	1
500.105	1	-1
500.446	1	-7
500.786	1	-9
501.127	1	8
501.467	1	-9
501.808	1	2
502.148	1	4
502.489	1	5
502.829	1	-3
503.170	1	7
503.510	1	3
503.851	1	0
504.191	1	1
504.532	1	7
504.872	1	-12
505.213	1	-1
505.553	1	-3
505.894	1	-6
506.234	1	7
506.575	1	12
506.915	1	9
507.256	1	-1
507.596	1	3
507.936	1	4
508.277	1	1
508.617	1	0
508.958	1	-4
509.298	1	0
509.639	1	2
509.979	1	4
510.319	1	7
510.660	1	3
511.000	1	-1
511.341	1	3
511.681	1	5
512.022	1	-6
512.362	1	-7
512.702	1	3
513.043	1	2
513.383	1	-9
513.724	1	-2
514.064	1	9
514.404	1	1
514.745	1	-4
515.085	1	-3
515.425	1	-4
515.766	1	-6
516.106	1	1
516.447	1	12
516.787	1	-2
517.127	1	2
517.468	1	-5
517.808	1	2
518.148	1	9
518.489	1	-9
518.829	1	2
519.169	1	-4
519.510	1	-3
519.850	1	1
520.190	1	-3
520.531	1	3
520.871	1	2
521.211	1	-11
521.552	1	7
521.892	1	3
522.232	1	4
522.573	1	-2
522.913	1	0
523.253	1	-8
523.593	1	-8
523.934	1	1
524.274	1	3
524.614	1	-1
524.955	1	-4
525.295	1	-1
525.635	1	1
525.975	1	2
526.316	1	15
526.656	1	-1
526.996	1	9
527.337	1	10
527.677	1	1
528.017	1	-12
528.357	1	0
528.698	1	4
529.038	1	4
529.378	1	3
529.718	1	13
530.058	1	-8
530.399	1	13
530.739	1	-4
531.079	1	2
531.419	1	7
531.760	1	13
532.100	1	2
532.440	1	2
532.780	1	-4
533.120	1	7
533.461	1	2
533.801	1	12
534.141	1	-12
534.481	1	-15
534.821	1	7
535.162	1	0
535.502	1	-7
535.842	1	7
536.182	1	-1
536.522	1	-12
536.862	1	8
537.203	1	-8
537.543	1	-3
537.883	1	-3
538.223	1	4
538.563	1	10
538.903	1	0
539.243	1	-5
539.584	1	-2
539.924	1	6
540.264	1	-12
540.604	1	2
540.944	1	-1
541.284	1	7
541.624	1	1
541.964	1	6
542.305	1	1
542.645	1	-5
542.985	1	0
543.325	1	-4
543.665	1	7
544.005	1	6
544.345	1	9
544.685	1	-2
545.025	1	0
545.365	1	-4
545.705	1	0
546.045	1	-11
546.386	1	7
546.726	1	-13
547.066	1	6
547.406	1	0
547.746	1	-9
548.086	1	5
548.426	1	-5
548.766	1	6
549.106	1	-1
549.446	1	4
549.786	1	-8
550.126	1	8
550.466	1	3
550.806	1	2
551.146	1	0
551.486	1	9
551.826	1	0
552.166	1	-1
552.506	1	8
552.846	1	-2
553.186	1	7
553.526	1	-3
553.866	1	-5
554.206	1	2
554.546	1	-2
554.886	1	7
555.226	1	-2
555.566	1	0
555.906	1	1
556.246	1	-4
556.586	1	1
556.926	1	8
557.266	1	-7
557.606	1	1
557.946	1	15
558.286	1	5
558.626	1	6
558.966	1	-3
559.306	1	-6
559.646	1	-4
559.986	1	-8
560.325	1	5
560.665	1	-3
561.005	1	-6
561.345	1	-6
561.685	1	-1
562.025	1	-3
562.365	1	2
562.705	1	0
563.045	1	-5
563.385	1	-12
563.725	1	0
564.064	1	-1
564.404	1	6
564.744	1	4
565.084	1	-4
565.424	1	-1
565.764	1	4
566.104	1	0
566.444	1	-15
566.783	1	-8
567.123	1	4
567.463	1	1
567.803	1	-5
568.143	1	-1
568.483	1	5
568.823	1	-4
569.162	1	10
569.502	1	-3
569.842	1	4
570.182	1	5
570.522	1	-13
570.862	1	1
571.201	1	10
571.541	1	2
571.881	1	9
572.221	1	2
572.561	1	-5
572.900	1	-5
573.240	1	3
573.580	1	3
573.920	1	8
574.260	1	5
574.599	1	-7
574.939	1	3
575.279	1	2
575.619	1	-1
575.959	1	0
576.298	1	7
576.638	1	-11
576.978	1	5
577.318	1	11
577.657	1	0
577.997	1	-3
578.337	1	15
578.677	1	2
579.016	1	9
579.356	1	-7
579.696	1	3
580.036	1	2
580.375	1	-2
580.715	1	1
581.055	1	-2
581.394	1	-9
581.734	1	-8
582.074	1	-11
582.414	1	0
582.753	1	-7
583.093	1	4
583.433	1	2
583.772	1	4
584.112	1	-3
584.452	1	0
584.791	1	-1
585.131	1	4
585.471	1	1
585.811	1	2
586.150	1	-11
586.490	1	4
586.830	1	-2
587.169	1	1
587.509	1	2
587.849	1	0
588.188	1	7
588.528	1	11
588.867	1	-4
589.207	1	-2
589.547	1	-3
589.886	1	-2
590.226	1	2
590.566	1	-5
590.905	1	-7
591.245	1	2
591.585	1	3
591.924	1	0
592.264	1	2
592.603	1	0
592.943	1	1
593.283	1	1
593.622	1	-2
593.962	1	-1
594.301	1	11
594.641	1	-6
594.981	1	3
595.320	1	-1
595.660	1	9
595.999	1	-12
596.339	1	-1
596.678	1	-10
597.018	1	-18
597.358	1	8
597.697	1	5
598.037	1	-7
598.376	1	1
598.716	1	6
599.055	1	4
599.395	1	6
599.734	1	-3
600.074	1	-3
600.413	1	5
600.753	1	-5
601.092	1	14
601.432	1	-8
601.771	1	5
602.111	1	1
602.451	1	13
602.790	1	1
603.130	1	0
603.469	1	-10
603.809	1	0
604.148	1	2
604.487	1	5
604.827	1	-3
605.166	1	2
605.506	1	-5
605.845	1	-1
606.185	1	12
606.524	1	4
606.864	1	1
607.203	1	-6
607.543	1	-3
607.882	1	8
608.222	1	6
608.561	1	-2
608.901	1	8
609.240	1	-11
609.579	1	5
609.919	1	5
610.258	1	7
610.598	1	-5
610.937	1	10
611.277	1	6
611.616	1	0
611.955	1	-4
612.295	1	-9
612.634	1	2
612.974	1	-9
613.313	1	7
613.652	1	4
613.992	1	-7
614.331	1	0
614.671	1	5
615.010	1	-5
615.349	1	-12
615.689	1	0
616.028	1	0
616.368	1	3
616.707	1	-3
617.046	1	3
617.386	1	6
617.725	1	-2
618.064	1	-10
618.404	1	2
618.743	1	8
619.082	1	5
619.422	1	-7
619.761	1	2
620.100	1	5
620.440	1	3
620.779	1	-6
621.118	1	-3
621.458	1	11
621.797	1	2
622.136	1	15
622.476	1	2
622.815	1	3
623.154	1	4
623.494	1	8
623.833	1	13
624.172	1	9
624.511	1	1
624.851	1	-7
625.190	1	-3
625.529	1	2
625.869	1	6
626.208	1	-3
626.547	1	6
626.886	1	-5
627.226	1	5
627.565	1	2
627.904	1	0
628.243	1	2
628.583	1	-4
628.922	1	-1
629.261	1	4
629.600	1	7
629.940	1	-3
630.279	1	-9
630.618	1	-1
630.957	1	9
631.297	1	8
631.636	1	-8
631.975	1	7
632.314	1	-3
632.653	1	9
632.993	1	-7
633.332	1	-5
633.671	1	0
634.010	1	-4
634.349	1	3
634.689	1	2
635.028	1	0
635.367	1	5
635.706	1	5
636.045	1	15
636.384	1	5
636.724	1	5
637.063	1	2
637.402	1	2
637.741	1	2
638.080	1	-2
638.419	1	-12
638.759	1	-14
639.098	1	7
639.437	1	1
639.776	1	-3
640.115	1	-4
640.454	1	-6
640.793	1	5
641.132	1	13
641.472	1	2
641.811	1	-2
642.150	1	-14
642.489	1	4
642.828	1	-8
643.167	1	-3
643.506	1	-6
643.845	1	-10
644.184	1	3
644.524	1	-6
644.863	1	-13
645.202	1	7
645.541	1	3
645.880	1	3
646.219	1	-2
646.558	1	-5
646.897	1	-2
647.236	1	4
647.575	1	3
647.914	1	-4
648.253	1	9
648.592	1	-5
648.931	1	8
649.270	1	0
649.610	1	-3
649.949	1	-2
650.288	1	3
650.627	1	0
650.966	1	0
651.305	1	-1
651.644	1	3
651.983	1	4
652.322	1	2
652.661	1	-3
653.000	1	2
653.339	1	2
653.678	1	-2
654.017	1	2
654.356	1	-3
654.695	1	2
655.034	1	2
655.373	1	4
655.712	1	3
656.051	1	6
656.390	1	-8
656.729	1	9
657.068	1	6
657.406	1	11
657.745	1	-7
658.084	1	4
658.423	1	7
658.762	1	-4
659.101	1	12
659.440	1	9
659.779	1	1
660.118	1	2
660.457	1	3
660.796	1	-15
661.135	1	-10
661.474	1	3
661.813	1	19
662.152	1	3
662.491	1	-6
662.829	1	-2
663.168	1	1
663.507	1	7
663.846	1	-10
664.185	1	-3
664.524	1	-6
664.863	1	-2
665.202	1	1
665.541	1	-12
665.879	1	-9
666.218	1	-4
666.557	1	1
666.896	1	-2
667.235	1	-3
667.574	1	-6
667.913	1	-1
668.251	1	0
668.590	1	-2
668.929	1	-11
669.268	1	-8
669.607	1	4
669.946	1	-3
670.285	1	8
670.623	1	6
670.962	1	8
671.301	1	-1
671.640	1	3
671.979	1	3
672.317	1	3
672.656	1	1
672.995	1	3
673.334	1	-16
673.673	1	7
674.011	1	-5
674.350	1	-2
674.689	1	-2
675.028	1	3
675.367	1	6
675.705	1	7
676.044	1	-6
676.383	1	10
676.722	1	0
677.060	1	-8
677.399	1	-5
677.738	1	0
678.077	1	7
678.416	1	6
678.754	1	-5
679.093	1	3
679.432	1	-2
679.771	1	0
680.109	1	6
680.448	1	2
680.787	1	-4
681.125	1	9
681.464	1	-5
681.803	1	2
682.142	1	13
682.480	1	14
682.819	1	-3
683.158	1	-4
683.496	1	10
683.835	1	-6
684.174	1	2
684.512	1	7
684.851	1	10
685.190	1	-3
685.529	1	0
685.867	1	6
686.206	1	1
686.545	1	-2
686.883	1	5
687.222	1	6
687.561	1	9
687.899	1	0
688.238	1	4
688.577	1	2
688.746	1	3