File: Data/GaN_200K_800ms/GaN_sample F_spot 12_UVVIS_200 K_200um_800 ms 2x2mm1_112.txt
340.368	1	4
340.710	1	-5
341.052	1	10
341.394	1	-2
341.737	1	11
342.079	1	1
342.421	1	0
342.763	1	6
343.105	1	4
343.447	1	-2
343.789	1	5
344.131	1	5
344.473	1	-2
344.815	1	5
345.157	1	-5
345.499	1	-3
345.841	1	13
346.183	1	-1
346.526	1	-6
346.868	1	9
347.210	1	-5
347.552	1	-1
347.894	1	4
348.236	1	13
348.578	1	2
348.920	1	3
349.262	1	-2
349.604	1	-1
349.946	1	-10
350.288	1	16
350.630	1	1
350.972	1	2
351.314	1	14
351.656	1	7
351.998	1	9
352.340	1	0
352.682	1	14
353.024	1	14
353.366	1	8
353.708	1	10
354.050	1	-2
354.392	1	6
354.734	1	16
355.076	1	2
355.418	1	3
355.760	1	1
356.102	1	14
356.444	1	10
356.785	1	18
357.127	1	8
357.469	1	6
357.811	1	11
358.153	1	21
358.495	1	15
358.837	1	14
359.179	1	4
359.521	1	22
359.863	1	11
360.205	1	13
360.547	1	16
360.889	1	18
361.231	1	15
361.572	1	16
361.914	1	23
362.256	1	31
362.598	1	19
362.940	1	20
363.282	1	31
363.624	1	47
363.966	1	31
364.308	1	51
364.649	1	48
364.991	1	52
365.333	1	54
365.675	1	45
366.017	1	50
366.359	1	47
366.701	1	52
367.042	1	66
367.384	1	76
367.726	1	73
368.068	1	71
368.410	1	93
368.752	1	72
369.093	1	85
369.435	1	86
369.777	1	81
370.119	1	76
370.461	1	92
370.803	1	80
371.144	1	70
371.486	1	86
371.828	1	69
372.170	1	82
372.512	1	62
372.853	1	56
373.195	1	56
373.537	1	64
373.879	1	55
374.220	1	53
374.562	1	76
374.904	1	50
375.246	1	46
375.588	1	54
375.929	1	56
376.271	1	51
376.613	1	36
376.955	1	26
377.296	1	32
377.638	1	35
377.980	1	37
378.321	1	20
378.663	1	21
379.005	1	43
379.347	1	34
379.688	1	29
380.030	1	21
380.372	1	24
380.714	1	27
381.055	1	27
381.397	1	24
381.739	1	33
382.080	1	15
382.422	1	21
382.764	1	26
383.105	1	17
383.447	1	16
383.789	1	22
384.130	1	16
384.472	1	15
384.814	1	16
385.156	1	14
385.497	1	17
385.839	1	15
386.180	1	16
386.522	1	20
386.864	1	21
387.205	1	10
387.547	1	9
387.889	1	6
388.230	1	22
388.572	1	-1
388.914	1	9
389.255	1	-2
389.597	1	8
389.939	1	15
390.280	1	6
390.622	1	6
390.963	1	21
391.305	1	19
391.647	1	8
391.988	1	10
392.330	1	15
392.671	1	4
393.013	1	3
393.355	1	12
393.696	1	11
394.038	1	10
394.379	1	3
394.721	1	4
395.062	1	16
395.404	1	8
395.746	1	4
396.087	1	0
396.429	1	15
396.770	1	3
397.112	1	10
397.453	1	17
397.795	1	4
398.136	1	-1
398.478	1	8
398.819	1	13
399.161	1	14
399.503	1	6
399.844	1	6
400.186	1	8
400.527	1	-5
400.869	1	8
401.210	1	16
401.552	1	-2
401.893	1	14
402.235	1	12
402.576	1	0
402.918	1	12
403.259	1	15
403.601	1	4
403.942	1	14
404.284	1	9
404.625	1	15
404.967	1	9
405.308	1	6
405.649	1	5
405.991	1	4
406.332	1	8
406.674	1	1
407.015	1	16
407.357	1	1
407.698	1	15
408.040	1	1
408.381	1	2
408.722	1	-5
409.064	1	4
409.405	1	8
409.747	1	2
410.088	1	7
410.430	1	16
410.771	1	6
411.112	1	-5
411.454	1	-3
411.795	1	-6
412.137	1	10
412.478	1	15
412.819	1	8
413.161	1	4
413.502	1	6
413.844	1	5
414.185	1	5
414.526	1	0
414.868	1	-1
415.209	1	2
415.550	1	2
415.892	1	5
416.233	1	8
416.575	1	12
416.916	1	4
417.257	1	0
417.599	1	4
417.940	1	20
418.281	1	4
418.623	1	-3
418.964	1	-8
419.305	1	7
419.647	1	5
419.988	1	-5
420.329	1	-3
420.671	1	3
421.012	1	8
421.353	1	8
421.695	1	0
422.036	1	1
422.377	1	-1
422.718	1	11
423.060	1	-1
423.401	1	6
423.742	1	13
424.084	1	3
424.425	1	7
424.766	1	1
425.107	1	-4
425.449	1	8
425.790	1	-7
426.131	1	6
426.472	1	-10
426.814	1	6
427.155	1	3
427.496	1	7
427.837	1	-6
428.179	1	0
428.520	1	0
428.861	1	5
429.202	1	8
429.544	1	2
429.885	1	-8
430.226	1	-10
430.567	1	2
430.909	1	9
431.250	1	-1
431.591	1	5
431.932	1	-3
432.273	1	0
432.615	1	-12
432.956	1	1
433.297	1	2
433.638	1	3
433.979	1	3
434.320	1	4
434.662	1	2
435.003	1	4
435.344	1	4
435.685	1	6
436.026	1	7
436.368	1	1
436.709	1	1
437.050	1	-7
437.391	1	11
437.732	1	-6
438.073	1	5
438.414	1	-10
438.756	1	-7
439.097	1	3
439.438	1	0
439.779	1	-6
440.120	1	2
440.461	1	11
440.802	1	-3
441.143	1	12
441.485	1	2
441.826	1	-3
442.167	1	7
442.508	1	-5
442.849	1	12
443.190	1	4
443.531	1	12
443.872	1	3
444.213	1	-2
444.554	1	15
444.895	1	-7
445.237	1	4
445.578	1	-9
445.919	1	-5
446.260	1	0
446.601	1	-7
446.942	1	7
447.283	1	2
447.624	1	0
447.965	1	1
448.306	1	-4
448.647	1	0
448.988	1	8
449.329	1	-3
449.670	1	12
450.011	1	3
450.352	1	0
450.693	1	-1
451.034	1	-5
451.375	1	-1
451.716	1	-1
452.057	1	6
452.398	1	-3
452.739	1	3
453.080	1	-4
453.421	1	-8
453.762	1	-3
454.103	1	3
454.444	1	-2
454.785	1	-1
455.126	1	-11
455.467	1	-9
455.808	1	1
456.149	1	9
456.490	1	6
456.831	1	8
457.172	1	3
457.513	1	7
457.854	1	6
458.195	1	3
458.536	1	4
458.877	1	-4
459.218	1	2
459.559	1	10
459.899	1	5
460.240	1	6
460.581	1	5
460.922	1	6
461.263	1	-5
461.604	1	8
461.945	1	1
462.286	1	2
462.627	1	8
462.968	1	11
463.309	1	-1
463.649	1	-3
463.990	1	-1
464.331	1	2
464.672	1	-3
465.013	1	-3
465.354	1	-3
465.695	1	-2
466.036	1	-4
466.376	1	1
466.717	1	1
467.058	1	2
467.399	1	6
467.740	1	-2
468.081	1	16
468.422	1	-4
468.762	1	-10
469.103	1	3
469.444	1	-8
469.785	1	-15
470.126	1	-4
470.467	1	3
470.807	1	8
471.148	1	-2
471.489	1	-1
471.830	1	-7
472.171	1	5
472.511	1	-6
472.852	1	0
473.193	1	15
473.534	1	16
473.875	1	18
474.215	1	7
474.556	1	8
474.897	1	11
475.238	1	-1
475.578	1	-10
475.919	1	5
476.260	1	0
476.601	1	-5
476.942	1	10
477.282	1	-6
477.623	1	-4
477.964	1	-1
478.305	1	0
478.645	1	9
478.986	1	3
479.327	1	3
479.667	1	1
480.008	1	5
480.349	1	3
480.690	1	14
481.030	1	5
481.371	1	9
481.712	1	3
482.053	1	4
482.393	1	1
482.734	1	0
483.075	1	6
483.415	1	1
483.756	1	6
484.097	1	1
484.437	1	-7
484.778	1	15
485.119	1	-9
485.459	1	24
485.800	1	5
486.141	1	-6
486.481	1	1
486.822	1	7
487.163	1	0
487.503	1	3
487.844	1	8
488.185	1	1
488.525	1	7
488.866	1	7
489.207	1	5
489.547	1	-3
489.888	1	-4
490.228	1	14
490.569	1	9
490.910	1	5
491.250	1	-5
491.591	1	-1
491.932	1	10
492.272	1	9
492.613	1	-5
492.953	1	5
493.294	1	-1
493.635	1	2
493.975	1	-3
494.316	1	11
494.656	1	5
494.997	1	3
495.337	1	5
495.678	1	10
496.019	1	3
496.359	1	-2
496.700	1	9
497.040	1	8
497.381	1	3
497.721	1	3
498.062	1	3
498.403	1	6
498.743	1	1
499.084	1	1
499.424	1	-5
499.765	1	2
500.105	1	5
500.446	1	-3
500.786	1	-1
501.127	1	6
501.467	1	-3
501.808	1	7
502.148	1	5
502.489	1	4
502.829	1	-4
503.170	1	9
503.510	1	9
503.851	1	7
504.191	1	4
504.532	1	13
504.872	1	0
505.213	1	11
505.553	1	-1
505.894	1	-3
506.234	1	6
506.575	1	5
506.915	1	5
507.256	1	12
507.596	1	-2
507.936	1	12
508.277	1	14
508.617	1	2
508.958	1	-5
509.298	1	15
509.639	1	-5
509.979	1	3
510.319	1	6
510.660	1	-2
511.000	1	-3
511.341	1	7
511.681	1	10
512.022	1	-3
512.362	1	-6
512.702	1	-4
513.043	1	8
513.383	1	1
513.724	1	3
514.064	1	16
514.404	1	-2
514.745	1	1
515.085	1	7
515.425	1	1
515.766	1	-3
516.106	1	8
516.447	1	11
516.787	1	8
517.127	1	5
517.468	1	3
517.808	1	1
518.148	1	16
518.489	1	0
518.829	1	5
519.169	1	-2
519.510	1	1
519.850	1	9
520.190	1	0
520.531	1	3
520.871	1	14
521.211	1	-9
521.552	1	11
521.892	1	8
522.232	1	3
522.573	1	10
522.913	1	11
523.253	1	13
523.593	1	10
523.934	1	6
524.274	1	14
524.614	1	10
524.955	1	-1
525.295	1	9
525.635	1	8
525.975	1	7
526.316	1	12
526.656	1	0
526.996	1	8
527.337	1	8
527.677	1	14
528.017	1	-2
528.357	1	2
528.698	1	1
529.038	1	7
529.378	1	9
529.718	1	16
530.058	1	13
530.399	1	7
530.739	1	5
531.079	1	10
531.419	1	15
531.760	1	17
532.100	1	10
532.440	1	9
532.780	1	5
533.120	1	3
533.461	1	6
533.801	1	16
534.141	1	-5
534.481	1	1
534.821	1	15
535.162	1	6
535.502	1	10
535.842	1	15
536.182	1	0
536.522	1	6
536.862	1	8
537.203	1	2
537.543	1	9
537.883	1	7
538.223	1	7
538.563	1	9
538.903	1	-1
539.243	1	-3
539.584	1	6
539.924	1	11
540.264	1	4
540.604	1	9
540.944	1	-1
541.284	1	12
541.624	1	14
541.964	1	9
542.305	1	15
542.645	1	14
542.985	1	17
543.325	1	5
543.665	1	10
544.005	1	12
544.345	1	14
544.685	1	6
545.025	1	12
545.365	1	5
545.705	1	8
546.045	1	4
546.386	1	12
546.726	1	-6
547.066	1	14
547.406	1	3
547.746	1	-2
548.086	1	12
548.426	1	5
548.766	1	17
549.106	1	14
549.446	1	9
549.786	1	9
550.126	1	16
550.466	1	12
550.806	1	9
551.146	1	15
551.486	1	-3
551.826	1	7
552.166	1	8
552.506	1	17
552.846	1	11
553.186	1	11
553.526	1	2
553.866	1	10
554.206	1	24
554.546	1	18
554.886	1	18
555.226	1	9
555.566	1	14
555.906	1	6
556.246	1	20
556.586	1	8
556.926	1	7
557.266	1	1
557.606	1	13
557.946	1	9
558.286	1	16
558.626	1	12
558.966	1	5
559.306	1	10
559.646	1	7
559.986	1	9
560.325	1	4
560.665	1	11
561.005	1	3
561.345	1	12
561.685	1	8
562.025	1	4
562.365	1	11
562.705	1	4
563.045	1	0
563.385	1	-4
563.725	1	10
564.064	1	7
564.404	1	15
564.744	1	7
565.084	1	7
565.424	1	10
565.764	1	6
566.104	1	9
566.444	1	8
566.783	1	-3
567.123	1	16
567.463	1	10
567.803	1	3
568.143	1	7
568.483	1	9
568.823	1	11
569.162	1	16
569.502	1	10
569.842	1	12
570.182	1	16
570.522	1	-6
570.862	1	8
571.201	1	14
571.541	1	13
571.881	1	11
572.221	1	2
572.561	1	12
572.900	1	3
573.240	1	10
573.580	1	2
573.920	1	11
574.260	1	12
574.599	1	2
574.939	1	10
575.279	1	17
575.619	1	13
575.959	1	-4
576.298	1	17
576.638	1	-2
576.978	1	10
577.318	1	11
577.657	1	1
577.997	1	6
578.337	1	15
578.677	1	7
579.016	1	19
579.356	1	5
579.696	1	1
580.036	1	2
580.375	1	5
580.715	1	3
581.055	1	1
581.394	1	-4
581.734	1	3
582.074	1	13
582.414	1	12
582.753	1	2
583.093	1	8
583.433	1	5
583.772	1	7
584.112	1	7
584.452	1	6
584.791	1	-1
585.131	1	5
585.471	1	14
585.811	1	13
586.150	1	8
586.490	1	16
586.830	1	10
587.169	1	17
587.509	1	9
587.849	1	13
588.188	1	9
588.528	1	9
588.867	1	20
589.207	1	13
589.547	1	3
589.886	1	7
590.226	1	14
590.566	1	10
590.905	1	9
591.245	1	-1
591.585	1	12
591.924	1	5
592.264	1	14
592.603	1	11
592.943	1	13
593.283	1	6
593.622	1	5
593.962	1	7
594.301	1	8
594.641	1	-1
594.981	1	-5
595.320	1	4
595.660	1	3
595.999	1	-5
596.339	1	12
596.678	1	1
597.018	1	6
597.358	1	13
597.697	1	4
598.037	1	3
598.376	1	14
598.716	1	9
599.055	1	16
599.395	1	8
599.734	1	10
600.074	1	-4
600.413	1	11
600.753	1	14
601.092	1	20
601.432	1	0
601.771	1	11
602.111	1	10
602.451	1	1
602.790	1	8
603.130	1	1
603.469	1	2
603.809	1	5
604.148	1	11
604.487	1	8
604.827	1	13
605.166	1	16
605.506	1	8
605.845	1	8
606.185	1	10
606.524	1	6
606.864	1	16
607.203	1	7
607.543	1	7
607.882	1	8
608.222	1	5
608.561	1	11
608.901	1	7
609.240	1	0
609.579	1	13
609.919	1	17
610.258	1	21
610.598	1	1
610.937	1	3
611.277	1	0
611.616	1	6
611.955	1	7
612.295	1	5
612.634	1	1
612.974	1	-5
613.313	1	13
613.652	1	11
613.992	1	9
614.331	1	9
614.671	1	6
615.010	1	-4
615.349	1	14
615.689	1	3
616.028	1	5
616.368	1	13
616.707	1	11
617.046	1	6
617.386	1	7
617.725	1	2
618.064	1	8
618.404	1	5
618.743	1	16
619.082	1	4
619.422	1	-6
619.761	1	9
620.100	1	13
620.440	1	6
620.779	1	-1
621.118	1	7
621.458	1	3
621.797	1	2
622.136	1	14
622.476	1	8
622.815	1	15
623.154	1	8
623.494	1	16
623.833	1	15
624.172	1	1
624.511	1	1
624.851	1	-7
625.190	1	5
625.529	1	5
625.869	1	5
626.208	1	7
626.547	1	10
626.886	1	-1
627.226	1	8
627.565	1	0
627.904	1	-4
628.243	1	10
628.583	1	1
628.922	1	19
629.261	1	8
629.600	1	15
629.940	1	8
630.279	1	3
630.618	1	4
630.957	1	4
631.297	1	1
631.636	1	0
631.975	1	14
632.314	1	8
632.653	1	11
632.993	1	-2
633.332	1	8
633.671	1	0
634.010	1	6
634.349	1	13
634.689	1	9
635.028	1	8
635.367	1	1
635.706	1	11
636.045	1	19
636.384	1	-5
636.724	1	9
637.063	1	-1
637.402	1	7
637.741	1	1
638.080	1	4
638.419	1	8
638.759	1	4
639.098	1	8
639.437	1	10
639.776	1	8
640.115	1	3
640.454	1	10
640.793	1	13
641.132	1	13
641.472	1	21
641.811	1	4
642.150	1	-6
642.489	1	4
642.828	1	0
643.167	1	-8
643.506	1	-10
643.845	1	-1
644.184	1	13
644.524	1	1
644.863	1	-8
645.202	1	-2
645.541	1	1
645.880	1	7
646.219	1	2
646.558	1	-8
646.897	1	1
647.236	1	11
647.575	1	2
647.914	1	-9
648.253	1	13
648.592	1	-2
648.931	1	20
649.270	1	8
649.610	1	-3
649.949	1	7
650.288	1	7
650.627	1	5
650.966	1	3
651.305	1	0
651.644	1	7
651.983	1	-3
652.322	1	3
652.661	1	4
653.000	1	8
653.339	1	2
653.678	1	-2
654.017	1	-8
654.356	1	2
654.695	1	1
655.034	1	14
655.373	1	15
655.712	1	10
656.051	1	10
656.390	1	4
656.729	1	11
657.068	1	5
657.406	1	3
657.745	1	-4
658.084	1	8
658.423	1	6
658.762	1	0
659.101	1	19
659.440	1	4
659.779	1	9
660.118	1	0
660.457	1	2
660.796	1	-1
661.135	1	-4
661.474	1	-2
661.813	1	19
662.152	1	11
662.491	1	-5
662.829	1	3
663.168	1	5
663.507	1	7
663.846	1	-1
664.185	1	5
664.524	1	14
664.863	1	-4
665.202	1	8
665.541	1	-10
665.879	1	0
666.218	1	-6
666.557	1	1
666.896	1	-3
667.235	1	8
667.574	1	-1
667.913	1	2
668.251	1	3
668.590	1	0
668.929	1	0
669.268	1	-3
669.607	1	-4
669.946	1	5
670.285	1	5
670.623	1	10
670.962	1	10
671.301	1	2
671.640	1	3
671.979	1	-1
672.317	1	9
672.656	1	-4
672.995	1	10
673.334	1	8
673.673	1	4
674.011	1	5
674.350	1	1
674.689	1	2
675.028	1	2
675.367	1	7
675.705	1	13
676.044	1	4
676.383	1	-2
676.722	1	3
677.060	1	6
677.399	1	0
677.738	1	14
678.077	1	12
678.416	1	9
678.754	1	0
679.093	1	5
679.432	1	2
679.771	1	4
680.109	1	12
680.448	1	14
680.787	1	4
681.125	1	6
681.464	1	15
681.803	1	1
682.142	1	16
682.480	1	9
682.819	1	2
683.158	1	5
683.496	1	10
683.835	1	6
684.174	1	-4
684.512	1	6
684.851	1	12
685.190	1	2
685.529	1	-1
685.867	1	1
686.206	1	-1
686.545	1	-7
686.883	1	7
687.222	1	10
687.561	1	13
687.899	1	-1
688.238	1	11
688.577	1	3
688.746	1	0