File: Data/GaN_200K_800ms/GaN_sample F_spot 12_UVVIS_200 K_200um_800 ms 2x2mm1_234.txt
340.368	1	1
340.710	1	-13
341.052	1	7
341.394	1	3
341.737	1	13
342.079	1	-9
342.421	1	1
342.763	1	3
343.105	1	12
343.447	1	-5
343.789	1	-7
344.131	1	-3
344.473	1	-3
344.815	1	-6
345.157	1	-5
345.499	1	0
345.841	1	6
346.183	1	-1
346.526	1	-7
346.868	1	-1
347.210	1	-7
347.552	1	-4
347.894	1	2
348.236	1	8
348.578	1	-5
348.920	1	-4
349.262	1	1
349.604	1	8
349.946	1	-3
350.288	1	11
350.630	1	-3
350.972	1	-2
351.314	1	7
351.656	1	-2
351.998	1	19
352.340	1	2
352.682	1	5
353.024	1	-1
353.366	1	15
353.708	1	-2
354.050	1	-7
354.392	1	-5
354.734	1	-1
355.076	1	8
355.418	1	-7
355.760	1	5
356.102	1	7
356.444	1	7
356.785	1	9
357.127	1	-3
357.469	1	3
357.811	1	2
358.153	1	2
358.495	1	12
358.837	1	-4
359.179	1	3
359.521	1	5
359.863	1	0
360.205	1	9
360.547	1	11
360.889	1	-10
361.231	1	-1
361.572	1	8
361.914	1	11
362.256	1	8
362.598	1	0
362.940	1	15
363.282	1	13
363.624	1	9
363.966	1	7
364.308	1	4
364.649	1	17
364.991	1	5
365.333	1	10
365.675	1	10
366.017	1	13
366.359	1	10
366.701	1	18
367.042	1	20
367.384	1	20
367.726	1	24
368.068	1	31
368.410	1	35
368.752	1	22
369.093	1	29
369.435	1	26
369.777	1	30
370.119	1	25
370.461	1	41
370.803	1	30
371.144	1	24
371.486	1	31
371.828	1	22
372.170	1	22
372.512	1	20
372.853	1	20
373.195	1	14
373.537	1	23
373.879	1	13
374.220	1	25
374.562	1	27
374.904	1	11
375.246	1	25
375.588	1	10
375.929	1	22
376.271	1	15
376.613	1	19
376.955	1	11
377.296	1	5
377.638	1	12
377.980	1	16
378.321	1	3
378.663	1	9
379.005	1	24
379.347	1	8
379.688	1	16
380.030	1	-2
380.372	1	16
380.714	1	14
381.055	1	9
381.397	1	5
381.739	1	13
382.080	1	12
382.422	1	1
382.764	1	7
383.105	1	-1
383.447	1	3
383.789	1	7
384.130	1	2
384.472	1	-4
384.814	1	6
385.156	1	5
385.497	1	13
385.839	1	2
386.180	1	3
386.522	1	12
386.864	1	14
387.205	1	0
387.547	1	4
387.889	1	5
388.230	1	12
388.572	1	0
388.914	1	7
389.255	1	3
389.597	1	3
389.939	1	1
390.280	1	5
390.622	1	-1
390.963	1	9
391.305	1	8
391.647	1	6
391.988	1	14
392.330	1	9
392.671	1	9
393.013	1	-3
393.355	1	10
393.696	1	8
394.038	1	5
394.379	1	7
394.721	1	1
395.062	1	3
395.404	1	-6
395.746	1	6
396.087	1	4
396.429	1	1
396.770	1	0
397.112	1	6
397.453	1	14
397.795	1	4
398.136	1	-5
398.478	1	10
398.819	1	7
399.161	1	6
399.503	1	2
399.844	1	2
400.186	1	5
400.527	1	3
400.869	1	3
401.210	1	6
401.552	1	-4
401.893	1	2
402.235	1	-2
402.576	1	0
402.918	1	5
403.259	1	11
403.601	1	-6
403.942	1	14
404.284	1	9
404.625	1	9
404.967	1	-2
405.308	1	5
405.649	1	6
405.991	1	-1
406.332	1	10
406.674	1	-1
407.015	1	3
407.357	1	-6
407.698	1	-2
408.040	1	6
408.381	1	2
408.722	1	-10
409.064	1	-1
409.405	1	8
409.747	1	5
410.088	1	0
410.430	1	8
410.771	1	1
411.112	1	-2
411.454	1	0
411.795	1	-2
412.137	1	5
412.478	1	11
412.819	1	-5
413.161	1	-4
413.502	1	0
413.844	1	4
414.185	1	3
414.526	1	-3
414.868	1	-5
415.209	1	-10
415.550	1	-5
415.892	1	0
416.233	1	-3
416.575	1	5
416.916	1	-10
417.257	1	0
417.599	1	0
417.940	1	8
418.281	1	-3
418.623	1	-4
418.964	1	-10
419.305	1	-3
419.647	1	-1
419.988	1	3
420.329	1	-9
420.671	1	5
421.012	1	-1
421.353	1	-1
421.695	1	-2
422.036	1	8
422.377	1	3
422.718	1	9
423.060	1	3
423.401	1	6
423.742	1	1
424.084	1	2
424.425	1	1
424.766	1	3
425.107	1	-5
425.449	1	-2
425.790	1	-2
426.131	1	-7
426.472	1	-4
426.814	1	3
427.155	1	-5
427.496	1	-2
427.837	1	-1
428.179	1	-9
428.520	1	-2
428.861	1	0
429.202	1	-8
429.544	1	2
429.885	1	4
430.226	1	-11
430.567	1	6
430.909	1	-11
431.250	1	-9
431.591	1	0
431.932	1	-5
432.273	1	5
432.615	1	-11
432.956	1	-13
433.297	1	3
433.638	1	2
433.979	1	0
434.320	1	6
434.662	1	-7
435.003	1	8
435.344	1	5
435.685	1	-4
436.026	1	-1
436.368	1	4
436.709	1	-1
437.050	1	1
437.391	1	14
437.732	1	-2
438.073	1	-2
438.414	1	-6
438.756	1	-4
439.097	1	-6
439.438	1	1
439.779	1	-2
440.120	1	-2
440.461	1	1
440.802	1	-11
441.143	1	8
441.485	1	-1
441.826	1	-2
442.167	1	-3
442.508	1	-9
442.849	1	1
443.190	1	5
443.531	1	3
443.872	1	1
444.213	1	0
444.554	1	8
444.895	1	-3
445.237	1	-2
445.578	1	-8
445.919	1	-6
446.260	1	-6
446.601	1	-8
446.942	1	2
447.283	1	-4
447.624	1	1
447.965	1	-7
448.306	1	5
448.647	1	-4
448.988	1	0
449.329	1	-1
449.670	1	8
450.011	1	-2
450.352	1	-1
450.693	1	-8
451.034	1	-3
451.375	1	6
451.716	1	-7
452.057	1	4
452.398	1	-6
452.739	1	12
453.080	1	5
453.421	1	-3
453.762	1	0
454.103	1	3
454.444	1	-7
454.785	1	-2
455.126	1	-4
455.467	1	1
455.808	1	-5
456.149	1	12
456.490	1	0
456.831	1	6
457.172	1	-5
457.513	1	2
457.854	1	-4
458.195	1	-11
458.536	1	8
458.877	1	0
459.218	1	-1
459.559	1	-4
459.899	1	-6
460.240	1	9
460.581	1	11
460.922	1	1
461.263	1	-7
461.604	1	-3
461.945	1	8
462.286	1	2
462.627	1	2
462.968	1	-5
463.309	1	1
463.649	1	4
463.990	1	-1
464.331	1	1
464.672	1	3
465.013	1	-1
465.354	1	-4
465.695	1	0
466.036	1	-5
466.376	1	-6
466.717	1	2
467.058	1	-6
467.399	1	5
467.740	1	-6
468.081	1	5
468.422	1	-3
468.762	1	-8
469.103	1	-5
469.444	1	-7
469.785	1	-16
470.126	1	-9
470.467	1	-2
470.807	1	3
471.148	1	5
471.489	1	-6
471.830	1	-1
472.171	1	6
472.511	1	-6
472.852	1	-2
473.193	1	5
473.534	1	10
473.875	1	5
474.215	1	12
474.556	1	1
474.897	1	7
475.238	1	2
475.578	1	3
475.919	1	-5
476.260	1	-3
476.601	1	2
476.942	1	12
477.282	1	2
477.623	1	-4
477.964	1	-2
478.305	1	-1
478.645	1	14
478.986	1	2
479.327	1	-16
479.667	1	-5
480.008	1	8
480.349	1	-4
480.690	1	-6
481.030	1	-8
481.371	1	6
481.712	1	5
482.053	1	10
482.393	1	-5
482.734	1	-2
483.075	1	-10
483.415	1	13
483.756	1	11
484.097	1	-3
484.437	1	-13
484.778	1	2
485.119	1	-3
485.459	1	13
485.800	1	-16
486.141	1	-2
486.481	1	4
486.822	1	7
487.163	1	3
487.503	1	-5
487.844	1	3
488.185	1	-3
488.525	1	5
488.866	1	3
489.207	1	-4
489.547	1	-4
489.888	1	-7
490.228	1	12
490.569	1	6
490.910	1	-5
491.250	1	-3
491.591	1	-1
491.932	1	8
492.272	1	-1
492.613	1	-4
492.953	1	1
493.294	1	-2
493.635	1	-2
493.975	1	-4
494.316	1	0
494.656	1	-2
494.997	1	4
495.337	1	12
495.678	1	-1
496.019	1	-1
496.359	1	-9
496.700	1	4
497.040	1	0
497.381	1	-9
497.721	1	-4
498.062	1	4
498.403	1	5
498.743	1	1
499.084	1	-3
499.424	1	6
499.765	1	0
500.105	1	-3
500.446	1	-9
500.786	1	-8
501.127	1	5
501.467	1	-8
501.808	1	8
502.148	1	2
502.489	1	1
502.829	1	-3
503.170	1	10
503.510	1	8
503.851	1	0
504.191	1	0
504.532	1	13
504.872	1	-2
505.213	1	14
505.553	1	-7
505.894	1	-5
506.234	1	7
506.575	1	10
506.915	1	1
507.256	1	10
507.596	1	2
507.936	1	2
508.277	1	-7
508.617	1	6
508.958	1	-5
509.298	1	-1
509.639	1	-5
509.979	1	-3
510.319	1	5
510.660	1	-3
511.000	1	-2
511.341	1	-3
511.681	1	10
512.022	1	-2
512.362	1	0
512.702	1	2
513.043	1	8
513.383	1	-4
513.724	1	0
514.064	1	7
514.404	1	2
514.745	1	1
515.085	1	2
515.425	1	-7
515.766	1	3
516.106	1	-4
516.447	1	6
516.787	1	5
517.127	1	1
517.468	1	-6
517.808	1	-8
518.148	1	4
518.489	1	0
518.829	1	3
519.169	1	-1
519.510	1	8
519.850	1	-1
520.190	1	-5
520.531	1	0
520.871	1	-5
521.211	1	-12
521.552	1	4
521.892	1	4
522.232	1	2
522.573	1	-4
522.913	1	3
523.253	1	7
523.593	1	1
523.934	1	6
524.274	1	1
524.614	1	5
524.955	1	1
525.295	1	1
525.635	1	-1
525.975	1	-2
526.316	1	6
526.656	1	3
526.996	1	11
527.337	1	-2
527.677	1	7
528.017	1	-3
528.357	1	6
528.698	1	8
529.038	1	6
529.378	1	0
529.718	1	3
530.058	1	1
530.399	1	8
530.739	1	4
531.079	1	6
531.419	1	3
531.760	1	-6
532.100	1	2
532.440	1	1
532.780	1	7
533.120	1	14
533.461	1	10
533.801	1	14
534.141	1	-7
534.481	1	-5
534.821	1	8
535.162	1	1
535.502	1	1
535.842	1	7
536.182	1	-5
536.522	1	-7
536.862	1	7
537.203	1	-7
537.543	1	1
537.883	1	-16
538.223	1	5
538.563	1	5
538.903	1	-3
539.243	1	-2
539.584	1	-1
539.924	1	15
540.264	1	-9
540.604	1	0
540.944	1	-5
541.284	1	11
541.624	1	3
541.964	1	3
542.305	1	5
542.645	1	1
542.985	1	-2
543.325	1	1
543.665	1	9
544.005	1	7
544.345	1	3
544.685	1	-4
545.025	1	-4
545.365	1	6
545.705	1	-4
546.045	1	-9
546.386	1	-1
546.726	1	-12
547.066	1	-1
547.406	1	11
547.746	1	-3
548.086	1	0
548.426	1	3
548.766	1	4
549.106	1	4
549.446	1	11
549.786	1	-5
550.126	1	13
550.466	1	5
550.806	1	-2
551.146	1	1
551.486	1	7
551.826	1	14
552.166	1	0
552.506	1	9
552.846	1	1
553.186	1	13
553.526	1	2
553.866	1	2
554.206	1	9
554.546	1	2
554.886	1	1
555.226	1	-10
555.566	1	1
555.906	1	5
556.246	1	9
556.586	1	8
556.926	1	5
557.266	1	-1
557.606	1	1
557.946	1	12
558.286	1	8
558.626	1	8
558.966	1	2
559.306	1	5
559.646	1	1
559.986	1	-2
560.325	1	3
560.665	1	0
561.005	1	0
561.345	1	-1
561.685	1	10
562.025	1	5
562.365	1	4
562.705	1	0
563.045	1	-3
563.385	1	4
563.725	1	8
564.064	1	-6
564.404	1	10
564.744	1	8
565.084	1	2
565.424	1	6
565.764	1	1
566.104	1	7
566.444	1	1
566.783	1	-12
567.123	1	-2
567.463	1	13
567.803	1	1
568.143	1	2
568.483	1	5
568.823	1	-2
569.162	1	5
569.502	1	10
569.842	1	13
570.182	1	2
570.522	1	-14
570.862	1	-8
571.201	1	7
571.541	1	7
571.881	1	17
572.221	1	4
572.561	1	0
572.900	1	-5
573.240	1	2
573.580	1	13
573.920	1	4
574.260	1	12
574.599	1	-4
574.939	1	10
575.279	1	10
575.619	1	7
575.959	1	-4
576.298	1	15
576.638	1	1
576.978	1	21
577.318	1	6
577.657	1	-2
577.997	1	3
578.337	1	19
578.677	1	4
579.016	1	12
579.356	1	5
579.696	1	3
580.036	1	1
580.375	1	3
580.715	1	4
581.055	1	7
581.394	1	3
581.734	1	-2
582.074	1	-3
582.414	1	9
582.753	1	-4
583.093	1	7
583.433	1	0
583.772	1	15
584.112	1	11
584.452	1	3
584.791	1	-3
585.131	1	-2
585.471	1	14
585.811	1	4
586.150	1	2
586.490	1	-3
586.830	1	2
587.169	1	7
587.509	1	5
587.849	1	4
588.188	1	2
588.528	1	8
588.867	1	7
589.207	1	-2
589.547	1	13
589.886	1	-13
590.226	1	3
590.566	1	0
590.905	1	4
591.245	1	2
591.585	1	7
591.924	1	0
592.264	1	5
592.603	1	-2
592.943	1	8
593.283	1	-4
593.622	1	-3
593.962	1	10
594.301	1	8
594.641	1	-3
594.981	1	-5
595.320	1	0
595.660	1	0
595.999	1	-3
596.339	1	-5
596.678	1	-3
597.018	1	-4
597.358	1	12
597.697	1	3
598.037	1	2
598.376	1	-3
598.716	1	8
599.055	1	8
599.395	1	-5
599.734	1	0
600.074	1	2
600.413	1	6
600.753	1	3
601.092	1	16
601.432	1	3
601.771	1	8
602.111	1	2
602.451	1	5
602.790	1	0
603.130	1	4
603.469	1	-7
603.809	1	8
604.148	1	1
604.487	1	6
604.827	1	2
605.166	1	10
605.506	1	9
605.845	1	5
606.185	1	1
606.524	1	-1
606.864	1	11
607.203	1	0
607.543	1	2
607.882	1	3
608.222	1	2
608.561	1	3
608.901	1	2
609.240	1	-2
609.579	1	10
609.919	1	14
610.258	1	4
610.598	1	-3
610.937	1	-3
611.277	1	3
611.616	1	-5
611.955	1	0
612.295	1	-3
612.634	1	-3
612.974	1	-7
613.313	1	13
613.652	1	2
613.992	1	7
614.331	1	-2
614.671	1	4
615.010	1	-10
615.349	1	8
615.689	1	6
616.028	1	-2
616.368	1	5
616.707	1	-1
617.046	1	5
617.386	1	-1
617.725	1	0
618.064	1	-5
618.404	1	0
618.743	1	3
619.082	1	-1
619.422	1	-3
619.761	1	0
620.100	1	8
620.440	1	2
620.779	1	-5
621.118	1	1
621.458	1	10
621.797	1	-4
622.136	1	13
622.476	1	11
622.815	1	10
623.154	1	11
623.494	1	11
623.833	1	6
624.172	1	-8
624.511	1	-1
624.851	1	-8
625.190	1	3
625.529	1	1
625.869	1	7
626.208	1	2
626.547	1	2
626.886	1	-1
627.226	1	-4
627.565	1	3
627.904	1	1
628.243	1	7
628.583	1	7
628.922	1	8
629.261	1	7
629.600	1	12
629.940	1	8
630.279	1	-11
630.618	1	-2
630.957	1	5
631.297	1	-6
631.636	1	-7
631.975	1	9
632.314	1	-2
632.653	1	3
632.993	1	6
633.332	1	0
633.671	1	5
634.010	1	-1
634.349	1	10
634.689	1	1
635.028	1	9
635.367	1	6
635.706	1	7
636.045	1	9
636.384	1	1
636.724	1	11
637.063	1	8
637.402	1	4
637.741	1	8
638.080	1	1
638.419	1	4
638.759	1	-3
639.098	1	8
639.437	1	4
639.776	1	1
640.115	1	-7
640.454	1	-3
640.793	1	9
641.132	1	6
641.472	1	-2
641.811	1	-8
642.150	1	4
642.489	1	6
642.828	1	2
643.167	1	1
643.506	1	-3
643.845	1	-2
644.184	1	-1
644.524	1	-9
644.863	1	-4
645.202	1	-2
645.541	1	4
645.880	1	4
646.219	1	3
646.558	1	6
646.897	1	2
647.236	1	4
647.575	1	-3
647.914	1	1
648.253	1	11
648.592	1	-2
648.931	1	7
649.270	1	-1
649.610	1	-1
649.949	1	-10
650.288	1	-5
650.627	1	-8
650.966	1	2
651.305	1	2
651.644	1	10
651.983	1	7
652.322	1	-13
652.661	1	-2
653.000	1	11
653.339	1	6
653.678	1	-7
654.017	1	-2
654.356	1	-4
654.695	1	12
655.034	1	7
655.373	1	3
655.712	1	6
656.051	1	-3
656.390	1	9
656.729	1	10
657.068	1	-2
657.406	1	1
657.745	1	-3
658.084	1	-1
658.423	1	16
658.762	1	-7
659.101	1	1
659.440	1	5
659.779	1	2
660.118	1	0
660.457	1	5
660.796	1	-3
661.135	1	-1
661.474	1	-1
661.813	1	8
662.152	1	5
662.491	1	2
662.829	1	-3
663.168	1	7
663.507	1	9
663.846	1	-2
664.185	1	7
664.524	1	-7
664.863	1	1
665.202	1	11
665.541	1	-9
665.879	1	-1
666.218	1	-7
666.557	1	0
666.896	1	0
667.235	1	1
667.574	1	-1
667.913	1	2
668.251	1	-11
668.590	1	-1
668.929	1	-11
669.268	1	5
669.607	1	-4
669.946	1	4
670.285	1	-6
670.623	1	-5
670.962	1	0
671.301	1	7
671.640	1	5
671.979	1	-6
672.317	1	7
672.656	1	2
672.995	1	15
673.334	1	0
673.673	1	3
674.011	1	-4
674.350	1	3
674.689	1	3
675.028	1	-2
675.367	1	5
675.705	1	4
676.044	1	1
676.383	1	5
676.722	1	15
677.060	1	-3
677.399	1	2
677.738	1	7
678.077	1	11
678.416	1	8
678.754	1	-2
679.093	1	14
679.432	1	2
679.771	1	0
680.109	1	4
680.448	1	0
680.787	1	-3
681.125	1	11
681.464	1	4
681.803	1	-3
682.142	1	-2
682.480	1	6
682.819	1	-9
683.158	1	2
683.496	1	-8
683.835	1	5
684.174	1	-7
684.512	1	-3
684.851	1	16
685.190	1	-3
685.529	1	-2
685.867	1	0
686.206	1	2
686.545	1	-2
686.883	1	1
687.222	1	2
687.561	1	9
687.899	1	9
688.238	1	7
688.577	1	3
688.746	1	0