File: Data/GaN_200K_800ms/GaN_sample F_spot 12_UVVIS_200 K_200um_800 ms 2x2mm1_177.txt
340.368	1	3
340.710	1	-9
341.052	1	-7
341.394	1	-3
341.737	1	2
342.079	1	-5
342.421	1	-3
342.763	1	-3
343.105	1	-2
343.447	1	-8
343.789	1	0
344.131	1	-5
344.473	1	-6
344.815	1	8
345.157	1	-8
345.499	1	2
345.841	1	9
346.183	1	0
346.526	1	-8
346.868	1	13
347.210	1	-2
347.552	1	1
347.894	1	3
348.236	1	16
348.578	1	-4
348.920	1	4
349.262	1	0
349.604	1	2
349.946	1	-5
350.288	1	8
350.630	1	2
350.972	1	11
351.314	1	5
351.656	1	2
351.998	1	7
352.340	1	6
352.682	1	6
353.024	1	7
353.366	1	14
353.708	1	11
354.050	1	-4
354.392	1	-3
354.734	1	11
355.076	1	-2
355.418	1	-8
355.760	1	-1
356.102	1	17
356.444	1	13
356.785	1	5
357.127	1	2
357.469	1	4
357.811	1	8
358.153	1	2
358.495	1	10
358.837	1	-4
359.179	1	-6
359.521	1	9
359.863	1	-2
360.205	1	6
360.547	1	20
360.889	1	5
361.231	1	2
361.572	1	17
361.914	1	10
362.256	1	6
362.598	1	6
362.940	1	6
363.282	1	22
363.624	1	19
363.966	1	13
364.308	1	6
364.649	1	14
364.991	1	21
365.333	1	7
365.675	1	21
366.017	1	19
366.359	1	28
366.701	1	30
367.042	1	38
367.384	1	38
367.726	1	39
368.068	1	40
368.410	1	46
368.752	1	33
369.093	1	36
369.435	1	43
369.777	1	33
370.119	1	30
370.461	1	48
370.803	1	41
371.144	1	37
371.486	1	50
371.828	1	35
372.170	1	40
372.512	1	27
372.853	1	32
373.195	1	27
373.537	1	31
373.879	1	32
374.220	1	44
374.562	1	33
374.904	1	34
375.246	1	22
375.588	1	26
375.929	1	30
376.271	1	34
376.613	1	21
376.955	1	11
377.296	1	20
377.638	1	26
377.980	1	20
378.321	1	7
378.663	1	12
379.005	1	22
379.347	1	17
379.688	1	19
380.030	1	3
380.372	1	9
380.714	1	10
381.055	1	10
381.397	1	13
381.739	1	17
382.080	1	13
382.422	1	6
382.764	1	-2
383.105	1	5
383.447	1	10
383.789	1	4
384.130	1	10
384.472	1	6
384.814	1	-4
385.156	1	8
385.497	1	11
385.839	1	7
386.180	1	3
386.522	1	7
386.864	1	11
387.205	1	9
387.547	1	3
387.889	1	5
388.230	1	13
388.572	1	9
388.914	1	12
389.255	1	12
389.597	1	3
389.939	1	10
390.280	1	4
390.622	1	3
390.963	1	15
391.305	1	-2
391.647	1	11
391.988	1	19
392.330	1	6
392.671	1	4
393.013	1	-5
393.355	1	7
393.696	1	-4
394.038	1	12
394.379	1	-1
394.721	1	9
395.062	1	6
395.404	1	2
395.746	1	14
396.087	1	-1
396.429	1	12
396.770	1	-3
397.112	1	7
397.453	1	10
397.795	1	4
398.136	1	-1
398.478	1	5
398.819	1	5
399.161	1	12
399.503	1	7
399.844	1	11
400.186	1	-3
400.527	1	4
400.869	1	3
401.210	1	0
401.552	1	-4
401.893	1	5
402.235	1	-1
402.576	1	7
402.918	1	4
403.259	1	9
403.601	1	2
403.942	1	12
404.284	1	9
404.625	1	4
404.967	1	10
405.308	1	13
405.649	1	-1
405.991	1	-4
406.332	1	10
406.674	1	-4
407.015	1	6
407.357	1	-3
407.698	1	4
408.040	1	-10
408.381	1	4
408.722	1	-19
409.064	1	7
409.405	1	9
409.747	1	-2
410.088	1	7
410.430	1	7
410.771	1	1
411.112	1	4
411.454	1	-10
411.795	1	-1
412.137	1	0
412.478	1	21
412.819	1	-9
413.161	1	-2
413.502	1	9
413.844	1	7
414.185	1	4
414.526	1	-1
414.868	1	5
415.209	1	-2
415.550	1	-6
415.892	1	7
416.233	1	11
416.575	1	7
416.916	1	-5
417.257	1	4
417.599	1	13
417.940	1	13
418.281	1	3
418.623	1	-5
418.964	1	-12
419.305	1	8
419.647	1	5
419.988	1	-2
420.329	1	-9
420.671	1	11
421.012	1	1
421.353	1	-2
421.695	1	-4
422.036	1	-4
422.377	1	5
422.718	1	8
423.060	1	3
423.401	1	1
423.742	1	0
424.084	1	0
424.425	1	2
424.766	1	5
425.107	1	-4
425.449	1	3
425.790	1	-13
426.131	1	5
426.472	1	-11
426.814	1	4
427.155	1	1
427.496	1	2
427.837	1	8
428.179	1	3
428.520	1	3
428.861	1	-4
429.202	1	5
429.544	1	4
429.885	1	-1
430.226	1	-7
430.567	1	-7
430.909	1	4
431.250	1	3
431.591	1	3
431.932	1	-5
432.273	1	-7
432.615	1	-6
432.956	1	-6
433.297	1	-2
433.638	1	-3
433.979	1	-3
434.320	1	5
434.662	1	2
435.003	1	4
435.344	1	1
435.685	1	2
436.026	1	2
436.368	1	5
436.709	1	3
437.050	1	-3
437.391	1	22
437.732	1	0
438.073	1	-3
438.414	1	-7
438.756	1	2
439.097	1	-3
439.438	1	3
439.779	1	-9
440.120	1	-1
440.461	1	10
440.802	1	2
441.143	1	0
441.485	1	7
441.826	1	-1
442.167	1	0
442.508	1	-4
442.849	1	2
443.190	1	8
443.531	1	8
443.872	1	1
444.213	1	2
444.554	1	10
444.895	1	-15
445.237	1	-3
445.578	1	-7
445.919	1	-2
446.260	1	1
446.601	1	-3
446.942	1	0
447.283	1	-4
447.624	1	3
447.965	1	0
448.306	1	1
448.647	1	-8
448.988	1	-4
449.329	1	1
449.670	1	9
450.011	1	9
450.352	1	1
450.693	1	-14
451.034	1	-2
451.375	1	-5
451.716	1	6
452.057	1	1
452.398	1	1
452.739	1	-2
453.080	1	9
453.421	1	-3
453.762	1	10
454.103	1	2
454.444	1	-9
454.785	1	-1
455.126	1	-5
455.467	1	0
455.808	1	-4
456.149	1	3
456.490	1	-2
456.831	1	9
457.172	1	-2
457.513	1	6
457.854	1	3
458.195	1	-4
458.536	1	6
458.877	1	-3
459.218	1	3
459.559	1	1
459.899	1	-1
460.240	1	-2
460.581	1	15
460.922	1	10
461.263	1	-5
461.604	1	6
461.945	1	3
462.286	1	9
462.627	1	7
462.968	1	0
463.309	1	2
463.649	1	6
463.990	1	-8
464.331	1	-4
464.672	1	-3
465.013	1	5
465.354	1	-6
465.695	1	-4
466.036	1	-13
466.376	1	-4
466.717	1	2
467.058	1	-5
467.399	1	5
467.740	1	-1
468.081	1	3
468.422	1	-2
468.762	1	-6
469.103	1	-1
469.444	1	-8
469.785	1	-8
470.126	1	-5
470.467	1	5
470.807	1	4
471.148	1	5
471.489	1	0
471.830	1	1
472.171	1	3
472.511	1	-9
472.852	1	-5
473.193	1	5
473.534	1	15
473.875	1	10
474.215	1	10
474.556	1	6
474.897	1	3
475.238	1	-3
475.578	1	-12
475.919	1	-4
476.260	1	-6
476.601	1	-1
476.942	1	5
477.282	1	-5
477.623	1	-11
477.964	1	4
478.305	1	-1
478.645	1	4
478.986	1	5
479.327	1	-4
479.667	1	2
480.008	1	0
480.349	1	-6
480.690	1	-5
481.030	1	-6
481.371	1	4
481.712	1	5
482.053	1	1
482.393	1	0
482.734	1	-8
483.075	1	-1
483.415	1	-1
483.756	1	9
484.097	1	-2
484.437	1	-12
484.778	1	-1
485.119	1	-11
485.459	1	11
485.800	1	4
486.141	1	-3
486.481	1	-1
486.822	1	6
487.163	1	1
487.503	1	12
487.844	1	2
488.185	1	4
488.525	1	-1
488.866	1	2
489.207	1	-1
489.547	1	0
489.888	1	-2
490.228	1	14
490.569	1	11
490.910	1	-2
491.250	1	-1
491.591	1	-8
491.932	1	-4
492.272	1	6
492.613	1	-5
492.953	1	0
493.294	1	-11
493.635	1	-1
493.975	1	-1
494.316	1	6
494.656	1	1
494.997	1	2
495.337	1	7
495.678	1	2
496.019	1	-6
496.359	1	-1
496.700	1	1
497.040	1	-7
497.381	1	-5
497.721	1	0
498.062	1	-1
498.403	1	-6
498.743	1	-2
499.084	1	5
499.424	1	11
499.765	1	-7
500.105	1	-3
500.446	1	-6
500.786	1	-2
501.127	1	5
501.467	1	-6
501.808	1	3
502.148	1	5
502.489	1	5
502.829	1	4
503.170	1	0
503.510	1	6
503.851	1	-1
504.191	1	6
504.532	1	2
504.872	1	1
505.213	1	8
505.553	1	-9
505.894	1	-2
506.234	1	5
506.575	1	8
506.915	1	2
507.256	1	4
507.596	1	-1
507.936	1	4
508.277	1	5
508.617	1	1
508.958	1	-10
509.298	1	11
509.639	1	3
509.979	1	-1
510.319	1	4
510.660	1	-2
511.000	1	-1
511.341	1	6
511.681	1	9
512.022	1	-5
512.362	1	-7
512.702	1	-3
513.043	1	5
513.383	1	2
513.724	1	0
514.064	1	9
514.404	1	-5
514.745	1	-7
515.085	1	-4
515.425	1	-4
515.766	1	2
516.106	1	-3
516.447	1	14
516.787	1	10
517.127	1	-1
517.468	1	6
517.808	1	4
518.148	1	6
518.489	1	2
518.829	1	5
519.169	1	3
519.510	1	1
519.850	1	7
520.190	1	-2
520.531	1	3
520.871	1	1
521.211	1	-10
521.552	1	3
521.892	1	6
522.232	1	3
522.573	1	2
522.913	1	8
523.253	1	5
523.593	1	2
523.934	1	8
524.274	1	5
524.614	1	0
524.955	1	-11
525.295	1	5
525.635	1	5
525.975	1	3
526.316	1	6
526.656	1	6
526.996	1	6
527.337	1	-2
527.677	1	12
528.017	1	-7
528.357	1	-6
528.698	1	4
529.038	1	3
529.378	1	1
529.718	1	-9
530.058	1	-3
530.399	1	9
530.739	1	10
531.079	1	13
531.419	1	4
531.760	1	4
532.100	1	3
532.440	1	10
532.780	1	6
533.120	1	17
533.461	1	5
533.801	1	16
534.141	1	-11
534.481	1	-10
534.821	1	0
535.162	1	12
535.502	1	3
535.842	1	14
536.182	1	4
536.522	1	-5
536.862	1	15
537.203	1	-2
537.543	1	8
537.883	1	-2
538.223	1	-2
538.563	1	6
538.903	1	-3
539.243	1	0
539.584	1	0
539.924	1	6
540.264	1	3
540.604	1	5
540.944	1	5
541.284	1	7
541.624	1	10
541.964	1	5
542.305	1	16
542.645	1	6
542.985	1	3
543.325	1	-2
543.665	1	8
544.005	1	0
544.345	1	6
544.685	1	7
545.025	1	2
545.365	1	6
545.705	1	4
546.045	1	4
546.386	1	5
546.726	1	-9
547.066	1	8
547.406	1	7
547.746	1	-9
548.086	1	0
548.426	1	-11
548.766	1	2
549.106	1	3
549.446	1	5
549.786	1	-7
550.126	1	8
550.466	1	3
550.806	1	-8
551.146	1	1
551.486	1	-1
551.826	1	3
552.166	1	3
552.506	1	9
552.846	1	1
553.186	1	19
553.526	1	-9
553.866	1	0
554.206	1	17
554.546	1	4
554.886	1	10
555.226	1	-5
555.566	1	1
555.906	1	7
556.246	1	1
556.586	1	9
556.926	1	8
557.266	1	5
557.606	1	8
557.946	1	13
558.286	1	10
558.626	1	14
558.966	1	5
559.306	1	-8
559.646	1	2
559.986	1	-2
560.325	1	-5
560.665	1	2
561.005	1	0
561.345	1	10
561.685	1	-8
562.025	1	-5
562.365	1	1
562.705	1	7
563.045	1	-1
563.385	1	-3
563.725	1	2
564.064	1	4
564.404	1	9
564.744	1	12
565.084	1	3
565.424	1	5
565.764	1	2
566.104	1	-1
566.444	1	-3
566.783	1	7
567.123	1	3
567.463	1	11
567.803	1	2
568.143	1	1
568.483	1	4
568.823	1	4
569.162	1	1
569.502	1	-2
569.842	1	7
570.182	1	1
570.522	1	-3
570.862	1	6
571.201	1	1
571.541	1	12
571.881	1	13
572.221	1	-9
572.561	1	4
572.900	1	0
573.240	1	8
573.580	1	6
573.920	1	8
574.260	1	16
574.599	1	5
574.939	1	6
575.279	1	6
575.619	1	10
575.959	1	-2
576.298	1	14
576.638	1	3
576.978	1	10
577.318	1	6
577.657	1	6
577.997	1	4
578.337	1	14
578.677	1	10
579.016	1	7
579.356	1	-3
579.696	1	8
580.036	1	-1
580.375	1	5
580.715	1	1
581.055	1	1
581.394	1	0
581.734	1	-4
582.074	1	0
582.414	1	12
582.753	1	0
583.093	1	-2
583.433	1	-2
583.772	1	-1
584.112	1	-2
584.452	1	7
584.791	1	-7
585.131	1	6
585.471	1	8
585.811	1	5
586.150	1	-4
586.490	1	4
586.830	1	7
587.169	1	9
587.509	1	1
587.849	1	6
588.188	1	11
588.528	1	4
588.867	1	4
589.207	1	-3
589.547	1	1
589.886	1	2
590.226	1	17
590.566	1	-2
590.905	1	-1
591.245	1	-11
591.585	1	5
591.924	1	11
592.264	1	8
592.603	1	5
592.943	1	8
593.283	1	8
593.622	1	11
593.962	1	4
594.301	1	10
594.641	1	-2
594.981	1	-2
595.320	1	-1
595.660	1	-1
595.999	1	-5
596.339	1	9
596.678	1	2
597.018	1	1
597.358	1	5
597.697	1	-5
598.037	1	-8
598.376	1	2
598.716	1	6
599.055	1	11
599.395	1	1
599.734	1	9
600.074	1	1
600.413	1	14
600.753	1	6
601.092	1	9
601.432	1	-8
601.771	1	11
602.111	1	4
602.451	1	-2
602.790	1	5
603.130	1	12
603.469	1	-3
603.809	1	4
604.148	1	3
604.487	1	-3
604.827	1	3
605.166	1	5
605.506	1	4
605.845	1	-1
606.185	1	5
606.524	1	-1
606.864	1	-1
607.203	1	0
607.543	1	-2
607.882	1	6
608.222	1	3
608.561	1	-1
608.901	1	5
609.240	1	-13
609.579	1	11
609.919	1	14
610.258	1	4
610.598	1	1
610.937	1	1
611.277	1	1
611.616	1	-3
611.955	1	6
612.295	1	-1
612.634	1	-2
612.974	1	-6
613.313	1	12
613.652	1	5
613.992	1	-2
614.331	1	1
614.671	1	8
615.010	1	-13
615.349	1	3
615.689	1	14
616.028	1	-4
616.368	1	12
616.707	1	10
617.046	1	-1
617.386	1	3
617.725	1	4
618.064	1	4
618.404	1	0
618.743	1	3
619.082	1	0
619.422	1	-7
619.761	1	-6
620.100	1	3
620.440	1	4
620.779	1	-2
621.118	1	0
621.458	1	-4
621.797	1	-4
622.136	1	14
622.476	1	13
622.815	1	7
623.154	1	8
623.494	1	11
623.833	1	14
624.172	1	8
624.511	1	2
624.851	1	-7
625.190	1	4
625.529	1	11
625.869	1	10
626.208	1	-2
626.547	1	2
626.886	1	1
627.226	1	8
627.565	1	8
627.904	1	1
628.243	1	2
628.583	1	2
628.922	1	-3
629.261	1	1
629.600	1	13
629.940	1	9
630.279	1	-2
630.618	1	2
630.957	1	3
631.297	1	-2
631.636	1	-8
631.975	1	9
632.314	1	2
632.653	1	8
632.993	1	1
633.332	1	-2
633.671	1	-6
634.010	1	1
634.349	1	7
634.689	1	3
635.028	1	8
635.367	1	2
635.706	1	1
636.045	1	9
636.384	1	-3
636.724	1	11
637.063	1	-4
637.402	1	8
637.741	1	1
638.080	1	7
638.419	1	-1
638.759	1	-4
639.098	1	11
639.437	1	5
639.776	1	3
640.115	1	2
640.454	1	2
640.793	1	20
641.132	1	10
641.472	1	4
641.811	1	3
642.150	1	-8
642.489	1	4
642.828	1	-11
643.167	1	-1
643.506	1	-15
643.845	1	2
644.184	1	-3
644.524	1	-2
644.863	1	-7
645.202	1	10
645.541	1	-7
645.880	1	2
646.219	1	-1
646.558	1	3
646.897	1	7
647.236	1	14
647.575	1	-1
647.914	1	-4
648.253	1	7
648.592	1	-1
648.931	1	5
649.270	1	6
649.610	1	8
649.949	1	0
650.288	1	-1
650.627	1	3
650.966	1	8
651.305	1	6
651.644	1	8
651.983	1	4
652.322	1	3
652.661	1	-8
653.000	1	-1
653.339	1	9
653.678	1	2
654.017	1	5
654.356	1	-5
654.695	1	10
655.034	1	3
655.373	1	5
655.712	1	-1
656.051	1	6
656.390	1	2
656.729	1	9
657.068	1	4
657.406	1	11
657.745	1	-2
658.084	1	2
658.423	1	5
658.762	1	7
659.101	1	7
659.440	1	0
659.779	1	-1
660.118	1	2
660.457	1	-1
660.796	1	0
661.135	1	-3
661.474	1	-2
661.813	1	0
662.152	1	6
662.491	1	0
662.829	1	4
663.168	1	11
663.507	1	9
663.846	1	1
664.185	1	4
664.524	1	5
664.863	1	-3
665.202	1	8
665.541	1	-5
665.879	1	-10
666.218	1	-8
666.557	1	-9
666.896	1	2
667.235	1	10
667.574	1	-6
667.913	1	6
668.251	1	-6
668.590	1	0
668.929	1	-9
669.268	1	-2
669.607	1	-1
669.946	1	-2
670.285	1	2
670.623	1	4
670.962	1	6
671.301	1	-3
671.640	1	5
671.979	1	-2
672.317	1	8
672.656	1	6
672.995	1	9
673.334	1	1
673.673	1	7
674.011	1	-1
674.350	1	4
674.689	1	-5
675.028	1	0
675.367	1	10
675.705	1	1
676.044	1	3
676.383	1	6
676.722	1	4
677.060	1	0
677.399	1	-10
677.738	1	8
678.077	1	0
678.416	1	5
678.754	1	3
679.093	1	4
679.432	1	-3
679.771	1	-1
680.109	1	10
680.448	1	6
680.787	1	-7
681.125	1	4
681.464	1	-5
681.803	1	6
682.142	1	14
682.480	1	10
682.819	1	-2
683.158	1	0
683.496	1	8
683.835	1	-1
684.174	1	-1
684.512	1	2
684.851	1	4
685.190	1	3
685.529	1	3
685.867	1	-1
686.206	1	-6
686.545	1	-7
686.883	1	3
687.222	1	7
687.561	1	6
687.899	1	-2
688.238	1	1
688.577	1	2
688.746	1	0