File: Data/GaN_200K_800ms/GaN_sample F_spot 12_UVVIS_200 K_200um_800 ms 2x2mm1_248.txt
340.368	1	7
340.710	1	-7
341.052	1	4
341.394	1	-11
341.737	1	8
342.079	1	-4
342.421	1	9
342.763	1	-2
343.105	1	1
343.447	1	3
343.789	1	4
344.131	1	1
344.473	1	-5
344.815	1	-4
345.157	1	3
345.499	1	-2
345.841	1	13
346.183	1	-3
346.526	1	2
346.868	1	4
347.210	1	-3
347.552	1	0
347.894	1	-1
348.236	1	-2
348.578	1	-6
348.920	1	5
349.262	1	-5
349.604	1	5
349.946	1	-4
350.288	1	2
350.630	1	7
350.972	1	6
351.314	1	6
351.656	1	9
351.998	1	0
352.340	1	5
352.682	1	3
353.024	1	10
353.366	1	11
353.708	1	-8
354.050	1	-5
354.392	1	4
354.734	1	7
355.076	1	1
355.418	1	-15
355.760	1	-8
356.102	1	12
356.444	1	3
356.785	1	15
357.127	1	2
357.469	1	-5
357.811	1	3
358.153	1	11
358.495	1	5
358.837	1	-5
359.179	1	3
359.521	1	5
359.863	1	5
360.205	1	2
360.547	1	14
360.889	1	4
361.231	1	3
361.572	1	9
361.914	1	18
362.256	1	6
362.598	1	3
362.940	1	2
363.282	1	12
363.624	1	13
363.966	1	2
364.308	1	5
364.649	1	9
364.991	1	9
365.333	1	5
365.675	1	5
366.017	1	13
366.359	1	12
366.701	1	18
367.042	1	22
367.384	1	33
367.726	1	8
368.068	1	20
368.410	1	28
368.752	1	28
369.093	1	21
369.435	1	26
369.777	1	24
370.119	1	20
370.461	1	33
370.803	1	30
371.144	1	25
371.486	1	29
371.828	1	27
372.170	1	35
372.512	1	17
372.853	1	29
373.195	1	20
373.537	1	20
373.879	1	14
374.220	1	31
374.562	1	21
374.904	1	7
375.246	1	13
375.588	1	18
375.929	1	12
376.271	1	16
376.613	1	4
376.955	1	6
377.296	1	12
377.638	1	17
377.980	1	17
378.321	1	-1
378.663	1	3
379.005	1	13
379.347	1	6
379.688	1	12
380.030	1	1
380.372	1	12
380.714	1	13
381.055	1	10
381.397	1	2
381.739	1	12
382.080	1	4
382.422	1	10
382.764	1	0
383.105	1	-6
383.447	1	1
383.789	1	4
384.130	1	8
384.472	1	5
384.814	1	-9
385.156	1	4
385.497	1	5
385.839	1	6
386.180	1	2
386.522	1	9
386.864	1	8
387.205	1	-1
387.547	1	-2
387.889	1	0
388.230	1	15
388.572	1	4
388.914	1	6
389.255	1	-5
389.597	1	11
389.939	1	3
390.280	1	8
390.622	1	-3
390.963	1	10
391.305	1	10
391.647	1	6
391.988	1	9
392.330	1	9
392.671	1	-3
393.013	1	-8
393.355	1	8
393.696	1	1
394.038	1	5
394.379	1	5
394.721	1	-3
395.062	1	0
395.404	1	-1
395.746	1	9
396.087	1	-1
396.429	1	2
396.770	1	1
397.112	1	6
397.453	1	16
397.795	1	4
398.136	1	-6
398.478	1	7
398.819	1	3
399.161	1	16
399.503	1	-1
399.844	1	-3
400.186	1	2
400.527	1	-5
400.869	1	-1
401.210	1	8
401.552	1	-15
401.893	1	-2
402.235	1	-1
402.576	1	1
402.918	1	10
403.259	1	-4
403.601	1	-7
403.942	1	18
404.284	1	10
404.625	1	8
404.967	1	1
405.308	1	8
405.649	1	0
405.991	1	0
406.332	1	5
406.674	1	-6
407.015	1	3
407.357	1	7
407.698	1	9
408.040	1	-4
408.381	1	7
408.722	1	-12
409.064	1	8
409.405	1	2
409.747	1	-2
410.088	1	-1
410.430	1	0
410.771	1	3
411.112	1	3
411.454	1	-4
411.795	1	-8
412.137	1	11
412.478	1	23
412.819	1	0
413.161	1	6
413.502	1	6
413.844	1	0
414.185	1	2
414.526	1	-7
414.868	1	4
415.209	1	-9
415.550	1	-2
415.892	1	-1
416.233	1	6
416.575	1	14
416.916	1	0
417.257	1	1
417.599	1	5
417.940	1	3
418.281	1	2
418.623	1	-10
418.964	1	-4
419.305	1	3
419.647	1	-9
419.988	1	0
420.329	1	-11
420.671	1	11
421.012	1	4
421.353	1	-3
421.695	1	-3
422.036	1	7
422.377	1	-8
422.718	1	7
423.060	1	-5
423.401	1	6
423.742	1	-8
424.084	1	1
424.425	1	-3
424.766	1	8
425.107	1	-4
425.449	1	4
425.790	1	-6
426.131	1	-7
426.472	1	-4
426.814	1	5
427.155	1	-3
427.496	1	-3
427.837	1	-5
428.179	1	-6
428.520	1	1
428.861	1	-5
429.202	1	5
429.544	1	5
429.885	1	-4
430.226	1	-7
430.567	1	-3
430.909	1	-5
431.250	1	-5
431.591	1	-2
431.932	1	-1
432.273	1	-5
432.615	1	-8
432.956	1	-8
433.297	1	0
433.638	1	0
433.979	1	-1
434.320	1	7
434.662	1	-12
435.003	1	6
435.344	1	0
435.685	1	-3
436.026	1	9
436.368	1	-7
436.709	1	0
437.050	1	-2
437.391	1	8
437.732	1	-5
438.073	1	4
438.414	1	-9
438.756	1	-15
439.097	1	-9
439.438	1	-5
439.779	1	1
440.120	1	-5
440.461	1	1
440.802	1	-7
441.143	1	6
441.485	1	4
441.826	1	1
442.167	1	4
442.508	1	-4
442.849	1	5
443.190	1	-1
443.531	1	0
443.872	1	1
444.213	1	6
444.554	1	5
444.895	1	-5
445.237	1	-11
445.578	1	-5
445.919	1	-14
446.260	1	-2
446.601	1	-6
446.942	1	0
447.283	1	-9
447.624	1	-2
447.965	1	3
448.306	1	2
448.647	1	-15
448.988	1	2
449.329	1	-4
449.670	1	12
450.011	1	10
450.352	1	-2
450.693	1	-3
451.034	1	-6
451.375	1	5
451.716	1	0
452.057	1	-4
452.398	1	-4
452.739	1	4
453.080	1	-8
453.421	1	6
453.762	1	0
454.103	1	1
454.444	1	-10
454.785	1	-5
455.126	1	-3
455.467	1	0
455.808	1	-5
456.149	1	0
456.490	1	-10
456.831	1	3
457.172	1	-1
457.513	1	1
457.854	1	1
458.195	1	-7
458.536	1	5
458.877	1	1
459.218	1	-2
459.559	1	3
459.899	1	6
460.240	1	-4
460.581	1	12
460.922	1	-1
461.263	1	-5
461.604	1	-11
461.945	1	-7
462.286	1	-1
462.627	1	1
462.968	1	3
463.309	1	4
463.649	1	-8
463.990	1	-4
464.331	1	2
464.672	1	0
465.013	1	-2
465.354	1	1
465.695	1	-3
466.036	1	-6
466.376	1	0
466.717	1	5
467.058	1	-9
467.399	1	11
467.740	1	3
468.081	1	8
468.422	1	-5
468.762	1	-4
469.103	1	-16
469.444	1	-3
469.785	1	-10
470.126	1	-4
470.467	1	-7
470.807	1	1
471.148	1	-6
471.489	1	1
471.830	1	-3
472.171	1	4
472.511	1	-7
472.852	1	-2
473.193	1	8
473.534	1	8
473.875	1	11
474.215	1	9
474.556	1	1
474.897	1	3
475.238	1	-3
475.578	1	-11
475.919	1	-5
476.260	1	-2
476.601	1	1
476.942	1	7
477.282	1	1
477.623	1	-14
477.964	1	-9
478.305	1	3
478.645	1	15
478.986	1	-5
479.327	1	-11
479.667	1	-4
480.008	1	-2
480.349	1	-2
480.690	1	-8
481.030	1	0
481.371	1	0
481.712	1	2
482.053	1	3
482.393	1	4
482.734	1	-3
483.075	1	7
483.415	1	4
483.756	1	1
484.097	1	-2
484.437	1	-6
484.778	1	-1
485.119	1	-8
485.459	1	11
485.800	1	-9
486.141	1	-4
486.481	1	4
486.822	1	1
487.163	1	6
487.503	1	-11
487.844	1	-4
488.185	1	1
488.525	1	4
488.866	1	11
489.207	1	-3
489.547	1	-1
489.888	1	6
490.228	1	3
490.569	1	3
490.910	1	-4
491.250	1	-8
491.591	1	-4
491.932	1	-5
492.272	1	1
492.613	1	0
492.953	1	-6
493.294	1	-5
493.635	1	0
493.975	1	-6
494.316	1	3
494.656	1	-2
494.997	1	-4
495.337	1	2
495.678	1	3
496.019	1	-5
496.359	1	-6
496.700	1	1
497.040	1	-1
497.381	1	-3
497.721	1	5
498.062	1	-9
498.403	1	4
498.743	1	-1
499.084	1	-8
499.424	1	0
499.765	1	2
500.105	1	1
500.446	1	-6
500.786	1	-9
501.127	1	0
501.467	1	-3
501.808	1	1
502.148	1	-2
502.489	1	1
502.829	1	-1
503.170	1	8
503.510	1	9
503.851	1	-3
504.191	1	5
504.532	1	2
504.872	1	-4
505.213	1	7
505.553	1	-11
505.894	1	-5
506.234	1	11
506.575	1	6
506.915	1	6
507.256	1	-1
507.596	1	6
507.936	1	0
508.277	1	-1
508.617	1	5
508.958	1	-7
509.298	1	4
509.639	1	-3
509.979	1	-9
510.319	1	-3
510.660	1	-5
511.000	1	1
511.341	1	-3
511.681	1	4
512.022	1	-8
512.362	1	-8
512.702	1	3
513.043	1	10
513.383	1	-4
513.724	1	0
514.064	1	8
514.404	1	3
514.745	1	-7
515.085	1	-5
515.425	1	-4
515.766	1	-9
516.106	1	-6
516.447	1	5
516.787	1	2
517.127	1	-1
517.468	1	4
517.808	1	-1
518.148	1	1
518.489	1	0
518.829	1	12
519.169	1	-9
519.510	1	0
519.850	1	1
520.190	1	-5
520.531	1	5
520.871	1	0
521.211	1	-2
521.552	1	7
521.892	1	-5
522.232	1	8
522.573	1	1
522.913	1	3
523.253	1	1
523.593	1	3
523.934	1	1
524.274	1	2
524.614	1	-2
524.955	1	-6
525.295	1	7
525.635	1	3
525.975	1	2
526.316	1	4
526.656	1	10
526.996	1	8
527.337	1	2
527.677	1	5
528.017	1	-12
528.357	1	1
528.698	1	5
529.038	1	1
529.378	1	6
529.718	1	9
530.058	1	6
530.399	1	5
530.739	1	1
531.079	1	-8
531.419	1	3
531.760	1	-1
532.100	1	-2
532.440	1	-4
532.780	1	-2
533.120	1	13
533.461	1	6
533.801	1	14
534.141	1	-13
534.481	1	3
534.821	1	10
535.162	1	6
535.502	1	-9
535.842	1	9
536.182	1	-3
536.522	1	-1
536.862	1	5
537.203	1	-10
537.543	1	-2
537.883	1	2
538.223	1	4
538.563	1	8
538.903	1	2
539.243	1	0
539.584	1	0
539.924	1	11
540.264	1	0
540.604	1	6
540.944	1	-4
541.284	1	10
541.624	1	11
541.964	1	8
542.305	1	5
542.645	1	3
542.985	1	3
543.325	1	-1
543.665	1	12
544.005	1	10
544.345	1	8
544.685	1	1
545.025	1	-2
545.365	1	-12
545.705	1	0
546.045	1	-8
546.386	1	2
546.726	1	-2
547.066	1	9
547.406	1	3
547.746	1	-9
548.086	1	-2
548.426	1	1
548.766	1	0
549.106	1	4
549.446	1	7
549.786	1	-2
550.126	1	12
550.466	1	0
550.806	1	2
551.146	1	-3
551.486	1	-4
551.826	1	-1
552.166	1	-2
552.506	1	6
552.846	1	2
553.186	1	14
553.526	1	-3
553.866	1	-1
554.206	1	12
554.546	1	0
554.886	1	20
555.226	1	-5
555.566	1	4
555.906	1	-8
556.246	1	3
556.586	1	-3
556.926	1	-4
557.266	1	6
557.606	1	-4
557.946	1	12
558.286	1	6
558.626	1	12
558.966	1	3
559.306	1	0
559.646	1	-4
559.986	1	1
560.325	1	3
560.665	1	3
561.005	1	3
561.345	1	-3
561.685	1	-3
562.025	1	-4
562.365	1	3
562.705	1	-7
563.045	1	-2
563.385	1	-13
563.725	1	-2
564.064	1	0
564.404	1	6
564.744	1	7
565.084	1	3
565.424	1	0
565.764	1	-4
566.104	1	-5
566.444	1	-3
566.783	1	-6
567.123	1	4
567.463	1	2
567.803	1	-3
568.143	1	0
568.483	1	7
568.823	1	8
569.162	1	6
569.502	1	2
569.842	1	2
570.182	1	5
570.522	1	-12
570.862	1	1
571.201	1	9
571.541	1	1
571.881	1	13
572.221	1	2
572.561	1	1
572.900	1	-5
573.240	1	7
573.580	1	5
573.920	1	11
574.260	1	17
574.599	1	1
574.939	1	8
575.279	1	13
575.619	1	11
575.959	1	0
576.298	1	8
576.638	1	-8
576.978	1	8
577.318	1	1
577.657	1	6
577.997	1	-7
578.337	1	10
578.677	1	6
579.016	1	14
579.356	1	-5
579.696	1	2
580.036	1	3
580.375	1	7
580.715	1	7
581.055	1	0
581.394	1	-1
581.734	1	-14
582.074	1	1
582.414	1	1
582.753	1	-2
583.093	1	-4
583.433	1	-8
583.772	1	5
584.112	1	-5
584.452	1	8
584.791	1	-2
585.131	1	4
585.471	1	3
585.811	1	17
586.150	1	2
586.490	1	9
586.830	1	-6
587.169	1	-5
587.509	1	2
587.849	1	-1
588.188	1	7
588.528	1	3
588.867	1	7
589.207	1	-1
589.547	1	4
589.886	1	-7
590.226	1	6
590.566	1	1
590.905	1	4
591.245	1	-2
591.585	1	-4
591.924	1	4
592.264	1	4
592.603	1	1
592.943	1	3
593.283	1	13
593.622	1	-2
593.962	1	12
594.301	1	1
594.641	1	1
594.981	1	2
595.320	1	3
595.660	1	1
595.999	1	-6
596.339	1	4
596.678	1	-2
597.018	1	2
597.358	1	13
597.697	1	-11
598.037	1	3
598.376	1	1
598.716	1	7
599.055	1	3
599.395	1	-3
599.734	1	0
600.074	1	9
600.413	1	5
600.753	1	11
601.092	1	10
601.432	1	-12
601.771	1	8
602.111	1	2
602.451	1	5
602.790	1	-4
603.130	1	3
603.469	1	-2
603.809	1	1
604.148	1	1
604.487	1	-3
604.827	1	11
605.166	1	5
605.506	1	-1
605.845	1	-5
606.185	1	1
606.524	1	-4
606.864	1	6
607.203	1	0
607.543	1	-1
607.882	1	8
608.222	1	7
608.561	1	5
608.901	1	9
609.240	1	0
609.579	1	2
609.919	1	11
610.258	1	5
610.598	1	-3
610.937	1	3
611.277	1	-2
611.616	1	-6
611.955	1	-1
612.295	1	-6
612.634	1	-5
612.974	1	-10
613.313	1	9
613.652	1	2
613.992	1	0
614.331	1	0
614.671	1	1
615.010	1	-4
615.349	1	6
615.689	1	5
616.028	1	-5
616.368	1	-1
616.707	1	9
617.046	1	3
617.386	1	-2
617.725	1	6
618.064	1	-3
618.404	1	-8
618.743	1	-1
619.082	1	1
619.422	1	-11
619.761	1	-2
620.100	1	7
620.440	1	2
620.779	1	-4
621.118	1	3
621.458	1	2
621.797	1	-4
622.136	1	9
622.476	1	6
622.815	1	10
623.154	1	8
623.494	1	9
623.833	1	11
624.172	1	4
624.511	1	-7
624.851	1	-10
625.190	1	1
625.529	1	-1
625.869	1	-3
626.208	1	3
626.547	1	-2
626.886	1	10
627.226	1	4
627.565	1	7
627.904	1	-4
628.243	1	10
628.583	1	0
628.922	1	-1
629.261	1	1
629.600	1	12
629.940	1	6
630.279	1	-6
630.618	1	0
630.957	1	4
631.297	1	4
631.636	1	-8
631.975	1	8
632.314	1	-4
632.653	1	-4
632.993	1	-2
633.332	1	8
633.671	1	-1
634.010	1	-8
634.349	1	4
634.689	1	2
635.028	1	3
635.367	1	6
635.706	1	6
636.045	1	11
636.384	1	-2
636.724	1	0
637.063	1	0
637.402	1	7
637.741	1	-1
638.080	1	-1
638.419	1	-14
638.759	1	-6
639.098	1	3
639.437	1	6
639.776	1	-3
640.115	1	-2
640.454	1	-2
640.793	1	9
641.132	1	8
641.472	1	5
641.811	1	2
642.150	1	-6
642.489	1	2
642.828	1	-7
643.167	1	-10
643.506	1	-11
643.845	1	-5
644.184	1	7
644.524	1	1
644.863	1	-9
645.202	1	2
645.541	1	3
645.880	1	5
646.219	1	-3
646.558	1	-10
646.897	1	-2
647.236	1	-1
647.575	1	-1
647.914	1	-5
648.253	1	7
648.592	1	-1
648.931	1	14
649.270	1	3
649.610	1	-3
649.949	1	0
650.288	1	3
650.627	1	4
650.966	1	6
651.305	1	3
651.644	1	18
651.983	1	-3
652.322	1	-9
652.661	1	4
653.000	1	-3
653.339	1	5
653.678	1	-2
654.017	1	3
654.356	1	5
654.695	1	4
655.034	1	-6
655.373	1	5
655.712	1	0
656.051	1	2
656.390	1	-2
656.729	1	20
657.068	1	3
657.406	1	10
657.745	1	-10
658.084	1	1
658.423	1	9
658.762	1	3
659.101	1	12
659.440	1	2
659.779	1	2
660.118	1	-2
660.457	1	9
660.796	1	-3
661.135	1	-9
661.474	1	5
661.813	1	12
662.152	1	1
662.491	1	-1
662.829	1	-8
663.168	1	2
663.507	1	8
663.846	1	2
664.185	1	13
664.524	1	-4
664.863	1	-9
665.202	1	12
665.541	1	-6
665.879	1	-5
666.218	1	-3
666.557	1	-4
666.896	1	-6
667.235	1	11
667.574	1	-2
667.913	1	4
668.251	1	1
668.590	1	6
668.929	1	-4
669.268	1	4
669.607	1	-3
669.946	1	-14
670.285	1	2
670.623	1	4
670.962	1	6
671.301	1	0
671.640	1	1
671.979	1	4
672.317	1	1
672.656	1	-2
672.995	1	9
673.334	1	-6
673.673	1	0
674.011	1	-1
674.350	1	0
674.689	1	6
675.028	1	3
675.367	1	10
675.705	1	9
676.044	1	4
676.383	1	2
676.722	1	0
677.060	1	-1
677.399	1	-8
677.738	1	1
678.077	1	7
678.416	1	7
678.754	1	-5
679.093	1	5
679.432	1	-4
679.771	1	1
680.109	1	6
680.448	1	2
680.787	1	-12
681.125	1	11
681.464	1	1
681.803	1	2
682.142	1	0
682.480	1	7
682.819	1	-1
683.158	1	-2
683.496	1	1
683.835	1	6
684.174	1	3
684.512	1	-3
684.851	1	6
685.190	1	-1
685.529	1	-9
685.867	1	8
686.206	1	-6
686.545	1	-7
686.883	1	0
687.222	1	7
687.561	1	3
687.899	1	1
688.238	1	-5
688.577	1	-12
688.746	1	4