File: Data/GaN_200K_800ms/GaN_sample F_spot 12_UVVIS_200 K_200um_800 ms 2x2mm1_35.txt
340.368	1	18
340.710	1	3
341.052	1	7
341.394	1	11
341.737	1	1
342.079	1	0
342.421	1	1
342.763	1	9
343.105	1	6
343.447	1	-5
343.789	1	1
344.131	1	-3
344.473	1	0
344.815	1	3
345.157	1	4
345.499	1	3
345.841	1	10
346.183	1	-1
346.526	1	2
346.868	1	1
347.210	1	-2
347.552	1	-5
347.894	1	-2
348.236	1	9
348.578	1	1
348.920	1	-2
349.262	1	-2
349.604	1	9
349.946	1	-3
350.288	1	9
350.630	1	7
350.972	1	0
351.314	1	8
351.656	1	8
351.998	1	6
352.340	1	-1
352.682	1	4
353.024	1	7
353.366	1	13
353.708	1	0
354.050	1	-12
354.392	1	-4
354.734	1	1
355.076	1	4
355.418	1	-11
355.760	1	-3
356.102	1	15
356.444	1	9
356.785	1	6
357.127	1	1
357.469	1	9
357.811	1	-6
358.153	1	5
358.495	1	-6
358.837	1	-9
359.179	1	-1
359.521	1	9
359.863	1	-1
360.205	1	-2
360.547	1	11
360.889	1	0
361.231	1	0
361.572	1	0
361.914	1	2
362.256	1	6
362.598	1	-8
362.940	1	0
363.282	1	7
363.624	1	4
363.966	1	3
364.308	1	-1
364.649	1	8
364.991	1	-3
365.333	1	-2
365.675	1	-5
366.017	1	-2
366.359	1	-5
366.701	1	6
367.042	1	-4
367.384	1	9
367.726	1	1
368.068	1	7
368.410	1	13
368.752	1	-8
369.093	1	-3
369.435	1	3
369.777	1	-8
370.119	1	-7
370.461	1	13
370.803	1	2
371.144	1	3
371.486	1	2
371.828	1	8
372.170	1	9
372.512	1	-1
372.853	1	2
373.195	1	0
373.537	1	11
373.879	1	1
374.220	1	14
374.562	1	1
374.904	1	4
375.246	1	1
375.588	1	2
375.929	1	7
376.271	1	16
376.613	1	-3
376.955	1	-9
377.296	1	-6
377.638	1	1
377.980	1	3
378.321	1	-2
378.663	1	0
379.005	1	10
379.347	1	-2
379.688	1	6
380.030	1	1
380.372	1	1
380.714	1	0
381.055	1	10
381.397	1	1
381.739	1	6
382.080	1	0
382.422	1	-1
382.764	1	-5
383.105	1	-6
383.447	1	-10
383.789	1	5
384.130	1	1
384.472	1	3
384.814	1	-4
385.156	1	1
385.497	1	2
385.839	1	5
386.180	1	3
386.522	1	6
386.864	1	2
387.205	1	-1
387.547	1	-8
387.889	1	-3
388.230	1	4
388.572	1	-5
388.914	1	4
389.255	1	-1
389.597	1	4
389.939	1	-2
390.280	1	1
390.622	1	2
390.963	1	5
391.305	1	3
391.647	1	2
391.988	1	0
392.330	1	3
392.671	1	1
393.013	1	2
393.355	1	11
393.696	1	-4
394.038	1	5
394.379	1	1
394.721	1	-3
395.062	1	-3
395.404	1	-10
395.746	1	3
396.087	1	-4
396.429	1	4
396.770	1	-3
397.112	1	7
397.453	1	6
397.795	1	4
398.136	1	-9
398.478	1	1
398.819	1	2
399.161	1	6
399.503	1	-3
399.844	1	-1
400.186	1	5
400.527	1	-2
400.869	1	2
401.210	1	0
401.552	1	-6
401.893	1	4
402.235	1	-3
402.576	1	4
402.918	1	4
403.259	1	8
403.601	1	-4
403.942	1	6
404.284	1	7
404.625	1	2
404.967	1	2
405.308	1	-1
405.649	1	2
405.991	1	-7
406.332	1	2
406.674	1	2
407.015	1	0
407.357	1	6
407.698	1	8
408.040	1	-4
408.381	1	5
408.722	1	-9
409.064	1	5
409.405	1	5
409.747	1	-4
410.088	1	3
410.430	1	7
410.771	1	7
411.112	1	0
411.454	1	0
411.795	1	-4
412.137	1	7
412.478	1	9
412.819	1	-11
413.161	1	-6
413.502	1	0
413.844	1	6
414.185	1	5
414.526	1	5
414.868	1	-7
415.209	1	2
415.550	1	-9
415.892	1	-3
416.233	1	6
416.575	1	11
416.916	1	0
417.257	1	-5
417.599	1	2
417.940	1	4
418.281	1	-3
418.623	1	-2
418.964	1	-8
419.305	1	1
419.647	1	-2
419.988	1	-5
420.329	1	-8
420.671	1	12
421.012	1	4
421.353	1	-8
421.695	1	-1
422.036	1	-1
422.377	1	5
422.718	1	1
423.060	1	-2
423.401	1	3
423.742	1	1
424.084	1	3
424.425	1	9
424.766	1	7
425.107	1	0
425.449	1	10
425.790	1	-10
426.131	1	-3
426.472	1	0
426.814	1	1
427.155	1	1
427.496	1	6
427.837	1	-2
428.179	1	4
428.520	1	10
428.861	1	10
429.202	1	0
429.544	1	-8
429.885	1	4
430.226	1	-5
430.567	1	3
430.909	1	-2
431.250	1	-1
431.591	1	4
431.932	1	-12
432.273	1	-7
432.615	1	-7
432.956	1	2
433.297	1	12
433.638	1	-3
433.979	1	1
434.320	1	2
434.662	1	5
435.003	1	15
435.344	1	-1
435.685	1	-4
436.026	1	11
436.368	1	-5
436.709	1	-3
437.050	1	1
437.391	1	6
437.732	1	-3
438.073	1	4
438.414	1	-8
438.756	1	-7
439.097	1	-1
439.438	1	-2
439.779	1	1
440.120	1	3
440.461	1	6
440.802	1	-4
441.143	1	7
441.485	1	12
441.826	1	1
442.167	1	-4
442.508	1	-3
442.849	1	11
443.190	1	-1
443.531	1	16
443.872	1	8
444.213	1	-4
444.554	1	15
444.895	1	-1
445.237	1	0
445.578	1	-2
445.919	1	-3
446.260	1	-5
446.601	1	-1
446.942	1	2
447.283	1	1
447.624	1	-4
447.965	1	-3
448.306	1	-3
448.647	1	-15
448.988	1	-5
449.329	1	0
449.670	1	6
450.011	1	10
450.352	1	-7
450.693	1	3
451.034	1	-2
451.375	1	-1
451.716	1	6
452.057	1	5
452.398	1	1
452.739	1	7
453.080	1	3
453.421	1	-9
453.762	1	1
454.103	1	2
454.444	1	-7
454.785	1	3
455.126	1	-3
455.467	1	7
455.808	1	0
456.149	1	11
456.490	1	6
456.831	1	11
457.172	1	-5
457.513	1	-1
457.854	1	0
458.195	1	5
458.536	1	3
458.877	1	10
459.218	1	-2
459.559	1	10
459.899	1	-1
460.240	1	2
460.581	1	15
460.922	1	7
461.263	1	-8
461.604	1	0
461.945	1	-3
462.286	1	-3
462.627	1	10
462.968	1	6
463.309	1	-12
463.649	1	3
463.990	1	-2
464.331	1	-5
464.672	1	-1
465.013	1	-6
465.354	1	4
465.695	1	-1
466.036	1	-6
466.376	1	-2
466.717	1	2
467.058	1	-4
467.399	1	10
467.740	1	0
468.081	1	0
468.422	1	-3
468.762	1	-13
469.103	1	-3
469.444	1	4
469.785	1	-13
470.126	1	-8
470.467	1	1
470.807	1	1
471.148	1	8
471.489	1	2
471.830	1	3
472.171	1	11
472.511	1	7
472.852	1	-1
473.193	1	4
473.534	1	15
473.875	1	12
474.215	1	8
474.556	1	-4
474.897	1	1
475.238	1	3
475.578	1	-4
475.919	1	-2
476.260	1	-1
476.601	1	-5
476.942	1	13
477.282	1	-2
477.623	1	-11
477.964	1	-9
478.305	1	-2
478.645	1	7
478.986	1	-5
479.327	1	-7
479.667	1	-3
480.008	1	-1
480.349	1	5
480.690	1	-4
481.030	1	-6
481.371	1	4
481.712	1	7
482.053	1	10
482.393	1	4
482.734	1	-3
483.075	1	-9
483.415	1	8
483.756	1	11
484.097	1	4
484.437	1	-10
484.778	1	2
485.119	1	2
485.459	1	14
485.800	1	-6
486.141	1	-5
486.481	1	-3
486.822	1	-1
487.163	1	7
487.503	1	1
487.844	1	2
488.185	1	7
488.525	1	11
488.866	1	-5
489.207	1	1
489.547	1	0
489.888	1	1
490.228	1	13
490.569	1	6
490.910	1	2
491.250	1	-4
491.591	1	2
491.932	1	5
492.272	1	-1
492.613	1	3
492.953	1	-9
493.294	1	2
493.635	1	2
493.975	1	-8
494.316	1	2
494.656	1	3
494.997	1	-5
495.337	1	11
495.678	1	0
496.019	1	3
496.359	1	-1
496.700	1	13
497.040	1	7
497.381	1	-2
497.721	1	5
498.062	1	3
498.403	1	0
498.743	1	0
499.084	1	0
499.424	1	-1
499.765	1	-1
500.105	1	-2
500.446	1	-9
500.786	1	-9
501.127	1	-9
501.467	1	-8
501.808	1	8
502.148	1	2
502.489	1	9
502.829	1	-5
503.170	1	10
503.510	1	10
503.851	1	0
504.191	1	4
504.532	1	3
504.872	1	-1
505.213	1	5
505.553	1	-9
505.894	1	-4
506.234	1	12
506.575	1	5
506.915	1	5
507.256	1	9
507.596	1	4
507.936	1	3
508.277	1	3
508.617	1	-4
508.958	1	-4
509.298	1	3
509.639	1	-1
509.979	1	3
510.319	1	5
510.660	1	4
511.000	1	1
511.341	1	-2
511.681	1	1
512.022	1	-4
512.362	1	0
512.702	1	-2
513.043	1	11
513.383	1	-3
513.724	1	-2
514.064	1	17
514.404	1	0
514.745	1	2
515.085	1	4
515.425	1	-5
515.766	1	-6
516.106	1	14
516.447	1	11
516.787	1	3
517.127	1	-6
517.468	1	6
517.808	1	-2
518.148	1	0
518.489	1	-6
518.829	1	-5
519.169	1	-8
519.510	1	3
519.850	1	2
520.190	1	-7
520.531	1	-1
520.871	1	6
521.211	1	-8
521.552	1	5
521.892	1	3
522.232	1	5
522.573	1	-1
522.913	1	7
523.253	1	-2
523.593	1	-5
523.934	1	4
524.274	1	2
524.614	1	0
524.955	1	-6
525.295	1	2
525.635	1	3
525.975	1	0
526.316	1	6
526.656	1	-9
526.996	1	7
527.337	1	4
527.677	1	1
528.017	1	-8
528.357	1	-2
528.698	1	2
529.038	1	3
529.378	1	4
529.718	1	9
530.058	1	-1
530.399	1	10
530.739	1	-4
531.079	1	16
531.419	1	-5
531.760	1	0
532.100	1	5
532.440	1	-2
532.780	1	1
533.120	1	2
533.461	1	0
533.801	1	15
534.141	1	-8
534.481	1	-4
534.821	1	9
535.162	1	-3
535.502	1	-6
535.842	1	11
536.182	1	2
536.522	1	-9
536.862	1	1
537.203	1	1
537.543	1	-5
537.883	1	2
538.223	1	1
538.563	1	0
538.903	1	-7
539.243	1	1
539.584	1	0
539.924	1	11
540.264	1	-8
540.604	1	1
540.944	1	3
541.284	1	2
541.624	1	-2
541.964	1	5
542.305	1	3
542.645	1	5
542.985	1	5
543.325	1	-4
543.665	1	8
544.005	1	1
544.345	1	7
544.685	1	13
545.025	1	5
545.365	1	-4
545.705	1	-5
546.045	1	-6
546.386	1	2
546.726	1	-8
547.066	1	4
547.406	1	-3
547.746	1	-13
548.086	1	3
548.426	1	-3
548.766	1	7
549.106	1	3
549.446	1	-2
549.786	1	-8
550.126	1	17
550.466	1	4
550.806	1	-6
551.146	1	-2
551.486	1	-1
551.826	1	-1
552.166	1	3
552.506	1	6
552.846	1	10
553.186	1	3
553.526	1	0
553.866	1	2
554.206	1	4
554.546	1	2
554.886	1	-2
555.226	1	-15
555.566	1	8
555.906	1	2
556.246	1	-1
556.586	1	-3
556.926	1	-4
557.266	1	-6
557.606	1	-4
557.946	1	8
558.286	1	1
558.626	1	-3
558.966	1	1
559.306	1	-9
559.646	1	0
559.986	1	-5
560.325	1	-3
560.665	1	0
561.005	1	5
561.345	1	-1
561.685	1	-7
562.025	1	0
562.365	1	6
562.705	1	-7
563.045	1	4
563.385	1	-11
563.725	1	-3
564.064	1	-3
564.404	1	5
564.744	1	2
565.084	1	0
565.424	1	5
565.764	1	-1
566.104	1	-1
566.444	1	-9
566.783	1	-6
567.123	1	8
567.463	1	8
567.803	1	-2
568.143	1	-1
568.483	1	3
568.823	1	0
569.162	1	6
569.502	1	-3
569.842	1	6
570.182	1	7
570.522	1	-9
570.862	1	4
571.201	1	8
571.541	1	6
571.881	1	8
572.221	1	-1
572.561	1	-1
572.900	1	-7
573.240	1	4
573.580	1	0
573.920	1	10
574.260	1	0
574.599	1	-1
574.939	1	6
575.279	1	8
575.619	1	15
575.959	1	-2
576.298	1	14
576.638	1	-12
576.978	1	15
577.318	1	3
577.657	1	-3
577.997	1	-11
578.337	1	16
578.677	1	6
579.016	1	6
579.356	1	1
579.696	1	9
580.036	1	5
580.375	1	-2
580.715	1	0
581.055	1	-4
581.394	1	5
581.734	1	-13
582.074	1	-2
582.414	1	5
582.753	1	-5
583.093	1	1
583.433	1	4
583.772	1	6
584.112	1	-6
584.452	1	7
584.791	1	-2
585.131	1	5
585.471	1	6
585.811	1	8
586.150	1	2
586.490	1	11
586.830	1	-5
587.169	1	6
587.509	1	-7
587.849	1	-1
588.188	1	8
588.528	1	1
588.867	1	0
589.207	1	-1
589.547	1	3
589.886	1	-6
590.226	1	9
590.566	1	-4
590.905	1	-1
591.245	1	-10
591.585	1	7
591.924	1	3
592.264	1	7
592.603	1	-2
592.943	1	5
593.283	1	4
593.622	1	-1
593.962	1	1
594.301	1	7
594.641	1	-5
594.981	1	0
595.320	1	5
595.660	1	2
595.999	1	-2
596.339	1	16
596.678	1	2
597.018	1	-5
597.358	1	-6
597.697	1	-5
598.037	1	1
598.376	1	4
598.716	1	-1
599.055	1	4
599.395	1	1
599.734	1	6
600.074	1	0
600.413	1	6
600.753	1	-7
601.092	1	11
601.432	1	0
601.771	1	0
602.111	1	7
602.451	1	13
602.790	1	4
603.130	1	4
603.469	1	-4
603.809	1	9
604.148	1	7
604.487	1	-4
604.827	1	6
605.166	1	7
605.506	1	0
605.845	1	7
606.185	1	9
606.524	1	6
606.864	1	-4
607.203	1	2
607.543	1	-1
607.882	1	6
608.222	1	9
608.561	1	2
608.901	1	8
609.240	1	0
609.579	1	4
609.919	1	5
610.258	1	8
610.598	1	1
610.937	1	-1
611.277	1	-4
611.616	1	1
611.955	1	7
612.295	1	-5
612.634	1	-2
612.974	1	-5
613.313	1	6
613.652	1	15
613.992	1	-4
614.331	1	4
614.671	1	9
615.010	1	-8
615.349	1	8
615.689	1	14
616.028	1	-4
616.368	1	2
616.707	1	1
617.046	1	3
617.386	1	8
617.725	1	1
618.064	1	0
618.404	1	-10
618.743	1	5
619.082	1	-1
619.422	1	1
619.761	1	8
620.100	1	6
620.440	1	6
620.779	1	-4
621.118	1	1
621.458	1	3
621.797	1	13
622.136	1	8
622.476	1	4
622.815	1	0
623.154	1	4
623.494	1	7
623.833	1	3
624.172	1	3
624.511	1	-5
624.851	1	-6
625.190	1	6
625.529	1	8
625.869	1	3
626.208	1	5
626.547	1	-9
626.886	1	6
627.226	1	8
627.565	1	7
627.904	1	8
628.243	1	-2
628.583	1	-7
628.922	1	1
629.261	1	7
629.600	1	9
629.940	1	0
630.279	1	0
630.618	1	-4
630.957	1	-5
631.297	1	-4
631.636	1	-12
631.975	1	3
632.314	1	2
632.653	1	-2
632.993	1	-7
633.332	1	0
633.671	1	-5
634.010	1	-7
634.349	1	9
634.689	1	3
635.028	1	4
635.367	1	6
635.706	1	-9
636.045	1	14
636.384	1	-5
636.724	1	5
637.063	1	-5
637.402	1	0
637.741	1	8
638.080	1	-3
638.419	1	-4
638.759	1	-3
639.098	1	5
639.437	1	6
639.776	1	0
640.115	1	-5
640.454	1	-6
640.793	1	16
641.132	1	-5
641.472	1	6
641.811	1	1
642.150	1	-6
642.489	1	9
642.828	1	-2
643.167	1	-3
643.506	1	-6
643.845	1	2
644.184	1	8
644.524	1	3
644.863	1	-2
645.202	1	-4
645.541	1	3
645.880	1	3
646.219	1	2
646.558	1	-3
646.897	1	-3
647.236	1	-7
647.575	1	3
647.914	1	1
648.253	1	4
648.592	1	-4
648.931	1	10
649.270	1	-4
649.610	1	-1
649.949	1	-3
650.288	1	4
650.627	1	1
650.966	1	3
651.305	1	-4
651.644	1	12
651.983	1	8
652.322	1	1
652.661	1	-3
653.000	1	-4
653.339	1	14
653.678	1	11
654.017	1	-2
654.356	1	-5
654.695	1	-1
655.034	1	5
655.373	1	-7
655.712	1	2
656.051	1	2
656.390	1	-3
656.729	1	13
657.068	1	7
657.406	1	11
657.745	1	-2
658.084	1	7
658.423	1	10
658.762	1	-8
659.101	1	10
659.440	1	3
659.779	1	3
660.118	1	4
660.457	1	2
660.796	1	-19
661.135	1	-7
661.474	1	4
661.813	1	8
662.152	1	7
662.491	1	-7
662.829	1	-11
663.168	1	6
663.507	1	11
663.846	1	-2
664.185	1	5
664.524	1	7
664.863	1	3
665.202	1	5
665.541	1	-1
665.879	1	-14
666.218	1	-11
666.557	1	2
666.896	1	-5
667.235	1	8
667.574	1	5
667.913	1	8
668.251	1	1
668.590	1	0
668.929	1	-5
669.268	1	2
669.607	1	10
669.946	1	-5
670.285	1	14
670.623	1	-2
670.962	1	1
671.301	1	3
671.640	1	-2
671.979	1	1
672.317	1	7
672.656	1	11
672.995	1	3
673.334	1	-1
673.673	1	2
674.011	1	2
674.350	1	7
674.689	1	1
675.028	1	2
675.367	1	9
675.705	1	-2
676.044	1	0
676.383	1	8
676.722	1	0
677.060	1	5
677.399	1	-5
677.738	1	11
678.077	1	7
678.416	1	2
678.754	1	2
679.093	1	9
679.432	1	2
679.771	1	-3
680.109	1	12
680.448	1	-2
680.787	1	2
681.125	1	1
681.464	1	-2
681.803	1	-3
682.142	1	3
682.480	1	11
682.819	1	8
683.158	1	2
683.496	1	10
683.835	1	-7
684.174	1	-3
684.512	1	7
684.851	1	11
685.190	1	1
685.529	1	-5
685.867	1	-3
686.206	1	1
686.545	1	-3
686.883	1	-1
687.222	1	8
687.561	1	5
687.899	1	-5
688.238	1	6
688.577	1	-4
688.746	1	-3