File: Data/GaN_200K_800ms/GaN_sample F_spot 12_UVVIS_200 K_200um_800 ms 2x2mm1_493.txt
340.368	1	3
340.710	1	-11
341.052	1	0
341.394	1	0
341.737	1	-1
342.079	1	-7
342.421	1	-6
342.763	1	5
343.105	1	-5
343.447	1	-10
343.789	1	2
344.131	1	3
344.473	1	-6
344.815	1	-5
345.157	1	-9
345.499	1	-2
345.841	1	4
346.183	1	1
346.526	1	-4
346.868	1	7
347.210	1	-11
347.552	1	-2
347.894	1	1
348.236	1	6
348.578	1	1
348.920	1	-3
349.262	1	-3
349.604	1	1
349.946	1	0
350.288	1	4
350.630	1	2
350.972	1	-3
351.314	1	0
351.656	1	6
351.998	1	15
352.340	1	8
352.682	1	3
353.024	1	6
353.366	1	10
353.708	1	2
354.050	1	-3
354.392	1	-13
354.734	1	3
355.076	1	0
355.418	1	-8
355.760	1	-10
356.102	1	4
356.444	1	4
356.785	1	16
357.127	1	0
357.469	1	0
357.811	1	-6
358.153	1	5
358.495	1	-5
358.837	1	-4
359.179	1	-2
359.521	1	9
359.863	1	2
360.205	1	1
360.547	1	2
360.889	1	-7
361.231	1	-3
361.572	1	1
361.914	1	0
362.256	1	-2
362.598	1	-5
362.940	1	0
363.282	1	10
363.624	1	10
363.966	1	3
364.308	1	2
364.649	1	17
364.991	1	12
365.333	1	-4
365.675	1	1
366.017	1	-7
366.359	1	6
366.701	1	3
367.042	1	4
367.384	1	7
367.726	1	10
368.068	1	9
368.410	1	18
368.752	1	1
369.093	1	3
369.435	1	16
369.777	1	0
370.119	1	2
370.461	1	15
370.803	1	3
371.144	1	-3
371.486	1	12
371.828	1	11
372.170	1	13
372.512	1	-2
372.853	1	0
373.195	1	7
373.537	1	7
373.879	1	7
374.220	1	12
374.562	1	12
374.904	1	5
375.246	1	7
375.588	1	0
375.929	1	5
376.271	1	11
376.613	1	0
376.955	1	-1
377.296	1	-8
377.638	1	9
377.980	1	2
378.321	1	-10
378.663	1	6
379.005	1	12
379.347	1	10
379.688	1	2
380.030	1	0
380.372	1	-2
380.714	1	6
381.055	1	3
381.397	1	-1
381.739	1	0
382.080	1	4
382.422	1	7
382.764	1	-7
383.105	1	-4
383.447	1	-9
383.789	1	3
384.130	1	-6
384.472	1	-2
384.814	1	-3
385.156	1	-14
385.497	1	2
385.839	1	-1
386.180	1	-8
386.522	1	13
386.864	1	6
387.205	1	4
387.547	1	-1
387.889	1	-6
388.230	1	6
388.572	1	-3
388.914	1	1
389.255	1	-10
389.597	1	5
389.939	1	4
390.280	1	6
390.622	1	-4
390.963	1	13
391.305	1	-4
391.647	1	-3
391.988	1	4
392.330	1	4
392.671	1	-5
393.013	1	0
393.355	1	2
393.696	1	0
394.038	1	-2
394.379	1	4
394.721	1	-17
395.062	1	-2
395.404	1	-4
395.746	1	13
396.087	1	-7
396.429	1	-2
396.770	1	-10
397.112	1	2
397.453	1	11
397.795	1	2
398.136	1	-12
398.478	1	-3
398.819	1	-9
399.161	1	10
399.503	1	-2
399.844	1	-8
400.186	1	-2
400.527	1	-6
400.869	1	5
401.210	1	3
401.552	1	-10
401.893	1	-4
402.235	1	-4
402.576	1	1
402.918	1	10
403.259	1	-3
403.601	1	1
403.942	1	7
404.284	1	1
404.625	1	3
404.967	1	-4
405.308	1	-5
405.649	1	-2
405.991	1	-3
406.332	1	-4
406.674	1	-2
407.015	1	-1
407.357	1	-9
407.698	1	14
408.040	1	-8
408.381	1	-2
408.722	1	-19
409.064	1	-6
409.405	1	13
409.747	1	-5
410.088	1	-4
410.430	1	6
410.771	1	-3
411.112	1	-2
411.454	1	-8
411.795	1	-3
412.137	1	3
412.478	1	6
412.819	1	-3
413.161	1	-2
413.502	1	-2
413.844	1	-5
414.185	1	6
414.526	1	-12
414.868	1	-6
415.209	1	-6
415.550	1	-5
415.892	1	-1
416.233	1	5
416.575	1	1
416.916	1	-15
417.257	1	5
417.599	1	5
417.940	1	9
418.281	1	1
418.623	1	-3
418.964	1	-11
419.305	1	5
419.647	1	-3
419.988	1	-9
420.329	1	-9
420.671	1	-3
421.012	1	-6
421.353	1	2
421.695	1	-6
422.036	1	-2
422.377	1	-7
422.718	1	3
423.060	1	-1
423.401	1	0
423.742	1	2
424.084	1	1
424.425	1	6
424.766	1	6
425.107	1	-10
425.449	1	-3
425.790	1	-8
426.131	1	-1
426.472	1	-3
426.814	1	6
427.155	1	-11
427.496	1	4
427.837	1	-12
428.179	1	-4
428.520	1	1
428.861	1	-5
429.202	1	-3
429.544	1	-4
429.885	1	9
430.226	1	-9
430.567	1	-3
430.909	1	-3
431.250	1	-3
431.591	1	3
431.932	1	-11
432.273	1	0
432.615	1	-12
432.956	1	4
433.297	1	3
433.638	1	-3
433.979	1	5
434.320	1	0
434.662	1	3
435.003	1	8
435.344	1	10
435.685	1	-3
436.026	1	8
436.368	1	-4
436.709	1	-5
437.050	1	-2
437.391	1	6
437.732	1	-8
438.073	1	-8
438.414	1	-2
438.756	1	-4
439.097	1	-17
439.438	1	-13
439.779	1	-1
440.120	1	3
440.461	1	5
440.802	1	-5
441.143	1	3
441.485	1	-4
441.826	1	1
442.167	1	4
442.508	1	-6
442.849	1	6
443.190	1	-3
443.531	1	0
443.872	1	4
444.213	1	1
444.554	1	5
444.895	1	-16
445.237	1	-4
445.578	1	-13
445.919	1	-10
446.260	1	-13
446.601	1	-3
446.942	1	-3
447.283	1	-3
447.624	1	-2
447.965	1	0
448.306	1	11
448.647	1	-10
448.988	1	-5
449.329	1	-6
449.670	1	10
450.011	1	3
450.352	1	-6
450.693	1	-4
451.034	1	-3
451.375	1	-1
451.716	1	1
452.057	1	-6
452.398	1	0
452.739	1	1
453.080	1	1
453.421	1	-4
453.762	1	0
454.103	1	3
454.444	1	-7
454.785	1	-1
455.126	1	-3
455.467	1	-4
455.808	1	-5
456.149	1	2
456.490	1	6
456.831	1	7
457.172	1	-5
457.513	1	11
457.854	1	8
458.195	1	0
458.536	1	3
458.877	1	-1
459.218	1	4
459.559	1	-5
459.899	1	3
460.240	1	5
460.581	1	13
460.922	1	-5
461.263	1	-10
461.604	1	-2
461.945	1	0
462.286	1	-5
462.627	1	4
462.968	1	1
463.309	1	-6
463.649	1	-7
463.990	1	-6
464.331	1	-8
464.672	1	-2
465.013	1	-2
465.354	1	3
465.695	1	-11
466.036	1	-7
466.376	1	-4
466.717	1	1
467.058	1	2
467.399	1	-7
467.740	1	0
468.081	1	14
468.422	1	-8
468.762	1	-4
469.103	1	-3
469.444	1	-13
469.785	1	-19
470.126	1	-5
470.467	1	-8
470.807	1	0
471.148	1	-3
471.489	1	0
471.830	1	-6
472.171	1	3
472.511	1	-9
472.852	1	-2
473.193	1	5
473.534	1	7
473.875	1	7
474.215	1	11
474.556	1	4
474.897	1	-7
475.238	1	-3
475.578	1	-13
475.919	1	-4
476.260	1	4
476.601	1	3
476.942	1	1
477.282	1	-11
477.623	1	-14
477.964	1	-6
478.305	1	-9
478.645	1	13
478.986	1	-3
479.327	1	-9
479.667	1	1
480.008	1	-4
480.349	1	0
480.690	1	2
481.030	1	2
481.371	1	0
481.712	1	4
482.053	1	-7
482.393	1	-7
482.734	1	-2
483.075	1	-5
483.415	1	-4
483.756	1	-3
484.097	1	-1
484.437	1	-5
484.778	1	-1
485.119	1	-4
485.459	1	16
485.800	1	-1
486.141	1	-7
486.481	1	-3
486.822	1	1
487.163	1	10
487.503	1	-2
487.844	1	0
488.185	1	-5
488.525	1	-2
488.866	1	10
489.207	1	-3
489.547	1	-6
489.888	1	-12
490.228	1	7
490.569	1	18
490.910	1	3
491.250	1	0
491.591	1	-12
491.932	1	-3
492.272	1	-5
492.613	1	-8
492.953	1	-6
493.294	1	-10
493.635	1	-8
493.975	1	-4
494.316	1	1
494.656	1	-1
494.997	1	-7
495.337	1	2
495.678	1	-6
496.019	1	-4
496.359	1	-10
496.700	1	5
497.040	1	-9
497.381	1	-1
497.721	1	2
498.062	1	2
498.403	1	5
498.743	1	-3
499.084	1	-1
499.424	1	2
499.765	1	-3
500.105	1	-6
500.446	1	-9
500.786	1	-8
501.127	1	3
501.467	1	-8
501.808	1	2
502.148	1	-3
502.489	1	-4
502.829	1	-1
503.170	1	7
503.510	1	2
503.851	1	-5
504.191	1	5
504.532	1	7
504.872	1	2
505.213	1	4
505.553	1	-12
505.894	1	-6
506.234	1	11
506.575	1	4
506.915	1	5
507.256	1	4
507.596	1	1
507.936	1	-2
508.277	1	-5
508.617	1	-3
508.958	1	-13
509.298	1	1
509.639	1	-5
509.979	1	-11
510.319	1	5
510.660	1	-5
511.000	1	-5
511.341	1	4
511.681	1	5
512.022	1	-15
512.362	1	-12
512.702	1	-6
513.043	1	10
513.383	1	-11
513.724	1	9
514.064	1	9
514.404	1	-3
514.745	1	-1
515.085	1	-3
515.425	1	-2
515.766	1	-5
516.106	1	0
516.447	1	16
516.787	1	0
517.127	1	-1
517.468	1	-5
517.808	1	2
518.148	1	10
518.489	1	3
518.829	1	8
519.169	1	-8
519.510	1	-10
519.850	1	4
520.190	1	-2
520.531	1	-4
520.871	1	5
521.211	1	-4
521.552	1	0
521.892	1	-2
522.232	1	7
522.573	1	2
522.913	1	6
523.253	1	6
523.593	1	-5
523.934	1	1
524.274	1	-3
524.614	1	-7
524.955	1	-7
525.295	1	4
525.635	1	-6
525.975	1	10
526.316	1	9
526.656	1	-3
526.996	1	-1
527.337	1	5
527.677	1	8
528.017	1	-10
528.357	1	1
528.698	1	-4
529.038	1	-2
529.378	1	-2
529.718	1	11
530.058	1	-2
530.399	1	6
530.739	1	5
531.079	1	4
531.419	1	-1
531.760	1	2
532.100	1	2
532.440	1	0
532.780	1	-6
533.120	1	3
533.461	1	6
533.801	1	6
534.141	1	-10
534.481	1	-5
534.821	1	8
535.162	1	-8
535.502	1	0
535.842	1	5
536.182	1	-8
536.522	1	-6
536.862	1	0
537.203	1	-9
537.543	1	0
537.883	1	-4
538.223	1	-2
538.563	1	4
538.903	1	-10
539.243	1	2
539.584	1	1
539.924	1	7
540.264	1	-7
540.604	1	2
540.944	1	1
541.284	1	1
541.624	1	5
541.964	1	5
542.305	1	8
542.645	1	1
542.985	1	2
543.325	1	2
543.665	1	6
544.005	1	3
544.345	1	4
544.685	1	6
545.025	1	-2
545.365	1	-5
545.705	1	-2
546.045	1	-1
546.386	1	3
546.726	1	-13
547.066	1	1
547.406	1	4
547.746	1	-9
548.086	1	-4
548.426	1	-7
548.766	1	-6
549.106	1	-2
549.446	1	2
549.786	1	-4
550.126	1	1
550.466	1	5
550.806	1	-3
551.146	1	0
551.486	1	-2
551.826	1	-5
552.166	1	2
552.506	1	2
552.846	1	2
553.186	1	-3
553.526	1	-10
553.866	1	1
554.206	1	10
554.546	1	9
554.886	1	7
555.226	1	-11
555.566	1	-2
555.906	1	6
556.246	1	12
556.586	1	-2
556.926	1	7
557.266	1	-11
557.606	1	4
557.946	1	14
558.286	1	8
558.626	1	5
558.966	1	-3
559.306	1	1
559.646	1	-6
559.986	1	-2
560.325	1	-3
560.665	1	-3
561.005	1	-9
561.345	1	2
561.685	1	-3
562.025	1	-2
562.365	1	1
562.705	1	-2
563.045	1	2
563.385	1	-12
563.725	1	-9
564.064	1	-1
564.404	1	9
564.744	1	-3
565.084	1	4
565.424	1	-2
565.764	1	-6
566.104	1	-4
566.444	1	-6
566.783	1	-2
567.123	1	-4
567.463	1	4
567.803	1	-14
568.143	1	4
568.483	1	4
568.823	1	3
569.162	1	2
569.502	1	-5
569.842	1	0
570.182	1	-4
570.522	1	0
570.862	1	1
571.201	1	10
571.541	1	2
571.881	1	11
572.221	1	-3
572.561	1	-7
572.900	1	-6
573.240	1	3
573.580	1	3
573.920	1	2
574.260	1	9
574.599	1	-8
574.939	1	1
575.279	1	10
575.619	1	-6
575.959	1	-5
576.298	1	7
576.638	1	-2
576.978	1	8
577.318	1	4
577.657	1	-9
577.997	1	-8
578.337	1	3
578.677	1	2
579.016	1	6
579.356	1	-8
579.696	1	4
580.036	1	0
580.375	1	-2
580.715	1	0
581.055	1	-2
581.394	1	-7
581.734	1	-3
582.074	1	-5
582.414	1	5
582.753	1	-7
583.093	1	-1
583.433	1	-5
583.772	1	1
584.112	1	-7
584.452	1	3
584.791	1	-6
585.131	1	8
585.471	1	12
585.811	1	9
586.150	1	-5
586.490	1	6
586.830	1	2
587.169	1	3
587.509	1	-6
587.849	1	1
588.188	1	7
588.528	1	9
588.867	1	5
589.207	1	0
589.547	1	-10
589.886	1	-8
590.226	1	-2
590.566	1	-1
590.905	1	-6
591.245	1	-3
591.585	1	5
591.924	1	-1
592.264	1	5
592.603	1	5
592.943	1	-2
593.283	1	-2
593.622	1	0
593.962	1	2
594.301	1	1
594.641	1	-1
594.981	1	-11
595.320	1	4
595.660	1	3
595.999	1	-1
596.339	1	6
596.678	1	-3
597.018	1	-13
597.358	1	8
597.697	1	-2
598.037	1	-3
598.376	1	-1
598.716	1	9
599.055	1	0
599.395	1	-9
599.734	1	3
600.074	1	3
600.413	1	6
600.753	1	5
601.092	1	6
601.432	1	-13
601.771	1	1
602.111	1	-1
602.451	1	5
602.790	1	-2
603.130	1	-4
603.469	1	-7
603.809	1	3
604.148	1	2
604.487	1	5
604.827	1	4
605.166	1	10
605.506	1	-2
605.845	1	-1
606.185	1	6
606.524	1	-8
606.864	1	-3
607.203	1	-12
607.543	1	-1
607.882	1	9
608.222	1	1
608.561	1	-4
608.901	1	0
609.240	1	-1
609.579	1	11
609.919	1	0
610.258	1	10
610.598	1	3
610.937	1	4
611.277	1	-11
611.616	1	1
611.955	1	-6
612.295	1	1
612.634	1	-6
612.974	1	-18
613.313	1	1
613.652	1	-6
613.992	1	-1
614.331	1	-8
614.671	1	-6
615.010	1	-6
615.349	1	6
615.689	1	7
616.028	1	2
616.368	1	1
616.707	1	-4
617.046	1	-1
617.386	1	-2
617.725	1	-2
618.064	1	-16
618.404	1	-4
618.743	1	1
619.082	1	-2
619.422	1	-4
619.761	1	8
620.100	1	9
620.440	1	4
620.779	1	-8
621.118	1	1
621.458	1	4
621.797	1	-2
622.136	1	18
622.476	1	-3
622.815	1	8
623.154	1	-1
623.494	1	6
623.833	1	6
624.172	1	-5
624.511	1	-7
624.851	1	-4
625.190	1	-6
625.529	1	11
625.869	1	-3
626.208	1	-6
626.547	1	-3
626.886	1	0
627.226	1	-3
627.565	1	8
627.904	1	-1
628.243	1	6
628.583	1	1
628.922	1	4
629.261	1	5
629.600	1	5
629.940	1	-1
630.279	1	-3
630.618	1	-3
630.957	1	-7
631.297	1	-1
631.636	1	-12
631.975	1	11
632.314	1	0
632.653	1	0
632.993	1	-12
633.332	1	-3
633.671	1	-11
634.010	1	-1
634.349	1	2
634.689	1	-6
635.028	1	6
635.367	1	2
635.706	1	-4
636.045	1	11
636.384	1	0
636.724	1	-3
637.063	1	-2
637.402	1	2
637.741	1	7
638.080	1	-2
638.419	1	2
638.759	1	1
639.098	1	-1
639.437	1	3
639.776	1	4
640.115	1	1
640.454	1	-8
640.793	1	4
641.132	1	11
641.472	1	9
641.811	1	1
642.150	1	-7
642.489	1	6
642.828	1	-5
643.167	1	-5
643.506	1	-8
643.845	1	0
644.184	1	5
644.524	1	-6
644.863	1	-9
645.202	1	4
645.541	1	2
645.880	1	0
646.219	1	-9
646.558	1	5
646.897	1	4
647.236	1	-2
647.575	1	6
647.914	1	-8
648.253	1	12
648.592	1	-12
648.931	1	8
649.270	1	3
649.610	1	-4
649.949	1	-1
650.288	1	1
650.627	1	3
650.966	1	-1
651.305	1	2
651.644	1	-2
651.983	1	0
652.322	1	-5
652.661	1	0
653.000	1	-5
653.339	1	2
653.678	1	6
654.017	1	-4
654.356	1	-13
654.695	1	0
655.034	1	0
655.373	1	4
655.712	1	6
656.051	1	-3
656.390	1	-4
656.729	1	8
657.068	1	2
657.406	1	-6
657.745	1	-10
658.084	1	2
658.423	1	3
658.762	1	-5
659.101	1	7
659.440	1	-4
659.779	1	-8
660.118	1	-4
660.457	1	2
660.796	1	-12
661.135	1	-4
661.474	1	3
661.813	1	17
662.152	1	4
662.491	1	-4
662.829	1	-9
663.168	1	0
663.507	1	0
663.846	1	0
664.185	1	7
664.524	1	-2
664.863	1	-5
665.202	1	5
665.541	1	-13
665.879	1	-5
666.218	1	-11
666.557	1	3
666.896	1	-1
667.235	1	3
667.574	1	-4
667.913	1	2
668.251	1	0
668.590	1	-13
668.929	1	-12
669.268	1	-6
669.607	1	-6
669.946	1	3
670.285	1	4
670.623	1	-7
670.962	1	-5
671.301	1	-4
671.640	1	0
671.979	1	-8
672.317	1	2
672.656	1	-3
672.995	1	4
673.334	1	-7
673.673	1	7
674.011	1	0
674.350	1	10
674.689	1	-5
675.028	1	-4
675.367	1	3
675.705	1	9
676.044	1	-3
676.383	1	0
676.722	1	-3
677.060	1	-3
677.399	1	6
677.738	1	-3
678.077	1	1
678.416	1	1
678.754	1	-10
679.093	1	3
679.432	1	-2
679.771	1	-4
680.109	1	9
680.448	1	-1
680.787	1	-5
681.125	1	8
681.464	1	-7
681.803	1	-3
682.142	1	1
682.480	1	4
682.819	1	-3
683.158	1	0
683.496	1	1
683.835	1	1
684.174	1	-7
684.512	1	5
684.851	1	5
685.190	1	4
685.529	1	-4
685.867	1	4
686.206	1	-1
686.545	1	2
686.883	1	-5
687.222	1	5
687.561	1	-2
687.899	1	6
688.238	1	-2
688.577	1	-3
688.746	1	0