File: Data/GaN_200K_800ms/GaN_sample F_spot 12_UVVIS_200 K_200um_800 ms 2x2mm1_121.txt
340.368	1	0
340.710	1	-3
341.052	1	8
341.394	1	8
341.737	1	10
342.079	1	0
342.421	1	-4
342.763	1	4
343.105	1	9
343.447	1	-2
343.789	1	4
344.131	1	-1
344.473	1	-7
344.815	1	-6
345.157	1	4
345.499	1	-1
345.841	1	17
346.183	1	1
346.526	1	-2
346.868	1	15
347.210	1	-7
347.552	1	-1
347.894	1	6
348.236	1	8
348.578	1	-6
348.920	1	-6
349.262	1	-2
349.604	1	8
349.946	1	1
350.288	1	17
350.630	1	10
350.972	1	4
351.314	1	15
351.656	1	13
351.998	1	10
352.340	1	6
352.682	1	7
353.024	1	6
353.366	1	11
353.708	1	3
354.050	1	1
354.392	1	2
354.734	1	4
355.076	1	6
355.418	1	-2
355.760	1	0
356.102	1	19
356.444	1	10
356.785	1	14
357.127	1	12
357.469	1	11
357.811	1	13
358.153	1	17
358.495	1	15
358.837	1	4
359.179	1	17
359.521	1	19
359.863	1	12
360.205	1	5
360.547	1	20
360.889	1	4
361.231	1	16
361.572	1	20
361.914	1	23
362.256	1	20
362.598	1	21
362.940	1	24
363.282	1	30
363.624	1	34
363.966	1	34
364.308	1	30
364.649	1	39
364.991	1	36
365.333	1	39
365.675	1	36
366.017	1	47
366.359	1	44
366.701	1	53
367.042	1	62
367.384	1	64
367.726	1	64
368.068	1	63
368.410	1	73
368.752	1	67
369.093	1	64
369.435	1	77
369.777	1	65
370.119	1	72
370.461	1	78
370.803	1	67
371.144	1	60
371.486	1	72
371.828	1	73
372.170	1	62
372.512	1	64
372.853	1	52
373.195	1	46
373.537	1	56
373.879	1	48
374.220	1	59
374.562	1	57
374.904	1	50
375.246	1	37
375.588	1	52
375.929	1	48
376.271	1	47
376.613	1	34
376.955	1	27
377.296	1	31
377.638	1	39
377.980	1	31
378.321	1	21
378.663	1	23
379.005	1	45
379.347	1	27
379.688	1	20
380.030	1	18
380.372	1	23
380.714	1	37
381.055	1	35
381.397	1	24
381.739	1	21
382.080	1	28
382.422	1	24
382.764	1	10
383.105	1	23
383.447	1	9
383.789	1	9
384.130	1	6
384.472	1	6
384.814	1	13
385.156	1	3
385.497	1	23
385.839	1	13
386.180	1	13
386.522	1	20
386.864	1	16
387.205	1	7
387.547	1	4
387.889	1	13
388.230	1	8
388.572	1	13
388.914	1	13
389.255	1	2
389.597	1	11
389.939	1	8
390.280	1	11
390.622	1	5
390.963	1	14
391.305	1	15
391.647	1	12
391.988	1	13
392.330	1	9
392.671	1	15
393.013	1	5
393.355	1	4
393.696	1	7
394.038	1	12
394.379	1	1
394.721	1	-3
395.062	1	8
395.404	1	1
395.746	1	13
396.087	1	-1
396.429	1	6
396.770	1	8
397.112	1	15
397.453	1	14
397.795	1	5
398.136	1	-9
398.478	1	7
398.819	1	4
399.161	1	13
399.503	1	12
399.844	1	9
400.186	1	2
400.527	1	12
400.869	1	4
401.210	1	-1
401.552	1	-1
401.893	1	11
402.235	1	2
402.576	1	4
402.918	1	19
403.259	1	9
403.601	1	2
403.942	1	13
404.284	1	9
404.625	1	3
404.967	1	5
405.308	1	6
405.649	1	-5
405.991	1	-6
406.332	1	10
406.674	1	-3
407.015	1	18
407.357	1	-4
407.698	1	8
408.040	1	0
408.381	1	6
408.722	1	-5
409.064	1	1
409.405	1	6
409.747	1	3
410.088	1	-1
410.430	1	2
410.771	1	3
411.112	1	3
411.454	1	-4
411.795	1	-9
412.137	1	3
412.478	1	14
412.819	1	2
413.161	1	11
413.502	1	8
413.844	1	5
414.185	1	11
414.526	1	5
414.868	1	0
415.209	1	-1
415.550	1	-2
415.892	1	4
416.233	1	7
416.575	1	10
416.916	1	-5
417.257	1	-4
417.599	1	-3
417.940	1	8
418.281	1	9
418.623	1	-6
418.964	1	-15
419.305	1	6
419.647	1	-6
419.988	1	-1
420.329	1	-10
420.671	1	7
421.012	1	-3
421.353	1	4
421.695	1	5
422.036	1	-5
422.377	1	6
422.718	1	10
423.060	1	4
423.401	1	4
423.742	1	4
424.084	1	-2
424.425	1	3
424.766	1	2
425.107	1	-5
425.449	1	-2
425.790	1	-9
426.131	1	-1
426.472	1	0
426.814	1	7
427.155	1	-6
427.496	1	-3
427.837	1	-8
428.179	1	-15
428.520	1	5
428.861	1	-10
429.202	1	-1
429.544	1	-4
429.885	1	1
430.226	1	-6
430.567	1	2
430.909	1	13
431.250	1	3
431.591	1	7
431.932	1	-7
432.273	1	9
432.615	1	0
432.956	1	0
433.297	1	13
433.638	1	-1
433.979	1	-5
434.320	1	9
434.662	1	0
435.003	1	7
435.344	1	-2
435.685	1	-1
436.026	1	6
436.368	1	3
436.709	1	-4
437.050	1	-7
437.391	1	6
437.732	1	-1
438.073	1	1
438.414	1	-10
438.756	1	4
439.097	1	-5
439.438	1	0
439.779	1	-1
440.120	1	-5
440.461	1	-4
440.802	1	2
441.143	1	11
441.485	1	12
441.826	1	6
442.167	1	4
442.508	1	-4
442.849	1	7
443.190	1	1
443.531	1	7
443.872	1	5
444.213	1	0
444.554	1	15
444.895	1	-2
445.237	1	-6
445.578	1	-12
445.919	1	-6
446.260	1	-8
446.601	1	1
446.942	1	-2
447.283	1	-5
447.624	1	7
447.965	1	-4
448.306	1	5
448.647	1	-1
448.988	1	-4
449.329	1	4
449.670	1	7
450.011	1	9
450.352	1	-2
450.693	1	-9
451.034	1	2
451.375	1	-1
451.716	1	9
452.057	1	10
452.398	1	-4
452.739	1	3
453.080	1	7
453.421	1	-1
453.762	1	4
454.103	1	1
454.444	1	-3
454.785	1	3
455.126	1	-7
455.467	1	-5
455.808	1	0
456.149	1	13
456.490	1	5
456.831	1	3
457.172	1	-8
457.513	1	11
457.854	1	-5
458.195	1	10
458.536	1	5
458.877	1	5
459.218	1	0
459.559	1	3
459.899	1	2
460.240	1	-3
460.581	1	20
460.922	1	-2
461.263	1	1
461.604	1	3
461.945	1	3
462.286	1	0
462.627	1	7
462.968	1	2
463.309	1	-8
463.649	1	3
463.990	1	4
464.331	1	-3
464.672	1	-5
465.013	1	-8
465.354	1	3
465.695	1	3
466.036	1	-12
466.376	1	-7
466.717	1	1
467.058	1	1
467.399	1	11
467.740	1	11
468.081	1	-7
468.422	1	-1
468.762	1	-6
469.103	1	-10
469.444	1	-1
469.785	1	-14
470.126	1	-2
470.467	1	3
470.807	1	-3
471.148	1	0
471.489	1	-2
471.830	1	0
472.171	1	6
472.511	1	3
472.852	1	0
473.193	1	10
473.534	1	12
473.875	1	17
474.215	1	13
474.556	1	1
474.897	1	5
475.238	1	11
475.578	1	-7
475.919	1	4
476.260	1	5
476.601	1	0
476.942	1	8
477.282	1	-3
477.623	1	-4
477.964	1	-9
478.305	1	7
478.645	1	6
478.986	1	6
479.327	1	-10
479.667	1	1
480.008	1	-1
480.349	1	-3
480.690	1	2
481.030	1	-1
481.371	1	8
481.712	1	4
482.053	1	8
482.393	1	6
482.734	1	-11
483.075	1	-1
483.415	1	5
483.756	1	4
484.097	1	3
484.437	1	0
484.778	1	2
485.119	1	-4
485.459	1	17
485.800	1	2
486.141	1	10
486.481	1	5
486.822	1	4
487.163	1	-7
487.503	1	-2
487.844	1	6
488.185	1	-2
488.525	1	6
488.866	1	11
489.207	1	-1
489.547	1	3
489.888	1	-5
490.228	1	9
490.569	1	13
490.910	1	-2
491.250	1	-3
491.591	1	3
491.932	1	-1
492.272	1	8
492.613	1	-5
492.953	1	3
493.294	1	1
493.635	1	6
493.975	1	-3
494.316	1	5
494.656	1	0
494.997	1	-6
495.337	1	7
495.678	1	4
496.019	1	7
496.359	1	0
496.700	1	3
497.040	1	1
497.381	1	1
497.721	1	-1
498.062	1	8
498.403	1	0
498.743	1	8
499.084	1	0
499.424	1	9
499.765	1	1
500.105	1	2
500.446	1	0
500.786	1	7
501.127	1	10
501.467	1	-2
501.808	1	-5
502.148	1	10
502.489	1	12
502.829	1	5
503.170	1	13
503.510	1	3
503.851	1	-1
504.191	1	9
504.532	1	10
504.872	1	11
505.213	1	6
505.553	1	-7
505.894	1	-2
506.234	1	7
506.575	1	1
506.915	1	8
507.256	1	5
507.596	1	12
507.936	1	0
508.277	1	2
508.617	1	4
508.958	1	0
509.298	1	6
509.639	1	-6
509.979	1	9
510.319	1	6
510.660	1	-2
511.000	1	5
511.341	1	-1
511.681	1	10
512.022	1	-1
512.362	1	3
512.702	1	5
513.043	1	12
513.383	1	-3
513.724	1	5
514.064	1	10
514.404	1	2
514.745	1	-1
515.085	1	6
515.425	1	2
515.766	1	-7
516.106	1	-5
516.447	1	15
516.787	1	17
517.127	1	3
517.468	1	2
517.808	1	1
518.148	1	6
518.489	1	3
518.829	1	12
519.169	1	5
519.510	1	-2
519.850	1	10
520.190	1	12
520.531	1	11
520.871	1	9
521.211	1	-7
521.552	1	14
521.892	1	4
522.232	1	14
522.573	1	6
522.913	1	13
523.253	1	7
523.593	1	-2
523.934	1	0
524.274	1	9
524.614	1	2
524.955	1	2
525.295	1	8
525.635	1	3
525.975	1	14
526.316	1	20
526.656	1	8
526.996	1	12
527.337	1	6
527.677	1	15
528.017	1	5
528.357	1	8
528.698	1	9
529.038	1	6
529.378	1	9
529.718	1	7
530.058	1	8
530.399	1	7
530.739	1	7
531.079	1	6
531.419	1	13
531.760	1	12
532.100	1	-1
532.440	1	1
532.780	1	8
533.120	1	19
533.461	1	7
533.801	1	19
534.141	1	1
534.481	1	-7
534.821	1	14
535.162	1	4
535.502	1	0
535.842	1	15
536.182	1	7
536.522	1	6
536.862	1	8
537.203	1	-5
537.543	1	1
537.883	1	11
538.223	1	-2
538.563	1	16
538.903	1	4
539.243	1	1
539.584	1	-3
539.924	1	21
540.264	1	4
540.604	1	10
540.944	1	-1
541.284	1	8
541.624	1	19
541.964	1	14
542.305	1	15
542.645	1	0
542.985	1	5
543.325	1	14
543.665	1	21
544.005	1	9
544.345	1	12
544.685	1	5
545.025	1	9
545.365	1	8
545.705	1	-1
546.045	1	-1
546.386	1	10
546.726	1	6
547.066	1	17
547.406	1	9
547.746	1	-13
548.086	1	10
548.426	1	1
548.766	1	10
549.106	1	7
549.446	1	10
549.786	1	-3
550.126	1	17
550.466	1	14
550.806	1	5
551.146	1	3
551.486	1	14
551.826	1	8
552.166	1	11
552.506	1	12
552.846	1	16
553.186	1	12
553.526	1	-2
553.866	1	7
554.206	1	17
554.546	1	11
554.886	1	16
555.226	1	3
555.566	1	12
555.906	1	15
556.246	1	13
556.586	1	5
556.926	1	10
557.266	1	8
557.606	1	10
557.946	1	21
558.286	1	13
558.626	1	11
558.966	1	7
559.306	1	7
559.646	1	3
559.986	1	6
560.325	1	2
560.665	1	4
561.005	1	6
561.345	1	6
561.685	1	8
562.025	1	13
562.365	1	0
562.705	1	7
563.045	1	7
563.385	1	-3
563.725	1	17
564.064	1	14
564.404	1	9
564.744	1	10
565.084	1	9
565.424	1	4
565.764	1	6
566.104	1	10
566.444	1	5
566.783	1	5
567.123	1	15
567.463	1	1
567.803	1	1
568.143	1	8
568.483	1	18
568.823	1	16
569.162	1	12
569.502	1	12
569.842	1	7
570.182	1	14
570.522	1	3
570.862	1	9
571.201	1	14
571.541	1	12
571.881	1	19
572.221	1	5
572.561	1	6
572.900	1	2
573.240	1	6
573.580	1	10
573.920	1	12
574.260	1	21
574.599	1	10
574.939	1	12
575.279	1	18
575.619	1	22
575.959	1	4
576.298	1	14
576.638	1	7
576.978	1	8
577.318	1	10
577.657	1	5
577.997	1	-2
578.337	1	22
578.677	1	19
579.016	1	12
579.356	1	-4
579.696	1	1
580.036	1	4
580.375	1	19
580.715	1	16
581.055	1	7
581.394	1	10
581.734	1	4
582.074	1	6
582.414	1	17
582.753	1	4
583.093	1	1
583.433	1	7
583.772	1	17
584.112	1	5
584.452	1	12
584.791	1	7
585.131	1	9
585.471	1	16
585.811	1	12
586.150	1	11
586.490	1	12
586.830	1	0
587.169	1	7
587.509	1	6
587.849	1	8
588.188	1	10
588.528	1	17
588.867	1	15
589.207	1	7
589.547	1	9
589.886	1	6
590.226	1	7
590.566	1	8
590.905	1	13
591.245	1	0
591.585	1	13
591.924	1	6
592.264	1	10
592.603	1	16
592.943	1	9
593.283	1	13
593.622	1	2
593.962	1	11
594.301	1	7
594.641	1	11
594.981	1	3
595.320	1	7
595.660	1	6
595.999	1	-6
596.339	1	6
596.678	1	4
597.018	1	0
597.358	1	10
597.697	1	-2
598.037	1	6
598.376	1	8
598.716	1	14
599.055	1	22
599.395	1	14
599.734	1	2
600.074	1	9
600.413	1	13
600.753	1	11
601.092	1	24
601.432	1	-7
601.771	1	8
602.111	1	17
602.451	1	12
602.790	1	9
603.130	1	12
603.469	1	-1
603.809	1	5
604.148	1	10
604.487	1	6
604.827	1	16
605.166	1	9
605.506	1	9
605.845	1	6
606.185	1	15
606.524	1	-3
606.864	1	11
607.203	1	6
607.543	1	5
607.882	1	11
608.222	1	11
608.561	1	4
608.901	1	14
609.240	1	1
609.579	1	20
609.919	1	20
610.258	1	16
610.598	1	3
610.937	1	2
611.277	1	15
611.616	1	9
611.955	1	7
612.295	1	0
612.634	1	9
612.974	1	-4
613.313	1	15
613.652	1	15
613.992	1	6
614.331	1	7
614.671	1	12
615.010	1	-2
615.349	1	3
615.689	1	13
616.028	1	5
616.368	1	5
616.707	1	10
617.046	1	7
617.386	1	11
617.725	1	7
618.064	1	1
618.404	1	0
618.743	1	8
619.082	1	3
619.422	1	-2
619.761	1	6
620.100	1	7
620.440	1	12
620.779	1	4
621.118	1	5
621.458	1	8
621.797	1	4
622.136	1	17
622.476	1	14
622.815	1	11
623.154	1	9
623.494	1	15
623.833	1	15
624.172	1	-1
624.511	1	8
624.851	1	-8
625.190	1	4
625.529	1	7
625.869	1	15
626.208	1	5
626.547	1	9
626.886	1	8
627.226	1	3
627.565	1	8
627.904	1	-1
628.243	1	17
628.583	1	9
628.922	1	17
629.261	1	7
629.600	1	11
629.940	1	4
630.279	1	3
630.618	1	2
630.957	1	2
631.297	1	8
631.636	1	0
631.975	1	11
632.314	1	6
632.653	1	3
632.993	1	4
633.332	1	7
633.671	1	5
634.010	1	-3
634.349	1	13
634.689	1	9
635.028	1	8
635.367	1	-4
635.706	1	7
636.045	1	13
636.384	1	10
636.724	1	-3
637.063	1	3
637.402	1	16
637.741	1	3
638.080	1	9
638.419	1	0
638.759	1	3
639.098	1	7
639.437	1	15
639.776	1	3
640.115	1	3
640.454	1	-6
640.793	1	20
641.132	1	6
641.472	1	4
641.811	1	-1
642.150	1	-10
642.489	1	12
642.828	1	-4
643.167	1	-8
643.506	1	-9
643.845	1	-4
644.184	1	11
644.524	1	-6
644.863	1	2
645.202	1	12
645.541	1	-5
645.880	1	1
646.219	1	-3
646.558	1	-4
646.897	1	13
647.236	1	1
647.575	1	5
647.914	1	9
648.253	1	16
648.592	1	-2
648.931	1	17
649.270	1	8
649.610	1	6
649.949	1	10
650.288	1	8
650.627	1	0
650.966	1	11
651.305	1	-1
651.644	1	10
651.983	1	3
652.322	1	0
652.661	1	-3
653.000	1	5
653.339	1	10
653.678	1	3
654.017	1	6
654.356	1	-1
654.695	1	13
655.034	1	3
655.373	1	10
655.712	1	6
656.051	1	11
656.390	1	-4
656.729	1	8
657.068	1	13
657.406	1	12
657.745	1	5
658.084	1	5
658.423	1	15
658.762	1	3
659.101	1	14
659.440	1	-3
659.779	1	8
660.118	1	4
660.457	1	8
660.796	1	-5
661.135	1	6
661.474	1	12
661.813	1	14
662.152	1	-5
662.491	1	-6
662.829	1	0
663.168	1	10
663.507	1	8
663.846	1	-14
664.185	1	11
664.524	1	3
664.863	1	-8
665.202	1	5
665.541	1	-10
665.879	1	2
666.218	1	-6
666.557	1	-6
666.896	1	2
667.235	1	4
667.574	1	0
667.913	1	7
668.251	1	-10
668.590	1	4
668.929	1	-4
669.268	1	-1
669.607	1	9
669.946	1	-2
670.285	1	8
670.623	1	7
670.962	1	3
671.301	1	3
671.640	1	6
671.979	1	0
672.317	1	8
672.656	1	2
672.995	1	12
673.334	1	1
673.673	1	3
674.011	1	2
674.350	1	16
674.689	1	7
675.028	1	1
675.367	1	3
675.705	1	10
676.044	1	4
676.383	1	3
676.722	1	3
677.060	1	-2
677.399	1	1
677.738	1	8
678.077	1	11
678.416	1	0
678.754	1	2
679.093	1	10
679.432	1	2
679.771	1	10
680.109	1	22
680.448	1	4
680.787	1	2
681.125	1	10
681.464	1	5
681.803	1	1
682.142	1	11
682.480	1	16
682.819	1	12
683.158	1	-1
683.496	1	3
683.835	1	5
684.174	1	4
684.512	1	9
684.851	1	15
685.190	1	0
685.529	1	-3
685.867	1	4
686.206	1	3
686.545	1	-9
686.883	1	7
687.222	1	8
687.561	1	1
687.899	1	7
688.238	1	11
688.577	1	3
688.746	1	7