File: Data/GaN_200K_800ms/GaN_sample F_spot 12_UVVIS_200 K_200um_800 ms 2x2mm1_339.txt
340.368	1	2
340.710	1	-3
341.052	1	11
341.394	1	-4
341.737	1	-4
342.079	1	-4
342.421	1	12
342.763	1	1
343.105	1	2
343.447	1	-7
343.789	1	0
344.131	1	1
344.473	1	-4
344.815	1	1
345.157	1	-10
345.499	1	-2
345.841	1	3
346.183	1	-11
346.526	1	-5
346.868	1	5
347.210	1	-14
347.552	1	-4
347.894	1	5
348.236	1	7
348.578	1	0
348.920	1	-11
349.262	1	-8
349.604	1	2
349.946	1	-11
350.288	1	8
350.630	1	-1
350.972	1	-2
351.314	1	-3
351.656	1	7
351.998	1	7
352.340	1	-2
352.682	1	2
353.024	1	3
353.366	1	1
353.708	1	0
354.050	1	-16
354.392	1	-17
354.734	1	4
355.076	1	5
355.418	1	-18
355.760	1	-2
356.102	1	11
356.444	1	7
356.785	1	11
357.127	1	-5
357.469	1	1
357.811	1	-3
358.153	1	6
358.495	1	8
358.837	1	-2
359.179	1	0
359.521	1	10
359.863	1	-7
360.205	1	3
360.547	1	-1
360.889	1	-5
361.231	1	-2
361.572	1	-3
361.914	1	9
362.256	1	3
362.598	1	-7
362.940	1	2
363.282	1	10
363.624	1	20
363.966	1	0
364.308	1	-5
364.649	1	13
364.991	1	11
365.333	1	6
365.675	1	2
366.017	1	7
366.359	1	8
366.701	1	11
367.042	1	15
367.384	1	17
367.726	1	4
368.068	1	7
368.410	1	25
368.752	1	5
369.093	1	13
369.435	1	16
369.777	1	12
370.119	1	10
370.461	1	27
370.803	1	16
371.144	1	15
371.486	1	22
371.828	1	13
372.170	1	17
372.512	1	13
372.853	1	16
373.195	1	9
373.537	1	12
373.879	1	-2
374.220	1	19
374.562	1	18
374.904	1	1
375.246	1	11
375.588	1	14
375.929	1	12
376.271	1	13
376.613	1	6
376.955	1	0
377.296	1	-1
377.638	1	8
377.980	1	2
378.321	1	-6
378.663	1	-2
379.005	1	16
379.347	1	17
379.688	1	13
380.030	1	10
380.372	1	13
380.714	1	8
381.055	1	9
381.397	1	8
381.739	1	5
382.080	1	-3
382.422	1	-9
382.764	1	-4
383.105	1	-3
383.447	1	-1
383.789	1	-2
384.130	1	-1
384.472	1	-6
384.814	1	4
385.156	1	-2
385.497	1	5
385.839	1	-6
386.180	1	3
386.522	1	7
386.864	1	14
387.205	1	-3
387.547	1	-3
387.889	1	4
388.230	1	9
388.572	1	-3
388.914	1	-1
389.255	1	0
389.597	1	4
389.939	1	-5
390.280	1	-2
390.622	1	2
390.963	1	8
391.305	1	11
391.647	1	0
391.988	1	2
392.330	1	3
392.671	1	-4
393.013	1	-7
393.355	1	5
393.696	1	-3
394.038	1	6
394.379	1	-1
394.721	1	2
395.062	1	7
395.404	1	-8
395.746	1	10
396.087	1	2
396.429	1	1
396.770	1	-2
397.112	1	4
397.453	1	8
397.795	1	12
398.136	1	-12
398.478	1	-2
398.819	1	5
399.161	1	14
399.503	1	7
399.844	1	7
400.186	1	-6
400.527	1	-3
400.869	1	-3
401.210	1	5
401.552	1	-13
401.893	1	0
402.235	1	-4
402.576	1	-9
402.918	1	10
403.259	1	10
403.601	1	-3
403.942	1	8
404.284	1	7
404.625	1	1
404.967	1	11
405.308	1	-5
405.649	1	3
405.991	1	2
406.332	1	9
406.674	1	3
407.015	1	-1
407.357	1	-4
407.698	1	8
408.040	1	0
408.381	1	7
408.722	1	-14
409.064	1	-1
409.405	1	12
409.747	1	0
410.088	1	1
410.430	1	6
410.771	1	4
411.112	1	4
411.454	1	3
411.795	1	-2
412.137	1	2
412.478	1	9
412.819	1	-4
413.161	1	-3
413.502	1	-5
413.844	1	4
414.185	1	3
414.526	1	-2
414.868	1	0
415.209	1	-6
415.550	1	-3
415.892	1	-2
416.233	1	5
416.575	1	13
416.916	1	-6
417.257	1	0
417.599	1	1
417.940	1	-1
418.281	1	4
418.623	1	-11
418.964	1	-1
419.305	1	-3
419.647	1	-1
419.988	1	2
420.329	1	-4
420.671	1	1
421.012	1	6
421.353	1	-1
421.695	1	-1
422.036	1	3
422.377	1	-8
422.718	1	6
423.060	1	-1
423.401	1	1
423.742	1	4
424.084	1	6
424.425	1	-2
424.766	1	-5
425.107	1	-3
425.449	1	1
425.790	1	-8
426.131	1	-1
426.472	1	-6
426.814	1	-7
427.155	1	-8
427.496	1	-1
427.837	1	-9
428.179	1	-9
428.520	1	0
428.861	1	-2
429.202	1	-4
429.544	1	-2
429.885	1	6
430.226	1	-6
430.567	1	-4
430.909	1	4
431.250	1	1
431.591	1	5
431.932	1	8
432.273	1	3
432.615	1	-7
432.956	1	-13
433.297	1	2
433.638	1	1
433.979	1	12
434.320	1	7
434.662	1	-1
435.003	1	7
435.344	1	-7
435.685	1	-2
436.026	1	13
436.368	1	2
436.709	1	-4
437.050	1	-4
437.391	1	14
437.732	1	-8
438.073	1	0
438.414	1	-14
438.756	1	-3
439.097	1	-12
439.438	1	-2
439.779	1	-8
440.120	1	2
440.461	1	-6
440.802	1	-10
441.143	1	5
441.485	1	6
441.826	1	-1
442.167	1	-2
442.508	1	-19
442.849	1	5
443.190	1	2
443.531	1	1
443.872	1	-1
444.213	1	3
444.554	1	6
444.895	1	-7
445.237	1	-9
445.578	1	-8
445.919	1	-3
446.260	1	-4
446.601	1	-6
446.942	1	4
447.283	1	2
447.624	1	-1
447.965	1	1
448.306	1	-9
448.647	1	-10
448.988	1	3
449.329	1	0
449.670	1	9
450.011	1	9
450.352	1	0
450.693	1	0
451.034	1	-3
451.375	1	4
451.716	1	-5
452.057	1	11
452.398	1	-5
452.739	1	4
453.080	1	-6
453.421	1	2
453.762	1	-5
454.103	1	5
454.444	1	-6
454.785	1	-4
455.126	1	-6
455.467	1	-2
455.808	1	-6
456.149	1	4
456.490	1	-2
456.831	1	5
457.172	1	-6
457.513	1	11
457.854	1	3
458.195	1	-7
458.536	1	6
458.877	1	-10
459.218	1	-3
459.559	1	1
459.899	1	5
460.240	1	3
460.581	1	8
460.922	1	2
461.263	1	-9
461.604	1	-1
461.945	1	0
462.286	1	-8
462.627	1	5
462.968	1	2
463.309	1	-14
463.649	1	0
463.990	1	-3
464.331	1	-3
464.672	1	-4
465.013	1	-7
465.354	1	2
465.695	1	-7
466.036	1	-4
466.376	1	-6
466.717	1	4
467.058	1	-5
467.399	1	3
467.740	1	-3
468.081	1	-5
468.422	1	3
468.762	1	-13
469.103	1	-8
469.444	1	-9
469.785	1	-3
470.126	1	-13
470.467	1	1
470.807	1	-5
471.148	1	5
471.489	1	-1
471.830	1	-1
472.171	1	5
472.511	1	-3
472.852	1	-8
473.193	1	3
473.534	1	10
473.875	1	16
474.215	1	5
474.556	1	-3
474.897	1	6
475.238	1	8
475.578	1	-9
475.919	1	-2
476.260	1	0
476.601	1	-6
476.942	1	5
477.282	1	0
477.623	1	-10
477.964	1	-2
478.305	1	2
478.645	1	1
478.986	1	1
479.327	1	-6
479.667	1	0
480.008	1	-3
480.349	1	2
480.690	1	-7
481.030	1	-11
481.371	1	-3
481.712	1	0
482.053	1	6
482.393	1	0
482.734	1	-10
483.075	1	-10
483.415	1	3
483.756	1	14
484.097	1	-12
484.437	1	1
484.778	1	3
485.119	1	-6
485.459	1	13
485.800	1	-10
486.141	1	-4
486.481	1	4
486.822	1	4
487.163	1	0
487.503	1	8
487.844	1	2
488.185	1	-1
488.525	1	-9
488.866	1	-1
489.207	1	-5
489.547	1	-5
489.888	1	-7
490.228	1	7
490.569	1	11
490.910	1	-4
491.250	1	-5
491.591	1	-7
491.932	1	-9
492.272	1	0
492.613	1	-4
492.953	1	-9
493.294	1	2
493.635	1	-6
493.975	1	1
494.316	1	6
494.656	1	-3
494.997	1	-5
495.337	1	10
495.678	1	3
496.019	1	-10
496.359	1	-10
496.700	1	0
497.040	1	-7
497.381	1	-10
497.721	1	0
498.062	1	-4
498.403	1	1
498.743	1	-6
499.084	1	-9
499.424	1	5
499.765	1	-5
500.105	1	-3
500.446	1	-9
500.786	1	-12
501.127	1	4
501.467	1	-3
501.808	1	0
502.148	1	8
502.489	1	2
502.829	1	11
503.170	1	0
503.510	1	5
503.851	1	1
504.191	1	-1
504.532	1	9
504.872	1	-4
505.213	1	6
505.553	1	-10
505.894	1	-11
506.234	1	10
506.575	1	2
506.915	1	-1
507.256	1	2
507.596	1	-3
507.936	1	-1
508.277	1	7
508.617	1	7
508.958	1	-7
509.298	1	7
509.639	1	-3
509.979	1	3
510.319	1	0
510.660	1	-6
511.000	1	-3
511.341	1	0
511.681	1	-1
512.022	1	-8
512.362	1	-11
512.702	1	3
513.043	1	9
513.383	1	-7
513.724	1	3
514.064	1	8
514.404	1	-1
514.745	1	-6
515.085	1	-1
515.425	1	-6
515.766	1	-10
516.106	1	5
516.447	1	10
516.787	1	5
517.127	1	-4
517.468	1	2
517.808	1	1
518.148	1	0
518.489	1	-4
518.829	1	9
519.169	1	-3
519.510	1	-4
519.850	1	-4
520.190	1	-2
520.531	1	2
520.871	1	5
521.211	1	-14
521.552	1	10
521.892	1	6
522.232	1	2
522.573	1	-7
522.913	1	3
523.253	1	2
523.593	1	-7
523.934	1	-5
524.274	1	-8
524.614	1	-4
524.955	1	-6
525.295	1	-1
525.635	1	-1
525.975	1	12
526.316	1	13
526.656	1	5
526.996	1	10
527.337	1	-8
527.677	1	5
528.017	1	-10
528.357	1	7
528.698	1	-2
529.038	1	-1
529.378	1	10
529.718	1	5
530.058	1	3
530.399	1	8
530.739	1	-7
531.079	1	3
531.419	1	-1
531.760	1	0
532.100	1	-1
532.440	1	2
532.780	1	4
533.120	1	5
533.461	1	7
533.801	1	8
534.141	1	-6
534.481	1	-9
534.821	1	12
535.162	1	0
535.502	1	0
535.842	1	12
536.182	1	2
536.522	1	4
536.862	1	3
537.203	1	-3
537.543	1	-5
537.883	1	1
538.223	1	-3
538.563	1	15
538.903	1	-3
539.243	1	6
539.584	1	-2
539.924	1	14
540.264	1	-4
540.604	1	11
540.944	1	-2
541.284	1	14
541.624	1	2
541.964	1	10
542.305	1	1
542.645	1	9
542.985	1	7
543.325	1	3
543.665	1	11
544.005	1	11
544.345	1	5
544.685	1	-9
545.025	1	-7
545.365	1	-6
545.705	1	-4
546.045	1	-4
546.386	1	3
546.726	1	-1
547.066	1	0
547.406	1	4
547.746	1	-10
548.086	1	-1
548.426	1	-3
548.766	1	4
549.106	1	2
549.446	1	-2
549.786	1	2
550.126	1	18
550.466	1	-3
550.806	1	-3
551.146	1	-2
551.486	1	3
551.826	1	1
552.166	1	6
552.506	1	9
552.846	1	2
553.186	1	0
553.526	1	2
553.866	1	2
554.206	1	7
554.546	1	4
554.886	1	10
555.226	1	-8
555.566	1	8
555.906	1	1
556.246	1	4
556.586	1	3
556.926	1	1
557.266	1	2
557.606	1	8
557.946	1	12
558.286	1	11
558.626	1	-6
558.966	1	4
559.306	1	-7
559.646	1	-8
559.986	1	-2
560.325	1	-10
560.665	1	-3
561.005	1	1
561.345	1	-1
561.685	1	-3
562.025	1	2
562.365	1	-4
562.705	1	-5
563.045	1	3
563.385	1	-8
563.725	1	7
564.064	1	-4
564.404	1	4
564.744	1	9
565.084	1	0
565.424	1	-1
565.764	1	-6
566.104	1	-3
566.444	1	-7
566.783	1	-7
567.123	1	7
567.463	1	3
567.803	1	-6
568.143	1	3
568.483	1	-2
568.823	1	1
569.162	1	-1
569.502	1	-4
569.842	1	4
570.182	1	1
570.522	1	-11
570.862	1	-10
571.201	1	8
571.541	1	4
571.881	1	8
572.221	1	3
572.561	1	-11
572.900	1	-10
573.240	1	4
573.580	1	0
573.920	1	-2
574.260	1	0
574.599	1	-6
574.939	1	9
575.279	1	10
575.619	1	6
575.959	1	-2
576.298	1	0
576.638	1	-1
576.978	1	2
577.318	1	3
577.657	1	-6
577.997	1	-4
578.337	1	14
578.677	1	7
579.016	1	6
579.356	1	-6
579.696	1	6
580.036	1	0
580.375	1	8
580.715	1	2
581.055	1	0
581.394	1	-4
581.734	1	-4
582.074	1	-4
582.414	1	10
582.753	1	1
583.093	1	-4
583.433	1	1
583.772	1	8
584.112	1	5
584.452	1	-2
584.791	1	-6
585.131	1	1
585.471	1	7
585.811	1	5
586.150	1	-8
586.490	1	3
586.830	1	3
587.169	1	4
587.509	1	3
587.849	1	11
588.188	1	9
588.528	1	1
588.867	1	3
589.207	1	-3
589.547	1	-1
589.886	1	-9
590.226	1	7
590.566	1	-6
590.905	1	6
591.245	1	-13
591.585	1	-7
591.924	1	-10
592.264	1	0
592.603	1	11
592.943	1	4
593.283	1	4
593.622	1	-5
593.962	1	7
594.301	1	6
594.641	1	-5
594.981	1	0
595.320	1	7
595.660	1	-1
595.999	1	-5
596.339	1	8
596.678	1	-12
597.018	1	1
597.358	1	-1
597.697	1	-1
598.037	1	-5
598.376	1	10
598.716	1	0
599.055	1	-1
599.395	1	-4
599.734	1	9
600.074	1	-7
600.413	1	2
600.753	1	0
601.092	1	6
601.432	1	-4
601.771	1	-4
602.111	1	5
602.451	1	12
602.790	1	1
603.130	1	8
603.469	1	-10
603.809	1	9
604.148	1	2
604.487	1	0
604.827	1	2
605.166	1	1
605.506	1	1
605.845	1	4
606.185	1	2
606.524	1	-3
606.864	1	-4
607.203	1	0
607.543	1	-1
607.882	1	0
608.222	1	4
608.561	1	-1
608.901	1	-1
609.240	1	2
609.579	1	7
609.919	1	7
610.258	1	13
610.598	1	-15
610.937	1	5
611.277	1	-10
611.616	1	6
611.955	1	2
612.295	1	0
612.634	1	-7
612.974	1	1
613.313	1	3
613.652	1	3
613.992	1	-3
614.331	1	1
614.671	1	5
615.010	1	-1
615.349	1	0
615.689	1	-2
616.028	1	1
616.368	1	4
616.707	1	5
617.046	1	4
617.386	1	2
617.725	1	13
618.064	1	2
618.404	1	-3
618.743	1	5
619.082	1	-1
619.422	1	-4
619.761	1	-2
620.100	1	-2
620.440	1	-2
620.779	1	-13
621.118	1	-3
621.458	1	2
621.797	1	0
622.136	1	19
622.476	1	-2
622.815	1	8
623.154	1	13
623.494	1	13
623.833	1	7
624.172	1	-2
624.511	1	1
624.851	1	-13
625.190	1	0
625.529	1	6
625.869	1	-3
626.208	1	-2
626.547	1	0
626.886	1	0
627.226	1	13
627.565	1	0
627.904	1	-11
628.243	1	2
628.583	1	-4
628.922	1	8
629.261	1	3
629.600	1	0
629.940	1	-7
630.279	1	-5
630.618	1	-6
630.957	1	2
631.297	1	6
631.636	1	-6
631.975	1	18
632.314	1	1
632.653	1	4
632.993	1	-1
633.332	1	-1
633.671	1	-7
634.010	1	-5
634.349	1	3
634.689	1	4
635.028	1	9
635.367	1	-2
635.706	1	4
636.045	1	10
636.384	1	2
636.724	1	6
637.063	1	-1
637.402	1	7
637.741	1	-4
638.080	1	-5
638.419	1	-3
638.759	1	-8
639.098	1	1
639.437	1	3
639.776	1	5
640.115	1	-6
640.454	1	-6
640.793	1	2
641.132	1	2
641.472	1	-2
641.811	1	-3
642.150	1	-14
642.489	1	6
642.828	1	-4
643.167	1	-13
643.506	1	-6
643.845	1	0
644.184	1	6
644.524	1	5
644.863	1	2
645.202	1	-4
645.541	1	-6
645.880	1	6
646.219	1	3
646.558	1	6
646.897	1	9
647.236	1	-4
647.575	1	2
647.914	1	-2
648.253	1	2
648.592	1	-1
648.931	1	16
649.270	1	0
649.610	1	1
649.949	1	-5
650.288	1	10
650.627	1	-2
650.966	1	-4
651.305	1	5
651.644	1	-1
651.983	1	-3
652.322	1	-1
652.661	1	-1
653.000	1	-3
653.339	1	3
653.678	1	-1
654.017	1	-7
654.356	1	-3
654.695	1	15
655.034	1	9
655.373	1	12
655.712	1	0
656.051	1	-1
656.390	1	-2
656.729	1	7
657.068	1	3
657.406	1	-1
657.745	1	-7
658.084	1	3
658.423	1	0
658.762	1	1
659.101	1	4
659.440	1	1
659.779	1	2
660.118	1	-1
660.457	1	5
660.796	1	-10
661.135	1	-10
661.474	1	-9
661.813	1	6
662.152	1	3
662.491	1	-5
662.829	1	-8
663.168	1	4
663.507	1	8
663.846	1	-3
664.185	1	2
664.524	1	5
664.863	1	0
665.202	1	1
665.541	1	-6
665.879	1	-15
666.218	1	1
666.557	1	-1
666.896	1	0
667.235	1	4
667.574	1	2
667.913	1	0
668.251	1	-6
668.590	1	-5
668.929	1	-11
669.268	1	-5
669.607	1	0
669.946	1	9
670.285	1	13
670.623	1	1
670.962	1	-3
671.301	1	3
671.640	1	-1
671.979	1	0
672.317	1	8
672.656	1	-1
672.995	1	4
673.334	1	-1
673.673	1	0
674.011	1	-3
674.350	1	8
674.689	1	6
675.028	1	-1
675.367	1	-5
675.705	1	10
676.044	1	-1
676.383	1	4
676.722	1	6
677.060	1	3
677.399	1	-3
677.738	1	9
678.077	1	-2
678.416	1	-1
678.754	1	2
679.093	1	6
679.432	1	1
679.771	1	-8
680.109	1	13
680.448	1	4
680.787	1	-4
681.125	1	8
681.464	1	-10
681.803	1	2
682.142	1	0
682.480	1	13
682.819	1	-6
683.158	1	-2
683.496	1	-3
683.835	1	1
684.174	1	-4
684.512	1	7
684.851	1	2
685.190	1	-11
685.529	1	-5
685.867	1	0
686.206	1	-5
686.545	1	-4
686.883	1	-3
687.222	1	2
687.561	1	4
687.899	1	2
688.238	1	6
688.577	1	-4
688.746	1	2