File: Data/GaN_200K_800ms/GaN_sample F_spot 12_UVVIS_200 K_200um_800 ms 2x2mm1_464.txt
340.368	1	9
340.710	1	-13
341.052	1	0
341.394	1	-11
341.737	1	-4
342.079	1	-10
342.421	1	-2
342.763	1	7
343.105	1	-2
343.447	1	-7
343.789	1	-6
344.131	1	-5
344.473	1	-12
344.815	1	-3
345.157	1	-10
345.499	1	4
345.841	1	1
346.183	1	-9
346.526	1	-5
346.868	1	6
347.210	1	-5
347.552	1	-4
347.894	1	4
348.236	1	-5
348.578	1	0
348.920	1	2
349.262	1	-11
349.604	1	4
349.946	1	-7
350.288	1	12
350.630	1	-1
350.972	1	-2
351.314	1	1
351.656	1	1
351.998	1	0
352.340	1	-1
352.682	1	-3
353.024	1	0
353.366	1	3
353.708	1	-10
354.050	1	-14
354.392	1	-9
354.734	1	1
355.076	1	1
355.418	1	-17
355.760	1	-11
356.102	1	3
356.444	1	4
356.785	1	9
357.127	1	7
357.469	1	1
357.811	1	0
358.153	1	6
358.495	1	4
358.837	1	-15
359.179	1	-4
359.521	1	0
359.863	1	0
360.205	1	-4
360.547	1	1
360.889	1	1
361.231	1	-7
361.572	1	2
361.914	1	3
362.256	1	4
362.598	1	-8
362.940	1	-1
363.282	1	2
363.624	1	4
363.966	1	-5
364.308	1	5
364.649	1	5
364.991	1	-1
365.333	1	4
365.675	1	-8
366.017	1	3
366.359	1	-1
366.701	1	6
367.042	1	9
367.384	1	11
367.726	1	11
368.068	1	13
368.410	1	20
368.752	1	1
369.093	1	7
369.435	1	8
369.777	1	10
370.119	1	13
370.461	1	20
370.803	1	18
371.144	1	7
371.486	1	5
371.828	1	10
372.170	1	16
372.512	1	5
372.853	1	11
373.195	1	1
373.537	1	9
373.879	1	8
374.220	1	8
374.562	1	4
374.904	1	10
375.246	1	3
375.588	1	-1
375.929	1	9
376.271	1	9
376.613	1	0
376.955	1	-3
377.296	1	-1
377.638	1	5
377.980	1	8
378.321	1	-1
378.663	1	-12
379.005	1	13
379.347	1	2
379.688	1	3
380.030	1	-7
380.372	1	1
380.714	1	10
381.055	1	9
381.397	1	5
381.739	1	-5
382.080	1	5
382.422	1	5
382.764	1	-5
383.105	1	-5
383.447	1	-7
383.789	1	-1
384.130	1	-2
384.472	1	5
384.814	1	-1
385.156	1	-3
385.497	1	0
385.839	1	-2
386.180	1	1
386.522	1	4
386.864	1	5
387.205	1	-6
387.547	1	-7
387.889	1	-5
388.230	1	7
388.572	1	-6
388.914	1	5
389.255	1	3
389.597	1	2
389.939	1	1
390.280	1	3
390.622	1	-1
390.963	1	1
391.305	1	3
391.647	1	11
391.988	1	4
392.330	1	0
392.671	1	1
393.013	1	-8
393.355	1	6
393.696	1	-5
394.038	1	-3
394.379	1	0
394.721	1	-11
395.062	1	1
395.404	1	-11
395.746	1	3
396.087	1	0
396.429	1	3
396.770	1	-6
397.112	1	12
397.453	1	16
397.795	1	0
398.136	1	-5
398.478	1	6
398.819	1	8
399.161	1	13
399.503	1	3
399.844	1	-4
400.186	1	-4
400.527	1	0
400.869	1	1
401.210	1	2
401.552	1	-5
401.893	1	0
402.235	1	2
402.576	1	-1
402.918	1	7
403.259	1	2
403.601	1	-2
403.942	1	8
404.284	1	5
404.625	1	0
404.967	1	0
405.308	1	4
405.649	1	5
405.991	1	-1
406.332	1	6
406.674	1	-7
407.015	1	6
407.357	1	1
407.698	1	5
408.040	1	-4
408.381	1	2
408.722	1	-14
409.064	1	-2
409.405	1	7
409.747	1	-4
410.088	1	-3
410.430	1	3
410.771	1	-4
411.112	1	-6
411.454	1	-10
411.795	1	-7
412.137	1	5
412.478	1	4
412.819	1	-10
413.161	1	4
413.502	1	3
413.844	1	-2
414.185	1	4
414.526	1	4
414.868	1	-3
415.209	1	5
415.550	1	-3
415.892	1	-8
416.233	1	2
416.575	1	17
416.916	1	-5
417.257	1	-10
417.599	1	1
417.940	1	5
418.281	1	1
418.623	1	-6
418.964	1	-13
419.305	1	3
419.647	1	-10
419.988	1	2
420.329	1	-3
420.671	1	-1
421.012	1	8
421.353	1	-2
421.695	1	-5
422.036	1	1
422.377	1	-4
422.718	1	11
423.060	1	-8
423.401	1	-3
423.742	1	-8
424.084	1	-6
424.425	1	-5
424.766	1	-8
425.107	1	3
425.449	1	-8
425.790	1	-13
426.131	1	0
426.472	1	-1
426.814	1	-1
427.155	1	-14
427.496	1	3
427.837	1	-4
428.179	1	-7
428.520	1	-7
428.861	1	0
429.202	1	2
429.544	1	3
429.885	1	-1
430.226	1	0
430.567	1	-1
430.909	1	-1
431.250	1	-7
431.591	1	8
431.932	1	-3
432.273	1	-8
432.615	1	-3
432.956	1	-4
433.297	1	4
433.638	1	-5
433.979	1	-2
434.320	1	-2
434.662	1	-6
435.003	1	0
435.344	1	4
435.685	1	-1
436.026	1	-1
436.368	1	12
436.709	1	-1
437.050	1	-2
437.391	1	4
437.732	1	-7
438.073	1	0
438.414	1	-1
438.756	1	-2
439.097	1	-3
439.438	1	-2
439.779	1	-2
440.120	1	-11
440.461	1	4
440.802	1	-10
441.143	1	0
441.485	1	2
441.826	1	4
442.167	1	-1
442.508	1	-8
442.849	1	7
443.190	1	-1
443.531	1	2
443.872	1	9
444.213	1	4
444.554	1	7
444.895	1	-3
445.237	1	-3
445.578	1	-3
445.919	1	-12
446.260	1	3
446.601	1	-4
446.942	1	-6
447.283	1	-10
447.624	1	-4
447.965	1	0
448.306	1	2
448.647	1	-9
448.988	1	-4
449.329	1	-9
449.670	1	3
450.011	1	0
450.352	1	-2
450.693	1	-7
451.034	1	-7
451.375	1	8
451.716	1	-7
452.057	1	-1
452.398	1	-6
452.739	1	8
453.080	1	-5
453.421	1	-2
453.762	1	-8
454.103	1	2
454.444	1	-10
454.785	1	-3
455.126	1	-2
455.467	1	1
455.808	1	-2
456.149	1	-1
456.490	1	-2
456.831	1	10
457.172	1	-1
457.513	1	4
457.854	1	-2
458.195	1	-6
458.536	1	2
458.877	1	-8
459.218	1	5
459.559	1	1
459.899	1	1
460.240	1	3
460.581	1	13
460.922	1	9
461.263	1	-7
461.604	1	-3
461.945	1	4
462.286	1	2
462.627	1	7
462.968	1	2
463.309	1	-4
463.649	1	-3
463.990	1	-6
464.331	1	-2
464.672	1	-4
465.013	1	-4
465.354	1	4
465.695	1	-6
466.036	1	-6
466.376	1	-5
466.717	1	6
467.058	1	-3
467.399	1	6
467.740	1	8
468.081	1	8
468.422	1	-10
468.762	1	-7
469.103	1	-8
469.444	1	-9
469.785	1	-8
470.126	1	-9
470.467	1	-4
470.807	1	-4
471.148	1	4
471.489	1	-5
471.830	1	2
472.171	1	3
472.511	1	-7
472.852	1	2
473.193	1	0
473.534	1	11
473.875	1	11
474.215	1	8
474.556	1	-4
474.897	1	-4
475.238	1	1
475.578	1	-21
475.919	1	-9
476.260	1	-6
476.601	1	5
476.942	1	4
477.282	1	-4
477.623	1	-2
477.964	1	-10
478.305	1	-1
478.645	1	3
478.986	1	-3
479.327	1	-12
479.667	1	-2
480.008	1	1
480.349	1	-8
480.690	1	4
481.030	1	-9
481.371	1	-4
481.712	1	0
482.053	1	4
482.393	1	0
482.734	1	-1
483.075	1	-4
483.415	1	3
483.756	1	-3
484.097	1	-3
484.437	1	-2
484.778	1	2
485.119	1	-2
485.459	1	4
485.800	1	-3
486.141	1	-8
486.481	1	-1
486.822	1	5
487.163	1	-5
487.503	1	7
487.844	1	-1
488.185	1	6
488.525	1	9
488.866	1	4
489.207	1	-2
489.547	1	0
489.888	1	-5
490.228	1	-1
490.569	1	6
490.910	1	-4
491.250	1	-2
491.591	1	-11
491.932	1	2
492.272	1	-1
492.613	1	-11
492.953	1	-15
493.294	1	-10
493.635	1	-4
493.975	1	-5
494.316	1	10
494.656	1	-5
494.997	1	-7
495.337	1	-1
495.678	1	-3
496.019	1	2
496.359	1	-10
496.700	1	-8
497.040	1	-11
497.381	1	-5
497.721	1	-4
498.062	1	1
498.403	1	-9
498.743	1	-8
499.084	1	-6
499.424	1	-5
499.765	1	-8
500.105	1	-2
500.446	1	1
500.786	1	-13
501.127	1	4
501.467	1	-4
501.808	1	-2
502.148	1	5
502.489	1	0
502.829	1	0
503.170	1	8
503.510	1	2
503.851	1	-7
504.191	1	9
504.532	1	2
504.872	1	-2
505.213	1	1
505.553	1	-9
505.894	1	-20
506.234	1	19
506.575	1	7
506.915	1	6
507.256	1	5
507.596	1	1
507.936	1	9
508.277	1	-2
508.617	1	-3
508.958	1	-18
509.298	1	-2
509.639	1	-6
509.979	1	-2
510.319	1	5
510.660	1	-7
511.000	1	-1
511.341	1	1
511.681	1	1
512.022	1	0
512.362	1	-11
512.702	1	-1
513.043	1	6
513.383	1	-11
513.724	1	5
514.064	1	12
514.404	1	0
514.745	1	-5
515.085	1	-6
515.425	1	-1
515.766	1	-6
516.106	1	2
516.447	1	6
516.787	1	3
517.127	1	-2
517.468	1	-2
517.808	1	-1
518.148	1	8
518.489	1	-7
518.829	1	5
519.169	1	-6
519.510	1	1
519.850	1	3
520.190	1	-3
520.531	1	5
520.871	1	-2
521.211	1	-3
521.552	1	3
521.892	1	5
522.232	1	9
522.573	1	-4
522.913	1	3
523.253	1	0
523.593	1	-5
523.934	1	-2
524.274	1	-1
524.614	1	-8
524.955	1	-14
525.295	1	-5
525.635	1	5
525.975	1	5
526.316	1	17
526.656	1	4
526.996	1	6
527.337	1	2
527.677	1	8
528.017	1	-16
528.357	1	-4
528.698	1	-2
529.038	1	-2
529.378	1	10
529.718	1	0
530.058	1	-6
530.399	1	-1
530.739	1	-5
531.079	1	2
531.419	1	-5
531.760	1	3
532.100	1	0
532.440	1	-1
532.780	1	3
533.120	1	12
533.461	1	5
533.801	1	11
534.141	1	-11
534.481	1	-7
534.821	1	3
535.162	1	-4
535.502	1	-8
535.842	1	-4
536.182	1	0
536.522	1	-6
536.862	1	-3
537.203	1	-13
537.543	1	6
537.883	1	-1
538.223	1	-3
538.563	1	2
538.903	1	-10
539.243	1	4
539.584	1	-2
539.924	1	1
540.264	1	3
540.604	1	1
540.944	1	3
541.284	1	-3
541.624	1	7
541.964	1	3
542.305	1	2
542.645	1	-5
542.985	1	5
543.325	1	3
543.665	1	9
544.005	1	8
544.345	1	11
544.685	1	6
545.025	1	7
545.365	1	-4
545.705	1	-3
546.045	1	-14
546.386	1	3
546.726	1	-17
547.066	1	2
547.406	1	7
547.746	1	-13
548.086	1	0
548.426	1	-4
548.766	1	-2
549.106	1	-9
549.446	1	-2
549.786	1	-3
550.126	1	10
550.466	1	1
550.806	1	-6
551.146	1	-6
551.486	1	0
551.826	1	-3
552.166	1	-4
552.506	1	-1
552.846	1	-4
553.186	1	10
553.526	1	-8
553.866	1	4
554.206	1	8
554.546	1	3
554.886	1	1
555.226	1	-8
555.566	1	10
555.906	1	1
556.246	1	3
556.586	1	-2
556.926	1	3
557.266	1	-9
557.606	1	6
557.946	1	13
558.286	1	-3
558.626	1	1
558.966	1	-3
559.306	1	6
559.646	1	-3
559.986	1	-13
560.325	1	-10
560.665	1	-11
561.005	1	-9
561.345	1	4
561.685	1	1
562.025	1	-4
562.365	1	0
562.705	1	-3
563.045	1	-6
563.385	1	-5
563.725	1	5
564.064	1	-5
564.404	1	3
564.744	1	-6
565.084	1	-5
565.424	1	0
565.764	1	-8
566.104	1	1
566.444	1	-4
566.783	1	4
567.123	1	0
567.463	1	2
567.803	1	-7
568.143	1	-2
568.483	1	4
568.823	1	2
569.162	1	6
569.502	1	-2
569.842	1	3
570.182	1	-5
570.522	1	-11
570.862	1	-6
571.201	1	6
571.541	1	8
571.881	1	6
572.221	1	0
572.561	1	-9
572.900	1	-6
573.240	1	4
573.580	1	0
573.920	1	1
574.260	1	2
574.599	1	1
574.939	1	3
575.279	1	8
575.619	1	0
575.959	1	-5
576.298	1	6
576.638	1	-3
576.978	1	12
577.318	1	8
577.657	1	-4
577.997	1	-9
578.337	1	14
578.677	1	-5
579.016	1	0
579.356	1	-11
579.696	1	6
580.036	1	2
580.375	1	-1
580.715	1	1
581.055	1	-1
581.394	1	-5
581.734	1	-10
582.074	1	-9
582.414	1	9
582.753	1	-6
583.093	1	-2
583.433	1	-6
583.772	1	0
584.112	1	3
584.452	1	7
584.791	1	-5
585.131	1	-3
585.471	1	4
585.811	1	9
586.150	1	-1
586.490	1	10
586.830	1	-8
587.169	1	3
587.509	1	-10
587.849	1	3
588.188	1	3
588.528	1	3
588.867	1	7
589.207	1	0
589.547	1	2
589.886	1	-5
590.226	1	2
590.566	1	2
590.905	1	2
591.245	1	-1
591.585	1	3
591.924	1	0
592.264	1	4
592.603	1	0
592.943	1	-4
593.283	1	-2
593.622	1	-1
593.962	1	2
594.301	1	5
594.641	1	3
594.981	1	0
595.320	1	1
595.660	1	8
595.999	1	-12
596.339	1	-5
596.678	1	-1
597.018	1	-6
597.358	1	-2
597.697	1	-3
598.037	1	-4
598.376	1	-11
598.716	1	3
599.055	1	3
599.395	1	3
599.734	1	-7
600.074	1	0
600.413	1	9
600.753	1	5
601.092	1	3
601.432	1	-10
601.771	1	2
602.111	1	5
602.451	1	12
602.790	1	5
603.130	1	4
603.469	1	-10
603.809	1	-3
604.148	1	-3
604.487	1	-9
604.827	1	1
605.166	1	11
605.506	1	7
605.845	1	-2
606.185	1	6
606.524	1	1
606.864	1	7
607.203	1	3
607.543	1	-1
607.882	1	5
608.222	1	3
608.561	1	5
608.901	1	7
609.240	1	-7
609.579	1	1
609.919	1	1
610.258	1	4
610.598	1	-3
610.937	1	1
611.277	1	0
611.616	1	-4
611.955	1	2
612.295	1	-8
612.634	1	-1
612.974	1	-12
613.313	1	5
613.652	1	7
613.992	1	-3
614.331	1	1
614.671	1	8
615.010	1	-6
615.349	1	6
615.689	1	9
616.028	1	-4
616.368	1	5
616.707	1	-2
617.046	1	2
617.386	1	-4
617.725	1	-1
618.064	1	-11
618.404	1	2
618.743	1	-3
619.082	1	0
619.422	1	-11
619.761	1	5
620.100	1	4
620.440	1	1
620.779	1	-5
621.118	1	-4
621.458	1	1
621.797	1	0
622.136	1	8
622.476	1	0
622.815	1	3
623.154	1	0
623.494	1	13
623.833	1	7
624.172	1	-2
624.511	1	-12
624.851	1	-5
625.190	1	0
625.529	1	6
625.869	1	7
626.208	1	-7
626.547	1	5
626.886	1	2
627.226	1	1
627.565	1	1
627.904	1	-5
628.243	1	9
628.583	1	6
628.922	1	-1
629.261	1	2
629.600	1	3
629.940	1	-8
630.279	1	-3
630.618	1	-5
630.957	1	4
631.297	1	-4
631.636	1	-14
631.975	1	18
632.314	1	-1
632.653	1	1
632.993	1	-11
633.332	1	0
633.671	1	-14
634.010	1	-5
634.349	1	8
634.689	1	-3
635.028	1	-2
635.367	1	-2
635.706	1	-1
636.045	1	14
636.384	1	2
636.724	1	-4
637.063	1	1
637.402	1	-7
637.741	1	-1
638.080	1	-5
638.419	1	-6
638.759	1	-6
639.098	1	-7
639.437	1	5
639.776	1	-1
640.115	1	-3
640.454	1	-12
640.793	1	10
641.132	1	10
641.472	1	-2
641.811	1	3
642.150	1	-9
642.489	1	4
642.828	1	-10
643.167	1	2
643.506	1	-16
643.845	1	-5
644.184	1	-3
644.524	1	-6
644.863	1	-4
645.202	1	2
645.541	1	-1
645.880	1	-1
646.219	1	0
646.558	1	8
646.897	1	-5
647.236	1	0
647.575	1	1
647.914	1	-9
648.253	1	4
648.592	1	-5
648.931	1	6
649.270	1	-3
649.610	1	-8
649.949	1	-6
650.288	1	-1
650.627	1	4
650.966	1	-9
651.305	1	5
651.644	1	3
651.983	1	1
652.322	1	-5
652.661	1	-1
653.000	1	1
653.339	1	0
653.678	1	2
654.017	1	-2
654.356	1	-4
654.695	1	6
655.034	1	3
655.373	1	2
655.712	1	2
656.051	1	2
656.390	1	-3
656.729	1	2
657.068	1	0
657.406	1	3
657.745	1	-3
658.084	1	2
658.423	1	4
658.762	1	-6
659.101	1	6
659.440	1	-10
659.779	1	-1
660.118	1	2
660.457	1	-1
660.796	1	-10
661.135	1	-1
661.474	1	2
661.813	1	18
662.152	1	-1
662.491	1	-4
662.829	1	-9
663.168	1	-4
663.507	1	5
663.846	1	-2
664.185	1	0
664.524	1	0
664.863	1	-7
665.202	1	9
665.541	1	-14
665.879	1	-10
666.218	1	-5
666.557	1	-2
666.896	1	-2
667.235	1	-5
667.574	1	-6
667.913	1	1
668.251	1	-8
668.590	1	7
668.929	1	-16
669.268	1	-4
669.607	1	-7
669.946	1	3
670.285	1	6
670.623	1	-1
670.962	1	0
671.301	1	-4
671.640	1	9
671.979	1	-6
672.317	1	7
672.656	1	-2
672.995	1	1
673.334	1	-1
673.673	1	6
674.011	1	-4
674.350	1	2
674.689	1	3
675.028	1	-4
675.367	1	-3
675.705	1	-6
676.044	1	7
676.383	1	0
676.722	1	5
677.060	1	-7
677.399	1	-1
677.738	1	1
678.077	1	-1
678.416	1	5
678.754	1	2
679.093	1	7
679.432	1	-2
679.771	1	0
680.109	1	2
680.448	1	-1
680.787	1	0
681.125	1	10
681.464	1	-2
681.803	1	-3
682.142	1	8
682.480	1	10
682.819	1	0
683.158	1	-11
683.496	1	-8
683.835	1	1
684.174	1	3
684.512	1	-1
684.851	1	5
685.190	1	2
685.529	1	-6
685.867	1	6
686.206	1	4
686.545	1	-11
686.883	1	-1
687.222	1	2
687.561	1	1
687.899	1	3
688.238	1	9
688.577	1	-2
688.746	1	-6