File: Data/GaN_200K_800ms/GaN_sample F_spot 12_UVVIS_200 K_200um_800 ms 2x2mm1_487.txt
340.368	1	-3
340.710	1	-10
341.052	1	7
341.394	1	-7
341.737	1	4
342.079	1	-10
342.421	1	1
342.763	1	12
343.105	1	6
343.447	1	-1
343.789	1	-7
344.131	1	1
344.473	1	-2
344.815	1	-5
345.157	1	-4
345.499	1	1
345.841	1	9
346.183	1	-4
346.526	1	-10
346.868	1	-2
347.210	1	-5
347.552	1	-11
347.894	1	1
348.236	1	0
348.578	1	-3
348.920	1	-11
349.262	1	-4
349.604	1	-2
349.946	1	-12
350.288	1	8
350.630	1	2
350.972	1	0
351.314	1	8
351.656	1	7
351.998	1	-4
352.340	1	-1
352.682	1	5
353.024	1	0
353.366	1	13
353.708	1	1
354.050	1	-5
354.392	1	4
354.734	1	2
355.076	1	2
355.418	1	-8
355.760	1	-2
356.102	1	10
356.444	1	3
356.785	1	2
357.127	1	2
357.469	1	4
357.811	1	1
358.153	1	9
358.495	1	1
358.837	1	-9
359.179	1	0
359.521	1	7
359.863	1	-2
360.205	1	-2
360.547	1	-1
360.889	1	2
361.231	1	0
361.572	1	5
361.914	1	5
362.256	1	4
362.598	1	-13
362.940	1	1
363.282	1	5
363.624	1	11
363.966	1	0
364.308	1	2
364.649	1	10
364.991	1	5
365.333	1	2
365.675	1	2
366.017	1	2
366.359	1	3
366.701	1	4
367.042	1	6
367.384	1	6
367.726	1	6
368.068	1	13
368.410	1	13
368.752	1	3
369.093	1	5
369.435	1	2
369.777	1	0
370.119	1	7
370.461	1	18
370.803	1	6
371.144	1	6
371.486	1	10
371.828	1	10
372.170	1	14
372.512	1	4
372.853	1	5
373.195	1	4
373.537	1	17
373.879	1	7
374.220	1	9
374.562	1	10
374.904	1	7
375.246	1	11
375.588	1	2
375.929	1	2
376.271	1	15
376.613	1	3
376.955	1	8
377.296	1	0
377.638	1	-3
377.980	1	0
378.321	1	-6
378.663	1	-3
379.005	1	6
379.347	1	5
379.688	1	6
380.030	1	-6
380.372	1	1
380.714	1	6
381.055	1	0
381.397	1	3
381.739	1	6
382.080	1	8
382.422	1	2
382.764	1	3
383.105	1	-5
383.447	1	2
383.789	1	-5
384.130	1	-6
384.472	1	4
384.814	1	-9
385.156	1	-10
385.497	1	-5
385.839	1	-2
386.180	1	4
386.522	1	5
386.864	1	-6
387.205	1	-1
387.547	1	-1
387.889	1	3
388.230	1	7
388.572	1	-6
388.914	1	7
389.255	1	7
389.597	1	0
389.939	1	3
390.280	1	5
390.622	1	3
390.963	1	0
391.305	1	6
391.647	1	-1
391.988	1	4
392.330	1	3
392.671	1	-6
393.013	1	3
393.355	1	6
393.696	1	6
394.038	1	7
394.379	1	5
394.721	1	-6
395.062	1	-4
395.404	1	3
395.746	1	3
396.087	1	-9
396.429	1	5
396.770	1	5
397.112	1	1
397.453	1	13
397.795	1	-6
398.136	1	-9
398.478	1	6
398.819	1	-1
399.161	1	12
399.503	1	6
399.844	1	7
400.186	1	-1
400.527	1	-8
400.869	1	3
401.210	1	8
401.552	1	-6
401.893	1	1
402.235	1	6
402.576	1	-1
402.918	1	0
403.259	1	12
403.601	1	-5
403.942	1	10
404.284	1	10
404.625	1	6
404.967	1	7
405.308	1	-11
405.649	1	-3
405.991	1	-2
406.332	1	2
406.674	1	-4
407.015	1	4
407.357	1	-8
407.698	1	3
408.040	1	-6
408.381	1	8
408.722	1	-12
409.064	1	-5
409.405	1	-2
409.747	1	-4
410.088	1	3
410.430	1	9
410.771	1	-3
411.112	1	-2
411.454	1	-12
411.795	1	-10
412.137	1	8
412.478	1	11
412.819	1	-4
413.161	1	-2
413.502	1	0
413.844	1	8
414.185	1	-1
414.526	1	-4
414.868	1	2
415.209	1	-2
415.550	1	-7
415.892	1	-3
416.233	1	3
416.575	1	8
416.916	1	-7
417.257	1	8
417.599	1	0
417.940	1	5
418.281	1	6
418.623	1	-8
418.964	1	-14
419.305	1	-6
419.647	1	-3
419.988	1	-6
420.329	1	-4
420.671	1	0
421.012	1	1
421.353	1	-11
421.695	1	0
422.036	1	-5
422.377	1	-4
422.718	1	7
423.060	1	1
423.401	1	2
423.742	1	4
424.084	1	-1
424.425	1	9
424.766	1	-2
425.107	1	-4
425.449	1	-1
425.790	1	-9
426.131	1	-4
426.472	1	-7
426.814	1	4
427.155	1	-17
427.496	1	-5
427.837	1	-6
428.179	1	0
428.520	1	9
428.861	1	10
429.202	1	-2
429.544	1	-5
429.885	1	1
430.226	1	-10
430.567	1	4
430.909	1	3
431.250	1	-3
431.591	1	4
431.932	1	-9
432.273	1	-1
432.615	1	-7
432.956	1	-12
433.297	1	7
433.638	1	0
433.979	1	4
434.320	1	2
434.662	1	4
435.003	1	2
435.344	1	1
435.685	1	-7
436.026	1	2
436.368	1	3
436.709	1	-3
437.050	1	-8
437.391	1	4
437.732	1	-7
438.073	1	-6
438.414	1	-19
438.756	1	-9
439.097	1	-11
439.438	1	-11
439.779	1	7
440.120	1	7
440.461	1	5
440.802	1	3
441.143	1	6
441.485	1	3
441.826	1	5
442.167	1	1
442.508	1	-7
442.849	1	3
443.190	1	1
443.531	1	3
443.872	1	11
444.213	1	4
444.554	1	3
444.895	1	-9
445.237	1	2
445.578	1	-9
445.919	1	-4
446.260	1	-4
446.601	1	-12
446.942	1	5
447.283	1	-2
447.624	1	-5
447.965	1	0
448.306	1	-1
448.647	1	-5
448.988	1	-4
449.329	1	-3
449.670	1	-2
450.011	1	5
450.352	1	-4
450.693	1	-6
451.034	1	-12
451.375	1	-7
451.716	1	-4
452.057	1	-6
452.398	1	-9
452.739	1	3
453.080	1	-3
453.421	1	-7
453.762	1	10
454.103	1	0
454.444	1	-14
454.785	1	-8
455.126	1	-13
455.467	1	-1
455.808	1	2
456.149	1	-1
456.490	1	2
456.831	1	7
457.172	1	0
457.513	1	0
457.854	1	-2
458.195	1	-4
458.536	1	11
458.877	1	4
459.218	1	-5
459.559	1	2
459.899	1	-5
460.240	1	3
460.581	1	10
460.922	1	2
461.263	1	-5
461.604	1	-8
461.945	1	-3
462.286	1	4
462.627	1	7
462.968	1	-1
463.309	1	-11
463.649	1	-5
463.990	1	3
464.331	1	-1
464.672	1	-3
465.013	1	-8
465.354	1	-4
465.695	1	-10
466.036	1	-3
466.376	1	-4
466.717	1	-1
467.058	1	-6
467.399	1	8
467.740	1	0
468.081	1	-6
468.422	1	-4
468.762	1	-4
469.103	1	-6
469.444	1	-3
469.785	1	-16
470.126	1	-10
470.467	1	-4
470.807	1	-2
471.148	1	4
471.489	1	-8
471.830	1	3
472.171	1	1
472.511	1	-5
472.852	1	1
473.193	1	7
473.534	1	10
473.875	1	10
474.215	1	5
474.556	1	-2
474.897	1	1
475.238	1	-4
475.578	1	-7
475.919	1	-4
476.260	1	-6
476.601	1	-1
476.942	1	14
477.282	1	-7
477.623	1	-6
477.964	1	-4
478.305	1	-5
478.645	1	9
478.986	1	0
479.327	1	-16
479.667	1	-12
480.008	1	-4
480.349	1	-3
480.690	1	8
481.030	1	-6
481.371	1	-1
481.712	1	-4
482.053	1	4
482.393	1	1
482.734	1	-10
483.075	1	0
483.415	1	-3
483.756	1	12
484.097	1	-1
484.437	1	0
484.778	1	0
485.119	1	-4
485.459	1	10
485.800	1	-9
486.141	1	-6
486.481	1	4
486.822	1	9
487.163	1	-6
487.503	1	-3
487.844	1	-2
488.185	1	2
488.525	1	-1
488.866	1	0
489.207	1	-6
489.547	1	0
489.888	1	-3
490.228	1	5
490.569	1	11
490.910	1	-9
491.250	1	-7
491.591	1	-14
491.932	1	1
492.272	1	0
492.613	1	-4
492.953	1	1
493.294	1	-2
493.635	1	-4
493.975	1	5
494.316	1	6
494.656	1	0
494.997	1	-6
495.337	1	5
495.678	1	-6
496.019	1	-7
496.359	1	-10
496.700	1	-2
497.040	1	-8
497.381	1	-8
497.721	1	-7
498.062	1	3
498.403	1	7
498.743	1	-2
499.084	1	-1
499.424	1	-1
499.765	1	2
500.105	1	-1
500.446	1	-9
500.786	1	0
501.127	1	-1
501.467	1	-4
501.808	1	-3
502.148	1	4
502.489	1	-8
502.829	1	5
503.170	1	3
503.510	1	9
503.851	1	0
504.191	1	7
504.532	1	2
504.872	1	-7
505.213	1	8
505.553	1	-3
505.894	1	-8
506.234	1	2
506.575	1	7
506.915	1	-4
507.256	1	-4
507.596	1	2
507.936	1	5
508.277	1	-12
508.617	1	1
508.958	1	-9
509.298	1	4
509.639	1	-12
509.979	1	-5
510.319	1	2
510.660	1	1
511.000	1	-2
511.341	1	-9
511.681	1	3
512.022	1	-3
512.362	1	0
512.702	1	0
513.043	1	7
513.383	1	2
513.724	1	4
514.064	1	9
514.404	1	-2
514.745	1	-3
515.085	1	-1
515.425	1	3
515.766	1	-12
516.106	1	-6
516.447	1	5
516.787	1	3
517.127	1	-2
517.468	1	10
517.808	1	-7
518.148	1	-7
518.489	1	-7
518.829	1	7
519.169	1	0
519.510	1	-8
519.850	1	-3
520.190	1	-1
520.531	1	5
520.871	1	4
521.211	1	-4
521.552	1	-1
521.892	1	-3
522.232	1	1
522.573	1	6
522.913	1	8
523.253	1	2
523.593	1	-7
523.934	1	-1
524.274	1	2
524.614	1	-1
524.955	1	4
525.295	1	-1
525.635	1	2
525.975	1	1
526.316	1	6
526.656	1	-8
526.996	1	3
527.337	1	-2
527.677	1	9
528.017	1	-6
528.357	1	9
528.698	1	5
529.038	1	-6
529.378	1	6
529.718	1	3
530.058	1	0
530.399	1	-8
530.739	1	-5
531.079	1	3
531.419	1	2
531.760	1	-3
532.100	1	-15
532.440	1	-4
532.780	1	-11
533.120	1	2
533.461	1	3
533.801	1	7
534.141	1	-13
534.481	1	-5
534.821	1	7
535.162	1	2
535.502	1	-9
535.842	1	1
536.182	1	-4
536.522	1	-8
536.862	1	-2
537.203	1	-1
537.543	1	-7
537.883	1	2
538.223	1	6
538.563	1	4
538.903	1	-7
539.243	1	-8
539.584	1	-1
539.924	1	1
540.264	1	-3
540.604	1	-1
540.944	1	-4
541.284	1	4
541.624	1	4
541.964	1	5
542.305	1	3
542.645	1	7
542.985	1	5
543.325	1	2
543.665	1	7
544.005	1	5
544.345	1	4
544.685	1	-10
545.025	1	2
545.365	1	3
545.705	1	-5
546.045	1	-4
546.386	1	2
546.726	1	-3
547.066	1	1
547.406	1	-1
547.746	1	-11
548.086	1	5
548.426	1	-9
548.766	1	-2
549.106	1	-1
549.446	1	-5
549.786	1	2
550.126	1	10
550.466	1	-5
550.806	1	-4
551.146	1	-6
551.486	1	-11
551.826	1	8
552.166	1	3
552.506	1	3
552.846	1	5
553.186	1	4
553.526	1	-1
553.866	1	6
554.206	1	6
554.546	1	4
554.886	1	6
555.226	1	-11
555.566	1	3
555.906	1	12
556.246	1	0
556.586	1	8
556.926	1	-4
557.266	1	-9
557.606	1	1
557.946	1	2
558.286	1	-3
558.626	1	-1
558.966	1	0
559.306	1	2
559.646	1	-6
559.986	1	-4
560.325	1	-6
560.665	1	-6
561.005	1	0
561.345	1	3
561.685	1	-3
562.025	1	5
562.365	1	2
562.705	1	-6
563.045	1	-7
563.385	1	-15
563.725	1	3
564.064	1	-1
564.404	1	3
564.744	1	2
565.084	1	-16
565.424	1	-1
565.764	1	-5
566.104	1	-6
566.444	1	-12
566.783	1	0
567.123	1	-2
567.463	1	11
567.803	1	2
568.143	1	-10
568.483	1	7
568.823	1	-8
569.162	1	6
569.502	1	-11
569.842	1	1
570.182	1	-5
570.522	1	-7
570.862	1	-3
571.201	1	9
571.541	1	2
571.881	1	2
572.221	1	-6
572.561	1	-10
572.900	1	-15
573.240	1	-2
573.580	1	-1
573.920	1	1
574.260	1	15
574.599	1	3
574.939	1	8
575.279	1	12
575.619	1	7
575.959	1	2
576.298	1	12
576.638	1	-7
576.978	1	7
577.318	1	7
577.657	1	-5
577.997	1	-4
578.337	1	8
578.677	1	9
579.016	1	4
579.356	1	-1
579.696	1	11
580.036	1	-6
580.375	1	7
580.715	1	3
581.055	1	1
581.394	1	-4
581.734	1	3
582.074	1	-2
582.414	1	8
582.753	1	-3
583.093	1	-10
583.433	1	0
583.772	1	6
584.112	1	0
584.452	1	6
584.791	1	0
585.131	1	10
585.471	1	12
585.811	1	-6
586.150	1	-3
586.490	1	2
586.830	1	-4
587.169	1	0
587.509	1	2
587.849	1	-5
588.188	1	3
588.528	1	5
588.867	1	3
589.207	1	-1
589.547	1	-10
589.886	1	-5
590.226	1	3
590.566	1	3
590.905	1	-4
591.245	1	1
591.585	1	3
591.924	1	1
592.264	1	5
592.603	1	7
592.943	1	4
593.283	1	-3
593.622	1	-6
593.962	1	4
594.301	1	10
594.641	1	-4
594.981	1	-5
595.320	1	-3
595.660	1	3
595.999	1	-2
596.339	1	5
596.678	1	-2
597.018	1	-9
597.358	1	3
597.697	1	2
598.037	1	2
598.376	1	-3
598.716	1	-1
599.055	1	14
599.395	1	-4
599.734	1	-7
600.074	1	4
600.413	1	4
600.753	1	7
601.092	1	11
601.432	1	-2
601.771	1	2
602.111	1	3
602.451	1	2
602.790	1	-2
603.130	1	1
603.469	1	-10
603.809	1	2
604.148	1	0
604.487	1	0
604.827	1	6
605.166	1	5
605.506	1	0
605.845	1	3
606.185	1	-1
606.524	1	-5
606.864	1	-1
607.203	1	-6
607.543	1	-9
607.882	1	-3
608.222	1	-1
608.561	1	6
608.901	1	-4
609.240	1	4
609.579	1	10
609.919	1	3
610.258	1	4
610.598	1	-1
610.937	1	5
611.277	1	-4
611.616	1	-5
611.955	1	0
612.295	1	-10
612.634	1	4
612.974	1	-13
613.313	1	-1
613.652	1	1
613.992	1	-12
614.331	1	-8
614.671	1	-3
615.010	1	-9
615.349	1	11
615.689	1	-2
616.028	1	-3
616.368	1	2
616.707	1	0
617.046	1	2
617.386	1	0
617.725	1	-3
618.064	1	-5
618.404	1	5
618.743	1	2
619.082	1	-3
619.422	1	-6
619.761	1	2
620.100	1	6
620.440	1	-4
620.779	1	-1
621.118	1	2
621.458	1	-5
621.797	1	-8
622.136	1	0
622.476	1	3
622.815	1	1
623.154	1	4
623.494	1	10
623.833	1	6
624.172	1	0
624.511	1	-3
624.851	1	-3
625.190	1	1
625.529	1	-4
625.869	1	8
626.208	1	0
626.547	1	2
626.886	1	7
627.226	1	13
627.565	1	-1
627.904	1	-6
628.243	1	-1
628.583	1	-12
628.922	1	0
629.261	1	8
629.600	1	6
629.940	1	-5
630.279	1	-5
630.618	1	-1
630.957	1	0
631.297	1	3
631.636	1	-19
631.975	1	17
632.314	1	-8
632.653	1	3
632.993	1	-13
633.332	1	6
633.671	1	-10
634.010	1	-2
634.349	1	3
634.689	1	-1
635.028	1	2
635.367	1	6
635.706	1	-5
636.045	1	12
636.384	1	0
636.724	1	-3
637.063	1	-1
637.402	1	4
637.741	1	4
638.080	1	-7
638.419	1	-3
638.759	1	-6
639.098	1	11
639.437	1	1
639.776	1	-2
640.115	1	0
640.454	1	-6
640.793	1	5
641.132	1	11
641.472	1	-5
641.811	1	-6
642.150	1	-8
642.489	1	7
642.828	1	-8
643.167	1	-11
643.506	1	-7
643.845	1	-3
644.184	1	7
644.524	1	-3
644.863	1	-12
645.202	1	3
645.541	1	-7
645.880	1	4
646.219	1	2
646.558	1	-3
646.897	1	3
647.236	1	-2
647.575	1	-4
647.914	1	6
648.253	1	7
648.592	1	1
648.931	1	14
649.270	1	-10
649.610	1	-3
649.949	1	0
650.288	1	1
650.627	1	-4
650.966	1	-1
651.305	1	-5
651.644	1	4
651.983	1	5
652.322	1	-1
652.661	1	0
653.000	1	-1
653.339	1	6
653.678	1	-5
654.017	1	-12
654.356	1	0
654.695	1	-6
655.034	1	0
655.373	1	5
655.712	1	3
656.051	1	7
656.390	1	-10
656.729	1	0
657.068	1	-1
657.406	1	0
657.745	1	-16
658.084	1	0
658.423	1	4
658.762	1	-3
659.101	1	13
659.440	1	0
659.779	1	-2
660.118	1	3
660.457	1	-6
660.796	1	-11
661.135	1	-6
661.474	1	-9
661.813	1	13
662.152	1	-10
662.491	1	-6
662.829	1	-14
663.168	1	0
663.507	1	7
663.846	1	-4
664.185	1	-7
664.524	1	-7
664.863	1	0
665.202	1	7
665.541	1	-6
665.879	1	-9
666.218	1	-8
666.557	1	-4
666.896	1	-4
667.235	1	1
667.574	1	-7
667.913	1	-2
668.251	1	-5
668.590	1	4
668.929	1	-11
669.268	1	-2
669.607	1	-6
669.946	1	8
670.285	1	3
670.623	1	-1
670.962	1	8
671.301	1	-4
671.640	1	0
671.979	1	-1
672.317	1	7
672.656	1	-2
672.995	1	7
673.334	1	-5
673.673	1	6
674.011	1	-13
674.350	1	0
674.689	1	5
675.028	1	-6
675.367	1	4
675.705	1	13
676.044	1	-1
676.383	1	-2
676.722	1	2
677.060	1	-5
677.399	1	-1
677.738	1	-6
678.077	1	1
678.416	1	2
678.754	1	0
679.093	1	-4
679.432	1	-1
679.771	1	-4
680.109	1	5
680.448	1	-4
680.787	1	-3
681.125	1	4
681.464	1	0
681.803	1	-4
682.142	1	-1
682.480	1	15
682.819	1	6
683.158	1	-12
683.496	1	-2
683.835	1	-9
684.174	1	-10
684.512	1	4
684.851	1	-1
685.190	1	-10
685.529	1	-3
685.867	1	-1
686.206	1	-9
686.545	1	-7
686.883	1	-12
687.222	1	2
687.561	1	5
687.899	1	-1
688.238	1	0
688.577	1	-4
688.746	1	1