File: Data/GaN_200K_800ms/GaN_sample F_spot 12_UVVIS_200 K_200um_800 ms 2x2mm1_486.txt
340.368	1	4
340.710	1	-10
341.052	1	1
341.394	1	-8
341.737	1	-4
342.079	1	-8
342.421	1	0
342.763	1	0
343.105	1	-2
343.447	1	-4
343.789	1	1
344.131	1	4
344.473	1	3
344.815	1	-10
345.157	1	-12
345.499	1	-11
345.841	1	9
346.183	1	-3
346.526	1	-8
346.868	1	-6
347.210	1	-6
347.552	1	-5
347.894	1	2
348.236	1	8
348.578	1	-7
348.920	1	-2
349.262	1	-4
349.604	1	6
349.946	1	-4
350.288	1	0
350.630	1	0
350.972	1	0
351.314	1	8
351.656	1	2
351.998	1	12
352.340	1	2
352.682	1	2
353.024	1	3
353.366	1	13
353.708	1	1
354.050	1	3
354.392	1	1
354.734	1	4
355.076	1	-5
355.418	1	-12
355.760	1	-3
356.102	1	0
356.444	1	-4
356.785	1	12
357.127	1	-4
357.469	1	4
357.811	1	0
358.153	1	14
358.495	1	4
358.837	1	-2
359.179	1	0
359.521	1	0
359.863	1	2
360.205	1	-4
360.547	1	2
360.889	1	2
361.231	1	-5
361.572	1	0
361.914	1	-3
362.256	1	-3
362.598	1	-8
362.940	1	-6
363.282	1	-2
363.624	1	-1
363.966	1	1
364.308	1	-2
364.649	1	13
364.991	1	10
365.333	1	-9
365.675	1	-6
366.017	1	7
366.359	1	15
366.701	1	4
367.042	1	5
367.384	1	8
367.726	1	7
368.068	1	2
368.410	1	15
368.752	1	3
369.093	1	0
369.435	1	7
369.777	1	0
370.119	1	5
370.461	1	20
370.803	1	7
371.144	1	-1
371.486	1	6
371.828	1	5
372.170	1	21
372.512	1	6
372.853	1	9
373.195	1	2
373.537	1	13
373.879	1	-1
374.220	1	13
374.562	1	11
374.904	1	1
375.246	1	5
375.588	1	-2
375.929	1	14
376.271	1	1
376.613	1	-4
376.955	1	2
377.296	1	-2
377.638	1	0
377.980	1	7
378.321	1	-11
378.663	1	3
379.005	1	7
379.347	1	3
379.688	1	-4
380.030	1	0
380.372	1	3
380.714	1	5
381.055	1	6
381.397	1	-2
381.739	1	12
382.080	1	-5
382.422	1	4
382.764	1	4
383.105	1	-6
383.447	1	-9
383.789	1	-1
384.130	1	-3
384.472	1	-3
384.814	1	-4
385.156	1	-7
385.497	1	1
385.839	1	0
386.180	1	2
386.522	1	4
386.864	1	-2
387.205	1	1
387.547	1	-2
387.889	1	-16
388.230	1	2
388.572	1	-6
388.914	1	0
389.255	1	-6
389.597	1	5
389.939	1	1
390.280	1	-1
390.622	1	2
390.963	1	4
391.305	1	2
391.647	1	5
391.988	1	10
392.330	1	9
392.671	1	-9
393.013	1	-5
393.355	1	7
393.696	1	-4
394.038	1	2
394.379	1	2
394.721	1	-8
395.062	1	-4
395.404	1	-5
395.746	1	7
396.087	1	-5
396.429	1	3
396.770	1	4
397.112	1	13
397.453	1	12
397.795	1	3
398.136	1	-14
398.478	1	-6
398.819	1	-1
399.161	1	3
399.503	1	5
399.844	1	-6
400.186	1	-3
400.527	1	-1
400.869	1	-2
401.210	1	0
401.552	1	-10
401.893	1	0
402.235	1	-3
402.576	1	-7
402.918	1	3
403.259	1	1
403.601	1	2
403.942	1	15
404.284	1	1
404.625	1	3
404.967	1	1
405.308	1	8
405.649	1	-1
405.991	1	-1
406.332	1	-1
406.674	1	1
407.015	1	4
407.357	1	-2
407.698	1	2
408.040	1	-9
408.381	1	6
408.722	1	-16
409.064	1	4
409.405	1	1
409.747	1	-5
410.088	1	1
410.430	1	8
410.771	1	7
411.112	1	-2
411.454	1	-11
411.795	1	-2
412.137	1	1
412.478	1	12
412.819	1	-5
413.161	1	0
413.502	1	0
413.844	1	10
414.185	1	9
414.526	1	-8
414.868	1	2
415.209	1	-8
415.550	1	-1
415.892	1	4
416.233	1	7
416.575	1	11
416.916	1	0
417.257	1	1
417.599	1	0
417.940	1	8
418.281	1	8
418.623	1	-15
418.964	1	-13
419.305	1	-1
419.647	1	1
419.988	1	-1
420.329	1	-10
420.671	1	6
421.012	1	-2
421.353	1	-7
421.695	1	-7
422.036	1	10
422.377	1	-8
422.718	1	4
423.060	1	-10
423.401	1	7
423.742	1	-1
424.084	1	-1
424.425	1	5
424.766	1	-1
425.107	1	6
425.449	1	2
425.790	1	-16
426.131	1	0
426.472	1	-4
426.814	1	-1
427.155	1	-11
427.496	1	3
427.837	1	0
428.179	1	-3
428.520	1	3
428.861	1	-5
429.202	1	-1
429.544	1	3
429.885	1	3
430.226	1	-9
430.567	1	-4
430.909	1	-5
431.250	1	-8
431.591	1	1
431.932	1	-2
432.273	1	-4
432.615	1	-3
432.956	1	-4
433.297	1	5
433.638	1	-10
433.979	1	7
434.320	1	4
434.662	1	1
435.003	1	-3
435.344	1	-6
435.685	1	4
436.026	1	7
436.368	1	3
436.709	1	-1
437.050	1	3
437.391	1	9
437.732	1	-12
438.073	1	-4
438.414	1	-15
438.756	1	-7
439.097	1	-10
439.438	1	-5
439.779	1	7
440.120	1	-9
440.461	1	-1
440.802	1	-4
441.143	1	10
441.485	1	7
441.826	1	4
442.167	1	-4
442.508	1	-9
442.849	1	13
443.190	1	5
443.531	1	0
443.872	1	4
444.213	1	-13
444.554	1	11
444.895	1	-4
445.237	1	-7
445.578	1	-8
445.919	1	-7
446.260	1	6
446.601	1	-15
446.942	1	3
447.283	1	-8
447.624	1	-7
447.965	1	-4
448.306	1	1
448.647	1	3
448.988	1	-12
449.329	1	-6
449.670	1	6
450.011	1	3
450.352	1	-10
450.693	1	-9
451.034	1	-17
451.375	1	-2
451.716	1	3
452.057	1	-3
452.398	1	-2
452.739	1	-6
453.080	1	-3
453.421	1	-5
453.762	1	5
454.103	1	2
454.444	1	-14
454.785	1	0
455.126	1	-7
455.467	1	0
455.808	1	-9
456.149	1	-3
456.490	1	5
456.831	1	6
457.172	1	-11
457.513	1	4
457.854	1	-7
458.195	1	-9
458.536	1	-1
458.877	1	-2
459.218	1	-9
459.559	1	5
459.899	1	-9
460.240	1	1
460.581	1	13
460.922	1	-8
461.263	1	-6
461.604	1	-3
461.945	1	-3
462.286	1	-1
462.627	1	9
462.968	1	4
463.309	1	-7
463.649	1	0
463.990	1	-4
464.331	1	-1
464.672	1	-4
465.013	1	0
465.354	1	8
465.695	1	-4
466.036	1	1
466.376	1	-8
466.717	1	0
467.058	1	-2
467.399	1	6
467.740	1	7
468.081	1	3
468.422	1	-8
468.762	1	-3
469.103	1	-11
469.444	1	-2
469.785	1	-13
470.126	1	-6
470.467	1	3
470.807	1	3
471.148	1	1
471.489	1	-6
471.830	1	3
472.171	1	3
472.511	1	-9
472.852	1	-5
473.193	1	4
473.534	1	3
473.875	1	8
474.215	1	7
474.556	1	-6
474.897	1	6
475.238	1	-1
475.578	1	-9
475.919	1	0
476.260	1	-6
476.601	1	-1
476.942	1	10
477.282	1	5
477.623	1	-15
477.964	1	-3
478.305	1	1
478.645	1	0
478.986	1	-1
479.327	1	-6
479.667	1	-2
480.008	1	-1
480.349	1	-6
480.690	1	-1
481.030	1	5
481.371	1	1
481.712	1	-1
482.053	1	2
482.393	1	-3
482.734	1	-2
483.075	1	-4
483.415	1	0
483.756	1	8
484.097	1	-4
484.437	1	0
484.778	1	-5
485.119	1	-3
485.459	1	11
485.800	1	0
486.141	1	-5
486.481	1	2
486.822	1	12
487.163	1	-8
487.503	1	-4
487.844	1	-4
488.185	1	-4
488.525	1	-1
488.866	1	-3
489.207	1	-8
489.547	1	2
489.888	1	-5
490.228	1	6
490.569	1	15
490.910	1	7
491.250	1	-1
491.591	1	-9
491.932	1	-6
492.272	1	1
492.613	1	-1
492.953	1	3
493.294	1	-11
493.635	1	3
493.975	1	-5
494.316	1	10
494.656	1	-5
494.997	1	5
495.337	1	7
495.678	1	6
496.019	1	1
496.359	1	-10
496.700	1	3
497.040	1	-5
497.381	1	-6
497.721	1	-3
498.062	1	3
498.403	1	-3
498.743	1	-4
499.084	1	-4
499.424	1	1
499.765	1	-8
500.105	1	0
500.446	1	-11
500.786	1	-3
501.127	1	-9
501.467	1	-2
501.808	1	-7
502.148	1	10
502.489	1	-1
502.829	1	1
503.170	1	1
503.510	1	3
503.851	1	1
504.191	1	14
504.532	1	10
504.872	1	-2
505.213	1	4
505.553	1	-2
505.894	1	-6
506.234	1	4
506.575	1	1
506.915	1	4
507.256	1	-5
507.596	1	2
507.936	1	4
508.277	1	-7
508.617	1	3
508.958	1	-7
509.298	1	2
509.639	1	-7
509.979	1	-4
510.319	1	3
510.660	1	-7
511.000	1	-9
511.341	1	-2
511.681	1	4
512.022	1	-7
512.362	1	-6
512.702	1	-6
513.043	1	0
513.383	1	-15
513.724	1	-5
514.064	1	4
514.404	1	1
514.745	1	-9
515.085	1	1
515.425	1	-2
515.766	1	-7
516.106	1	-2
516.447	1	12
516.787	1	3
517.127	1	0
517.468	1	-1
517.808	1	-1
518.148	1	8
518.489	1	-4
518.829	1	1
519.169	1	-4
519.510	1	-3
519.850	1	7
520.190	1	-4
520.531	1	8
520.871	1	2
521.211	1	-6
521.552	1	5
521.892	1	1
522.232	1	-1
522.573	1	-6
522.913	1	7
523.253	1	0
523.593	1	-10
523.934	1	3
524.274	1	-6
524.614	1	-3
524.955	1	-7
525.295	1	-2
525.635	1	-5
525.975	1	-3
526.316	1	7
526.656	1	-4
526.996	1	-1
527.337	1	-2
527.677	1	7
528.017	1	-14
528.357	1	0
528.698	1	0
529.038	1	6
529.378	1	4
529.718	1	-2
530.058	1	3
530.399	1	5
530.739	1	-1
531.079	1	4
531.419	1	7
531.760	1	4
532.100	1	-4
532.440	1	2
532.780	1	-8
533.120	1	8
533.461	1	-2
533.801	1	13
534.141	1	-14
534.481	1	-7
534.821	1	-3
535.162	1	-6
535.502	1	1
535.842	1	3
536.182	1	-5
536.522	1	-4
536.862	1	-1
537.203	1	-5
537.543	1	1
537.883	1	-9
538.223	1	2
538.563	1	0
538.903	1	-6
539.243	1	-2
539.584	1	-6
539.924	1	13
540.264	1	-5
540.604	1	5
540.944	1	-6
541.284	1	5
541.624	1	-5
541.964	1	1
542.305	1	1
542.645	1	3
542.985	1	-8
543.325	1	-4
543.665	1	10
544.005	1	-1
544.345	1	2
544.685	1	-7
545.025	1	-3
545.365	1	-6
545.705	1	1
546.045	1	0
546.386	1	4
546.726	1	0
547.066	1	4
547.406	1	-2
547.746	1	-7
548.086	1	-7
548.426	1	-5
548.766	1	-2
549.106	1	6
549.446	1	9
549.786	1	-6
550.126	1	13
550.466	1	0
550.806	1	2
551.146	1	2
551.486	1	-5
551.826	1	7
552.166	1	0
552.506	1	4
552.846	1	-4
553.186	1	2
553.526	1	-5
553.866	1	1
554.206	1	9
554.546	1	-5
554.886	1	-1
555.226	1	-1
555.566	1	-10
555.906	1	4
556.246	1	4
556.586	1	2
556.926	1	-3
557.266	1	-9
557.606	1	2
557.946	1	4
558.286	1	3
558.626	1	5
558.966	1	5
559.306	1	-1
559.646	1	-3
559.986	1	-4
560.325	1	2
560.665	1	-1
561.005	1	-7
561.345	1	-2
561.685	1	-16
562.025	1	-4
562.365	1	-6
562.705	1	-8
563.045	1	-1
563.385	1	-11
563.725	1	-1
564.064	1	-2
564.404	1	7
564.744	1	-1
565.084	1	1
565.424	1	-10
565.764	1	-3
566.104	1	0
566.444	1	-10
566.783	1	-4
567.123	1	6
567.463	1	7
567.803	1	-9
568.143	1	-1
568.483	1	1
568.823	1	3
569.162	1	-1
569.502	1	-5
569.842	1	9
570.182	1	-3
570.522	1	-6
570.862	1	-9
571.201	1	2
571.541	1	7
571.881	1	9
572.221	1	-10
572.561	1	-10
572.900	1	-7
573.240	1	-1
573.580	1	2
573.920	1	7
574.260	1	6
574.599	1	4
574.939	1	-4
575.279	1	9
575.619	1	4
575.959	1	-1
576.298	1	6
576.638	1	-13
576.978	1	4
577.318	1	-1
577.657	1	-2
577.997	1	-2
578.337	1	12
578.677	1	5
579.016	1	0
579.356	1	-5
579.696	1	3
580.036	1	-3
580.375	1	4
580.715	1	8
581.055	1	0
581.394	1	-2
581.734	1	-9
582.074	1	-4
582.414	1	4
582.753	1	-3
583.093	1	2
583.433	1	0
583.772	1	3
584.112	1	-3
584.452	1	4
584.791	1	-3
585.131	1	0
585.471	1	1
585.811	1	6
586.150	1	0
586.490	1	13
586.830	1	-2
587.169	1	1
587.509	1	-5
587.849	1	-6
588.188	1	-1
588.528	1	-3
588.867	1	1
589.207	1	5
589.547	1	2
589.886	1	-4
590.226	1	7
590.566	1	-8
590.905	1	-1
591.245	1	-3
591.585	1	0
591.924	1	-2
592.264	1	9
592.603	1	-1
592.943	1	2
593.283	1	1
593.622	1	-1
593.962	1	1
594.301	1	9
594.641	1	-3
594.981	1	-1
595.320	1	-2
595.660	1	-2
595.999	1	-4
596.339	1	-3
596.678	1	-6
597.018	1	-7
597.358	1	8
597.697	1	-1
598.037	1	-3
598.376	1	-3
598.716	1	-5
599.055	1	0
599.395	1	-1
599.734	1	-1
600.074	1	-1
600.413	1	7
600.753	1	1
601.092	1	14
601.432	1	-7
601.771	1	0
602.111	1	3
602.451	1	4
602.790	1	7
603.130	1	8
603.469	1	-8
603.809	1	4
604.148	1	4
604.487	1	-6
604.827	1	3
605.166	1	-3
605.506	1	-4
605.845	1	1
606.185	1	13
606.524	1	1
606.864	1	1
607.203	1	-6
607.543	1	6
607.882	1	3
608.222	1	6
608.561	1	0
608.901	1	8
609.240	1	-12
609.579	1	2
609.919	1	4
610.258	1	11
610.598	1	-10
610.937	1	-1
611.277	1	0
611.616	1	-6
611.955	1	-6
612.295	1	-14
612.634	1	2
612.974	1	-6
613.313	1	9
613.652	1	-1
613.992	1	1
614.331	1	1
614.671	1	6
615.010	1	-5
615.349	1	7
615.689	1	-2
616.028	1	2
616.368	1	11
616.707	1	-11
617.046	1	5
617.386	1	1
617.725	1	3
618.064	1	-7
618.404	1	-2
618.743	1	1
619.082	1	4
619.422	1	-2
619.761	1	0
620.100	1	9
620.440	1	-9
620.779	1	-2
621.118	1	-1
621.458	1	6
621.797	1	6
622.136	1	12
622.476	1	4
622.815	1	4
623.154	1	1
623.494	1	7
623.833	1	9
624.172	1	-8
624.511	1	0
624.851	1	-8
625.190	1	-1
625.529	1	-1
625.869	1	7
626.208	1	-4
626.547	1	-2
626.886	1	4
627.226	1	0
627.565	1	-7
627.904	1	-12
628.243	1	-2
628.583	1	-4
628.922	1	3
629.261	1	1
629.600	1	2
629.940	1	3
630.279	1	-3
630.618	1	-5
630.957	1	-12
631.297	1	-6
631.636	1	-5
631.975	1	12
632.314	1	-4
632.653	1	4
632.993	1	-7
633.332	1	4
633.671	1	-4
634.010	1	2
634.349	1	13
634.689	1	5
635.028	1	4
635.367	1	-2
635.706	1	8
636.045	1	4
636.384	1	-4
636.724	1	0
637.063	1	2
637.402	1	3
637.741	1	6
638.080	1	-1
638.419	1	-10
638.759	1	-4
639.098	1	2
639.437	1	4
639.776	1	2
640.115	1	5
640.454	1	-1
640.793	1	8
641.132	1	1
641.472	1	-4
641.811	1	5
642.150	1	-4
642.489	1	10
642.828	1	-3
643.167	1	-3
643.506	1	-15
643.845	1	3
644.184	1	-1
644.524	1	-18
644.863	1	-7
645.202	1	-1
645.541	1	5
645.880	1	0
646.219	1	-4
646.558	1	1
646.897	1	-4
647.236	1	3
647.575	1	2
647.914	1	-7
648.253	1	3
648.592	1	-6
648.931	1	6
649.270	1	2
649.610	1	-2
649.949	1	-2
650.288	1	9
650.627	1	-4
650.966	1	4
651.305	1	-1
651.644	1	-2
651.983	1	6
652.322	1	-4
652.661	1	4
653.000	1	-4
653.339	1	11
653.678	1	-4
654.017	1	-2
654.356	1	-1
654.695	1	-6
655.034	1	-4
655.373	1	7
655.712	1	1
656.051	1	-3
656.390	1	-4
656.729	1	4
657.068	1	2
657.406	1	-3
657.745	1	-5
658.084	1	0
658.423	1	8
658.762	1	-7
659.101	1	6
659.440	1	-5
659.779	1	-2
660.118	1	4
660.457	1	4
660.796	1	-15
661.135	1	-5
661.474	1	-15
661.813	1	7
662.152	1	6
662.491	1	-2
662.829	1	4
663.168	1	1
663.507	1	4
663.846	1	-3
664.185	1	4
664.524	1	2
664.863	1	-7
665.202	1	-1
665.541	1	-9
665.879	1	-7
666.218	1	-3
666.557	1	-8
666.896	1	-4
667.235	1	8
667.574	1	-9
667.913	1	-4
668.251	1	-4
668.590	1	0
668.929	1	-8
669.268	1	-3
669.607	1	-9
669.946	1	8
670.285	1	1
670.623	1	-2
670.962	1	-7
671.301	1	4
671.640	1	-7
671.979	1	2
672.317	1	2
672.656	1	-1
672.995	1	6
673.334	1	-11
673.673	1	5
674.011	1	4
674.350	1	-8
674.689	1	2
675.028	1	4
675.367	1	5
675.705	1	5
676.044	1	-2
676.383	1	11
676.722	1	0
677.060	1	-8
677.399	1	-9
677.738	1	4
678.077	1	4
678.416	1	1
678.754	1	-4
679.093	1	-3
679.432	1	0
679.771	1	0
680.109	1	10
680.448	1	-3
680.787	1	-8
681.125	1	4
681.464	1	3
681.803	1	-1
682.142	1	0
682.480	1	6
682.819	1	4
683.158	1	1
683.496	1	10
683.835	1	-3
684.174	1	-1
684.512	1	9
684.851	1	5
685.190	1	2
685.529	1	5
685.867	1	-6
686.206	1	-9
686.545	1	-5
686.883	1	-2
687.222	1	4
687.561	1	-2
687.899	1	-10
688.238	1	1
688.577	1	-4
688.746	1	1