File: Data/GaN_200K_800ms/GaN_sample F_spot 12_UVVIS_200 K_200um_800 ms 2x2mm1_514.txt
340.368	1	4
340.710	1	-7
341.052	1	-5
341.394	1	-8
341.737	1	11
342.079	1	-4
342.421	1	-14
342.763	1	8
343.105	1	0
343.447	1	-4
343.789	1	-10
344.131	1	-5
344.473	1	-8
344.815	1	1
345.157	1	-7
345.499	1	-2
345.841	1	6
346.183	1	-1
346.526	1	-11
346.868	1	7
347.210	1	-17
347.552	1	-10
347.894	1	-1
348.236	1	5
348.578	1	0
348.920	1	-4
349.262	1	3
349.604	1	6
349.946	1	-6
350.288	1	9
350.630	1	5
350.972	1	-1
351.314	1	-6
351.656	1	4
351.998	1	1
352.340	1	-4
352.682	1	-4
353.024	1	2
353.366	1	7
353.708	1	1
354.050	1	-5
354.392	1	3
354.734	1	-3
355.076	1	2
355.418	1	-11
355.760	1	-2
356.102	1	11
356.444	1	9
356.785	1	9
357.127	1	3
357.469	1	3
357.811	1	1
358.153	1	9
358.495	1	-6
358.837	1	-5
359.179	1	-3
359.521	1	3
359.863	1	-5
360.205	1	-6
360.547	1	-1
360.889	1	-3
361.231	1	-4
361.572	1	5
361.914	1	5
362.256	1	-2
362.598	1	-11
362.940	1	-7
363.282	1	3
363.624	1	5
363.966	1	3
364.308	1	8
364.649	1	1
364.991	1	3
365.333	1	1
365.675	1	-1
366.017	1	4
366.359	1	5
366.701	1	-1
367.042	1	7
367.384	1	10
367.726	1	0
368.068	1	10
368.410	1	11
368.752	1	-1
369.093	1	0
369.435	1	9
369.777	1	2
370.119	1	1
370.461	1	14
370.803	1	18
371.144	1	2
371.486	1	13
371.828	1	15
372.170	1	14
372.512	1	6
372.853	1	3
373.195	1	3
373.537	1	2
373.879	1	-5
374.220	1	26
374.562	1	13
374.904	1	8
375.246	1	6
375.588	1	6
375.929	1	9
376.271	1	-1
376.613	1	5
376.955	1	-5
377.296	1	-2
377.638	1	2
377.980	1	11
378.321	1	-4
378.663	1	2
379.005	1	7
379.347	1	8
379.688	1	-3
380.030	1	-8
380.372	1	7
380.714	1	3
381.055	1	9
381.397	1	-3
381.739	1	8
382.080	1	-2
382.422	1	-2
382.764	1	-2
383.105	1	-8
383.447	1	-1
383.789	1	-3
384.130	1	-4
384.472	1	-1
384.814	1	1
385.156	1	-9
385.497	1	2
385.839	1	-3
386.180	1	-3
386.522	1	15
386.864	1	-1
387.205	1	-2
387.547	1	-8
387.889	1	1
388.230	1	9
388.572	1	1
388.914	1	-8
389.255	1	-7
389.597	1	3
389.939	1	1
390.280	1	5
390.622	1	-6
390.963	1	1
391.305	1	6
391.647	1	3
391.988	1	-1
392.330	1	3
392.671	1	-7
393.013	1	3
393.355	1	-1
393.696	1	2
394.038	1	-10
394.379	1	4
394.721	1	0
395.062	1	5
395.404	1	1
395.746	1	9
396.087	1	1
396.429	1	6
396.770	1	-2
397.112	1	17
397.453	1	3
397.795	1	-1
398.136	1	-3
398.478	1	-1
398.819	1	-4
399.161	1	4
399.503	1	-2
399.844	1	0
400.186	1	-4
400.527	1	1
400.869	1	-1
401.210	1	3
401.552	1	-9
401.893	1	2
402.235	1	-4
402.576	1	3
402.918	1	9
403.259	1	-2
403.601	1	-1
403.942	1	8
404.284	1	9
404.625	1	-4
404.967	1	-3
405.308	1	3
405.649	1	-4
405.991	1	-8
406.332	1	-1
406.674	1	-8
407.015	1	13
407.357	1	4
407.698	1	7
408.040	1	-19
408.381	1	5
408.722	1	-10
409.064	1	4
409.405	1	5
409.747	1	-4
410.088	1	-1
410.430	1	5
410.771	1	6
411.112	1	2
411.454	1	-12
411.795	1	-1
412.137	1	3
412.478	1	15
412.819	1	-5
413.161	1	1
413.502	1	-1
413.844	1	4
414.185	1	-5
414.526	1	0
414.868	1	-6
415.209	1	-7
415.550	1	-8
415.892	1	-3
416.233	1	4
416.575	1	4
416.916	1	-7
417.257	1	-1
417.599	1	5
417.940	1	7
418.281	1	0
418.623	1	6
418.964	1	-12
419.305	1	3
419.647	1	2
419.988	1	-3
420.329	1	-7
420.671	1	1
421.012	1	8
421.353	1	-1
421.695	1	-8
422.036	1	0
422.377	1	-8
422.718	1	1
423.060	1	-3
423.401	1	2
423.742	1	4
424.084	1	-9
424.425	1	2
424.766	1	1
425.107	1	-5
425.449	1	-6
425.790	1	-12
426.131	1	5
426.472	1	4
426.814	1	4
427.155	1	-6
427.496	1	-9
427.837	1	-7
428.179	1	-3
428.520	1	0
428.861	1	-9
429.202	1	-7
429.544	1	-4
429.885	1	4
430.226	1	-5
430.567	1	-2
430.909	1	2
431.250	1	-3
431.591	1	4
431.932	1	-14
432.273	1	-5
432.615	1	0
432.956	1	-3
433.297	1	5
433.638	1	-2
433.979	1	8
434.320	1	1
434.662	1	-1
435.003	1	1
435.344	1	0
435.685	1	1
436.026	1	-4
436.368	1	-4
436.709	1	-7
437.050	1	-8
437.391	1	3
437.732	1	-9
438.073	1	-3
438.414	1	-13
438.756	1	-6
439.097	1	-5
439.438	1	-10
439.779	1	-3
440.120	1	-3
440.461	1	-7
440.802	1	-4
441.143	1	1
441.485	1	2
441.826	1	-2
442.167	1	-1
442.508	1	-10
442.849	1	13
443.190	1	-2
443.531	1	4
443.872	1	-2
444.213	1	9
444.554	1	8
444.895	1	-4
445.237	1	-7
445.578	1	-14
445.919	1	-10
446.260	1	-12
446.601	1	1
446.942	1	-1
447.283	1	-7
447.624	1	-4
447.965	1	-1
448.306	1	4
448.647	1	-10
448.988	1	-7
449.329	1	-7
449.670	1	7
450.011	1	4
450.352	1	0
450.693	1	-12
451.034	1	-1
451.375	1	-2
451.716	1	2
452.057	1	-2
452.398	1	-2
452.739	1	6
453.080	1	4
453.421	1	2
453.762	1	3
454.103	1	-6
454.444	1	-6
454.785	1	1
455.126	1	-12
455.467	1	0
455.808	1	-1
456.149	1	5
456.490	1	-8
456.831	1	9
457.172	1	-9
457.513	1	6
457.854	1	-2
458.195	1	-1
458.536	1	0
458.877	1	-1
459.218	1	-4
459.559	1	1
459.899	1	-3
460.240	1	-6
460.581	1	10
460.922	1	3
461.263	1	-3
461.604	1	-11
461.945	1	-5
462.286	1	-4
462.627	1	0
462.968	1	-4
463.309	1	-8
463.649	1	-11
463.990	1	4
464.331	1	-3
464.672	1	-2
465.013	1	-9
465.354	1	3
465.695	1	-9
466.036	1	-4
466.376	1	-10
466.717	1	-2
467.058	1	6
467.399	1	8
467.740	1	-1
468.081	1	-5
468.422	1	-8
468.762	1	-12
469.103	1	-6
469.444	1	-6
469.785	1	-9
470.126	1	-5
470.467	1	-13
470.807	1	4
471.148	1	2
471.489	1	-4
471.830	1	-13
472.171	1	-1
472.511	1	-3
472.852	1	0
473.193	1	8
473.534	1	7
473.875	1	9
474.215	1	9
474.556	1	6
474.897	1	0
475.238	1	8
475.578	1	-11
475.919	1	-1
476.260	1	-10
476.601	1	-2
476.942	1	11
477.282	1	-7
477.623	1	-12
477.964	1	4
478.305	1	-7
478.645	1	11
478.986	1	-4
479.327	1	-7
479.667	1	-3
480.008	1	-12
480.349	1	-10
480.690	1	4
481.030	1	-8
481.371	1	-2
481.712	1	-2
482.053	1	3
482.393	1	-4
482.734	1	-4
483.075	1	-5
483.415	1	3
483.756	1	5
484.097	1	-4
484.437	1	-14
484.778	1	2
485.119	1	-4
485.459	1	5
485.800	1	1
486.141	1	1
486.481	1	7
486.822	1	-3
487.163	1	-2
487.503	1	-2
487.844	1	1
488.185	1	-4
488.525	1	4
488.866	1	0
489.207	1	-5
489.547	1	-7
489.888	1	-13
490.228	1	4
490.569	1	6
490.910	1	6
491.250	1	-4
491.591	1	-6
491.932	1	0
492.272	1	2
492.613	1	-6
492.953	1	-9
493.294	1	-7
493.635	1	0
493.975	1	-3
494.316	1	-2
494.656	1	-1
494.997	1	-3
495.337	1	4
495.678	1	-10
496.019	1	-1
496.359	1	-7
496.700	1	-13
497.040	1	-8
497.381	1	-4
497.721	1	1
498.062	1	-4
498.403	1	5
498.743	1	-5
499.084	1	3
499.424	1	-1
499.765	1	-2
500.105	1	6
500.446	1	-1
500.786	1	-9
501.127	1	-1
501.467	1	-15
501.808	1	1
502.148	1	2
502.489	1	-6
502.829	1	-2
503.170	1	3
503.510	1	5
503.851	1	2
504.191	1	3
504.532	1	0
504.872	1	-9
505.213	1	7
505.553	1	-11
505.894	1	-3
506.234	1	6
506.575	1	8
506.915	1	2
507.256	1	6
507.596	1	-4
507.936	1	-5
508.277	1	-6
508.617	1	0
508.958	1	-2
509.298	1	6
509.639	1	5
509.979	1	-4
510.319	1	4
510.660	1	-7
511.000	1	-5
511.341	1	1
511.681	1	7
512.022	1	-10
512.362	1	-9
512.702	1	-1
513.043	1	3
513.383	1	-12
513.724	1	-6
514.064	1	4
514.404	1	-1
514.745	1	-3
515.085	1	-1
515.425	1	-8
515.766	1	-12
516.106	1	-4
516.447	1	11
516.787	1	2
517.127	1	-11
517.468	1	-5
517.808	1	-2
518.148	1	2
518.489	1	-12
518.829	1	2
519.169	1	-9
519.510	1	-5
519.850	1	0
520.190	1	-4
520.531	1	1
520.871	1	-2
521.211	1	-9
521.552	1	4
521.892	1	-6
522.232	1	4
522.573	1	0
522.913	1	0
523.253	1	-7
523.593	1	-5
523.934	1	-3
524.274	1	0
524.614	1	-1
524.955	1	-6
525.295	1	-5
525.635	1	2
525.975	1	1
526.316	1	12
526.656	1	4
526.996	1	-4
527.337	1	-10
527.677	1	2
528.017	1	-10
528.357	1	-1
528.698	1	-4
529.038	1	-6
529.378	1	-8
529.718	1	1
530.058	1	-2
530.399	1	7
530.739	1	10
531.079	1	5
531.419	1	-6
531.760	1	3
532.100	1	-9
532.440	1	-3
532.780	1	-8
533.120	1	4
533.461	1	3
533.801	1	3
534.141	1	-6
534.481	1	-5
534.821	1	11
535.162	1	0
535.502	1	-14
535.842	1	-5
536.182	1	-1
536.522	1	-4
536.862	1	-6
537.203	1	-12
537.543	1	1
537.883	1	-4
538.223	1	9
538.563	1	8
538.903	1	-1
539.243	1	-10
539.584	1	-9
539.924	1	10
540.264	1	0
540.604	1	0
540.944	1	-10
541.284	1	1
541.624	1	1
541.964	1	6
542.305	1	7
542.645	1	-5
542.985	1	-1
543.325	1	-5
543.665	1	12
544.005	1	1
544.345	1	1
544.685	1	-10
545.025	1	-5
545.365	1	-7
545.705	1	-2
546.045	1	-16
546.386	1	10
546.726	1	-12
547.066	1	8
547.406	1	4
547.746	1	-10
548.086	1	0
548.426	1	-10
548.766	1	5
549.106	1	-7
549.446	1	2
549.786	1	1
550.126	1	4
550.466	1	3
550.806	1	3
551.146	1	3
551.486	1	-2
551.826	1	0
552.166	1	-4
552.506	1	-4
552.846	1	-9
553.186	1	-10
553.526	1	-10
553.866	1	-4
554.206	1	7
554.546	1	6
554.886	1	5
555.226	1	-12
555.566	1	-2
555.906	1	14
556.246	1	0
556.586	1	0
556.926	1	3
557.266	1	-14
557.606	1	3
557.946	1	6
558.286	1	5
558.626	1	-2
558.966	1	7
559.306	1	-7
559.646	1	-5
559.986	1	-5
560.325	1	-1
560.665	1	-2
561.005	1	-7
561.345	1	4
561.685	1	-5
562.025	1	-2
562.365	1	2
562.705	1	-3
563.045	1	-6
563.385	1	-4
563.725	1	1
564.064	1	-5
564.404	1	-5
564.744	1	1
565.084	1	-5
565.424	1	-4
565.764	1	-2
566.104	1	-2
566.444	1	-11
566.783	1	-7
567.123	1	-1
567.463	1	4
567.803	1	-7
568.143	1	2
568.483	1	6
568.823	1	8
569.162	1	4
569.502	1	-13
569.842	1	1
570.182	1	-6
570.522	1	-9
570.862	1	-9
571.201	1	5
571.541	1	-5
571.881	1	13
572.221	1	-3
572.561	1	-9
572.900	1	-14
573.240	1	-9
573.580	1	-5
573.920	1	3
574.260	1	6
574.599	1	5
574.939	1	0
575.279	1	14
575.619	1	10
575.959	1	-4
576.298	1	9
576.638	1	-4
576.978	1	4
577.318	1	6
577.657	1	-11
577.997	1	-9
578.337	1	20
578.677	1	7
579.016	1	12
579.356	1	-8
579.696	1	4
580.036	1	-2
580.375	1	1
580.715	1	-1
581.055	1	-2
581.394	1	-7
581.734	1	-16
582.074	1	-1
582.414	1	6
582.753	1	-6
583.093	1	-3
583.433	1	-7
583.772	1	3
584.112	1	-1
584.452	1	4
584.791	1	-4
585.131	1	-5
585.471	1	10
585.811	1	0
586.150	1	-3
586.490	1	1
586.830	1	1
587.169	1	0
587.509	1	-2
587.849	1	-6
588.188	1	8
588.528	1	2
588.867	1	3
589.207	1	-1
589.547	1	3
589.886	1	-6
590.226	1	-3
590.566	1	-7
590.905	1	2
591.245	1	-8
591.585	1	6
591.924	1	3
592.264	1	12
592.603	1	-4
592.943	1	-1
593.283	1	0
593.622	1	-4
593.962	1	-5
594.301	1	6
594.641	1	-11
594.981	1	-5
595.320	1	0
595.660	1	-5
595.999	1	-6
596.339	1	2
596.678	1	-1
597.018	1	-8
597.358	1	-1
597.697	1	-3
598.037	1	-8
598.376	1	10
598.716	1	0
599.055	1	3
599.395	1	-5
599.734	1	3
600.074	1	2
600.413	1	4
600.753	1	2
601.092	1	5
601.432	1	-5
601.771	1	-1
602.111	1	1
602.451	1	6
602.790	1	-1
603.130	1	-4
603.469	1	-6
603.809	1	9
604.148	1	3
604.487	1	0
604.827	1	2
605.166	1	3
605.506	1	3
605.845	1	-5
606.185	1	2
606.524	1	2
606.864	1	1
607.203	1	-7
607.543	1	0
607.882	1	6
608.222	1	12
608.561	1	12
608.901	1	-1
609.240	1	-9
609.579	1	7
609.919	1	4
610.258	1	4
610.598	1	-8
610.937	1	-4
611.277	1	-1
611.616	1	-8
611.955	1	-10
612.295	1	-1
612.634	1	2
612.974	1	-10
613.313	1	-3
613.652	1	9
613.992	1	-10
614.331	1	-2
614.671	1	1
615.010	1	-7
615.349	1	11
615.689	1	-3
616.028	1	3
616.368	1	3
616.707	1	-3
617.046	1	0
617.386	1	3
617.725	1	-7
618.064	1	-7
618.404	1	2
618.743	1	11
619.082	1	-2
619.422	1	-1
619.761	1	7
620.100	1	0
620.440	1	-1
620.779	1	-11
621.118	1	-5
621.458	1	-3
621.797	1	-8
622.136	1	7
622.476	1	5
622.815	1	2
623.154	1	2
623.494	1	2
623.833	1	0
624.172	1	-1
624.511	1	-5
624.851	1	-11
625.190	1	2
625.529	1	6
625.869	1	13
626.208	1	-3
626.547	1	3
626.886	1	-1
627.226	1	7
627.565	1	6
627.904	1	-2
628.243	1	8
628.583	1	-7
628.922	1	3
629.261	1	1
629.600	1	9
629.940	1	-1
630.279	1	-8
630.618	1	-7
630.957	1	2
631.297	1	5
631.636	1	-6
631.975	1	7
632.314	1	0
632.653	1	10
632.993	1	-5
633.332	1	-3
633.671	1	1
634.010	1	-8
634.349	1	3
634.689	1	-2
635.028	1	2
635.367	1	-3
635.706	1	-1
636.045	1	4
636.384	1	0
636.724	1	-5
637.063	1	0
637.402	1	11
637.741	1	7
638.080	1	1
638.419	1	-4
638.759	1	-11
639.098	1	1
639.437	1	5
639.776	1	-4
640.115	1	-5
640.454	1	-10
640.793	1	8
641.132	1	6
641.472	1	5
641.811	1	-2
642.150	1	-14
642.489	1	2
642.828	1	-1
643.167	1	-3
643.506	1	-8
643.845	1	-7
644.184	1	-4
644.524	1	-8
644.863	1	-9
645.202	1	-9
645.541	1	3
645.880	1	2
646.219	1	7
646.558	1	7
646.897	1	-5
647.236	1	7
647.575	1	6
647.914	1	-5
648.253	1	12
648.592	1	-8
648.931	1	5
649.270	1	0
649.610	1	-6
649.949	1	-2
650.288	1	-2
650.627	1	-4
650.966	1	0
651.305	1	-1
651.644	1	5
651.983	1	-6
652.322	1	-6
652.661	1	-9
653.000	1	-3
653.339	1	4
653.678	1	1
654.017	1	2
654.356	1	-3
654.695	1	4
655.034	1	4
655.373	1	8
655.712	1	0
656.051	1	8
656.390	1	-5
656.729	1	0
657.068	1	1
657.406	1	1
657.745	1	-6
658.084	1	-1
658.423	1	7
658.762	1	-5
659.101	1	13
659.440	1	3
659.779	1	6
660.118	1	0
660.457	1	4
660.796	1	-10
661.135	1	-1
661.474	1	0
661.813	1	7
662.152	1	1
662.491	1	-5
662.829	1	-8
663.168	1	-1
663.507	1	10
663.846	1	-5
664.185	1	3
664.524	1	0
664.863	1	-2
665.202	1	-6
665.541	1	-14
665.879	1	-9
666.218	1	-4
666.557	1	-4
666.896	1	-4
667.235	1	2
667.574	1	1
667.913	1	-2
668.251	1	-7
668.590	1	-1
668.929	1	-12
669.268	1	-5
669.607	1	-9
669.946	1	-12
670.285	1	7
670.623	1	-3
670.962	1	3
671.301	1	-3
671.640	1	8
671.979	1	-6
672.317	1	-5
672.656	1	-15
672.995	1	7
673.334	1	-9
673.673	1	4
674.011	1	-7
674.350	1	-8
674.689	1	-5
675.028	1	-10
675.367	1	3
675.705	1	4
676.044	1	-6
676.383	1	3
676.722	1	-2
677.060	1	-9
677.399	1	-14
677.738	1	6
678.077	1	0
678.416	1	-1
678.754	1	-2
679.093	1	2
679.432	1	-2
679.771	1	-2
680.109	1	6
680.448	1	3
680.787	1	-6
681.125	1	-1
681.464	1	-7
681.803	1	1
682.142	1	6
682.480	1	8
682.819	1	-1
683.158	1	-3
683.496	1	8
683.835	1	1
684.174	1	-2
684.512	1	-3
684.851	1	7
685.190	1	-6
685.529	1	-5
685.867	1	-6
686.206	1	-12
686.545	1	-12
686.883	1	-10
687.222	1	7
687.561	1	2
687.899	1	3
688.238	1	-2
688.577	1	-3
688.746	1	-8