File: Data/GaN_200K_800ms/GaN_sample F_spot 12_UVVIS_200 K_200um_800 ms 2x2mm1_246.txt
340.368	1	6
340.710	1	-2
341.052	1	5
341.394	1	-5
341.737	1	3
342.079	1	-5
342.421	1	-4
342.763	1	8
343.105	1	6
343.447	1	-5
343.789	1	4
344.131	1	2
344.473	1	-3
344.815	1	-7
345.157	1	-8
345.499	1	-1
345.841	1	6
346.183	1	4
346.526	1	-10
346.868	1	7
347.210	1	-14
347.552	1	4
347.894	1	0
348.236	1	6
348.578	1	3
348.920	1	3
349.262	1	-1
349.604	1	12
349.946	1	-6
350.288	1	5
350.630	1	2
350.972	1	0
351.314	1	8
351.656	1	2
351.998	1	-5
352.340	1	-1
352.682	1	6
353.024	1	-1
353.366	1	11
353.708	1	3
354.050	1	-3
354.392	1	-2
354.734	1	5
355.076	1	1
355.418	1	-11
355.760	1	2
356.102	1	13
356.444	1	3
356.785	1	16
357.127	1	2
357.469	1	-3
357.811	1	0
358.153	1	10
358.495	1	7
358.837	1	-2
359.179	1	2
359.521	1	1
359.863	1	10
360.205	1	6
360.547	1	16
360.889	1	2
361.231	1	-2
361.572	1	10
361.914	1	2
362.256	1	1
362.598	1	-2
362.940	1	7
363.282	1	19
363.624	1	20
363.966	1	4
364.308	1	12
364.649	1	9
364.991	1	13
365.333	1	13
365.675	1	11
366.017	1	4
366.359	1	11
366.701	1	18
367.042	1	18
367.384	1	12
367.726	1	26
368.068	1	26
368.410	1	31
368.752	1	12
369.093	1	20
369.435	1	32
369.777	1	23
370.119	1	17
370.461	1	28
370.803	1	30
371.144	1	19
371.486	1	16
371.828	1	27
372.170	1	25
372.512	1	10
372.853	1	23
373.195	1	7
373.537	1	19
373.879	1	17
374.220	1	28
374.562	1	20
374.904	1	10
375.246	1	16
375.588	1	15
375.929	1	16
376.271	1	17
376.613	1	8
376.955	1	7
377.296	1	2
377.638	1	13
377.980	1	10
378.321	1	12
378.663	1	3
379.005	1	9
379.347	1	9
379.688	1	17
380.030	1	6
380.372	1	3
380.714	1	5
381.055	1	16
381.397	1	8
381.739	1	14
382.080	1	12
382.422	1	3
382.764	1	0
383.105	1	4
383.447	1	-3
383.789	1	4
384.130	1	-3
384.472	1	-4
384.814	1	-4
385.156	1	7
385.497	1	8
385.839	1	-1
386.180	1	9
386.522	1	0
386.864	1	6
387.205	1	-4
387.547	1	6
387.889	1	-4
388.230	1	14
388.572	1	3
388.914	1	0
389.255	1	-1
389.597	1	3
389.939	1	0
390.280	1	3
390.622	1	5
390.963	1	14
391.305	1	6
391.647	1	4
391.988	1	2
392.330	1	4
392.671	1	-9
393.013	1	3
393.355	1	7
393.696	1	0
394.038	1	7
394.379	1	5
394.721	1	-4
395.062	1	4
395.404	1	-1
395.746	1	8
396.087	1	-1
396.429	1	4
396.770	1	1
397.112	1	11
397.453	1	16
397.795	1	4
398.136	1	-2
398.478	1	2
398.819	1	6
399.161	1	10
399.503	1	10
399.844	1	-1
400.186	1	-1
400.527	1	1
400.869	1	0
401.210	1	1
401.552	1	-7
401.893	1	3
402.235	1	1
402.576	1	7
402.918	1	16
403.259	1	6
403.601	1	1
403.942	1	10
404.284	1	6
404.625	1	10
404.967	1	7
405.308	1	7
405.649	1	7
405.991	1	-4
406.332	1	10
406.674	1	-2
407.015	1	10
407.357	1	-3
407.698	1	2
408.040	1	1
408.381	1	-2
408.722	1	-17
409.064	1	7
409.405	1	7
409.747	1	-2
410.088	1	-3
410.430	1	4
410.771	1	2
411.112	1	-1
411.454	1	-4
411.795	1	-13
412.137	1	0
412.478	1	15
412.819	1	0
413.161	1	0
413.502	1	2
413.844	1	9
414.185	1	0
414.526	1	-2
414.868	1	3
415.209	1	0
415.550	1	3
415.892	1	1
416.233	1	11
416.575	1	9
416.916	1	-3
417.257	1	1
417.599	1	-10
417.940	1	16
418.281	1	2
418.623	1	-4
418.964	1	-8
419.305	1	-1
419.647	1	-7
419.988	1	5
420.329	1	-2
420.671	1	5
421.012	1	7
421.353	1	-8
421.695	1	-3
422.036	1	-6
422.377	1	6
422.718	1	5
423.060	1	-9
423.401	1	0
423.742	1	2
424.084	1	-1
424.425	1	1
424.766	1	-2
425.107	1	-15
425.449	1	2
425.790	1	-4
426.131	1	-2
426.472	1	5
426.814	1	7
427.155	1	-9
427.496	1	-5
427.837	1	0
428.179	1	-7
428.520	1	2
428.861	1	-8
429.202	1	-6
429.544	1	0
429.885	1	10
430.226	1	-8
430.567	1	3
430.909	1	-1
431.250	1	-4
431.591	1	6
431.932	1	1
432.273	1	-1
432.615	1	-4
432.956	1	-3
433.297	1	5
433.638	1	-7
433.979	1	1
434.320	1	7
434.662	1	-7
435.003	1	-1
435.344	1	3
435.685	1	0
436.026	1	6
436.368	1	3
436.709	1	6
437.050	1	-7
437.391	1	15
437.732	1	-12
438.073	1	-7
438.414	1	-1
438.756	1	-7
439.097	1	-17
439.438	1	-3
439.779	1	-6
440.120	1	-6
440.461	1	3
440.802	1	-3
441.143	1	11
441.485	1	-7
441.826	1	-6
442.167	1	-1
442.508	1	-4
442.849	1	9
443.190	1	-3
443.531	1	3
443.872	1	7
444.213	1	3
444.554	1	1
444.895	1	-2
445.237	1	1
445.578	1	-1
445.919	1	-5
446.260	1	-8
446.601	1	0
446.942	1	2
447.283	1	2
447.624	1	4
447.965	1	14
448.306	1	-1
448.647	1	-10
448.988	1	-8
449.329	1	1
449.670	1	10
450.011	1	3
450.352	1	-11
450.693	1	-4
451.034	1	-1
451.375	1	-2
451.716	1	-2
452.057	1	0
452.398	1	2
452.739	1	-2
453.080	1	3
453.421	1	-2
453.762	1	5
454.103	1	-2
454.444	1	-5
454.785	1	-4
455.126	1	-2
455.467	1	0
455.808	1	5
456.149	1	2
456.490	1	11
456.831	1	6
457.172	1	-4
457.513	1	4
457.854	1	-5
458.195	1	-2
458.536	1	-3
458.877	1	-2
459.218	1	-2
459.559	1	1
459.899	1	-4
460.240	1	-4
460.581	1	11
460.922	1	-3
461.263	1	0
461.604	1	-2
461.945	1	0
462.286	1	0
462.627	1	3
462.968	1	7
463.309	1	-5
463.649	1	6
463.990	1	-9
464.331	1	2
464.672	1	-6
465.013	1	-1
465.354	1	-5
465.695	1	1
466.036	1	-5
466.376	1	-6
466.717	1	4
467.058	1	-6
467.399	1	1
467.740	1	-2
468.081	1	1
468.422	1	-4
468.762	1	-2
469.103	1	-2
469.444	1	-5
469.785	1	-10
470.126	1	-7
470.467	1	-9
470.807	1	3
471.148	1	6
471.489	1	-12
471.830	1	3
472.171	1	2
472.511	1	-4
472.852	1	-2
473.193	1	-3
473.534	1	20
473.875	1	10
474.215	1	6
474.556	1	6
474.897	1	2
475.238	1	1
475.578	1	-5
475.919	1	-9
476.260	1	-1
476.601	1	-3
476.942	1	13
477.282	1	-14
477.623	1	-6
477.964	1	-6
478.305	1	6
478.645	1	13
478.986	1	-3
479.327	1	-3
479.667	1	5
480.008	1	0
480.349	1	-5
480.690	1	2
481.030	1	-6
481.371	1	4
481.712	1	0
482.053	1	1
482.393	1	2
482.734	1	-6
483.075	1	-9
483.415	1	0
483.756	1	1
484.097	1	-4
484.437	1	-10
484.778	1	2
485.119	1	-5
485.459	1	7
485.800	1	-12
486.141	1	-2
486.481	1	4
486.822	1	1
487.163	1	4
487.503	1	-4
487.844	1	-3
488.185	1	-3
488.525	1	4
488.866	1	1
489.207	1	0
489.547	1	1
489.888	1	-4
490.228	1	6
490.569	1	14
490.910	1	2
491.250	1	-3
491.591	1	-2
491.932	1	1
492.272	1	2
492.613	1	-6
492.953	1	-8
493.294	1	6
493.635	1	2
493.975	1	2
494.316	1	0
494.656	1	1
494.997	1	-1
495.337	1	3
495.678	1	-1
496.019	1	-2
496.359	1	-3
496.700	1	3
497.040	1	1
497.381	1	-4
497.721	1	-1
498.062	1	2
498.403	1	-5
498.743	1	6
499.084	1	2
499.424	1	-3
499.765	1	-1
500.105	1	6
500.446	1	-7
500.786	1	-3
501.127	1	0
501.467	1	2
501.808	1	8
502.148	1	4
502.489	1	5
502.829	1	1
503.170	1	6
503.510	1	7
503.851	1	-4
504.191	1	5
504.532	1	3
504.872	1	-5
505.213	1	4
505.553	1	-10
505.894	1	4
506.234	1	8
506.575	1	15
506.915	1	7
507.256	1	2
507.596	1	4
507.936	1	0
508.277	1	0
508.617	1	-2
508.958	1	-1
509.298	1	3
509.639	1	0
509.979	1	-1
510.319	1	1
510.660	1	4
511.000	1	0
511.341	1	5
511.681	1	-1
512.022	1	-11
512.362	1	-6
512.702	1	3
513.043	1	7
513.383	1	-2
513.724	1	3
514.064	1	1
514.404	1	-1
514.745	1	3
515.085	1	2
515.425	1	-8
515.766	1	-6
516.106	1	-6
516.447	1	9
516.787	1	0
517.127	1	3
517.468	1	1
517.808	1	-3
518.148	1	-1
518.489	1	-11
518.829	1	13
519.169	1	-1
519.510	1	3
519.850	1	0
520.190	1	0
520.531	1	3
520.871	1	5
521.211	1	2
521.552	1	13
521.892	1	11
522.232	1	10
522.573	1	-4
522.913	1	0
523.253	1	-1
523.593	1	0
523.934	1	-4
524.274	1	6
524.614	1	-1
524.955	1	-9
525.295	1	-6
525.635	1	8
525.975	1	1
526.316	1	15
526.656	1	0
526.996	1	1
527.337	1	1
527.677	1	12
528.017	1	-11
528.357	1	4
528.698	1	2
529.038	1	4
529.378	1	7
529.718	1	7
530.058	1	-1
530.399	1	9
530.739	1	3
531.079	1	9
531.419	1	19
531.760	1	7
532.100	1	-3
532.440	1	0
532.780	1	-2
533.120	1	2
533.461	1	7
533.801	1	6
534.141	1	-4
534.481	1	-12
534.821	1	9
535.162	1	6
535.502	1	-8
535.842	1	11
536.182	1	-3
536.522	1	11
536.862	1	2
537.203	1	2
537.543	1	-7
537.883	1	7
538.223	1	-4
538.563	1	6
538.903	1	-1
539.243	1	1
539.584	1	1
539.924	1	10
540.264	1	-12
540.604	1	6
540.944	1	-1
541.284	1	7
541.624	1	7
541.964	1	6
542.305	1	8
542.645	1	1
542.985	1	5
543.325	1	-1
543.665	1	6
544.005	1	12
544.345	1	12
544.685	1	-4
545.025	1	4
545.365	1	-3
545.705	1	0
546.045	1	2
546.386	1	1
546.726	1	-4
547.066	1	7
547.406	1	2
547.746	1	-13
548.086	1	-4
548.426	1	1
548.766	1	-2
549.106	1	2
549.446	1	1
549.786	1	-5
550.126	1	22
550.466	1	8
550.806	1	-2
551.146	1	-4
551.486	1	-2
551.826	1	-3
552.166	1	5
552.506	1	5
552.846	1	6
553.186	1	7
553.526	1	-1
553.866	1	2
554.206	1	10
554.546	1	12
554.886	1	11
555.226	1	-10
555.566	1	2
555.906	1	-2
556.246	1	4
556.586	1	-1
556.926	1	3
557.266	1	-15
557.606	1	6
557.946	1	8
558.286	1	11
558.626	1	7
558.966	1	1
559.306	1	-10
559.646	1	-2
559.986	1	-3
560.325	1	-2
560.665	1	0
561.005	1	-6
561.345	1	7
561.685	1	2
562.025	1	5
562.365	1	5
562.705	1	4
563.045	1	5
563.385	1	-10
563.725	1	-2
564.064	1	4
564.404	1	12
564.744	1	-1
565.084	1	-5
565.424	1	1
565.764	1	0
566.104	1	2
566.444	1	-7
566.783	1	-3
567.123	1	6
567.463	1	9
567.803	1	-3
568.143	1	2
568.483	1	9
568.823	1	8
569.162	1	17
569.502	1	-5
569.842	1	3
570.182	1	5
570.522	1	-2
570.862	1	-2
571.201	1	6
571.541	1	15
571.881	1	13
572.221	1	5
572.561	1	-2
572.900	1	2
573.240	1	5
573.580	1	1
573.920	1	-1
574.260	1	16
574.599	1	9
574.939	1	5
575.279	1	6
575.619	1	10
575.959	1	-6
576.298	1	15
576.638	1	0
576.978	1	10
577.318	1	11
577.657	1	-2
577.997	1	1
578.337	1	13
578.677	1	6
579.016	1	7
579.356	1	-2
579.696	1	-9
580.036	1	-8
580.375	1	1
580.715	1	-2
581.055	1	-2
581.394	1	-2
581.734	1	-10
582.074	1	-7
582.414	1	3
582.753	1	1
583.093	1	5
583.433	1	-5
583.772	1	6
584.112	1	2
584.452	1	2
584.791	1	-5
585.131	1	7
585.471	1	9
585.811	1	13
586.150	1	-3
586.490	1	1
586.830	1	-4
587.169	1	15
587.509	1	-2
587.849	1	-1
588.188	1	14
588.528	1	-2
588.867	1	13
589.207	1	6
589.547	1	2
589.886	1	-3
590.226	1	4
590.566	1	8
590.905	1	6
591.245	1	-2
591.585	1	4
591.924	1	2
592.264	1	9
592.603	1	3
592.943	1	8
593.283	1	-3
593.622	1	-2
593.962	1	1
594.301	1	7
594.641	1	-1
594.981	1	-6
595.320	1	10
595.660	1	3
595.999	1	-3
596.339	1	1
596.678	1	-3
597.018	1	-1
597.358	1	5
597.697	1	2
598.037	1	-2
598.376	1	2
598.716	1	2
599.055	1	11
599.395	1	1
599.734	1	3
600.074	1	5
600.413	1	10
600.753	1	3
601.092	1	12
601.432	1	-3
601.771	1	2
602.111	1	-2
602.451	1	10
602.790	1	3
603.130	1	5
603.469	1	-6
603.809	1	1
604.148	1	-5
604.487	1	2
604.827	1	13
605.166	1	5
605.506	1	1
605.845	1	5
606.185	1	5
606.524	1	0
606.864	1	4
607.203	1	-1
607.543	1	-2
607.882	1	6
608.222	1	6
608.561	1	-4
608.901	1	1
609.240	1	-14
609.579	1	2
609.919	1	-2
610.258	1	12
610.598	1	5
610.937	1	7
611.277	1	1
611.616	1	2
611.955	1	4
612.295	1	-9
612.634	1	6
612.974	1	-9
613.313	1	12
613.652	1	-3
613.992	1	0
614.331	1	-3
614.671	1	7
615.010	1	-1
615.349	1	12
615.689	1	0
616.028	1	0
616.368	1	4
616.707	1	-3
617.046	1	-4
617.386	1	3
617.725	1	2
618.064	1	3
618.404	1	2
618.743	1	3
619.082	1	5
619.422	1	0
619.761	1	5
620.100	1	2
620.440	1	-2
620.779	1	-3
621.118	1	11
621.458	1	-1
621.797	1	-5
622.136	1	6
622.476	1	3
622.815	1	13
623.154	1	10
623.494	1	8
623.833	1	10
624.172	1	-1
624.511	1	1
624.851	1	-5
625.190	1	3
625.529	1	3
625.869	1	8
626.208	1	3
626.547	1	14
626.886	1	1
627.226	1	3
627.565	1	2
627.904	1	5
628.243	1	11
628.583	1	-1
628.922	1	7
629.261	1	5
629.600	1	4
629.940	1	4
630.279	1	-4
630.618	1	1
630.957	1	4
631.297	1	3
631.636	1	-9
631.975	1	9
632.314	1	-4
632.653	1	7
632.993	1	1
633.332	1	-4
633.671	1	-4
634.010	1	-1
634.349	1	12
634.689	1	0
635.028	1	3
635.367	1	3
635.706	1	-4
636.045	1	10
636.384	1	-9
636.724	1	-1
637.063	1	-1
637.402	1	-1
637.741	1	-3
638.080	1	-7
638.419	1	-5
638.759	1	-3
639.098	1	9
639.437	1	5
639.776	1	3
640.115	1	1
640.454	1	-5
640.793	1	5
641.132	1	5
641.472	1	1
641.811	1	4
642.150	1	1
642.489	1	1
642.828	1	-2
643.167	1	-5
643.506	1	-7
643.845	1	5
644.184	1	-1
644.524	1	3
644.863	1	-12
645.202	1	3
645.541	1	5
645.880	1	7
646.219	1	4
646.558	1	0
646.897	1	2
647.236	1	-5
647.575	1	3
647.914	1	-1
648.253	1	5
648.592	1	0
648.931	1	5
649.270	1	-12
649.610	1	2
649.949	1	2
650.288	1	-1
650.627	1	0
650.966	1	1
651.305	1	-3
651.644	1	10
651.983	1	-2
652.322	1	-1
652.661	1	-6
653.000	1	6
653.339	1	5
653.678	1	1
654.017	1	-2
654.356	1	-7
654.695	1	8
655.034	1	4
655.373	1	2
655.712	1	-2
656.051	1	-6
656.390	1	3
656.729	1	1
657.068	1	0
657.406	1	3
657.745	1	0
658.084	1	4
658.423	1	6
658.762	1	-3
659.101	1	12
659.440	1	0
659.779	1	5
660.118	1	-2
660.457	1	5
660.796	1	-7
661.135	1	-7
661.474	1	1
661.813	1	8
662.152	1	5
662.491	1	0
662.829	1	-10
663.168	1	4
663.507	1	10
663.846	1	-2
664.185	1	11
664.524	1	5
664.863	1	4
665.202	1	-2
665.541	1	-8
665.879	1	-8
666.218	1	-7
666.557	1	2
666.896	1	-14
667.235	1	0
667.574	1	1
667.913	1	5
668.251	1	-3
668.590	1	-2
668.929	1	-7
669.268	1	0
669.607	1	-7
669.946	1	2
670.285	1	5
670.623	1	1
670.962	1	-9
671.301	1	-4
671.640	1	5
671.979	1	2
672.317	1	6
672.656	1	-1
672.995	1	-2
673.334	1	-6
673.673	1	2
674.011	1	7
674.350	1	6
674.689	1	-8
675.028	1	-9
675.367	1	-1
675.705	1	-2
676.044	1	6
676.383	1	-5
676.722	1	1
677.060	1	-3
677.399	1	-8
677.738	1	11
678.077	1	7
678.416	1	4
678.754	1	1
679.093	1	0
679.432	1	3
679.771	1	2
680.109	1	11
680.448	1	5
680.787	1	0
681.125	1	-1
681.464	1	-7
681.803	1	-3
682.142	1	11
682.480	1	17
682.819	1	1
683.158	1	1
683.496	1	-6
683.835	1	7
684.174	1	-5
684.512	1	8
684.851	1	6
685.190	1	-7
685.529	1	-1
685.867	1	-3
686.206	1	-1
686.545	1	1
686.883	1	-5
687.222	1	-1
687.561	1	7
687.899	1	-5
688.238	1	12
688.577	1	5
688.746	1	-3