File: Data/GaN_200K_800ms/GaN_sample F_spot 12_UVVIS_200 K_200um_800 ms 2x2mm1_193.txt
340.368	1	3
340.710	1	-4
341.052	1	6
341.394	1	-8
341.737	1	10
342.079	1	-13
342.421	1	-1
342.763	1	5
343.105	1	0
343.447	1	3
343.789	1	-6
344.131	1	4
344.473	1	-3
344.815	1	4
345.157	1	7
345.499	1	9
345.841	1	3
346.183	1	1
346.526	1	-5
346.868	1	7
347.210	1	-7
347.552	1	5
347.894	1	2
348.236	1	13
348.578	1	0
348.920	1	-3
349.262	1	-6
349.604	1	11
349.946	1	-6
350.288	1	12
350.630	1	1
350.972	1	-6
351.314	1	9
351.656	1	10
351.998	1	5
352.340	1	2
352.682	1	3
353.024	1	11
353.366	1	8
353.708	1	1
354.050	1	-5
354.392	1	-5
354.734	1	8
355.076	1	8
355.418	1	-8
355.760	1	-6
356.102	1	6
356.444	1	5
356.785	1	7
357.127	1	2
357.469	1	2
357.811	1	1
358.153	1	14
358.495	1	-1
358.837	1	-3
359.179	1	9
359.521	1	11
359.863	1	15
360.205	1	1
360.547	1	20
360.889	1	4
361.231	1	4
361.572	1	7
361.914	1	9
362.256	1	8
362.598	1	8
362.940	1	7
363.282	1	15
363.624	1	18
363.966	1	14
364.308	1	14
364.649	1	18
364.991	1	24
365.333	1	11
365.675	1	18
366.017	1	25
366.359	1	20
366.701	1	29
367.042	1	27
367.384	1	27
367.726	1	31
368.068	1	24
368.410	1	32
368.752	1	36
369.093	1	29
369.435	1	39
369.777	1	27
370.119	1	32
370.461	1	43
370.803	1	35
371.144	1	35
371.486	1	41
371.828	1	36
372.170	1	40
372.512	1	29
372.853	1	34
373.195	1	18
373.537	1	18
373.879	1	22
374.220	1	27
374.562	1	27
374.904	1	26
375.246	1	15
375.588	1	23
375.929	1	32
376.271	1	31
376.613	1	13
376.955	1	16
377.296	1	21
377.638	1	15
377.980	1	9
378.321	1	6
378.663	1	2
379.005	1	17
379.347	1	4
379.688	1	14
380.030	1	7
380.372	1	15
380.714	1	7
381.055	1	17
381.397	1	16
381.739	1	17
382.080	1	7
382.422	1	7
382.764	1	4
383.105	1	3
383.447	1	6
383.789	1	4
384.130	1	3
384.472	1	6
384.814	1	-3
385.156	1	-3
385.497	1	10
385.839	1	12
386.180	1	0
386.522	1	14
386.864	1	11
387.205	1	5
387.547	1	6
387.889	1	2
388.230	1	11
388.572	1	-5
388.914	1	15
389.255	1	-4
389.597	1	7
389.939	1	12
390.280	1	7
390.622	1	8
390.963	1	12
391.305	1	-1
391.647	1	7
391.988	1	5
392.330	1	10
392.671	1	-4
393.013	1	1
393.355	1	-2
393.696	1	8
394.038	1	5
394.379	1	5
394.721	1	-6
395.062	1	4
395.404	1	0
395.746	1	15
396.087	1	-5
396.429	1	5
396.770	1	7
397.112	1	12
397.453	1	15
397.795	1	1
398.136	1	-6
398.478	1	4
398.819	1	-5
399.161	1	18
399.503	1	0
399.844	1	5
400.186	1	4
400.527	1	-2
400.869	1	-5
401.210	1	4
401.552	1	2
401.893	1	-5
402.235	1	-3
402.576	1	-4
402.918	1	4
403.259	1	2
403.601	1	2
403.942	1	4
404.284	1	3
404.625	1	6
404.967	1	11
405.308	1	8
405.649	1	-1
405.991	1	-5
406.332	1	1
406.674	1	-2
407.015	1	8
407.357	1	-3
407.698	1	7
408.040	1	-1
408.381	1	-1
408.722	1	-10
409.064	1	-2
409.405	1	9
409.747	1	-3
410.088	1	4
410.430	1	10
410.771	1	12
411.112	1	-6
411.454	1	-6
411.795	1	-4
412.137	1	2
412.478	1	9
412.819	1	-3
413.161	1	4
413.502	1	2
413.844	1	8
414.185	1	12
414.526	1	-3
414.868	1	1
415.209	1	5
415.550	1	-8
415.892	1	1
416.233	1	8
416.575	1	8
416.916	1	-6
417.257	1	7
417.599	1	-3
417.940	1	8
418.281	1	2
418.623	1	-5
418.964	1	-8
419.305	1	1
419.647	1	0
419.988	1	-7
420.329	1	-8
420.671	1	10
421.012	1	9
421.353	1	-3
421.695	1	-5
422.036	1	-5
422.377	1	4
422.718	1	2
423.060	1	-4
423.401	1	-10
423.742	1	1
424.084	1	-5
424.425	1	-2
424.766	1	-4
425.107	1	-7
425.449	1	2
425.790	1	-5
426.131	1	2
426.472	1	2
426.814	1	0
427.155	1	-4
427.496	1	-5
427.837	1	-3
428.179	1	-14
428.520	1	2
428.861	1	0
429.202	1	-4
429.544	1	-2
429.885	1	3
430.226	1	-3
430.567	1	-4
430.909	1	-2
431.250	1	-4
431.591	1	7
431.932	1	0
432.273	1	-4
432.615	1	-8
432.956	1	-4
433.297	1	5
433.638	1	-5
433.979	1	-5
434.320	1	11
434.662	1	-3
435.003	1	1
435.344	1	-2
435.685	1	-1
436.026	1	7
436.368	1	8
436.709	1	-1
437.050	1	6
437.391	1	13
437.732	1	-7
438.073	1	-2
438.414	1	-9
438.756	1	-6
439.097	1	-5
439.438	1	0
439.779	1	1
440.120	1	2
440.461	1	-2
440.802	1	-3
441.143	1	4
441.485	1	-6
441.826	1	-1
442.167	1	-3
442.508	1	-7
442.849	1	12
443.190	1	-4
443.531	1	0
443.872	1	3
444.213	1	-1
444.554	1	13
444.895	1	-5
445.237	1	-3
445.578	1	-3
445.919	1	-9
446.260	1	0
446.601	1	0
446.942	1	3
447.283	1	-1
447.624	1	4
447.965	1	6
448.306	1	1
448.647	1	-6
448.988	1	-1
449.329	1	5
449.670	1	9
450.011	1	8
450.352	1	-5
450.693	1	-5
451.034	1	-9
451.375	1	-1
451.716	1	-3
452.057	1	0
452.398	1	6
452.739	1	-2
453.080	1	-4
453.421	1	-7
453.762	1	-3
454.103	1	0
454.444	1	-5
454.785	1	-2
455.126	1	-5
455.467	1	-5
455.808	1	-1
456.149	1	2
456.490	1	3
456.831	1	6
457.172	1	-4
457.513	1	4
457.854	1	-4
458.195	1	-2
458.536	1	2
458.877	1	-6
459.218	1	2
459.559	1	-4
459.899	1	15
460.240	1	4
460.581	1	9
460.922	1	-2
461.263	1	1
461.604	1	0
461.945	1	8
462.286	1	2
462.627	1	14
462.968	1	6
463.309	1	-2
463.649	1	3
463.990	1	-5
464.331	1	1
464.672	1	2
465.013	1	-3
465.354	1	-2
465.695	1	-14
466.036	1	-9
466.376	1	-6
466.717	1	1
467.058	1	0
467.399	1	6
467.740	1	7
468.081	1	-2
468.422	1	-3
468.762	1	-19
469.103	1	-7
469.444	1	-4
469.785	1	-14
470.126	1	-4
470.467	1	-6
470.807	1	3
471.148	1	8
471.489	1	2
471.830	1	3
472.171	1	-3
472.511	1	-13
472.852	1	3
473.193	1	10
473.534	1	4
473.875	1	10
474.215	1	12
474.556	1	7
474.897	1	1
475.238	1	-5
475.578	1	-12
475.919	1	-9
476.260	1	-1
476.601	1	9
476.942	1	10
477.282	1	-5
477.623	1	-7
477.964	1	2
478.305	1	-8
478.645	1	5
478.986	1	-5
479.327	1	-11
479.667	1	2
480.008	1	-3
480.349	1	-5
480.690	1	3
481.030	1	4
481.371	1	-5
481.712	1	-1
482.053	1	3
482.393	1	5
482.734	1	-7
483.075	1	0
483.415	1	0
483.756	1	8
484.097	1	-11
484.437	1	-3
484.778	1	4
485.119	1	-9
485.459	1	15
485.800	1	-1
486.141	1	-4
486.481	1	-2
486.822	1	13
487.163	1	-13
487.503	1	4
487.844	1	0
488.185	1	-1
488.525	1	2
488.866	1	-8
489.207	1	-8
489.547	1	-7
489.888	1	1
490.228	1	-1
490.569	1	12
490.910	1	10
491.250	1	1
491.591	1	-2
491.932	1	5
492.272	1	7
492.613	1	-4
492.953	1	-10
493.294	1	-11
493.635	1	9
493.975	1	-4
494.316	1	6
494.656	1	-1
494.997	1	4
495.337	1	6
495.678	1	8
496.019	1	-4
496.359	1	-1
496.700	1	0
497.040	1	-6
497.381	1	-6
497.721	1	7
498.062	1	-1
498.403	1	5
498.743	1	-3
499.084	1	1
499.424	1	9
499.765	1	2
500.105	1	-5
500.446	1	-7
500.786	1	-4
501.127	1	3
501.467	1	-3
501.808	1	1
502.148	1	2
502.489	1	3
502.829	1	3
503.170	1	6
503.510	1	9
503.851	1	2
504.191	1	7
504.532	1	3
504.872	1	2
505.213	1	7
505.553	1	-8
505.894	1	2
506.234	1	11
506.575	1	11
506.915	1	-2
507.256	1	1
507.596	1	1
507.936	1	13
508.277	1	-7
508.617	1	4
508.958	1	-1
509.298	1	3
509.639	1	-10
509.979	1	-4
510.319	1	0
510.660	1	0
511.000	1	2
511.341	1	1
511.681	1	8
512.022	1	-3
512.362	1	-3
512.702	1	2
513.043	1	10
513.383	1	-3
513.724	1	8
514.064	1	10
514.404	1	-3
514.745	1	-10
515.085	1	-13
515.425	1	1
515.766	1	-2
516.106	1	9
516.447	1	8
516.787	1	9
517.127	1	-5
517.468	1	1
517.808	1	-1
518.148	1	-6
518.489	1	3
518.829	1	5
519.169	1	5
519.510	1	-3
519.850	1	18
520.190	1	2
520.531	1	6
520.871	1	4
521.211	1	-3
521.552	1	5
521.892	1	12
522.232	1	12
522.573	1	7
522.913	1	4
523.253	1	3
523.593	1	1
523.934	1	-3
524.274	1	2
524.614	1	-2
524.955	1	-13
525.295	1	8
525.635	1	3
525.975	1	11
526.316	1	12
526.656	1	-5
526.996	1	2
527.337	1	-2
527.677	1	9
528.017	1	-6
528.357	1	2
528.698	1	7
529.038	1	11
529.378	1	15
529.718	1	12
530.058	1	-1
530.399	1	6
530.739	1	6
531.079	1	5
531.419	1	-1
531.760	1	6
532.100	1	-5
532.440	1	9
532.780	1	1
533.120	1	10
533.461	1	9
533.801	1	16
534.141	1	-5
534.481	1	-7
534.821	1	7
535.162	1	3
535.502	1	-2
535.842	1	11
536.182	1	-4
536.522	1	-5
536.862	1	7
537.203	1	-4
537.543	1	-4
537.883	1	5
538.223	1	2
538.563	1	12
538.903	1	-8
539.243	1	6
539.584	1	6
539.924	1	8
540.264	1	1
540.604	1	0
540.944	1	-3
541.284	1	5
541.624	1	7
541.964	1	6
542.305	1	17
542.645	1	10
542.985	1	9
543.325	1	10
543.665	1	10
544.005	1	4
544.345	1	8
544.685	1	-2
545.025	1	-4
545.365	1	8
545.705	1	0
546.045	1	1
546.386	1	4
546.726	1	-5
547.066	1	0
547.406	1	-1
547.746	1	-7
548.086	1	-3
548.426	1	-2
548.766	1	5
549.106	1	3
549.446	1	2
549.786	1	5
550.126	1	19
550.466	1	7
550.806	1	-1
551.146	1	0
551.486	1	1
551.826	1	4
552.166	1	8
552.506	1	7
552.846	1	11
553.186	1	2
553.526	1	2
553.866	1	7
554.206	1	4
554.546	1	8
554.886	1	12
555.226	1	-3
555.566	1	4
555.906	1	9
556.246	1	4
556.586	1	3
556.926	1	6
557.266	1	-9
557.606	1	-1
557.946	1	13
558.286	1	7
558.626	1	6
558.966	1	6
559.306	1	2
559.646	1	-1
559.986	1	4
560.325	1	2
560.665	1	-9
561.005	1	1
561.345	1	-2
561.685	1	7
562.025	1	-5
562.365	1	4
562.705	1	0
563.045	1	-3
563.385	1	-9
563.725	1	14
564.064	1	6
564.404	1	4
564.744	1	9
565.084	1	2
565.424	1	6
565.764	1	2
566.104	1	0
566.444	1	-3
566.783	1	-9
567.123	1	7
567.463	1	0
567.803	1	-5
568.143	1	10
568.483	1	3
568.823	1	5
569.162	1	10
569.502	1	1
569.842	1	4
570.182	1	1
570.522	1	-2
570.862	1	2
571.201	1	4
571.541	1	6
571.881	1	20
572.221	1	-2
572.561	1	7
572.900	1	-9
573.240	1	-3
573.580	1	8
573.920	1	17
574.260	1	6
574.599	1	4
574.939	1	2
575.279	1	9
575.619	1	10
575.959	1	-1
576.298	1	11
576.638	1	1
576.978	1	12
577.318	1	-3
577.657	1	3
577.997	1	-14
578.337	1	7
578.677	1	15
579.016	1	10
579.356	1	0
579.696	1	7
580.036	1	1
580.375	1	7
580.715	1	6
581.055	1	4
581.394	1	3
581.734	1	-1
582.074	1	-6
582.414	1	9
582.753	1	6
583.093	1	4
583.433	1	2
583.772	1	12
584.112	1	3
584.452	1	-1
584.791	1	-4
585.131	1	3
585.471	1	7
585.811	1	4
586.150	1	4
586.490	1	4
586.830	1	7
587.169	1	3
587.509	1	-7
587.849	1	3
588.188	1	9
588.528	1	7
588.867	1	9
589.207	1	5
589.547	1	6
589.886	1	-4
590.226	1	2
590.566	1	8
590.905	1	4
591.245	1	-3
591.585	1	3
591.924	1	7
592.264	1	3
592.603	1	7
592.943	1	4
593.283	1	6
593.622	1	9
593.962	1	0
594.301	1	-2
594.641	1	2
594.981	1	-2
595.320	1	9
595.660	1	1
595.999	1	-8
596.339	1	7
596.678	1	-8
597.018	1	-5
597.358	1	5
597.697	1	6
598.037	1	-3
598.376	1	-1
598.716	1	6
599.055	1	17
599.395	1	-1
599.734	1	2
600.074	1	0
600.413	1	19
600.753	1	4
601.092	1	9
601.432	1	-1
601.771	1	-5
602.111	1	7
602.451	1	9
602.790	1	8
603.130	1	12
603.469	1	0
603.809	1	-4
604.148	1	0
604.487	1	2
604.827	1	9
605.166	1	3
605.506	1	-6
605.845	1	3
606.185	1	6
606.524	1	-12
606.864	1	4
607.203	1	4
607.543	1	6
607.882	1	2
608.222	1	8
608.561	1	-2
608.901	1	3
609.240	1	-2
609.579	1	3
609.919	1	10
610.258	1	9
610.598	1	-1
610.937	1	7
611.277	1	-2
611.616	1	-12
611.955	1	5
612.295	1	0
612.634	1	2
612.974	1	-10
613.313	1	9
613.652	1	5
613.992	1	3
614.331	1	1
614.671	1	7
615.010	1	-7
615.349	1	9
615.689	1	5
616.028	1	-8
616.368	1	0
616.707	1	-1
617.046	1	-2
617.386	1	2
617.725	1	-4
618.064	1	-2
618.404	1	-1
618.743	1	13
619.082	1	3
619.422	1	-12
619.761	1	6
620.100	1	7
620.440	1	8
620.779	1	-7
621.118	1	0
621.458	1	-2
621.797	1	1
622.136	1	12
622.476	1	2
622.815	1	13
623.154	1	4
623.494	1	9
623.833	1	9
624.172	1	-1
624.511	1	10
624.851	1	-3
625.190	1	-2
625.529	1	10
625.869	1	10
626.208	1	-3
626.547	1	2
626.886	1	5
627.226	1	3
627.565	1	10
627.904	1	-3
628.243	1	2
628.583	1	3
628.922	1	3
629.261	1	7
629.600	1	17
629.940	1	5
630.279	1	-4
630.618	1	-6
630.957	1	-2
631.297	1	-2
631.636	1	-7
631.975	1	16
632.314	1	-8
632.653	1	3
632.993	1	-7
633.332	1	2
633.671	1	0
634.010	1	-1
634.349	1	8
634.689	1	-6
635.028	1	17
635.367	1	-5
635.706	1	-1
636.045	1	15
636.384	1	0
636.724	1	8
637.063	1	-2
637.402	1	-1
637.741	1	2
638.080	1	-7
638.419	1	-2
638.759	1	-4
639.098	1	10
639.437	1	5
639.776	1	-9
640.115	1	3
640.454	1	2
640.793	1	7
641.132	1	9
641.472	1	5
641.811	1	-6
642.150	1	-6
642.489	1	8
642.828	1	-10
643.167	1	-9
643.506	1	-3
643.845	1	-2
644.184	1	-1
644.524	1	5
644.863	1	-1
645.202	1	-9
645.541	1	3
645.880	1	1
646.219	1	10
646.558	1	0
646.897	1	-6
647.236	1	-6
647.575	1	4
647.914	1	-5
648.253	1	11
648.592	1	2
648.931	1	10
649.270	1	-2
649.610	1	10
649.949	1	7
650.288	1	7
650.627	1	0
650.966	1	2
651.305	1	0
651.644	1	5
651.983	1	2
652.322	1	-4
652.661	1	-9
653.000	1	-1
653.339	1	8
653.678	1	-2
654.017	1	-7
654.356	1	0
654.695	1	9
655.034	1	-1
655.373	1	11
655.712	1	-2
656.051	1	-10
656.390	1	-3
656.729	1	9
657.068	1	5
657.406	1	2
657.745	1	0
658.084	1	11
658.423	1	5
658.762	1	-2
659.101	1	13
659.440	1	8
659.779	1	6
660.118	1	7
660.457	1	2
660.796	1	-6
661.135	1	0
661.474	1	6
661.813	1	14
662.152	1	7
662.491	1	-11
662.829	1	0
663.168	1	1
663.507	1	-4
663.846	1	1
664.185	1	0
664.524	1	4
664.863	1	1
665.202	1	5
665.541	1	-13
665.879	1	-10
666.218	1	-9
666.557	1	-4
666.896	1	-3
667.235	1	5
667.574	1	0
667.913	1	1
668.251	1	0
668.590	1	-1
668.929	1	-8
669.268	1	1
669.607	1	1
669.946	1	0
670.285	1	10
670.623	1	-2
670.962	1	-1
671.301	1	0
671.640	1	-4
671.979	1	-10
672.317	1	8
672.656	1	-1
672.995	1	8
673.334	1	-2
673.673	1	1
674.011	1	-2
674.350	1	1
674.689	1	1
675.028	1	3
675.367	1	3
675.705	1	4
676.044	1	3
676.383	1	4
676.722	1	7
677.060	1	-8
677.399	1	-4
677.738	1	7
678.077	1	11
678.416	1	9
678.754	1	-7
679.093	1	4
679.432	1	3
679.771	1	-5
680.109	1	9
680.448	1	2
680.787	1	1
681.125	1	6
681.464	1	-3
681.803	1	3
682.142	1	5
682.480	1	13
682.819	1	2
683.158	1	0
683.496	1	4
683.835	1	1
684.174	1	-6
684.512	1	5
684.851	1	7
685.190	1	-2
685.529	1	4
685.867	1	5
686.206	1	0
686.545	1	-10
686.883	1	2
687.222	1	-7
687.561	1	2
687.899	1	6
688.238	1	8
688.577	1	-2
688.746	1	2