File: Data/GaN_200K_800ms/GaN_sample F_spot 12_UVVIS_200 K_200um_800 ms 2x2mm1_95.txt
340.368	1	9
340.710	1	-9
341.052	1	7
341.394	1	-8
341.737	1	12
342.079	1	-2
342.421	1	10
342.763	1	10
343.105	1	2
343.447	1	-2
343.789	1	2
344.131	1	-2
344.473	1	-6
344.815	1	3
345.157	1	-7
345.499	1	-1
345.841	1	14
346.183	1	2
346.526	1	-4
346.868	1	9
347.210	1	-1
347.552	1	7
347.894	1	-1
348.236	1	15
348.578	1	1
348.920	1	-4
349.262	1	-3
349.604	1	13
349.946	1	0
350.288	1	13
350.630	1	-2
350.972	1	2
351.314	1	16
351.656	1	9
351.998	1	3
352.340	1	16
352.682	1	14
353.024	1	12
353.366	1	22
353.708	1	10
354.050	1	13
354.392	1	1
354.734	1	7
355.076	1	20
355.418	1	4
355.760	1	-2
356.102	1	22
356.444	1	15
356.785	1	18
357.127	1	6
357.469	1	5
357.811	1	17
358.153	1	26
358.495	1	20
358.837	1	22
359.179	1	19
359.521	1	23
359.863	1	9
360.205	1	25
360.547	1	16
360.889	1	25
361.231	1	37
361.572	1	29
361.914	1	29
362.256	1	30
362.598	1	31
362.940	1	31
363.282	1	44
363.624	1	45
363.966	1	36
364.308	1	41
364.649	1	57
364.991	1	57
365.333	1	55
365.675	1	60
366.017	1	63
366.359	1	63
366.701	1	76
367.042	1	77
367.384	1	97
367.726	1	95
368.068	1	92
368.410	1	112
368.752	1	111
369.093	1	95
369.435	1	119
369.777	1	102
370.119	1	101
370.461	1	118
370.803	1	105
371.144	1	93
371.486	1	108
371.828	1	105
372.170	1	93
372.512	1	83
372.853	1	88
373.195	1	87
373.537	1	87
373.879	1	64
374.220	1	83
374.562	1	75
374.904	1	69
375.246	1	64
375.588	1	68
375.929	1	73
376.271	1	68
376.613	1	55
376.955	1	50
377.296	1	39
377.638	1	48
377.980	1	45
378.321	1	40
378.663	1	44
379.005	1	46
379.347	1	37
379.688	1	39
380.030	1	30
380.372	1	32
380.714	1	33
381.055	1	45
381.397	1	28
381.739	1	37
382.080	1	30
382.422	1	35
382.764	1	30
383.105	1	25
383.447	1	18
383.789	1	14
384.130	1	17
384.472	1	20
384.814	1	9
385.156	1	25
385.497	1	19
385.839	1	8
386.180	1	23
386.522	1	24
386.864	1	23
387.205	1	17
387.547	1	11
387.889	1	11
388.230	1	15
388.572	1	7
388.914	1	13
389.255	1	2
389.597	1	13
389.939	1	16
390.280	1	11
390.622	1	4
390.963	1	18
391.305	1	21
391.647	1	10
391.988	1	16
392.330	1	15
392.671	1	3
393.013	1	13
393.355	1	14
393.696	1	9
394.038	1	11
394.379	1	0
394.721	1	5
395.062	1	10
395.404	1	3
395.746	1	15
396.087	1	2
396.429	1	8
396.770	1	2
397.112	1	7
397.453	1	14
397.795	1	6
398.136	1	0
398.478	1	5
398.819	1	5
399.161	1	16
399.503	1	3
399.844	1	4
400.186	1	1
400.527	1	4
400.869	1	5
401.210	1	3
401.552	1	-1
401.893	1	-1
402.235	1	6
402.576	1	13
402.918	1	7
403.259	1	10
403.601	1	11
403.942	1	15
404.284	1	13
404.625	1	12
404.967	1	10
405.308	1	7
405.649	1	6
405.991	1	3
406.332	1	12
406.674	1	6
407.015	1	6
407.357	1	-2
407.698	1	10
408.040	1	6
408.381	1	11
408.722	1	-8
409.064	1	9
409.405	1	15
409.747	1	3
410.088	1	11
410.430	1	11
410.771	1	-5
411.112	1	2
411.454	1	3
411.795	1	0
412.137	1	6
412.478	1	16
412.819	1	6
413.161	1	5
413.502	1	6
413.844	1	2
414.185	1	9
414.526	1	1
414.868	1	2
415.209	1	7
415.550	1	9
415.892	1	13
416.233	1	5
416.575	1	8
416.916	1	1
417.257	1	-3
417.599	1	6
417.940	1	15
418.281	1	3
418.623	1	5
418.964	1	-12
419.305	1	2
419.647	1	5
419.988	1	2
420.329	1	-4
420.671	1	14
421.012	1	9
421.353	1	0
421.695	1	-3
422.036	1	4
422.377	1	4
422.718	1	10
423.060	1	3
423.401	1	8
423.742	1	7
424.084	1	-2
424.425	1	5
424.766	1	1
425.107	1	-3
425.449	1	8
425.790	1	-7
426.131	1	2
426.472	1	-6
426.814	1	3
427.155	1	2
427.496	1	0
427.837	1	-1
428.179	1	-4
428.520	1	14
428.861	1	3
429.202	1	7
429.544	1	-4
429.885	1	11
430.226	1	-5
430.567	1	0
430.909	1	-6
431.250	1	-2
431.591	1	9
431.932	1	-1
432.273	1	7
432.615	1	-4
432.956	1	-10
433.297	1	5
433.638	1	7
433.979	1	9
434.320	1	7
434.662	1	1
435.003	1	8
435.344	1	6
435.685	1	-3
436.026	1	9
436.368	1	5
436.709	1	11
437.050	1	2
437.391	1	10
437.732	1	-8
438.073	1	1
438.414	1	-8
438.756	1	-4
439.097	1	-6
439.438	1	-7
439.779	1	2
440.120	1	-2
440.461	1	16
440.802	1	-2
441.143	1	8
441.485	1	4
441.826	1	1
442.167	1	8
442.508	1	-2
442.849	1	5
443.190	1	7
443.531	1	9
443.872	1	12
444.213	1	7
444.554	1	3
444.895	1	-3
445.237	1	-2
445.578	1	-10
445.919	1	-7
446.260	1	-5
446.601	1	7
446.942	1	-7
447.283	1	6
447.624	1	6
447.965	1	-4
448.306	1	-2
448.647	1	3
448.988	1	4
449.329	1	-1
449.670	1	12
450.011	1	9
450.352	1	-1
450.693	1	-2
451.034	1	-1
451.375	1	-3
451.716	1	5
452.057	1	1
452.398	1	6
452.739	1	1
453.080	1	-5
453.421	1	10
453.762	1	6
454.103	1	0
454.444	1	2
454.785	1	-7
455.126	1	-4
455.467	1	7
455.808	1	-5
456.149	1	16
456.490	1	1
456.831	1	16
457.172	1	-1
457.513	1	-1
457.854	1	1
458.195	1	2
458.536	1	3
458.877	1	7
459.218	1	-3
459.559	1	8
459.899	1	4
460.240	1	7
460.581	1	20
460.922	1	3
461.263	1	-10
461.604	1	-4
461.945	1	2
462.286	1	5
462.627	1	3
462.968	1	-6
463.309	1	-11
463.649	1	0
463.990	1	-9
464.331	1	12
464.672	1	4
465.013	1	0
465.354	1	3
465.695	1	-7
466.036	1	6
466.376	1	-13
466.717	1	3
467.058	1	-1
467.399	1	14
467.740	1	5
468.081	1	9
468.422	1	0
468.762	1	-10
469.103	1	-4
469.444	1	-1
469.785	1	-5
470.126	1	-4
470.467	1	-6
470.807	1	1
471.148	1	6
471.489	1	3
471.830	1	8
472.171	1	6
472.511	1	-8
472.852	1	8
473.193	1	14
473.534	1	6
473.875	1	11
474.215	1	20
474.556	1	10
474.897	1	0
475.238	1	0
475.578	1	0
475.919	1	-2
476.260	1	5
476.601	1	-4
476.942	1	12
477.282	1	-4
477.623	1	-4
477.964	1	4
478.305	1	2
478.645	1	12
478.986	1	-4
479.327	1	-1
479.667	1	3
480.008	1	-3
480.349	1	-3
480.690	1	3
481.030	1	-1
481.371	1	-4
481.712	1	10
482.053	1	2
482.393	1	2
482.734	1	-7
483.075	1	7
483.415	1	-1
483.756	1	14
484.097	1	6
484.437	1	-1
484.778	1	0
485.119	1	-3
485.459	1	18
485.800	1	-1
486.141	1	-13
486.481	1	-2
486.822	1	11
487.163	1	-3
487.503	1	8
487.844	1	10
488.185	1	10
488.525	1	-1
488.866	1	0
489.207	1	-5
489.547	1	3
489.888	1	1
490.228	1	9
490.569	1	7
490.910	1	5
491.250	1	6
491.591	1	2
491.932	1	5
492.272	1	0
492.613	1	-1
492.953	1	9
493.294	1	-4
493.635	1	6
493.975	1	8
494.316	1	3
494.656	1	3
494.997	1	0
495.337	1	8
495.678	1	4
496.019	1	9
496.359	1	6
496.700	1	2
497.040	1	5
497.381	1	2
497.721	1	0
498.062	1	-5
498.403	1	2
498.743	1	-3
499.084	1	2
499.424	1	5
499.765	1	-1
500.105	1	-2
500.446	1	6
500.786	1	-4
501.127	1	5
501.467	1	2
501.808	1	6
502.148	1	9
502.489	1	9
502.829	1	11
503.170	1	12
503.510	1	13
503.851	1	7
504.191	1	14
504.532	1	14
504.872	1	0
505.213	1	13
505.553	1	0
505.894	1	-7
506.234	1	16
506.575	1	18
506.915	1	9
507.256	1	12
507.596	1	14
507.936	1	4
508.277	1	1
508.617	1	1
508.958	1	-3
509.298	1	12
509.639	1	6
509.979	1	-5
510.319	1	15
510.660	1	3
511.000	1	0
511.341	1	7
511.681	1	17
512.022	1	-4
512.362	1	1
512.702	1	7
513.043	1	15
513.383	1	-2
513.724	1	-1
514.064	1	16
514.404	1	6
514.745	1	13
515.085	1	5
515.425	1	-2
515.766	1	7
516.106	1	10
516.447	1	21
516.787	1	11
517.127	1	9
517.468	1	7
517.808	1	6
518.148	1	7
518.489	1	5
518.829	1	16
519.169	1	8
519.510	1	9
519.850	1	12
520.190	1	1
520.531	1	13
520.871	1	15
521.211	1	-2
521.552	1	14
521.892	1	9
522.232	1	7
522.573	1	9
522.913	1	13
523.253	1	3
523.593	1	16
523.934	1	7
524.274	1	18
524.614	1	1
524.955	1	6
525.295	1	10
525.635	1	3
525.975	1	0
526.316	1	18
526.656	1	6
526.996	1	13
527.337	1	6
527.677	1	9
528.017	1	2
528.357	1	12
528.698	1	10
529.038	1	14
529.378	1	12
529.718	1	21
530.058	1	-3
530.399	1	13
530.739	1	11
531.079	1	17
531.419	1	15
531.760	1	12
532.100	1	13
532.440	1	12
532.780	1	7
533.120	1	7
533.461	1	15
533.801	1	23
534.141	1	1
534.481	1	11
534.821	1	12
535.162	1	13
535.502	1	6
535.842	1	15
536.182	1	11
536.522	1	12
536.862	1	10
537.203	1	4
537.543	1	14
537.883	1	21
538.223	1	17
538.563	1	14
538.903	1	2
539.243	1	11
539.584	1	5
539.924	1	18
540.264	1	4
540.604	1	15
540.944	1	7
541.284	1	18
541.624	1	15
541.964	1	14
542.305	1	11
542.645	1	17
542.985	1	9
543.325	1	3
543.665	1	19
544.005	1	12
544.345	1	8
544.685	1	8
545.025	1	11
545.365	1	6
545.705	1	14
546.045	1	8
546.386	1	13
546.726	1	-3
547.066	1	20
547.406	1	12
547.746	1	-2
548.086	1	11
548.426	1	1
548.766	1	21
549.106	1	21
549.446	1	15
549.786	1	6
550.126	1	33
550.466	1	17
550.806	1	22
551.146	1	14
551.486	1	9
551.826	1	14
552.166	1	8
552.506	1	22
552.846	1	18
553.186	1	23
553.526	1	13
553.866	1	7
554.206	1	18
554.546	1	10
554.886	1	20
555.226	1	5
555.566	1	7
555.906	1	24
556.246	1	16
556.586	1	17
556.926	1	16
557.266	1	12
557.606	1	24
557.946	1	22
558.286	1	16
558.626	1	18
558.966	1	19
559.306	1	11
559.646	1	5
559.986	1	2
560.325	1	17
560.665	1	4
561.005	1	14
561.345	1	22
561.685	1	19
562.025	1	14
562.365	1	12
562.705	1	17
563.045	1	6
563.385	1	-4
563.725	1	18
564.064	1	14
564.404	1	15
564.744	1	25
565.084	1	6
565.424	1	23
565.764	1	26
566.104	1	10
566.444	1	14
566.783	1	10
567.123	1	12
567.463	1	15
567.803	1	3
568.143	1	19
568.483	1	10
568.823	1	20
569.162	1	12
569.502	1	14
569.842	1	22
570.182	1	8
570.522	1	7
570.862	1	16
571.201	1	12
571.541	1	14
571.881	1	28
572.221	1	17
572.561	1	17
572.900	1	15
573.240	1	20
573.580	1	11
573.920	1	18
574.260	1	21
574.599	1	13
574.939	1	15
575.279	1	24
575.619	1	17
575.959	1	12
576.298	1	21
576.638	1	5
576.978	1	13
577.318	1	15
577.657	1	6
577.997	1	10
578.337	1	24
578.677	1	22
579.016	1	17
579.356	1	8
579.696	1	20
580.036	1	7
580.375	1	16
580.715	1	17
581.055	1	10
581.394	1	11
581.734	1	10
582.074	1	5
582.414	1	15
582.753	1	11
583.093	1	9
583.433	1	8
583.772	1	19
584.112	1	6
584.452	1	14
584.791	1	16
585.131	1	11
585.471	1	14
585.811	1	22
586.150	1	0
586.490	1	26
586.830	1	9
587.169	1	7
587.509	1	14
587.849	1	16
588.188	1	20
588.528	1	17
588.867	1	9
589.207	1	22
589.547	1	2
589.886	1	8
590.226	1	14
590.566	1	16
590.905	1	14
591.245	1	6
591.585	1	20
591.924	1	15
592.264	1	16
592.603	1	15
592.943	1	13
593.283	1	10
593.622	1	9
593.962	1	17
594.301	1	14
594.641	1	8
594.981	1	0
595.320	1	11
595.660	1	9
595.999	1	2
596.339	1	18
596.678	1	3
597.018	1	-3
597.358	1	19
597.697	1	4
598.037	1	9
598.376	1	12
598.716	1	20
599.055	1	13
599.395	1	7
599.734	1	14
600.074	1	6
600.413	1	19
600.753	1	9
601.092	1	19
601.432	1	3
601.771	1	10
602.111	1	14
602.451	1	16
602.790	1	6
603.130	1	18
603.469	1	-1
603.809	1	16
604.148	1	15
604.487	1	8
604.827	1	13
605.166	1	11
605.506	1	18
605.845	1	15
606.185	1	19
606.524	1	11
606.864	1	13
607.203	1	5
607.543	1	9
607.882	1	15
608.222	1	13
608.561	1	19
608.901	1	20
609.240	1	6
609.579	1	22
609.919	1	21
610.258	1	8
610.598	1	14
610.937	1	16
611.277	1	2
611.616	1	8
611.955	1	5
612.295	1	-3
612.634	1	3
612.974	1	0
613.313	1	11
613.652	1	8
613.992	1	8
614.331	1	7
614.671	1	20
615.010	1	-7
615.349	1	11
615.689	1	12
616.028	1	5
616.368	1	6
616.707	1	15
617.046	1	16
617.386	1	9
617.725	1	14
618.064	1	1
618.404	1	6
618.743	1	8
619.082	1	7
619.422	1	3
619.761	1	8
620.100	1	18
620.440	1	8
620.779	1	-3
621.118	1	11
621.458	1	10
621.797	1	3
622.136	1	24
622.476	1	10
622.815	1	17
623.154	1	6
623.494	1	20
623.833	1	14
624.172	1	9
624.511	1	3
624.851	1	0
625.190	1	6
625.529	1	9
625.869	1	15
626.208	1	6
626.547	1	11
626.886	1	11
627.226	1	6
627.565	1	7
627.904	1	8
628.243	1	17
628.583	1	14
628.922	1	15
629.261	1	13
629.600	1	18
629.940	1	1
630.279	1	-3
630.618	1	8
630.957	1	17
631.297	1	0
631.636	1	-3
631.975	1	27
632.314	1	7
632.653	1	4
632.993	1	1
633.332	1	9
633.671	1	-1
634.010	1	4
634.349	1	23
634.689	1	13
635.028	1	13
635.367	1	5
635.706	1	15
636.045	1	20
636.384	1	0
636.724	1	0
637.063	1	6
637.402	1	1
637.741	1	12
638.080	1	9
638.419	1	6
638.759	1	2
639.098	1	10
639.437	1	5
639.776	1	1
640.115	1	12
640.454	1	2
640.793	1	29
641.132	1	15
641.472	1	9
641.811	1	-1
642.150	1	-1
642.489	1	5
642.828	1	12
643.167	1	7
643.506	1	4
643.845	1	-1
644.184	1	0
644.524	1	-3
644.863	1	-4
645.202	1	-1
645.541	1	5
645.880	1	2
646.219	1	7
646.558	1	-1
646.897	1	4
647.236	1	12
647.575	1	7
647.914	1	6
648.253	1	14
648.592	1	10
648.931	1	16
649.270	1	2
649.610	1	5
649.949	1	8
650.288	1	6
650.627	1	3
650.966	1	7
651.305	1	2
651.644	1	9
651.983	1	-2
652.322	1	1
652.661	1	2
653.000	1	-2
653.339	1	17
653.678	1	5
654.017	1	5
654.356	1	6
654.695	1	3
655.034	1	8
655.373	1	10
655.712	1	13
656.051	1	4
656.390	1	0
656.729	1	15
657.068	1	3
657.406	1	8
657.745	1	5
658.084	1	5
658.423	1	8
658.762	1	-2
659.101	1	11
659.440	1	-3
659.779	1	0
660.118	1	5
660.457	1	7
660.796	1	-1
661.135	1	4
661.474	1	2
661.813	1	18
662.152	1	1
662.491	1	1
662.829	1	3
663.168	1	8
663.507	1	12
663.846	1	7
664.185	1	11
664.524	1	7
664.863	1	2
665.202	1	0
665.541	1	0
665.879	1	-4
666.218	1	0
666.557	1	1
666.896	1	6
667.235	1	9
667.574	1	5
667.913	1	3
668.251	1	2
668.590	1	9
668.929	1	-6
669.268	1	-4
669.607	1	4
669.946	1	-1
670.285	1	8
670.623	1	0
670.962	1	7
671.301	1	-7
671.640	1	6
671.979	1	-2
672.317	1	7
672.656	1	4
672.995	1	14
673.334	1	6
673.673	1	11
674.011	1	6
674.350	1	10
674.689	1	1
675.028	1	6
675.367	1	4
675.705	1	7
676.044	1	6
676.383	1	10
676.722	1	7
677.060	1	10
677.399	1	-3
677.738	1	9
678.077	1	11
678.416	1	9
678.754	1	11
679.093	1	10
679.432	1	-5
679.771	1	3
680.109	1	16
680.448	1	1
680.787	1	4
681.125	1	8
681.464	1	12
681.803	1	-1
682.142	1	7
682.480	1	18
682.819	1	3
683.158	1	-2
683.496	1	8
683.835	1	9
684.174	1	1
684.512	1	15
684.851	1	11
685.190	1	5
685.529	1	16
685.867	1	5
686.206	1	-1
686.545	1	4
686.883	1	9
687.222	1	17
687.561	1	9
687.899	1	8
688.238	1	8
688.577	1	-3
688.746	1	5