File: Data/GaN_200K_800ms/GaN_sample F_spot 12_UVVIS_200 K_200um_800 ms 2x2mm1_310.txt
340.368	1	6
340.710	1	-10
341.052	1	3
341.394	1	-3
341.737	1	-1
342.079	1	-3
342.421	1	-1
342.763	1	-2
343.105	1	-3
343.447	1	-1
343.789	1	4
344.131	1	0
344.473	1	-2
344.815	1	-5
345.157	1	2
345.499	1	-11
345.841	1	7
346.183	1	-11
346.526	1	0
346.868	1	3
347.210	1	-13
347.552	1	-9
347.894	1	2
348.236	1	0
348.578	1	-1
348.920	1	5
349.262	1	6
349.604	1	0
349.946	1	-2
350.288	1	11
350.630	1	-1
350.972	1	1
351.314	1	0
351.656	1	6
351.998	1	0
352.340	1	-1
352.682	1	6
353.024	1	8
353.366	1	20
353.708	1	-3
354.050	1	1
354.392	1	0
354.734	1	10
355.076	1	-3
355.418	1	-10
355.760	1	-2
356.102	1	17
356.444	1	4
356.785	1	13
357.127	1	-3
357.469	1	0
357.811	1	5
358.153	1	6
358.495	1	5
358.837	1	-9
359.179	1	5
359.521	1	16
359.863	1	2
360.205	1	4
360.547	1	7
360.889	1	-1
361.231	1	3
361.572	1	6
361.914	1	16
362.256	1	-1
362.598	1	-9
362.940	1	3
363.282	1	13
363.624	1	14
363.966	1	5
364.308	1	4
364.649	1	11
364.991	1	5
365.333	1	8
365.675	1	1
366.017	1	10
366.359	1	13
366.701	1	8
367.042	1	21
367.384	1	13
367.726	1	17
368.068	1	18
368.410	1	33
368.752	1	12
369.093	1	12
369.435	1	16
369.777	1	15
370.119	1	14
370.461	1	24
370.803	1	21
371.144	1	6
371.486	1	19
371.828	1	21
372.170	1	22
372.512	1	12
372.853	1	13
373.195	1	10
373.537	1	14
373.879	1	19
374.220	1	24
374.562	1	16
374.904	1	8
375.246	1	14
375.588	1	10
375.929	1	27
376.271	1	18
376.613	1	7
376.955	1	-2
377.296	1	-4
377.638	1	11
377.980	1	5
378.321	1	-5
378.663	1	-2
379.005	1	11
379.347	1	13
379.688	1	13
380.030	1	3
380.372	1	2
380.714	1	9
381.055	1	11
381.397	1	4
381.739	1	10
382.080	1	2
382.422	1	7
382.764	1	4
383.105	1	4
383.447	1	-3
383.789	1	-5
384.130	1	-2
384.472	1	-2
384.814	1	5
385.156	1	2
385.497	1	8
385.839	1	8
386.180	1	7
386.522	1	9
386.864	1	4
387.205	1	2
387.547	1	0
387.889	1	6
388.230	1	8
388.572	1	-6
388.914	1	6
389.255	1	-3
389.597	1	7
389.939	1	4
390.280	1	-3
390.622	1	-1
390.963	1	12
391.305	1	-3
391.647	1	-1
391.988	1	16
392.330	1	4
392.671	1	-11
393.013	1	-10
393.355	1	8
393.696	1	6
394.038	1	9
394.379	1	0
394.721	1	-3
395.062	1	5
395.404	1	-7
395.746	1	8
396.087	1	2
396.429	1	0
396.770	1	-12
397.112	1	14
397.453	1	8
397.795	1	6
398.136	1	-8
398.478	1	1
398.819	1	9
399.161	1	4
399.503	1	5
399.844	1	6
400.186	1	4
400.527	1	3
400.869	1	-5
401.210	1	1
401.552	1	-3
401.893	1	2
402.235	1	-6
402.576	1	-8
402.918	1	1
403.259	1	17
403.601	1	-5
403.942	1	4
404.284	1	1
404.625	1	4
404.967	1	5
405.308	1	2
405.649	1	5
405.991	1	-3
406.332	1	-1
406.674	1	3
407.015	1	3
407.357	1	0
407.698	1	4
408.040	1	-13
408.381	1	2
408.722	1	-13
409.064	1	6
409.405	1	7
409.747	1	3
410.088	1	7
410.430	1	3
410.771	1	6
411.112	1	6
411.454	1	-5
411.795	1	-12
412.137	1	0
412.478	1	4
412.819	1	-4
413.161	1	5
413.502	1	1
413.844	1	9
414.185	1	3
414.526	1	0
414.868	1	-2
415.209	1	-2
415.550	1	-1
415.892	1	-9
416.233	1	5
416.575	1	12
416.916	1	-1
417.257	1	6
417.599	1	-7
417.940	1	0
418.281	1	-1
418.623	1	-2
418.964	1	-12
419.305	1	-1
419.647	1	0
419.988	1	-2
420.329	1	-11
420.671	1	8
421.012	1	1
421.353	1	-3
421.695	1	-2
422.036	1	4
422.377	1	2
422.718	1	5
423.060	1	-8
423.401	1	5
423.742	1	6
424.084	1	7
424.425	1	7
424.766	1	8
425.107	1	1
425.449	1	0
425.790	1	-9
426.131	1	-3
426.472	1	-6
426.814	1	2
427.155	1	-1
427.496	1	0
427.837	1	-7
428.179	1	-13
428.520	1	-2
428.861	1	3
429.202	1	-1
429.544	1	-1
429.885	1	1
430.226	1	-7
430.567	1	4
430.909	1	-5
431.250	1	-5
431.591	1	7
431.932	1	-3
432.273	1	-6
432.615	1	-11
432.956	1	-4
433.297	1	4
433.638	1	-10
433.979	1	-3
434.320	1	10
434.662	1	5
435.003	1	3
435.344	1	-5
435.685	1	-3
436.026	1	8
436.368	1	3
436.709	1	-1
437.050	1	-5
437.391	1	11
437.732	1	-10
438.073	1	9
438.414	1	-8
438.756	1	-13
439.097	1	-5
439.438	1	-2
439.779	1	-4
440.120	1	-3
440.461	1	3
440.802	1	5
441.143	1	4
441.485	1	9
441.826	1	5
442.167	1	-2
442.508	1	-5
442.849	1	9
443.190	1	-6
443.531	1	14
443.872	1	1
444.213	1	4
444.554	1	1
444.895	1	0
445.237	1	-4
445.578	1	-5
445.919	1	-8
446.260	1	1
446.601	1	6
446.942	1	3
447.283	1	-1
447.624	1	-3
447.965	1	-3
448.306	1	4
448.647	1	-4
448.988	1	-8
449.329	1	-3
449.670	1	8
450.011	1	8
450.352	1	-3
450.693	1	-11
451.034	1	-7
451.375	1	1
451.716	1	-2
452.057	1	-1
452.398	1	-5
452.739	1	7
453.080	1	-3
453.421	1	0
453.762	1	3
454.103	1	5
454.444	1	-13
454.785	1	-6
455.126	1	-2
455.467	1	-3
455.808	1	-3
456.149	1	2
456.490	1	-5
456.831	1	4
457.172	1	-3
457.513	1	8
457.854	1	-1
458.195	1	2
458.536	1	5
458.877	1	1
459.218	1	-7
459.559	1	4
459.899	1	-3
460.240	1	2
460.581	1	9
460.922	1	3
461.263	1	-8
461.604	1	1
461.945	1	-4
462.286	1	3
462.627	1	7
462.968	1	3
463.309	1	-6
463.649	1	-9
463.990	1	0
464.331	1	3
464.672	1	1
465.013	1	-4
465.354	1	4
465.695	1	-3
466.036	1	1
466.376	1	-8
466.717	1	6
467.058	1	-8
467.399	1	12
467.740	1	-4
468.081	1	-4
468.422	1	-5
468.762	1	-4
469.103	1	-1
469.444	1	-6
469.785	1	-12
470.126	1	-4
470.467	1	-8
470.807	1	10
471.148	1	-5
471.489	1	-3
471.830	1	-3
472.171	1	-1
472.511	1	2
472.852	1	2
473.193	1	6
473.534	1	7
473.875	1	18
474.215	1	11
474.556	1	2
474.897	1	-5
475.238	1	0
475.578	1	-2
475.919	1	-5
476.260	1	-7
476.601	1	-3
476.942	1	11
477.282	1	-8
477.623	1	-5
477.964	1	-11
478.305	1	-3
478.645	1	6
478.986	1	-1
479.327	1	-6
479.667	1	-4
480.008	1	-1
480.349	1	-2
480.690	1	11
481.030	1	-5
481.371	1	0
481.712	1	5
482.053	1	6
482.393	1	-1
482.734	1	-11
483.075	1	4
483.415	1	-2
483.756	1	7
484.097	1	5
484.437	1	-1
484.778	1	6
485.119	1	-9
485.459	1	16
485.800	1	3
486.141	1	-4
486.481	1	-7
486.822	1	-4
487.163	1	1
487.503	1	4
487.844	1	-5
488.185	1	1
488.525	1	1
488.866	1	7
489.207	1	9
489.547	1	-2
489.888	1	1
490.228	1	7
490.569	1	8
490.910	1	0
491.250	1	-18
491.591	1	-9
491.932	1	-1
492.272	1	5
492.613	1	2
492.953	1	0
493.294	1	2
493.635	1	-8
493.975	1	-4
494.316	1	-4
494.656	1	-4
494.997	1	-6
495.337	1	3
495.678	1	2
496.019	1	-3
496.359	1	-5
496.700	1	2
497.040	1	-6
497.381	1	0
497.721	1	-4
498.062	1	1
498.403	1	1
498.743	1	-7
499.084	1	3
499.424	1	-1
499.765	1	-6
500.105	1	-3
500.446	1	-8
500.786	1	-9
501.127	1	-6
501.467	1	-5
501.808	1	11
502.148	1	11
502.489	1	5
502.829	1	5
503.170	1	-6
503.510	1	5
503.851	1	-8
504.191	1	9
504.532	1	8
504.872	1	-10
505.213	1	4
505.553	1	1
505.894	1	-4
506.234	1	8
506.575	1	3
506.915	1	6
507.256	1	9
507.596	1	9
507.936	1	5
508.277	1	-1
508.617	1	-2
508.958	1	-12
509.298	1	8
509.639	1	3
509.979	1	2
510.319	1	3
510.660	1	-2
511.000	1	-2
511.341	1	10
511.681	1	2
512.022	1	-10
512.362	1	-7
512.702	1	-8
513.043	1	8
513.383	1	-13
513.724	1	-2
514.064	1	9
514.404	1	-2
514.745	1	-7
515.085	1	-7
515.425	1	2
515.766	1	-5
516.106	1	8
516.447	1	8
516.787	1	-2
517.127	1	-3
517.468	1	1
517.808	1	-6
518.148	1	2
518.489	1	-4
518.829	1	5
519.169	1	0
519.510	1	10
519.850	1	4
520.190	1	-2
520.531	1	7
520.871	1	10
521.211	1	-13
521.552	1	-1
521.892	1	2
522.232	1	6
522.573	1	4
522.913	1	0
523.253	1	3
523.593	1	-6
523.934	1	-6
524.274	1	0
524.614	1	-10
524.955	1	-3
525.295	1	1
525.635	1	-13
525.975	1	2
526.316	1	11
526.656	1	0
526.996	1	2
527.337	1	-4
527.677	1	6
528.017	1	-9
528.357	1	0
528.698	1	-6
529.038	1	0
529.378	1	5
529.718	1	2
530.058	1	1
530.399	1	0
530.739	1	-4
531.079	1	-7
531.419	1	-2
531.760	1	8
532.100	1	0
532.440	1	-1
532.780	1	7
533.120	1	2
533.461	1	-1
533.801	1	14
534.141	1	-19
534.481	1	-6
534.821	1	7
535.162	1	-1
535.502	1	-6
535.842	1	12
536.182	1	5
536.522	1	-11
536.862	1	12
537.203	1	-7
537.543	1	5
537.883	1	5
538.223	1	-2
538.563	1	9
538.903	1	-4
539.243	1	-1
539.584	1	3
539.924	1	14
540.264	1	5
540.604	1	0
540.944	1	0
541.284	1	8
541.624	1	8
541.964	1	6
542.305	1	10
542.645	1	7
542.985	1	4
543.325	1	-2
543.665	1	10
544.005	1	9
544.345	1	-1
544.685	1	6
545.025	1	1
545.365	1	4
545.705	1	1
546.045	1	-6
546.386	1	10
546.726	1	-2
547.066	1	7
547.406	1	0
547.746	1	-12
548.086	1	4
548.426	1	0
548.766	1	3
549.106	1	-10
549.446	1	1
549.786	1	-6
550.126	1	7
550.466	1	-3
550.806	1	-6
551.146	1	-5
551.486	1	2
551.826	1	-4
552.166	1	8
552.506	1	0
552.846	1	8
553.186	1	6
553.526	1	-1
553.866	1	0
554.206	1	14
554.546	1	2
554.886	1	3
555.226	1	-7
555.566	1	-3
555.906	1	10
556.246	1	3
556.586	1	9
556.926	1	5
557.266	1	-12
557.606	1	2
557.946	1	2
558.286	1	12
558.626	1	2
558.966	1	-2
559.306	1	1
559.646	1	-4
559.986	1	-5
560.325	1	-2
560.665	1	-3
561.005	1	-3
561.345	1	-1
561.685	1	8
562.025	1	0
562.365	1	6
562.705	1	-1
563.045	1	-5
563.385	1	-12
563.725	1	-7
564.064	1	-3
564.404	1	7
564.744	1	7
565.084	1	2
565.424	1	4
565.764	1	2
566.104	1	1
566.444	1	5
566.783	1	3
567.123	1	2
567.463	1	5
567.803	1	-1
568.143	1	6
568.483	1	0
568.823	1	8
569.162	1	4
569.502	1	5
569.842	1	12
570.182	1	4
570.522	1	-7
570.862	1	-1
571.201	1	13
571.541	1	3
571.881	1	12
572.221	1	-2
572.561	1	-2
572.900	1	-8
573.240	1	2
573.580	1	2
573.920	1	4
574.260	1	7
574.599	1	0
574.939	1	6
575.279	1	4
575.619	1	10
575.959	1	-8
576.298	1	15
576.638	1	-8
576.978	1	5
577.318	1	1
577.657	1	-3
577.997	1	-3
578.337	1	15
578.677	1	6
579.016	1	11
579.356	1	-9
579.696	1	8
580.036	1	-3
580.375	1	12
580.715	1	3
581.055	1	-3
581.394	1	0
581.734	1	-4
582.074	1	-5
582.414	1	-5
582.753	1	-7
583.093	1	-3
583.433	1	3
583.772	1	9
584.112	1	-2
584.452	1	-1
584.791	1	-9
585.131	1	2
585.471	1	11
585.811	1	9
586.150	1	0
586.490	1	14
586.830	1	-3
587.169	1	0
587.509	1	11
587.849	1	6
588.188	1	4
588.528	1	7
588.867	1	5
589.207	1	-2
589.547	1	-2
589.886	1	-3
590.226	1	2
590.566	1	-1
590.905	1	-5
591.245	1	-4
591.585	1	0
591.924	1	3
592.264	1	-3
592.603	1	-4
592.943	1	6
593.283	1	1
593.622	1	-2
593.962	1	6
594.301	1	1
594.641	1	-3
594.981	1	-8
595.320	1	-2
595.660	1	-3
595.999	1	-5
596.339	1	2
596.678	1	-8
597.018	1	-5
597.358	1	7
597.697	1	0
598.037	1	0
598.376	1	-3
598.716	1	6
599.055	1	4
599.395	1	-3
599.734	1	1
600.074	1	3
600.413	1	7
600.753	1	8
601.092	1	8
601.432	1	-4
601.771	1	1
602.111	1	-2
602.451	1	3
602.790	1	14
603.130	1	3
603.469	1	-1
603.809	1	11
604.148	1	4
604.487	1	9
604.827	1	1
605.166	1	8
605.506	1	5
605.845	1	2
606.185	1	2
606.524	1	1
606.864	1	0
607.203	1	-2
607.543	1	-4
607.882	1	7
608.222	1	10
608.561	1	2
608.901	1	9
609.240	1	-4
609.579	1	10
609.919	1	15
610.258	1	7
610.598	1	0
610.937	1	6
611.277	1	0
611.616	1	2
611.955	1	-1
612.295	1	-4
612.634	1	5
612.974	1	-18
613.313	1	6
613.652	1	-4
613.992	1	3
614.331	1	0
614.671	1	13
615.010	1	-7
615.349	1	10
615.689	1	1
616.028	1	-1
616.368	1	-3
616.707	1	-3
617.046	1	4
617.386	1	-3
617.725	1	-7
618.064	1	-5
618.404	1	2
618.743	1	7
619.082	1	3
619.422	1	-7
619.761	1	2
620.100	1	2
620.440	1	1
620.779	1	-7
621.118	1	0
621.458	1	-6
621.797	1	-4
622.136	1	13
622.476	1	6
622.815	1	20
623.154	1	7
623.494	1	13
623.833	1	11
624.172	1	-3
624.511	1	-4
624.851	1	-11
625.190	1	1
625.529	1	-7
625.869	1	7
626.208	1	4
626.547	1	-5
626.886	1	3
627.226	1	-4
627.565	1	-5
627.904	1	0
628.243	1	-1
628.583	1	-11
628.922	1	5
629.261	1	8
629.600	1	5
629.940	1	6
630.279	1	-4
630.618	1	0
630.957	1	-2
631.297	1	3
631.636	1	-10
631.975	1	15
632.314	1	0
632.653	1	-1
632.993	1	-1
633.332	1	6
633.671	1	1
634.010	1	-5
634.349	1	5
634.689	1	-7
635.028	1	1
635.367	1	-4
635.706	1	1
636.045	1	8
636.384	1	6
636.724	1	6
637.063	1	-2
637.402	1	4
637.741	1	6
638.080	1	4
638.419	1	4
638.759	1	-9
639.098	1	6
639.437	1	9
639.776	1	-5
640.115	1	-6
640.454	1	-8
640.793	1	8
641.132	1	6
641.472	1	8
641.811	1	1
642.150	1	-13
642.489	1	8
642.828	1	-7
643.167	1	-3
643.506	1	-11
643.845	1	-1
644.184	1	2
644.524	1	-5
644.863	1	-4
645.202	1	3
645.541	1	-5
645.880	1	6
646.219	1	0
646.558	1	1
646.897	1	13
647.236	1	8
647.575	1	-3
647.914	1	3
648.253	1	8
648.592	1	1
648.931	1	13
649.270	1	-1
649.610	1	8
649.949	1	-4
650.288	1	0
650.627	1	-4
650.966	1	2
651.305	1	2
651.644	1	13
651.983	1	-1
652.322	1	0
652.661	1	-7
653.000	1	-4
653.339	1	7
653.678	1	6
654.017	1	-9
654.356	1	-3
654.695	1	10
655.034	1	5
655.373	1	1
655.712	1	6
656.051	1	8
656.390	1	-2
656.729	1	3
657.068	1	-3
657.406	1	4
657.745	1	-6
658.084	1	-2
658.423	1	8
658.762	1	-4
659.101	1	-4
659.440	1	-2
659.779	1	6
660.118	1	0
660.457	1	-4
660.796	1	-10
661.135	1	-4
661.474	1	-8
661.813	1	13
662.152	1	2
662.491	1	3
662.829	1	-5
663.168	1	3
663.507	1	12
663.846	1	-9
664.185	1	2
664.524	1	-4
664.863	1	-1
665.202	1	2
665.541	1	-5
665.879	1	-11
666.218	1	-3
666.557	1	-2
666.896	1	0
667.235	1	1
667.574	1	4
667.913	1	-6
668.251	1	-7
668.590	1	-9
668.929	1	-7
669.268	1	-10
669.607	1	-6
669.946	1	0
670.285	1	10
670.623	1	1
670.962	1	-2
671.301	1	1
671.640	1	3
671.979	1	-4
672.317	1	8
672.656	1	-2
672.995	1	6
673.334	1	3
673.673	1	1
674.011	1	-1
674.350	1	0
674.689	1	-12
675.028	1	-4
675.367	1	3
675.705	1	8
676.044	1	2
676.383	1	1
676.722	1	-3
677.060	1	-9
677.399	1	-8
677.738	1	2
678.077	1	0
678.416	1	3
678.754	1	-4
679.093	1	3
679.432	1	-3
679.771	1	-5
680.109	1	8
680.448	1	3
680.787	1	-4
681.125	1	3
681.464	1	-3
681.803	1	-7
682.142	1	3
682.480	1	7
682.819	1	-1
683.158	1	-4
683.496	1	0
683.835	1	-2
684.174	1	2
684.512	1	1
684.851	1	3
685.190	1	-1
685.529	1	-5
685.867	1	5
686.206	1	-10
686.545	1	-9
686.883	1	-10
687.222	1	-1
687.561	1	3
687.899	1	-2
688.238	1	8
688.577	1	-3
688.746	1	-3