File: Data/GaN_200K_800ms/GaN_sample F_spot 12_UVVIS_200 K_200um_800 ms 2x2mm1_172.txt
340.368	1	12
340.710	1	-1
341.052	1	2
341.394	1	-7
341.737	1	4
342.079	1	-1
342.421	1	1
342.763	1	13
343.105	1	3
343.447	1	-9
343.789	1	1
344.131	1	-8
344.473	1	-2
344.815	1	2
345.157	1	6
345.499	1	3
345.841	1	-4
346.183	1	-3
346.526	1	-4
346.868	1	1
347.210	1	-7
347.552	1	-6
347.894	1	8
348.236	1	12
348.578	1	4
348.920	1	-7
349.262	1	-9
349.604	1	6
349.946	1	-6
350.288	1	8
350.630	1	2
350.972	1	4
351.314	1	8
351.656	1	2
351.998	1	-5
352.340	1	8
352.682	1	0
353.024	1	6
353.366	1	18
353.708	1	6
354.050	1	-5
354.392	1	1
354.734	1	3
355.076	1	2
355.418	1	-7
355.760	1	-4
356.102	1	19
356.444	1	5
356.785	1	10
357.127	1	2
357.469	1	15
357.811	1	-7
358.153	1	15
358.495	1	7
358.837	1	-3
359.179	1	12
359.521	1	15
359.863	1	8
360.205	1	13
360.547	1	7
360.889	1	6
361.231	1	4
361.572	1	19
361.914	1	14
362.256	1	6
362.598	1	9
362.940	1	11
363.282	1	12
363.624	1	22
363.966	1	7
364.308	1	16
364.649	1	22
364.991	1	21
365.333	1	29
365.675	1	15
366.017	1	25
366.359	1	29
366.701	1	30
367.042	1	34
367.384	1	31
367.726	1	37
368.068	1	40
368.410	1	46
368.752	1	27
369.093	1	49
369.435	1	39
369.777	1	39
370.119	1	42
370.461	1	51
370.803	1	53
371.144	1	32
371.486	1	33
371.828	1	40
372.170	1	32
372.512	1	26
372.853	1	34
373.195	1	25
373.537	1	34
373.879	1	28
374.220	1	36
374.562	1	43
374.904	1	22
375.246	1	25
375.588	1	26
375.929	1	28
376.271	1	28
376.613	1	2
376.955	1	10
377.296	1	24
377.638	1	17
377.980	1	26
378.321	1	13
378.663	1	9
379.005	1	29
379.347	1	12
379.688	1	15
380.030	1	12
380.372	1	9
380.714	1	13
381.055	1	20
381.397	1	10
381.739	1	16
382.080	1	14
382.422	1	10
382.764	1	5
383.105	1	-1
383.447	1	4
383.789	1	5
384.130	1	6
384.472	1	9
384.814	1	7
385.156	1	-3
385.497	1	11
385.839	1	6
386.180	1	7
386.522	1	16
386.864	1	10
387.205	1	-1
387.547	1	8
387.889	1	4
388.230	1	18
388.572	1	6
388.914	1	6
389.255	1	-3
389.597	1	11
389.939	1	10
390.280	1	15
390.622	1	-2
390.963	1	13
391.305	1	6
391.647	1	6
391.988	1	8
392.330	1	11
392.671	1	4
393.013	1	-3
393.355	1	11
393.696	1	4
394.038	1	5
394.379	1	8
394.721	1	-4
395.062	1	13
395.404	1	7
395.746	1	12
396.087	1	1
396.429	1	-1
396.770	1	1
397.112	1	7
397.453	1	12
397.795	1	0
398.136	1	1
398.478	1	8
398.819	1	1
399.161	1	8
399.503	1	-1
399.844	1	0
400.186	1	-1
400.527	1	-1
400.869	1	-3
401.210	1	3
401.552	1	-2
401.893	1	7
402.235	1	10
402.576	1	-8
402.918	1	13
403.259	1	9
403.601	1	-2
403.942	1	8
404.284	1	8
404.625	1	1
404.967	1	6
405.308	1	14
405.649	1	-2
405.991	1	4
406.332	1	10
406.674	1	7
407.015	1	6
407.357	1	-8
407.698	1	5
408.040	1	-5
408.381	1	9
408.722	1	-11
409.064	1	-1
409.405	1	13
409.747	1	3
410.088	1	2
410.430	1	11
410.771	1	10
411.112	1	1
411.454	1	-2
411.795	1	7
412.137	1	-2
412.478	1	8
412.819	1	-8
413.161	1	0
413.502	1	4
413.844	1	3
414.185	1	9
414.526	1	-7
414.868	1	-5
415.209	1	5
415.550	1	-2
415.892	1	3
416.233	1	1
416.575	1	13
416.916	1	-5
417.257	1	-2
417.599	1	0
417.940	1	12
418.281	1	6
418.623	1	-4
418.964	1	-9
419.305	1	3
419.647	1	-4
419.988	1	-8
420.329	1	-8
420.671	1	12
421.012	1	-5
421.353	1	-6
421.695	1	1
422.036	1	3
422.377	1	-9
422.718	1	14
423.060	1	-8
423.401	1	2
423.742	1	7
424.084	1	4
424.425	1	5
424.766	1	4
425.107	1	-4
425.449	1	12
425.790	1	-2
426.131	1	11
426.472	1	2
426.814	1	-5
427.155	1	10
427.496	1	-9
427.837	1	0
428.179	1	-4
428.520	1	-3
428.861	1	-1
429.202	1	3
429.544	1	-3
429.885	1	3
430.226	1	-8
430.567	1	5
430.909	1	-1
431.250	1	7
431.591	1	7
431.932	1	-11
432.273	1	6
432.615	1	-7
432.956	1	-11
433.297	1	6
433.638	1	-2
433.979	1	2
434.320	1	1
434.662	1	5
435.003	1	9
435.344	1	5
435.685	1	-6
436.026	1	9
436.368	1	0
436.709	1	6
437.050	1	0
437.391	1	7
437.732	1	-9
438.073	1	-5
438.414	1	-12
438.756	1	-10
439.097	1	-1
439.438	1	-2
439.779	1	-1
440.120	1	-6
440.461	1	-2
440.802	1	-2
441.143	1	8
441.485	1	1
441.826	1	0
442.167	1	3
442.508	1	-4
442.849	1	18
443.190	1	1
443.531	1	7
443.872	1	5
444.213	1	4
444.554	1	7
444.895	1	-7
445.237	1	-6
445.578	1	-2
445.919	1	-5
446.260	1	-3
446.601	1	-2
446.942	1	0
447.283	1	-2
447.624	1	0
447.965	1	-1
448.306	1	0
448.647	1	-14
448.988	1	-1
449.329	1	3
449.670	1	6
450.011	1	9
450.352	1	-2
450.693	1	-7
451.034	1	-3
451.375	1	7
451.716	1	-6
452.057	1	6
452.398	1	-3
452.739	1	-2
453.080	1	0
453.421	1	1
453.762	1	0
454.103	1	-7
454.444	1	-4
454.785	1	-1
455.126	1	-7
455.467	1	6
455.808	1	2
456.149	1	4
456.490	1	6
456.831	1	2
457.172	1	-7
457.513	1	10
457.854	1	3
458.195	1	-5
458.536	1	0
458.877	1	-3
459.218	1	-4
459.559	1	0
459.899	1	-1
460.240	1	2
460.581	1	16
460.922	1	-2
461.263	1	-6
461.604	1	-8
461.945	1	0
462.286	1	-1
462.627	1	7
462.968	1	4
463.309	1	0
463.649	1	-4
463.990	1	0
464.331	1	0
464.672	1	6
465.013	1	0
465.354	1	8
465.695	1	-4
466.036	1	-4
466.376	1	-3
466.717	1	1
467.058	1	-1
467.399	1	4
467.740	1	0
468.081	1	-1
468.422	1	-2
468.762	1	-10
469.103	1	-13
469.444	1	-9
469.785	1	-11
470.126	1	-2
470.467	1	-5
470.807	1	8
471.148	1	5
471.489	1	-6
471.830	1	-2
472.171	1	9
472.511	1	-3
472.852	1	3
473.193	1	8
473.534	1	9
473.875	1	15
474.215	1	16
474.556	1	0
474.897	1	8
475.238	1	-2
475.578	1	-8
475.919	1	-2
476.260	1	-1
476.601	1	3
476.942	1	1
477.282	1	-1
477.623	1	-7
477.964	1	-4
478.305	1	-6
478.645	1	10
478.986	1	0
479.327	1	-1
479.667	1	-3
480.008	1	-3
480.349	1	0
480.690	1	8
481.030	1	-6
481.371	1	-1
481.712	1	-1
482.053	1	5
482.393	1	2
482.734	1	-5
483.075	1	-9
483.415	1	1
483.756	1	4
484.097	1	7
484.437	1	-12
484.778	1	3
485.119	1	-2
485.459	1	11
485.800	1	2
486.141	1	6
486.481	1	3
486.822	1	8
487.163	1	-2
487.503	1	-1
487.844	1	1
488.185	1	2
488.525	1	4
488.866	1	6
489.207	1	-11
489.547	1	4
489.888	1	-7
490.228	1	2
490.569	1	12
490.910	1	5
491.250	1	0
491.591	1	-2
491.932	1	0
492.272	1	6
492.613	1	-4
492.953	1	2
493.294	1	2
493.635	1	3
493.975	1	1
494.316	1	5
494.656	1	2
494.997	1	3
495.337	1	7
495.678	1	6
496.019	1	2
496.359	1	-4
496.700	1	7
497.040	1	1
497.381	1	7
497.721	1	0
498.062	1	-3
498.403	1	2
498.743	1	2
499.084	1	-3
499.424	1	8
499.765	1	-3
500.105	1	5
500.446	1	3
500.786	1	-1
501.127	1	3
501.467	1	-10
501.808	1	0
502.148	1	-2
502.489	1	6
502.829	1	2
503.170	1	11
503.510	1	6
503.851	1	6
504.191	1	14
504.532	1	-2
504.872	1	2
505.213	1	1
505.553	1	-14
505.894	1	-8
506.234	1	10
506.575	1	9
506.915	1	14
507.256	1	10
507.596	1	3
507.936	1	8
508.277	1	-2
508.617	1	6
508.958	1	-11
509.298	1	-1
509.639	1	1
509.979	1	9
510.319	1	9
510.660	1	-9
511.000	1	7
511.341	1	2
511.681	1	8
512.022	1	0
512.362	1	-4
512.702	1	-4
513.043	1	13
513.383	1	-11
513.724	1	2
514.064	1	16
514.404	1	9
514.745	1	4
515.085	1	2
515.425	1	0
515.766	1	-5
516.106	1	3
516.447	1	8
516.787	1	10
517.127	1	-1
517.468	1	0
517.808	1	1
518.148	1	6
518.489	1	-1
518.829	1	7
519.169	1	-3
519.510	1	-1
519.850	1	8
520.190	1	-8
520.531	1	5
520.871	1	1
521.211	1	-6
521.552	1	4
521.892	1	9
522.232	1	0
522.573	1	3
522.913	1	1
523.253	1	7
523.593	1	-10
523.934	1	4
524.274	1	10
524.614	1	-2
524.955	1	2
525.295	1	2
525.635	1	0
525.975	1	7
526.316	1	21
526.656	1	-1
526.996	1	8
527.337	1	0
527.677	1	5
528.017	1	-12
528.357	1	-1
528.698	1	6
529.038	1	8
529.378	1	11
529.718	1	3
530.058	1	4
530.399	1	11
530.739	1	4
531.079	1	6
531.419	1	1
531.760	1	10
532.100	1	0
532.440	1	4
532.780	1	-1
533.120	1	13
533.461	1	4
533.801	1	25
534.141	1	-4
534.481	1	1
534.821	1	11
535.162	1	8
535.502	1	-1
535.842	1	13
536.182	1	10
536.522	1	3
536.862	1	15
537.203	1	0
537.543	1	-6
537.883	1	8
538.223	1	3
538.563	1	10
538.903	1	-2
539.243	1	9
539.584	1	4
539.924	1	6
540.264	1	1
540.604	1	7
540.944	1	1
541.284	1	14
541.624	1	8
541.964	1	10
542.305	1	7
542.645	1	6
542.985	1	11
543.325	1	11
543.665	1	10
544.005	1	7
544.345	1	13
544.685	1	6
545.025	1	2
545.365	1	5
545.705	1	1
546.045	1	4
546.386	1	14
546.726	1	-4
547.066	1	2
547.406	1	6
547.746	1	-4
548.086	1	9
548.426	1	0
548.766	1	6
549.106	1	5
549.446	1	9
549.786	1	-8
550.126	1	16
550.466	1	1
550.806	1	5
551.146	1	7
551.486	1	6
551.826	1	5
552.166	1	9
552.506	1	11
552.846	1	16
553.186	1	9
553.526	1	0
553.866	1	14
554.206	1	11
554.546	1	14
554.886	1	9
555.226	1	0
555.566	1	9
555.906	1	16
556.246	1	11
556.586	1	-2
556.926	1	7
557.266	1	4
557.606	1	11
557.946	1	20
558.286	1	10
558.626	1	4
558.966	1	8
559.306	1	8
559.646	1	-8
559.986	1	3
560.325	1	-5
560.665	1	3
561.005	1	0
561.345	1	7
561.685	1	13
562.025	1	9
562.365	1	7
562.705	1	-3
563.045	1	-6
563.385	1	-3
563.725	1	16
564.064	1	4
564.404	1	8
564.744	1	4
565.084	1	12
565.424	1	13
565.764	1	3
566.104	1	6
566.444	1	0
566.783	1	1
567.123	1	10
567.463	1	7
567.803	1	-5
568.143	1	9
568.483	1	7
568.823	1	11
569.162	1	15
569.502	1	-3
569.842	1	10
570.182	1	12
570.522	1	-1
570.862	1	16
571.201	1	2
571.541	1	12
571.881	1	15
572.221	1	-1
572.561	1	4
572.900	1	-6
573.240	1	1
573.580	1	11
573.920	1	9
574.260	1	19
574.599	1	13
574.939	1	10
575.279	1	19
575.619	1	14
575.959	1	4
576.298	1	10
576.638	1	-3
576.978	1	17
577.318	1	13
577.657	1	-4
577.997	1	-13
578.337	1	10
578.677	1	12
579.016	1	13
579.356	1	1
579.696	1	12
580.036	1	3
580.375	1	17
580.715	1	9
581.055	1	7
581.394	1	3
581.734	1	-11
582.074	1	7
582.414	1	13
582.753	1	-4
583.093	1	7
583.433	1	0
583.772	1	14
584.112	1	0
584.452	1	3
584.791	1	6
585.131	1	10
585.471	1	13
585.811	1	4
586.150	1	8
586.490	1	6
586.830	1	1
587.169	1	6
587.509	1	6
587.849	1	7
588.188	1	13
588.528	1	9
588.867	1	12
589.207	1	4
589.547	1	-1
589.886	1	2
590.226	1	14
590.566	1	0
590.905	1	-1
591.245	1	5
591.585	1	14
591.924	1	9
592.264	1	11
592.603	1	6
592.943	1	4
593.283	1	2
593.622	1	0
593.962	1	9
594.301	1	14
594.641	1	0
594.981	1	1
595.320	1	3
595.660	1	3
595.999	1	1
596.339	1	11
596.678	1	-9
597.018	1	4
597.358	1	4
597.697	1	6
598.037	1	9
598.376	1	7
598.716	1	4
599.055	1	16
599.395	1	5
599.734	1	-3
600.074	1	1
600.413	1	16
600.753	1	13
601.092	1	19
601.432	1	-7
601.771	1	3
602.111	1	9
602.451	1	11
602.790	1	2
603.130	1	5
603.469	1	6
603.809	1	12
604.148	1	3
604.487	1	4
604.827	1	7
605.166	1	5
605.506	1	13
605.845	1	3
606.185	1	9
606.524	1	4
606.864	1	-2
607.203	1	-7
607.543	1	5
607.882	1	3
608.222	1	-2
608.561	1	2
608.901	1	5
609.240	1	0
609.579	1	13
609.919	1	12
610.258	1	7
610.598	1	0
610.937	1	9
611.277	1	7
611.616	1	0
611.955	1	-4
612.295	1	2
612.634	1	8
612.974	1	-4
613.313	1	13
613.652	1	2
613.992	1	-2
614.331	1	12
614.671	1	13
615.010	1	-7
615.349	1	3
615.689	1	7
616.028	1	4
616.368	1	1
616.707	1	6
617.046	1	1
617.386	1	12
617.725	1	6
618.064	1	8
618.404	1	4
618.743	1	11
619.082	1	11
619.422	1	5
619.761	1	14
620.100	1	9
620.440	1	10
620.779	1	0
621.118	1	2
621.458	1	0
621.797	1	-6
622.136	1	14
622.476	1	1
622.815	1	6
623.154	1	6
623.494	1	9
623.833	1	9
624.172	1	1
624.511	1	5
624.851	1	-6
625.190	1	10
625.529	1	0
625.869	1	12
626.208	1	11
626.547	1	-1
626.886	1	10
627.226	1	3
627.565	1	8
627.904	1	4
628.243	1	9
628.583	1	2
628.922	1	6
629.261	1	10
629.600	1	2
629.940	1	9
630.279	1	-8
630.618	1	-2
630.957	1	2
631.297	1	3
631.636	1	-1
631.975	1	14
632.314	1	6
632.653	1	9
632.993	1	-8
633.332	1	5
633.671	1	-7
634.010	1	-1
634.349	1	10
634.689	1	9
635.028	1	10
635.367	1	7
635.706	1	4
636.045	1	12
636.384	1	0
636.724	1	-2
637.063	1	4
637.402	1	12
637.741	1	15
638.080	1	-1
638.419	1	-2
638.759	1	-8
639.098	1	10
639.437	1	6
639.776	1	7
640.115	1	-3
640.454	1	3
640.793	1	11
641.132	1	13
641.472	1	0
641.811	1	-3
642.150	1	-6
642.489	1	7
642.828	1	4
643.167	1	5
643.506	1	-7
643.845	1	7
644.184	1	6
644.524	1	-2
644.863	1	-4
645.202	1	2
645.541	1	-4
645.880	1	4
646.219	1	-2
646.558	1	-3
646.897	1	2
647.236	1	-4
647.575	1	3
647.914	1	1
648.253	1	9
648.592	1	3
648.931	1	19
649.270	1	-4
649.610	1	2
649.949	1	0
650.288	1	11
650.627	1	8
650.966	1	6
651.305	1	3
651.644	1	18
651.983	1	-1
652.322	1	10
652.661	1	0
653.000	1	2
653.339	1	7
653.678	1	4
654.017	1	-3
654.356	1	-7
654.695	1	10
655.034	1	0
655.373	1	21
655.712	1	8
656.051	1	7
656.390	1	4
656.729	1	11
657.068	1	9
657.406	1	-1
657.745	1	-1
658.084	1	-1
658.423	1	12
658.762	1	0
659.101	1	12
659.440	1	9
659.779	1	5
660.118	1	7
660.457	1	-4
660.796	1	-6
661.135	1	-4
661.474	1	-3
661.813	1	13
662.152	1	0
662.491	1	0
662.829	1	-8
663.168	1	-6
663.507	1	10
663.846	1	-9
664.185	1	6
664.524	1	0
664.863	1	3
665.202	1	5
665.541	1	-6
665.879	1	-3
666.218	1	0
666.557	1	-1
666.896	1	-2
667.235	1	8
667.574	1	3
667.913	1	6
668.251	1	-1
668.590	1	-3
668.929	1	-13
669.268	1	0
669.607	1	-15
669.946	1	3
670.285	1	10
670.623	1	-4
670.962	1	-1
671.301	1	1
671.640	1	2
671.979	1	2
672.317	1	12
672.656	1	0
672.995	1	11
673.334	1	2
673.673	1	3
674.011	1	4
674.350	1	12
674.689	1	-3
675.028	1	-11
675.367	1	7
675.705	1	4
676.044	1	-1
676.383	1	-5
676.722	1	7
677.060	1	-5
677.399	1	-6
677.738	1	10
678.077	1	5
678.416	1	7
678.754	1	-1
679.093	1	8
679.432	1	0
679.771	1	5
680.109	1	9
680.448	1	0
680.787	1	3
681.125	1	4
681.464	1	7
681.803	1	-1
682.142	1	5
682.480	1	14
682.819	1	5
683.158	1	6
683.496	1	5
683.835	1	0
684.174	1	-3
684.512	1	12
684.851	1	-3
685.190	1	-6
685.529	1	-3
685.867	1	1
686.206	1	-9
686.545	1	1
686.883	1	4
687.222	1	3
687.561	1	8
687.899	1	1
688.238	1	6
688.577	1	5
688.746	1	3