File: Data/GaN_200K_800ms/GaN_sample F_spot 12_UVVIS_200 K_200um_800 ms 2x2mm1_201.txt
340.368	1	0
340.710	1	-2
341.052	1	2
341.394	1	-1
341.737	1	0
342.079	1	-1
342.421	1	0
342.763	1	6
343.105	1	8
343.447	1	-8
343.789	1	-4
344.131	1	-2
344.473	1	1
344.815	1	-8
345.157	1	-3
345.499	1	4
345.841	1	4
346.183	1	-6
346.526	1	-4
346.868	1	6
347.210	1	0
347.552	1	-12
347.894	1	0
348.236	1	10
348.578	1	5
348.920	1	-3
349.262	1	1
349.604	1	4
349.946	1	-1
350.288	1	11
350.630	1	6
350.972	1	-2
351.314	1	6
351.656	1	4
351.998	1	5
352.340	1	13
352.682	1	10
353.024	1	0
353.366	1	9
353.708	1	7
354.050	1	-13
354.392	1	-8
354.734	1	4
355.076	1	4
355.418	1	-12
355.760	1	3
356.102	1	8
356.444	1	5
356.785	1	9
357.127	1	6
357.469	1	3
357.811	1	2
358.153	1	21
358.495	1	8
358.837	1	1
359.179	1	4
359.521	1	8
359.863	1	10
360.205	1	-3
360.547	1	9
360.889	1	-2
361.231	1	2
361.572	1	15
361.914	1	16
362.256	1	11
362.598	1	-1
362.940	1	6
363.282	1	0
363.624	1	20
363.966	1	11
364.308	1	8
364.649	1	12
364.991	1	19
365.333	1	24
365.675	1	15
366.017	1	27
366.359	1	28
366.701	1	25
367.042	1	27
367.384	1	27
367.726	1	28
368.068	1	32
368.410	1	33
368.752	1	25
369.093	1	28
369.435	1	34
369.777	1	26
370.119	1	31
370.461	1	39
370.803	1	33
371.144	1	25
371.486	1	35
371.828	1	35
372.170	1	32
372.512	1	29
372.853	1	23
373.195	1	22
373.537	1	33
373.879	1	29
374.220	1	29
374.562	1	24
374.904	1	29
375.246	1	33
375.588	1	13
375.929	1	22
376.271	1	28
376.613	1	8
376.955	1	6
377.296	1	13
377.638	1	16
377.980	1	18
378.321	1	10
378.663	1	11
379.005	1	21
379.347	1	5
379.688	1	17
380.030	1	5
380.372	1	18
380.714	1	14
381.055	1	6
381.397	1	11
381.739	1	13
382.080	1	0
382.422	1	6
382.764	1	7
383.105	1	6
383.447	1	1
383.789	1	5
384.130	1	1
384.472	1	8
384.814	1	2
385.156	1	1
385.497	1	14
385.839	1	-1
386.180	1	5
386.522	1	9
386.864	1	12
387.205	1	3
387.547	1	-1
387.889	1	1
388.230	1	7
388.572	1	-4
388.914	1	8
389.255	1	3
389.597	1	7
389.939	1	4
390.280	1	8
390.622	1	0
390.963	1	9
391.305	1	3
391.647	1	-2
391.988	1	10
392.330	1	2
392.671	1	6
393.013	1	10
393.355	1	6
393.696	1	2
394.038	1	0
394.379	1	10
394.721	1	0
395.062	1	15
395.404	1	0
395.746	1	11
396.087	1	-1
396.429	1	-2
396.770	1	2
397.112	1	11
397.453	1	11
397.795	1	5
398.136	1	-3
398.478	1	3
398.819	1	9
399.161	1	5
399.503	1	1
399.844	1	-2
400.186	1	-5
400.527	1	-4
400.869	1	1
401.210	1	2
401.552	1	-10
401.893	1	8
402.235	1	2
402.576	1	-1
402.918	1	6
403.259	1	0
403.601	1	-2
403.942	1	14
404.284	1	16
404.625	1	5
404.967	1	0
405.308	1	3
405.649	1	8
405.991	1	-3
406.332	1	3
406.674	1	-6
407.015	1	4
407.357	1	2
407.698	1	6
408.040	1	-5
408.381	1	9
408.722	1	-12
409.064	1	7
409.405	1	8
409.747	1	2
410.088	1	-3
410.430	1	9
410.771	1	0
411.112	1	-4
411.454	1	1
411.795	1	-5
412.137	1	3
412.478	1	4
412.819	1	-11
413.161	1	-6
413.502	1	3
413.844	1	-6
414.185	1	2
414.526	1	-2
414.868	1	8
415.209	1	-4
415.550	1	-10
415.892	1	1
416.233	1	2
416.575	1	12
416.916	1	-6
417.257	1	3
417.599	1	2
417.940	1	16
418.281	1	-3
418.623	1	-4
418.964	1	-13
419.305	1	3
419.647	1	-3
419.988	1	-4
420.329	1	4
420.671	1	7
421.012	1	5
421.353	1	0
421.695	1	-9
422.036	1	-2
422.377	1	-8
422.718	1	1
423.060	1	-7
423.401	1	-6
423.742	1	7
424.084	1	-1
424.425	1	1
424.766	1	5
425.107	1	-10
425.449	1	4
425.790	1	-10
426.131	1	0
426.472	1	1
426.814	1	-2
427.155	1	-5
427.496	1	10
427.837	1	-7
428.179	1	-8
428.520	1	-1
428.861	1	-8
429.202	1	3
429.544	1	-8
429.885	1	4
430.226	1	-5
430.567	1	8
430.909	1	7
431.250	1	-1
431.591	1	-1
431.932	1	-1
432.273	1	-6
432.615	1	-8
432.956	1	-8
433.297	1	-2
433.638	1	-4
433.979	1	0
434.320	1	4
434.662	1	-4
435.003	1	7
435.344	1	3
435.685	1	4
436.026	1	-3
436.368	1	0
436.709	1	6
437.050	1	-1
437.391	1	12
437.732	1	-4
438.073	1	2
438.414	1	-6
438.756	1	4
439.097	1	-2
439.438	1	-7
439.779	1	-6
440.120	1	-12
440.461	1	7
440.802	1	-10
441.143	1	6
441.485	1	-1
441.826	1	-1
442.167	1	1
442.508	1	-3
442.849	1	7
443.190	1	2
443.531	1	7
443.872	1	2
444.213	1	-2
444.554	1	10
444.895	1	0
445.237	1	-7
445.578	1	-13
445.919	1	-13
446.260	1	6
446.601	1	1
446.942	1	6
447.283	1	-5
447.624	1	-1
447.965	1	-1
448.306	1	1
448.647	1	-1
448.988	1	-5
449.329	1	0
449.670	1	5
450.011	1	7
450.352	1	-8
450.693	1	-2
451.034	1	1
451.375	1	3
451.716	1	5
452.057	1	5
452.398	1	1
452.739	1	9
453.080	1	-3
453.421	1	-2
453.762	1	6
454.103	1	-1
454.444	1	-11
454.785	1	0
455.126	1	-5
455.467	1	3
455.808	1	8
456.149	1	10
456.490	1	-1
456.831	1	5
457.172	1	-5
457.513	1	4
457.854	1	1
458.195	1	-3
458.536	1	3
458.877	1	2
459.218	1	0
459.559	1	7
459.899	1	-3
460.240	1	6
460.581	1	13
460.922	1	-5
461.263	1	2
461.604	1	-13
461.945	1	-1
462.286	1	7
462.627	1	10
462.968	1	2
463.309	1	3
463.649	1	1
463.990	1	-3
464.331	1	-6
464.672	1	-7
465.013	1	1
465.354	1	-1
465.695	1	0
466.036	1	-4
466.376	1	-6
466.717	1	3
467.058	1	-4
467.399	1	3
467.740	1	0
468.081	1	2
468.422	1	-9
468.762	1	-10
469.103	1	-3
469.444	1	-8
469.785	1	-12
470.126	1	-11
470.467	1	-5
470.807	1	7
471.148	1	3
471.489	1	6
471.830	1	-1
472.171	1	0
472.511	1	-8
472.852	1	-2
473.193	1	-3
473.534	1	4
473.875	1	12
474.215	1	17
474.556	1	-4
474.897	1	4
475.238	1	0
475.578	1	-2
475.919	1	1
476.260	1	3
476.601	1	2
476.942	1	10
477.282	1	2
477.623	1	-7
477.964	1	-1
478.305	1	2
478.645	1	8
478.986	1	-3
479.327	1	-10
479.667	1	2
480.008	1	-2
480.349	1	-4
480.690	1	5
481.030	1	-8
481.371	1	16
481.712	1	8
482.053	1	5
482.393	1	-4
482.734	1	-10
483.075	1	2
483.415	1	4
483.756	1	1
484.097	1	0
484.437	1	-4
484.778	1	7
485.119	1	-1
485.459	1	21
485.800	1	-6
486.141	1	0
486.481	1	-9
486.822	1	0
487.163	1	3
487.503	1	2
487.844	1	3
488.185	1	1
488.525	1	-5
488.866	1	-3
489.207	1	-1
489.547	1	1
489.888	1	6
490.228	1	12
490.569	1	18
490.910	1	2
491.250	1	-2
491.591	1	-7
491.932	1	-6
492.272	1	2
492.613	1	-5
492.953	1	1
493.294	1	-4
493.635	1	4
493.975	1	-5
494.316	1	6
494.656	1	5
494.997	1	-4
495.337	1	11
495.678	1	4
496.019	1	-4
496.359	1	-9
496.700	1	-8
497.040	1	3
497.381	1	-4
497.721	1	4
498.062	1	-1
498.403	1	9
498.743	1	3
499.084	1	0
499.424	1	-2
499.765	1	3
500.105	1	-6
500.446	1	-9
500.786	1	-6
501.127	1	3
501.467	1	-4
501.808	1	3
502.148	1	0
502.489	1	6
502.829	1	-2
503.170	1	12
503.510	1	2
503.851	1	1
504.191	1	4
504.532	1	6
504.872	1	12
505.213	1	2
505.553	1	-11
505.894	1	-7
506.234	1	4
506.575	1	0
506.915	1	1
507.256	1	8
507.596	1	3
507.936	1	2
508.277	1	-2
508.617	1	4
508.958	1	-4
509.298	1	1
509.639	1	2
509.979	1	-6
510.319	1	9
510.660	1	2
511.000	1	0
511.341	1	3
511.681	1	5
512.022	1	-5
512.362	1	2
512.702	1	2
513.043	1	5
513.383	1	-4
513.724	1	5
514.064	1	9
514.404	1	-1
514.745	1	-2
515.085	1	-7
515.425	1	8
515.766	1	-11
516.106	1	-4
516.447	1	6
516.787	1	0
517.127	1	-3
517.468	1	2
517.808	1	-7
518.148	1	4
518.489	1	-1
518.829	1	0
519.169	1	-1
519.510	1	2
519.850	1	1
520.190	1	2
520.531	1	3
520.871	1	8
521.211	1	-17
521.552	1	4
521.892	1	7
522.232	1	3
522.573	1	-2
522.913	1	3
523.253	1	13
523.593	1	2
523.934	1	4
524.274	1	-3
524.614	1	2
524.955	1	-13
525.295	1	9
525.635	1	-11
525.975	1	7
526.316	1	4
526.656	1	4
526.996	1	10
527.337	1	-7
527.677	1	3
528.017	1	-6
528.357	1	9
528.698	1	9
529.038	1	2
529.378	1	1
529.718	1	5
530.058	1	5
530.399	1	8
530.739	1	14
531.079	1	3
531.419	1	5
531.760	1	0
532.100	1	-2
532.440	1	-7
532.780	1	7
533.120	1	8
533.461	1	4
533.801	1	8
534.141	1	-11
534.481	1	-15
534.821	1	5
535.162	1	8
535.502	1	-9
535.842	1	11
536.182	1	-4
536.522	1	-6
536.862	1	7
537.203	1	1
537.543	1	-4
537.883	1	-2
538.223	1	9
538.563	1	-3
538.903	1	-3
539.243	1	-5
539.584	1	-6
539.924	1	17
540.264	1	-2
540.604	1	-1
540.944	1	-2
541.284	1	4
541.624	1	12
541.964	1	4
542.305	1	11
542.645	1	2
542.985	1	1
543.325	1	-4
543.665	1	9
544.005	1	3
544.345	1	6
544.685	1	-4
545.025	1	2
545.365	1	4
545.705	1	3
546.045	1	-6
546.386	1	9
546.726	1	-2
547.066	1	4
547.406	1	4
547.746	1	-5
548.086	1	3
548.426	1	5
548.766	1	7
549.106	1	9
549.446	1	1
549.786	1	-5
550.126	1	15
550.466	1	13
550.806	1	-3
551.146	1	6
551.486	1	-1
551.826	1	8
552.166	1	-1
552.506	1	8
552.846	1	-2
553.186	1	5
553.526	1	3
553.866	1	9
554.206	1	5
554.546	1	-4
554.886	1	12
555.226	1	-3
555.566	1	7
555.906	1	11
556.246	1	11
556.586	1	-3
556.926	1	0
557.266	1	3
557.606	1	24
557.946	1	9
558.286	1	13
558.626	1	14
558.966	1	6
559.306	1	3
559.646	1	-5
559.986	1	-1
560.325	1	-1
560.665	1	-1
561.005	1	-2
561.345	1	8
561.685	1	3
562.025	1	5
562.365	1	5
562.705	1	1
563.045	1	-1
563.385	1	-3
563.725	1	6
564.064	1	-4
564.404	1	-1
564.744	1	4
565.084	1	5
565.424	1	-3
565.764	1	6
566.104	1	5
566.444	1	1
566.783	1	-1
567.123	1	8
567.463	1	1
567.803	1	-4
568.143	1	6
568.483	1	2
568.823	1	7
569.162	1	1
569.502	1	4
569.842	1	3
570.182	1	0
570.522	1	-7
570.862	1	0
571.201	1	7
571.541	1	1
571.881	1	9
572.221	1	2
572.561	1	-2
572.900	1	-4
573.240	1	9
573.580	1	4
573.920	1	9
574.260	1	10
574.599	1	4
574.939	1	4
575.279	1	5
575.619	1	8
575.959	1	-3
576.298	1	10
576.638	1	0
576.978	1	13
577.318	1	7
577.657	1	6
577.997	1	3
578.337	1	11
578.677	1	2
579.016	1	2
579.356	1	-1
579.696	1	8
580.036	1	-8
580.375	1	3
580.715	1	4
581.055	1	3
581.394	1	2
581.734	1	2
582.074	1	1
582.414	1	9
582.753	1	1
583.093	1	1
583.433	1	8
583.772	1	8
584.112	1	2
584.452	1	6
584.791	1	-1
585.131	1	7
585.471	1	12
585.811	1	3
586.150	1	-3
586.490	1	4
586.830	1	1
587.169	1	17
587.509	1	2
587.849	1	2
588.188	1	9
588.528	1	3
588.867	1	13
589.207	1	9
589.547	1	1
589.886	1	-11
590.226	1	5
590.566	1	2
590.905	1	2
591.245	1	0
591.585	1	-1
591.924	1	6
592.264	1	4
592.603	1	5
592.943	1	7
593.283	1	-1
593.622	1	-3
593.962	1	-6
594.301	1	3
594.641	1	-9
594.981	1	1
595.320	1	9
595.660	1	-3
595.999	1	-12
596.339	1	1
596.678	1	-1
597.018	1	0
597.358	1	6
597.697	1	7
598.037	1	-2
598.376	1	2
598.716	1	10
599.055	1	11
599.395	1	-1
599.734	1	9
600.074	1	-2
600.413	1	10
600.753	1	7
601.092	1	10
601.432	1	-4
601.771	1	12
602.111	1	6
602.451	1	-2
602.790	1	-2
603.130	1	8
603.469	1	-8
603.809	1	7
604.148	1	8
604.487	1	-3
604.827	1	9
605.166	1	9
605.506	1	4
605.845	1	4
606.185	1	8
606.524	1	6
606.864	1	-2
607.203	1	1
607.543	1	-4
607.882	1	4
608.222	1	6
608.561	1	2
608.901	1	4
609.240	1	-17
609.579	1	12
609.919	1	11
610.258	1	12
610.598	1	3
610.937	1	0
611.277	1	-5
611.616	1	3
611.955	1	7
612.295	1	2
612.634	1	4
612.974	1	-6
613.313	1	9
613.652	1	4
613.992	1	-1
614.331	1	-3
614.671	1	4
615.010	1	-17
615.349	1	6
615.689	1	5
616.028	1	-2
616.368	1	-2
616.707	1	5
617.046	1	3
617.386	1	3
617.725	1	3
618.064	1	0
618.404	1	-4
618.743	1	4
619.082	1	5
619.422	1	-3
619.761	1	-1
620.100	1	10
620.440	1	4
620.779	1	4
621.118	1	4
621.458	1	3
621.797	1	3
622.136	1	12
622.476	1	1
622.815	1	15
623.154	1	13
623.494	1	11
623.833	1	7
624.172	1	-4
624.511	1	4
624.851	1	-11
625.190	1	11
625.529	1	5
625.869	1	2
626.208	1	3
626.547	1	4
626.886	1	-9
627.226	1	4
627.565	1	2
627.904	1	-2
628.243	1	0
628.583	1	-3
628.922	1	4
629.261	1	7
629.600	1	12
629.940	1	7
630.279	1	-7
630.618	1	-9
630.957	1	0
631.297	1	2
631.636	1	-4
631.975	1	12
632.314	1	3
632.653	1	2
632.993	1	3
633.332	1	1
633.671	1	-2
634.010	1	-5
634.349	1	11
634.689	1	4
635.028	1	7
635.367	1	2
635.706	1	6
636.045	1	15
636.384	1	10
636.724	1	6
637.063	1	-6
637.402	1	4
637.741	1	0
638.080	1	-4
638.419	1	-1
638.759	1	-6
639.098	1	8
639.437	1	-2
639.776	1	-4
640.115	1	4
640.454	1	-3
640.793	1	3
641.132	1	8
641.472	1	5
641.811	1	3
642.150	1	-13
642.489	1	-1
642.828	1	-5
643.167	1	-3
643.506	1	-5
643.845	1	-4
644.184	1	0
644.524	1	3
644.863	1	-5
645.202	1	8
645.541	1	5
645.880	1	3
646.219	1	-2
646.558	1	5
646.897	1	5
647.236	1	2
647.575	1	1
647.914	1	0
648.253	1	17
648.592	1	-3
648.931	1	8
649.270	1	1
649.610	1	-5
649.949	1	7
650.288	1	-2
650.627	1	-9
650.966	1	12
651.305	1	-1
651.644	1	12
651.983	1	-3
652.322	1	-1
652.661	1	-7
653.000	1	2
653.339	1	3
653.678	1	5
654.017	1	2
654.356	1	-5
654.695	1	3
655.034	1	6
655.373	1	7
655.712	1	8
656.051	1	5
656.390	1	-12
656.729	1	3
657.068	1	-4
657.406	1	5
657.745	1	-6
658.084	1	4
658.423	1	13
658.762	1	1
659.101	1	10
659.440	1	3
659.779	1	1
660.118	1	5
660.457	1	-2
660.796	1	-2
661.135	1	-9
661.474	1	1
661.813	1	14
662.152	1	-5
662.491	1	-3
662.829	1	-7
663.168	1	2
663.507	1	8
663.846	1	-5
664.185	1	3
664.524	1	6
664.863	1	3
665.202	1	6
665.541	1	-5
665.879	1	0
666.218	1	0
666.557	1	-1
666.896	1	-1
667.235	1	2
667.574	1	-7
667.913	1	4
668.251	1	-11
668.590	1	6
668.929	1	-11
669.268	1	-2
669.607	1	-5
669.946	1	-4
670.285	1	6
670.623	1	4
670.962	1	7
671.301	1	-8
671.640	1	2
671.979	1	1
672.317	1	12
672.656	1	0
672.995	1	12
673.334	1	-4
673.673	1	9
674.011	1	-2
674.350	1	-9
674.689	1	4
675.028	1	3
675.367	1	3
675.705	1	7
676.044	1	1
676.383	1	6
676.722	1	-6
677.060	1	-3
677.399	1	-4
677.738	1	2
678.077	1	9
678.416	1	9
678.754	1	2
679.093	1	6
679.432	1	5
679.771	1	2
680.109	1	7
680.448	1	5
680.787	1	7
681.125	1	3
681.464	1	4
681.803	1	6
682.142	1	6
682.480	1	9
682.819	1	1
683.158	1	5
683.496	1	8
683.835	1	6
684.174	1	-5
684.512	1	1
684.851	1	4
685.190	1	-3
685.529	1	-5
685.867	1	-6
686.206	1	3
686.545	1	-8
686.883	1	-8
687.222	1	10
687.561	1	5
687.899	1	-5
688.238	1	14
688.577	1	-1
688.746	1	-2