File: Data/GaN_200K_800ms/GaN_sample F_spot 12_UVVIS_200 K_200um_800 ms 2x2mm1_461.txt
340.368	1	2
340.710	1	-7
341.052	1	11
341.394	1	-16
341.737	1	-2
342.079	1	-7
342.421	1	2
342.763	1	10
343.105	1	-3
343.447	1	-5
343.789	1	-2
344.131	1	-4
344.473	1	-2
344.815	1	-13
345.157	1	-6
345.499	1	-3
345.841	1	4
346.183	1	-13
346.526	1	-6
346.868	1	12
347.210	1	-6
347.552	1	-4
347.894	1	0
348.236	1	10
348.578	1	2
348.920	1	-6
349.262	1	0
349.604	1	-5
349.946	1	-5
350.288	1	6
350.630	1	2
350.972	1	3
351.314	1	9
351.656	1	2
351.998	1	-6
352.340	1	2
352.682	1	3
353.024	1	-1
353.366	1	10
353.708	1	-5
354.050	1	-8
354.392	1	-4
354.734	1	3
355.076	1	4
355.418	1	-8
355.760	1	-2
356.102	1	9
356.444	1	8
356.785	1	-2
357.127	1	-6
357.469	1	7
357.811	1	2
358.153	1	11
358.495	1	5
358.837	1	-4
359.179	1	1
359.521	1	3
359.863	1	4
360.205	1	-9
360.547	1	-2
360.889	1	-6
361.231	1	-4
361.572	1	6
361.914	1	16
362.256	1	1
362.598	1	-3
362.940	1	-2
363.282	1	3
363.624	1	9
363.966	1	5
364.308	1	0
364.649	1	9
364.991	1	2
365.333	1	5
365.675	1	-2
366.017	1	0
366.359	1	5
366.701	1	0
367.042	1	5
367.384	1	5
367.726	1	11
368.068	1	5
368.410	1	18
368.752	1	3
369.093	1	-2
369.435	1	14
369.777	1	-3
370.119	1	11
370.461	1	23
370.803	1	6
371.144	1	-2
371.486	1	9
371.828	1	10
372.170	1	14
372.512	1	7
372.853	1	5
373.195	1	1
373.537	1	6
373.879	1	1
374.220	1	9
374.562	1	3
374.904	1	5
375.246	1	6
375.588	1	1
375.929	1	4
376.271	1	13
376.613	1	-5
376.955	1	-1
377.296	1	7
377.638	1	1
377.980	1	7
378.321	1	-2
378.663	1	5
379.005	1	6
379.347	1	9
379.688	1	11
380.030	1	2
380.372	1	-1
380.714	1	-2
381.055	1	0
381.397	1	4
381.739	1	1
382.080	1	0
382.422	1	7
382.764	1	-5
383.105	1	2
383.447	1	-3
383.789	1	-1
384.130	1	-6
384.472	1	1
384.814	1	1
385.156	1	-1
385.497	1	2
385.839	1	-7
386.180	1	0
386.522	1	7
386.864	1	5
387.205	1	-1
387.547	1	-4
387.889	1	-2
388.230	1	10
388.572	1	4
388.914	1	-1
389.255	1	-1
389.597	1	1
389.939	1	3
390.280	1	3
390.622	1	-7
390.963	1	9
391.305	1	-2
391.647	1	7
391.988	1	-2
392.330	1	4
392.671	1	1
393.013	1	4
393.355	1	0
393.696	1	-12
394.038	1	-2
394.379	1	-3
394.721	1	-5
395.062	1	0
395.404	1	7
395.746	1	8
396.087	1	-3
396.429	1	13
396.770	1	-7
397.112	1	1
397.453	1	6
397.795	1	4
398.136	1	-5
398.478	1	6
398.819	1	-1
399.161	1	13
399.503	1	0
399.844	1	-2
400.186	1	0
400.527	1	-1
400.869	1	-3
401.210	1	-7
401.552	1	-12
401.893	1	-4
402.235	1	3
402.576	1	-1
402.918	1	1
403.259	1	-5
403.601	1	-8
403.942	1	4
404.284	1	5
404.625	1	1
404.967	1	0
405.308	1	-1
405.649	1	-11
405.991	1	-2
406.332	1	1
406.674	1	-5
407.015	1	1
407.357	1	-6
407.698	1	4
408.040	1	-6
408.381	1	2
408.722	1	-14
409.064	1	8
409.405	1	-3
409.747	1	-5
410.088	1	-7
410.430	1	7
410.771	1	-7
411.112	1	-2
411.454	1	-7
411.795	1	-6
412.137	1	1
412.478	1	9
412.819	1	2
413.161	1	8
413.502	1	-1
413.844	1	4
414.185	1	0
414.526	1	0
414.868	1	2
415.209	1	4
415.550	1	-4
415.892	1	4
416.233	1	4
416.575	1	13
416.916	1	-10
417.257	1	-1
417.599	1	3
417.940	1	9
418.281	1	7
418.623	1	-2
418.964	1	-12
419.305	1	4
419.647	1	-7
419.988	1	-5
420.329	1	-11
420.671	1	5
421.012	1	-2
421.353	1	0
421.695	1	-3
422.036	1	-3
422.377	1	-4
422.718	1	13
423.060	1	-10
423.401	1	0
423.742	1	-1
424.084	1	-3
424.425	1	-3
424.766	1	-3
425.107	1	-5
425.449	1	-1
425.790	1	-4
426.131	1	-2
426.472	1	1
426.814	1	8
427.155	1	-6
427.496	1	3
427.837	1	2
428.179	1	-6
428.520	1	4
428.861	1	-4
429.202	1	-6
429.544	1	-3
429.885	1	-1
430.226	1	-7
430.567	1	-4
430.909	1	6
431.250	1	-15
431.591	1	7
431.932	1	-4
432.273	1	-6
432.615	1	-4
432.956	1	-6
433.297	1	-7
433.638	1	-10
433.979	1	3
434.320	1	5
434.662	1	1
435.003	1	-3
435.344	1	-6
435.685	1	-8
436.026	1	0
436.368	1	8
436.709	1	1
437.050	1	-6
437.391	1	6
437.732	1	-6
438.073	1	-4
438.414	1	-3
438.756	1	-6
439.097	1	-3
439.438	1	-4
439.779	1	-8
440.120	1	1
440.461	1	-8
440.802	1	-8
441.143	1	7
441.485	1	8
441.826	1	4
442.167	1	2
442.508	1	-8
442.849	1	6
443.190	1	9
443.531	1	10
443.872	1	9
444.213	1	3
444.554	1	6
444.895	1	-9
445.237	1	-1
445.578	1	-19
445.919	1	-8
446.260	1	-4
446.601	1	-4
446.942	1	3
447.283	1	-9
447.624	1	0
447.965	1	-2
448.306	1	5
448.647	1	-4
448.988	1	-2
449.329	1	-7
449.670	1	10
450.011	1	3
450.352	1	-7
450.693	1	-6
451.034	1	-9
451.375	1	-2
451.716	1	1
452.057	1	-6
452.398	1	-6
452.739	1	3
453.080	1	-4
453.421	1	-6
453.762	1	1
454.103	1	-6
454.444	1	-9
454.785	1	-2
455.126	1	-11
455.467	1	4
455.808	1	-4
456.149	1	0
456.490	1	-6
456.831	1	8
457.172	1	-4
457.513	1	3
457.854	1	-5
458.195	1	-5
458.536	1	0
458.877	1	-6
459.218	1	-4
459.559	1	7
459.899	1	-4
460.240	1	1
460.581	1	20
460.922	1	-3
461.263	1	-1
461.604	1	-9
461.945	1	-11
462.286	1	-2
462.627	1	6
462.968	1	0
463.309	1	-7
463.649	1	-6
463.990	1	-8
464.331	1	-1
464.672	1	1
465.013	1	0
465.354	1	3
465.695	1	-14
466.036	1	-5
466.376	1	1
466.717	1	4
467.058	1	-1
467.399	1	9
467.740	1	2
468.081	1	6
468.422	1	7
468.762	1	-5
469.103	1	-4
469.444	1	-14
469.785	1	-8
470.126	1	-11
470.467	1	-4
470.807	1	-3
471.148	1	2
471.489	1	2
471.830	1	-4
472.171	1	9
472.511	1	-10
472.852	1	4
473.193	1	-2
473.534	1	3
473.875	1	8
474.215	1	14
474.556	1	-1
474.897	1	6
475.238	1	4
475.578	1	-17
475.919	1	-2
476.260	1	-4
476.601	1	-7
476.942	1	8
477.282	1	-9
477.623	1	-9
477.964	1	-7
478.305	1	-5
478.645	1	10
478.986	1	-3
479.327	1	-9
479.667	1	-5
480.008	1	-7
480.349	1	0
480.690	1	-4
481.030	1	-10
481.371	1	-8
481.712	1	0
482.053	1	0
482.393	1	5
482.734	1	-12
483.075	1	-3
483.415	1	-8
483.756	1	3
484.097	1	-1
484.437	1	-11
484.778	1	-2
485.119	1	-9
485.459	1	9
485.800	1	-3
486.141	1	0
486.481	1	3
486.822	1	5
487.163	1	8
487.503	1	-4
487.844	1	12
488.185	1	-3
488.525	1	5
488.866	1	6
489.207	1	0
489.547	1	-4
489.888	1	4
490.228	1	0
490.569	1	8
490.910	1	0
491.250	1	2
491.591	1	-5
491.932	1	-1
492.272	1	2
492.613	1	-14
492.953	1	-7
493.294	1	-8
493.635	1	-2
493.975	1	-10
494.316	1	0
494.656	1	-8
494.997	1	-2
495.337	1	13
495.678	1	-4
496.019	1	9
496.359	1	-8
496.700	1	-8
497.040	1	-3
497.381	1	-11
497.721	1	-10
498.062	1	-3
498.403	1	0
498.743	1	-5
499.084	1	-5
499.424	1	2
499.765	1	-7
500.105	1	-8
500.446	1	-16
500.786	1	-8
501.127	1	-1
501.467	1	-14
501.808	1	2
502.148	1	-1
502.489	1	-1
502.829	1	-5
503.170	1	4
503.510	1	-1
503.851	1	-4
504.191	1	8
504.532	1	11
504.872	1	-2
505.213	1	-2
505.553	1	-15
505.894	1	-2
506.234	1	4
506.575	1	4
506.915	1	0
507.256	1	6
507.596	1	-4
507.936	1	-3
508.277	1	-3
508.617	1	-3
508.958	1	-5
509.298	1	-3
509.639	1	1
509.979	1	2
510.319	1	5
510.660	1	-6
511.000	1	0
511.341	1	-5
511.681	1	-4
512.022	1	-10
512.362	1	-2
512.702	1	2
513.043	1	2
513.383	1	-14
513.724	1	-1
514.064	1	4
514.404	1	-1
514.745	1	-3
515.085	1	-2
515.425	1	-9
515.766	1	-6
516.106	1	-3
516.447	1	4
516.787	1	6
517.127	1	5
517.468	1	-7
517.808	1	-4
518.148	1	-2
518.489	1	-4
518.829	1	8
519.169	1	-8
519.510	1	0
519.850	1	-3
520.190	1	-1
520.531	1	3
520.871	1	6
521.211	1	-11
521.552	1	4
521.892	1	0
522.232	1	2
522.573	1	3
522.913	1	6
523.253	1	-2
523.593	1	0
523.934	1	4
524.274	1	-1
524.614	1	-3
524.955	1	-12
525.295	1	-2
525.635	1	-1
525.975	1	0
526.316	1	-5
526.656	1	-3
526.996	1	5
527.337	1	1
527.677	1	-1
528.017	1	-12
528.357	1	-4
528.698	1	-2
529.038	1	1
529.378	1	2
529.718	1	9
530.058	1	-4
530.399	1	6
530.739	1	3
531.079	1	7
531.419	1	3
531.760	1	1
532.100	1	-2
532.440	1	3
532.780	1	1
533.120	1	3
533.461	1	-1
533.801	1	2
534.141	1	-10
534.481	1	-16
534.821	1	5
535.162	1	-4
535.502	1	-10
535.842	1	1
536.182	1	1
536.522	1	-12
536.862	1	5
537.203	1	-7
537.543	1	-2
537.883	1	-3
538.223	1	1
538.563	1	6
538.903	1	-4
539.243	1	6
539.584	1	7
539.924	1	6
540.264	1	-8
540.604	1	1
540.944	1	-12
541.284	1	10
541.624	1	-7
541.964	1	3
542.305	1	9
542.645	1	3
542.985	1	6
543.325	1	-4
543.665	1	7
544.005	1	8
544.345	1	12
544.685	1	-2
545.025	1	-1
545.365	1	-14
545.705	1	2
546.045	1	-6
546.386	1	4
546.726	1	-8
547.066	1	0
547.406	1	1
547.746	1	-6
548.086	1	0
548.426	1	-11
548.766	1	-7
549.106	1	-2
549.446	1	-5
549.786	1	-5
550.126	1	9
550.466	1	0
550.806	1	-9
551.146	1	-5
551.486	1	-6
551.826	1	1
552.166	1	3
552.506	1	1
552.846	1	4
553.186	1	9
553.526	1	-3
553.866	1	-5
554.206	1	6
554.546	1	5
554.886	1	4
555.226	1	-4
555.566	1	9
555.906	1	2
556.246	1	-1
556.586	1	-10
556.926	1	6
557.266	1	-2
557.606	1	-1
557.946	1	11
558.286	1	-1
558.626	1	3
558.966	1	6
559.306	1	-3
559.646	1	-4
559.986	1	-5
560.325	1	-8
560.665	1	-7
561.005	1	-8
561.345	1	3
561.685	1	1
562.025	1	-1
562.365	1	2
562.705	1	0
563.045	1	-13
563.385	1	-5
563.725	1	1
564.064	1	3
564.404	1	1
564.744	1	4
565.084	1	2
565.424	1	6
565.764	1	2
566.104	1	0
566.444	1	-7
566.783	1	-4
567.123	1	5
567.463	1	1
567.803	1	-11
568.143	1	-7
568.483	1	0
568.823	1	2
569.162	1	-1
569.502	1	6
569.842	1	7
570.182	1	2
570.522	1	-7
570.862	1	-3
571.201	1	5
571.541	1	8
571.881	1	11
572.221	1	-4
572.561	1	-2
572.900	1	-5
573.240	1	4
573.580	1	-1
573.920	1	-12
574.260	1	5
574.599	1	-1
574.939	1	2
575.279	1	4
575.619	1	0
575.959	1	-15
576.298	1	14
576.638	1	2
576.978	1	8
577.318	1	5
577.657	1	-2
577.997	1	-5
578.337	1	10
578.677	1	2
579.016	1	11
579.356	1	-4
579.696	1	4
580.036	1	-14
580.375	1	-1
580.715	1	2
581.055	1	-1
581.394	1	-1
581.734	1	-10
582.074	1	-10
582.414	1	-2
582.753	1	1
583.093	1	0
583.433	1	5
583.772	1	0
584.112	1	-6
584.452	1	0
584.791	1	2
585.131	1	3
585.471	1	2
585.811	1	0
586.150	1	-7
586.490	1	3
586.830	1	-1
587.169	1	5
587.509	1	-8
587.849	1	-1
588.188	1	4
588.528	1	-6
588.867	1	-3
589.207	1	3
589.547	1	-12
589.886	1	-13
590.226	1	2
590.566	1	-8
590.905	1	-6
591.245	1	2
591.585	1	12
591.924	1	-7
592.264	1	6
592.603	1	4
592.943	1	-1
593.283	1	-1
593.622	1	3
593.962	1	6
594.301	1	7
594.641	1	-6
594.981	1	0
595.320	1	1
595.660	1	5
595.999	1	-17
596.339	1	5
596.678	1	-6
597.018	1	-3
597.358	1	-2
597.697	1	-6
598.037	1	0
598.376	1	5
598.716	1	9
599.055	1	-4
599.395	1	-2
599.734	1	3
600.074	1	1
600.413	1	2
600.753	1	-2
601.092	1	11
601.432	1	-2
601.771	1	1
602.111	1	5
602.451	1	1
602.790	1	5
603.130	1	-9
603.469	1	-11
603.809	1	3
604.148	1	-5
604.487	1	-4
604.827	1	6
605.166	1	-7
605.506	1	5
605.845	1	10
606.185	1	8
606.524	1	-2
606.864	1	-1
607.203	1	-3
607.543	1	-2
607.882	1	4
608.222	1	1
608.561	1	1
608.901	1	-4
609.240	1	-4
609.579	1	10
609.919	1	13
610.258	1	-3
610.598	1	6
610.937	1	-5
611.277	1	-10
611.616	1	1
611.955	1	2
612.295	1	0
612.634	1	-8
612.974	1	-20
613.313	1	2
613.652	1	1
613.992	1	-15
614.331	1	0
614.671	1	4
615.010	1	-13
615.349	1	8
615.689	1	-2
616.028	1	-4
616.368	1	-3
616.707	1	0
617.046	1	5
617.386	1	-4
617.725	1	5
618.064	1	-11
618.404	1	-10
618.743	1	-7
619.082	1	1
619.422	1	-4
619.761	1	5
620.100	1	5
620.440	1	1
620.779	1	0
621.118	1	-11
621.458	1	6
621.797	1	-1
622.136	1	10
622.476	1	0
622.815	1	1
623.154	1	4
623.494	1	3
623.833	1	0
624.172	1	-16
624.511	1	0
624.851	1	-14
625.190	1	4
625.529	1	-6
625.869	1	3
626.208	1	-10
626.547	1	-2
626.886	1	-1
627.226	1	1
627.565	1	0
627.904	1	5
628.243	1	4
628.583	1	-6
628.922	1	3
629.261	1	4
629.600	1	4
629.940	1	-7
630.279	1	-6
630.618	1	-4
630.957	1	-6
631.297	1	-11
631.636	1	-3
631.975	1	9
632.314	1	-4
632.653	1	7
632.993	1	-2
633.332	1	-7
633.671	1	-13
634.010	1	-7
634.349	1	10
634.689	1	-5
635.028	1	7
635.367	1	0
635.706	1	-5
636.045	1	15
636.384	1	5
636.724	1	-3
637.063	1	-2
637.402	1	1
637.741	1	-3
638.080	1	-3
638.419	1	2
638.759	1	-10
639.098	1	-3
639.437	1	-3
639.776	1	-4
640.115	1	-5
640.454	1	0
640.793	1	4
641.132	1	3
641.472	1	-2
641.811	1	-6
642.150	1	-12
642.489	1	3
642.828	1	-6
643.167	1	-6
643.506	1	1
643.845	1	-10
644.184	1	0
644.524	1	-9
644.863	1	-6
645.202	1	-2
645.541	1	1
645.880	1	0
646.219	1	9
646.558	1	-4
646.897	1	4
647.236	1	-8
647.575	1	-5
647.914	1	-3
648.253	1	3
648.592	1	-5
648.931	1	2
649.270	1	-8
649.610	1	-2
649.949	1	-2
650.288	1	7
650.627	1	-3
650.966	1	-1
651.305	1	-4
651.644	1	-1
651.983	1	-3
652.322	1	-6
652.661	1	-9
653.000	1	2
653.339	1	7
653.678	1	0
654.017	1	-5
654.356	1	-3
654.695	1	1
655.034	1	1
655.373	1	3
655.712	1	5
656.051	1	-4
656.390	1	-15
656.729	1	2
657.068	1	3
657.406	1	-6
657.745	1	-9
658.084	1	0
658.423	1	9
658.762	1	-6
659.101	1	3
659.440	1	6
659.779	1	-6
660.118	1	9
660.457	1	-2
660.796	1	-4
661.135	1	-5
661.474	1	-6
661.813	1	13
662.152	1	-1
662.491	1	-4
662.829	1	-14
663.168	1	4
663.507	1	13
663.846	1	-9
664.185	1	2
664.524	1	3
664.863	1	-1
665.202	1	7
665.541	1	-6
665.879	1	-5
666.218	1	-5
666.557	1	2
666.896	1	-3
667.235	1	3
667.574	1	1
667.913	1	4
668.251	1	-6
668.590	1	3
668.929	1	-11
669.268	1	-12
669.607	1	-2
669.946	1	-6
670.285	1	5
670.623	1	-1
670.962	1	-4
671.301	1	-3
671.640	1	2
671.979	1	-3
672.317	1	5
672.656	1	-6
672.995	1	6
673.334	1	-1
673.673	1	1
674.011	1	-4
674.350	1	-3
674.689	1	-2
675.028	1	-5
675.367	1	-2
675.705	1	6
676.044	1	-1
676.383	1	-6
676.722	1	-2
677.060	1	-1
677.399	1	-8
677.738	1	0
678.077	1	3
678.416	1	-2
678.754	1	-3
679.093	1	7
679.432	1	-3
679.771	1	1
680.109	1	0
680.448	1	-6
680.787	1	-2
681.125	1	-1
681.464	1	-2
681.803	1	-3
682.142	1	5
682.480	1	7
682.819	1	-4
683.158	1	3
683.496	1	3
683.835	1	-7
684.174	1	-3
684.512	1	6
684.851	1	3
685.190	1	2
685.529	1	-5
685.867	1	-1
686.206	1	-3
686.545	1	-4
686.883	1	-9
687.222	1	-1
687.561	1	2
687.899	1	-3
688.238	1	15
688.577	1	-16
688.746	1	-2