File: Data/GaN_200K_800ms/GaN_sample F_spot 12_UVVIS_200 K_200um_800 ms 2x2mm1_269.txt
340.368	1	-1
340.710	1	-13
341.052	1	3
341.394	1	-2
341.737	1	8
342.079	1	-1
342.421	1	7
342.763	1	-1
343.105	1	-5
343.447	1	-12
343.789	1	1
344.131	1	1
344.473	1	-9
344.815	1	1
345.157	1	-14
345.499	1	7
345.841	1	6
346.183	1	-1
346.526	1	-7
346.868	1	4
347.210	1	-1
347.552	1	2
347.894	1	-3
348.236	1	11
348.578	1	-4
348.920	1	-8
349.262	1	-1
349.604	1	5
349.946	1	-7
350.288	1	6
350.630	1	8
350.972	1	4
351.314	1	5
351.656	1	2
351.998	1	10
352.340	1	2
352.682	1	11
353.024	1	-5
353.366	1	11
353.708	1	-6
354.050	1	-9
354.392	1	-2
354.734	1	2
355.076	1	17
355.418	1	-4
355.760	1	2
356.102	1	10
356.444	1	-1
356.785	1	8
357.127	1	2
357.469	1	6
357.811	1	-4
358.153	1	6
358.495	1	7
358.837	1	-5
359.179	1	7
359.521	1	12
359.863	1	8
360.205	1	-3
360.547	1	2
360.889	1	3
361.231	1	3
361.572	1	2
361.914	1	6
362.256	1	16
362.598	1	2
362.940	1	8
363.282	1	7
363.624	1	14
363.966	1	5
364.308	1	10
364.649	1	4
364.991	1	4
365.333	1	3
365.675	1	6
366.017	1	19
366.359	1	11
366.701	1	15
367.042	1	13
367.384	1	21
367.726	1	7
368.068	1	22
368.410	1	31
368.752	1	9
369.093	1	19
369.435	1	24
369.777	1	25
370.119	1	17
370.461	1	26
370.803	1	32
371.144	1	24
371.486	1	21
371.828	1	11
372.170	1	15
372.512	1	1
372.853	1	30
373.195	1	14
373.537	1	14
373.879	1	12
374.220	1	24
374.562	1	20
374.904	1	10
375.246	1	18
375.588	1	11
375.929	1	13
376.271	1	25
376.613	1	0
376.955	1	4
377.296	1	6
377.638	1	7
377.980	1	11
378.321	1	6
378.663	1	0
379.005	1	11
379.347	1	3
379.688	1	14
380.030	1	1
380.372	1	6
380.714	1	8
381.055	1	19
381.397	1	-2
381.739	1	10
382.080	1	4
382.422	1	0
382.764	1	0
383.105	1	0
383.447	1	4
383.789	1	9
384.130	1	6
384.472	1	5
384.814	1	4
385.156	1	-8
385.497	1	8
385.839	1	7
386.180	1	8
386.522	1	15
386.864	1	2
387.205	1	-1
387.547	1	2
387.889	1	1
388.230	1	13
388.572	1	3
388.914	1	3
389.255	1	-3
389.597	1	3
389.939	1	5
390.280	1	5
390.622	1	-5
390.963	1	7
391.305	1	-3
391.647	1	-2
391.988	1	5
392.330	1	7
392.671	1	-2
393.013	1	-1
393.355	1	5
393.696	1	11
394.038	1	7
394.379	1	-6
394.721	1	5
395.062	1	7
395.404	1	6
395.746	1	1
396.087	1	-3
396.429	1	-3
396.770	1	5
397.112	1	7
397.453	1	10
397.795	1	2
398.136	1	-9
398.478	1	6
398.819	1	9
399.161	1	9
399.503	1	10
399.844	1	2
400.186	1	-1
400.527	1	-2
400.869	1	1
401.210	1	9
401.552	1	-9
401.893	1	-2
402.235	1	3
402.576	1	-6
402.918	1	9
403.259	1	7
403.601	1	3
403.942	1	8
404.284	1	4
404.625	1	10
404.967	1	5
405.308	1	1
405.649	1	-2
405.991	1	-5
406.332	1	4
406.674	1	0
407.015	1	1
407.357	1	-4
407.698	1	8
408.040	1	3
408.381	1	4
408.722	1	-17
409.064	1	-1
409.405	1	6
409.747	1	-2
410.088	1	4
410.430	1	10
410.771	1	7
411.112	1	-10
411.454	1	0
411.795	1	0
412.137	1	10
412.478	1	12
412.819	1	2
413.161	1	-2
413.502	1	-3
413.844	1	2
414.185	1	-2
414.526	1	-3
414.868	1	8
415.209	1	4
415.550	1	-5
415.892	1	-9
416.233	1	3
416.575	1	6
416.916	1	2
417.257	1	-4
417.599	1	3
417.940	1	-3
418.281	1	2
418.623	1	1
418.964	1	-4
419.305	1	7
419.647	1	-4
419.988	1	-6
420.329	1	-10
420.671	1	0
421.012	1	6
421.353	1	-14
421.695	1	2
422.036	1	1
422.377	1	-1
422.718	1	6
423.060	1	-3
423.401	1	5
423.742	1	2
424.084	1	1
424.425	1	3
424.766	1	-4
425.107	1	-9
425.449	1	10
425.790	1	-9
426.131	1	1
426.472	1	1
426.814	1	7
427.155	1	-2
427.496	1	-5
427.837	1	-1
428.179	1	-5
428.520	1	0
428.861	1	-2
429.202	1	0
429.544	1	0
429.885	1	-2
430.226	1	-2
430.567	1	-1
430.909	1	4
431.250	1	0
431.591	1	10
431.932	1	-7
432.273	1	-8
432.615	1	-8
432.956	1	3
433.297	1	4
433.638	1	-6
433.979	1	4
434.320	1	-3
434.662	1	2
435.003	1	0
435.344	1	5
435.685	1	-7
436.026	1	8
436.368	1	9
436.709	1	0
437.050	1	-12
437.391	1	12
437.732	1	4
438.073	1	0
438.414	1	-4
438.756	1	-8
439.097	1	-5
439.438	1	-4
439.779	1	-8
440.120	1	2
440.461	1	3
440.802	1	-10
441.143	1	-1
441.485	1	4
441.826	1	-1
442.167	1	5
442.508	1	-5
442.849	1	12
443.190	1	3
443.531	1	12
443.872	1	8
444.213	1	-4
444.554	1	16
444.895	1	-5
445.237	1	-6
445.578	1	-10
445.919	1	-4
446.260	1	2
446.601	1	-4
446.942	1	-8
447.283	1	-3
447.624	1	4
447.965	1	10
448.306	1	2
448.647	1	-11
448.988	1	-1
449.329	1	3
449.670	1	12
450.011	1	7
450.352	1	0
450.693	1	1
451.034	1	-7
451.375	1	-1
451.716	1	-8
452.057	1	14
452.398	1	4
452.739	1	5
453.080	1	-9
453.421	1	-3
453.762	1	4
454.103	1	2
454.444	1	-9
454.785	1	-3
455.126	1	-10
455.467	1	-5
455.808	1	1
456.149	1	3
456.490	1	-4
456.831	1	7
457.172	1	-3
457.513	1	12
457.854	1	-11
458.195	1	-5
458.536	1	1
458.877	1	4
459.218	1	0
459.559	1	11
459.899	1	2
460.240	1	5
460.581	1	14
460.922	1	2
461.263	1	-3
461.604	1	-4
461.945	1	0
462.286	1	-6
462.627	1	5
462.968	1	5
463.309	1	-2
463.649	1	0
463.990	1	-9
464.331	1	-3
464.672	1	-1
465.013	1	-5
465.354	1	-11
465.695	1	-8
466.036	1	-7
466.376	1	-1
466.717	1	-4
467.058	1	1
467.399	1	10
467.740	1	2
468.081	1	8
468.422	1	-4
468.762	1	-6
469.103	1	-12
469.444	1	-9
469.785	1	-18
470.126	1	-10
470.467	1	-4
470.807	1	-8
471.148	1	-9
471.489	1	1
471.830	1	-6
472.171	1	4
472.511	1	-2
472.852	1	-5
473.193	1	7
473.534	1	9
473.875	1	13
474.215	1	11
474.556	1	2
474.897	1	5
475.238	1	4
475.578	1	-9
475.919	1	3
476.260	1	-4
476.601	1	6
476.942	1	3
477.282	1	4
477.623	1	-5
477.964	1	-10
478.305	1	2
478.645	1	6
478.986	1	-2
479.327	1	-4
479.667	1	-2
480.008	1	-6
480.349	1	-5
480.690	1	3
481.030	1	-13
481.371	1	1
481.712	1	3
482.053	1	0
482.393	1	-6
482.734	1	-4
483.075	1	-4
483.415	1	3
483.756	1	5
484.097	1	-4
484.437	1	-9
484.778	1	5
485.119	1	-3
485.459	1	5
485.800	1	2
486.141	1	-6
486.481	1	-1
486.822	1	6
487.163	1	-2
487.503	1	3
487.844	1	3
488.185	1	-1
488.525	1	-1
488.866	1	4
489.207	1	6
489.547	1	-3
489.888	1	-3
490.228	1	8
490.569	1	12
490.910	1	3
491.250	1	-4
491.591	1	-5
491.932	1	-3
492.272	1	5
492.613	1	-6
492.953	1	-5
493.294	1	-3
493.635	1	-1
493.975	1	2
494.316	1	-5
494.656	1	-3
494.997	1	-3
495.337	1	4
495.678	1	-6
496.019	1	2
496.359	1	-2
496.700	1	1
497.040	1	-2
497.381	1	0
497.721	1	4
498.062	1	-5
498.403	1	-1
498.743	1	-7
499.084	1	6
499.424	1	-12
499.765	1	1
500.105	1	0
500.446	1	-7
500.786	1	-9
501.127	1	-1
501.467	1	-7
501.808	1	3
502.148	1	2
502.489	1	7
502.829	1	-5
503.170	1	8
503.510	1	4
503.851	1	9
504.191	1	0
504.532	1	5
504.872	1	0
505.213	1	6
505.553	1	-2
505.894	1	-12
506.234	1	12
506.575	1	-1
506.915	1	5
507.256	1	-3
507.596	1	3
507.936	1	7
508.277	1	-3
508.617	1	-2
508.958	1	-6
509.298	1	6
509.639	1	-2
509.979	1	-5
510.319	1	11
510.660	1	0
511.000	1	-6
511.341	1	-9
511.681	1	2
512.022	1	-4
512.362	1	-12
512.702	1	-11
513.043	1	3
513.383	1	-7
513.724	1	4
514.064	1	5
514.404	1	2
514.745	1	8
515.085	1	4
515.425	1	0
515.766	1	-6
516.106	1	2
516.447	1	7
516.787	1	12
517.127	1	-2
517.468	1	-2
517.808	1	-9
518.148	1	7
518.489	1	0
518.829	1	5
519.169	1	6
519.510	1	-2
519.850	1	9
520.190	1	4
520.531	1	6
520.871	1	3
521.211	1	-5
521.552	1	7
521.892	1	0
522.232	1	4
522.573	1	1
522.913	1	5
523.253	1	6
523.593	1	-4
523.934	1	3
524.274	1	4
524.614	1	6
524.955	1	2
525.295	1	10
525.635	1	-4
525.975	1	6
526.316	1	7
526.656	1	7
526.996	1	3
527.337	1	-13
527.677	1	-5
528.017	1	-3
528.357	1	0
528.698	1	4
529.038	1	11
529.378	1	9
529.718	1	4
530.058	1	4
530.399	1	9
530.739	1	10
531.079	1	4
531.419	1	10
531.760	1	1
532.100	1	-8
532.440	1	-2
532.780	1	-6
533.120	1	4
533.461	1	5
533.801	1	8
534.141	1	-8
534.481	1	-8
534.821	1	7
535.162	1	9
535.502	1	-6
535.842	1	6
536.182	1	1
536.522	1	-9
536.862	1	4
537.203	1	-4
537.543	1	-4
537.883	1	-1
538.223	1	-7
538.563	1	8
538.903	1	-7
539.243	1	-1
539.584	1	3
539.924	1	10
540.264	1	-8
540.604	1	2
540.944	1	1
541.284	1	11
541.624	1	1
541.964	1	-2
542.305	1	9
542.645	1	2
542.985	1	-2
543.325	1	-2
543.665	1	17
544.005	1	8
544.345	1	8
544.685	1	2
545.025	1	-2
545.365	1	0
545.705	1	-1
546.045	1	-10
546.386	1	5
546.726	1	-12
547.066	1	4
547.406	1	5
547.746	1	-5
548.086	1	7
548.426	1	0
548.766	1	2
549.106	1	12
549.446	1	7
549.786	1	-4
550.126	1	11
550.466	1	-1
550.806	1	0
551.146	1	0
551.486	1	-5
551.826	1	1
552.166	1	0
552.506	1	13
552.846	1	0
553.186	1	7
553.526	1	-2
553.866	1	2
554.206	1	8
554.546	1	3
554.886	1	8
555.226	1	-4
555.566	1	1
555.906	1	9
556.246	1	-2
556.586	1	4
556.926	1	3
557.266	1	-5
557.606	1	12
557.946	1	4
558.286	1	0
558.626	1	9
558.966	1	3
559.306	1	-2
559.646	1	2
559.986	1	2
560.325	1	-2
560.665	1	2
561.005	1	-6
561.345	1	1
561.685	1	4
562.025	1	5
562.365	1	12
562.705	1	-4
563.045	1	-2
563.385	1	0
563.725	1	7
564.064	1	2
564.404	1	12
564.744	1	3
565.084	1	-6
565.424	1	5
565.764	1	-10
566.104	1	-1
566.444	1	-4
566.783	1	-4
567.123	1	7
567.463	1	-7
567.803	1	-3
568.143	1	-6
568.483	1	-2
568.823	1	-2
569.162	1	-4
569.502	1	0
569.842	1	8
570.182	1	4
570.522	1	-7
570.862	1	5
571.201	1	3
571.541	1	9
571.881	1	4
572.221	1	-2
572.561	1	0
572.900	1	-4
573.240	1	-6
573.580	1	0
573.920	1	14
574.260	1	4
574.599	1	-5
574.939	1	2
575.279	1	15
575.619	1	18
575.959	1	-6
576.298	1	6
576.638	1	-1
576.978	1	9
577.318	1	5
577.657	1	2
577.997	1	2
578.337	1	16
578.677	1	7
579.016	1	10
579.356	1	-5
579.696	1	4
580.036	1	4
580.375	1	7
580.715	1	2
581.055	1	1
581.394	1	2
581.734	1	-8
582.074	1	-5
582.414	1	15
582.753	1	0
583.093	1	-12
583.433	1	-8
583.772	1	8
584.112	1	1
584.452	1	10
584.791	1	-6
585.131	1	7
585.471	1	17
585.811	1	3
586.150	1	-1
586.490	1	5
586.830	1	2
587.169	1	10
587.509	1	-3
587.849	1	4
588.188	1	0
588.528	1	-8
588.867	1	13
589.207	1	8
589.547	1	-4
589.886	1	-3
590.226	1	8
590.566	1	-3
590.905	1	2
591.245	1	0
591.585	1	2
591.924	1	-1
592.264	1	5
592.603	1	4
592.943	1	4
593.283	1	1
593.622	1	2
593.962	1	-2
594.301	1	0
594.641	1	-5
594.981	1	-6
595.320	1	3
595.660	1	-3
595.999	1	-3
596.339	1	10
596.678	1	-7
597.018	1	-4
597.358	1	8
597.697	1	-4
598.037	1	7
598.376	1	3
598.716	1	2
599.055	1	3
599.395	1	-6
599.734	1	3
600.074	1	-2
600.413	1	10
600.753	1	5
601.092	1	11
601.432	1	-6
601.771	1	2
602.111	1	3
602.451	1	10
602.790	1	5
603.130	1	-1
603.469	1	-8
603.809	1	3
604.148	1	4
604.487	1	-6
604.827	1	12
605.166	1	4
605.506	1	9
605.845	1	0
606.185	1	8
606.524	1	-4
606.864	1	2
607.203	1	-12
607.543	1	-2
607.882	1	2
608.222	1	8
608.561	1	5
608.901	1	5
609.240	1	-2
609.579	1	12
609.919	1	17
610.258	1	9
610.598	1	0
610.937	1	3
611.277	1	-9
611.616	1	-3
611.955	1	-5
612.295	1	-10
612.634	1	-6
612.974	1	-5
613.313	1	13
613.652	1	2
613.992	1	4
614.331	1	-1
614.671	1	4
615.010	1	-5
615.349	1	9
615.689	1	7
616.028	1	7
616.368	1	-1
616.707	1	1
617.046	1	-4
617.386	1	3
617.725	1	4
618.064	1	-7
618.404	1	-8
618.743	1	6
619.082	1	0
619.422	1	-1
619.761	1	-1
620.100	1	13
620.440	1	-2
620.779	1	-5
621.118	1	-8
621.458	1	2
621.797	1	-2
622.136	1	0
622.476	1	2
622.815	1	8
623.154	1	2
623.494	1	12
623.833	1	4
624.172	1	-3
624.511	1	-4
624.851	1	-10
625.190	1	1
625.529	1	0
625.869	1	2
626.208	1	-4
626.547	1	1
626.886	1	0
627.226	1	6
627.565	1	2
627.904	1	-5
628.243	1	-1
628.583	1	-7
628.922	1	2
629.261	1	9
629.600	1	4
629.940	1	11
630.279	1	-15
630.618	1	-1
630.957	1	2
631.297	1	7
631.636	1	-12
631.975	1	12
632.314	1	6
632.653	1	4
632.993	1	-8
633.332	1	-6
633.671	1	-8
634.010	1	-1
634.349	1	8
634.689	1	-8
635.028	1	4
635.367	1	0
635.706	1	0
636.045	1	15
636.384	1	-3
636.724	1	-1
637.063	1	7
637.402	1	3
637.741	1	-3
638.080	1	-1
638.419	1	-6
638.759	1	-12
639.098	1	8
639.437	1	3
639.776	1	-8
640.115	1	-7
640.454	1	1
640.793	1	7
641.132	1	0
641.472	1	5
641.811	1	8
642.150	1	0
642.489	1	16
642.828	1	-10
643.167	1	4
643.506	1	-3
643.845	1	4
644.184	1	3
644.524	1	-2
644.863	1	-8
645.202	1	2
645.541	1	-13
645.880	1	2
646.219	1	0
646.558	1	-8
646.897	1	4
647.236	1	-2
647.575	1	1
647.914	1	-4
648.253	1	3
648.592	1	2
648.931	1	-1
649.270	1	-2
649.610	1	-4
649.949	1	-3
650.288	1	7
650.627	1	1
650.966	1	11
651.305	1	-1
651.644	1	15
651.983	1	5
652.322	1	3
652.661	1	3
653.000	1	-8
653.339	1	4
653.678	1	0
654.017	1	2
654.356	1	-2
654.695	1	9
655.034	1	6
655.373	1	2
655.712	1	2
656.051	1	1
656.390	1	-2
656.729	1	6
657.068	1	9
657.406	1	-4
657.745	1	-4
658.084	1	0
658.423	1	12
658.762	1	1
659.101	1	1
659.440	1	2
659.779	1	-5
660.118	1	-2
660.457	1	-2
660.796	1	-8
661.135	1	-1
661.474	1	2
661.813	1	3
662.152	1	7
662.491	1	-8
662.829	1	3
663.168	1	10
663.507	1	5
663.846	1	-4
664.185	1	-5
664.524	1	-1
664.863	1	-7
665.202	1	2
665.541	1	-6
665.879	1	-8
666.218	1	1
666.557	1	-2
666.896	1	-6
667.235	1	2
667.574	1	2
667.913	1	0
668.251	1	-3
668.590	1	-8
668.929	1	-6
669.268	1	-3
669.607	1	-5
669.946	1	2
670.285	1	8
670.623	1	0
670.962	1	1
671.301	1	-2
671.640	1	3
671.979	1	-2
672.317	1	-3
672.656	1	1
672.995	1	7
673.334	1	-2
673.673	1	-1
674.011	1	-6
674.350	1	9
674.689	1	0
675.028	1	-4
675.367	1	16
675.705	1	6
676.044	1	-4
676.383	1	4
676.722	1	-1
677.060	1	-5
677.399	1	-1
677.738	1	2
678.077	1	5
678.416	1	0
678.754	1	-2
679.093	1	0
679.432	1	1
679.771	1	2
680.109	1	7
680.448	1	-10
680.787	1	-2
681.125	1	3
681.464	1	-3
681.803	1	-5
682.142	1	7
682.480	1	3
682.819	1	-3
683.158	1	5
683.496	1	4
683.835	1	1
684.174	1	7
684.512	1	0
684.851	1	9
685.190	1	3
685.529	1	3
685.867	1	1
686.206	1	-2
686.545	1	-4
686.883	1	2
687.222	1	-2
687.561	1	10
687.899	1	-10
688.238	1	8
688.577	1	-2
688.746	1	1