File: Data/GaN_200K_800ms/GaN_sample F_spot 12_UVVIS_200 K_200um_800 ms 2x2mm1_276.txt
340.368	1	-3
340.710	1	-14
341.052	1	4
341.394	1	-3
341.737	1	5
342.079	1	-10
342.421	1	-6
342.763	1	-5
343.105	1	2
343.447	1	1
343.789	1	-3
344.131	1	-4
344.473	1	0
344.815	1	3
345.157	1	-6
345.499	1	4
345.841	1	16
346.183	1	-3
346.526	1	-10
346.868	1	-5
347.210	1	-3
347.552	1	-12
347.894	1	-5
348.236	1	4
348.578	1	-2
348.920	1	1
349.262	1	0
349.604	1	4
349.946	1	3
350.288	1	8
350.630	1	-1
350.972	1	1
351.314	1	-8
351.656	1	7
351.998	1	6
352.340	1	-3
352.682	1	2
353.024	1	9
353.366	1	10
353.708	1	2
354.050	1	-14
354.392	1	-2
354.734	1	-2
355.076	1	-2
355.418	1	-2
355.760	1	-4
356.102	1	7
356.444	1	4
356.785	1	18
357.127	1	7
357.469	1	1
357.811	1	3
358.153	1	10
358.495	1	-3
358.837	1	-12
359.179	1	-2
359.521	1	10
359.863	1	4
360.205	1	-4
360.547	1	2
360.889	1	-3
361.231	1	-5
361.572	1	13
361.914	1	6
362.256	1	11
362.598	1	5
362.940	1	9
363.282	1	7
363.624	1	10
363.966	1	6
364.308	1	7
364.649	1	9
364.991	1	-6
365.333	1	-1
365.675	1	9
366.017	1	13
366.359	1	11
366.701	1	21
367.042	1	11
367.384	1	19
367.726	1	16
368.068	1	19
368.410	1	33
368.752	1	5
369.093	1	12
369.435	1	23
369.777	1	13
370.119	1	14
370.461	1	34
370.803	1	22
371.144	1	17
371.486	1	27
371.828	1	21
372.170	1	23
372.512	1	14
372.853	1	5
373.195	1	14
373.537	1	19
373.879	1	12
374.220	1	28
374.562	1	18
374.904	1	22
375.246	1	16
375.588	1	10
375.929	1	12
376.271	1	12
376.613	1	6
376.955	1	6
377.296	1	9
377.638	1	12
377.980	1	5
378.321	1	4
378.663	1	1
379.005	1	13
379.347	1	2
379.688	1	9
380.030	1	9
380.372	1	8
380.714	1	11
381.055	1	11
381.397	1	5
381.739	1	6
382.080	1	5
382.422	1	7
382.764	1	5
383.105	1	-4
383.447	1	8
383.789	1	-10
384.130	1	8
384.472	1	-5
384.814	1	9
385.156	1	1
385.497	1	10
385.839	1	6
386.180	1	-1
386.522	1	9
386.864	1	2
387.205	1	1
387.547	1	-1
387.889	1	8
388.230	1	11
388.572	1	2
388.914	1	2
389.255	1	-14
389.597	1	8
389.939	1	5
390.280	1	12
390.622	1	-2
390.963	1	8
391.305	1	7
391.647	1	-4
391.988	1	6
392.330	1	5
392.671	1	0
393.013	1	-3
393.355	1	7
393.696	1	-1
394.038	1	4
394.379	1	4
394.721	1	-6
395.062	1	4
395.404	1	-1
395.746	1	7
396.087	1	5
396.429	1	1
396.770	1	-7
397.112	1	9
397.453	1	18
397.795	1	2
398.136	1	-3
398.478	1	-4
398.819	1	4
399.161	1	16
399.503	1	6
399.844	1	8
400.186	1	2
400.527	1	4
400.869	1	-4
401.210	1	0
401.552	1	-6
401.893	1	4
402.235	1	3
402.576	1	-6
402.918	1	5
403.259	1	6
403.601	1	-2
403.942	1	0
404.284	1	4
404.625	1	-1
404.967	1	-6
405.308	1	0
405.649	1	3
405.991	1	-2
406.332	1	-4
406.674	1	1
407.015	1	-2
407.357	1	-6
407.698	1	9
408.040	1	-4
408.381	1	2
408.722	1	-19
409.064	1	4
409.405	1	9
409.747	1	9
410.088	1	-5
410.430	1	6
410.771	1	8
411.112	1	-10
411.454	1	5
411.795	1	-3
412.137	1	4
412.478	1	13
412.819	1	-1
413.161	1	3
413.502	1	2
413.844	1	3
414.185	1	6
414.526	1	-5
414.868	1	-6
415.209	1	-1
415.550	1	-6
415.892	1	-9
416.233	1	9
416.575	1	13
416.916	1	-4
417.257	1	-6
417.599	1	1
417.940	1	7
418.281	1	1
418.623	1	-8
418.964	1	-6
419.305	1	-4
419.647	1	-1
419.988	1	-3
420.329	1	-7
420.671	1	6
421.012	1	4
421.353	1	-9
421.695	1	-7
422.036	1	5
422.377	1	-9
422.718	1	-1
423.060	1	-10
423.401	1	11
423.742	1	2
424.084	1	4
424.425	1	0
424.766	1	5
425.107	1	0
425.449	1	2
425.790	1	-4
426.131	1	-3
426.472	1	-2
426.814	1	6
427.155	1	2
427.496	1	-9
427.837	1	-8
428.179	1	-1
428.520	1	1
428.861	1	-4
429.202	1	-1
429.544	1	2
429.885	1	7
430.226	1	-2
430.567	1	-4
430.909	1	-2
431.250	1	0
431.591	1	0
431.932	1	2
432.273	1	-2
432.615	1	-14
432.956	1	-5
433.297	1	4
433.638	1	-2
433.979	1	-4
434.320	1	5
434.662	1	3
435.003	1	8
435.344	1	-4
435.685	1	-1
436.026	1	0
436.368	1	8
436.709	1	-1
437.050	1	2
437.391	1	-2
437.732	1	3
438.073	1	5
438.414	1	-6
438.756	1	4
439.097	1	-5
439.438	1	2
439.779	1	5
440.120	1	-5
440.461	1	-2
440.802	1	0
441.143	1	6
441.485	1	-4
441.826	1	3
442.167	1	3
442.508	1	-8
442.849	1	4
443.190	1	2
443.531	1	4
443.872	1	8
444.213	1	2
444.554	1	6
444.895	1	7
445.237	1	-4
445.578	1	-11
445.919	1	-9
446.260	1	-5
446.601	1	-5
446.942	1	1
447.283	1	-5
447.624	1	-1
447.965	1	1
448.306	1	-7
448.647	1	-5
448.988	1	-2
449.329	1	-3
449.670	1	10
450.011	1	6
450.352	1	-2
450.693	1	1
451.034	1	-3
451.375	1	0
451.716	1	-1
452.057	1	-2
452.398	1	-6
452.739	1	8
453.080	1	-6
453.421	1	0
453.762	1	-2
454.103	1	1
454.444	1	-11
454.785	1	-8
455.126	1	-3
455.467	1	13
455.808	1	3
456.149	1	5
456.490	1	1
456.831	1	6
457.172	1	-1
457.513	1	7
457.854	1	-7
458.195	1	-10
458.536	1	-2
458.877	1	0
459.218	1	2
459.559	1	0
459.899	1	1
460.240	1	-4
460.581	1	7
460.922	1	5
461.263	1	-2
461.604	1	-1
461.945	1	-1
462.286	1	4
462.627	1	1
462.968	1	4
463.309	1	-12
463.649	1	3
463.990	1	2
464.331	1	0
464.672	1	-1
465.013	1	-2
465.354	1	2
465.695	1	-3
466.036	1	-5
466.376	1	-6
466.717	1	-9
467.058	1	1
467.399	1	-1
467.740	1	-10
468.081	1	5
468.422	1	-8
468.762	1	-9
469.103	1	-14
469.444	1	-8
469.785	1	-4
470.126	1	-10
470.467	1	-6
470.807	1	10
471.148	1	9
471.489	1	-6
471.830	1	-1
472.171	1	4
472.511	1	-9
472.852	1	-6
473.193	1	4
473.534	1	10
473.875	1	7
474.215	1	8
474.556	1	3
474.897	1	10
475.238	1	5
475.578	1	-10
475.919	1	-1
476.260	1	-1
476.601	1	-6
476.942	1	19
477.282	1	-1
477.623	1	-7
477.964	1	4
478.305	1	-2
478.645	1	5
478.986	1	-2
479.327	1	-2
479.667	1	5
480.008	1	1
480.349	1	-1
480.690	1	6
481.030	1	-18
481.371	1	-7
481.712	1	-6
482.053	1	-10
482.393	1	-8
482.734	1	-6
483.075	1	0
483.415	1	-1
483.756	1	4
484.097	1	-3
484.437	1	-3
484.778	1	5
485.119	1	-6
485.459	1	11
485.800	1	-1
486.141	1	-8
486.481	1	4
486.822	1	6
487.163	1	-1
487.503	1	7
487.844	1	8
488.185	1	4
488.525	1	-1
488.866	1	-1
489.207	1	-9
489.547	1	1
489.888	1	-10
490.228	1	4
490.569	1	3
490.910	1	3
491.250	1	-4
491.591	1	-11
491.932	1	1
492.272	1	-6
492.613	1	-4
492.953	1	-4
493.294	1	1
493.635	1	-5
493.975	1	-5
494.316	1	-3
494.656	1	0
494.997	1	-2
495.337	1	10
495.678	1	0
496.019	1	-5
496.359	1	0
496.700	1	7
497.040	1	2
497.381	1	1
497.721	1	-4
498.062	1	7
498.403	1	-4
498.743	1	1
499.084	1	0
499.424	1	1
499.765	1	-8
500.105	1	-6
500.446	1	-10
500.786	1	-3
501.127	1	7
501.467	1	-9
501.808	1	-7
502.148	1	-2
502.489	1	7
502.829	1	-5
503.170	1	10
503.510	1	4
503.851	1	4
504.191	1	9
504.532	1	1
504.872	1	-4
505.213	1	2
505.553	1	-5
505.894	1	-13
506.234	1	8
506.575	1	8
506.915	1	13
507.256	1	7
507.596	1	7
507.936	1	2
508.277	1	-1
508.617	1	-1
508.958	1	-10
509.298	1	-8
509.639	1	-4
509.979	1	-3
510.319	1	-2
510.660	1	-2
511.000	1	-6
511.341	1	6
511.681	1	5
512.022	1	-12
512.362	1	-1
512.702	1	-4
513.043	1	9
513.383	1	-12
513.724	1	1
514.064	1	11
514.404	1	0
514.745	1	-2
515.085	1	0
515.425	1	3
515.766	1	-1
516.106	1	7
516.447	1	3
516.787	1	7
517.127	1	-5
517.468	1	7
517.808	1	0
518.148	1	0
518.489	1	-9
518.829	1	5
519.169	1	0
519.510	1	-1
519.850	1	9
520.190	1	-5
520.531	1	2
520.871	1	1
521.211	1	-8
521.552	1	15
521.892	1	-6
522.232	1	7
522.573	1	2
522.913	1	6
523.253	1	-3
523.593	1	-1
523.934	1	5
524.274	1	3
524.614	1	-3
524.955	1	-6
525.295	1	4
525.635	1	-3
525.975	1	0
526.316	1	13
526.656	1	4
526.996	1	6
527.337	1	2
527.677	1	5
528.017	1	-10
528.357	1	1
528.698	1	-2
529.038	1	0
529.378	1	0
529.718	1	2
530.058	1	-2
530.399	1	6
530.739	1	7
531.079	1	8
531.419	1	10
531.760	1	8
532.100	1	-7
532.440	1	3
532.780	1	-7
533.120	1	12
533.461	1	4
533.801	1	7
534.141	1	-12
534.481	1	-14
534.821	1	3
535.162	1	-7
535.502	1	-6
535.842	1	6
536.182	1	-2
536.522	1	-2
536.862	1	-3
537.203	1	-3
537.543	1	-2
537.883	1	-2
538.223	1	7
538.563	1	7
538.903	1	-13
539.243	1	-3
539.584	1	-5
539.924	1	5
540.264	1	-11
540.604	1	5
540.944	1	-4
541.284	1	3
541.624	1	3
541.964	1	3
542.305	1	6
542.645	1	9
542.985	1	1
543.325	1	-1
543.665	1	6
544.005	1	5
544.345	1	8
544.685	1	-1
545.025	1	5
545.365	1	5
545.705	1	6
546.045	1	-4
546.386	1	7
546.726	1	-7
547.066	1	-3
547.406	1	5
547.746	1	-7
548.086	1	2
548.426	1	-9
548.766	1	7
549.106	1	4
549.446	1	2
549.786	1	-6
550.126	1	9
550.466	1	-5
550.806	1	3
551.146	1	-4
551.486	1	-1
551.826	1	0
552.166	1	-1
552.506	1	9
552.846	1	-4
553.186	1	7
553.526	1	-3
553.866	1	-4
554.206	1	7
554.546	1	13
554.886	1	1
555.226	1	-9
555.566	1	11
555.906	1	1
556.246	1	-1
556.586	1	0
556.926	1	4
557.266	1	-7
557.606	1	4
557.946	1	12
558.286	1	5
558.626	1	0
558.966	1	4
559.306	1	2
559.646	1	11
559.986	1	4
560.325	1	-6
560.665	1	-2
561.005	1	-8
561.345	1	-4
561.685	1	-4
562.025	1	-7
562.365	1	6
562.705	1	0
563.045	1	3
563.385	1	-8
563.725	1	1
564.064	1	8
564.404	1	8
564.744	1	1
565.084	1	-4
565.424	1	11
565.764	1	5
566.104	1	8
566.444	1	1
566.783	1	-2
567.123	1	-5
567.463	1	0
567.803	1	-12
568.143	1	0
568.483	1	0
568.823	1	2
569.162	1	2
569.502	1	5
569.842	1	0
570.182	1	4
570.522	1	-15
570.862	1	0
571.201	1	15
571.541	1	6
571.881	1	13
572.221	1	0
572.561	1	-4
572.900	1	-5
573.240	1	4
573.580	1	-1
573.920	1	4
574.260	1	7
574.599	1	-1
574.939	1	4
575.279	1	13
575.619	1	9
575.959	1	-3
576.298	1	14
576.638	1	0
576.978	1	3
577.318	1	6
577.657	1	-1
577.997	1	3
578.337	1	5
578.677	1	1
579.016	1	6
579.356	1	-1
579.696	1	9
580.036	1	-7
580.375	1	1
580.715	1	-10
581.055	1	-5
581.394	1	2
581.734	1	-4
582.074	1	-3
582.414	1	3
582.753	1	-7
583.093	1	0
583.433	1	-5
583.772	1	8
584.112	1	7
584.452	1	1
584.791	1	-5
585.131	1	6
585.471	1	0
585.811	1	7
586.150	1	-1
586.490	1	11
586.830	1	3
587.169	1	1
587.509	1	-3
587.849	1	2
588.188	1	7
588.528	1	1
588.867	1	7
589.207	1	4
589.547	1	-9
589.886	1	-1
590.226	1	1
590.566	1	-5
590.905	1	-3
591.245	1	5
591.585	1	8
591.924	1	3
592.264	1	-8
592.603	1	-1
592.943	1	8
593.283	1	6
593.622	1	4
593.962	1	9
594.301	1	1
594.641	1	5
594.981	1	-4
595.320	1	8
595.660	1	3
595.999	1	-4
596.339	1	10
596.678	1	-3
597.018	1	-6
597.358	1	6
597.697	1	3
598.037	1	-4
598.376	1	-3
598.716	1	7
599.055	1	3
599.395	1	-3
599.734	1	7
600.074	1	0
600.413	1	7
600.753	1	0
601.092	1	13
601.432	1	-8
601.771	1	6
602.111	1	0
602.451	1	3
602.790	1	0
603.130	1	13
603.469	1	-1
603.809	1	5
604.148	1	9
604.487	1	2
604.827	1	6
605.166	1	2
605.506	1	-7
605.845	1	5
606.185	1	11
606.524	1	3
606.864	1	-2
607.203	1	4
607.543	1	-4
607.882	1	4
608.222	1	-1
608.561	1	3
608.901	1	3
609.240	1	-10
609.579	1	-3
609.919	1	-3
610.258	1	3
610.598	1	4
610.937	1	8
611.277	1	-1
611.616	1	-5
611.955	1	3
612.295	1	-6
612.634	1	6
612.974	1	-8
613.313	1	4
613.652	1	9
613.992	1	-2
614.331	1	5
614.671	1	3
615.010	1	-11
615.349	1	4
615.689	1	8
616.028	1	4
616.368	1	8
616.707	1	-2
617.046	1	5
617.386	1	5
617.725	1	-5
618.064	1	-2
618.404	1	-4
618.743	1	3
619.082	1	0
619.422	1	-5
619.761	1	2
620.100	1	5
620.440	1	-3
620.779	1	-2
621.118	1	-1
621.458	1	6
621.797	1	-10
622.136	1	7
622.476	1	5
622.815	1	10
623.154	1	10
623.494	1	8
623.833	1	-2
624.172	1	-3
624.511	1	-1
624.851	1	-3
625.190	1	2
625.529	1	-3
625.869	1	6
626.208	1	-3
626.547	1	-4
626.886	1	-5
627.226	1	12
627.565	1	1
627.904	1	-1
628.243	1	4
628.583	1	2
628.922	1	4
629.261	1	7
629.600	1	9
629.940	1	9
630.279	1	-6
630.618	1	3
630.957	1	-1
631.297	1	0
631.636	1	-9
631.975	1	5
632.314	1	-1
632.653	1	10
632.993	1	-2
633.332	1	4
633.671	1	-6
634.010	1	-10
634.349	1	12
634.689	1	6
635.028	1	16
635.367	1	-3
635.706	1	1
636.045	1	9
636.384	1	6
636.724	1	10
637.063	1	-5
637.402	1	-1
637.741	1	-6
638.080	1	-1
638.419	1	-3
638.759	1	-7
639.098	1	6
639.437	1	-1
639.776	1	-7
640.115	1	1
640.454	1	1
640.793	1	8
641.132	1	1
641.472	1	9
641.811	1	1
642.150	1	-5
642.489	1	3
642.828	1	-5
643.167	1	0
643.506	1	-6
643.845	1	-5
644.184	1	4
644.524	1	-7
644.863	1	-4
645.202	1	-2
645.541	1	4
645.880	1	5
646.219	1	3
646.558	1	-3
646.897	1	5
647.236	1	4
647.575	1	4
647.914	1	-7
648.253	1	13
648.592	1	2
648.931	1	2
649.270	1	6
649.610	1	1
649.949	1	4
650.288	1	4
650.627	1	2
650.966	1	-3
651.305	1	-4
651.644	1	0
651.983	1	10
652.322	1	-2
652.661	1	-3
653.000	1	9
653.339	1	12
653.678	1	-6
654.017	1	-4
654.356	1	1
654.695	1	7
655.034	1	3
655.373	1	2
655.712	1	-1
656.051	1	-3
656.390	1	-10
656.729	1	11
657.068	1	2
657.406	1	3
657.745	1	-8
658.084	1	4
658.423	1	15
658.762	1	-9
659.101	1	7
659.440	1	-1
659.779	1	1
660.118	1	4
660.457	1	-1
660.796	1	-7
661.135	1	-7
661.474	1	-2
661.813	1	10
662.152	1	1
662.491	1	-8
662.829	1	-10
663.168	1	-8
663.507	1	-1
663.846	1	-4
664.185	1	-1
664.524	1	0
664.863	1	1
665.202	1	-1
665.541	1	-13
665.879	1	1
666.218	1	-3
666.557	1	8
666.896	1	0
667.235	1	-4
667.574	1	0
667.913	1	-2
668.251	1	-8
668.590	1	-8
668.929	1	-5
669.268	1	0
669.607	1	-7
669.946	1	3
670.285	1	-2
670.623	1	-1
670.962	1	-6
671.301	1	-7
671.640	1	-2
671.979	1	-9
672.317	1	0
672.656	1	-3
672.995	1	9
673.334	1	-1
673.673	1	-2
674.011	1	0
674.350	1	-3
674.689	1	4
675.028	1	1
675.367	1	5
675.705	1	-2
676.044	1	11
676.383	1	-4
676.722	1	-1
677.060	1	-11
677.399	1	-2
677.738	1	3
678.077	1	-1
678.416	1	7
678.754	1	1
679.093	1	7
679.432	1	-1
679.771	1	1
680.109	1	11
680.448	1	0
680.787	1	-3
681.125	1	4
681.464	1	-5
681.803	1	-5
682.142	1	10
682.480	1	12
682.819	1	1
683.158	1	1
683.496	1	16
683.835	1	8
684.174	1	-2
684.512	1	6
684.851	1	5
685.190	1	-6
685.529	1	1
685.867	1	-4
686.206	1	-8
686.545	1	4
686.883	1	7
687.222	1	-3
687.561	1	3
687.899	1	-2
688.238	1	-2
688.577	1	1
688.746	1	2