File: Data/GaN_200K_800ms/GaN_sample F_spot 12_UVVIS_200 K_200um_800 ms 2x2mm1_43.txt
340.368	1	4
340.710	1	-1
341.052	1	3
341.394	1	7
341.737	1	13
342.079	1	2
342.421	1	4
342.763	1	9
343.105	1	6
343.447	1	2
343.789	1	10
344.131	1	8
344.473	1	3
344.815	1	9
345.157	1	-3
345.499	1	15
345.841	1	2
346.183	1	12
346.526	1	-5
346.868	1	17
347.210	1	3
347.552	1	6
347.894	1	6
348.236	1	9
348.578	1	8
348.920	1	9
349.262	1	-1
349.604	1	17
349.946	1	-2
350.288	1	30
350.630	1	20
350.972	1	21
351.314	1	19
351.656	1	21
351.998	1	18
352.340	1	22
352.682	1	12
353.024	1	33
353.366	1	36
353.708	1	14
354.050	1	24
354.392	1	20
354.734	1	30
355.076	1	32
355.418	1	21
355.760	1	34
356.102	1	45
356.444	1	32
356.785	1	50
357.127	1	41
357.469	1	52
357.811	1	47
358.153	1	58
358.495	1	56
358.837	1	51
359.179	1	66
359.521	1	77
359.863	1	80
360.205	1	85
360.547	1	97
360.889	1	98
361.231	1	113
361.572	1	125
361.914	1	147
362.256	1	140
362.598	1	172
362.940	1	192
363.282	1	225
363.624	1	246
363.966	1	279
364.308	1	294
364.649	1	334
364.991	1	368
365.333	1	410
365.675	1	476
366.017	1	507
366.359	1	572
366.701	1	621
367.042	1	664
367.384	1	746
367.726	1	777
368.068	1	831
368.410	1	870
368.752	1	929
369.093	1	972
369.435	1	957
369.777	1	963
370.119	1	964
370.461	1	942
370.803	1	935
371.144	1	879
371.486	1	859
371.828	1	828
372.170	1	799
372.512	1	730
372.853	1	687
373.195	1	613
373.537	1	612
373.879	1	558
374.220	1	559
374.562	1	519
374.904	1	483
375.246	1	452
375.588	1	439
375.929	1	409
376.271	1	412
376.613	1	375
376.955	1	345
377.296	1	318
377.638	1	315
377.980	1	301
378.321	1	274
378.663	1	266
379.005	1	264
379.347	1	237
379.688	1	220
380.030	1	222
380.372	1	199
380.714	1	191
381.055	1	172
381.397	1	165
381.739	1	161
382.080	1	152
382.422	1	145
382.764	1	138
383.105	1	140
383.447	1	133
383.789	1	125
384.130	1	116
384.472	1	109
384.814	1	109
385.156	1	117
385.497	1	104
385.839	1	111
386.180	1	103
386.522	1	103
386.864	1	87
387.205	1	85
387.547	1	75
387.889	1	74
388.230	1	85
388.572	1	64
388.914	1	68
389.255	1	64
389.597	1	67
389.939	1	56
390.280	1	57
390.622	1	65
390.963	1	63
391.305	1	71
391.647	1	65
391.988	1	59
392.330	1	57
392.671	1	54
393.013	1	40
393.355	1	50
393.696	1	42
394.038	1	40
394.379	1	41
394.721	1	33
395.062	1	34
395.404	1	34
395.746	1	43
396.087	1	32
396.429	1	32
396.770	1	33
397.112	1	37
397.453	1	44
397.795	1	35
398.136	1	28
398.478	1	37
398.819	1	27
399.161	1	43
399.503	1	39
399.844	1	37
400.186	1	28
400.527	1	19
400.869	1	26
401.210	1	34
401.552	1	20
401.893	1	15
402.235	1	20
402.576	1	22
402.918	1	26
403.259	1	25
403.601	1	21
403.942	1	29
404.284	1	18
404.625	1	26
404.967	1	21
405.308	1	13
405.649	1	24
405.991	1	14
406.332	1	18
406.674	1	12
407.015	1	15
407.357	1	17
407.698	1	26
408.040	1	4
408.381	1	19
408.722	1	-7
409.064	1	8
409.405	1	18
409.747	1	8
410.088	1	10
410.430	1	22
410.771	1	13
411.112	1	23
411.454	1	13
411.795	1	6
412.137	1	23
412.478	1	20
412.819	1	15
413.161	1	13
413.502	1	18
413.844	1	8
414.185	1	18
414.526	1	5
414.868	1	14
415.209	1	5
415.550	1	13
415.892	1	9
416.233	1	17
416.575	1	21
416.916	1	7
417.257	1	6
417.599	1	17
417.940	1	16
418.281	1	10
418.623	1	5
418.964	1	-7
419.305	1	19
419.647	1	6
419.988	1	9
420.329	1	-7
420.671	1	15
421.012	1	13
421.353	1	2
421.695	1	15
422.036	1	16
422.377	1	1
422.718	1	14
423.060	1	5
423.401	1	22
423.742	1	16
424.084	1	15
424.425	1	7
424.766	1	10
425.107	1	4
425.449	1	7
425.790	1	0
426.131	1	14
426.472	1	8
426.814	1	2
427.155	1	7
427.496	1	4
427.837	1	2
428.179	1	-9
428.520	1	12
428.861	1	5
429.202	1	12
429.544	1	3
429.885	1	13
430.226	1	-5
430.567	1	6
430.909	1	8
431.250	1	11
431.591	1	8
431.932	1	3
432.273	1	-4
432.615	1	3
432.956	1	0
433.297	1	4
433.638	1	3
433.979	1	7
434.320	1	10
434.662	1	7
435.003	1	9
435.344	1	6
435.685	1	3
436.026	1	9
436.368	1	5
436.709	1	2
437.050	1	13
437.391	1	9
437.732	1	1
438.073	1	9
438.414	1	3
438.756	1	-4
439.097	1	-3
439.438	1	2
439.779	1	4
440.120	1	15
440.461	1	6
440.802	1	4
441.143	1	23
441.485	1	12
441.826	1	6
442.167	1	9
442.508	1	2
442.849	1	21
443.190	1	5
443.531	1	15
443.872	1	15
444.213	1	12
444.554	1	17
444.895	1	2
445.237	1	2
445.578	1	-2
445.919	1	-4
446.260	1	8
446.601	1	6
446.942	1	15
447.283	1	11
447.624	1	6
447.965	1	7
448.306	1	5
448.647	1	1
448.988	1	4
449.329	1	6
449.670	1	16
450.011	1	15
450.352	1	-1
450.693	1	-7
451.034	1	-2
451.375	1	2
451.716	1	7
452.057	1	4
452.398	1	-1
452.739	1	16
453.080	1	8
453.421	1	-1
453.762	1	6
454.103	1	0
454.444	1	2
454.785	1	2
455.126	1	0
455.467	1	1
455.808	1	7
456.149	1	11
456.490	1	6
456.831	1	0
457.172	1	10
457.513	1	11
457.854	1	10
458.195	1	2
458.536	1	4
458.877	1	4
459.218	1	4
459.559	1	14
459.899	1	7
460.240	1	3
460.581	1	18
460.922	1	9
461.263	1	-1
461.604	1	12
461.945	1	8
462.286	1	6
462.627	1	23
462.968	1	13
463.309	1	2
463.649	1	14
463.990	1	5
464.331	1	5
464.672	1	-1
465.013	1	9
465.354	1	2
465.695	1	3
466.036	1	-1
466.376	1	3
466.717	1	11
467.058	1	6
467.399	1	16
467.740	1	7
468.081	1	13
468.422	1	6
468.762	1	7
469.103	1	7
469.444	1	1
469.785	1	0
470.126	1	-3
470.467	1	-3
470.807	1	9
471.148	1	14
471.489	1	10
471.830	1	12
472.171	1	14
472.511	1	-11
472.852	1	1
473.193	1	8
473.534	1	13
473.875	1	22
474.215	1	12
474.556	1	9
474.897	1	7
475.238	1	15
475.578	1	-1
475.919	1	2
476.260	1	10
476.601	1	12
476.942	1	11
477.282	1	8
477.623	1	1
477.964	1	4
478.305	1	15
478.645	1	18
478.986	1	9
479.327	1	11
479.667	1	8
480.008	1	12
480.349	1	2
480.690	1	18
481.030	1	2
481.371	1	10
481.712	1	16
482.053	1	9
482.393	1	7
482.734	1	3
483.075	1	1
483.415	1	17
483.756	1	19
484.097	1	9
484.437	1	10
484.778	1	14
485.119	1	2
485.459	1	23
485.800	1	7
486.141	1	15
486.481	1	15
486.822	1	26
487.163	1	16
487.503	1	16
487.844	1	5
488.185	1	14
488.525	1	14
488.866	1	12
489.207	1	13
489.547	1	9
489.888	1	21
490.228	1	24
490.569	1	27
490.910	1	23
491.250	1	14
491.591	1	12
491.932	1	25
492.272	1	26
492.613	1	11
492.953	1	15
493.294	1	12
493.635	1	19
493.975	1	34
494.316	1	24
494.656	1	16
494.997	1	27
495.337	1	28
495.678	1	21
496.019	1	20
496.359	1	13
496.700	1	22
497.040	1	23
497.381	1	20
497.721	1	27
498.062	1	21
498.403	1	25
498.743	1	15
499.084	1	18
499.424	1	31
499.765	1	17
500.105	1	16
500.446	1	17
500.786	1	29
501.127	1	33
501.467	1	14
501.808	1	40
502.148	1	35
502.489	1	33
502.829	1	28
503.170	1	36
503.510	1	36
503.851	1	35
504.191	1	37
504.532	1	35
504.872	1	34
505.213	1	43
505.553	1	33
505.894	1	36
506.234	1	44
506.575	1	36
506.915	1	51
507.256	1	31
507.596	1	31
507.936	1	42
508.277	1	42
508.617	1	32
508.958	1	28
509.298	1	36
509.639	1	31
509.979	1	41
510.319	1	44
510.660	1	44
511.000	1	43
511.341	1	40
511.681	1	38
512.022	1	37
512.362	1	35
512.702	1	26
513.043	1	51
513.383	1	36
513.724	1	43
514.064	1	47
514.404	1	53
514.745	1	41
515.085	1	41
515.425	1	38
515.766	1	37
516.106	1	40
516.447	1	45
516.787	1	53
517.127	1	43
517.468	1	50
517.808	1	43
518.148	1	59
518.489	1	36
518.829	1	50
519.169	1	47
519.510	1	45
519.850	1	54
520.190	1	46
520.531	1	54
520.871	1	47
521.211	1	44
521.552	1	51
521.892	1	59
522.232	1	64
522.573	1	62
522.913	1	53
523.253	1	53
523.593	1	45
523.934	1	55
524.274	1	52
524.614	1	57
524.955	1	58
525.295	1	61
525.635	1	50
525.975	1	57
526.316	1	65
526.656	1	64
526.996	1	61
527.337	1	60
527.677	1	63
528.017	1	47
528.357	1	60
528.698	1	59
529.038	1	51
529.378	1	75
529.718	1	59
530.058	1	68
530.399	1	73
530.739	1	61
531.079	1	65
531.419	1	63
531.760	1	69
532.100	1	64
532.440	1	72
532.780	1	70
533.120	1	75
533.461	1	64
533.801	1	78
534.141	1	55
534.481	1	60
534.821	1	71
535.162	1	60
535.502	1	74
535.842	1	83
536.182	1	77
536.522	1	58
536.862	1	73
537.203	1	56
537.543	1	61
537.883	1	63
538.223	1	75
538.563	1	64
538.903	1	60
539.243	1	62
539.584	1	52
539.924	1	72
540.264	1	66
540.604	1	65
540.944	1	56
541.284	1	62
541.624	1	64
541.964	1	70
542.305	1	74
542.645	1	61
542.985	1	65
543.325	1	69
543.665	1	73
544.005	1	67
544.345	1	66
544.685	1	65
545.025	1	63
545.365	1	63
545.705	1	63
546.045	1	67
546.386	1	70
546.726	1	50
547.066	1	78
547.406	1	69
547.746	1	60
548.086	1	77
548.426	1	86
548.766	1	87
549.106	1	68
549.446	1	80
549.786	1	79
550.126	1	84
550.466	1	67
550.806	1	75
551.146	1	76
551.486	1	80
551.826	1	78
552.166	1	84
552.506	1	95
552.846	1	83
553.186	1	80
553.526	1	82
553.866	1	77
554.206	1	75
554.546	1	80
554.886	1	86
555.226	1	68
555.566	1	79
555.906	1	88
556.246	1	80
556.586	1	74
556.926	1	76
557.266	1	71
557.606	1	82
557.946	1	87
558.286	1	75
558.626	1	76
558.966	1	79
559.306	1	72
559.646	1	60
559.986	1	70
560.325	1	65
560.665	1	65
561.005	1	73
561.345	1	72
561.685	1	78
562.025	1	79
562.365	1	75
562.705	1	62
563.045	1	61
563.385	1	60
563.725	1	76
564.064	1	73
564.404	1	80
564.744	1	75
565.084	1	66
565.424	1	77
565.764	1	67
566.104	1	79
566.444	1	74
566.783	1	72
567.123	1	75
567.463	1	82
567.803	1	67
568.143	1	82
568.483	1	82
568.823	1	79
569.162	1	77
569.502	1	68
569.842	1	75
570.182	1	84
570.522	1	59
570.862	1	83
571.201	1	88
571.541	1	87
571.881	1	78
572.221	1	72
572.561	1	79
572.900	1	68
573.240	1	69
573.580	1	62
573.920	1	85
574.260	1	76
574.599	1	76
574.939	1	76
575.279	1	76
575.619	1	79
575.959	1	61
576.298	1	76
576.638	1	65
576.978	1	63
577.318	1	76
577.657	1	62
577.997	1	65
578.337	1	74
578.677	1	74
579.016	1	77
579.356	1	67
579.696	1	79
580.036	1	73
580.375	1	79
580.715	1	74
581.055	1	74
581.394	1	60
581.734	1	60
582.074	1	63
582.414	1	78
582.753	1	68
583.093	1	69
583.433	1	64
583.772	1	75
584.112	1	66
584.452	1	73
584.791	1	66
585.131	1	73
585.471	1	74
585.811	1	77
586.150	1	62
586.490	1	69
586.830	1	63
587.169	1	81
587.509	1	63
587.849	1	70
588.188	1	76
588.528	1	67
588.867	1	70
589.207	1	75
589.547	1	64
589.886	1	59
590.226	1	63
590.566	1	63
590.905	1	67
591.245	1	66
591.585	1	61
591.924	1	66
592.264	1	69
592.603	1	59
592.943	1	63
593.283	1	58
593.622	1	54
593.962	1	67
594.301	1	54
594.641	1	43
594.981	1	50
595.320	1	53
595.660	1	62
595.999	1	60
596.339	1	55
596.678	1	47
597.018	1	47
597.358	1	62
597.697	1	59
598.037	1	61
598.376	1	58
598.716	1	55
599.055	1	56
599.395	1	58
599.734	1	51
600.074	1	53
600.413	1	54
600.753	1	58
601.092	1	60
601.432	1	52
601.771	1	60
602.111	1	56
602.451	1	67
602.790	1	61
603.130	1	57
603.469	1	45
603.809	1	62
604.148	1	57
604.487	1	64
604.827	1	70
605.166	1	65
605.506	1	74
605.845	1	53
606.185	1	68
606.524	1	54
606.864	1	57
607.203	1	55
607.543	1	49
607.882	1	63
608.222	1	59
608.561	1	59
608.901	1	50
609.240	1	49
609.579	1	57
609.919	1	62
610.258	1	58
610.598	1	52
610.937	1	55
611.277	1	46
611.616	1	42
611.955	1	50
612.295	1	54
612.634	1	55
612.974	1	33
613.313	1	56
613.652	1	58
613.992	1	41
614.331	1	47
614.671	1	47
615.010	1	38
615.349	1	60
615.689	1	52
616.028	1	50
616.368	1	50
616.707	1	50
617.046	1	50
617.386	1	41
617.725	1	47
618.064	1	42
618.404	1	44
618.743	1	47
619.082	1	51
619.422	1	27
619.761	1	41
620.100	1	45
620.440	1	38
620.779	1	36
621.118	1	38
621.458	1	44
621.797	1	38
622.136	1	39
622.476	1	56
622.815	1	43
623.154	1	51
623.494	1	47
623.833	1	41
624.172	1	44
624.511	1	42
624.851	1	26
625.190	1	39
625.529	1	38
625.869	1	49
626.208	1	34
626.547	1	43
626.886	1	44
627.226	1	38
627.565	1	49
627.904	1	36
628.243	1	46
628.583	1	30
628.922	1	39
629.261	1	37
629.600	1	45
629.940	1	41
630.279	1	32
630.618	1	39
630.957	1	40
631.297	1	30
631.636	1	32
631.975	1	48
632.314	1	43
632.653	1	40
632.993	1	34
633.332	1	33
633.671	1	45
634.010	1	27
634.349	1	40
634.689	1	32
635.028	1	45
635.367	1	30
635.706	1	44
636.045	1	39
636.384	1	30
636.724	1	32
637.063	1	25
637.402	1	30
637.741	1	36
638.080	1	26
638.419	1	30
638.759	1	25
639.098	1	41
639.437	1	35
639.776	1	33
640.115	1	40
640.454	1	31
640.793	1	41
641.132	1	39
641.472	1	34
641.811	1	28
642.150	1	28
642.489	1	32
642.828	1	22
643.167	1	23
643.506	1	29
643.845	1	26
644.184	1	28
644.524	1	40
644.863	1	19
645.202	1	33
645.541	1	40
645.880	1	20
646.219	1	27
646.558	1	30
646.897	1	42
647.236	1	27
647.575	1	14
647.914	1	25
648.253	1	35
648.592	1	31
648.931	1	38
649.270	1	30
649.610	1	31
649.949	1	28
650.288	1	30
650.627	1	28
650.966	1	27
651.305	1	24
651.644	1	39
651.983	1	26
652.322	1	14
652.661	1	23
653.000	1	32
653.339	1	29
653.678	1	26
654.017	1	31
654.356	1	20
654.695	1	27
655.034	1	34
655.373	1	39
655.712	1	28
656.051	1	26
656.390	1	23
656.729	1	31
657.068	1	31
657.406	1	33
657.745	1	12
658.084	1	21
658.423	1	39
658.762	1	20
659.101	1	28
659.440	1	27
659.779	1	18
660.118	1	21
660.457	1	30
660.796	1	10
661.135	1	9
661.474	1	10
661.813	1	26
662.152	1	18
662.491	1	10
662.829	1	12
663.168	1	23
663.507	1	20
663.846	1	24
664.185	1	26
664.524	1	10
664.863	1	18
665.202	1	27
665.541	1	1
665.879	1	7
666.218	1	23
666.557	1	19
666.896	1	20
667.235	1	25
667.574	1	13
667.913	1	30
668.251	1	16
668.590	1	13
668.929	1	5
669.268	1	18
669.607	1	17
669.946	1	11
670.285	1	28
670.623	1	22
670.962	1	19
671.301	1	18
671.640	1	13
671.979	1	9
672.317	1	25
672.656	1	19
672.995	1	23
673.334	1	20
673.673	1	22
674.011	1	16
674.350	1	21
674.689	1	19
675.028	1	15
675.367	1	25
675.705	1	23
676.044	1	17
676.383	1	20
676.722	1	10
677.060	1	15
677.399	1	19
677.738	1	16
678.077	1	16
678.416	1	22
678.754	1	15
679.093	1	20
679.432	1	20
679.771	1	20
680.109	1	30
680.448	1	19
680.787	1	12
681.125	1	16
681.464	1	18
681.803	1	12
682.142	1	25
682.480	1	24
682.819	1	17
683.158	1	18
683.496	1	27
683.835	1	14
684.174	1	20
684.512	1	28
684.851	1	17
685.190	1	26
685.529	1	18
685.867	1	17
686.206	1	13
686.545	1	16
686.883	1	26
687.222	1	22
687.561	1	15
687.899	1	25
688.238	1	22
688.577	1	16
688.746	1	23