File: Data/GaN_200K_800ms/GaN_sample F_spot 12_UVVIS_200 K_200um_800 ms 2x2mm1_100.txt
340.368	1	1
340.710	1	-6
341.052	1	6
341.394	1	-4
341.737	1	17
342.079	1	6
342.421	1	3
342.763	1	11
343.105	1	12
343.447	1	-9
343.789	1	-1
344.131	1	-3
344.473	1	9
344.815	1	2
345.157	1	4
345.499	1	2
345.841	1	13
346.183	1	-4
346.526	1	-7
346.868	1	8
347.210	1	-11
347.552	1	1
347.894	1	9
348.236	1	14
348.578	1	4
348.920	1	4
349.262	1	-3
349.604	1	6
349.946	1	-5
350.288	1	19
350.630	1	-3
350.972	1	8
351.314	1	16
351.656	1	15
351.998	1	12
352.340	1	10
352.682	1	10
353.024	1	11
353.366	1	17
353.708	1	6
354.050	1	3
354.392	1	3
354.734	1	9
355.076	1	1
355.418	1	5
355.760	1	1
356.102	1	23
356.444	1	17
356.785	1	13
357.127	1	6
357.469	1	7
357.811	1	6
358.153	1	18
358.495	1	13
358.837	1	3
359.179	1	4
359.521	1	22
359.863	1	21
360.205	1	20
360.547	1	18
360.889	1	20
361.231	1	26
361.572	1	43
361.914	1	29
362.256	1	27
362.598	1	29
362.940	1	24
363.282	1	48
363.624	1	50
363.966	1	44
364.308	1	42
364.649	1	52
364.991	1	53
365.333	1	50
365.675	1	58
366.017	1	65
366.359	1	70
366.701	1	73
367.042	1	83
367.384	1	81
367.726	1	89
368.068	1	93
368.410	1	99
368.752	1	86
369.093	1	87
369.435	1	93
369.777	1	92
370.119	1	98
370.461	1	118
370.803	1	90
371.144	1	91
371.486	1	86
371.828	1	87
372.170	1	91
372.512	1	75
372.853	1	82
373.195	1	90
373.537	1	76
373.879	1	64
374.220	1	77
374.562	1	77
374.904	1	61
375.246	1	61
375.588	1	65
375.929	1	57
376.271	1	55
376.613	1	45
376.955	1	42
377.296	1	47
377.638	1	51
377.980	1	53
378.321	1	29
378.663	1	37
379.005	1	38
379.347	1	43
379.688	1	31
380.030	1	26
380.372	1	34
380.714	1	30
381.055	1	43
381.397	1	26
381.739	1	33
382.080	1	31
382.422	1	28
382.764	1	26
383.105	1	28
383.447	1	20
383.789	1	14
384.130	1	21
384.472	1	16
384.814	1	22
385.156	1	21
385.497	1	15
385.839	1	20
386.180	1	16
386.522	1	22
386.864	1	30
387.205	1	-2
387.547	1	9
387.889	1	4
388.230	1	25
388.572	1	6
388.914	1	21
389.255	1	2
389.597	1	20
389.939	1	14
390.280	1	12
390.622	1	8
390.963	1	15
391.305	1	16
391.647	1	12
391.988	1	22
392.330	1	16
392.671	1	4
393.013	1	-6
393.355	1	11
393.696	1	4
394.038	1	7
394.379	1	4
394.721	1	2
395.062	1	14
395.404	1	1
395.746	1	20
396.087	1	4
396.429	1	16
396.770	1	3
397.112	1	13
397.453	1	25
397.795	1	6
398.136	1	-3
398.478	1	11
398.819	1	7
399.161	1	14
399.503	1	9
399.844	1	5
400.186	1	10
400.527	1	6
400.869	1	4
401.210	1	-1
401.552	1	-8
401.893	1	12
402.235	1	8
402.576	1	4
402.918	1	12
403.259	1	16
403.601	1	2
403.942	1	15
404.284	1	11
404.625	1	9
404.967	1	7
405.308	1	7
405.649	1	10
405.991	1	6
406.332	1	9
406.674	1	-4
407.015	1	11
407.357	1	0
407.698	1	8
408.040	1	-6
408.381	1	10
408.722	1	-12
409.064	1	2
409.405	1	9
409.747	1	0
410.088	1	6
410.430	1	10
410.771	1	12
411.112	1	11
411.454	1	5
411.795	1	-2
412.137	1	-4
412.478	1	15
412.819	1	6
413.161	1	5
413.502	1	5
413.844	1	2
414.185	1	5
414.526	1	-1
414.868	1	-2
415.209	1	-2
415.550	1	-4
415.892	1	0
416.233	1	17
416.575	1	9
416.916	1	4
417.257	1	-4
417.599	1	9
417.940	1	9
418.281	1	5
418.623	1	-7
418.964	1	-11
419.305	1	4
419.647	1	-3
419.988	1	-4
420.329	1	-1
420.671	1	2
421.012	1	0
421.353	1	8
421.695	1	2
422.036	1	-1
422.377	1	-4
422.718	1	1
423.060	1	-4
423.401	1	5
423.742	1	7
424.084	1	2
424.425	1	10
424.766	1	0
425.107	1	-5
425.449	1	4
425.790	1	-7
426.131	1	0
426.472	1	0
426.814	1	8
427.155	1	-5
427.496	1	7
427.837	1	-11
428.179	1	-3
428.520	1	8
428.861	1	5
429.202	1	3
429.544	1	7
429.885	1	7
430.226	1	0
430.567	1	9
430.909	1	0
431.250	1	4
431.591	1	7
431.932	1	-3
432.273	1	6
432.615	1	-3
432.956	1	2
433.297	1	1
433.638	1	-7
433.979	1	8
434.320	1	10
434.662	1	3
435.003	1	12
435.344	1	3
435.685	1	-2
436.026	1	14
436.368	1	-1
436.709	1	-3
437.050	1	2
437.391	1	17
437.732	1	-4
438.073	1	1
438.414	1	1
438.756	1	-5
439.097	1	0
439.438	1	-1
439.779	1	2
440.120	1	7
440.461	1	5
440.802	1	-1
441.143	1	9
441.485	1	3
441.826	1	9
442.167	1	5
442.508	1	2
442.849	1	2
443.190	1	0
443.531	1	13
443.872	1	5
444.213	1	4
444.554	1	16
444.895	1	-2
445.237	1	-7
445.578	1	-4
445.919	1	-9
446.260	1	-10
446.601	1	-6
446.942	1	-5
447.283	1	-3
447.624	1	4
447.965	1	1
448.306	1	2
448.647	1	3
448.988	1	5
449.329	1	2
449.670	1	8
450.011	1	4
450.352	1	4
450.693	1	-1
451.034	1	-11
451.375	1	5
451.716	1	7
452.057	1	3
452.398	1	-4
452.739	1	-3
453.080	1	3
453.421	1	4
453.762	1	1
454.103	1	-1
454.444	1	-9
454.785	1	-3
455.126	1	-3
455.467	1	3
455.808	1	7
456.149	1	4
456.490	1	0
456.831	1	8
457.172	1	1
457.513	1	7
457.854	1	7
458.195	1	-4
458.536	1	1
458.877	1	4
459.218	1	3
459.559	1	8
459.899	1	1
460.240	1	3
460.581	1	18
460.922	1	12
461.263	1	-4
461.604	1	2
461.945	1	4
462.286	1	0
462.627	1	1
462.968	1	7
463.309	1	-5
463.649	1	1
463.990	1	2
464.331	1	-2
464.672	1	-2
465.013	1	-9
465.354	1	11
465.695	1	-7
466.036	1	5
466.376	1	-3
466.717	1	7
467.058	1	6
467.399	1	10
467.740	1	-1
468.081	1	0
468.422	1	-2
468.762	1	-8
469.103	1	3
469.444	1	2
469.785	1	-1
470.126	1	-7
470.467	1	6
470.807	1	5
471.148	1	6
471.489	1	10
471.830	1	-1
472.171	1	8
472.511	1	-3
472.852	1	-1
473.193	1	7
473.534	1	9
473.875	1	12
474.215	1	18
474.556	1	-2
474.897	1	-2
475.238	1	7
475.578	1	-8
475.919	1	-3
476.260	1	7
476.601	1	1
476.942	1	9
477.282	1	9
477.623	1	-7
477.964	1	1
478.305	1	-4
478.645	1	14
478.986	1	6
479.327	1	-7
479.667	1	3
480.008	1	2
480.349	1	-1
480.690	1	2
481.030	1	-5
481.371	1	6
481.712	1	2
482.053	1	-2
482.393	1	2
482.734	1	1
483.075	1	0
483.415	1	-1
483.756	1	13
484.097	1	5
484.437	1	-3
484.778	1	10
485.119	1	3
485.459	1	18
485.800	1	1
486.141	1	0
486.481	1	-1
486.822	1	8
487.163	1	-1
487.503	1	5
487.844	1	-2
488.185	1	0
488.525	1	1
488.866	1	1
489.207	1	5
489.547	1	6
489.888	1	3
490.228	1	12
490.569	1	4
490.910	1	6
491.250	1	3
491.591	1	-5
491.932	1	8
492.272	1	7
492.613	1	0
492.953	1	-1
493.294	1	-3
493.635	1	4
493.975	1	-1
494.316	1	7
494.656	1	2
494.997	1	3
495.337	1	13
495.678	1	6
496.019	1	5
496.359	1	2
496.700	1	7
497.040	1	-3
497.381	1	7
497.721	1	4
498.062	1	11
498.403	1	12
498.743	1	3
499.084	1	1
499.424	1	9
499.765	1	5
500.105	1	4
500.446	1	-2
500.786	1	2
501.127	1	9
501.467	1	-3
501.808	1	11
502.148	1	11
502.489	1	-3
502.829	1	3
503.170	1	15
503.510	1	11
503.851	1	-1
504.191	1	12
504.532	1	2
504.872	1	10
505.213	1	10
505.553	1	1
505.894	1	-5
506.234	1	11
506.575	1	14
506.915	1	21
507.256	1	13
507.596	1	13
507.936	1	7
508.277	1	4
508.617	1	8
508.958	1	3
509.298	1	5
509.639	1	9
509.979	1	8
510.319	1	14
510.660	1	-1
511.000	1	-5
511.341	1	7
511.681	1	6
512.022	1	-2
512.362	1	14
512.702	1	4
513.043	1	10
513.383	1	-8
513.724	1	7
514.064	1	18
514.404	1	1
514.745	1	5
515.085	1	8
515.425	1	5
515.766	1	4
516.106	1	10
516.447	1	15
516.787	1	15
517.127	1	8
517.468	1	4
517.808	1	9
518.148	1	7
518.489	1	6
518.829	1	9
519.169	1	2
519.510	1	0
519.850	1	7
520.190	1	2
520.531	1	0
520.871	1	7
521.211	1	-3
521.552	1	13
521.892	1	6
522.232	1	10
522.573	1	2
522.913	1	16
523.253	1	9
523.593	1	1
523.934	1	13
524.274	1	2
524.614	1	15
524.955	1	4
525.295	1	6
525.635	1	2
525.975	1	15
526.316	1	19
526.656	1	13
526.996	1	0
527.337	1	-1
527.677	1	15
528.017	1	0
528.357	1	8
528.698	1	6
529.038	1	17
529.378	1	18
529.718	1	22
530.058	1	7
530.399	1	13
530.739	1	13
531.079	1	18
531.419	1	11
531.760	1	10
532.100	1	-1
532.440	1	12
532.780	1	5
533.120	1	19
533.461	1	21
533.801	1	22
534.141	1	5
534.481	1	-1
534.821	1	5
535.162	1	11
535.502	1	-1
535.842	1	17
536.182	1	8
536.522	1	-2
536.862	1	10
537.203	1	-1
537.543	1	9
537.883	1	12
538.223	1	9
538.563	1	14
538.903	1	3
539.243	1	13
539.584	1	9
539.924	1	20
540.264	1	6
540.604	1	8
540.944	1	13
541.284	1	12
541.624	1	22
541.964	1	16
542.305	1	10
542.645	1	1
542.985	1	13
543.325	1	9
543.665	1	18
544.005	1	16
544.345	1	10
544.685	1	7
545.025	1	12
545.365	1	8
545.705	1	8
546.045	1	2
546.386	1	12
546.726	1	-1
547.066	1	6
547.406	1	11
547.746	1	-3
548.086	1	14
548.426	1	9
548.766	1	14
549.106	1	5
549.446	1	8
549.786	1	14
550.126	1	24
550.466	1	7
550.806	1	5
551.146	1	7
551.486	1	5
551.826	1	20
552.166	1	10
552.506	1	17
552.846	1	9
553.186	1	22
553.526	1	16
553.866	1	7
554.206	1	18
554.546	1	16
554.886	1	17
555.226	1	6
555.566	1	19
555.906	1	22
556.246	1	10
556.586	1	15
556.926	1	18
557.266	1	8
557.606	1	16
557.946	1	13
558.286	1	16
558.626	1	21
558.966	1	16
559.306	1	11
559.646	1	9
559.986	1	5
560.325	1	6
560.665	1	10
561.005	1	0
561.345	1	23
561.685	1	12
562.025	1	3
562.365	1	14
562.705	1	8
563.045	1	9
563.385	1	-1
563.725	1	9
564.064	1	6
564.404	1	20
564.744	1	12
565.084	1	13
565.424	1	7
565.764	1	0
566.104	1	8
566.444	1	6
566.783	1	12
567.123	1	12
567.463	1	16
567.803	1	5
568.143	1	12
568.483	1	16
568.823	1	16
569.162	1	21
569.502	1	13
569.842	1	7
570.182	1	7
570.522	1	2
570.862	1	8
571.201	1	24
571.541	1	22
571.881	1	18
572.221	1	7
572.561	1	17
572.900	1	3
573.240	1	16
573.580	1	8
573.920	1	12
574.260	1	19
574.599	1	14
574.939	1	19
575.279	1	18
575.619	1	18
575.959	1	9
576.298	1	24
576.638	1	-1
576.978	1	17
577.318	1	9
577.657	1	1
577.997	1	8
578.337	1	22
578.677	1	14
579.016	1	3
579.356	1	12
579.696	1	17
580.036	1	16
580.375	1	15
580.715	1	8
581.055	1	5
581.394	1	6
581.734	1	8
582.074	1	8
582.414	1	17
582.753	1	3
583.093	1	11
583.433	1	4
583.772	1	23
584.112	1	8
584.452	1	12
584.791	1	3
585.131	1	13
585.471	1	17
585.811	1	22
586.150	1	9
586.490	1	10
586.830	1	11
587.169	1	4
587.509	1	16
587.849	1	11
588.188	1	13
588.528	1	13
588.867	1	11
589.207	1	12
589.547	1	11
589.886	1	5
590.226	1	15
590.566	1	7
590.905	1	10
591.245	1	8
591.585	1	10
591.924	1	6
592.264	1	11
592.603	1	7
592.943	1	13
593.283	1	14
593.622	1	4
593.962	1	16
594.301	1	13
594.641	1	1
594.981	1	6
595.320	1	8
595.660	1	8
595.999	1	1
596.339	1	8
596.678	1	8
597.018	1	1
597.358	1	12
597.697	1	9
598.037	1	2
598.376	1	16
598.716	1	14
599.055	1	12
599.395	1	12
599.734	1	12
600.074	1	9
600.413	1	18
600.753	1	13
601.092	1	17
601.432	1	-1
601.771	1	9
602.111	1	19
602.451	1	13
602.790	1	6
603.130	1	14
603.469	1	5
603.809	1	12
604.148	1	14
604.487	1	7
604.827	1	9
605.166	1	11
605.506	1	10
605.845	1	6
606.185	1	16
606.524	1	11
606.864	1	4
607.203	1	1
607.543	1	9
607.882	1	8
608.222	1	14
608.561	1	11
608.901	1	17
609.240	1	3
609.579	1	21
609.919	1	12
610.258	1	20
610.598	1	8
610.937	1	15
611.277	1	0
611.616	1	1
611.955	1	-1
612.295	1	6
612.634	1	10
612.974	1	2
613.313	1	23
613.652	1	10
613.992	1	8
614.331	1	2
614.671	1	11
615.010	1	-1
615.349	1	14
615.689	1	9
616.028	1	2
616.368	1	11
616.707	1	4
617.046	1	19
617.386	1	9
617.725	1	22
618.064	1	-6
618.404	1	6
618.743	1	2
619.082	1	6
619.422	1	4
619.761	1	5
620.100	1	11
620.440	1	15
620.779	1	6
621.118	1	3
621.458	1	12
621.797	1	11
622.136	1	18
622.476	1	10
622.815	1	13
623.154	1	16
623.494	1	16
623.833	1	8
624.172	1	4
624.511	1	16
624.851	1	-2
625.190	1	8
625.529	1	6
625.869	1	9
626.208	1	7
626.547	1	13
626.886	1	1
627.226	1	18
627.565	1	15
627.904	1	4
628.243	1	6
628.583	1	5
628.922	1	7
629.261	1	6
629.600	1	16
629.940	1	8
630.279	1	-2
630.618	1	-4
630.957	1	6
631.297	1	9
631.636	1	-7
631.975	1	15
632.314	1	0
632.653	1	8
632.993	1	2
633.332	1	11
633.671	1	4
634.010	1	-3
634.349	1	11
634.689	1	11
635.028	1	20
635.367	1	5
635.706	1	2
636.045	1	20
636.384	1	-2
636.724	1	8
637.063	1	4
637.402	1	9
637.741	1	7
638.080	1	6
638.419	1	5
638.759	1	-5
639.098	1	9
639.437	1	9
639.776	1	-1
640.115	1	9
640.454	1	4
640.793	1	17
641.132	1	2
641.472	1	8
641.811	1	11
642.150	1	-7
642.489	1	14
642.828	1	8
643.167	1	1
643.506	1	1
643.845	1	4
644.184	1	4
644.524	1	3
644.863	1	-1
645.202	1	8
645.541	1	10
645.880	1	7
646.219	1	5
646.558	1	5
646.897	1	15
647.236	1	14
647.575	1	4
647.914	1	0
648.253	1	9
648.592	1	-2
648.931	1	16
649.270	1	3
649.610	1	6
649.949	1	6
650.288	1	12
650.627	1	-3
650.966	1	6
651.305	1	-3
651.644	1	17
651.983	1	6
652.322	1	7
652.661	1	0
653.000	1	5
653.339	1	8
653.678	1	17
654.017	1	7
654.356	1	5
654.695	1	9
655.034	1	11
655.373	1	7
655.712	1	8
656.051	1	8
656.390	1	8
656.729	1	18
657.068	1	4
657.406	1	12
657.745	1	9
658.084	1	18
658.423	1	7
658.762	1	0
659.101	1	14
659.440	1	17
659.779	1	3
660.118	1	8
660.457	1	3
660.796	1	-5
661.135	1	5
661.474	1	0
661.813	1	12
662.152	1	7
662.491	1	6
662.829	1	3
663.168	1	7
663.507	1	13
663.846	1	0
664.185	1	3
664.524	1	6
664.863	1	0
665.202	1	9
665.541	1	-7
665.879	1	-3
666.218	1	10
666.557	1	3
666.896	1	2
667.235	1	4
667.574	1	-5
667.913	1	17
668.251	1	6
668.590	1	3
668.929	1	-2
669.268	1	5
669.607	1	5
669.946	1	1
670.285	1	11
670.623	1	5
670.962	1	2
671.301	1	10
671.640	1	2
671.979	1	5
672.317	1	11
672.656	1	0
672.995	1	14
673.334	1	-4
673.673	1	6
674.011	1	-6
674.350	1	3
674.689	1	7
675.028	1	-5
675.367	1	7
675.705	1	10
676.044	1	8
676.383	1	2
676.722	1	8
677.060	1	1
677.399	1	4
677.738	1	9
678.077	1	11
678.416	1	3
678.754	1	1
679.093	1	10
679.432	1	0
679.771	1	11
680.109	1	13
680.448	1	3
680.787	1	5
681.125	1	10
681.464	1	6
681.803	1	13
682.142	1	11
682.480	1	16
682.819	1	2
683.158	1	6
683.496	1	6
683.835	1	-1
684.174	1	2
684.512	1	14
684.851	1	11
685.190	1	-6
685.529	1	2
685.867	1	9
686.206	1	-2
686.545	1	4
686.883	1	2
687.222	1	11
687.561	1	9
687.899	1	0
688.238	1	7
688.577	1	3
688.746	1	-2