File: Data/GaN_200K_800ms/GaN_sample F_spot 12_UVVIS_200 K_200um_800 ms 2x2mm1_408.txt
340.368	1	5
340.710	1	-10
341.052	1	1
341.394	1	-6
341.737	1	8
342.079	1	-5
342.421	1	-3
342.763	1	4
343.105	1	-1
343.447	1	-9
343.789	1	-1
344.131	1	-5
344.473	1	-4
344.815	1	-5
345.157	1	-11
345.499	1	4
345.841	1	6
346.183	1	-5
346.526	1	-10
346.868	1	3
347.210	1	-1
347.552	1	-7
347.894	1	0
348.236	1	11
348.578	1	1
348.920	1	4
349.262	1	-4
349.604	1	-4
349.946	1	-10
350.288	1	5
350.630	1	13
350.972	1	-3
351.314	1	7
351.656	1	5
351.998	1	9
352.340	1	0
352.682	1	-6
353.024	1	-1
353.366	1	8
353.708	1	6
354.050	1	-2
354.392	1	-8
354.734	1	7
355.076	1	4
355.418	1	-6
355.760	1	-9
356.102	1	13
356.444	1	0
356.785	1	8
357.127	1	6
357.469	1	1
357.811	1	1
358.153	1	3
358.495	1	9
358.837	1	-4
359.179	1	1
359.521	1	5
359.863	1	-1
360.205	1	-2
360.547	1	4
360.889	1	2
361.231	1	-1
361.572	1	7
361.914	1	4
362.256	1	6
362.598	1	-2
362.940	1	-6
363.282	1	5
363.624	1	12
363.966	1	5
364.308	1	0
364.649	1	9
364.991	1	6
365.333	1	0
365.675	1	6
366.017	1	5
366.359	1	2
366.701	1	3
367.042	1	8
367.384	1	15
367.726	1	7
368.068	1	8
368.410	1	15
368.752	1	-5
369.093	1	7
369.435	1	13
369.777	1	9
370.119	1	12
370.461	1	18
370.803	1	11
371.144	1	9
371.486	1	18
371.828	1	11
372.170	1	13
372.512	1	9
372.853	1	10
373.195	1	20
373.537	1	3
373.879	1	0
374.220	1	13
374.562	1	10
374.904	1	7
375.246	1	5
375.588	1	4
375.929	1	14
376.271	1	21
376.613	1	6
376.955	1	-4
377.296	1	-2
377.638	1	-2
377.980	1	3
378.321	1	-11
378.663	1	-3
379.005	1	6
379.347	1	2
379.688	1	9
380.030	1	-1
380.372	1	2
380.714	1	12
381.055	1	7
381.397	1	2
381.739	1	6
382.080	1	5
382.422	1	4
382.764	1	-2
383.105	1	-4
383.447	1	1
383.789	1	-7
384.130	1	-2
384.472	1	-3
384.814	1	2
385.156	1	-6
385.497	1	8
385.839	1	4
386.180	1	1
386.522	1	11
386.864	1	5
387.205	1	2
387.547	1	-5
387.889	1	-1
388.230	1	-3
388.572	1	-8
388.914	1	0
389.255	1	-9
389.597	1	2
389.939	1	3
390.280	1	3
390.622	1	-8
390.963	1	9
391.305	1	3
391.647	1	-7
391.988	1	12
392.330	1	8
392.671	1	-2
393.013	1	-1
393.355	1	5
393.696	1	-4
394.038	1	2
394.379	1	0
394.721	1	-3
395.062	1	6
395.404	1	-2
395.746	1	8
396.087	1	5
396.429	1	15
396.770	1	-3
397.112	1	9
397.453	1	4
397.795	1	-2
398.136	1	-7
398.478	1	-1
398.819	1	3
399.161	1	7
399.503	1	-6
399.844	1	-4
400.186	1	-10
400.527	1	1
400.869	1	5
401.210	1	1
401.552	1	-19
401.893	1	-7
402.235	1	-3
402.576	1	-1
402.918	1	10
403.259	1	-1
403.601	1	-5
403.942	1	15
404.284	1	8
404.625	1	4
404.967	1	3
405.308	1	4
405.649	1	-4
405.991	1	-5
406.332	1	3
406.674	1	-2
407.015	1	3
407.357	1	-4
407.698	1	7
408.040	1	-8
408.381	1	6
408.722	1	-12
409.064	1	-3
409.405	1	2
409.747	1	-2
410.088	1	2
410.430	1	11
410.771	1	0
411.112	1	5
411.454	1	2
411.795	1	4
412.137	1	1
412.478	1	13
412.819	1	-9
413.161	1	-5
413.502	1	-6
413.844	1	0
414.185	1	5
414.526	1	-2
414.868	1	5
415.209	1	-5
415.550	1	-4
415.892	1	0
416.233	1	15
416.575	1	0
416.916	1	-11
417.257	1	-5
417.599	1	-6
417.940	1	5
418.281	1	1
418.623	1	-2
418.964	1	-13
419.305	1	3
419.647	1	-9
419.988	1	0
420.329	1	-13
420.671	1	2
421.012	1	1
421.353	1	-1
421.695	1	-14
422.036	1	-1
422.377	1	-1
422.718	1	7
423.060	1	-10
423.401	1	-4
423.742	1	-4
424.084	1	3
424.425	1	6
424.766	1	-4
425.107	1	-1
425.449	1	5
425.790	1	-8
426.131	1	-1
426.472	1	6
426.814	1	-5
427.155	1	-5
427.496	1	-10
427.837	1	-9
428.179	1	-15
428.520	1	2
428.861	1	1
429.202	1	4
429.544	1	0
429.885	1	7
430.226	1	-5
430.567	1	-3
430.909	1	-4
431.250	1	-3
431.591	1	2
431.932	1	-11
432.273	1	-5
432.615	1	-13
432.956	1	-3
433.297	1	1
433.638	1	0
433.979	1	7
434.320	1	-1
434.662	1	-6
435.003	1	6
435.344	1	-2
435.685	1	1
436.026	1	5
436.368	1	-8
436.709	1	5
437.050	1	-1
437.391	1	7
437.732	1	-8
438.073	1	-2
438.414	1	-9
438.756	1	-4
439.097	1	-7
439.438	1	-3
439.779	1	1
440.120	1	-8
440.461	1	-1
440.802	1	-2
441.143	1	6
441.485	1	2
441.826	1	1
442.167	1	0
442.508	1	-5
442.849	1	10
443.190	1	1
443.531	1	7
443.872	1	11
444.213	1	2
444.554	1	10
444.895	1	-3
445.237	1	-1
445.578	1	-3
445.919	1	-10
446.260	1	-5
446.601	1	0
446.942	1	-6
447.283	1	3
447.624	1	-5
447.965	1	1
448.306	1	4
448.647	1	-16
448.988	1	-3
449.329	1	-1
449.670	1	4
450.011	1	2
450.352	1	0
450.693	1	-10
451.034	1	-4
451.375	1	7
451.716	1	-6
452.057	1	0
452.398	1	-8
452.739	1	4
453.080	1	-2
453.421	1	-4
453.762	1	-3
454.103	1	-2
454.444	1	-9
454.785	1	-6
455.126	1	-4
455.467	1	-3
455.808	1	-11
456.149	1	0
456.490	1	-9
456.831	1	6
457.172	1	-4
457.513	1	4
457.854	1	-3
458.195	1	-9
458.536	1	4
458.877	1	-4
459.218	1	-6
459.559	1	-1
459.899	1	2
460.240	1	-1
460.581	1	10
460.922	1	-8
461.263	1	-7
461.604	1	-4
461.945	1	5
462.286	1	-2
462.627	1	5
462.968	1	3
463.309	1	-7
463.649	1	-1
463.990	1	-10
464.331	1	-7
464.672	1	-3
465.013	1	-11
465.354	1	7
465.695	1	-12
466.036	1	-2
466.376	1	-9
466.717	1	-5
467.058	1	7
467.399	1	11
467.740	1	0
468.081	1	8
468.422	1	-2
468.762	1	-4
469.103	1	-8
469.444	1	-7
469.785	1	-7
470.126	1	-3
470.467	1	2
470.807	1	-1
471.148	1	2
471.489	1	-9
471.830	1	-1
472.171	1	2
472.511	1	-8
472.852	1	-3
473.193	1	18
473.534	1	8
473.875	1	17
474.215	1	-2
474.556	1	-4
474.897	1	2
475.238	1	3
475.578	1	-4
475.919	1	-4
476.260	1	-9
476.601	1	-3
476.942	1	4
477.282	1	-9
477.623	1	-12
477.964	1	-2
478.305	1	-8
478.645	1	7
478.986	1	-4
479.327	1	-6
479.667	1	1
480.008	1	-3
480.349	1	-7
480.690	1	8
481.030	1	-4
481.371	1	-1
481.712	1	5
482.053	1	6
482.393	1	-12
482.734	1	-7
483.075	1	-9
483.415	1	3
483.756	1	-2
484.097	1	1
484.437	1	-8
484.778	1	10
485.119	1	7
485.459	1	4
485.800	1	-2
486.141	1	2
486.481	1	1
486.822	1	3
487.163	1	1
487.503	1	-2
487.844	1	-3
488.185	1	1
488.525	1	-6
488.866	1	-1
489.207	1	-3
489.547	1	1
489.888	1	-5
490.228	1	1
490.569	1	7
490.910	1	-1
491.250	1	-5
491.591	1	-7
491.932	1	-5
492.272	1	2
492.613	1	3
492.953	1	-7
493.294	1	-7
493.635	1	-3
493.975	1	-4
494.316	1	10
494.656	1	-10
494.997	1	-7
495.337	1	1
495.678	1	-7
496.019	1	-2
496.359	1	-4
496.700	1	-3
497.040	1	-5
497.381	1	-8
497.721	1	-1
498.062	1	-1
498.403	1	2
498.743	1	0
499.084	1	3
499.424	1	2
499.765	1	5
500.105	1	-3
500.446	1	-4
500.786	1	-10
501.127	1	-8
501.467	1	-4
501.808	1	5
502.148	1	4
502.489	1	1
502.829	1	2
503.170	1	6
503.510	1	12
503.851	1	2
504.191	1	4
504.532	1	8
504.872	1	-3
505.213	1	1
505.553	1	-5
505.894	1	-5
506.234	1	-8
506.575	1	6
506.915	1	3
507.256	1	-3
507.596	1	2
507.936	1	6
508.277	1	-2
508.617	1	1
508.958	1	-11
509.298	1	-6
509.639	1	-8
509.979	1	-3
510.319	1	4
510.660	1	2
511.000	1	4
511.341	1	3
511.681	1	-2
512.022	1	-13
512.362	1	-7
512.702	1	-7
513.043	1	4
513.383	1	-6
513.724	1	6
514.064	1	11
514.404	1	-2
514.745	1	4
515.085	1	0
515.425	1	-7
515.766	1	-1
516.106	1	-3
516.447	1	8
516.787	1	4
517.127	1	-3
517.468	1	-3
517.808	1	-1
518.148	1	8
518.489	1	-6
518.829	1	6
519.169	1	3
519.510	1	-7
519.850	1	2
520.190	1	3
520.531	1	-6
520.871	1	-1
521.211	1	-9
521.552	1	1
521.892	1	-1
522.232	1	2
522.573	1	-4
522.913	1	0
523.253	1	-2
523.593	1	-4
523.934	1	-2
524.274	1	-3
524.614	1	1
524.955	1	-6
525.295	1	-2
525.635	1	-15
525.975	1	0
526.316	1	16
526.656	1	9
526.996	1	6
527.337	1	-9
527.677	1	8
528.017	1	-10
528.357	1	0
528.698	1	5
529.038	1	2
529.378	1	8
529.718	1	1
530.058	1	-3
530.399	1	1
530.739	1	-2
531.079	1	1
531.419	1	-6
531.760	1	10
532.100	1	-8
532.440	1	-7
532.780	1	-2
533.120	1	4
533.461	1	1
533.801	1	12
534.141	1	-16
534.481	1	-12
534.821	1	1
535.162	1	-5
535.502	1	-4
535.842	1	-1
536.182	1	-4
536.522	1	-4
536.862	1	0
537.203	1	-6
537.543	1	0
537.883	1	-12
538.223	1	-12
538.563	1	6
538.903	1	-6
539.243	1	-7
539.584	1	-1
539.924	1	6
540.264	1	-4
540.604	1	1
540.944	1	-5
541.284	1	-6
541.624	1	6
541.964	1	7
542.305	1	11
542.645	1	3
542.985	1	5
543.325	1	-5
543.665	1	5
544.005	1	12
544.345	1	0
544.685	1	-3
545.025	1	-5
545.365	1	1
545.705	1	-3
546.045	1	-1
546.386	1	1
546.726	1	-12
547.066	1	5
547.406	1	0
547.746	1	-7
548.086	1	-2
548.426	1	-2
548.766	1	-1
549.106	1	2
549.446	1	-2
549.786	1	1
550.126	1	9
550.466	1	-4
550.806	1	7
551.146	1	-4
551.486	1	-3
551.826	1	5
552.166	1	0
552.506	1	11
552.846	1	-2
553.186	1	0
553.526	1	-5
553.866	1	-7
554.206	1	2
554.546	1	-3
554.886	1	-2
555.226	1	-3
555.566	1	2
555.906	1	5
556.246	1	0
556.586	1	-4
556.926	1	0
557.266	1	-7
557.606	1	2
557.946	1	8
558.286	1	2
558.626	1	7
558.966	1	-5
559.306	1	-15
559.646	1	-7
559.986	1	-4
560.325	1	-2
560.665	1	-4
561.005	1	-8
561.345	1	6
561.685	1	0
562.025	1	-1
562.365	1	4
562.705	1	-5
563.045	1	-7
563.385	1	-8
563.725	1	-7
564.064	1	-4
564.404	1	1
564.744	1	-4
565.084	1	-5
565.424	1	8
565.764	1	-7
566.104	1	-1
566.444	1	-2
566.783	1	-11
567.123	1	5
567.463	1	6
567.803	1	-5
568.143	1	-2
568.483	1	-4
568.823	1	-3
569.162	1	-2
569.502	1	-3
569.842	1	6
570.182	1	-9
570.522	1	-12
570.862	1	-3
571.201	1	0
571.541	1	-1
571.881	1	13
572.221	1	-8
572.561	1	-2
572.900	1	0
573.240	1	4
573.580	1	0
573.920	1	8
574.260	1	14
574.599	1	-3
574.939	1	6
575.279	1	6
575.619	1	4
575.959	1	-9
576.298	1	12
576.638	1	-6
576.978	1	6
577.318	1	7
577.657	1	-7
577.997	1	-8
578.337	1	10
578.677	1	2
579.016	1	8
579.356	1	-6
579.696	1	8
580.036	1	-7
580.375	1	-6
580.715	1	-1
581.055	1	-1
581.394	1	-7
581.734	1	-2
582.074	1	-8
582.414	1	10
582.753	1	-14
583.093	1	1
583.433	1	3
583.772	1	8
584.112	1	-3
584.452	1	-1
584.791	1	-7
585.131	1	-1
585.471	1	6
585.811	1	12
586.150	1	-10
586.490	1	3
586.830	1	2
587.169	1	1
587.509	1	3
587.849	1	4
588.188	1	9
588.528	1	1
588.867	1	8
589.207	1	-3
589.547	1	0
589.886	1	-2
590.226	1	-4
590.566	1	-5
590.905	1	-5
591.245	1	-8
591.585	1	0
591.924	1	2
592.264	1	-2
592.603	1	-1
592.943	1	0
593.283	1	-10
593.622	1	-4
593.962	1	1
594.301	1	2
594.641	1	-2
594.981	1	-4
595.320	1	2
595.660	1	4
595.999	1	-6
596.339	1	0
596.678	1	-4
597.018	1	-6
597.358	1	3
597.697	1	-4
598.037	1	-1
598.376	1	-1
598.716	1	3
599.055	1	0
599.395	1	-3
599.734	1	3
600.074	1	4
600.413	1	13
600.753	1	0
601.092	1	6
601.432	1	0
601.771	1	-5
602.111	1	-2
602.451	1	10
602.790	1	4
603.130	1	3
603.469	1	-9
603.809	1	-6
604.148	1	5
604.487	1	1
604.827	1	4
605.166	1	-2
605.506	1	5
605.845	1	9
606.185	1	4
606.524	1	0
606.864	1	-9
607.203	1	-4
607.543	1	0
607.882	1	-3
608.222	1	1
608.561	1	1
608.901	1	-2
609.240	1	-4
609.579	1	0
609.919	1	1
610.258	1	7
610.598	1	3
610.937	1	1
611.277	1	6
611.616	1	0
611.955	1	-2
612.295	1	-1
612.634	1	1
612.974	1	-5
613.313	1	4
613.652	1	-1
613.992	1	1
614.331	1	-10
614.671	1	-5
615.010	1	-12
615.349	1	4
615.689	1	8
616.028	1	-5
616.368	1	-2
616.707	1	-6
617.046	1	5
617.386	1	8
617.725	1	6
618.064	1	-3
618.404	1	6
618.743	1	2
619.082	1	-2
619.422	1	-14
619.761	1	5
620.100	1	8
620.440	1	0
620.779	1	-15
621.118	1	4
621.458	1	-3
621.797	1	2
622.136	1	11
622.476	1	-2
622.815	1	9
623.154	1	5
623.494	1	0
623.833	1	-5
624.172	1	3
624.511	1	-3
624.851	1	-14
625.190	1	4
625.529	1	3
625.869	1	4
626.208	1	-2
626.547	1	-2
626.886	1	0
627.226	1	11
627.565	1	3
627.904	1	4
628.243	1	7
628.583	1	-3
628.922	1	2
629.261	1	6
629.600	1	7
629.940	1	3
630.279	1	-3
630.618	1	-4
630.957	1	-6
631.297	1	-2
631.636	1	-17
631.975	1	20
632.314	1	-2
632.653	1	-6
632.993	1	-5
633.332	1	4
633.671	1	-7
634.010	1	0
634.349	1	6
634.689	1	4
635.028	1	4
635.367	1	-4
635.706	1	2
636.045	1	4
636.384	1	6
636.724	1	7
637.063	1	0
637.402	1	-6
637.741	1	-3
638.080	1	5
638.419	1	-7
638.759	1	-6
639.098	1	0
639.437	1	0
639.776	1	-3
640.115	1	-2
640.454	1	1
640.793	1	12
641.132	1	5
641.472	1	9
641.811	1	1
642.150	1	-14
642.489	1	7
642.828	1	-7
643.167	1	-8
643.506	1	-10
643.845	1	0
644.184	1	0
644.524	1	-1
644.863	1	-2
645.202	1	6
645.541	1	9
645.880	1	6
646.219	1	-1
646.558	1	-5
646.897	1	9
647.236	1	0
647.575	1	-4
647.914	1	-1
648.253	1	2
648.592	1	-3
648.931	1	8
649.270	1	-5
649.610	1	0
649.949	1	-7
650.288	1	-4
650.627	1	-1
650.966	1	7
651.305	1	6
651.644	1	12
651.983	1	-1
652.322	1	-1
652.661	1	-7
653.000	1	0
653.339	1	10
653.678	1	4
654.017	1	-7
654.356	1	-10
654.695	1	3
655.034	1	0
655.373	1	3
655.712	1	-3
656.051	1	-6
656.390	1	0
656.729	1	9
657.068	1	7
657.406	1	6
657.745	1	-11
658.084	1	0
658.423	1	6
658.762	1	-8
659.101	1	7
659.440	1	1
659.779	1	7
660.118	1	3
660.457	1	2
660.796	1	-14
661.135	1	-4
661.474	1	-4
661.813	1	10
662.152	1	5
662.491	1	-12
662.829	1	-11
663.168	1	4
663.507	1	7
663.846	1	4
664.185	1	2
664.524	1	-8
664.863	1	-11
665.202	1	2
665.541	1	-9
665.879	1	-10
666.218	1	-6
666.557	1	-1
666.896	1	1
667.235	1	-2
667.574	1	1
667.913	1	5
668.251	1	-4
668.590	1	7
668.929	1	-8
669.268	1	-3
669.607	1	-3
669.946	1	-3
670.285	1	7
670.623	1	-4
670.962	1	-2
671.301	1	4
671.640	1	3
671.979	1	-5
672.317	1	9
672.656	1	2
672.995	1	7
673.334	1	-5
673.673	1	-4
674.011	1	0
674.350	1	6
674.689	1	-3
675.028	1	-11
675.367	1	2
675.705	1	-6
676.044	1	3
676.383	1	-2
676.722	1	-6
677.060	1	-10
677.399	1	-14
677.738	1	-3
678.077	1	4
678.416	1	6
678.754	1	-8
679.093	1	0
679.432	1	-4
679.771	1	2
680.109	1	9
680.448	1	0
680.787	1	2
681.125	1	0
681.464	1	-15
681.803	1	2
682.142	1	0
682.480	1	5
682.819	1	6
683.158	1	-12
683.496	1	7
683.835	1	4
684.174	1	-4
684.512	1	6
684.851	1	5
685.190	1	4
685.529	1	0
685.867	1	1
686.206	1	-4
686.545	1	-11
686.883	1	0
687.222	1	0
687.561	1	6
687.899	1	-6
688.238	1	7
688.577	1	-3
688.746	1	0