File: Data/GaN_200K_800ms/GaN_sample F_spot 12_UVVIS_200 K_200um_800 ms 2x2mm1_88.txt
340.368	1	3
340.710	1	-2
341.052	1	4
341.394	1	-3
341.737	1	0
342.079	1	5
342.421	1	5
342.763	1	13
343.105	1	7
343.447	1	1
343.789	1	2
344.131	1	6
344.473	1	-3
344.815	1	2
345.157	1	-4
345.499	1	5
345.841	1	10
346.183	1	-6
346.526	1	-7
346.868	1	5
347.210	1	-4
347.552	1	2
347.894	1	9
348.236	1	11
348.578	1	1
348.920	1	3
349.262	1	6
349.604	1	2
349.946	1	-5
350.288	1	7
350.630	1	5
350.972	1	5
351.314	1	9
351.656	1	15
351.998	1	11
352.340	1	6
352.682	1	3
353.024	1	10
353.366	1	25
353.708	1	10
354.050	1	16
354.392	1	1
354.734	1	9
355.076	1	11
355.418	1	0
355.760	1	8
356.102	1	15
356.444	1	16
356.785	1	14
357.127	1	6
357.469	1	14
357.811	1	5
358.153	1	16
358.495	1	16
358.837	1	10
359.179	1	24
359.521	1	20
359.863	1	27
360.205	1	20
360.547	1	25
360.889	1	24
361.231	1	23
361.572	1	27
361.914	1	36
362.256	1	37
362.598	1	30
362.940	1	32
363.282	1	50
363.624	1	48
363.966	1	58
364.308	1	50
364.649	1	62
364.991	1	68
365.333	1	72
365.675	1	70
366.017	1	76
366.359	1	85
366.701	1	86
367.042	1	90
367.384	1	97
367.726	1	107
368.068	1	112
368.410	1	116
368.752	1	119
369.093	1	116
369.435	1	124
369.777	1	127
370.119	1	116
370.461	1	122
370.803	1	115
371.144	1	110
371.486	1	125
371.828	1	106
372.170	1	112
372.512	1	98
372.853	1	92
373.195	1	89
373.537	1	95
373.879	1	83
374.220	1	94
374.562	1	80
374.904	1	77
375.246	1	70
375.588	1	68
375.929	1	82
376.271	1	62
376.613	1	66
376.955	1	53
377.296	1	50
377.638	1	57
377.980	1	52
378.321	1	39
378.663	1	40
379.005	1	60
379.347	1	51
379.688	1	42
380.030	1	45
380.372	1	30
380.714	1	42
381.055	1	38
381.397	1	39
381.739	1	32
382.080	1	37
382.422	1	20
382.764	1	26
383.105	1	30
383.447	1	15
383.789	1	31
384.130	1	20
384.472	1	20
384.814	1	22
385.156	1	10
385.497	1	22
385.839	1	23
386.180	1	16
386.522	1	24
386.864	1	18
387.205	1	15
387.547	1	10
387.889	1	17
388.230	1	16
388.572	1	13
388.914	1	6
389.255	1	16
389.597	1	7
389.939	1	22
390.280	1	17
390.622	1	8
390.963	1	18
391.305	1	16
391.647	1	19
391.988	1	21
392.330	1	13
392.671	1	-2
393.013	1	9
393.355	1	18
393.696	1	15
394.038	1	13
394.379	1	14
394.721	1	7
395.062	1	15
395.404	1	8
395.746	1	21
396.087	1	1
396.429	1	19
396.770	1	-1
397.112	1	20
397.453	1	16
397.795	1	15
398.136	1	0
398.478	1	8
398.819	1	3
399.161	1	12
399.503	1	2
399.844	1	11
400.186	1	9
400.527	1	-1
400.869	1	4
401.210	1	6
401.552	1	6
401.893	1	10
402.235	1	-1
402.576	1	-5
402.918	1	19
403.259	1	5
403.601	1	7
403.942	1	6
404.284	1	16
404.625	1	11
404.967	1	5
405.308	1	7
405.649	1	1
405.991	1	4
406.332	1	2
406.674	1	-5
407.015	1	5
407.357	1	7
407.698	1	10
408.040	1	-5
408.381	1	7
408.722	1	-8
409.064	1	10
409.405	1	12
409.747	1	-1
410.088	1	1
410.430	1	8
410.771	1	3
411.112	1	2
411.454	1	-8
411.795	1	0
412.137	1	13
412.478	1	11
412.819	1	8
413.161	1	-1
413.502	1	7
413.844	1	14
414.185	1	-2
414.526	1	8
414.868	1	2
415.209	1	-3
415.550	1	-3
415.892	1	2
416.233	1	13
416.575	1	9
416.916	1	4
417.257	1	4
417.599	1	10
417.940	1	5
418.281	1	-3
418.623	1	2
418.964	1	-5
419.305	1	-1
419.647	1	-4
419.988	1	-2
420.329	1	-1
420.671	1	8
421.012	1	11
421.353	1	-4
421.695	1	-3
422.036	1	2
422.377	1	-7
422.718	1	7
423.060	1	0
423.401	1	2
423.742	1	4
424.084	1	1
424.425	1	2
424.766	1	3
425.107	1	-8
425.449	1	2
425.790	1	-6
426.131	1	6
426.472	1	2
426.814	1	11
427.155	1	2
427.496	1	-7
427.837	1	1
428.179	1	0
428.520	1	-4
428.861	1	4
429.202	1	5
429.544	1	-2
429.885	1	11
430.226	1	-3
430.567	1	3
430.909	1	10
431.250	1	-4
431.591	1	13
431.932	1	0
432.273	1	8
432.615	1	-2
432.956	1	-6
433.297	1	6
433.638	1	0
433.979	1	18
434.320	1	6
434.662	1	10
435.003	1	-3
435.344	1	8
435.685	1	7
436.026	1	11
436.368	1	5
436.709	1	1
437.050	1	4
437.391	1	19
437.732	1	-5
438.073	1	3
438.414	1	0
438.756	1	-7
439.097	1	1
439.438	1	-2
439.779	1	-2
440.120	1	4
440.461	1	-2
440.802	1	-3
441.143	1	14
441.485	1	13
441.826	1	11
442.167	1	7
442.508	1	-10
442.849	1	10
443.190	1	2
443.531	1	11
443.872	1	5
444.213	1	1
444.554	1	5
444.895	1	-2
445.237	1	-4
445.578	1	0
445.919	1	-3
446.260	1	-4
446.601	1	-2
446.942	1	6
447.283	1	9
447.624	1	2
447.965	1	1
448.306	1	9
448.647	1	0
448.988	1	-4
449.329	1	5
449.670	1	9
450.011	1	1
450.352	1	5
450.693	1	4
451.034	1	-6
451.375	1	-5
451.716	1	-1
452.057	1	7
452.398	1	-2
452.739	1	6
453.080	1	1
453.421	1	-3
453.762	1	6
454.103	1	5
454.444	1	-4
454.785	1	4
455.126	1	-4
455.467	1	1
455.808	1	11
456.149	1	1
456.490	1	3
456.831	1	6
457.172	1	3
457.513	1	8
457.854	1	8
458.195	1	-8
458.536	1	8
458.877	1	-3
459.218	1	5
459.559	1	14
459.899	1	3
460.240	1	2
460.581	1	14
460.922	1	6
461.263	1	9
461.604	1	-2
461.945	1	7
462.286	1	2
462.627	1	10
462.968	1	7
463.309	1	1
463.649	1	3
463.990	1	-4
464.331	1	5
464.672	1	9
465.013	1	-3
465.354	1	0
465.695	1	-5
466.036	1	-2
466.376	1	5
466.717	1	2
467.058	1	-3
467.399	1	7
467.740	1	8
468.081	1	9
468.422	1	1
468.762	1	-8
469.103	1	-13
469.444	1	-8
469.785	1	-4
470.126	1	-3
470.467	1	-2
470.807	1	8
471.148	1	-2
471.489	1	2
471.830	1	-2
472.171	1	5
472.511	1	-4
472.852	1	-3
473.193	1	7
473.534	1	13
473.875	1	13
474.215	1	5
474.556	1	2
474.897	1	0
475.238	1	-4
475.578	1	-4
475.919	1	2
476.260	1	2
476.601	1	6
476.942	1	12
477.282	1	3
477.623	1	1
477.964	1	2
478.305	1	13
478.645	1	19
478.986	1	-5
479.327	1	-14
479.667	1	13
480.008	1	-8
480.349	1	-3
480.690	1	0
481.030	1	-7
481.371	1	11
481.712	1	6
482.053	1	2
482.393	1	3
482.734	1	-1
483.075	1	6
483.415	1	0
483.756	1	10
484.097	1	2
484.437	1	-7
484.778	1	7
485.119	1	3
485.459	1	20
485.800	1	2
486.141	1	4
486.481	1	1
486.822	1	8
487.163	1	0
487.503	1	1
487.844	1	5
488.185	1	2
488.525	1	5
488.866	1	0
489.207	1	2
489.547	1	-2
489.888	1	-3
490.228	1	12
490.569	1	13
490.910	1	10
491.250	1	-4
491.591	1	-8
491.932	1	-10
492.272	1	3
492.613	1	0
492.953	1	8
493.294	1	-2
493.635	1	5
493.975	1	3
494.316	1	7
494.656	1	9
494.997	1	7
495.337	1	12
495.678	1	10
496.019	1	4
496.359	1	3
496.700	1	2
497.040	1	1
497.381	1	4
497.721	1	6
498.062	1	4
498.403	1	0
498.743	1	4
499.084	1	1
499.424	1	7
499.765	1	3
500.105	1	0
500.446	1	-9
500.786	1	-2
501.127	1	1
501.467	1	-5
501.808	1	17
502.148	1	3
502.489	1	4
502.829	1	7
503.170	1	15
503.510	1	4
503.851	1	7
504.191	1	9
504.532	1	9
504.872	1	11
505.213	1	12
505.553	1	-1
505.894	1	2
506.234	1	10
506.575	1	12
506.915	1	15
507.256	1	16
507.596	1	4
507.936	1	3
508.277	1	-2
508.617	1	4
508.958	1	8
509.298	1	8
509.639	1	-3
509.979	1	3
510.319	1	9
510.660	1	-2
511.000	1	-7
511.341	1	3
511.681	1	3
512.022	1	2
512.362	1	2
512.702	1	9
513.043	1	13
513.383	1	1
513.724	1	3
514.064	1	21
514.404	1	10
514.745	1	-1
515.085	1	7
515.425	1	1
515.766	1	2
516.106	1	8
516.447	1	17
516.787	1	18
517.127	1	5
517.468	1	8
517.808	1	4
518.148	1	12
518.489	1	9
518.829	1	14
519.169	1	6
519.510	1	13
519.850	1	6
520.190	1	1
520.531	1	28
520.871	1	11
521.211	1	1
521.552	1	13
521.892	1	16
522.232	1	16
522.573	1	13
522.913	1	13
523.253	1	11
523.593	1	12
523.934	1	15
524.274	1	10
524.614	1	11
524.955	1	-1
525.295	1	16
525.635	1	8
525.975	1	10
526.316	1	20
526.656	1	14
526.996	1	20
527.337	1	5
527.677	1	12
528.017	1	7
528.357	1	9
528.698	1	13
529.038	1	8
529.378	1	13
529.718	1	19
530.058	1	8
530.399	1	16
530.739	1	16
531.079	1	16
531.419	1	15
531.760	1	14
532.100	1	14
532.440	1	12
532.780	1	15
533.120	1	16
533.461	1	16
533.801	1	26
534.141	1	-6
534.481	1	3
534.821	1	14
535.162	1	14
535.502	1	3
535.842	1	14
536.182	1	18
536.522	1	-2
536.862	1	10
537.203	1	1
537.543	1	7
537.883	1	9
538.223	1	13
538.563	1	16
538.903	1	5
539.243	1	9
539.584	1	14
539.924	1	15
540.264	1	4
540.604	1	8
540.944	1	6
541.284	1	16
541.624	1	13
541.964	1	12
542.305	1	18
542.645	1	24
542.985	1	13
543.325	1	5
543.665	1	13
544.005	1	17
544.345	1	17
544.685	1	20
545.025	1	21
545.365	1	12
545.705	1	11
546.045	1	7
546.386	1	16
546.726	1	6
547.066	1	18
547.406	1	18
547.746	1	-3
548.086	1	23
548.426	1	7
548.766	1	18
549.106	1	20
549.446	1	20
549.786	1	12
550.126	1	32
550.466	1	19
550.806	1	9
551.146	1	13
551.486	1	11
551.826	1	14
552.166	1	12
552.506	1	20
552.846	1	25
553.186	1	18
553.526	1	11
553.866	1	19
554.206	1	13
554.546	1	16
554.886	1	11
555.226	1	15
555.566	1	11
555.906	1	21
556.246	1	10
556.586	1	11
556.926	1	13
557.266	1	4
557.606	1	14
557.946	1	17
558.286	1	16
558.626	1	12
558.966	1	6
559.306	1	6
559.646	1	10
559.986	1	6
560.325	1	10
560.665	1	15
561.005	1	9
561.345	1	20
561.685	1	17
562.025	1	20
562.365	1	14
562.705	1	17
563.045	1	8
563.385	1	-1
563.725	1	10
564.064	1	5
564.404	1	24
564.744	1	21
565.084	1	8
565.424	1	18
565.764	1	13
566.104	1	9
566.444	1	3
566.783	1	16
567.123	1	19
567.463	1	15
567.803	1	13
568.143	1	14
568.483	1	29
568.823	1	19
569.162	1	20
569.502	1	14
569.842	1	17
570.182	1	20
570.522	1	13
570.862	1	7
571.201	1	22
571.541	1	13
571.881	1	25
572.221	1	6
572.561	1	12
572.900	1	6
573.240	1	24
573.580	1	18
573.920	1	19
574.260	1	21
574.599	1	23
574.939	1	14
575.279	1	28
575.619	1	13
575.959	1	6
576.298	1	19
576.638	1	5
576.978	1	12
577.318	1	10
577.657	1	8
577.997	1	22
578.337	1	20
578.677	1	21
579.016	1	15
579.356	1	6
579.696	1	9
580.036	1	17
580.375	1	15
580.715	1	8
581.055	1	13
581.394	1	16
581.734	1	0
582.074	1	16
582.414	1	15
582.753	1	8
583.093	1	9
583.433	1	5
583.772	1	19
584.112	1	6
584.452	1	7
584.791	1	14
585.131	1	10
585.471	1	20
585.811	1	23
586.150	1	10
586.490	1	15
586.830	1	11
587.169	1	17
587.509	1	19
587.849	1	12
588.188	1	25
588.528	1	16
588.867	1	5
589.207	1	19
589.547	1	10
589.886	1	7
590.226	1	12
590.566	1	5
590.905	1	16
591.245	1	5
591.585	1	14
591.924	1	12
592.264	1	17
592.603	1	12
592.943	1	17
593.283	1	17
593.622	1	3
593.962	1	20
594.301	1	9
594.641	1	9
594.981	1	3
595.320	1	14
595.660	1	14
595.999	1	3
596.339	1	13
596.678	1	7
597.018	1	13
597.358	1	7
597.697	1	23
598.037	1	3
598.376	1	11
598.716	1	12
599.055	1	16
599.395	1	6
599.734	1	6
600.074	1	0
600.413	1	17
600.753	1	7
601.092	1	28
601.432	1	0
601.771	1	14
602.111	1	12
602.451	1	21
602.790	1	6
603.130	1	17
603.469	1	5
603.809	1	13
604.148	1	21
604.487	1	13
604.827	1	14
605.166	1	8
605.506	1	19
605.845	1	6
606.185	1	19
606.524	1	11
606.864	1	17
607.203	1	9
607.543	1	9
607.882	1	23
608.222	1	20
608.561	1	12
608.901	1	17
609.240	1	10
609.579	1	20
609.919	1	24
610.258	1	14
610.598	1	9
610.937	1	11
611.277	1	7
611.616	1	6
611.955	1	15
612.295	1	7
612.634	1	7
612.974	1	-3
613.313	1	17
613.652	1	8
613.992	1	3
614.331	1	5
614.671	1	17
615.010	1	0
615.349	1	17
615.689	1	10
616.028	1	9
616.368	1	14
616.707	1	8
617.046	1	14
617.386	1	12
617.725	1	9
618.064	1	2
618.404	1	2
618.743	1	17
619.082	1	9
619.422	1	7
619.761	1	8
620.100	1	19
620.440	1	2
620.779	1	10
621.118	1	12
621.458	1	11
621.797	1	8
622.136	1	19
622.476	1	4
622.815	1	6
623.154	1	13
623.494	1	13
623.833	1	17
624.172	1	6
624.511	1	7
624.851	1	-4
625.190	1	2
625.529	1	16
625.869	1	15
626.208	1	8
626.547	1	6
626.886	1	12
627.226	1	18
627.565	1	8
627.904	1	3
628.243	1	5
628.583	1	11
628.922	1	14
629.261	1	15
629.600	1	15
629.940	1	7
630.279	1	9
630.618	1	3
630.957	1	0
631.297	1	12
631.636	1	1
631.975	1	24
632.314	1	7
632.653	1	8
632.993	1	4
633.332	1	1
633.671	1	5
634.010	1	4
634.349	1	9
634.689	1	15
635.028	1	15
635.367	1	5
635.706	1	2
636.045	1	20
636.384	1	9
636.724	1	0
637.063	1	2
637.402	1	12
637.741	1	4
638.080	1	3
638.419	1	7
638.759	1	-2
639.098	1	17
639.437	1	7
639.776	1	1
640.115	1	8
640.454	1	-8
640.793	1	15
641.132	1	13
641.472	1	19
641.811	1	7
642.150	1	-7
642.489	1	8
642.828	1	4
643.167	1	-1
643.506	1	-2
643.845	1	4
644.184	1	7
644.524	1	0
644.863	1	-6
645.202	1	-1
645.541	1	6
645.880	1	10
646.219	1	6
646.558	1	-2
646.897	1	18
647.236	1	4
647.575	1	16
647.914	1	8
648.253	1	16
648.592	1	0
648.931	1	14
649.270	1	6
649.610	1	1
649.949	1	2
650.288	1	10
650.627	1	2
650.966	1	9
651.305	1	10
651.644	1	22
651.983	1	2
652.322	1	11
652.661	1	6
653.000	1	1
653.339	1	11
653.678	1	10
654.017	1	7
654.356	1	-1
654.695	1	11
655.034	1	10
655.373	1	14
655.712	1	16
656.051	1	6
656.390	1	1
656.729	1	8
657.068	1	12
657.406	1	3
657.745	1	4
658.084	1	12
658.423	1	13
658.762	1	7
659.101	1	16
659.440	1	8
659.779	1	3
660.118	1	5
660.457	1	7
660.796	1	-12
661.135	1	10
661.474	1	-1
661.813	1	13
662.152	1	1
662.491	1	6
662.829	1	0
663.168	1	14
663.507	1	5
663.846	1	1
664.185	1	4
664.524	1	12
664.863	1	2
665.202	1	4
665.541	1	-6
665.879	1	-6
666.218	1	1
666.557	1	6
666.896	1	-2
667.235	1	15
667.574	1	1
667.913	1	15
668.251	1	-1
668.590	1	4
668.929	1	-2
669.268	1	-3
669.607	1	8
669.946	1	-3
670.285	1	5
670.623	1	0
670.962	1	10
671.301	1	5
671.640	1	3
671.979	1	15
672.317	1	5
672.656	1	9
672.995	1	7
673.334	1	1
673.673	1	0
674.011	1	6
674.350	1	12
674.689	1	9
675.028	1	5
675.367	1	7
675.705	1	8
676.044	1	6
676.383	1	11
676.722	1	0
677.060	1	3
677.399	1	3
677.738	1	8
678.077	1	13
678.416	1	10
678.754	1	1
679.093	1	15
679.432	1	0
679.771	1	0
680.109	1	19
680.448	1	10
680.787	1	5
681.125	1	6
681.464	1	0
681.803	1	14
682.142	1	14
682.480	1	12
682.819	1	7
683.158	1	7
683.496	1	5
683.835	1	8
684.174	1	0
684.512	1	13
684.851	1	5
685.190	1	3
685.529	1	9
685.867	1	-2
686.206	1	5
686.545	1	-2
686.883	1	14
687.222	1	9
687.561	1	9
687.899	1	6
688.238	1	16
688.577	1	3
688.746	1	2