File: Data/GaN_200K_800ms/GaN_sample F_spot 12_UVVIS_200 K_200um_800 ms 2x2mm1_54.txt
340.368	1	6
340.710	1	-1
341.052	1	9
341.394	1	-5
341.737	1	7
342.079	1	4
342.421	1	2
342.763	1	9
343.105	1	1
343.447	1	1
343.789	1	3
344.131	1	4
344.473	1	1
344.815	1	-1
345.157	1	-2
345.499	1	7
345.841	1	11
346.183	1	7
346.526	1	-4
346.868	1	2
347.210	1	2
347.552	1	3
347.894	1	9
348.236	1	12
348.578	1	12
348.920	1	14
349.262	1	6
349.604	1	4
349.946	1	-2
350.288	1	15
350.630	1	14
350.972	1	9
351.314	1	14
351.656	1	14
351.998	1	14
352.340	1	14
352.682	1	16
353.024	1	12
353.366	1	26
353.708	1	9
354.050	1	16
354.392	1	9
354.734	1	13
355.076	1	16
355.418	1	2
355.760	1	25
356.102	1	29
356.444	1	26
356.785	1	26
357.127	1	25
357.469	1	39
357.811	1	30
358.153	1	34
358.495	1	30
358.837	1	29
359.179	1	42
359.521	1	45
359.863	1	38
360.205	1	48
360.547	1	55
360.889	1	53
361.231	1	59
361.572	1	76
361.914	1	69
362.256	1	83
362.598	1	82
362.940	1	96
363.282	1	107
363.624	1	134
363.966	1	121
364.308	1	129
364.649	1	159
364.991	1	183
365.333	1	190
365.675	1	204
366.017	1	224
366.359	1	249
366.701	1	273
367.042	1	293
367.384	1	319
367.726	1	326
368.068	1	344
368.410	1	373
368.752	1	374
369.093	1	389
369.435	1	395
369.777	1	381
370.119	1	386
370.461	1	393
370.803	1	375
371.144	1	350
371.486	1	357
371.828	1	348
372.170	1	329
372.512	1	304
372.853	1	289
373.195	1	275
373.537	1	262
373.879	1	236
374.220	1	244
374.562	1	233
374.904	1	207
375.246	1	197
375.588	1	200
375.929	1	185
376.271	1	187
376.613	1	151
376.955	1	145
377.296	1	129
377.638	1	143
377.980	1	126
378.321	1	117
378.663	1	114
379.005	1	133
379.347	1	115
379.688	1	105
380.030	1	101
380.372	1	98
380.714	1	96
381.055	1	94
381.397	1	91
381.739	1	94
382.080	1	82
382.422	1	71
382.764	1	62
383.105	1	74
383.447	1	66
383.789	1	65
384.130	1	66
384.472	1	62
384.814	1	54
385.156	1	44
385.497	1	53
385.839	1	54
386.180	1	61
386.522	1	55
386.864	1	57
387.205	1	38
387.547	1	38
387.889	1	39
388.230	1	48
388.572	1	30
388.914	1	38
389.255	1	29
389.597	1	44
389.939	1	37
390.280	1	32
390.622	1	28
390.963	1	48
391.305	1	41
391.647	1	33
391.988	1	44
392.330	1	35
392.671	1	25
393.013	1	30
393.355	1	30
393.696	1	32
394.038	1	37
394.379	1	22
394.721	1	16
395.062	1	26
395.404	1	21
395.746	1	28
396.087	1	12
396.429	1	21
396.770	1	11
397.112	1	18
397.453	1	24
397.795	1	19
398.136	1	15
398.478	1	22
398.819	1	17
399.161	1	27
399.503	1	19
399.844	1	14
400.186	1	16
400.527	1	17
400.869	1	15
401.210	1	17
401.552	1	-2
401.893	1	15
402.235	1	5
402.576	1	5
402.918	1	17
403.259	1	15
403.601	1	8
403.942	1	18
404.284	1	14
404.625	1	12
404.967	1	15
405.308	1	7
405.649	1	11
405.991	1	5
406.332	1	17
406.674	1	0
407.015	1	9
407.357	1	11
407.698	1	14
408.040	1	0
408.381	1	12
408.722	1	-8
409.064	1	15
409.405	1	16
409.747	1	12
410.088	1	6
410.430	1	13
410.771	1	14
411.112	1	-2
411.454	1	-5
411.795	1	6
412.137	1	12
412.478	1	14
412.819	1	6
413.161	1	4
413.502	1	4
413.844	1	2
414.185	1	8
414.526	1	-2
414.868	1	7
415.209	1	4
415.550	1	-1
415.892	1	8
416.233	1	10
416.575	1	18
416.916	1	6
417.257	1	7
417.599	1	6
417.940	1	11
418.281	1	9
418.623	1	4
418.964	1	-2
419.305	1	5
419.647	1	7
419.988	1	2
420.329	1	-5
420.671	1	18
421.012	1	4
421.353	1	2
421.695	1	4
422.036	1	3
422.377	1	-1
422.718	1	17
423.060	1	9
423.401	1	1
423.742	1	12
424.084	1	5
424.425	1	6
424.766	1	-2
425.107	1	4
425.449	1	9
425.790	1	-2
426.131	1	6
426.472	1	9
426.814	1	3
427.155	1	-1
427.496	1	1
427.837	1	3
428.179	1	-6
428.520	1	4
428.861	1	-2
429.202	1	8
429.544	1	-3
429.885	1	5
430.226	1	-6
430.567	1	13
430.909	1	17
431.250	1	4
431.591	1	13
431.932	1	-4
432.273	1	-2
432.615	1	-9
432.956	1	-4
433.297	1	6
433.638	1	4
433.979	1	10
434.320	1	9
434.662	1	12
435.003	1	0
435.344	1	8
435.685	1	1
436.026	1	10
436.368	1	6
436.709	1	8
437.050	1	5
437.391	1	11
437.732	1	-3
438.073	1	3
438.414	1	-8
438.756	1	-4
439.097	1	-5
439.438	1	5
439.779	1	-2
440.120	1	1
440.461	1	3
440.802	1	-1
441.143	1	12
441.485	1	1
441.826	1	1
442.167	1	1
442.508	1	-3
442.849	1	6
443.190	1	11
443.531	1	3
443.872	1	18
444.213	1	1
444.554	1	16
444.895	1	-1
445.237	1	-4
445.578	1	-6
445.919	1	-2
446.260	1	0
446.601	1	-5
446.942	1	5
447.283	1	0
447.624	1	-1
447.965	1	8
448.306	1	3
448.647	1	-7
448.988	1	-1
449.329	1	5
449.670	1	7
450.011	1	12
450.352	1	2
450.693	1	2
451.034	1	-3
451.375	1	3
451.716	1	1
452.057	1	10
452.398	1	7
452.739	1	12
453.080	1	-1
453.421	1	2
453.762	1	11
454.103	1	11
454.444	1	-4
454.785	1	-6
455.126	1	1
455.467	1	3
455.808	1	4
456.149	1	4
456.490	1	6
456.831	1	8
457.172	1	2
457.513	1	11
457.854	1	7
458.195	1	1
458.536	1	5
458.877	1	-2
459.218	1	8
459.559	1	7
459.899	1	5
460.240	1	2
460.581	1	19
460.922	1	0
461.263	1	0
461.604	1	6
461.945	1	4
462.286	1	6
462.627	1	11
462.968	1	13
463.309	1	5
463.649	1	4
463.990	1	-4
464.331	1	0
464.672	1	7
465.013	1	4
465.354	1	13
465.695	1	5
466.036	1	-1
466.376	1	3
466.717	1	-5
467.058	1	6
467.399	1	13
467.740	1	-5
468.081	1	0
468.422	1	-6
468.762	1	-11
469.103	1	1
469.444	1	-3
469.785	1	-9
470.126	1	-3
470.467	1	-2
470.807	1	8
471.148	1	4
471.489	1	1
471.830	1	9
472.171	1	13
472.511	1	-7
472.852	1	3
473.193	1	18
473.534	1	6
473.875	1	10
474.215	1	14
474.556	1	1
474.897	1	11
475.238	1	3
475.578	1	0
475.919	1	-4
476.260	1	1
476.601	1	0
476.942	1	11
477.282	1	7
477.623	1	-4
477.964	1	8
478.305	1	-2
478.645	1	15
478.986	1	-5
479.327	1	0
479.667	1	2
480.008	1	12
480.349	1	2
480.690	1	8
481.030	1	10
481.371	1	13
481.712	1	15
482.053	1	1
482.393	1	9
482.734	1	-1
483.075	1	3
483.415	1	14
483.756	1	13
484.097	1	-2
484.437	1	8
484.778	1	4
485.119	1	1
485.459	1	20
485.800	1	5
486.141	1	4
486.481	1	11
486.822	1	11
487.163	1	11
487.503	1	5
487.844	1	12
488.185	1	8
488.525	1	10
488.866	1	6
489.207	1	3
489.547	1	5
489.888	1	3
490.228	1	8
490.569	1	19
490.910	1	3
491.250	1	9
491.591	1	1
491.932	1	10
492.272	1	7
492.613	1	-2
492.953	1	8
493.294	1	5
493.635	1	13
493.975	1	5
494.316	1	17
494.656	1	9
494.997	1	15
495.337	1	22
495.678	1	8
496.019	1	5
496.359	1	3
496.700	1	15
497.040	1	5
497.381	1	8
497.721	1	2
498.062	1	8
498.403	1	16
498.743	1	11
499.084	1	5
499.424	1	14
499.765	1	10
500.105	1	15
500.446	1	14
500.786	1	3
501.127	1	12
501.467	1	11
501.808	1	15
502.148	1	14
502.489	1	18
502.829	1	9
503.170	1	19
503.510	1	20
503.851	1	9
504.191	1	23
504.532	1	13
504.872	1	10
505.213	1	32
505.553	1	12
505.894	1	0
506.234	1	27
506.575	1	17
506.915	1	14
507.256	1	21
507.596	1	27
507.936	1	18
508.277	1	22
508.617	1	15
508.958	1	5
509.298	1	26
509.639	1	16
509.979	1	10
510.319	1	22
510.660	1	14
511.000	1	9
511.341	1	11
511.681	1	20
512.022	1	7
512.362	1	23
512.702	1	13
513.043	1	25
513.383	1	13
513.724	1	17
514.064	1	16
514.404	1	17
514.745	1	12
515.085	1	19
515.425	1	5
515.766	1	14
516.106	1	17
516.447	1	36
516.787	1	38
517.127	1	18
517.468	1	21
517.808	1	19
518.148	1	21
518.489	1	25
518.829	1	29
519.169	1	30
519.510	1	32
519.850	1	33
520.190	1	21
520.531	1	34
520.871	1	30
521.211	1	28
521.552	1	32
521.892	1	25
522.232	1	36
522.573	1	30
522.913	1	27
523.253	1	27
523.593	1	21
523.934	1	28
524.274	1	28
524.614	1	28
524.955	1	25
525.295	1	28
525.635	1	15
525.975	1	24
526.316	1	43
526.656	1	29
526.996	1	39
527.337	1	26
527.677	1	28
528.017	1	25
528.357	1	33
528.698	1	30
529.038	1	30
529.378	1	36
529.718	1	43
530.058	1	31
530.399	1	30
530.739	1	32
531.079	1	38
531.419	1	44
531.760	1	38
532.100	1	29
532.440	1	34
532.780	1	24
533.120	1	33
533.461	1	27
533.801	1	48
534.141	1	27
534.481	1	31
534.821	1	34
535.162	1	38
535.502	1	35
535.842	1	37
536.182	1	24
536.522	1	23
536.862	1	29
537.203	1	28
537.543	1	39
537.883	1	32
538.223	1	26
538.563	1	32
538.903	1	22
539.243	1	33
539.584	1	22
539.924	1	38
540.264	1	31
540.604	1	31
540.944	1	26
541.284	1	31
541.624	1	31
541.964	1	40
542.305	1	40
542.645	1	24
542.985	1	34
543.325	1	31
543.665	1	36
544.005	1	46
544.345	1	31
544.685	1	32
545.025	1	24
545.365	1	27
545.705	1	34
546.045	1	31
546.386	1	43
546.726	1	29
547.066	1	42
547.406	1	40
547.746	1	18
548.086	1	23
548.426	1	23
548.766	1	30
549.106	1	30
549.446	1	39
549.786	1	36
550.126	1	50
550.466	1	33
550.806	1	31
551.146	1	30
551.486	1	44
551.826	1	40
552.166	1	31
552.506	1	35
552.846	1	46
553.186	1	41
553.526	1	39
553.866	1	38
554.206	1	42
554.546	1	39
554.886	1	44
555.226	1	31
555.566	1	40
555.906	1	46
556.246	1	37
556.586	1	31
556.926	1	35
557.266	1	34
557.606	1	30
557.946	1	53
558.286	1	35
558.626	1	36
558.966	1	31
559.306	1	29
559.646	1	28
559.986	1	35
560.325	1	32
560.665	1	25
561.005	1	28
561.345	1	38
561.685	1	34
562.025	1	37
562.365	1	32
562.705	1	34
563.045	1	37
563.385	1	29
563.725	1	24
564.064	1	28
564.404	1	38
564.744	1	36
565.084	1	31
565.424	1	40
565.764	1	26
566.104	1	35
566.444	1	31
566.783	1	30
567.123	1	45
567.463	1	33
567.803	1	26
568.143	1	39
568.483	1	31
568.823	1	43
569.162	1	46
569.502	1	37
569.842	1	37
570.182	1	34
570.522	1	21
570.862	1	36
571.201	1	42
571.541	1	34
571.881	1	52
572.221	1	25
572.561	1	27
572.900	1	37
573.240	1	40
573.580	1	32
573.920	1	46
574.260	1	43
574.599	1	31
574.939	1	28
575.279	1	46
575.619	1	33
575.959	1	27
576.298	1	35
576.638	1	32
576.978	1	39
577.318	1	26
577.657	1	30
577.997	1	28
578.337	1	35
578.677	1	37
579.016	1	42
579.356	1	22
579.696	1	38
580.036	1	29
580.375	1	45
580.715	1	29
581.055	1	34
581.394	1	23
581.734	1	25
582.074	1	26
582.414	1	35
582.753	1	23
583.093	1	30
583.433	1	29
583.772	1	37
584.112	1	31
584.452	1	27
584.791	1	31
585.131	1	38
585.471	1	46
585.811	1	37
586.150	1	25
586.490	1	34
586.830	1	28
587.169	1	37
587.509	1	36
587.849	1	40
588.188	1	44
588.528	1	33
588.867	1	26
589.207	1	39
589.547	1	29
589.886	1	24
590.226	1	39
590.566	1	26
590.905	1	26
591.245	1	29
591.585	1	27
591.924	1	24
592.264	1	38
592.603	1	29
592.943	1	32
593.283	1	24
593.622	1	28
593.962	1	31
594.301	1	37
594.641	1	27
594.981	1	10
595.320	1	22
595.660	1	24
595.999	1	20
596.339	1	28
596.678	1	20
597.018	1	24
597.358	1	18
597.697	1	24
598.037	1	22
598.376	1	25
598.716	1	28
599.055	1	21
599.395	1	24
599.734	1	29
600.074	1	18
600.413	1	23
600.753	1	36
601.092	1	35
601.432	1	14
601.771	1	29
602.111	1	37
602.451	1	24
602.790	1	29
603.130	1	36
603.469	1	34
603.809	1	27
604.148	1	32
604.487	1	15
604.827	1	31
605.166	1	33
605.506	1	30
605.845	1	26
606.185	1	38
606.524	1	21
606.864	1	27
607.203	1	17
607.543	1	27
607.882	1	34
608.222	1	17
608.561	1	24
608.901	1	25
609.240	1	10
609.579	1	34
609.919	1	24
610.258	1	32
610.598	1	26
610.937	1	18
611.277	1	22
611.616	1	19
611.955	1	18
612.295	1	21
612.634	1	21
612.974	1	14
613.313	1	31
613.652	1	20
613.992	1	22
614.331	1	23
614.671	1	16
615.010	1	16
615.349	1	25
615.689	1	28
616.028	1	36
616.368	1	17
616.707	1	23
617.046	1	18
617.386	1	19
617.725	1	23
618.064	1	11
618.404	1	25
618.743	1	24
619.082	1	13
619.422	1	9
619.761	1	10
620.100	1	20
620.440	1	22
620.779	1	14
621.118	1	13
621.458	1	25
621.797	1	8
622.136	1	36
622.476	1	27
622.815	1	22
623.154	1	24
623.494	1	26
623.833	1	16
624.172	1	19
624.511	1	18
624.851	1	8
625.190	1	12
625.529	1	26
625.869	1	27
626.208	1	15
626.547	1	27
626.886	1	21
627.226	1	15
627.565	1	17
627.904	1	19
628.243	1	24
628.583	1	17
628.922	1	18
629.261	1	9
629.600	1	27
629.940	1	18
630.279	1	6
630.618	1	20
630.957	1	12
631.297	1	19
631.636	1	11
631.975	1	19
632.314	1	27
632.653	1	24
632.993	1	9
633.332	1	20
633.671	1	14
634.010	1	9
634.349	1	25
634.689	1	13
635.028	1	17
635.367	1	10
635.706	1	17
636.045	1	23
636.384	1	14
636.724	1	14
637.063	1	13
637.402	1	16
637.741	1	19
638.080	1	12
638.419	1	13
638.759	1	6
639.098	1	10
639.437	1	14
639.776	1	12
640.115	1	9
640.454	1	8
640.793	1	26
641.132	1	22
641.472	1	13
641.811	1	16
642.150	1	3
642.489	1	25
642.828	1	7
643.167	1	14
643.506	1	8
643.845	1	16
644.184	1	13
644.524	1	6
644.863	1	6
645.202	1	19
645.541	1	10
645.880	1	10
646.219	1	14
646.558	1	14
646.897	1	19
647.236	1	20
647.575	1	15
647.914	1	7
648.253	1	19
648.592	1	12
648.931	1	27
649.270	1	14
649.610	1	11
649.949	1	5
650.288	1	20
650.627	1	11
650.966	1	13
651.305	1	11
651.644	1	25
651.983	1	1
652.322	1	6
652.661	1	11
653.000	1	14
653.339	1	21
653.678	1	9
654.017	1	9
654.356	1	6
654.695	1	17
655.034	1	6
655.373	1	20
655.712	1	17
656.051	1	9
656.390	1	13
656.729	1	22
657.068	1	12
657.406	1	13
657.745	1	14
658.084	1	13
658.423	1	9
658.762	1	6
659.101	1	20
659.440	1	13
659.779	1	11
660.118	1	11
660.457	1	12
660.796	1	0
661.135	1	9
661.474	1	12
661.813	1	22
662.152	1	14
662.491	1	12
662.829	1	-1
663.168	1	8
663.507	1	12
663.846	1	13
664.185	1	21
664.524	1	14
664.863	1	15
665.202	1	3
665.541	1	4
665.879	1	8
666.218	1	0
666.557	1	3
666.896	1	-3
667.235	1	20
667.574	1	4
667.913	1	11
668.251	1	5
668.590	1	1
668.929	1	-3
669.268	1	-3
669.607	1	9
669.946	1	14
670.285	1	16
670.623	1	0
670.962	1	12
671.301	1	5
671.640	1	14
671.979	1	7
672.317	1	15
672.656	1	-1
672.995	1	7
673.334	1	9
673.673	1	18
674.011	1	10
674.350	1	14
674.689	1	8
675.028	1	-1
675.367	1	10
675.705	1	9
676.044	1	17
676.383	1	9
676.722	1	9
677.060	1	2
677.399	1	9
677.738	1	14
678.077	1	13
678.416	1	10
678.754	1	10
679.093	1	10
679.432	1	9
679.771	1	8
680.109	1	16
680.448	1	11
680.787	1	-1
681.125	1	11
681.464	1	8
681.803	1	10
682.142	1	11
682.480	1	18
682.819	1	20
683.158	1	14
683.496	1	15
683.835	1	20
684.174	1	14
684.512	1	16
684.851	1	17
685.190	1	14
685.529	1	16
685.867	1	9
686.206	1	6
686.545	1	8
686.883	1	11
687.222	1	7
687.561	1	13
687.899	1	10
688.238	1	12
688.577	1	7
688.746	1	9