File: Data/GaN_200K_800ms/GaN_sample F_spot 12_UVVIS_200 K_200um_800 ms 2x2mm1_314.txt
340.368	1	-2
340.710	1	-2
341.052	1	10
341.394	1	-4
341.737	1	2
342.079	1	4
342.421	1	-3
342.763	1	2
343.105	1	3
343.447	1	1
343.789	1	-9
344.131	1	-5
344.473	1	-4
344.815	1	-3
345.157	1	-2
345.499	1	0
345.841	1	1
346.183	1	-11
346.526	1	-13
346.868	1	6
347.210	1	-11
347.552	1	-3
347.894	1	-3
348.236	1	9
348.578	1	-3
348.920	1	4
349.262	1	-10
349.604	1	-4
349.946	1	-5
350.288	1	13
350.630	1	9
350.972	1	0
351.314	1	7
351.656	1	0
351.998	1	12
352.340	1	2
352.682	1	-3
353.024	1	3
353.366	1	10
353.708	1	2
354.050	1	-3
354.392	1	-12
354.734	1	0
355.076	1	-6
355.418	1	-16
355.760	1	-5
356.102	1	16
356.444	1	5
356.785	1	17
357.127	1	4
357.469	1	1
357.811	1	3
358.153	1	2
358.495	1	6
358.837	1	2
359.179	1	-10
359.521	1	7
359.863	1	2
360.205	1	3
360.547	1	4
360.889	1	-2
361.231	1	-8
361.572	1	9
361.914	1	10
362.256	1	6
362.598	1	-5
362.940	1	5
363.282	1	9
363.624	1	14
363.966	1	8
364.308	1	-2
364.649	1	15
364.991	1	9
365.333	1	6
365.675	1	8
366.017	1	11
366.359	1	9
366.701	1	13
367.042	1	7
367.384	1	12
367.726	1	12
368.068	1	12
368.410	1	29
368.752	1	12
369.093	1	9
369.435	1	16
369.777	1	6
370.119	1	16
370.461	1	34
370.803	1	12
371.144	1	9
371.486	1	24
371.828	1	18
372.170	1	24
372.512	1	4
372.853	1	15
373.195	1	15
373.537	1	13
373.879	1	11
374.220	1	32
374.562	1	12
374.904	1	9
375.246	1	16
375.588	1	14
375.929	1	9
376.271	1	22
376.613	1	3
376.955	1	15
377.296	1	5
377.638	1	10
377.980	1	1
378.321	1	-1
378.663	1	3
379.005	1	17
379.347	1	-2
379.688	1	9
380.030	1	5
380.372	1	10
380.714	1	10
381.055	1	6
381.397	1	-2
381.739	1	0
382.080	1	7
382.422	1	8
382.764	1	1
383.105	1	4
383.447	1	3
383.789	1	-13
384.130	1	7
384.472	1	1
384.814	1	-3
385.156	1	1
385.497	1	0
385.839	1	5
386.180	1	11
386.522	1	3
386.864	1	-2
387.205	1	-7
387.547	1	-12
387.889	1	3
388.230	1	13
388.572	1	-3
388.914	1	3
389.255	1	-6
389.597	1	5
389.939	1	7
390.280	1	3
390.622	1	-3
390.963	1	8
391.305	1	4
391.647	1	5
391.988	1	8
392.330	1	1
392.671	1	-4
393.013	1	5
393.355	1	8
393.696	1	4
394.038	1	3
394.379	1	2
394.721	1	-8
395.062	1	-6
395.404	1	-5
395.746	1	5
396.087	1	-6
396.429	1	-3
396.770	1	-5
397.112	1	5
397.453	1	11
397.795	1	2
398.136	1	-6
398.478	1	1
398.819	1	11
399.161	1	7
399.503	1	5
399.844	1	-2
400.186	1	-5
400.527	1	2
400.869	1	0
401.210	1	0
401.552	1	-17
401.893	1	2
402.235	1	0
402.576	1	3
402.918	1	12
403.259	1	0
403.601	1	-1
403.942	1	9
404.284	1	10
404.625	1	-4
404.967	1	7
405.308	1	6
405.649	1	0
405.991	1	-1
406.332	1	2
406.674	1	-13
407.015	1	1
407.357	1	-4
407.698	1	6
408.040	1	-4
408.381	1	2
408.722	1	-13
409.064	1	8
409.405	1	12
409.747	1	-3
410.088	1	-2
410.430	1	8
410.771	1	1
411.112	1	1
411.454	1	-7
411.795	1	-4
412.137	1	6
412.478	1	10
412.819	1	10
413.161	1	-8
413.502	1	4
413.844	1	2
414.185	1	2
414.526	1	0
414.868	1	-1
415.209	1	0
415.550	1	1
415.892	1	1
416.233	1	7
416.575	1	17
416.916	1	2
417.257	1	-5
417.599	1	-1
417.940	1	6
418.281	1	0
418.623	1	-3
418.964	1	-12
419.305	1	4
419.647	1	-6
419.988	1	2
420.329	1	-6
420.671	1	3
421.012	1	4
421.353	1	-8
421.695	1	-4
422.036	1	-5
422.377	1	-4
422.718	1	-1
423.060	1	-7
423.401	1	3
423.742	1	2
424.084	1	-6
424.425	1	1
424.766	1	-1
425.107	1	-13
425.449	1	3
425.790	1	-11
426.131	1	-1
426.472	1	-5
426.814	1	6
427.155	1	1
427.496	1	0
427.837	1	-3
428.179	1	-6
428.520	1	-2
428.861	1	-2
429.202	1	-4
429.544	1	1
429.885	1	2
430.226	1	-10
430.567	1	-5
430.909	1	-1
431.250	1	-3
431.591	1	7
431.932	1	-4
432.273	1	-1
432.615	1	-5
432.956	1	0
433.297	1	6
433.638	1	-7
433.979	1	8
434.320	1	-1
434.662	1	-5
435.003	1	5
435.344	1	4
435.685	1	-6
436.026	1	4
436.368	1	-1
436.709	1	3
437.050	1	0
437.391	1	5
437.732	1	-10
438.073	1	2
438.414	1	-11
438.756	1	1
439.097	1	0
439.438	1	-1
439.779	1	-2
440.120	1	1
440.461	1	-1
440.802	1	-5
441.143	1	5
441.485	1	7
441.826	1	-2
442.167	1	2
442.508	1	5
442.849	1	-1
443.190	1	-4
443.531	1	1
443.872	1	0
444.213	1	5
444.554	1	8
444.895	1	-5
445.237	1	-7
445.578	1	-12
445.919	1	-12
446.260	1	-2
446.601	1	-1
446.942	1	6
447.283	1	0
447.624	1	1
447.965	1	-3
448.306	1	-2
448.647	1	-5
448.988	1	3
449.329	1	10
449.670	1	1
450.011	1	5
450.352	1	5
450.693	1	-7
451.034	1	-8
451.375	1	-10
451.716	1	-9
452.057	1	5
452.398	1	-5
452.739	1	3
453.080	1	1
453.421	1	-9
453.762	1	-1
454.103	1	-4
454.444	1	-2
454.785	1	-11
455.126	1	-3
455.467	1	5
455.808	1	-1
456.149	1	7
456.490	1	-2
456.831	1	1
457.172	1	-7
457.513	1	5
457.854	1	-9
458.195	1	-7
458.536	1	2
458.877	1	-4
459.218	1	-7
459.559	1	9
459.899	1	-1
460.240	1	-1
460.581	1	10
460.922	1	3
461.263	1	-5
461.604	1	5
461.945	1	-6
462.286	1	3
462.627	1	5
462.968	1	-1
463.309	1	-16
463.649	1	-2
463.990	1	3
464.331	1	-1
464.672	1	-9
465.013	1	-11
465.354	1	1
465.695	1	-2
466.036	1	0
466.376	1	-4
466.717	1	3
467.058	1	1
467.399	1	9
467.740	1	-5
468.081	1	6
468.422	1	-2
468.762	1	-2
469.103	1	-5
469.444	1	-7
469.785	1	-8
470.126	1	-7
470.467	1	-2
470.807	1	-6
471.148	1	-1
471.489	1	6
471.830	1	1
472.171	1	-4
472.511	1	-7
472.852	1	-1
473.193	1	5
473.534	1	2
473.875	1	10
474.215	1	2
474.556	1	3
474.897	1	6
475.238	1	-4
475.578	1	-4
475.919	1	-5
476.260	1	0
476.601	1	3
476.942	1	7
477.282	1	-3
477.623	1	-15
477.964	1	2
478.305	1	-1
478.645	1	8
478.986	1	-7
479.327	1	-7
479.667	1	-11
480.008	1	-1
480.349	1	-9
480.690	1	-3
481.030	1	-1
481.371	1	3
481.712	1	2
482.053	1	0
482.393	1	-6
482.734	1	-6
483.075	1	-1
483.415	1	0
483.756	1	12
484.097	1	-6
484.437	1	0
484.778	1	12
485.119	1	-3
485.459	1	13
485.800	1	-4
486.141	1	-1
486.481	1	-1
486.822	1	7
487.163	1	-6
487.503	1	5
487.844	1	-4
488.185	1	10
488.525	1	0
488.866	1	0
489.207	1	-6
489.547	1	-7
489.888	1	2
490.228	1	2
490.569	1	10
490.910	1	0
491.250	1	-8
491.591	1	-1
491.932	1	5
492.272	1	-3
492.613	1	-10
492.953	1	-11
493.294	1	-7
493.635	1	-6
493.975	1	-3
494.316	1	5
494.656	1	0
494.997	1	-3
495.337	1	-1
495.678	1	-6
496.019	1	-3
496.359	1	-2
496.700	1	4
497.040	1	-1
497.381	1	-1
497.721	1	0
498.062	1	-2
498.403	1	1
498.743	1	-1
499.084	1	-4
499.424	1	-5
499.765	1	1
500.105	1	0
500.446	1	-9
500.786	1	0
501.127	1	-7
501.467	1	-5
501.808	1	6
502.148	1	-2
502.489	1	-6
502.829	1	1
503.170	1	8
503.510	1	6
503.851	1	0
504.191	1	3
504.532	1	-1
504.872	1	5
505.213	1	-1
505.553	1	-1
505.894	1	2
506.234	1	16
506.575	1	3
506.915	1	4
507.256	1	0
507.596	1	3
507.936	1	0
508.277	1	-1
508.617	1	-4
508.958	1	0
509.298	1	2
509.639	1	-5
509.979	1	-3
510.319	1	3
510.660	1	-2
511.000	1	1
511.341	1	6
511.681	1	-2
512.022	1	-10
512.362	1	-3
512.702	1	-4
513.043	1	4
513.383	1	-7
513.724	1	-1
514.064	1	13
514.404	1	5
514.745	1	-4
515.085	1	0
515.425	1	4
515.766	1	-4
516.106	1	-4
516.447	1	6
516.787	1	5
517.127	1	-6
517.468	1	7
517.808	1	-8
518.148	1	4
518.489	1	-1
518.829	1	6
519.169	1	6
519.510	1	2
519.850	1	-4
520.190	1	-5
520.531	1	2
520.871	1	7
521.211	1	-7
521.552	1	6
521.892	1	-4
522.232	1	7
522.573	1	-7
522.913	1	0
523.253	1	1
523.593	1	-1
523.934	1	6
524.274	1	2
524.614	1	-10
524.955	1	-3
525.295	1	-2
525.635	1	-4
525.975	1	3
526.316	1	6
526.656	1	-6
526.996	1	6
527.337	1	-3
527.677	1	4
528.017	1	-13
528.357	1	0
528.698	1	4
529.038	1	-3
529.378	1	4
529.718	1	3
530.058	1	-2
530.399	1	10
530.739	1	4
531.079	1	4
531.419	1	-1
531.760	1	3
532.100	1	0
532.440	1	2
532.780	1	-5
533.120	1	9
533.461	1	6
533.801	1	16
534.141	1	-5
534.481	1	-11
534.821	1	11
535.162	1	-7
535.502	1	-2
535.842	1	2
536.182	1	-4
536.522	1	-3
536.862	1	5
537.203	1	-1
537.543	1	-2
537.883	1	-1
538.223	1	-1
538.563	1	11
538.903	1	-12
539.243	1	9
539.584	1	-6
539.924	1	8
540.264	1	3
540.604	1	-2
540.944	1	6
541.284	1	-2
541.624	1	7
541.964	1	0
542.305	1	-1
542.645	1	5
542.985	1	5
543.325	1	9
543.665	1	4
544.005	1	13
544.345	1	11
544.685	1	-5
545.025	1	6
545.365	1	1
545.705	1	-6
546.045	1	-4
546.386	1	4
546.726	1	-19
547.066	1	-1
547.406	1	-3
547.746	1	-12
548.086	1	6
548.426	1	-6
548.766	1	2
549.106	1	-6
549.446	1	4
549.786	1	-3
550.126	1	10
550.466	1	4
550.806	1	-2
551.146	1	2
551.486	1	-1
551.826	1	11
552.166	1	8
552.506	1	3
552.846	1	-1
553.186	1	0
553.526	1	-2
553.866	1	-2
554.206	1	10
554.546	1	5
554.886	1	0
555.226	1	-14
555.566	1	10
555.906	1	12
556.246	1	2
556.586	1	9
556.926	1	10
557.266	1	-1
557.606	1	10
557.946	1	8
558.286	1	5
558.626	1	3
558.966	1	6
559.306	1	-5
559.646	1	-4
559.986	1	-2
560.325	1	-8
560.665	1	4
561.005	1	-9
561.345	1	-2
561.685	1	-4
562.025	1	-2
562.365	1	-1
562.705	1	-1
563.045	1	-5
563.385	1	-11
563.725	1	8
564.064	1	6
564.404	1	6
564.744	1	3
565.084	1	2
565.424	1	0
565.764	1	4
566.104	1	-5
566.444	1	-2
566.783	1	2
567.123	1	0
567.463	1	9
567.803	1	-9
568.143	1	-9
568.483	1	2
568.823	1	-3
569.162	1	11
569.502	1	2
569.842	1	2
570.182	1	-6
570.522	1	-4
570.862	1	0
571.201	1	9
571.541	1	3
571.881	1	7
572.221	1	-1
572.561	1	-9
572.900	1	-10
573.240	1	8
573.580	1	5
573.920	1	-5
574.260	1	6
574.599	1	-5
574.939	1	2
575.279	1	-4
575.619	1	-1
575.959	1	-10
576.298	1	8
576.638	1	-2
576.978	1	1
577.318	1	12
577.657	1	-3
577.997	1	-4
578.337	1	19
578.677	1	6
579.016	1	15
579.356	1	7
579.696	1	6
580.036	1	-6
580.375	1	11
580.715	1	7
581.055	1	-7
581.394	1	1
581.734	1	-10
582.074	1	8
582.414	1	2
582.753	1	0
583.093	1	-3
583.433	1	7
583.772	1	11
584.112	1	-2
584.452	1	12
584.791	1	-4
585.131	1	2
585.471	1	2
585.811	1	13
586.150	1	-8
586.490	1	-5
586.830	1	-12
587.169	1	7
587.509	1	-2
587.849	1	2
588.188	1	7
588.528	1	-2
588.867	1	12
589.207	1	-2
589.547	1	7
589.886	1	-5
590.226	1	-1
590.566	1	-2
590.905	1	-4
591.245	1	-5
591.585	1	1
591.924	1	-6
592.264	1	9
592.603	1	3
592.943	1	3
593.283	1	2
593.622	1	1
593.962	1	0
594.301	1	1
594.641	1	-2
594.981	1	-2
595.320	1	-3
595.660	1	1
595.999	1	-5
596.339	1	2
596.678	1	-3
597.018	1	0
597.358	1	10
597.697	1	-4
598.037	1	-6
598.376	1	10
598.716	1	10
599.055	1	-4
599.395	1	2
599.734	1	2
600.074	1	-3
600.413	1	12
600.753	1	0
601.092	1	10
601.432	1	-11
601.771	1	3
602.111	1	-3
602.451	1	0
602.790	1	1
603.130	1	7
603.469	1	-7
603.809	1	12
604.148	1	5
604.487	1	1
604.827	1	10
605.166	1	-3
605.506	1	3
605.845	1	-2
606.185	1	4
606.524	1	1
606.864	1	5
607.203	1	7
607.543	1	6
607.882	1	8
608.222	1	7
608.561	1	7
608.901	1	4
609.240	1	-11
609.579	1	9
609.919	1	4
610.258	1	6
610.598	1	-3
610.937	1	0
611.277	1	-6
611.616	1	-3
611.955	1	3
612.295	1	-4
612.634	1	-2
612.974	1	-12
613.313	1	3
613.652	1	0
613.992	1	2
614.331	1	0
614.671	1	12
615.010	1	-5
615.349	1	0
615.689	1	8
616.028	1	5
616.368	1	-2
616.707	1	-1
617.046	1	4
617.386	1	5
617.725	1	1
618.064	1	-1
618.404	1	0
618.743	1	1
619.082	1	-1
619.422	1	-4
619.761	1	-1
620.100	1	-5
620.440	1	3
620.779	1	-7
621.118	1	-6
621.458	1	-9
621.797	1	-2
622.136	1	5
622.476	1	-1
622.815	1	7
623.154	1	8
623.494	1	10
623.833	1	6
624.172	1	-8
624.511	1	-3
624.851	1	-5
625.190	1	-2
625.529	1	6
625.869	1	13
626.208	1	1
626.547	1	-3
626.886	1	3
627.226	1	2
627.565	1	2
627.904	1	-10
628.243	1	-3
628.583	1	-6
628.922	1	5
629.261	1	3
629.600	1	2
629.940	1	-4
630.279	1	-4
630.618	1	5
630.957	1	-7
631.297	1	2
631.636	1	-5
631.975	1	14
632.314	1	-1
632.653	1	-4
632.993	1	-6
633.332	1	1
633.671	1	-10
634.010	1	-8
634.349	1	5
634.689	1	0
635.028	1	4
635.367	1	-5
635.706	1	11
636.045	1	11
636.384	1	2
636.724	1	-2
637.063	1	5
637.402	1	-2
637.741	1	7
638.080	1	-7
638.419	1	-3
638.759	1	-9
639.098	1	5
639.437	1	-4
639.776	1	-4
640.115	1	-2
640.454	1	-4
640.793	1	5
641.132	1	10
641.472	1	9
641.811	1	-6
642.150	1	-5
642.489	1	10
642.828	1	-5
643.167	1	-7
643.506	1	-12
643.845	1	-8
644.184	1	2
644.524	1	-10
644.863	1	-18
645.202	1	1
645.541	1	7
645.880	1	0
646.219	1	4
646.558	1	-2
646.897	1	5
647.236	1	-1
647.575	1	-2
647.914	1	-9
648.253	1	6
648.592	1	-4
648.931	1	21
649.270	1	-4
649.610	1	-5
649.949	1	-9
650.288	1	9
650.627	1	0
650.966	1	-3
651.305	1	-5
651.644	1	9
651.983	1	0
652.322	1	0
652.661	1	-2
653.000	1	-5
653.339	1	-4
653.678	1	2
654.017	1	-2
654.356	1	1
654.695	1	2
655.034	1	0
655.373	1	7
655.712	1	-2
656.051	1	12
656.390	1	-1
656.729	1	5
657.068	1	0
657.406	1	6
657.745	1	-2
658.084	1	0
658.423	1	3
658.762	1	1
659.101	1	11
659.440	1	1
659.779	1	-5
660.118	1	1
660.457	1	6
660.796	1	-10
661.135	1	-3
661.474	1	-1
661.813	1	17
662.152	1	13
662.491	1	-2
662.829	1	-8
663.168	1	-2
663.507	1	7
663.846	1	-1
664.185	1	2
664.524	1	-2
664.863	1	3
665.202	1	2
665.541	1	-3
665.879	1	-7
666.218	1	-6
666.557	1	-11
666.896	1	-5
667.235	1	7
667.574	1	-8
667.913	1	4
668.251	1	-2
668.590	1	0
668.929	1	-12
669.268	1	4
669.607	1	-2
669.946	1	0
670.285	1	-3
670.623	1	0
670.962	1	-5
671.301	1	-7
671.640	1	3
671.979	1	-3
672.317	1	3
672.656	1	-5
672.995	1	4
673.334	1	0
673.673	1	-3
674.011	1	-1
674.350	1	12
674.689	1	-4
675.028	1	0
675.367	1	6
675.705	1	8
676.044	1	0
676.383	1	-1
676.722	1	10
677.060	1	-8
677.399	1	-4
677.738	1	7
678.077	1	4
678.416	1	-4
678.754	1	-10
679.093	1	4
679.432	1	-3
679.771	1	-8
680.109	1	4
680.448	1	2
680.787	1	-6
681.125	1	5
681.464	1	9
681.803	1	-5
682.142	1	4
682.480	1	16
682.819	1	1
683.158	1	-4
683.496	1	-1
683.835	1	-5
684.174	1	0
684.512	1	7
684.851	1	10
685.190	1	0
685.529	1	-4
685.867	1	1
686.206	1	5
686.545	1	-2
686.883	1	-7
687.222	1	5
687.561	1	4
687.899	1	-2
688.238	1	8
688.577	1	8
688.746	1	2