File: Data/GaN_200K_800ms/GaN_sample F_spot 12_UVVIS_200 K_200um_800 ms 2x2mm1_299.txt
340.368	1	1
340.710	1	-6
341.052	1	8
341.394	1	-16
341.737	1	8
342.079	1	-6
342.421	1	-10
342.763	1	1
343.105	1	-6
343.447	1	-3
343.789	1	-5
344.131	1	3
344.473	1	-6
344.815	1	-5
345.157	1	-3
345.499	1	3
345.841	1	6
346.183	1	-2
346.526	1	7
346.868	1	10
347.210	1	-7
347.552	1	2
347.894	1	9
348.236	1	9
348.578	1	-8
348.920	1	-4
349.262	1	1
349.604	1	-4
349.946	1	-1
350.288	1	10
350.630	1	6
350.972	1	-1
351.314	1	6
351.656	1	2
351.998	1	3
352.340	1	6
352.682	1	7
353.024	1	7
353.366	1	4
353.708	1	2
354.050	1	-10
354.392	1	-5
354.734	1	-5
355.076	1	4
355.418	1	-11
355.760	1	-5
356.102	1	16
356.444	1	5
356.785	1	8
357.127	1	-3
357.469	1	0
357.811	1	-3
358.153	1	9
358.495	1	10
358.837	1	-7
359.179	1	5
359.521	1	15
359.863	1	-7
360.205	1	1
360.547	1	11
360.889	1	-11
361.231	1	-2
361.572	1	6
361.914	1	10
362.256	1	3
362.598	1	4
362.940	1	4
363.282	1	7
363.624	1	19
363.966	1	3
364.308	1	4
364.649	1	18
364.991	1	14
365.333	1	1
365.675	1	1
366.017	1	13
366.359	1	9
366.701	1	11
367.042	1	18
367.384	1	16
367.726	1	18
368.068	1	9
368.410	1	28
368.752	1	7
369.093	1	9
369.435	1	20
369.777	1	16
370.119	1	21
370.461	1	25
370.803	1	17
371.144	1	10
371.486	1	15
371.828	1	17
372.170	1	18
372.512	1	11
372.853	1	12
373.195	1	13
373.537	1	3
373.879	1	11
374.220	1	29
374.562	1	16
374.904	1	5
375.246	1	5
375.588	1	10
375.929	1	12
376.271	1	12
376.613	1	1
376.955	1	1
377.296	1	-2
377.638	1	2
377.980	1	3
378.321	1	4
378.663	1	5
379.005	1	14
379.347	1	14
379.688	1	8
380.030	1	3
380.372	1	7
380.714	1	13
381.055	1	5
381.397	1	7
381.739	1	11
382.080	1	12
382.422	1	2
382.764	1	-3
383.105	1	-8
383.447	1	-7
383.789	1	1
384.130	1	9
384.472	1	4
384.814	1	-7
385.156	1	0
385.497	1	10
385.839	1	-3
386.180	1	4
386.522	1	5
386.864	1	5
387.205	1	-7
387.547	1	-1
387.889	1	2
388.230	1	13
388.572	1	-3
388.914	1	-3
389.255	1	-7
389.597	1	3
389.939	1	7
390.280	1	2
390.622	1	0
390.963	1	4
391.305	1	6
391.647	1	8
391.988	1	0
392.330	1	9
392.671	1	2
393.013	1	-5
393.355	1	5
393.696	1	5
394.038	1	6
394.379	1	2
394.721	1	0
395.062	1	1
395.404	1	-12
395.746	1	8
396.087	1	-3
396.429	1	-4
396.770	1	-7
397.112	1	6
397.453	1	9
397.795	1	-1
398.136	1	-2
398.478	1	4
398.819	1	-1
399.161	1	12
399.503	1	-1
399.844	1	5
400.186	1	6
400.527	1	-11
400.869	1	3
401.210	1	-5
401.552	1	-8
401.893	1	0
402.235	1	0
402.576	1	-5
402.918	1	11
403.259	1	0
403.601	1	-2
403.942	1	7
404.284	1	0
404.625	1	3
404.967	1	3
405.308	1	0
405.649	1	-5
405.991	1	-5
406.332	1	3
406.674	1	-8
407.015	1	11
407.357	1	9
407.698	1	9
408.040	1	4
408.381	1	3
408.722	1	-9
409.064	1	-1
409.405	1	10
409.747	1	8
410.088	1	-6
410.430	1	10
410.771	1	2
411.112	1	2
411.454	1	-13
411.795	1	-5
412.137	1	0
412.478	1	15
412.819	1	11
413.161	1	6
413.502	1	4
413.844	1	8
414.185	1	15
414.526	1	1
414.868	1	-4
415.209	1	1
415.550	1	-3
415.892	1	-1
416.233	1	8
416.575	1	15
416.916	1	-3
417.257	1	-3
417.599	1	-2
417.940	1	6
418.281	1	-1
418.623	1	-7
418.964	1	-6
419.305	1	1
419.647	1	3
419.988	1	-9
420.329	1	-16
420.671	1	9
421.012	1	7
421.353	1	-6
421.695	1	-1
422.036	1	-2
422.377	1	3
422.718	1	-2
423.060	1	-10
423.401	1	6
423.742	1	4
424.084	1	1
424.425	1	4
424.766	1	-8
425.107	1	-3
425.449	1	1
425.790	1	-17
426.131	1	-1
426.472	1	2
426.814	1	-4
427.155	1	-7
427.496	1	-5
427.837	1	-5
428.179	1	-5
428.520	1	3
428.861	1	5
429.202	1	0
429.544	1	1
429.885	1	-5
430.226	1	-7
430.567	1	2
430.909	1	4
431.250	1	2
431.591	1	1
431.932	1	-1
432.273	1	-6
432.615	1	-10
432.956	1	7
433.297	1	-4
433.638	1	1
433.979	1	2
434.320	1	2
434.662	1	-1
435.003	1	12
435.344	1	-6
435.685	1	-7
436.026	1	8
436.368	1	-2
436.709	1	-3
437.050	1	-5
437.391	1	12
437.732	1	-14
438.073	1	3
438.414	1	-6
438.756	1	-14
439.097	1	-5
439.438	1	1
439.779	1	1
440.120	1	13
440.461	1	-9
440.802	1	-3
441.143	1	1
441.485	1	5
441.826	1	-3
442.167	1	-1
442.508	1	-2
442.849	1	14
443.190	1	0
443.531	1	5
443.872	1	0
444.213	1	-1
444.554	1	7
444.895	1	1
445.237	1	9
445.578	1	-2
445.919	1	-7
446.260	1	-7
446.601	1	-8
446.942	1	-1
447.283	1	-3
447.624	1	-5
447.965	1	9
448.306	1	-5
448.647	1	-9
448.988	1	-9
449.329	1	-1
449.670	1	6
450.011	1	3
450.352	1	-4
450.693	1	-14
451.034	1	-6
451.375	1	-6
451.716	1	-3
452.057	1	-4
452.398	1	-9
452.739	1	0
453.080	1	-7
453.421	1	-3
453.762	1	5
454.103	1	-8
454.444	1	-2
454.785	1	2
455.126	1	-3
455.467	1	1
455.808	1	2
456.149	1	5
456.490	1	6
456.831	1	-1
457.172	1	0
457.513	1	-2
457.854	1	2
458.195	1	-6
458.536	1	0
458.877	1	4
459.218	1	0
459.559	1	-5
459.899	1	-1
460.240	1	1
460.581	1	4
460.922	1	1
461.263	1	-10
461.604	1	-12
461.945	1	6
462.286	1	-9
462.627	1	9
462.968	1	3
463.309	1	-10
463.649	1	-4
463.990	1	-5
464.331	1	4
464.672	1	1
465.013	1	-2
465.354	1	5
465.695	1	2
466.036	1	-7
466.376	1	-2
466.717	1	-11
467.058	1	7
467.399	1	-5
467.740	1	-4
468.081	1	5
468.422	1	-18
468.762	1	-4
469.103	1	-5
469.444	1	-19
469.785	1	-6
470.126	1	-8
470.467	1	-10
470.807	1	9
471.148	1	1
471.489	1	-3
471.830	1	-5
472.171	1	1
472.511	1	-6
472.852	1	-2
473.193	1	11
473.534	1	4
473.875	1	2
474.215	1	10
474.556	1	-2
474.897	1	5
475.238	1	-1
475.578	1	-5
475.919	1	1
476.260	1	-3
476.601	1	-5
476.942	1	8
477.282	1	-6
477.623	1	-14
477.964	1	-3
478.305	1	-1
478.645	1	5
478.986	1	-2
479.327	1	-5
479.667	1	2
480.008	1	-2
480.349	1	-8
480.690	1	-2
481.030	1	-10
481.371	1	8
481.712	1	0
482.053	1	3
482.393	1	3
482.734	1	-7
483.075	1	-1
483.415	1	-1
483.756	1	5
484.097	1	-1
484.437	1	-2
484.778	1	2
485.119	1	-7
485.459	1	8
485.800	1	6
486.141	1	-2
486.481	1	-9
486.822	1	3
487.163	1	1
487.503	1	1
487.844	1	-8
488.185	1	0
488.525	1	3
488.866	1	0
489.207	1	-3
489.547	1	-9
489.888	1	-6
490.228	1	7
490.569	1	13
490.910	1	-4
491.250	1	-11
491.591	1	-3
491.932	1	-1
492.272	1	4
492.613	1	-5
492.953	1	-2
493.294	1	1
493.635	1	-4
493.975	1	2
494.316	1	-1
494.656	1	-2
494.997	1	2
495.337	1	6
495.678	1	0
496.019	1	-1
496.359	1	-5
496.700	1	-3
497.040	1	2
497.381	1	4
497.721	1	2
498.062	1	2
498.403	1	9
498.743	1	4
499.084	1	2
499.424	1	7
499.765	1	-1
500.105	1	0
500.446	1	-7
500.786	1	-3
501.127	1	7
501.467	1	-1
501.808	1	5
502.148	1	-7
502.489	1	4
502.829	1	-3
503.170	1	5
503.510	1	6
503.851	1	-2
504.191	1	4
504.532	1	1
504.872	1	-3
505.213	1	6
505.553	1	2
505.894	1	-7
506.234	1	8
506.575	1	6
506.915	1	3
507.256	1	7
507.596	1	1
507.936	1	5
508.277	1	2
508.617	1	-4
508.958	1	-7
509.298	1	0
509.639	1	0
509.979	1	-4
510.319	1	0
510.660	1	-2
511.000	1	6
511.341	1	3
511.681	1	3
512.022	1	-1
512.362	1	2
512.702	1	-7
513.043	1	0
513.383	1	-13
513.724	1	-1
514.064	1	10
514.404	1	6
514.745	1	-2
515.085	1	-2
515.425	1	-12
515.766	1	-12
516.106	1	-5
516.447	1	9
516.787	1	0
517.127	1	-1
517.468	1	0
517.808	1	-8
518.148	1	-2
518.489	1	-2
518.829	1	7
519.169	1	-2
519.510	1	-2
519.850	1	1
520.190	1	-7
520.531	1	4
520.871	1	4
521.211	1	-8
521.552	1	7
521.892	1	-1
522.232	1	10
522.573	1	3
522.913	1	3
523.253	1	-2
523.593	1	1
523.934	1	0
524.274	1	5
524.614	1	2
524.955	1	-9
525.295	1	1
525.635	1	5
525.975	1	0
526.316	1	7
526.656	1	2
526.996	1	4
527.337	1	-4
527.677	1	11
528.017	1	-5
528.357	1	7
528.698	1	5
529.038	1	0
529.378	1	1
529.718	1	9
530.058	1	4
530.399	1	5
530.739	1	-6
531.079	1	4
531.419	1	8
531.760	1	7
532.100	1	1
532.440	1	8
532.780	1	2
533.120	1	9
533.461	1	2
533.801	1	8
534.141	1	-2
534.481	1	-8
534.821	1	6
535.162	1	2
535.502	1	-2
535.842	1	4
536.182	1	3
536.522	1	-11
536.862	1	10
537.203	1	1
537.543	1	6
537.883	1	-4
538.223	1	2
538.563	1	4
538.903	1	2
539.243	1	2
539.584	1	-5
539.924	1	8
540.264	1	-4
540.604	1	-1
540.944	1	4
541.284	1	13
541.624	1	3
541.964	1	2
542.305	1	4
542.645	1	12
542.985	1	-2
543.325	1	-5
543.665	1	5
544.005	1	4
544.345	1	7
544.685	1	-3
545.025	1	-6
545.365	1	0
545.705	1	-5
546.045	1	-8
546.386	1	2
546.726	1	-9
547.066	1	10
547.406	1	5
547.746	1	-8
548.086	1	7
548.426	1	-2
548.766	1	7
549.106	1	-5
549.446	1	-7
549.786	1	-2
550.126	1	15
550.466	1	-6
550.806	1	-1
551.146	1	-2
551.486	1	6
551.826	1	12
552.166	1	0
552.506	1	3
552.846	1	-4
553.186	1	9
553.526	1	-3
553.866	1	-1
554.206	1	1
554.546	1	1
554.886	1	11
555.226	1	-14
555.566	1	6
555.906	1	4
556.246	1	-2
556.586	1	-4
556.926	1	4
557.266	1	-8
557.606	1	6
557.946	1	10
558.286	1	8
558.626	1	6
558.966	1	0
559.306	1	-1
559.646	1	-6
559.986	1	2
560.325	1	-9
560.665	1	-4
561.005	1	-1
561.345	1	1
561.685	1	-6
562.025	1	4
562.365	1	8
562.705	1	-2
563.045	1	-1
563.385	1	-15
563.725	1	-4
564.064	1	-2
564.404	1	0
564.744	1	7
565.084	1	0
565.424	1	0
565.764	1	2
566.104	1	3
566.444	1	-9
566.783	1	-4
567.123	1	7
567.463	1	3
567.803	1	-4
568.143	1	5
568.483	1	-1
568.823	1	-2
569.162	1	4
569.502	1	-6
569.842	1	6
570.182	1	-2
570.522	1	-6
570.862	1	-7
571.201	1	7
571.541	1	9
571.881	1	7
572.221	1	-1
572.561	1	-9
572.900	1	8
573.240	1	6
573.580	1	3
573.920	1	7
574.260	1	4
574.599	1	3
574.939	1	4
575.279	1	6
575.619	1	1
575.959	1	-7
576.298	1	4
576.638	1	-3
576.978	1	4
577.318	1	1
577.657	1	-1
577.997	1	-7
578.337	1	15
578.677	1	4
579.016	1	11
579.356	1	-7
579.696	1	1
580.036	1	-4
580.375	1	-2
580.715	1	-4
581.055	1	-3
581.394	1	-5
581.734	1	-9
582.074	1	-2
582.414	1	16
582.753	1	-5
583.093	1	6
583.433	1	-4
583.772	1	5
584.112	1	-2
584.452	1	5
584.791	1	-7
585.131	1	2
585.471	1	12
585.811	1	2
586.150	1	-5
586.490	1	3
586.830	1	2
587.169	1	0
587.509	1	-3
587.849	1	1
588.188	1	7
588.528	1	6
588.867	1	1
589.207	1	2
589.547	1	-1
589.886	1	-6
590.226	1	6
590.566	1	1
590.905	1	1
591.245	1	-3
591.585	1	-4
591.924	1	0
592.264	1	0
592.603	1	8
592.943	1	1
593.283	1	7
593.622	1	-4
593.962	1	0
594.301	1	8
594.641	1	-5
594.981	1	-12
595.320	1	5
595.660	1	-6
595.999	1	-7
596.339	1	6
596.678	1	-4
597.018	1	-5
597.358	1	7
597.697	1	-8
598.037	1	-4
598.376	1	-4
598.716	1	7
599.055	1	5
599.395	1	-1
599.734	1	5
600.074	1	5
600.413	1	7
600.753	1	-3
601.092	1	13
601.432	1	-9
601.771	1	-1
602.111	1	4
602.451	1	7
602.790	1	0
603.130	1	6
603.469	1	-5
603.809	1	13
604.148	1	-6
604.487	1	7
604.827	1	4
605.166	1	9
605.506	1	6
605.845	1	-1
606.185	1	4
606.524	1	-5
606.864	1	-3
607.203	1	0
607.543	1	-6
607.882	1	10
608.222	1	6
608.561	1	-3
608.901	1	0
609.240	1	0
609.579	1	9
609.919	1	8
610.258	1	4
610.598	1	-3
610.937	1	5
611.277	1	-7
611.616	1	-1
611.955	1	-5
612.295	1	-6
612.634	1	0
612.974	1	-8
613.313	1	10
613.652	1	10
613.992	1	1
614.331	1	8
614.671	1	4
615.010	1	-9
615.349	1	6
615.689	1	9
616.028	1	3
616.368	1	1
616.707	1	4
617.046	1	4
617.386	1	-1
617.725	1	5
618.064	1	-8
618.404	1	4
618.743	1	9
619.082	1	1
619.422	1	0
619.761	1	0
620.100	1	5
620.440	1	-2
620.779	1	-3
621.118	1	-2
621.458	1	9
621.797	1	-6
622.136	1	16
622.476	1	8
622.815	1	0
623.154	1	1
623.494	1	12
623.833	1	6
624.172	1	0
624.511	1	-1
624.851	1	-10
625.190	1	6
625.529	1	1
625.869	1	12
626.208	1	2
626.547	1	0
626.886	1	7
627.226	1	1
627.565	1	4
627.904	1	1
628.243	1	-4
628.583	1	-7
628.922	1	8
629.261	1	-4
629.600	1	15
629.940	1	4
630.279	1	-10
630.618	1	-8
630.957	1	-1
631.297	1	-5
631.636	1	-12
631.975	1	10
632.314	1	2
632.653	1	0
632.993	1	-6
633.332	1	-4
633.671	1	-4
634.010	1	1
634.349	1	13
634.689	1	4
635.028	1	-1
635.367	1	-1
635.706	1	-4
636.045	1	6
636.384	1	-4
636.724	1	-1
637.063	1	2
637.402	1	-4
637.741	1	-2
638.080	1	2
638.419	1	-7
638.759	1	-5
639.098	1	4
639.437	1	6
639.776	1	1
640.115	1	-10
640.454	1	-8
640.793	1	12
641.132	1	4
641.472	1	0
641.811	1	3
642.150	1	-8
642.489	1	11
642.828	1	-8
643.167	1	-1
643.506	1	-14
643.845	1	0
644.184	1	7
644.524	1	-2
644.863	1	-8
645.202	1	1
645.541	1	-3
645.880	1	4
646.219	1	0
646.558	1	-1
646.897	1	-7
647.236	1	0
647.575	1	6
647.914	1	-5
648.253	1	3
648.592	1	6
648.931	1	0
649.270	1	3
649.610	1	-6
649.949	1	0
650.288	1	3
650.627	1	-7
650.966	1	5
651.305	1	-8
651.644	1	12
651.983	1	-1
652.322	1	-4
652.661	1	-5
653.000	1	-4
653.339	1	0
653.678	1	2
654.017	1	-1
654.356	1	-10
654.695	1	11
655.034	1	0
655.373	1	8
655.712	1	-5
656.051	1	-1
656.390	1	-2
656.729	1	14
657.068	1	-2
657.406	1	9
657.745	1	5
658.084	1	4
658.423	1	7
658.762	1	-2
659.101	1	6
659.440	1	3
659.779	1	5
660.118	1	12
660.457	1	0
660.796	1	-10
661.135	1	-4
661.474	1	-14
661.813	1	18
662.152	1	0
662.491	1	-2
662.829	1	-4
663.168	1	4
663.507	1	10
663.846	1	-6
664.185	1	5
664.524	1	3
664.863	1	3
665.202	1	2
665.541	1	-5
665.879	1	-7
666.218	1	-5
666.557	1	-1
666.896	1	-8
667.235	1	-4
667.574	1	1
667.913	1	1
668.251	1	-5
668.590	1	-3
668.929	1	-10
669.268	1	0
669.607	1	1
669.946	1	4
670.285	1	7
670.623	1	1
670.962	1	0
671.301	1	3
671.640	1	0
671.979	1	-9
672.317	1	3
672.656	1	-4
672.995	1	12
673.334	1	-10
673.673	1	-4
674.011	1	1
674.350	1	1
674.689	1	4
675.028	1	-1
675.367	1	-2
675.705	1	5
676.044	1	2
676.383	1	2
676.722	1	8
677.060	1	-6
677.399	1	-4
677.738	1	-5
678.077	1	2
678.416	1	-7
678.754	1	-4
679.093	1	6
679.432	1	4
679.771	1	-5
680.109	1	10
680.448	1	-9
680.787	1	6
681.125	1	5
681.464	1	0
681.803	1	-4
682.142	1	11
682.480	1	13
682.819	1	7
683.158	1	4
683.496	1	1
683.835	1	2
684.174	1	-2
684.512	1	-2
684.851	1	2
685.190	1	-1
685.529	1	-3
685.867	1	3
686.206	1	-5
686.545	1	-3
686.883	1	1
687.222	1	7
687.561	1	1
687.899	1	-2
688.238	1	5
688.577	1	2
688.746	1	6