File: Data/GaN_200K_800ms/GaN_sample F_spot 12_UVVIS_200 K_200um_800 ms 2x2mm1_38.txt
340.368	1	4
340.710	1	3
341.052	1	3
341.394	1	4
341.737	1	12
342.079	1	2
342.421	1	12
342.763	1	15
343.105	1	10
343.447	1	11
343.789	1	0
344.131	1	8
344.473	1	4
344.815	1	18
345.157	1	5
345.499	1	0
345.841	1	16
346.183	1	10
346.526	1	14
346.868	1	18
347.210	1	1
347.552	1	18
347.894	1	16
348.236	1	19
348.578	1	23
348.920	1	3
349.262	1	18
349.604	1	12
349.946	1	13
350.288	1	28
350.630	1	15
350.972	1	22
351.314	1	26
351.656	1	20
351.998	1	24
352.340	1	27
352.682	1	31
353.024	1	23
353.366	1	38
353.708	1	33
354.050	1	24
354.392	1	26
354.734	1	45
355.076	1	36
355.418	1	31
355.760	1	41
356.102	1	47
356.444	1	59
356.785	1	66
357.127	1	60
357.469	1	69
357.811	1	56
358.153	1	82
358.495	1	75
358.837	1	82
359.179	1	105
359.521	1	110
359.863	1	130
360.205	1	133
360.547	1	176
360.889	1	158
361.231	1	183
361.572	1	228
361.914	1	244
362.256	1	266
362.598	1	307
362.940	1	353
363.282	1	400
363.624	1	450
363.966	1	536
364.308	1	595
364.649	1	677
364.991	1	814
365.333	1	900
365.675	1	1043
366.017	1	1170
366.359	1	1336
366.701	1	1480
367.042	1	1693
367.384	1	1844
367.726	1	1982
368.068	1	2176
368.410	1	2335
368.752	1	2471
369.093	1	2571
369.435	1	2647
369.777	1	2679
370.119	1	2696
370.461	1	2650
370.803	1	2596
371.144	1	2455
371.486	1	2369
371.828	1	2200
372.170	1	2057
372.512	1	1935
372.853	1	1804
373.195	1	1662
373.537	1	1571
373.879	1	1429
374.220	1	1378
374.562	1	1333
374.904	1	1262
375.246	1	1187
375.588	1	1125
375.929	1	1046
376.271	1	995
376.613	1	925
376.955	1	836
377.296	1	799
377.638	1	771
377.980	1	706
378.321	1	686
378.663	1	632
379.005	1	605
379.347	1	544
379.688	1	523
380.030	1	470
380.372	1	437
380.714	1	431
381.055	1	402
381.397	1	375
381.739	1	373
382.080	1	349
382.422	1	334
382.764	1	305
383.105	1	306
383.447	1	294
383.789	1	290
384.130	1	284
384.472	1	263
384.814	1	266
385.156	1	260
385.497	1	244
385.839	1	252
386.180	1	240
386.522	1	246
386.864	1	221
387.205	1	220
387.547	1	212
387.889	1	200
388.230	1	197
388.572	1	168
388.914	1	187
389.255	1	159
389.597	1	148
389.939	1	157
390.280	1	171
390.622	1	133
390.963	1	137
391.305	1	138
391.647	1	128
391.988	1	130
392.330	1	127
392.671	1	108
393.013	1	115
393.355	1	107
393.696	1	107
394.038	1	106
394.379	1	94
394.721	1	92
395.062	1	99
395.404	1	79
395.746	1	86
396.087	1	82
396.429	1	88
396.770	1	87
397.112	1	91
397.453	1	91
397.795	1	94
398.136	1	80
398.478	1	85
398.819	1	84
399.161	1	89
399.503	1	75
399.844	1	78
400.186	1	74
400.527	1	69
400.869	1	62
401.210	1	64
401.552	1	56
401.893	1	64
402.235	1	64
402.576	1	58
402.918	1	54
403.259	1	50
403.601	1	47
403.942	1	60
404.284	1	53
404.625	1	52
404.967	1	51
405.308	1	58
405.649	1	48
405.991	1	42
406.332	1	47
406.674	1	51
407.015	1	50
407.357	1	47
407.698	1	52
408.040	1	45
408.381	1	49
408.722	1	31
409.064	1	37
409.405	1	38
409.747	1	44
410.088	1	44
410.430	1	50
410.771	1	40
411.112	1	34
411.454	1	31
411.795	1	38
412.137	1	41
412.478	1	48
412.819	1	34
413.161	1	32
413.502	1	48
413.844	1	39
414.185	1	38
414.526	1	26
414.868	1	39
415.209	1	31
415.550	1	26
415.892	1	27
416.233	1	35
416.575	1	46
416.916	1	32
417.257	1	34
417.599	1	29
417.940	1	31
418.281	1	32
418.623	1	32
418.964	1	26
419.305	1	28
419.647	1	25
419.988	1	39
420.329	1	22
420.671	1	39
421.012	1	28
421.353	1	25
421.695	1	24
422.036	1	31
422.377	1	30
422.718	1	37
423.060	1	18
423.401	1	30
423.742	1	28
424.084	1	20
424.425	1	24
424.766	1	18
425.107	1	27
425.449	1	30
425.790	1	19
426.131	1	27
426.472	1	32
426.814	1	33
427.155	1	13
427.496	1	14
427.837	1	18
428.179	1	11
428.520	1	24
428.861	1	15
429.202	1	19
429.544	1	31
429.885	1	29
430.226	1	12
430.567	1	25
430.909	1	24
431.250	1	26
431.591	1	34
431.932	1	17
432.273	1	24
432.615	1	16
432.956	1	15
433.297	1	26
433.638	1	15
433.979	1	19
434.320	1	19
434.662	1	20
435.003	1	23
435.344	1	18
435.685	1	22
436.026	1	25
436.368	1	27
436.709	1	25
437.050	1	20
437.391	1	23
437.732	1	19
438.073	1	15
438.414	1	7
438.756	1	21
439.097	1	10
439.438	1	18
439.779	1	19
440.120	1	10
440.461	1	8
440.802	1	13
441.143	1	27
441.485	1	24
441.826	1	16
442.167	1	19
442.508	1	6
442.849	1	22
443.190	1	16
443.531	1	25
443.872	1	28
444.213	1	12
444.554	1	23
444.895	1	18
445.237	1	11
445.578	1	4
445.919	1	7
446.260	1	17
446.601	1	15
446.942	1	21
447.283	1	5
447.624	1	26
447.965	1	23
448.306	1	10
448.647	1	6
448.988	1	18
449.329	1	16
449.670	1	28
450.011	1	22
450.352	1	10
450.693	1	17
451.034	1	17
451.375	1	17
451.716	1	14
452.057	1	21
452.398	1	19
452.739	1	18
453.080	1	10
453.421	1	21
453.762	1	11
454.103	1	18
454.444	1	9
454.785	1	14
455.126	1	2
455.467	1	24
455.808	1	24
456.149	1	17
456.490	1	17
456.831	1	25
457.172	1	15
457.513	1	28
457.854	1	11
458.195	1	13
458.536	1	14
458.877	1	14
459.218	1	21
459.559	1	24
459.899	1	17
460.240	1	11
460.581	1	39
460.922	1	20
461.263	1	18
461.604	1	19
461.945	1	18
462.286	1	13
462.627	1	22
462.968	1	23
463.309	1	-1
463.649	1	20
463.990	1	20
464.331	1	24
464.672	1	15
465.013	1	11
465.354	1	12
465.695	1	13
466.036	1	12
466.376	1	11
466.717	1	26
467.058	1	20
467.399	1	28
467.740	1	28
468.081	1	25
468.422	1	15
468.762	1	7
469.103	1	14
469.444	1	13
469.785	1	21
470.126	1	22
470.467	1	15
470.807	1	4
471.148	1	29
471.489	1	13
471.830	1	19
472.171	1	19
472.511	1	16
472.852	1	19
473.193	1	37
473.534	1	22
473.875	1	34
474.215	1	23
474.556	1	21
474.897	1	32
475.238	1	26
475.578	1	11
475.919	1	34
476.260	1	19
476.601	1	14
476.942	1	29
477.282	1	27
477.623	1	17
477.964	1	22
478.305	1	29
478.645	1	38
478.986	1	14
479.327	1	25
479.667	1	25
480.008	1	19
480.349	1	20
480.690	1	28
481.030	1	22
481.371	1	33
481.712	1	27
482.053	1	32
482.393	1	31
482.734	1	17
483.075	1	32
483.415	1	37
483.756	1	34
484.097	1	35
484.437	1	19
484.778	1	33
485.119	1	23
485.459	1	61
485.800	1	28
486.141	1	36
486.481	1	32
486.822	1	43
487.163	1	42
487.503	1	37
487.844	1	41
488.185	1	41
488.525	1	42
488.866	1	53
489.207	1	53
489.547	1	48
489.888	1	54
490.228	1	54
490.569	1	62
490.910	1	54
491.250	1	68
491.591	1	51
491.932	1	60
492.272	1	60
492.613	1	57
492.953	1	64
493.294	1	57
493.635	1	57
493.975	1	61
494.316	1	56
494.656	1	61
494.997	1	68
495.337	1	68
495.678	1	57
496.019	1	70
496.359	1	63
496.700	1	64
497.040	1	66
497.381	1	68
497.721	1	67
498.062	1	72
498.403	1	75
498.743	1	72
499.084	1	63
499.424	1	76
499.765	1	73
500.105	1	81
500.446	1	78
500.786	1	73
501.127	1	85
501.467	1	87
501.808	1	107
502.148	1	99
502.489	1	99
502.829	1	92
503.170	1	111
503.510	1	116
503.851	1	100
504.191	1	122
504.532	1	112
504.872	1	116
505.213	1	127
505.553	1	118
505.894	1	108
506.234	1	128
506.575	1	146
506.915	1	130
507.256	1	132
507.596	1	128
507.936	1	132
508.277	1	121
508.617	1	123
508.958	1	132
509.298	1	142
509.639	1	114
509.979	1	123
510.319	1	137
510.660	1	137
511.000	1	134
511.341	1	131
511.681	1	139
512.022	1	137
512.362	1	133
512.702	1	148
513.043	1	151
513.383	1	129
513.724	1	150
514.064	1	153
514.404	1	148
514.745	1	161
515.085	1	164
515.425	1	163
515.766	1	157
516.106	1	155
516.447	1	190
516.787	1	174
517.127	1	180
517.468	1	175
517.808	1	177
518.148	1	182
518.489	1	182
518.829	1	182
519.169	1	189
519.510	1	198
519.850	1	211
520.190	1	199
520.531	1	199
520.871	1	213
521.211	1	195
521.552	1	209
521.892	1	210
522.232	1	216
522.573	1	204
522.913	1	207
523.253	1	211
523.593	1	217
523.934	1	216
524.274	1	205
524.614	1	209
524.955	1	222
525.295	1	230
525.635	1	215
525.975	1	228
526.316	1	238
526.656	1	214
526.996	1	233
527.337	1	229
527.677	1	236
528.017	1	231
528.357	1	253
528.698	1	250
529.038	1	241
529.378	1	250
529.718	1	262
530.058	1	264
530.399	1	270
530.739	1	276
531.079	1	272
531.419	1	285
531.760	1	292
532.100	1	285
532.440	1	292
532.780	1	291
533.120	1	310
533.461	1	298
533.801	1	310
534.141	1	277
534.481	1	286
534.821	1	308
535.162	1	293
535.502	1	294
535.842	1	304
536.182	1	307
536.522	1	293
536.862	1	302
537.203	1	280
537.543	1	295
537.883	1	293
538.223	1	298
538.563	1	292
538.903	1	260
539.243	1	295
539.584	1	277
539.924	1	304
540.264	1	274
540.604	1	291
540.944	1	293
541.284	1	290
541.624	1	287
541.964	1	311
542.305	1	291
542.645	1	307
542.985	1	298
543.325	1	283
543.665	1	307
544.005	1	307
544.345	1	310
544.685	1	305
545.025	1	318
545.365	1	310
545.705	1	314
546.045	1	322
546.386	1	325
546.726	1	321
547.066	1	324
547.406	1	342
547.746	1	318
548.086	1	344
548.426	1	337
548.766	1	345
549.106	1	355
549.446	1	375
549.786	1	351
550.126	1	385
550.466	1	375
550.806	1	385
551.146	1	371
551.486	1	379
551.826	1	395
552.166	1	384
552.506	1	390
552.846	1	391
553.186	1	404
553.526	1	388
553.866	1	380
554.206	1	378
554.546	1	389
554.886	1	386
555.226	1	358
555.566	1	386
555.906	1	379
556.246	1	365
556.586	1	374
556.926	1	370
557.266	1	358
557.606	1	371
557.946	1	377
558.286	1	372
558.626	1	384
558.966	1	362
559.306	1	368
559.646	1	359
559.986	1	354
560.325	1	356
560.665	1	363
561.005	1	365
561.345	1	372
561.685	1	356
562.025	1	359
562.365	1	379
562.705	1	357
563.045	1	367
563.385	1	360
563.725	1	371
564.064	1	354
564.404	1	360
564.744	1	351
565.084	1	364
565.424	1	371
565.764	1	381
566.104	1	389
566.444	1	367
566.783	1	362
567.123	1	370
567.463	1	383
567.803	1	378
568.143	1	377
568.483	1	377
568.823	1	367
569.162	1	389
569.502	1	369
569.842	1	380
570.182	1	369
570.522	1	361
570.862	1	376
571.201	1	387
571.541	1	377
571.881	1	391
572.221	1	370
572.561	1	361
572.900	1	350
573.240	1	380
573.580	1	364
573.920	1	371
574.260	1	365
574.599	1	364
574.939	1	356
575.279	1	359
575.619	1	365
575.959	1	348
576.298	1	366
576.638	1	346
576.978	1	360
577.318	1	366
577.657	1	356
577.997	1	346
578.337	1	366
578.677	1	345
579.016	1	352
579.356	1	347
579.696	1	346
580.036	1	356
580.375	1	358
580.715	1	351
581.055	1	360
581.394	1	348
581.734	1	346
582.074	1	342
582.414	1	371
582.753	1	364
583.093	1	368
583.433	1	355
583.772	1	363
584.112	1	349
584.452	1	359
584.791	1	360
585.131	1	353
585.471	1	355
585.811	1	369
586.150	1	348
586.490	1	351
586.830	1	353
587.169	1	366
587.509	1	342
587.849	1	349
588.188	1	356
588.528	1	344
588.867	1	348
589.207	1	335
589.547	1	331
589.886	1	337
590.226	1	339
590.566	1	338
590.905	1	333
591.245	1	314
591.585	1	314
591.924	1	307
592.264	1	319
592.603	1	312
592.943	1	321
593.283	1	311
593.622	1	299
593.962	1	287
594.301	1	303
594.641	1	292
594.981	1	311
595.320	1	286
595.660	1	293
595.999	1	285
596.339	1	296
596.678	1	287
597.018	1	295
597.358	1	295
597.697	1	276
598.037	1	273
598.376	1	272
598.716	1	287
599.055	1	288
599.395	1	284
599.734	1	271
600.074	1	285
600.413	1	272
600.753	1	289
601.092	1	290
601.432	1	272
601.771	1	279
602.111	1	292
602.451	1	290
602.790	1	263
603.130	1	294
603.469	1	279
603.809	1	290
604.148	1	296
604.487	1	284
604.827	1	305
605.166	1	299
605.506	1	283
605.845	1	293
606.185	1	286
606.524	1	293
606.864	1	282
607.203	1	279
607.543	1	301
607.882	1	302
608.222	1	290
608.561	1	288
608.901	1	286
609.240	1	284
609.579	1	287
609.919	1	269
610.258	1	291
610.598	1	272
610.937	1	262
611.277	1	273
611.616	1	260
611.955	1	262
612.295	1	250
612.634	1	261
612.974	1	242
613.313	1	248
613.652	1	257
613.992	1	246
614.331	1	248
614.671	1	242
615.010	1	225
615.349	1	243
615.689	1	237
616.028	1	229
616.368	1	229
616.707	1	236
617.046	1	232
617.386	1	228
617.725	1	219
618.064	1	226
618.404	1	222
618.743	1	229
619.082	1	196
619.422	1	208
619.761	1	217
620.100	1	213
620.440	1	218
620.779	1	189
621.118	1	207
621.458	1	201
621.797	1	198
622.136	1	218
622.476	1	197
622.815	1	209
623.154	1	215
623.494	1	197
623.833	1	203
624.172	1	194
624.511	1	200
624.851	1	187
625.190	1	202
625.529	1	201
625.869	1	199
626.208	1	185
626.547	1	188
626.886	1	195
627.226	1	199
627.565	1	185
627.904	1	191
628.243	1	193
628.583	1	193
628.922	1	201
629.261	1	182
629.600	1	204
629.940	1	178
630.279	1	186
630.618	1	172
630.957	1	176
631.297	1	186
631.636	1	167
631.975	1	187
632.314	1	188
632.653	1	163
632.993	1	187
633.332	1	174
633.671	1	160
634.010	1	165
634.349	1	196
634.689	1	166
635.028	1	177
635.367	1	162
635.706	1	159
636.045	1	167
636.384	1	160
636.724	1	183
637.063	1	151
637.402	1	182
637.741	1	164
638.080	1	158
638.419	1	161
638.759	1	159
639.098	1	156
639.437	1	145
639.776	1	147
640.115	1	142
640.454	1	146
640.793	1	155
641.132	1	155
641.472	1	157
641.811	1	153
642.150	1	136
642.489	1	136
642.828	1	139
643.167	1	140
643.506	1	128
643.845	1	145
644.184	1	148
644.524	1	143
644.863	1	128
645.202	1	133
645.541	1	140
645.880	1	137
646.219	1	133
646.558	1	126
646.897	1	131
647.236	1	137
647.575	1	138
647.914	1	127
648.253	1	127
648.592	1	121
648.931	1	148
649.270	1	127
649.610	1	130
649.949	1	120
650.288	1	132
650.627	1	129
650.966	1	141
651.305	1	120
651.644	1	137
651.983	1	123
652.322	1	120
652.661	1	116
653.000	1	131
653.339	1	124
653.678	1	116
654.017	1	129
654.356	1	123
654.695	1	127
655.034	1	121
655.373	1	113
655.712	1	110
656.051	1	116
656.390	1	108
656.729	1	122
657.068	1	107
657.406	1	99
657.745	1	100
658.084	1	114
658.423	1	108
658.762	1	103
659.101	1	104
659.440	1	94
659.779	1	99
660.118	1	94
660.457	1	86
660.796	1	93
661.135	1	85
661.474	1	85
661.813	1	105
662.152	1	94
662.491	1	95
662.829	1	86
663.168	1	90
663.507	1	92
663.846	1	85
664.185	1	92
664.524	1	81
664.863	1	84
665.202	1	95
665.541	1	79
665.879	1	88
666.218	1	68
666.557	1	85
666.896	1	77
667.235	1	81
667.574	1	79
667.913	1	89
668.251	1	71
668.590	1	87
668.929	1	66
669.268	1	82
669.607	1	82
669.946	1	81
670.285	1	79
670.623	1	88
670.962	1	80
671.301	1	76
671.640	1	80
671.979	1	79
672.317	1	83
672.656	1	75
672.995	1	90
673.334	1	82
673.673	1	83
674.011	1	85
674.350	1	79
674.689	1	80
675.028	1	77
675.367	1	95
675.705	1	87
676.044	1	73
676.383	1	81
676.722	1	83
677.060	1	80
677.399	1	70
677.738	1	80
678.077	1	71
678.416	1	76
678.754	1	76
679.093	1	88
679.432	1	71
679.771	1	75
680.109	1	77
680.448	1	78
680.787	1	69
681.125	1	75
681.464	1	70
681.803	1	86
682.142	1	81
682.480	1	81
682.819	1	72
683.158	1	74
683.496	1	77
683.835	1	65
684.174	1	68
684.512	1	84
684.851	1	76
685.190	1	66
685.529	1	59
685.867	1	68
686.206	1	70
686.545	1	63
686.883	1	67
687.222	1	71
687.561	1	76
687.899	1	59
688.238	1	75
688.577	1	56
688.746	1	67