File: Data/GaN_200K_800ms/GaN_sample F_spot 12_UVVIS_200 K_200um_800 ms 2x2mm1_37.txt
340.368	1	5
340.710	1	-4
341.052	1	18
341.394	1	2
341.737	1	12
342.079	1	1
342.421	1	8
342.763	1	5
343.105	1	-2
343.447	1	1
343.789	1	7
344.131	1	-1
344.473	1	2
344.815	1	2
345.157	1	-4
345.499	1	10
345.841	1	12
346.183	1	-5
346.526	1	-7
346.868	1	8
347.210	1	-6
347.552	1	-1
347.894	1	15
348.236	1	14
348.578	1	14
348.920	1	5
349.262	1	10
349.604	1	12
349.946	1	-4
350.288	1	17
350.630	1	0
350.972	1	19
351.314	1	19
351.656	1	16
351.998	1	18
352.340	1	8
352.682	1	17
353.024	1	12
353.366	1	17
353.708	1	14
354.050	1	1
354.392	1	7
354.734	1	13
355.076	1	12
355.418	1	7
355.760	1	12
356.102	1	23
356.444	1	26
356.785	1	27
357.127	1	17
357.469	1	36
357.811	1	33
358.153	1	32
358.495	1	35
358.837	1	25
359.179	1	42
359.521	1	48
359.863	1	52
360.205	1	49
360.547	1	62
360.889	1	64
361.231	1	65
361.572	1	74
361.914	1	85
362.256	1	108
362.598	1	110
362.940	1	122
363.282	1	154
363.624	1	188
363.966	1	203
364.308	1	230
364.649	1	276
364.991	1	299
365.333	1	339
365.675	1	393
366.017	1	450
366.359	1	534
366.701	1	592
367.042	1	661
367.384	1	760
367.726	1	826
368.068	1	908
368.410	1	975
368.752	1	1013
369.093	1	1075
369.435	1	1155
369.777	1	1158
370.119	1	1137
370.461	1	1138
370.803	1	1087
371.144	1	1075
371.486	1	1017
371.828	1	973
372.170	1	878
372.512	1	813
372.853	1	765
373.195	1	698
373.537	1	658
373.879	1	636
374.220	1	597
374.562	1	563
374.904	1	523
375.246	1	511
375.588	1	499
375.929	1	446
376.271	1	421
376.613	1	385
376.955	1	358
377.296	1	343
377.638	1	328
377.980	1	303
378.321	1	276
378.663	1	259
379.005	1	262
379.347	1	239
379.688	1	218
380.030	1	199
380.372	1	192
380.714	1	184
381.055	1	180
381.397	1	150
381.739	1	152
382.080	1	145
382.422	1	142
382.764	1	118
383.105	1	129
383.447	1	125
383.789	1	122
384.130	1	121
384.472	1	126
384.814	1	127
385.156	1	119
385.497	1	123
385.839	1	117
386.180	1	110
386.522	1	117
386.864	1	113
387.205	1	99
387.547	1	88
387.889	1	93
388.230	1	101
388.572	1	85
388.914	1	77
389.255	1	66
389.597	1	74
389.939	1	81
390.280	1	69
390.622	1	72
390.963	1	84
391.305	1	74
391.647	1	66
391.988	1	76
392.330	1	70
392.671	1	49
393.013	1	47
393.355	1	56
393.696	1	52
394.038	1	54
394.379	1	57
394.721	1	40
395.062	1	66
395.404	1	42
395.746	1	56
396.087	1	44
396.429	1	54
396.770	1	52
397.112	1	48
397.453	1	58
397.795	1	48
398.136	1	40
398.478	1	47
398.819	1	54
399.161	1	55
399.503	1	39
399.844	1	48
400.186	1	38
400.527	1	45
400.869	1	36
401.210	1	42
401.552	1	33
401.893	1	38
402.235	1	46
402.576	1	32
402.918	1	39
403.259	1	43
403.601	1	34
403.942	1	41
404.284	1	37
404.625	1	31
404.967	1	38
405.308	1	30
405.649	1	40
405.991	1	25
406.332	1	33
406.674	1	21
407.015	1	41
407.357	1	30
407.698	1	29
408.040	1	24
408.381	1	22
408.722	1	13
409.064	1	33
409.405	1	28
409.747	1	32
410.088	1	22
410.430	1	36
410.771	1	34
411.112	1	21
411.454	1	21
411.795	1	22
412.137	1	27
412.478	1	26
412.819	1	12
413.161	1	21
413.502	1	22
413.844	1	16
414.185	1	23
414.526	1	12
414.868	1	18
415.209	1	14
415.550	1	12
415.892	1	11
416.233	1	27
416.575	1	24
416.916	1	12
417.257	1	8
417.599	1	22
417.940	1	23
418.281	1	25
418.623	1	14
418.964	1	10
419.305	1	12
419.647	1	16
419.988	1	22
420.329	1	11
420.671	1	22
421.012	1	20
421.353	1	13
421.695	1	8
422.036	1	20
422.377	1	4
422.718	1	19
423.060	1	4
423.401	1	18
423.742	1	7
424.084	1	21
424.425	1	15
424.766	1	23
425.107	1	11
425.449	1	6
425.790	1	-1
426.131	1	14
426.472	1	17
426.814	1	19
427.155	1	8
427.496	1	8
427.837	1	6
428.179	1	11
428.520	1	17
428.861	1	19
429.202	1	22
429.544	1	13
429.885	1	18
430.226	1	3
430.567	1	11
430.909	1	10
431.250	1	10
431.591	1	17
431.932	1	7
432.273	1	2
432.615	1	9
432.956	1	2
433.297	1	18
433.638	1	16
433.979	1	20
434.320	1	10
434.662	1	8
435.003	1	15
435.344	1	18
435.685	1	13
436.026	1	8
436.368	1	19
436.709	1	4
437.050	1	6
437.391	1	21
437.732	1	-1
438.073	1	18
438.414	1	0
438.756	1	11
439.097	1	1
439.438	1	7
439.779	1	2
440.120	1	9
440.461	1	19
440.802	1	4
441.143	1	19
441.485	1	11
441.826	1	9
442.167	1	12
442.508	1	0
442.849	1	11
443.190	1	8
443.531	1	18
443.872	1	11
444.213	1	15
444.554	1	17
444.895	1	12
445.237	1	7
445.578	1	-1
445.919	1	6
446.260	1	5
446.601	1	5
446.942	1	5
447.283	1	5
447.624	1	10
447.965	1	10
448.306	1	6
448.647	1	-1
448.988	1	6
449.329	1	16
449.670	1	18
450.011	1	16
450.352	1	4
450.693	1	0
451.034	1	9
451.375	1	5
451.716	1	9
452.057	1	24
452.398	1	8
452.739	1	21
453.080	1	9
453.421	1	12
453.762	1	15
454.103	1	17
454.444	1	0
454.785	1	5
455.126	1	11
455.467	1	13
455.808	1	6
456.149	1	17
456.490	1	8
456.831	1	6
457.172	1	12
457.513	1	13
457.854	1	6
458.195	1	8
458.536	1	17
458.877	1	10
459.218	1	14
459.559	1	17
459.899	1	12
460.240	1	5
460.581	1	25
460.922	1	7
461.263	1	2
461.604	1	9
461.945	1	10
462.286	1	7
462.627	1	9
462.968	1	16
463.309	1	-2
463.649	1	9
463.990	1	6
464.331	1	10
464.672	1	5
465.013	1	11
465.354	1	8
465.695	1	8
466.036	1	5
466.376	1	4
466.717	1	14
467.058	1	7
467.399	1	24
467.740	1	16
468.081	1	7
468.422	1	10
468.762	1	5
469.103	1	7
469.444	1	8
469.785	1	-8
470.126	1	5
470.467	1	12
470.807	1	18
471.148	1	9
471.489	1	12
471.830	1	11
472.171	1	18
472.511	1	10
472.852	1	14
473.193	1	20
473.534	1	22
473.875	1	15
474.215	1	26
474.556	1	19
474.897	1	11
475.238	1	10
475.578	1	15
475.919	1	12
476.260	1	6
476.601	1	10
476.942	1	21
477.282	1	10
477.623	1	4
477.964	1	18
478.305	1	12
478.645	1	21
478.986	1	10
479.327	1	6
479.667	1	13
480.008	1	11
480.349	1	10
480.690	1	19
481.030	1	12
481.371	1	24
481.712	1	15
482.053	1	19
482.393	1	15
482.734	1	8
483.075	1	13
483.415	1	15
483.756	1	22
484.097	1	16
484.437	1	15
484.778	1	14
485.119	1	15
485.459	1	22
485.800	1	13
486.141	1	21
486.481	1	33
486.822	1	30
487.163	1	19
487.503	1	25
487.844	1	30
488.185	1	20
488.525	1	34
488.866	1	19
489.207	1	33
489.547	1	36
489.888	1	25
490.228	1	35
490.569	1	42
490.910	1	31
491.250	1	32
491.591	1	24
491.932	1	41
492.272	1	50
492.613	1	36
492.953	1	36
493.294	1	31
493.635	1	36
493.975	1	35
494.316	1	50
494.656	1	31
494.997	1	36
495.337	1	49
495.678	1	45
496.019	1	39
496.359	1	40
496.700	1	47
497.040	1	39
497.381	1	43
497.721	1	45
498.062	1	39
498.403	1	46
498.743	1	44
499.084	1	43
499.424	1	55
499.765	1	50
500.105	1	53
500.446	1	45
500.786	1	49
501.127	1	61
501.467	1	52
501.808	1	68
502.148	1	60
502.489	1	73
502.829	1	66
503.170	1	84
503.510	1	68
503.851	1	58
504.191	1	76
504.532	1	80
504.872	1	72
505.213	1	81
505.553	1	82
505.894	1	64
506.234	1	80
506.575	1	79
506.915	1	89
507.256	1	94
507.596	1	97
507.936	1	88
508.277	1	89
508.617	1	88
508.958	1	82
509.298	1	89
509.639	1	80
509.979	1	81
510.319	1	87
510.660	1	88
511.000	1	96
511.341	1	92
511.681	1	103
512.022	1	98
512.362	1	96
512.702	1	96
513.043	1	93
513.383	1	95
513.724	1	102
514.064	1	108
514.404	1	103
514.745	1	110
515.085	1	114
515.425	1	93
515.766	1	107
516.106	1	114
516.447	1	127
516.787	1	122
517.127	1	116
517.468	1	116
517.808	1	122
518.148	1	133
518.489	1	121
518.829	1	136
519.169	1	129
519.510	1	132
519.850	1	139
520.190	1	126
520.531	1	136
520.871	1	136
521.211	1	127
521.552	1	148
521.892	1	140
522.232	1	146
522.573	1	132
522.913	1	153
523.253	1	159
523.593	1	146
523.934	1	133
524.274	1	149
524.614	1	144
524.955	1	142
525.295	1	148
525.635	1	148
525.975	1	160
526.316	1	176
526.656	1	154
526.996	1	158
527.337	1	157
527.677	1	169
528.017	1	157
528.357	1	184
528.698	1	178
529.038	1	178
529.378	1	183
529.718	1	192
530.058	1	192
530.399	1	180
530.739	1	203
531.079	1	200
531.419	1	191
531.760	1	203
532.100	1	202
532.440	1	209
532.780	1	197
533.120	1	210
533.461	1	208
533.801	1	232
534.141	1	208
534.481	1	215
534.821	1	221
535.162	1	206
535.502	1	207
535.842	1	214
536.182	1	210
536.522	1	200
536.862	1	223
537.203	1	202
537.543	1	213
537.883	1	222
538.223	1	219
538.563	1	209
538.903	1	217
539.243	1	211
539.584	1	198
539.924	1	214
540.264	1	208
540.604	1	208
540.944	1	197
541.284	1	219
541.624	1	215
541.964	1	219
542.305	1	225
542.645	1	221
542.985	1	228
543.325	1	218
543.665	1	234
544.005	1	220
544.345	1	230
544.685	1	225
545.025	1	221
545.365	1	236
545.705	1	238
546.045	1	218
546.386	1	231
546.726	1	233
547.066	1	236
547.406	1	255
547.746	1	242
548.086	1	264
548.426	1	242
548.766	1	258
549.106	1	280
549.446	1	264
549.786	1	270
550.126	1	281
550.466	1	269
550.806	1	277
551.146	1	281
551.486	1	286
551.826	1	298
552.166	1	271
552.506	1	305
552.846	1	278
553.186	1	301
553.526	1	279
553.866	1	288
554.206	1	309
554.546	1	277
554.886	1	279
555.226	1	287
555.566	1	291
555.906	1	278
556.246	1	280
556.586	1	274
556.926	1	262
557.266	1	275
557.606	1	284
557.946	1	288
558.286	1	275
558.626	1	303
558.966	1	269
559.306	1	272
559.646	1	279
559.986	1	265
560.325	1	267
560.665	1	267
561.005	1	268
561.345	1	273
561.685	1	276
562.025	1	262
562.365	1	282
562.705	1	265
563.045	1	280
563.385	1	269
563.725	1	278
564.064	1	272
564.404	1	285
564.744	1	274
565.084	1	273
565.424	1	281
565.764	1	285
566.104	1	289
566.444	1	291
566.783	1	274
567.123	1	281
567.463	1	282
567.803	1	294
568.143	1	294
568.483	1	309
568.823	1	284
569.162	1	300
569.502	1	290
569.842	1	310
570.182	1	293
570.522	1	275
570.862	1	296
571.201	1	299
571.541	1	298
571.881	1	295
572.221	1	277
572.561	1	275
572.900	1	270
573.240	1	279
573.580	1	284
573.920	1	287
574.260	1	278
574.599	1	279
574.939	1	277
575.279	1	267
575.619	1	293
575.959	1	267
576.298	1	280
576.638	1	284
576.978	1	281
577.318	1	267
577.657	1	284
577.997	1	257
578.337	1	280
578.677	1	276
579.016	1	281
579.356	1	260
579.696	1	284
580.036	1	266
580.375	1	278
580.715	1	281
581.055	1	265
581.394	1	267
581.734	1	258
582.074	1	265
582.414	1	271
582.753	1	271
583.093	1	267
583.433	1	277
583.772	1	287
584.112	1	281
584.452	1	291
584.791	1	283
585.131	1	277
585.471	1	292
585.811	1	287
586.150	1	273
586.490	1	292
586.830	1	263
587.169	1	270
587.509	1	268
587.849	1	274
588.188	1	262
588.528	1	267
588.867	1	266
589.207	1	266
589.547	1	274
589.886	1	259
590.226	1	275
590.566	1	241
590.905	1	255
591.245	1	238
591.585	1	249
591.924	1	240
592.264	1	249
592.603	1	247
592.943	1	239
593.283	1	243
593.622	1	239
593.962	1	254
594.301	1	237
594.641	1	240
594.981	1	231
595.320	1	231
595.660	1	226
595.999	1	201
596.339	1	229
596.678	1	222
597.018	1	229
597.358	1	220
597.697	1	216
598.037	1	210
598.376	1	227
598.716	1	232
599.055	1	236
599.395	1	220
599.734	1	217
600.074	1	215
600.413	1	226
600.753	1	212
601.092	1	227
601.432	1	217
601.771	1	218
602.111	1	214
602.451	1	221
602.790	1	212
603.130	1	229
603.469	1	214
603.809	1	224
604.148	1	228
604.487	1	215
604.827	1	223
605.166	1	212
605.506	1	219
605.845	1	219
606.185	1	233
606.524	1	225
606.864	1	222
607.203	1	213
607.543	1	220
607.882	1	234
608.222	1	220
608.561	1	226
608.901	1	212
609.240	1	216
609.579	1	224
609.919	1	232
610.258	1	218
610.598	1	211
610.937	1	222
611.277	1	213
611.616	1	199
611.955	1	216
612.295	1	198
612.634	1	206
612.974	1	200
613.313	1	207
613.652	1	206
613.992	1	202
614.331	1	193
614.671	1	178
615.010	1	183
615.349	1	184
615.689	1	174
616.028	1	166
616.368	1	182
616.707	1	177
617.046	1	189
617.386	1	166
617.725	1	180
618.064	1	175
618.404	1	160
618.743	1	162
619.082	1	172
619.422	1	167
619.761	1	158
620.100	1	163
620.440	1	177
620.779	1	157
621.118	1	159
621.458	1	171
621.797	1	149
622.136	1	165
622.476	1	282
622.815	1	179
623.154	1	166
623.494	1	150
623.833	1	154
624.172	1	153
624.511	1	150
624.851	1	132
625.190	1	151
625.529	1	148
625.869	1	161
626.208	1	143
626.547	1	155
626.886	1	151
627.226	1	152
627.565	1	142
627.904	1	141
628.243	1	143
628.583	1	134
628.922	1	142
629.261	1	146
629.600	1	164
629.940	1	147
630.279	1	134
630.618	1	143
630.957	1	142
631.297	1	133
631.636	1	123
631.975	1	149
632.314	1	122
632.653	1	140
632.993	1	131
633.332	1	135
633.671	1	119
634.010	1	125
634.349	1	139
634.689	1	121
635.028	1	131
635.367	1	125
635.706	1	121
636.045	1	144
636.384	1	123
636.724	1	127
637.063	1	117
637.402	1	131
637.741	1	127
638.080	1	130
638.419	1	113
638.759	1	102
639.098	1	116
639.437	1	115
639.776	1	107
640.115	1	112
640.454	1	114
640.793	1	122
641.132	1	125
641.472	1	113
641.811	1	113
642.150	1	114
642.489	1	120
642.828	1	102
643.167	1	106
643.506	1	100
643.845	1	107
644.184	1	107
644.524	1	101
644.863	1	106
645.202	1	104
645.541	1	120
645.880	1	105
646.219	1	107
646.558	1	112
646.897	1	103
647.236	1	109
647.575	1	106
647.914	1	97
648.253	1	109
648.592	1	99
648.931	1	109
649.270	1	103
649.610	1	96
649.949	1	88
650.288	1	88
650.627	1	91
650.966	1	97
651.305	1	99
651.644	1	102
651.983	1	99
652.322	1	86
652.661	1	87
653.000	1	95
653.339	1	95
653.678	1	88
654.017	1	90
654.356	1	87
654.695	1	93
655.034	1	94
655.373	1	92
655.712	1	87
656.051	1	89
656.390	1	86
656.729	1	86
657.068	1	92
657.406	1	88
657.745	1	74
658.084	1	82
658.423	1	94
658.762	1	75
659.101	1	82
659.440	1	69
659.779	1	84
660.118	1	78
660.457	1	72
660.796	1	74
661.135	1	70
661.474	1	70
661.813	1	68
662.152	1	77
662.491	1	64
662.829	1	61
663.168	1	68
663.507	1	74
663.846	1	72
664.185	1	68
664.524	1	72
664.863	1	64
665.202	1	61
665.541	1	57
665.879	1	55
666.218	1	59
666.557	1	68
666.896	1	70
667.235	1	77
667.574	1	65
667.913	1	73
668.251	1	68
668.590	1	65
668.929	1	58
669.268	1	58
669.607	1	61
669.946	1	66
670.285	1	58
670.623	1	67
670.962	1	61
671.301	1	60
671.640	1	57
671.979	1	51
672.317	1	62
672.656	1	69
672.995	1	61
673.334	1	63
673.673	1	49
674.011	1	57
674.350	1	61
674.689	1	57
675.028	1	52
675.367	1	62
675.705	1	66
676.044	1	59
676.383	1	56
676.722	1	63
677.060	1	49
677.399	1	56
677.738	1	56
678.077	1	66
678.416	1	56
678.754	1	44
679.093	1	62
679.432	1	59
679.771	1	61
680.109	1	54
680.448	1	52
680.787	1	53
681.125	1	61
681.464	1	61
681.803	1	50
682.142	1	57
682.480	1	62
682.819	1	52
683.158	1	49
683.496	1	56
683.835	1	55
684.174	1	44
684.512	1	56
684.851	1	59
685.190	1	46
685.529	1	45
685.867	1	48
686.206	1	49
686.545	1	38
686.883	1	36
687.222	1	46
687.561	1	55
687.899	1	42
688.238	1	54
688.577	1	44
688.746	1	44