File: Data/GaN_200K_800ms/GaN_sample F_spot 12_UVVIS_200 K_200um_800 ms 2x2mm1_186.txt
340.368	1	4
340.710	1	-10
341.052	1	6
341.394	1	-7
341.737	1	4
342.079	1	-6
342.421	1	5
342.763	1	9
343.105	1	0
343.447	1	-5
343.789	1	-3
344.131	1	-3
344.473	1	7
344.815	1	-5
345.157	1	-10
345.499	1	3
345.841	1	14
346.183	1	-4
346.526	1	-5
346.868	1	4
347.210	1	2
347.552	1	-7
347.894	1	-8
348.236	1	8
348.578	1	2
348.920	1	-1
349.262	1	-1
349.604	1	13
349.946	1	3
350.288	1	13
350.630	1	8
350.972	1	2
351.314	1	6
351.656	1	12
351.998	1	7
352.340	1	8
352.682	1	8
353.024	1	8
353.366	1	12
353.708	1	5
354.050	1	-7
354.392	1	1
354.734	1	-5
355.076	1	6
355.418	1	-4
355.760	1	3
356.102	1	7
356.444	1	8
356.785	1	15
357.127	1	2
357.469	1	6
357.811	1	2
358.153	1	6
358.495	1	10
358.837	1	-9
359.179	1	3
359.521	1	12
359.863	1	8
360.205	1	-1
360.547	1	10
360.889	1	16
361.231	1	0
361.572	1	8
361.914	1	11
362.256	1	5
362.598	1	1
362.940	1	6
363.282	1	14
363.624	1	18
363.966	1	22
364.308	1	13
364.649	1	18
364.991	1	23
365.333	1	21
365.675	1	15
366.017	1	15
366.359	1	29
366.701	1	32
367.042	1	32
367.384	1	39
367.726	1	34
368.068	1	34
368.410	1	45
368.752	1	31
369.093	1	35
369.435	1	41
369.777	1	31
370.119	1	38
370.461	1	46
370.803	1	31
371.144	1	28
371.486	1	40
371.828	1	39
372.170	1	41
372.512	1	19
372.853	1	42
373.195	1	27
373.537	1	25
373.879	1	19
374.220	1	43
374.562	1	33
374.904	1	23
375.246	1	21
375.588	1	21
375.929	1	28
376.271	1	26
376.613	1	4
376.955	1	15
377.296	1	14
377.638	1	18
377.980	1	18
378.321	1	16
378.663	1	14
379.005	1	15
379.347	1	7
379.688	1	10
380.030	1	12
380.372	1	16
380.714	1	13
381.055	1	15
381.397	1	5
381.739	1	13
382.080	1	22
382.422	1	20
382.764	1	14
383.105	1	8
383.447	1	7
383.789	1	5
384.130	1	13
384.472	1	5
384.814	1	12
385.156	1	0
385.497	1	11
385.839	1	8
386.180	1	9
386.522	1	17
386.864	1	13
387.205	1	0
387.547	1	-2
387.889	1	0
388.230	1	12
388.572	1	0
388.914	1	5
389.255	1	-2
389.597	1	15
389.939	1	5
390.280	1	6
390.622	1	-1
390.963	1	6
391.305	1	9
391.647	1	6
391.988	1	6
392.330	1	12
392.671	1	7
393.013	1	-2
393.355	1	13
393.696	1	12
394.038	1	2
394.379	1	-2
394.721	1	4
395.062	1	3
395.404	1	-3
395.746	1	8
396.087	1	-9
396.429	1	4
396.770	1	-3
397.112	1	2
397.453	1	13
397.795	1	5
398.136	1	-5
398.478	1	-6
398.819	1	1
399.161	1	10
399.503	1	0
399.844	1	3
400.186	1	2
400.527	1	0
400.869	1	-1
401.210	1	9
401.552	1	-3
401.893	1	-1
402.235	1	4
402.576	1	1
402.918	1	11
403.259	1	7
403.601	1	-11
403.942	1	17
404.284	1	5
404.625	1	-1
404.967	1	10
405.308	1	2
405.649	1	-2
405.991	1	0
406.332	1	2
406.674	1	11
407.015	1	6
407.357	1	-2
407.698	1	11
408.040	1	-5
408.381	1	2
408.722	1	-11
409.064	1	-3
409.405	1	9
409.747	1	-4
410.088	1	-1
410.430	1	11
410.771	1	4
411.112	1	-1
411.454	1	-1
411.795	1	-8
412.137	1	5
412.478	1	12
412.819	1	-5
413.161	1	-2
413.502	1	-7
413.844	1	2
414.185	1	3
414.526	1	-1
414.868	1	0
415.209	1	0
415.550	1	-3
415.892	1	-1
416.233	1	7
416.575	1	10
416.916	1	-2
417.257	1	6
417.599	1	-5
417.940	1	4
418.281	1	3
418.623	1	-1
418.964	1	-8
419.305	1	9
419.647	1	1
419.988	1	11
420.329	1	-8
420.671	1	0
421.012	1	2
421.353	1	7
421.695	1	-1
422.036	1	2
422.377	1	3
422.718	1	15
423.060	1	0
423.401	1	3
423.742	1	-4
424.084	1	2
424.425	1	-3
424.766	1	0
425.107	1	-10
425.449	1	12
425.790	1	-7
426.131	1	1
426.472	1	2
426.814	1	-8
427.155	1	-3
427.496	1	2
427.837	1	0
428.179	1	0
428.520	1	2
428.861	1	1
429.202	1	2
429.544	1	-4
429.885	1	5
430.226	1	-10
430.567	1	2
430.909	1	2
431.250	1	1
431.591	1	2
431.932	1	-5
432.273	1	-8
432.615	1	-11
432.956	1	-8
433.297	1	-1
433.638	1	-13
433.979	1	7
434.320	1	7
434.662	1	-2
435.003	1	8
435.344	1	2
435.685	1	-8
436.026	1	15
436.368	1	1
436.709	1	-4
437.050	1	4
437.391	1	20
437.732	1	-10
438.073	1	4
438.414	1	-5
438.756	1	-5
439.097	1	-2
439.438	1	3
439.779	1	-12
440.120	1	4
440.461	1	11
440.802	1	-4
441.143	1	4
441.485	1	-1
441.826	1	-2
442.167	1	1
442.508	1	-4
442.849	1	7
443.190	1	-5
443.531	1	10
443.872	1	8
444.213	1	4
444.554	1	12
444.895	1	-10
445.237	1	-6
445.578	1	-7
445.919	1	-7
446.260	1	-2
446.601	1	-1
446.942	1	-1
447.283	1	5
447.624	1	1
447.965	1	-7
448.306	1	-4
448.647	1	-5
448.988	1	10
449.329	1	11
449.670	1	4
450.011	1	7
450.352	1	-2
450.693	1	-14
451.034	1	-11
451.375	1	1
451.716	1	2
452.057	1	4
452.398	1	-5
452.739	1	2
453.080	1	-2
453.421	1	3
453.762	1	2
454.103	1	3
454.444	1	0
454.785	1	0
455.126	1	-6
455.467	1	6
455.808	1	-4
456.149	1	3
456.490	1	1
456.831	1	5
457.172	1	-6
457.513	1	4
457.854	1	2
458.195	1	1
458.536	1	6
458.877	1	-1
459.218	1	7
459.559	1	7
459.899	1	3
460.240	1	-2
460.581	1	12
460.922	1	2
461.263	1	-15
461.604	1	-11
461.945	1	-2
462.286	1	0
462.627	1	9
462.968	1	4
463.309	1	-5
463.649	1	-4
463.990	1	-1
464.331	1	-5
464.672	1	8
465.013	1	-5
465.354	1	5
465.695	1	-5
466.036	1	-7
466.376	1	-3
466.717	1	-5
467.058	1	-3
467.399	1	5
467.740	1	-2
468.081	1	0
468.422	1	-4
468.762	1	-4
469.103	1	-3
469.444	1	-11
469.785	1	-6
470.126	1	1
470.467	1	-6
470.807	1	-2
471.148	1	8
471.489	1	2
471.830	1	9
472.171	1	8
472.511	1	-15
472.852	1	4
473.193	1	4
473.534	1	15
473.875	1	11
474.215	1	9
474.556	1	4
474.897	1	-4
475.238	1	0
475.578	1	-5
475.919	1	0
476.260	1	3
476.601	1	2
476.942	1	2
477.282	1	-2
477.623	1	-1
477.964	1	3
478.305	1	0
478.645	1	11
478.986	1	-2
479.327	1	-11
479.667	1	0
480.008	1	-5
480.349	1	-16
480.690	1	-2
481.030	1	-12
481.371	1	1
481.712	1	3
482.053	1	3
482.393	1	-6
482.734	1	-16
483.075	1	-8
483.415	1	4
483.756	1	8
484.097	1	0
484.437	1	-4
484.778	1	14
485.119	1	-2
485.459	1	10
485.800	1	-1
486.141	1	-8
486.481	1	1
486.822	1	3
487.163	1	1
487.503	1	2
487.844	1	-1
488.185	1	6
488.525	1	4
488.866	1	7
489.207	1	-2
489.547	1	4
489.888	1	-4
490.228	1	4
490.569	1	5
490.910	1	0
491.250	1	1
491.591	1	-10
491.932	1	1
492.272	1	4
492.613	1	-7
492.953	1	-5
493.294	1	3
493.635	1	-2
493.975	1	5
494.316	1	-6
494.656	1	4
494.997	1	-8
495.337	1	11
495.678	1	7
496.019	1	1
496.359	1	0
496.700	1	5
497.040	1	4
497.381	1	7
497.721	1	-5
498.062	1	-1
498.403	1	-3
498.743	1	-4
499.084	1	-2
499.424	1	10
499.765	1	-6
500.105	1	3
500.446	1	-6
500.786	1	-10
501.127	1	2
501.467	1	-7
501.808	1	8
502.148	1	10
502.489	1	1
502.829	1	7
503.170	1	7
503.510	1	5
503.851	1	-1
504.191	1	4
504.532	1	4
504.872	1	-3
505.213	1	9
505.553	1	-11
505.894	1	0
506.234	1	1
506.575	1	11
506.915	1	3
507.256	1	6
507.596	1	7
507.936	1	9
508.277	1	-2
508.617	1	1
508.958	1	2
509.298	1	0
509.639	1	0
509.979	1	-4
510.319	1	13
510.660	1	-7
511.000	1	-3
511.341	1	5
511.681	1	3
512.022	1	-8
512.362	1	-5
512.702	1	-2
513.043	1	3
513.383	1	1
513.724	1	-1
514.064	1	9
514.404	1	0
514.745	1	-1
515.085	1	-1
515.425	1	-1
515.766	1	1
516.106	1	-2
516.447	1	10
516.787	1	9
517.127	1	-3
517.468	1	5
517.808	1	2
518.148	1	5
518.489	1	0
518.829	1	6
519.169	1	1
519.510	1	7
519.850	1	4
520.190	1	5
520.531	1	7
520.871	1	1
521.211	1	-6
521.552	1	6
521.892	1	3
522.232	1	4
522.573	1	-3
522.913	1	2
523.253	1	-4
523.593	1	3
523.934	1	1
524.274	1	-6
524.614	1	3
524.955	1	-5
525.295	1	7
525.635	1	-4
525.975	1	0
526.316	1	6
526.656	1	-5
526.996	1	-2
527.337	1	2
527.677	1	9
528.017	1	-15
528.357	1	2
528.698	1	7
529.038	1	15
529.378	1	5
529.718	1	12
530.058	1	1
530.399	1	15
530.739	1	10
531.079	1	7
531.419	1	14
531.760	1	3
532.100	1	-1
532.440	1	-1
532.780	1	5
533.120	1	2
533.461	1	6
533.801	1	12
534.141	1	-10
534.481	1	-9
534.821	1	18
535.162	1	0
535.502	1	0
535.842	1	7
536.182	1	-1
536.522	1	6
536.862	1	9
537.203	1	-4
537.543	1	-3
537.883	1	2
538.223	1	8
538.563	1	5
538.903	1	-2
539.243	1	3
539.584	1	-2
539.924	1	10
540.264	1	-4
540.604	1	11
540.944	1	-2
541.284	1	3
541.624	1	14
541.964	1	5
542.305	1	9
542.645	1	9
542.985	1	12
543.325	1	5
543.665	1	16
544.005	1	6
544.345	1	10
544.685	1	-3
545.025	1	13
545.365	1	0
545.705	1	1
546.045	1	-1
546.386	1	9
546.726	1	-11
547.066	1	1
547.406	1	11
547.746	1	-16
548.086	1	6
548.426	1	-10
548.766	1	4
549.106	1	4
549.446	1	3
549.786	1	-2
550.126	1	4
550.466	1	2
550.806	1	-4
551.146	1	10
551.486	1	1
551.826	1	10
552.166	1	-4
552.506	1	14
552.846	1	2
553.186	1	11
553.526	1	0
553.866	1	-7
554.206	1	9
554.546	1	4
554.886	1	1
555.226	1	-9
555.566	1	5
555.906	1	2
556.246	1	2
556.586	1	-2
556.926	1	6
557.266	1	-2
557.606	1	6
557.946	1	11
558.286	1	4
558.626	1	12
558.966	1	2
559.306	1	0
559.646	1	-4
559.986	1	1
560.325	1	4
560.665	1	1
561.005	1	-3
561.345	1	8
561.685	1	5
562.025	1	5
562.365	1	1
562.705	1	7
563.045	1	8
563.385	1	-10
563.725	1	5
564.064	1	9
564.404	1	14
564.744	1	6
565.084	1	-2
565.424	1	4
565.764	1	4
566.104	1	10
566.444	1	2
566.783	1	-1
567.123	1	5
567.463	1	5
567.803	1	-6
568.143	1	1
568.483	1	3
568.823	1	4
569.162	1	4
569.502	1	-4
569.842	1	11
570.182	1	5
570.522	1	-5
570.862	1	5
571.201	1	5
571.541	1	0
571.881	1	24
572.221	1	-7
572.561	1	0
572.900	1	-4
573.240	1	5
573.580	1	14
573.920	1	-1
574.260	1	7
574.599	1	-1
574.939	1	9
575.279	1	13
575.619	1	9
575.959	1	3
576.298	1	6
576.638	1	-3
576.978	1	8
577.318	1	4
577.657	1	-6
577.997	1	-1
578.337	1	11
578.677	1	3
579.016	1	4
579.356	1	0
579.696	1	2
580.036	1	2
580.375	1	11
580.715	1	7
581.055	1	10
581.394	1	2
581.734	1	-2
582.074	1	-2
582.414	1	15
582.753	1	-7
583.093	1	0
583.433	1	-1
583.772	1	13
584.112	1	-5
584.452	1	-1
584.791	1	-3
585.131	1	7
585.471	1	3
585.811	1	1
586.150	1	-2
586.490	1	16
586.830	1	1
587.169	1	2
587.509	1	0
587.849	1	10
588.188	1	12
588.528	1	6
588.867	1	7
589.207	1	9
589.547	1	5
589.886	1	-1
590.226	1	8
590.566	1	2
590.905	1	3
591.245	1	-7
591.585	1	11
591.924	1	0
592.264	1	3
592.603	1	6
592.943	1	-4
593.283	1	3
593.622	1	1
593.962	1	5
594.301	1	1
594.641	1	9
594.981	1	-5
595.320	1	1
595.660	1	5
595.999	1	-8
596.339	1	8
596.678	1	-4
597.018	1	-12
597.358	1	3
597.697	1	1
598.037	1	5
598.376	1	11
598.716	1	1
599.055	1	6
599.395	1	2
599.734	1	4
600.074	1	-1
600.413	1	8
600.753	1	1
601.092	1	13
601.432	1	-4
601.771	1	6
602.111	1	7
602.451	1	13
602.790	1	-1
603.130	1	-1
603.469	1	-1
603.809	1	1
604.148	1	16
604.487	1	2
604.827	1	6
605.166	1	8
605.506	1	3
605.845	1	6
606.185	1	2
606.524	1	-5
606.864	1	3
607.203	1	7
607.543	1	-6
607.882	1	4
608.222	1	-3
608.561	1	2
608.901	1	8
609.240	1	-4
609.579	1	8
609.919	1	12
610.258	1	4
610.598	1	0
610.937	1	-1
611.277	1	6
611.616	1	-1
611.955	1	4
612.295	1	3
612.634	1	-3
612.974	1	-4
613.313	1	6
613.652	1	6
613.992	1	-4
614.331	1	0
614.671	1	1
615.010	1	-6
615.349	1	5
615.689	1	3
616.028	1	5
616.368	1	6
616.707	1	7
617.046	1	13
617.386	1	16
617.725	1	1
618.064	1	-9
618.404	1	-1
618.743	1	7
619.082	1	-1
619.422	1	2
619.761	1	-4
620.100	1	8
620.440	1	4
620.779	1	-5
621.118	1	2
621.458	1	-2
621.797	1	4
622.136	1	7
622.476	1	3
622.815	1	9
623.154	1	2
623.494	1	10
623.833	1	0
624.172	1	-2
624.511	1	4
624.851	1	-4
625.190	1	0
625.529	1	2
625.869	1	12
626.208	1	3
626.547	1	12
626.886	1	3
627.226	1	12
627.565	1	3
627.904	1	-1
628.243	1	6
628.583	1	-1
628.922	1	5
629.261	1	3
629.600	1	11
629.940	1	-7
630.279	1	-11
630.618	1	4
630.957	1	4
631.297	1	-4
631.636	1	-8
631.975	1	18
632.314	1	-1
632.653	1	-3
632.993	1	-3
633.332	1	0
633.671	1	-3
634.010	1	-5
634.349	1	4
634.689	1	-1
635.028	1	12
635.367	1	0
635.706	1	-3
636.045	1	13
636.384	1	3
636.724	1	4
637.063	1	7
637.402	1	4
637.741	1	-4
638.080	1	-6
638.419	1	5
638.759	1	-2
639.098	1	7
639.437	1	11
639.776	1	-4
640.115	1	-4
640.454	1	-4
640.793	1	8
641.132	1	4
641.472	1	-2
641.811	1	4
642.150	1	-13
642.489	1	3
642.828	1	0
643.167	1	-3
643.506	1	-15
643.845	1	-4
644.184	1	5
644.524	1	1
644.863	1	-6
645.202	1	2
645.541	1	8
645.880	1	4
646.219	1	-3
646.558	1	-4
646.897	1	-2
647.236	1	1
647.575	1	6
647.914	1	3
648.253	1	3
648.592	1	1
648.931	1	10
649.270	1	1
649.610	1	-8
649.949	1	-4
650.288	1	6
650.627	1	-4
650.966	1	4
651.305	1	10
651.644	1	10
651.983	1	-3
652.322	1	4
652.661	1	5
653.000	1	-1
653.339	1	2
653.678	1	0
654.017	1	-3
654.356	1	2
654.695	1	12
655.034	1	1
655.373	1	14
655.712	1	2
656.051	1	7
656.390	1	-3
656.729	1	7
657.068	1	-2
657.406	1	3
657.745	1	-8
658.084	1	-3
658.423	1	9
658.762	1	1
659.101	1	6
659.440	1	-1
659.779	1	1
660.118	1	4
660.457	1	2
660.796	1	-11
661.135	1	-13
661.474	1	-1
661.813	1	9
662.152	1	6
662.491	1	-7
662.829	1	-6
663.168	1	6
663.507	1	8
663.846	1	-5
664.185	1	6
664.524	1	4
664.863	1	3
665.202	1	12
665.541	1	-3
665.879	1	-3
666.218	1	-3
666.557	1	-7
666.896	1	-5
667.235	1	1
667.574	1	-6
667.913	1	9
668.251	1	-2
668.590	1	-1
668.929	1	-12
669.268	1	4
669.607	1	-3
669.946	1	-1
670.285	1	4
670.623	1	0
670.962	1	6
671.301	1	2
671.640	1	2
671.979	1	-3
672.317	1	3
672.656	1	-6
672.995	1	6
673.334	1	4
673.673	1	0
674.011	1	10
674.350	1	12
674.689	1	3
675.028	1	5
675.367	1	-1
675.705	1	-4
676.044	1	3
676.383	1	9
676.722	1	-4
677.060	1	-4
677.399	1	-3
677.738	1	8
678.077	1	5
678.416	1	1
678.754	1	-2
679.093	1	4
679.432	1	9
679.771	1	-7
680.109	1	7
680.448	1	2
680.787	1	-2
681.125	1	13
681.464	1	-9
681.803	1	-3
682.142	1	4
682.480	1	17
682.819	1	4
683.158	1	2
683.496	1	4
683.835	1	1
684.174	1	1
684.512	1	5
684.851	1	3
685.190	1	-2
685.529	1	0
685.867	1	-5
686.206	1	-6
686.545	1	-11
686.883	1	0
687.222	1	9
687.561	1	8
687.899	1	6
688.238	1	3
688.577	1	10
688.746	1	6