File: Data/GaN_200K_800ms/GaN_sample F_spot 12_UVVIS_200 K_200um_800 ms 2x2mm1_281.txt
340.368	1	13
340.710	1	-7
341.052	1	15
341.394	1	1
341.737	1	5
342.079	1	-6
342.421	1	10
342.763	1	-2
343.105	1	7
343.447	1	-1
343.789	1	6
344.131	1	2
344.473	1	-3
344.815	1	0
345.157	1	2
345.499	1	0
345.841	1	4
346.183	1	-13
346.526	1	1
346.868	1	-2
347.210	1	-3
347.552	1	-4
347.894	1	-5
348.236	1	11
348.578	1	4
348.920	1	-4
349.262	1	-5
349.604	1	1
349.946	1	-4
350.288	1	6
350.630	1	5
350.972	1	-3
351.314	1	2
351.656	1	8
351.998	1	6
352.340	1	8
352.682	1	9
353.024	1	9
353.366	1	5
353.708	1	-3
354.050	1	-12
354.392	1	-9
354.734	1	-1
355.076	1	9
355.418	1	-5
355.760	1	4
356.102	1	8
356.444	1	3
356.785	1	6
357.127	1	8
357.469	1	6
357.811	1	5
358.153	1	10
358.495	1	12
358.837	1	-8
359.179	1	2
359.521	1	7
359.863	1	-6
360.205	1	-7
360.547	1	8
360.889	1	0
361.231	1	-7
361.572	1	18
361.914	1	9
362.256	1	3
362.598	1	-3
362.940	1	3
363.282	1	11
363.624	1	16
363.966	1	-2
364.308	1	3
364.649	1	14
364.991	1	17
365.333	1	4
365.675	1	3
366.017	1	8
366.359	1	10
366.701	1	15
367.042	1	21
367.384	1	17
367.726	1	15
368.068	1	25
368.410	1	32
368.752	1	12
369.093	1	16
369.435	1	24
369.777	1	17
370.119	1	17
370.461	1	41
370.803	1	9
371.144	1	18
371.486	1	26
371.828	1	26
372.170	1	23
372.512	1	2
372.853	1	15
373.195	1	8
373.537	1	14
373.879	1	13
374.220	1	20
374.562	1	16
374.904	1	11
375.246	1	12
375.588	1	-1
375.929	1	14
376.271	1	14
376.613	1	8
376.955	1	7
377.296	1	3
377.638	1	9
377.980	1	10
378.321	1	-3
378.663	1	2
379.005	1	13
379.347	1	5
379.688	1	-1
380.030	1	7
380.372	1	7
380.714	1	8
381.055	1	15
381.397	1	4
381.739	1	9
382.080	1	3
382.422	1	14
382.764	1	-1
383.105	1	7
383.447	1	1
383.789	1	-1
384.130	1	-3
384.472	1	-5
384.814	1	1
385.156	1	-3
385.497	1	12
385.839	1	1
386.180	1	0
386.522	1	13
386.864	1	6
387.205	1	-5
387.547	1	-1
387.889	1	-5
388.230	1	9
388.572	1	2
388.914	1	1
389.255	1	4
389.597	1	6
389.939	1	7
390.280	1	9
390.622	1	3
390.963	1	9
391.305	1	1
391.647	1	4
391.988	1	15
392.330	1	10
392.671	1	-3
393.013	1	3
393.355	1	4
393.696	1	-1
394.038	1	2
394.379	1	4
394.721	1	-1
395.062	1	1
395.404	1	-4
395.746	1	8
396.087	1	2
396.429	1	-3
396.770	1	-4
397.112	1	1
397.453	1	5
397.795	1	-3
398.136	1	-13
398.478	1	-2
398.819	1	0
399.161	1	8
399.503	1	0
399.844	1	-16
400.186	1	-4
400.527	1	-4
400.869	1	5
401.210	1	4
401.552	1	-6
401.893	1	9
402.235	1	4
402.576	1	-5
402.918	1	4
403.259	1	4
403.601	1	-3
403.942	1	19
404.284	1	9
404.625	1	1
404.967	1	5
405.308	1	3
405.649	1	0
405.991	1	-1
406.332	1	2
406.674	1	-7
407.015	1	3
407.357	1	-19
407.698	1	6
408.040	1	-2
408.381	1	3
408.722	1	-4
409.064	1	-3
409.405	1	4
409.747	1	-11
410.088	1	5
410.430	1	10
410.771	1	5
411.112	1	-1
411.454	1	-4
411.795	1	-10
412.137	1	1
412.478	1	19
412.819	1	1
413.161	1	1
413.502	1	-5
413.844	1	3
414.185	1	6
414.526	1	-5
414.868	1	0
415.209	1	-4
415.550	1	0
415.892	1	-2
416.233	1	-1
416.575	1	10
416.916	1	-5
417.257	1	8
417.599	1	11
417.940	1	10
418.281	1	-4
418.623	1	-1
418.964	1	-8
419.305	1	9
419.647	1	6
419.988	1	-10
420.329	1	0
420.671	1	0
421.012	1	-5
421.353	1	-7
421.695	1	-5
422.036	1	1
422.377	1	-2
422.718	1	6
423.060	1	0
423.401	1	7
423.742	1	4
424.084	1	-5
424.425	1	-2
424.766	1	-11
425.107	1	-5
425.449	1	-3
425.790	1	-13
426.131	1	-1
426.472	1	-10
426.814	1	14
427.155	1	-2
427.496	1	-7
427.837	1	-3
428.179	1	-4
428.520	1	4
428.861	1	0
429.202	1	0
429.544	1	2
429.885	1	-2
430.226	1	-2
430.567	1	4
430.909	1	10
431.250	1	-4
431.591	1	6
431.932	1	2
432.273	1	-3
432.615	1	-2
432.956	1	-9
433.297	1	-1
433.638	1	-2
433.979	1	-1
434.320	1	1
434.662	1	-1
435.003	1	9
435.344	1	1
435.685	1	-4
436.026	1	-2
436.368	1	4
436.709	1	-3
437.050	1	3
437.391	1	7
437.732	1	3
438.073	1	4
438.414	1	-3
438.756	1	-6
439.097	1	-10
439.438	1	-7
439.779	1	2
440.120	1	1
440.461	1	2
440.802	1	-18
441.143	1	3
441.485	1	2
441.826	1	0
442.167	1	4
442.508	1	-11
442.849	1	9
443.190	1	10
443.531	1	6
443.872	1	8
444.213	1	8
444.554	1	4
444.895	1	0
445.237	1	-12
445.578	1	-14
445.919	1	-15
446.260	1	-6
446.601	1	0
446.942	1	7
447.283	1	3
447.624	1	-6
447.965	1	-3
448.306	1	12
448.647	1	-5
448.988	1	-7
449.329	1	0
449.670	1	7
450.011	1	5
450.352	1	-3
450.693	1	3
451.034	1	-7
451.375	1	6
451.716	1	-5
452.057	1	3
452.398	1	-4
452.739	1	-3
453.080	1	-9
453.421	1	-1
453.762	1	0
454.103	1	-1
454.444	1	-1
454.785	1	-3
455.126	1	-9
455.467	1	2
455.808	1	3
456.149	1	4
456.490	1	9
456.831	1	4
457.172	1	-5
457.513	1	8
457.854	1	-1
458.195	1	-6
458.536	1	2
458.877	1	5
459.218	1	-2
459.559	1	0
459.899	1	3
460.240	1	8
460.581	1	11
460.922	1	7
461.263	1	0
461.604	1	6
461.945	1	0
462.286	1	-1
462.627	1	1
462.968	1	2
463.309	1	-8
463.649	1	1
463.990	1	-1
464.331	1	-2
464.672	1	3
465.013	1	-3
465.354	1	-1
465.695	1	-4
466.036	1	-3
466.376	1	-3
466.717	1	2
467.058	1	-2
467.399	1	7
467.740	1	2
468.081	1	6
468.422	1	3
468.762	1	-12
469.103	1	-11
469.444	1	-5
469.785	1	-11
470.126	1	2
470.467	1	4
470.807	1	-1
471.148	1	-5
471.489	1	4
471.830	1	-1
472.171	1	2
472.511	1	-3
472.852	1	-7
473.193	1	11
473.534	1	8
473.875	1	15
474.215	1	8
474.556	1	5
474.897	1	6
475.238	1	-1
475.578	1	-11
475.919	1	2
476.260	1	1
476.601	1	3
476.942	1	12
477.282	1	3
477.623	1	-12
477.964	1	-5
478.305	1	-3
478.645	1	12
478.986	1	-5
479.327	1	-5
479.667	1	-3
480.008	1	-4
480.349	1	-3
480.690	1	-5
481.030	1	1
481.371	1	3
481.712	1	2
482.053	1	2
482.393	1	4
482.734	1	-13
483.075	1	-2
483.415	1	3
483.756	1	6
484.097	1	-1
484.437	1	-9
484.778	1	6
485.119	1	-1
485.459	1	8
485.800	1	-10
486.141	1	-7
486.481	1	-4
486.822	1	-2
487.163	1	-1
487.503	1	0
487.844	1	-5
488.185	1	-3
488.525	1	-3
488.866	1	4
489.207	1	0
489.547	1	-1
489.888	1	-5
490.228	1	1
490.569	1	6
490.910	1	4
491.250	1	-3
491.591	1	-17
491.932	1	-10
492.272	1	-3
492.613	1	-6
492.953	1	0
493.294	1	-2
493.635	1	2
493.975	1	8
494.316	1	-5
494.656	1	-4
494.997	1	-7
495.337	1	6
495.678	1	-1
496.019	1	4
496.359	1	-9
496.700	1	0
497.040	1	-9
497.381	1	9
497.721	1	-5
498.062	1	3
498.403	1	1
498.743	1	5
499.084	1	-1
499.424	1	8
499.765	1	-2
500.105	1	-1
500.446	1	-7
500.786	1	-11
501.127	1	-8
501.467	1	-3
501.808	1	-6
502.148	1	-3
502.489	1	8
502.829	1	1
503.170	1	1
503.510	1	7
503.851	1	0
504.191	1	2
504.532	1	8
504.872	1	6
505.213	1	3
505.553	1	0
505.894	1	-6
506.234	1	9
506.575	1	0
506.915	1	1
507.256	1	9
507.596	1	3
507.936	1	0
508.277	1	0
508.617	1	-4
508.958	1	-8
509.298	1	2
509.639	1	-4
509.979	1	6
510.319	1	1
510.660	1	2
511.000	1	-4
511.341	1	1
511.681	1	-1
512.022	1	-5
512.362	1	-7
512.702	1	4
513.043	1	11
513.383	1	-4
513.724	1	3
514.064	1	12
514.404	1	-2
514.745	1	-5
515.085	1	-7
515.425	1	-2
515.766	1	-11
516.106	1	3
516.447	1	10
516.787	1	3
517.127	1	-7
517.468	1	2
517.808	1	-11
518.148	1	-1
518.489	1	-6
518.829	1	5
519.169	1	-2
519.510	1	-1
519.850	1	4
520.190	1	-1
520.531	1	6
520.871	1	2
521.211	1	-7
521.552	1	5
521.892	1	10
522.232	1	8
522.573	1	-2
522.913	1	4
523.253	1	0
523.593	1	0
523.934	1	4
524.274	1	5
524.614	1	4
524.955	1	-4
525.295	1	-1
525.635	1	7
525.975	1	-7
526.316	1	19
526.656	1	0
526.996	1	0
527.337	1	-4
527.677	1	-4
528.017	1	-13
528.357	1	5
528.698	1	-4
529.038	1	3
529.378	1	1
529.718	1	0
530.058	1	0
530.399	1	11
530.739	1	-1
531.079	1	6
531.419	1	6
531.760	1	10
532.100	1	0
532.440	1	-1
532.780	1	3
533.120	1	8
533.461	1	10
533.801	1	14
534.141	1	-4
534.481	1	-8
534.821	1	4
535.162	1	-2
535.502	1	1
535.842	1	1
536.182	1	1
536.522	1	1
536.862	1	10
537.203	1	-5
537.543	1	5
537.883	1	1
538.223	1	-2
538.563	1	11
538.903	1	-9
539.243	1	1
539.584	1	-4
539.924	1	6
540.264	1	2
540.604	1	1
540.944	1	-3
541.284	1	3
541.624	1	8
541.964	1	14
542.305	1	12
542.645	1	6
542.985	1	0
543.325	1	-6
543.665	1	6
544.005	1	7
544.345	1	1
544.685	1	-7
545.025	1	-2
545.365	1	2
545.705	1	-2
546.045	1	-3
546.386	1	0
546.726	1	-10
547.066	1	4
547.406	1	-6
547.746	1	-8
548.086	1	7
548.426	1	-7
548.766	1	3
549.106	1	-9
549.446	1	-2
549.786	1	-3
550.126	1	13
550.466	1	2
550.806	1	4
551.146	1	4
551.486	1	0
551.826	1	3
552.166	1	2
552.506	1	9
552.846	1	6
553.186	1	2
553.526	1	2
553.866	1	-5
554.206	1	7
554.546	1	2
554.886	1	7
555.226	1	-4
555.566	1	11
555.906	1	3
556.246	1	2
556.586	1	1
556.926	1	9
557.266	1	-3
557.606	1	-4
557.946	1	9
558.286	1	-4
558.626	1	8
558.966	1	2
559.306	1	-9
559.646	1	5
559.986	1	-4
560.325	1	-7
560.665	1	-3
561.005	1	2
561.345	1	-1
561.685	1	2
562.025	1	0
562.365	1	7
562.705	1	-6
563.045	1	-1
563.385	1	-9
563.725	1	-2
564.064	1	-4
564.404	1	2
564.744	1	6
565.084	1	-1
565.424	1	6
565.764	1	-1
566.104	1	-4
566.444	1	2
566.783	1	0
567.123	1	10
567.463	1	6
567.803	1	2
568.143	1	2
568.483	1	5
568.823	1	7
569.162	1	6
569.502	1	-4
569.842	1	8
570.182	1	6
570.522	1	-17
570.862	1	-1
571.201	1	-1
571.541	1	9
571.881	1	7
572.221	1	-7
572.561	1	-1
572.900	1	-2
573.240	1	-1
573.580	1	2
573.920	1	5
574.260	1	13
574.599	1	4
574.939	1	7
575.279	1	16
575.619	1	5
575.959	1	-5
576.298	1	9
576.638	1	0
576.978	1	10
577.318	1	13
577.657	1	-3
577.997	1	-5
578.337	1	11
578.677	1	6
579.016	1	11
579.356	1	-10
579.696	1	4
580.036	1	-6
580.375	1	6
580.715	1	-7
581.055	1	4
581.394	1	0
581.734	1	-6
582.074	1	3
582.414	1	12
582.753	1	-1
583.093	1	1
583.433	1	-11
583.772	1	10
584.112	1	4
584.452	1	4
584.791	1	0
585.131	1	8
585.471	1	13
585.811	1	4
586.150	1	-2
586.490	1	13
586.830	1	-3
587.169	1	7
587.509	1	4
587.849	1	6
588.188	1	8
588.528	1	1
588.867	1	3
589.207	1	1
589.547	1	-2
589.886	1	-4
590.226	1	-1
590.566	1	-2
590.905	1	1
591.245	1	-3
591.585	1	3
591.924	1	5
592.264	1	1
592.603	1	4
592.943	1	-3
593.283	1	1
593.622	1	-1
593.962	1	8
594.301	1	1
594.641	1	-4
594.981	1	-16
595.320	1	-2
595.660	1	6
595.999	1	0
596.339	1	2
596.678	1	-6
597.018	1	2
597.358	1	-6
597.697	1	0
598.037	1	-3
598.376	1	-3
598.716	1	9
599.055	1	12
599.395	1	3
599.734	1	4
600.074	1	-9
600.413	1	12
600.753	1	-1
601.092	1	16
601.432	1	-5
601.771	1	6
602.111	1	-1
602.451	1	0
602.790	1	-1
603.130	1	1
603.469	1	3
603.809	1	3
604.148	1	2
604.487	1	0
604.827	1	0
605.166	1	4
605.506	1	11
605.845	1	0
606.185	1	6
606.524	1	-3
606.864	1	-8
607.203	1	-1
607.543	1	-1
607.882	1	1
608.222	1	7
608.561	1	-2
608.901	1	3
609.240	1	-5
609.579	1	3
609.919	1	5
610.258	1	7
610.598	1	2
610.937	1	8
611.277	1	-5
611.616	1	-3
611.955	1	7
612.295	1	-2
612.634	1	6
612.974	1	-12
613.313	1	7
613.652	1	5
613.992	1	1
614.331	1	2
614.671	1	10
615.010	1	-5
615.349	1	7
615.689	1	5
616.028	1	-8
616.368	1	1
616.707	1	-5
617.046	1	-2
617.386	1	1
617.725	1	-7
618.064	1	-5
618.404	1	-5
618.743	1	5
619.082	1	1
619.422	1	-8
619.761	1	1
620.100	1	3
620.440	1	-6
620.779	1	-13
621.118	1	8
621.458	1	-1
621.797	1	-7
622.136	1	10
622.476	1	10
622.815	1	11
623.154	1	10
623.494	1	11
623.833	1	8
624.172	1	-1
624.511	1	-1
624.851	1	-4
625.190	1	-4
625.529	1	1
625.869	1	5
626.208	1	2
626.547	1	-1
626.886	1	9
627.226	1	11
627.565	1	1
627.904	1	-2
628.243	1	2
628.583	1	10
628.922	1	4
629.261	1	2
629.600	1	8
629.940	1	3
630.279	1	5
630.618	1	-9
630.957	1	0
631.297	1	1
631.636	1	-10
631.975	1	9
632.314	1	-3
632.653	1	9
632.993	1	5
633.332	1	-2
633.671	1	3
634.010	1	-6
634.349	1	6
634.689	1	3
635.028	1	6
635.367	1	-1
635.706	1	2
636.045	1	16
636.384	1	3
636.724	1	0
637.063	1	-5
637.402	1	2
637.741	1	2
638.080	1	0
638.419	1	-1
638.759	1	-10
639.098	1	3
639.437	1	6
639.776	1	4
640.115	1	-8
640.454	1	-5
640.793	1	14
641.132	1	5
641.472	1	10
641.811	1	6
642.150	1	-9
642.489	1	4
642.828	1	-17
643.167	1	-6
643.506	1	-11
643.845	1	-2
644.184	1	-9
644.524	1	0
644.863	1	-2
645.202	1	-1
645.541	1	0
645.880	1	1
646.219	1	3
646.558	1	-5
646.897	1	-4
647.236	1	-2
647.575	1	5
647.914	1	-8
648.253	1	9
648.592	1	-10
648.931	1	12
649.270	1	5
649.610	1	-5
649.949	1	4
650.288	1	8
650.627	1	-6
650.966	1	12
651.305	1	-1
651.644	1	14
651.983	1	6
652.322	1	-7
652.661	1	-4
653.000	1	-1
653.339	1	5
653.678	1	0
654.017	1	-1
654.356	1	-7
654.695	1	6
655.034	1	8
655.373	1	11
655.712	1	4
656.051	1	-1
656.390	1	-10
656.729	1	4
657.068	1	0
657.406	1	-1
657.745	1	0
658.084	1	-4
658.423	1	5
658.762	1	0
659.101	1	5
659.440	1	-1
659.779	1	7
660.118	1	4
660.457	1	-1
660.796	1	-9
661.135	1	-5
661.474	1	-4
661.813	1	12
662.152	1	8
662.491	1	-3
662.829	1	-5
663.168	1	6
663.507	1	11
663.846	1	-6
664.185	1	4
664.524	1	-4
664.863	1	-4
665.202	1	-1
665.541	1	-18
665.879	1	-11
666.218	1	-14
666.557	1	1
666.896	1	-5
667.235	1	3
667.574	1	3
667.913	1	-1
668.251	1	-5
668.590	1	-5
668.929	1	-21
669.268	1	-3
669.607	1	-2
669.946	1	3
670.285	1	5
670.623	1	-2
670.962	1	4
671.301	1	4
671.640	1	1
671.979	1	-7
672.317	1	6
672.656	1	-6
672.995	1	4
673.334	1	-5
673.673	1	3
674.011	1	-6
674.350	1	10
674.689	1	1
675.028	1	1
675.367	1	-4
675.705	1	-1
676.044	1	7
676.383	1	-7
676.722	1	5
677.060	1	1
677.399	1	-2
677.738	1	-8
678.077	1	3
678.416	1	6
678.754	1	-1
679.093	1	0
679.432	1	-9
679.771	1	0
680.109	1	2
680.448	1	-3
680.787	1	-9
681.125	1	0
681.464	1	5
681.803	1	0
682.142	1	2
682.480	1	1
682.819	1	4
683.158	1	11
683.496	1	5
683.835	1	11
684.174	1	-3
684.512	1	6
684.851	1	5
685.190	1	3
685.529	1	-4
685.867	1	3
686.206	1	2
686.545	1	-10
686.883	1	-7
687.222	1	-1
687.561	1	8
687.899	1	1
688.238	1	0
688.577	1	-4
688.746	1	4