File: Data/GaN_200K_800ms/GaN_sample F_spot 12_UVVIS_200 K_200um_800 ms 2x2mm1_398.txt
340.368	1	0
340.710	1	-7
341.052	1	5
341.394	1	-3
341.737	1	5
342.079	1	-6
342.421	1	-5
342.763	1	9
343.105	1	14
343.447	1	-2
343.789	1	-9
344.131	1	-7
344.473	1	-18
344.815	1	-3
345.157	1	-9
345.499	1	4
345.841	1	0
346.183	1	0
346.526	1	-12
346.868	1	-7
347.210	1	-7
347.552	1	-6
347.894	1	-6
348.236	1	10
348.578	1	7
348.920	1	0
349.262	1	-2
349.604	1	2
349.946	1	-11
350.288	1	8
350.630	1	2
350.972	1	2
351.314	1	10
351.656	1	2
351.998	1	0
352.340	1	-2
352.682	1	5
353.024	1	0
353.366	1	9
353.708	1	-2
354.050	1	-10
354.392	1	-4
354.734	1	4
355.076	1	-1
355.418	1	-19
355.760	1	-5
356.102	1	8
356.444	1	8
356.785	1	2
357.127	1	-3
357.469	1	-5
357.811	1	-6
358.153	1	0
358.495	1	-4
358.837	1	-7
359.179	1	7
359.521	1	8
359.863	1	0
360.205	1	-9
360.547	1	12
360.889	1	-8
361.231	1	4
361.572	1	2
361.914	1	15
362.256	1	2
362.598	1	-3
362.940	1	4
363.282	1	7
363.624	1	14
363.966	1	2
364.308	1	3
364.649	1	6
364.991	1	13
365.333	1	2
365.675	1	2
366.017	1	3
366.359	1	4
366.701	1	10
367.042	1	10
367.384	1	19
367.726	1	3
368.068	1	15
368.410	1	16
368.752	1	-2
369.093	1	4
369.435	1	18
369.777	1	11
370.119	1	13
370.461	1	12
370.803	1	8
371.144	1	5
371.486	1	14
371.828	1	11
372.170	1	14
372.512	1	4
372.853	1	14
373.195	1	8
373.537	1	0
373.879	1	7
374.220	1	14
374.562	1	9
374.904	1	4
375.246	1	7
375.588	1	4
375.929	1	17
376.271	1	7
376.613	1	3
376.955	1	2
377.296	1	5
377.638	1	1
377.980	1	8
378.321	1	-3
378.663	1	-3
379.005	1	14
379.347	1	-3
379.688	1	8
380.030	1	-1
380.372	1	5
380.714	1	11
381.055	1	7
381.397	1	-5
381.739	1	6
382.080	1	8
382.422	1	1
382.764	1	5
383.105	1	-2
383.447	1	-8
383.789	1	-11
384.130	1	7
384.472	1	6
384.814	1	-2
385.156	1	-4
385.497	1	1
385.839	1	-4
386.180	1	1
386.522	1	7
386.864	1	4
387.205	1	-5
387.547	1	-3
387.889	1	-4
388.230	1	11
388.572	1	-1
388.914	1	7
389.255	1	2
389.597	1	5
389.939	1	7
390.280	1	9
390.622	1	-4
390.963	1	10
391.305	1	-2
391.647	1	0
391.988	1	6
392.330	1	1
392.671	1	3
393.013	1	-1
393.355	1	1
393.696	1	10
394.038	1	6
394.379	1	-7
394.721	1	1
395.062	1	-2
395.404	1	-5
395.746	1	7
396.087	1	-2
396.429	1	-3
396.770	1	-5
397.112	1	4
397.453	1	4
397.795	1	2
398.136	1	-8
398.478	1	-10
398.819	1	-1
399.161	1	10
399.503	1	6
399.844	1	0
400.186	1	-9
400.527	1	-3
400.869	1	4
401.210	1	-10
401.552	1	-12
401.893	1	-3
402.235	1	-3
402.576	1	-3
402.918	1	13
403.259	1	9
403.601	1	-5
403.942	1	5
404.284	1	4
404.625	1	4
404.967	1	-3
405.308	1	4
405.649	1	-2
405.991	1	-2
406.332	1	6
406.674	1	-2
407.015	1	11
407.357	1	-3
407.698	1	8
408.040	1	2
408.381	1	1
408.722	1	-17
409.064	1	-2
409.405	1	10
409.747	1	-2
410.088	1	1
410.430	1	9
410.771	1	-6
411.112	1	-6
411.454	1	-2
411.795	1	-2
412.137	1	6
412.478	1	14
412.819	1	-11
413.161	1	8
413.502	1	2
413.844	1	1
414.185	1	0
414.526	1	-1
414.868	1	-1
415.209	1	-4
415.550	1	-2
415.892	1	-6
416.233	1	10
416.575	1	11
416.916	1	-11
417.257	1	-5
417.599	1	12
417.940	1	4
418.281	1	6
418.623	1	2
418.964	1	-10
419.305	1	0
419.647	1	-3
419.988	1	2
420.329	1	-1
420.671	1	3
421.012	1	1
421.353	1	-4
421.695	1	1
422.036	1	6
422.377	1	-3
422.718	1	-4
423.060	1	-10
423.401	1	8
423.742	1	-9
424.084	1	2
424.425	1	-1
424.766	1	-1
425.107	1	-4
425.449	1	-1
425.790	1	-13
426.131	1	4
426.472	1	-1
426.814	1	6
427.155	1	-2
427.496	1	2
427.837	1	-5
428.179	1	-10
428.520	1	-4
428.861	1	1
429.202	1	-4
429.544	1	0
429.885	1	3
430.226	1	-9
430.567	1	-3
430.909	1	5
431.250	1	3
431.591	1	10
431.932	1	0
432.273	1	-7
432.615	1	-9
432.956	1	-4
433.297	1	6
433.638	1	-4
433.979	1	6
434.320	1	13
434.662	1	3
435.003	1	7
435.344	1	3
435.685	1	4
436.026	1	4
436.368	1	1
436.709	1	0
437.050	1	-4
437.391	1	10
437.732	1	-14
438.073	1	1
438.414	1	-8
438.756	1	3
439.097	1	-10
439.438	1	1
439.779	1	5
440.120	1	-11
440.461	1	-3
440.802	1	-12
441.143	1	7
441.485	1	2
441.826	1	6
442.167	1	-1
442.508	1	-7
442.849	1	3
443.190	1	-3
443.531	1	8
443.872	1	5
444.213	1	-3
444.554	1	6
444.895	1	-6
445.237	1	-9
445.578	1	-6
445.919	1	-3
446.260	1	-8
446.601	1	-10
446.942	1	5
447.283	1	3
447.624	1	-3
447.965	1	-7
448.306	1	2
448.647	1	-6
448.988	1	-3
449.329	1	-6
449.670	1	5
450.011	1	-1
450.352	1	4
450.693	1	-3
451.034	1	-2
451.375	1	0
451.716	1	2
452.057	1	5
452.398	1	-12
452.739	1	1
453.080	1	4
453.421	1	-8
453.762	1	2
454.103	1	4
454.444	1	-12
454.785	1	-8
455.126	1	-7
455.467	1	3
455.808	1	-7
456.149	1	7
456.490	1	-5
456.831	1	6
457.172	1	-4
457.513	1	3
457.854	1	-4
458.195	1	-2
458.536	1	0
458.877	1	-2
459.218	1	2
459.559	1	-1
459.899	1	-3
460.240	1	1
460.581	1	13
460.922	1	1
461.263	1	-2
461.604	1	-8
461.945	1	0
462.286	1	-11
462.627	1	6
462.968	1	-2
463.309	1	-8
463.649	1	3
463.990	1	-9
464.331	1	2
464.672	1	4
465.013	1	-1
465.354	1	-2
465.695	1	-13
466.036	1	-8
466.376	1	-4
466.717	1	12
467.058	1	-2
467.399	1	1
467.740	1	-4
468.081	1	-1
468.422	1	-3
468.762	1	-8
469.103	1	-3
469.444	1	-12
469.785	1	-11
470.126	1	-8
470.467	1	-2
470.807	1	2
471.148	1	-2
471.489	1	-6
471.830	1	0
472.171	1	3
472.511	1	-9
472.852	1	-2
473.193	1	-6
473.534	1	3
473.875	1	10
474.215	1	6
474.556	1	-2
474.897	1	0
475.238	1	-1
475.578	1	-10
475.919	1	-3
476.260	1	8
476.601	1	4
476.942	1	4
477.282	1	1
477.623	1	-10
477.964	1	-4
478.305	1	-3
478.645	1	11
478.986	1	-6
479.327	1	-7
479.667	1	-3
480.008	1	-4
480.349	1	-5
480.690	1	-3
481.030	1	-14
481.371	1	-2
481.712	1	2
482.053	1	-5
482.393	1	1
482.734	1	-5
483.075	1	-5
483.415	1	-5
483.756	1	10
484.097	1	1
484.437	1	1
484.778	1	0
485.119	1	-3
485.459	1	14
485.800	1	-1
486.141	1	-5
486.481	1	0
486.822	1	-1
487.163	1	6
487.503	1	-2
487.844	1	0
488.185	1	8
488.525	1	-3
488.866	1	-2
489.207	1	-4
489.547	1	-4
489.888	1	-2
490.228	1	-3
490.569	1	8
490.910	1	4
491.250	1	-1
491.591	1	-4
491.932	1	-4
492.272	1	9
492.613	1	-4
492.953	1	-3
493.294	1	-2
493.635	1	5
493.975	1	-4
494.316	1	3
494.656	1	2
494.997	1	-5
495.337	1	8
495.678	1	-1
496.019	1	0
496.359	1	-4
496.700	1	-2
497.040	1	-7
497.381	1	-10
497.721	1	-4
498.062	1	-6
498.403	1	13
498.743	1	-3
499.084	1	-8
499.424	1	-12
499.765	1	-6
500.105	1	-10
500.446	1	-9
500.786	1	-7
501.127	1	-2
501.467	1	-14
501.808	1	7
502.148	1	0
502.489	1	0
502.829	1	4
503.170	1	5
503.510	1	5
503.851	1	-1
504.191	1	5
504.532	1	0
504.872	1	1
505.213	1	-3
505.553	1	-3
505.894	1	-9
506.234	1	9
506.575	1	3
506.915	1	16
507.256	1	4
507.596	1	3
507.936	1	5
508.277	1	-10
508.617	1	2
508.958	1	-6
509.298	1	3
509.639	1	-3
509.979	1	-9
510.319	1	-8
510.660	1	-3
511.000	1	-1
511.341	1	-2
511.681	1	9
512.022	1	-3
512.362	1	-1
512.702	1	-3
513.043	1	2
513.383	1	-4
513.724	1	0
514.064	1	13
514.404	1	-3
514.745	1	-3
515.085	1	-1
515.425	1	1
515.766	1	-11
516.106	1	-15
516.447	1	8
516.787	1	7
517.127	1	-5
517.468	1	1
517.808	1	-8
518.148	1	4
518.489	1	-6
518.829	1	5
519.169	1	-5
519.510	1	-1
519.850	1	7
520.190	1	-10
520.531	1	1
520.871	1	2
521.211	1	-14
521.552	1	7
521.892	1	4
522.232	1	4
522.573	1	0
522.913	1	7
523.253	1	4
523.593	1	-5
523.934	1	-4
524.274	1	0
524.614	1	-2
524.955	1	-5
525.295	1	1
525.635	1	-4
525.975	1	-7
526.316	1	5
526.656	1	0
526.996	1	4
527.337	1	-7
527.677	1	1
528.017	1	-16
528.357	1	1
528.698	1	0
529.038	1	5
529.378	1	-3
529.718	1	3
530.058	1	2
530.399	1	13
530.739	1	-1
531.079	1	9
531.419	1	13
531.760	1	2
532.100	1	-6
532.440	1	-6
532.780	1	-4
533.120	1	7
533.461	1	2
533.801	1	10
534.141	1	-11
534.481	1	-5
534.821	1	7
535.162	1	-1
535.502	1	-3
535.842	1	-2
536.182	1	-10
536.522	1	-3
536.862	1	10
537.203	1	-15
537.543	1	-7
537.883	1	2
538.223	1	-2
538.563	1	14
538.903	1	-6
539.243	1	-2
539.584	1	-3
539.924	1	6
540.264	1	-4
540.604	1	2
540.944	1	1
541.284	1	0
541.624	1	11
541.964	1	9
542.305	1	2
542.645	1	3
542.985	1	4
543.325	1	3
543.665	1	2
544.005	1	2
544.345	1	4
544.685	1	-6
545.025	1	2
545.365	1	-7
545.705	1	3
546.045	1	-1
546.386	1	1
546.726	1	-10
547.066	1	-3
547.406	1	8
547.746	1	-7
548.086	1	-2
548.426	1	-5
548.766	1	3
549.106	1	1
549.446	1	2
549.786	1	-1
550.126	1	3
550.466	1	0
550.806	1	-1
551.146	1	-5
551.486	1	-5
551.826	1	4
552.166	1	-3
552.506	1	3
552.846	1	2
553.186	1	3
553.526	1	-2
553.866	1	-3
554.206	1	2
554.546	1	-1
554.886	1	10
555.226	1	-10
555.566	1	7
555.906	1	3
556.246	1	0
556.586	1	-9
556.926	1	-1
557.266	1	1
557.606	1	5
557.946	1	16
558.286	1	1
558.626	1	7
558.966	1	2
559.306	1	-11
559.646	1	-6
559.986	1	-7
560.325	1	1
560.665	1	-5
561.005	1	-8
561.345	1	-2
561.685	1	7
562.025	1	1
562.365	1	9
562.705	1	-7
563.045	1	2
563.385	1	-5
563.725	1	10
564.064	1	-6
564.404	1	8
564.744	1	1
565.084	1	-3
565.424	1	-5
565.764	1	3
566.104	1	-8
566.444	1	-11
566.783	1	-4
567.123	1	-6
567.463	1	6
567.803	1	-2
568.143	1	-3
568.483	1	6
568.823	1	0
569.162	1	11
569.502	1	1
569.842	1	-1
570.182	1	0
570.522	1	-2
570.862	1	-6
571.201	1	2
571.541	1	-2
571.881	1	13
572.221	1	-4
572.561	1	5
572.900	1	-8
573.240	1	-1
573.580	1	6
573.920	1	5
574.260	1	12
574.599	1	-7
574.939	1	4
575.279	1	12
575.619	1	1
575.959	1	-10
576.298	1	9
576.638	1	-10
576.978	1	2
577.318	1	6
577.657	1	-3
577.997	1	-6
578.337	1	10
578.677	1	5
579.016	1	13
579.356	1	-17
579.696	1	7
580.036	1	-2
580.375	1	3
580.715	1	4
581.055	1	0
581.394	1	-1
581.734	1	-15
582.074	1	-4
582.414	1	8
582.753	1	-3
583.093	1	-11
583.433	1	3
583.772	1	1
584.112	1	5
584.452	1	0
584.791	1	-15
585.131	1	-2
585.471	1	2
585.811	1	6
586.150	1	0
586.490	1	1
586.830	1	-5
587.169	1	10
587.509	1	-5
587.849	1	6
588.188	1	11
588.528	1	9
588.867	1	2
589.207	1	-6
589.547	1	-3
589.886	1	3
590.226	1	-6
590.566	1	-5
590.905	1	1
591.245	1	-7
591.585	1	-2
591.924	1	9
592.264	1	-3
592.603	1	-4
592.943	1	1
593.283	1	-6
593.622	1	1
593.962	1	-2
594.301	1	12
594.641	1	2
594.981	1	-4
595.320	1	-3
595.660	1	-4
595.999	1	4
596.339	1	-5
596.678	1	-6
597.018	1	-4
597.358	1	-2
597.697	1	-2
598.037	1	-3
598.376	1	1
598.716	1	-1
599.055	1	5
599.395	1	-2
599.734	1	-1
600.074	1	2
600.413	1	5
600.753	1	6
601.092	1	4
601.432	1	-8
601.771	1	-2
602.111	1	4
602.451	1	4
602.790	1	6
603.130	1	2
603.469	1	-7
603.809	1	-1
604.148	1	5
604.487	1	-1
604.827	1	11
605.166	1	2
605.506	1	2
605.845	1	-5
606.185	1	3
606.524	1	-3
606.864	1	-1
607.203	1	-3
607.543	1	-2
607.882	1	4
608.222	1	3
608.561	1	-11
608.901	1	3
609.240	1	0
609.579	1	5
609.919	1	5
610.258	1	0
610.598	1	-8
610.937	1	-6
611.277	1	-1
611.616	1	6
611.955	1	-4
612.295	1	-3
612.634	1	-2
612.974	1	-7
613.313	1	6
613.652	1	1
613.992	1	-4
614.331	1	-5
614.671	1	1
615.010	1	3
615.349	1	2
615.689	1	7
616.028	1	4
616.368	1	-2
616.707	1	1
617.046	1	10
617.386	1	0
617.725	1	0
618.064	1	1
618.404	1	-8
618.743	1	-3
619.082	1	7
619.422	1	-12
619.761	1	11
620.100	1	14
620.440	1	-7
620.779	1	-13
621.118	1	4
621.458	1	-5
621.797	1	-7
622.136	1	9
622.476	1	5
622.815	1	2
623.154	1	7
623.494	1	13
623.833	1	12
624.172	1	-1
624.511	1	0
624.851	1	-9
625.190	1	1
625.529	1	-1
625.869	1	6
626.208	1	0
626.547	1	7
626.886	1	4
627.226	1	-1
627.565	1	3
627.904	1	1
628.243	1	5
628.583	1	-4
628.922	1	1
629.261	1	4
629.600	1	8
629.940	1	0
630.279	1	-6
630.618	1	-2
630.957	1	3
631.297	1	-8
631.636	1	-17
631.975	1	12
632.314	1	6
632.653	1	-6
632.993	1	0
633.332	1	3
633.671	1	-1
634.010	1	-4
634.349	1	0
634.689	1	2
635.028	1	-2
635.367	1	4
635.706	1	-9
636.045	1	9
636.384	1	0
636.724	1	3
637.063	1	-2
637.402	1	-2
637.741	1	-3
638.080	1	-3
638.419	1	-9
638.759	1	-7
639.098	1	12
639.437	1	5
639.776	1	-5
640.115	1	-12
640.454	1	-3
640.793	1	19
641.132	1	2
641.472	1	5
641.811	1	-4
642.150	1	-3
642.489	1	6
642.828	1	-1
643.167	1	-9
643.506	1	-4
643.845	1	2
644.184	1	2
644.524	1	-11
644.863	1	-5
645.202	1	3
645.541	1	0
645.880	1	5
646.219	1	-1
646.558	1	-6
646.897	1	-1
647.236	1	8
647.575	1	4
647.914	1	-4
648.253	1	16
648.592	1	-11
648.931	1	11
649.270	1	-8
649.610	1	-6
649.949	1	2
650.288	1	4
650.627	1	-6
650.966	1	3
651.305	1	-11
651.644	1	9
651.983	1	-3
652.322	1	-3
652.661	1	-6
653.000	1	1
653.339	1	1
653.678	1	2
654.017	1	3
654.356	1	0
654.695	1	2
655.034	1	5
655.373	1	14
655.712	1	0
656.051	1	3
656.390	1	0
656.729	1	-3
657.068	1	4
657.406	1	3
657.745	1	1
658.084	1	-7
658.423	1	0
658.762	1	-4
659.101	1	6
659.440	1	6
659.779	1	-1
660.118	1	4
660.457	1	2
660.796	1	-4
661.135	1	-9
661.474	1	-5
661.813	1	12
662.152	1	3
662.491	1	-10
662.829	1	-9
663.168	1	-5
663.507	1	2
663.846	1	-9
664.185	1	1
664.524	1	-3
664.863	1	-2
665.202	1	3
665.541	1	-13
665.879	1	-4
666.218	1	-11
666.557	1	1
666.896	1	-6
667.235	1	2
667.574	1	1
667.913	1	-2
668.251	1	-3
668.590	1	-4
668.929	1	-6
669.268	1	-4
669.607	1	-3
669.946	1	-1
670.285	1	5
670.623	1	-7
670.962	1	6
671.301	1	1
671.640	1	10
671.979	1	0
672.317	1	4
672.656	1	2
672.995	1	7
673.334	1	-6
673.673	1	-1
674.011	1	-2
674.350	1	1
674.689	1	5
675.028	1	-6
675.367	1	9
675.705	1	4
676.044	1	-1
676.383	1	6
676.722	1	6
677.060	1	-6
677.399	1	-8
677.738	1	-2
678.077	1	0
678.416	1	4
678.754	1	-1
679.093	1	5
679.432	1	0
679.771	1	-1
680.109	1	8
680.448	1	-6
680.787	1	-2
681.125	1	2
681.464	1	3
681.803	1	1
682.142	1	12
682.480	1	2
682.819	1	4
683.158	1	2
683.496	1	4
683.835	1	2
684.174	1	-2
684.512	1	2
684.851	1	3
685.190	1	-2
685.529	1	-1
685.867	1	-7
686.206	1	-7
686.545	1	3
686.883	1	8
687.222	1	4
687.561	1	10
687.899	1	1
688.238	1	0
688.577	1	0
688.746	1	5