File: Data/GaN_200K_800ms/GaN_sample F_spot 12_UVVIS_200 K_200um_800 ms 2x2mm1_114.txt
340.368	1	11
340.710	1	-1
341.052	1	14
341.394	1	-5
341.737	1	5
342.079	1	-10
342.421	1	-5
342.763	1	0
343.105	1	9
343.447	1	-13
343.789	1	0
344.131	1	-5
344.473	1	-1
344.815	1	3
345.157	1	3
345.499	1	5
345.841	1	3
346.183	1	-2
346.526	1	-3
346.868	1	4
347.210	1	-5
347.552	1	-4
347.894	1	1
348.236	1	10
348.578	1	0
348.920	1	-1
349.262	1	6
349.604	1	1
349.946	1	-2
350.288	1	5
350.630	1	6
350.972	1	6
351.314	1	8
351.656	1	10
351.998	1	8
352.340	1	-2
352.682	1	13
353.024	1	8
353.366	1	15
353.708	1	5
354.050	1	-2
354.392	1	4
354.734	1	12
355.076	1	10
355.418	1	-7
355.760	1	9
356.102	1	22
356.444	1	6
356.785	1	9
357.127	1	8
357.469	1	10
357.811	1	7
358.153	1	22
358.495	1	9
358.837	1	8
359.179	1	8
359.521	1	10
359.863	1	14
360.205	1	13
360.547	1	15
360.889	1	15
361.231	1	10
361.572	1	18
361.914	1	24
362.256	1	24
362.598	1	27
362.940	1	23
363.282	1	34
363.624	1	31
363.966	1	29
364.308	1	41
364.649	1	38
364.991	1	44
365.333	1	29
365.675	1	41
366.017	1	55
366.359	1	66
366.701	1	54
367.042	1	54
367.384	1	66
367.726	1	65
368.068	1	64
368.410	1	81
368.752	1	73
369.093	1	73
369.435	1	80
369.777	1	71
370.119	1	70
370.461	1	85
370.803	1	78
371.144	1	68
371.486	1	66
371.828	1	66
372.170	1	79
372.512	1	66
372.853	1	65
373.195	1	57
373.537	1	54
373.879	1	51
374.220	1	67
374.562	1	54
374.904	1	53
375.246	1	47
375.588	1	49
375.929	1	47
376.271	1	49
376.613	1	36
376.955	1	39
377.296	1	38
377.638	1	42
377.980	1	32
378.321	1	32
378.663	1	30
379.005	1	41
379.347	1	30
379.688	1	35
380.030	1	29
380.372	1	26
380.714	1	30
381.055	1	29
381.397	1	27
381.739	1	23
382.080	1	25
382.422	1	24
382.764	1	11
383.105	1	13
383.447	1	18
383.789	1	14
384.130	1	10
384.472	1	13
384.814	1	9
385.156	1	14
385.497	1	22
385.839	1	12
386.180	1	10
386.522	1	13
386.864	1	20
387.205	1	4
387.547	1	12
387.889	1	12
388.230	1	15
388.572	1	9
388.914	1	12
389.255	1	0
389.597	1	11
389.939	1	14
390.280	1	12
390.622	1	-1
390.963	1	18
391.305	1	13
391.647	1	10
391.988	1	18
392.330	1	9
392.671	1	7
393.013	1	-6
393.355	1	10
393.696	1	6
394.038	1	12
394.379	1	5
394.721	1	7
395.062	1	18
395.404	1	-2
395.746	1	5
396.087	1	4
396.429	1	6
396.770	1	-6
397.112	1	9
397.453	1	14
397.795	1	5
398.136	1	0
398.478	1	6
398.819	1	9
399.161	1	11
399.503	1	9
399.844	1	0
400.186	1	14
400.527	1	4
400.869	1	2
401.210	1	6
401.552	1	-7
401.893	1	8
402.235	1	5
402.576	1	2
402.918	1	22
403.259	1	7
403.601	1	8
403.942	1	5
404.284	1	7
404.625	1	1
404.967	1	7
405.308	1	2
405.649	1	2
405.991	1	4
406.332	1	1
406.674	1	6
407.015	1	8
407.357	1	6
407.698	1	15
408.040	1	3
408.381	1	7
408.722	1	-11
409.064	1	9
409.405	1	5
409.747	1	2
410.088	1	-4
410.430	1	14
410.771	1	-2
411.112	1	1
411.454	1	0
411.795	1	-4
412.137	1	7
412.478	1	13
412.819	1	-6
413.161	1	-3
413.502	1	0
413.844	1	7
414.185	1	5
414.526	1	0
414.868	1	3
415.209	1	5
415.550	1	0
415.892	1	2
416.233	1	6
416.575	1	24
416.916	1	-1
417.257	1	-3
417.599	1	2
417.940	1	8
418.281	1	7
418.623	1	2
418.964	1	-3
419.305	1	-2
419.647	1	6
419.988	1	-3
420.329	1	-4
420.671	1	5
421.012	1	8
421.353	1	-6
421.695	1	-2
422.036	1	-5
422.377	1	-6
422.718	1	5
423.060	1	5
423.401	1	4
423.742	1	7
424.084	1	2
424.425	1	7
424.766	1	-4
425.107	1	-4
425.449	1	4
425.790	1	-15
426.131	1	7
426.472	1	1
426.814	1	0
427.155	1	5
427.496	1	-3
427.837	1	-2
428.179	1	-10
428.520	1	2
428.861	1	2
429.202	1	4
429.544	1	7
429.885	1	2
430.226	1	-5
430.567	1	2
430.909	1	1
431.250	1	3
431.591	1	7
431.932	1	-1
432.273	1	-5
432.615	1	-8
432.956	1	-5
433.297	1	9
433.638	1	0
433.979	1	10
434.320	1	7
434.662	1	1
435.003	1	0
435.344	1	-1
435.685	1	-1
436.026	1	8
436.368	1	7
436.709	1	4
437.050	1	5
437.391	1	6
437.732	1	0
438.073	1	1
438.414	1	0
438.756	1	-10
439.097	1	-1
439.438	1	-2
439.779	1	2
440.120	1	-2
440.461	1	10
440.802	1	0
441.143	1	9
441.485	1	-1
441.826	1	11
442.167	1	4
442.508	1	-11
442.849	1	9
443.190	1	2
443.531	1	7
443.872	1	8
444.213	1	-3
444.554	1	11
444.895	1	-4
445.237	1	-4
445.578	1	-6
445.919	1	-12
446.260	1	-3
446.601	1	-4
446.942	1	0
447.283	1	5
447.624	1	-2
447.965	1	2
448.306	1	0
448.647	1	0
448.988	1	-9
449.329	1	9
449.670	1	1
450.011	1	11
450.352	1	4
450.693	1	6
451.034	1	-3
451.375	1	2
451.716	1	6
452.057	1	3
452.398	1	2
452.739	1	3
453.080	1	-2
453.421	1	-1
453.762	1	3
454.103	1	0
454.444	1	-3
454.785	1	0
455.126	1	-10
455.467	1	12
455.808	1	8
456.149	1	7
456.490	1	-1
456.831	1	4
457.172	1	-6
457.513	1	9
457.854	1	3
458.195	1	-3
458.536	1	8
458.877	1	2
459.218	1	-1
459.559	1	0
459.899	1	-2
460.240	1	3
460.581	1	16
460.922	1	11
461.263	1	-5
461.604	1	-5
461.945	1	-7
462.286	1	7
462.627	1	7
462.968	1	9
463.309	1	-6
463.649	1	-3
463.990	1	3
464.331	1	3
464.672	1	-3
465.013	1	9
465.354	1	-1
465.695	1	-5
466.036	1	-3
466.376	1	-3
466.717	1	-1
467.058	1	0
467.399	1	0
467.740	1	-6
468.081	1	3
468.422	1	-5
468.762	1	0
469.103	1	-4
469.444	1	1
469.785	1	-4
470.126	1	-14
470.467	1	-7
470.807	1	2
471.148	1	6
471.489	1	0
471.830	1	-1
472.171	1	3
472.511	1	-5
472.852	1	-4
473.193	1	11
473.534	1	3
473.875	1	10
474.215	1	8
474.556	1	-4
474.897	1	4
475.238	1	3
475.578	1	0
475.919	1	2
476.260	1	5
476.601	1	5
476.942	1	10
477.282	1	4
477.623	1	-8
477.964	1	2
478.305	1	3
478.645	1	12
478.986	1	-5
479.327	1	-6
479.667	1	4
480.008	1	-2
480.349	1	7
480.690	1	0
481.030	1	3
481.371	1	4
481.712	1	7
482.053	1	8
482.393	1	0
482.734	1	-1
483.075	1	0
483.415	1	-1
483.756	1	12
484.097	1	-2
484.437	1	0
484.778	1	12
485.119	1	0
485.459	1	13
485.800	1	4
486.141	1	-8
486.481	1	7
486.822	1	6
487.163	1	3
487.503	1	0
487.844	1	0
488.185	1	5
488.525	1	6
488.866	1	6
489.207	1	-3
489.547	1	0
489.888	1	-3
490.228	1	3
490.569	1	15
490.910	1	2
491.250	1	-2
491.591	1	1
491.932	1	-1
492.272	1	7
492.613	1	-3
492.953	1	0
493.294	1	-6
493.635	1	3
493.975	1	-1
494.316	1	6
494.656	1	8
494.997	1	9
495.337	1	8
495.678	1	5
496.019	1	-1
496.359	1	-2
496.700	1	4
497.040	1	-2
497.381	1	0
497.721	1	2
498.062	1	3
498.403	1	8
498.743	1	6
499.084	1	-1
499.424	1	5
499.765	1	2
500.105	1	4
500.446	1	4
500.786	1	0
501.127	1	6
501.467	1	-1
501.808	1	16
502.148	1	7
502.489	1	10
502.829	1	-4
503.170	1	5
503.510	1	10
503.851	1	0
504.191	1	14
504.532	1	6
504.872	1	6
505.213	1	8
505.553	1	-1
505.894	1	3
506.234	1	5
506.575	1	9
506.915	1	6
507.256	1	14
507.596	1	12
507.936	1	6
508.277	1	2
508.617	1	4
508.958	1	-3
509.298	1	11
509.639	1	5
509.979	1	-2
510.319	1	4
510.660	1	-2
511.000	1	5
511.341	1	7
511.681	1	8
512.022	1	-2
512.362	1	9
512.702	1	2
513.043	1	11
513.383	1	-5
513.724	1	-5
514.064	1	10
514.404	1	1
514.745	1	-2
515.085	1	-1
515.425	1	8
515.766	1	-2
516.106	1	9
516.447	1	13
516.787	1	10
517.127	1	7
517.468	1	6
517.808	1	8
518.148	1	13
518.489	1	2
518.829	1	9
519.169	1	8
519.510	1	5
519.850	1	1
520.190	1	7
520.531	1	3
520.871	1	9
521.211	1	-2
521.552	1	11
521.892	1	12
522.232	1	14
522.573	1	15
522.913	1	7
523.253	1	5
523.593	1	0
523.934	1	7
524.274	1	10
524.614	1	8
524.955	1	-2
525.295	1	8
525.635	1	13
525.975	1	4
526.316	1	16
526.656	1	3
526.996	1	1
527.337	1	-3
527.677	1	9
528.017	1	2
528.357	1	2
528.698	1	13
529.038	1	5
529.378	1	10
529.718	1	6
530.058	1	10
530.399	1	15
530.739	1	10
531.079	1	19
531.419	1	9
531.760	1	15
532.100	1	9
532.440	1	8
532.780	1	6
533.120	1	14
533.461	1	0
533.801	1	15
534.141	1	-2
534.481	1	5
534.821	1	14
535.162	1	16
535.502	1	9
535.842	1	6
536.182	1	5
536.522	1	-1
536.862	1	14
537.203	1	-8
537.543	1	3
537.883	1	11
538.223	1	11
538.563	1	18
538.903	1	-1
539.243	1	4
539.584	1	9
539.924	1	24
540.264	1	7
540.604	1	7
540.944	1	5
541.284	1	14
541.624	1	23
541.964	1	21
542.305	1	18
542.645	1	11
542.985	1	12
543.325	1	12
543.665	1	14
544.005	1	14
544.345	1	6
544.685	1	10
545.025	1	17
545.365	1	18
545.705	1	5
546.045	1	3
546.386	1	24
546.726	1	12
547.066	1	8
547.406	1	16
547.746	1	-4
548.086	1	8
548.426	1	8
548.766	1	10
549.106	1	7
549.446	1	8
549.786	1	4
550.126	1	20
550.466	1	21
550.806	1	0
551.146	1	5
551.486	1	5
551.826	1	23
552.166	1	22
552.506	1	22
552.846	1	15
553.186	1	15
553.526	1	8
553.866	1	16
554.206	1	12
554.546	1	8
554.886	1	10
555.226	1	3
555.566	1	22
555.906	1	6
556.246	1	13
556.586	1	7
556.926	1	3
557.266	1	6
557.606	1	14
557.946	1	10
558.286	1	10
558.626	1	20
558.966	1	8
559.306	1	7
559.646	1	5
559.986	1	-3
560.325	1	2
560.665	1	13
561.005	1	8
561.345	1	16
561.685	1	13
562.025	1	13
562.365	1	14
562.705	1	12
563.045	1	11
563.385	1	1
563.725	1	8
564.064	1	12
564.404	1	11
564.744	1	17
565.084	1	11
565.424	1	10
565.764	1	14
566.104	1	11
566.444	1	5
566.783	1	9
567.123	1	8
567.463	1	21
567.803	1	2
568.143	1	8
568.483	1	18
568.823	1	13
569.162	1	16
569.502	1	12
569.842	1	14
570.182	1	10
570.522	1	4
570.862	1	9
571.201	1	17
571.541	1	20
571.881	1	20
572.221	1	4
572.561	1	17
572.900	1	10
573.240	1	15
573.580	1	8
573.920	1	11
574.260	1	14
574.599	1	13
574.939	1	15
575.279	1	18
575.619	1	14
575.959	1	-2
576.298	1	21
576.638	1	10
576.978	1	12
577.318	1	13
577.657	1	3
577.997	1	8
578.337	1	18
578.677	1	17
579.016	1	17
579.356	1	10
579.696	1	15
580.036	1	7
580.375	1	8
580.715	1	4
581.055	1	11
581.394	1	2
581.734	1	8
582.074	1	18
582.414	1	14
582.753	1	3
583.093	1	9
583.433	1	0
583.772	1	12
584.112	1	10
584.452	1	17
584.791	1	6
585.131	1	7
585.471	1	11
585.811	1	13
586.150	1	5
586.490	1	14
586.830	1	5
587.169	1	19
587.509	1	6
587.849	1	10
588.188	1	20
588.528	1	17
588.867	1	5
589.207	1	7
589.547	1	8
589.886	1	2
590.226	1	5
590.566	1	-2
590.905	1	6
591.245	1	14
591.585	1	14
591.924	1	14
592.264	1	14
592.603	1	6
592.943	1	4
593.283	1	17
593.622	1	1
593.962	1	16
594.301	1	21
594.641	1	4
594.981	1	-3
595.320	1	10
595.660	1	5
595.999	1	5
596.339	1	19
596.678	1	4
597.018	1	-1
597.358	1	6
597.697	1	10
598.037	1	-2
598.376	1	7
598.716	1	9
599.055	1	9
599.395	1	11
599.734	1	7
600.074	1	2
600.413	1	15
600.753	1	12
601.092	1	17
601.432	1	-1
601.771	1	3
602.111	1	12
602.451	1	11
602.790	1	13
603.130	1	10
603.469	1	9
603.809	1	14
604.148	1	12
604.487	1	19
604.827	1	11
605.166	1	13
605.506	1	15
605.845	1	10
606.185	1	5
606.524	1	8
606.864	1	2
607.203	1	12
607.543	1	19
607.882	1	18
608.222	1	16
608.561	1	11
608.901	1	5
609.240	1	-3
609.579	1	19
609.919	1	14
610.258	1	5
610.598	1	13
610.937	1	5
611.277	1	8
611.616	1	-1
611.955	1	10
612.295	1	6
612.634	1	3
612.974	1	-2
613.313	1	16
613.652	1	13
613.992	1	12
614.331	1	9
614.671	1	9
615.010	1	-5
615.349	1	8
615.689	1	8
616.028	1	6
616.368	1	6
616.707	1	12
617.046	1	12
617.386	1	9
617.725	1	2
618.064	1	7
618.404	1	1
618.743	1	6
619.082	1	4
619.422	1	1
619.761	1	12
620.100	1	9
620.440	1	11
620.779	1	3
621.118	1	9
621.458	1	19
621.797	1	3
622.136	1	22
622.476	1	2
622.815	1	19
623.154	1	19
623.494	1	5
623.833	1	17
624.172	1	8
624.511	1	9
624.851	1	-3
625.190	1	6
625.529	1	13
625.869	1	12
626.208	1	6
626.547	1	0
626.886	1	15
627.226	1	16
627.565	1	9
627.904	1	3
628.243	1	10
628.583	1	9
628.922	1	8
629.261	1	20
629.600	1	13
629.940	1	2
630.279	1	3
630.618	1	3
630.957	1	10
631.297	1	7
631.636	1	-4
631.975	1	12
632.314	1	6
632.653	1	2
632.993	1	-4
633.332	1	2
633.671	1	-1
634.010	1	11
634.349	1	9
634.689	1	7
635.028	1	13
635.367	1	9
635.706	1	3
636.045	1	3
636.384	1	12
636.724	1	5
637.063	1	3
637.402	1	3
637.741	1	7
638.080	1	-1
638.419	1	5
638.759	1	-6
639.098	1	14
639.437	1	8
639.776	1	1
640.115	1	2
640.454	1	3
640.793	1	15
641.132	1	6
641.472	1	5
641.811	1	5
642.150	1	-8
642.489	1	8
642.828	1	-3
643.167	1	-4
643.506	1	-1
643.845	1	8
644.184	1	5
644.524	1	-2
644.863	1	-3
645.202	1	7
645.541	1	5
645.880	1	6
646.219	1	7
646.558	1	0
646.897	1	12
647.236	1	5
647.575	1	2
647.914	1	9
648.253	1	11
648.592	1	-3
648.931	1	8
649.270	1	14
649.610	1	9
649.949	1	5
650.288	1	10
650.627	1	-1
650.966	1	8
651.305	1	8
651.644	1	20
651.983	1	2
652.322	1	-1
652.661	1	9
653.000	1	4
653.339	1	2
653.678	1	5
654.017	1	0
654.356	1	-4
654.695	1	10
655.034	1	-1
655.373	1	14
655.712	1	9
656.051	1	3
656.390	1	10
656.729	1	7
657.068	1	7
657.406	1	6
657.745	1	-4
658.084	1	3
658.423	1	14
658.762	1	-1
659.101	1	8
659.440	1	9
659.779	1	1
660.118	1	10
660.457	1	6
660.796	1	-4
661.135	1	7
661.474	1	1
661.813	1	10
662.152	1	12
662.491	1	-4
662.829	1	-1
663.168	1	15
663.507	1	6
663.846	1	4
664.185	1	4
664.524	1	8
664.863	1	-5
665.202	1	1
665.541	1	-7
665.879	1	4
666.218	1	-3
666.557	1	4
666.896	1	4
667.235	1	7
667.574	1	5
667.913	1	5
668.251	1	2
668.590	1	5
668.929	1	-4
669.268	1	7
669.607	1	6
669.946	1	3
670.285	1	12
670.623	1	4
670.962	1	8
671.301	1	5
671.640	1	9
671.979	1	4
672.317	1	2
672.656	1	3
672.995	1	4
673.334	1	-7
673.673	1	8
674.011	1	5
674.350	1	9
674.689	1	1
675.028	1	5
675.367	1	1
675.705	1	11
676.044	1	10
676.383	1	9
676.722	1	1
677.060	1	-6
677.399	1	-1
677.738	1	1
678.077	1	8
678.416	1	5
678.754	1	10
679.093	1	2
679.432	1	5
679.771	1	5
680.109	1	10
680.448	1	8
680.787	1	2
681.125	1	13
681.464	1	-2
681.803	1	-3
682.142	1	20
682.480	1	14
682.819	1	8
683.158	1	9
683.496	1	10
683.835	1	4
684.174	1	15
684.512	1	17
684.851	1	0
685.190	1	-6
685.529	1	-2
685.867	1	4
686.206	1	-1
686.545	1	3
686.883	1	1
687.222	1	1
687.561	1	6
687.899	1	11
688.238	1	8
688.577	1	11
688.746	1	1