File: Data/GaN_200K_800ms/GaN_sample F_spot 12_UVVIS_200 K_200um_800 ms 2x2mm1_445.txt
340.368	1	0
340.710	1	-18
341.052	1	7
341.394	1	-7
341.737	1	0
342.079	1	0
342.421	1	-6
342.763	1	-3
343.105	1	-7
343.447	1	-6
343.789	1	-7
344.131	1	-1
344.473	1	-3
344.815	1	-5
345.157	1	-1
345.499	1	-3
345.841	1	9
346.183	1	-6
346.526	1	-4
346.868	1	3
347.210	1	-6
347.552	1	-5
347.894	1	1
348.236	1	3
348.578	1	0
348.920	1	4
349.262	1	-5
349.604	1	-3
349.946	1	-9
350.288	1	1
350.630	1	11
350.972	1	1
351.314	1	0
351.656	1	-6
351.998	1	5
352.340	1	3
352.682	1	4
353.024	1	5
353.366	1	15
353.708	1	0
354.050	1	-13
354.392	1	-12
354.734	1	-3
355.076	1	6
355.418	1	-13
355.760	1	-7
356.102	1	6
356.444	1	1
356.785	1	3
357.127	1	6
357.469	1	7
357.811	1	6
358.153	1	7
358.495	1	-1
358.837	1	-3
359.179	1	-6
359.521	1	14
359.863	1	-2
360.205	1	4
360.547	1	-2
360.889	1	-5
361.231	1	-6
361.572	1	2
361.914	1	0
362.256	1	-2
362.598	1	0
362.940	1	-1
363.282	1	11
363.624	1	-3
363.966	1	-5
364.308	1	-6
364.649	1	1
364.991	1	8
365.333	1	2
365.675	1	-4
366.017	1	-1
366.359	1	9
366.701	1	-1
367.042	1	18
367.384	1	5
367.726	1	13
368.068	1	13
368.410	1	13
368.752	1	1
369.093	1	10
369.435	1	8
369.777	1	8
370.119	1	4
370.461	1	14
370.803	1	18
371.144	1	-3
371.486	1	13
371.828	1	10
372.170	1	6
372.512	1	2
372.853	1	16
373.195	1	-5
373.537	1	8
373.879	1	-5
374.220	1	8
374.562	1	2
374.904	1	4
375.246	1	6
375.588	1	0
375.929	1	2
376.271	1	12
376.613	1	-2
376.955	1	-1
377.296	1	0
377.638	1	5
377.980	1	4
378.321	1	-2
378.663	1	-10
379.005	1	4
379.347	1	3
379.688	1	5
380.030	1	-3
380.372	1	3
380.714	1	12
381.055	1	12
381.397	1	6
381.739	1	7
382.080	1	3
382.422	1	-3
382.764	1	-7
383.105	1	-1
383.447	1	-2
383.789	1	-1
384.130	1	-5
384.472	1	-11
384.814	1	4
385.156	1	-7
385.497	1	5
385.839	1	-3
386.180	1	4
386.522	1	7
386.864	1	-1
387.205	1	-2
387.547	1	-2
387.889	1	-10
388.230	1	9
388.572	1	-10
388.914	1	-1
389.255	1	2
389.597	1	5
389.939	1	8
390.280	1	5
390.622	1	-11
390.963	1	5
391.305	1	5
391.647	1	-1
391.988	1	3
392.330	1	7
392.671	1	-3
393.013	1	-8
393.355	1	4
393.696	1	8
394.038	1	-3
394.379	1	-7
394.721	1	-5
395.062	1	3
395.404	1	-4
395.746	1	3
396.087	1	-5
396.429	1	-1
396.770	1	-5
397.112	1	4
397.453	1	7
397.795	1	-6
398.136	1	-7
398.478	1	-8
398.819	1	1
399.161	1	13
399.503	1	3
399.844	1	-5
400.186	1	4
400.527	1	0
400.869	1	-13
401.210	1	-2
401.552	1	0
401.893	1	1
402.235	1	-1
402.576	1	0
402.918	1	8
403.259	1	3
403.601	1	-4
403.942	1	12
404.284	1	4
404.625	1	4
404.967	1	-2
405.308	1	-3
405.649	1	2
405.991	1	-4
406.332	1	7
406.674	1	1
407.015	1	9
407.357	1	1
407.698	1	9
408.040	1	-2
408.381	1	1
408.722	1	-10
409.064	1	-1
409.405	1	4
409.747	1	2
410.088	1	6
410.430	1	6
410.771	1	-3
411.112	1	4
411.454	1	-2
411.795	1	-1
412.137	1	-1
412.478	1	10
412.819	1	-3
413.161	1	-1
413.502	1	4
413.844	1	-1
414.185	1	9
414.526	1	-8
414.868	1	2
415.209	1	-2
415.550	1	-8
415.892	1	-1
416.233	1	7
416.575	1	5
416.916	1	-6
417.257	1	-5
417.599	1	3
417.940	1	5
418.281	1	-2
418.623	1	-4
418.964	1	-10
419.305	1	-5
419.647	1	-10
419.988	1	-2
420.329	1	-17
420.671	1	-3
421.012	1	1
421.353	1	-8
421.695	1	-5
422.036	1	8
422.377	1	-3
422.718	1	14
423.060	1	-17
423.401	1	0
423.742	1	2
424.084	1	-5
424.425	1	1
424.766	1	-11
425.107	1	-6
425.449	1	0
425.790	1	-14
426.131	1	-1
426.472	1	-4
426.814	1	4
427.155	1	-1
427.496	1	-2
427.837	1	0
428.179	1	-9
428.520	1	1
428.861	1	-6
429.202	1	-1
429.544	1	-2
429.885	1	6
430.226	1	-4
430.567	1	4
430.909	1	5
431.250	1	-7
431.591	1	0
431.932	1	-10
432.273	1	-5
432.615	1	-17
432.956	1	-2
433.297	1	5
433.638	1	-2
433.979	1	-5
434.320	1	5
434.662	1	-3
435.003	1	-4
435.344	1	-2
435.685	1	-10
436.026	1	4
436.368	1	1
436.709	1	-7
437.050	1	1
437.391	1	12
437.732	1	-9
438.073	1	-6
438.414	1	-10
438.756	1	-7
439.097	1	-6
439.438	1	-8
439.779	1	5
440.120	1	-6
440.461	1	6
440.802	1	0
441.143	1	3
441.485	1	3
441.826	1	4
442.167	1	4
442.508	1	-5
442.849	1	8
443.190	1	3
443.531	1	5
443.872	1	5
444.213	1	-7
444.554	1	9
444.895	1	0
445.237	1	-4
445.578	1	-7
445.919	1	-9
446.260	1	-9
446.601	1	3
446.942	1	0
447.283	1	-3
447.624	1	0
447.965	1	7
448.306	1	6
448.647	1	-8
448.988	1	-6
449.329	1	-1
449.670	1	1
450.011	1	1
450.352	1	1
450.693	1	-5
451.034	1	-9
451.375	1	6
451.716	1	-7
452.057	1	6
452.398	1	4
452.739	1	-2
453.080	1	2
453.421	1	1
453.762	1	0
454.103	1	2
454.444	1	-7
454.785	1	-5
455.126	1	-12
455.467	1	-2
455.808	1	-3
456.149	1	-6
456.490	1	-2
456.831	1	-5
457.172	1	2
457.513	1	10
457.854	1	4
458.195	1	-8
458.536	1	10
458.877	1	-3
459.218	1	-4
459.559	1	-4
459.899	1	4
460.240	1	5
460.581	1	7
460.922	1	-4
461.263	1	-10
461.604	1	-4
461.945	1	-1
462.286	1	1
462.627	1	3
462.968	1	3
463.309	1	-3
463.649	1	3
463.990	1	0
464.331	1	-2
464.672	1	-6
465.013	1	-6
465.354	1	-7
465.695	1	-18
466.036	1	-13
466.376	1	-4
466.717	1	2
467.058	1	-8
467.399	1	1
467.740	1	-9
468.081	1	-2
468.422	1	-4
468.762	1	-15
469.103	1	-8
469.444	1	-9
469.785	1	-9
470.126	1	-1
470.467	1	-1
470.807	1	11
471.148	1	1
471.489	1	-11
471.830	1	1
472.171	1	9
472.511	1	-3
472.852	1	0
473.193	1	0
473.534	1	-1
473.875	1	11
474.215	1	13
474.556	1	6
474.897	1	4
475.238	1	6
475.578	1	-5
475.919	1	0
476.260	1	-3
476.601	1	-2
476.942	1	14
477.282	1	-2
477.623	1	-9
477.964	1	-5
478.305	1	8
478.645	1	14
478.986	1	-3
479.327	1	-3
479.667	1	-3
480.008	1	-2
480.349	1	-12
480.690	1	-1
481.030	1	-15
481.371	1	-3
481.712	1	-3
482.053	1	-5
482.393	1	-3
482.734	1	-5
483.075	1	-8
483.415	1	9
483.756	1	3
484.097	1	1
484.437	1	-6
484.778	1	10
485.119	1	-7
485.459	1	8
485.800	1	-4
486.141	1	1
486.481	1	-4
486.822	1	3
487.163	1	-12
487.503	1	-6
487.844	1	2
488.185	1	5
488.525	1	-1
488.866	1	-5
489.207	1	-1
489.547	1	-7
489.888	1	-2
490.228	1	0
490.569	1	12
490.910	1	-2
491.250	1	-2
491.591	1	-8
491.932	1	-1
492.272	1	0
492.613	1	-3
492.953	1	-4
493.294	1	-6
493.635	1	2
493.975	1	2
494.316	1	3
494.656	1	1
494.997	1	4
495.337	1	6
495.678	1	-1
496.019	1	-7
496.359	1	-5
496.700	1	1
497.040	1	-9
497.381	1	1
497.721	1	1
498.062	1	-6
498.403	1	2
498.743	1	-12
499.084	1	1
499.424	1	2
499.765	1	-10
500.105	1	-1
500.446	1	-13
500.786	1	-9
501.127	1	-4
501.467	1	-12
501.808	1	6
502.148	1	-5
502.489	1	-3
502.829	1	5
503.170	1	-1
503.510	1	-5
503.851	1	0
504.191	1	2
504.532	1	-6
504.872	1	-3
505.213	1	3
505.553	1	-2
505.894	1	-6
506.234	1	3
506.575	1	7
506.915	1	-1
507.256	1	8
507.596	1	-8
507.936	1	12
508.277	1	-2
508.617	1	-1
508.958	1	-5
509.298	1	0
509.639	1	-5
509.979	1	-5
510.319	1	-1
510.660	1	-1
511.000	1	-9
511.341	1	4
511.681	1	5
512.022	1	-8
512.362	1	-6
512.702	1	0
513.043	1	1
513.383	1	-11
513.724	1	8
514.064	1	12
514.404	1	-10
514.745	1	-7
515.085	1	-9
515.425	1	-1
515.766	1	-13
516.106	1	4
516.447	1	3
516.787	1	-1
517.127	1	5
517.468	1	1
517.808	1	4
518.148	1	-9
518.489	1	-1
518.829	1	4
519.169	1	4
519.510	1	-7
519.850	1	-6
520.190	1	0
520.531	1	7
520.871	1	-3
521.211	1	-9
521.552	1	2
521.892	1	7
522.232	1	3
522.573	1	-1
522.913	1	-1
523.253	1	2
523.593	1	-6
523.934	1	5
524.274	1	1
524.614	1	-1
524.955	1	-11
525.295	1	-9
525.635	1	-9
525.975	1	-4
526.316	1	11
526.656	1	-6
526.996	1	1
527.337	1	-1
527.677	1	3
528.017	1	-4
528.357	1	2
528.698	1	0
529.038	1	10
529.378	1	3
529.718	1	6
530.058	1	-2
530.399	1	8
530.739	1	4
531.079	1	3
531.419	1	12
531.760	1	6
532.100	1	0
532.440	1	-5
532.780	1	-6
533.120	1	0
533.461	1	2
533.801	1	21
534.141	1	-14
534.481	1	-6
534.821	1	-5
535.162	1	-3
535.502	1	-6
535.842	1	5
536.182	1	-10
536.522	1	-11
536.862	1	1
537.203	1	0
537.543	1	0
537.883	1	-5
538.223	1	-2
538.563	1	11
538.903	1	-9
539.243	1	-2
539.584	1	-5
539.924	1	2
540.264	1	-10
540.604	1	5
540.944	1	-6
541.284	1	-3
541.624	1	3
541.964	1	7
542.305	1	2
542.645	1	-2
542.985	1	1
543.325	1	3
543.665	1	18
544.005	1	11
544.345	1	2
544.685	1	3
545.025	1	-2
545.365	1	1
545.705	1	-3
546.045	1	-2
546.386	1	5
546.726	1	-7
547.066	1	0
547.406	1	2
547.746	1	-9
548.086	1	4
548.426	1	-3
548.766	1	2
549.106	1	-4
549.446	1	2
549.786	1	-2
550.126	1	8
550.466	1	6
550.806	1	2
551.146	1	1
551.486	1	-10
551.826	1	6
552.166	1	-1
552.506	1	5
552.846	1	1
553.186	1	4
553.526	1	0
553.866	1	-8
554.206	1	5
554.546	1	1
554.886	1	6
555.226	1	-15
555.566	1	3
555.906	1	5
556.246	1	5
556.586	1	-6
556.926	1	2
557.266	1	2
557.606	1	1
557.946	1	8
558.286	1	0
558.626	1	1
558.966	1	0
559.306	1	2
559.646	1	-10
559.986	1	-4
560.325	1	-13
560.665	1	-4
561.005	1	-3
561.345	1	-1
561.685	1	7
562.025	1	-1
562.365	1	-2
562.705	1	-9
563.045	1	-1
563.385	1	-7
563.725	1	-2
564.064	1	-3
564.404	1	1
564.744	1	3
565.084	1	-14
565.424	1	-2
565.764	1	1
566.104	1	-7
566.444	1	-10
566.783	1	-6
567.123	1	6
567.463	1	-9
567.803	1	-10
568.143	1	-2
568.483	1	0
568.823	1	0
569.162	1	0
569.502	1	4
569.842	1	-1
570.182	1	2
570.522	1	-6
570.862	1	-2
571.201	1	15
571.541	1	1
571.881	1	11
572.221	1	-18
572.561	1	-4
572.900	1	-7
573.240	1	2
573.580	1	2
573.920	1	4
574.260	1	14
574.599	1	6
574.939	1	3
575.279	1	9
575.619	1	0
575.959	1	-9
576.298	1	9
576.638	1	-3
576.978	1	6
577.318	1	10
577.657	1	-7
577.997	1	1
578.337	1	7
578.677	1	6
579.016	1	14
579.356	1	-11
579.696	1	9
580.036	1	-3
580.375	1	10
580.715	1	-7
581.055	1	-7
581.394	1	-8
581.734	1	-10
582.074	1	2
582.414	1	9
582.753	1	-6
583.093	1	-6
583.433	1	-8
583.772	1	7
584.112	1	4
584.452	1	-5
584.791	1	-9
585.131	1	8
585.471	1	4
585.811	1	13
586.150	1	7
586.490	1	2
586.830	1	2
587.169	1	-5
587.509	1	1
587.849	1	3
588.188	1	7
588.528	1	-2
588.867	1	9
589.207	1	2
589.547	1	-1
589.886	1	-6
590.226	1	-3
590.566	1	2
590.905	1	-10
591.245	1	-12
591.585	1	-4
591.924	1	-3
592.264	1	5
592.603	1	5
592.943	1	-1
593.283	1	1
593.622	1	0
593.962	1	8
594.301	1	4
594.641	1	-3
594.981	1	-12
595.320	1	-1
595.660	1	2
595.999	1	-16
596.339	1	12
596.678	1	3
597.018	1	-6
597.358	1	0
597.697	1	-5
598.037	1	-5
598.376	1	0
598.716	1	8
599.055	1	2
599.395	1	1
599.734	1	-2
600.074	1	9
600.413	1	6
600.753	1	1
601.092	1	12
601.432	1	-10
601.771	1	-1
602.111	1	-1
602.451	1	4
602.790	1	-3
603.130	1	3
603.469	1	-7
603.809	1	2
604.148	1	1
604.487	1	4
604.827	1	4
605.166	1	0
605.506	1	5
605.845	1	-4
606.185	1	1
606.524	1	-7
606.864	1	3
607.203	1	0
607.543	1	2
607.882	1	5
608.222	1	2
608.561	1	-1
608.901	1	6
609.240	1	-8
609.579	1	6
609.919	1	10
610.258	1	4
610.598	1	-7
610.937	1	5
611.277	1	-5
611.616	1	-5
611.955	1	-7
612.295	1	0
612.634	1	-9
612.974	1	-11
613.313	1	3
613.652	1	0
613.992	1	-3
614.331	1	1
614.671	1	7
615.010	1	-10
615.349	1	4
615.689	1	8
616.028	1	1
616.368	1	1
616.707	1	1
617.046	1	-4
617.386	1	3
617.725	1	-6
618.064	1	-4
618.404	1	-4
618.743	1	4
619.082	1	2
619.422	1	0
619.761	1	4
620.100	1	6
620.440	1	3
620.779	1	2
621.118	1	-5
621.458	1	-2
621.797	1	-3
622.136	1	14
622.476	1	-10
622.815	1	10
623.154	1	1
623.494	1	10
623.833	1	10
624.172	1	-2
624.511	1	6
624.851	1	-13
625.190	1	-6
625.529	1	5
625.869	1	2
626.208	1	8
626.547	1	-3
626.886	1	3
627.226	1	3
627.565	1	7
627.904	1	-2
628.243	1	-3
628.583	1	-10
628.922	1	-2
629.261	1	-4
629.600	1	8
629.940	1	0
630.279	1	-10
630.618	1	-1
630.957	1	3
631.297	1	8
631.636	1	-8
631.975	1	7
632.314	1	-3
632.653	1	5
632.993	1	-8
633.332	1	-1
633.671	1	-10
634.010	1	-7
634.349	1	4
634.689	1	2
635.028	1	2
635.367	1	6
635.706	1	-4
636.045	1	8
636.384	1	3
636.724	1	-3
637.063	1	-5
637.402	1	2
637.741	1	-3
638.080	1	0
638.419	1	-2
638.759	1	-9
639.098	1	1
639.437	1	-7
639.776	1	-2
640.115	1	3
640.454	1	-3
640.793	1	5
641.132	1	1
641.472	1	4
641.811	1	-8
642.150	1	-4
642.489	1	-6
642.828	1	-7
643.167	1	-11
643.506	1	-5
643.845	1	-1
644.184	1	2
644.524	1	-1
644.863	1	-2
645.202	1	-2
645.541	1	7
645.880	1	7
646.219	1	-2
646.558	1	-1
646.897	1	10
647.236	1	-9
647.575	1	-3
647.914	1	-4
648.253	1	9
648.592	1	-6
648.931	1	3
649.270	1	-3
649.610	1	-3
649.949	1	-8
650.288	1	-3
650.627	1	-2
650.966	1	2
651.305	1	1
651.644	1	9
651.983	1	-2
652.322	1	0
652.661	1	-4
653.000	1	-1
653.339	1	8
653.678	1	-4
654.017	1	-1
654.356	1	-3
654.695	1	3
655.034	1	-2
655.373	1	2
655.712	1	3
656.051	1	1
656.390	1	4
656.729	1	1
657.068	1	0
657.406	1	4
657.745	1	-9
658.084	1	3
658.423	1	4
658.762	1	-10
659.101	1	8
659.440	1	4
659.779	1	-8
660.118	1	4
660.457	1	5
660.796	1	-6
661.135	1	1
661.474	1	-7
661.813	1	13
662.152	1	2
662.491	1	-5
662.829	1	-4
663.168	1	1
663.507	1	-1
663.846	1	-4
664.185	1	6
664.524	1	2
664.863	1	3
665.202	1	0
665.541	1	-5
665.879	1	-6
666.218	1	-8
666.557	1	0
666.896	1	1
667.235	1	5
667.574	1	1
667.913	1	6
668.251	1	-1
668.590	1	1
668.929	1	-25
669.268	1	-5
669.607	1	-3
669.946	1	4
670.285	1	5
670.623	1	-6
670.962	1	-1
671.301	1	-11
671.640	1	-3
671.979	1	0
672.317	1	-4
672.656	1	4
672.995	1	-2
673.334	1	0
673.673	1	-1
674.011	1	1
674.350	1	4
674.689	1	-3
675.028	1	-2
675.367	1	4
675.705	1	9
676.044	1	-4
676.383	1	-1
676.722	1	-6
677.060	1	-6
677.399	1	-6
677.738	1	13
678.077	1	-7
678.416	1	-3
678.754	1	-1
679.093	1	7
679.432	1	-4
679.771	1	-1
680.109	1	2
680.448	1	-6
680.787	1	-10
681.125	1	2
681.464	1	1
681.803	1	-3
682.142	1	5
682.480	1	8
682.819	1	-2
683.158	1	-11
683.496	1	11
683.835	1	0
684.174	1	9
684.512	1	7
684.851	1	8
685.190	1	-4
685.529	1	2
685.867	1	5
686.206	1	-2
686.545	1	-8
686.883	1	-5
687.222	1	8
687.561	1	8
687.899	1	3
688.238	1	4
688.577	1	1
688.746	1	1