File: Data/GaN_200K_800ms/GaN_sample F_spot 12_UVVIS_200 K_200um_800 ms 2x2mm1_219.txt
340.368	1	4
340.710	1	-14
341.052	1	0
341.394	1	-8
341.737	1	2
342.079	1	8
342.421	1	3
342.763	1	11
343.105	1	4
343.447	1	-6
343.789	1	-1
344.131	1	0
344.473	1	-6
344.815	1	-3
345.157	1	1
345.499	1	-3
345.841	1	1
346.183	1	-7
346.526	1	-5
346.868	1	8
347.210	1	-6
347.552	1	-6
347.894	1	0
348.236	1	-1
348.578	1	-1
348.920	1	3
349.262	1	-6
349.604	1	-5
349.946	1	-8
350.288	1	5
350.630	1	6
350.972	1	-2
351.314	1	1
351.656	1	2
351.998	1	0
352.340	1	6
352.682	1	7
353.024	1	0
353.366	1	16
353.708	1	4
354.050	1	3
354.392	1	5
354.734	1	1
355.076	1	3
355.418	1	-4
355.760	1	-4
356.102	1	16
356.444	1	10
356.785	1	3
357.127	1	2
357.469	1	-2
357.811	1	9
358.153	1	15
358.495	1	7
358.837	1	0
359.179	1	8
359.521	1	9
359.863	1	1
360.205	1	-1
360.547	1	12
360.889	1	-1
361.231	1	6
361.572	1	13
361.914	1	19
362.256	1	8
362.598	1	8
362.940	1	1
363.282	1	10
363.624	1	19
363.966	1	9
364.308	1	12
364.649	1	15
364.991	1	17
365.333	1	13
365.675	1	4
366.017	1	16
366.359	1	12
366.701	1	16
367.042	1	31
367.384	1	24
367.726	1	24
368.068	1	20
368.410	1	29
368.752	1	14
369.093	1	25
369.435	1	21
369.777	1	28
370.119	1	16
370.461	1	45
370.803	1	28
371.144	1	12
371.486	1	26
371.828	1	26
372.170	1	25
372.512	1	12
372.853	1	28
373.195	1	10
373.537	1	22
373.879	1	22
374.220	1	24
374.562	1	22
374.904	1	15
375.246	1	22
375.588	1	15
375.929	1	19
376.271	1	23
376.613	1	11
376.955	1	5
377.296	1	5
377.638	1	4
377.980	1	17
378.321	1	-1
378.663	1	4
379.005	1	12
379.347	1	12
379.688	1	12
380.030	1	-3
380.372	1	9
380.714	1	14
381.055	1	14
381.397	1	17
381.739	1	10
382.080	1	8
382.422	1	12
382.764	1	11
383.105	1	13
383.447	1	-1
383.789	1	3
384.130	1	-2
384.472	1	-3
384.814	1	-3
385.156	1	1
385.497	1	9
385.839	1	-3
386.180	1	7
386.522	1	19
386.864	1	11
387.205	1	4
387.547	1	-2
387.889	1	-3
388.230	1	11
388.572	1	-2
388.914	1	9
389.255	1	2
389.597	1	4
389.939	1	2
390.280	1	5
390.622	1	4
390.963	1	7
391.305	1	3
391.647	1	3
391.988	1	-3
392.330	1	3
392.671	1	-2
393.013	1	9
393.355	1	7
393.696	1	4
394.038	1	2
394.379	1	6
394.721	1	-2
395.062	1	8
395.404	1	-5
395.746	1	12
396.087	1	-4
396.429	1	-1
396.770	1	4
397.112	1	7
397.453	1	10
397.795	1	6
398.136	1	-7
398.478	1	3
398.819	1	0
399.161	1	7
399.503	1	4
399.844	1	-4
400.186	1	5
400.527	1	0
400.869	1	1
401.210	1	6
401.552	1	0
401.893	1	-3
402.235	1	-4
402.576	1	-7
402.918	1	8
403.259	1	3
403.601	1	-9
403.942	1	14
404.284	1	8
404.625	1	8
404.967	1	7
405.308	1	4
405.649	1	9
405.991	1	-7
406.332	1	2
406.674	1	-8
407.015	1	8
407.357	1	-8
407.698	1	6
408.040	1	-7
408.381	1	9
408.722	1	-10
409.064	1	5
409.405	1	5
409.747	1	-4
410.088	1	-3
410.430	1	5
410.771	1	1
411.112	1	-5
411.454	1	-8
411.795	1	-5
412.137	1	10
412.478	1	11
412.819	1	3
413.161	1	2
413.502	1	-6
413.844	1	11
414.185	1	10
414.526	1	3
414.868	1	-4
415.209	1	4
415.550	1	-5
415.892	1	4
416.233	1	12
416.575	1	12
416.916	1	-3
417.257	1	-1
417.599	1	0
417.940	1	12
418.281	1	0
418.623	1	-1
418.964	1	-8
419.305	1	-1
419.647	1	-1
419.988	1	-6
420.329	1	-3
420.671	1	12
421.012	1	2
421.353	1	-6
421.695	1	-4
422.036	1	0
422.377	1	-2
422.718	1	3
423.060	1	-5
423.401	1	-5
423.742	1	8
424.084	1	-10
424.425	1	5
424.766	1	-6
425.107	1	1
425.449	1	1
425.790	1	-10
426.131	1	5
426.472	1	0
426.814	1	7
427.155	1	-12
427.496	1	0
427.837	1	-6
428.179	1	-7
428.520	1	-8
428.861	1	-3
429.202	1	7
429.544	1	-6
429.885	1	10
430.226	1	-3
430.567	1	3
430.909	1	4
431.250	1	7
431.591	1	1
431.932	1	-12
432.273	1	-2
432.615	1	-1
432.956	1	-13
433.297	1	-2
433.638	1	2
433.979	1	3
434.320	1	8
434.662	1	1
435.003	1	4
435.344	1	-4
435.685	1	-3
436.026	1	7
436.368	1	9
436.709	1	0
437.050	1	9
437.391	1	10
437.732	1	-11
438.073	1	-5
438.414	1	-11
438.756	1	0
439.097	1	-7
439.438	1	2
439.779	1	2
440.120	1	-3
440.461	1	-2
440.802	1	-1
441.143	1	3
441.485	1	6
441.826	1	0
442.167	1	4
442.508	1	-16
442.849	1	12
443.190	1	1
443.531	1	7
443.872	1	13
444.213	1	4
444.554	1	8
444.895	1	-5
445.237	1	-6
445.578	1	-4
445.919	1	-10
446.260	1	-6
446.601	1	-11
446.942	1	-5
447.283	1	-8
447.624	1	1
447.965	1	0
448.306	1	7
448.647	1	-11
448.988	1	-1
449.329	1	0
449.670	1	15
450.011	1	1
450.352	1	-1
450.693	1	-10
451.034	1	3
451.375	1	1
451.716	1	0
452.057	1	2
452.398	1	1
452.739	1	2
453.080	1	0
453.421	1	3
453.762	1	0
454.103	1	-3
454.444	1	-9
454.785	1	-4
455.126	1	-2
455.467	1	0
455.808	1	7
456.149	1	7
456.490	1	-2
456.831	1	11
457.172	1	-2
457.513	1	10
457.854	1	2
458.195	1	-3
458.536	1	7
458.877	1	1
459.218	1	1
459.559	1	-4
459.899	1	0
460.240	1	1
460.581	1	20
460.922	1	2
461.263	1	-12
461.604	1	-4
461.945	1	-4
462.286	1	-5
462.627	1	10
462.968	1	9
463.309	1	-5
463.649	1	1
463.990	1	-5
464.331	1	-4
464.672	1	1
465.013	1	1
465.354	1	8
465.695	1	0
466.036	1	5
466.376	1	-11
466.717	1	3
467.058	1	-9
467.399	1	7
467.740	1	0
468.081	1	8
468.422	1	-6
468.762	1	-6
469.103	1	-8
469.444	1	-8
469.785	1	-1
470.126	1	-17
470.467	1	1
470.807	1	2
471.148	1	7
471.489	1	-1
471.830	1	-2
472.171	1	5
472.511	1	-7
472.852	1	-1
473.193	1	10
473.534	1	8
473.875	1	7
474.215	1	7
474.556	1	4
474.897	1	0
475.238	1	-2
475.578	1	-8
475.919	1	-4
476.260	1	2
476.601	1	-3
476.942	1	3
477.282	1	-1
477.623	1	-11
477.964	1	-3
478.305	1	1
478.645	1	8
478.986	1	-7
479.327	1	-7
479.667	1	-7
480.008	1	-5
480.349	1	-5
480.690	1	-3
481.030	1	1
481.371	1	2
481.712	1	1
482.053	1	4
482.393	1	7
482.734	1	-6
483.075	1	4
483.415	1	0
483.756	1	-4
484.097	1	-7
484.437	1	0
484.778	1	13
485.119	1	-3
485.459	1	10
485.800	1	-3
486.141	1	4
486.481	1	-8
486.822	1	1
487.163	1	4
487.503	1	-2
487.844	1	-6
488.185	1	5
488.525	1	-3
488.866	1	-5
489.207	1	-2
489.547	1	-1
489.888	1	-8
490.228	1	7
490.569	1	13
490.910	1	1
491.250	1	-1
491.591	1	8
491.932	1	6
492.272	1	6
492.613	1	-8
492.953	1	-6
493.294	1	1
493.635	1	-5
493.975	1	-8
494.316	1	9
494.656	1	-1
494.997	1	-1
495.337	1	9
495.678	1	11
496.019	1	-4
496.359	1	5
496.700	1	9
497.040	1	-5
497.381	1	-1
497.721	1	3
498.062	1	2
498.403	1	-3
498.743	1	-6
499.084	1	2
499.424	1	-4
499.765	1	-2
500.105	1	2
500.446	1	-3
500.786	1	-14
501.127	1	5
501.467	1	-14
501.808	1	7
502.148	1	2
502.489	1	7
502.829	1	-3
503.170	1	11
503.510	1	10
503.851	1	-7
504.191	1	7
504.532	1	3
504.872	1	6
505.213	1	7
505.553	1	0
505.894	1	-9
506.234	1	3
506.575	1	4
506.915	1	4
507.256	1	0
507.596	1	2
507.936	1	1
508.277	1	-2
508.617	1	4
508.958	1	-3
509.298	1	2
509.639	1	1
509.979	1	-9
510.319	1	-3
510.660	1	8
511.000	1	4
511.341	1	2
511.681	1	5
512.022	1	-6
512.362	1	-3
512.702	1	0
513.043	1	11
513.383	1	-9
513.724	1	2
514.064	1	4
514.404	1	3
514.745	1	0
515.085	1	-3
515.425	1	-5
515.766	1	-4
516.106	1	2
516.447	1	5
516.787	1	2
517.127	1	4
517.468	1	2
517.808	1	3
518.148	1	-1
518.489	1	-7
518.829	1	6
519.169	1	-3
519.510	1	-4
519.850	1	5
520.190	1	-3
520.531	1	-1
520.871	1	14
521.211	1	-4
521.552	1	3
521.892	1	2
522.232	1	13
522.573	1	4
522.913	1	11
523.253	1	1
523.593	1	-6
523.934	1	0
524.274	1	-6
524.614	1	2
524.955	1	1
525.295	1	6
525.635	1	5
525.975	1	-2
526.316	1	23
526.656	1	-2
526.996	1	6
527.337	1	0
527.677	1	-1
528.017	1	-15
528.357	1	2
528.698	1	-1
529.038	1	5
529.378	1	8
529.718	1	9
530.058	1	3
530.399	1	3
530.739	1	5
531.079	1	8
531.419	1	6
531.760	1	3
532.100	1	8
532.440	1	-3
532.780	1	8
533.120	1	14
533.461	1	3
533.801	1	21
534.141	1	-8
534.481	1	-2
534.821	1	8
535.162	1	1
535.502	1	-1
535.842	1	12
536.182	1	7
536.522	1	-3
536.862	1	3
537.203	1	3
537.543	1	-3
537.883	1	-3
538.223	1	3
538.563	1	3
538.903	1	-9
539.243	1	0
539.584	1	0
539.924	1	5
540.264	1	0
540.604	1	10
540.944	1	1
541.284	1	5
541.624	1	6
541.964	1	15
542.305	1	12
542.645	1	5
542.985	1	15
543.325	1	0
543.665	1	5
544.005	1	9
544.345	1	9
544.685	1	-4
545.025	1	8
545.365	1	5
545.705	1	7
546.045	1	0
546.386	1	15
546.726	1	0
547.066	1	-3
547.406	1	1
547.746	1	-7
548.086	1	3
548.426	1	1
548.766	1	-2
549.106	1	-6
549.446	1	7
549.786	1	-1
550.126	1	8
550.466	1	6
550.806	1	-3
551.146	1	3
551.486	1	10
551.826	1	18
552.166	1	1
552.506	1	5
552.846	1	2
553.186	1	1
553.526	1	5
553.866	1	1
554.206	1	13
554.546	1	4
554.886	1	1
555.226	1	3
555.566	1	12
555.906	1	7
556.246	1	2
556.586	1	3
556.926	1	7
557.266	1	1
557.606	1	-8
557.946	1	11
558.286	1	-2
558.626	1	-2
558.966	1	2
559.306	1	-10
559.646	1	-13
559.986	1	-6
560.325	1	-3
560.665	1	1
561.005	1	-2
561.345	1	5
561.685	1	-5
562.025	1	10
562.365	1	0
562.705	1	3
563.045	1	-1
563.385	1	-2
563.725	1	-1
564.064	1	5
564.404	1	-1
564.744	1	3
565.084	1	-3
565.424	1	5
565.764	1	4
566.104	1	-4
566.444	1	-3
566.783	1	1
567.123	1	14
567.463	1	6
567.803	1	-16
568.143	1	2
568.483	1	7
568.823	1	5
569.162	1	-2
569.502	1	-4
569.842	1	0
570.182	1	-3
570.522	1	-9
570.862	1	0
571.201	1	12
571.541	1	6
571.881	1	10
572.221	1	-1
572.561	1	1
572.900	1	2
573.240	1	7
573.580	1	14
573.920	1	10
574.260	1	18
574.599	1	-3
574.939	1	12
575.279	1	20
575.619	1	10
575.959	1	-2
576.298	1	8
576.638	1	-6
576.978	1	6
577.318	1	13
577.657	1	-1
577.997	1	-1
578.337	1	14
578.677	1	9
579.016	1	7
579.356	1	7
579.696	1	6
580.036	1	3
580.375	1	4
580.715	1	13
581.055	1	4
581.394	1	7
581.734	1	-1
582.074	1	10
582.414	1	3
582.753	1	0
583.093	1	-1
583.433	1	11
583.772	1	11
584.112	1	8
584.452	1	6
584.791	1	-7
585.131	1	8
585.471	1	6
585.811	1	8
586.150	1	-2
586.490	1	3
586.830	1	1
587.169	1	7
587.509	1	1
587.849	1	9
588.188	1	10
588.528	1	6
588.867	1	10
589.207	1	5
589.547	1	9
589.886	1	3
590.226	1	3
590.566	1	-1
590.905	1	3
591.245	1	1
591.585	1	4
591.924	1	12
592.264	1	1
592.603	1	5
592.943	1	2
593.283	1	1
593.622	1	-4
593.962	1	5
594.301	1	12
594.641	1	7
594.981	1	-14
595.320	1	1
595.660	1	4
595.999	1	4
596.339	1	14
596.678	1	-6
597.018	1	-13
597.358	1	6
597.697	1	-6
598.037	1	4
598.376	1	-5
598.716	1	7
599.055	1	9
599.395	1	8
599.734	1	7
600.074	1	6
600.413	1	19
600.753	1	3
601.092	1	14
601.432	1	-8
601.771	1	9
602.111	1	6
602.451	1	10
602.790	1	-3
603.130	1	9
603.469	1	-5
603.809	1	6
604.148	1	12
604.487	1	-6
604.827	1	6
605.166	1	-7
605.506	1	7
605.845	1	11
606.185	1	1
606.524	1	4
606.864	1	5
607.203	1	5
607.543	1	4
607.882	1	2
608.222	1	16
608.561	1	-1
608.901	1	-2
609.240	1	-4
609.579	1	18
609.919	1	15
610.258	1	12
610.598	1	-2
610.937	1	-3
611.277	1	10
611.616	1	3
611.955	1	-1
612.295	1	4
612.634	1	-1
612.974	1	-3
613.313	1	7
613.652	1	6
613.992	1	2
614.331	1	1
614.671	1	-3
615.010	1	-2
615.349	1	6
615.689	1	9
616.028	1	2
616.368	1	8
616.707	1	0
617.046	1	6
617.386	1	3
617.725	1	-2
618.064	1	4
618.404	1	-4
618.743	1	1
619.082	1	0
619.422	1	-7
619.761	1	-1
620.100	1	13
620.440	1	7
620.779	1	-5
621.118	1	4
621.458	1	1
621.797	1	6
622.136	1	12
622.476	1	13
622.815	1	9
623.154	1	14
623.494	1	15
623.833	1	7
624.172	1	-2
624.511	1	-6
624.851	1	0
625.190	1	-4
625.529	1	7
625.869	1	7
626.208	1	5
626.547	1	6
626.886	1	10
627.226	1	2
627.565	1	3
627.904	1	3
628.243	1	11
628.583	1	0
628.922	1	8
629.261	1	3
629.600	1	9
629.940	1	7
630.279	1	3
630.618	1	1
630.957	1	-3
631.297	1	1
631.636	1	-8
631.975	1	10
632.314	1	-3
632.653	1	-5
632.993	1	-5
633.332	1	1
633.671	1	-1
634.010	1	-5
634.349	1	14
634.689	1	9
635.028	1	-1
635.367	1	8
635.706	1	4
636.045	1	11
636.384	1	-4
636.724	1	-2
637.063	1	-12
637.402	1	3
637.741	1	2
638.080	1	-3
638.419	1	-6
638.759	1	-3
639.098	1	4
639.437	1	1
639.776	1	-1
640.115	1	-4
640.454	1	-3
640.793	1	7
641.132	1	3
641.472	1	8
641.811	1	2
642.150	1	-11
642.489	1	2
642.828	1	-2
643.167	1	0
643.506	1	-3
643.845	1	1
644.184	1	3
644.524	1	-4
644.863	1	-5
645.202	1	-4
645.541	1	-4
645.880	1	-5
646.219	1	8
646.558	1	1
646.897	1	-5
647.236	1	10
647.575	1	7
647.914	1	-6
648.253	1	11
648.592	1	-11
648.931	1	7
649.270	1	1
649.610	1	-3
649.949	1	10
650.288	1	8
650.627	1	-6
650.966	1	1
651.305	1	0
651.644	1	1
651.983	1	-2
652.322	1	-6
652.661	1	-4
653.000	1	0
653.339	1	4
653.678	1	6
654.017	1	0
654.356	1	0
654.695	1	4
655.034	1	1
655.373	1	10
655.712	1	6
656.051	1	0
656.390	1	-5
656.729	1	6
657.068	1	-1
657.406	1	14
657.745	1	-2
658.084	1	-1
658.423	1	7
658.762	1	5
659.101	1	10
659.440	1	-1
659.779	1	-1
660.118	1	-9
660.457	1	1
660.796	1	-16
661.135	1	-8
661.474	1	0
661.813	1	15
662.152	1	5
662.491	1	-1
662.829	1	-10
663.168	1	1
663.507	1	7
663.846	1	-3
664.185	1	-6
664.524	1	-7
664.863	1	-6
665.202	1	1
665.541	1	-8
665.879	1	-7
666.218	1	-7
666.557	1	1
666.896	1	-4
667.235	1	6
667.574	1	-9
667.913	1	4
668.251	1	1
668.590	1	-4
668.929	1	-11
669.268	1	1
669.607	1	-2
669.946	1	-2
670.285	1	8
670.623	1	-1
670.962	1	6
671.301	1	2
671.640	1	-4
671.979	1	-5
672.317	1	3
672.656	1	2
672.995	1	2
673.334	1	-7
673.673	1	4
674.011	1	-1
674.350	1	2
674.689	1	7
675.028	1	-11
675.367	1	2
675.705	1	12
676.044	1	-4
676.383	1	6
676.722	1	3
677.060	1	-1
677.399	1	-2
677.738	1	6
678.077	1	2
678.416	1	2
678.754	1	0
679.093	1	11
679.432	1	-6
679.771	1	5
680.109	1	9
680.448	1	-2
680.787	1	-3
681.125	1	2
681.464	1	7
681.803	1	3
682.142	1	5
682.480	1	14
682.819	1	-3
683.158	1	3
683.496	1	5
683.835	1	4
684.174	1	3
684.512	1	5
684.851	1	7
685.190	1	-8
685.529	1	3
685.867	1	-4
686.206	1	2
686.545	1	-5
686.883	1	-1
687.222	1	0
687.561	1	11
687.899	1	1
688.238	1	4
688.577	1	1
688.746	1	7