File: Data/GaN_200K_800ms/GaN_sample F_spot 12_UVVIS_200 K_200um_800 ms 2x2mm1_368.txt
340.368	1	3
340.710	1	-11
341.052	1	12
341.394	1	-15
341.737	1	-1
342.079	1	0
342.421	1	-3
342.763	1	11
343.105	1	-1
343.447	1	0
343.789	1	1
344.131	1	10
344.473	1	1
344.815	1	-1
345.157	1	-6
345.499	1	-1
345.841	1	2
346.183	1	-5
346.526	1	-5
346.868	1	-2
347.210	1	-5
347.552	1	-9
347.894	1	2
348.236	1	3
348.578	1	-1
348.920	1	-3
349.262	1	-8
349.604	1	-6
349.946	1	-6
350.288	1	5
350.630	1	9
350.972	1	9
351.314	1	6
351.656	1	-1
351.998	1	0
352.340	1	3
352.682	1	0
353.024	1	3
353.366	1	18
353.708	1	0
354.050	1	-5
354.392	1	-5
354.734	1	5
355.076	1	7
355.418	1	-12
355.760	1	-7
356.102	1	6
356.444	1	1
356.785	1	10
357.127	1	-1
357.469	1	5
357.811	1	-2
358.153	1	7
358.495	1	2
358.837	1	-7
359.179	1	2
359.521	1	12
359.863	1	-3
360.205	1	0
360.547	1	3
360.889	1	4
361.231	1	6
361.572	1	8
361.914	1	5
362.256	1	7
362.598	1	0
362.940	1	-4
363.282	1	-3
363.624	1	1
363.966	1	1
364.308	1	6
364.649	1	5
364.991	1	7
365.333	1	1
365.675	1	5
366.017	1	3
366.359	1	6
366.701	1	8
367.042	1	14
367.384	1	16
367.726	1	12
368.068	1	10
368.410	1	14
368.752	1	3
369.093	1	1
369.435	1	21
369.777	1	15
370.119	1	11
370.461	1	20
370.803	1	21
371.144	1	8
371.486	1	26
371.828	1	20
372.170	1	24
372.512	1	5
372.853	1	2
373.195	1	2
373.537	1	11
373.879	1	2
374.220	1	15
374.562	1	6
374.904	1	7
375.246	1	14
375.588	1	6
375.929	1	9
376.271	1	12
376.613	1	2
376.955	1	-2
377.296	1	15
377.638	1	4
377.980	1	6
378.321	1	-12
378.663	1	1
379.005	1	14
379.347	1	1
379.688	1	3
380.030	1	1
380.372	1	1
380.714	1	8
381.055	1	22
381.397	1	-3
381.739	1	3
382.080	1	1
382.422	1	-1
382.764	1	3
383.105	1	-2
383.447	1	-5
383.789	1	-4
384.130	1	0
384.472	1	2
384.814	1	-9
385.156	1	-1
385.497	1	2
385.839	1	1
386.180	1	2
386.522	1	10
386.864	1	1
387.205	1	7
387.547	1	-5
387.889	1	-3
388.230	1	8
388.572	1	-2
388.914	1	-3
389.255	1	-6
389.597	1	5
389.939	1	3
390.280	1	5
390.622	1	1
390.963	1	12
391.305	1	4
391.647	1	1
391.988	1	11
392.330	1	3
392.671	1	1
393.013	1	3
393.355	1	4
393.696	1	0
394.038	1	5
394.379	1	8
394.721	1	-5
395.062	1	5
395.404	1	2
395.746	1	5
396.087	1	-5
396.429	1	-5
396.770	1	2
397.112	1	9
397.453	1	9
397.795	1	0
398.136	1	-8
398.478	1	6
398.819	1	5
399.161	1	10
399.503	1	-4
399.844	1	4
400.186	1	-2
400.527	1	-2
400.869	1	7
401.210	1	17
401.552	1	-12
401.893	1	6
402.235	1	2
402.576	1	3
402.918	1	13
403.259	1	4
403.601	1	4
403.942	1	13
404.284	1	3
404.625	1	-6
404.967	1	-2
405.308	1	-5
405.649	1	0
405.991	1	-8
406.332	1	0
406.674	1	-6
407.015	1	7
407.357	1	-2
407.698	1	6
408.040	1	-6
408.381	1	-2
408.722	1	-13
409.064	1	4
409.405	1	9
409.747	1	-1
410.088	1	3
410.430	1	4
410.771	1	-1
411.112	1	-4
411.454	1	-6
411.795	1	-3
412.137	1	8
412.478	1	15
412.819	1	1
413.161	1	2
413.502	1	-1
413.844	1	9
414.185	1	11
414.526	1	-1
414.868	1	-5
415.209	1	0
415.550	1	-12
415.892	1	-7
416.233	1	0
416.575	1	13
416.916	1	-4
417.257	1	-2
417.599	1	3
417.940	1	-2
418.281	1	1
418.623	1	-1
418.964	1	-14
419.305	1	9
419.647	1	-8
419.988	1	-4
420.329	1	-6
420.671	1	1
421.012	1	4
421.353	1	-4
421.695	1	2
422.036	1	3
422.377	1	-1
422.718	1	6
423.060	1	-8
423.401	1	1
423.742	1	-1
424.084	1	2
424.425	1	6
424.766	1	-4
425.107	1	-5
425.449	1	1
425.790	1	-5
426.131	1	0
426.472	1	2
426.814	1	1
427.155	1	-8
427.496	1	1
427.837	1	-3
428.179	1	-7
428.520	1	5
428.861	1	-3
429.202	1	-4
429.544	1	-6
429.885	1	1
430.226	1	-8
430.567	1	-3
430.909	1	1
431.250	1	-7
431.591	1	10
431.932	1	-1
432.273	1	-4
432.615	1	-12
432.956	1	-9
433.297	1	5
433.638	1	0
433.979	1	10
434.320	1	1
434.662	1	-3
435.003	1	7
435.344	1	0
435.685	1	3
436.026	1	3
436.368	1	2
436.709	1	-7
437.050	1	2
437.391	1	3
437.732	1	-3
438.073	1	-3
438.414	1	-11
438.756	1	-4
439.097	1	-11
439.438	1	-6
439.779	1	-1
440.120	1	-6
440.461	1	-1
440.802	1	-6
441.143	1	8
441.485	1	10
441.826	1	4
442.167	1	6
442.508	1	-1
442.849	1	8
443.190	1	0
443.531	1	6
443.872	1	8
444.213	1	-5
444.554	1	11
444.895	1	-1
445.237	1	4
445.578	1	-6
445.919	1	-14
446.260	1	-8
446.601	1	-9
446.942	1	6
447.283	1	0
447.624	1	1
447.965	1	-4
448.306	1	5
448.647	1	-4
448.988	1	-2
449.329	1	-3
449.670	1	7
450.011	1	8
450.352	1	2
450.693	1	-2
451.034	1	-4
451.375	1	-4
451.716	1	0
452.057	1	-1
452.398	1	7
452.739	1	-4
453.080	1	-1
453.421	1	-9
453.762	1	7
454.103	1	-2
454.444	1	-9
454.785	1	-5
455.126	1	-11
455.467	1	-4
455.808	1	-5
456.149	1	5
456.490	1	3
456.831	1	-1
457.172	1	-10
457.513	1	9
457.854	1	2
458.195	1	-5
458.536	1	6
458.877	1	3
459.218	1	-1
459.559	1	-2
459.899	1	-4
460.240	1	2
460.581	1	8
460.922	1	6
461.263	1	-9
461.604	1	1
461.945	1	-3
462.286	1	-4
462.627	1	3
462.968	1	0
463.309	1	-17
463.649	1	7
463.990	1	-1
464.331	1	0
464.672	1	-1
465.013	1	-6
465.354	1	6
465.695	1	-12
466.036	1	-8
466.376	1	-1
466.717	1	3
467.058	1	-4
467.399	1	-5
467.740	1	3
468.081	1	-2
468.422	1	2
468.762	1	-17
469.103	1	-2
469.444	1	-4
469.785	1	-9
470.126	1	-11
470.467	1	-4
470.807	1	3
471.148	1	2
471.489	1	-1
471.830	1	0
472.171	1	7
472.511	1	-6
472.852	1	-3
473.193	1	7
473.534	1	9
473.875	1	10
474.215	1	11
474.556	1	5
474.897	1	10
475.238	1	1
475.578	1	-11
475.919	1	-3
476.260	1	1
476.601	1	-7
476.942	1	7
477.282	1	-4
477.623	1	-16
477.964	1	-6
478.305	1	-4
478.645	1	12
478.986	1	-8
479.327	1	-7
479.667	1	-5
480.008	1	-5
480.349	1	-4
480.690	1	0
481.030	1	-6
481.371	1	2
481.712	1	-2
482.053	1	0
482.393	1	-1
482.734	1	2
483.075	1	-4
483.415	1	-3
483.756	1	-1
484.097	1	-2
484.437	1	-10
484.778	1	8
485.119	1	-8
485.459	1	15
485.800	1	-2
486.141	1	-3
486.481	1	0
486.822	1	3
487.163	1	-6
487.503	1	-3
487.844	1	2
488.185	1	1
488.525	1	-5
488.866	1	-5
489.207	1	-8
489.547	1	-2
489.888	1	-4
490.228	1	11
490.569	1	8
490.910	1	-4
491.250	1	-5
491.591	1	-7
491.932	1	-15
492.272	1	4
492.613	1	-3
492.953	1	-2
493.294	1	-2
493.635	1	-4
493.975	1	-4
494.316	1	3
494.656	1	0
494.997	1	-5
495.337	1	3
495.678	1	-6
496.019	1	-10
496.359	1	2
496.700	1	-3
497.040	1	-4
497.381	1	6
497.721	1	2
498.062	1	-4
498.403	1	0
498.743	1	-6
499.084	1	1
499.424	1	-6
499.765	1	5
500.105	1	-7
500.446	1	-15
500.786	1	-14
501.127	1	0
501.467	1	-4
501.808	1	7
502.148	1	4
502.489	1	3
502.829	1	-8
503.170	1	9
503.510	1	-2
503.851	1	-2
504.191	1	6
504.532	1	8
504.872	1	-5
505.213	1	15
505.553	1	3
505.894	1	-11
506.234	1	9
506.575	1	-2
506.915	1	0
507.256	1	3
507.596	1	9
507.936	1	0
508.277	1	-3
508.617	1	-12
508.958	1	-3
509.298	1	2
509.639	1	3
509.979	1	2
510.319	1	5
510.660	1	-8
511.000	1	2
511.341	1	4
511.681	1	1
512.022	1	-5
512.362	1	-6
512.702	1	6
513.043	1	9
513.383	1	-8
513.724	1	11
514.064	1	11
514.404	1	-1
514.745	1	-6
515.085	1	-4
515.425	1	-2
515.766	1	-8
516.106	1	-3
516.447	1	9
516.787	1	5
517.127	1	1
517.468	1	0
517.808	1	-1
518.148	1	7
518.489	1	-2
518.829	1	4
519.169	1	-1
519.510	1	-3
519.850	1	3
520.190	1	-9
520.531	1	11
520.871	1	2
521.211	1	-15
521.552	1	3
521.892	1	1
522.232	1	0
522.573	1	7
522.913	1	17
523.253	1	5
523.593	1	-2
523.934	1	-5
524.274	1	0
524.614	1	-14
524.955	1	0
525.295	1	-1
525.635	1	-2
525.975	1	-4
526.316	1	12
526.656	1	-1
526.996	1	8
527.337	1	-3
527.677	1	4
528.017	1	-14
528.357	1	1
528.698	1	0
529.038	1	10
529.378	1	11
529.718	1	-5
530.058	1	-8
530.399	1	3
530.739	1	-2
531.079	1	0
531.419	1	3
531.760	1	0
532.100	1	-4
532.440	1	-9
532.780	1	-3
533.120	1	1
533.461	1	1
533.801	1	5
534.141	1	-3
534.481	1	-8
534.821	1	3
535.162	1	2
535.502	1	-18
535.842	1	4
536.182	1	-2
536.522	1	-5
536.862	1	4
537.203	1	-9
537.543	1	-10
537.883	1	-5
538.223	1	2
538.563	1	12
538.903	1	-4
539.243	1	-3
539.584	1	3
539.924	1	10
540.264	1	0
540.604	1	-3
540.944	1	-1
541.284	1	7
541.624	1	0
541.964	1	8
542.305	1	5
542.645	1	3
542.985	1	-5
543.325	1	2
543.665	1	2
544.005	1	9
544.345	1	5
544.685	1	-6
545.025	1	-2
545.365	1	-2
545.705	1	-2
546.045	1	-3
546.386	1	0
546.726	1	-3
547.066	1	-7
547.406	1	3
547.746	1	-17
548.086	1	3
548.426	1	-5
548.766	1	-4
549.106	1	-5
549.446	1	0
549.786	1	-5
550.126	1	8
550.466	1	5
550.806	1	3
551.146	1	-6
551.486	1	5
551.826	1	4
552.166	1	-3
552.506	1	3
552.846	1	0
553.186	1	-1
553.526	1	-11
553.866	1	-3
554.206	1	-1
554.546	1	5
554.886	1	2
555.226	1	-14
555.566	1	3
555.906	1	0
556.246	1	-4
556.586	1	-7
556.926	1	-1
557.266	1	-4
557.606	1	6
557.946	1	9
558.286	1	3
558.626	1	6
558.966	1	2
559.306	1	2
559.646	1	-4
559.986	1	-6
560.325	1	-9
560.665	1	10
561.005	1	-4
561.345	1	-6
561.685	1	-3
562.025	1	-1
562.365	1	4
562.705	1	-7
563.045	1	-6
563.385	1	-9
563.725	1	2
564.064	1	-1
564.404	1	3
564.744	1	1
565.084	1	-5
565.424	1	8
565.764	1	7
566.104	1	1
566.444	1	-7
566.783	1	-4
567.123	1	1
567.463	1	5
567.803	1	-10
568.143	1	10
568.483	1	4
568.823	1	-1
569.162	1	6
569.502	1	-4
569.842	1	4
570.182	1	-2
570.522	1	-4
570.862	1	-3
571.201	1	4
571.541	1	2
571.881	1	8
572.221	1	-5
572.561	1	5
572.900	1	-5
573.240	1	-7
573.580	1	-5
573.920	1	3
574.260	1	5
574.599	1	1
574.939	1	-2
575.279	1	5
575.619	1	16
575.959	1	-7
576.298	1	17
576.638	1	-9
576.978	1	6
577.318	1	9
577.657	1	-8
577.997	1	-11
578.337	1	4
578.677	1	9
579.016	1	11
579.356	1	-3
579.696	1	2
580.036	1	-5
580.375	1	6
580.715	1	6
581.055	1	-3
581.394	1	-4
581.734	1	-16
582.074	1	-5
582.414	1	9
582.753	1	-5
583.093	1	4
583.433	1	-5
583.772	1	3
584.112	1	4
584.452	1	9
584.791	1	1
585.131	1	5
585.471	1	3
585.811	1	3
586.150	1	-2
586.490	1	3
586.830	1	0
587.169	1	-3
587.509	1	-7
587.849	1	3
588.188	1	6
588.528	1	7
588.867	1	12
589.207	1	3
589.547	1	6
589.886	1	-13
590.226	1	7
590.566	1	-2
590.905	1	1
591.245	1	-9
591.585	1	6
591.924	1	-5
592.264	1	4
592.603	1	6
592.943	1	-1
593.283	1	1
593.622	1	0
593.962	1	1
594.301	1	8
594.641	1	-7
594.981	1	-10
595.320	1	2
595.660	1	-2
595.999	1	-3
596.339	1	0
596.678	1	-6
597.018	1	-9
597.358	1	5
597.697	1	3
598.037	1	-6
598.376	1	8
598.716	1	9
599.055	1	-1
599.395	1	-1
599.734	1	-4
600.074	1	0
600.413	1	11
600.753	1	-4
601.092	1	5
601.432	1	-9
601.771	1	2
602.111	1	0
602.451	1	8
602.790	1	2
603.130	1	1
603.469	1	-9
603.809	1	3
604.148	1	6
604.487	1	-1
604.827	1	9
605.166	1	7
605.506	1	1
605.845	1	-1
606.185	1	1
606.524	1	-3
606.864	1	-4
607.203	1	-6
607.543	1	-2
607.882	1	7
608.222	1	-2
608.561	1	-5
608.901	1	9
609.240	1	-10
609.579	1	12
609.919	1	5
610.258	1	5
610.598	1	-7
610.937	1	-1
611.277	1	0
611.616	1	-8
611.955	1	1
612.295	1	-5
612.634	1	8
612.974	1	-7
613.313	1	5
613.652	1	5
613.992	1	0
614.331	1	-4
614.671	1	2
615.010	1	-12
615.349	1	5
615.689	1	8
616.028	1	0
616.368	1	3
616.707	1	-1
617.046	1	-5
617.386	1	-1
617.725	1	-5
618.064	1	-9
618.404	1	-6
618.743	1	5
619.082	1	7
619.422	1	-1
619.761	1	-6
620.100	1	4
620.440	1	-2
620.779	1	-6
621.118	1	6
621.458	1	-2
621.797	1	1
622.136	1	8
622.476	1	4
622.815	1	5
623.154	1	-7
623.494	1	12
623.833	1	-7
624.172	1	0
624.511	1	-4
624.851	1	-7
625.190	1	6
625.529	1	-5
625.869	1	1
626.208	1	1
626.547	1	-5
626.886	1	3
627.226	1	2
627.565	1	-6
627.904	1	-7
628.243	1	7
628.583	1	-4
628.922	1	-2
629.261	1	1
629.600	1	4
629.940	1	1
630.279	1	-8
630.618	1	3
630.957	1	0
631.297	1	0
631.636	1	-9
631.975	1	16
632.314	1	-2
632.653	1	-1
632.993	1	-5
633.332	1	-3
633.671	1	-6
634.010	1	-12
634.349	1	5
634.689	1	5
635.028	1	1
635.367	1	1
635.706	1	-4
636.045	1	8
636.384	1	-8
636.724	1	2
637.063	1	-2
637.402	1	1
637.741	1	-3
638.080	1	-5
638.419	1	-12
638.759	1	-7
639.098	1	5
639.437	1	3
639.776	1	1
640.115	1	0
640.454	1	-6
640.793	1	18
641.132	1	1
641.472	1	9
641.811	1	-2
642.150	1	-4
642.489	1	7
642.828	1	-1
643.167	1	-3
643.506	1	-13
643.845	1	2
644.184	1	1
644.524	1	-5
644.863	1	-13
645.202	1	-1
645.541	1	1
645.880	1	-1
646.219	1	0
646.558	1	-2
646.897	1	-2
647.236	1	1
647.575	1	1
647.914	1	-11
648.253	1	7
648.592	1	-7
648.931	1	15
649.270	1	-6
649.610	1	-1
649.949	1	-4
650.288	1	9
650.627	1	-7
650.966	1	4
651.305	1	-1
651.644	1	6
651.983	1	-2
652.322	1	-4
652.661	1	3
653.000	1	5
653.339	1	7
653.678	1	1
654.017	1	-6
654.356	1	-8
654.695	1	6
655.034	1	-2
655.373	1	16
655.712	1	-4
656.051	1	3
656.390	1	1
656.729	1	7
657.068	1	-2
657.406	1	5
657.745	1	1
658.084	1	13
658.423	1	11
658.762	1	-5
659.101	1	2
659.440	1	-4
659.779	1	-6
660.118	1	-7
660.457	1	-2
660.796	1	-7
661.135	1	-6
661.474	1	-2
661.813	1	11
662.152	1	4
662.491	1	-3
662.829	1	-1
663.168	1	3
663.507	1	1
663.846	1	-2
664.185	1	1
664.524	1	-4
664.863	1	2
665.202	1	6
665.541	1	-7
665.879	1	5
666.218	1	-11
666.557	1	0
666.896	1	-9
667.235	1	8
667.574	1	0
667.913	1	4
668.251	1	-2
668.590	1	1
668.929	1	-2
669.268	1	-1
669.607	1	1
669.946	1	-2
670.285	1	7
670.623	1	-4
670.962	1	1
671.301	1	-7
671.640	1	-8
671.979	1	-4
672.317	1	12
672.656	1	-2
672.995	1	8
673.334	1	-12
673.673	1	-8
674.011	1	5
674.350	1	-9
674.689	1	-2
675.028	1	0
675.367	1	4
675.705	1	5
676.044	1	0
676.383	1	5
676.722	1	-5
677.060	1	-7
677.399	1	-12
677.738	1	7
678.077	1	-4
678.416	1	3
678.754	1	-3
679.093	1	-4
679.432	1	-3
679.771	1	1
680.109	1	8
680.448	1	-2
680.787	1	-7
681.125	1	7
681.464	1	4
681.803	1	-1
682.142	1	8
682.480	1	2
682.819	1	2
683.158	1	-7
683.496	1	8
683.835	1	-1
684.174	1	-2
684.512	1	7
684.851	1	1
685.190	1	4
685.529	1	3
685.867	1	-4
686.206	1	-11
686.545	1	-8
686.883	1	1
687.222	1	6
687.561	1	8
687.899	1	-2
688.238	1	9
688.577	1	-3
688.746	1	-2