File: Data/GaN_200K_800ms/GaN_sample F_spot 12_UVVIS_200 K_200um_800 ms 2x2mm1_152.txt
340.368	1	4
340.710	1	-2
341.052	1	7
341.394	1	1
341.737	1	1
342.079	1	-1
342.421	1	-6
342.763	1	7
343.105	1	10
343.447	1	-2
343.789	1	-2
344.131	1	3
344.473	1	-9
344.815	1	-1
345.157	1	1
345.499	1	2
345.841	1	21
346.183	1	3
346.526	1	-8
346.868	1	0
347.210	1	-9
347.552	1	-5
347.894	1	6
348.236	1	4
348.578	1	2
348.920	1	-6
349.262	1	-3
349.604	1	9
349.946	1	-1
350.288	1	16
350.630	1	8
350.972	1	4
351.314	1	4
351.656	1	8
351.998	1	11
352.340	1	15
352.682	1	2
353.024	1	8
353.366	1	10
353.708	1	1
354.050	1	-1
354.392	1	-4
354.734	1	13
355.076	1	0
355.418	1	-4
355.760	1	2
356.102	1	12
356.444	1	8
356.785	1	6
357.127	1	7
357.469	1	6
357.811	1	-1
358.153	1	22
358.495	1	9
358.837	1	-2
359.179	1	3
359.521	1	13
359.863	1	0
360.205	1	0
360.547	1	14
360.889	1	3
361.231	1	5
361.572	1	16
361.914	1	12
362.256	1	15
362.598	1	5
362.940	1	6
363.282	1	19
363.624	1	23
363.966	1	17
364.308	1	12
364.649	1	29
364.991	1	27
365.333	1	28
365.675	1	20
366.017	1	28
366.359	1	35
366.701	1	39
367.042	1	36
367.384	1	50
367.726	1	40
368.068	1	40
368.410	1	57
368.752	1	41
369.093	1	48
369.435	1	51
369.777	1	44
370.119	1	50
370.461	1	63
370.803	1	53
371.144	1	45
371.486	1	55
371.828	1	47
372.170	1	46
372.512	1	43
372.853	1	36
373.195	1	39
373.537	1	35
373.879	1	26
374.220	1	50
374.562	1	49
374.904	1	28
375.246	1	27
375.588	1	30
375.929	1	29
376.271	1	29
376.613	1	25
376.955	1	16
377.296	1	35
377.638	1	29
377.980	1	22
378.321	1	21
378.663	1	18
379.005	1	23
379.347	1	18
379.688	1	31
380.030	1	6
380.372	1	13
380.714	1	14
381.055	1	25
381.397	1	9
381.739	1	16
382.080	1	13
382.422	1	19
382.764	1	16
383.105	1	12
383.447	1	11
383.789	1	6
384.130	1	7
384.472	1	4
384.814	1	15
385.156	1	11
385.497	1	16
385.839	1	5
386.180	1	8
386.522	1	11
386.864	1	14
387.205	1	0
387.547	1	4
387.889	1	7
388.230	1	21
388.572	1	7
388.914	1	8
389.255	1	6
389.597	1	9
389.939	1	7
390.280	1	-1
390.622	1	-5
390.963	1	17
391.305	1	8
391.647	1	-3
391.988	1	3
392.330	1	10
392.671	1	-1
393.013	1	0
393.355	1	12
393.696	1	11
394.038	1	7
394.379	1	6
394.721	1	3
395.062	1	12
395.404	1	3
395.746	1	9
396.087	1	-1
396.429	1	5
396.770	1	2
397.112	1	14
397.453	1	9
397.795	1	3
398.136	1	-4
398.478	1	11
398.819	1	2
399.161	1	12
399.503	1	4
399.844	1	-3
400.186	1	4
400.527	1	1
400.869	1	6
401.210	1	2
401.552	1	-1
401.893	1	7
402.235	1	1
402.576	1	4
402.918	1	12
403.259	1	6
403.601	1	1
403.942	1	7
404.284	1	8
404.625	1	12
404.967	1	0
405.308	1	6
405.649	1	-1
405.991	1	5
406.332	1	3
406.674	1	-2
407.015	1	8
407.357	1	1
407.698	1	7
408.040	1	-1
408.381	1	12
408.722	1	-3
409.064	1	0
409.405	1	7
409.747	1	1
410.088	1	6
410.430	1	1
410.771	1	8
411.112	1	-3
411.454	1	-10
411.795	1	-5
412.137	1	3
412.478	1	5
412.819	1	-1
413.161	1	-4
413.502	1	-2
413.844	1	6
414.185	1	4
414.526	1	6
414.868	1	5
415.209	1	4
415.550	1	-1
415.892	1	1
416.233	1	12
416.575	1	15
416.916	1	-5
417.257	1	2
417.599	1	-2
417.940	1	1
418.281	1	3
418.623	1	0
418.964	1	0
419.305	1	3
419.647	1	-5
419.988	1	-5
420.329	1	-11
420.671	1	-5
421.012	1	4
421.353	1	-4
421.695	1	-6
422.036	1	-3
422.377	1	0
422.718	1	7
423.060	1	-4
423.401	1	0
423.742	1	1
424.084	1	-1
424.425	1	4
424.766	1	-4
425.107	1	1
425.449	1	7
425.790	1	-4
426.131	1	3
426.472	1	-2
426.814	1	8
427.155	1	-12
427.496	1	-2
427.837	1	1
428.179	1	3
428.520	1	1
428.861	1	0
429.202	1	3
429.544	1	-1
429.885	1	-3
430.226	1	-14
430.567	1	5
430.909	1	5
431.250	1	-3
431.591	1	7
431.932	1	-5
432.273	1	5
432.615	1	-2
432.956	1	-7
433.297	1	-4
433.638	1	-3
433.979	1	8
434.320	1	6
434.662	1	6
435.003	1	5
435.344	1	4
435.685	1	3
436.026	1	15
436.368	1	9
436.709	1	0
437.050	1	-8
437.391	1	5
437.732	1	-5
438.073	1	4
438.414	1	-7
438.756	1	-3
439.097	1	-7
439.438	1	-5
439.779	1	2
440.120	1	2
440.461	1	6
440.802	1	-12
441.143	1	6
441.485	1	4
441.826	1	-2
442.167	1	4
442.508	1	-9
442.849	1	0
443.190	1	1
443.531	1	7
443.872	1	8
444.213	1	5
444.554	1	15
444.895	1	-6
445.237	1	-4
445.578	1	-11
445.919	1	-13
446.260	1	-1
446.601	1	-2
446.942	1	1
447.283	1	-3
447.624	1	4
447.965	1	2
448.306	1	-1
448.647	1	-3
448.988	1	0
449.329	1	3
449.670	1	11
450.011	1	9
450.352	1	0
450.693	1	6
451.034	1	1
451.375	1	3
451.716	1	0
452.057	1	10
452.398	1	-4
452.739	1	2
453.080	1	8
453.421	1	-12
453.762	1	0
454.103	1	1
454.444	1	-9
454.785	1	-5
455.126	1	-9
455.467	1	4
455.808	1	1
456.149	1	7
456.490	1	-3
456.831	1	10
457.172	1	-10
457.513	1	9
457.854	1	4
458.195	1	-6
458.536	1	9
458.877	1	1
459.218	1	-3
459.559	1	6
459.899	1	-2
460.240	1	7
460.581	1	18
460.922	1	1
461.263	1	-10
461.604	1	-2
461.945	1	3
462.286	1	0
462.627	1	12
462.968	1	3
463.309	1	-6
463.649	1	-2
463.990	1	-6
464.331	1	3
464.672	1	6
465.013	1	2
465.354	1	-4
465.695	1	-4
466.036	1	-5
466.376	1	-9
466.717	1	0
467.058	1	2
467.399	1	11
467.740	1	8
468.081	1	8
468.422	1	-5
468.762	1	-5
469.103	1	-5
469.444	1	-8
469.785	1	-3
470.126	1	-14
470.467	1	0
470.807	1	1
471.148	1	0
471.489	1	3
471.830	1	1
472.171	1	11
472.511	1	-3
472.852	1	1
473.193	1	7
473.534	1	10
473.875	1	14
474.215	1	8
474.556	1	2
474.897	1	1
475.238	1	-5
475.578	1	-13
475.919	1	2
476.260	1	5
476.601	1	6
476.942	1	-2
477.282	1	6
477.623	1	-5
477.964	1	0
478.305	1	8
478.645	1	4
478.986	1	-3
479.327	1	-11
479.667	1	3
480.008	1	-5
480.349	1	-5
480.690	1	1
481.030	1	-5
481.371	1	8
481.712	1	-4
482.053	1	12
482.393	1	0
482.734	1	-4
483.075	1	-4
483.415	1	4
483.756	1	9
484.097	1	0
484.437	1	-6
484.778	1	7
485.119	1	-4
485.459	1	21
485.800	1	-2
486.141	1	1
486.481	1	3
486.822	1	-1
487.163	1	-1
487.503	1	4
487.844	1	-1
488.185	1	3
488.525	1	-5
488.866	1	1
489.207	1	2
489.547	1	-6
489.888	1	2
490.228	1	0
490.569	1	20
490.910	1	2
491.250	1	-4
491.591	1	-5
491.932	1	7
492.272	1	3
492.613	1	5
492.953	1	-4
493.294	1	2
493.635	1	-1
493.975	1	-9
494.316	1	2
494.656	1	-1
494.997	1	3
495.337	1	18
495.678	1	8
496.019	1	5
496.359	1	-9
496.700	1	2
497.040	1	3
497.381	1	-2
497.721	1	-2
498.062	1	4
498.403	1	5
498.743	1	1
499.084	1	2
499.424	1	-1
499.765	1	8
500.105	1	-1
500.446	1	-3
500.786	1	-2
501.127	1	3
501.467	1	-1
501.808	1	3
502.148	1	12
502.489	1	5
502.829	1	0
503.170	1	7
503.510	1	8
503.851	1	3
504.191	1	12
504.532	1	0
504.872	1	1
505.213	1	7
505.553	1	-2
505.894	1	2
506.234	1	8
506.575	1	6
506.915	1	13
507.256	1	8
507.596	1	0
507.936	1	1
508.277	1	2
508.617	1	4
508.958	1	2
509.298	1	2
509.639	1	-6
509.979	1	2
510.319	1	10
510.660	1	2
511.000	1	1
511.341	1	-2
511.681	1	6
512.022	1	-1
512.362	1	4
512.702	1	-3
513.043	1	10
513.383	1	-7
513.724	1	2
514.064	1	6
514.404	1	-2
514.745	1	-2
515.085	1	11
515.425	1	-6
515.766	1	5
516.106	1	6
516.447	1	16
516.787	1	6
517.127	1	2
517.468	1	8
517.808	1	1
518.148	1	1
518.489	1	6
518.829	1	16
519.169	1	1
519.510	1	11
519.850	1	8
520.190	1	1
520.531	1	9
520.871	1	14
521.211	1	-6
521.552	1	12
521.892	1	7
522.232	1	10
522.573	1	3
522.913	1	6
523.253	1	7
523.593	1	-2
523.934	1	3
524.274	1	7
524.614	1	0
524.955	1	8
525.295	1	11
525.635	1	-2
525.975	1	8
526.316	1	9
526.656	1	8
526.996	1	12
527.337	1	-1
527.677	1	15
528.017	1	-1
528.357	1	11
528.698	1	2
529.038	1	7
529.378	1	3
529.718	1	14
530.058	1	1
530.399	1	11
530.739	1	12
531.079	1	5
531.419	1	6
531.760	1	26
532.100	1	5
532.440	1	0
532.780	1	0
533.120	1	24
533.461	1	11
533.801	1	10
534.141	1	-11
534.481	1	4
534.821	1	9
535.162	1	5
535.502	1	-5
535.842	1	11
536.182	1	1
536.522	1	6
536.862	1	12
537.203	1	-9
537.543	1	0
537.883	1	6
538.223	1	11
538.563	1	13
538.903	1	-3
539.243	1	2
539.584	1	1
539.924	1	18
540.264	1	5
540.604	1	5
540.944	1	1
541.284	1	8
541.624	1	7
541.964	1	15
542.305	1	7
542.645	1	6
542.985	1	8
543.325	1	10
543.665	1	7
544.005	1	12
544.345	1	9
544.685	1	9
545.025	1	1
545.365	1	3
545.705	1	8
546.045	1	4
546.386	1	8
546.726	1	1
547.066	1	7
547.406	1	9
547.746	1	-3
548.086	1	9
548.426	1	9
548.766	1	8
549.106	1	3
549.446	1	-4
549.786	1	5
550.126	1	15
550.466	1	15
550.806	1	4
551.146	1	2
551.486	1	5
551.826	1	13
552.166	1	5
552.506	1	14
552.846	1	12
553.186	1	10
553.526	1	5
553.866	1	5
554.206	1	11
554.546	1	10
554.886	1	7
555.226	1	3
555.566	1	11
555.906	1	11
556.246	1	3
556.586	1	11
556.926	1	13
557.266	1	3
557.606	1	4
557.946	1	23
558.286	1	10
558.626	1	5
558.966	1	9
559.306	1	-1
559.646	1	4
559.986	1	-6
560.325	1	5
560.665	1	8
561.005	1	7
561.345	1	5
561.685	1	10
562.025	1	0
562.365	1	8
562.705	1	5
563.045	1	-3
563.385	1	-4
563.725	1	2
564.064	1	8
564.404	1	14
564.744	1	14
565.084	1	2
565.424	1	9
565.764	1	6
566.104	1	8
566.444	1	1
566.783	1	0
567.123	1	0
567.463	1	7
567.803	1	8
568.143	1	-2
568.483	1	15
568.823	1	13
569.162	1	14
569.502	1	2
569.842	1	11
570.182	1	12
570.522	1	3
570.862	1	10
571.201	1	12
571.541	1	7
571.881	1	20
572.221	1	6
572.561	1	-5
572.900	1	-2
573.240	1	10
573.580	1	7
573.920	1	6
574.260	1	18
574.599	1	9
574.939	1	6
575.279	1	17
575.619	1	18
575.959	1	-5
576.298	1	21
576.638	1	0
576.978	1	14
577.318	1	6
577.657	1	4
577.997	1	6
578.337	1	24
578.677	1	10
579.016	1	15
579.356	1	4
579.696	1	7
580.036	1	7
580.375	1	15
580.715	1	8
581.055	1	5
581.394	1	-5
581.734	1	-4
582.074	1	-3
582.414	1	20
582.753	1	2
583.093	1	12
583.433	1	12
583.772	1	12
584.112	1	7
584.452	1	4
584.791	1	6
585.131	1	10
585.471	1	13
585.811	1	6
586.150	1	5
586.490	1	7
586.830	1	3
587.169	1	14
587.509	1	3
587.849	1	11
588.188	1	14
588.528	1	9
588.867	1	8
589.207	1	8
589.547	1	7
589.886	1	0
590.226	1	13
590.566	1	2
590.905	1	4
591.245	1	-3
591.585	1	13
591.924	1	2
592.264	1	6
592.603	1	5
592.943	1	11
593.283	1	1
593.622	1	12
593.962	1	8
594.301	1	16
594.641	1	-4
594.981	1	5
595.320	1	3
595.660	1	9
595.999	1	-1
596.339	1	9
596.678	1	-6
597.018	1	-4
597.358	1	3
597.697	1	5
598.037	1	4
598.376	1	6
598.716	1	14
599.055	1	12
599.395	1	6
599.734	1	4
600.074	1	9
600.413	1	11
600.753	1	7
601.092	1	9
601.432	1	4
601.771	1	9
602.111	1	3
602.451	1	14
602.790	1	5
603.130	1	11
603.469	1	-8
603.809	1	7
604.148	1	6
604.487	1	3
604.827	1	7
605.166	1	9
605.506	1	3
605.845	1	21
606.185	1	13
606.524	1	0
606.864	1	11
607.203	1	0
607.543	1	-2
607.882	1	10
608.222	1	10
608.561	1	8
608.901	1	12
609.240	1	-4
609.579	1	14
609.919	1	11
610.258	1	15
610.598	1	1
610.937	1	1
611.277	1	7
611.616	1	11
611.955	1	-1
612.295	1	-1
612.634	1	5
612.974	1	-1
613.313	1	12
613.652	1	13
613.992	1	9
614.331	1	-1
614.671	1	9
615.010	1	3
615.349	1	12
615.689	1	12
616.028	1	5
616.368	1	16
616.707	1	6
617.046	1	3
617.386	1	11
617.725	1	-3
618.064	1	1
618.404	1	-2
618.743	1	13
619.082	1	1
619.422	1	-4
619.761	1	1
620.100	1	20
620.440	1	5
620.779	1	-3
621.118	1	8
621.458	1	2
621.797	1	7
622.136	1	23
622.476	1	11
622.815	1	10
623.154	1	8
623.494	1	6
623.833	1	5
624.172	1	-8
624.511	1	-1
624.851	1	-6
625.190	1	-2
625.529	1	7
625.869	1	13
626.208	1	3
626.547	1	-5
626.886	1	16
627.226	1	5
627.565	1	2
627.904	1	-8
628.243	1	7
628.583	1	7
628.922	1	-3
629.261	1	5
629.600	1	11
629.940	1	4
630.279	1	0
630.618	1	2
630.957	1	4
631.297	1	-1
631.636	1	-6
631.975	1	10
632.314	1	6
632.653	1	1
632.993	1	2
633.332	1	12
633.671	1	-5
634.010	1	-1
634.349	1	11
634.689	1	10
635.028	1	10
635.367	1	4
635.706	1	4
636.045	1	16
636.384	1	3
636.724	1	-1
637.063	1	-3
637.402	1	8
637.741	1	1
638.080	1	-2
638.419	1	-1
638.759	1	-1
639.098	1	2
639.437	1	12
639.776	1	8
640.115	1	9
640.454	1	-6
640.793	1	5
641.132	1	15
641.472	1	17
641.811	1	2
642.150	1	-4
642.489	1	10
642.828	1	5
643.167	1	8
643.506	1	6
643.845	1	-4
644.184	1	-1
644.524	1	3
644.863	1	-3
645.202	1	3
645.541	1	2
645.880	1	3
646.219	1	5
646.558	1	5
646.897	1	5
647.236	1	4
647.575	1	3
647.914	1	-2
648.253	1	9
648.592	1	2
648.931	1	13
649.270	1	3
649.610	1	9
649.949	1	9
650.288	1	15
650.627	1	10
650.966	1	5
651.305	1	2
651.644	1	21
651.983	1	4
652.322	1	0
652.661	1	1
653.000	1	5
653.339	1	3
653.678	1	1
654.017	1	5
654.356	1	6
654.695	1	6
655.034	1	3
655.373	1	8
655.712	1	8
656.051	1	4
656.390	1	3
656.729	1	13
657.068	1	5
657.406	1	7
657.745	1	-6
658.084	1	0
658.423	1	9
658.762	1	2
659.101	1	15
659.440	1	-4
659.779	1	7
660.118	1	1
660.457	1	0
660.796	1	-13
661.135	1	5
661.474	1	0
661.813	1	14
662.152	1	4
662.491	1	1
662.829	1	-6
663.168	1	5
663.507	1	13
663.846	1	-1
664.185	1	7
664.524	1	3
664.863	1	2
665.202	1	-3
665.541	1	-7
665.879	1	-2
666.218	1	-11
666.557	1	5
666.896	1	5
667.235	1	7
667.574	1	4
667.913	1	6
668.251	1	3
668.590	1	1
668.929	1	-7
669.268	1	6
669.607	1	3
669.946	1	6
670.285	1	12
670.623	1	1
670.962	1	4
671.301	1	7
671.640	1	10
671.979	1	-5
672.317	1	8
672.656	1	1
672.995	1	4
673.334	1	-5
673.673	1	12
674.011	1	4
674.350	1	0
674.689	1	4
675.028	1	3
675.367	1	7
675.705	1	8
676.044	1	5
676.383	1	2
676.722	1	5
677.060	1	-1
677.399	1	4
677.738	1	3
678.077	1	9
678.416	1	4
678.754	1	-1
679.093	1	4
679.432	1	-1
679.771	1	2
680.109	1	19
680.448	1	7
680.787	1	6
681.125	1	1
681.464	1	-4
681.803	1	0
682.142	1	3
682.480	1	15
682.819	1	2
683.158	1	-4
683.496	1	0
683.835	1	-1
684.174	1	4
684.512	1	17
684.851	1	11
685.190	1	2
685.529	1	-3
685.867	1	5
686.206	1	-8
686.545	1	1
686.883	1	-3
687.222	1	11
687.561	1	6
687.899	1	7
688.238	1	5
688.577	1	0
688.746	1	-5