File: Data/GaN_200K_800ms/GaN_sample F_spot 12_UVVIS_200 K_200um_800 ms 2x2mm1_50.txt
340.368	1	9
340.710	1	-2
341.052	1	17
341.394	1	1
341.737	1	9
342.079	1	1
342.421	1	4
342.763	1	14
343.105	1	5
343.447	1	0
343.789	1	8
344.131	1	2
344.473	1	-1
344.815	1	6
345.157	1	5
345.499	1	7
345.841	1	15
346.183	1	3
346.526	1	-4
346.868	1	13
347.210	1	7
347.552	1	6
347.894	1	10
348.236	1	8
348.578	1	11
348.920	1	11
349.262	1	3
349.604	1	7
349.946	1	4
350.288	1	23
350.630	1	15
350.972	1	13
351.314	1	16
351.656	1	19
351.998	1	14
352.340	1	7
352.682	1	12
353.024	1	15
353.366	1	24
353.708	1	21
354.050	1	4
354.392	1	10
354.734	1	16
355.076	1	22
355.418	1	19
355.760	1	18
356.102	1	40
356.444	1	19
356.785	1	35
357.127	1	30
357.469	1	21
357.811	1	36
358.153	1	43
358.495	1	39
358.837	1	40
359.179	1	48
359.521	1	58
359.863	1	48
360.205	1	54
360.547	1	63
360.889	1	61
361.231	1	78
361.572	1	87
361.914	1	89
362.256	1	101
362.598	1	99
362.940	1	120
363.282	1	146
363.624	1	161
363.966	1	171
364.308	1	186
364.649	1	205
364.991	1	231
365.333	1	245
365.675	1	260
366.017	1	285
366.359	1	318
366.701	1	342
367.042	1	373
367.384	1	397
367.726	1	426
368.068	1	445
368.410	1	478
368.752	1	474
369.093	1	499
369.435	1	513
369.777	1	501
370.119	1	512
370.461	1	523
370.803	1	489
371.144	1	463
371.486	1	456
371.828	1	433
372.170	1	422
372.512	1	397
372.853	1	377
373.195	1	352
373.537	1	325
373.879	1	319
374.220	1	302
374.562	1	301
374.904	1	274
375.246	1	266
375.588	1	261
375.929	1	235
376.271	1	221
376.613	1	210
376.955	1	185
377.296	1	190
377.638	1	182
377.980	1	165
378.321	1	151
378.663	1	147
379.005	1	137
379.347	1	131
379.688	1	131
380.030	1	118
380.372	1	120
380.714	1	125
381.055	1	109
381.397	1	94
381.739	1	96
382.080	1	103
382.422	1	85
382.764	1	70
383.105	1	86
383.447	1	81
383.789	1	75
384.130	1	78
384.472	1	71
384.814	1	70
385.156	1	61
385.497	1	75
385.839	1	75
386.180	1	60
386.522	1	71
386.864	1	55
387.205	1	54
387.547	1	55
387.889	1	39
388.230	1	65
388.572	1	39
388.914	1	51
389.255	1	26
389.597	1	41
389.939	1	41
390.280	1	40
390.622	1	28
390.963	1	49
391.305	1	38
391.647	1	38
391.988	1	35
392.330	1	43
392.671	1	34
393.013	1	29
393.355	1	40
393.696	1	33
394.038	1	27
394.379	1	26
394.721	1	20
395.062	1	34
395.404	1	25
395.746	1	33
396.087	1	30
396.429	1	34
396.770	1	21
397.112	1	36
397.453	1	23
397.795	1	25
398.136	1	12
398.478	1	23
398.819	1	33
399.161	1	35
399.503	1	20
399.844	1	13
400.186	1	25
400.527	1	14
400.869	1	16
401.210	1	17
401.552	1	-1
401.893	1	9
402.235	1	11
402.576	1	16
402.918	1	26
403.259	1	25
403.601	1	10
403.942	1	26
404.284	1	21
404.625	1	14
404.967	1	14
405.308	1	10
405.649	1	10
405.991	1	9
406.332	1	14
406.674	1	9
407.015	1	14
407.357	1	7
407.698	1	21
408.040	1	7
408.381	1	11
408.722	1	-9
409.064	1	12
409.405	1	17
409.747	1	4
410.088	1	11
410.430	1	10
410.771	1	16
411.112	1	2
411.454	1	-3
411.795	1	2
412.137	1	10
412.478	1	24
412.819	1	5
413.161	1	7
413.502	1	2
413.844	1	11
414.185	1	7
414.526	1	11
414.868	1	8
415.209	1	0
415.550	1	6
415.892	1	10
416.233	1	13
416.575	1	19
416.916	1	0
417.257	1	12
417.599	1	11
417.940	1	15
418.281	1	11
418.623	1	7
418.964	1	-5
419.305	1	10
419.647	1	7
419.988	1	6
420.329	1	2
420.671	1	15
421.012	1	11
421.353	1	1
421.695	1	5
422.036	1	0
422.377	1	1
422.718	1	15
423.060	1	-3
423.401	1	8
423.742	1	6
424.084	1	5
424.425	1	13
424.766	1	2
425.107	1	0
425.449	1	2
425.790	1	0
426.131	1	7
426.472	1	2
426.814	1	20
427.155	1	4
427.496	1	2
427.837	1	-1
428.179	1	-2
428.520	1	9
428.861	1	6
429.202	1	7
429.544	1	4
429.885	1	-1
430.226	1	0
430.567	1	9
430.909	1	5
431.250	1	-2
431.591	1	11
431.932	1	0
432.273	1	-3
432.615	1	-7
432.956	1	-4
433.297	1	3
433.638	1	5
433.979	1	9
434.320	1	13
434.662	1	5
435.003	1	5
435.344	1	16
435.685	1	1
436.026	1	6
436.368	1	6
436.709	1	4
437.050	1	-1
437.391	1	2
437.732	1	-3
438.073	1	3
438.414	1	8
438.756	1	-2
439.097	1	-6
439.438	1	4
439.779	1	2
440.120	1	4
440.461	1	8
440.802	1	11
441.143	1	19
441.485	1	7
441.826	1	12
442.167	1	18
442.508	1	3
442.849	1	13
443.190	1	12
443.531	1	9
443.872	1	16
444.213	1	-1
444.554	1	15
444.895	1	-3
445.237	1	-2
445.578	1	1
445.919	1	-4
446.260	1	5
446.601	1	3
446.942	1	12
447.283	1	3
447.624	1	1
447.965	1	2
448.306	1	6
448.647	1	-1
448.988	1	6
449.329	1	-3
449.670	1	3
450.011	1	5
450.352	1	1
450.693	1	4
451.034	1	-2
451.375	1	4
451.716	1	3
452.057	1	12
452.398	1	2
452.739	1	14
453.080	1	4
453.421	1	-3
453.762	1	6
454.103	1	1
454.444	1	-2
454.785	1	3
455.126	1	3
455.467	1	2
455.808	1	3
456.149	1	11
456.490	1	8
456.831	1	17
457.172	1	6
457.513	1	17
457.854	1	-1
458.195	1	-1
458.536	1	-4
458.877	1	3
459.218	1	10
459.559	1	14
459.899	1	8
460.240	1	4
460.581	1	21
460.922	1	9
461.263	1	4
461.604	1	-2
461.945	1	5
462.286	1	2
462.627	1	9
462.968	1	-3
463.309	1	-2
463.649	1	4
463.990	1	5
464.331	1	5
464.672	1	7
465.013	1	-9
465.354	1	9
465.695	1	-2
466.036	1	-4
466.376	1	1
466.717	1	5
467.058	1	5
467.399	1	14
467.740	1	4
468.081	1	-1
468.422	1	0
468.762	1	1
469.103	1	-1
469.444	1	2
469.785	1	-7
470.126	1	-1
470.467	1	2
470.807	1	12
471.148	1	11
471.489	1	12
471.830	1	4
472.171	1	5
472.511	1	0
472.852	1	4
473.193	1	13
473.534	1	3
473.875	1	16
474.215	1	9
474.556	1	0
474.897	1	13
475.238	1	0
475.578	1	1
475.919	1	9
476.260	1	6
476.601	1	16
476.942	1	12
477.282	1	5
477.623	1	-1
477.964	1	8
478.305	1	7
478.645	1	17
478.986	1	-1
479.327	1	0
479.667	1	3
480.008	1	7
480.349	1	6
480.690	1	9
481.030	1	3
481.371	1	5
481.712	1	10
482.053	1	13
482.393	1	3
482.734	1	-10
483.075	1	8
483.415	1	10
483.756	1	14
484.097	1	7
484.437	1	1
484.778	1	14
485.119	1	5
485.459	1	21
485.800	1	9
486.141	1	9
486.481	1	11
486.822	1	14
487.163	1	6
487.503	1	9
487.844	1	8
488.185	1	12
488.525	1	7
488.866	1	7
489.207	1	4
489.547	1	20
489.888	1	8
490.228	1	11
490.569	1	16
490.910	1	11
491.250	1	22
491.591	1	3
491.932	1	14
492.272	1	17
492.613	1	9
492.953	1	4
493.294	1	13
493.635	1	12
493.975	1	5
494.316	1	8
494.656	1	15
494.997	1	5
495.337	1	21
495.678	1	11
496.019	1	12
496.359	1	12
496.700	1	9
497.040	1	17
497.381	1	14
497.721	1	13
498.062	1	5
498.403	1	18
498.743	1	20
499.084	1	13
499.424	1	18
499.765	1	10
500.105	1	6
500.446	1	6
500.786	1	7
501.127	1	15
501.467	1	14
501.808	1	20
502.148	1	10
502.489	1	20
502.829	1	23
503.170	1	25
503.510	1	19
503.851	1	17
504.191	1	25
504.532	1	26
504.872	1	18
505.213	1	16
505.553	1	13
505.894	1	12
506.234	1	27
506.575	1	22
506.915	1	25
507.256	1	24
507.596	1	25
507.936	1	18
508.277	1	14
508.617	1	29
508.958	1	11
509.298	1	16
509.639	1	16
509.979	1	26
510.319	1	22
510.660	1	13
511.000	1	15
511.341	1	26
511.681	1	36
512.022	1	12
512.362	1	10
512.702	1	14
513.043	1	26
513.383	1	21
513.724	1	22
514.064	1	37
514.404	1	30
514.745	1	17
515.085	1	26
515.425	1	28
515.766	1	16
516.106	1	27
516.447	1	31
516.787	1	18
517.127	1	28
517.468	1	19
517.808	1	16
518.148	1	29
518.489	1	20
518.829	1	37
519.169	1	27
519.510	1	32
519.850	1	32
520.190	1	26
520.531	1	26
520.871	1	28
521.211	1	28
521.552	1	33
521.892	1	35
522.232	1	40
522.573	1	33
522.913	1	31
523.253	1	33
523.593	1	38
523.934	1	35
524.274	1	29
524.614	1	21
524.955	1	28
525.295	1	36
525.635	1	37
525.975	1	28
526.316	1	45
526.656	1	32
526.996	1	39
527.337	1	32
527.677	1	42
528.017	1	26
528.357	1	35
528.698	1	44
529.038	1	39
529.378	1	43
529.718	1	38
530.058	1	38
530.399	1	41
530.739	1	37
531.079	1	47
531.419	1	47
531.760	1	34
532.100	1	40
532.440	1	35
532.780	1	38
533.120	1	46
533.461	1	39
533.801	1	59
534.141	1	30
534.481	1	39
534.821	1	40
535.162	1	40
535.502	1	36
535.842	1	46
536.182	1	37
536.522	1	34
536.862	1	47
537.203	1	31
537.543	1	38
537.883	1	34
538.223	1	36
538.563	1	37
538.903	1	37
539.243	1	30
539.584	1	29
539.924	1	49
540.264	1	36
540.604	1	42
540.944	1	31
541.284	1	40
541.624	1	40
541.964	1	44
542.305	1	39
542.645	1	38
542.985	1	39
543.325	1	39
543.665	1	40
544.005	1	39
544.345	1	38
544.685	1	44
545.025	1	40
545.365	1	46
545.705	1	31
546.045	1	23
546.386	1	53
546.726	1	36
547.066	1	38
547.406	1	44
547.746	1	32
548.086	1	47
548.426	1	36
548.766	1	42
549.106	1	34
549.446	1	43
549.786	1	43
550.126	1	64
550.466	1	40
550.806	1	39
551.146	1	50
551.486	1	43
551.826	1	51
552.166	1	50
552.506	1	51
552.846	1	45
553.186	1	44
553.526	1	46
553.866	1	47
554.206	1	47
554.546	1	47
554.886	1	39
555.226	1	33
555.566	1	46
555.906	1	42
556.246	1	42
556.586	1	43
556.926	1	43
557.266	1	33
557.606	1	47
557.946	1	44
558.286	1	46
558.626	1	39
558.966	1	42
559.306	1	36
559.646	1	37
559.986	1	34
560.325	1	34
560.665	1	46
561.005	1	39
561.345	1	44
561.685	1	40
562.025	1	36
562.365	1	37
562.705	1	36
563.045	1	33
563.385	1	34
563.725	1	43
564.064	1	37
564.404	1	48
564.744	1	55
565.084	1	37
565.424	1	43
565.764	1	31
566.104	1	38
566.444	1	41
566.783	1	28
567.123	1	45
567.463	1	49
567.803	1	42
568.143	1	42
568.483	1	45
568.823	1	38
569.162	1	47
569.502	1	29
569.842	1	37
570.182	1	42
570.522	1	33
570.862	1	43
571.201	1	42
571.541	1	46
571.881	1	59
572.221	1	35
572.561	1	32
572.900	1	33
573.240	1	39
573.580	1	37
573.920	1	42
574.260	1	44
574.599	1	42
574.939	1	48
575.279	1	47
575.619	1	42
575.959	1	30
576.298	1	46
576.638	1	40
576.978	1	40
577.318	1	47
577.657	1	30
577.997	1	40
578.337	1	55
578.677	1	36
579.016	1	45
579.356	1	37
579.696	1	44
580.036	1	35
580.375	1	44
580.715	1	33
581.055	1	39
581.394	1	25
581.734	1	39
582.074	1	34
582.414	1	47
582.753	1	41
583.093	1	28
583.433	1	42
583.772	1	53
584.112	1	28
584.452	1	42
584.791	1	32
585.131	1	43
585.471	1	48
585.811	1	51
586.150	1	34
586.490	1	40
586.830	1	41
587.169	1	41
587.509	1	29
587.849	1	38
588.188	1	46
588.528	1	41
588.867	1	49
589.207	1	36
589.547	1	38
589.886	1	36
590.226	1	41
590.566	1	35
590.905	1	28
591.245	1	34
591.585	1	36
591.924	1	37
592.264	1	30
592.603	1	36
592.943	1	34
593.283	1	34
593.622	1	31
593.962	1	26
594.301	1	39
594.641	1	29
594.981	1	27
595.320	1	23
595.660	1	30
595.999	1	18
596.339	1	33
596.678	1	15
597.018	1	27
597.358	1	29
597.697	1	24
598.037	1	24
598.376	1	34
598.716	1	40
599.055	1	37
599.395	1	38
599.734	1	30
600.074	1	33
600.413	1	38
600.753	1	40
601.092	1	36
601.432	1	31
601.771	1	39
602.111	1	38
602.451	1	39
602.790	1	27
603.130	1	37
603.469	1	32
603.809	1	36
604.148	1	25
604.487	1	29
604.827	1	39
605.166	1	35
605.506	1	39
605.845	1	35
606.185	1	45
606.524	1	29
606.864	1	33
607.203	1	37
607.543	1	28
607.882	1	35
608.222	1	32
608.561	1	27
608.901	1	35
609.240	1	28
609.579	1	35
609.919	1	41
610.258	1	34
610.598	1	25
610.937	1	27
611.277	1	31
611.616	1	19
611.955	1	28
612.295	1	19
612.634	1	26
612.974	1	21
613.313	1	30
613.652	1	24
613.992	1	21
614.331	1	22
614.671	1	28
615.010	1	23
615.349	1	26
615.689	1	32
616.028	1	28
616.368	1	20
616.707	1	21
617.046	1	27
617.386	1	22
617.725	1	28
618.064	1	22
618.404	1	22
618.743	1	31
619.082	1	21
619.422	1	23
619.761	1	33
620.100	1	30
620.440	1	22
620.779	1	19
621.118	1	24
621.458	1	18
621.797	1	28
622.136	1	42
622.476	1	28
622.815	1	26
623.154	1	28
623.494	1	37
623.833	1	27
624.172	1	21
624.511	1	25
624.851	1	15
625.190	1	15
625.529	1	17
625.869	1	35
626.208	1	16
626.547	1	18
626.886	1	15
627.226	1	22
627.565	1	20
627.904	1	13
628.243	1	18
628.583	1	19
628.922	1	16
629.261	1	18
629.600	1	28
629.940	1	18
630.279	1	17
630.618	1	12
630.957	1	14
631.297	1	10
631.636	1	12
631.975	1	25
632.314	1	12
632.653	1	18
632.993	1	15
633.332	1	22
633.671	1	13
634.010	1	11
634.349	1	19
634.689	1	11
635.028	1	20
635.367	1	11
635.706	1	13
636.045	1	20
636.384	1	7
636.724	1	14
637.063	1	14
637.402	1	29
637.741	1	22
638.080	1	10
638.419	1	26
638.759	1	7
639.098	1	20
639.437	1	17
639.776	1	18
640.115	1	19
640.454	1	8
640.793	1	20
641.132	1	18
641.472	1	14
641.811	1	7
642.150	1	9
642.489	1	18
642.828	1	9
643.167	1	10
643.506	1	4
643.845	1	10
644.184	1	16
644.524	1	16
644.863	1	8
645.202	1	18
645.541	1	17
645.880	1	11
646.219	1	15
646.558	1	17
646.897	1	19
647.236	1	19
647.575	1	21
647.914	1	15
648.253	1	24
648.592	1	13
648.931	1	20
649.270	1	15
649.610	1	13
649.949	1	12
650.288	1	15
650.627	1	7
650.966	1	20
651.305	1	7
651.644	1	30
651.983	1	22
652.322	1	3
652.661	1	14
653.000	1	11
653.339	1	18
653.678	1	17
654.017	1	13
654.356	1	19
654.695	1	16
655.034	1	11
655.373	1	9
655.712	1	20
656.051	1	16
656.390	1	17
656.729	1	17
657.068	1	21
657.406	1	12
657.745	1	-4
658.084	1	20
658.423	1	17
658.762	1	9
659.101	1	21
659.440	1	16
659.779	1	18
660.118	1	15
660.457	1	9
660.796	1	6
661.135	1	8
661.474	1	16
661.813	1	14
662.152	1	18
662.491	1	7
662.829	1	1
663.168	1	16
663.507	1	17
663.846	1	2
664.185	1	6
664.524	1	10
664.863	1	14
665.202	1	16
665.541	1	2
665.879	1	3
666.218	1	6
666.557	1	9
666.896	1	7
667.235	1	13
667.574	1	14
667.913	1	10
668.251	1	0
668.590	1	4
668.929	1	1
669.268	1	10
669.607	1	12
669.946	1	10
670.285	1	15
670.623	1	11
670.962	1	12
671.301	1	8
671.640	1	18
671.979	1	6
672.317	1	11
672.656	1	14
672.995	1	19
673.334	1	10
673.673	1	10
674.011	1	7
674.350	1	16
674.689	1	20
675.028	1	8
675.367	1	15
675.705	1	13
676.044	1	12
676.383	1	9
676.722	1	20
677.060	1	13
677.399	1	6
677.738	1	16
678.077	1	17
678.416	1	18
678.754	1	10
679.093	1	18
679.432	1	8
679.771	1	11
680.109	1	25
680.448	1	1
680.787	1	11
681.125	1	21
681.464	1	10
681.803	1	17
682.142	1	24
682.480	1	25
682.819	1	20
683.158	1	4
683.496	1	16
683.835	1	11
684.174	1	9
684.512	1	11
684.851	1	20
685.190	1	2
685.529	1	15
685.867	1	18
686.206	1	18
686.545	1	2
686.883	1	6
687.222	1	14
687.561	1	22
687.899	1	15
688.238	1	31
688.577	1	12
688.746	1	13