File: Data/GaN_200K_800ms/GaN_sample F_spot 12_UVVIS_200 K_200um_800 ms 2x2mm1_358.txt
340.368	1	9
340.710	1	-8
341.052	1	6
341.394	1	-8
341.737	1	6
342.079	1	-3
342.421	1	-1
342.763	1	1
343.105	1	1
343.447	1	-4
343.789	1	3
344.131	1	-4
344.473	1	-2
344.815	1	4
345.157	1	-2
345.499	1	-1
345.841	1	7
346.183	1	-9
346.526	1	-5
346.868	1	9
347.210	1	-9
347.552	1	-9
347.894	1	5
348.236	1	9
348.578	1	-2
348.920	1	-8
349.262	1	-6
349.604	1	-1
349.946	1	3
350.288	1	7
350.630	1	-5
350.972	1	6
351.314	1	4
351.656	1	1
351.998	1	3
352.340	1	6
352.682	1	2
353.024	1	3
353.366	1	3
353.708	1	-1
354.050	1	-3
354.392	1	-5
354.734	1	9
355.076	1	7
355.418	1	-12
355.760	1	-7
356.102	1	5
356.444	1	4
356.785	1	3
357.127	1	-2
357.469	1	-1
357.811	1	1
358.153	1	7
358.495	1	2
358.837	1	-3
359.179	1	6
359.521	1	4
359.863	1	0
360.205	1	-2
360.547	1	5
360.889	1	-4
361.231	1	-4
361.572	1	3
361.914	1	-1
362.256	1	6
362.598	1	2
362.940	1	-2
363.282	1	8
363.624	1	5
363.966	1	2
364.308	1	3
364.649	1	7
364.991	1	7
365.333	1	5
365.675	1	-7
366.017	1	13
366.359	1	6
366.701	1	9
367.042	1	11
367.384	1	25
367.726	1	10
368.068	1	14
368.410	1	18
368.752	1	14
369.093	1	7
369.435	1	16
369.777	1	16
370.119	1	11
370.461	1	22
370.803	1	8
371.144	1	17
371.486	1	15
371.828	1	16
372.170	1	13
372.512	1	14
372.853	1	9
373.195	1	8
373.537	1	5
373.879	1	0
374.220	1	20
374.562	1	13
374.904	1	5
375.246	1	8
375.588	1	7
375.929	1	4
376.271	1	11
376.613	1	7
376.955	1	-3
377.296	1	-10
377.638	1	11
377.980	1	9
378.321	1	4
378.663	1	-3
379.005	1	11
379.347	1	7
379.688	1	6
380.030	1	0
380.372	1	3
380.714	1	-4
381.055	1	3
381.397	1	-4
381.739	1	1
382.080	1	4
382.422	1	5
382.764	1	-3
383.105	1	1
383.447	1	1
383.789	1	-3
384.130	1	-1
384.472	1	0
384.814	1	-9
385.156	1	-2
385.497	1	-9
385.839	1	10
386.180	1	0
386.522	1	8
386.864	1	11
387.205	1	-3
387.547	1	2
387.889	1	-13
388.230	1	9
388.572	1	-4
388.914	1	-2
389.255	1	-5
389.597	1	2
389.939	1	1
390.280	1	2
390.622	1	-3
390.963	1	9
391.305	1	9
391.647	1	7
391.988	1	5
392.330	1	13
392.671	1	-7
393.013	1	-6
393.355	1	-3
393.696	1	4
394.038	1	3
394.379	1	0
394.721	1	-12
395.062	1	0
395.404	1	1
395.746	1	4
396.087	1	-7
396.429	1	5
396.770	1	3
397.112	1	11
397.453	1	4
397.795	1	-6
398.136	1	-6
398.478	1	2
398.819	1	0
399.161	1	20
399.503	1	-5
399.844	1	-1
400.186	1	2
400.527	1	-4
400.869	1	4
401.210	1	9
401.552	1	-5
401.893	1	0
402.235	1	-2
402.576	1	-9
402.918	1	5
403.259	1	4
403.601	1	2
403.942	1	12
404.284	1	2
404.625	1	-4
404.967	1	6
405.308	1	-2
405.649	1	5
405.991	1	-7
406.332	1	0
406.674	1	-5
407.015	1	-2
407.357	1	-12
407.698	1	7
408.040	1	-9
408.381	1	2
408.722	1	-19
409.064	1	4
409.405	1	2
409.747	1	-4
410.088	1	-5
410.430	1	3
410.771	1	-8
411.112	1	-2
411.454	1	-6
411.795	1	-3
412.137	1	7
412.478	1	18
412.819	1	-4
413.161	1	2
413.502	1	-1
413.844	1	0
414.185	1	2
414.526	1	-1
414.868	1	3
415.209	1	-4
415.550	1	-5
415.892	1	-5
416.233	1	6
416.575	1	3
416.916	1	-3
417.257	1	-4
417.599	1	4
417.940	1	4
418.281	1	6
418.623	1	-11
418.964	1	-9
419.305	1	5
419.647	1	-2
419.988	1	-2
420.329	1	-4
420.671	1	13
421.012	1	5
421.353	1	0
421.695	1	-5
422.036	1	3
422.377	1	-8
422.718	1	6
423.060	1	-4
423.401	1	2
423.742	1	3
424.084	1	3
424.425	1	0
424.766	1	3
425.107	1	-1
425.449	1	0
425.790	1	-11
426.131	1	0
426.472	1	-6
426.814	1	-3
427.155	1	-9
427.496	1	-4
427.837	1	-10
428.179	1	-6
428.520	1	2
428.861	1	-7
429.202	1	0
429.544	1	-6
429.885	1	2
430.226	1	-13
430.567	1	-2
430.909	1	5
431.250	1	4
431.591	1	4
431.932	1	1
432.273	1	-5
432.615	1	3
432.956	1	-4
433.297	1	6
433.638	1	-7
433.979	1	3
434.320	1	2
434.662	1	-4
435.003	1	4
435.344	1	-4
435.685	1	-4
436.026	1	3
436.368	1	4
436.709	1	-2
437.050	1	-5
437.391	1	12
437.732	1	-7
438.073	1	-2
438.414	1	-4
438.756	1	-2
439.097	1	-13
439.438	1	-4
439.779	1	-1
440.120	1	-4
440.461	1	4
440.802	1	-4
441.143	1	2
441.485	1	3
441.826	1	5
442.167	1	7
442.508	1	-10
442.849	1	9
443.190	1	2
443.531	1	13
443.872	1	4
444.213	1	-2
444.554	1	7
444.895	1	-2
445.237	1	-8
445.578	1	-9
445.919	1	-9
446.260	1	-8
446.601	1	-13
446.942	1	3
447.283	1	-7
447.624	1	-4
447.965	1	-1
448.306	1	1
448.647	1	-12
448.988	1	-6
449.329	1	-8
449.670	1	4
450.011	1	10
450.352	1	-8
450.693	1	-7
451.034	1	0
451.375	1	1
451.716	1	-3
452.057	1	0
452.398	1	-1
452.739	1	-6
453.080	1	1
453.421	1	2
453.762	1	0
454.103	1	4
454.444	1	-6
454.785	1	-11
455.126	1	-10
455.467	1	2
455.808	1	-2
456.149	1	1
456.490	1	0
456.831	1	10
457.172	1	-2
457.513	1	2
457.854	1	-1
458.195	1	-5
458.536	1	3
458.877	1	-5
459.218	1	7
459.559	1	4
459.899	1	6
460.240	1	-6
460.581	1	13
460.922	1	1
461.263	1	-8
461.604	1	-15
461.945	1	-2
462.286	1	2
462.627	1	10
462.968	1	-5
463.309	1	-12
463.649	1	-5
463.990	1	-6
464.331	1	-3
464.672	1	0
465.013	1	-13
465.354	1	-3
465.695	1	-6
466.036	1	3
466.376	1	-5
466.717	1	2
467.058	1	0
467.399	1	0
467.740	1	-3
468.081	1	5
468.422	1	-8
468.762	1	-9
469.103	1	1
469.444	1	-3
469.785	1	-13
470.126	1	-5
470.467	1	-6
470.807	1	4
471.148	1	1
471.489	1	4
471.830	1	-6
472.171	1	0
472.511	1	-10
472.852	1	-5
473.193	1	4
473.534	1	7
473.875	1	11
474.215	1	12
474.556	1	2
474.897	1	2
475.238	1	-5
475.578	1	-4
475.919	1	-8
476.260	1	-1
476.601	1	0
476.942	1	4
477.282	1	-8
477.623	1	-16
477.964	1	-7
478.305	1	0
478.645	1	4
478.986	1	-5
479.327	1	-8
479.667	1	-5
480.008	1	-4
480.349	1	0
480.690	1	-10
481.030	1	-10
481.371	1	9
481.712	1	4
482.053	1	4
482.393	1	-2
482.734	1	2
483.075	1	5
483.415	1	-5
483.756	1	9
484.097	1	-6
484.437	1	-4
484.778	1	-7
485.119	1	-2
485.459	1	7
485.800	1	-3
486.141	1	-2
486.481	1	4
486.822	1	3
487.163	1	2
487.503	1	-1
487.844	1	0
488.185	1	-1
488.525	1	-4
488.866	1	2
489.207	1	2
489.547	1	-11
489.888	1	-7
490.228	1	1
490.569	1	10
490.910	1	-3
491.250	1	-8
491.591	1	-7
491.932	1	0
492.272	1	4
492.613	1	-6
492.953	1	2
493.294	1	-2
493.635	1	-5
493.975	1	6
494.316	1	-4
494.656	1	-1
494.997	1	0
495.337	1	3
495.678	1	1
496.019	1	-2
496.359	1	-3
496.700	1	0
497.040	1	-2
497.381	1	-5
497.721	1	-16
498.062	1	-2
498.403	1	1
498.743	1	-6
499.084	1	-1
499.424	1	1
499.765	1	4
500.105	1	-1
500.446	1	-9
500.786	1	-8
501.127	1	1
501.467	1	-4
501.808	1	6
502.148	1	11
502.489	1	-2
502.829	1	1
503.170	1	6
503.510	1	0
503.851	1	-1
504.191	1	3
504.532	1	6
504.872	1	-7
505.213	1	10
505.553	1	-9
505.894	1	-6
506.234	1	10
506.575	1	4
506.915	1	1
507.256	1	3
507.596	1	7
507.936	1	-3
508.277	1	1
508.617	1	-5
508.958	1	-1
509.298	1	4
509.639	1	-2
509.979	1	-7
510.319	1	6
510.660	1	-3
511.000	1	-12
511.341	1	-1
511.681	1	3
512.022	1	-4
512.362	1	-5
512.702	1	4
513.043	1	12
513.383	1	-10
513.724	1	0
514.064	1	10
514.404	1	4
514.745	1	-9
515.085	1	0
515.425	1	-8
515.766	1	-11
516.106	1	-5
516.447	1	12
516.787	1	5
517.127	1	-4
517.468	1	-6
517.808	1	4
518.148	1	6
518.489	1	0
518.829	1	1
519.169	1	-5
519.510	1	3
519.850	1	10
520.190	1	-6
520.531	1	9
520.871	1	2
521.211	1	-12
521.552	1	4
521.892	1	7
522.232	1	-2
522.573	1	0
522.913	1	9
523.253	1	-6
523.593	1	-5
523.934	1	-1
524.274	1	0
524.614	1	-7
524.955	1	-12
525.295	1	-1
525.635	1	3
525.975	1	4
526.316	1	10
526.656	1	-5
526.996	1	-1
527.337	1	-5
527.677	1	8
528.017	1	-10
528.357	1	-6
528.698	1	6
529.038	1	0
529.378	1	8
529.718	1	16
530.058	1	-10
530.399	1	2
530.739	1	0
531.079	1	10
531.419	1	4
531.760	1	-1
532.100	1	1
532.440	1	5
532.780	1	-4
533.120	1	12
533.461	1	6
533.801	1	4
534.141	1	-3
534.481	1	-15
534.821	1	6
535.162	1	-5
535.502	1	0
535.842	1	9
536.182	1	-1
536.522	1	-2
536.862	1	7
537.203	1	-5
537.543	1	-2
537.883	1	-3
538.223	1	-2
538.563	1	8
538.903	1	-6
539.243	1	1
539.584	1	0
539.924	1	12
540.264	1	-3
540.604	1	2
540.944	1	-3
541.284	1	8
541.624	1	6
541.964	1	10
542.305	1	6
542.645	1	-2
542.985	1	6
543.325	1	-4
543.665	1	4
544.005	1	10
544.345	1	6
544.685	1	-9
545.025	1	-9
545.365	1	-3
545.705	1	4
546.045	1	-2
546.386	1	-6
546.726	1	-6
547.066	1	-8
547.406	1	-3
547.746	1	-8
548.086	1	3
548.426	1	0
548.766	1	1
549.106	1	11
549.446	1	-3
549.786	1	-7
550.126	1	12
550.466	1	0
550.806	1	-5
551.146	1	-8
551.486	1	1
551.826	1	9
552.166	1	-1
552.506	1	12
552.846	1	1
553.186	1	-6
553.526	1	-5
553.866	1	3
554.206	1	8
554.546	1	0
554.886	1	7
555.226	1	-11
555.566	1	-1
555.906	1	15
556.246	1	6
556.586	1	-4
556.926	1	-5
557.266	1	-3
557.606	1	3
557.946	1	8
558.286	1	4
558.626	1	2
558.966	1	-3
559.306	1	-7
559.646	1	-2
559.986	1	-7
560.325	1	-3
560.665	1	-1
561.005	1	-12
561.345	1	2
561.685	1	-6
562.025	1	1
562.365	1	1
562.705	1	-8
563.045	1	-8
563.385	1	-9
563.725	1	-4
564.064	1	9
564.404	1	0
564.744	1	-2
565.084	1	1
565.424	1	-3
565.764	1	0
566.104	1	0
566.444	1	-13
566.783	1	-5
567.123	1	7
567.463	1	3
567.803	1	-7
568.143	1	2
568.483	1	2
568.823	1	1
569.162	1	4
569.502	1	-3
569.842	1	6
570.182	1	2
570.522	1	-4
570.862	1	-10
571.201	1	13
571.541	1	8
571.881	1	5
572.221	1	-2
572.561	1	-11
572.900	1	-12
573.240	1	-11
573.580	1	6
573.920	1	3
574.260	1	5
574.599	1	6
574.939	1	6
575.279	1	11
575.619	1	3
575.959	1	-8
576.298	1	11
576.638	1	-3
576.978	1	-4
577.318	1	6
577.657	1	0
577.997	1	6
578.337	1	11
578.677	1	4
579.016	1	13
579.356	1	-3
579.696	1	0
580.036	1	-2
580.375	1	2
580.715	1	-1
581.055	1	-1
581.394	1	-9
581.734	1	-5
582.074	1	-10
582.414	1	10
582.753	1	-3
583.093	1	-6
583.433	1	-6
583.772	1	4
584.112	1	-9
584.452	1	-2
584.791	1	-3
585.131	1	-1
585.471	1	10
585.811	1	6
586.150	1	-4
586.490	1	-1
586.830	1	0
587.169	1	-3
587.509	1	-10
587.849	1	1
588.188	1	12
588.528	1	-6
588.867	1	8
589.207	1	3
589.547	1	-8
589.886	1	-12
590.226	1	3
590.566	1	-7
590.905	1	1
591.245	1	-2
591.585	1	2
591.924	1	-3
592.264	1	0
592.603	1	6
592.943	1	-5
593.283	1	3
593.622	1	-4
593.962	1	4
594.301	1	8
594.641	1	0
594.981	1	0
595.320	1	-1
595.660	1	-3
595.999	1	-7
596.339	1	7
596.678	1	-8
597.018	1	-8
597.358	1	3
597.697	1	4
598.037	1	5
598.376	1	4
598.716	1	9
599.055	1	10
599.395	1	-4
599.734	1	-4
600.074	1	3
600.413	1	6
600.753	1	10
601.092	1	10
601.432	1	-5
601.771	1	5
602.111	1	0
602.451	1	8
602.790	1	6
603.130	1	-1
603.469	1	-6
603.809	1	-1
604.148	1	7
604.487	1	-14
604.827	1	6
605.166	1	6
605.506	1	-1
605.845	1	7
606.185	1	3
606.524	1	-7
606.864	1	2
607.203	1	1
607.543	1	-2
607.882	1	7
608.222	1	10
608.561	1	-1
608.901	1	3
609.240	1	-4
609.579	1	5
609.919	1	3
610.258	1	10
610.598	1	-6
610.937	1	1
611.277	1	0
611.616	1	-6
611.955	1	-4
612.295	1	-5
612.634	1	-11
612.974	1	-8
613.313	1	3
613.652	1	0
613.992	1	4
614.331	1	-5
614.671	1	1
615.010	1	2
615.349	1	3
615.689	1	11
616.028	1	1
616.368	1	3
616.707	1	1
617.046	1	7
617.386	1	0
617.725	1	-2
618.064	1	-13
618.404	1	-1
618.743	1	0
619.082	1	6
619.422	1	-5
619.761	1	9
620.100	1	12
620.440	1	-5
620.779	1	-6
621.118	1	-6
621.458	1	-2
621.797	1	1
622.136	1	7
622.476	1	6
622.815	1	6
623.154	1	5
623.494	1	6
623.833	1	2
624.172	1	-4
624.511	1	5
624.851	1	-15
625.190	1	2
625.529	1	-1
625.869	1	6
626.208	1	5
626.547	1	3
626.886	1	2
627.226	1	6
627.565	1	4
627.904	1	0
628.243	1	11
628.583	1	-2
628.922	1	-5
629.261	1	2
629.600	1	11
629.940	1	1
630.279	1	-11
630.618	1	-6
630.957	1	-5
631.297	1	-11
631.636	1	-9
631.975	1	10
632.314	1	1
632.653	1	5
632.993	1	-4
633.332	1	5
633.671	1	-4
634.010	1	-10
634.349	1	9
634.689	1	-8
635.028	1	6
635.367	1	1
635.706	1	8
636.045	1	16
636.384	1	-5
636.724	1	-3
637.063	1	-3
637.402	1	2
637.741	1	-2
638.080	1	1
638.419	1	8
638.759	1	-3
639.098	1	2
639.437	1	8
639.776	1	1
640.115	1	5
640.454	1	-2
640.793	1	7
641.132	1	2
641.472	1	-3
641.811	1	-8
642.150	1	-2
642.489	1	9
642.828	1	-9
643.167	1	-2
643.506	1	-8
643.845	1	-3
644.184	1	4
644.524	1	0
644.863	1	-1
645.202	1	3
645.541	1	1
645.880	1	0
646.219	1	1
646.558	1	-3
646.897	1	-2
647.236	1	5
647.575	1	0
647.914	1	-1
648.253	1	6
648.592	1	-6
648.931	1	6
649.270	1	0
649.610	1	-2
649.949	1	-5
650.288	1	11
650.627	1	-12
650.966	1	6
651.305	1	-3
651.644	1	7
651.983	1	-1
652.322	1	-6
652.661	1	-9
653.000	1	-11
653.339	1	3
653.678	1	-1
654.017	1	-6
654.356	1	-2
654.695	1	6
655.034	1	5
655.373	1	2
655.712	1	1
656.051	1	1
656.390	1	-10
656.729	1	11
657.068	1	10
657.406	1	-1
657.745	1	-2
658.084	1	2
658.423	1	0
658.762	1	1
659.101	1	16
659.440	1	-1
659.779	1	0
660.118	1	-3
660.457	1	1
660.796	1	-10
661.135	1	-3
661.474	1	-7
661.813	1	14
662.152	1	7
662.491	1	-7
662.829	1	-9
663.168	1	1
663.507	1	10
663.846	1	3
664.185	1	7
664.524	1	-1
664.863	1	-4
665.202	1	6
665.541	1	-7
665.879	1	-7
666.218	1	-8
666.557	1	1
666.896	1	1
667.235	1	-2
667.574	1	4
667.913	1	-1
668.251	1	-7
668.590	1	-2
668.929	1	-3
669.268	1	-3
669.607	1	-5
669.946	1	4
670.285	1	1
670.623	1	-10
670.962	1	2
671.301	1	-4
671.640	1	1
671.979	1	-5
672.317	1	4
672.656	1	-1
672.995	1	6
673.334	1	-7
673.673	1	-2
674.011	1	-6
674.350	1	6
674.689	1	-3
675.028	1	-7
675.367	1	-2
675.705	1	8
676.044	1	-3
676.383	1	-8
676.722	1	6
677.060	1	-8
677.399	1	-6
677.738	1	1
678.077	1	0
678.416	1	0
678.754	1	-9
679.093	1	0
679.432	1	1
679.771	1	10
680.109	1	7
680.448	1	5
680.787	1	-3
681.125	1	2
681.464	1	3
681.803	1	-5
682.142	1	6
682.480	1	9
682.819	1	2
683.158	1	-3
683.496	1	2
683.835	1	-1
684.174	1	-2
684.512	1	-1
684.851	1	2
685.190	1	-7
685.529	1	4
685.867	1	-2
686.206	1	-7
686.545	1	1
686.883	1	-2
687.222	1	7
687.561	1	-4
687.899	1	-1
688.238	1	-3
688.577	1	-3
688.746	1	2