File: Data/GaN_200K_800ms/GaN_sample F_spot 12_UVVIS_200 K_200um_800 ms 2x2mm1_108.txt
340.368	1	7
340.710	1	-4
341.052	1	1
341.394	1	-1
341.737	1	9
342.079	1	-1
342.421	1	6
342.763	1	2
343.105	1	3
343.447	1	-8
343.789	1	5
344.131	1	2
344.473	1	-5
344.815	1	-2
345.157	1	-1
345.499	1	1
345.841	1	11
346.183	1	0
346.526	1	-13
346.868	1	14
347.210	1	-2
347.552	1	-2
347.894	1	4
348.236	1	9
348.578	1	0
348.920	1	6
349.262	1	7
349.604	1	10
349.946	1	0
350.288	1	20
350.630	1	2
350.972	1	7
351.314	1	10
351.656	1	7
351.998	1	5
352.340	1	7
352.682	1	11
353.024	1	10
353.366	1	15
353.708	1	6
354.050	1	-3
354.392	1	2
354.734	1	9
355.076	1	5
355.418	1	-10
355.760	1	9
356.102	1	18
356.444	1	18
356.785	1	9
357.127	1	8
357.469	1	15
357.811	1	10
358.153	1	9
358.495	1	10
358.837	1	10
359.179	1	17
359.521	1	23
359.863	1	13
360.205	1	11
360.547	1	25
360.889	1	17
361.231	1	12
361.572	1	21
361.914	1	24
362.256	1	22
362.598	1	18
362.940	1	16
363.282	1	36
363.624	1	43
363.966	1	32
364.308	1	39
364.649	1	44
364.991	1	43
365.333	1	47
365.675	1	43
366.017	1	53
366.359	1	68
366.701	1	69
367.042	1	65
367.384	1	74
367.726	1	77
368.068	1	83
368.410	1	88
368.752	1	74
369.093	1	85
369.435	1	96
369.777	1	82
370.119	1	80
370.461	1	93
370.803	1	78
371.144	1	168
371.486	1	87
371.828	1	84
372.170	1	80
372.512	1	63
372.853	1	62
373.195	1	62
373.537	1	64
373.879	1	53
374.220	1	74
374.562	1	58
374.904	1	54
375.246	1	50
375.588	1	38
375.929	1	49
376.271	1	55
376.613	1	38
376.955	1	39
377.296	1	39
377.638	1	45
377.980	1	39
378.321	1	21
378.663	1	28
379.005	1	43
379.347	1	38
379.688	1	33
380.030	1	27
380.372	1	29
380.714	1	32
381.055	1	32
381.397	1	23
381.739	1	30
382.080	1	20
382.422	1	29
382.764	1	25
383.105	1	17
383.447	1	24
383.789	1	14
384.130	1	16
384.472	1	17
384.814	1	21
385.156	1	14
385.497	1	18
385.839	1	10
386.180	1	15
386.522	1	18
386.864	1	11
387.205	1	14
387.547	1	14
387.889	1	12
388.230	1	29
388.572	1	14
388.914	1	3
389.255	1	17
389.597	1	4
389.939	1	11
390.280	1	15
390.622	1	7
390.963	1	26
391.305	1	18
391.647	1	14
391.988	1	21
392.330	1	8
392.671	1	13
393.013	1	6
393.355	1	18
393.696	1	12
394.038	1	9
394.379	1	11
394.721	1	-4
395.062	1	14
395.404	1	3
395.746	1	9
396.087	1	7
396.429	1	11
396.770	1	6
397.112	1	14
397.453	1	17
397.795	1	9
398.136	1	0
398.478	1	2
398.819	1	4
399.161	1	24
399.503	1	8
399.844	1	12
400.186	1	-2
400.527	1	1
400.869	1	0
401.210	1	13
401.552	1	-3
401.893	1	5
402.235	1	2
402.576	1	0
402.918	1	20
403.259	1	13
403.601	1	0
403.942	1	13
404.284	1	8
404.625	1	5
404.967	1	3
405.308	1	7
405.649	1	7
405.991	1	-1
406.332	1	2
406.674	1	1
407.015	1	6
407.357	1	-1
407.698	1	-3
408.040	1	1
408.381	1	14
408.722	1	-14
409.064	1	3
409.405	1	7
409.747	1	14
410.088	1	-2
410.430	1	3
410.771	1	1
411.112	1	4
411.454	1	11
411.795	1	-2
412.137	1	7
412.478	1	15
412.819	1	0
413.161	1	2
413.502	1	3
413.844	1	9
414.185	1	4
414.526	1	12
414.868	1	3
415.209	1	6
415.550	1	2
415.892	1	-4
416.233	1	6
416.575	1	12
416.916	1	7
417.257	1	5
417.599	1	1
417.940	1	7
418.281	1	2
418.623	1	4
418.964	1	0
419.305	1	1
419.647	1	-2
419.988	1	0
420.329	1	-3
420.671	1	5
421.012	1	0
421.353	1	-10
421.695	1	-2
422.036	1	2
422.377	1	0
422.718	1	7
423.060	1	-4
423.401	1	8
423.742	1	5
424.084	1	9
424.425	1	10
424.766	1	4
425.107	1	-10
425.449	1	6
425.790	1	-16
426.131	1	8
426.472	1	1
426.814	1	4
427.155	1	-6
427.496	1	-8
427.837	1	3
428.179	1	-7
428.520	1	8
428.861	1	7
429.202	1	5
429.544	1	4
429.885	1	12
430.226	1	-2
430.567	1	3
430.909	1	2
431.250	1	-3
431.591	1	7
431.932	1	0
432.273	1	-4
432.615	1	1
432.956	1	-8
433.297	1	2
433.638	1	-1
433.979	1	11
434.320	1	1
434.662	1	4
435.003	1	16
435.344	1	3
435.685	1	1
436.026	1	19
436.368	1	13
436.709	1	0
437.050	1	5
437.391	1	5
437.732	1	-4
438.073	1	-1
438.414	1	-3
438.756	1	9
439.097	1	-8
439.438	1	5
439.779	1	5
440.120	1	4
440.461	1	-3
440.802	1	0
441.143	1	9
441.485	1	7
441.826	1	4
442.167	1	7
442.508	1	-5
442.849	1	10
443.190	1	1
443.531	1	7
443.872	1	7
444.213	1	3
444.554	1	13
444.895	1	0
445.237	1	-3
445.578	1	-8
445.919	1	-6
446.260	1	-2
446.601	1	2
446.942	1	0
447.283	1	-9
447.624	1	0
447.965	1	-9
448.306	1	4
448.647	1	-1
448.988	1	0
449.329	1	-2
449.670	1	7
450.011	1	6
450.352	1	3
450.693	1	-6
451.034	1	-4
451.375	1	0
451.716	1	5
452.057	1	1
452.398	1	-4
452.739	1	-4
453.080	1	-3
453.421	1	3
453.762	1	-2
454.103	1	-2
454.444	1	-9
454.785	1	4
455.126	1	-7
455.467	1	11
455.808	1	6
456.149	1	6
456.490	1	6
456.831	1	12
457.172	1	3
457.513	1	15
457.854	1	-4
458.195	1	5
458.536	1	-2
458.877	1	4
459.218	1	0
459.559	1	8
459.899	1	-1
460.240	1	6
460.581	1	7
460.922	1	3
461.263	1	-6
461.604	1	8
461.945	1	-7
462.286	1	2
462.627	1	15
462.968	1	15
463.309	1	-4
463.649	1	-9
463.990	1	5
464.331	1	2
464.672	1	4
465.013	1	-7
465.354	1	1
465.695	1	-5
466.036	1	3
466.376	1	-1
466.717	1	5
467.058	1	-3
467.399	1	4
467.740	1	10
468.081	1	3
468.422	1	-2
468.762	1	-11
469.103	1	-5
469.444	1	1
469.785	1	-10
470.126	1	-6
470.467	1	1
470.807	1	13
471.148	1	7
471.489	1	2
471.830	1	-1
472.171	1	5
472.511	1	-1
472.852	1	0
473.193	1	3
473.534	1	10
473.875	1	21
474.215	1	20
474.556	1	5
474.897	1	7
475.238	1	6
475.578	1	-8
475.919	1	2
476.260	1	1
476.601	1	6
476.942	1	6
477.282	1	-8
477.623	1	-4
477.964	1	-10
478.305	1	3
478.645	1	18
478.986	1	5
479.327	1	-3
479.667	1	-3
480.008	1	-7
480.349	1	-1
480.690	1	3
481.030	1	-13
481.371	1	6
481.712	1	-6
482.053	1	10
482.393	1	4
482.734	1	-6
483.075	1	-10
483.415	1	11
483.756	1	11
484.097	1	-3
484.437	1	3
484.778	1	8
485.119	1	-2
485.459	1	15
485.800	1	4
486.141	1	-1
486.481	1	5
486.822	1	9
487.163	1	1
487.503	1	2
487.844	1	3
488.185	1	9
488.525	1	-3
488.866	1	2
489.207	1	2
489.547	1	1
489.888	1	-3
490.228	1	16
490.569	1	15
490.910	1	5
491.250	1	-9
491.591	1	2
491.932	1	8
492.272	1	3
492.613	1	-3
492.953	1	-2
493.294	1	2
493.635	1	4
493.975	1	-2
494.316	1	11
494.656	1	5
494.997	1	1
495.337	1	15
495.678	1	-2
496.019	1	-1
496.359	1	-4
496.700	1	3
497.040	1	-7
497.381	1	-4
497.721	1	3
498.062	1	2
498.403	1	9
498.743	1	3
499.084	1	-3
499.424	1	10
499.765	1	4
500.105	1	-2
500.446	1	-5
500.786	1	-3
501.127	1	3
501.467	1	-2
501.808	1	12
502.148	1	8
502.489	1	4
502.829	1	1
503.170	1	1
503.510	1	1
503.851	1	12
504.191	1	16
504.532	1	2
504.872	1	-2
505.213	1	8
505.553	1	-2
505.894	1	-3
506.234	1	11
506.575	1	19
506.915	1	6
507.256	1	8
507.596	1	7
507.936	1	4
508.277	1	4
508.617	1	6
508.958	1	2
509.298	1	8
509.639	1	1
509.979	1	5
510.319	1	9
510.660	1	9
511.000	1	1
511.341	1	4
511.681	1	7
512.022	1	-4
512.362	1	3
512.702	1	4
513.043	1	6
513.383	1	-3
513.724	1	8
514.064	1	14
514.404	1	8
514.745	1	-3
515.085	1	-1
515.425	1	3
515.766	1	4
516.106	1	5
516.447	1	18
516.787	1	6
517.127	1	4
517.468	1	8
517.808	1	6
518.148	1	4
518.489	1	2
518.829	1	2
519.169	1	8
519.510	1	12
519.850	1	11
520.190	1	1
520.531	1	12
520.871	1	5
521.211	1	-5
521.552	1	9
521.892	1	6
522.232	1	13
522.573	1	7
522.913	1	12
523.253	1	-2
523.593	1	-2
523.934	1	9
524.274	1	7
524.614	1	8
524.955	1	-8
525.295	1	9
525.635	1	12
525.975	1	10
526.316	1	18
526.656	1	6
526.996	1	13
527.337	1	11
527.677	1	12
528.017	1	-6
528.357	1	6
528.698	1	11
529.038	1	11
529.378	1	12
529.718	1	8
530.058	1	13
530.399	1	16
530.739	1	15
531.079	1	8
531.419	1	8
531.760	1	12
532.100	1	11
532.440	1	5
532.780	1	10
533.120	1	17
533.461	1	12
533.801	1	28
534.141	1	-9
534.481	1	4
534.821	1	8
535.162	1	12
535.502	1	-8
535.842	1	21
536.182	1	2
536.522	1	17
536.862	1	9
537.203	1	2
537.543	1	11
537.883	1	5
538.223	1	7
538.563	1	11
538.903	1	2
539.243	1	11
539.584	1	7
539.924	1	16
540.264	1	9
540.604	1	2
540.944	1	1
541.284	1	14
541.624	1	15
541.964	1	7
542.305	1	9
542.645	1	13
542.985	1	14
543.325	1	6
543.665	1	9
544.005	1	26
544.345	1	10
544.685	1	3
545.025	1	13
545.365	1	4
545.705	1	8
546.045	1	0
546.386	1	5
546.726	1	-5
547.066	1	10
547.406	1	7
547.746	1	-2
548.086	1	18
548.426	1	3
548.766	1	12
549.106	1	5
549.446	1	3
549.786	1	0
550.126	1	22
550.466	1	17
550.806	1	2
551.146	1	10
551.486	1	4
551.826	1	20
552.166	1	5
552.506	1	19
552.846	1	5
553.186	1	13
553.526	1	3
553.866	1	11
554.206	1	15
554.546	1	14
554.886	1	18
555.226	1	4
555.566	1	19
555.906	1	13
556.246	1	5
556.586	1	8
556.926	1	12
557.266	1	12
557.606	1	8
557.946	1	15
558.286	1	13
558.626	1	11
558.966	1	-1
559.306	1	0
559.646	1	9
559.986	1	8
560.325	1	5
560.665	1	-4
561.005	1	4
561.345	1	4
561.685	1	10
562.025	1	3
562.365	1	5
562.705	1	8
563.045	1	1
563.385	1	-2
563.725	1	10
564.064	1	5
564.404	1	16
564.744	1	13
565.084	1	9
565.424	1	15
565.764	1	12
566.104	1	-2
566.444	1	3
566.783	1	2
567.123	1	13
567.463	1	18
567.803	1	-2
568.143	1	7
568.483	1	6
568.823	1	13
569.162	1	13
569.502	1	3
569.842	1	15
570.182	1	8
570.522	1	2
570.862	1	7
571.201	1	17
571.541	1	13
571.881	1	17
572.221	1	3
572.561	1	3
572.900	1	2
573.240	1	18
573.580	1	13
573.920	1	10
574.260	1	17
574.599	1	10
574.939	1	9
575.279	1	17
575.619	1	9
575.959	1	2
576.298	1	8
576.638	1	5
576.978	1	11
577.318	1	16
577.657	1	-1
577.997	1	10
578.337	1	17
578.677	1	14
579.016	1	15
579.356	1	3
579.696	1	21
580.036	1	8
580.375	1	13
580.715	1	14
581.055	1	1
581.394	1	6
581.734	1	5
582.074	1	8
582.414	1	15
582.753	1	2
583.093	1	12
583.433	1	4
583.772	1	12
584.112	1	5
584.452	1	14
584.791	1	4
585.131	1	11
585.471	1	9
585.811	1	14
586.150	1	10
586.490	1	10
586.830	1	8
587.169	1	11
587.509	1	7
587.849	1	10
588.188	1	16
588.528	1	7
588.867	1	16
589.207	1	5
589.547	1	12
589.886	1	3
590.226	1	23
590.566	1	5
590.905	1	0
591.245	1	5
591.585	1	11
591.924	1	9
592.264	1	14
592.603	1	8
592.943	1	9
593.283	1	5
593.622	1	7
593.962	1	6
594.301	1	7
594.641	1	8
594.981	1	-4
595.320	1	11
595.660	1	3
595.999	1	-1
596.339	1	3
596.678	1	-5
597.018	1	-1
597.358	1	3
597.697	1	13
598.037	1	-4
598.376	1	6
598.716	1	22
599.055	1	17
599.395	1	8
599.734	1	6
600.074	1	6
600.413	1	19
600.753	1	18
601.092	1	17
601.432	1	-2
601.771	1	21
602.111	1	11
602.451	1	12
602.790	1	12
603.130	1	9
603.469	1	10
603.809	1	15
604.148	1	10
604.487	1	9
604.827	1	20
605.166	1	9
605.506	1	1
605.845	1	8
606.185	1	14
606.524	1	4
606.864	1	1
607.203	1	3
607.543	1	8
607.882	1	8
608.222	1	9
608.561	1	2
608.901	1	10
609.240	1	0
609.579	1	16
609.919	1	8
610.258	1	14
610.598	1	5
610.937	1	7
611.277	1	6
611.616	1	10
611.955	1	13
612.295	1	2
612.634	1	5
612.974	1	-11
613.313	1	19
613.652	1	7
613.992	1	14
614.331	1	5
614.671	1	11
615.010	1	-1
615.349	1	18
615.689	1	12
616.028	1	16
616.368	1	10
616.707	1	9
617.046	1	5
617.386	1	10
617.725	1	-5
618.064	1	10
618.404	1	10
618.743	1	9
619.082	1	5
619.422	1	-7
619.761	1	9
620.100	1	8
620.440	1	13
620.779	1	-1
621.118	1	5
621.458	1	5
621.797	1	4
622.136	1	18
622.476	1	6
622.815	1	20
623.154	1	3
623.494	1	13
623.833	1	14
624.172	1	9
624.511	1	-5
624.851	1	-6
625.190	1	0
625.529	1	11
625.869	1	13
626.208	1	5
626.547	1	5
626.886	1	9
627.226	1	6
627.565	1	7
627.904	1	1
628.243	1	7
628.583	1	-1
628.922	1	11
629.261	1	7
629.600	1	13
629.940	1	13
630.279	1	3
630.618	1	7
630.957	1	9
631.297	1	1
631.636	1	10
631.975	1	8
632.314	1	6
632.653	1	6
632.993	1	0
633.332	1	6
633.671	1	4
634.010	1	1
634.349	1	18
634.689	1	5
635.028	1	12
635.367	1	2
635.706	1	14
636.045	1	14
636.384	1	-4
636.724	1	3
637.063	1	-1
637.402	1	11
637.741	1	5
638.080	1	7
638.419	1	-2
638.759	1	1
639.098	1	8
639.437	1	6
639.776	1	0
640.115	1	-2
640.454	1	1
640.793	1	11
641.132	1	14
641.472	1	8
641.811	1	5
642.150	1	1
642.489	1	9
642.828	1	7
643.167	1	3
643.506	1	-9
643.845	1	0
644.184	1	9
644.524	1	5
644.863	1	-1
645.202	1	10
645.541	1	16
645.880	1	7
646.219	1	2
646.558	1	6
646.897	1	5
647.236	1	8
647.575	1	8
647.914	1	0
648.253	1	5
648.592	1	3
648.931	1	13
649.270	1	2
649.610	1	7
649.949	1	6
650.288	1	7
650.627	1	4
650.966	1	13
651.305	1	10
651.644	1	9
651.983	1	5
652.322	1	0
652.661	1	9
653.000	1	9
653.339	1	11
653.678	1	7
654.017	1	12
654.356	1	1
654.695	1	11
655.034	1	5
655.373	1	4
655.712	1	3
656.051	1	6
656.390	1	3
656.729	1	13
657.068	1	2
657.406	1	13
657.745	1	5
658.084	1	3
658.423	1	6
658.762	1	-2
659.101	1	11
659.440	1	1
659.779	1	8
660.118	1	3
660.457	1	11
660.796	1	-2
661.135	1	-2
661.474	1	1
661.813	1	14
662.152	1	12
662.491	1	6
662.829	1	-3
663.168	1	11
663.507	1	15
663.846	1	0
664.185	1	14
664.524	1	6
664.863	1	-4
665.202	1	7
665.541	1	-1
665.879	1	-10
666.218	1	-2
666.557	1	13
666.896	1	3
667.235	1	4
667.574	1	-6
667.913	1	4
668.251	1	-3
668.590	1	1
668.929	1	0
669.268	1	-7
669.607	1	7
669.946	1	10
670.285	1	17
670.623	1	-3
670.962	1	0
671.301	1	8
671.640	1	4
671.979	1	4
672.317	1	6
672.656	1	-5
672.995	1	11
673.334	1	3
673.673	1	6
674.011	1	5
674.350	1	5
674.689	1	7
675.028	1	-4
675.367	1	3
675.705	1	9
676.044	1	1
676.383	1	6
676.722	1	9
677.060	1	-4
677.399	1	-1
677.738	1	9
678.077	1	5
678.416	1	-2
678.754	1	-8
679.093	1	5
679.432	1	-2
679.771	1	7
680.109	1	18
680.448	1	3
680.787	1	6
681.125	1	10
681.464	1	8
681.803	1	3
682.142	1	9
682.480	1	21
682.819	1	2
683.158	1	3
683.496	1	10
683.835	1	1
684.174	1	-7
684.512	1	6
684.851	1	7
685.190	1	6
685.529	1	-1
685.867	1	-9
686.206	1	2
686.545	1	7
686.883	1	-1
687.222	1	13
687.561	1	6
687.899	1	1
688.238	1	15
688.577	1	2
688.746	1	2