File: Data/GaN_200K_800ms/GaN_sample F_spot 12_UVVIS_200 K_200um_800 ms 2x2mm1_57.txt
340.368	1	9
340.710	1	-1
341.052	1	5
341.394	1	-3
341.737	1	8
342.079	1	3
342.421	1	8
342.763	1	6
343.105	1	9
343.447	1	-8
343.789	1	-3
344.131	1	-4
344.473	1	1
344.815	1	0
345.157	1	-2
345.499	1	12
345.841	1	16
346.183	1	1
346.526	1	-1
346.868	1	6
347.210	1	-2
347.552	1	6
347.894	1	12
348.236	1	13
348.578	1	2
348.920	1	4
349.262	1	11
349.604	1	-1
349.946	1	3
350.288	1	14
350.630	1	17
350.972	1	8
351.314	1	18
351.656	1	13
351.998	1	13
352.340	1	9
352.682	1	14
353.024	1	16
353.366	1	21
353.708	1	11
354.050	1	8
354.392	1	5
354.734	1	8
355.076	1	13
355.418	1	5
355.760	1	12
356.102	1	36
356.444	1	21
356.785	1	28
357.127	1	35
357.469	1	31
357.811	1	28
358.153	1	39
358.495	1	41
358.837	1	23
359.179	1	28
359.521	1	57
359.863	1	44
360.205	1	50
360.547	1	60
360.889	1	49
361.231	1	53
361.572	1	77
361.914	1	70
362.256	1	84
362.598	1	74
362.940	1	92
363.282	1	103
363.624	1	110
363.966	1	127
364.308	1	125
364.649	1	139
364.991	1	152
365.333	1	156
365.675	1	187
366.017	1	201
366.359	1	215
366.701	1	237
367.042	1	256
367.384	1	271
367.726	1	272
368.068	1	282
368.410	1	337
368.752	1	327
369.093	1	327
369.435	1	328
369.777	1	335
370.119	1	331
370.461	1	335
370.803	1	331
371.144	1	310
371.486	1	296
371.828	1	300
372.170	1	276
372.512	1	251
372.853	1	247
373.195	1	242
373.537	1	224
373.879	1	213
374.220	1	222
374.562	1	201
374.904	1	197
375.246	1	183
375.588	1	164
375.929	1	156
376.271	1	157
376.613	1	140
376.955	1	134
377.296	1	131
377.638	1	124
377.980	1	119
378.321	1	116
378.663	1	108
379.005	1	118
379.347	1	101
379.688	1	103
380.030	1	90
380.372	1	79
380.714	1	94
381.055	1	84
381.397	1	74
381.739	1	67
382.080	1	73
382.422	1	66
382.764	1	64
383.105	1	56
383.447	1	60
383.789	1	52
384.130	1	49
384.472	1	51
384.814	1	56
385.156	1	41
385.497	1	51
385.839	1	53
386.180	1	49
386.522	1	52
386.864	1	49
387.205	1	43
387.547	1	39
387.889	1	41
388.230	1	41
388.572	1	32
388.914	1	34
389.255	1	27
389.597	1	30
389.939	1	28
390.280	1	39
390.622	1	28
390.963	1	46
391.305	1	30
391.647	1	23
391.988	1	21
392.330	1	39
392.671	1	25
393.013	1	19
393.355	1	28
393.696	1	23
394.038	1	25
394.379	1	21
394.721	1	9
395.062	1	28
395.404	1	15
395.746	1	20
396.087	1	17
396.429	1	27
396.770	1	9
397.112	1	20
397.453	1	28
397.795	1	14
398.136	1	5
398.478	1	23
398.819	1	22
399.161	1	21
399.503	1	13
399.844	1	5
400.186	1	13
400.527	1	15
400.869	1	13
401.210	1	11
401.552	1	0
401.893	1	12
402.235	1	19
402.576	1	10
402.918	1	17
403.259	1	16
403.601	1	7
403.942	1	11
404.284	1	11
404.625	1	14
404.967	1	20
405.308	1	13
405.649	1	9
405.991	1	-2
406.332	1	9
406.674	1	5
407.015	1	11
407.357	1	2
407.698	1	16
408.040	1	2
408.381	1	10
408.722	1	-9
409.064	1	3
409.405	1	11
409.747	1	14
410.088	1	8
410.430	1	1
410.771	1	8
411.112	1	7
411.454	1	3
411.795	1	7
412.137	1	12
412.478	1	16
412.819	1	-1
413.161	1	7
413.502	1	11
413.844	1	8
414.185	1	5
414.526	1	-1
414.868	1	5
415.209	1	-3
415.550	1	4
415.892	1	4
416.233	1	6
416.575	1	13
416.916	1	-1
417.257	1	2
417.599	1	3
417.940	1	19
418.281	1	11
418.623	1	-5
418.964	1	-8
419.305	1	3
419.647	1	-2
419.988	1	1
420.329	1	-3
420.671	1	6
421.012	1	-5
421.353	1	2
421.695	1	1
422.036	1	5
422.377	1	12
422.718	1	14
423.060	1	-5
423.401	1	6
423.742	1	7
424.084	1	13
424.425	1	13
424.766	1	1
425.107	1	0
425.449	1	1
425.790	1	-6
426.131	1	4
426.472	1	7
426.814	1	11
427.155	1	-3
427.496	1	1
427.837	1	-2
428.179	1	-5
428.520	1	0
428.861	1	3
429.202	1	-1
429.544	1	2
429.885	1	6
430.226	1	2
430.567	1	0
430.909	1	11
431.250	1	-3
431.591	1	23
431.932	1	-3
432.273	1	3
432.615	1	-4
432.956	1	-2
433.297	1	7
433.638	1	5
433.979	1	6
434.320	1	9
434.662	1	3
435.003	1	8
435.344	1	7
435.685	1	4
436.026	1	9
436.368	1	6
436.709	1	4
437.050	1	1
437.391	1	15
437.732	1	0
438.073	1	6
438.414	1	5
438.756	1	2
439.097	1	2
439.438	1	4
439.779	1	-3
440.120	1	-2
440.461	1	8
440.802	1	-1
441.143	1	12
441.485	1	6
441.826	1	4
442.167	1	0
442.508	1	-5
442.849	1	11
443.190	1	8
443.531	1	8
443.872	1	9
444.213	1	6
444.554	1	6
444.895	1	-1
445.237	1	2
445.578	1	2
445.919	1	-3
446.260	1	5
446.601	1	4
446.942	1	3
447.283	1	-5
447.624	1	3
447.965	1	3
448.306	1	3
448.647	1	-6
448.988	1	4
449.329	1	8
449.670	1	2
450.011	1	7
450.352	1	-2
450.693	1	3
451.034	1	3
451.375	1	-1
451.716	1	1
452.057	1	4
452.398	1	6
452.739	1	18
453.080	1	3
453.421	1	5
453.762	1	2
454.103	1	8
454.444	1	-7
454.785	1	-2
455.126	1	-10
455.467	1	7
455.808	1	3
456.149	1	2
456.490	1	12
456.831	1	7
457.172	1	5
457.513	1	9
457.854	1	3
458.195	1	0
458.536	1	14
458.877	1	9
459.218	1	4
459.559	1	7
459.899	1	-8
460.240	1	5
460.581	1	18
460.922	1	13
461.263	1	0
461.604	1	-5
461.945	1	5
462.286	1	7
462.627	1	20
462.968	1	14
463.309	1	-2
463.649	1	-3
463.990	1	1
464.331	1	4
464.672	1	12
465.013	1	3
465.354	1	9
465.695	1	1
466.036	1	-6
466.376	1	-2
466.717	1	12
467.058	1	-1
467.399	1	7
467.740	1	5
468.081	1	5
468.422	1	-1
468.762	1	2
469.103	1	-3
469.444	1	-5
469.785	1	-6
470.126	1	-5
470.467	1	4
470.807	1	12
471.148	1	5
471.489	1	2
471.830	1	7
472.171	1	1
472.511	1	0
472.852	1	8
473.193	1	8
473.534	1	8
473.875	1	23
474.215	1	18
474.556	1	9
474.897	1	10
475.238	1	1
475.578	1	-4
475.919	1	-3
476.260	1	5
476.601	1	5
476.942	1	10
477.282	1	3
477.623	1	-2
477.964	1	7
478.305	1	7
478.645	1	20
478.986	1	-2
479.327	1	4
479.667	1	10
480.008	1	7
480.349	1	-4
480.690	1	6
481.030	1	2
481.371	1	7
481.712	1	5
482.053	1	5
482.393	1	-1
482.734	1	4
483.075	1	0
483.415	1	16
483.756	1	16
484.097	1	1
484.437	1	-1
484.778	1	3
485.119	1	0
485.459	1	16
485.800	1	4
486.141	1	5
486.481	1	6
486.822	1	7
487.163	1	4
487.503	1	10
487.844	1	6
488.185	1	12
488.525	1	7
488.866	1	5
489.207	1	1
489.547	1	8
489.888	1	12
490.228	1	5
490.569	1	12
490.910	1	14
491.250	1	-1
491.591	1	6
491.932	1	4
492.272	1	11
492.613	1	6
492.953	1	11
493.294	1	5
493.635	1	3
493.975	1	15
494.316	1	8
494.656	1	7
494.997	1	8
495.337	1	20
495.678	1	8
496.019	1	5
496.359	1	1
496.700	1	5
497.040	1	4
497.381	1	7
497.721	1	8
498.062	1	18
498.403	1	14
498.743	1	3
499.084	1	14
499.424	1	13
499.765	1	12
500.105	1	14
500.446	1	9
500.786	1	3
501.127	1	15
501.467	1	8
501.808	1	17
502.148	1	12
502.489	1	16
502.829	1	17
503.170	1	29
503.510	1	25
503.851	1	9
504.191	1	18
504.532	1	18
504.872	1	10
505.213	1	25
505.553	1	7
505.894	1	4
506.234	1	23
506.575	1	7
506.915	1	14
507.256	1	21
507.596	1	18
507.936	1	16
508.277	1	10
508.617	1	9
508.958	1	1
509.298	1	25
509.639	1	12
509.979	1	13
510.319	1	19
510.660	1	14
511.000	1	10
511.341	1	18
511.681	1	24
512.022	1	12
512.362	1	4
512.702	1	12
513.043	1	27
513.383	1	5
513.724	1	16
514.064	1	22
514.404	1	9
514.745	1	13
515.085	1	16
515.425	1	20
515.766	1	17
516.106	1	13
516.447	1	25
516.787	1	15
517.127	1	21
517.468	1	21
517.808	1	17
518.148	1	16
518.489	1	22
518.829	1	21
519.169	1	19
519.510	1	25
519.850	1	14
520.190	1	10
520.531	1	21
520.871	1	22
521.211	1	0
521.552	1	34
521.892	1	18
522.232	1	24
522.573	1	20
522.913	1	26
523.253	1	21
523.593	1	17
523.934	1	25
524.274	1	30
524.614	1	17
524.955	1	17
525.295	1	25
525.635	1	21
525.975	1	27
526.316	1	30
526.656	1	29
526.996	1	29
527.337	1	23
527.677	1	32
528.017	1	14
528.357	1	23
528.698	1	24
529.038	1	26
529.378	1	27
529.718	1	34
530.058	1	20
530.399	1	22
530.739	1	23
531.079	1	32
531.419	1	37
531.760	1	26
532.100	1	21
532.440	1	30
532.780	1	32
533.120	1	32
533.461	1	32
533.801	1	44
534.141	1	12
534.481	1	22
534.821	1	33
535.162	1	23
535.502	1	29
535.842	1	30
536.182	1	21
536.522	1	30
536.862	1	28
537.203	1	19
537.543	1	24
537.883	1	25
538.223	1	24
538.563	1	30
538.903	1	23
539.243	1	26
539.584	1	17
539.924	1	28
540.264	1	24
540.604	1	37
540.944	1	19
541.284	1	28
541.624	1	35
541.964	1	29
542.305	1	43
542.645	1	20
542.985	1	28
543.325	1	38
543.665	1	30
544.005	1	29
544.345	1	33
544.685	1	31
545.025	1	28
545.365	1	29
545.705	1	32
546.045	1	27
546.386	1	31
546.726	1	24
547.066	1	30
547.406	1	34
547.746	1	14
548.086	1	39
548.426	1	23
548.766	1	36
549.106	1	33
549.446	1	28
549.786	1	30
550.126	1	40
550.466	1	42
550.806	1	27
551.146	1	34
551.486	1	27
551.826	1	34
552.166	1	25
552.506	1	38
552.846	1	35
553.186	1	31
553.526	1	27
553.866	1	33
554.206	1	41
554.546	1	30
554.886	1	34
555.226	1	20
555.566	1	41
555.906	1	39
556.246	1	35
556.586	1	35
556.926	1	35
557.266	1	23
557.606	1	46
557.946	1	44
558.286	1	36
558.626	1	32
558.966	1	30
559.306	1	30
559.646	1	24
559.986	1	22
560.325	1	25
560.665	1	30
561.005	1	24
561.345	1	27
561.685	1	28
562.025	1	27
562.365	1	34
562.705	1	27
563.045	1	26
563.385	1	13
563.725	1	32
564.064	1	31
564.404	1	38
564.744	1	39
565.084	1	37
565.424	1	30
565.764	1	19
566.104	1	33
566.444	1	17
566.783	1	28
567.123	1	33
567.463	1	41
567.803	1	20
568.143	1	28
568.483	1	34
568.823	1	29
569.162	1	25
569.502	1	32
569.842	1	39
570.182	1	29
570.522	1	22
570.862	1	31
571.201	1	37
571.541	1	39
571.881	1	38
572.221	1	30
572.561	1	31
572.900	1	21
573.240	1	24
573.580	1	36
573.920	1	36
574.260	1	40
574.599	1	30
574.939	1	36
575.279	1	36
575.619	1	39
575.959	1	29
576.298	1	23
576.638	1	24
576.978	1	40
577.318	1	37
577.657	1	33
577.997	1	23
578.337	1	41
578.677	1	29
579.016	1	31
579.356	1	21
579.696	1	40
580.036	1	20
580.375	1	31
580.715	1	22
581.055	1	21
581.394	1	30
581.734	1	26
582.074	1	28
582.414	1	41
582.753	1	16
583.093	1	21
583.433	1	24
583.772	1	40
584.112	1	16
584.452	1	35
584.791	1	28
585.131	1	35
585.471	1	35
585.811	1	37
586.150	1	28
586.490	1	32
586.830	1	25
587.169	1	35
587.509	1	26
587.849	1	29
588.188	1	38
588.528	1	33
588.867	1	35
589.207	1	31
589.547	1	31
589.886	1	19
590.226	1	29
590.566	1	21
590.905	1	19
591.245	1	30
591.585	1	30
591.924	1	26
592.264	1	25
592.603	1	28
592.943	1	33
593.283	1	17
593.622	1	15
593.962	1	21
594.301	1	30
594.641	1	15
594.981	1	14
595.320	1	21
595.660	1	25
595.999	1	13
596.339	1	27
596.678	1	21
597.018	1	14
597.358	1	22
597.697	1	26
598.037	1	24
598.376	1	23
598.716	1	27
599.055	1	31
599.395	1	14
599.734	1	24
600.074	1	17
600.413	1	28
600.753	1	38
601.092	1	19
601.432	1	12
601.771	1	27
602.111	1	14
602.451	1	24
602.790	1	22
603.130	1	20
603.469	1	16
603.809	1	24
604.148	1	28
604.487	1	23
604.827	1	29
605.166	1	18
605.506	1	25
605.845	1	28
606.185	1	19
606.524	1	25
606.864	1	18
607.203	1	18
607.543	1	23
607.882	1	29
608.222	1	32
608.561	1	22
608.901	1	39
609.240	1	25
609.579	1	19
609.919	1	35
610.258	1	31
610.598	1	19
610.937	1	12
611.277	1	22
611.616	1	18
611.955	1	13
612.295	1	22
612.634	1	16
612.974	1	4
613.313	1	35
613.652	1	19
613.992	1	21
614.331	1	14
614.671	1	14
615.010	1	13
615.349	1	32
615.689	1	30
616.028	1	10
616.368	1	20
616.707	1	19
617.046	1	18
617.386	1	16
617.725	1	11
618.064	1	14
618.404	1	10
618.743	1	18
619.082	1	16
619.422	1	12
619.761	1	24
620.100	1	19
620.440	1	14
620.779	1	9
621.118	1	12
621.458	1	15
621.797	1	12
622.136	1	22
622.476	1	26
622.815	1	20
623.154	1	19
623.494	1	33
623.833	1	21
624.172	1	2
624.511	1	9
624.851	1	8
625.190	1	16
625.529	1	16
625.869	1	24
626.208	1	13
626.547	1	12
626.886	1	15
627.226	1	14
627.565	1	13
627.904	1	12
628.243	1	21
628.583	1	11
628.922	1	12
629.261	1	20
629.600	1	13
629.940	1	17
630.279	1	9
630.618	1	25
630.957	1	13
631.297	1	9
631.636	1	11
631.975	1	20
632.314	1	7
632.653	1	22
632.993	1	15
633.332	1	20
633.671	1	10
634.010	1	0
634.349	1	20
634.689	1	15
635.028	1	18
635.367	1	5
635.706	1	13
636.045	1	21
636.384	1	12
636.724	1	16
637.063	1	7
637.402	1	12
637.741	1	13
638.080	1	9
638.419	1	0
638.759	1	1
639.098	1	17
639.437	1	11
639.776	1	12
640.115	1	13
640.454	1	7
640.793	1	24
641.132	1	14
641.472	1	10
641.811	1	10
642.150	1	0
642.489	1	10
642.828	1	6
643.167	1	11
643.506	1	9
643.845	1	12
644.184	1	17
644.524	1	8
644.863	1	9
645.202	1	17
645.541	1	11
645.880	1	8
646.219	1	15
646.558	1	8
646.897	1	7
647.236	1	17
647.575	1	9
647.914	1	17
648.253	1	23
648.592	1	4
648.931	1	27
649.270	1	14
649.610	1	5
649.949	1	8
650.288	1	12
650.627	1	5
650.966	1	13
651.305	1	6
651.644	1	21
651.983	1	5
652.322	1	11
652.661	1	6
653.000	1	6
653.339	1	23
653.678	1	5
654.017	1	4
654.356	1	6
654.695	1	6
655.034	1	7
655.373	1	14
655.712	1	8
656.051	1	22
656.390	1	-5
656.729	1	15
657.068	1	13
657.406	1	16
657.745	1	8
658.084	1	7
658.423	1	14
658.762	1	7
659.101	1	14
659.440	1	9
659.779	1	15
660.118	1	12
660.457	1	11
660.796	1	3
661.135	1	8
661.474	1	-3
661.813	1	10
662.152	1	1
662.491	1	3
662.829	1	6
663.168	1	13
663.507	1	14
663.846	1	1
664.185	1	9
664.524	1	-1
664.863	1	8
665.202	1	16
665.541	1	-3
665.879	1	4
666.218	1	4
666.557	1	7
666.896	1	9
667.235	1	7
667.574	1	8
667.913	1	12
668.251	1	4
668.590	1	15
668.929	1	1
669.268	1	1
669.607	1	-3
669.946	1	13
670.285	1	14
670.623	1	3
670.962	1	12
671.301	1	11
671.640	1	7
671.979	1	9
672.317	1	19
672.656	1	9
672.995	1	11
673.334	1	6
673.673	1	6
674.011	1	10
674.350	1	7
674.689	1	8
675.028	1	9
675.367	1	22
675.705	1	12
676.044	1	7
676.383	1	6
676.722	1	15
677.060	1	10
677.399	1	4
677.738	1	18
678.077	1	13
678.416	1	11
678.754	1	5
679.093	1	17
679.432	1	1
679.771	1	9
680.109	1	14
680.448	1	11
680.787	1	10
681.125	1	21
681.464	1	5
681.803	1	8
682.142	1	21
682.480	1	22
682.819	1	14
683.158	1	10
683.496	1	13
683.835	1	8
684.174	1	6
684.512	1	19
684.851	1	12
685.190	1	8
685.529	1	11
685.867	1	5
686.206	1	2
686.545	1	3
686.883	1	10
687.222	1	16
687.561	1	10
687.899	1	17
688.238	1	15
688.577	1	12
688.746	1	5