File: Data/GaN_200K_800ms/GaN_sample F_spot 12_UVVIS_200 K_200um_800 ms 2x2mm1_485.txt
340.368	1	-2
340.710	1	-12
341.052	1	3
341.394	1	-4
341.737	1	5
342.079	1	-1
342.421	1	-3
342.763	1	5
343.105	1	3
343.447	1	-10
343.789	1	-7
344.131	1	-6
344.473	1	1
344.815	1	-2
345.157	1	-6
345.499	1	-4
345.841	1	3
346.183	1	-6
346.526	1	-6
346.868	1	-2
347.210	1	-13
347.552	1	-5
347.894	1	-2
348.236	1	7
348.578	1	0
348.920	1	-2
349.262	1	-8
349.604	1	-3
349.946	1	-1
350.288	1	5
350.630	1	-6
350.972	1	-6
351.314	1	-1
351.656	1	15
351.998	1	-5
352.340	1	9
352.682	1	-5
353.024	1	6
353.366	1	13
353.708	1	4
354.050	1	-9
354.392	1	1
354.734	1	2
355.076	1	2
355.418	1	-5
355.760	1	1
356.102	1	13
356.444	1	-2
356.785	1	7
357.127	1	7
357.469	1	5
357.811	1	0
358.153	1	6
358.495	1	8
358.837	1	-2
359.179	1	1
359.521	1	6
359.863	1	-6
360.205	1	7
360.547	1	10
360.889	1	-5
361.231	1	-2
361.572	1	4
361.914	1	11
362.256	1	9
362.598	1	-1
362.940	1	3
363.282	1	7
363.624	1	6
363.966	1	-4
364.308	1	0
364.649	1	2
364.991	1	5
365.333	1	0
365.675	1	-4
366.017	1	7
366.359	1	8
366.701	1	10
367.042	1	13
367.384	1	11
367.726	1	11
368.068	1	5
368.410	1	21
368.752	1	12
369.093	1	2
369.435	1	18
369.777	1	4
370.119	1	7
370.461	1	10
370.803	1	9
371.144	1	5
371.486	1	10
371.828	1	12
372.170	1	2
372.512	1	3
372.853	1	5
373.195	1	-2
373.537	1	-2
373.879	1	3
374.220	1	6
374.562	1	12
374.904	1	6
375.246	1	7
375.588	1	6
375.929	1	8
376.271	1	12
376.613	1	5
376.955	1	-6
377.296	1	-4
377.638	1	3
377.980	1	2
378.321	1	-1
378.663	1	-4
379.005	1	17
379.347	1	6
379.688	1	6
380.030	1	-8
380.372	1	5
380.714	1	4
381.055	1	11
381.397	1	-6
381.739	1	8
382.080	1	4
382.422	1	-2
382.764	1	-2
383.105	1	-1
383.447	1	0
383.789	1	-5
384.130	1	0
384.472	1	9
384.814	1	3
385.156	1	-3
385.497	1	6
385.839	1	0
386.180	1	-1
386.522	1	-1
386.864	1	11
387.205	1	-1
387.547	1	-1
387.889	1	-3
388.230	1	1
388.572	1	-3
388.914	1	-3
389.255	1	-12
389.597	1	0
389.939	1	5
390.280	1	7
390.622	1	-8
390.963	1	2
391.305	1	0
391.647	1	1
391.988	1	-2
392.330	1	5
392.671	1	0
393.013	1	-9
393.355	1	-2
393.696	1	-4
394.038	1	0
394.379	1	-3
394.721	1	0
395.062	1	1
395.404	1	-4
395.746	1	3
396.087	1	-6
396.429	1	11
396.770	1	0
397.112	1	10
397.453	1	10
397.795	1	-3
398.136	1	-7
398.478	1	-2
398.819	1	2
399.161	1	11
399.503	1	-2
399.844	1	-5
400.186	1	-2
400.527	1	0
400.869	1	1
401.210	1	9
401.552	1	-13
401.893	1	-2
402.235	1	-10
402.576	1	7
402.918	1	-1
403.259	1	-3
403.601	1	0
403.942	1	13
404.284	1	8
404.625	1	-3
404.967	1	4
405.308	1	-1
405.649	1	-3
405.991	1	-3
406.332	1	2
406.674	1	-11
407.015	1	3
407.357	1	-14
407.698	1	9
408.040	1	-11
408.381	1	2
408.722	1	-11
409.064	1	-5
409.405	1	3
409.747	1	-4
410.088	1	5
410.430	1	10
410.771	1	10
411.112	1	-5
411.454	1	-13
411.795	1	-11
412.137	1	2
412.478	1	6
412.819	1	1
413.161	1	-10
413.502	1	-9
413.844	1	1
414.185	1	1
414.526	1	-4
414.868	1	-2
415.209	1	-1
415.550	1	-10
415.892	1	6
416.233	1	3
416.575	1	9
416.916	1	-12
417.257	1	1
417.599	1	1
417.940	1	10
418.281	1	4
418.623	1	-7
418.964	1	-11
419.305	1	9
419.647	1	6
419.988	1	-4
420.329	1	-6
420.671	1	-7
421.012	1	-4
421.353	1	-5
421.695	1	-8
422.036	1	11
422.377	1	-2
422.718	1	2
423.060	1	0
423.401	1	-1
423.742	1	3
424.084	1	-2
424.425	1	4
424.766	1	-5
425.107	1	-2
425.449	1	-10
425.790	1	-12
426.131	1	7
426.472	1	4
426.814	1	3
427.155	1	-5
427.496	1	-4
427.837	1	-6
428.179	1	-9
428.520	1	-4
428.861	1	-11
429.202	1	-6
429.544	1	-6
429.885	1	-1
430.226	1	-4
430.567	1	-1
430.909	1	1
431.250	1	2
431.591	1	-2
431.932	1	-2
432.273	1	-4
432.615	1	-10
432.956	1	-8
433.297	1	-2
433.638	1	-5
433.979	1	4
434.320	1	3
434.662	1	-2
435.003	1	-2
435.344	1	-5
435.685	1	-4
436.026	1	-1
436.368	1	6
436.709	1	8
437.050	1	-2
437.391	1	7
437.732	1	-7
438.073	1	-6
438.414	1	-7
438.756	1	-15
439.097	1	-7
439.438	1	-2
439.779	1	4
440.120	1	1
440.461	1	-1
440.802	1	-10
441.143	1	10
441.485	1	6
441.826	1	4
442.167	1	-2
442.508	1	-6
442.849	1	8
443.190	1	-4
443.531	1	-2
443.872	1	6
444.213	1	-6
444.554	1	3
444.895	1	0
445.237	1	0
445.578	1	-11
445.919	1	-4
446.260	1	-8
446.601	1	-1
446.942	1	1
447.283	1	-7
447.624	1	4
447.965	1	-8
448.306	1	0
448.647	1	-3
448.988	1	1
449.329	1	0
449.670	1	5
450.011	1	6
450.352	1	-8
450.693	1	-9
451.034	1	-3
451.375	1	7
451.716	1	3
452.057	1	-3
452.398	1	-6
452.739	1	-2
453.080	1	3
453.421	1	-6
453.762	1	-7
454.103	1	-4
454.444	1	-12
454.785	1	-1
455.126	1	-7
455.467	1	-4
455.808	1	-3
456.149	1	4
456.490	1	-7
456.831	1	5
457.172	1	-6
457.513	1	0
457.854	1	2
458.195	1	-3
458.536	1	-1
458.877	1	1
459.218	1	3
459.559	1	-3
459.899	1	3
460.240	1	3
460.581	1	10
460.922	1	4
461.263	1	-9
461.604	1	-4
461.945	1	2
462.286	1	-5
462.627	1	0
462.968	1	2
463.309	1	-15
463.649	1	1
463.990	1	4
464.331	1	-3
464.672	1	-8
465.013	1	-9
465.354	1	-1
465.695	1	-9
466.036	1	-10
466.376	1	-9
466.717	1	3
467.058	1	4
467.399	1	2
467.740	1	0
468.081	1	0
468.422	1	-11
468.762	1	-8
469.103	1	-10
469.444	1	-8
469.785	1	-4
470.126	1	-4
470.467	1	-11
470.807	1	-1
471.148	1	3
471.489	1	-5
471.830	1	-3
472.171	1	-4
472.511	1	-3
472.852	1	-9
473.193	1	6
473.534	1	5
473.875	1	7
474.215	1	9
474.556	1	9
474.897	1	-4
475.238	1	-2
475.578	1	-6
475.919	1	4
476.260	1	-1
476.601	1	1
476.942	1	4
477.282	1	-8
477.623	1	-12
477.964	1	-12
478.305	1	-8
478.645	1	6
478.986	1	-2
479.327	1	-8
479.667	1	4
480.008	1	-5
480.349	1	-5
480.690	1	3
481.030	1	-10
481.371	1	2
481.712	1	-7
482.053	1	2
482.393	1	-3
482.734	1	-7
483.075	1	3
483.415	1	-2
483.756	1	2
484.097	1	-3
484.437	1	-9
484.778	1	5
485.119	1	-12
485.459	1	13
485.800	1	-4
486.141	1	-2
486.481	1	-2
486.822	1	2
487.163	1	-6
487.503	1	-3
487.844	1	3
488.185	1	9
488.525	1	-7
488.866	1	-10
489.207	1	-4
489.547	1	-8
489.888	1	-8
490.228	1	4
490.569	1	1
490.910	1	0
491.250	1	-12
491.591	1	-8
491.932	1	-12
492.272	1	4
492.613	1	-7
492.953	1	-8
493.294	1	-4
493.635	1	-5
493.975	1	-3
494.316	1	7
494.656	1	-7
494.997	1	4
495.337	1	0
495.678	1	1
496.019	1	-7
496.359	1	-6
496.700	1	2
497.040	1	-9
497.381	1	0
497.721	1	-4
498.062	1	1
498.403	1	1
498.743	1	0
499.084	1	-5
499.424	1	7
499.765	1	2
500.105	1	-6
500.446	1	-4
500.786	1	-5
501.127	1	-9
501.467	1	-6
501.808	1	1
502.148	1	3
502.489	1	-4
502.829	1	6
503.170	1	3
503.510	1	5
503.851	1	-3
504.191	1	9
504.532	1	-4
504.872	1	-8
505.213	1	2
505.553	1	-12
505.894	1	-5
506.234	1	14
506.575	1	6
506.915	1	-3
507.256	1	0
507.596	1	-5
507.936	1	-6
508.277	1	7
508.617	1	0
508.958	1	-11
509.298	1	2
509.639	1	1
509.979	1	2
510.319	1	3
510.660	1	-2
511.000	1	-11
511.341	1	4
511.681	1	3
512.022	1	-7
512.362	1	-6
512.702	1	-5
513.043	1	0
513.383	1	-8
513.724	1	3
514.064	1	6
514.404	1	-8
514.745	1	-3
515.085	1	-4
515.425	1	-13
515.766	1	-9
516.106	1	-6
516.447	1	11
516.787	1	0
517.127	1	-2
517.468	1	1
517.808	1	-1
518.148	1	7
518.489	1	-1
518.829	1	2
519.169	1	2
519.510	1	3
519.850	1	4
520.190	1	-9
520.531	1	-5
520.871	1	3
521.211	1	-9
521.552	1	6
521.892	1	5
522.232	1	6
522.573	1	-2
522.913	1	1
523.253	1	1
523.593	1	-6
523.934	1	2
524.274	1	1
524.614	1	-2
524.955	1	-10
525.295	1	-3
525.635	1	-6
525.975	1	5
526.316	1	15
526.656	1	7
526.996	1	7
527.337	1	-9
527.677	1	4
528.017	1	-9
528.357	1	-4
528.698	1	-9
529.038	1	-7
529.378	1	6
529.718	1	5
530.058	1	-5
530.399	1	0
530.739	1	3
531.079	1	6
531.419	1	10
531.760	1	4
532.100	1	-10
532.440	1	1
532.780	1	-6
533.120	1	13
533.461	1	-1
533.801	1	9
534.141	1	-18
534.481	1	-7
534.821	1	2
535.162	1	2
535.502	1	-3
535.842	1	-1
536.182	1	6
536.522	1	1
536.862	1	1
537.203	1	-8
537.543	1	-6
537.883	1	-1
538.223	1	12
538.563	1	-8
538.903	1	-1
539.243	1	-2
539.584	1	-2
539.924	1	6
540.264	1	8
540.604	1	2
540.944	1	4
541.284	1	8
541.624	1	-1
541.964	1	5
542.305	1	3
542.645	1	-3
542.985	1	4
543.325	1	4
543.665	1	7
544.005	1	1
544.345	1	0
544.685	1	0
545.025	1	1
545.365	1	2
545.705	1	-3
546.045	1	0
546.386	1	1
546.726	1	-4
547.066	1	6
547.406	1	0
547.746	1	-14
548.086	1	-4
548.426	1	-4
548.766	1	-5
549.106	1	3
549.446	1	0
549.786	1	-6
550.126	1	10
550.466	1	1
550.806	1	-3
551.146	1	-6
551.486	1	2
551.826	1	0
552.166	1	4
552.506	1	8
552.846	1	-2
553.186	1	3
553.526	1	1
553.866	1	2
554.206	1	6
554.546	1	8
554.886	1	5
555.226	1	-9
555.566	1	6
555.906	1	10
556.246	1	4
556.586	1	-5
556.926	1	4
557.266	1	-8
557.606	1	5
557.946	1	11
558.286	1	3
558.626	1	3
558.966	1	0
559.306	1	-3
559.646	1	-7
559.986	1	-1
560.325	1	-3
560.665	1	9
561.005	1	-6
561.345	1	-4
561.685	1	-7
562.025	1	2
562.365	1	-1
562.705	1	-2
563.045	1	-12
563.385	1	-9
563.725	1	-2
564.064	1	-1
564.404	1	4
564.744	1	6
565.084	1	-10
565.424	1	0
565.764	1	-3
566.104	1	-3
566.444	1	1
566.783	1	-9
567.123	1	-9
567.463	1	5
567.803	1	-10
568.143	1	5
568.483	1	1
568.823	1	2
569.162	1	-1
569.502	1	-7
569.842	1	2
570.182	1	0
570.522	1	-19
570.862	1	-1
571.201	1	5
571.541	1	14
571.881	1	10
572.221	1	-2
572.561	1	0
572.900	1	-7
573.240	1	-7
573.580	1	-2
573.920	1	6
574.260	1	-4
574.599	1	-7
574.939	1	-5
575.279	1	8
575.619	1	-4
575.959	1	-8
576.298	1	11
576.638	1	-1
576.978	1	6
577.318	1	5
577.657	1	-11
577.997	1	-4
578.337	1	9
578.677	1	-5
579.016	1	12
579.356	1	-8
579.696	1	-2
580.036	1	-11
580.375	1	10
580.715	1	0
581.055	1	-8
581.394	1	1
581.734	1	-10
582.074	1	-7
582.414	1	9
582.753	1	-8
583.093	1	-11
583.433	1	-6
583.772	1	6
584.112	1	-1
584.452	1	6
584.791	1	1
585.131	1	1
585.471	1	6
585.811	1	11
586.150	1	0
586.490	1	2
586.830	1	-7
587.169	1	4
587.509	1	-3
587.849	1	-2
588.188	1	9
588.528	1	2
588.867	1	-1
589.207	1	9
589.547	1	1
589.886	1	-3
590.226	1	5
590.566	1	-7
590.905	1	5
591.245	1	0
591.585	1	-4
591.924	1	-1
592.264	1	9
592.603	1	4
592.943	1	9
593.283	1	-4
593.622	1	4
593.962	1	2
594.301	1	0
594.641	1	-3
594.981	1	-9
595.320	1	-4
595.660	1	2
595.999	1	-9
596.339	1	5
596.678	1	-9
597.018	1	-7
597.358	1	2
597.697	1	-3
598.037	1	1
598.376	1	4
598.716	1	-1
599.055	1	-9
599.395	1	-10
599.734	1	-8
600.074	1	-3
600.413	1	15
600.753	1	6
601.092	1	-2
601.432	1	-3
601.771	1	2
602.111	1	11
602.451	1	7
602.790	1	2
603.130	1	2
603.469	1	-8
603.809	1	0
604.148	1	-5
604.487	1	-2
604.827	1	6
605.166	1	4
605.506	1	4
605.845	1	2
606.185	1	8
606.524	1	-4
606.864	1	-2
607.203	1	-6
607.543	1	-5
607.882	1	3
608.222	1	6
608.561	1	-3
608.901	1	4
609.240	1	-8
609.579	1	4
609.919	1	3
610.258	1	2
610.598	1	-5
610.937	1	6
611.277	1	2
611.616	1	0
611.955	1	-2
612.295	1	-14
612.634	1	0
612.974	1	-6
613.313	1	1
613.652	1	-4
613.992	1	-3
614.331	1	-4
614.671	1	1
615.010	1	-9
615.349	1	5
615.689	1	10
616.028	1	0
616.368	1	0
616.707	1	0
617.046	1	4
617.386	1	3
617.725	1	-4
618.064	1	-6
618.404	1	1
618.743	1	0
619.082	1	7
619.422	1	-9
619.761	1	3
620.100	1	6
620.440	1	0
620.779	1	-2
621.118	1	-3
621.458	1	5
621.797	1	-3
622.136	1	11
622.476	1	-1
622.815	1	13
623.154	1	6
623.494	1	3
623.833	1	6
624.172	1	-3
624.511	1	-1
624.851	1	-11
625.190	1	4
625.529	1	-7
625.869	1	0
626.208	1	3
626.547	1	-10
626.886	1	8
627.226	1	1
627.565	1	4
627.904	1	-9
628.243	1	12
628.583	1	2
628.922	1	11
629.261	1	5
629.600	1	0
629.940	1	1
630.279	1	-7
630.618	1	13
630.957	1	4
631.297	1	4
631.636	1	-4
631.975	1	4
632.314	1	3
632.653	1	2
632.993	1	-14
633.332	1	5
633.671	1	-6
634.010	1	-3
634.349	1	6
634.689	1	-6
635.028	1	-2
635.367	1	0
635.706	1	-3
636.045	1	7
636.384	1	-6
636.724	1	2
637.063	1	-4
637.402	1	2
637.741	1	-2
638.080	1	5
638.419	1	-1
638.759	1	0
639.098	1	3
639.437	1	7
639.776	1	-6
640.115	1	-6
640.454	1	-6
640.793	1	7
641.132	1	4
641.472	1	-7
641.811	1	-8
642.150	1	-13
642.489	1	2
642.828	1	-6
643.167	1	-5
643.506	1	-10
643.845	1	-5
644.184	1	2
644.524	1	-6
644.863	1	-5
645.202	1	0
645.541	1	0
645.880	1	-3
646.219	1	-3
646.558	1	3
646.897	1	-3
647.236	1	3
647.575	1	4
647.914	1	-7
648.253	1	8
648.592	1	-5
648.931	1	9
649.270	1	-3
649.610	1	-5
649.949	1	-6
650.288	1	-3
650.627	1	6
650.966	1	-4
651.305	1	1
651.644	1	14
651.983	1	-3
652.322	1	2
652.661	1	-2
653.000	1	-6
653.339	1	-2
653.678	1	3
654.017	1	-2
654.356	1	-5
654.695	1	0
655.034	1	-6
655.373	1	-7
655.712	1	10
656.051	1	1
656.390	1	-2
656.729	1	5
657.068	1	-1
657.406	1	-3
657.745	1	-5
658.084	1	4
658.423	1	6
658.762	1	2
659.101	1	2
659.440	1	5
659.779	1	-5
660.118	1	4
660.457	1	1
660.796	1	-17
661.135	1	-10
661.474	1	-3
661.813	1	5
662.152	1	8
662.491	1	-10
662.829	1	-4
663.168	1	2
663.507	1	4
663.846	1	-5
664.185	1	2
664.524	1	2
664.863	1	-7
665.202	1	-1
665.541	1	-9
665.879	1	-7
666.218	1	-12
666.557	1	-4
666.896	1	-7
667.235	1	5
667.574	1	-6
667.913	1	4
668.251	1	-7
668.590	1	5
668.929	1	-18
669.268	1	1
669.607	1	1
669.946	1	3
670.285	1	7
670.623	1	4
670.962	1	5
671.301	1	2
671.640	1	4
671.979	1	4
672.317	1	4
672.656	1	1
672.995	1	0
673.334	1	1
673.673	1	-6
674.011	1	1
674.350	1	-6
674.689	1	-2
675.028	1	-11
675.367	1	0
675.705	1	6
676.044	1	-4
676.383	1	1
676.722	1	-6
677.060	1	-5
677.399	1	1
677.738	1	-3
678.077	1	1
678.416	1	-7
678.754	1	-4
679.093	1	4
679.432	1	1
679.771	1	-4
680.109	1	3
680.448	1	3
680.787	1	-6
681.125	1	11
681.464	1	-3
681.803	1	-1
682.142	1	2
682.480	1	4
682.819	1	-4
683.158	1	-1
683.496	1	-3
683.835	1	-3
684.174	1	-1
684.512	1	1
684.851	1	0
685.190	1	-6
685.529	1	5
685.867	1	3
686.206	1	-6
686.545	1	7
686.883	1	-5
687.222	1	4
687.561	1	4
687.899	1	0
688.238	1	1
688.577	1	8
688.746	1	-1