File: Data/GaN_200K_800ms/GaN_sample F_spot 12_UVVIS_200 K_200um_800 ms 2x2mm1_142.txt
340.368	1	1
340.710	1	-11
341.052	1	16
341.394	1	-9
341.737	1	-2
342.079	1	-3
342.421	1	5
342.763	1	6
343.105	1	4
343.447	1	-3
343.789	1	7
344.131	1	1
344.473	1	-2
344.815	1	3
345.157	1	-2
345.499	1	1
345.841	1	8
346.183	1	-2
346.526	1	1
346.868	1	4
347.210	1	-14
347.552	1	-2
347.894	1	1
348.236	1	9
348.578	1	3
348.920	1	-1
349.262	1	-6
349.604	1	6
349.946	1	5
350.288	1	9
350.630	1	9
350.972	1	1
351.314	1	2
351.656	1	10
351.998	1	13
352.340	1	0
352.682	1	7
353.024	1	6
353.366	1	14
353.708	1	15
354.050	1	-1
354.392	1	7
354.734	1	8
355.076	1	2
355.418	1	-10
355.760	1	0
356.102	1	11
356.444	1	5
356.785	1	12
357.127	1	-5
357.469	1	7
357.811	1	15
358.153	1	11
358.495	1	9
358.837	1	-5
359.179	1	7
359.521	1	8
359.863	1	13
360.205	1	-4
360.547	1	9
360.889	1	-2
361.231	1	19
361.572	1	16
361.914	1	11
362.256	1	17
362.598	1	15
362.940	1	18
363.282	1	24
363.624	1	32
363.966	1	17
364.308	1	24
364.649	1	29
364.991	1	23
365.333	1	22
365.675	1	28
366.017	1	44
366.359	1	44
366.701	1	42
367.042	1	44
367.384	1	52
367.726	1	53
368.068	1	41
368.410	1	66
368.752	1	44
369.093	1	44
369.435	1	66
369.777	1	47
370.119	1	51
370.461	1	61
370.803	1	51
371.144	1	49
371.486	1	52
371.828	1	57
372.170	1	45
372.512	1	31
372.853	1	53
373.195	1	37
373.537	1	43
373.879	1	29
374.220	1	51
374.562	1	49
374.904	1	29
375.246	1	35
375.588	1	38
375.929	1	39
376.271	1	41
376.613	1	27
376.955	1	29
377.296	1	26
377.638	1	36
377.980	1	37
378.321	1	21
378.663	1	11
379.005	1	34
379.347	1	29
379.688	1	22
380.030	1	16
380.372	1	21
380.714	1	25
381.055	1	23
381.397	1	13
381.739	1	20
382.080	1	8
382.422	1	17
382.764	1	8
383.105	1	7
383.447	1	8
383.789	1	-1
384.130	1	15
384.472	1	12
384.814	1	9
385.156	1	9
385.497	1	18
385.839	1	13
386.180	1	6
386.522	1	18
386.864	1	8
387.205	1	12
387.547	1	8
387.889	1	9
388.230	1	20
388.572	1	-2
388.914	1	15
389.255	1	3
389.597	1	12
389.939	1	2
390.280	1	10
390.622	1	4
390.963	1	13
391.305	1	9
391.647	1	1
391.988	1	10
392.330	1	10
392.671	1	4
393.013	1	9
393.355	1	5
393.696	1	15
394.038	1	7
394.379	1	8
394.721	1	-3
395.062	1	3
395.404	1	-1
395.746	1	10
396.087	1	10
396.429	1	6
396.770	1	-5
397.112	1	10
397.453	1	16
397.795	1	6
398.136	1	1
398.478	1	9
398.819	1	7
399.161	1	12
399.503	1	0
399.844	1	-4
400.186	1	-3
400.527	1	9
400.869	1	-2
401.210	1	9
401.552	1	-4
401.893	1	3
402.235	1	5
402.576	1	-1
402.918	1	2
403.259	1	3
403.601	1	0
403.942	1	8
404.284	1	3
404.625	1	14
404.967	1	7
405.308	1	4
405.649	1	0
405.991	1	2
406.332	1	6
406.674	1	-4
407.015	1	14
407.357	1	-2
407.698	1	6
408.040	1	3
408.381	1	9
408.722	1	-8
409.064	1	1
409.405	1	6
409.747	1	-2
410.088	1	2
410.430	1	6
410.771	1	4
411.112	1	-10
411.454	1	0
411.795	1	2
412.137	1	2
412.478	1	18
412.819	1	-1
413.161	1	-3
413.502	1	-4
413.844	1	4
414.185	1	7
414.526	1	-2
414.868	1	7
415.209	1	3
415.550	1	3
415.892	1	7
416.233	1	2
416.575	1	13
416.916	1	-13
417.257	1	-4
417.599	1	7
417.940	1	12
418.281	1	6
418.623	1	-1
418.964	1	-11
419.305	1	3
419.647	1	0
419.988	1	5
420.329	1	3
420.671	1	2
421.012	1	4
421.353	1	-4
421.695	1	4
422.036	1	0
422.377	1	3
422.718	1	4
423.060	1	-5
423.401	1	14
423.742	1	5
424.084	1	4
424.425	1	1
424.766	1	1
425.107	1	-1
425.449	1	5
425.790	1	0
426.131	1	-1
426.472	1	1
426.814	1	10
427.155	1	1
427.496	1	-8
427.837	1	-1
428.179	1	-7
428.520	1	2
428.861	1	1
429.202	1	1
429.544	1	4
429.885	1	6
430.226	1	-3
430.567	1	-5
430.909	1	7
431.250	1	1
431.591	1	14
431.932	1	-1
432.273	1	-3
432.615	1	-6
432.956	1	-11
433.297	1	-3
433.638	1	4
433.979	1	4
434.320	1	1
434.662	1	-1
435.003	1	3
435.344	1	0
435.685	1	-6
436.026	1	-2
436.368	1	-1
436.709	1	-5
437.050	1	-6
437.391	1	5
437.732	1	-5
438.073	1	2
438.414	1	8
438.756	1	1
439.097	1	-5
439.438	1	-7
439.779	1	4
440.120	1	-3
440.461	1	5
440.802	1	9
441.143	1	9
441.485	1	11
441.826	1	-9
442.167	1	8
442.508	1	-10
442.849	1	5
443.190	1	6
443.531	1	1
443.872	1	6
444.213	1	1
444.554	1	13
444.895	1	-1
445.237	1	-2
445.578	1	-10
445.919	1	-14
446.260	1	2
446.601	1	7
446.942	1	-3
447.283	1	-4
447.624	1	0
447.965	1	7
448.306	1	-3
448.647	1	-6
448.988	1	2
449.329	1	-1
449.670	1	15
450.011	1	4
450.352	1	-1
450.693	1	-1
451.034	1	3
451.375	1	4
451.716	1	3
452.057	1	-3
452.398	1	-10
452.739	1	3
453.080	1	3
453.421	1	2
453.762	1	2
454.103	1	0
454.444	1	-5
454.785	1	-4
455.126	1	-6
455.467	1	5
455.808	1	-8
456.149	1	6
456.490	1	1
456.831	1	6
457.172	1	1
457.513	1	1
457.854	1	4
458.195	1	-6
458.536	1	7
458.877	1	-1
459.218	1	-4
459.559	1	0
459.899	1	3
460.240	1	9
460.581	1	2
460.922	1	5
461.263	1	-8
461.604	1	-2
461.945	1	1
462.286	1	-4
462.627	1	13
462.968	1	5
463.309	1	-7
463.649	1	-6
463.990	1	-1
464.331	1	1
464.672	1	2
465.013	1	-2
465.354	1	1
465.695	1	2
466.036	1	-2
466.376	1	-6
466.717	1	4
467.058	1	-6
467.399	1	8
467.740	1	2
468.081	1	4
468.422	1	-3
468.762	1	-8
469.103	1	-6
469.444	1	-4
469.785	1	-6
470.126	1	-3
470.467	1	0
470.807	1	9
471.148	1	5
471.489	1	-7
471.830	1	4
472.171	1	4
472.511	1	-7
472.852	1	5
473.193	1	0
473.534	1	9
473.875	1	20
474.215	1	11
474.556	1	4
474.897	1	7
475.238	1	-2
475.578	1	-3
475.919	1	-4
476.260	1	11
476.601	1	5
476.942	1	13
477.282	1	-3
477.623	1	-6
477.964	1	-3
478.305	1	5
478.645	1	13
478.986	1	1
479.327	1	-4
479.667	1	-1
480.008	1	0
480.349	1	-5
480.690	1	-6
481.030	1	-4
481.371	1	1
481.712	1	1
482.053	1	3
482.393	1	-2
482.734	1	-5
483.075	1	-1
483.415	1	3
483.756	1	9
484.097	1	1
484.437	1	-6
484.778	1	3
485.119	1	1
485.459	1	15
485.800	1	7
486.141	1	6
486.481	1	-2
486.822	1	5
487.163	1	-1
487.503	1	-4
487.844	1	2
488.185	1	-8
488.525	1	0
488.866	1	3
489.207	1	-5
489.547	1	3
489.888	1	-3
490.228	1	9
490.569	1	10
490.910	1	0
491.250	1	0
491.591	1	-2
491.932	1	-2
492.272	1	0
492.613	1	-5
492.953	1	-1
493.294	1	6
493.635	1	-4
493.975	1	-7
494.316	1	4
494.656	1	2
494.997	1	-6
495.337	1	-1
495.678	1	5
496.019	1	-6
496.359	1	-2
496.700	1	-1
497.040	1	6
497.381	1	-7
497.721	1	1
498.062	1	3
498.403	1	7
498.743	1	2
499.084	1	3
499.424	1	8
499.765	1	-3
500.105	1	-2
500.446	1	-7
500.786	1	-13
501.127	1	7
501.467	1	-5
501.808	1	-2
502.148	1	1
502.489	1	5
502.829	1	-3
503.170	1	4
503.510	1	-2
503.851	1	-3
504.191	1	5
504.532	1	8
504.872	1	6
505.213	1	9
505.553	1	-4
505.894	1	-4
506.234	1	4
506.575	1	4
506.915	1	1
507.256	1	3
507.596	1	0
507.936	1	4
508.277	1	0
508.617	1	7
508.958	1	-8
509.298	1	10
509.639	1	-3
509.979	1	1
510.319	1	3
510.660	1	8
511.000	1	1
511.341	1	-1
511.681	1	12
512.022	1	-11
512.362	1	-2
512.702	1	2
513.043	1	17
513.383	1	-4
513.724	1	7
514.064	1	12
514.404	1	-7
514.745	1	2
515.085	1	-2
515.425	1	3
515.766	1	-4
516.106	1	7
516.447	1	11
516.787	1	11
517.127	1	4
517.468	1	1
517.808	1	5
518.148	1	7
518.489	1	-5
518.829	1	8
519.169	1	1
519.510	1	7
519.850	1	16
520.190	1	6
520.531	1	17
520.871	1	-3
521.211	1	0
521.552	1	11
521.892	1	7
522.232	1	6
522.573	1	9
522.913	1	13
523.253	1	9
523.593	1	-4
523.934	1	-2
524.274	1	8
524.614	1	5
524.955	1	-1
525.295	1	1
525.635	1	-4
525.975	1	14
526.316	1	4
526.656	1	-6
526.996	1	12
527.337	1	7
527.677	1	12
528.017	1	-12
528.357	1	5
528.698	1	3
529.038	1	2
529.378	1	4
529.718	1	4
530.058	1	9
530.399	1	18
530.739	1	1
531.079	1	5
531.419	1	7
531.760	1	15
532.100	1	5
532.440	1	11
532.780	1	4
533.120	1	12
533.461	1	2
533.801	1	14
534.141	1	0
534.481	1	-10
534.821	1	10
535.162	1	11
535.502	1	3
535.842	1	7
536.182	1	-5
536.522	1	3
536.862	1	6
537.203	1	0
537.543	1	7
537.883	1	-4
538.223	1	-1
538.563	1	4
538.903	1	-7
539.243	1	4
539.584	1	1
539.924	1	16
540.264	1	-2
540.604	1	9
540.944	1	1
541.284	1	13
541.624	1	9
541.964	1	13
542.305	1	11
542.645	1	4
542.985	1	16
543.325	1	-6
543.665	1	15
544.005	1	7
544.345	1	7
544.685	1	7
545.025	1	8
545.365	1	1
545.705	1	-3
546.045	1	9
546.386	1	12
546.726	1	-7
547.066	1	6
547.406	1	10
547.746	1	1
548.086	1	8
548.426	1	8
548.766	1	6
549.106	1	8
549.446	1	7
549.786	1	8
550.126	1	15
550.466	1	5
550.806	1	-3
551.146	1	1
551.486	1	10
551.826	1	9
552.166	1	7
552.506	1	8
552.846	1	5
553.186	1	15
553.526	1	-4
553.866	1	12
554.206	1	15
554.546	1	8
554.886	1	13
555.226	1	-4
555.566	1	6
555.906	1	5
556.246	1	5
556.586	1	9
556.926	1	3
557.266	1	4
557.606	1	8
557.946	1	13
558.286	1	1
558.626	1	10
558.966	1	7
559.306	1	-4
559.646	1	-3
559.986	1	2
560.325	1	-1
560.665	1	4
561.005	1	-2
561.345	1	-2
561.685	1	-3
562.025	1	5
562.365	1	9
562.705	1	5
563.045	1	6
563.385	1	-6
563.725	1	-3
564.064	1	5
564.404	1	9
564.744	1	7
565.084	1	5
565.424	1	3
565.764	1	2
566.104	1	0
566.444	1	-3
566.783	1	3
567.123	1	4
567.463	1	6
567.803	1	0
568.143	1	6
568.483	1	11
568.823	1	3
569.162	1	17
569.502	1	7
569.842	1	7
570.182	1	4
570.522	1	4
570.862	1	-1
571.201	1	10
571.541	1	10
571.881	1	12
572.221	1	-2
572.561	1	1
572.900	1	2
573.240	1	2
573.580	1	2
573.920	1	10
574.260	1	15
574.599	1	8
574.939	1	7
575.279	1	19
575.619	1	0
575.959	1	2
576.298	1	18
576.638	1	-7
576.978	1	13
577.318	1	11
577.657	1	1
577.997	1	-5
578.337	1	7
578.677	1	8
579.016	1	14
579.356	1	1
579.696	1	14
580.036	1	-2
580.375	1	5
580.715	1	0
581.055	1	3
581.394	1	11
581.734	1	-1
582.074	1	11
582.414	1	15
582.753	1	5
583.093	1	11
583.433	1	2
583.772	1	9
584.112	1	1
584.452	1	4
584.791	1	5
585.131	1	3
585.471	1	13
585.811	1	6
586.150	1	16
586.490	1	8
586.830	1	2
587.169	1	6
587.509	1	4
587.849	1	9
588.188	1	14
588.528	1	9
588.867	1	19
589.207	1	9
589.547	1	8
589.886	1	-3
590.226	1	12
590.566	1	2
590.905	1	-6
591.245	1	0
591.585	1	8
591.924	1	5
592.264	1	10
592.603	1	12
592.943	1	4
593.283	1	5
593.622	1	5
593.962	1	10
594.301	1	16
594.641	1	1
594.981	1	-1
595.320	1	1
595.660	1	5
595.999	1	1
596.339	1	-5
596.678	1	-4
597.018	1	7
597.358	1	8
597.697	1	5
598.037	1	-1
598.376	1	13
598.716	1	13
599.055	1	17
599.395	1	5
599.734	1	2
600.074	1	1
600.413	1	15
600.753	1	3
601.092	1	6
601.432	1	2
601.771	1	9
602.111	1	6
602.451	1	14
602.790	1	8
603.130	1	15
603.469	1	-6
603.809	1	9
604.148	1	1
604.487	1	3
604.827	1	4
605.166	1	7
605.506	1	11
605.845	1	-1
606.185	1	16
606.524	1	-2
606.864	1	5
607.203	1	0
607.543	1	11
607.882	1	7
608.222	1	3
608.561	1	0
608.901	1	4
609.240	1	6
609.579	1	12
609.919	1	5
610.258	1	15
610.598	1	3
610.937	1	10
611.277	1	1
611.616	1	2
611.955	1	1
612.295	1	-1
612.634	1	7
612.974	1	-2
613.313	1	4
613.652	1	7
613.992	1	2
614.331	1	7
614.671	1	12
615.010	1	-5
615.349	1	16
615.689	1	14
616.028	1	11
616.368	1	3
616.707	1	-2
617.046	1	7
617.386	1	7
617.725	1	3
618.064	1	7
618.404	1	2
618.743	1	7
619.082	1	4
619.422	1	-1
619.761	1	8
620.100	1	6
620.440	1	-3
620.779	1	-3
621.118	1	1
621.458	1	5
621.797	1	4
622.136	1	8
622.476	1	11
622.815	1	12
623.154	1	9
623.494	1	8
623.833	1	7
624.172	1	3
624.511	1	-2
624.851	1	-7
625.190	1	8
625.529	1	2
625.869	1	10
626.208	1	7
626.547	1	7
626.886	1	3
627.226	1	-1
627.565	1	-4
627.904	1	3
628.243	1	5
628.583	1	2
628.922	1	2
629.261	1	11
629.600	1	3
629.940	1	0
630.279	1	-14
630.618	1	-1
630.957	1	4
631.297	1	6
631.636	1	-8
631.975	1	18
632.314	1	0
632.653	1	0
632.993	1	1
633.332	1	9
633.671	1	6
634.010	1	1
634.349	1	9
634.689	1	4
635.028	1	9
635.367	1	5
635.706	1	7
636.045	1	8
636.384	1	9
636.724	1	1
637.063	1	-2
637.402	1	12
637.741	1	6
638.080	1	-4
638.419	1	-1
638.759	1	-7
639.098	1	18
639.437	1	4
639.776	1	2
640.115	1	-3
640.454	1	4
640.793	1	11
641.132	1	13
641.472	1	4
641.811	1	-3
642.150	1	-7
642.489	1	12
642.828	1	3
643.167	1	5
643.506	1	-5
643.845	1	11
644.184	1	9
644.524	1	7
644.863	1	2
645.202	1	1
645.541	1	0
645.880	1	0
646.219	1	3
646.558	1	-4
646.897	1	1
647.236	1	3
647.575	1	8
647.914	1	1
648.253	1	12
648.592	1	-2
648.931	1	17
649.270	1	9
649.610	1	1
649.949	1	-2
650.288	1	10
650.627	1	5
650.966	1	10
651.305	1	3
651.644	1	11
651.983	1	2
652.322	1	-2
652.661	1	-5
653.000	1	7
653.339	1	3
653.678	1	-1
654.017	1	4
654.356	1	-4
654.695	1	5
655.034	1	7
655.373	1	4
655.712	1	-2
656.051	1	8
656.390	1	-8
656.729	1	7
657.068	1	2
657.406	1	-3
657.745	1	2
658.084	1	1
658.423	1	3
658.762	1	3
659.101	1	13
659.440	1	7
659.779	1	-4
660.118	1	0
660.457	1	-7
660.796	1	-5
661.135	1	1
661.474	1	2
661.813	1	9
662.152	1	3
662.491	1	-5
662.829	1	-4
663.168	1	5
663.507	1	9
663.846	1	0
664.185	1	7
664.524	1	3
664.863	1	-3
665.202	1	7
665.541	1	-13
665.879	1	-14
666.218	1	-2
666.557	1	-1
666.896	1	-6
667.235	1	5
667.574	1	-2
667.913	1	11
668.251	1	7
668.590	1	4
668.929	1	-13
669.268	1	8
669.607	1	-6
669.946	1	11
670.285	1	9
670.623	1	-1
670.962	1	13
671.301	1	1
671.640	1	10
671.979	1	1
672.317	1	4
672.656	1	10
672.995	1	6
673.334	1	-2
673.673	1	10
674.011	1	-3
674.350	1	-1
674.689	1	-5
675.028	1	0
675.367	1	6
675.705	1	4
676.044	1	0
676.383	1	1
676.722	1	6
677.060	1	-6
677.399	1	-9
677.738	1	9
678.077	1	11
678.416	1	7
678.754	1	-2
679.093	1	2
679.432	1	5
679.771	1	4
680.109	1	13
680.448	1	-1
680.787	1	-6
681.125	1	3
681.464	1	-5
681.803	1	5
682.142	1	9
682.480	1	14
682.819	1	-2
683.158	1	3
683.496	1	7
683.835	1	7
684.174	1	-1
684.512	1	7
684.851	1	-3
685.190	1	-1
685.529	1	4
685.867	1	8
686.206	1	-7
686.545	1	-7
686.883	1	-2
687.222	1	11
687.561	1	8
687.899	1	0
688.238	1	5
688.577	1	2
688.746	1	-1