File: Data/GaN_200K_800ms/GaN_sample F_spot 12_UVVIS_200 K_200um_800 ms 2x2mm1_323.txt
340.368	1	9
340.710	1	-5
341.052	1	5
341.394	1	-9
341.737	1	3
342.079	1	-8
342.421	1	-1
342.763	1	4
343.105	1	-2
343.447	1	-5
343.789	1	-12
344.131	1	-5
344.473	1	-3
344.815	1	0
345.157	1	0
345.499	1	2
345.841	1	5
346.183	1	-5
346.526	1	-7
346.868	1	-1
347.210	1	-12
347.552	1	-1
347.894	1	4
348.236	1	3
348.578	1	-2
348.920	1	2
349.262	1	-9
349.604	1	4
349.946	1	-9
350.288	1	1
350.630	1	2
350.972	1	-8
351.314	1	-5
351.656	1	-1
351.998	1	2
352.340	1	9
352.682	1	7
353.024	1	-2
353.366	1	12
353.708	1	-5
354.050	1	-2
354.392	1	-3
354.734	1	-1
355.076	1	-4
355.418	1	-11
355.760	1	-6
356.102	1	2
356.444	1	5
356.785	1	3
357.127	1	9
357.469	1	0
357.811	1	2
358.153	1	8
358.495	1	9
358.837	1	-5
359.179	1	-1
359.521	1	7
359.863	1	-2
360.205	1	1
360.547	1	4
360.889	1	-2
361.231	1	1
361.572	1	10
361.914	1	5
362.256	1	7
362.598	1	-4
362.940	1	1
363.282	1	5
363.624	1	6
363.966	1	5
364.308	1	3
364.649	1	11
364.991	1	3
365.333	1	4
365.675	1	1
366.017	1	4
366.359	1	10
366.701	1	12
367.042	1	20
367.384	1	21
367.726	1	19
368.068	1	19
368.410	1	26
368.752	1	5
369.093	1	11
369.435	1	21
369.777	1	21
370.119	1	10
370.461	1	28
370.803	1	10
371.144	1	11
371.486	1	26
371.828	1	19
372.170	1	11
372.512	1	8
372.853	1	13
373.195	1	5
373.537	1	15
373.879	1	1
374.220	1	24
374.562	1	24
374.904	1	8
375.246	1	15
375.588	1	6
375.929	1	19
376.271	1	13
376.613	1	0
376.955	1	6
377.296	1	5
377.638	1	12
377.980	1	7
378.321	1	-4
378.663	1	-7
379.005	1	8
379.347	1	10
379.688	1	10
380.030	1	3
380.372	1	-4
380.714	1	6
381.055	1	13
381.397	1	6
381.739	1	5
382.080	1	10
382.422	1	10
382.764	1	-2
383.105	1	-5
383.447	1	3
383.789	1	-5
384.130	1	4
384.472	1	8
384.814	1	-4
385.156	1	0
385.497	1	8
385.839	1	6
386.180	1	-8
386.522	1	8
386.864	1	4
387.205	1	-4
387.547	1	-6
387.889	1	-7
388.230	1	4
388.572	1	2
388.914	1	1
389.255	1	3
389.597	1	3
389.939	1	1
390.280	1	4
390.622	1	5
390.963	1	12
391.305	1	7
391.647	1	-2
391.988	1	-2
392.330	1	10
392.671	1	-3
393.013	1	3
393.355	1	5
393.696	1	7
394.038	1	11
394.379	1	5
394.721	1	1
395.062	1	7
395.404	1	-10
395.746	1	15
396.087	1	-6
396.429	1	0
396.770	1	-5
397.112	1	5
397.453	1	9
397.795	1	0
398.136	1	-9
398.478	1	13
398.819	1	7
399.161	1	10
399.503	1	-1
399.844	1	3
400.186	1	-5
400.527	1	-1
400.869	1	1
401.210	1	5
401.552	1	-7
401.893	1	-2
402.235	1	3
402.576	1	-1
402.918	1	12
403.259	1	2
403.601	1	-6
403.942	1	13
404.284	1	3
404.625	1	4
404.967	1	12
405.308	1	8
405.649	1	-2
405.991	1	-6
406.332	1	3
406.674	1	-10
407.015	1	3
407.357	1	-1
407.698	1	9
408.040	1	-4
408.381	1	-2
408.722	1	-10
409.064	1	-6
409.405	1	6
409.747	1	-4
410.088	1	-3
410.430	1	5
410.771	1	-2
411.112	1	-9
411.454	1	-4
411.795	1	1
412.137	1	-10
412.478	1	8
412.819	1	-6
413.161	1	-4
413.502	1	-1
413.844	1	-5
414.185	1	0
414.526	1	-5
414.868	1	4
415.209	1	-3
415.550	1	-6
415.892	1	-5
416.233	1	4
416.575	1	16
416.916	1	-1
417.257	1	4
417.599	1	-1
417.940	1	11
418.281	1	0
418.623	1	-1
418.964	1	-15
419.305	1	-3
419.647	1	0
419.988	1	-3
420.329	1	-11
420.671	1	3
421.012	1	-2
421.353	1	-6
421.695	1	3
422.036	1	6
422.377	1	3
422.718	1	2
423.060	1	-5
423.401	1	-1
423.742	1	-3
424.084	1	-3
424.425	1	4
424.766	1	2
425.107	1	-5
425.449	1	1
425.790	1	-8
426.131	1	4
426.472	1	3
426.814	1	6
427.155	1	0
427.496	1	3
427.837	1	-7
428.179	1	1
428.520	1	0
428.861	1	-4
429.202	1	6
429.544	1	-2
429.885	1	-5
430.226	1	-5
430.567	1	-3
430.909	1	-10
431.250	1	1
431.591	1	9
431.932	1	-10
432.273	1	-6
432.615	1	-9
432.956	1	-6
433.297	1	0
433.638	1	-5
433.979	1	2
434.320	1	1
434.662	1	1
435.003	1	3
435.344	1	8
435.685	1	2
436.026	1	7
436.368	1	-5
436.709	1	1
437.050	1	-8
437.391	1	11
437.732	1	-3
438.073	1	-4
438.414	1	-7
438.756	1	-6
439.097	1	-11
439.438	1	-5
439.779	1	-3
440.120	1	0
440.461	1	2
440.802	1	0
441.143	1	9
441.485	1	1
441.826	1	14
442.167	1	2
442.508	1	2
442.849	1	6
443.190	1	1
443.531	1	7
443.872	1	4
444.213	1	4
444.554	1	5
444.895	1	-8
445.237	1	-5
445.578	1	-11
445.919	1	-15
446.260	1	-6
446.601	1	2
446.942	1	-1
447.283	1	1
447.624	1	-1
447.965	1	-2
448.306	1	4
448.647	1	-9
448.988	1	1
449.329	1	0
449.670	1	10
450.011	1	7
450.352	1	8
450.693	1	-6
451.034	1	1
451.375	1	-3
451.716	1	-1
452.057	1	7
452.398	1	1
452.739	1	10
453.080	1	-1
453.421	1	-5
453.762	1	3
454.103	1	-3
454.444	1	-5
454.785	1	-5
455.126	1	-14
455.467	1	1
455.808	1	0
456.149	1	7
456.490	1	-4
456.831	1	6
457.172	1	4
457.513	1	11
457.854	1	-4
458.195	1	-2
458.536	1	7
458.877	1	-2
459.218	1	-7
459.559	1	7
459.899	1	-4
460.240	1	-5
460.581	1	15
460.922	1	1
461.263	1	4
461.604	1	-4
461.945	1	-2
462.286	1	-3
462.627	1	0
462.968	1	4
463.309	1	-10
463.649	1	-1
463.990	1	-11
464.331	1	-7
464.672	1	-8
465.013	1	-7
465.354	1	5
465.695	1	-6
466.036	1	-7
466.376	1	-6
466.717	1	2
467.058	1	-3
467.399	1	3
467.740	1	3
468.081	1	10
468.422	1	0
468.762	1	-8
469.103	1	-13
469.444	1	-13
469.785	1	-13
470.126	1	-14
470.467	1	0
470.807	1	3
471.148	1	1
471.489	1	-8
471.830	1	-6
472.171	1	-4
472.511	1	-7
472.852	1	-1
473.193	1	5
473.534	1	3
473.875	1	18
474.215	1	9
474.556	1	-2
474.897	1	3
475.238	1	-2
475.578	1	-11
475.919	1	-3
476.260	1	-7
476.601	1	2
476.942	1	3
477.282	1	-5
477.623	1	-15
477.964	1	0
478.305	1	-9
478.645	1	5
478.986	1	-8
479.327	1	-18
479.667	1	1
480.008	1	-4
480.349	1	2
480.690	1	-5
481.030	1	-14
481.371	1	0
481.712	1	0
482.053	1	2
482.393	1	1
482.734	1	-5
483.075	1	-9
483.415	1	-7
483.756	1	8
484.097	1	-17
484.437	1	-5
484.778	1	-4
485.119	1	-11
485.459	1	17
485.800	1	-6
486.141	1	0
486.481	1	1
486.822	1	2
487.163	1	4
487.503	1	-2
487.844	1	-2
488.185	1	3
488.525	1	-2
488.866	1	7
489.207	1	1
489.547	1	-2
489.888	1	-7
490.228	1	7
490.569	1	18
490.910	1	-7
491.250	1	-7
491.591	1	-9
491.932	1	4
492.272	1	2
492.613	1	-5
492.953	1	-2
493.294	1	-1
493.635	1	0
493.975	1	1
494.316	1	2
494.656	1	4
494.997	1	-2
495.337	1	13
495.678	1	-9
496.019	1	-7
496.359	1	-8
496.700	1	1
497.040	1	-4
497.381	1	0
497.721	1	-7
498.062	1	-3
498.403	1	11
498.743	1	4
499.084	1	-10
499.424	1	-6
499.765	1	-5
500.105	1	7
500.446	1	-15
500.786	1	-13
501.127	1	-3
501.467	1	-2
501.808	1	8
502.148	1	-1
502.489	1	1
502.829	1	-1
503.170	1	6
503.510	1	-2
503.851	1	-1
504.191	1	1
504.532	1	1
504.872	1	7
505.213	1	2
505.553	1	-11
505.894	1	-13
506.234	1	14
506.575	1	7
506.915	1	8
507.256	1	2
507.596	1	2
507.936	1	1
508.277	1	-4
508.617	1	-5
508.958	1	-10
509.298	1	8
509.639	1	-4
509.979	1	-4
510.319	1	-1
510.660	1	-1
511.000	1	0
511.341	1	6
511.681	1	7
512.022	1	2
512.362	1	-4
512.702	1	2
513.043	1	0
513.383	1	-12
513.724	1	-2
514.064	1	4
514.404	1	-5
514.745	1	-3
515.085	1	1
515.425	1	-2
515.766	1	-4
516.106	1	-5
516.447	1	15
516.787	1	3
517.127	1	6
517.468	1	-6
517.808	1	-6
518.148	1	-6
518.489	1	-7
518.829	1	2
519.169	1	2
519.510	1	1
519.850	1	5
520.190	1	-10
520.531	1	6
520.871	1	-4
521.211	1	-11
521.552	1	1
521.892	1	2
522.232	1	0
522.573	1	-11
522.913	1	7
523.253	1	7
523.593	1	1
523.934	1	-1
524.274	1	-1
524.614	1	-1
524.955	1	-6
525.295	1	7
525.635	1	4
525.975	1	7
526.316	1	13
526.656	1	8
526.996	1	10
527.337	1	6
527.677	1	9
528.017	1	-11
528.357	1	1
528.698	1	3
529.038	1	9
529.378	1	8
529.718	1	7
530.058	1	-1
530.399	1	2
530.739	1	6
531.079	1	1
531.419	1	2
531.760	1	4
532.100	1	-5
532.440	1	5
532.780	1	2
533.120	1	11
533.461	1	-3
533.801	1	16
534.141	1	-4
534.481	1	-10
534.821	1	9
535.162	1	-4
535.502	1	-2
535.842	1	6
536.182	1	4
536.522	1	-8
536.862	1	5
537.203	1	1
537.543	1	-4
537.883	1	0
538.223	1	-5
538.563	1	12
538.903	1	-2
539.243	1	-7
539.584	1	-5
539.924	1	10
540.264	1	-2
540.604	1	0
540.944	1	3
541.284	1	8
541.624	1	5
541.964	1	3
542.305	1	6
542.645	1	-9
542.985	1	2
543.325	1	2
543.665	1	8
544.005	1	13
544.345	1	12
544.685	1	0
545.025	1	-2
545.365	1	2
545.705	1	-1
546.045	1	6
546.386	1	11
546.726	1	-6
547.066	1	4
547.406	1	3
547.746	1	-12
548.086	1	3
548.426	1	-1
548.766	1	1
549.106	1	-3
549.446	1	4
549.786	1	-1
550.126	1	3
550.466	1	14
550.806	1	-8
551.146	1	1
551.486	1	-2
551.826	1	0
552.166	1	-5
552.506	1	0
552.846	1	10
553.186	1	7
553.526	1	-4
553.866	1	-2
554.206	1	11
554.546	1	0
554.886	1	8
555.226	1	-6
555.566	1	12
555.906	1	9
556.246	1	5
556.586	1	1
556.926	1	4
557.266	1	-3
557.606	1	-1
557.946	1	14
558.286	1	5
558.626	1	5
558.966	1	-8
559.306	1	-7
559.646	1	-13
559.986	1	-2
560.325	1	-1
560.665	1	-2
561.005	1	-3
561.345	1	-10
561.685	1	8
562.025	1	6
562.365	1	-6
562.705	1	-8
563.045	1	-9
563.385	1	-2
563.725	1	8
564.064	1	3
564.404	1	10
564.744	1	4
565.084	1	-3
565.424	1	7
565.764	1	-3
566.104	1	-4
566.444	1	-6
566.783	1	-10
567.123	1	0
567.463	1	-3
567.803	1	-5
568.143	1	4
568.483	1	0
568.823	1	6
569.162	1	9
569.502	1	-5
569.842	1	2
570.182	1	1
570.522	1	-12
570.862	1	-1
571.201	1	10
571.541	1	0
571.881	1	10
572.221	1	-4
572.561	1	1
572.900	1	-7
573.240	1	-2
573.580	1	3
573.920	1	9
574.260	1	7
574.599	1	10
574.939	1	2
575.279	1	11
575.619	1	11
575.959	1	-11
576.298	1	5
576.638	1	-1
576.978	1	4
577.318	1	9
577.657	1	-6
577.997	1	-2
578.337	1	12
578.677	1	4
579.016	1	3
579.356	1	0
579.696	1	4
580.036	1	-9
580.375	1	18
580.715	1	-3
581.055	1	-1
581.394	1	-4
581.734	1	-2
582.074	1	-5
582.414	1	8
582.753	1	-1
583.093	1	2
583.433	1	-8
583.772	1	6
584.112	1	-7
584.452	1	4
584.791	1	-5
585.131	1	-4
585.471	1	2
585.811	1	5
586.150	1	-5
586.490	1	3
586.830	1	5
587.169	1	12
587.509	1	-1
587.849	1	8
588.188	1	10
588.528	1	8
588.867	1	-2
589.207	1	3
589.547	1	-8
589.886	1	-5
590.226	1	2
590.566	1	-1
590.905	1	0
591.245	1	-1
591.585	1	-1
591.924	1	-8
592.264	1	2
592.603	1	5
592.943	1	5
593.283	1	-2
593.622	1	-3
593.962	1	0
594.301	1	10
594.641	1	-4
594.981	1	-1
595.320	1	-3
595.660	1	2
595.999	1	-2
596.339	1	-4
596.678	1	-10
597.018	1	-7
597.358	1	5
597.697	1	2
598.037	1	-1
598.376	1	7
598.716	1	6
599.055	1	7
599.395	1	6
599.734	1	5
600.074	1	-6
600.413	1	4
600.753	1	-6
601.092	1	13
601.432	1	-8
601.771	1	-2
602.111	1	8
602.451	1	16
602.790	1	3
603.130	1	9
603.469	1	-6
603.809	1	5
604.148	1	3
604.487	1	8
604.827	1	7
605.166	1	5
605.506	1	-1
605.845	1	5
606.185	1	-2
606.524	1	1
606.864	1	-3
607.203	1	1
607.543	1	-4
607.882	1	5
608.222	1	5
608.561	1	-4
608.901	1	1
609.240	1	0
609.579	1	5
609.919	1	14
610.258	1	8
610.598	1	1
610.937	1	2
611.277	1	7
611.616	1	0
611.955	1	5
612.295	1	-6
612.634	1	0
612.974	1	-14
613.313	1	7
613.652	1	-1
613.992	1	-2
614.331	1	-4
614.671	1	-8
615.010	1	-7
615.349	1	9
615.689	1	4
616.028	1	-3
616.368	1	-4
616.707	1	4
617.046	1	-7
617.386	1	5
617.725	1	2
618.064	1	-5
618.404	1	2
618.743	1	12
619.082	1	6
619.422	1	-12
619.761	1	5
620.100	1	-1
620.440	1	1
620.779	1	-2
621.118	1	-1
621.458	1	2
621.797	1	-8
622.136	1	10
622.476	1	9
622.815	1	2
623.154	1	11
623.494	1	12
623.833	1	4
624.172	1	4
624.511	1	3
624.851	1	-7
625.190	1	5
625.529	1	-3
625.869	1	13
626.208	1	-3
626.547	1	2
626.886	1	6
627.226	1	4
627.565	1	4
627.904	1	0
628.243	1	7
628.583	1	-6
628.922	1	2
629.261	1	3
629.600	1	6
629.940	1	4
630.279	1	-10
630.618	1	-5
630.957	1	-3
631.297	1	2
631.636	1	-4
631.975	1	12
632.314	1	1
632.653	1	0
632.993	1	-1
633.332	1	-3
633.671	1	-5
634.010	1	1
634.349	1	16
634.689	1	-2
635.028	1	9
635.367	1	0
635.706	1	-5
636.045	1	7
636.384	1	-2
636.724	1	1
637.063	1	-2
637.402	1	-9
637.741	1	-6
638.080	1	-3
638.419	1	0
638.759	1	-1
639.098	1	5
639.437	1	-2
639.776	1	-7
640.115	1	4
640.454	1	-7
640.793	1	8
641.132	1	0
641.472	1	13
641.811	1	-10
642.150	1	-10
642.489	1	6
642.828	1	-5
643.167	1	-11
643.506	1	-14
643.845	1	-8
644.184	1	4
644.524	1	-3
644.863	1	-5
645.202	1	-4
645.541	1	3
645.880	1	1
646.219	1	-3
646.558	1	-1
646.897	1	0
647.236	1	-10
647.575	1	1
647.914	1	-14
648.253	1	10
648.592	1	-2
648.931	1	6
649.270	1	-6
649.610	1	1
649.949	1	-8
650.288	1	6
650.627	1	-5
650.966	1	-2
651.305	1	2
651.644	1	14
651.983	1	-9
652.322	1	-6
652.661	1	-6
653.000	1	5
653.339	1	4
653.678	1	-2
654.017	1	-9
654.356	1	0
654.695	1	6
655.034	1	6
655.373	1	0
655.712	1	1
656.051	1	-11
656.390	1	-4
656.729	1	15
657.068	1	-1
657.406	1	8
657.745	1	-9
658.084	1	-2
658.423	1	6
658.762	1	-3
659.101	1	-3
659.440	1	6
659.779	1	-1
660.118	1	3
660.457	1	-4
660.796	1	-13
661.135	1	-8
661.474	1	-6
661.813	1	16
662.152	1	9
662.491	1	-6
662.829	1	-2
663.168	1	4
663.507	1	10
663.846	1	-3
664.185	1	3
664.524	1	2
664.863	1	-12
665.202	1	7
665.541	1	-7
665.879	1	0
666.218	1	-6
666.557	1	5
666.896	1	-8
667.235	1	4
667.574	1	2
667.913	1	-2
668.251	1	0
668.590	1	-1
668.929	1	-6
669.268	1	-7
669.607	1	-2
669.946	1	5
670.285	1	3
670.623	1	-5
670.962	1	-7
671.301	1	-12
671.640	1	5
671.979	1	-3
672.317	1	0
672.656	1	0
672.995	1	2
673.334	1	0
673.673	1	-5
674.011	1	5
674.350	1	1
674.689	1	2
675.028	1	-5
675.367	1	-1
675.705	1	12
676.044	1	-8
676.383	1	-9
676.722	1	1
677.060	1	-4
677.399	1	-4
677.738	1	6
678.077	1	11
678.416	1	-3
678.754	1	-2
679.093	1	11
679.432	1	-3
679.771	1	2
680.109	1	8
680.448	1	0
680.787	1	1
681.125	1	4
681.464	1	2
681.803	1	-7
682.142	1	11
682.480	1	9
682.819	1	2
683.158	1	-1
683.496	1	6
683.835	1	2
684.174	1	-4
684.512	1	8
684.851	1	2
685.190	1	-4
685.529	1	1
685.867	1	2
686.206	1	-1
686.545	1	-1
686.883	1	1
687.222	1	7
687.561	1	0
687.899	1	-7
688.238	1	-3
688.577	1	-7
688.746	1	6