File: Data/GaN_200K_800ms/GaN_sample F_spot 12_UVVIS_200 K_200um_800 ms 2x2mm1_231.txt
340.368	1	2
340.710	1	-9
341.052	1	9
341.394	1	-8
341.737	1	-8
342.079	1	0
342.421	1	5
342.763	1	5
343.105	1	5
343.447	1	1
343.789	1	-4
344.131	1	-10
344.473	1	1
344.815	1	2
345.157	1	-7
345.499	1	2
345.841	1	4
346.183	1	-5
346.526	1	-12
346.868	1	2
347.210	1	-14
347.552	1	-3
347.894	1	0
348.236	1	11
348.578	1	1
348.920	1	1
349.262	1	-1
349.604	1	4
349.946	1	4
350.288	1	2
350.630	1	7
350.972	1	2
351.314	1	3
351.656	1	9
351.998	1	5
352.340	1	-1
352.682	1	11
353.024	1	7
353.366	1	13
353.708	1	0
354.050	1	-5
354.392	1	3
354.734	1	11
355.076	1	5
355.418	1	-9
355.760	1	-7
356.102	1	12
356.444	1	2
356.785	1	2
357.127	1	2
357.469	1	-6
357.811	1	3
358.153	1	10
358.495	1	7
358.837	1	-3
359.179	1	9
359.521	1	15
359.863	1	9
360.205	1	-7
360.547	1	8
360.889	1	1
361.231	1	2
361.572	1	2
361.914	1	11
362.256	1	15
362.598	1	2
362.940	1	1
363.282	1	13
363.624	1	9
363.966	1	0
364.308	1	9
364.649	1	18
364.991	1	3
365.333	1	15
365.675	1	9
366.017	1	17
366.359	1	22
366.701	1	12
367.042	1	17
367.384	1	30
367.726	1	23
368.068	1	18
368.410	1	42
368.752	1	18
369.093	1	27
369.435	1	38
369.777	1	22
370.119	1	18
370.461	1	36
370.803	1	32
371.144	1	22
371.486	1	29
371.828	1	23
372.170	1	28
372.512	1	18
372.853	1	32
373.195	1	22
373.537	1	24
373.879	1	9
374.220	1	30
374.562	1	32
374.904	1	8
375.246	1	19
375.588	1	6
375.929	1	19
376.271	1	23
376.613	1	5
376.955	1	4
377.296	1	6
377.638	1	16
377.980	1	26
378.321	1	4
378.663	1	1
379.005	1	19
379.347	1	7
379.688	1	14
380.030	1	8
380.372	1	13
380.714	1	18
381.055	1	14
381.397	1	4
381.739	1	12
382.080	1	13
382.422	1	8
382.764	1	-4
383.105	1	3
383.447	1	5
383.789	1	-7
384.130	1	6
384.472	1	3
384.814	1	13
385.156	1	-2
385.497	1	9
385.839	1	4
386.180	1	7
386.522	1	3
386.864	1	7
387.205	1	5
387.547	1	-5
387.889	1	0
388.230	1	11
388.572	1	8
388.914	1	10
389.255	1	1
389.597	1	4
389.939	1	10
390.280	1	1
390.622	1	-4
390.963	1	4
391.305	1	5
391.647	1	7
391.988	1	12
392.330	1	5
392.671	1	0
393.013	1	6
393.355	1	3
393.696	1	6
394.038	1	7
394.379	1	-2
394.721	1	-7
395.062	1	8
395.404	1	-4
395.746	1	5
396.087	1	1
396.429	1	2
396.770	1	7
397.112	1	23
397.453	1	9
397.795	1	5
398.136	1	2
398.478	1	15
398.819	1	1
399.161	1	15
399.503	1	3
399.844	1	9
400.186	1	2
400.527	1	-1
400.869	1	-3
401.210	1	7
401.552	1	-8
401.893	1	9
402.235	1	-1
402.576	1	-4
402.918	1	10
403.259	1	7
403.601	1	-5
403.942	1	6
404.284	1	1
404.625	1	14
404.967	1	5
405.308	1	11
405.649	1	0
405.991	1	4
406.332	1	1
406.674	1	-5
407.015	1	9
407.357	1	-1
407.698	1	13
408.040	1	-5
408.381	1	13
408.722	1	-19
409.064	1	5
409.405	1	0
409.747	1	-3
410.088	1	-5
410.430	1	6
410.771	1	-3
411.112	1	-5
411.454	1	0
411.795	1	-3
412.137	1	11
412.478	1	17
412.819	1	-11
413.161	1	-1
413.502	1	-8
413.844	1	9
414.185	1	14
414.526	1	-1
414.868	1	0
415.209	1	4
415.550	1	1
415.892	1	-1
416.233	1	6
416.575	1	12
416.916	1	-5
417.257	1	-4
417.599	1	1
417.940	1	18
418.281	1	2
418.623	1	-7
418.964	1	-12
419.305	1	-5
419.647	1	1
419.988	1	-1
420.329	1	-3
420.671	1	-3
421.012	1	3
421.353	1	-1
421.695	1	0
422.036	1	4
422.377	1	0
422.718	1	4
423.060	1	-1
423.401	1	1
423.742	1	12
424.084	1	3
424.425	1	8
424.766	1	3
425.107	1	-2
425.449	1	5
425.790	1	-10
426.131	1	-3
426.472	1	1
426.814	1	-6
427.155	1	-12
427.496	1	-4
427.837	1	1
428.179	1	-5
428.520	1	8
428.861	1	-1
429.202	1	0
429.544	1	-3
429.885	1	4
430.226	1	-3
430.567	1	2
430.909	1	2
431.250	1	0
431.591	1	3
431.932	1	-5
432.273	1	-2
432.615	1	-7
432.956	1	-3
433.297	1	2
433.638	1	-3
433.979	1	-1
434.320	1	6
434.662	1	1
435.003	1	3
435.344	1	-1
435.685	1	1
436.026	1	3
436.368	1	3
436.709	1	-2
437.050	1	-6
437.391	1	10
437.732	1	-5
438.073	1	7
438.414	1	-16
438.756	1	-8
439.097	1	-7
439.438	1	0
439.779	1	1
440.120	1	-11
440.461	1	-2
440.802	1	9
441.143	1	7
441.485	1	8
441.826	1	-9
442.167	1	3
442.508	1	-11
442.849	1	8
443.190	1	2
443.531	1	10
443.872	1	5
444.213	1	0
444.554	1	11
444.895	1	-4
445.237	1	1
445.578	1	-5
445.919	1	-12
446.260	1	-3
446.601	1	-4
446.942	1	0
447.283	1	-3
447.624	1	4
447.965	1	8
448.306	1	3
448.647	1	-8
448.988	1	-4
449.329	1	4
449.670	1	6
450.011	1	3
450.352	1	-7
450.693	1	-9
451.034	1	1
451.375	1	4
451.716	1	-2
452.057	1	0
452.398	1	-3
452.739	1	8
453.080	1	5
453.421	1	-1
453.762	1	4
454.103	1	-8
454.444	1	-4
454.785	1	1
455.126	1	1
455.467	1	3
455.808	1	-3
456.149	1	2
456.490	1	3
456.831	1	-2
457.172	1	-1
457.513	1	11
457.854	1	3
458.195	1	-6
458.536	1	9
458.877	1	14
459.218	1	4
459.559	1	1
459.899	1	0
460.240	1	3
460.581	1	21
460.922	1	2
461.263	1	-1
461.604	1	-8
461.945	1	-3
462.286	1	2
462.627	1	11
462.968	1	1
463.309	1	-14
463.649	1	-7
463.990	1	-9
464.331	1	-6
464.672	1	-1
465.013	1	-8
465.354	1	0
465.695	1	-13
466.036	1	-3
466.376	1	-11
466.717	1	-11
467.058	1	-2
467.399	1	6
467.740	1	-5
468.081	1	12
468.422	1	-11
468.762	1	2
469.103	1	-12
469.444	1	-6
469.785	1	-10
470.126	1	-3
470.467	1	2
470.807	1	-2
471.148	1	0
471.489	1	-2
471.830	1	1
472.171	1	8
472.511	1	-1
472.852	1	3
473.193	1	7
473.534	1	9
473.875	1	19
474.215	1	7
474.556	1	-4
474.897	1	4
475.238	1	2
475.578	1	-11
475.919	1	6
476.260	1	-8
476.601	1	1
476.942	1	0
477.282	1	-7
477.623	1	-12
477.964	1	7
478.305	1	-3
478.645	1	10
478.986	1	1
479.327	1	-4
479.667	1	-7
480.008	1	-2
480.349	1	-18
480.690	1	-8
481.030	1	-5
481.371	1	-1
481.712	1	1
482.053	1	1
482.393	1	-1
482.734	1	-4
483.075	1	0
483.415	1	1
483.756	1	8
484.097	1	1
484.437	1	0
484.778	1	1
485.119	1	3
485.459	1	12
485.800	1	-4
486.141	1	-1
486.481	1	7
486.822	1	4
487.163	1	3
487.503	1	-2
487.844	1	4
488.185	1	1
488.525	1	0
488.866	1	3
489.207	1	-1
489.547	1	-2
489.888	1	-4
490.228	1	2
490.569	1	15
490.910	1	-1
491.250	1	-2
491.591	1	-11
491.932	1	0
492.272	1	2
492.613	1	-5
492.953	1	-3
493.294	1	-4
493.635	1	-3
493.975	1	4
494.316	1	7
494.656	1	2
494.997	1	1
495.337	1	10
495.678	1	0
496.019	1	-6
496.359	1	-1
496.700	1	-7
497.040	1	8
497.381	1	-4
497.721	1	1
498.062	1	7
498.403	1	-1
498.743	1	-1
499.084	1	-6
499.424	1	1
499.765	1	5
500.105	1	3
500.446	1	-1
500.786	1	-2
501.127	1	1
501.467	1	-7
501.808	1	6
502.148	1	1
502.489	1	7
502.829	1	2
503.170	1	10
503.510	1	0
503.851	1	0
504.191	1	6
504.532	1	-3
504.872	1	-1
505.213	1	2
505.553	1	-2
505.894	1	-1
506.234	1	2
506.575	1	10
506.915	1	2
507.256	1	11
507.596	1	1
507.936	1	6
508.277	1	-2
508.617	1	-5
508.958	1	2
509.298	1	2
509.639	1	0
509.979	1	-2
510.319	1	4
510.660	1	7
511.000	1	0
511.341	1	7
511.681	1	6
512.022	1	-1
512.362	1	-10
512.702	1	-1
513.043	1	5
513.383	1	-8
513.724	1	-8
514.064	1	9
514.404	1	0
514.745	1	2
515.085	1	10
515.425	1	-6
515.766	1	-6
516.106	1	-8
516.447	1	11
516.787	1	2
517.127	1	-1
517.468	1	2
517.808	1	8
518.148	1	4
518.489	1	-7
518.829	1	2
519.169	1	5
519.510	1	2
519.850	1	11
520.190	1	-3
520.531	1	9
520.871	1	6
521.211	1	-2
521.552	1	13
521.892	1	1
522.232	1	2
522.573	1	3
522.913	1	6
523.253	1	0
523.593	1	-3
523.934	1	-2
524.274	1	7
524.614	1	5
524.955	1	-6
525.295	1	4
525.635	1	10
525.975	1	3
526.316	1	7
526.656	1	4
526.996	1	0
527.337	1	1
527.677	1	7
528.017	1	1
528.357	1	6
528.698	1	2
529.038	1	5
529.378	1	5
529.718	1	4
530.058	1	2
530.399	1	3
530.739	1	3
531.079	1	5
531.419	1	10
531.760	1	10
532.100	1	2
532.440	1	2
532.780	1	9
533.120	1	16
533.461	1	-1
533.801	1	15
534.141	1	-9
534.481	1	-1
534.821	1	17
535.162	1	2
535.502	1	-4
535.842	1	9
536.182	1	-8
536.522	1	-5
536.862	1	3
537.203	1	-6
537.543	1	4
537.883	1	0
538.223	1	-1
538.563	1	4
538.903	1	3
539.243	1	-4
539.584	1	7
539.924	1	11
540.264	1	2
540.604	1	2
540.944	1	0
541.284	1	8
541.624	1	15
541.964	1	5
542.305	1	9
542.645	1	1
542.985	1	9
543.325	1	-2
543.665	1	13
544.005	1	9
544.345	1	10
544.685	1	-1
545.025	1	-6
545.365	1	0
545.705	1	3
546.045	1	-4
546.386	1	7
546.726	1	-6
547.066	1	6
547.406	1	2
547.746	1	-12
548.086	1	0
548.426	1	-7
548.766	1	6
549.106	1	-2
549.446	1	0
549.786	1	-8
550.126	1	11
550.466	1	9
550.806	1	2
551.146	1	3
551.486	1	-1
551.826	1	3
552.166	1	-7
552.506	1	5
552.846	1	11
553.186	1	6
553.526	1	1
553.866	1	-2
554.206	1	8
554.546	1	3
554.886	1	-1
555.226	1	-6
555.566	1	-1
555.906	1	11
556.246	1	1
556.586	1	-6
556.926	1	0
557.266	1	-4
557.606	1	1
557.946	1	4
558.286	1	9
558.626	1	0
558.966	1	7
559.306	1	-1
559.646	1	-4
559.986	1	-7
560.325	1	5
560.665	1	-8
561.005	1	-2
561.345	1	0
561.685	1	-9
562.025	1	-1
562.365	1	0
562.705	1	-4
563.045	1	-6
563.385	1	-14
563.725	1	4
564.064	1	7
564.404	1	3
564.744	1	5
565.084	1	1
565.424	1	4
565.764	1	1
566.104	1	-2
566.444	1	-16
566.783	1	7
567.123	1	9
567.463	1	1
567.803	1	0
568.143	1	-1
568.483	1	10
568.823	1	2
569.162	1	9
569.502	1	3
569.842	1	4
570.182	1	1
570.522	1	-10
570.862	1	-1
571.201	1	2
571.541	1	4
571.881	1	19
572.221	1	5
572.561	1	-1
572.900	1	1
573.240	1	4
573.580	1	3
573.920	1	6
574.260	1	15
574.599	1	7
574.939	1	4
575.279	1	9
575.619	1	4
575.959	1	-6
576.298	1	9
576.638	1	-3
576.978	1	8
577.318	1	2
577.657	1	1
577.997	1	7
578.337	1	2
578.677	1	10
579.016	1	5
579.356	1	1
579.696	1	9
580.036	1	-2
580.375	1	10
580.715	1	-2
581.055	1	-2
581.394	1	4
581.734	1	-8
582.074	1	5
582.414	1	10
582.753	1	-3
583.093	1	-2
583.433	1	2
583.772	1	6
584.112	1	-1
584.452	1	3
584.791	1	1
585.131	1	1
585.471	1	3
585.811	1	6
586.150	1	4
586.490	1	7
586.830	1	5
587.169	1	-5
587.509	1	-5
587.849	1	7
588.188	1	8
588.528	1	13
588.867	1	2
589.207	1	4
589.547	1	-3
589.886	1	4
590.226	1	6
590.566	1	-3
590.905	1	3
591.245	1	-7
591.585	1	3
591.924	1	4
592.264	1	6
592.603	1	8
592.943	1	0
593.283	1	0
593.622	1	-1
593.962	1	9
594.301	1	7
594.641	1	2
594.981	1	-6
595.320	1	0
595.660	1	-5
595.999	1	4
596.339	1	3
596.678	1	-5
597.018	1	-8
597.358	1	7
597.697	1	-3
598.037	1	2
598.376	1	7
598.716	1	6
599.055	1	6
599.395	1	8
599.734	1	4
600.074	1	3
600.413	1	5
600.753	1	7
601.092	1	9
601.432	1	-6
601.771	1	2
602.111	1	15
602.451	1	-5
602.790	1	6
603.130	1	8
603.469	1	-2
603.809	1	9
604.148	1	6
604.487	1	-4
604.827	1	13
605.166	1	3
605.506	1	3
605.845	1	6
606.185	1	5
606.524	1	6
606.864	1	-4
607.203	1	-5
607.543	1	1
607.882	1	5
608.222	1	9
608.561	1	-1
608.901	1	11
609.240	1	-7
609.579	1	9
609.919	1	13
610.258	1	8
610.598	1	-1
610.937	1	12
611.277	1	-2
611.616	1	0
611.955	1	-4
612.295	1	-3
612.634	1	1
612.974	1	-4
613.313	1	16
613.652	1	1
613.992	1	-1
614.331	1	-3
614.671	1	2
615.010	1	-6
615.349	1	4
615.689	1	15
616.028	1	-2
616.368	1	1
616.707	1	5
617.046	1	7
617.386	1	6
617.725	1	-6
618.064	1	-5
618.404	1	4
618.743	1	3
619.082	1	4
619.422	1	-8
619.761	1	6
620.100	1	1
620.440	1	-10
620.779	1	-7
621.118	1	-4
621.458	1	8
621.797	1	2
622.136	1	7
622.476	1	8
622.815	1	13
623.154	1	0
623.494	1	7
623.833	1	10
624.172	1	6
624.511	1	2
624.851	1	-8
625.190	1	2
625.529	1	6
625.869	1	7
626.208	1	-2
626.547	1	2
626.886	1	4
627.226	1	2
627.565	1	3
627.904	1	-1
628.243	1	7
628.583	1	-2
628.922	1	0
629.261	1	7
629.600	1	13
629.940	1	5
630.279	1	0
630.618	1	-2
630.957	1	9
631.297	1	-2
631.636	1	-12
631.975	1	16
632.314	1	1
632.653	1	4
632.993	1	0
633.332	1	4
633.671	1	-1
634.010	1	-9
634.349	1	7
634.689	1	5
635.028	1	9
635.367	1	-5
635.706	1	6
636.045	1	13
636.384	1	1
636.724	1	2
637.063	1	1
637.402	1	4
637.741	1	3
638.080	1	-2
638.419	1	-2
638.759	1	-6
639.098	1	8
639.437	1	1
639.776	1	4
640.115	1	-5
640.454	1	-7
640.793	1	11
641.132	1	2
641.472	1	3
641.811	1	-2
642.150	1	-7
642.489	1	7
642.828	1	0
643.167	1	-4
643.506	1	-9
643.845	1	-2
644.184	1	8
644.524	1	-4
644.863	1	-5
645.202	1	-4
645.541	1	6
645.880	1	7
646.219	1	2
646.558	1	1
646.897	1	7
647.236	1	-1
647.575	1	4
647.914	1	-5
648.253	1	19
648.592	1	-8
648.931	1	7
649.270	1	-1
649.610	1	-8
649.949	1	4
650.288	1	2
650.627	1	8
650.966	1	5
651.305	1	4
651.644	1	8
651.983	1	-3
652.322	1	-8
652.661	1	-3
653.000	1	2
653.339	1	7
653.678	1	-3
654.017	1	-8
654.356	1	-9
654.695	1	3
655.034	1	0
655.373	1	9
655.712	1	-3
656.051	1	3
656.390	1	-1
656.729	1	11
657.068	1	0
657.406	1	-4
657.745	1	0
658.084	1	10
658.423	1	13
658.762	1	-1
659.101	1	8
659.440	1	-2
659.779	1	5
660.118	1	3
660.457	1	11
660.796	1	-5
661.135	1	-1
661.474	1	-1
661.813	1	11
662.152	1	1
662.491	1	-7
662.829	1	-6
663.168	1	-3
663.507	1	2
663.846	1	4
664.185	1	-2
664.524	1	-13
664.863	1	-4
665.202	1	-7
665.541	1	-10
665.879	1	0
666.218	1	5
666.557	1	6
666.896	1	1
667.235	1	3
667.574	1	0
667.913	1	0
668.251	1	0
668.590	1	1
668.929	1	-13
669.268	1	5
669.607	1	-2
669.946	1	-2
670.285	1	5
670.623	1	-7
670.962	1	4
671.301	1	5
671.640	1	2
671.979	1	-1
672.317	1	-2
672.656	1	-7
672.995	1	15
673.334	1	-3
673.673	1	3
674.011	1	-3
674.350	1	6
674.689	1	-2
675.028	1	-2
675.367	1	6
675.705	1	7
676.044	1	5
676.383	1	12
676.722	1	3
677.060	1	-3
677.399	1	-6
677.738	1	5
678.077	1	5
678.416	1	4
678.754	1	5
679.093	1	13
679.432	1	-1
679.771	1	-3
680.109	1	15
680.448	1	-4
680.787	1	-2
681.125	1	1
681.464	1	-1
681.803	1	-4
682.142	1	13
682.480	1	5
682.819	1	2
683.158	1	-6
683.496	1	-7
683.835	1	6
684.174	1	-10
684.512	1	9
684.851	1	2
685.190	1	-2
685.529	1	2
685.867	1	-2
686.206	1	1
686.545	1	-11
686.883	1	2
687.222	1	2
687.561	1	6
687.899	1	2
688.238	1	9
688.577	1	-5
688.746	1	-2