File: Data/GaN_200K_800ms/GaN_sample F_spot 12_UVVIS_200 K_200um_800 ms 2x2mm1_83.txt
340.368	1	8
340.710	1	-1
341.052	1	19
341.394	1	1
341.737	1	17
342.079	1	3
342.421	1	5
342.763	1	10
343.105	1	6
343.447	1	2
343.789	1	0
344.131	1	0
344.473	1	-8
344.815	1	-3
345.157	1	-8
345.499	1	6
345.841	1	17
346.183	1	6
346.526	1	-6
346.868	1	11
347.210	1	-10
347.552	1	5
347.894	1	10
348.236	1	9
348.578	1	-3
348.920	1	-2
349.262	1	1
349.604	1	13
349.946	1	-2
350.288	1	15
350.630	1	9
350.972	1	11
351.314	1	6
351.656	1	15
351.998	1	11
352.340	1	8
352.682	1	10
353.024	1	12
353.366	1	16
353.708	1	17
354.050	1	6
354.392	1	12
354.734	1	8
355.076	1	13
355.418	1	4
355.760	1	11
356.102	1	24
356.444	1	13
356.785	1	24
357.127	1	24
357.469	1	15
357.811	1	7
358.153	1	23
358.495	1	25
358.837	1	16
359.179	1	24
359.521	1	32
359.863	1	26
360.205	1	20
360.547	1	33
360.889	1	25
361.231	1	17
361.572	1	29
361.914	1	40
362.256	1	35
362.598	1	35
362.940	1	44
363.282	1	51
363.624	1	48
363.966	1	48
364.308	1	61
364.649	1	68
364.991	1	66
365.333	1	65
365.675	1	72
366.017	1	90
366.359	1	96
366.701	1	106
367.042	1	102
367.384	1	119
367.726	1	122
368.068	1	132
368.410	1	131
368.752	1	116
369.093	1	136
369.435	1	142
369.777	1	131
370.119	1	130
370.461	1	153
370.803	1	125
371.144	1	131
371.486	1	127
371.828	1	120
372.170	1	127
372.512	1	113
372.853	1	106
373.195	1	87
373.537	1	95
373.879	1	90
374.220	1	96
374.562	1	91
374.904	1	92
375.246	1	79
375.588	1	74
375.929	1	79
376.271	1	68
376.613	1	67
376.955	1	54
377.296	1	61
377.638	1	70
377.980	1	60
378.321	1	48
378.663	1	42
379.005	1	67
379.347	1	49
379.688	1	51
380.030	1	42
380.372	1	40
380.714	1	41
381.055	1	46
381.397	1	36
381.739	1	34
382.080	1	42
382.422	1	27
382.764	1	38
383.105	1	25
383.447	1	29
383.789	1	25
384.130	1	23
384.472	1	29
384.814	1	26
385.156	1	30
385.497	1	32
385.839	1	20
386.180	1	30
386.522	1	39
386.864	1	28
387.205	1	18
387.547	1	18
387.889	1	12
388.230	1	25
388.572	1	16
388.914	1	13
389.255	1	7
389.597	1	19
389.939	1	22
390.280	1	13
390.622	1	8
390.963	1	15
391.305	1	16
391.647	1	14
391.988	1	15
392.330	1	18
392.671	1	12
393.013	1	0
393.355	1	14
393.696	1	13
394.038	1	13
394.379	1	19
394.721	1	9
395.062	1	18
395.404	1	5
395.746	1	24
396.087	1	6
396.429	1	8
396.770	1	8
397.112	1	23
397.453	1	14
397.795	1	7
398.136	1	-4
398.478	1	6
398.819	1	4
399.161	1	13
399.503	1	10
399.844	1	12
400.186	1	8
400.527	1	5
400.869	1	1
401.210	1	3
401.552	1	3
401.893	1	5
402.235	1	5
402.576	1	2
402.918	1	16
403.259	1	9
403.601	1	2
403.942	1	21
404.284	1	6
404.625	1	2
404.967	1	17
405.308	1	9
405.649	1	3
405.991	1	1
406.332	1	13
406.674	1	-1
407.015	1	10
407.357	1	1
407.698	1	16
408.040	1	2
408.381	1	3
408.722	1	-12
409.064	1	-1
409.405	1	-2
409.747	1	2
410.088	1	8
410.430	1	14
410.771	1	0
411.112	1	-1
411.454	1	3
411.795	1	-4
412.137	1	8
412.478	1	18
412.819	1	7
413.161	1	-1
413.502	1	2
413.844	1	8
414.185	1	11
414.526	1	1
414.868	1	3
415.209	1	2
415.550	1	-4
415.892	1	1
416.233	1	2
416.575	1	16
416.916	1	1
417.257	1	5
417.599	1	2
417.940	1	8
418.281	1	3
418.623	1	-3
418.964	1	-11
419.305	1	3
419.647	1	0
419.988	1	4
420.329	1	-7
420.671	1	8
421.012	1	7
421.353	1	-2
421.695	1	4
422.036	1	2
422.377	1	-4
422.718	1	13
423.060	1	-1
423.401	1	4
423.742	1	9
424.084	1	6
424.425	1	-1
424.766	1	5
425.107	1	8
425.449	1	5
425.790	1	-15
426.131	1	1
426.472	1	-1
426.814	1	10
427.155	1	-6
427.496	1	-4
427.837	1	3
428.179	1	-5
428.520	1	-1
428.861	1	-6
429.202	1	5
429.544	1	5
429.885	1	7
430.226	1	-7
430.567	1	3
430.909	1	3
431.250	1	1
431.591	1	13
431.932	1	0
432.273	1	-5
432.615	1	-10
432.956	1	3
433.297	1	13
433.638	1	4
433.979	1	10
434.320	1	7
434.662	1	7
435.003	1	7
435.344	1	12
435.685	1	-4
436.026	1	0
436.368	1	8
436.709	1	1
437.050	1	1
437.391	1	18
437.732	1	0
438.073	1	0
438.414	1	-3
438.756	1	6
439.097	1	-2
439.438	1	-5
439.779	1	2
440.120	1	3
440.461	1	5
440.802	1	-8
441.143	1	15
441.485	1	3
441.826	1	12
442.167	1	6
442.508	1	7
442.849	1	18
443.190	1	3
443.531	1	12
443.872	1	11
444.213	1	5
444.554	1	7
444.895	1	-1
445.237	1	-5
445.578	1	-9
445.919	1	-4
446.260	1	-6
446.601	1	-10
446.942	1	5
447.283	1	0
447.624	1	11
447.965	1	1
448.306	1	7
448.647	1	-12
448.988	1	2
449.329	1	-3
449.670	1	7
450.011	1	-3
450.352	1	2
450.693	1	-11
451.034	1	-8
451.375	1	-1
451.716	1	-4
452.057	1	4
452.398	1	1
452.739	1	13
453.080	1	5
453.421	1	7
453.762	1	1
454.103	1	2
454.444	1	-4
454.785	1	5
455.126	1	-15
455.467	1	3
455.808	1	-1
456.149	1	8
456.490	1	11
456.831	1	6
457.172	1	-6
457.513	1	13
457.854	1	-4
458.195	1	3
458.536	1	9
458.877	1	6
459.218	1	4
459.559	1	7
459.899	1	4
460.240	1	6
460.581	1	20
460.922	1	7
461.263	1	1
461.604	1	-4
461.945	1	10
462.286	1	-2
462.627	1	1
462.968	1	10
463.309	1	-10
463.649	1	-9
463.990	1	-1
464.331	1	4
464.672	1	1
465.013	1	3
465.354	1	0
465.695	1	0
466.036	1	-2
466.376	1	-2
466.717	1	4
467.058	1	3
467.399	1	7
467.740	1	0
468.081	1	-1
468.422	1	0
468.762	1	-9
469.103	1	1
469.444	1	2
469.785	1	-7
470.126	1	1
470.467	1	1
470.807	1	7
471.148	1	9
471.489	1	6
471.830	1	0
472.171	1	14
472.511	1	-6
472.852	1	3
473.193	1	15
473.534	1	8
473.875	1	18
474.215	1	15
474.556	1	10
474.897	1	-8
475.238	1	-5
475.578	1	5
475.919	1	11
476.260	1	5
476.601	1	-1
476.942	1	16
477.282	1	5
477.623	1	-12
477.964	1	-5
478.305	1	4
478.645	1	10
478.986	1	1
479.327	1	-7
479.667	1	6
480.008	1	-11
480.349	1	3
480.690	1	2
481.030	1	-3
481.371	1	8
481.712	1	6
482.053	1	10
482.393	1	2
482.734	1	-4
483.075	1	8
483.415	1	5
483.756	1	14
484.097	1	2
484.437	1	-3
484.778	1	2
485.119	1	-5
485.459	1	13
485.800	1	0
486.141	1	-3
486.481	1	-1
486.822	1	3
487.163	1	7
487.503	1	9
487.844	1	15
488.185	1	3
488.525	1	-3
488.866	1	6
489.207	1	7
489.547	1	8
489.888	1	-3
490.228	1	7
490.569	1	11
490.910	1	3
491.250	1	-1
491.591	1	-1
491.932	1	2
492.272	1	6
492.613	1	-3
492.953	1	2
493.294	1	-1
493.635	1	2
493.975	1	-2
494.316	1	10
494.656	1	6
494.997	1	-1
495.337	1	14
495.678	1	10
496.019	1	3
496.359	1	4
496.700	1	5
497.040	1	3
497.381	1	9
497.721	1	11
498.062	1	5
498.403	1	11
498.743	1	8
499.084	1	11
499.424	1	8
499.765	1	2
500.105	1	14
500.446	1	-2
500.786	1	-4
501.127	1	7
501.467	1	0
501.808	1	5
502.148	1	9
502.489	1	4
502.829	1	4
503.170	1	14
503.510	1	16
503.851	1	5
504.191	1	12
504.532	1	0
504.872	1	4
505.213	1	12
505.553	1	9
505.894	1	-8
506.234	1	9
506.575	1	10
506.915	1	10
507.256	1	11
507.596	1	3
507.936	1	0
508.277	1	12
508.617	1	12
508.958	1	3
509.298	1	5
509.639	1	2
509.979	1	13
510.319	1	20
510.660	1	11
511.000	1	-1
511.341	1	8
511.681	1	12
512.022	1	4
512.362	1	13
512.702	1	0
513.043	1	11
513.383	1	8
513.724	1	24
514.064	1	16
514.404	1	3
514.745	1	17
515.085	1	14
515.425	1	6
515.766	1	5
516.106	1	6
516.447	1	17
516.787	1	15
517.127	1	5
517.468	1	6
517.808	1	6
518.148	1	11
518.489	1	6
518.829	1	17
519.169	1	11
519.510	1	3
519.850	1	14
520.190	1	9
520.531	1	14
520.871	1	17
521.211	1	2
521.552	1	19
521.892	1	7
522.232	1	17
522.573	1	7
522.913	1	10
523.253	1	9
523.593	1	10
523.934	1	8
524.274	1	16
524.614	1	12
524.955	1	1
525.295	1	10
525.635	1	8
525.975	1	7
526.316	1	19
526.656	1	7
526.996	1	6
527.337	1	10
527.677	1	11
528.017	1	-4
528.357	1	11
528.698	1	14
529.038	1	16
529.378	1	17
529.718	1	20
530.058	1	10
530.399	1	22
530.739	1	13
531.079	1	20
531.419	1	20
531.760	1	10
532.100	1	17
532.440	1	16
532.780	1	7
533.120	1	18
533.461	1	16
533.801	1	18
534.141	1	-2
534.481	1	6
534.821	1	18
535.162	1	9
535.502	1	8
535.842	1	26
536.182	1	8
536.522	1	5
536.862	1	17
537.203	1	11
537.543	1	7
537.883	1	8
538.223	1	14
538.563	1	27
538.903	1	-1
539.243	1	15
539.584	1	17
539.924	1	19
540.264	1	10
540.604	1	14
540.944	1	4
541.284	1	22
541.624	1	22
541.964	1	26
542.305	1	22
542.645	1	19
542.985	1	11
543.325	1	14
543.665	1	21
544.005	1	13
544.345	1	14
544.685	1	13
545.025	1	12
545.365	1	9
545.705	1	13
546.045	1	9
546.386	1	22
546.726	1	7
547.066	1	26
547.406	1	15
547.746	1	8
548.086	1	16
548.426	1	7
548.766	1	15
549.106	1	8
549.446	1	11
549.786	1	22
550.126	1	24
550.466	1	8
550.806	1	20
551.146	1	15
551.486	1	7
551.826	1	26
552.166	1	20
552.506	1	18
552.846	1	6
553.186	1	16
553.526	1	21
553.866	1	14
554.206	1	17
554.546	1	16
554.886	1	22
555.226	1	8
555.566	1	15
555.906	1	17
556.246	1	12
556.586	1	4
556.926	1	20
557.266	1	5
557.606	1	19
557.946	1	25
558.286	1	20
558.626	1	16
558.966	1	18
559.306	1	5
559.646	1	9
559.986	1	13
560.325	1	18
560.665	1	17
561.005	1	11
561.345	1	19
561.685	1	8
562.025	1	8
562.365	1	23
562.705	1	8
563.045	1	12
563.385	1	-4
563.725	1	12
564.064	1	10
564.404	1	14
564.744	1	11
565.084	1	8
565.424	1	17
565.764	1	11
566.104	1	14
566.444	1	9
566.783	1	9
567.123	1	10
567.463	1	16
567.803	1	14
568.143	1	14
568.483	1	31
568.823	1	17
569.162	1	17
569.502	1	8
569.842	1	19
570.182	1	15
570.522	1	5
570.862	1	14
571.201	1	29
571.541	1	19
571.881	1	23
572.221	1	8
572.561	1	13
572.900	1	16
573.240	1	9
573.580	1	18
573.920	1	18
574.260	1	20
574.599	1	17
574.939	1	13
575.279	1	26
575.619	1	14
575.959	1	9
576.298	1	21
576.638	1	13
576.978	1	22
577.318	1	23
577.657	1	5
577.997	1	11
578.337	1	25
578.677	1	23
579.016	1	23
579.356	1	11
579.696	1	19
580.036	1	19
580.375	1	15
580.715	1	15
581.055	1	10
581.394	1	8
581.734	1	4
582.074	1	8
582.414	1	27
582.753	1	10
583.093	1	10
583.433	1	13
583.772	1	23
584.112	1	15
584.452	1	12
584.791	1	11
585.131	1	21
585.471	1	12
585.811	1	25
586.150	1	18
586.490	1	19
586.830	1	15
587.169	1	16
587.509	1	8
587.849	1	14
588.188	1	23
588.528	1	20
588.867	1	16
589.207	1	18
589.547	1	14
589.886	1	14
590.226	1	19
590.566	1	6
590.905	1	21
591.245	1	7
591.585	1	21
591.924	1	13
592.264	1	20
592.603	1	22
592.943	1	21
593.283	1	9
593.622	1	12
593.962	1	11
594.301	1	19
594.641	1	5
594.981	1	5
595.320	1	7
595.660	1	15
595.999	1	-2
596.339	1	12
596.678	1	5
597.018	1	11
597.358	1	6
597.697	1	16
598.037	1	12
598.376	1	8
598.716	1	17
599.055	1	15
599.395	1	15
599.734	1	13
600.074	1	10
600.413	1	16
600.753	1	15
601.092	1	24
601.432	1	6
601.771	1	19
602.111	1	6
602.451	1	16
602.790	1	12
603.130	1	10
603.469	1	4
603.809	1	14
604.148	1	12
604.487	1	9
604.827	1	16
605.166	1	18
605.506	1	22
605.845	1	14
606.185	1	21
606.524	1	15
606.864	1	17
607.203	1	11
607.543	1	4
607.882	1	23
608.222	1	11
608.561	1	15
608.901	1	11
609.240	1	10
609.579	1	23
609.919	1	12
610.258	1	20
610.598	1	9
610.937	1	16
611.277	1	13
611.616	1	9
611.955	1	9
612.295	1	5
612.634	1	9
612.974	1	-3
613.313	1	7
613.652	1	12
613.992	1	11
614.331	1	5
614.671	1	14
615.010	1	8
615.349	1	19
615.689	1	17
616.028	1	1
616.368	1	9
616.707	1	12
617.046	1	13
617.386	1	8
617.725	1	9
618.064	1	7
618.404	1	9
618.743	1	0
619.082	1	8
619.422	1	6
619.761	1	11
620.100	1	19
620.440	1	14
620.779	1	2
621.118	1	10
621.458	1	12
621.797	1	8
622.136	1	11
622.476	1	7
622.815	1	9
623.154	1	13
623.494	1	16
623.833	1	18
624.172	1	8
624.511	1	7
624.851	1	0
625.190	1	8
625.529	1	4
625.869	1	15
626.208	1	13
626.547	1	8
626.886	1	18
627.226	1	13
627.565	1	10
627.904	1	5
628.243	1	12
628.583	1	4
628.922	1	10
629.261	1	11
629.600	1	16
629.940	1	11
630.279	1	0
630.618	1	8
630.957	1	6
631.297	1	14
631.636	1	-1
631.975	1	15
632.314	1	5
632.653	1	12
632.993	1	11
633.332	1	14
633.671	1	3
634.010	1	10
634.349	1	18
634.689	1	19
635.028	1	10
635.367	1	12
635.706	1	6
636.045	1	4
636.384	1	17
636.724	1	8
637.063	1	11
637.402	1	9
637.741	1	6
638.080	1	5
638.419	1	3
638.759	1	5
639.098	1	15
639.437	1	15
639.776	1	10
640.115	1	12
640.454	1	10
640.793	1	9
641.132	1	12
641.472	1	7
641.811	1	7
642.150	1	9
642.489	1	3
642.828	1	-5
643.167	1	5
643.506	1	-7
643.845	1	-3
644.184	1	11
644.524	1	5
644.863	1	2
645.202	1	3
645.541	1	9
645.880	1	15
646.219	1	0
646.558	1	0
646.897	1	1
647.236	1	4
647.575	1	16
647.914	1	5
648.253	1	18
648.592	1	-2
648.931	1	16
649.270	1	1
649.610	1	9
649.949	1	8
650.288	1	15
650.627	1	6
650.966	1	8
651.305	1	3
651.644	1	7
651.983	1	20
652.322	1	0
652.661	1	4
653.000	1	7
653.339	1	8
653.678	1	1
654.017	1	11
654.356	1	-4
654.695	1	13
655.034	1	8
655.373	1	9
655.712	1	5
656.051	1	6
656.390	1	-1
656.729	1	8
657.068	1	8
657.406	1	11
657.745	1	5
658.084	1	10
658.423	1	17
658.762	1	8
659.101	1	9
659.440	1	12
659.779	1	7
660.118	1	6
660.457	1	13
660.796	1	-2
661.135	1	1
661.474	1	-2
661.813	1	17
662.152	1	12
662.491	1	-7
662.829	1	-2
663.168	1	5
663.507	1	18
663.846	1	-2
664.185	1	13
664.524	1	6
664.863	1	-1
665.202	1	13
665.541	1	-5
665.879	1	-2
666.218	1	-7
666.557	1	7
666.896	1	7
667.235	1	7
667.574	1	3
667.913	1	12
668.251	1	8
668.590	1	9
668.929	1	-7
669.268	1	3
669.607	1	2
669.946	1	7
670.285	1	5
670.623	1	10
670.962	1	6
671.301	1	2
671.640	1	5
671.979	1	-4
672.317	1	9
672.656	1	5
672.995	1	18
673.334	1	3
673.673	1	12
674.011	1	7
674.350	1	4
674.689	1	-7
675.028	1	4
675.367	1	6
675.705	1	6
676.044	1	13
676.383	1	-1
676.722	1	5
677.060	1	0
677.399	1	8
677.738	1	9
678.077	1	10
678.416	1	-1
678.754	1	5
679.093	1	9
679.432	1	5
679.771	1	9
680.109	1	9
680.448	1	5
680.787	1	2
681.125	1	0
681.464	1	1
681.803	1	3
682.142	1	12
682.480	1	15
682.819	1	4
683.158	1	-3
683.496	1	6
683.835	1	10
684.174	1	10
684.512	1	12
684.851	1	6
685.190	1	-5
685.529	1	5
685.867	1	9
686.206	1	2
686.545	1	4
686.883	1	5
687.222	1	5
687.561	1	11
687.899	1	3
688.238	1	5
688.577	1	8
688.746	1	0