File: Data/GaN_200K_800ms/GaN_sample F_spot 12_UVVIS_200 K_200um_800 ms 2x2mm1_295.txt
340.368	1	0
340.710	1	-10
341.052	1	11
341.394	1	-7
341.737	1	1
342.079	1	-1
342.421	1	-5
342.763	1	7
343.105	1	-2
343.447	1	-1
343.789	1	-8
344.131	1	-5
344.473	1	-10
344.815	1	0
345.157	1	-9
345.499	1	0
345.841	1	5
346.183	1	-6
346.526	1	-19
346.868	1	7
347.210	1	-11
347.552	1	-1
347.894	1	-1
348.236	1	8
348.578	1	-1
348.920	1	-5
349.262	1	-4
349.604	1	8
349.946	1	-7
350.288	1	9
350.630	1	2
350.972	1	2
351.314	1	10
351.656	1	7
351.998	1	4
352.340	1	8
352.682	1	-2
353.024	1	6
353.366	1	14
353.708	1	6
354.050	1	-4
354.392	1	-1
354.734	1	7
355.076	1	6
355.418	1	-12
355.760	1	-8
356.102	1	11
356.444	1	5
356.785	1	14
357.127	1	0
357.469	1	1
357.811	1	1
358.153	1	9
358.495	1	1
358.837	1	-3
359.179	1	5
359.521	1	5
359.863	1	1
360.205	1	1
360.547	1	1
360.889	1	3
361.231	1	-8
361.572	1	9
361.914	1	13
362.256	1	0
362.598	1	2
362.940	1	-1
363.282	1	9
363.624	1	2
363.966	1	5
364.308	1	7
364.649	1	19
364.991	1	9
365.333	1	9
365.675	1	2
366.017	1	3
366.359	1	14
366.701	1	16
367.042	1	21
367.384	1	16
367.726	1	29
368.068	1	17
368.410	1	39
368.752	1	6
369.093	1	9
369.435	1	11
369.777	1	11
370.119	1	12
370.461	1	31
370.803	1	17
371.144	1	18
371.486	1	13
371.828	1	15
372.170	1	21
372.512	1	17
372.853	1	11
373.195	1	14
373.537	1	17
373.879	1	10
374.220	1	15
374.562	1	15
374.904	1	10
375.246	1	15
375.588	1	7
375.929	1	11
376.271	1	13
376.613	1	-3
376.955	1	7
377.296	1	-1
377.638	1	8
377.980	1	11
378.321	1	-5
378.663	1	4
379.005	1	16
379.347	1	-3
379.688	1	11
380.030	1	1
380.372	1	13
380.714	1	12
381.055	1	16
381.397	1	2
381.739	1	8
382.080	1	7
382.422	1	9
382.764	1	8
383.105	1	-3
383.447	1	-12
383.789	1	-2
384.130	1	0
384.472	1	1
384.814	1	2
385.156	1	0
385.497	1	6
385.839	1	0
386.180	1	1
386.522	1	8
386.864	1	8
387.205	1	2
387.547	1	-2
387.889	1	7
388.230	1	7
388.572	1	-6
388.914	1	8
389.255	1	-5
389.597	1	7
389.939	1	7
390.280	1	5
390.622	1	-1
390.963	1	7
391.305	1	7
391.647	1	5
391.988	1	10
392.330	1	9
392.671	1	3
393.013	1	12
393.355	1	14
393.696	1	7
394.038	1	5
394.379	1	4
394.721	1	-2
395.062	1	9
395.404	1	-6
395.746	1	8
396.087	1	-7
396.429	1	11
396.770	1	-10
397.112	1	5
397.453	1	12
397.795	1	-6
398.136	1	-7
398.478	1	1
398.819	1	7
399.161	1	13
399.503	1	-5
399.844	1	-3
400.186	1	-3
400.527	1	-4
400.869	1	4
401.210	1	4
401.552	1	-8
401.893	1	0
402.235	1	0
402.576	1	7
402.918	1	8
403.259	1	4
403.601	1	-4
403.942	1	1
404.284	1	11
404.625	1	-1
404.967	1	11
405.308	1	-3
405.649	1	6
405.991	1	-3
406.332	1	-8
406.674	1	-11
407.015	1	6
407.357	1	0
407.698	1	15
408.040	1	-4
408.381	1	4
408.722	1	-12
409.064	1	4
409.405	1	7
409.747	1	2
410.088	1	-5
410.430	1	10
410.771	1	5
411.112	1	-2
411.454	1	-3
411.795	1	-9
412.137	1	8
412.478	1	6
412.819	1	-1
413.161	1	-2
413.502	1	-4
413.844	1	5
414.185	1	12
414.526	1	1
414.868	1	1
415.209	1	0
415.550	1	-3
415.892	1	-3
416.233	1	7
416.575	1	9
416.916	1	-8
417.257	1	1
417.599	1	2
417.940	1	0
418.281	1	-2
418.623	1	-11
418.964	1	-15
419.305	1	-3
419.647	1	2
419.988	1	-6
420.329	1	-4
420.671	1	4
421.012	1	-5
421.353	1	-8
421.695	1	-12
422.036	1	-3
422.377	1	-3
422.718	1	8
423.060	1	-2
423.401	1	6
423.742	1	-2
424.084	1	-9
424.425	1	0
424.766	1	-5
425.107	1	1
425.449	1	-4
425.790	1	-6
426.131	1	-1
426.472	1	-3
426.814	1	3
427.155	1	-9
427.496	1	-1
427.837	1	-2
428.179	1	-5
428.520	1	2
428.861	1	-4
429.202	1	-3
429.544	1	-4
429.885	1	-1
430.226	1	-2
430.567	1	9
430.909	1	1
431.250	1	-8
431.591	1	-1
431.932	1	-5
432.273	1	-4
432.615	1	0
432.956	1	-4
433.297	1	1
433.638	1	-7
433.979	1	5
434.320	1	7
434.662	1	0
435.003	1	10
435.344	1	6
435.685	1	6
436.026	1	9
436.368	1	7
436.709	1	-1
437.050	1	2
437.391	1	10
437.732	1	-9
438.073	1	-4
438.414	1	-4
438.756	1	-9
439.097	1	-3
439.438	1	-8
439.779	1	-5
440.120	1	-1
440.461	1	2
440.802	1	-6
441.143	1	3
441.485	1	-4
441.826	1	2
442.167	1	4
442.508	1	-6
442.849	1	11
443.190	1	0
443.531	1	18
443.872	1	1
444.213	1	4
444.554	1	9
444.895	1	-4
445.237	1	1
445.578	1	-15
445.919	1	-2
446.260	1	-5
446.601	1	-1
446.942	1	-1
447.283	1	-6
447.624	1	-5
447.965	1	-8
448.306	1	0
448.647	1	-9
448.988	1	0
449.329	1	-1
449.670	1	4
450.011	1	7
450.352	1	-3
450.693	1	-13
451.034	1	-7
451.375	1	-4
451.716	1	-3
452.057	1	-2
452.398	1	-6
452.739	1	0
453.080	1	0
453.421	1	1
453.762	1	5
454.103	1	8
454.444	1	-7
454.785	1	0
455.126	1	-5
455.467	1	4
455.808	1	6
456.149	1	-2
456.490	1	-7
456.831	1	6
457.172	1	-4
457.513	1	-1
457.854	1	-2
458.195	1	-2
458.536	1	2
458.877	1	1
459.218	1	3
459.559	1	6
459.899	1	8
460.240	1	-3
460.581	1	13
460.922	1	3
461.263	1	-1
461.604	1	3
461.945	1	-4
462.286	1	2
462.627	1	6
462.968	1	0
463.309	1	-6
463.649	1	-9
463.990	1	-1
464.331	1	-7
464.672	1	2
465.013	1	-6
465.354	1	-3
465.695	1	-2
466.036	1	-1
466.376	1	-6
466.717	1	-5
467.058	1	-4
467.399	1	6
467.740	1	1
468.081	1	-1
468.422	1	-1
468.762	1	-10
469.103	1	-13
469.444	1	-6
469.785	1	-21
470.126	1	-5
470.467	1	-4
470.807	1	0
471.148	1	2
471.489	1	-2
471.830	1	-1
472.171	1	4
472.511	1	-13
472.852	1	9
473.193	1	2
473.534	1	3
473.875	1	12
474.215	1	-3
474.556	1	-2
474.897	1	12
475.238	1	-1
475.578	1	-7
475.919	1	2
476.260	1	3
476.601	1	-10
476.942	1	14
477.282	1	4
477.623	1	-9
477.964	1	-2
478.305	1	-7
478.645	1	8
478.986	1	0
479.327	1	-17
479.667	1	1
480.008	1	-4
480.349	1	1
480.690	1	2
481.030	1	-1
481.371	1	2
481.712	1	4
482.053	1	5
482.393	1	2
482.734	1	-5
483.075	1	-7
483.415	1	-4
483.756	1	7
484.097	1	-6
484.437	1	-3
484.778	1	3
485.119	1	-9
485.459	1	13
485.800	1	-5
486.141	1	-10
486.481	1	2
486.822	1	8
487.163	1	5
487.503	1	-7
487.844	1	4
488.185	1	-13
488.525	1	5
488.866	1	1
489.207	1	-4
489.547	1	0
489.888	1	6
490.228	1	10
490.569	1	5
490.910	1	-8
491.250	1	-3
491.591	1	-9
491.932	1	4
492.272	1	5
492.613	1	-4
492.953	1	-8
493.294	1	3
493.635	1	-4
493.975	1	0
494.316	1	-7
494.656	1	0
494.997	1	-7
495.337	1	14
495.678	1	0
496.019	1	-2
496.359	1	-4
496.700	1	4
497.040	1	-3
497.381	1	-4
497.721	1	1
498.062	1	-2
498.403	1	3
498.743	1	-6
499.084	1	-1
499.424	1	-2
499.765	1	1
500.105	1	4
500.446	1	5
500.786	1	-12
501.127	1	-3
501.467	1	-7
501.808	1	5
502.148	1	-3
502.489	1	2
502.829	1	-4
503.170	1	6
503.510	1	3
503.851	1	-4
504.191	1	6
504.532	1	9
504.872	1	-3
505.213	1	2
505.553	1	-9
505.894	1	-6
506.234	1	2
506.575	1	7
506.915	1	-3
507.256	1	-3
507.596	1	7
507.936	1	7
508.277	1	-3
508.617	1	2
508.958	1	2
509.298	1	-3
509.639	1	-6
509.979	1	3
510.319	1	5
510.660	1	-5
511.000	1	-10
511.341	1	1
511.681	1	4
512.022	1	-7
512.362	1	0
512.702	1	4
513.043	1	1
513.383	1	-6
513.724	1	-2
514.064	1	9
514.404	1	5
514.745	1	-4
515.085	1	4
515.425	1	-4
515.766	1	-5
516.106	1	0
516.447	1	14
516.787	1	4
517.127	1	-6
517.468	1	0
517.808	1	-6
518.148	1	0
518.489	1	-2
518.829	1	3
519.169	1	0
519.510	1	2
519.850	1	4
520.190	1	-7
520.531	1	-2
520.871	1	7
521.211	1	-10
521.552	1	12
521.892	1	-1
522.232	1	3
522.573	1	10
522.913	1	2
523.253	1	-1
523.593	1	-1
523.934	1	1
524.274	1	7
524.614	1	4
524.955	1	-3
525.295	1	-2
525.635	1	0
525.975	1	-3
526.316	1	12
526.656	1	5
526.996	1	3
527.337	1	2
527.677	1	3
528.017	1	-10
528.357	1	4
528.698	1	4
529.038	1	-2
529.378	1	5
529.718	1	-2
530.058	1	-8
530.399	1	2
530.739	1	2
531.079	1	-3
531.419	1	11
531.760	1	3
532.100	1	8
532.440	1	-5
532.780	1	-2
533.120	1	6
533.461	1	4
533.801	1	13
534.141	1	-13
534.481	1	-6
534.821	1	6
535.162	1	3
535.502	1	-1
535.842	1	8
536.182	1	-6
536.522	1	-11
536.862	1	6
537.203	1	-2
537.543	1	-4
537.883	1	-1
538.223	1	8
538.563	1	3
538.903	1	-9
539.243	1	-3
539.584	1	3
539.924	1	7
540.264	1	-2
540.604	1	-1
540.944	1	7
541.284	1	6
541.624	1	12
541.964	1	8
542.305	1	3
542.645	1	-6
542.985	1	-1
543.325	1	4
543.665	1	11
544.005	1	8
544.345	1	12
544.685	1	3
545.025	1	-3
545.365	1	0
545.705	1	-5
546.045	1	0
546.386	1	4
546.726	1	-11
547.066	1	10
547.406	1	5
547.746	1	-8
548.086	1	3
548.426	1	0
548.766	1	0
549.106	1	6
549.446	1	-1
549.786	1	-10
550.126	1	12
550.466	1	-4
550.806	1	-5
551.146	1	-6
551.486	1	6
551.826	1	7
552.166	1	4
552.506	1	0
552.846	1	1
553.186	1	-2
553.526	1	1
553.866	1	6
554.206	1	4
554.546	1	4
554.886	1	0
555.226	1	-11
555.566	1	4
555.906	1	4
556.246	1	0
556.586	1	7
556.926	1	-3
557.266	1	-6
557.606	1	4
557.946	1	6
558.286	1	6
558.626	1	9
558.966	1	3
559.306	1	2
559.646	1	-6
559.986	1	-11
560.325	1	-5
560.665	1	-6
561.005	1	-7
561.345	1	-2
561.685	1	1
562.025	1	-4
562.365	1	6
562.705	1	-3
563.045	1	-4
563.385	1	-5
563.725	1	12
564.064	1	-6
564.404	1	3
564.744	1	-2
565.084	1	-4
565.424	1	6
565.764	1	0
566.104	1	-3
566.444	1	0
566.783	1	-2
567.123	1	3
567.463	1	-4
567.803	1	-10
568.143	1	-4
568.483	1	7
568.823	1	-5
569.162	1	9
569.502	1	1
569.842	1	15
570.182	1	-2
570.522	1	-4
570.862	1	-3
571.201	1	13
571.541	1	4
571.881	1	6
572.221	1	-5
572.561	1	2
572.900	1	-9
573.240	1	2
573.580	1	8
573.920	1	10
574.260	1	12
574.599	1	-4
574.939	1	6
575.279	1	4
575.619	1	-1
575.959	1	-3
576.298	1	12
576.638	1	-10
576.978	1	1
577.318	1	8
577.657	1	-5
577.997	1	1
578.337	1	12
578.677	1	7
579.016	1	0
579.356	1	-3
579.696	1	11
580.036	1	-2
580.375	1	4
580.715	1	2
581.055	1	3
581.394	1	-4
581.734	1	-9
582.074	1	-2
582.414	1	9
582.753	1	4
583.093	1	-7
583.433	1	-3
583.772	1	5
584.112	1	1
584.452	1	-2
584.791	1	-4
585.131	1	1
585.471	1	3
585.811	1	6
586.150	1	-3
586.490	1	7
586.830	1	-3
587.169	1	8
587.509	1	-5
587.849	1	2
588.188	1	10
588.528	1	-3
588.867	1	11
589.207	1	10
589.547	1	-3
589.886	1	-6
590.226	1	6
590.566	1	0
590.905	1	3
591.245	1	1
591.585	1	-2
591.924	1	16
592.264	1	-7
592.603	1	1
592.943	1	1
593.283	1	0
593.622	1	-2
593.962	1	4
594.301	1	1
594.641	1	-1
594.981	1	-8
595.320	1	1
595.660	1	5
595.999	1	-3
596.339	1	-5
596.678	1	-4
597.018	1	0
597.358	1	5
597.697	1	4
598.037	1	-10
598.376	1	3
598.716	1	11
599.055	1	5
599.395	1	6
599.734	1	0
600.074	1	6
600.413	1	4
600.753	1	6
601.092	1	5
601.432	1	-14
601.771	1	8
602.111	1	1
602.451	1	6
602.790	1	-5
603.130	1	5
603.469	1	-2
603.809	1	-1
604.148	1	-4
604.487	1	-1
604.827	1	2
605.166	1	12
605.506	1	9
605.845	1	4
606.185	1	4
606.524	1	-1
606.864	1	2
607.203	1	-1
607.543	1	7
607.882	1	2
608.222	1	-2
608.561	1	-7
608.901	1	0
609.240	1	-1
609.579	1	13
609.919	1	7
610.258	1	6
610.598	1	-4
610.937	1	0
611.277	1	0
611.616	1	-3
611.955	1	3
612.295	1	-8
612.634	1	-4
612.974	1	-21
613.313	1	9
613.652	1	6
613.992	1	6
614.331	1	-3
614.671	1	9
615.010	1	-8
615.349	1	12
615.689	1	8
616.028	1	0
616.368	1	4
616.707	1	10
617.046	1	11
617.386	1	7
617.725	1	3
618.064	1	-7
618.404	1	5
618.743	1	3
619.082	1	-1
619.422	1	-8
619.761	1	3
620.100	1	11
620.440	1	4
620.779	1	1
621.118	1	-2
621.458	1	-3
621.797	1	0
622.136	1	13
622.476	1	18
622.815	1	4
623.154	1	6
623.494	1	7
623.833	1	8
624.172	1	-5
624.511	1	0
624.851	1	-12
625.190	1	3
625.529	1	-6
625.869	1	-5
626.208	1	0
626.547	1	-2
626.886	1	8
627.226	1	-3
627.565	1	2
627.904	1	-2
628.243	1	4
628.583	1	-3
628.922	1	1
629.261	1	3
629.600	1	6
629.940	1	5
630.279	1	-2
630.618	1	6
630.957	1	10
631.297	1	-5
631.636	1	-1
631.975	1	13
632.314	1	-4
632.653	1	2
632.993	1	-2
633.332	1	-4
633.671	1	-3
634.010	1	-4
634.349	1	7
634.689	1	-4
635.028	1	3
635.367	1	4
635.706	1	0
636.045	1	3
636.384	1	2
636.724	1	-8
637.063	1	-10
637.402	1	3
637.741	1	7
638.080	1	-1
638.419	1	-1
638.759	1	-3
639.098	1	3
639.437	1	7
639.776	1	3
640.115	1	-8
640.454	1	-2
640.793	1	8
641.132	1	5
641.472	1	7
641.811	1	-5
642.150	1	-8
642.489	1	9
642.828	1	-8
643.167	1	-8
643.506	1	-2
643.845	1	-9
644.184	1	2
644.524	1	-1
644.863	1	2
645.202	1	11
645.541	1	9
645.880	1	4
646.219	1	4
646.558	1	-3
646.897	1	-1
647.236	1	-1
647.575	1	3
647.914	1	-5
648.253	1	6
648.592	1	2
648.931	1	6
649.270	1	5
649.610	1	3
649.949	1	-1
650.288	1	7
650.627	1	-3
650.966	1	5
651.305	1	9
651.644	1	15
651.983	1	-4
652.322	1	0
652.661	1	2
653.000	1	-3
653.339	1	0
653.678	1	-5
654.017	1	-5
654.356	1	-5
654.695	1	7
655.034	1	-2
655.373	1	4
655.712	1	-1
656.051	1	7
656.390	1	-3
656.729	1	8
657.068	1	8
657.406	1	10
657.745	1	0
658.084	1	2
658.423	1	7
658.762	1	-2
659.101	1	5
659.440	1	-2
659.779	1	-5
660.118	1	9
660.457	1	3
660.796	1	-12
661.135	1	-1
661.474	1	-6
661.813	1	18
662.152	1	4
662.491	1	-1
662.829	1	-8
663.168	1	1
663.507	1	8
663.846	1	2
664.185	1	-3
664.524	1	-1
664.863	1	-5
665.202	1	5
665.541	1	-9
665.879	1	-1
666.218	1	-3
666.557	1	2
666.896	1	9
667.235	1	9
667.574	1	-4
667.913	1	5
668.251	1	-3
668.590	1	3
668.929	1	-13
669.268	1	5
669.607	1	5
669.946	1	0
670.285	1	-1
670.623	1	2
670.962	1	-6
671.301	1	8
671.640	1	0
671.979	1	-4
672.317	1	3
672.656	1	-8
672.995	1	4
673.334	1	-2
673.673	1	4
674.011	1	-14
674.350	1	5
674.689	1	-2
675.028	1	-7
675.367	1	9
675.705	1	-5
676.044	1	2
676.383	1	3
676.722	1	5
677.060	1	-11
677.399	1	-3
677.738	1	2
678.077	1	4
678.416	1	8
678.754	1	-6
679.093	1	4
679.432	1	0
679.771	1	4
680.109	1	15
680.448	1	1
680.787	1	2
681.125	1	9
681.464	1	-3
681.803	1	-7
682.142	1	0
682.480	1	15
682.819	1	-3
683.158	1	5
683.496	1	2
683.835	1	1
684.174	1	1
684.512	1	-6
684.851	1	1
685.190	1	-6
685.529	1	-1
685.867	1	-8
686.206	1	-4
686.545	1	-2
686.883	1	2
687.222	1	11
687.561	1	1
687.899	1	5
688.238	1	3
688.577	1	-2
688.746	1	1