File: Data/GaN_200K_800ms/GaN_sample F_spot 12_UVVIS_200 K_200um_800 ms 2x2mm1_61.txt
340.368	1	11
340.710	1	-6
341.052	1	11
341.394	1	13
341.737	1	13
342.079	1	3
342.421	1	3
342.763	1	15
343.105	1	-6
343.447	1	6
343.789	1	1
344.131	1	6
344.473	1	15
344.815	1	3
345.157	1	3
345.499	1	-5
345.841	1	16
346.183	1	5
346.526	1	-2
346.868	1	12
347.210	1	3
347.552	1	5
347.894	1	15
348.236	1	14
348.578	1	2
348.920	1	2
349.262	1	3
349.604	1	9
349.946	1	0
350.288	1	20
350.630	1	9
350.972	1	11
351.314	1	14
351.656	1	18
351.998	1	16
352.340	1	17
352.682	1	15
353.024	1	14
353.366	1	22
353.708	1	6
354.050	1	8
354.392	1	15
354.734	1	25
355.076	1	17
355.418	1	6
355.760	1	10
356.102	1	20
356.444	1	11
356.785	1	23
357.127	1	26
357.469	1	26
357.811	1	28
358.153	1	28
358.495	1	40
358.837	1	21
359.179	1	24
359.521	1	37
359.863	1	41
360.205	1	38
360.547	1	52
360.889	1	44
361.231	1	51
361.572	1	67
361.914	1	69
362.256	1	69
362.598	1	67
362.940	1	71
363.282	1	93
363.624	1	99
363.966	1	106
364.308	1	102
364.649	1	121
364.991	1	117
365.333	1	139
365.675	1	144
366.017	1	160
366.359	1	182
366.701	1	188
367.042	1	224
367.384	1	234
367.726	1	238
368.068	1	247
368.410	1	265
368.752	1	261
369.093	1	264
369.435	1	295
369.777	1	275
370.119	1	281
370.461	1	281
370.803	1	250
371.144	1	251
371.486	1	259
371.828	1	254
372.170	1	226
372.512	1	222
372.853	1	208
373.195	1	191
373.537	1	189
373.879	1	170
374.220	1	203
374.562	1	165
374.904	1	152
375.246	1	158
375.588	1	145
375.929	1	129
376.271	1	138
376.613	1	124
376.955	1	110
377.296	1	107
377.638	1	102
377.980	1	92
378.321	1	98
378.663	1	102
379.005	1	101
379.347	1	89
379.688	1	83
380.030	1	83
380.372	1	85
380.714	1	74
381.055	1	74
381.397	1	59
381.739	1	66
382.080	1	62
382.422	1	56
382.764	1	50
383.105	1	52
383.447	1	44
383.789	1	49
384.130	1	42
384.472	1	34
384.814	1	49
385.156	1	34
385.497	1	50
385.839	1	39
386.180	1	42
386.522	1	47
386.864	1	48
387.205	1	36
387.547	1	30
387.889	1	27
388.230	1	38
388.572	1	31
388.914	1	37
389.255	1	23
389.597	1	30
389.939	1	30
390.280	1	29
390.622	1	23
390.963	1	33
391.305	1	24
391.647	1	36
391.988	1	34
392.330	1	27
392.671	1	28
393.013	1	17
393.355	1	18
393.696	1	21
394.038	1	19
394.379	1	20
394.721	1	3
395.062	1	24
395.404	1	19
395.746	1	29
396.087	1	7
396.429	1	9
396.770	1	9
397.112	1	13
397.453	1	27
397.795	1	16
398.136	1	1
398.478	1	14
398.819	1	19
399.161	1	18
399.503	1	11
399.844	1	5
400.186	1	8
400.527	1	11
400.869	1	12
401.210	1	12
401.552	1	3
401.893	1	16
402.235	1	7
402.576	1	1
402.918	1	16
403.259	1	9
403.601	1	10
403.942	1	12
404.284	1	22
404.625	1	15
404.967	1	4
405.308	1	9
405.649	1	6
405.991	1	-1
406.332	1	11
406.674	1	6
407.015	1	6
407.357	1	15
407.698	1	2
408.040	1	4
408.381	1	15
408.722	1	-5
409.064	1	15
409.405	1	16
409.747	1	4
410.088	1	10
410.430	1	11
410.771	1	9
411.112	1	2
411.454	1	2
411.795	1	6
412.137	1	8
412.478	1	18
412.819	1	3
413.161	1	7
413.502	1	8
413.844	1	5
414.185	1	10
414.526	1	-5
414.868	1	4
415.209	1	-7
415.550	1	-3
415.892	1	8
416.233	1	13
416.575	1	15
416.916	1	7
417.257	1	2
417.599	1	9
417.940	1	17
418.281	1	0
418.623	1	4
418.964	1	-5
419.305	1	5
419.647	1	1
419.988	1	8
420.329	1	8
420.671	1	6
421.012	1	6
421.353	1	3
421.695	1	3
422.036	1	8
422.377	1	4
422.718	1	9
423.060	1	0
423.401	1	13
423.742	1	4
424.084	1	-1
424.425	1	6
424.766	1	3
425.107	1	-2
425.449	1	1
425.790	1	-6
426.131	1	-2
426.472	1	5
426.814	1	13
427.155	1	4
427.496	1	-1
427.837	1	0
428.179	1	-1
428.520	1	-1
428.861	1	0
429.202	1	8
429.544	1	6
429.885	1	3
430.226	1	-6
430.567	1	1
430.909	1	-1
431.250	1	-3
431.591	1	5
431.932	1	-2
432.273	1	1
432.615	1	-3
432.956	1	3
433.297	1	2
433.638	1	0
433.979	1	4
434.320	1	7
434.662	1	-1
435.003	1	6
435.344	1	2
435.685	1	2
436.026	1	6
436.368	1	7
436.709	1	1
437.050	1	6
437.391	1	6
437.732	1	-10
438.073	1	-1
438.414	1	-6
438.756	1	-5
439.097	1	-2
439.438	1	5
439.779	1	2
440.120	1	-1
440.461	1	7
440.802	1	2
441.143	1	7
441.485	1	0
441.826	1	9
442.167	1	7
442.508	1	-6
442.849	1	15
443.190	1	7
443.531	1	9
443.872	1	7
444.213	1	6
444.554	1	13
444.895	1	1
445.237	1	-2
445.578	1	-5
445.919	1	-7
446.260	1	1
446.601	1	-3
446.942	1	1
447.283	1	7
447.624	1	3
447.965	1	-1
448.306	1	8
448.647	1	-5
448.988	1	0
449.329	1	0
449.670	1	15
450.011	1	19
450.352	1	7
450.693	1	-3
451.034	1	-5
451.375	1	-2
451.716	1	0
452.057	1	3
452.398	1	3
452.739	1	6
453.080	1	-1
453.421	1	-2
453.762	1	4
454.103	1	7
454.444	1	2
454.785	1	-3
455.126	1	-8
455.467	1	1
455.808	1	1
456.149	1	12
456.490	1	6
456.831	1	5
457.172	1	1
457.513	1	5
457.854	1	-1
458.195	1	-7
458.536	1	10
458.877	1	0
459.218	1	2
459.559	1	13
459.899	1	4
460.240	1	0
460.581	1	13
460.922	1	1
461.263	1	-3
461.604	1	3
461.945	1	10
462.286	1	9
462.627	1	9
462.968	1	8
463.309	1	-6
463.649	1	-5
463.990	1	5
464.331	1	6
464.672	1	7
465.013	1	6
465.354	1	2
465.695	1	3
466.036	1	0
466.376	1	-1
466.717	1	4
467.058	1	-5
467.399	1	11
467.740	1	1
468.081	1	9
468.422	1	-6
468.762	1	1
469.103	1	-1
469.444	1	0
469.785	1	-4
470.126	1	-1
470.467	1	-5
470.807	1	3
471.148	1	9
471.489	1	1
471.830	1	7
472.171	1	5
472.511	1	2
472.852	1	4
473.193	1	11
473.534	1	5
473.875	1	18
474.215	1	12
474.556	1	5
474.897	1	15
475.238	1	-2
475.578	1	-7
475.919	1	4
476.260	1	6
476.601	1	-3
476.942	1	11
477.282	1	-4
477.623	1	-3
477.964	1	-2
478.305	1	4
478.645	1	16
478.986	1	1
479.327	1	-4
479.667	1	3
480.008	1	-3
480.349	1	1
480.690	1	6
481.030	1	1
481.371	1	16
481.712	1	6
482.053	1	1
482.393	1	4
482.734	1	0
483.075	1	11
483.415	1	14
483.756	1	13
484.097	1	5
484.437	1	-4
484.778	1	6
485.119	1	-3
485.459	1	19
485.800	1	1
486.141	1	-5
486.481	1	4
486.822	1	4
487.163	1	7
487.503	1	8
487.844	1	2
488.185	1	9
488.525	1	3
488.866	1	6
489.207	1	5
489.547	1	-3
489.888	1	1
490.228	1	7
490.569	1	21
490.910	1	3
491.250	1	1
491.591	1	-1
491.932	1	1
492.272	1	16
492.613	1	4
492.953	1	0
493.294	1	4
493.635	1	11
493.975	1	3
494.316	1	12
494.656	1	4
494.997	1	-4
495.337	1	8
495.678	1	15
496.019	1	3
496.359	1	0
496.700	1	8
497.040	1	8
497.381	1	0
497.721	1	-2
498.062	1	11
498.403	1	0
498.743	1	0
499.084	1	12
499.424	1	9
499.765	1	5
500.105	1	3
500.446	1	7
500.786	1	7
501.127	1	12
501.467	1	5
501.808	1	5
502.148	1	15
502.489	1	14
502.829	1	10
503.170	1	15
503.510	1	22
503.851	1	7
504.191	1	6
504.532	1	14
504.872	1	3
505.213	1	28
505.553	1	1
505.894	1	8
506.234	1	15
506.575	1	18
506.915	1	10
507.256	1	13
507.596	1	21
507.936	1	24
508.277	1	13
508.617	1	3
508.958	1	2
509.298	1	11
509.639	1	8
509.979	1	4
510.319	1	24
510.660	1	11
511.000	1	17
511.341	1	19
511.681	1	16
512.022	1	6
512.362	1	15
512.702	1	8
513.043	1	16
513.383	1	-1
513.724	1	15
514.064	1	24
514.404	1	13
514.745	1	8
515.085	1	2
515.425	1	20
515.766	1	11
516.106	1	17
516.447	1	21
516.787	1	17
517.127	1	21
517.468	1	17
517.808	1	9
518.148	1	23
518.489	1	8
518.829	1	22
519.169	1	3
519.510	1	21
519.850	1	32
520.190	1	19
520.531	1	19
520.871	1	14
521.211	1	10
521.552	1	16
521.892	1	20
522.232	1	15
522.573	1	18
522.913	1	18
523.253	1	13
523.593	1	16
523.934	1	10
524.274	1	17
524.614	1	14
524.955	1	16
525.295	1	24
525.635	1	22
525.975	1	12
526.316	1	34
526.656	1	14
526.996	1	28
527.337	1	20
527.677	1	27
528.017	1	21
528.357	1	14
528.698	1	31
529.038	1	21
529.378	1	16
529.718	1	20
530.058	1	21
530.399	1	31
530.739	1	33
531.079	1	25
531.419	1	28
531.760	1	24
532.100	1	15
532.440	1	17
532.780	1	14
533.120	1	21
533.461	1	20
533.801	1	39
534.141	1	17
534.481	1	21
534.821	1	20
535.162	1	28
535.502	1	16
535.842	1	25
536.182	1	17
536.522	1	17
536.862	1	27
537.203	1	23
537.543	1	17
537.883	1	17
538.223	1	28
538.563	1	27
538.903	1	16
539.243	1	24
539.584	1	14
539.924	1	31
540.264	1	23
540.604	1	15
540.944	1	22
541.284	1	30
541.624	1	20
541.964	1	25
542.305	1	24
542.645	1	24
542.985	1	29
543.325	1	26
543.665	1	32
544.005	1	33
544.345	1	26
544.685	1	26
545.025	1	30
545.365	1	20
545.705	1	26
546.045	1	15
546.386	1	26
546.726	1	21
547.066	1	28
547.406	1	31
547.746	1	16
548.086	1	30
548.426	1	14
548.766	1	34
549.106	1	31
549.446	1	27
549.786	1	24
550.126	1	39
550.466	1	35
550.806	1	20
551.146	1	20
551.486	1	28
551.826	1	32
552.166	1	28
552.506	1	31
552.846	1	29
553.186	1	44
553.526	1	26
553.866	1	33
554.206	1	37
554.546	1	44
554.886	1	31
555.226	1	14
555.566	1	36
555.906	1	24
556.246	1	21
556.586	1	25
556.926	1	28
557.266	1	17
557.606	1	30
557.946	1	36
558.286	1	27
558.626	1	31
558.966	1	37
559.306	1	18
559.646	1	19
559.986	1	19
560.325	1	14
560.665	1	25
561.005	1	29
561.345	1	19
561.685	1	33
562.025	1	24
562.365	1	18
562.705	1	15
563.045	1	22
563.385	1	22
563.725	1	21
564.064	1	21
564.404	1	38
564.744	1	25
565.084	1	37
565.424	1	31
565.764	1	22
566.104	1	26
566.444	1	12
566.783	1	21
567.123	1	27
567.463	1	23
567.803	1	26
568.143	1	28
568.483	1	35
568.823	1	21
569.162	1	31
569.502	1	18
569.842	1	27
570.182	1	22
570.522	1	6
570.862	1	23
571.201	1	37
571.541	1	29
571.881	1	38
572.221	1	18
572.561	1	16
572.900	1	18
573.240	1	19
573.580	1	35
573.920	1	31
574.260	1	27
574.599	1	28
574.939	1	32
575.279	1	33
575.619	1	23
575.959	1	19
576.298	1	34
576.638	1	20
576.978	1	28
577.318	1	22
577.657	1	22
577.997	1	28
578.337	1	27
578.677	1	26
579.016	1	37
579.356	1	8
579.696	1	21
580.036	1	29
580.375	1	24
580.715	1	25
581.055	1	24
581.394	1	28
581.734	1	11
582.074	1	16
582.414	1	31
582.753	1	21
583.093	1	21
583.433	1	28
583.772	1	35
584.112	1	24
584.452	1	26
584.791	1	20
585.131	1	28
585.471	1	28
585.811	1	28
586.150	1	25
586.490	1	27
586.830	1	25
587.169	1	36
587.509	1	20
587.849	1	30
588.188	1	34
588.528	1	26
588.867	1	24
589.207	1	22
589.547	1	28
589.886	1	12
590.226	1	31
590.566	1	14
590.905	1	23
591.245	1	21
591.585	1	18
591.924	1	13
592.264	1	22
592.603	1	33
592.943	1	10
593.283	1	21
593.622	1	22
593.962	1	23
594.301	1	25
594.641	1	17
594.981	1	13
595.320	1	20
595.660	1	18
595.999	1	9
596.339	1	20
596.678	1	15
597.018	1	19
597.358	1	17
597.697	1	19
598.037	1	15
598.376	1	12
598.716	1	23
599.055	1	25
599.395	1	15
599.734	1	19
600.074	1	16
600.413	1	19
600.753	1	31
601.092	1	25
601.432	1	16
601.771	1	22
602.111	1	18
602.451	1	25
602.790	1	16
603.130	1	15
603.469	1	6
603.809	1	18
604.148	1	20
604.487	1	14
604.827	1	26
605.166	1	26
605.506	1	17
605.845	1	18
606.185	1	28
606.524	1	18
606.864	1	14
607.203	1	14
607.543	1	16
607.882	1	16
608.222	1	20
608.561	1	21
608.901	1	15
609.240	1	13
609.579	1	31
609.919	1	25
610.258	1	19
610.598	1	21
610.937	1	19
611.277	1	11
611.616	1	29
611.955	1	20
612.295	1	11
612.634	1	12
612.974	1	10
613.313	1	27
613.652	1	20
613.992	1	15
614.331	1	13
614.671	1	9
615.010	1	16
615.349	1	23
615.689	1	25
616.028	1	21
616.368	1	14
616.707	1	17
617.046	1	5
617.386	1	3
617.725	1	18
618.064	1	11
618.404	1	6
618.743	1	22
619.082	1	19
619.422	1	5
619.761	1	6
620.100	1	20
620.440	1	17
620.779	1	10
621.118	1	7
621.458	1	8
621.797	1	13
622.136	1	18
622.476	1	19
622.815	1	20
623.154	1	28
623.494	1	24
623.833	1	21
624.172	1	16
624.511	1	12
624.851	1	6
625.190	1	13
625.529	1	19
625.869	1	25
626.208	1	9
626.547	1	10
626.886	1	10
627.226	1	12
627.565	1	19
627.904	1	18
628.243	1	15
628.583	1	12
628.922	1	22
629.261	1	13
629.600	1	20
629.940	1	9
630.279	1	7
630.618	1	16
630.957	1	11
631.297	1	11
631.636	1	5
631.975	1	29
632.314	1	16
632.653	1	20
632.993	1	15
633.332	1	12
633.671	1	11
634.010	1	6
634.349	1	25
634.689	1	21
635.028	1	17
635.367	1	14
635.706	1	5
636.045	1	25
636.384	1	14
636.724	1	8
637.063	1	7
637.402	1	14
637.741	1	17
638.080	1	12
638.419	1	5
638.759	1	0
639.098	1	11
639.437	1	10
639.776	1	15
640.115	1	9
640.454	1	6
640.793	1	20
641.132	1	16
641.472	1	22
641.811	1	7
642.150	1	8
642.489	1	20
642.828	1	-3
643.167	1	8
643.506	1	-3
643.845	1	5
644.184	1	13
644.524	1	8
644.863	1	7
645.202	1	15
645.541	1	12
645.880	1	4
646.219	1	18
646.558	1	4
646.897	1	12
647.236	1	4
647.575	1	16
647.914	1	8
648.253	1	21
648.592	1	9
648.931	1	20
649.270	1	13
649.610	1	16
649.949	1	16
650.288	1	16
650.627	1	14
650.966	1	9
651.305	1	6
651.644	1	16
651.983	1	18
652.322	1	6
652.661	1	8
653.000	1	8
653.339	1	21
653.678	1	5
654.017	1	4
654.356	1	3
654.695	1	13
655.034	1	15
655.373	1	13
655.712	1	10
656.051	1	5
656.390	1	13
656.729	1	18
657.068	1	5
657.406	1	11
657.745	1	9
658.084	1	9
658.423	1	15
658.762	1	0
659.101	1	24
659.440	1	10
659.779	1	9
660.118	1	13
660.457	1	10
660.796	1	-4
661.135	1	1
661.474	1	7
661.813	1	18
662.152	1	13
662.491	1	7
662.829	1	5
663.168	1	6
663.507	1	13
663.846	1	5
664.185	1	11
664.524	1	13
664.863	1	15
665.202	1	3
665.541	1	4
665.879	1	2
666.218	1	2
666.557	1	9
666.896	1	-1
667.235	1	8
667.574	1	5
667.913	1	11
668.251	1	5
668.590	1	5
668.929	1	-2
669.268	1	2
669.607	1	12
669.946	1	1
670.285	1	4
670.623	1	7
670.962	1	7
671.301	1	1
671.640	1	12
671.979	1	4
672.317	1	11
672.656	1	10
672.995	1	10
673.334	1	4
673.673	1	15
674.011	1	6
674.350	1	8
674.689	1	6
675.028	1	11
675.367	1	16
675.705	1	16
676.044	1	4
676.383	1	9
676.722	1	6
677.060	1	7
677.399	1	5
677.738	1	14
678.077	1	18
678.416	1	6
678.754	1	1
679.093	1	16
679.432	1	20
679.771	1	8
680.109	1	10
680.448	1	12
680.787	1	5
681.125	1	17
681.464	1	8
681.803	1	8
682.142	1	19
682.480	1	20
682.819	1	12
683.158	1	7
683.496	1	3
683.835	1	15
684.174	1	13
684.512	1	9
684.851	1	7
685.190	1	16
685.529	1	12
685.867	1	6
686.206	1	8
686.545	1	4
686.883	1	13
687.222	1	16
687.561	1	16
687.899	1	5
688.238	1	3
688.577	1	9
688.746	1	11