File: Data/GaN_200K_800ms/GaN_sample F_spot 12_UVVIS_200 K_200um_800 ms 2x2mm1_123.txt
340.368	1	8
340.710	1	-7
341.052	1	9
341.394	1	-9
341.737	1	13
342.079	1	-7
342.421	1	3
342.763	1	14
343.105	1	0
343.447	1	-2
343.789	1	6
344.131	1	2
344.473	1	-3
344.815	1	-4
345.157	1	-2
345.499	1	11
345.841	1	10
346.183	1	-4
346.526	1	0
346.868	1	6
347.210	1	-5
347.552	1	8
347.894	1	-1
348.236	1	12
348.578	1	4
348.920	1	-1
349.262	1	5
349.604	1	2
349.946	1	-1
350.288	1	10
350.630	1	3
350.972	1	9
351.314	1	5
351.656	1	8
351.998	1	12
352.340	1	9
352.682	1	15
353.024	1	9
353.366	1	26
353.708	1	3
354.050	1	0
354.392	1	4
354.734	1	11
355.076	1	7
355.418	1	-6
355.760	1	4
356.102	1	13
356.444	1	15
356.785	1	8
357.127	1	8
357.469	1	6
357.811	1	6
358.153	1	17
358.495	1	7
358.837	1	13
359.179	1	7
359.521	1	11
359.863	1	10
360.205	1	16
360.547	1	21
360.889	1	17
361.231	1	6
361.572	1	28
361.914	1	18
362.256	1	20
362.598	1	17
362.940	1	29
363.282	1	19
363.624	1	31
363.966	1	34
364.308	1	32
364.649	1	38
364.991	1	32
365.333	1	34
365.675	1	37
366.017	1	54
366.359	1	55
366.701	1	54
367.042	1	57
367.384	1	53
367.726	1	64
368.068	1	71
368.410	1	78
368.752	1	63
369.093	1	66
369.435	1	63
369.777	1	63
370.119	1	62
370.461	1	83
370.803	1	68
371.144	1	55
371.486	1	71
371.828	1	63
372.170	1	77
372.512	1	50
372.853	1	60
373.195	1	48
373.537	1	40
373.879	1	44
374.220	1	63
374.562	1	54
374.904	1	54
375.246	1	44
375.588	1	44
375.929	1	50
376.271	1	37
376.613	1	35
376.955	1	37
377.296	1	32
377.638	1	24
377.980	1	28
378.321	1	18
378.663	1	32
379.005	1	28
379.347	1	22
379.688	1	29
380.030	1	28
380.372	1	31
380.714	1	25
381.055	1	25
381.397	1	16
381.739	1	30
382.080	1	24
382.422	1	20
382.764	1	6
383.105	1	10
383.447	1	11
383.789	1	17
384.130	1	15
384.472	1	14
384.814	1	16
385.156	1	10
385.497	1	21
385.839	1	13
386.180	1	13
386.522	1	19
386.864	1	22
387.205	1	1
387.547	1	4
387.889	1	6
388.230	1	9
388.572	1	0
388.914	1	9
389.255	1	-6
389.597	1	16
389.939	1	10
390.280	1	15
390.622	1	5
390.963	1	17
391.305	1	7
391.647	1	7
391.988	1	16
392.330	1	11
392.671	1	5
393.013	1	1
393.355	1	4
393.696	1	12
394.038	1	14
394.379	1	9
394.721	1	2
395.062	1	3
395.404	1	-2
395.746	1	10
396.087	1	14
396.429	1	5
396.770	1	7
397.112	1	12
397.453	1	10
397.795	1	3
398.136	1	0
398.478	1	11
398.819	1	5
399.161	1	15
399.503	1	3
399.844	1	1
400.186	1	3
400.527	1	5
400.869	1	2
401.210	1	3
401.552	1	-10
401.893	1	0
402.235	1	3
402.576	1	0
402.918	1	14
403.259	1	9
403.601	1	-8
403.942	1	13
404.284	1	10
404.625	1	8
404.967	1	13
405.308	1	9
405.649	1	10
405.991	1	5
406.332	1	8
406.674	1	-7
407.015	1	12
407.357	1	3
407.698	1	6
408.040	1	-1
408.381	1	2
408.722	1	-6
409.064	1	-2
409.405	1	6
409.747	1	-1
410.088	1	2
410.430	1	12
410.771	1	-1
411.112	1	5
411.454	1	-6
411.795	1	-2
412.137	1	3
412.478	1	12
412.819	1	1
413.161	1	-2
413.502	1	2
413.844	1	2
414.185	1	8
414.526	1	-5
414.868	1	5
415.209	1	2
415.550	1	-2
415.892	1	0
416.233	1	11
416.575	1	16
416.916	1	6
417.257	1	2
417.599	1	-2
417.940	1	12
418.281	1	11
418.623	1	-4
418.964	1	-12
419.305	1	2
419.647	1	4
419.988	1	5
420.329	1	-2
420.671	1	2
421.012	1	11
421.353	1	1
421.695	1	-9
422.036	1	12
422.377	1	-5
422.718	1	14
423.060	1	5
423.401	1	10
423.742	1	1
424.084	1	3
424.425	1	5
424.766	1	2
425.107	1	4
425.449	1	8
425.790	1	-6
426.131	1	-1
426.472	1	3
426.814	1	7
427.155	1	-3
427.496	1	2
427.837	1	2
428.179	1	-8
428.520	1	4
428.861	1	-5
429.202	1	5
429.544	1	0
429.885	1	5
430.226	1	-2
430.567	1	3
430.909	1	5
431.250	1	1
431.591	1	5
431.932	1	-2
432.273	1	0
432.615	1	2
432.956	1	-5
433.297	1	-2
433.638	1	2
433.979	1	1
434.320	1	10
434.662	1	2
435.003	1	8
435.344	1	7
435.685	1	4
436.026	1	7
436.368	1	2
436.709	1	4
437.050	1	6
437.391	1	9
437.732	1	1
438.073	1	2
438.414	1	-7
438.756	1	-3
439.097	1	-3
439.438	1	-11
439.779	1	2
440.120	1	0
440.461	1	0
440.802	1	-3
441.143	1	-3
441.485	1	10
441.826	1	4
442.167	1	2
442.508	1	-8
442.849	1	10
443.190	1	3
443.531	1	6
443.872	1	17
444.213	1	2
444.554	1	13
444.895	1	-11
445.237	1	-8
445.578	1	-7
445.919	1	-10
446.260	1	0
446.601	1	-7
446.942	1	-3
447.283	1	-3
447.624	1	-3
447.965	1	3
448.306	1	0
448.647	1	-1
448.988	1	8
449.329	1	1
449.670	1	8
450.011	1	6
450.352	1	-1
450.693	1	-4
451.034	1	-2
451.375	1	2
451.716	1	3
452.057	1	8
452.398	1	8
452.739	1	-1
453.080	1	0
453.421	1	-5
453.762	1	8
454.103	1	6
454.444	1	-7
454.785	1	3
455.126	1	-6
455.467	1	7
455.808	1	0
456.149	1	6
456.490	1	2
456.831	1	7
457.172	1	-3
457.513	1	-2
457.854	1	3
458.195	1	0
458.536	1	6
458.877	1	3
459.218	1	0
459.559	1	5
459.899	1	3
460.240	1	4
460.581	1	15
460.922	1	1
461.263	1	2
461.604	1	-2
461.945	1	0
462.286	1	-1
462.627	1	3
462.968	1	7
463.309	1	-11
463.649	1	-3
463.990	1	-1
464.331	1	-8
464.672	1	1
465.013	1	2
465.354	1	4
465.695	1	-9
466.036	1	-8
466.376	1	-12
466.717	1	1
467.058	1	10
467.399	1	7
467.740	1	-3
468.081	1	9
468.422	1	0
468.762	1	-3
469.103	1	-2
469.444	1	-2
469.785	1	2
470.126	1	-7
470.467	1	5
470.807	1	3
471.148	1	-1
471.489	1	0
471.830	1	1
472.171	1	10
472.511	1	6
472.852	1	4
473.193	1	5
473.534	1	8
473.875	1	10
474.215	1	16
474.556	1	-2
474.897	1	10
475.238	1	-2
475.578	1	-6
475.919	1	10
476.260	1	3
476.601	1	4
476.942	1	9
477.282	1	0
477.623	1	-7
477.964	1	4
478.305	1	9
478.645	1	5
478.986	1	0
479.327	1	-7
479.667	1	-1
480.008	1	-2
480.349	1	-2
480.690	1	3
481.030	1	-9
481.371	1	1
481.712	1	-1
482.053	1	4
482.393	1	8
482.734	1	2
483.075	1	3
483.415	1	11
483.756	1	10
484.097	1	4
484.437	1	-3
484.778	1	6
485.119	1	-12
485.459	1	17
485.800	1	-2
486.141	1	-6
486.481	1	-4
486.822	1	6
487.163	1	-9
487.503	1	7
487.844	1	0
488.185	1	2
488.525	1	3
488.866	1	1
489.207	1	-1
489.547	1	-3
489.888	1	-4
490.228	1	6
490.569	1	20
490.910	1	11
491.250	1	2
491.591	1	4
491.932	1	3
492.272	1	7
492.613	1	6
492.953	1	0
493.294	1	7
493.635	1	4
493.975	1	-3
494.316	1	5
494.656	1	-3
494.997	1	-3
495.337	1	9
495.678	1	-2
496.019	1	-2
496.359	1	-13
496.700	1	13
497.040	1	2
497.381	1	0
497.721	1	7
498.062	1	9
498.403	1	3
498.743	1	4
499.084	1	-3
499.424	1	8
499.765	1	3
500.105	1	9
500.446	1	-4
500.786	1	3
501.127	1	3
501.467	1	0
501.808	1	3
502.148	1	4
502.489	1	4
502.829	1	2
503.170	1	3
503.510	1	1
503.851	1	4
504.191	1	5
504.532	1	10
504.872	1	4
505.213	1	13
505.553	1	6
505.894	1	1
506.234	1	15
506.575	1	3
506.915	1	1
507.256	1	5
507.596	1	-1
507.936	1	-3
508.277	1	9
508.617	1	0
508.958	1	-1
509.298	1	5
509.639	1	-5
509.979	1	5
510.319	1	4
510.660	1	2
511.000	1	-1
511.341	1	2
511.681	1	7
512.022	1	6
512.362	1	0
512.702	1	-2
513.043	1	15
513.383	1	3
513.724	1	7
514.064	1	6
514.404	1	2
514.745	1	-3
515.085	1	10
515.425	1	3
515.766	1	-5
516.106	1	4
516.447	1	11
516.787	1	2
517.127	1	1
517.468	1	-2
517.808	1	8
518.148	1	8
518.489	1	-3
518.829	1	7
519.169	1	12
519.510	1	8
519.850	1	10
520.190	1	1
520.531	1	5
520.871	1	7
521.211	1	0
521.552	1	10
521.892	1	6
522.232	1	8
522.573	1	7
522.913	1	12
523.253	1	2
523.593	1	2
523.934	1	-2
524.274	1	6
524.614	1	4
524.955	1	-7
525.295	1	4
525.635	1	4
525.975	1	11
526.316	1	15
526.656	1	7
526.996	1	13
527.337	1	1
527.677	1	10
528.017	1	-7
528.357	1	11
528.698	1	5
529.038	1	3
529.378	1	17
529.718	1	6
530.058	1	5
530.399	1	18
530.739	1	12
531.079	1	9
531.419	1	8
531.760	1	6
532.100	1	11
532.440	1	9
532.780	1	2
533.120	1	16
533.461	1	6
533.801	1	13
534.141	1	0
534.481	1	4
534.821	1	13
535.162	1	-1
535.502	1	6
535.842	1	9
536.182	1	5
536.522	1	2
536.862	1	20
537.203	1	-5
537.543	1	0
537.883	1	-4
538.223	1	10
538.563	1	8
538.903	1	-2
539.243	1	10
539.584	1	4
539.924	1	10
540.264	1	5
540.604	1	10
540.944	1	4
541.284	1	12
541.624	1	13
541.964	1	5
542.305	1	10
542.645	1	11
542.985	1	7
543.325	1	11
543.665	1	18
544.005	1	16
544.345	1	4
544.685	1	4
545.025	1	10
545.365	1	18
545.705	1	3
546.045	1	6
546.386	1	13
546.726	1	-2
547.066	1	14
547.406	1	1
547.746	1	-8
548.086	1	-2
548.426	1	2
548.766	1	12
549.106	1	4
549.446	1	9
549.786	1	5
550.126	1	18
550.466	1	4
550.806	1	7
551.146	1	12
551.486	1	6
551.826	1	9
552.166	1	19
552.506	1	10
552.846	1	11
553.186	1	11
553.526	1	3
553.866	1	8
554.206	1	13
554.546	1	6
554.886	1	5
555.226	1	-1
555.566	1	3
555.906	1	10
556.246	1	13
556.586	1	8
556.926	1	13
557.266	1	-2
557.606	1	12
557.946	1	17
558.286	1	11
558.626	1	18
558.966	1	7
559.306	1	2
559.646	1	-5
559.986	1	6
560.325	1	-5
560.665	1	17
561.005	1	0
561.345	1	4
561.685	1	11
562.025	1	4
562.365	1	16
562.705	1	5
563.045	1	0
563.385	1	-3
563.725	1	6
564.064	1	3
564.404	1	16
564.744	1	13
565.084	1	2
565.424	1	9
565.764	1	11
566.104	1	2
566.444	1	-5
566.783	1	3
567.123	1	14
567.463	1	5
567.803	1	-1
568.143	1	5
568.483	1	19
568.823	1	3
569.162	1	18
569.502	1	1
569.842	1	9
570.182	1	12
570.522	1	-3
570.862	1	4
571.201	1	10
571.541	1	6
571.881	1	14
572.221	1	8
572.561	1	4
572.900	1	7
573.240	1	3
573.580	1	4
573.920	1	10
574.260	1	13
574.599	1	9
574.939	1	10
575.279	1	12
575.619	1	15
575.959	1	-5
576.298	1	22
576.638	1	6
576.978	1	10
577.318	1	6
577.657	1	1
577.997	1	4
578.337	1	15
578.677	1	9
579.016	1	20
579.356	1	0
579.696	1	6
580.036	1	8
580.375	1	10
580.715	1	9
581.055	1	11
581.394	1	8
581.734	1	6
582.074	1	3
582.414	1	10
582.753	1	-4
583.093	1	17
583.433	1	-4
583.772	1	12
584.112	1	4
584.452	1	6
584.791	1	-8
585.131	1	10
585.471	1	20
585.811	1	13
586.150	1	7
586.490	1	10
586.830	1	-1
587.169	1	12
587.509	1	5
587.849	1	6
588.188	1	7
588.528	1	7
588.867	1	10
589.207	1	7
589.547	1	2
589.886	1	4
590.226	1	16
590.566	1	0
590.905	1	0
591.245	1	9
591.585	1	4
591.924	1	14
592.264	1	6
592.603	1	10
592.943	1	13
593.283	1	4
593.622	1	4
593.962	1	22
594.301	1	16
594.641	1	-6
594.981	1	3
595.320	1	5
595.660	1	2
595.999	1	0
596.339	1	9
596.678	1	6
597.018	1	9
597.358	1	5
597.697	1	11
598.037	1	-4
598.376	1	1
598.716	1	11
599.055	1	7
599.395	1	10
599.734	1	6
600.074	1	0
600.413	1	15
600.753	1	8
601.092	1	26
601.432	1	6
601.771	1	5
602.111	1	8
602.451	1	17
602.790	1	8
603.130	1	7
603.469	1	0
603.809	1	3
604.148	1	7
604.487	1	4
604.827	1	11
605.166	1	13
605.506	1	5
605.845	1	6
606.185	1	12
606.524	1	3
606.864	1	4
607.203	1	1
607.543	1	3
607.882	1	16
608.222	1	8
608.561	1	2
608.901	1	9
609.240	1	3
609.579	1	14
609.919	1	9
610.258	1	18
610.598	1	15
610.937	1	3
611.277	1	1
611.616	1	10
611.955	1	7
612.295	1	7
612.634	1	0
612.974	1	-5
613.313	1	14
613.652	1	3
613.992	1	16
614.331	1	3
614.671	1	10
615.010	1	-1
615.349	1	13
615.689	1	19
616.028	1	2
616.368	1	14
616.707	1	6
617.046	1	6
617.386	1	10
617.725	1	7
618.064	1	-1
618.404	1	5
618.743	1	8
619.082	1	3
619.422	1	-6
619.761	1	9
620.100	1	8
620.440	1	7
620.779	1	-1
621.118	1	6
621.458	1	2
621.797	1	4
622.136	1	14
622.476	1	9
622.815	1	7
623.154	1	8
623.494	1	14
623.833	1	3
624.172	1	-2
624.511	1	4
624.851	1	-4
625.190	1	7
625.529	1	6
625.869	1	12
626.208	1	13
626.547	1	1
626.886	1	7
627.226	1	5
627.565	1	7
627.904	1	-11
628.243	1	9
628.583	1	-1
628.922	1	15
629.261	1	4
629.600	1	5
629.940	1	9
630.279	1	-2
630.618	1	-4
630.957	1	2
631.297	1	-1
631.636	1	-2
631.975	1	23
632.314	1	-4
632.653	1	7
632.993	1	-2
633.332	1	-1
633.671	1	0
634.010	1	2
634.349	1	13
634.689	1	6
635.028	1	12
635.367	1	4
635.706	1	1
636.045	1	13
636.384	1	-2
636.724	1	8
637.063	1	1
637.402	1	9
637.741	1	3
638.080	1	4
638.419	1	-2
638.759	1	2
639.098	1	10
639.437	1	8
639.776	1	-5
640.115	1	3
640.454	1	6
640.793	1	14
641.132	1	11
641.472	1	6
641.811	1	3
642.150	1	-7
642.489	1	11
642.828	1	1
643.167	1	4
643.506	1	-10
643.845	1	4
644.184	1	4
644.524	1	1
644.863	1	-6
645.202	1	5
645.541	1	2
645.880	1	10
646.219	1	-2
646.558	1	4
646.897	1	4
647.236	1	9
647.575	1	5
647.914	1	-4
648.253	1	14
648.592	1	1
648.931	1	9
649.270	1	0
649.610	1	4
649.949	1	-1
650.288	1	8
650.627	1	8
650.966	1	7
651.305	1	4
651.644	1	13
651.983	1	8
652.322	1	0
652.661	1	-2
653.000	1	1
653.339	1	15
653.678	1	10
654.017	1	-2
654.356	1	1
654.695	1	13
655.034	1	7
655.373	1	18
655.712	1	-1
656.051	1	-7
656.390	1	-4
656.729	1	18
657.068	1	1
657.406	1	6
657.745	1	-4
658.084	1	7
658.423	1	14
658.762	1	5
659.101	1	9
659.440	1	1
659.779	1	6
660.118	1	9
660.457	1	4
660.796	1	-8
661.135	1	-5
661.474	1	-3
661.813	1	6
662.152	1	4
662.491	1	1
662.829	1	-4
663.168	1	5
663.507	1	14
663.846	1	1
664.185	1	12
664.524	1	8
664.863	1	-2
665.202	1	2
665.541	1	-7
665.879	1	-4
666.218	1	4
666.557	1	7
666.896	1	3
667.235	1	4
667.574	1	2
667.913	1	7
668.251	1	-4
668.590	1	0
668.929	1	-7
669.268	1	-3
669.607	1	1
669.946	1	0
670.285	1	4
670.623	1	-5
670.962	1	2
671.301	1	3
671.640	1	8
671.979	1	-7
672.317	1	7
672.656	1	4
672.995	1	9
673.334	1	7
673.673	1	0
674.011	1	4
674.350	1	-1
674.689	1	1
675.028	1	4
675.367	1	3
675.705	1	2
676.044	1	6
676.383	1	6
676.722	1	7
677.060	1	-3
677.399	1	4
677.738	1	0
678.077	1	5
678.416	1	5
678.754	1	-3
679.093	1	8
679.432	1	6
679.771	1	0
680.109	1	7
680.448	1	0
680.787	1	1
681.125	1	0
681.464	1	0
681.803	1	1
682.142	1	10
682.480	1	20
682.819	1	6
683.158	1	-1
683.496	1	6
683.835	1	1
684.174	1	2
684.512	1	11
684.851	1	3
685.190	1	1
685.529	1	-8
685.867	1	-11
686.206	1	-2
686.545	1	3
686.883	1	4
687.222	1	11
687.561	1	3
687.899	1	6
688.238	1	3
688.577	1	5
688.746	1	11