File: Data/GaN_200K_800ms/GaN_sample F_spot 12_UVVIS_200 K_200um_800 ms 2x2mm1_155.txt
340.368	1	-2
340.710	1	-6
341.052	1	10
341.394	1	-7
341.737	1	0
342.079	1	-6
342.421	1	7
342.763	1	14
343.105	1	1
343.447	1	-2
343.789	1	2
344.131	1	0
344.473	1	-5
344.815	1	-5
345.157	1	6
345.499	1	-2
345.841	1	5
346.183	1	-2
346.526	1	-2
346.868	1	6
347.210	1	-8
347.552	1	4
347.894	1	6
348.236	1	9
348.578	1	2
348.920	1	-1
349.262	1	3
349.604	1	2
349.946	1	1
350.288	1	6
350.630	1	4
350.972	1	1
351.314	1	11
351.656	1	8
351.998	1	14
352.340	1	12
352.682	1	7
353.024	1	2
353.366	1	8
353.708	1	2
354.050	1	0
354.392	1	-4
354.734	1	5
355.076	1	3
355.418	1	-2
355.760	1	1
356.102	1	13
356.444	1	11
356.785	1	18
357.127	1	0
357.469	1	10
357.811	1	0
358.153	1	12
358.495	1	14
358.837	1	8
359.179	1	10
359.521	1	17
359.863	1	4
360.205	1	0
360.547	1	18
360.889	1	5
361.231	1	4
361.572	1	23
361.914	1	9
362.256	1	14
362.598	1	2
362.940	1	8
363.282	1	19
363.624	1	25
363.966	1	23
364.308	1	22
364.649	1	8
364.991	1	30
365.333	1	26
365.675	1	20
366.017	1	40
366.359	1	25
366.701	1	30
367.042	1	32
367.384	1	49
367.726	1	45
368.068	1	48
368.410	1	51
368.752	1	33
369.093	1	44
369.435	1	49
369.777	1	44
370.119	1	39
370.461	1	61
370.803	1	52
371.144	1	45
371.486	1	49
371.828	1	50
372.170	1	45
372.512	1	34
372.853	1	39
373.195	1	43
373.537	1	39
373.879	1	34
374.220	1	51
374.562	1	42
374.904	1	38
375.246	1	28
375.588	1	30
375.929	1	32
376.271	1	36
376.613	1	29
376.955	1	19
377.296	1	26
377.638	1	31
377.980	1	13
378.321	1	13
378.663	1	15
379.005	1	18
379.347	1	14
379.688	1	26
380.030	1	7
380.372	1	21
380.714	1	12
381.055	1	19
381.397	1	14
381.739	1	17
382.080	1	9
382.422	1	11
382.764	1	8
383.105	1	12
383.447	1	12
383.789	1	14
384.130	1	6
384.472	1	5
384.814	1	13
385.156	1	1
385.497	1	7
385.839	1	11
386.180	1	4
386.522	1	16
386.864	1	18
387.205	1	3
387.547	1	6
387.889	1	9
388.230	1	10
388.572	1	1
388.914	1	11
389.255	1	7
389.597	1	2
389.939	1	4
390.280	1	3
390.622	1	-2
390.963	1	18
391.305	1	11
391.647	1	2
391.988	1	4
392.330	1	20
392.671	1	1
393.013	1	5
393.355	1	6
393.696	1	5
394.038	1	7
394.379	1	7
394.721	1	1
395.062	1	8
395.404	1	-1
395.746	1	9
396.087	1	5
396.429	1	10
396.770	1	0
397.112	1	6
397.453	1	13
397.795	1	9
398.136	1	-2
398.478	1	7
398.819	1	6
399.161	1	7
399.503	1	5
399.844	1	2
400.186	1	5
400.527	1	5
400.869	1	-3
401.210	1	6
401.552	1	4
401.893	1	7
402.235	1	-7
402.576	1	2
402.918	1	11
403.259	1	7
403.601	1	-2
403.942	1	12
404.284	1	13
404.625	1	3
404.967	1	1
405.308	1	13
405.649	1	8
405.991	1	1
406.332	1	4
406.674	1	-2
407.015	1	16
407.357	1	3
407.698	1	7
408.040	1	-7
408.381	1	6
408.722	1	-13
409.064	1	4
409.405	1	2
409.747	1	3
410.088	1	2
410.430	1	4
410.771	1	8
411.112	1	2
411.454	1	0
411.795	1	-5
412.137	1	12
412.478	1	8
412.819	1	-4
413.161	1	-4
413.502	1	-1
413.844	1	6
414.185	1	2
414.526	1	0
414.868	1	0
415.209	1	-1
415.550	1	-8
415.892	1	4
416.233	1	12
416.575	1	7
416.916	1	3
417.257	1	3
417.599	1	-3
417.940	1	13
418.281	1	-2
418.623	1	-3
418.964	1	0
419.305	1	12
419.647	1	-1
419.988	1	6
420.329	1	-4
420.671	1	6
421.012	1	-2
421.353	1	1
421.695	1	-11
422.036	1	-6
422.377	1	1
422.718	1	1
423.060	1	-10
423.401	1	-1
423.742	1	1
424.084	1	-1
424.425	1	2
424.766	1	0
425.107	1	-6
425.449	1	10
425.790	1	-4
426.131	1	4
426.472	1	-5
426.814	1	4
427.155	1	-4
427.496	1	-9
427.837	1	4
428.179	1	-8
428.520	1	6
428.861	1	3
429.202	1	0
429.544	1	3
429.885	1	5
430.226	1	-6
430.567	1	11
430.909	1	6
431.250	1	4
431.591	1	5
431.932	1	2
432.273	1	-8
432.615	1	-3
432.956	1	-3
433.297	1	-1
433.638	1	-4
433.979	1	5
434.320	1	4
434.662	1	2
435.003	1	9
435.344	1	2
435.685	1	-6
436.026	1	13
436.368	1	5
436.709	1	-5
437.050	1	-4
437.391	1	6
437.732	1	-9
438.073	1	-3
438.414	1	-2
438.756	1	-12
439.097	1	3
439.438	1	4
439.779	1	3
440.120	1	-9
440.461	1	4
440.802	1	-6
441.143	1	0
441.485	1	9
441.826	1	-1
442.167	1	1
442.508	1	-5
442.849	1	3
443.190	1	5
443.531	1	14
443.872	1	9
444.213	1	-4
444.554	1	10
444.895	1	7
445.237	1	6
445.578	1	-12
445.919	1	-7
446.260	1	-4
446.601	1	15
446.942	1	0
447.283	1	0
447.624	1	3
447.965	1	0
448.306	1	4
448.647	1	-5
448.988	1	-9
449.329	1	-2
449.670	1	7
450.011	1	9
450.352	1	4
450.693	1	-3
451.034	1	-8
451.375	1	-5
451.716	1	3
452.057	1	8
452.398	1	-2
452.739	1	5
453.080	1	-4
453.421	1	6
453.762	1	8
454.103	1	-2
454.444	1	-7
454.785	1	1
455.126	1	-2
455.467	1	7
455.808	1	4
456.149	1	9
456.490	1	6
456.831	1	12
457.172	1	-1
457.513	1	2
457.854	1	-1
458.195	1	3
458.536	1	3
458.877	1	-3
459.218	1	0
459.559	1	0
459.899	1	1
460.240	1	14
460.581	1	14
460.922	1	-6
461.263	1	-5
461.604	1	6
461.945	1	5
462.286	1	13
462.627	1	6
462.968	1	1
463.309	1	-5
463.649	1	-3
463.990	1	-1
464.331	1	-6
464.672	1	-1
465.013	1	-2
465.354	1	4
465.695	1	-4
466.036	1	4
466.376	1	-5
466.717	1	9
467.058	1	-2
467.399	1	7
467.740	1	-2
468.081	1	6
468.422	1	1
468.762	1	1
469.103	1	-4
469.444	1	-13
469.785	1	-14
470.126	1	-9
470.467	1	0
470.807	1	3
471.148	1	-2
471.489	1	-1
471.830	1	-2
472.171	1	1
472.511	1	-5
472.852	1	8
473.193	1	8
473.534	1	2
473.875	1	13
474.215	1	9
474.556	1	8
474.897	1	4
475.238	1	6
475.578	1	-11
475.919	1	2
476.260	1	5
476.601	1	3
476.942	1	12
477.282	1	-5
477.623	1	-8
477.964	1	7
478.305	1	3
478.645	1	17
478.986	1	-6
479.327	1	-12
479.667	1	4
480.008	1	3
480.349	1	-1
480.690	1	6
481.030	1	-1
481.371	1	6
481.712	1	-3
482.053	1	9
482.393	1	1
482.734	1	-3
483.075	1	4
483.415	1	3
483.756	1	10
484.097	1	2
484.437	1	-1
484.778	1	9
485.119	1	-3
485.459	1	19
485.800	1	1
486.141	1	-10
486.481	1	-3
486.822	1	0
487.163	1	0
487.503	1	-2
487.844	1	3
488.185	1	-8
488.525	1	0
488.866	1	6
489.207	1	-1
489.547	1	1
489.888	1	-10
490.228	1	5
490.569	1	14
490.910	1	0
491.250	1	-3
491.591	1	-2
491.932	1	-1
492.272	1	0
492.613	1	-1
492.953	1	0
493.294	1	-4
493.635	1	1
493.975	1	5
494.316	1	2
494.656	1	7
494.997	1	1
495.337	1	-2
495.678	1	13
496.019	1	-3
496.359	1	-4
496.700	1	4
497.040	1	0
497.381	1	-5
497.721	1	3
498.062	1	11
498.403	1	2
498.743	1	9
499.084	1	-5
499.424	1	2
499.765	1	0
500.105	1	10
500.446	1	-8
500.786	1	-6
501.127	1	8
501.467	1	6
501.808	1	6
502.148	1	4
502.489	1	2
502.829	1	11
503.170	1	7
503.510	1	1
503.851	1	1
504.191	1	6
504.532	1	3
504.872	1	7
505.213	1	13
505.553	1	-4
505.894	1	-5
506.234	1	7
506.575	1	5
506.915	1	11
507.256	1	-1
507.596	1	2
507.936	1	6
508.277	1	2
508.617	1	2
508.958	1	-8
509.298	1	9
509.639	1	4
509.979	1	-2
510.319	1	14
510.660	1	-4
511.000	1	8
511.341	1	7
511.681	1	13
512.022	1	-4
512.362	1	-6
512.702	1	1
513.043	1	10
513.383	1	-8
513.724	1	1
514.064	1	13
514.404	1	-8
514.745	1	-6
515.085	1	1
515.425	1	-1
515.766	1	-9
516.106	1	3
516.447	1	12
516.787	1	7
517.127	1	-5
517.468	1	1
517.808	1	-4
518.148	1	8
518.489	1	2
518.829	1	11
519.169	1	6
519.510	1	4
519.850	1	11
520.190	1	-2
520.531	1	14
520.871	1	1
521.211	1	-9
521.552	1	15
521.892	1	9
522.232	1	2
522.573	1	2
522.913	1	10
523.253	1	4
523.593	1	1
523.934	1	5
524.274	1	5
524.614	1	3
524.955	1	4
525.295	1	4
525.635	1	11
525.975	1	9
526.316	1	11
526.656	1	4
526.996	1	1
527.337	1	-3
527.677	1	6
528.017	1	7
528.357	1	-2
528.698	1	10
529.038	1	0
529.378	1	8
529.718	1	19
530.058	1	1
530.399	1	10
530.739	1	14
531.079	1	17
531.419	1	10
531.760	1	1
532.100	1	1
532.440	1	6
532.780	1	5
533.120	1	10
533.461	1	8
533.801	1	16
534.141	1	-6
534.481	1	-2
534.821	1	12
535.162	1	5
535.502	1	-4
535.842	1	17
536.182	1	12
536.522	1	-1
536.862	1	12
537.203	1	-2
537.543	1	2
537.883	1	9
538.223	1	13
538.563	1	4
538.903	1	-3
539.243	1	3
539.584	1	8
539.924	1	17
540.264	1	-3
540.604	1	1
540.944	1	9
541.284	1	3
541.624	1	5
541.964	1	14
542.305	1	10
542.645	1	6
542.985	1	7
543.325	1	0
543.665	1	11
544.005	1	-3
544.345	1	7
544.685	1	0
545.025	1	8
545.365	1	2
545.705	1	9
546.045	1	-2
546.386	1	11
546.726	1	-12
547.066	1	10
547.406	1	3
547.746	1	-5
548.086	1	2
548.426	1	1
548.766	1	8
549.106	1	13
549.446	1	1
549.786	1	-7
550.126	1	14
550.466	1	4
550.806	1	-4
551.146	1	-1
551.486	1	3
551.826	1	12
552.166	1	1
552.506	1	9
552.846	1	5
553.186	1	6
553.526	1	4
553.866	1	9
554.206	1	-1
554.546	1	2
554.886	1	6
555.226	1	-3
555.566	1	3
555.906	1	1
556.246	1	15
556.586	1	7
556.926	1	5
557.266	1	2
557.606	1	3
557.946	1	22
558.286	1	10
558.626	1	11
558.966	1	-2
559.306	1	1
559.646	1	-2
559.986	1	0
560.325	1	0
560.665	1	3
561.005	1	-4
561.345	1	10
561.685	1	8
562.025	1	4
562.365	1	4
562.705	1	-4
563.045	1	-1
563.385	1	-6
563.725	1	9
564.064	1	6
564.404	1	14
564.744	1	9
565.084	1	1
565.424	1	1
565.764	1	5
566.104	1	-2
566.444	1	-4
566.783	1	2
567.123	1	10
567.463	1	6
567.803	1	-6
568.143	1	10
568.483	1	2
568.823	1	5
569.162	1	15
569.502	1	2
569.842	1	15
570.182	1	6
570.522	1	1
570.862	1	6
571.201	1	21
571.541	1	10
571.881	1	16
572.221	1	-6
572.561	1	5
572.900	1	-3
573.240	1	0
573.580	1	11
573.920	1	16
574.260	1	19
574.599	1	4
574.939	1	5
575.279	1	10
575.619	1	12
575.959	1	-7
576.298	1	14
576.638	1	-5
576.978	1	7
577.318	1	12
577.657	1	1
577.997	1	5
578.337	1	14
578.677	1	10
579.016	1	12
579.356	1	7
579.696	1	18
580.036	1	10
580.375	1	6
580.715	1	-3
581.055	1	7
581.394	1	0
581.734	1	5
582.074	1	4
582.414	1	14
582.753	1	4
583.093	1	5
583.433	1	-2
583.772	1	8
584.112	1	6
584.452	1	11
584.791	1	-7
585.131	1	5
585.471	1	17
585.811	1	8
586.150	1	6
586.490	1	13
586.830	1	7
587.169	1	3
587.509	1	4
587.849	1	1
588.188	1	14
588.528	1	3
588.867	1	11
589.207	1	-2
589.547	1	-1
589.886	1	4
590.226	1	5
590.566	1	-1
590.905	1	-5
591.245	1	-2
591.585	1	7
591.924	1	-6
592.264	1	8
592.603	1	5
592.943	1	13
593.283	1	9
593.622	1	1
593.962	1	-1
594.301	1	13
594.641	1	-3
594.981	1	-4
595.320	1	1
595.660	1	-2
595.999	1	-5
596.339	1	3
596.678	1	-7
597.018	1	5
597.358	1	-1
597.697	1	1
598.037	1	-1
598.376	1	12
598.716	1	2
599.055	1	16
599.395	1	-3
599.734	1	8
600.074	1	2
600.413	1	11
600.753	1	7
601.092	1	12
601.432	1	-3
601.771	1	8
602.111	1	-3
602.451	1	6
602.790	1	4
603.130	1	8
603.469	1	-2
603.809	1	13
604.148	1	8
604.487	1	7
604.827	1	6
605.166	1	9
605.506	1	11
605.845	1	1
606.185	1	17
606.524	1	-2
606.864	1	2
607.203	1	-4
607.543	1	8
607.882	1	3
608.222	1	3
608.561	1	1
608.901	1	13
609.240	1	0
609.579	1	11
609.919	1	13
610.258	1	10
610.598	1	9
610.937	1	6
611.277	1	3
611.616	1	0
611.955	1	8
612.295	1	-3
612.634	1	2
612.974	1	-2
613.313	1	7
613.652	1	0
613.992	1	-5
614.331	1	3
614.671	1	0
615.010	1	1
615.349	1	5
615.689	1	14
616.028	1	4
616.368	1	5
616.707	1	11
617.046	1	6
617.386	1	4
617.725	1	7
618.064	1	0
618.404	1	-3
618.743	1	1
619.082	1	12
619.422	1	-2
619.761	1	9
620.100	1	8
620.440	1	1
620.779	1	-3
621.118	1	4
621.458	1	5
621.797	1	0
622.136	1	19
622.476	1	12
622.815	1	16
623.154	1	12
623.494	1	8
623.833	1	9
624.172	1	-6
624.511	1	1
624.851	1	-13
625.190	1	2
625.529	1	2
625.869	1	8
626.208	1	5
626.547	1	5
626.886	1	1
627.226	1	9
627.565	1	7
627.904	1	-4
628.243	1	10
628.583	1	-2
628.922	1	7
629.261	1	6
629.600	1	11
629.940	1	7
630.279	1	-5
630.618	1	-1
630.957	1	5
631.297	1	6
631.636	1	-5
631.975	1	14
632.314	1	5
632.653	1	2
632.993	1	-1
633.332	1	3
633.671	1	0
634.010	1	-1
634.349	1	9
634.689	1	1
635.028	1	4
635.367	1	4
635.706	1	3
636.045	1	6
636.384	1	-5
636.724	1	5
637.063	1	1
637.402	1	12
637.741	1	3
638.080	1	-4
638.419	1	5
638.759	1	3
639.098	1	-2
639.437	1	-2
639.776	1	-1
640.115	1	-1
640.454	1	-7
640.793	1	13
641.132	1	3
641.472	1	3
641.811	1	-3
642.150	1	2
642.489	1	13
642.828	1	-4
643.167	1	-4
643.506	1	-5
643.845	1	3
644.184	1	2
644.524	1	0
644.863	1	-8
645.202	1	-8
645.541	1	7
645.880	1	0
646.219	1	7
646.558	1	2
646.897	1	1
647.236	1	2
647.575	1	1
647.914	1	2
648.253	1	8
648.592	1	5
648.931	1	11
649.270	1	-5
649.610	1	-1
649.949	1	3
650.288	1	-4
650.627	1	4
650.966	1	1
651.305	1	-4
651.644	1	19
651.983	1	0
652.322	1	4
652.661	1	5
653.000	1	4
653.339	1	7
653.678	1	11
654.017	1	2
654.356	1	1
654.695	1	5
655.034	1	7
655.373	1	11
655.712	1	0
656.051	1	2
656.390	1	-8
656.729	1	1
657.068	1	1
657.406	1	5
657.745	1	-5
658.084	1	8
658.423	1	9
658.762	1	9
659.101	1	12
659.440	1	1
659.779	1	4
660.118	1	0
660.457	1	-3
660.796	1	-6
661.135	1	3
661.474	1	4
661.813	1	18
662.152	1	6
662.491	1	1
662.829	1	4
663.168	1	-2
663.507	1	9
663.846	1	-5
664.185	1	3
664.524	1	2
664.863	1	2
665.202	1	3
665.541	1	-11
665.879	1	-1
666.218	1	2
666.557	1	-3
666.896	1	6
667.235	1	1
667.574	1	2
667.913	1	13
668.251	1	0
668.590	1	-3
668.929	1	-13
669.268	1	-2
669.607	1	0
669.946	1	5
670.285	1	1
670.623	1	8
670.962	1	5
671.301	1	-2
671.640	1	-1
671.979	1	3
672.317	1	2
672.656	1	4
672.995	1	7
673.334	1	3
673.673	1	4
674.011	1	1
674.350	1	2
674.689	1	-1
675.028	1	0
675.367	1	6
675.705	1	3
676.044	1	9
676.383	1	3
676.722	1	3
677.060	1	-5
677.399	1	-3
677.738	1	7
678.077	1	10
678.416	1	9
678.754	1	-4
679.093	1	14
679.432	1	-3
679.771	1	-2
680.109	1	8
680.448	1	-9
680.787	1	-5
681.125	1	5
681.464	1	-4
681.803	1	0
682.142	1	1
682.480	1	8
682.819	1	2
683.158	1	9
683.496	1	14
683.835	1	12
684.174	1	-5
684.512	1	11
684.851	1	13
685.190	1	0
685.529	1	-4
685.867	1	0
686.206	1	-3
686.545	1	-14
686.883	1	6
687.222	1	1
687.561	1	1
687.899	1	5
688.238	1	6
688.577	1	0
688.746	1	4