File: Data/GaN_200K_800ms/GaN_sample F_spot 12_UVVIS_200 K_200um_800 ms 2x2mm1_148.txt
340.368	1	2
340.710	1	-8
341.052	1	20
341.394	1	-3
341.737	1	6
342.079	1	-16
342.421	1	4
342.763	1	11
343.105	1	8
343.447	1	-2
343.789	1	-1
344.131	1	-3
344.473	1	6
344.815	1	-2
345.157	1	1
345.499	1	8
345.841	1	1
346.183	1	0
346.526	1	-8
346.868	1	5
347.210	1	-2
347.552	1	3
347.894	1	-5
348.236	1	6
348.578	1	9
348.920	1	3
349.262	1	2
349.604	1	-4
349.946	1	-13
350.288	1	9
350.630	1	4
350.972	1	3
351.314	1	11
351.656	1	0
351.998	1	5
352.340	1	8
352.682	1	1
353.024	1	-3
353.366	1	14
353.708	1	7
354.050	1	-5
354.392	1	5
354.734	1	16
355.076	1	0
355.418	1	1
355.760	1	-2
356.102	1	21
356.444	1	12
356.785	1	2
357.127	1	6
357.469	1	10
357.811	1	5
358.153	1	18
358.495	1	14
358.837	1	3
359.179	1	9
359.521	1	14
359.863	1	7
360.205	1	7
360.547	1	14
360.889	1	8
361.231	1	5
361.572	1	18
361.914	1	15
362.256	1	17
362.598	1	5
362.940	1	14
363.282	1	21
363.624	1	23
363.966	1	25
364.308	1	24
364.649	1	28
364.991	1	35
365.333	1	31
365.675	1	27
366.017	1	37
366.359	1	34
366.701	1	35
367.042	1	41
367.384	1	49
367.726	1	49
368.068	1	53
368.410	1	59
368.752	1	48
369.093	1	49
369.435	1	49
369.777	1	52
370.119	1	38
370.461	1	67
370.803	1	57
371.144	1	48
371.486	1	54
371.828	1	46
372.170	1	47
372.512	1	41
372.853	1	37
373.195	1	45
373.537	1	34
373.879	1	37
374.220	1	47
374.562	1	41
374.904	1	31
375.246	1	45
375.588	1	33
375.929	1	30
376.271	1	26
376.613	1	26
376.955	1	28
377.296	1	28
377.638	1	34
377.980	1	31
378.321	1	16
378.663	1	26
379.005	1	33
379.347	1	28
379.688	1	25
380.030	1	20
380.372	1	12
380.714	1	17
381.055	1	21
381.397	1	11
381.739	1	18
382.080	1	11
382.422	1	9
382.764	1	6
383.105	1	6
383.447	1	8
383.789	1	6
384.130	1	13
384.472	1	14
384.814	1	3
385.156	1	11
385.497	1	15
385.839	1	8
386.180	1	13
386.522	1	11
386.864	1	15
387.205	1	2
387.547	1	7
387.889	1	3
388.230	1	16
388.572	1	5
388.914	1	1
389.255	1	-1
389.597	1	4
389.939	1	3
390.280	1	12
390.622	1	3
390.963	1	13
391.305	1	9
391.647	1	4
391.988	1	5
392.330	1	7
392.671	1	0
393.013	1	3
393.355	1	12
393.696	1	12
394.038	1	5
394.379	1	9
394.721	1	-3
395.062	1	3
395.404	1	-1
395.746	1	10
396.087	1	1
396.429	1	1
396.770	1	3
397.112	1	4
397.453	1	14
397.795	1	2
398.136	1	-10
398.478	1	5
398.819	1	5
399.161	1	14
399.503	1	7
399.844	1	11
400.186	1	7
400.527	1	5
400.869	1	6
401.210	1	2
401.552	1	-6
401.893	1	0
402.235	1	-1
402.576	1	3
402.918	1	13
403.259	1	12
403.601	1	-6
403.942	1	20
404.284	1	5
404.625	1	9
404.967	1	11
405.308	1	8
405.649	1	-1
405.991	1	-3
406.332	1	3
406.674	1	1
407.015	1	14
407.357	1	3
407.698	1	13
408.040	1	-5
408.381	1	-8
408.722	1	-8
409.064	1	3
409.405	1	22
409.747	1	-4
410.088	1	0
410.430	1	4
410.771	1	2
411.112	1	-2
411.454	1	-5
411.795	1	-3
412.137	1	0
412.478	1	14
412.819	1	1
413.161	1	-4
413.502	1	-3
413.844	1	9
414.185	1	2
414.526	1	-6
414.868	1	9
415.209	1	-4
415.550	1	-11
415.892	1	0
416.233	1	9
416.575	1	8
416.916	1	-15
417.257	1	6
417.599	1	3
417.940	1	5
418.281	1	3
418.623	1	-5
418.964	1	-9
419.305	1	1
419.647	1	4
419.988	1	3
420.329	1	0
420.671	1	2
421.012	1	0
421.353	1	-2
421.695	1	-3
422.036	1	-2
422.377	1	-3
422.718	1	4
423.060	1	3
423.401	1	2
423.742	1	-3
424.084	1	-10
424.425	1	6
424.766	1	4
425.107	1	0
425.449	1	1
425.790	1	-1
426.131	1	-2
426.472	1	4
426.814	1	5
427.155	1	-6
427.496	1	3
427.837	1	2
428.179	1	-10
428.520	1	5
428.861	1	-2
429.202	1	-1
429.544	1	5
429.885	1	-2
430.226	1	-5
430.567	1	-3
430.909	1	4
431.250	1	5
431.591	1	1
431.932	1	0
432.273	1	1
432.615	1	-5
432.956	1	-3
433.297	1	11
433.638	1	0
433.979	1	4
434.320	1	3
434.662	1	6
435.003	1	12
435.344	1	9
435.685	1	-2
436.026	1	8
436.368	1	4
436.709	1	-6
437.050	1	-2
437.391	1	13
437.732	1	-4
438.073	1	11
438.414	1	-6
438.756	1	2
439.097	1	-8
439.438	1	6
439.779	1	4
440.120	1	-1
440.461	1	5
440.802	1	-5
441.143	1	9
441.485	1	7
441.826	1	3
442.167	1	4
442.508	1	-2
442.849	1	14
443.190	1	1
443.531	1	7
443.872	1	4
444.213	1	2
444.554	1	6
444.895	1	0
445.237	1	-11
445.578	1	-14
445.919	1	-7
446.260	1	-3
446.601	1	-5
446.942	1	1
447.283	1	2
447.624	1	-4
447.965	1	-2
448.306	1	3
448.647	1	-3
448.988	1	-6
449.329	1	1
449.670	1	18
450.011	1	2
450.352	1	-1
450.693	1	-3
451.034	1	-10
451.375	1	1
451.716	1	-3
452.057	1	2
452.398	1	2
452.739	1	9
453.080	1	5
453.421	1	-3
453.762	1	-2
454.103	1	6
454.444	1	-7
454.785	1	3
455.126	1	8
455.467	1	3
455.808	1	2
456.149	1	9
456.490	1	5
456.831	1	15
457.172	1	0
457.513	1	9
457.854	1	0
458.195	1	-7
458.536	1	10
458.877	1	2
459.218	1	6
459.559	1	7
459.899	1	2
460.240	1	4
460.581	1	18
460.922	1	3
461.263	1	-4
461.604	1	-2
461.945	1	1
462.286	1	3
462.627	1	8
462.968	1	5
463.309	1	-8
463.649	1	3
463.990	1	0
464.331	1	1
464.672	1	3
465.013	1	-7
465.354	1	5
465.695	1	-4
466.036	1	3
466.376	1	-1
466.717	1	1
467.058	1	1
467.399	1	3
467.740	1	3
468.081	1	2
468.422	1	-3
468.762	1	-6
469.103	1	-2
469.444	1	-6
469.785	1	-5
470.126	1	-6
470.467	1	1
470.807	1	1
471.148	1	0
471.489	1	1
471.830	1	0
472.171	1	9
472.511	1	3
472.852	1	9
473.193	1	6
473.534	1	9
473.875	1	12
474.215	1	12
474.556	1	2
474.897	1	7
475.238	1	-1
475.578	1	-7
475.919	1	-6
476.260	1	2
476.601	1	1
476.942	1	5
477.282	1	-2
477.623	1	-14
477.964	1	-7
478.305	1	-4
478.645	1	5
478.986	1	-5
479.327	1	-5
479.667	1	-2
480.008	1	3
480.349	1	0
480.690	1	6
481.030	1	4
481.371	1	5
481.712	1	9
482.053	1	3
482.393	1	3
482.734	1	-13
483.075	1	0
483.415	1	7
483.756	1	10
484.097	1	2
484.437	1	-6
484.778	1	1
485.119	1	5
485.459	1	12
485.800	1	-2
486.141	1	-5
486.481	1	7
486.822	1	9
487.163	1	2
487.503	1	-2
487.844	1	8
488.185	1	1
488.525	1	-6
488.866	1	4
489.207	1	3
489.547	1	-5
489.888	1	-6
490.228	1	14
490.569	1	14
490.910	1	4
491.250	1	3
491.591	1	-2
491.932	1	9
492.272	1	3
492.613	1	4
492.953	1	-3
493.294	1	-2
493.635	1	-10
493.975	1	-5
494.316	1	6
494.656	1	1
494.997	1	-6
495.337	1	14
495.678	1	-1
496.019	1	3
496.359	1	-5
496.700	1	2
497.040	1	1
497.381	1	1
497.721	1	3
498.062	1	-2
498.403	1	-1
498.743	1	-8
499.084	1	3
499.424	1	2
499.765	1	3
500.105	1	5
500.446	1	-12
500.786	1	-1
501.127	1	11
501.467	1	-7
501.808	1	12
502.148	1	-1
502.489	1	2
502.829	1	0
503.170	1	11
503.510	1	3
503.851	1	6
504.191	1	9
504.532	1	8
504.872	1	-7
505.213	1	9
505.553	1	-4
505.894	1	0
506.234	1	8
506.575	1	5
506.915	1	10
507.256	1	5
507.596	1	5
507.936	1	11
508.277	1	7
508.617	1	1
508.958	1	-2
509.298	1	14
509.639	1	-5
509.979	1	2
510.319	1	5
510.660	1	-2
511.000	1	1
511.341	1	7
511.681	1	6
512.022	1	-8
512.362	1	-3
512.702	1	0
513.043	1	-4
513.383	1	-6
513.724	1	5
514.064	1	5
514.404	1	-2
514.745	1	-4
515.085	1	4
515.425	1	5
515.766	1	-10
516.106	1	-2
516.447	1	11
516.787	1	11
517.127	1	-2
517.468	1	2
517.808	1	-5
518.148	1	7
518.489	1	5
518.829	1	8
519.169	1	-1
519.510	1	-2
519.850	1	15
520.190	1	2
520.531	1	3
520.871	1	12
521.211	1	-8
521.552	1	12
521.892	1	3
522.232	1	10
522.573	1	5
522.913	1	3
523.253	1	3
523.593	1	0
523.934	1	-3
524.274	1	1
524.614	1	8
524.955	1	6
525.295	1	9
525.635	1	0
525.975	1	7
526.316	1	17
526.656	1	8
526.996	1	4
527.337	1	-1
527.677	1	4
528.017	1	-5
528.357	1	2
528.698	1	10
529.038	1	3
529.378	1	5
529.718	1	10
530.058	1	4
530.399	1	12
530.739	1	2
531.079	1	9
531.419	1	15
531.760	1	8
532.100	1	7
532.440	1	2
532.780	1	-2
533.120	1	15
533.461	1	9
533.801	1	13
534.141	1	-10
534.481	1	-8
534.821	1	4
535.162	1	8
535.502	1	-1
535.842	1	12
536.182	1	-6
536.522	1	-1
536.862	1	7
537.203	1	5
537.543	1	7
537.883	1	6
538.223	1	13
538.563	1	22
538.903	1	6
539.243	1	4
539.584	1	-7
539.924	1	13
540.264	1	-5
540.604	1	9
540.944	1	-5
541.284	1	7
541.624	1	1
541.964	1	7
542.305	1	18
542.645	1	11
542.985	1	9
543.325	1	3
543.665	1	10
544.005	1	11
544.345	1	19
544.685	1	-5
545.025	1	6
545.365	1	4
545.705	1	2
546.045	1	2
546.386	1	3
546.726	1	-3
547.066	1	11
547.406	1	-1
547.746	1	-6
548.086	1	11
548.426	1	2
548.766	1	10
549.106	1	7
549.446	1	12
549.786	1	-3
550.126	1	13
550.466	1	5
550.806	1	5
551.146	1	6
551.486	1	8
551.826	1	-2
552.166	1	3
552.506	1	8
552.846	1	3
553.186	1	11
553.526	1	7
553.866	1	4
554.206	1	6
554.546	1	10
554.886	1	8
555.226	1	-4
555.566	1	6
555.906	1	13
556.246	1	0
556.586	1	7
556.926	1	9
557.266	1	5
557.606	1	9
557.946	1	13
558.286	1	12
558.626	1	5
558.966	1	6
559.306	1	10
559.646	1	3
559.986	1	3
560.325	1	1
560.665	1	6
561.005	1	2
561.345	1	10
561.685	1	7
562.025	1	2
562.365	1	10
562.705	1	6
563.045	1	2
563.385	1	-12
563.725	1	3
564.064	1	7
564.404	1	6
564.744	1	4
565.084	1	6
565.424	1	5
565.764	1	0
566.104	1	1
566.444	1	1
566.783	1	16
567.123	1	4
567.463	1	8
567.803	1	-1
568.143	1	4
568.483	1	17
568.823	1	5
569.162	1	8
569.502	1	1
569.842	1	7
570.182	1	1
570.522	1	-7
570.862	1	8
571.201	1	18
571.541	1	18
571.881	1	11
572.221	1	1
572.561	1	5
572.900	1	-2
573.240	1	10
573.580	1	7
573.920	1	8
574.260	1	10
574.599	1	11
574.939	1	11
575.279	1	17
575.619	1	12
575.959	1	0
576.298	1	9
576.638	1	0
576.978	1	9
577.318	1	3
577.657	1	5
577.997	1	1
578.337	1	11
578.677	1	13
579.016	1	12
579.356	1	-5
579.696	1	7
580.036	1	-3
580.375	1	8
580.715	1	7
581.055	1	6
581.394	1	6
581.734	1	4
582.074	1	9
582.414	1	8
582.753	1	6
583.093	1	4
583.433	1	7
583.772	1	15
584.112	1	5
584.452	1	3
584.791	1	-3
585.131	1	6
585.471	1	18
585.811	1	3
586.150	1	8
586.490	1	12
586.830	1	6
587.169	1	16
587.509	1	9
587.849	1	8
588.188	1	9
588.528	1	4
588.867	1	13
589.207	1	9
589.547	1	-4
589.886	1	-8
590.226	1	7
590.566	1	1
590.905	1	5
591.245	1	9
591.585	1	10
591.924	1	5
592.264	1	16
592.603	1	5
592.943	1	6
593.283	1	1
593.622	1	3
593.962	1	9
594.301	1	8
594.641	1	-5
594.981	1	10
595.320	1	5
595.660	1	8
595.999	1	0
596.339	1	6
596.678	1	1
597.018	1	3
597.358	1	14
597.697	1	4
598.037	1	3
598.376	1	7
598.716	1	10
599.055	1	4
599.395	1	1
599.734	1	10
600.074	1	2
600.413	1	12
600.753	1	13
601.092	1	17
601.432	1	-2
601.771	1	10
602.111	1	10
602.451	1	19
602.790	1	3
603.130	1	10
603.469	1	-3
603.809	1	5
604.148	1	8
604.487	1	2
604.827	1	7
605.166	1	12
605.506	1	5
605.845	1	1
606.185	1	15
606.524	1	1
606.864	1	-1
607.203	1	3
607.543	1	4
607.882	1	9
608.222	1	-2
608.561	1	7
608.901	1	12
609.240	1	0
609.579	1	9
609.919	1	5
610.258	1	5
610.598	1	4
610.937	1	12
611.277	1	7
611.616	1	-6
611.955	1	7
612.295	1	3
612.634	1	1
612.974	1	-11
613.313	1	13
613.652	1	7
613.992	1	0
614.331	1	10
614.671	1	7
615.010	1	-5
615.349	1	6
615.689	1	7
616.028	1	3
616.368	1	7
616.707	1	7
617.046	1	0
617.386	1	2
617.725	1	7
618.064	1	-8
618.404	1	-1
618.743	1	12
619.082	1	11
619.422	1	-4
619.761	1	7
620.100	1	6
620.440	1	5
620.779	1	-3
621.118	1	6
621.458	1	-1
621.797	1	3
622.136	1	13
622.476	1	2
622.815	1	12
623.154	1	5
623.494	1	13
623.833	1	6
624.172	1	5
624.511	1	-6
624.851	1	-1
625.190	1	5
625.529	1	7
625.869	1	6
626.208	1	5
626.547	1	5
626.886	1	8
627.226	1	10
627.565	1	7
627.904	1	3
628.243	1	3
628.583	1	1
628.922	1	10
629.261	1	11
629.600	1	10
629.940	1	4
630.279	1	5
630.618	1	7
630.957	1	4
631.297	1	7
631.636	1	-6
631.975	1	15
632.314	1	3
632.653	1	7
632.993	1	-5
633.332	1	5
633.671	1	-4
634.010	1	5
634.349	1	5
634.689	1	5
635.028	1	7
635.367	1	-1
635.706	1	2
636.045	1	6
636.384	1	-1
636.724	1	3
637.063	1	5
637.402	1	4
637.741	1	1
638.080	1	-1
638.419	1	3
638.759	1	7
639.098	1	9
639.437	1	-1
639.776	1	-3
640.115	1	-5
640.454	1	-4
640.793	1	5
641.132	1	6
641.472	1	13
641.811	1	-4
642.150	1	-6
642.489	1	2
642.828	1	-2
643.167	1	1
643.506	1	-1
643.845	1	1
644.184	1	5
644.524	1	0
644.863	1	-8
645.202	1	6
645.541	1	4
645.880	1	6
646.219	1	-3
646.558	1	4
646.897	1	3
647.236	1	0
647.575	1	6
647.914	1	3
648.253	1	11
648.592	1	-5
648.931	1	13
649.270	1	8
649.610	1	4
649.949	1	3
650.288	1	4
650.627	1	2
650.966	1	5
651.305	1	-3
651.644	1	12
651.983	1	2
652.322	1	1
652.661	1	-2
653.000	1	-2
653.339	1	18
653.678	1	-2
654.017	1	8
654.356	1	-4
654.695	1	15
655.034	1	12
655.373	1	17
655.712	1	8
656.051	1	-4
656.390	1	-2
656.729	1	9
657.068	1	5
657.406	1	3
657.745	1	9
658.084	1	-1
658.423	1	10
658.762	1	-1
659.101	1	6
659.440	1	6
659.779	1	7
660.118	1	7
660.457	1	-1
660.796	1	-2
661.135	1	0
661.474	1	0
661.813	1	13
662.152	1	11
662.491	1	2
662.829	1	4
663.168	1	4
663.507	1	11
663.846	1	1
664.185	1	2
664.524	1	-4
664.863	1	-1
665.202	1	8
665.541	1	-9
665.879	1	-18
666.218	1	-3
666.557	1	-5
666.896	1	1
667.235	1	8
667.574	1	-2
667.913	1	5
668.251	1	7
668.590	1	8
668.929	1	-9
669.268	1	2
669.607	1	0
669.946	1	5
670.285	1	10
670.623	1	11
670.962	1	7
671.301	1	-4
671.640	1	13
671.979	1	-6
672.317	1	6
672.656	1	12
672.995	1	10
673.334	1	4
673.673	1	5
674.011	1	1
674.350	1	5
674.689	1	6
675.028	1	1
675.367	1	9
675.705	1	2
676.044	1	0
676.383	1	3
676.722	1	-3
677.060	1	9
677.399	1	7
677.738	1	6
678.077	1	2
678.416	1	3
678.754	1	-2
679.093	1	5
679.432	1	-2
679.771	1	-3
680.109	1	9
680.448	1	10
680.787	1	0
681.125	1	6
681.464	1	6
681.803	1	0
682.142	1	6
682.480	1	11
682.819	1	8
683.158	1	7
683.496	1	-2
683.835	1	-3
684.174	1	-1
684.512	1	5
684.851	1	8
685.190	1	-4
685.529	1	9
685.867	1	-1
686.206	1	2
686.545	1	-1
686.883	1	15
687.222	1	6
687.561	1	11
687.899	1	-1
688.238	1	0
688.577	1	-1
688.746	1	2