File: Data/GaN_200K_800ms/GaN_sample F_spot 12_UVVIS_200 K_200um_800 ms 2x2mm1_25.txt
340.368	1	1
340.710	1	-3
341.052	1	12
341.394	1	2
341.737	1	7
342.079	1	-4
342.421	1	3
342.763	1	4
343.105	1	3
343.447	1	2
343.789	1	15
344.131	1	-3
344.473	1	1
344.815	1	-7
345.157	1	-1
345.499	1	-3
345.841	1	3
346.183	1	-2
346.526	1	1
346.868	1	13
347.210	1	-10
347.552	1	-5
347.894	1	1
348.236	1	8
348.578	1	5
348.920	1	-5
349.262	1	8
349.604	1	-1
349.946	1	-2
350.288	1	8
350.630	1	3
350.972	1	0
351.314	1	-1
351.656	1	4
351.998	1	11
352.340	1	3
352.682	1	12
353.024	1	11
353.366	1	9
353.708	1	4
354.050	1	6
354.392	1	1
354.734	1	7
355.076	1	-1
355.418	1	-11
355.760	1	-3
356.102	1	5
356.444	1	8
356.785	1	12
357.127	1	-3
357.469	1	1
357.811	1	-1
358.153	1	3
358.495	1	8
358.837	1	-12
359.179	1	4
359.521	1	9
359.863	1	1
360.205	1	-9
360.547	1	1
360.889	1	-1
361.231	1	-4
361.572	1	9
361.914	1	11
362.256	1	8
362.598	1	-11
362.940	1	3
363.282	1	-3
363.624	1	5
363.966	1	-2
364.308	1	0
364.649	1	6
364.991	1	-4
365.333	1	-5
365.675	1	-6
366.017	1	-9
366.359	1	1
366.701	1	-6
367.042	1	-1
367.384	1	5
367.726	1	-3
368.068	1	5
368.410	1	5
368.752	1	-9
369.093	1	0
369.435	1	5
369.777	1	-5
370.119	1	-3
370.461	1	12
370.803	1	-2
371.144	1	-4
371.486	1	7
371.828	1	-2
372.170	1	2
372.512	1	-11
372.853	1	2
373.195	1	-4
373.537	1	1
373.879	1	-1
374.220	1	8
374.562	1	13
374.904	1	3
375.246	1	2
375.588	1	3
375.929	1	7
376.271	1	4
376.613	1	-7
376.955	1	2
377.296	1	0
377.638	1	2
377.980	1	8
378.321	1	-9
378.663	1	7
379.005	1	10
379.347	1	1
379.688	1	7
380.030	1	4
380.372	1	-6
380.714	1	1
381.055	1	8
381.397	1	-1
381.739	1	0
382.080	1	1
382.422	1	0
382.764	1	-1
383.105	1	-3
383.447	1	-4
383.789	1	-6
384.130	1	0
384.472	1	4
384.814	1	1
385.156	1	-3
385.497	1	0
385.839	1	-7
386.180	1	2
386.522	1	9
386.864	1	6
387.205	1	-13
387.547	1	2
387.889	1	5
388.230	1	5
388.572	1	-4
388.914	1	-2
389.255	1	-6
389.597	1	11
389.939	1	4
390.280	1	-1
390.622	1	-3
390.963	1	15
391.305	1	5
391.647	1	-5
391.988	1	-2
392.330	1	7
392.671	1	0
393.013	1	3
393.355	1	9
393.696	1	4
394.038	1	4
394.379	1	1
394.721	1	-6
395.062	1	6
395.404	1	-11
395.746	1	3
396.087	1	-3
396.429	1	7
396.770	1	-2
397.112	1	3
397.453	1	14
397.795	1	-1
398.136	1	-9
398.478	1	0
398.819	1	4
399.161	1	10
399.503	1	2
399.844	1	0
400.186	1	-2
400.527	1	-3
400.869	1	-3
401.210	1	-4
401.552	1	-2
401.893	1	1
402.235	1	-2
402.576	1	2
402.918	1	9
403.259	1	3
403.601	1	-6
403.942	1	11
404.284	1	6
404.625	1	5
404.967	1	9
405.308	1	8
405.649	1	0
405.991	1	-6
406.332	1	-1
406.674	1	-1
407.015	1	9
407.357	1	-1
407.698	1	15
408.040	1	-15
408.381	1	0
408.722	1	-7
409.064	1	4
409.405	1	13
409.747	1	1
410.088	1	2
410.430	1	8
410.771	1	1
411.112	1	-4
411.454	1	1
411.795	1	-2
412.137	1	4
412.478	1	11
412.819	1	1
413.161	1	3
413.502	1	3
413.844	1	0
414.185	1	17
414.526	1	5
414.868	1	6
415.209	1	-1
415.550	1	-8
415.892	1	-1
416.233	1	6
416.575	1	10
416.916	1	-5
417.257	1	-5
417.599	1	5
417.940	1	5
418.281	1	6
418.623	1	-4
418.964	1	-9
419.305	1	0
419.647	1	-3
419.988	1	-7
420.329	1	-6
420.671	1	3
421.012	1	2
421.353	1	2
421.695	1	-5
422.036	1	7
422.377	1	1
422.718	1	8
423.060	1	-1
423.401	1	4
423.742	1	2
424.084	1	5
424.425	1	0
424.766	1	-1
425.107	1	2
425.449	1	2
425.790	1	-2
426.131	1	3
426.472	1	12
426.814	1	8
427.155	1	-5
427.496	1	-1
427.837	1	-2
428.179	1	0
428.520	1	5
428.861	1	1
429.202	1	3
429.544	1	-3
429.885	1	5
430.226	1	0
430.567	1	-2
430.909	1	-7
431.250	1	0
431.591	1	-6
431.932	1	1
432.273	1	3
432.615	1	-2
432.956	1	-6
433.297	1	-2
433.638	1	-10
433.979	1	-2
434.320	1	0
434.662	1	0
435.003	1	0
435.344	1	-1
435.685	1	1
436.026	1	5
436.368	1	2
436.709	1	4
437.050	1	2
437.391	1	6
437.732	1	1
438.073	1	6
438.414	1	-5
438.756	1	-1
439.097	1	-5
439.438	1	-5
439.779	1	0
440.120	1	7
440.461	1	1
440.802	1	3
441.143	1	5
441.485	1	3
441.826	1	8
442.167	1	2
442.508	1	-5
442.849	1	2
443.190	1	5
443.531	1	7
443.872	1	11
444.213	1	2
444.554	1	10
444.895	1	1
445.237	1	-4
445.578	1	-4
445.919	1	-9
446.260	1	0
446.601	1	-8
446.942	1	4
447.283	1	2
447.624	1	-1
447.965	1	4
448.306	1	2
448.647	1	-8
448.988	1	-3
449.329	1	-1
449.670	1	6
450.011	1	10
450.352	1	-4
450.693	1	-7
451.034	1	-9
451.375	1	-5
451.716	1	6
452.057	1	2
452.398	1	3
452.739	1	1
453.080	1	-2
453.421	1	-1
453.762	1	1
454.103	1	-7
454.444	1	-2
454.785	1	1
455.126	1	-4
455.467	1	-2
455.808	1	-2
456.149	1	10
456.490	1	3
456.831	1	7
457.172	1	-1
457.513	1	8
457.854	1	-2
458.195	1	1
458.536	1	4
458.877	1	7
459.218	1	-6
459.559	1	-1
459.899	1	-2
460.240	1	2
460.581	1	25
460.922	1	2
461.263	1	-3
461.604	1	0
461.945	1	1
462.286	1	7
462.627	1	6
462.968	1	2
463.309	1	0
463.649	1	2
463.990	1	1
464.331	1	-5
464.672	1	0
465.013	1	-4
465.354	1	6
465.695	1	-2
466.036	1	5
466.376	1	-9
466.717	1	10
467.058	1	4
467.399	1	1
467.740	1	-2
468.081	1	6
468.422	1	-11
468.762	1	-6
469.103	1	-4
469.444	1	-5
469.785	1	-10
470.126	1	-14
470.467	1	0
470.807	1	-1
471.148	1	9
471.489	1	7
471.830	1	-7
472.171	1	3
472.511	1	1
472.852	1	-5
473.193	1	7
473.534	1	12
473.875	1	14
474.215	1	15
474.556	1	1
474.897	1	-3
475.238	1	-3
475.578	1	-1
475.919	1	5
476.260	1	4
476.601	1	-4
476.942	1	7
477.282	1	-2
477.623	1	-12
477.964	1	-5
478.305	1	-1
478.645	1	5
478.986	1	-2
479.327	1	-10
479.667	1	2
480.008	1	-5
480.349	1	-1
480.690	1	-2
481.030	1	0
481.371	1	10
481.712	1	1
482.053	1	3
482.393	1	3
482.734	1	-10
483.075	1	8
483.415	1	10
483.756	1	12
484.097	1	6
484.437	1	-9
484.778	1	2
485.119	1	-2
485.459	1	10
485.800	1	1
486.141	1	-5
486.481	1	6
486.822	1	9
487.163	1	-3
487.503	1	-3
487.844	1	0
488.185	1	6
488.525	1	1
488.866	1	1
489.207	1	-4
489.547	1	1
489.888	1	1
490.228	1	11
490.569	1	11
490.910	1	1
491.250	1	-3
491.591	1	-4
491.932	1	-4
492.272	1	6
492.613	1	-7
492.953	1	-2
493.294	1	1
493.635	1	-2
493.975	1	-2
494.316	1	10
494.656	1	1
494.997	1	9
495.337	1	5
495.678	1	1
496.019	1	-10
496.359	1	2
496.700	1	4
497.040	1	2
497.381	1	-6
497.721	1	3
498.062	1	-2
498.403	1	1
498.743	1	-7
499.084	1	-4
499.424	1	7
499.765	1	3
500.105	1	0
500.446	1	3
500.786	1	-3
501.127	1	3
501.467	1	-1
501.808	1	-1
502.148	1	11
502.489	1	4
502.829	1	1
503.170	1	4
503.510	1	3
503.851	1	-1
504.191	1	5
504.532	1	2
504.872	1	-1
505.213	1	4
505.553	1	-4
505.894	1	2
506.234	1	10
506.575	1	5
506.915	1	5
507.256	1	5
507.596	1	1
507.936	1	3
508.277	1	2
508.617	1	-3
508.958	1	-8
509.298	1	2
509.639	1	-6
509.979	1	4
510.319	1	2
510.660	1	2
511.000	1	1
511.341	1	4
511.681	1	7
512.022	1	1
512.362	1	-3
512.702	1	-8
513.043	1	7
513.383	1	-5
513.724	1	-3
514.064	1	11
514.404	1	0
514.745	1	0
515.085	1	-3
515.425	1	-1
515.766	1	-9
516.106	1	2
516.447	1	12
516.787	1	6
517.127	1	-5
517.468	1	3
517.808	1	-5
518.148	1	-3
518.489	1	-7
518.829	1	9
519.169	1	-3
519.510	1	-8
519.850	1	8
520.190	1	-2
520.531	1	-2
520.871	1	3
521.211	1	-9
521.552	1	1
521.892	1	1
522.232	1	6
522.573	1	1
522.913	1	0
523.253	1	1
523.593	1	-6
523.934	1	-4
524.274	1	-2
524.614	1	-3
524.955	1	-4
525.295	1	3
525.635	1	2
525.975	1	-4
526.316	1	14
526.656	1	-2
526.996	1	12
527.337	1	0
527.677	1	3
528.017	1	-3
528.357	1	0
528.698	1	4
529.038	1	3
529.378	1	0
529.718	1	7
530.058	1	-4
530.399	1	17
530.739	1	8
531.079	1	2
531.419	1	-1
531.760	1	4
532.100	1	0
532.440	1	-3
532.780	1	3
533.120	1	5
533.461	1	-1
533.801	1	11
534.141	1	-6
534.481	1	-2
534.821	1	6
535.162	1	2
535.502	1	-4
535.842	1	7
536.182	1	0
536.522	1	3
536.862	1	4
537.203	1	-14
537.543	1	-7
537.883	1	-3
538.223	1	4
538.563	1	9
538.903	1	1
539.243	1	-3
539.584	1	1
539.924	1	7
540.264	1	-3
540.604	1	11
540.944	1	-2
541.284	1	3
541.624	1	1
541.964	1	12
542.305	1	4
542.645	1	5
542.985	1	9
543.325	1	6
543.665	1	12
544.005	1	8
544.345	1	5
544.685	1	1
545.025	1	-3
545.365	1	8
545.705	1	-1
546.045	1	-2
546.386	1	4
546.726	1	-8
547.066	1	2
547.406	1	-1
547.746	1	-8
548.086	1	4
548.426	1	1
548.766	1	9
549.106	1	4
549.446	1	0
549.786	1	1
550.126	1	18
550.466	1	2
550.806	1	-2
551.146	1	11
551.486	1	-1
551.826	1	0
552.166	1	2
552.506	1	7
552.846	1	1
553.186	1	4
553.526	1	-6
553.866	1	-5
554.206	1	5
554.546	1	-4
554.886	1	10
555.226	1	-8
555.566	1	2
555.906	1	2
556.246	1	8
556.586	1	1
556.926	1	2
557.266	1	0
557.606	1	1
557.946	1	12
558.286	1	-2
558.626	1	5
558.966	1	-3
559.306	1	-2
559.646	1	-9
559.986	1	-3
560.325	1	-7
560.665	1	4
561.005	1	-2
561.345	1	3
561.685	1	9
562.025	1	-3
562.365	1	-1
562.705	1	0
563.045	1	-3
563.385	1	-4
563.725	1	2
564.064	1	0
564.404	1	-1
564.744	1	4
565.084	1	-10
565.424	1	3
565.764	1	4
566.104	1	-5
566.444	1	-6
566.783	1	6
567.123	1	8
567.463	1	-2
567.803	1	-7
568.143	1	4
568.483	1	1
568.823	1	2
569.162	1	4
569.502	1	-5
569.842	1	5
570.182	1	-2
570.522	1	-5
570.862	1	-1
571.201	1	18
571.541	1	13
571.881	1	8
572.221	1	-4
572.561	1	-3
572.900	1	-6
573.240	1	-2
573.580	1	2
573.920	1	5
574.260	1	10
574.599	1	6
574.939	1	2
575.279	1	10
575.619	1	8
575.959	1	1
576.298	1	10
576.638	1	-2
576.978	1	-2
577.318	1	11
577.657	1	-5
577.997	1	-5
578.337	1	8
578.677	1	4
579.016	1	4
579.356	1	3
579.696	1	5
580.036	1	-1
580.375	1	7
580.715	1	8
581.055	1	-2
581.394	1	6
581.734	1	-11
582.074	1	1
582.414	1	3
582.753	1	1
583.093	1	11
583.433	1	-7
583.772	1	5
584.112	1	3
584.452	1	5
584.791	1	0
585.131	1	7
585.471	1	16
585.811	1	3
586.150	1	-3
586.490	1	5
586.830	1	2
587.169	1	-6
587.509	1	-11
587.849	1	3
588.188	1	6
588.528	1	9
588.867	1	-2
589.207	1	1
589.547	1	0
589.886	1	-8
590.226	1	2
590.566	1	7
590.905	1	3
591.245	1	-3
591.585	1	14
591.924	1	4
592.264	1	6
592.603	1	3
592.943	1	2
593.283	1	6
593.622	1	1
593.962	1	17
594.301	1	14
594.641	1	-6
594.981	1	-11
595.320	1	3
595.660	1	0
595.999	1	-6
596.339	1	10
596.678	1	-10
597.018	1	1
597.358	1	8
597.697	1	6
598.037	1	-4
598.376	1	4
598.716	1	6
599.055	1	11
599.395	1	2
599.734	1	7
600.074	1	8
600.413	1	-4
600.753	1	3
601.092	1	7
601.432	1	-10
601.771	1	-5
602.111	1	3
602.451	1	5
602.790	1	0
603.130	1	2
603.469	1	-3
603.809	1	14
604.148	1	0
604.487	1	-3
604.827	1	6
605.166	1	6
605.506	1	4
605.845	1	-4
606.185	1	3
606.524	1	1
606.864	1	-9
607.203	1	-7
607.543	1	-1
607.882	1	0
608.222	1	5
608.561	1	8
608.901	1	8
609.240	1	0
609.579	1	9
609.919	1	6
610.258	1	6
610.598	1	1
610.937	1	2
611.277	1	-1
611.616	1	-1
611.955	1	7
612.295	1	-5
612.634	1	3
612.974	1	-15
613.313	1	10
613.652	1	7
613.992	1	-3
614.331	1	3
614.671	1	6
615.010	1	-13
615.349	1	-4
615.689	1	3
616.028	1	-1
616.368	1	2
616.707	1	-6
617.046	1	7
617.386	1	4
617.725	1	-3
618.064	1	-5
618.404	1	-2
618.743	1	2
619.082	1	8
619.422	1	-8
619.761	1	2
620.100	1	0
620.440	1	-2
620.779	1	-1
621.118	1	3
621.458	1	5
621.797	1	2
622.136	1	18
622.476	1	7
622.815	1	8
623.154	1	10
623.494	1	6
623.833	1	7
624.172	1	1
624.511	1	-2
624.851	1	-9
625.190	1	0
625.529	1	-4
625.869	1	5
626.208	1	-1
626.547	1	5
626.886	1	4
627.226	1	1
627.565	1	-3
627.904	1	3
628.243	1	-2
628.583	1	-4
628.922	1	17
629.261	1	5
629.600	1	11
629.940	1	4
630.279	1	-4
630.618	1	4
630.957	1	-2
631.297	1	6
631.636	1	-5
631.975	1	4
632.314	1	-8
632.653	1	5
632.993	1	1
633.332	1	-1
633.671	1	5
634.010	1	-5
634.349	1	4
634.689	1	0
635.028	1	-2
635.367	1	4
635.706	1	3
636.045	1	14
636.384	1	-5
636.724	1	4
637.063	1	-1
637.402	1	5
637.741	1	0
638.080	1	4
638.419	1	5
638.759	1	-3
639.098	1	9
639.437	1	7
639.776	1	-7
640.115	1	-9
640.454	1	-6
640.793	1	8
641.132	1	-2
641.472	1	5
641.811	1	-7
642.150	1	-4
642.489	1	6
642.828	1	-4
643.167	1	-3
643.506	1	-1
643.845	1	6
644.184	1	3
644.524	1	-9
644.863	1	-15
645.202	1	-2
645.541	1	-1
645.880	1	1
646.219	1	3
646.558	1	-4
646.897	1	5
647.236	1	1
647.575	1	13
647.914	1	-4
648.253	1	13
648.592	1	1
648.931	1	12
649.270	1	0
649.610	1	6
649.949	1	6
650.288	1	1
650.627	1	-3
650.966	1	11
651.305	1	6
651.644	1	13
651.983	1	-1
652.322	1	-4
652.661	1	-7
653.000	1	-9
653.339	1	11
653.678	1	6
654.017	1	1
654.356	1	0
654.695	1	4
655.034	1	8
655.373	1	8
655.712	1	-2
656.051	1	4
656.390	1	1
656.729	1	12
657.068	1	-1
657.406	1	7
657.745	1	-3
658.084	1	3
658.423	1	8
658.762	1	-6
659.101	1	6
659.440	1	0
659.779	1	7
660.118	1	4
660.457	1	5
660.796	1	-4
661.135	1	-2
661.474	1	-6
661.813	1	12
662.152	1	4
662.491	1	-10
662.829	1	-6
663.168	1	-2
663.507	1	7
663.846	1	1
664.185	1	-3
664.524	1	2
664.863	1	-3
665.202	1	-1
665.541	1	-1
665.879	1	-3
666.218	1	-9
666.557	1	-8
666.896	1	-5
667.235	1	3
667.574	1	7
667.913	1	1
668.251	1	-9
668.590	1	0
668.929	1	-8
669.268	1	2
669.607	1	-1
669.946	1	-4
670.285	1	6
670.623	1	2
670.962	1	0
671.301	1	-1
671.640	1	2
671.979	1	-1
672.317	1	9
672.656	1	5
672.995	1	2
673.334	1	-1
673.673	1	-5
674.011	1	-5
674.350	1	1
674.689	1	-5
675.028	1	-3
675.367	1	4
675.705	1	-2
676.044	1	-4
676.383	1	2
676.722	1	0
677.060	1	1
677.399	1	-6
677.738	1	2
678.077	1	8
678.416	1	-4
678.754	1	-5
679.093	1	1
679.432	1	2
679.771	1	-1
680.109	1	9
680.448	1	-3
680.787	1	4
681.125	1	6
681.464	1	3
681.803	1	-2
682.142	1	8
682.480	1	15
682.819	1	1
683.158	1	1
683.496	1	11
683.835	1	2
684.174	1	-4
684.512	1	2
684.851	1	10
685.190	1	4
685.529	1	-6
685.867	1	-3
686.206	1	-9
686.545	1	2
686.883	1	2
687.222	1	0
687.561	1	6
687.899	1	5
688.238	1	12
688.577	1	-5
688.746	1	5