File: Data/GaN_200K_800ms/GaN_sample F_spot 12_UVVIS_200 K_200um_800 ms 2x2mm1_33.txt
340.368	1	4
340.710	1	-3
341.052	1	9
341.394	1	2
341.737	1	4
342.079	1	-2
342.421	1	0
342.763	1	13
343.105	1	5
343.447	1	2
343.789	1	2
344.131	1	-2
344.473	1	6
344.815	1	9
345.157	1	2
345.499	1	5
345.841	1	16
346.183	1	1
346.526	1	-3
346.868	1	5
347.210	1	-4
347.552	1	4
347.894	1	0
348.236	1	9
348.578	1	10
348.920	1	0
349.262	1	-3
349.604	1	1
349.946	1	0
350.288	1	7
350.630	1	3
350.972	1	0
351.314	1	10
351.656	1	3
351.998	1	5
352.340	1	1
352.682	1	9
353.024	1	2
353.366	1	9
353.708	1	0
354.050	1	2
354.392	1	-10
354.734	1	-2
355.076	1	3
355.418	1	-8
355.760	1	-2
356.102	1	10
356.444	1	8
356.785	1	5
357.127	1	2
357.469	1	2
357.811	1	-1
358.153	1	0
358.495	1	4
358.837	1	-6
359.179	1	-4
359.521	1	4
359.863	1	1
360.205	1	3
360.547	1	4
360.889	1	-13
361.231	1	-2
361.572	1	6
361.914	1	6
362.256	1	1
362.598	1	-6
362.940	1	-6
363.282	1	7
363.624	1	6
363.966	1	4
364.308	1	-6
364.649	1	-1
364.991	1	5
365.333	1	-1
365.675	1	-4
366.017	1	6
366.359	1	-4
366.701	1	2
367.042	1	1
367.384	1	8
367.726	1	3
368.068	1	-4
368.410	1	8
368.752	1	-4
369.093	1	1
369.435	1	14
369.777	1	6
370.119	1	-10
370.461	1	6
370.803	1	6
371.144	1	-1
371.486	1	15
371.828	1	-1
372.170	1	4
372.512	1	-11
372.853	1	7
373.195	1	-4
373.537	1	3
373.879	1	-5
374.220	1	15
374.562	1	9
374.904	1	-1
375.246	1	4
375.588	1	6
375.929	1	7
376.271	1	-3
376.613	1	-2
376.955	1	2
377.296	1	-3
377.638	1	4
377.980	1	1
378.321	1	-9
378.663	1	-12
379.005	1	12
379.347	1	-1
379.688	1	0
380.030	1	0
380.372	1	-3
380.714	1	6
381.055	1	12
381.397	1	5
381.739	1	-2
382.080	1	1
382.422	1	4
382.764	1	-5
383.105	1	0
383.447	1	-3
383.789	1	-3
384.130	1	-1
384.472	1	0
384.814	1	1
385.156	1	-1
385.497	1	14
385.839	1	-3
386.180	1	1
386.522	1	6
386.864	1	2
387.205	1	-4
387.547	1	-3
387.889	1	-4
388.230	1	10
388.572	1	-7
388.914	1	9
389.255	1	-6
389.597	1	6
389.939	1	1
390.280	1	7
390.622	1	-5
390.963	1	12
391.305	1	4
391.647	1	1
391.988	1	9
392.330	1	2
392.671	1	-9
393.013	1	0
393.355	1	6
393.696	1	1
394.038	1	2
394.379	1	5
394.721	1	0
395.062	1	3
395.404	1	2
395.746	1	10
396.087	1	-3
396.429	1	2
396.770	1	-1
397.112	1	11
397.453	1	13
397.795	1	5
398.136	1	-10
398.478	1	1
398.819	1	2
399.161	1	9
399.503	1	2
399.844	1	0
400.186	1	0
400.527	1	1
400.869	1	-7
401.210	1	12
401.552	1	-3
401.893	1	3
402.235	1	3
402.576	1	-8
402.918	1	6
403.259	1	3
403.601	1	-4
403.942	1	10
404.284	1	11
404.625	1	0
404.967	1	2
405.308	1	4
405.649	1	2
405.991	1	-7
406.332	1	2
406.674	1	-10
407.015	1	8
407.357	1	0
407.698	1	9
408.040	1	0
408.381	1	3
408.722	1	-19
409.064	1	11
409.405	1	0
409.747	1	7
410.088	1	5
410.430	1	9
410.771	1	10
411.112	1	1
411.454	1	-5
411.795	1	1
412.137	1	9
412.478	1	10
412.819	1	-5
413.161	1	4
413.502	1	-2
413.844	1	1
414.185	1	7
414.526	1	-2
414.868	1	1
415.209	1	-1
415.550	1	-1
415.892	1	5
416.233	1	2
416.575	1	19
416.916	1	0
417.257	1	-3
417.599	1	1
417.940	1	9
418.281	1	5
418.623	1	-2
418.964	1	-10
419.305	1	1
419.647	1	2
419.988	1	0
420.329	1	-8
420.671	1	1
421.012	1	-5
421.353	1	-2
421.695	1	2
422.036	1	-6
422.377	1	1
422.718	1	13
423.060	1	-3
423.401	1	3
423.742	1	1
424.084	1	-3
424.425	1	7
424.766	1	9
425.107	1	0
425.449	1	10
425.790	1	-1
426.131	1	2
426.472	1	-3
426.814	1	1
427.155	1	-2
427.496	1	-5
427.837	1	-2
428.179	1	-3
428.520	1	1
428.861	1	-3
429.202	1	9
429.544	1	-3
429.885	1	-6
430.226	1	-12
430.567	1	-1
430.909	1	-2
431.250	1	-3
431.591	1	10
431.932	1	-1
432.273	1	-3
432.615	1	-9
432.956	1	-2
433.297	1	4
433.638	1	-7
433.979	1	12
434.320	1	0
434.662	1	5
435.003	1	9
435.344	1	0
435.685	1	4
436.026	1	5
436.368	1	7
436.709	1	-6
437.050	1	3
437.391	1	13
437.732	1	-2
438.073	1	-5
438.414	1	-5
438.756	1	-15
439.097	1	-10
439.438	1	4
439.779	1	4
440.120	1	1
440.461	1	10
440.802	1	0
441.143	1	10
441.485	1	9
441.826	1	1
442.167	1	0
442.508	1	-7
442.849	1	5
443.190	1	6
443.531	1	11
443.872	1	2
444.213	1	2
444.554	1	8
444.895	1	5
445.237	1	-3
445.578	1	-7
445.919	1	-6
446.260	1	-2
446.601	1	-2
446.942	1	-2
447.283	1	0
447.624	1	0
447.965	1	2
448.306	1	6
448.647	1	-1
448.988	1	-10
449.329	1	6
449.670	1	9
450.011	1	8
450.352	1	-5
450.693	1	-4
451.034	1	-4
451.375	1	2
451.716	1	5
452.057	1	7
452.398	1	-9
452.739	1	4
453.080	1	3
453.421	1	1
453.762	1	-2
454.103	1	6
454.444	1	-8
454.785	1	-12
455.126	1	-11
455.467	1	2
455.808	1	0
456.149	1	11
456.490	1	-4
456.831	1	9
457.172	1	-1
457.513	1	0
457.854	1	-2
458.195	1	1
458.536	1	7
458.877	1	-3
459.218	1	5
459.559	1	5
459.899	1	-2
460.240	1	2
460.581	1	21
460.922	1	4
461.263	1	2
461.604	1	-2
461.945	1	-6
462.286	1	0
462.627	1	9
462.968	1	6
463.309	1	-2
463.649	1	5
463.990	1	7
464.331	1	0
464.672	1	4
465.013	1	4
465.354	1	6
465.695	1	-2
466.036	1	0
466.376	1	-2
466.717	1	7
467.058	1	-9
467.399	1	9
467.740	1	6
468.081	1	1
468.422	1	-3
468.762	1	-4
469.103	1	-7
469.444	1	-7
469.785	1	-13
470.126	1	-8
470.467	1	-1
470.807	1	1
471.148	1	3
471.489	1	-2
471.830	1	-2
472.171	1	10
472.511	1	-6
472.852	1	1
473.193	1	3
473.534	1	4
473.875	1	14
474.215	1	4
474.556	1	0
474.897	1	14
475.238	1	-5
475.578	1	-11
475.919	1	-4
476.260	1	-1
476.601	1	-1
476.942	1	9
477.282	1	-1
477.623	1	-3
477.964	1	-1
478.305	1	-1
478.645	1	2
478.986	1	1
479.327	1	-4
479.667	1	2
480.008	1	-2
480.349	1	-9
480.690	1	-8
481.030	1	0
481.371	1	6
481.712	1	9
482.053	1	-4
482.393	1	2
482.734	1	-7
483.075	1	-2
483.415	1	3
483.756	1	9
484.097	1	3
484.437	1	-5
484.778	1	3
485.119	1	-1
485.459	1	11
485.800	1	-4
486.141	1	-5
486.481	1	0
486.822	1	4
487.163	1	7
487.503	1	-1
487.844	1	-1
488.185	1	5
488.525	1	4
488.866	1	4
489.207	1	2
489.547	1	1
489.888	1	-3
490.228	1	2
490.569	1	10
490.910	1	4
491.250	1	-3
491.591	1	-4
491.932	1	1
492.272	1	7
492.613	1	-8
492.953	1	-11
493.294	1	-5
493.635	1	-1
493.975	1	-3
494.316	1	2
494.656	1	-4
494.997	1	-3
495.337	1	8
495.678	1	6
496.019	1	7
496.359	1	-9
496.700	1	6
497.040	1	-7
497.381	1	1
497.721	1	2
498.062	1	8
498.403	1	2
498.743	1	-4
499.084	1	2
499.424	1	-1
499.765	1	4
500.105	1	-1
500.446	1	-4
500.786	1	-10
501.127	1	6
501.467	1	-8
501.808	1	4
502.148	1	2
502.489	1	4
502.829	1	3
503.170	1	7
503.510	1	6
503.851	1	4
504.191	1	4
504.532	1	4
504.872	1	-2
505.213	1	10
505.553	1	-7
505.894	1	-4
506.234	1	6
506.575	1	3
506.915	1	7
507.256	1	11
507.596	1	6
507.936	1	1
508.277	1	-1
508.617	1	4
508.958	1	-4
509.298	1	14
509.639	1	-6
509.979	1	-2
510.319	1	4
510.660	1	2
511.000	1	-5
511.341	1	7
511.681	1	1
512.022	1	-5
512.362	1	-9
512.702	1	-3
513.043	1	7
513.383	1	4
513.724	1	6
514.064	1	11
514.404	1	0
514.745	1	-4
515.085	1	-1
515.425	1	-4
515.766	1	-4
516.106	1	3
516.447	1	11
516.787	1	8
517.127	1	0
517.468	1	4
517.808	1	-4
518.148	1	5
518.489	1	1
518.829	1	-5
519.169	1	2
519.510	1	6
519.850	1	3
520.190	1	-9
520.531	1	5
520.871	1	-7
521.211	1	-10
521.552	1	5
521.892	1	-1
522.232	1	5
522.573	1	-3
522.913	1	11
523.253	1	-3
523.593	1	1
523.934	1	-2
524.274	1	-5
524.614	1	-5
524.955	1	-4
525.295	1	3
525.635	1	-6
525.975	1	0
526.316	1	4
526.656	1	-6
526.996	1	4
527.337	1	-3
527.677	1	10
528.017	1	-10
528.357	1	5
528.698	1	-2
529.038	1	3
529.378	1	3
529.718	1	6
530.058	1	7
530.399	1	3
530.739	1	5
531.079	1	9
531.419	1	-1
531.760	1	3
532.100	1	-4
532.440	1	3
532.780	1	-3
533.120	1	10
533.461	1	3
533.801	1	7
534.141	1	-17
534.481	1	-8
534.821	1	5
535.162	1	2
535.502	1	-2
535.842	1	8
536.182	1	-1
536.522	1	-1
536.862	1	12
537.203	1	-8
537.543	1	-11
537.883	1	-5
538.223	1	2
538.563	1	3
538.903	1	-4
539.243	1	8
539.584	1	0
539.924	1	7
540.264	1	-1
540.604	1	3
540.944	1	2
541.284	1	6
541.624	1	7
541.964	1	5
542.305	1	1
542.645	1	6
542.985	1	4
543.325	1	4
543.665	1	13
544.005	1	11
544.345	1	10
544.685	1	8
545.025	1	1
545.365	1	-1
545.705	1	0
546.045	1	-4
546.386	1	-3
546.726	1	-11
547.066	1	9
547.406	1	9
547.746	1	-13
548.086	1	-2
548.426	1	-2
548.766	1	2
549.106	1	-5
549.446	1	-2
549.786	1	-5
550.126	1	14
550.466	1	0
550.806	1	-7
551.146	1	0
551.486	1	-3
551.826	1	6
552.166	1	-5
552.506	1	1
552.846	1	-4
553.186	1	9
553.526	1	-3
553.866	1	1
554.206	1	6
554.546	1	4
554.886	1	10
555.226	1	-5
555.566	1	0
555.906	1	3
556.246	1	-8
556.586	1	-6
556.926	1	10
557.266	1	-11
557.606	1	5
557.946	1	4
558.286	1	1
558.626	1	-4
558.966	1	1
559.306	1	0
559.646	1	-4
559.986	1	-4
560.325	1	-5
560.665	1	5
561.005	1	-2
561.345	1	3
561.685	1	-3
562.025	1	-4
562.365	1	-5
562.705	1	-4
563.045	1	-4
563.385	1	-6
563.725	1	-5
564.064	1	-1
564.404	1	8
564.744	1	1
565.084	1	-1
565.424	1	0
565.764	1	-5
566.104	1	5
566.444	1	-10
566.783	1	-6
567.123	1	8
567.463	1	8
567.803	1	-3
568.143	1	3
568.483	1	2
568.823	1	1
569.162	1	2
569.502	1	0
569.842	1	7
570.182	1	1
570.522	1	-9
570.862	1	-6
571.201	1	0
571.541	1	5
571.881	1	4
572.221	1	-5
572.561	1	-5
572.900	1	-2
573.240	1	2
573.580	1	9
573.920	1	-5
574.260	1	0
574.599	1	-1
574.939	1	1
575.279	1	7
575.619	1	4
575.959	1	-8
576.298	1	11
576.638	1	-1
576.978	1	7
577.318	1	9
577.657	1	-4
577.997	1	-6
578.337	1	13
578.677	1	6
579.016	1	10
579.356	1	-3
579.696	1	10
580.036	1	-2
580.375	1	4
580.715	1	7
581.055	1	3
581.394	1	4
581.734	1	-5
582.074	1	-2
582.414	1	7
582.753	1	-3
583.093	1	-8
583.433	1	-5
583.772	1	6
584.112	1	3
584.452	1	3
584.791	1	-8
585.131	1	10
585.471	1	13
585.811	1	11
586.150	1	3
586.490	1	11
586.830	1	-1
587.169	1	0
587.509	1	1
587.849	1	-1
588.188	1	13
588.528	1	8
588.867	1	14
589.207	1	10
589.547	1	0
589.886	1	-2
590.226	1	2
590.566	1	0
590.905	1	5
591.245	1	-4
591.585	1	6
591.924	1	1
592.264	1	4
592.603	1	-2
592.943	1	5
593.283	1	3
593.622	1	1
593.962	1	4
594.301	1	3
594.641	1	-4
594.981	1	-7
595.320	1	7
595.660	1	0
595.999	1	-3
596.339	1	9
596.678	1	-2
597.018	1	-5
597.358	1	6
597.697	1	1
598.037	1	6
598.376	1	2
598.716	1	2
599.055	1	9
599.395	1	5
599.734	1	8
600.074	1	6
600.413	1	10
600.753	1	7
601.092	1	14
601.432	1	0
601.771	1	2
602.111	1	-3
602.451	1	-4
602.790	1	-4
603.130	1	4
603.469	1	-1
603.809	1	1
604.148	1	6
604.487	1	3
604.827	1	8
605.166	1	3
605.506	1	0
605.845	1	-8
606.185	1	5
606.524	1	-7
606.864	1	-11
607.203	1	-7
607.543	1	-2
607.882	1	6
608.222	1	-2
608.561	1	-8
608.901	1	-1
609.240	1	-1
609.579	1	11
609.919	1	9
610.258	1	5
610.598	1	-8
610.937	1	2
611.277	1	0
611.616	1	2
611.955	1	-2
612.295	1	7
612.634	1	1
612.974	1	-6
613.313	1	-1
613.652	1	4
613.992	1	0
614.331	1	-11
614.671	1	4
615.010	1	-4
615.349	1	9
615.689	1	12
616.028	1	-4
616.368	1	1
616.707	1	-8
617.046	1	7
617.386	1	4
617.725	1	9
618.064	1	-4
618.404	1	-1
618.743	1	12
619.082	1	5
619.422	1	-5
619.761	1	4
620.100	1	13
620.440	1	-3
620.779	1	1
621.118	1	6
621.458	1	-1
621.797	1	1
622.136	1	7
622.476	1	3
622.815	1	14
623.154	1	4
623.494	1	13
623.833	1	11
624.172	1	9
624.511	1	-1
624.851	1	0
625.190	1	2
625.529	1	3
625.869	1	14
626.208	1	1
626.547	1	6
626.886	1	3
627.226	1	10
627.565	1	-4
627.904	1	0
628.243	1	6
628.583	1	1
628.922	1	1
629.261	1	5
629.600	1	6
629.940	1	-1
630.279	1	-3
630.618	1	-2
630.957	1	-10
631.297	1	1
631.636	1	-8
631.975	1	11
632.314	1	6
632.653	1	3
632.993	1	-5
633.332	1	1
633.671	1	-3
634.010	1	5
634.349	1	4
634.689	1	-3
635.028	1	6
635.367	1	3
635.706	1	4
636.045	1	18
636.384	1	-2
636.724	1	-3
637.063	1	-3
637.402	1	-2
637.741	1	3
638.080	1	-3
638.419	1	-1
638.759	1	-12
639.098	1	5
639.437	1	5
639.776	1	0
640.115	1	6
640.454	1	0
640.793	1	19
641.132	1	4
641.472	1	11
641.811	1	-1
642.150	1	-8
642.489	1	8
642.828	1	-1
643.167	1	-8
643.506	1	-13
643.845	1	1
644.184	1	7
644.524	1	-6
644.863	1	-9
645.202	1	-3
645.541	1	3
645.880	1	4
646.219	1	0
646.558	1	-3
646.897	1	7
647.236	1	4
647.575	1	13
647.914	1	5
648.253	1	0
648.592	1	-10
648.931	1	4
649.270	1	2
649.610	1	-2
649.949	1	3
650.288	1	8
650.627	1	1
650.966	1	2
651.305	1	3
651.644	1	12
651.983	1	1
652.322	1	-2
652.661	1	-10
653.000	1	-10
653.339	1	5
653.678	1	1
654.017	1	2
654.356	1	-8
654.695	1	4
655.034	1	-1
655.373	1	9
655.712	1	3
656.051	1	10
656.390	1	4
656.729	1	9
657.068	1	-2
657.406	1	2
657.745	1	-7
658.084	1	5
658.423	1	6
658.762	1	3
659.101	1	9
659.440	1	6
659.779	1	4
660.118	1	4
660.457	1	7
660.796	1	-8
661.135	1	1
661.474	1	0
661.813	1	8
662.152	1	0
662.491	1	-4
662.829	1	-6
663.168	1	-1
663.507	1	10
663.846	1	-4
664.185	1	7
664.524	1	7
664.863	1	-7
665.202	1	7
665.541	1	-7
665.879	1	-5
666.218	1	-1
666.557	1	0
666.896	1	-5
667.235	1	11
667.574	1	6
667.913	1	7
668.251	1	0
668.590	1	6
668.929	1	-16
669.268	1	-8
669.607	1	0
669.946	1	1
670.285	1	3
670.623	1	-5
670.962	1	9
671.301	1	-5
671.640	1	3
671.979	1	-5
672.317	1	-2
672.656	1	4
672.995	1	4
673.334	1	-2
673.673	1	10
674.011	1	1
674.350	1	3
674.689	1	1
675.028	1	4
675.367	1	3
675.705	1	10
676.044	1	-5
676.383	1	-1
676.722	1	3
677.060	1	1
677.399	1	-2
677.738	1	3
678.077	1	10
678.416	1	3
678.754	1	-11
679.093	1	8
679.432	1	-7
679.771	1	4
680.109	1	13
680.448	1	10
680.787	1	-4
681.125	1	1
681.464	1	4
681.803	1	-5
682.142	1	2
682.480	1	9
682.819	1	-1
683.158	1	1
683.496	1	7
683.835	1	3
684.174	1	-1
684.512	1	5
684.851	1	7
685.190	1	-5
685.529	1	2
685.867	1	-3
686.206	1	-1
686.545	1	-4
686.883	1	6
687.222	1	15
687.561	1	5
687.899	1	4
688.238	1	2
688.577	1	1
688.746	1	3