File: Data/GaN_200K_800ms/GaN_sample F_spot 12_UVVIS_200 K_200um_800 ms 2x2mm1_51.txt
340.368	1	3
340.710	1	-8
341.052	1	12
341.394	1	5
341.737	1	8
342.079	1	5
342.421	1	5
342.763	1	9
343.105	1	14
343.447	1	2
343.789	1	0
344.131	1	0
344.473	1	-7
344.815	1	3
345.157	1	4
345.499	1	10
345.841	1	13
346.183	1	0
346.526	1	0
346.868	1	13
347.210	1	-1
347.552	1	-10
347.894	1	15
348.236	1	14
348.578	1	8
348.920	1	-2
349.262	1	3
349.604	1	10
349.946	1	0
350.288	1	18
350.630	1	12
350.972	1	4
351.314	1	11
351.656	1	20
351.998	1	16
352.340	1	27
352.682	1	25
353.024	1	17
353.366	1	30
353.708	1	28
354.050	1	10
354.392	1	12
354.734	1	19
355.076	1	19
355.418	1	15
355.760	1	18
356.102	1	37
356.444	1	31
356.785	1	31
357.127	1	23
357.469	1	29
357.811	1	41
358.153	1	47
358.495	1	43
358.837	1	38
359.179	1	44
359.521	1	52
359.863	1	49
360.205	1	50
360.547	1	62
360.889	1	63
361.231	1	62
361.572	1	91
361.914	1	87
362.256	1	102
362.598	1	98
362.940	1	101
363.282	1	134
363.624	1	138
363.966	1	157
364.308	1	161
364.649	1	200
364.991	1	204
365.333	1	226
365.675	1	236
366.017	1	279
366.359	1	295
366.701	1	306
367.042	1	356
367.384	1	369
367.726	1	402
368.068	1	409
368.410	1	441
368.752	1	436
369.093	1	471
369.435	1	471
369.777	1	464
370.119	1	478
370.461	1	457
370.803	1	462
371.144	1	437
371.486	1	424
371.828	1	411
372.170	1	388
372.512	1	355
372.853	1	344
373.195	1	335
373.537	1	313
373.879	1	301
374.220	1	281
374.562	1	288
374.904	1	260
375.246	1	245
375.588	1	225
375.929	1	228
376.271	1	216
376.613	1	187
376.955	1	182
377.296	1	168
377.638	1	164
377.980	1	150
378.321	1	138
378.663	1	137
379.005	1	145
379.347	1	124
379.688	1	129
380.030	1	118
380.372	1	112
380.714	1	101
381.055	1	102
381.397	1	90
381.739	1	90
382.080	1	82
382.422	1	83
382.764	1	78
383.105	1	77
383.447	1	67
383.789	1	69
384.130	1	72
384.472	1	60
384.814	1	66
385.156	1	56
385.497	1	68
385.839	1	60
386.180	1	58
386.522	1	58
386.864	1	61
387.205	1	50
387.547	1	40
387.889	1	37
388.230	1	47
388.572	1	29
388.914	1	47
389.255	1	35
389.597	1	44
389.939	1	41
390.280	1	36
390.622	1	22
390.963	1	52
391.305	1	31
391.647	1	38
391.988	1	32
392.330	1	40
392.671	1	28
393.013	1	33
393.355	1	36
393.696	1	25
394.038	1	36
394.379	1	24
394.721	1	29
395.062	1	31
395.404	1	22
395.746	1	22
396.087	1	18
396.429	1	26
396.770	1	19
397.112	1	33
397.453	1	32
397.795	1	19
398.136	1	33
398.478	1	28
398.819	1	15
399.161	1	28
399.503	1	15
399.844	1	23
400.186	1	17
400.527	1	9
400.869	1	22
401.210	1	15
401.552	1	0
401.893	1	15
402.235	1	8
402.576	1	5
402.918	1	18
403.259	1	16
403.601	1	15
403.942	1	26
404.284	1	26
404.625	1	10
404.967	1	14
405.308	1	20
405.649	1	10
405.991	1	9
406.332	1	18
406.674	1	8
407.015	1	17
407.357	1	8
407.698	1	17
408.040	1	15
408.381	1	10
408.722	1	-7
409.064	1	12
409.405	1	18
409.747	1	11
410.088	1	6
410.430	1	25
410.771	1	13
411.112	1	1
411.454	1	-3
411.795	1	9
412.137	1	10
412.478	1	19
412.819	1	8
413.161	1	-4
413.502	1	4
413.844	1	4
414.185	1	10
414.526	1	9
414.868	1	10
415.209	1	0
415.550	1	0
415.892	1	3
416.233	1	4
416.575	1	8
416.916	1	0
417.257	1	6
417.599	1	10
417.940	1	11
418.281	1	9
418.623	1	1
418.964	1	-4
419.305	1	4
419.647	1	4
419.988	1	9
420.329	1	-5
420.671	1	15
421.012	1	17
421.353	1	12
421.695	1	1
422.036	1	2
422.377	1	8
422.718	1	8
423.060	1	-4
423.401	1	12
423.742	1	0
424.084	1	1
424.425	1	5
424.766	1	7
425.107	1	-2
425.449	1	10
425.790	1	-6
426.131	1	7
426.472	1	7
426.814	1	14
427.155	1	-3
427.496	1	0
427.837	1	2
428.179	1	-6
428.520	1	-2
428.861	1	5
429.202	1	3
429.544	1	3
429.885	1	3
430.226	1	0
430.567	1	8
430.909	1	8
431.250	1	6
431.591	1	13
431.932	1	-7
432.273	1	4
432.615	1	-2
432.956	1	-6
433.297	1	12
433.638	1	2
433.979	1	13
434.320	1	8
434.662	1	3
435.003	1	18
435.344	1	8
435.685	1	5
436.026	1	3
436.368	1	4
436.709	1	5
437.050	1	-3
437.391	1	13
437.732	1	5
438.073	1	16
438.414	1	-5
438.756	1	-3
439.097	1	-10
439.438	1	4
439.779	1	4
440.120	1	8
440.461	1	12
440.802	1	-9
441.143	1	14
441.485	1	4
441.826	1	4
442.167	1	5
442.508	1	2
442.849	1	11
443.190	1	9
443.531	1	6
443.872	1	16
444.213	1	8
444.554	1	12
444.895	1	-1
445.237	1	-2
445.578	1	-6
445.919	1	4
446.260	1	4
446.601	1	7
446.942	1	1
447.283	1	-4
447.624	1	5
447.965	1	11
448.306	1	8
448.647	1	6
448.988	1	7
449.329	1	8
449.670	1	9
450.011	1	10
450.352	1	0
450.693	1	-5
451.034	1	2
451.375	1	8
451.716	1	5
452.057	1	7
452.398	1	6
452.739	1	13
453.080	1	-1
453.421	1	0
453.762	1	9
454.103	1	-4
454.444	1	-1
454.785	1	4
455.126	1	-4
455.467	1	12
455.808	1	4
456.149	1	11
456.490	1	1
456.831	1	5
457.172	1	4
457.513	1	6
457.854	1	9
458.195	1	-2
458.536	1	10
458.877	1	6
459.218	1	7
459.559	1	6
459.899	1	5
460.240	1	2
460.581	1	18
460.922	1	4
461.263	1	2
461.604	1	3
461.945	1	9
462.286	1	3
462.627	1	8
462.968	1	12
463.309	1	0
463.649	1	1
463.990	1	-2
464.331	1	-2
464.672	1	5
465.013	1	3
465.354	1	9
465.695	1	7
466.036	1	3
466.376	1	3
466.717	1	3
467.058	1	8
467.399	1	15
467.740	1	3
468.081	1	9
468.422	1	-10
468.762	1	0
469.103	1	-6
469.444	1	-5
469.785	1	-11
470.126	1	-4
470.467	1	-2
470.807	1	15
471.148	1	10
471.489	1	5
471.830	1	5
472.171	1	16
472.511	1	5
472.852	1	3
473.193	1	13
473.534	1	16
473.875	1	12
474.215	1	15
474.556	1	-3
474.897	1	5
475.238	1	10
475.578	1	-6
475.919	1	0
476.260	1	5
476.601	1	9
476.942	1	13
477.282	1	-3
477.623	1	1
477.964	1	3
478.305	1	2
478.645	1	10
478.986	1	3
479.327	1	-1
479.667	1	3
480.008	1	7
480.349	1	1
480.690	1	2
481.030	1	-2
481.371	1	6
481.712	1	9
482.053	1	10
482.393	1	6
482.734	1	0
483.075	1	-1
483.415	1	11
483.756	1	17
484.097	1	9
484.437	1	-2
484.778	1	7
485.119	1	12
485.459	1	19
485.800	1	6
486.141	1	1
486.481	1	0
486.822	1	17
487.163	1	10
487.503	1	10
487.844	1	12
488.185	1	6
488.525	1	5
488.866	1	7
489.207	1	12
489.547	1	7
489.888	1	1
490.228	1	11
490.569	1	23
490.910	1	8
491.250	1	6
491.591	1	10
491.932	1	19
492.272	1	15
492.613	1	8
492.953	1	6
493.294	1	8
493.635	1	13
493.975	1	14
494.316	1	15
494.656	1	8
494.997	1	1
495.337	1	14
495.678	1	3
496.019	1	3
496.359	1	15
496.700	1	19
497.040	1	5
497.381	1	12
497.721	1	9
498.062	1	14
498.403	1	16
498.743	1	5
499.084	1	12
499.424	1	17
499.765	1	19
500.105	1	11
500.446	1	0
500.786	1	4
501.127	1	13
501.467	1	9
501.808	1	14
502.148	1	19
502.489	1	2
502.829	1	22
503.170	1	14
503.510	1	16
503.851	1	20
504.191	1	20
504.532	1	18
504.872	1	13
505.213	1	29
505.553	1	18
505.894	1	11
506.234	1	20
506.575	1	25
506.915	1	24
507.256	1	23
507.596	1	20
507.936	1	25
508.277	1	22
508.617	1	16
508.958	1	17
509.298	1	28
509.639	1	9
509.979	1	23
510.319	1	37
510.660	1	13
511.000	1	13
511.341	1	28
511.681	1	21
512.022	1	7
512.362	1	23
512.702	1	20
513.043	1	29
513.383	1	14
513.724	1	21
514.064	1	38
514.404	1	33
514.745	1	30
515.085	1	27
515.425	1	25
515.766	1	22
516.106	1	21
516.447	1	41
516.787	1	40
517.127	1	27
517.468	1	23
517.808	1	29
518.148	1	34
518.489	1	30
518.829	1	42
519.169	1	26
519.510	1	28
519.850	1	30
520.190	1	34
520.531	1	32
520.871	1	28
521.211	1	17
521.552	1	46
521.892	1	30
522.232	1	30
522.573	1	29
522.913	1	33
523.253	1	39
523.593	1	27
523.934	1	25
524.274	1	28
524.614	1	32
524.955	1	23
525.295	1	28
525.635	1	39
525.975	1	30
526.316	1	40
526.656	1	35
526.996	1	31
527.337	1	20
527.677	1	27
528.017	1	20
528.357	1	34
528.698	1	35
529.038	1	33
529.378	1	40
529.718	1	48
530.058	1	36
530.399	1	48
530.739	1	33
531.079	1	48
531.419	1	45
531.760	1	36
532.100	1	40
532.440	1	33
532.780	1	25
533.120	1	32
533.461	1	40
533.801	1	62
534.141	1	32
534.481	1	30
534.821	1	48
535.162	1	31
535.502	1	34
535.842	1	38
536.182	1	45
536.522	1	31
536.862	1	30
537.203	1	27
537.543	1	34
537.883	1	37
538.223	1	32
538.563	1	31
538.903	1	28
539.243	1	38
539.584	1	31
539.924	1	39
540.264	1	33
540.604	1	28
540.944	1	30
541.284	1	48
541.624	1	42
541.964	1	42
542.305	1	44
542.645	1	39
542.985	1	42
543.325	1	35
543.665	1	42
544.005	1	40
544.345	1	42
544.685	1	44
545.025	1	31
545.365	1	34
545.705	1	35
546.045	1	34
546.386	1	42
546.726	1	30
547.066	1	38
547.406	1	34
547.746	1	31
548.086	1	39
548.426	1	39
548.766	1	42
549.106	1	51
549.446	1	37
549.786	1	36
550.126	1	55
550.466	1	39
550.806	1	34
551.146	1	43
551.486	1	43
551.826	1	50
552.166	1	42
552.506	1	35
552.846	1	44
553.186	1	47
553.526	1	45
553.866	1	34
554.206	1	45
554.546	1	37
554.886	1	44
555.226	1	40
555.566	1	36
555.906	1	42
556.246	1	33
556.586	1	45
556.926	1	48
557.266	1	36
557.606	1	49
557.946	1	49
558.286	1	32
558.626	1	50
558.966	1	43
559.306	1	43
559.646	1	29
559.986	1	42
560.325	1	33
560.665	1	40
561.005	1	35
561.345	1	41
561.685	1	43
562.025	1	36
562.365	1	45
562.705	1	44
563.045	1	45
563.385	1	26
563.725	1	36
564.064	1	46
564.404	1	48
564.744	1	45
565.084	1	32
565.424	1	47
565.764	1	46
566.104	1	42
566.444	1	40
566.783	1	36
567.123	1	42
567.463	1	39
567.803	1	43
568.143	1	39
568.483	1	46
568.823	1	38
569.162	1	51
569.502	1	44
569.842	1	48
570.182	1	43
570.522	1	37
570.862	1	41
571.201	1	43
571.541	1	40
571.881	1	51
572.221	1	37
572.561	1	31
572.900	1	29
573.240	1	49
573.580	1	43
573.920	1	41
574.260	1	48
574.599	1	36
574.939	1	35
575.279	1	45
575.619	1	43
575.959	1	37
576.298	1	48
576.638	1	32
576.978	1	44
577.318	1	42
577.657	1	37
577.997	1	34
578.337	1	41
578.677	1	40
579.016	1	44
579.356	1	37
579.696	1	35
580.036	1	35
580.375	1	50
580.715	1	36
581.055	1	37
581.394	1	35
581.734	1	31
582.074	1	29
582.414	1	48
582.753	1	28
583.093	1	36
583.433	1	34
583.772	1	42
584.112	1	32
584.452	1	40
584.791	1	37
585.131	1	41
585.471	1	28
585.811	1	36
586.150	1	33
586.490	1	46
586.830	1	33
587.169	1	41
587.509	1	35
587.849	1	33
588.188	1	40
588.528	1	37
588.867	1	35
589.207	1	34
589.547	1	34
589.886	1	27
590.226	1	38
590.566	1	28
590.905	1	31
591.245	1	22
591.585	1	35
591.924	1	27
592.264	1	36
592.603	1	35
592.943	1	36
593.283	1	26
593.622	1	28
593.962	1	28
594.301	1	39
594.641	1	28
594.981	1	32
595.320	1	30
595.660	1	38
595.999	1	24
596.339	1	28
596.678	1	16
597.018	1	25
597.358	1	30
597.697	1	24
598.037	1	31
598.376	1	33
598.716	1	33
599.055	1	36
599.395	1	24
599.734	1	26
600.074	1	29
600.413	1	36
600.753	1	25
601.092	1	45
601.432	1	17
601.771	1	33
602.111	1	35
602.451	1	38
602.790	1	36
603.130	1	39
603.469	1	21
603.809	1	29
604.148	1	33
604.487	1	27
604.827	1	33
605.166	1	36
605.506	1	40
605.845	1	31
606.185	1	40
606.524	1	24
606.864	1	37
607.203	1	30
607.543	1	34
607.882	1	39
608.222	1	24
608.561	1	34
608.901	1	41
609.240	1	22
609.579	1	35
609.919	1	38
610.258	1	38
610.598	1	37
610.937	1	32
611.277	1	26
611.616	1	26
611.955	1	24
612.295	1	29
612.634	1	28
612.974	1	17
613.313	1	35
613.652	1	19
613.992	1	27
614.331	1	25
614.671	1	37
615.010	1	19
615.349	1	38
615.689	1	23
616.028	1	28
616.368	1	24
616.707	1	15
617.046	1	34
617.386	1	37
617.725	1	22
618.064	1	22
618.404	1	24
618.743	1	30
619.082	1	23
619.422	1	19
619.761	1	26
620.100	1	32
620.440	1	24
620.779	1	19
621.118	1	28
621.458	1	19
621.797	1	20
622.136	1	30
622.476	1	23
622.815	1	32
623.154	1	23
623.494	1	25
623.833	1	28
624.172	1	19
624.511	1	30
624.851	1	11
625.190	1	14
625.529	1	22
625.869	1	17
626.208	1	24
626.547	1	21
626.886	1	21
627.226	1	32
627.565	1	26
627.904	1	13
628.243	1	18
628.583	1	24
628.922	1	25
629.261	1	21
629.600	1	26
629.940	1	19
630.279	1	13
630.618	1	19
630.957	1	13
631.297	1	17
631.636	1	10
631.975	1	23
632.314	1	18
632.653	1	17
632.993	1	18
633.332	1	21
633.671	1	8
634.010	1	9
634.349	1	30
634.689	1	13
635.028	1	28
635.367	1	17
635.706	1	16
636.045	1	33
636.384	1	7
636.724	1	8
637.063	1	17
637.402	1	24
637.741	1	27
638.080	1	15
638.419	1	8
638.759	1	3
639.098	1	22
639.437	1	21
639.776	1	9
640.115	1	14
640.454	1	16
640.793	1	12
641.132	1	23
641.472	1	16
641.811	1	14
642.150	1	11
642.489	1	17
642.828	1	7
643.167	1	9
643.506	1	7
643.845	1	3
644.184	1	23
644.524	1	11
644.863	1	13
645.202	1	20
645.541	1	10
645.880	1	17
646.219	1	22
646.558	1	23
646.897	1	25
647.236	1	13
647.575	1	13
647.914	1	9
648.253	1	16
648.592	1	13
648.931	1	21
649.270	1	15
649.610	1	16
649.949	1	15
650.288	1	17
650.627	1	13
650.966	1	14
651.305	1	15
651.644	1	21
651.983	1	10
652.322	1	10
652.661	1	13
653.000	1	10
653.339	1	21
653.678	1	16
654.017	1	18
654.356	1	3
654.695	1	16
655.034	1	11
655.373	1	20
655.712	1	16
656.051	1	13
656.390	1	6
656.729	1	20
657.068	1	13
657.406	1	16
657.745	1	10
658.084	1	19
658.423	1	14
658.762	1	12
659.101	1	15
659.440	1	23
659.779	1	18
660.118	1	9
660.457	1	13
660.796	1	3
661.135	1	8
661.474	1	6
661.813	1	18
662.152	1	14
662.491	1	2
662.829	1	13
663.168	1	19
663.507	1	19
663.846	1	8
664.185	1	5
664.524	1	13
664.863	1	8
665.202	1	15
665.541	1	-5
665.879	1	-1
666.218	1	6
666.557	1	11
666.896	1	4
667.235	1	12
667.574	1	9
667.913	1	12
668.251	1	3
668.590	1	1
668.929	1	-4
669.268	1	0
669.607	1	5
669.946	1	14
670.285	1	15
670.623	1	1
670.962	1	13
671.301	1	9
671.640	1	16
671.979	1	3
672.317	1	23
672.656	1	9
672.995	1	23
673.334	1	8
673.673	1	11
674.011	1	7
674.350	1	13
674.689	1	8
675.028	1	5
675.367	1	15
675.705	1	15
676.044	1	21
676.383	1	12
676.722	1	24
677.060	1	2
677.399	1	-2
677.738	1	16
678.077	1	20
678.416	1	9
678.754	1	14
679.093	1	19
679.432	1	9
679.771	1	17
680.109	1	24
680.448	1	14
680.787	1	2
681.125	1	15
681.464	1	0
681.803	1	10
682.142	1	13
682.480	1	24
682.819	1	17
683.158	1	14
683.496	1	10
683.835	1	10
684.174	1	6
684.512	1	21
684.851	1	18
685.190	1	13
685.529	1	12
685.867	1	20
686.206	1	9
686.545	1	3
686.883	1	7
687.222	1	20
687.561	1	16
687.899	1	10
688.238	1	15
688.577	1	14
688.746	1	15