File: Data/GaN_200K_800ms/GaN_sample F_spot 12_UVVIS_200 K_200um_800 ms 2x2mm1_228.txt
340.368	1	5
340.710	1	-9
341.052	1	7
341.394	1	2
341.737	1	10
342.079	1	-9
342.421	1	6
342.763	1	5
343.105	1	7
343.447	1	-7
343.789	1	2
344.131	1	-9
344.473	1	2
344.815	1	-7
345.157	1	-9
345.499	1	-3
345.841	1	2
346.183	1	0
346.526	1	-5
346.868	1	10
347.210	1	-7
347.552	1	0
347.894	1	-8
348.236	1	7
348.578	1	4
348.920	1	0
349.262	1	1
349.604	1	9
349.946	1	-7
350.288	1	3
350.630	1	7
350.972	1	4
351.314	1	14
351.656	1	7
351.998	1	6
352.340	1	11
352.682	1	6
353.024	1	6
353.366	1	9
353.708	1	-4
354.050	1	-9
354.392	1	-11
354.734	1	2
355.076	1	0
355.418	1	-11
355.760	1	-9
356.102	1	16
356.444	1	8
356.785	1	3
357.127	1	5
357.469	1	4
357.811	1	-6
358.153	1	15
358.495	1	1
358.837	1	-4
359.179	1	3
359.521	1	13
359.863	1	4
360.205	1	6
360.547	1	9
360.889	1	0
361.231	1	-1
361.572	1	12
361.914	1	6
362.256	1	-2
362.598	1	0
362.940	1	3
363.282	1	18
363.624	1	10
363.966	1	6
364.308	1	3
364.649	1	10
364.991	1	21
365.333	1	9
365.675	1	10
366.017	1	14
366.359	1	16
366.701	1	6
367.042	1	25
367.384	1	22
367.726	1	20
368.068	1	27
368.410	1	41
368.752	1	17
369.093	1	32
369.435	1	33
369.777	1	26
370.119	1	23
370.461	1	42
370.803	1	18
371.144	1	24
371.486	1	33
371.828	1	20
372.170	1	31
372.512	1	18
372.853	1	16
373.195	1	26
373.537	1	28
373.879	1	13
374.220	1	21
374.562	1	22
374.904	1	24
375.246	1	13
375.588	1	16
375.929	1	19
376.271	1	24
376.613	1	-2
376.955	1	6
377.296	1	12
377.638	1	7
377.980	1	9
378.321	1	7
378.663	1	2
379.005	1	10
379.347	1	8
379.688	1	23
380.030	1	9
380.372	1	12
380.714	1	14
381.055	1	12
381.397	1	7
381.739	1	10
382.080	1	3
382.422	1	5
382.764	1	8
383.105	1	2
383.447	1	5
383.789	1	-3
384.130	1	3
384.472	1	5
384.814	1	8
385.156	1	3
385.497	1	9
385.839	1	7
386.180	1	5
386.522	1	15
386.864	1	3
387.205	1	7
387.547	1	11
387.889	1	-6
388.230	1	10
388.572	1	-6
388.914	1	4
389.255	1	-13
389.597	1	7
389.939	1	1
390.280	1	4
390.622	1	1
390.963	1	11
391.305	1	11
391.647	1	-4
391.988	1	3
392.330	1	0
392.671	1	1
393.013	1	-6
393.355	1	2
393.696	1	-3
394.038	1	9
394.379	1	7
394.721	1	1
395.062	1	-4
395.404	1	0
395.746	1	1
396.087	1	-9
396.429	1	3
396.770	1	-4
397.112	1	20
397.453	1	16
397.795	1	3
398.136	1	-4
398.478	1	-3
398.819	1	-2
399.161	1	5
399.503	1	-1
399.844	1	4
400.186	1	-3
400.527	1	7
400.869	1	9
401.210	1	7
401.552	1	-3
401.893	1	-5
402.235	1	0
402.576	1	-4
402.918	1	14
403.259	1	11
403.601	1	1
403.942	1	11
404.284	1	7
404.625	1	3
404.967	1	-1
405.308	1	2
405.649	1	9
405.991	1	-4
406.332	1	6
406.674	1	1
407.015	1	3
407.357	1	4
407.698	1	6
408.040	1	-1
408.381	1	6
408.722	1	-14
409.064	1	-6
409.405	1	-2
409.747	1	3
410.088	1	3
410.430	1	2
410.771	1	4
411.112	1	2
411.454	1	-6
411.795	1	0
412.137	1	2
412.478	1	7
412.819	1	-9
413.161	1	5
413.502	1	9
413.844	1	11
414.185	1	-6
414.526	1	0
414.868	1	-1
415.209	1	-7
415.550	1	2
415.892	1	1
416.233	1	5
416.575	1	8
416.916	1	-7
417.257	1	-1
417.599	1	4
417.940	1	7
418.281	1	7
418.623	1	-1
418.964	1	-2
419.305	1	2
419.647	1	2
419.988	1	3
420.329	1	0
420.671	1	4
421.012	1	3
421.353	1	2
421.695	1	0
422.036	1	-3
422.377	1	-3
422.718	1	5
423.060	1	-3
423.401	1	0
423.742	1	5
424.084	1	-6
424.425	1	-2
424.766	1	1
425.107	1	-5
425.449	1	6
425.790	1	-8
426.131	1	0
426.472	1	6
426.814	1	9
427.155	1	-4
427.496	1	-6
427.837	1	2
428.179	1	-1
428.520	1	3
428.861	1	0
429.202	1	12
429.544	1	0
429.885	1	3
430.226	1	-8
430.567	1	2
430.909	1	-6
431.250	1	-6
431.591	1	8
431.932	1	-13
432.273	1	-4
432.615	1	-12
432.956	1	-1
433.297	1	1
433.638	1	1
433.979	1	6
434.320	1	7
434.662	1	-3
435.003	1	-2
435.344	1	0
435.685	1	-4
436.026	1	5
436.368	1	2
436.709	1	6
437.050	1	-6
437.391	1	14
437.732	1	-9
438.073	1	-1
438.414	1	-2
438.756	1	-8
439.097	1	-10
439.438	1	0
439.779	1	7
440.120	1	0
440.461	1	-6
440.802	1	2
441.143	1	13
441.485	1	12
441.826	1	0
442.167	1	4
442.508	1	-5
442.849	1	16
443.190	1	-1
443.531	1	2
443.872	1	14
444.213	1	4
444.554	1	12
444.895	1	-9
445.237	1	-8
445.578	1	0
445.919	1	-5
446.260	1	-4
446.601	1	1
446.942	1	0
447.283	1	1
447.624	1	6
447.965	1	3
448.306	1	-1
448.647	1	-2
448.988	1	5
449.329	1	1
449.670	1	6
450.011	1	4
450.352	1	-4
450.693	1	-5
451.034	1	-4
451.375	1	-3
451.716	1	-4
452.057	1	10
452.398	1	-4
452.739	1	4
453.080	1	-8
453.421	1	-4
453.762	1	2
454.103	1	5
454.444	1	0
454.785	1	-1
455.126	1	2
455.467	1	3
455.808	1	-7
456.149	1	9
456.490	1	3
456.831	1	4
457.172	1	0
457.513	1	-1
457.854	1	0
458.195	1	-1
458.536	1	-1
458.877	1	-3
459.218	1	1
459.559	1	8
459.899	1	2
460.240	1	3
460.581	1	13
460.922	1	4
461.263	1	-3
461.604	1	-5
461.945	1	3
462.286	1	2
462.627	1	5
462.968	1	2
463.309	1	-2
463.649	1	2
463.990	1	-8
464.331	1	-5
464.672	1	3
465.013	1	1
465.354	1	-5
465.695	1	-9
466.036	1	0
466.376	1	2
466.717	1	6
467.058	1	-8
467.399	1	4
467.740	1	6
468.081	1	0
468.422	1	3
468.762	1	-3
469.103	1	-4
469.444	1	-8
469.785	1	-14
470.126	1	-9
470.467	1	5
470.807	1	2
471.148	1	0
471.489	1	3
471.830	1	1
472.171	1	6
472.511	1	-9
472.852	1	-3
473.193	1	5
473.534	1	1
473.875	1	11
474.215	1	14
474.556	1	-2
474.897	1	2
475.238	1	4
475.578	1	-11
475.919	1	-3
476.260	1	-2
476.601	1	3
476.942	1	9
477.282	1	2
477.623	1	-8
477.964	1	-9
478.305	1	-2
478.645	1	4
478.986	1	-10
479.327	1	-8
479.667	1	-2
480.008	1	-5
480.349	1	-6
480.690	1	2
481.030	1	-13
481.371	1	12
481.712	1	0
482.053	1	6
482.393	1	-2
482.734	1	-7
483.075	1	-4
483.415	1	3
483.756	1	5
484.097	1	0
484.437	1	-3
484.778	1	5
485.119	1	-2
485.459	1	27
485.800	1	-1
486.141	1	-4
486.481	1	4
486.822	1	-1
487.163	1	5
487.503	1	4
487.844	1	-1
488.185	1	7
488.525	1	-4
488.866	1	7
489.207	1	-1
489.547	1	-4
489.888	1	-5
490.228	1	3
490.569	1	8
490.910	1	1
491.250	1	-13
491.591	1	-2
491.932	1	0
492.272	1	9
492.613	1	-4
492.953	1	0
493.294	1	0
493.635	1	8
493.975	1	1
494.316	1	12
494.656	1	1
494.997	1	9
495.337	1	6
495.678	1	-5
496.019	1	-4
496.359	1	-4
496.700	1	-3
497.040	1	1
497.381	1	-11
497.721	1	-1
498.062	1	-6
498.403	1	2
498.743	1	-4
499.084	1	1
499.424	1	1
499.765	1	-4
500.105	1	-3
500.446	1	0
500.786	1	-6
501.127	1	1
501.467	1	-7
501.808	1	-2
502.148	1	-1
502.489	1	-4
502.829	1	-1
503.170	1	-3
503.510	1	1
503.851	1	-3
504.191	1	6
504.532	1	9
504.872	1	5
505.213	1	5
505.553	1	-6
505.894	1	-5
506.234	1	4
506.575	1	8
506.915	1	14
507.256	1	8
507.596	1	-1
507.936	1	5
508.277	1	-4
508.617	1	-3
508.958	1	-4
509.298	1	4
509.639	1	-4
509.979	1	7
510.319	1	2
510.660	1	-7
511.000	1	-1
511.341	1	8
511.681	1	7
512.022	1	-4
512.362	1	-8
512.702	1	0
513.043	1	8
513.383	1	-1
513.724	1	5
514.064	1	9
514.404	1	1
514.745	1	-3
515.085	1	2
515.425	1	-7
515.766	1	-2
516.106	1	-3
516.447	1	14
516.787	1	3
517.127	1	0
517.468	1	-1
517.808	1	-6
518.148	1	6
518.489	1	2
518.829	1	8
519.169	1	16
519.510	1	-7
519.850	1	5
520.190	1	-5
520.531	1	2
520.871	1	3
521.211	1	-1
521.552	1	12
521.892	1	7
522.232	1	1
522.573	1	1
522.913	1	9
523.253	1	7
523.593	1	-4
523.934	1	7
524.274	1	10
524.614	1	13
524.955	1	0
525.295	1	0
525.635	1	0
525.975	1	2
526.316	1	20
526.656	1	-3
526.996	1	3
527.337	1	1
527.677	1	10
528.017	1	-5
528.357	1	4
528.698	1	6
529.038	1	0
529.378	1	5
529.718	1	6
530.058	1	-7
530.399	1	5
530.739	1	-1
531.079	1	5
531.419	1	11
531.760	1	4
532.100	1	-1
532.440	1	2
532.780	1	10
533.120	1	15
533.461	1	-1
533.801	1	15
534.141	1	-9
534.481	1	-4
534.821	1	-1
535.162	1	7
535.502	1	-12
535.842	1	3
536.182	1	3
536.522	1	-14
536.862	1	7
537.203	1	-11
537.543	1	0
537.883	1	0
538.223	1	-7
538.563	1	4
538.903	1	-10
539.243	1	0
539.584	1	-8
539.924	1	5
540.264	1	-2
540.604	1	5
540.944	1	0
541.284	1	11
541.624	1	8
541.964	1	9
542.305	1	10
542.645	1	1
542.985	1	7
543.325	1	6
543.665	1	9
544.005	1	12
544.345	1	3
544.685	1	4
545.025	1	1
545.365	1	2
545.705	1	-1
546.045	1	-6
546.386	1	7
546.726	1	-6
547.066	1	4
547.406	1	5
547.746	1	-9
548.086	1	7
548.426	1	-1
548.766	1	5
549.106	1	-3
549.446	1	3
549.786	1	-4
550.126	1	16
550.466	1	12
550.806	1	-4
551.146	1	4
551.486	1	5
551.826	1	0
552.166	1	10
552.506	1	-1
552.846	1	2
553.186	1	10
553.526	1	3
553.866	1	6
554.206	1	6
554.546	1	12
554.886	1	9
555.226	1	-13
555.566	1	9
555.906	1	8
556.246	1	12
556.586	1	5
556.926	1	4
557.266	1	0
557.606	1	9
557.946	1	11
558.286	1	2
558.626	1	2
558.966	1	10
559.306	1	1
559.646	1	-4
559.986	1	2
560.325	1	-5
560.665	1	-2
561.005	1	-3
561.345	1	1
561.685	1	-2
562.025	1	4
562.365	1	5
562.705	1	-1
563.045	1	-4
563.385	1	-6
563.725	1	7
564.064	1	-2
564.404	1	5
564.744	1	6
565.084	1	1
565.424	1	5
565.764	1	0
566.104	1	3
566.444	1	-8
566.783	1	5
567.123	1	5
567.463	1	10
567.803	1	-13
568.143	1	-1
568.483	1	6
568.823	1	5
569.162	1	2
569.502	1	-2
569.842	1	4
570.182	1	5
570.522	1	-8
570.862	1	-3
571.201	1	2
571.541	1	10
571.881	1	11
572.221	1	1
572.561	1	2
572.900	1	4
573.240	1	8
573.580	1	-2
573.920	1	2
574.260	1	13
574.599	1	1
574.939	1	0
575.279	1	11
575.619	1	5
575.959	1	-5
576.298	1	21
576.638	1	4
576.978	1	7
577.318	1	4
577.657	1	1
577.997	1	-4
578.337	1	6
578.677	1	6
579.016	1	2
579.356	1	-1
579.696	1	3
580.036	1	-3
580.375	1	3
580.715	1	9
581.055	1	-10
581.394	1	0
581.734	1	-5
582.074	1	12
582.414	1	8
582.753	1	-7
583.093	1	4
583.433	1	-2
583.772	1	13
584.112	1	1
584.452	1	3
584.791	1	-10
585.131	1	5
585.471	1	7
585.811	1	9
586.150	1	-7
586.490	1	7
586.830	1	3
587.169	1	5
587.509	1	5
587.849	1	1
588.188	1	7
588.528	1	3
588.867	1	7
589.207	1	10
589.547	1	0
589.886	1	8
590.226	1	12
590.566	1	5
590.905	1	0
591.245	1	-5
591.585	1	8
591.924	1	8
592.264	1	2
592.603	1	-3
592.943	1	6
593.283	1	-2
593.622	1	7
593.962	1	9
594.301	1	10
594.641	1	-7
594.981	1	-8
595.320	1	4
595.660	1	1
595.999	1	-5
596.339	1	8
596.678	1	0
597.018	1	4
597.358	1	4
597.697	1	-6
598.037	1	1
598.376	1	0
598.716	1	11
599.055	1	11
599.395	1	-3
599.734	1	9
600.074	1	5
600.413	1	7
600.753	1	-5
601.092	1	12
601.432	1	-2
601.771	1	1
602.111	1	3
602.451	1	3
602.790	1	-1
603.130	1	9
603.469	1	-15
603.809	1	3
604.148	1	1
604.487	1	14
604.827	1	7
605.166	1	5
605.506	1	6
605.845	1	2
606.185	1	14
606.524	1	2
606.864	1	1
607.203	1	0
607.543	1	4
607.882	1	7
608.222	1	-1
608.561	1	6
608.901	1	0
609.240	1	-1
609.579	1	13
609.919	1	12
610.258	1	10
610.598	1	8
610.937	1	7
611.277	1	-4
611.616	1	1
611.955	1	7
612.295	1	2
612.634	1	2
612.974	1	-13
613.313	1	9
613.652	1	9
613.992	1	-5
614.331	1	-1
614.671	1	2
615.010	1	-7
615.349	1	4
615.689	1	3
616.028	1	0
616.368	1	3
616.707	1	5
617.046	1	-1
617.386	1	4
617.725	1	-6
618.064	1	-8
618.404	1	3
618.743	1	3
619.082	1	2
619.422	1	-4
619.761	1	-4
620.100	1	7
620.440	1	5
620.779	1	-6
621.118	1	0
621.458	1	3
621.797	1	-9
622.136	1	15
622.476	1	9
622.815	1	10
623.154	1	2
623.494	1	6
623.833	1	8
624.172	1	-1
624.511	1	0
624.851	1	-17
625.190	1	11
625.529	1	1
625.869	1	5
626.208	1	-1
626.547	1	-5
626.886	1	-2
627.226	1	9
627.565	1	2
627.904	1	1
628.243	1	13
628.583	1	0
628.922	1	10
629.261	1	9
629.600	1	14
629.940	1	6
630.279	1	-4
630.618	1	9
630.957	1	6
631.297	1	3
631.636	1	-4
631.975	1	6
632.314	1	2
632.653	1	4
632.993	1	-1
633.332	1	3
633.671	1	1
634.010	1	-7
634.349	1	12
634.689	1	6
635.028	1	4
635.367	1	5
635.706	1	-2
636.045	1	11
636.384	1	-3
636.724	1	10
637.063	1	-2
637.402	1	-6
637.741	1	1
638.080	1	-4
638.419	1	-1
638.759	1	-6
639.098	1	4
639.437	1	3
639.776	1	-2
640.115	1	-6
640.454	1	4
640.793	1	12
641.132	1	11
641.472	1	-4
641.811	1	2
642.150	1	0
642.489	1	11
642.828	1	-13
643.167	1	-3
643.506	1	-2
643.845	1	-1
644.184	1	3
644.524	1	-1
644.863	1	-7
645.202	1	7
645.541	1	-5
645.880	1	0
646.219	1	2
646.558	1	-1
646.897	1	2
647.236	1	2
647.575	1	3
647.914	1	0
648.253	1	8
648.592	1	-6
648.931	1	13
649.270	1	-1
649.610	1	5
649.949	1	-4
650.288	1	6
650.627	1	-1
650.966	1	-1
651.305	1	0
651.644	1	5
651.983	1	-1
652.322	1	-7
652.661	1	-9
653.000	1	1
653.339	1	19
653.678	1	-3
654.017	1	-4
654.356	1	1
654.695	1	2
655.034	1	4
655.373	1	12
655.712	1	5
656.051	1	10
656.390	1	-8
656.729	1	10
657.068	1	9
657.406	1	5
657.745	1	-9
658.084	1	5
658.423	1	-3
658.762	1	2
659.101	1	5
659.440	1	-1
659.779	1	-1
660.118	1	-4
660.457	1	0
660.796	1	-14
661.135	1	3
661.474	1	3
661.813	1	9
662.152	1	3
662.491	1	-7
662.829	1	-3
663.168	1	8
663.507	1	12
663.846	1	-5
664.185	1	4
664.524	1	1
664.863	1	1
665.202	1	3
665.541	1	-4
665.879	1	-7
666.218	1	-10
666.557	1	-4
666.896	1	-7
667.235	1	0
667.574	1	8
667.913	1	-3
668.251	1	3
668.590	1	4
668.929	1	-12
669.268	1	-9
669.607	1	-1
669.946	1	2
670.285	1	8
670.623	1	-7
670.962	1	-1
671.301	1	-2
671.640	1	0
671.979	1	-8
672.317	1	10
672.656	1	-3
672.995	1	4
673.334	1	-5
673.673	1	6
674.011	1	-8
674.350	1	6
674.689	1	-1
675.028	1	1
675.367	1	3
675.705	1	-1
676.044	1	2
676.383	1	6
676.722	1	7
677.060	1	-12
677.399	1	1
677.738	1	3
678.077	1	17
678.416	1	9
678.754	1	-11
679.093	1	7
679.432	1	3
679.771	1	4
680.109	1	9
680.448	1	-1
680.787	1	-4
681.125	1	6
681.464	1	5
681.803	1	-5
682.142	1	5
682.480	1	15
682.819	1	5
683.158	1	-1
683.496	1	5
683.835	1	-1
684.174	1	2
684.512	1	11
684.851	1	7
685.190	1	-8
685.529	1	1
685.867	1	-8
686.206	1	-3
686.545	1	1
686.883	1	-4
687.222	1	1
687.561	1	1
687.899	1	2
688.238	1	8
688.577	1	6
688.746	1	-6