File: Data/GaN_200K_800ms/GaN_sample F_spot 12_UVVIS_200 K_200um_800 ms 2x2mm1_541.txt
340.368	1	3
340.710	1	-6
341.052	1	5
341.394	1	-10
341.737	1	5
342.079	1	-4
342.421	1	-9
342.763	1	2
343.105	1	-5
343.447	1	-11
343.789	1	3
344.131	1	-6
344.473	1	-4
344.815	1	-6
345.157	1	-7
345.499	1	13
345.841	1	1
346.183	1	-10
346.526	1	-4
346.868	1	7
347.210	1	-4
347.552	1	-5
347.894	1	-1
348.236	1	5
348.578	1	-4
348.920	1	-9
349.262	1	-6
349.604	1	4
349.946	1	-1
350.288	1	11
350.630	1	4
350.972	1	-2
351.314	1	8
351.656	1	1
351.998	1	3
352.340	1	1
352.682	1	10
353.024	1	13
353.366	1	-2
353.708	1	-7
354.050	1	-6
354.392	1	1
354.734	1	-4
355.076	1	3
355.418	1	-11
355.760	1	-2
356.102	1	9
356.444	1	-7
356.785	1	10
357.127	1	-2
357.469	1	1
357.811	1	7
358.153	1	4
358.495	1	1
358.837	1	-5
359.179	1	1
359.521	1	3
359.863	1	4
360.205	1	1
360.547	1	-1
360.889	1	-5
361.231	1	2
361.572	1	9
361.914	1	-1
362.256	1	-2
362.598	1	-3
362.940	1	-2
363.282	1	3
363.624	1	12
363.966	1	-5
364.308	1	4
364.649	1	4
364.991	1	2
365.333	1	3
365.675	1	4
366.017	1	5
366.359	1	-3
366.701	1	-1
367.042	1	-3
367.384	1	6
367.726	1	7
368.068	1	1
368.410	1	16
368.752	1	3
369.093	1	5
369.435	1	4
369.777	1	3
370.119	1	6
370.461	1	17
370.803	1	11
371.144	1	2
371.486	1	17
371.828	1	1
372.170	1	15
372.512	1	-3
372.853	1	-1
373.195	1	0
373.537	1	1
373.879	1	-1
374.220	1	20
374.562	1	6
374.904	1	-5
375.246	1	3
375.588	1	3
375.929	1	2
376.271	1	0
376.613	1	-7
376.955	1	0
377.296	1	-1
377.638	1	1
377.980	1	1
378.321	1	-9
378.663	1	-3
379.005	1	7
379.347	1	7
379.688	1	7
380.030	1	-4
380.372	1	1
380.714	1	-3
381.055	1	5
381.397	1	-7
381.739	1	-6
382.080	1	-5
382.422	1	5
382.764	1	-4
383.105	1	-2
383.447	1	-6
383.789	1	-5
384.130	1	2
384.472	1	3
384.814	1	2
385.156	1	-6
385.497	1	3
385.839	1	-4
386.180	1	-4
386.522	1	-6
386.864	1	-7
387.205	1	-6
387.547	1	0
387.889	1	4
388.230	1	7
388.572	1	0
388.914	1	-3
389.255	1	-7
389.597	1	-7
389.939	1	-2
390.280	1	-1
390.622	1	-5
390.963	1	15
391.305	1	9
391.647	1	-1
391.988	1	5
392.330	1	5
392.671	1	-8
393.013	1	-1
393.355	1	3
393.696	1	8
394.038	1	2
394.379	1	6
394.721	1	-6
395.062	1	8
395.404	1	-11
395.746	1	5
396.087	1	-5
396.429	1	9
396.770	1	-1
397.112	1	8
397.453	1	9
397.795	1	7
398.136	1	-17
398.478	1	-3
398.819	1	-4
399.161	1	10
399.503	1	8
399.844	1	1
400.186	1	0
400.527	1	-1
400.869	1	-2
401.210	1	-2
401.552	1	-10
401.893	1	4
402.235	1	-7
402.576	1	2
402.918	1	7
403.259	1	8
403.601	1	-13
403.942	1	7
404.284	1	6
404.625	1	11
404.967	1	4
405.308	1	4
405.649	1	4
405.991	1	-3
406.332	1	-3
406.674	1	-6
407.015	1	0
407.357	1	-2
407.698	1	4
408.040	1	-15
408.381	1	-1
408.722	1	-17
409.064	1	1
409.405	1	7
409.747	1	-4
410.088	1	-2
410.430	1	1
410.771	1	1
411.112	1	-5
411.454	1	-4
411.795	1	-7
412.137	1	0
412.478	1	4
412.819	1	-4
413.161	1	-6
413.502	1	-6
413.844	1	-2
414.185	1	-2
414.526	1	-9
414.868	1	-4
415.209	1	-6
415.550	1	4
415.892	1	1
416.233	1	6
416.575	1	8
416.916	1	-7
417.257	1	-6
417.599	1	3
417.940	1	9
418.281	1	-1
418.623	1	-4
418.964	1	-13
419.305	1	0
419.647	1	-9
419.988	1	-2
420.329	1	-8
420.671	1	4
421.012	1	-2
421.353	1	-8
421.695	1	-5
422.036	1	-2
422.377	1	0
422.718	1	4
423.060	1	-5
423.401	1	3
423.742	1	-5
424.084	1	-1
424.425	1	0
424.766	1	-4
425.107	1	-8
425.449	1	3
425.790	1	-14
426.131	1	3
426.472	1	-4
426.814	1	2
427.155	1	-9
427.496	1	-3
427.837	1	-9
428.179	1	-13
428.520	1	-3
428.861	1	-2
429.202	1	2
429.544	1	-6
429.885	1	-4
430.226	1	-10
430.567	1	-1
430.909	1	-9
431.250	1	-8
431.591	1	1
431.932	1	-1
432.273	1	-4
432.615	1	-9
432.956	1	-11
433.297	1	4
433.638	1	3
433.979	1	0
434.320	1	2
434.662	1	-8
435.003	1	7
435.344	1	0
435.685	1	-7
436.026	1	9
436.368	1	-4
436.709	1	1
437.050	1	-9
437.391	1	11
437.732	1	-10
438.073	1	-7
438.414	1	-9
438.756	1	-3
439.097	1	-13
439.438	1	-15
439.779	1	-4
440.120	1	-7
440.461	1	1
440.802	1	-5
441.143	1	9
441.485	1	-2
441.826	1	-2
442.167	1	1
442.508	1	-10
442.849	1	1
443.190	1	5
443.531	1	2
443.872	1	6
444.213	1	-2
444.554	1	-2
444.895	1	-4
445.237	1	-4
445.578	1	-5
445.919	1	-10
446.260	1	-4
446.601	1	-2
446.942	1	0
447.283	1	-5
447.624	1	-2
447.965	1	-1
448.306	1	0
448.647	1	-8
448.988	1	-2
449.329	1	0
449.670	1	1
450.011	1	-2
450.352	1	2
450.693	1	-7
451.034	1	-7
451.375	1	1
451.716	1	-11
452.057	1	9
452.398	1	-2
452.739	1	1
453.080	1	-3
453.421	1	-12
453.762	1	-3
454.103	1	-3
454.444	1	-15
454.785	1	-3
455.126	1	-14
455.467	1	-7
455.808	1	0
456.149	1	2
456.490	1	3
456.831	1	4
457.172	1	-6
457.513	1	8
457.854	1	-4
458.195	1	-5
458.536	1	3
458.877	1	-5
459.218	1	0
459.559	1	7
459.899	1	-5
460.240	1	-4
460.581	1	12
460.922	1	-1
461.263	1	-7
461.604	1	1
461.945	1	-6
462.286	1	5
462.627	1	3
462.968	1	6
463.309	1	-11
463.649	1	-8
463.990	1	-6
464.331	1	0
464.672	1	2
465.013	1	-9
465.354	1	-3
465.695	1	-9
466.036	1	-4
466.376	1	-8
466.717	1	8
467.058	1	-3
467.399	1	4
467.740	1	-8
468.081	1	0
468.422	1	-10
468.762	1	-8
469.103	1	2
469.444	1	-7
469.785	1	-10
470.126	1	-15
470.467	1	1
470.807	1	-1
471.148	1	9
471.489	1	0
471.830	1	-7
472.171	1	-5
472.511	1	-6
472.852	1	-2
473.193	1	7
473.534	1	17
473.875	1	18
474.215	1	8
474.556	1	1
474.897	1	0
475.238	1	-9
475.578	1	-7
475.919	1	-11
476.260	1	3
476.601	1	-1
476.942	1	2
477.282	1	-16
477.623	1	-12
477.964	1	3
478.305	1	7
478.645	1	-1
478.986	1	-6
479.327	1	-6
479.667	1	-2
480.008	1	-3
480.349	1	4
480.690	1	-3
481.030	1	-15
481.371	1	-3
481.712	1	6
482.053	1	-4
482.393	1	-1
482.734	1	-6
483.075	1	-4
483.415	1	1
483.756	1	15
484.097	1	0
484.437	1	-4
484.778	1	1
485.119	1	2
485.459	1	13
485.800	1	-4
486.141	1	-10
486.481	1	-6
486.822	1	7
487.163	1	-2
487.503	1	-3
487.844	1	3
488.185	1	4
488.525	1	-3
488.866	1	4
489.207	1	-4
489.547	1	-5
489.888	1	-2
490.228	1	3
490.569	1	7
490.910	1	-2
491.250	1	-3
491.591	1	-2
491.932	1	-11
492.272	1	3
492.613	1	-9
492.953	1	0
493.294	1	-3
493.635	1	0
493.975	1	-10
494.316	1	6
494.656	1	-6
494.997	1	-3
495.337	1	4
495.678	1	-1
496.019	1	0
496.359	1	-5
496.700	1	-5
497.040	1	-6
497.381	1	-10
497.721	1	-1
498.062	1	-3
498.403	1	1
498.743	1	-9
499.084	1	-6
499.424	1	-3
499.765	1	-5
500.105	1	3
500.446	1	-11
500.786	1	-12
501.127	1	2
501.467	1	-18
501.808	1	7
502.148	1	-1
502.489	1	0
502.829	1	-1
503.170	1	1
503.510	1	7
503.851	1	1
504.191	1	8
504.532	1	1
504.872	1	-7
505.213	1	7
505.553	1	-9
505.894	1	-10
506.234	1	8
506.575	1	3
506.915	1	5
507.256	1	0
507.596	1	-5
507.936	1	-4
508.277	1	-7
508.617	1	-7
508.958	1	-18
509.298	1	5
509.639	1	-10
509.979	1	-9
510.319	1	2
510.660	1	-1
511.000	1	-3
511.341	1	4
511.681	1	8
512.022	1	-12
512.362	1	-6
512.702	1	-2
513.043	1	13
513.383	1	-10
513.724	1	4
514.064	1	5
514.404	1	0
514.745	1	3
515.085	1	0
515.425	1	-2
515.766	1	-11
516.106	1	4
516.447	1	6
516.787	1	10
517.127	1	0
517.468	1	1
517.808	1	-2
518.148	1	4
518.489	1	-6
518.829	1	-4
519.169	1	-2
519.510	1	2
519.850	1	1
520.190	1	-1
520.531	1	4
520.871	1	-2
521.211	1	-5
521.552	1	12
521.892	1	-3
522.232	1	4
522.573	1	-1
522.913	1	1
523.253	1	6
523.593	1	-15
523.934	1	0
524.274	1	2
524.614	1	-5
524.955	1	-9
525.295	1	-9
525.635	1	-3
525.975	1	-6
526.316	1	16
526.656	1	-4
526.996	1	-3
527.337	1	3
527.677	1	3
528.017	1	-19
528.357	1	0
528.698	1	3
529.038	1	1
529.378	1	-2
529.718	1	5
530.058	1	-5
530.399	1	7
530.739	1	5
531.079	1	7
531.419	1	4
531.760	1	4
532.100	1	0
532.440	1	-3
532.780	1	-7
533.120	1	-1
533.461	1	4
533.801	1	13
534.141	1	-18
534.481	1	-14
534.821	1	-2
535.162	1	2
535.502	1	-2
535.842	1	3
536.182	1	3
536.522	1	1
536.862	1	8
537.203	1	-12
537.543	1	-2
537.883	1	-8
538.223	1	-4
538.563	1	10
538.903	1	-1
539.243	1	0
539.584	1	-8
539.924	1	1
540.264	1	-7
540.604	1	1
540.944	1	-1
541.284	1	4
541.624	1	0
541.964	1	13
542.305	1	3
542.645	1	-3
542.985	1	-1
543.325	1	-2
543.665	1	6
544.005	1	14
544.345	1	7
544.685	1	-4
545.025	1	-1
545.365	1	-3
545.705	1	2
546.045	1	-6
546.386	1	2
546.726	1	-12
547.066	1	10
547.406	1	2
547.746	1	-9
548.086	1	6
548.426	1	-8
548.766	1	-2
549.106	1	-4
549.446	1	2
549.786	1	-6
550.126	1	7
550.466	1	0
550.806	1	-3
551.146	1	-4
551.486	1	-14
551.826	1	-2
552.166	1	1
552.506	1	7
552.846	1	-2
553.186	1	4
553.526	1	3
553.866	1	-2
554.206	1	5
554.546	1	5
554.886	1	3
555.226	1	-5
555.566	1	4
555.906	1	3
556.246	1	-1
556.586	1	-4
556.926	1	3
557.266	1	-8
557.606	1	4
557.946	1	12
558.286	1	5
558.626	1	2
558.966	1	-4
559.306	1	-7
559.646	1	-10
559.986	1	-13
560.325	1	-7
560.665	1	-1
561.005	1	-9
561.345	1	0
561.685	1	-12
562.025	1	0
562.365	1	-3
562.705	1	1
563.045	1	-7
563.385	1	-7
563.725	1	0
564.064	1	-12
564.404	1	-4
564.744	1	3
565.084	1	-2
565.424	1	7
565.764	1	-11
566.104	1	-2
566.444	1	-11
566.783	1	-5
567.123	1	0
567.463	1	0
567.803	1	-7
568.143	1	-1
568.483	1	1
568.823	1	7
569.162	1	4
569.502	1	-15
569.842	1	3
570.182	1	2
570.522	1	-6
570.862	1	-7
571.201	1	9
571.541	1	4
571.881	1	14
572.221	1	-10
572.561	1	-7
572.900	1	1
573.240	1	1
573.580	1	-3
573.920	1	-4
574.260	1	6
574.599	1	8
574.939	1	-1
575.279	1	17
575.619	1	4
575.959	1	-3
576.298	1	8
576.638	1	-3
576.978	1	2
577.318	1	5
577.657	1	-5
577.997	1	-10
578.337	1	11
578.677	1	10
579.016	1	10
579.356	1	-11
579.696	1	7
580.036	1	-14
580.375	1	2
580.715	1	-3
581.055	1	-2
581.394	1	8
581.734	1	-11
582.074	1	-5
582.414	1	8
582.753	1	-12
583.093	1	3
583.433	1	0
583.772	1	1
584.112	1	-4
584.452	1	0
584.791	1	-10
585.131	1	3
585.471	1	6
585.811	1	3
586.150	1	-2
586.490	1	8
586.830	1	0
587.169	1	6
587.509	1	0
587.849	1	-1
588.188	1	7
588.528	1	8
588.867	1	4
589.207	1	4
589.547	1	-1
589.886	1	-11
590.226	1	-2
590.566	1	-5
590.905	1	2
591.245	1	-4
591.585	1	6
591.924	1	-3
592.264	1	-3
592.603	1	-3
592.943	1	-2
593.283	1	-1
593.622	1	4
593.962	1	2
594.301	1	4
594.641	1	-3
594.981	1	-9
595.320	1	2
595.660	1	1
595.999	1	-10
596.339	1	1
596.678	1	-7
597.018	1	-2
597.358	1	6
597.697	1	4
598.037	1	-1
598.376	1	0
598.716	1	-1
599.055	1	1
599.395	1	4
599.734	1	-9
600.074	1	0
600.413	1	6
600.753	1	5
601.092	1	5
601.432	1	-3
601.771	1	-1
602.111	1	4
602.451	1	0
602.790	1	0
603.130	1	0
603.469	1	-10
603.809	1	0
604.148	1	5
604.487	1	5
604.827	1	11
605.166	1	0
605.506	1	-5
605.845	1	-1
606.185	1	3
606.524	1	-8
606.864	1	-1
607.203	1	-6
607.543	1	-8
607.882	1	6
608.222	1	4
608.561	1	5
608.901	1	8
609.240	1	3
609.579	1	12
609.919	1	9
610.258	1	0
610.598	1	3
610.937	1	-5
611.277	1	2
611.616	1	-9
611.955	1	-5
612.295	1	-10
612.634	1	3
612.974	1	-13
613.313	1	12
613.652	1	1
613.992	1	1
614.331	1	0
614.671	1	10
615.010	1	-5
615.349	1	9
615.689	1	3
616.028	1	-12
616.368	1	-5
616.707	1	3
617.046	1	0
617.386	1	-3
617.725	1	-7
618.064	1	-5
618.404	1	-3
618.743	1	4
619.082	1	-4
619.422	1	-7
619.761	1	0
620.100	1	6
620.440	1	-4
620.779	1	-6
621.118	1	-6
621.458	1	1
621.797	1	0
622.136	1	10
622.476	1	10
622.815	1	2
623.154	1	15
623.494	1	6
623.833	1	6
624.172	1	2
624.511	1	-9
624.851	1	-13
625.190	1	-2
625.529	1	7
625.869	1	7
626.208	1	0
626.547	1	-1
626.886	1	-2
627.226	1	4
627.565	1	1
627.904	1	-4
628.243	1	0
628.583	1	-9
628.922	1	1
629.261	1	7
629.600	1	10
629.940	1	-5
630.279	1	-5
630.618	1	0
630.957	1	-10
631.297	1	-1
631.636	1	-10
631.975	1	10
632.314	1	-15
632.653	1	2
632.993	1	-7
633.332	1	-1
633.671	1	-12
634.010	1	-5
634.349	1	2
634.689	1	-1
635.028	1	1
635.367	1	3
635.706	1	9
636.045	1	5
636.384	1	-4
636.724	1	-4
637.063	1	-11
637.402	1	-5
637.741	1	2
638.080	1	-5
638.419	1	-7
638.759	1	-3
639.098	1	0
639.437	1	4
639.776	1	-2
640.115	1	2
640.454	1	-8
640.793	1	-1
641.132	1	4
641.472	1	1
641.811	1	-8
642.150	1	-3
642.489	1	5
642.828	1	-4
643.167	1	0
643.506	1	-12
643.845	1	-1
644.184	1	-1
644.524	1	-1
644.863	1	2
645.202	1	4
645.541	1	-7
645.880	1	0
646.219	1	5
646.558	1	9
646.897	1	4
647.236	1	4
647.575	1	11
647.914	1	-3
648.253	1	1
648.592	1	-6
648.931	1	9
649.270	1	-1
649.610	1	-5
649.949	1	-4
650.288	1	3
650.627	1	-8
650.966	1	-6
651.305	1	0
651.644	1	3
651.983	1	-1
652.322	1	-10
652.661	1	-7
653.000	1	1
653.339	1	2
653.678	1	3
654.017	1	-8
654.356	1	-4
654.695	1	5
655.034	1	6
655.373	1	-2
655.712	1	1
656.051	1	-7
656.390	1	-2
656.729	1	15
657.068	1	1
657.406	1	-1
657.745	1	-2
658.084	1	5
658.423	1	11
658.762	1	6
659.101	1	12
659.440	1	1
659.779	1	0
660.118	1	2
660.457	1	-1
660.796	1	-15
661.135	1	-4
661.474	1	-1
661.813	1	11
662.152	1	1
662.491	1	-10
662.829	1	-5
663.168	1	4
663.507	1	6
663.846	1	-8
664.185	1	3
664.524	1	-5
664.863	1	-2
665.202	1	3
665.541	1	-6
665.879	1	-16
666.218	1	-9
666.557	1	0
666.896	1	-11
667.235	1	-3
667.574	1	-5
667.913	1	0
668.251	1	-2
668.590	1	-1
668.929	1	-14
669.268	1	-5
669.607	1	1
669.946	1	5
670.285	1	5
670.623	1	5
670.962	1	-4
671.301	1	-3
671.640	1	5
671.979	1	-1
672.317	1	4
672.656	1	-2
672.995	1	0
673.334	1	5
673.673	1	-2
674.011	1	2
674.350	1	-6
674.689	1	2
675.028	1	-3
675.367	1	3
675.705	1	-1
676.044	1	-1
676.383	1	2
676.722	1	-5
677.060	1	-6
677.399	1	-11
677.738	1	2
678.077	1	-2
678.416	1	-1
678.754	1	-13
679.093	1	5
679.432	1	-10
679.771	1	-4
680.109	1	6
680.448	1	2
680.787	1	4
681.125	1	0
681.464	1	-1
681.803	1	-6
682.142	1	2
682.480	1	6
682.819	1	-10
683.158	1	-7
683.496	1	-2
683.835	1	11
684.174	1	-4
684.512	1	4
684.851	1	-3
685.190	1	-10
685.529	1	-4
685.867	1	5
686.206	1	-7
686.545	1	-2
686.883	1	-10
687.222	1	7
687.561	1	10
687.899	1	3
688.238	1	7
688.577	1	-3
688.746	1	-8