File: Data/GaN_200K_800ms/GaN_sample F_spot 12_UVVIS_200 K_200um_800 ms 2x2mm1_64.txt
340.368	1	6
340.710	1	-4
341.052	1	5
341.394	1	3
341.737	1	8
342.079	1	-1
342.421	1	-3
342.763	1	6
343.105	1	10
343.447	1	1
343.789	1	11
344.131	1	10
344.473	1	-2
344.815	1	13
345.157	1	3
345.499	1	6
345.841	1	1
346.183	1	-3
346.526	1	-1
346.868	1	12
347.210	1	0
347.552	1	2
347.894	1	8
348.236	1	10
348.578	1	5
348.920	1	10
349.262	1	-1
349.604	1	4
349.946	1	0
350.288	1	9
350.630	1	5
350.972	1	13
351.314	1	14
351.656	1	9
351.998	1	13
352.340	1	8
352.682	1	15
353.024	1	20
353.366	1	15
353.708	1	8
354.050	1	8
354.392	1	8
354.734	1	20
355.076	1	17
355.418	1	2
355.760	1	13
356.102	1	21
356.444	1	16
356.785	1	28
357.127	1	17
357.469	1	17
357.811	1	28
358.153	1	29
358.495	1	20
358.837	1	19
359.179	1	34
359.521	1	36
359.863	1	37
360.205	1	35
360.547	1	51
360.889	1	43
361.231	1	48
361.572	1	50
361.914	1	57
362.256	1	55
362.598	1	59
362.940	1	66
363.282	1	75
363.624	1	82
363.966	1	92
364.308	1	102
364.649	1	111
364.991	1	116
365.333	1	119
365.675	1	127
366.017	1	146
366.359	1	168
366.701	1	182
367.042	1	188
367.384	1	199
367.726	1	205
368.068	1	229
368.410	1	228
368.752	1	248
369.093	1	239
369.435	1	236
369.777	1	247
370.119	1	240
370.461	1	256
370.803	1	233
371.144	1	220
371.486	1	234
371.828	1	211
372.170	1	195
372.512	1	191
372.853	1	184
373.195	1	170
373.537	1	168
373.879	1	158
374.220	1	162
374.562	1	161
374.904	1	137
375.246	1	139
375.588	1	122
375.929	1	115
376.271	1	103
376.613	1	102
376.955	1	103
377.296	1	99
377.638	1	93
377.980	1	95
378.321	1	82
378.663	1	81
379.005	1	85
379.347	1	80
379.688	1	73
380.030	1	64
380.372	1	74
380.714	1	69
381.055	1	70
381.397	1	62
381.739	1	54
382.080	1	63
382.422	1	57
382.764	1	45
383.105	1	38
383.447	1	52
383.789	1	44
384.130	1	49
384.472	1	34
384.814	1	44
385.156	1	39
385.497	1	42
385.839	1	37
386.180	1	36
386.522	1	35
386.864	1	46
387.205	1	39
387.547	1	24
387.889	1	33
388.230	1	40
388.572	1	31
388.914	1	20
389.255	1	27
389.597	1	33
389.939	1	23
390.280	1	30
390.622	1	17
390.963	1	21
391.305	1	23
391.647	1	24
391.988	1	31
392.330	1	25
392.671	1	22
393.013	1	18
393.355	1	21
393.696	1	22
394.038	1	16
394.379	1	12
394.721	1	11
395.062	1	6
395.404	1	5
395.746	1	28
396.087	1	5
396.429	1	20
396.770	1	13
397.112	1	19
397.453	1	25
397.795	1	12
398.136	1	10
398.478	1	18
398.819	1	14
399.161	1	20
399.503	1	15
399.844	1	16
400.186	1	9
400.527	1	6
400.869	1	6
401.210	1	10
401.552	1	4
401.893	1	4
402.235	1	11
402.576	1	5
402.918	1	9
403.259	1	10
403.601	1	7
403.942	1	21
404.284	1	19
404.625	1	5
404.967	1	7
405.308	1	12
405.649	1	8
405.991	1	11
406.332	1	7
406.674	1	9
407.015	1	17
407.357	1	3
407.698	1	19
408.040	1	1
408.381	1	3
408.722	1	-11
409.064	1	8
409.405	1	11
409.747	1	7
410.088	1	6
410.430	1	12
410.771	1	14
411.112	1	4
411.454	1	1
411.795	1	4
412.137	1	8
412.478	1	13
412.819	1	2
413.161	1	7
413.502	1	3
413.844	1	5
414.185	1	3
414.526	1	1
414.868	1	5
415.209	1	7
415.550	1	7
415.892	1	1
416.233	1	10
416.575	1	17
416.916	1	-2
417.257	1	6
417.599	1	4
417.940	1	3
418.281	1	11
418.623	1	3
418.964	1	-5
419.305	1	7
419.647	1	2
419.988	1	-1
420.329	1	8
420.671	1	11
421.012	1	5
421.353	1	2
421.695	1	1
422.036	1	13
422.377	1	-4
422.718	1	7
423.060	1	6
423.401	1	6
423.742	1	2
424.084	1	3
424.425	1	6
424.766	1	3
425.107	1	-5
425.449	1	-2
425.790	1	-10
426.131	1	3
426.472	1	7
426.814	1	7
427.155	1	2
427.496	1	2
427.837	1	-4
428.179	1	-5
428.520	1	1
428.861	1	6
429.202	1	1
429.544	1	11
429.885	1	7
430.226	1	-7
430.567	1	-1
430.909	1	6
431.250	1	5
431.591	1	0
431.932	1	-6
432.273	1	3
432.615	1	-1
432.956	1	1
433.297	1	1
433.638	1	1
433.979	1	5
434.320	1	3
434.662	1	9
435.003	1	12
435.344	1	12
435.685	1	9
436.026	1	20
436.368	1	2
436.709	1	1
437.050	1	-3
437.391	1	14
437.732	1	2
438.073	1	-4
438.414	1	-11
438.756	1	3
439.097	1	-2
439.438	1	3
439.779	1	7
440.120	1	-2
440.461	1	-3
440.802	1	-1
441.143	1	9
441.485	1	-3
441.826	1	-2
442.167	1	6
442.508	1	-3
442.849	1	9
443.190	1	4
443.531	1	-1
443.872	1	16
444.213	1	5
444.554	1	13
444.895	1	6
445.237	1	1
445.578	1	1
445.919	1	-3
446.260	1	8
446.601	1	8
446.942	1	5
447.283	1	2
447.624	1	3
447.965	1	10
448.306	1	-2
448.647	1	-5
448.988	1	-1
449.329	1	4
449.670	1	10
450.011	1	11
450.352	1	1
450.693	1	-1
451.034	1	-1
451.375	1	4
451.716	1	8
452.057	1	0
452.398	1	-7
452.739	1	1
453.080	1	2
453.421	1	3
453.762	1	-3
454.103	1	2
454.444	1	-5
454.785	1	0
455.126	1	-3
455.467	1	3
455.808	1	2
456.149	1	8
456.490	1	3
456.831	1	8
457.172	1	1
457.513	1	16
457.854	1	13
458.195	1	5
458.536	1	13
458.877	1	1
459.218	1	-2
459.559	1	3
459.899	1	8
460.240	1	8
460.581	1	18
460.922	1	7
461.263	1	-2
461.604	1	-4
461.945	1	4
462.286	1	-5
462.627	1	3
462.968	1	3
463.309	1	-4
463.649	1	-1
463.990	1	5
464.331	1	-3
464.672	1	-4
465.013	1	6
465.354	1	3
465.695	1	-4
466.036	1	2
466.376	1	-1
466.717	1	7
467.058	1	3
467.399	1	11
467.740	1	3
468.081	1	9
468.422	1	1
468.762	1	-5
469.103	1	-3
469.444	1	0
469.785	1	-6
470.126	1	-2
470.467	1	-1
470.807	1	1
471.148	1	7
471.489	1	6
471.830	1	5
472.171	1	13
472.511	1	5
472.852	1	-3
473.193	1	6
473.534	1	13
473.875	1	15
474.215	1	13
474.556	1	7
474.897	1	6
475.238	1	2
475.578	1	5
475.919	1	1
476.260	1	8
476.601	1	-1
476.942	1	5
477.282	1	1
477.623	1	-3
477.964	1	4
478.305	1	9
478.645	1	10
478.986	1	2
479.327	1	-9
479.667	1	6
480.008	1	9
480.349	1	-3
480.690	1	6
481.030	1	-6
481.371	1	5
481.712	1	3
482.053	1	2
482.393	1	-2
482.734	1	0
483.075	1	5
483.415	1	2
483.756	1	12
484.097	1	-6
484.437	1	4
484.778	1	7
485.119	1	3
485.459	1	24
485.800	1	10
486.141	1	-1
486.481	1	0
486.822	1	10
487.163	1	-2
487.503	1	8
487.844	1	3
488.185	1	9
488.525	1	11
488.866	1	6
489.207	1	7
489.547	1	-1
489.888	1	6
490.228	1	16
490.569	1	12
490.910	1	6
491.250	1	9
491.591	1	0
491.932	1	10
492.272	1	8
492.613	1	4
492.953	1	13
493.294	1	-3
493.635	1	5
493.975	1	4
494.316	1	8
494.656	1	8
494.997	1	14
495.337	1	10
495.678	1	9
496.019	1	9
496.359	1	8
496.700	1	5
497.040	1	2
497.381	1	4
497.721	1	-1
498.062	1	10
498.403	1	9
498.743	1	2
499.084	1	8
499.424	1	6
499.765	1	8
500.105	1	12
500.446	1	4
500.786	1	0
501.127	1	8
501.467	1	-1
501.808	1	11
502.148	1	7
502.489	1	9
502.829	1	4
503.170	1	23
503.510	1	7
503.851	1	9
504.191	1	17
504.532	1	12
504.872	1	8
505.213	1	10
505.553	1	4
505.894	1	4
506.234	1	21
506.575	1	15
506.915	1	15
507.256	1	4
507.596	1	5
507.936	1	12
508.277	1	7
508.617	1	9
508.958	1	9
509.298	1	11
509.639	1	10
509.979	1	7
510.319	1	18
510.660	1	10
511.000	1	7
511.341	1	17
511.681	1	12
512.022	1	14
512.362	1	1
512.702	1	12
513.043	1	19
513.383	1	-4
513.724	1	9
514.064	1	22
514.404	1	9
514.745	1	8
515.085	1	5
515.425	1	9
515.766	1	1
516.106	1	4
516.447	1	26
516.787	1	18
517.127	1	20
517.468	1	18
517.808	1	18
518.148	1	16
518.489	1	13
518.829	1	16
519.169	1	14
519.510	1	19
519.850	1	18
520.190	1	18
520.531	1	25
520.871	1	18
521.211	1	5
521.552	1	16
521.892	1	20
522.232	1	13
522.573	1	14
522.913	1	9
523.253	1	14
523.593	1	8
523.934	1	24
524.274	1	21
524.614	1	17
524.955	1	14
525.295	1	17
525.635	1	16
525.975	1	14
526.316	1	30
526.656	1	15
526.996	1	23
527.337	1	12
527.677	1	15
528.017	1	5
528.357	1	25
528.698	1	23
529.038	1	20
529.378	1	11
529.718	1	34
530.058	1	21
530.399	1	25
530.739	1	23
531.079	1	27
531.419	1	23
531.760	1	24
532.100	1	21
532.440	1	23
532.780	1	9
533.120	1	29
533.461	1	35
533.801	1	26
534.141	1	12
534.481	1	12
534.821	1	28
535.162	1	18
535.502	1	14
535.842	1	32
536.182	1	9
536.522	1	14
536.862	1	24
537.203	1	15
537.543	1	21
537.883	1	24
538.223	1	17
538.563	1	22
538.903	1	12
539.243	1	18
539.584	1	20
539.924	1	23
540.264	1	18
540.604	1	13
540.944	1	16
541.284	1	26
541.624	1	21
541.964	1	39
542.305	1	25
542.645	1	17
542.985	1	29
543.325	1	20
543.665	1	33
544.005	1	28
544.345	1	20
544.685	1	28
545.025	1	19
545.365	1	24
545.705	1	22
546.045	1	7
546.386	1	19
546.726	1	15
547.066	1	33
547.406	1	17
547.746	1	13
548.086	1	27
548.426	1	28
548.766	1	19
549.106	1	23
549.446	1	26
549.786	1	22
550.126	1	31
550.466	1	26
550.806	1	22
551.146	1	14
551.486	1	28
551.826	1	32
552.166	1	27
552.506	1	30
552.846	1	36
553.186	1	30
553.526	1	28
553.866	1	20
554.206	1	26
554.546	1	21
554.886	1	23
555.226	1	21
555.566	1	32
555.906	1	31
556.246	1	23
556.586	1	28
556.926	1	31
557.266	1	17
557.606	1	12
557.946	1	42
558.286	1	27
558.626	1	32
558.966	1	17
559.306	1	22
559.646	1	19
559.986	1	17
560.325	1	22
560.665	1	22
561.005	1	18
561.345	1	24
561.685	1	30
562.025	1	34
562.365	1	24
562.705	1	20
563.045	1	11
563.385	1	9
563.725	1	28
564.064	1	19
564.404	1	29
564.744	1	23
565.084	1	25
565.424	1	15
565.764	1	18
566.104	1	24
566.444	1	13
566.783	1	29
567.123	1	28
567.463	1	22
567.803	1	11
568.143	1	18
568.483	1	26
568.823	1	24
569.162	1	25
569.502	1	21
569.842	1	34
570.182	1	18
570.522	1	20
570.862	1	26
571.201	1	31
571.541	1	22
571.881	1	34
572.221	1	23
572.561	1	18
572.900	1	15
573.240	1	20
573.580	1	20
573.920	1	29
574.260	1	24
574.599	1	25
574.939	1	25
575.279	1	27
575.619	1	30
575.959	1	12
576.298	1	22
576.638	1	8
576.978	1	33
577.318	1	15
577.657	1	5
577.997	1	15
578.337	1	17
578.677	1	27
579.016	1	33
579.356	1	13
579.696	1	26
580.036	1	23
580.375	1	19
580.715	1	23
581.055	1	21
581.394	1	27
581.734	1	18
582.074	1	13
582.414	1	34
582.753	1	26
583.093	1	16
583.433	1	20
583.772	1	25
584.112	1	24
584.452	1	28
584.791	1	6
585.131	1	21
585.471	1	33
585.811	1	26
586.150	1	16
586.490	1	19
586.830	1	15
587.169	1	25
587.509	1	30
587.849	1	26
588.188	1	33
588.528	1	33
588.867	1	28
589.207	1	18
589.547	1	25
589.886	1	15
590.226	1	32
590.566	1	17
590.905	1	10
591.245	1	10
591.585	1	20
591.924	1	22
592.264	1	19
592.603	1	24
592.943	1	20
593.283	1	17
593.622	1	9
593.962	1	19
594.301	1	17
594.641	1	12
594.981	1	6
595.320	1	26
595.660	1	25
595.999	1	3
596.339	1	12
596.678	1	6
597.018	1	11
597.358	1	22
597.697	1	28
598.037	1	9
598.376	1	23
598.716	1	22
599.055	1	21
599.395	1	19
599.734	1	17
600.074	1	22
600.413	1	23
600.753	1	22
601.092	1	23
601.432	1	2
601.771	1	18
602.111	1	8
602.451	1	21
602.790	1	21
603.130	1	24
603.469	1	8
603.809	1	25
604.148	1	8
604.487	1	8
604.827	1	16
605.166	1	18
605.506	1	14
605.845	1	18
606.185	1	21
606.524	1	6
606.864	1	15
607.203	1	4
607.543	1	16
607.882	1	26
608.222	1	22
608.561	1	20
608.901	1	19
609.240	1	10
609.579	1	21
609.919	1	23
610.258	1	26
610.598	1	10
610.937	1	19
611.277	1	26
611.616	1	15
611.955	1	18
612.295	1	9
612.634	1	19
612.974	1	8
613.313	1	23
613.652	1	18
613.992	1	11
614.331	1	9
614.671	1	15
615.010	1	2
615.349	1	16
615.689	1	25
616.028	1	7
616.368	1	13
616.707	1	19
617.046	1	22
617.386	1	21
617.725	1	10
618.064	1	8
618.404	1	9
618.743	1	18
619.082	1	22
619.422	1	2
619.761	1	11
620.100	1	16
620.440	1	10
620.779	1	6
621.118	1	4
621.458	1	14
621.797	1	5
622.136	1	28
622.476	1	16
622.815	1	13
623.154	1	12
623.494	1	16
623.833	1	16
624.172	1	9
624.511	1	11
624.851	1	0
625.190	1	16
625.529	1	6
625.869	1	5
626.208	1	5
626.547	1	12
626.886	1	21
627.226	1	25
627.565	1	15
627.904	1	5
628.243	1	21
628.583	1	13
628.922	1	18
629.261	1	8
629.600	1	21
629.940	1	8
630.279	1	4
630.618	1	13
630.957	1	6
631.297	1	14
631.636	1	-1
631.975	1	29
632.314	1	11
632.653	1	14
632.993	1	16
633.332	1	12
633.671	1	6
634.010	1	6
634.349	1	17
634.689	1	14
635.028	1	14
635.367	1	8
635.706	1	6
636.045	1	19
636.384	1	14
636.724	1	16
637.063	1	9
637.402	1	10
637.741	1	11
638.080	1	9
638.419	1	3
638.759	1	3
639.098	1	16
639.437	1	14
639.776	1	10
640.115	1	12
640.454	1	4
640.793	1	12
641.132	1	20
641.472	1	15
641.811	1	12
642.150	1	-4
642.489	1	23
642.828	1	-5
643.167	1	12
643.506	1	-2
643.845	1	0
644.184	1	9
644.524	1	5
644.863	1	0
645.202	1	13
645.541	1	12
645.880	1	12
646.219	1	10
646.558	1	0
646.897	1	8
647.236	1	4
647.575	1	6
647.914	1	1
648.253	1	15
648.592	1	11
648.931	1	15
649.270	1	8
649.610	1	6
649.949	1	12
650.288	1	14
650.627	1	11
650.966	1	10
651.305	1	12
651.644	1	16
651.983	1	8
652.322	1	7
652.661	1	7
653.000	1	7
653.339	1	19
653.678	1	12
654.017	1	1
654.356	1	4
654.695	1	12
655.034	1	12
655.373	1	13
655.712	1	10
656.051	1	5
656.390	1	-1
656.729	1	15
657.068	1	-5
657.406	1	17
657.745	1	7
658.084	1	7
658.423	1	24
658.762	1	6
659.101	1	18
659.440	1	3
659.779	1	12
660.118	1	4
660.457	1	8
660.796	1	-1
661.135	1	2
661.474	1	6
661.813	1	17
662.152	1	8
662.491	1	5
662.829	1	-3
663.168	1	0
663.507	1	19
663.846	1	3
664.185	1	17
664.524	1	7
664.863	1	3
665.202	1	12
665.541	1	-5
665.879	1	-8
666.218	1	4
666.557	1	-1
666.896	1	2
667.235	1	5
667.574	1	4
667.913	1	5
668.251	1	-6
668.590	1	5
668.929	1	-3
669.268	1	9
669.607	1	7
669.946	1	14
670.285	1	12
670.623	1	6
670.962	1	10
671.301	1	0
671.640	1	6
671.979	1	2
672.317	1	10
672.656	1	12
672.995	1	12
673.334	1	12
673.673	1	6
674.011	1	5
674.350	1	1
674.689	1	8
675.028	1	13
675.367	1	14
675.705	1	13
676.044	1	5
676.383	1	6
676.722	1	12
677.060	1	6
677.399	1	1
677.738	1	11
678.077	1	11
678.416	1	7
678.754	1	13
679.093	1	11
679.432	1	3
679.771	1	1
680.109	1	11
680.448	1	10
680.787	1	14
681.125	1	15
681.464	1	10
681.803	1	2
682.142	1	12
682.480	1	13
682.819	1	6
683.158	1	2
683.496	1	6
683.835	1	12
684.174	1	8
684.512	1	8
684.851	1	15
685.190	1	10
685.529	1	7
685.867	1	1
686.206	1	12
686.545	1	13
686.883	1	4
687.222	1	11
687.561	1	15
687.899	1	14
688.238	1	14
688.577	1	6
688.746	1	9