File: Data/GaN_200K_800ms/GaN_sample F_spot 12_UVVIS_200 K_200um_800 ms 2x2mm1_227.txt
340.368	1	0
340.710	1	-7
341.052	1	12
341.394	1	-1
341.737	1	8
342.079	1	-1
342.421	1	-3
342.763	1	3
343.105	1	-7
343.447	1	-3
343.789	1	-1
344.131	1	-4
344.473	1	-3
344.815	1	2
345.157	1	1
345.499	1	1
345.841	1	-6
346.183	1	-6
346.526	1	-3
346.868	1	13
347.210	1	-4
347.552	1	2
347.894	1	1
348.236	1	6
348.578	1	4
348.920	1	-15
349.262	1	0
349.604	1	2
349.946	1	-2
350.288	1	8
350.630	1	-4
350.972	1	7
351.314	1	8
351.656	1	3
351.998	1	0
352.340	1	4
352.682	1	5
353.024	1	-1
353.366	1	8
353.708	1	3
354.050	1	1
354.392	1	-4
354.734	1	9
355.076	1	-1
355.418	1	-13
355.760	1	-6
356.102	1	3
356.444	1	-1
356.785	1	5
357.127	1	5
357.469	1	-2
357.811	1	1
358.153	1	10
358.495	1	9
358.837	1	0
359.179	1	-2
359.521	1	19
359.863	1	12
360.205	1	2
360.547	1	17
360.889	1	0
361.231	1	6
361.572	1	8
361.914	1	17
362.256	1	3
362.598	1	8
362.940	1	0
363.282	1	13
363.624	1	18
363.966	1	7
364.308	1	15
364.649	1	11
364.991	1	8
365.333	1	15
365.675	1	11
366.017	1	9
366.359	1	13
366.701	1	17
367.042	1	17
367.384	1	27
367.726	1	27
368.068	1	24
368.410	1	35
368.752	1	16
369.093	1	27
369.435	1	24
369.777	1	12
370.119	1	20
370.461	1	43
370.803	1	24
371.144	1	21
371.486	1	34
371.828	1	28
372.170	1	30
372.512	1	17
372.853	1	12
373.195	1	26
373.537	1	36
373.879	1	16
374.220	1	32
374.562	1	23
374.904	1	3
375.246	1	21
375.588	1	17
375.929	1	13
376.271	1	11
376.613	1	9
376.955	1	9
377.296	1	15
377.638	1	9
377.980	1	6
378.321	1	1
378.663	1	9
379.005	1	14
379.347	1	8
379.688	1	0
380.030	1	5
380.372	1	8
380.714	1	17
381.055	1	18
381.397	1	7
381.739	1	19
382.080	1	10
382.422	1	7
382.764	1	1
383.105	1	-3
383.447	1	-1
383.789	1	13
384.130	1	0
384.472	1	2
384.814	1	7
385.156	1	3
385.497	1	11
385.839	1	9
386.180	1	13
386.522	1	5
386.864	1	5
387.205	1	4
387.547	1	2
387.889	1	0
388.230	1	10
388.572	1	4
388.914	1	2
389.255	1	-7
389.597	1	12
389.939	1	7
390.280	1	5
390.622	1	-1
390.963	1	11
391.305	1	1
391.647	1	1
391.988	1	9
392.330	1	1
392.671	1	-1
393.013	1	5
393.355	1	3
393.696	1	2
394.038	1	3
394.379	1	-2
394.721	1	-3
395.062	1	10
395.404	1	-3
395.746	1	7
396.087	1	-3
396.429	1	1
396.770	1	8
397.112	1	4
397.453	1	6
397.795	1	5
398.136	1	-3
398.478	1	6
398.819	1	13
399.161	1	7
399.503	1	5
399.844	1	-1
400.186	1	1
400.527	1	-10
400.869	1	-6
401.210	1	7
401.552	1	-4
401.893	1	-2
402.235	1	0
402.576	1	-10
402.918	1	3
403.259	1	0
403.601	1	4
403.942	1	8
404.284	1	5
404.625	1	7
404.967	1	-4
405.308	1	0
405.649	1	0
405.991	1	-8
406.332	1	5
406.674	1	-12
407.015	1	10
407.357	1	0
407.698	1	10
408.040	1	-6
408.381	1	1
408.722	1	-5
409.064	1	1
409.405	1	8
409.747	1	-1
410.088	1	8
410.430	1	18
410.771	1	3
411.112	1	-7
411.454	1	-4
411.795	1	-3
412.137	1	9
412.478	1	8
412.819	1	-2
413.161	1	1
413.502	1	-1
413.844	1	6
414.185	1	7
414.526	1	-4
414.868	1	5
415.209	1	0
415.550	1	-6
415.892	1	1
416.233	1	3
416.575	1	12
416.916	1	-6
417.257	1	-11
417.599	1	3
417.940	1	15
418.281	1	2
418.623	1	-9
418.964	1	-13
419.305	1	2
419.647	1	-3
419.988	1	0
420.329	1	-4
420.671	1	7
421.012	1	2
421.353	1	-2
421.695	1	3
422.036	1	3
422.377	1	3
422.718	1	15
423.060	1	-10
423.401	1	7
423.742	1	-6
424.084	1	6
424.425	1	8
424.766	1	6
425.107	1	-8
425.449	1	-6
425.790	1	-10
426.131	1	-4
426.472	1	-1
426.814	1	-5
427.155	1	-2
427.496	1	-4
427.837	1	1
428.179	1	-9
428.520	1	-2
428.861	1	-12
429.202	1	5
429.544	1	-2
429.885	1	-1
430.226	1	-2
430.567	1	4
430.909	1	7
431.250	1	0
431.591	1	-6
431.932	1	-7
432.273	1	3
432.615	1	-5
432.956	1	2
433.297	1	13
433.638	1	-8
433.979	1	-2
434.320	1	0
434.662	1	3
435.003	1	-1
435.344	1	3
435.685	1	3
436.026	1	6
436.368	1	0
436.709	1	-1
437.050	1	-10
437.391	1	10
437.732	1	-3
438.073	1	7
438.414	1	-2
438.756	1	-8
439.097	1	-9
439.438	1	-4
439.779	1	3
440.120	1	1
440.461	1	-6
440.802	1	2
441.143	1	8
441.485	1	7
441.826	1	7
442.167	1	8
442.508	1	-7
442.849	1	10
443.190	1	-11
443.531	1	1
443.872	1	9
444.213	1	3
444.554	1	13
444.895	1	-4
445.237	1	-13
445.578	1	-7
445.919	1	-12
446.260	1	-2
446.601	1	-5
446.942	1	-7
447.283	1	-5
447.624	1	0
447.965	1	0
448.306	1	1
448.647	1	-8
448.988	1	2
449.329	1	-4
449.670	1	11
450.011	1	10
450.352	1	8
450.693	1	-2
451.034	1	-8
451.375	1	3
451.716	1	2
452.057	1	0
452.398	1	0
452.739	1	-2
453.080	1	-4
453.421	1	-10
453.762	1	0
454.103	1	1
454.444	1	-9
454.785	1	-1
455.126	1	-8
455.467	1	6
455.808	1	4
456.149	1	0
456.490	1	4
456.831	1	9
457.172	1	-9
457.513	1	-2
457.854	1	2
458.195	1	-5
458.536	1	3
458.877	1	-5
459.218	1	-8
459.559	1	8
459.899	1	-4
460.240	1	2
460.581	1	14
460.922	1	1
461.263	1	-3
461.604	1	2
461.945	1	-10
462.286	1	-2
462.627	1	3
462.968	1	-4
463.309	1	-4
463.649	1	-3
463.990	1	-3
464.331	1	-10
464.672	1	-3
465.013	1	-3
465.354	1	-2
465.695	1	-4
466.036	1	5
466.376	1	-1
466.717	1	-1
467.058	1	1
467.399	1	7
467.740	1	3
468.081	1	4
468.422	1	-12
468.762	1	-5
469.103	1	-10
469.444	1	10
469.785	1	-11
470.126	1	2
470.467	1	2
470.807	1	-1
471.148	1	8
471.489	1	-5
471.830	1	-9
472.171	1	4
472.511	1	-8
472.852	1	-2
473.193	1	1
473.534	1	0
473.875	1	17
474.215	1	5
474.556	1	3
474.897	1	15
475.238	1	-2
475.578	1	-6
475.919	1	-4
476.260	1	1
476.601	1	2
476.942	1	9
477.282	1	-1
477.623	1	-7
477.964	1	1
478.305	1	-2
478.645	1	8
478.986	1	4
479.327	1	-8
479.667	1	1
480.008	1	-6
480.349	1	-3
480.690	1	-8
481.030	1	-12
481.371	1	8
481.712	1	1
482.053	1	4
482.393	1	2
482.734	1	-2
483.075	1	-1
483.415	1	2
483.756	1	10
484.097	1	-2
484.437	1	-2
484.778	1	3
485.119	1	-4
485.459	1	10
485.800	1	-8
486.141	1	-2
486.481	1	-3
486.822	1	3
487.163	1	-5
487.503	1	-2
487.844	1	-3
488.185	1	-1
488.525	1	11
488.866	1	4
489.207	1	-4
489.547	1	2
489.888	1	-5
490.228	1	1
490.569	1	8
490.910	1	2
491.250	1	-1
491.591	1	0
491.932	1	-6
492.272	1	1
492.613	1	-3
492.953	1	-1
493.294	1	-4
493.635	1	-3
493.975	1	-7
494.316	1	0
494.656	1	-2
494.997	1	-3
495.337	1	1
495.678	1	-1
496.019	1	-7
496.359	1	-9
496.700	1	-11
497.040	1	-7
497.381	1	1
497.721	1	-3
498.062	1	0
498.403	1	5
498.743	1	2
499.084	1	2
499.424	1	-4
499.765	1	4
500.105	1	0
500.446	1	-8
500.786	1	-2
501.127	1	13
501.467	1	-8
501.808	1	1
502.148	1	10
502.489	1	4
502.829	1	-2
503.170	1	8
503.510	1	8
503.851	1	-4
504.191	1	7
504.532	1	-3
504.872	1	0
505.213	1	3
505.553	1	2
505.894	1	-13
506.234	1	11
506.575	1	8
506.915	1	5
507.256	1	7
507.596	1	0
507.936	1	1
508.277	1	-2
508.617	1	-1
508.958	1	-2
509.298	1	10
509.639	1	2
509.979	1	-3
510.319	1	0
510.660	1	-6
511.000	1	-10
511.341	1	7
511.681	1	7
512.022	1	-10
512.362	1	3
512.702	1	-6
513.043	1	-2
513.383	1	-12
513.724	1	5
514.064	1	13
514.404	1	-1
514.745	1	-4
515.085	1	-5
515.425	1	1
515.766	1	-6
516.106	1	2
516.447	1	15
516.787	1	6
517.127	1	-5
517.468	1	7
517.808	1	-4
518.148	1	7
518.489	1	-6
518.829	1	12
519.169	1	0
519.510	1	8
519.850	1	5
520.190	1	-5
520.531	1	-4
520.871	1	2
521.211	1	-9
521.552	1	8
521.892	1	2
522.232	1	1
522.573	1	2
522.913	1	4
523.253	1	-7
523.593	1	0
523.934	1	8
524.274	1	1
524.614	1	1
524.955	1	0
525.295	1	2
525.635	1	6
525.975	1	6
526.316	1	7
526.656	1	5
526.996	1	11
527.337	1	-6
527.677	1	11
528.017	1	-6
528.357	1	4
528.698	1	-2
529.038	1	-4
529.378	1	10
529.718	1	7
530.058	1	5
530.399	1	1
530.739	1	-4
531.079	1	-4
531.419	1	12
531.760	1	-3
532.100	1	-6
532.440	1	7
532.780	1	-2
533.120	1	6
533.461	1	4
533.801	1	13
534.141	1	-12
534.481	1	1
534.821	1	-1
535.162	1	4
535.502	1	-1
535.842	1	1
536.182	1	9
536.522	1	-6
536.862	1	5
537.203	1	-4
537.543	1	1
537.883	1	6
538.223	1	12
538.563	1	8
538.903	1	-3
539.243	1	-6
539.584	1	0
539.924	1	12
540.264	1	-6
540.604	1	2
540.944	1	-3
541.284	1	2
541.624	1	0
541.964	1	5
542.305	1	12
542.645	1	3
542.985	1	-3
543.325	1	-2
543.665	1	5
544.005	1	10
544.345	1	17
544.685	1	-7
545.025	1	2
545.365	1	6
545.705	1	12
546.045	1	-4
546.386	1	14
546.726	1	-10
547.066	1	3
547.406	1	0
547.746	1	-4
548.086	1	6
548.426	1	-7
548.766	1	1
549.106	1	-4
549.446	1	0
549.786	1	1
550.126	1	26
550.466	1	0
550.806	1	2
551.146	1	-3
551.486	1	0
551.826	1	8
552.166	1	-2
552.506	1	7
552.846	1	8
553.186	1	6
553.526	1	-1
553.866	1	2
554.206	1	8
554.546	1	4
554.886	1	-1
555.226	1	3
555.566	1	4
555.906	1	7
556.246	1	8
556.586	1	7
556.926	1	5
557.266	1	-3
557.606	1	5
557.946	1	8
558.286	1	10
558.626	1	-4
558.966	1	-3
559.306	1	-3
559.646	1	7
559.986	1	1
560.325	1	4
560.665	1	4
561.005	1	1
561.345	1	10
561.685	1	0
562.025	1	5
562.365	1	8
562.705	1	1
563.045	1	-1
563.385	1	-10
563.725	1	12
564.064	1	-10
564.404	1	2
564.744	1	-3
565.084	1	-6
565.424	1	0
565.764	1	10
566.104	1	-1
566.444	1	-7
566.783	1	-7
567.123	1	3
567.463	1	8
567.803	1	-7
568.143	1	3
568.483	1	7
568.823	1	4
569.162	1	5
569.502	1	-10
569.842	1	8
570.182	1	10
570.522	1	-9
570.862	1	2
571.201	1	1
571.541	1	9
571.881	1	17
572.221	1	-2
572.561	1	4
572.900	1	-3
573.240	1	4
573.580	1	5
573.920	1	7
574.260	1	10
574.599	1	2
574.939	1	15
575.279	1	15
575.619	1	10
575.959	1	-2
576.298	1	14
576.638	1	-4
576.978	1	7
577.318	1	8
577.657	1	-6
577.997	1	9
578.337	1	15
578.677	1	13
579.016	1	13
579.356	1	2
579.696	1	-2
580.036	1	0
580.375	1	12
580.715	1	1
581.055	1	9
581.394	1	-3
581.734	1	-9
582.074	1	-5
582.414	1	9
582.753	1	0
583.093	1	-2
583.433	1	-1
583.772	1	16
584.112	1	1
584.452	1	-1
584.791	1	-1
585.131	1	1
585.471	1	9
585.811	1	4
586.150	1	6
586.490	1	10
586.830	1	0
587.169	1	13
587.509	1	-4
587.849	1	9
588.188	1	10
588.528	1	8
588.867	1	14
589.207	1	-3
589.547	1	4
589.886	1	-3
590.226	1	8
590.566	1	1
590.905	1	-5
591.245	1	-3
591.585	1	4
591.924	1	0
592.264	1	-3
592.603	1	-5
592.943	1	-2
593.283	1	1
593.622	1	-2
593.962	1	-1
594.301	1	4
594.641	1	-1
594.981	1	-1
595.320	1	-5
595.660	1	-1
595.999	1	-11
596.339	1	3
596.678	1	0
597.018	1	-2
597.358	1	8
597.697	1	0
598.037	1	-1
598.376	1	8
598.716	1	4
599.055	1	6
599.395	1	-1
599.734	1	5
600.074	1	0
600.413	1	9
600.753	1	6
601.092	1	9
601.432	1	-5
601.771	1	6
602.111	1	0
602.451	1	2
602.790	1	8
603.130	1	6
603.469	1	-7
603.809	1	3
604.148	1	3
604.487	1	-2
604.827	1	8
605.166	1	-1
605.506	1	-2
605.845	1	8
606.185	1	4
606.524	1	-2
606.864	1	4
607.203	1	-2
607.543	1	1
607.882	1	8
608.222	1	10
608.561	1	-3
608.901	1	6
609.240	1	-1
609.579	1	15
609.919	1	12
610.258	1	6
610.598	1	3
610.937	1	4
611.277	1	-2
611.616	1	2
611.955	1	6
612.295	1	8
612.634	1	7
612.974	1	-9
613.313	1	10
613.652	1	8
613.992	1	2
614.331	1	8
614.671	1	4
615.010	1	-3
615.349	1	3
615.689	1	11
616.028	1	5
616.368	1	2
616.707	1	2
617.046	1	4
617.386	1	-1
617.725	1	-1
618.064	1	-7
618.404	1	-3
618.743	1	3
619.082	1	-6
619.422	1	-4
619.761	1	-1
620.100	1	8
620.440	1	1
620.779	1	5
621.118	1	-2
621.458	1	-1
621.797	1	-6
622.136	1	12
622.476	1	11
622.815	1	7
623.154	1	2
623.494	1	7
623.833	1	2
624.172	1	-3
624.511	1	1
624.851	1	-6
625.190	1	-3
625.529	1	5
625.869	1	6
626.208	1	2
626.547	1	-2
626.886	1	8
627.226	1	2
627.565	1	-1
627.904	1	-3
628.243	1	13
628.583	1	9
628.922	1	0
629.261	1	7
629.600	1	6
629.940	1	-1
630.279	1	-15
630.618	1	9
630.957	1	0
631.297	1	4
631.636	1	-7
631.975	1	10
632.314	1	4
632.653	1	15
632.993	1	-7
633.332	1	0
633.671	1	1
634.010	1	6
634.349	1	12
634.689	1	4
635.028	1	16
635.367	1	-3
635.706	1	2
636.045	1	5
636.384	1	3
636.724	1	2
637.063	1	-1
637.402	1	3
637.741	1	2
638.080	1	0
638.419	1	-2
638.759	1	-11
639.098	1	6
639.437	1	2
639.776	1	-2
640.115	1	-3
640.454	1	-14
640.793	1	17
641.132	1	6
641.472	1	6
641.811	1	-6
642.150	1	-3
642.489	1	1
642.828	1	-11
643.167	1	-1
643.506	1	-15
643.845	1	-4
644.184	1	1
644.524	1	4
644.863	1	-7
645.202	1	2
645.541	1	9
645.880	1	7
646.219	1	6
646.558	1	0
646.897	1	2
647.236	1	-8
647.575	1	-1
647.914	1	-5
648.253	1	12
648.592	1	-5
648.931	1	14
649.270	1	-3
649.610	1	4
649.949	1	5
650.288	1	4
650.627	1	-4
650.966	1	4
651.305	1	-7
651.644	1	7
651.983	1	-3
652.322	1	-5
652.661	1	-2
653.000	1	2
653.339	1	8
653.678	1	9
654.017	1	2
654.356	1	-10
654.695	1	6
655.034	1	5
655.373	1	5
655.712	1	4
656.051	1	-4
656.390	1	-8
656.729	1	5
657.068	1	-1
657.406	1	7
657.745	1	-9
658.084	1	4
658.423	1	2
658.762	1	3
659.101	1	8
659.440	1	7
659.779	1	1
660.118	1	-1
660.457	1	0
660.796	1	-8
661.135	1	0
661.474	1	1
661.813	1	15
662.152	1	3
662.491	1	-7
662.829	1	-3
663.168	1	3
663.507	1	19
663.846	1	4
664.185	1	3
664.524	1	11
664.863	1	0
665.202	1	3
665.541	1	-8
665.879	1	-7
666.218	1	-9
666.557	1	-1
666.896	1	-1
667.235	1	3
667.574	1	-6
667.913	1	7
668.251	1	-4
668.590	1	-2
668.929	1	-4
669.268	1	3
669.607	1	-11
669.946	1	3
670.285	1	0
670.623	1	-9
670.962	1	-6
671.301	1	-5
671.640	1	1
671.979	1	-9
672.317	1	-4
672.656	1	7
672.995	1	4
673.334	1	5
673.673	1	-1
674.011	1	-1
674.350	1	0
674.689	1	1
675.028	1	2
675.367	1	0
675.705	1	11
676.044	1	1
676.383	1	3
676.722	1	5
677.060	1	-1
677.399	1	-7
677.738	1	6
678.077	1	0
678.416	1	3
678.754	1	-7
679.093	1	7
679.432	1	0
679.771	1	3
680.109	1	5
680.448	1	0
680.787	1	-5
681.125	1	-4
681.464	1	-1
681.803	1	-1
682.142	1	9
682.480	1	10
682.819	1	1
683.158	1	6
683.496	1	-2
683.835	1	-9
684.174	1	2
684.512	1	-1
684.851	1	-1
685.190	1	-4
685.529	1	-2
685.867	1	0
686.206	1	-9
686.545	1	-7
686.883	1	-1
687.222	1	6
687.561	1	4
687.899	1	3
688.238	1	-6
688.577	1	3
688.746	1	-3