File: Data/GaN_200K_800ms/GaN_sample F_spot 12_UVVIS_200 K_200um_800 ms 2x2mm1_542.txt
340.368	1	-2
340.710	1	-15
341.052	1	2
341.394	1	0
341.737	1	8
342.079	1	-8
342.421	1	-1
342.763	1	-7
343.105	1	-2
343.447	1	-9
343.789	1	-4
344.131	1	0
344.473	1	-8
344.815	1	0
345.157	1	0
345.499	1	0
345.841	1	9
346.183	1	-8
346.526	1	-8
346.868	1	3
347.210	1	-3
347.552	1	5
347.894	1	-1
348.236	1	5
348.578	1	1
348.920	1	-1
349.262	1	-4
349.604	1	6
349.946	1	-10
350.288	1	8
350.630	1	-2
350.972	1	-4
351.314	1	-1
351.656	1	11
351.998	1	0
352.340	1	-2
352.682	1	1
353.024	1	0
353.366	1	14
353.708	1	-5
354.050	1	-10
354.392	1	-7
354.734	1	10
355.076	1	0
355.418	1	-11
355.760	1	1
356.102	1	3
356.444	1	4
356.785	1	5
357.127	1	3
357.469	1	2
357.811	1	-9
358.153	1	0
358.495	1	1
358.837	1	-15
359.179	1	-1
359.521	1	4
359.863	1	-2
360.205	1	-6
360.547	1	4
360.889	1	-10
361.231	1	-9
361.572	1	2
361.914	1	2
362.256	1	-4
362.598	1	-9
362.940	1	-2
363.282	1	11
363.624	1	10
363.966	1	-1
364.308	1	0
364.649	1	3
364.991	1	6
365.333	1	3
365.675	1	3
366.017	1	-6
366.359	1	-1
366.701	1	0
367.042	1	-1
367.384	1	3
367.726	1	6
368.068	1	12
368.410	1	24
368.752	1	-6
369.093	1	-6
369.435	1	12
369.777	1	4
370.119	1	3
370.461	1	20
370.803	1	3
371.144	1	1
371.486	1	18
371.828	1	8
372.170	1	15
372.512	1	-4
372.853	1	3
373.195	1	1
373.537	1	1
373.879	1	-3
374.220	1	16
374.562	1	11
374.904	1	0
375.246	1	-2
375.588	1	6
375.929	1	10
376.271	1	9
376.613	1	1
376.955	1	-3
377.296	1	-4
377.638	1	10
377.980	1	-2
378.321	1	0
378.663	1	-4
379.005	1	9
379.347	1	12
379.688	1	2
380.030	1	-7
380.372	1	4
380.714	1	4
381.055	1	8
381.397	1	-2
381.739	1	1
382.080	1	-9
382.422	1	6
382.764	1	-2
383.105	1	4
383.447	1	-4
383.789	1	-9
384.130	1	-5
384.472	1	-6
384.814	1	0
385.156	1	-5
385.497	1	1
385.839	1	-2
386.180	1	1
386.522	1	5
386.864	1	5
387.205	1	-2
387.547	1	-4
387.889	1	-3
388.230	1	5
388.572	1	-5
388.914	1	0
389.255	1	-7
389.597	1	3
389.939	1	2
390.280	1	-6
390.622	1	-4
390.963	1	6
391.305	1	5
391.647	1	4
391.988	1	-1
392.330	1	3
392.671	1	-2
393.013	1	-11
393.355	1	-2
393.696	1	2
394.038	1	1
394.379	1	0
394.721	1	-4
395.062	1	-4
395.404	1	-13
395.746	1	1
396.087	1	6
396.429	1	-1
396.770	1	-6
397.112	1	8
397.453	1	11
397.795	1	-2
398.136	1	-10
398.478	1	0
398.819	1	1
399.161	1	7
399.503	1	4
399.844	1	-5
400.186	1	-4
400.527	1	-4
400.869	1	-2
401.210	1	6
401.552	1	-11
401.893	1	1
402.235	1	0
402.576	1	6
402.918	1	7
403.259	1	-2
403.601	1	0
403.942	1	0
404.284	1	8
404.625	1	-4
404.967	1	3
405.308	1	-4
405.649	1	-1
405.991	1	2
406.332	1	7
406.674	1	-1
407.015	1	-1
407.357	1	-5
407.698	1	9
408.040	1	-5
408.381	1	-1
408.722	1	-10
409.064	1	2
409.405	1	-2
409.747	1	-7
410.088	1	-3
410.430	1	9
410.771	1	6
411.112	1	-6
411.454	1	-3
411.795	1	-6
412.137	1	15
412.478	1	11
412.819	1	3
413.161	1	-11
413.502	1	3
413.844	1	-4
414.185	1	0
414.526	1	0
414.868	1	0
415.209	1	-9
415.550	1	-1
415.892	1	-1
416.233	1	-4
416.575	1	6
416.916	1	-7
417.257	1	-2
417.599	1	0
417.940	1	2
418.281	1	0
418.623	1	-9
418.964	1	-10
419.305	1	3
419.647	1	-5
419.988	1	6
420.329	1	-7
420.671	1	4
421.012	1	2
421.353	1	-1
421.695	1	-6
422.036	1	5
422.377	1	1
422.718	1	0
423.060	1	-10
423.401	1	0
423.742	1	-2
424.084	1	4
424.425	1	3
424.766	1	5
425.107	1	-9
425.449	1	0
425.790	1	-11
426.131	1	-1
426.472	1	-1
426.814	1	0
427.155	1	-11
427.496	1	3
427.837	1	5
428.179	1	-4
428.520	1	-4
428.861	1	1
429.202	1	3
429.544	1	0
429.885	1	1
430.226	1	-14
430.567	1	0
430.909	1	-3
431.250	1	-2
431.591	1	-1
431.932	1	-3
432.273	1	-13
432.615	1	-15
432.956	1	-11
433.297	1	7
433.638	1	-1
433.979	1	8
434.320	1	3
434.662	1	2
435.003	1	-3
435.344	1	4
435.685	1	0
436.026	1	1
436.368	1	9
436.709	1	-1
437.050	1	-3
437.391	1	0
437.732	1	-16
438.073	1	-1
438.414	1	-8
438.756	1	5
439.097	1	-12
439.438	1	-8
439.779	1	3
440.120	1	-3
440.461	1	0
440.802	1	-7
441.143	1	-2
441.485	1	-7
441.826	1	0
442.167	1	0
442.508	1	0
442.849	1	7
443.190	1	-5
443.531	1	8
443.872	1	8
444.213	1	2
444.554	1	7
444.895	1	-10
445.237	1	-5
445.578	1	-5
445.919	1	-14
446.260	1	-11
446.601	1	-10
446.942	1	-1
447.283	1	-9
447.624	1	-10
447.965	1	-4
448.306	1	4
448.647	1	-5
448.988	1	-6
449.329	1	-6
449.670	1	-7
450.011	1	-4
450.352	1	0
450.693	1	-3
451.034	1	-7
451.375	1	0
451.716	1	-7
452.057	1	1
452.398	1	-1
452.739	1	-2
453.080	1	-2
453.421	1	-6
453.762	1	1
454.103	1	0
454.444	1	-13
454.785	1	-9
455.126	1	-4
455.467	1	-7
455.808	1	1
456.149	1	9
456.490	1	0
456.831	1	4
457.172	1	-4
457.513	1	9
457.854	1	-6
458.195	1	-12
458.536	1	6
458.877	1	-3
459.218	1	5
459.559	1	3
459.899	1	11
460.240	1	3
460.581	1	8
460.922	1	-4
461.263	1	-8
461.604	1	-5
461.945	1	-6
462.286	1	-7
462.627	1	7
462.968	1	5
463.309	1	-9
463.649	1	0
463.990	1	-6
464.331	1	-9
464.672	1	1
465.013	1	-11
465.354	1	8
465.695	1	-2
466.036	1	-8
466.376	1	-6
466.717	1	-2
467.058	1	-6
467.399	1	4
467.740	1	-5
468.081	1	-3
468.422	1	-5
468.762	1	-11
469.103	1	-10
469.444	1	0
469.785	1	-8
470.126	1	-4
470.467	1	-4
470.807	1	-4
471.148	1	0
471.489	1	-1
471.830	1	-2
472.171	1	2
472.511	1	-7
472.852	1	-2
473.193	1	3
473.534	1	2
473.875	1	11
474.215	1	5
474.556	1	3
474.897	1	9
475.238	1	-7
475.578	1	-15
475.919	1	-2
476.260	1	-4
476.601	1	-4
476.942	1	9
477.282	1	-6
477.623	1	-9
477.964	1	-9
478.305	1	-2
478.645	1	7
478.986	1	-9
479.327	1	-3
479.667	1	-4
480.008	1	1
480.349	1	-10
480.690	1	1
481.030	1	-9
481.371	1	-1
481.712	1	3
482.053	1	0
482.393	1	-1
482.734	1	-12
483.075	1	-1
483.415	1	0
483.756	1	-7
484.097	1	-7
484.437	1	-12
484.778	1	10
485.119	1	-5
485.459	1	5
485.800	1	-12
486.141	1	-7
486.481	1	2
486.822	1	1
487.163	1	-3
487.503	1	0
487.844	1	-2
488.185	1	-2
488.525	1	-3
488.866	1	-3
489.207	1	6
489.547	1	-5
489.888	1	0
490.228	1	8
490.569	1	5
490.910	1	-2
491.250	1	-8
491.591	1	-9
491.932	1	4
492.272	1	7
492.613	1	-6
492.953	1	-4
493.294	1	-12
493.635	1	3
493.975	1	-4
494.316	1	3
494.656	1	4
494.997	1	-5
495.337	1	11
495.678	1	4
496.019	1	-14
496.359	1	-12
496.700	1	9
497.040	1	-3
497.381	1	3
497.721	1	-14
498.062	1	4
498.403	1	6
498.743	1	-2
499.084	1	-2
499.424	1	-4
499.765	1	-3
500.105	1	-1
500.446	1	-8
500.786	1	-10
501.127	1	-3
501.467	1	-15
501.808	1	2
502.148	1	-1
502.489	1	8
502.829	1	-4
503.170	1	-3
503.510	1	-1
503.851	1	-9
504.191	1	5
504.532	1	6
504.872	1	-2
505.213	1	-7
505.553	1	-4
505.894	1	-5
506.234	1	1
506.575	1	-1
506.915	1	1
507.256	1	-3
507.596	1	-1
507.936	1	-4
508.277	1	-6
508.617	1	-7
508.958	1	-4
509.298	1	3
509.639	1	-12
509.979	1	-2
510.319	1	1
510.660	1	-4
511.000	1	-11
511.341	1	1
511.681	1	-4
512.022	1	-12
512.362	1	-2
512.702	1	-10
513.043	1	2
513.383	1	-19
513.724	1	-2
514.064	1	10
514.404	1	-2
514.745	1	-4
515.085	1	-2
515.425	1	-2
515.766	1	-5
516.106	1	4
516.447	1	10
516.787	1	4
517.127	1	3
517.468	1	-8
517.808	1	-7
518.148	1	0
518.489	1	2
518.829	1	7
519.169	1	2
519.510	1	1
519.850	1	-3
520.190	1	-4
520.531	1	1
520.871	1	-5
521.211	1	-7
521.552	1	4
521.892	1	-3
522.232	1	2
522.573	1	-4
522.913	1	8
523.253	1	-7
523.593	1	-1
523.934	1	-4
524.274	1	-9
524.614	1	-6
524.955	1	-6
525.295	1	3
525.635	1	0
525.975	1	8
526.316	1	-1
526.656	1	-5
526.996	1	8
527.337	1	-7
527.677	1	9
528.017	1	-9
528.357	1	-1
528.698	1	0
529.038	1	1
529.378	1	4
529.718	1	9
530.058	1	-7
530.399	1	9
530.739	1	1
531.079	1	7
531.419	1	14
531.760	1	6
532.100	1	-9
532.440	1	11
532.780	1	-4
533.120	1	6
533.461	1	0
533.801	1	5
534.141	1	-7
534.481	1	-15
534.821	1	5
535.162	1	-4
535.502	1	-6
535.842	1	-3
536.182	1	0
536.522	1	-9
536.862	1	3
537.203	1	-8
537.543	1	-1
537.883	1	0
538.223	1	3
538.563	1	1
538.903	1	-8
539.243	1	-2
539.584	1	0
539.924	1	9
540.264	1	-9
540.604	1	4
540.944	1	-3
541.284	1	-2
541.624	1	-2
541.964	1	-1
542.305	1	9
542.645	1	-4
542.985	1	5
543.325	1	-4
543.665	1	-1
544.005	1	6
544.345	1	3
544.685	1	-5
545.025	1	-3
545.365	1	-8
545.705	1	-8
546.045	1	-4
546.386	1	1
546.726	1	-6
547.066	1	-3
547.406	1	-3
547.746	1	-6
548.086	1	4
548.426	1	1
548.766	1	-8
549.106	1	1
549.446	1	1
549.786	1	-2
550.126	1	14
550.466	1	-4
550.806	1	-8
551.146	1	-6
551.486	1	-6
551.826	1	3
552.166	1	0
552.506	1	4
552.846	1	6
553.186	1	3
553.526	1	-3
553.866	1	-6
554.206	1	1
554.546	1	8
554.886	1	-1
555.226	1	-14
555.566	1	1
555.906	1	4
556.246	1	-3
556.586	1	-8
556.926	1	1
557.266	1	-7
557.606	1	-3
557.946	1	2
558.286	1	6
558.626	1	6
558.966	1	-9
559.306	1	-6
559.646	1	-2
559.986	1	-11
560.325	1	-5
560.665	1	-9
561.005	1	-11
561.345	1	-6
561.685	1	-5
562.025	1	0
562.365	1	-4
562.705	1	-6
563.045	1	-12
563.385	1	-8
563.725	1	-2
564.064	1	-5
564.404	1	1
564.744	1	3
565.084	1	0
565.424	1	-4
565.764	1	-3
566.104	1	0
566.444	1	2
566.783	1	-7
567.123	1	2
567.463	1	0
567.803	1	3
568.143	1	0
568.483	1	3
568.823	1	2
569.162	1	-5
569.502	1	-12
569.842	1	1
570.182	1	-5
570.522	1	-5
570.862	1	-5
571.201	1	-3
571.541	1	8
571.881	1	5
572.221	1	-7
572.561	1	-6
572.900	1	0
573.240	1	8
573.580	1	5
573.920	1	2
574.260	1	13
574.599	1	3
574.939	1	4
575.279	1	11
575.619	1	9
575.959	1	-7
576.298	1	13
576.638	1	-14
576.978	1	4
577.318	1	2
577.657	1	-1
577.997	1	-6
578.337	1	9
578.677	1	-2
579.016	1	10
579.356	1	-2
579.696	1	-1
580.036	1	-7
580.375	1	-4
580.715	1	-4
581.055	1	2
581.394	1	0
581.734	1	-5
582.074	1	-4
582.414	1	5
582.753	1	1
583.093	1	-2
583.433	1	-3
583.772	1	4
584.112	1	4
584.452	1	4
584.791	1	-6
585.131	1	5
585.471	1	2
585.811	1	7
586.150	1	4
586.490	1	0
586.830	1	-9
587.169	1	-1
587.509	1	0
587.849	1	-3
588.188	1	1
588.528	1	2
588.867	1	-2
589.207	1	9
589.547	1	4
589.886	1	-6
590.226	1	3
590.566	1	-12
590.905	1	4
591.245	1	-4
591.585	1	2
591.924	1	-5
592.264	1	3
592.603	1	-8
592.943	1	1
593.283	1	3
593.622	1	-12
593.962	1	6
594.301	1	0
594.641	1	-1
594.981	1	-3
595.320	1	5
595.660	1	-7
595.999	1	-11
596.339	1	3
596.678	1	-11
597.018	1	-8
597.358	1	-2
597.697	1	5
598.037	1	-2
598.376	1	0
598.716	1	1
599.055	1	3
599.395	1	-9
599.734	1	-8
600.074	1	1
600.413	1	9
600.753	1	-5
601.092	1	12
601.432	1	-13
601.771	1	7
602.111	1	7
602.451	1	4
602.790	1	-7
603.130	1	3
603.469	1	-4
603.809	1	6
604.148	1	-3
604.487	1	-1
604.827	1	-2
605.166	1	4
605.506	1	-3
605.845	1	6
606.185	1	4
606.524	1	-5
606.864	1	0
607.203	1	-10
607.543	1	-1
607.882	1	3
608.222	1	4
608.561	1	-4
608.901	1	-1
609.240	1	-5
609.579	1	10
609.919	1	2
610.258	1	-1
610.598	1	0
610.937	1	6
611.277	1	0
611.616	1	-1
611.955	1	-3
612.295	1	-4
612.634	1	2
612.974	1	-14
613.313	1	4
613.652	1	-3
613.992	1	2
614.331	1	-1
614.671	1	2
615.010	1	-7
615.349	1	13
615.689	1	5
616.028	1	0
616.368	1	8
616.707	1	-6
617.046	1	7
617.386	1	5
617.725	1	7
618.064	1	-10
618.404	1	-6
618.743	1	-2
619.082	1	-1
619.422	1	-9
619.761	1	-1
620.100	1	6
620.440	1	-2
620.779	1	-1
621.118	1	-8
621.458	1	-6
621.797	1	-4
622.136	1	9
622.476	1	2
622.815	1	4
623.154	1	10
623.494	1	5
623.833	1	7
624.172	1	-1
624.511	1	4
624.851	1	-12
625.190	1	-6
625.529	1	-1
625.869	1	1
626.208	1	-7
626.547	1	-5
626.886	1	7
627.226	1	1
627.565	1	0
627.904	1	-6
628.243	1	3
628.583	1	-6
628.922	1	-8
629.261	1	5
629.600	1	5
629.940	1	-6
630.279	1	-15
630.618	1	-7
630.957	1	-2
631.297	1	-5
631.636	1	-12
631.975	1	11
632.314	1	-5
632.653	1	-1
632.993	1	-2
633.332	1	-3
633.671	1	-7
634.010	1	-10
634.349	1	10
634.689	1	-4
635.028	1	-3
635.367	1	-8
635.706	1	-5
636.045	1	14
636.384	1	-4
636.724	1	0
637.063	1	5
637.402	1	3
637.741	1	3
638.080	1	2
638.419	1	-4
638.759	1	-8
639.098	1	1
639.437	1	2
639.776	1	-1
640.115	1	-7
640.454	1	-16
640.793	1	0
641.132	1	4
641.472	1	5
641.811	1	-5
642.150	1	-13
642.489	1	7
642.828	1	-16
643.167	1	0
643.506	1	-2
643.845	1	-2
644.184	1	3
644.524	1	-1
644.863	1	-4
645.202	1	-2
645.541	1	-5
645.880	1	3
646.219	1	0
646.558	1	-4
646.897	1	-5
647.236	1	-5
647.575	1	3
647.914	1	5
648.253	1	10
648.592	1	-13
648.931	1	13
649.270	1	-4
649.610	1	6
649.949	1	-4
650.288	1	9
650.627	1	-4
650.966	1	1
651.305	1	-11
651.644	1	5
651.983	1	-1
652.322	1	-8
652.661	1	-5
653.000	1	3
653.339	1	5
653.678	1	3
654.017	1	-1
654.356	1	-7
654.695	1	5
655.034	1	0
655.373	1	3
655.712	1	3
656.051	1	-2
656.390	1	-11
656.729	1	4
657.068	1	-1
657.406	1	10
657.745	1	-8
658.084	1	1
658.423	1	7
658.762	1	-2
659.101	1	7
659.440	1	-2
659.779	1	4
660.118	1	7
660.457	1	4
660.796	1	-8
661.135	1	-9
661.474	1	1
661.813	1	11
662.152	1	-5
662.491	1	-2
662.829	1	-11
663.168	1	2
663.507	1	7
663.846	1	-7
664.185	1	1
664.524	1	3
664.863	1	-7
665.202	1	-2
665.541	1	-14
665.879	1	-13
666.218	1	-9
666.557	1	-2
666.896	1	-10
667.235	1	1
667.574	1	-6
667.913	1	-6
668.251	1	-4
668.590	1	6
668.929	1	-16
669.268	1	-3
669.607	1	-2
669.946	1	1
670.285	1	-2
670.623	1	-1
670.962	1	-10
671.301	1	-11
671.640	1	3
671.979	1	-7
672.317	1	-2
672.656	1	-7
672.995	1	5
673.334	1	-10
673.673	1	-4
674.011	1	-6
674.350	1	-5
674.689	1	-2
675.028	1	3
675.367	1	-7
675.705	1	5
676.044	1	-9
676.383	1	-3
676.722	1	2
677.060	1	-5
677.399	1	-7
677.738	1	4
678.077	1	-1
678.416	1	3
678.754	1	-9
679.093	1	5
679.432	1	-9
679.771	1	-2
680.109	1	4
680.448	1	1
680.787	1	1
681.125	1	11
681.464	1	2
681.803	1	-5
682.142	1	4
682.480	1	15
682.819	1	-9
683.158	1	-6
683.496	1	1
683.835	1	6
684.174	1	-6
684.512	1	4
684.851	1	-1
685.190	1	-2
685.529	1	-4
685.867	1	-1
686.206	1	-4
686.545	1	-12
686.883	1	1
687.222	1	-2
687.561	1	4
687.899	1	7
688.238	1	5
688.577	1	-3
688.746	1	4