File: Data/GaN_200K_800ms/GaN_sample F_spot 12_UVVIS_200 K_200um_800 ms 2x2mm1_11.txt
340.368	1	3
340.710	1	1
341.052	1	9
341.394	1	-1
341.737	1	3
342.079	1	-7
342.421	1	1
342.763	1	5
343.105	1	3
343.447	1	-7
343.789	1	-4
344.131	1	-7
344.473	1	-7
344.815	1	-5
345.157	1	-9
345.499	1	6
345.841	1	3
346.183	1	1
346.526	1	-13
346.868	1	6
347.210	1	-6
347.552	1	-1
347.894	1	1
348.236	1	5
348.578	1	4
348.920	1	1
349.262	1	-1
349.604	1	8
349.946	1	-3
350.288	1	3
350.630	1	3
350.972	1	12
351.314	1	3
351.656	1	6
351.998	1	11
352.340	1	3
352.682	1	4
353.024	1	1
353.366	1	10
353.708	1	0
354.050	1	-6
354.392	1	-10
354.734	1	8
355.076	1	0
355.418	1	-13
355.760	1	2
356.102	1	14
356.444	1	4
356.785	1	9
357.127	1	3
357.469	1	-1
357.811	1	-4
358.153	1	7
358.495	1	2
358.837	1	-3
359.179	1	3
359.521	1	13
359.863	1	-3
360.205	1	-8
360.547	1	6
360.889	1	3
361.231	1	0
361.572	1	5
361.914	1	0
362.256	1	4
362.598	1	-6
362.940	1	-3
363.282	1	6
363.624	1	5
363.966	1	-4
364.308	1	-3
364.649	1	2
364.991	1	-7
365.333	1	-6
365.675	1	-6
366.017	1	-2
366.359	1	-8
366.701	1	-4
367.042	1	-2
367.384	1	4
367.726	1	0
368.068	1	6
368.410	1	0
368.752	1	-11
369.093	1	-6
369.435	1	-4
369.777	1	-9
370.119	1	1
370.461	1	10
370.803	1	3
371.144	1	-8
371.486	1	5
371.828	1	-2
372.170	1	2
372.512	1	-7
372.853	1	0
373.195	1	-5
373.537	1	1
373.879	1	0
374.220	1	7
374.562	1	10
374.904	1	9
375.246	1	-2
375.588	1	11
375.929	1	5
376.271	1	10
376.613	1	2
376.955	1	-7
377.296	1	-6
377.638	1	-2
377.980	1	4
378.321	1	-4
378.663	1	-4
379.005	1	8
379.347	1	0
379.688	1	7
380.030	1	-1
380.372	1	1
380.714	1	5
381.055	1	-6
381.397	1	1
381.739	1	0
382.080	1	2
382.422	1	1
382.764	1	1
383.105	1	-3
383.447	1	-9
383.789	1	4
384.130	1	5
384.472	1	3
384.814	1	1
385.156	1	-3
385.497	1	-1
385.839	1	-2
386.180	1	6
386.522	1	4
386.864	1	6
387.205	1	-1
387.547	1	-3
387.889	1	-1
388.230	1	5
388.572	1	2
388.914	1	-3
389.255	1	1
389.597	1	5
389.939	1	1
390.280	1	4
390.622	1	-1
390.963	1	-1
391.305	1	0
391.647	1	2
391.988	1	4
392.330	1	3
392.671	1	-3
393.013	1	-5
393.355	1	6
393.696	1	2
394.038	1	8
394.379	1	8
394.721	1	-5
395.062	1	1
395.404	1	-7
395.746	1	8
396.087	1	-2
396.429	1	4
396.770	1	-7
397.112	1	8
397.453	1	12
397.795	1	1
398.136	1	-3
398.478	1	8
398.819	1	-7
399.161	1	9
399.503	1	-1
399.844	1	4
400.186	1	7
400.527	1	3
400.869	1	1
401.210	1	5
401.552	1	-5
401.893	1	0
402.235	1	6
402.576	1	0
402.918	1	8
403.259	1	5
403.601	1	-2
403.942	1	1
404.284	1	8
404.625	1	9
404.967	1	0
405.308	1	0
405.649	1	1
405.991	1	-3
406.332	1	6
406.674	1	-9
407.015	1	9
407.357	1	2
407.698	1	2
408.040	1	2
408.381	1	0
408.722	1	-19
409.064	1	-3
409.405	1	10
409.747	1	3
410.088	1	11
410.430	1	4
410.771	1	7
411.112	1	1
411.454	1	-7
411.795	1	-5
412.137	1	6
412.478	1	17
412.819	1	2
413.161	1	6
413.502	1	-6
413.844	1	13
414.185	1	4
414.526	1	-3
414.868	1	2
415.209	1	7
415.550	1	-2
415.892	1	2
416.233	1	5
416.575	1	11
416.916	1	3
417.257	1	-2
417.599	1	4
417.940	1	13
418.281	1	2
418.623	1	-9
418.964	1	-15
419.305	1	1
419.647	1	-9
419.988	1	2
420.329	1	-8
420.671	1	7
421.012	1	5
421.353	1	-2
421.695	1	-1
422.036	1	-1
422.377	1	-2
422.718	1	5
423.060	1	-1
423.401	1	-6
423.742	1	0
424.084	1	-3
424.425	1	4
424.766	1	-7
425.107	1	-10
425.449	1	4
425.790	1	-10
426.131	1	2
426.472	1	1
426.814	1	-2
427.155	1	-6
427.496	1	0
427.837	1	-9
428.179	1	-4
428.520	1	0
428.861	1	-1
429.202	1	10
429.544	1	-2
429.885	1	1
430.226	1	-2
430.567	1	-1
430.909	1	2
431.250	1	0
431.591	1	5
431.932	1	-4
432.273	1	-3
432.615	1	-8
432.956	1	-9
433.297	1	6
433.638	1	3
433.979	1	4
434.320	1	4
434.662	1	1
435.003	1	3
435.344	1	8
435.685	1	1
436.026	1	4
436.368	1	12
436.709	1	0
437.050	1	0
437.391	1	13
437.732	1	-9
438.073	1	5
438.414	1	-8
438.756	1	-4
439.097	1	-7
439.438	1	-7
439.779	1	6
440.120	1	-9
440.461	1	0
440.802	1	-6
441.143	1	14
441.485	1	1
441.826	1	-3
442.167	1	3
442.508	1	-6
442.849	1	8
443.190	1	-7
443.531	1	3
443.872	1	5
444.213	1	-2
444.554	1	10
444.895	1	-4
445.237	1	-10
445.578	1	-9
445.919	1	-5
446.260	1	-8
446.601	1	3
446.942	1	0
447.283	1	2
447.624	1	-2
447.965	1	-3
448.306	1	2
448.647	1	-10
448.988	1	-3
449.329	1	-1
449.670	1	11
450.011	1	8
450.352	1	-2
450.693	1	-1
451.034	1	-4
451.375	1	3
451.716	1	2
452.057	1	4
452.398	1	-3
452.739	1	4
453.080	1	3
453.421	1	-1
453.762	1	2
454.103	1	-6
454.444	1	-1
454.785	1	0
455.126	1	3
455.467	1	0
455.808	1	-7
456.149	1	10
456.490	1	3
456.831	1	17
457.172	1	-3
457.513	1	4
457.854	1	-2
458.195	1	-5
458.536	1	4
458.877	1	1
459.218	1	-4
459.559	1	8
459.899	1	6
460.240	1	-2
460.581	1	13
460.922	1	1
461.263	1	-6
461.604	1	-2
461.945	1	5
462.286	1	-5
462.627	1	10
462.968	1	-1
463.309	1	-2
463.649	1	0
463.990	1	-3
464.331	1	0
464.672	1	0
465.013	1	-1
465.354	1	0
465.695	1	-5
466.036	1	-2
466.376	1	2
466.717	1	0
467.058	1	-4
467.399	1	9
467.740	1	4
468.081	1	2
468.422	1	0
468.762	1	-3
469.103	1	-3
469.444	1	-4
469.785	1	-10
470.126	1	-11
470.467	1	0
470.807	1	6
471.148	1	1
471.489	1	6
471.830	1	-4
472.171	1	-5
472.511	1	-3
472.852	1	-3
473.193	1	9
473.534	1	12
473.875	1	9
474.215	1	3
474.556	1	4
474.897	1	6
475.238	1	5
475.578	1	-5
475.919	1	-3
476.260	1	6
476.601	1	0
476.942	1	5
477.282	1	4
477.623	1	-9
477.964	1	-2
478.305	1	-4
478.645	1	6
478.986	1	-1
479.327	1	-4
479.667	1	0
480.008	1	-10
480.349	1	-7
480.690	1	0
481.030	1	-11
481.371	1	0
481.712	1	3
482.053	1	0
482.393	1	0
482.734	1	-1
483.075	1	0
483.415	1	9
483.756	1	4
484.097	1	-4
484.437	1	-3
484.778	1	2
485.119	1	-8
485.459	1	15
485.800	1	-4
486.141	1	-5
486.481	1	0
486.822	1	0
487.163	1	5
487.503	1	-2
487.844	1	-1
488.185	1	-1
488.525	1	0
488.866	1	0
489.207	1	0
489.547	1	-1
489.888	1	0
490.228	1	2
490.569	1	16
490.910	1	-3
491.250	1	-7
491.591	1	1
491.932	1	-10
492.272	1	-1
492.613	1	-2
492.953	1	-1
493.294	1	-4
493.635	1	-3
493.975	1	-2
494.316	1	3
494.656	1	2
494.997	1	3
495.337	1	10
495.678	1	1
496.019	1	-8
496.359	1	2
496.700	1	-3
497.040	1	-4
497.381	1	-6
497.721	1	-3
498.062	1	2
498.403	1	4
498.743	1	-4
499.084	1	-3
499.424	1	0
499.765	1	-8
500.105	1	-5
500.446	1	-12
500.786	1	-2
501.127	1	6
501.467	1	1
501.808	1	9
502.148	1	-3
502.489	1	7
502.829	1	0
503.170	1	8
503.510	1	2
503.851	1	-8
504.191	1	0
504.532	1	-3
504.872	1	-2
505.213	1	17
505.553	1	-5
505.894	1	-4
506.234	1	11
506.575	1	5
506.915	1	8
507.256	1	5
507.596	1	-5
507.936	1	0
508.277	1	6
508.617	1	0
508.958	1	-2
509.298	1	10
509.639	1	-2
509.979	1	0
510.319	1	4
510.660	1	0
511.000	1	-4
511.341	1	-3
511.681	1	6
512.022	1	-4
512.362	1	-3
512.702	1	3
513.043	1	7
513.383	1	-6
513.724	1	3
514.064	1	14
514.404	1	3
514.745	1	-2
515.085	1	2
515.425	1	2
515.766	1	3
516.106	1	1
516.447	1	10
516.787	1	10
517.127	1	-5
517.468	1	-1
517.808	1	3
518.148	1	8
518.489	1	-5
518.829	1	4
519.169	1	7
519.510	1	7
519.850	1	4
520.190	1	8
520.531	1	9
520.871	1	2
521.211	1	-15
521.552	1	13
521.892	1	7
522.232	1	0
522.573	1	-5
522.913	1	5
523.253	1	0
523.593	1	-2
523.934	1	0
524.274	1	8
524.614	1	7
524.955	1	-8
525.295	1	4
525.635	1	0
525.975	1	3
526.316	1	13
526.656	1	-2
526.996	1	2
527.337	1	-2
527.677	1	6
528.017	1	-5
528.357	1	1
528.698	1	5
529.038	1	-2
529.378	1	7
529.718	1	0
530.058	1	-7
530.399	1	4
530.739	1	0
531.079	1	1
531.419	1	8
531.760	1	2
532.100	1	-8
532.440	1	-1
532.780	1	3
533.120	1	4
533.461	1	-1
533.801	1	13
534.141	1	-6
534.481	1	-11
534.821	1	6
535.162	1	0
535.502	1	-9
535.842	1	1
536.182	1	0
536.522	1	0
536.862	1	2
537.203	1	-4
537.543	1	-4
537.883	1	6
538.223	1	-1
538.563	1	7
538.903	1	-2
539.243	1	-2
539.584	1	-3
539.924	1	8
540.264	1	-2
540.604	1	1
540.944	1	-7
541.284	1	4
541.624	1	2
541.964	1	9
542.305	1	8
542.645	1	1
542.985	1	1
543.325	1	-7
543.665	1	1
544.005	1	8
544.345	1	5
544.685	1	0
545.025	1	-7
545.365	1	-2
545.705	1	3
546.045	1	5
546.386	1	1
546.726	1	1
547.066	1	0
547.406	1	8
547.746	1	-15
548.086	1	-2
548.426	1	-9
548.766	1	-5
549.106	1	6
549.446	1	-7
549.786	1	-5
550.126	1	10
550.466	1	-2
550.806	1	-3
551.146	1	-4
551.486	1	-1
551.826	1	0
552.166	1	-6
552.506	1	3
552.846	1	6
553.186	1	8
553.526	1	-2
553.866	1	3
554.206	1	1
554.546	1	1
554.886	1	1
555.226	1	-10
555.566	1	1
555.906	1	7
556.246	1	-7
556.586	1	-6
556.926	1	1
557.266	1	-1
557.606	1	6
557.946	1	10
558.286	1	8
558.626	1	5
558.966	1	-2
559.306	1	2
559.646	1	0
559.986	1	-6
560.325	1	-8
560.665	1	2
561.005	1	-9
561.345	1	3
561.685	1	-3
562.025	1	0
562.365	1	1
562.705	1	13
563.045	1	6
563.385	1	-8
563.725	1	-1
564.064	1	-7
564.404	1	4
564.744	1	3
565.084	1	-4
565.424	1	-4
565.764	1	4
566.104	1	-2
566.444	1	-1
566.783	1	-4
567.123	1	5
567.463	1	12
567.803	1	5
568.143	1	-2
568.483	1	10
568.823	1	9
569.162	1	6
569.502	1	-2
569.842	1	4
570.182	1	8
570.522	1	-4
570.862	1	0
571.201	1	5
571.541	1	5
571.881	1	6
572.221	1	-9
572.561	1	-4
572.900	1	0
573.240	1	-1
573.580	1	3
573.920	1	5
574.260	1	10
574.599	1	-2
574.939	1	11
575.279	1	7
575.619	1	11
575.959	1	-5
576.298	1	7
576.638	1	-3
576.978	1	2
577.318	1	8
577.657	1	-2
577.997	1	0
578.337	1	8
578.677	1	0
579.016	1	3
579.356	1	3
579.696	1	6
580.036	1	0
580.375	1	5
580.715	1	3
581.055	1	4
581.394	1	-4
581.734	1	-8
582.074	1	-6
582.414	1	10
582.753	1	-6
583.093	1	4
583.433	1	-9
583.772	1	7
584.112	1	8
584.452	1	-4
584.791	1	-2
585.131	1	6
585.471	1	0
585.811	1	4
586.150	1	1
586.490	1	-3
586.830	1	6
587.169	1	10
587.509	1	1
587.849	1	6
588.188	1	7
588.528	1	9
588.867	1	3
589.207	1	-1
589.547	1	1
589.886	1	-9
590.226	1	3
590.566	1	-3
590.905	1	-2
591.245	1	-3
591.585	1	9
591.924	1	1
592.264	1	-2
592.603	1	5
592.943	1	0
593.283	1	1
593.622	1	-2
593.962	1	8
594.301	1	7
594.641	1	-3
594.981	1	-13
595.320	1	-3
595.660	1	1
595.999	1	-6
596.339	1	-3
596.678	1	-4
597.018	1	-1
597.358	1	7
597.697	1	6
598.037	1	11
598.376	1	3
598.716	1	5
599.055	1	5
599.395	1	-3
599.734	1	-2
600.074	1	5
600.413	1	18
600.753	1	-1
601.092	1	10
601.432	1	-8
601.771	1	7
602.111	1	-2
602.451	1	6
602.790	1	0
603.130	1	0
603.469	1	-16
603.809	1	2
604.148	1	0
604.487	1	-3
604.827	1	15
605.166	1	13
605.506	1	8
605.845	1	-1
606.185	1	6
606.524	1	7
606.864	1	2
607.203	1	-12
607.543	1	-6
607.882	1	-4
608.222	1	3
608.561	1	-2
608.901	1	-1
609.240	1	-6
609.579	1	8
609.919	1	3
610.258	1	8
610.598	1	-5
610.937	1	-3
611.277	1	10
611.616	1	-1
611.955	1	0
612.295	1	-6
612.634	1	4
612.974	1	-13
613.313	1	13
613.652	1	10
613.992	1	-2
614.331	1	6
614.671	1	4
615.010	1	-4
615.349	1	0
615.689	1	16
616.028	1	-2
616.368	1	13
616.707	1	6
617.046	1	6
617.386	1	7
617.725	1	-3
618.064	1	1
618.404	1	-8
618.743	1	-1
619.082	1	4
619.422	1	-9
619.761	1	0
620.100	1	2
620.440	1	4
620.779	1	-15
621.118	1	13
621.458	1	2
621.797	1	-2
622.136	1	13
622.476	1	1
622.815	1	13
623.154	1	13
623.494	1	12
623.833	1	14
624.172	1	-3
624.511	1	2
624.851	1	-4
625.190	1	-7
625.529	1	-2
625.869	1	4
626.208	1	3
626.547	1	3
626.886	1	0
627.226	1	-1
627.565	1	7
627.904	1	-3
628.243	1	7
628.583	1	2
628.922	1	2
629.261	1	7
629.600	1	5
629.940	1	7
630.279	1	-10
630.618	1	3
630.957	1	4
631.297	1	4
631.636	1	-13
631.975	1	14
632.314	1	-5
632.653	1	-3
632.993	1	0
633.332	1	-8
633.671	1	-12
634.010	1	-5
634.349	1	4
634.689	1	-1
635.028	1	4
635.367	1	7
635.706	1	-1
636.045	1	2
636.384	1	0
636.724	1	-2
637.063	1	-2
637.402	1	6
637.741	1	4
638.080	1	-2
638.419	1	-7
638.759	1	4
639.098	1	0
639.437	1	3
639.776	1	-2
640.115	1	-4
640.454	1	5
640.793	1	15
641.132	1	-1
641.472	1	3
641.811	1	3
642.150	1	-3
642.489	1	6
642.828	1	-3
643.167	1	2
643.506	1	-1
643.845	1	-4
644.184	1	-1
644.524	1	-5
644.863	1	-4
645.202	1	2
645.541	1	-1
645.880	1	5
646.219	1	-3
646.558	1	0
646.897	1	-6
647.236	1	0
647.575	1	2
647.914	1	-4
648.253	1	3
648.592	1	-6
648.931	1	11
649.270	1	1
649.610	1	3
649.949	1	0
650.288	1	1
650.627	1	-5
650.966	1	6
651.305	1	-3
651.644	1	8
651.983	1	-4
652.322	1	4
652.661	1	-6
653.000	1	-6
653.339	1	9
653.678	1	8
654.017	1	-6
654.356	1	2
654.695	1	10
655.034	1	6
655.373	1	7
655.712	1	-1
656.051	1	-5
656.390	1	2
656.729	1	13
657.068	1	6
657.406	1	7
657.745	1	-4
658.084	1	-1
658.423	1	8
658.762	1	-3
659.101	1	8
659.440	1	2
659.779	1	9
660.118	1	2
660.457	1	2
660.796	1	-11
661.135	1	2
661.474	1	4
661.813	1	17
662.152	1	8
662.491	1	-1
662.829	1	-10
663.168	1	-2
663.507	1	8
663.846	1	-4
664.185	1	2
664.524	1	8
664.863	1	-12
665.202	1	3
665.541	1	-3
665.879	1	-7
666.218	1	2
666.557	1	1
666.896	1	-6
667.235	1	6
667.574	1	-3
667.913	1	9
668.251	1	-9
668.590	1	-1
668.929	1	-8
669.268	1	-3
669.607	1	-6
669.946	1	-5
670.285	1	-1
670.623	1	2
670.962	1	-1
671.301	1	3
671.640	1	2
671.979	1	-3
672.317	1	-3
672.656	1	-4
672.995	1	7
673.334	1	5
673.673	1	3
674.011	1	-5
674.350	1	1
674.689	1	-3
675.028	1	2
675.367	1	4
675.705	1	11
676.044	1	-5
676.383	1	1
676.722	1	-2
677.060	1	1
677.399	1	-7
677.738	1	1
678.077	1	5
678.416	1	2
678.754	1	4
679.093	1	6
679.432	1	7
679.771	1	12
680.109	1	17
680.448	1	2
680.787	1	3
681.125	1	7
681.464	1	4
681.803	1	1
682.142	1	15
682.480	1	9
682.819	1	6
683.158	1	0
683.496	1	-2
683.835	1	2
684.174	1	1
684.512	1	11
684.851	1	1
685.190	1	1
685.529	1	-1
685.867	1	-6
686.206	1	1
686.545	1	-4
686.883	1	-5
687.222	1	9
687.561	1	6
687.899	1	5
688.238	1	3
688.577	1	-7
688.746	1	-3