File: Data/GaN_200K_800ms/GaN_sample F_spot 12_UVVIS_200 K_200um_800 ms 2x2mm1_77.txt
340.368	1	-2
340.710	1	-3
341.052	1	18
341.394	1	9
341.737	1	9
342.079	1	-11
342.421	1	2
342.763	1	5
343.105	1	8
343.447	1	-2
343.789	1	8
344.131	1	4
344.473	1	-10
344.815	1	5
345.157	1	-5
345.499	1	3
345.841	1	5
346.183	1	0
346.526	1	1
346.868	1	13
347.210	1	1
347.552	1	-2
347.894	1	5
348.236	1	17
348.578	1	9
348.920	1	9
349.262	1	2
349.604	1	3
349.946	1	1
350.288	1	14
350.630	1	6
350.972	1	8
351.314	1	9
351.656	1	17
351.998	1	11
352.340	1	5
352.682	1	10
353.024	1	10
353.366	1	19
353.708	1	11
354.050	1	5
354.392	1	-5
354.734	1	14
355.076	1	12
355.418	1	0
355.760	1	15
356.102	1	18
356.444	1	15
356.785	1	24
357.127	1	9
357.469	1	20
357.811	1	21
358.153	1	36
358.495	1	15
358.837	1	18
359.179	1	28
359.521	1	26
359.863	1	26
360.205	1	28
360.547	1	31
360.889	1	31
361.231	1	36
361.572	1	43
361.914	1	42
362.256	1	39
362.598	1	35
362.940	1	47
363.282	1	59
363.624	1	57
363.966	1	64
364.308	1	66
364.649	1	81
364.991	1	81
365.333	1	93
365.675	1	92
366.017	1	100
366.359	1	108
366.701	1	120
367.042	1	119
367.384	1	132
367.726	1	131
368.068	1	156
368.410	1	159
368.752	1	150
369.093	1	146
369.435	1	160
369.777	1	165
370.119	1	170
370.461	1	176
370.803	1	161
371.144	1	155
371.486	1	151
371.828	1	151
372.170	1	147
372.512	1	120
372.853	1	118
373.195	1	106
373.537	1	119
373.879	1	115
374.220	1	115
374.562	1	106
374.904	1	88
375.246	1	96
375.588	1	90
375.929	1	103
376.271	1	86
376.613	1	75
376.955	1	69
377.296	1	70
377.638	1	78
377.980	1	68
378.321	1	48
378.663	1	61
379.005	1	70
379.347	1	44
379.688	1	54
380.030	1	54
380.372	1	49
380.714	1	46
381.055	1	49
381.397	1	38
381.739	1	45
382.080	1	39
382.422	1	32
382.764	1	32
383.105	1	34
383.447	1	29
383.789	1	29
384.130	1	31
384.472	1	28
384.814	1	29
385.156	1	27
385.497	1	36
385.839	1	27
386.180	1	35
386.522	1	34
386.864	1	30
387.205	1	30
387.547	1	24
387.889	1	20
388.230	1	41
388.572	1	19
388.914	1	16
389.255	1	20
389.597	1	20
389.939	1	19
390.280	1	11
390.622	1	6
390.963	1	19
391.305	1	24
391.647	1	22
391.988	1	22
392.330	1	23
392.671	1	6
393.013	1	7
393.355	1	19
393.696	1	14
394.038	1	12
394.379	1	14
394.721	1	4
395.062	1	9
395.404	1	4
395.746	1	18
396.087	1	3
396.429	1	19
396.770	1	6
397.112	1	17
397.453	1	18
397.795	1	9
398.136	1	-1
398.478	1	16
398.819	1	2
399.161	1	23
399.503	1	15
399.844	1	15
400.186	1	15
400.527	1	11
400.869	1	2
401.210	1	5
401.552	1	5
401.893	1	11
402.235	1	13
402.576	1	2
402.918	1	18
403.259	1	16
403.601	1	5
403.942	1	22
404.284	1	15
404.625	1	12
404.967	1	10
405.308	1	12
405.649	1	-3
405.991	1	6
406.332	1	4
406.674	1	4
407.015	1	18
407.357	1	-6
407.698	1	7
408.040	1	9
408.381	1	7
408.722	1	-10
409.064	1	13
409.405	1	12
409.747	1	-3
410.088	1	9
410.430	1	12
410.771	1	3
411.112	1	9
411.454	1	1
411.795	1	1
412.137	1	7
412.478	1	17
412.819	1	2
413.161	1	7
413.502	1	2
413.844	1	12
414.185	1	13
414.526	1	7
414.868	1	7
415.209	1	5
415.550	1	-6
415.892	1	17
416.233	1	9
416.575	1	14
416.916	1	-12
417.257	1	5
417.599	1	11
417.940	1	11
418.281	1	12
418.623	1	2
418.964	1	-10
419.305	1	5
419.647	1	3
419.988	1	-1
420.329	1	-6
420.671	1	13
421.012	1	4
421.353	1	1
421.695	1	1
422.036	1	-5
422.377	1	1
422.718	1	8
423.060	1	4
423.401	1	9
423.742	1	10
424.084	1	9
424.425	1	1
424.766	1	10
425.107	1	-2
425.449	1	12
425.790	1	-18
426.131	1	5
426.472	1	0
426.814	1	6
427.155	1	1
427.496	1	6
427.837	1	-2
428.179	1	-5
428.520	1	-3
428.861	1	2
429.202	1	-4
429.544	1	3
429.885	1	3
430.226	1	1
430.567	1	6
430.909	1	5
431.250	1	6
431.591	1	17
431.932	1	-6
432.273	1	-3
432.615	1	-2
432.956	1	-1
433.297	1	9
433.638	1	4
433.979	1	14
434.320	1	1
434.662	1	6
435.003	1	9
435.344	1	4
435.685	1	-7
436.026	1	8
436.368	1	5
436.709	1	3
437.050	1	4
437.391	1	10
437.732	1	0
438.073	1	2
438.414	1	-1
438.756	1	0
439.097	1	-3
439.438	1	8
439.779	1	2
440.120	1	-2
440.461	1	3
440.802	1	2
441.143	1	8
441.485	1	-4
441.826	1	3
442.167	1	3
442.508	1	-7
442.849	1	10
443.190	1	6
443.531	1	15
443.872	1	3
444.213	1	2
444.554	1	10
444.895	1	-3
445.237	1	-3
445.578	1	-9
445.919	1	1
446.260	1	0
446.601	1	-4
446.942	1	-3
447.283	1	-2
447.624	1	4
447.965	1	9
448.306	1	9
448.647	1	-3
448.988	1	-1
449.329	1	5
449.670	1	9
450.011	1	11
450.352	1	6
450.693	1	-8
451.034	1	-3
451.375	1	2
451.716	1	-2
452.057	1	3
452.398	1	3
452.739	1	3
453.080	1	10
453.421	1	12
453.762	1	6
454.103	1	1
454.444	1	-4
454.785	1	9
455.126	1	-1
455.467	1	3
455.808	1	-1
456.149	1	10
456.490	1	1
456.831	1	9
457.172	1	-3
457.513	1	8
457.854	1	2
458.195	1	3
458.536	1	7
458.877	1	5
459.218	1	3
459.559	1	13
459.899	1	0
460.240	1	13
460.581	1	18
460.922	1	4
461.263	1	-1
461.604	1	2
461.945	1	4
462.286	1	6
462.627	1	11
462.968	1	7
463.309	1	-6
463.649	1	-3
463.990	1	3
464.331	1	-2
464.672	1	3
465.013	1	-4
465.354	1	4
465.695	1	2
466.036	1	0
466.376	1	0
466.717	1	4
467.058	1	6
467.399	1	5
467.740	1	1
468.081	1	4
468.422	1	2
468.762	1	-6
469.103	1	8
469.444	1	-3
469.785	1	-4
470.126	1	-1
470.467	1	7
470.807	1	12
471.148	1	3
471.489	1	5
471.830	1	2
472.171	1	17
472.511	1	1
472.852	1	11
473.193	1	5
473.534	1	10
473.875	1	18
474.215	1	7
474.556	1	0
474.897	1	3
475.238	1	3
475.578	1	-5
475.919	1	2
476.260	1	-6
476.601	1	5
476.942	1	9
477.282	1	0
477.623	1	-5
477.964	1	-9
478.305	1	2
478.645	1	6
478.986	1	-1
479.327	1	-2
479.667	1	-2
480.008	1	3
480.349	1	2
480.690	1	11
481.030	1	-6
481.371	1	5
481.712	1	-2
482.053	1	6
482.393	1	4
482.734	1	4
483.075	1	3
483.415	1	8
483.756	1	15
484.097	1	1
484.437	1	-1
484.778	1	7
485.119	1	-1
485.459	1	14
485.800	1	-2
486.141	1	1
486.481	1	3
486.822	1	7
487.163	1	-3
487.503	1	8
487.844	1	6
488.185	1	7
488.525	1	3
488.866	1	7
489.207	1	0
489.547	1	0
489.888	1	-13
490.228	1	9
490.569	1	16
490.910	1	10
491.250	1	6
491.591	1	-1
491.932	1	6
492.272	1	6
492.613	1	-3
492.953	1	4
493.294	1	4
493.635	1	1
493.975	1	-1
494.316	1	14
494.656	1	5
494.997	1	10
495.337	1	15
495.678	1	8
496.019	1	3
496.359	1	1
496.700	1	9
497.040	1	-3
497.381	1	6
497.721	1	-4
498.062	1	1
498.403	1	7
498.743	1	11
499.084	1	10
499.424	1	10
499.765	1	4
500.105	1	5
500.446	1	-2
500.786	1	-5
501.127	1	9
501.467	1	-1
501.808	1	13
502.148	1	8
502.489	1	21
502.829	1	5
503.170	1	14
503.510	1	8
503.851	1	-1
504.191	1	4
504.532	1	20
504.872	1	13
505.213	1	11
505.553	1	2
505.894	1	1
506.234	1	4
506.575	1	4
506.915	1	25
507.256	1	10
507.596	1	15
507.936	1	2
508.277	1	8
508.617	1	3
508.958	1	-3
509.298	1	18
509.639	1	2
509.979	1	11
510.319	1	6
510.660	1	8
511.000	1	7
511.341	1	5
511.681	1	7
512.022	1	16
512.362	1	3
512.702	1	6
513.043	1	11
513.383	1	2
513.724	1	9
514.064	1	21
514.404	1	7
514.745	1	4
515.085	1	14
515.425	1	15
515.766	1	1
516.106	1	7
516.447	1	20
516.787	1	16
517.127	1	4
517.468	1	8
517.808	1	6
518.148	1	10
518.489	1	11
518.829	1	17
519.169	1	22
519.510	1	6
519.850	1	13
520.190	1	11
520.531	1	15
520.871	1	19
521.211	1	-1
521.552	1	1
521.892	1	13
522.232	1	9
522.573	1	11
522.913	1	17
523.253	1	11
523.593	1	9
523.934	1	10
524.274	1	8
524.614	1	15
524.955	1	8
525.295	1	15
525.635	1	8
525.975	1	21
526.316	1	23
526.656	1	11
526.996	1	22
527.337	1	7
527.677	1	19
528.017	1	1
528.357	1	20
528.698	1	10
529.038	1	21
529.378	1	25
529.718	1	15
530.058	1	14
530.399	1	18
530.739	1	8
531.079	1	19
531.419	1	20
531.760	1	9
532.100	1	12
532.440	1	11
532.780	1	9
533.120	1	18
533.461	1	10
533.801	1	34
534.141	1	-4
534.481	1	6
534.821	1	18
535.162	1	19
535.502	1	5
535.842	1	20
536.182	1	13
536.522	1	13
536.862	1	15
537.203	1	8
537.543	1	15
537.883	1	16
538.223	1	17
538.563	1	26
538.903	1	5
539.243	1	16
539.584	1	22
539.924	1	20
540.264	1	15
540.604	1	14
540.944	1	13
541.284	1	16
541.624	1	21
541.964	1	13
542.305	1	25
542.645	1	21
542.985	1	23
543.325	1	13
543.665	1	26
544.005	1	20
544.345	1	23
544.685	1	16
545.025	1	22
545.365	1	18
545.705	1	11
546.045	1	11
546.386	1	12
546.726	1	11
547.066	1	16
547.406	1	11
547.746	1	7
548.086	1	17
548.426	1	8
548.766	1	23
549.106	1	18
549.446	1	15
549.786	1	21
550.126	1	34
550.466	1	8
550.806	1	16
551.146	1	15
551.486	1	12
551.826	1	20
552.166	1	15
552.506	1	23
552.846	1	14
553.186	1	27
553.526	1	6
553.866	1	17
554.206	1	23
554.546	1	24
554.886	1	24
555.226	1	8
555.566	1	20
555.906	1	21
556.246	1	23
556.586	1	11
556.926	1	19
557.266	1	20
557.606	1	16
557.946	1	21
558.286	1	21
558.626	1	19
558.966	1	11
559.306	1	15
559.646	1	28
559.986	1	11
560.325	1	7
560.665	1	24
561.005	1	5
561.345	1	21
561.685	1	14
562.025	1	10
562.365	1	19
562.705	1	12
563.045	1	21
563.385	1	6
563.725	1	17
564.064	1	19
564.404	1	23
564.744	1	22
565.084	1	13
565.424	1	19
565.764	1	10
566.104	1	19
566.444	1	15
566.783	1	16
567.123	1	19
567.463	1	23
567.803	1	11
568.143	1	16
568.483	1	16
568.823	1	25
569.162	1	22
569.502	1	16
569.842	1	30
570.182	1	21
570.522	1	7
570.862	1	25
571.201	1	28
571.541	1	24
571.881	1	25
572.221	1	10
572.561	1	7
572.900	1	19
573.240	1	13
573.580	1	10
573.920	1	18
574.260	1	23
574.599	1	20
574.939	1	24
575.279	1	23
575.619	1	13
575.959	1	14
576.298	1	26
576.638	1	10
576.978	1	20
577.318	1	18
577.657	1	25
577.997	1	14
578.337	1	24
578.677	1	20
579.016	1	20
579.356	1	9
579.696	1	13
580.036	1	16
580.375	1	21
580.715	1	15
581.055	1	22
581.394	1	21
581.734	1	5
582.074	1	20
582.414	1	30
582.753	1	7
583.093	1	24
583.433	1	19
583.772	1	28
584.112	1	13
584.452	1	18
584.791	1	18
585.131	1	30
585.471	1	27
585.811	1	27
586.150	1	26
586.490	1	18
586.830	1	13
587.169	1	22
587.509	1	20
587.849	1	21
588.188	1	27
588.528	1	16
588.867	1	24
589.207	1	25
589.547	1	12
589.886	1	3
590.226	1	21
590.566	1	12
590.905	1	15
591.245	1	7
591.585	1	20
591.924	1	14
592.264	1	16
592.603	1	16
592.943	1	17
593.283	1	22
593.622	1	7
593.962	1	4
594.301	1	20
594.641	1	11
594.981	1	13
595.320	1	10
595.660	1	18
595.999	1	6
596.339	1	21
596.678	1	13
597.018	1	10
597.358	1	21
597.697	1	12
598.037	1	10
598.376	1	23
598.716	1	17
599.055	1	22
599.395	1	12
599.734	1	16
600.074	1	12
600.413	1	31
600.753	1	14
601.092	1	20
601.432	1	8
601.771	1	17
602.111	1	9
602.451	1	16
602.790	1	5
603.130	1	12
603.469	1	0
603.809	1	10
604.148	1	14
604.487	1	19
604.827	1	10
605.166	1	16
605.506	1	15
605.845	1	12
606.185	1	20
606.524	1	10
606.864	1	7
607.203	1	6
607.543	1	19
607.882	1	27
608.222	1	21
608.561	1	16
608.901	1	25
609.240	1	9
609.579	1	25
609.919	1	25
610.258	1	19
610.598	1	9
610.937	1	13
611.277	1	5
611.616	1	16
611.955	1	15
612.295	1	11
612.634	1	13
612.974	1	2
613.313	1	25
613.652	1	18
613.992	1	11
614.331	1	13
614.671	1	16
615.010	1	7
615.349	1	13
615.689	1	12
616.028	1	12
616.368	1	16
616.707	1	19
617.046	1	11
617.386	1	12
617.725	1	10
618.064	1	10
618.404	1	13
618.743	1	17
619.082	1	12
619.422	1	1
619.761	1	22
620.100	1	10
620.440	1	4
620.779	1	4
621.118	1	13
621.458	1	16
621.797	1	8
622.136	1	32
622.476	1	10
622.815	1	22
623.154	1	17
623.494	1	19
623.833	1	6
624.172	1	-1
624.511	1	14
624.851	1	10
625.190	1	14
625.529	1	11
625.869	1	11
626.208	1	13
626.547	1	14
626.886	1	18
627.226	1	11
627.565	1	8
627.904	1	7
628.243	1	10
628.583	1	11
628.922	1	17
629.261	1	17
629.600	1	13
629.940	1	17
630.279	1	1
630.618	1	8
630.957	1	9
631.297	1	11
631.636	1	-4
631.975	1	16
632.314	1	5
632.653	1	13
632.993	1	3
633.332	1	7
633.671	1	6
634.010	1	9
634.349	1	24
634.689	1	10
635.028	1	15
635.367	1	1
635.706	1	8
636.045	1	15
636.384	1	13
636.724	1	17
637.063	1	2
637.402	1	15
637.741	1	7
638.080	1	14
638.419	1	-1
638.759	1	8
639.098	1	11
639.437	1	11
639.776	1	4
640.115	1	-1
640.454	1	0
640.793	1	12
641.132	1	13
641.472	1	9
641.811	1	14
642.150	1	4
642.489	1	4
642.828	1	0
643.167	1	5
643.506	1	-3
643.845	1	3
644.184	1	8
644.524	1	14
644.863	1	7
645.202	1	5
645.541	1	14
645.880	1	8
646.219	1	6
646.558	1	12
646.897	1	7
647.236	1	9
647.575	1	13
647.914	1	8
648.253	1	18
648.592	1	3
648.931	1	20
649.270	1	7
649.610	1	9
649.949	1	4
650.288	1	10
650.627	1	12
650.966	1	15
651.305	1	13
651.644	1	13
651.983	1	9
652.322	1	3
652.661	1	-1
653.000	1	9
653.339	1	12
653.678	1	9
654.017	1	6
654.356	1	-9
654.695	1	11
655.034	1	4
655.373	1	12
655.712	1	8
656.051	1	12
656.390	1	0
656.729	1	12
657.068	1	4
657.406	1	17
657.745	1	6
658.084	1	5
658.423	1	17
658.762	1	6
659.101	1	14
659.440	1	3
659.779	1	5
660.118	1	6
660.457	1	14
660.796	1	-2
661.135	1	4
661.474	1	-2
661.813	1	20
662.152	1	10
662.491	1	9
662.829	1	-5
663.168	1	6
663.507	1	13
663.846	1	4
664.185	1	2
664.524	1	0
664.863	1	1
665.202	1	9
665.541	1	-3
665.879	1	3
666.218	1	4
666.557	1	4
666.896	1	1
667.235	1	2
667.574	1	-2
667.913	1	8
668.251	1	4
668.590	1	5
668.929	1	-7
669.268	1	7
669.607	1	4
669.946	1	5
670.285	1	14
670.623	1	0
670.962	1	13
671.301	1	3
671.640	1	7
671.979	1	4
672.317	1	15
672.656	1	-1
672.995	1	3
673.334	1	2
673.673	1	3
674.011	1	6
674.350	1	12
674.689	1	7
675.028	1	2
675.367	1	13
675.705	1	9
676.044	1	15
676.383	1	7
676.722	1	9
677.060	1	3
677.399	1	2
677.738	1	9
678.077	1	15
678.416	1	5
678.754	1	6
679.093	1	4
679.432	1	6
679.771	1	6
680.109	1	7
680.448	1	7
680.787	1	0
681.125	1	6
681.464	1	11
681.803	1	6
682.142	1	14
682.480	1	14
682.819	1	7
683.158	1	1
683.496	1	6
683.835	1	9
684.174	1	8
684.512	1	6
684.851	1	3
685.190	1	8
685.529	1	2
685.867	1	3
686.206	1	-1
686.545	1	0
686.883	1	15
687.222	1	8
687.561	1	9
687.899	1	0
688.238	1	8
688.577	1	10
688.746	1	11