File: Data/GaN_200K_800ms/GaN_sample F_spot 12_UVVIS_200 K_200um_800 ms 2x2mm1_146.txt
340.368	1	2
340.710	1	3
341.052	1	8
341.394	1	0
341.737	1	4
342.079	1	5
342.421	1	-2
342.763	1	6
343.105	1	-4
343.447	1	-1
343.789	1	6
344.131	1	3
344.473	1	0
344.815	1	0
345.157	1	-4
345.499	1	0
345.841	1	9
346.183	1	-4
346.526	1	-2
346.868	1	6
347.210	1	4
347.552	1	-2
347.894	1	3
348.236	1	4
348.578	1	2
348.920	1	5
349.262	1	0
349.604	1	-6
349.946	1	-4
350.288	1	12
350.630	1	3
350.972	1	1
351.314	1	1
351.656	1	-2
351.998	1	15
352.340	1	3
352.682	1	8
353.024	1	7
353.366	1	19
353.708	1	3
354.050	1	1
354.392	1	-1
354.734	1	7
355.076	1	9
355.418	1	-6
355.760	1	6
356.102	1	9
356.444	1	6
356.785	1	13
357.127	1	10
357.469	1	3
357.811	1	14
358.153	1	18
358.495	1	7
358.837	1	1
359.179	1	13
359.521	1	11
359.863	1	5
360.205	1	9
360.547	1	12
360.889	1	-1
361.231	1	6
361.572	1	16
361.914	1	20
362.256	1	9
362.598	1	9
362.940	1	9
363.282	1	24
363.624	1	24
363.966	1	25
364.308	1	22
364.649	1	31
364.991	1	26
365.333	1	18
365.675	1	27
366.017	1	43
366.359	1	40
366.701	1	40
367.042	1	38
367.384	1	44
367.726	1	44
368.068	1	42
368.410	1	48
368.752	1	39
369.093	1	44
369.435	1	56
369.777	1	46
370.119	1	40
370.461	1	63
370.803	1	50
371.144	1	47
371.486	1	48
371.828	1	41
372.170	1	40
372.512	1	44
372.853	1	44
373.195	1	48
373.537	1	38
373.879	1	30
374.220	1	48
374.562	1	41
374.904	1	28
375.246	1	35
375.588	1	30
375.929	1	38
376.271	1	30
376.613	1	28
376.955	1	24
377.296	1	23
377.638	1	28
377.980	1	29
378.321	1	7
378.663	1	16
379.005	1	32
379.347	1	11
379.688	1	21
380.030	1	22
380.372	1	16
380.714	1	23
381.055	1	21
381.397	1	18
381.739	1	25
382.080	1	15
382.422	1	16
382.764	1	11
383.105	1	2
383.447	1	2
383.789	1	9
384.130	1	16
384.472	1	8
384.814	1	8
385.156	1	9
385.497	1	20
385.839	1	-1
386.180	1	23
386.522	1	14
386.864	1	16
387.205	1	0
387.547	1	0
387.889	1	2
388.230	1	11
388.572	1	7
388.914	1	9
389.255	1	3
389.597	1	9
389.939	1	12
390.280	1	11
390.622	1	2
390.963	1	14
391.305	1	6
391.647	1	4
391.988	1	7
392.330	1	13
392.671	1	-3
393.013	1	4
393.355	1	10
393.696	1	11
394.038	1	5
394.379	1	5
394.721	1	6
395.062	1	4
395.404	1	-4
395.746	1	10
396.087	1	3
396.429	1	9
396.770	1	-1
397.112	1	14
397.453	1	16
397.795	1	12
398.136	1	-5
398.478	1	7
398.819	1	4
399.161	1	13
399.503	1	-2
399.844	1	-4
400.186	1	-2
400.527	1	-10
400.869	1	-6
401.210	1	3
401.552	1	-5
401.893	1	2
402.235	1	1
402.576	1	2
402.918	1	10
403.259	1	-3
403.601	1	-3
403.942	1	7
404.284	1	7
404.625	1	1
404.967	1	3
405.308	1	11
405.649	1	-4
405.991	1	-5
406.332	1	1
406.674	1	0
407.015	1	2
407.357	1	-5
407.698	1	2
408.040	1	1
408.381	1	7
408.722	1	-8
409.064	1	4
409.405	1	6
409.747	1	-2
410.088	1	3
410.430	1	10
410.771	1	7
411.112	1	1
411.454	1	0
411.795	1	2
412.137	1	6
412.478	1	9
412.819	1	-1
413.161	1	4
413.502	1	3
413.844	1	-3
414.185	1	6
414.526	1	-8
414.868	1	4
415.209	1	-5
415.550	1	-3
415.892	1	0
416.233	1	1
416.575	1	18
416.916	1	-3
417.257	1	-7
417.599	1	7
417.940	1	9
418.281	1	14
418.623	1	8
418.964	1	-11
419.305	1	2
419.647	1	0
419.988	1	-4
420.329	1	-3
420.671	1	9
421.012	1	6
421.353	1	-2
421.695	1	-6
422.036	1	-2
422.377	1	-3
422.718	1	16
423.060	1	-2
423.401	1	-1
423.742	1	1
424.084	1	2
424.425	1	4
424.766	1	1
425.107	1	-3
425.449	1	-3
425.790	1	-4
426.131	1	3
426.472	1	0
426.814	1	7
427.155	1	-2
427.496	1	5
427.837	1	3
428.179	1	1
428.520	1	-1
428.861	1	-5
429.202	1	-1
429.544	1	1
429.885	1	4
430.226	1	-5
430.567	1	4
430.909	1	1
431.250	1	4
431.591	1	10
431.932	1	2
432.273	1	-5
432.615	1	-3
432.956	1	2
433.297	1	3
433.638	1	-4
433.979	1	-1
434.320	1	6
434.662	1	5
435.003	1	11
435.344	1	3
435.685	1	1
436.026	1	4
436.368	1	-1
436.709	1	-3
437.050	1	0
437.391	1	12
437.732	1	-2
438.073	1	-1
438.414	1	-7
438.756	1	3
439.097	1	-14
439.438	1	0
439.779	1	-5
440.120	1	-3
440.461	1	0
440.802	1	-5
441.143	1	11
441.485	1	-5
441.826	1	-5
442.167	1	7
442.508	1	-14
442.849	1	2
443.190	1	2
443.531	1	9
443.872	1	8
444.213	1	13
444.554	1	11
444.895	1	-5
445.237	1	-9
445.578	1	-6
445.919	1	-9
446.260	1	1
446.601	1	-2
446.942	1	3
447.283	1	5
447.624	1	-4
447.965	1	2
448.306	1	-3
448.647	1	-9
448.988	1	2
449.329	1	0
449.670	1	9
450.011	1	11
450.352	1	4
450.693	1	2
451.034	1	-3
451.375	1	-2
451.716	1	2
452.057	1	-3
452.398	1	-1
452.739	1	7
453.080	1	0
453.421	1	2
453.762	1	1
454.103	1	3
454.444	1	-11
454.785	1	4
455.126	1	-6
455.467	1	-1
455.808	1	3
456.149	1	12
456.490	1	6
456.831	1	3
457.172	1	-1
457.513	1	7
457.854	1	-4
458.195	1	-6
458.536	1	8
458.877	1	2
459.218	1	8
459.559	1	7
459.899	1	2
460.240	1	-2
460.581	1	15
460.922	1	3
461.263	1	-1
461.604	1	-8
461.945	1	1
462.286	1	-8
462.627	1	6
462.968	1	2
463.309	1	-6
463.649	1	3
463.990	1	2
464.331	1	-3
464.672	1	-5
465.013	1	9
465.354	1	1
465.695	1	-2
466.036	1	-1
466.376	1	5
466.717	1	0
467.058	1	5
467.399	1	4
467.740	1	0
468.081	1	2
468.422	1	-10
468.762	1	-3
469.103	1	-2
469.444	1	-8
469.785	1	-7
470.126	1	-6
470.467	1	-3
470.807	1	-2
471.148	1	2
471.489	1	0
471.830	1	-1
472.171	1	3
472.511	1	-1
472.852	1	1
473.193	1	11
473.534	1	8
473.875	1	17
474.215	1	16
474.556	1	4
474.897	1	1
475.238	1	-7
475.578	1	-7
475.919	1	-6
476.260	1	-1
476.601	1	0
476.942	1	7
477.282	1	0
477.623	1	-8
477.964	1	-6
478.305	1	0
478.645	1	2
478.986	1	-6
479.327	1	-15
479.667	1	9
480.008	1	1
480.349	1	-6
480.690	1	8
481.030	1	1
481.371	1	9
481.712	1	8
482.053	1	5
482.393	1	0
482.734	1	-1
483.075	1	-7
483.415	1	2
483.756	1	8
484.097	1	1
484.437	1	-4
484.778	1	-2
485.119	1	0
485.459	1	14
485.800	1	-7
486.141	1	3
486.481	1	6
486.822	1	9
487.163	1	1
487.503	1	6
487.844	1	6
488.185	1	11
488.525	1	5
488.866	1	7
489.207	1	4
489.547	1	1
489.888	1	0
490.228	1	7
490.569	1	11
490.910	1	0
491.250	1	4
491.591	1	-5
491.932	1	3
492.272	1	4
492.613	1	-2
492.953	1	-2
493.294	1	-2
493.635	1	5
493.975	1	2
494.316	1	4
494.656	1	5
494.997	1	5
495.337	1	8
495.678	1	8
496.019	1	-2
496.359	1	-1
496.700	1	10
497.040	1	-12
497.381	1	4
497.721	1	-3
498.062	1	2
498.403	1	2
498.743	1	0
499.084	1	5
499.424	1	2
499.765	1	6
500.105	1	8
500.446	1	-1
500.786	1	-3
501.127	1	-1
501.467	1	-2
501.808	1	12
502.148	1	2
502.489	1	-2
502.829	1	0
503.170	1	15
503.510	1	7
503.851	1	1
504.191	1	6
504.532	1	7
504.872	1	-2
505.213	1	6
505.553	1	-6
505.894	1	0
506.234	1	16
506.575	1	5
506.915	1	7
507.256	1	6
507.596	1	10
507.936	1	1
508.277	1	0
508.617	1	9
508.958	1	-6
509.298	1	7
509.639	1	3
509.979	1	-7
510.319	1	2
510.660	1	10
511.000	1	-3
511.341	1	-2
511.681	1	3
512.022	1	2
512.362	1	-7
512.702	1	1
513.043	1	12
513.383	1	-6
513.724	1	0
514.064	1	11
514.404	1	-9
514.745	1	3
515.085	1	-1
515.425	1	-5
515.766	1	-5
516.106	1	3
516.447	1	19
516.787	1	18
517.127	1	2
517.468	1	3
517.808	1	-4
518.148	1	15
518.489	1	6
518.829	1	18
519.169	1	10
519.510	1	6
519.850	1	-2
520.190	1	2
520.531	1	6
520.871	1	10
521.211	1	-2
521.552	1	13
521.892	1	5
522.232	1	1
522.573	1	13
522.913	1	6
523.253	1	10
523.593	1	-1
523.934	1	0
524.274	1	4
524.614	1	5
524.955	1	1
525.295	1	8
525.635	1	4
525.975	1	1
526.316	1	10
526.656	1	-2
526.996	1	9
527.337	1	-1
527.677	1	4
528.017	1	-9
528.357	1	-3
528.698	1	-2
529.038	1	7
529.378	1	13
529.718	1	11
530.058	1	10
530.399	1	6
530.739	1	-3
531.079	1	2
531.419	1	8
531.760	1	12
532.100	1	2
532.440	1	1
532.780	1	2
533.120	1	16
533.461	1	13
533.801	1	16
534.141	1	-12
534.481	1	-4
534.821	1	9
535.162	1	-4
535.502	1	1
535.842	1	13
536.182	1	4
536.522	1	-3
536.862	1	8
537.203	1	1
537.543	1	3
537.883	1	4
538.223	1	2
538.563	1	9
538.903	1	1
539.243	1	11
539.584	1	0
539.924	1	11
540.264	1	-1
540.604	1	0
540.944	1	2
541.284	1	13
541.624	1	12
541.964	1	8
542.305	1	11
542.645	1	4
542.985	1	10
543.325	1	3
543.665	1	7
544.005	1	13
544.345	1	14
544.685	1	4
545.025	1	3
545.365	1	2
545.705	1	-5
546.045	1	-1
546.386	1	10
546.726	1	-8
547.066	1	4
547.406	1	8
547.746	1	-11
548.086	1	4
548.426	1	2
548.766	1	11
549.106	1	17
549.446	1	4
549.786	1	0
550.126	1	15
550.466	1	13
550.806	1	-4
551.146	1	-4
551.486	1	4
551.826	1	10
552.166	1	9
552.506	1	16
552.846	1	4
553.186	1	6
553.526	1	-2
553.866	1	6
554.206	1	11
554.546	1	1
554.886	1	3
555.226	1	-3
555.566	1	4
555.906	1	5
556.246	1	7
556.586	1	1
556.926	1	16
557.266	1	2
557.606	1	12
557.946	1	18
558.286	1	7
558.626	1	3
558.966	1	-1
559.306	1	6
559.646	1	-1
559.986	1	3
560.325	1	2
560.665	1	3
561.005	1	5
561.345	1	2
561.685	1	-1
562.025	1	1
562.365	1	5
562.705	1	3
563.045	1	-9
563.385	1	1
563.725	1	3
564.064	1	2
564.404	1	12
564.744	1	14
565.084	1	-3
565.424	1	9
565.764	1	-6
566.104	1	5
566.444	1	3
566.783	1	2
567.123	1	7
567.463	1	13
567.803	1	1
568.143	1	3
568.483	1	8
568.823	1	2
569.162	1	18
569.502	1	5
569.842	1	6
570.182	1	11
570.522	1	-17
570.862	1	0
571.201	1	14
571.541	1	16
571.881	1	19
572.221	1	-2
572.561	1	-3
572.900	1	0
573.240	1	5
573.580	1	11
573.920	1	3
574.260	1	11
574.599	1	3
574.939	1	11
575.279	1	23
575.619	1	11
575.959	1	-6
576.298	1	17
576.638	1	1
576.978	1	5
577.318	1	12
577.657	1	1
577.997	1	8
578.337	1	12
578.677	1	15
579.016	1	8
579.356	1	7
579.696	1	1
580.036	1	1
580.375	1	14
580.715	1	8
581.055	1	6
581.394	1	4
581.734	1	-6
582.074	1	9
582.414	1	17
582.753	1	2
583.093	1	8
583.433	1	1
583.772	1	14
584.112	1	-3
584.452	1	5
584.791	1	6
585.131	1	3
585.471	1	8
585.811	1	11
586.150	1	4
586.490	1	15
586.830	1	3
587.169	1	7
587.509	1	3
587.849	1	6
588.188	1	11
588.528	1	7
588.867	1	9
589.207	1	8
589.547	1	3
589.886	1	-1
590.226	1	18
590.566	1	9
590.905	1	7
591.245	1	2
591.585	1	10
591.924	1	-1
592.264	1	14
592.603	1	6
592.943	1	-5
593.283	1	5
593.622	1	-4
593.962	1	8
594.301	1	2
594.641	1	-2
594.981	1	-4
595.320	1	8
595.660	1	11
595.999	1	0
596.339	1	2
596.678	1	2
597.018	1	2
597.358	1	11
597.697	1	1
598.037	1	0
598.376	1	7
598.716	1	6
599.055	1	14
599.395	1	8
599.734	1	8
600.074	1	2
600.413	1	9
600.753	1	13
601.092	1	26
601.432	1	2
601.771	1	7
602.111	1	8
602.451	1	5
602.790	1	3
603.130	1	10
603.469	1	-5
603.809	1	2
604.148	1	11
604.487	1	15
604.827	1	17
605.166	1	11
605.506	1	7
605.845	1	4
606.185	1	16
606.524	1	5
606.864	1	3
607.203	1	1
607.543	1	-5
607.882	1	14
608.222	1	12
608.561	1	9
608.901	1	12
609.240	1	1
609.579	1	11
609.919	1	14
610.258	1	13
610.598	1	-1
610.937	1	9
611.277	1	-1
611.616	1	0
611.955	1	-6
612.295	1	-3
612.634	1	1
612.974	1	-3
613.313	1	12
613.652	1	6
613.992	1	-1
614.331	1	4
614.671	1	4
615.010	1	0
615.349	1	9
615.689	1	13
616.028	1	1
616.368	1	4
616.707	1	2
617.046	1	5
617.386	1	7
617.725	1	-1
618.064	1	4
618.404	1	0
618.743	1	5
619.082	1	7
619.422	1	1
619.761	1	3
620.100	1	13
620.440	1	7
620.779	1	3
621.118	1	2
621.458	1	-5
621.797	1	-2
622.136	1	9
622.476	1	17
622.815	1	9
623.154	1	15
623.494	1	8
623.833	1	7
624.172	1	8
624.511	1	4
624.851	1	-4
625.190	1	6
625.529	1	9
625.869	1	17
626.208	1	4
626.547	1	9
626.886	1	4
627.226	1	15
627.565	1	4
627.904	1	-6
628.243	1	9
628.583	1	5
628.922	1	7
629.261	1	12
629.600	1	1
629.940	1	8
630.279	1	-8
630.618	1	7
630.957	1	8
631.297	1	-2
631.636	1	-11
631.975	1	20
632.314	1	-2
632.653	1	7
632.993	1	2
633.332	1	12
633.671	1	0
634.010	1	-2
634.349	1	12
634.689	1	7
635.028	1	12
635.367	1	4
635.706	1	5
636.045	1	10
636.384	1	8
636.724	1	8
637.063	1	3
637.402	1	11
637.741	1	8
638.080	1	-7
638.419	1	-1
638.759	1	1
639.098	1	7
639.437	1	5
639.776	1	2
640.115	1	8
640.454	1	-4
640.793	1	19
641.132	1	6
641.472	1	7
641.811	1	-1
642.150	1	-13
642.489	1	11
642.828	1	-12
643.167	1	-5
643.506	1	-13
643.845	1	6
644.184	1	-3
644.524	1	-2
644.863	1	-6
645.202	1	11
645.541	1	3
645.880	1	2
646.219	1	-4
646.558	1	4
646.897	1	8
647.236	1	2
647.575	1	6
647.914	1	2
648.253	1	8
648.592	1	-3
648.931	1	3
649.270	1	8
649.610	1	6
649.949	1	2
650.288	1	6
650.627	1	3
650.966	1	4
651.305	1	7
651.644	1	13
651.983	1	3
652.322	1	-3
652.661	1	-1
653.000	1	-3
653.339	1	4
653.678	1	13
654.017	1	5
654.356	1	-5
654.695	1	13
655.034	1	2
655.373	1	12
655.712	1	4
656.051	1	-10
656.390	1	6
656.729	1	9
657.068	1	3
657.406	1	-2
657.745	1	-2
658.084	1	14
658.423	1	9
658.762	1	-4
659.101	1	8
659.440	1	7
659.779	1	1
660.118	1	8
660.457	1	-8
660.796	1	-1
661.135	1	1
661.474	1	-2
661.813	1	10
662.152	1	8
662.491	1	3
662.829	1	2
663.168	1	5
663.507	1	3
663.846	1	-10
664.185	1	11
664.524	1	-2
664.863	1	6
665.202	1	5
665.541	1	-13
665.879	1	-7
666.218	1	1
666.557	1	-6
666.896	1	3
667.235	1	-2
667.574	1	-2
667.913	1	8
668.251	1	-5
668.590	1	14
668.929	1	-10
669.268	1	-9
669.607	1	-4
669.946	1	0
670.285	1	9
670.623	1	5
670.962	1	-1
671.301	1	6
671.640	1	5
671.979	1	6
672.317	1	6
672.656	1	9
672.995	1	8
673.334	1	2
673.673	1	3
674.011	1	3
674.350	1	6
674.689	1	7
675.028	1	-1
675.367	1	9
675.705	1	9
676.044	1	10
676.383	1	4
676.722	1	7
677.060	1	-2
677.399	1	-4
677.738	1	4
678.077	1	12
678.416	1	3
678.754	1	1
679.093	1	2
679.432	1	-4
679.771	1	1
680.109	1	15
680.448	1	7
680.787	1	-3
681.125	1	-2
681.464	1	0
681.803	1	0
682.142	1	15
682.480	1	13
682.819	1	1
683.158	1	-4
683.496	1	5
683.835	1	5
684.174	1	-4
684.512	1	4
684.851	1	-5
685.190	1	2
685.529	1	-1
685.867	1	7
686.206	1	-3
686.545	1	-5
686.883	1	6
687.222	1	6
687.561	1	7
687.899	1	5
688.238	1	2
688.577	1	2
688.746	1	3