File: Data/GaN_200K_800ms/GaN_sample F_spot 12_UVVIS_200 K_200um_800 ms 2x2mm1_52.txt
340.368	1	11
340.710	1	-9
341.052	1	16
341.394	1	1
341.737	1	5
342.079	1	10
342.421	1	0
342.763	1	22
343.105	1	4
343.447	1	3
343.789	1	3
344.131	1	1
344.473	1	0
344.815	1	11
345.157	1	1
345.499	1	17
345.841	1	10
346.183	1	0
346.526	1	9
346.868	1	17
347.210	1	0
347.552	1	-2
347.894	1	4
348.236	1	13
348.578	1	1
348.920	1	8
349.262	1	4
349.604	1	13
349.946	1	5
350.288	1	19
350.630	1	6
350.972	1	10
351.314	1	2
351.656	1	14
351.998	1	17
352.340	1	19
352.682	1	14
353.024	1	11
353.366	1	25
353.708	1	9
354.050	1	9
354.392	1	10
354.734	1	18
355.076	1	20
355.418	1	21
355.760	1	16
356.102	1	37
356.444	1	33
356.785	1	46
357.127	1	29
357.469	1	33
357.811	1	39
358.153	1	37
358.495	1	39
358.837	1	28
359.179	1	46
359.521	1	55
359.863	1	46
360.205	1	51
360.547	1	62
360.889	1	63
361.231	1	65
361.572	1	80
361.914	1	83
362.256	1	85
362.598	1	99
362.940	1	101
363.282	1	120
363.624	1	142
363.966	1	143
364.308	1	161
364.649	1	171
364.991	1	193
365.333	1	219
365.675	1	226
366.017	1	258
366.359	1	285
366.701	1	295
367.042	1	338
367.384	1	348
367.726	1	378
368.068	1	392
368.410	1	420
368.752	1	418
369.093	1	410
369.435	1	441
369.777	1	438
370.119	1	453
370.461	1	428
370.803	1	423
371.144	1	409
371.486	1	411
371.828	1	376
372.170	1	368
372.512	1	348
372.853	1	315
373.195	1	314
373.537	1	298
373.879	1	270
374.220	1	276
374.562	1	264
374.904	1	243
375.246	1	233
375.588	1	222
375.929	1	215
376.271	1	187
376.613	1	178
376.955	1	166
377.296	1	156
377.638	1	160
377.980	1	150
378.321	1	150
378.663	1	125
379.005	1	137
379.347	1	113
379.688	1	134
380.030	1	120
380.372	1	107
380.714	1	99
381.055	1	104
381.397	1	72
381.739	1	97
382.080	1	89
382.422	1	81
382.764	1	73
383.105	1	77
383.447	1	73
383.789	1	68
384.130	1	71
384.472	1	48
384.814	1	56
385.156	1	56
385.497	1	58
385.839	1	57
386.180	1	57
386.522	1	63
386.864	1	53
387.205	1	45
387.547	1	50
387.889	1	42
388.230	1	51
388.572	1	39
388.914	1	45
389.255	1	21
389.597	1	45
389.939	1	42
390.280	1	37
390.622	1	28
390.963	1	46
391.305	1	48
391.647	1	34
391.988	1	44
392.330	1	33
392.671	1	27
393.013	1	28
393.355	1	35
393.696	1	20
394.038	1	38
394.379	1	28
394.721	1	17
395.062	1	33
395.404	1	22
395.746	1	21
396.087	1	26
396.429	1	25
396.770	1	13
397.112	1	17
397.453	1	26
397.795	1	12
398.136	1	8
398.478	1	16
398.819	1	19
399.161	1	21
399.503	1	11
399.844	1	13
400.186	1	6
400.527	1	15
400.869	1	13
401.210	1	14
401.552	1	10
401.893	1	12
402.235	1	17
402.576	1	7
402.918	1	15
403.259	1	15
403.601	1	6
403.942	1	21
404.284	1	19
404.625	1	15
404.967	1	13
405.308	1	19
405.649	1	13
405.991	1	6
406.332	1	19
406.674	1	2
407.015	1	9
407.357	1	7
407.698	1	15
408.040	1	5
408.381	1	7
408.722	1	0
409.064	1	8
409.405	1	14
409.747	1	7
410.088	1	8
410.430	1	16
410.771	1	7
411.112	1	2
411.454	1	2
411.795	1	0
412.137	1	19
412.478	1	9
412.819	1	1
413.161	1	3
413.502	1	13
413.844	1	4
414.185	1	9
414.526	1	14
414.868	1	11
415.209	1	4
415.550	1	1
415.892	1	4
416.233	1	8
416.575	1	9
416.916	1	-4
417.257	1	5
417.599	1	13
417.940	1	7
418.281	1	11
418.623	1	6
418.964	1	0
419.305	1	5
419.647	1	6
419.988	1	-1
420.329	1	0
420.671	1	11
421.012	1	12
421.353	1	8
421.695	1	8
422.036	1	4
422.377	1	3
422.718	1	8
423.060	1	-3
423.401	1	-2
423.742	1	3
424.084	1	6
424.425	1	6
424.766	1	10
425.107	1	7
425.449	1	7
425.790	1	3
426.131	1	-1
426.472	1	3
426.814	1	13
427.155	1	-3
427.496	1	-2
427.837	1	3
428.179	1	2
428.520	1	-4
428.861	1	-1
429.202	1	8
429.544	1	5
429.885	1	15
430.226	1	-2
430.567	1	5
430.909	1	6
431.250	1	-3
431.591	1	8
431.932	1	-1
432.273	1	5
432.615	1	6
432.956	1	-8
433.297	1	11
433.638	1	1
433.979	1	14
434.320	1	5
434.662	1	1
435.003	1	3
435.344	1	-4
435.685	1	9
436.026	1	4
436.368	1	9
436.709	1	-3
437.050	1	12
437.391	1	9
437.732	1	-11
438.073	1	-5
438.414	1	-8
438.756	1	0
439.097	1	-8
439.438	1	2
439.779	1	9
440.120	1	-1
440.461	1	7
440.802	1	-2
441.143	1	9
441.485	1	6
441.826	1	-2
442.167	1	1
442.508	1	-3
442.849	1	8
443.190	1	4
443.531	1	12
443.872	1	9
444.213	1	7
444.554	1	12
444.895	1	-6
445.237	1	6
445.578	1	-2
445.919	1	5
446.260	1	0
446.601	1	3
446.942	1	7
447.283	1	6
447.624	1	3
447.965	1	9
448.306	1	6
448.647	1	2
448.988	1	5
449.329	1	-2
449.670	1	17
450.011	1	18
450.352	1	4
450.693	1	0
451.034	1	3
451.375	1	10
451.716	1	7
452.057	1	9
452.398	1	6
452.739	1	8
453.080	1	6
453.421	1	-1
453.762	1	12
454.103	1	1
454.444	1	-12
454.785	1	1
455.126	1	2
455.467	1	5
455.808	1	11
456.149	1	19
456.490	1	-2
456.831	1	8
457.172	1	4
457.513	1	13
457.854	1	5
458.195	1	5
458.536	1	12
458.877	1	-1
459.218	1	5
459.559	1	7
459.899	1	2
460.240	1	8
460.581	1	22
460.922	1	2
461.263	1	1
461.604	1	5
461.945	1	2
462.286	1	3
462.627	1	5
462.968	1	10
463.309	1	-10
463.649	1	3
463.990	1	1
464.331	1	4
464.672	1	1
465.013	1	4
465.354	1	14
465.695	1	-1
466.036	1	3
466.376	1	3
466.717	1	8
467.058	1	-3
467.399	1	14
467.740	1	5
468.081	1	8
468.422	1	5
468.762	1	-1
469.103	1	-2
469.444	1	-2
469.785	1	-4
470.126	1	3
470.467	1	-2
470.807	1	6
471.148	1	10
471.489	1	3
471.830	1	-1
472.171	1	7
472.511	1	6
472.852	1	1
473.193	1	6
473.534	1	14
473.875	1	18
474.215	1	15
474.556	1	8
474.897	1	6
475.238	1	8
475.578	1	1
475.919	1	8
476.260	1	10
476.601	1	3
476.942	1	15
477.282	1	-3
477.623	1	-4
477.964	1	3
478.305	1	1
478.645	1	11
478.986	1	7
479.327	1	2
479.667	1	4
480.008	1	3
480.349	1	2
480.690	1	16
481.030	1	4
481.371	1	11
481.712	1	5
482.053	1	18
482.393	1	7
482.734	1	-5
483.075	1	8
483.415	1	5
483.756	1	14
484.097	1	5
484.437	1	3
484.778	1	12
485.119	1	8
485.459	1	23
485.800	1	10
486.141	1	5
486.481	1	10
486.822	1	13
487.163	1	12
487.503	1	-1
487.844	1	7
488.185	1	2
488.525	1	10
488.866	1	6
489.207	1	6
489.547	1	8
489.888	1	13
490.228	1	14
490.569	1	15
490.910	1	13
491.250	1	11
491.591	1	6
491.932	1	6
492.272	1	8
492.613	1	5
492.953	1	3
493.294	1	16
493.635	1	10
493.975	1	13
494.316	1	6
494.656	1	18
494.997	1	4
495.337	1	16
495.678	1	6
496.019	1	7
496.359	1	12
496.700	1	13
497.040	1	9
497.381	1	4
497.721	1	13
498.062	1	14
498.403	1	18
498.743	1	13
499.084	1	7
499.424	1	13
499.765	1	17
500.105	1	16
500.446	1	10
500.786	1	2
501.127	1	20
501.467	1	13
501.808	1	20
502.148	1	16
502.489	1	12
502.829	1	17
503.170	1	24
503.510	1	17
503.851	1	17
504.191	1	19
504.532	1	24
504.872	1	17
505.213	1	27
505.553	1	17
505.894	1	16
506.234	1	27
506.575	1	23
506.915	1	21
507.256	1	12
507.596	1	28
507.936	1	21
508.277	1	11
508.617	1	19
508.958	1	14
509.298	1	23
509.639	1	18
509.979	1	25
510.319	1	26
510.660	1	22
511.000	1	14
511.341	1	24
511.681	1	27
512.022	1	8
512.362	1	15
512.702	1	24
513.043	1	25
513.383	1	0
513.724	1	37
514.064	1	24
514.404	1	19
514.745	1	17
515.085	1	17
515.425	1	12
515.766	1	16
516.106	1	21
516.447	1	38
516.787	1	46
517.127	1	27
517.468	1	26
517.808	1	25
518.148	1	21
518.489	1	31
518.829	1	30
519.169	1	27
519.510	1	22
519.850	1	29
520.190	1	25
520.531	1	29
520.871	1	34
521.211	1	19
521.552	1	37
521.892	1	35
522.232	1	32
522.573	1	21
522.913	1	30
523.253	1	26
523.593	1	21
523.934	1	29
524.274	1	32
524.614	1	26
524.955	1	29
525.295	1	26
525.635	1	27
525.975	1	30
526.316	1	45
526.656	1	36
526.996	1	34
527.337	1	22
527.677	1	35
528.017	1	22
528.357	1	32
528.698	1	34
529.038	1	31
529.378	1	37
529.718	1	34
530.058	1	40
530.399	1	36
530.739	1	34
531.079	1	46
531.419	1	35
531.760	1	42
532.100	1	29
532.440	1	39
532.780	1	34
533.120	1	32
533.461	1	46
533.801	1	52
534.141	1	25
534.481	1	33
534.821	1	42
535.162	1	39
535.502	1	25
535.842	1	46
536.182	1	38
536.522	1	29
536.862	1	38
537.203	1	32
537.543	1	35
537.883	1	36
538.223	1	37
538.563	1	50
538.903	1	31
539.243	1	31
539.584	1	35
539.924	1	41
540.264	1	33
540.604	1	33
540.944	1	28
541.284	1	39
541.624	1	49
541.964	1	46
542.305	1	37
542.645	1	32
542.985	1	38
543.325	1	35
543.665	1	36
544.005	1	38
544.345	1	40
544.685	1	34
545.025	1	37
545.365	1	36
545.705	1	34
546.045	1	42
546.386	1	39
546.726	1	25
547.066	1	40
547.406	1	42
547.746	1	28
548.086	1	35
548.426	1	35
548.766	1	35
549.106	1	44
549.446	1	38
549.786	1	35
550.126	1	54
550.466	1	45
550.806	1	38
551.146	1	35
551.486	1	37
551.826	1	47
552.166	1	44
552.506	1	52
552.846	1	38
553.186	1	49
553.526	1	35
553.866	1	44
554.206	1	36
554.546	1	48
554.886	1	40
555.226	1	34
555.566	1	44
555.906	1	46
556.246	1	38
556.586	1	39
556.926	1	43
557.266	1	28
557.606	1	43
557.946	1	52
558.286	1	44
558.626	1	40
558.966	1	38
559.306	1	36
559.646	1	38
559.986	1	27
560.325	1	36
560.665	1	37
561.005	1	29
561.345	1	29
561.685	1	34
562.025	1	35
562.365	1	38
562.705	1	37
563.045	1	32
563.385	1	28
563.725	1	45
564.064	1	37
564.404	1	45
564.744	1	31
565.084	1	37
565.424	1	42
565.764	1	35
566.104	1	44
566.444	1	33
566.783	1	31
567.123	1	40
567.463	1	45
567.803	1	24
568.143	1	43
568.483	1	44
568.823	1	46
569.162	1	45
569.502	1	31
569.842	1	48
570.182	1	33
570.522	1	24
570.862	1	38
571.201	1	39
571.541	1	40
571.881	1	45
572.221	1	32
572.561	1	36
572.900	1	29
573.240	1	38
573.580	1	34
573.920	1	44
574.260	1	48
574.599	1	38
574.939	1	34
575.279	1	46
575.619	1	44
575.959	1	30
576.298	1	43
576.638	1	29
576.978	1	44
577.318	1	42
577.657	1	33
577.997	1	33
578.337	1	47
578.677	1	39
579.016	1	48
579.356	1	21
579.696	1	36
580.036	1	28
580.375	1	39
580.715	1	31
581.055	1	29
581.394	1	42
581.734	1	31
582.074	1	43
582.414	1	45
582.753	1	25
583.093	1	41
583.433	1	32
583.772	1	29
584.112	1	36
584.452	1	39
584.791	1	26
585.131	1	34
585.471	1	43
585.811	1	41
586.150	1	36
586.490	1	46
586.830	1	37
587.169	1	30
587.509	1	31
587.849	1	36
588.188	1	44
588.528	1	39
588.867	1	37
589.207	1	32
589.547	1	27
589.886	1	31
590.226	1	33
590.566	1	26
590.905	1	30
591.245	1	24
591.585	1	29
591.924	1	31
592.264	1	37
592.603	1	31
592.943	1	28
593.283	1	24
593.622	1	27
593.962	1	27
594.301	1	37
594.641	1	20
594.981	1	20
595.320	1	28
595.660	1	32
595.999	1	22
596.339	1	23
596.678	1	23
597.018	1	33
597.358	1	33
597.697	1	25
598.037	1	17
598.376	1	24
598.716	1	28
599.055	1	29
599.395	1	22
599.734	1	27
600.074	1	28
600.413	1	32
600.753	1	34
601.092	1	37
601.432	1	22
601.771	1	32
602.111	1	25
602.451	1	34
602.790	1	28
603.130	1	33
603.469	1	18
603.809	1	36
604.148	1	37
604.487	1	28
604.827	1	38
605.166	1	37
605.506	1	36
605.845	1	32
606.185	1	25
606.524	1	41
606.864	1	22
607.203	1	28
607.543	1	28
607.882	1	23
608.222	1	43
608.561	1	28
608.901	1	36
609.240	1	26
609.579	1	34
609.919	1	35
610.258	1	36
610.598	1	26
610.937	1	27
611.277	1	23
611.616	1	28
611.955	1	28
612.295	1	25
612.634	1	31
612.974	1	20
613.313	1	30
613.652	1	31
613.992	1	25
614.331	1	26
614.671	1	28
615.010	1	15
615.349	1	31
615.689	1	31
616.028	1	22
616.368	1	26
616.707	1	24
617.046	1	25
617.386	1	23
617.725	1	23
618.064	1	17
618.404	1	29
618.743	1	22
619.082	1	23
619.422	1	14
619.761	1	35
620.100	1	29
620.440	1	12
620.779	1	23
621.118	1	14
621.458	1	22
621.797	1	12
622.136	1	24
622.476	1	26
622.815	1	24
623.154	1	27
623.494	1	26
623.833	1	17
624.172	1	22
624.511	1	23
624.851	1	2
625.190	1	8
625.529	1	29
625.869	1	20
626.208	1	33
626.547	1	13
626.886	1	28
627.226	1	30
627.565	1	17
627.904	1	8
628.243	1	21
628.583	1	29
628.922	1	19
629.261	1	23
629.600	1	25
629.940	1	23
630.279	1	5
630.618	1	16
630.957	1	16
631.297	1	14
631.636	1	3
631.975	1	31
632.314	1	15
632.653	1	27
632.993	1	6
633.332	1	9
633.671	1	6
634.010	1	12
634.349	1	24
634.689	1	21
635.028	1	20
635.367	1	28
635.706	1	14
636.045	1	26
636.384	1	19
636.724	1	19
637.063	1	15
637.402	1	24
637.741	1	12
638.080	1	19
638.419	1	7
638.759	1	5
639.098	1	22
639.437	1	16
639.776	1	18
640.115	1	8
640.454	1	13
640.793	1	17
641.132	1	24
641.472	1	17
641.811	1	14
642.150	1	3
642.489	1	18
642.828	1	7
643.167	1	7
643.506	1	2
643.845	1	17
644.184	1	16
644.524	1	14
644.863	1	6
645.202	1	17
645.541	1	9
645.880	1	11
646.219	1	5
646.558	1	21
646.897	1	15
647.236	1	18
647.575	1	15
647.914	1	7
648.253	1	22
648.592	1	20
648.931	1	27
649.270	1	6
649.610	1	12
649.949	1	13
650.288	1	19
650.627	1	10
650.966	1	13
651.305	1	13
651.644	1	20
651.983	1	16
652.322	1	2
652.661	1	10
653.000	1	10
653.339	1	19
653.678	1	11
654.017	1	11
654.356	1	8
654.695	1	17
655.034	1	19
655.373	1	17
655.712	1	8
656.051	1	10
656.390	1	9
656.729	1	21
657.068	1	17
657.406	1	10
657.745	1	1
658.084	1	19
658.423	1	11
658.762	1	11
659.101	1	22
659.440	1	10
659.779	1	12
660.118	1	9
660.457	1	7
660.796	1	0
661.135	1	-3
661.474	1	2
661.813	1	16
662.152	1	15
662.491	1	-2
662.829	1	2
663.168	1	12
663.507	1	19
663.846	1	8
664.185	1	8
664.524	1	8
664.863	1	1
665.202	1	15
665.541	1	8
665.879	1	1
666.218	1	-5
666.557	1	6
666.896	1	12
667.235	1	12
667.574	1	6
667.913	1	9
668.251	1	2
668.590	1	2
668.929	1	7
669.268	1	5
669.607	1	2
669.946	1	14
670.285	1	13
670.623	1	10
670.962	1	10
671.301	1	6
671.640	1	18
671.979	1	-5
672.317	1	10
672.656	1	10
672.995	1	6
673.334	1	11
673.673	1	17
674.011	1	17
674.350	1	15
674.689	1	14
675.028	1	13
675.367	1	15
675.705	1	13
676.044	1	10
676.383	1	12
676.722	1	10
677.060	1	7
677.399	1	6
677.738	1	13
678.077	1	23
678.416	1	19
678.754	1	13
679.093	1	14
679.432	1	9
679.771	1	15
680.109	1	25
680.448	1	10
680.787	1	8
681.125	1	15
681.464	1	12
681.803	1	14
682.142	1	14
682.480	1	15
682.819	1	8
683.158	1	18
683.496	1	12
683.835	1	6
684.174	1	5
684.512	1	14
684.851	1	22
685.190	1	17
685.529	1	7
685.867	1	13
686.206	1	14
686.545	1	6
686.883	1	6
687.222	1	16
687.561	1	16
687.899	1	12
688.238	1	20
688.577	1	11
688.746	1	3