File: Data/GaN_200K_800ms/GaN_sample F_spot 12_UVVIS_200 K_200um_800 ms 2x2mm1_56.txt
340.368	1	12
340.710	1	-7
341.052	1	6
341.394	1	7
341.737	1	17
342.079	1	-4
342.421	1	0
342.763	1	-2
343.105	1	3
343.447	1	4
343.789	1	8
344.131	1	3
344.473	1	-5
344.815	1	-2
345.157	1	-1
345.499	1	12
345.841	1	12
346.183	1	-3
346.526	1	0
346.868	1	17
347.210	1	-5
347.552	1	5
347.894	1	-1
348.236	1	7
348.578	1	8
348.920	1	1
349.262	1	3
349.604	1	7
349.946	1	-3
350.288	1	14
350.630	1	7
350.972	1	11
351.314	1	16
351.656	1	15
351.998	1	16
352.340	1	17
352.682	1	11
353.024	1	26
353.366	1	24
353.708	1	17
354.050	1	12
354.392	1	3
354.734	1	13
355.076	1	18
355.418	1	-2
355.760	1	16
356.102	1	36
356.444	1	30
356.785	1	21
357.127	1	30
357.469	1	37
357.811	1	32
358.153	1	31
358.495	1	30
358.837	1	33
359.179	1	36
359.521	1	44
359.863	1	37
360.205	1	46
360.547	1	61
360.889	1	60
361.231	1	59
361.572	1	76
361.914	1	69
362.256	1	73
362.598	1	72
362.940	1	86
363.282	1	110
363.624	1	118
363.966	1	122
364.308	1	132
364.649	1	149
364.991	1	163
365.333	1	181
365.675	1	169
366.017	1	211
366.359	1	226
366.701	1	244
367.042	1	268
367.384	1	289
367.726	1	313
368.068	1	333
368.410	1	338
368.752	1	321
369.093	1	346
369.435	1	361
369.777	1	339
370.119	1	357
370.461	1	359
370.803	1	330
371.144	1	334
371.486	1	313
371.828	1	306
372.170	1	290
372.512	1	274
372.853	1	267
373.195	1	247
373.537	1	237
373.879	1	228
374.220	1	215
374.562	1	213
374.904	1	195
375.246	1	194
375.588	1	174
375.929	1	186
376.271	1	161
376.613	1	156
376.955	1	131
377.296	1	123
377.638	1	136
377.980	1	116
378.321	1	113
378.663	1	110
379.005	1	109
379.347	1	105
379.688	1	100
380.030	1	93
380.372	1	96
380.714	1	92
381.055	1	87
381.397	1	78
381.739	1	73
382.080	1	70
382.422	1	59
382.764	1	65
383.105	1	57
383.447	1	61
383.789	1	46
384.130	1	63
384.472	1	56
384.814	1	60
385.156	1	45
385.497	1	57
385.839	1	51
386.180	1	43
386.522	1	59
386.864	1	51
387.205	1	47
387.547	1	37
387.889	1	41
388.230	1	44
388.572	1	30
388.914	1	38
389.255	1	31
389.597	1	43
389.939	1	38
390.280	1	33
390.622	1	20
390.963	1	30
391.305	1	33
391.647	1	28
391.988	1	26
392.330	1	24
392.671	1	29
393.013	1	30
393.355	1	29
393.696	1	18
394.038	1	22
394.379	1	29
394.721	1	21
395.062	1	12
395.404	1	17
395.746	1	27
396.087	1	10
396.429	1	12
396.770	1	15
397.112	1	30
397.453	1	28
397.795	1	17
398.136	1	14
398.478	1	16
398.819	1	8
399.161	1	22
399.503	1	12
399.844	1	14
400.186	1	15
400.527	1	20
400.869	1	11
401.210	1	15
401.552	1	-1
401.893	1	12
402.235	1	8
402.576	1	13
402.918	1	20
403.259	1	12
403.601	1	6
403.942	1	16
404.284	1	9
404.625	1	14
404.967	1	7
405.308	1	20
405.649	1	9
405.991	1	9
406.332	1	7
406.674	1	2
407.015	1	23
407.357	1	16
407.698	1	22
408.040	1	3
408.381	1	11
408.722	1	-7
409.064	1	4
409.405	1	17
409.747	1	3
410.088	1	14
410.430	1	12
410.771	1	13
411.112	1	11
411.454	1	5
411.795	1	-4
412.137	1	15
412.478	1	16
412.819	1	0
413.161	1	4
413.502	1	5
413.844	1	9
414.185	1	6
414.526	1	14
414.868	1	1
415.209	1	12
415.550	1	7
415.892	1	11
416.233	1	10
416.575	1	10
416.916	1	5
417.257	1	6
417.599	1	6
417.940	1	6
418.281	1	5
418.623	1	2
418.964	1	0
419.305	1	9
419.647	1	8
419.988	1	0
420.329	1	-9
420.671	1	14
421.012	1	1
421.353	1	6
421.695	1	1
422.036	1	5
422.377	1	7
422.718	1	7
423.060	1	4
423.401	1	7
423.742	1	11
424.084	1	2
424.425	1	14
424.766	1	8
425.107	1	-2
425.449	1	13
425.790	1	-6
426.131	1	4
426.472	1	1
426.814	1	9
427.155	1	3
427.496	1	4
427.837	1	9
428.179	1	0
428.520	1	7
428.861	1	5
429.202	1	6
429.544	1	-8
429.885	1	5
430.226	1	-5
430.567	1	-6
430.909	1	2
431.250	1	9
431.591	1	4
431.932	1	-5
432.273	1	4
432.615	1	-5
432.956	1	-1
433.297	1	11
433.638	1	16
433.979	1	6
434.320	1	6
434.662	1	7
435.003	1	13
435.344	1	1
435.685	1	2
436.026	1	13
436.368	1	7
436.709	1	9
437.050	1	-2
437.391	1	13
437.732	1	-3
438.073	1	9
438.414	1	-16
438.756	1	-7
439.097	1	-5
439.438	1	-2
439.779	1	4
440.120	1	-2
440.461	1	8
440.802	1	-2
441.143	1	13
441.485	1	9
441.826	1	1
442.167	1	4
442.508	1	-8
442.849	1	11
443.190	1	5
443.531	1	11
443.872	1	10
444.213	1	10
444.554	1	17
444.895	1	6
445.237	1	-4
445.578	1	-6
445.919	1	-10
446.260	1	3
446.601	1	-3
446.942	1	3
447.283	1	3
447.624	1	6
447.965	1	2
448.306	1	1
448.647	1	-6
448.988	1	6
449.329	1	-1
449.670	1	10
450.011	1	7
450.352	1	5
450.693	1	4
451.034	1	-1
451.375	1	-1
451.716	1	10
452.057	1	2
452.398	1	3
452.739	1	1
453.080	1	-1
453.421	1	-4
453.762	1	4
454.103	1	4
454.444	1	-2
454.785	1	-3
455.126	1	4
455.467	1	-2
455.808	1	0
456.149	1	1
456.490	1	0
456.831	1	10
457.172	1	-3
457.513	1	15
457.854	1	4
458.195	1	6
458.536	1	4
458.877	1	5
459.218	1	-2
459.559	1	12
459.899	1	6
460.240	1	4
460.581	1	19
460.922	1	6
461.263	1	2
461.604	1	2
461.945	1	12
462.286	1	5
462.627	1	14
462.968	1	11
463.309	1	-3
463.649	1	-3
463.990	1	-7
464.331	1	1
464.672	1	-5
465.013	1	6
465.354	1	2
465.695	1	0
466.036	1	0
466.376	1	7
466.717	1	6
467.058	1	6
467.399	1	6
467.740	1	0
468.081	1	0
468.422	1	9
468.762	1	2
469.103	1	15
469.444	1	-9
469.785	1	-5
470.126	1	-1
470.467	1	6
470.807	1	9
471.148	1	5
471.489	1	-3
471.830	1	-7
472.171	1	9
472.511	1	-7
472.852	1	3
473.193	1	5
473.534	1	17
473.875	1	21
474.215	1	16
474.556	1	-4
474.897	1	7
475.238	1	7
475.578	1	-3
475.919	1	9
476.260	1	4
476.601	1	1
476.942	1	3
477.282	1	1
477.623	1	2
477.964	1	4
478.305	1	7
478.645	1	6
478.986	1	5
479.327	1	-1
479.667	1	8
480.008	1	1
480.349	1	2
480.690	1	9
481.030	1	1
481.371	1	2
481.712	1	6
482.053	1	6
482.393	1	4
482.734	1	2
483.075	1	7
483.415	1	8
483.756	1	15
484.097	1	-1
484.437	1	-6
484.778	1	0
485.119	1	-3
485.459	1	20
485.800	1	1
486.141	1	8
486.481	1	17
486.822	1	5
487.163	1	9
487.503	1	13
487.844	1	6
488.185	1	13
488.525	1	7
488.866	1	4
489.207	1	0
489.547	1	9
489.888	1	12
490.228	1	8
490.569	1	15
490.910	1	6
491.250	1	7
491.591	1	14
491.932	1	5
492.272	1	9
492.613	1	2
492.953	1	4
493.294	1	6
493.635	1	3
493.975	1	5
494.316	1	16
494.656	1	12
494.997	1	7
495.337	1	18
495.678	1	7
496.019	1	9
496.359	1	2
496.700	1	16
497.040	1	7
497.381	1	2
497.721	1	8
498.062	1	4
498.403	1	9
498.743	1	4
499.084	1	4
499.424	1	17
499.765	1	6
500.105	1	8
500.446	1	-3
500.786	1	11
501.127	1	25
501.467	1	9
501.808	1	14
502.148	1	12
502.489	1	12
502.829	1	25
503.170	1	17
503.510	1	3
503.851	1	14
504.191	1	17
504.532	1	19
504.872	1	11
505.213	1	21
505.553	1	7
505.894	1	8
506.234	1	20
506.575	1	23
506.915	1	19
507.256	1	12
507.596	1	16
507.936	1	23
508.277	1	19
508.617	1	21
508.958	1	7
509.298	1	18
509.639	1	14
509.979	1	12
510.319	1	30
510.660	1	11
511.000	1	0
511.341	1	24
511.681	1	13
512.022	1	13
512.362	1	4
512.702	1	19
513.043	1	18
513.383	1	13
513.724	1	19
514.064	1	27
514.404	1	13
514.745	1	16
515.085	1	24
515.425	1	16
515.766	1	11
516.106	1	12
516.447	1	25
516.787	1	20
517.127	1	22
517.468	1	12
517.808	1	7
518.148	1	12
518.489	1	15
518.829	1	21
519.169	1	15
519.510	1	23
519.850	1	24
520.190	1	12
520.531	1	26
520.871	1	17
521.211	1	9
521.552	1	34
521.892	1	24
522.232	1	20
522.573	1	26
522.913	1	30
523.253	1	18
523.593	1	14
523.934	1	33
524.274	1	24
524.614	1	21
524.955	1	23
525.295	1	19
525.635	1	24
525.975	1	28
526.316	1	36
526.656	1	22
526.996	1	26
527.337	1	31
527.677	1	33
528.017	1	18
528.357	1	35
528.698	1	30
529.038	1	30
529.378	1	36
529.718	1	32
530.058	1	34
530.399	1	38
530.739	1	36
531.079	1	41
531.419	1	31
531.760	1	31
532.100	1	32
532.440	1	29
532.780	1	31
533.120	1	29
533.461	1	33
533.801	1	43
534.141	1	18
534.481	1	14
534.821	1	39
535.162	1	28
535.502	1	14
535.842	1	38
536.182	1	30
536.522	1	22
536.862	1	38
537.203	1	14
537.543	1	28
537.883	1	20
538.223	1	33
538.563	1	42
538.903	1	22
539.243	1	36
539.584	1	24
539.924	1	39
540.264	1	28
540.604	1	32
540.944	1	25
541.284	1	36
541.624	1	26
541.964	1	37
542.305	1	39
542.645	1	28
542.985	1	33
543.325	1	34
543.665	1	38
544.005	1	37
544.345	1	34
544.685	1	32
545.025	1	24
545.365	1	25
545.705	1	30
546.045	1	25
546.386	1	37
546.726	1	23
547.066	1	40
547.406	1	37
547.746	1	17
548.086	1	34
548.426	1	29
548.766	1	41
549.106	1	31
549.446	1	25
549.786	1	29
550.126	1	45
550.466	1	43
550.806	1	27
551.146	1	29
551.486	1	33
551.826	1	31
552.166	1	37
552.506	1	44
552.846	1	34
553.186	1	42
553.526	1	30
553.866	1	34
554.206	1	30
554.546	1	43
554.886	1	40
555.226	1	26
555.566	1	44
555.906	1	36
556.246	1	31
556.586	1	36
556.926	1	36
557.266	1	30
557.606	1	34
557.946	1	39
558.286	1	39
558.626	1	40
558.966	1	32
559.306	1	28
559.646	1	34
559.986	1	33
560.325	1	28
560.665	1	30
561.005	1	23
561.345	1	36
561.685	1	28
562.025	1	34
562.365	1	27
562.705	1	32
563.045	1	27
563.385	1	20
563.725	1	39
564.064	1	29
564.404	1	37
564.744	1	28
565.084	1	25
565.424	1	35
565.764	1	26
566.104	1	30
566.444	1	20
566.783	1	30
567.123	1	32
567.463	1	42
567.803	1	27
568.143	1	36
568.483	1	39
568.823	1	31
569.162	1	36
569.502	1	21
569.842	1	44
570.182	1	22
570.522	1	23
570.862	1	33
571.201	1	39
571.541	1	30
571.881	1	38
572.221	1	22
572.561	1	29
572.900	1	28
573.240	1	33
573.580	1	39
573.920	1	35
574.260	1	42
574.599	1	31
574.939	1	28
575.279	1	40
575.619	1	36
575.959	1	28
576.298	1	48
576.638	1	23
576.978	1	38
577.318	1	33
577.657	1	23
577.997	1	32
578.337	1	35
578.677	1	36
579.016	1	41
579.356	1	22
579.696	1	38
580.036	1	24
580.375	1	33
580.715	1	30
581.055	1	32
581.394	1	30
581.734	1	29
582.074	1	32
582.414	1	27
582.753	1	30
583.093	1	25
583.433	1	27
583.772	1	32
584.112	1	34
584.452	1	32
584.791	1	34
585.131	1	33
585.471	1	36
585.811	1	40
586.150	1	26
586.490	1	40
586.830	1	26
587.169	1	29
587.509	1	30
587.849	1	36
588.188	1	35
588.528	1	24
588.867	1	35
589.207	1	32
589.547	1	31
589.886	1	31
590.226	1	37
590.566	1	25
590.905	1	16
591.245	1	25
591.585	1	39
591.924	1	23
592.264	1	19
592.603	1	31
592.943	1	28
593.283	1	26
593.622	1	30
593.962	1	24
594.301	1	32
594.641	1	25
594.981	1	20
595.320	1	8
595.660	1	22
595.999	1	16
596.339	1	38
596.678	1	21
597.018	1	24
597.358	1	15
597.697	1	23
598.037	1	14
598.376	1	27
598.716	1	26
599.055	1	38
599.395	1	22
599.734	1	25
600.074	1	18
600.413	1	31
600.753	1	20
601.092	1	30
601.432	1	15
601.771	1	21
602.111	1	26
602.451	1	37
602.790	1	22
603.130	1	31
603.469	1	27
603.809	1	26
604.148	1	26
604.487	1	17
604.827	1	27
605.166	1	29
605.506	1	24
605.845	1	30
606.185	1	23
606.524	1	21
606.864	1	28
607.203	1	16
607.543	1	24
607.882	1	30
608.222	1	26
608.561	1	24
608.901	1	34
609.240	1	15
609.579	1	28
609.919	1	36
610.258	1	33
610.598	1	21
610.937	1	26
611.277	1	27
611.616	1	23
611.955	1	18
612.295	1	19
612.634	1	22
612.974	1	13
613.313	1	28
613.652	1	26
613.992	1	25
614.331	1	18
614.671	1	29
615.010	1	11
615.349	1	24
615.689	1	29
616.028	1	10
616.368	1	10
616.707	1	19
617.046	1	16
617.386	1	35
617.725	1	12
618.064	1	8
618.404	1	15
618.743	1	26
619.082	1	21
619.422	1	8
619.761	1	26
620.100	1	19
620.440	1	14
620.779	1	11
621.118	1	14
621.458	1	21
621.797	1	17
622.136	1	35
622.476	1	25
622.815	1	9
623.154	1	25
623.494	1	31
623.833	1	18
624.172	1	18
624.511	1	19
624.851	1	13
625.190	1	12
625.529	1	14
625.869	1	22
626.208	1	7
626.547	1	10
626.886	1	14
627.226	1	14
627.565	1	18
627.904	1	7
628.243	1	14
628.583	1	10
628.922	1	12
629.261	1	24
629.600	1	24
629.940	1	11
630.279	1	6
630.618	1	1
630.957	1	24
631.297	1	11
631.636	1	7
631.975	1	25
632.314	1	19
632.653	1	20
632.993	1	19
633.332	1	23
633.671	1	11
634.010	1	11
634.349	1	15
634.689	1	24
635.028	1	13
635.367	1	10
635.706	1	24
636.045	1	20
636.384	1	16
636.724	1	22
637.063	1	11
637.402	1	15
637.741	1	11
638.080	1	14
638.419	1	11
638.759	1	-2
639.098	1	18
639.437	1	12
639.776	1	10
640.115	1	6
640.454	1	13
640.793	1	24
641.132	1	19
641.472	1	15
641.811	1	15
642.150	1	-1
642.489	1	19
642.828	1	6
643.167	1	7
643.506	1	-4
643.845	1	5
644.184	1	16
644.524	1	13
644.863	1	1
645.202	1	17
645.541	1	10
645.880	1	14
646.219	1	12
646.558	1	14
646.897	1	18
647.236	1	18
647.575	1	9
647.914	1	10
648.253	1	19
648.592	1	9
648.931	1	30
649.270	1	5
649.610	1	20
649.949	1	9
650.288	1	21
650.627	1	15
650.966	1	20
651.305	1	15
651.644	1	16
651.983	1	12
652.322	1	1
652.661	1	5
653.000	1	20
653.339	1	13
653.678	1	6
654.017	1	15
654.356	1	0
654.695	1	18
655.034	1	12
655.373	1	18
655.712	1	11
656.051	1	19
656.390	1	2
656.729	1	30
657.068	1	10
657.406	1	23
657.745	1	9
658.084	1	7
658.423	1	15
658.762	1	7
659.101	1	18
659.440	1	15
659.779	1	11
660.118	1	18
660.457	1	6
660.796	1	-11
661.135	1	4
661.474	1	15
661.813	1	19
662.152	1	7
662.491	1	11
662.829	1	1
663.168	1	6
663.507	1	17
663.846	1	11
664.185	1	10
664.524	1	10
664.863	1	12
665.202	1	10
665.541	1	4
665.879	1	2
666.218	1	3
666.557	1	1
666.896	1	4
667.235	1	17
667.574	1	18
667.913	1	11
668.251	1	5
668.590	1	12
668.929	1	1
669.268	1	8
669.607	1	2
669.946	1	0
670.285	1	24
670.623	1	3
670.962	1	10
671.301	1	10
671.640	1	9
671.979	1	17
672.317	1	6
672.656	1	14
672.995	1	13
673.334	1	15
673.673	1	11
674.011	1	10
674.350	1	15
674.689	1	2
675.028	1	9
675.367	1	17
675.705	1	15
676.044	1	17
676.383	1	11
676.722	1	10
677.060	1	4
677.399	1	13
677.738	1	12
678.077	1	10
678.416	1	3
678.754	1	13
679.093	1	16
679.432	1	4
679.771	1	5
680.109	1	27
680.448	1	13
680.787	1	3
681.125	1	12
681.464	1	4
681.803	1	2
682.142	1	13
682.480	1	23
682.819	1	15
683.158	1	9
683.496	1	10
683.835	1	12
684.174	1	16
684.512	1	18
684.851	1	18
685.190	1	3
685.529	1	9
685.867	1	9
686.206	1	11
686.545	1	7
686.883	1	10
687.222	1	15
687.561	1	20
687.899	1	7
688.238	1	17
688.577	1	10
688.746	1	10