File: Data/GaN_200K_800ms/GaN_sample F_spot 12_UVVIS_200 K_200um_800 ms 2x2mm1_94.txt
340.368	1	1
340.710	1	-5
341.052	1	3
341.394	1	4
341.737	1	17
342.079	1	0
342.421	1	2
342.763	1	8
343.105	1	1
343.447	1	1
343.789	1	6
344.131	1	0
344.473	1	-1
344.815	1	-2
345.157	1	-1
345.499	1	4
345.841	1	9
346.183	1	3
346.526	1	-2
346.868	1	16
347.210	1	-6
347.552	1	2
347.894	1	8
348.236	1	14
348.578	1	14
348.920	1	4
349.262	1	-3
349.604	1	3
349.946	1	-6
350.288	1	12
350.630	1	7
350.972	1	9
351.314	1	5
351.656	1	10
351.998	1	11
352.340	1	15
352.682	1	13
353.024	1	6
353.366	1	9
353.708	1	-1
354.050	1	0
354.392	1	-1
354.734	1	11
355.076	1	6
355.418	1	-2
355.760	1	12
356.102	1	16
356.444	1	9
356.785	1	18
357.127	1	7
357.469	1	19
357.811	1	9
358.153	1	25
358.495	1	22
358.837	1	17
359.179	1	17
359.521	1	24
359.863	1	18
360.205	1	18
360.547	1	35
360.889	1	27
361.231	1	16
361.572	1	21
361.914	1	34
362.256	1	31
362.598	1	19
362.940	1	28
363.282	1	44
363.624	1	47
363.966	1	47
364.308	1	48
364.649	1	50
364.991	1	56
365.333	1	63
365.675	1	59
366.017	1	66
366.359	1	73
366.701	1	79
367.042	1	92
367.384	1	91
367.726	1	93
368.068	1	107
368.410	1	104
368.752	1	106
369.093	1	103
369.435	1	118
369.777	1	108
370.119	1	92
370.461	1	124
370.803	1	108
371.144	1	99
371.486	1	110
371.828	1	93
372.170	1	97
372.512	1	95
372.853	1	83
373.195	1	84
373.537	1	86
373.879	1	76
374.220	1	94
374.562	1	75
374.904	1	58
375.246	1	69
375.588	1	69
375.929	1	64
376.271	1	71
376.613	1	57
376.955	1	39
377.296	1	41
377.638	1	48
377.980	1	44
378.321	1	39
378.663	1	42
379.005	1	49
379.347	1	34
379.688	1	45
380.030	1	34
380.372	1	32
380.714	1	36
381.055	1	44
381.397	1	32
381.739	1	38
382.080	1	26
382.422	1	27
382.764	1	27
383.105	1	31
383.447	1	19
383.789	1	24
384.130	1	18
384.472	1	19
384.814	1	23
385.156	1	16
385.497	1	30
385.839	1	20
386.180	1	27
386.522	1	27
386.864	1	18
387.205	1	10
387.547	1	13
387.889	1	15
388.230	1	15
388.572	1	15
388.914	1	15
389.255	1	14
389.597	1	21
389.939	1	22
390.280	1	18
390.622	1	14
390.963	1	19
391.305	1	17
391.647	1	8
391.988	1	9
392.330	1	14
392.671	1	3
393.013	1	1
393.355	1	18
393.696	1	6
394.038	1	9
394.379	1	8
394.721	1	7
395.062	1	13
395.404	1	1
395.746	1	11
396.087	1	12
396.429	1	5
396.770	1	7
397.112	1	16
397.453	1	23
397.795	1	15
398.136	1	1
398.478	1	8
398.819	1	11
399.161	1	15
399.503	1	6
399.844	1	1
400.186	1	9
400.527	1	0
400.869	1	-5
401.210	1	7
401.552	1	-3
401.893	1	7
402.235	1	8
402.576	1	2
402.918	1	10
403.259	1	10
403.601	1	3
403.942	1	10
404.284	1	14
404.625	1	1
404.967	1	5
405.308	1	5
405.649	1	-2
405.991	1	6
406.332	1	12
406.674	1	-6
407.015	1	12
407.357	1	-3
407.698	1	10
408.040	1	-2
408.381	1	3
408.722	1	-7
409.064	1	1
409.405	1	9
409.747	1	-2
410.088	1	12
410.430	1	1
410.771	1	6
411.112	1	0
411.454	1	2
411.795	1	-3
412.137	1	12
412.478	1	20
412.819	1	-5
413.161	1	-2
413.502	1	0
413.844	1	12
414.185	1	-2
414.526	1	6
414.868	1	1
415.209	1	14
415.550	1	-1
415.892	1	-3
416.233	1	13
416.575	1	18
416.916	1	-1
417.257	1	3
417.599	1	8
417.940	1	13
418.281	1	10
418.623	1	-3
418.964	1	-13
419.305	1	12
419.647	1	-10
419.988	1	0
420.329	1	-7
420.671	1	16
421.012	1	10
421.353	1	4
421.695	1	-2
422.036	1	6
422.377	1	-2
422.718	1	8
423.060	1	2
423.401	1	12
423.742	1	-2
424.084	1	5
424.425	1	7
424.766	1	3
425.107	1	-3
425.449	1	3
425.790	1	-8
426.131	1	5
426.472	1	2
426.814	1	6
427.155	1	-4
427.496	1	-1
427.837	1	-1
428.179	1	2
428.520	1	-2
428.861	1	0
429.202	1	1
429.544	1	1
429.885	1	10
430.226	1	-2
430.567	1	5
430.909	1	4
431.250	1	2
431.591	1	13
431.932	1	-1
432.273	1	-3
432.615	1	-6
432.956	1	-4
433.297	1	17
433.638	1	4
433.979	1	6
434.320	1	6
434.662	1	1
435.003	1	3
435.344	1	5
435.685	1	0
436.026	1	11
436.368	1	10
436.709	1	-4
437.050	1	-7
437.391	1	24
437.732	1	6
438.073	1	-7
438.414	1	-10
438.756	1	-6
439.097	1	-3
439.438	1	1
439.779	1	-5
440.120	1	-2
440.461	1	3
440.802	1	1
441.143	1	16
441.485	1	14
441.826	1	-2
442.167	1	4
442.508	1	0
442.849	1	14
443.190	1	5
443.531	1	3
443.872	1	14
444.213	1	6
444.554	1	8
444.895	1	-3
445.237	1	-1
445.578	1	-3
445.919	1	-11
446.260	1	-3
446.601	1	2
446.942	1	0
447.283	1	-8
447.624	1	5
447.965	1	2
448.306	1	-4
448.647	1	-9
448.988	1	-3
449.329	1	8
449.670	1	8
450.011	1	8
450.352	1	-8
450.693	1	-7
451.034	1	-2
451.375	1	2
451.716	1	17
452.057	1	0
452.398	1	5
452.739	1	4
453.080	1	1
453.421	1	2
453.762	1	0
454.103	1	0
454.444	1	-2
454.785	1	5
455.126	1	-6
455.467	1	3
455.808	1	1
456.149	1	4
456.490	1	6
456.831	1	14
457.172	1	-1
457.513	1	6
457.854	1	10
458.195	1	-3
458.536	1	7
458.877	1	2
459.218	1	-3
459.559	1	6
459.899	1	3
460.240	1	6
460.581	1	23
460.922	1	4
461.263	1	-14
461.604	1	-3
461.945	1	1
462.286	1	6
462.627	1	10
462.968	1	5
463.309	1	-5
463.649	1	3
463.990	1	9
464.331	1	3
464.672	1	-1
465.013	1	1
465.354	1	-2
465.695	1	-1
466.036	1	4
466.376	1	-5
466.717	1	7
467.058	1	2
467.399	1	9
467.740	1	3
468.081	1	6
468.422	1	1
468.762	1	-1
469.103	1	1
469.444	1	-9
469.785	1	-2
470.126	1	0
470.467	1	3
470.807	1	-3
471.148	1	4
471.489	1	1
471.830	1	-4
472.171	1	-1
472.511	1	-1
472.852	1	7
473.193	1	3
473.534	1	7
473.875	1	14
474.215	1	9
474.556	1	7
474.897	1	0
475.238	1	-4
475.578	1	-7
475.919	1	0
476.260	1	2
476.601	1	3
476.942	1	8
477.282	1	0
477.623	1	-10
477.964	1	1
478.305	1	-3
478.645	1	16
478.986	1	0
479.327	1	-4
479.667	1	0
480.008	1	-2
480.349	1	-1
480.690	1	-3
481.030	1	-8
481.371	1	11
481.712	1	-1
482.053	1	7
482.393	1	-5
482.734	1	-1
483.075	1	3
483.415	1	11
483.756	1	10
484.097	1	2
484.437	1	-1
484.778	1	1
485.119	1	-1
485.459	1	17
485.800	1	0
486.141	1	-5
486.481	1	8
486.822	1	7
487.163	1	7
487.503	1	2
487.844	1	3
488.185	1	7
488.525	1	0
488.866	1	2
489.207	1	5
489.547	1	-2
489.888	1	1
490.228	1	5
490.569	1	11
490.910	1	3
491.250	1	8
491.591	1	-8
491.932	1	4
492.272	1	5
492.613	1	9
492.953	1	-4
493.294	1	-2
493.635	1	1
493.975	1	-5
494.316	1	10
494.656	1	6
494.997	1	1
495.337	1	10
495.678	1	11
496.019	1	0
496.359	1	3
496.700	1	10
497.040	1	-1
497.381	1	0
497.721	1	-4
498.062	1	11
498.403	1	14
498.743	1	1
499.084	1	-2
499.424	1	0
499.765	1	-4
500.105	1	7
500.446	1	0
500.786	1	-3
501.127	1	12
501.467	1	-10
501.808	1	13
502.148	1	10
502.489	1	15
502.829	1	8
503.170	1	12
503.510	1	5
503.851	1	4
504.191	1	12
504.532	1	8
504.872	1	4
505.213	1	20
505.553	1	-1
505.894	1	-2
506.234	1	9
506.575	1	13
506.915	1	15
507.256	1	5
507.596	1	4
507.936	1	-1
508.277	1	3
508.617	1	1
508.958	1	1
509.298	1	2
509.639	1	5
509.979	1	5
510.319	1	6
510.660	1	5
511.000	1	1
511.341	1	8
511.681	1	6
512.022	1	1
512.362	1	6
512.702	1	3
513.043	1	7
513.383	1	3
513.724	1	18
514.064	1	7
514.404	1	1
514.745	1	6
515.085	1	9
515.425	1	11
515.766	1	1
516.106	1	13
516.447	1	11
516.787	1	6
517.127	1	3
517.468	1	0
517.808	1	4
518.148	1	6
518.489	1	8
518.829	1	11
519.169	1	13
519.510	1	7
519.850	1	12
520.190	1	7
520.531	1	5
520.871	1	11
521.211	1	5
521.552	1	10
521.892	1	8
522.232	1	8
522.573	1	8
522.913	1	11
523.253	1	12
523.593	1	3
523.934	1	8
524.274	1	8
524.614	1	5
524.955	1	-2
525.295	1	11
525.635	1	11
525.975	1	12
526.316	1	17
526.656	1	4
526.996	1	15
527.337	1	12
527.677	1	7
528.017	1	1
528.357	1	15
528.698	1	14
529.038	1	15
529.378	1	17
529.718	1	18
530.058	1	4
530.399	1	16
530.739	1	14
531.079	1	12
531.419	1	17
531.760	1	22
532.100	1	10
532.440	1	8
532.780	1	5
533.120	1	16
533.461	1	14
533.801	1	26
534.141	1	9
534.481	1	3
534.821	1	17
535.162	1	5
535.502	1	3
535.842	1	20
536.182	1	6
536.522	1	5
536.862	1	15
537.203	1	0
537.543	1	14
537.883	1	11
538.223	1	5
538.563	1	22
538.903	1	1
539.243	1	18
539.584	1	12
539.924	1	23
540.264	1	6
540.604	1	10
540.944	1	2
541.284	1	13
541.624	1	28
541.964	1	12
542.305	1	25
542.645	1	10
542.985	1	2
543.325	1	19
543.665	1	16
544.005	1	13
544.345	1	20
544.685	1	11
545.025	1	16
545.365	1	10
545.705	1	16
546.045	1	8
546.386	1	7
546.726	1	8
547.066	1	18
547.406	1	16
547.746	1	-2
548.086	1	12
548.426	1	7
548.766	1	11
549.106	1	5
549.446	1	5
549.786	1	5
550.126	1	24
550.466	1	24
550.806	1	17
551.146	1	2
551.486	1	16
551.826	1	27
552.166	1	9
552.506	1	25
552.846	1	25
553.186	1	19
553.526	1	11
553.866	1	13
554.206	1	18
554.546	1	24
554.886	1	17
555.226	1	5
555.566	1	22
555.906	1	16
556.246	1	9
556.586	1	10
556.926	1	17
557.266	1	2
557.606	1	7
557.946	1	20
558.286	1	15
558.626	1	19
558.966	1	15
559.306	1	8
559.646	1	9
559.986	1	6
560.325	1	12
560.665	1	2
561.005	1	9
561.345	1	18
561.685	1	17
562.025	1	9
562.365	1	12
562.705	1	18
563.045	1	7
563.385	1	1
563.725	1	9
564.064	1	9
564.404	1	15
564.744	1	16
565.084	1	14
565.424	1	21
565.764	1	11
566.104	1	6
566.444	1	9
566.783	1	-5
567.123	1	18
567.463	1	25
567.803	1	3
568.143	1	19
568.483	1	14
568.823	1	16
569.162	1	15
569.502	1	11
569.842	1	15
570.182	1	12
570.522	1	5
570.862	1	11
571.201	1	14
571.541	1	18
571.881	1	24
572.221	1	6
572.561	1	11
572.900	1	-1
573.240	1	15
573.580	1	12
573.920	1	15
574.260	1	16
574.599	1	19
574.939	1	12
575.279	1	34
575.619	1	25
575.959	1	6
576.298	1	28
576.638	1	7
576.978	1	14
577.318	1	23
577.657	1	9
577.997	1	18
578.337	1	30
578.677	1	20
579.016	1	30
579.356	1	10
579.696	1	9
580.036	1	7
580.375	1	15
580.715	1	17
581.055	1	12
581.394	1	13
581.734	1	8
582.074	1	9
582.414	1	21
582.753	1	18
583.093	1	10
583.433	1	14
583.772	1	21
584.112	1	14
584.452	1	15
584.791	1	14
585.131	1	10
585.471	1	24
585.811	1	14
586.150	1	10
586.490	1	18
586.830	1	7
587.169	1	7
587.509	1	8
587.849	1	17
588.188	1	21
588.528	1	12
588.867	1	22
589.207	1	14
589.547	1	13
589.886	1	4
590.226	1	13
590.566	1	5
590.905	1	7
591.245	1	8
591.585	1	23
591.924	1	3
592.264	1	11
592.603	1	11
592.943	1	14
593.283	1	13
593.622	1	11
593.962	1	8
594.301	1	15
594.641	1	10
594.981	1	12
595.320	1	14
595.660	1	2
595.999	1	3
596.339	1	17
596.678	1	4
597.018	1	9
597.358	1	8
597.697	1	6
598.037	1	12
598.376	1	22
598.716	1	17
599.055	1	21
599.395	1	9
599.734	1	10
600.074	1	9
600.413	1	24
600.753	1	16
601.092	1	23
601.432	1	-1
601.771	1	9
602.111	1	8
602.451	1	18
602.790	1	9
603.130	1	12
603.469	1	9
603.809	1	19
604.148	1	13
604.487	1	12
604.827	1	12
605.166	1	9
605.506	1	4
605.845	1	17
606.185	1	14
606.524	1	16
606.864	1	8
607.203	1	15
607.543	1	5
607.882	1	21
608.222	1	16
608.561	1	7
608.901	1	10
609.240	1	8
609.579	1	21
609.919	1	13
610.258	1	22
610.598	1	9
610.937	1	8
611.277	1	7
611.616	1	0
611.955	1	8
612.295	1	6
612.634	1	12
612.974	1	4
613.313	1	18
613.652	1	16
613.992	1	5
614.331	1	6
614.671	1	2
615.010	1	2
615.349	1	16
615.689	1	4
616.028	1	15
616.368	1	8
616.707	1	5
617.046	1	14
617.386	1	7
617.725	1	-7
618.064	1	5
618.404	1	7
618.743	1	10
619.082	1	18
619.422	1	3
619.761	1	13
620.100	1	6
620.440	1	12
620.779	1	1
621.118	1	16
621.458	1	0
621.797	1	12
622.136	1	14
622.476	1	16
622.815	1	18
623.154	1	7
623.494	1	23
623.833	1	7
624.172	1	10
624.511	1	6
624.851	1	-5
625.190	1	9
625.529	1	5
625.869	1	16
626.208	1	8
626.547	1	16
626.886	1	8
627.226	1	10
627.565	1	8
627.904	1	1
628.243	1	11
628.583	1	3
628.922	1	17
629.261	1	14
629.600	1	13
629.940	1	9
630.279	1	1
630.618	1	10
630.957	1	3
631.297	1	8
631.636	1	2
631.975	1	10
632.314	1	5
632.653	1	6
632.993	1	5
633.332	1	3
633.671	1	5
634.010	1	4
634.349	1	20
634.689	1	3
635.028	1	12
635.367	1	8
635.706	1	10
636.045	1	22
636.384	1	2
636.724	1	6
637.063	1	11
637.402	1	9
637.741	1	12
638.080	1	10
638.419	1	3
638.759	1	1
639.098	1	21
639.437	1	13
639.776	1	0
640.115	1	-4
640.454	1	13
640.793	1	14
641.132	1	11
641.472	1	12
641.811	1	11
642.150	1	6
642.489	1	3
642.828	1	-4
643.167	1	7
643.506	1	-12
643.845	1	3
644.184	1	13
644.524	1	0
644.863	1	-5
645.202	1	6
645.541	1	17
645.880	1	6
646.219	1	8
646.558	1	5
646.897	1	8
647.236	1	2
647.575	1	7
647.914	1	-2
648.253	1	17
648.592	1	4
648.931	1	11
649.270	1	1
649.610	1	2
649.949	1	3
650.288	1	11
650.627	1	5
650.966	1	13
651.305	1	4
651.644	1	21
651.983	1	11
652.322	1	1
652.661	1	1
653.000	1	1
653.339	1	9
653.678	1	4
654.017	1	9
654.356	1	4
654.695	1	4
655.034	1	6
655.373	1	10
655.712	1	10
656.051	1	4
656.390	1	4
656.729	1	15
657.068	1	9
657.406	1	4
657.745	1	-3
658.084	1	3
658.423	1	11
658.762	1	2
659.101	1	17
659.440	1	9
659.779	1	1
660.118	1	6
660.457	1	9
660.796	1	-1
661.135	1	2
661.474	1	9
661.813	1	24
662.152	1	7
662.491	1	2
662.829	1	-3
663.168	1	6
663.507	1	22
663.846	1	-3
664.185	1	3
664.524	1	3
664.863	1	8
665.202	1	15
665.541	1	-3
665.879	1	0
666.218	1	11
666.557	1	6
666.896	1	-5
667.235	1	15
667.574	1	4
667.913	1	4
668.251	1	3
668.590	1	6
668.929	1	-2
669.268	1	7
669.607	1	3
669.946	1	9
670.285	1	12
670.623	1	6
670.962	1	1
671.301	1	0
671.640	1	9
671.979	1	7
672.317	1	8
672.656	1	4
672.995	1	5
673.334	1	7
673.673	1	-2
674.011	1	2
674.350	1	8
674.689	1	7
675.028	1	-1
675.367	1	13
675.705	1	4
676.044	1	6
676.383	1	2
676.722	1	7
677.060	1	1
677.399	1	8
677.738	1	4
678.077	1	10
678.416	1	10
678.754	1	4
679.093	1	4
679.432	1	1
679.771	1	13
680.109	1	8
680.448	1	1
680.787	1	2
681.125	1	3
681.464	1	4
681.803	1	13
682.142	1	11
682.480	1	17
682.819	1	6
683.158	1	-2
683.496	1	7
683.835	1	3
684.174	1	4
684.512	1	6
684.851	1	7
685.190	1	0
685.529	1	5
685.867	1	0
686.206	1	6
686.545	1	-1
686.883	1	9
687.222	1	3
687.561	1	13
687.899	1	7
688.238	1	11
688.577	1	4
688.746	1	16