File: Data/GaN_200K_800ms/GaN_sample F_spot 12_UVVIS_200 K_200um_800 ms 2x2mm1_21.txt
340.368	1	3
340.710	1	-1
341.052	1	12
341.394	1	3
341.737	1	10
342.079	1	-6
342.421	1	-7
342.763	1	5
343.105	1	4
343.447	1	0
343.789	1	-1
344.131	1	7
344.473	1	-1
344.815	1	6
345.157	1	-5
345.499	1	-2
345.841	1	14
346.183	1	0
346.526	1	0
346.868	1	1
347.210	1	-3
347.552	1	-5
347.894	1	-1
348.236	1	9
348.578	1	-5
348.920	1	2
349.262	1	-5
349.604	1	9
349.946	1	1
350.288	1	4
350.630	1	11
350.972	1	-3
351.314	1	4
351.656	1	5
351.998	1	10
352.340	1	-1
352.682	1	8
353.024	1	10
353.366	1	13
353.708	1	9
354.050	1	-8
354.392	1	-1
354.734	1	5
355.076	1	3
355.418	1	-6
355.760	1	-1
356.102	1	4
356.444	1	5
356.785	1	2
357.127	1	3
357.469	1	0
357.811	1	-4
358.153	1	12
358.495	1	5
358.837	1	-6
359.179	1	0
359.521	1	4
359.863	1	6
360.205	1	-6
360.547	1	11
360.889	1	-12
361.231	1	3
361.572	1	5
361.914	1	-3
362.256	1	6
362.598	1	-1
362.940	1	-2
363.282	1	4
363.624	1	7
363.966	1	1
364.308	1	-5
364.649	1	2
364.991	1	4
365.333	1	-1
365.675	1	-9
366.017	1	0
366.359	1	-6
366.701	1	-8
367.042	1	1
367.384	1	4
367.726	1	-10
368.068	1	7
368.410	1	13
368.752	1	-13
369.093	1	-7
369.435	1	7
369.777	1	-4
370.119	1	-6
370.461	1	7
370.803	1	1
371.144	1	-2
371.486	1	4
371.828	1	-2
372.170	1	3
372.512	1	-3
372.853	1	-1
373.195	1	0
373.537	1	2
373.879	1	0
374.220	1	6
374.562	1	8
374.904	1	-5
375.246	1	3
375.588	1	1
375.929	1	4
376.271	1	8
376.613	1	-5
376.955	1	0
377.296	1	1
377.638	1	-3
377.980	1	8
378.321	1	-10
378.663	1	-14
379.005	1	1
379.347	1	7
379.688	1	10
380.030	1	0
380.372	1	-1
380.714	1	13
381.055	1	8
381.397	1	-5
381.739	1	1
382.080	1	0
382.422	1	-6
382.764	1	2
383.105	1	-3
383.447	1	0
383.789	1	-9
384.130	1	-3
384.472	1	4
384.814	1	2
385.156	1	-7
385.497	1	4
385.839	1	0
386.180	1	-2
386.522	1	9
386.864	1	2
387.205	1	-10
387.547	1	-2
387.889	1	-1
388.230	1	10
388.572	1	1
388.914	1	-1
389.255	1	-2
389.597	1	3
389.939	1	-6
390.280	1	-3
390.622	1	-6
390.963	1	7
391.305	1	1
391.647	1	6
391.988	1	0
392.330	1	14
392.671	1	-2
393.013	1	9
393.355	1	5
393.696	1	2
394.038	1	7
394.379	1	-4
394.721	1	-6
395.062	1	5
395.404	1	-3
395.746	1	5
396.087	1	-11
396.429	1	10
396.770	1	-2
397.112	1	13
397.453	1	11
397.795	1	-2
398.136	1	-2
398.478	1	9
398.819	1	4
399.161	1	8
399.503	1	-2
399.844	1	4
400.186	1	-3
400.527	1	-3
400.869	1	0
401.210	1	10
401.552	1	-1
401.893	1	5
402.235	1	1
402.576	1	2
402.918	1	11
403.259	1	2
403.601	1	-5
403.942	1	7
404.284	1	10
404.625	1	9
404.967	1	-3
405.308	1	6
405.649	1	1
405.991	1	0
406.332	1	5
406.674	1	2
407.015	1	3
407.357	1	-2
407.698	1	13
408.040	1	-1
408.381	1	5
408.722	1	-13
409.064	1	1
409.405	1	5
409.747	1	-1
410.088	1	0
410.430	1	10
410.771	1	1
411.112	1	-1
411.454	1	-3
411.795	1	-1
412.137	1	6
412.478	1	13
412.819	1	-4
413.161	1	-2
413.502	1	-4
413.844	1	15
414.185	1	6
414.526	1	-5
414.868	1	1
415.209	1	-5
415.550	1	-3
415.892	1	2
416.233	1	15
416.575	1	10
416.916	1	-3
417.257	1	3
417.599	1	3
417.940	1	4
418.281	1	5
418.623	1	-5
418.964	1	-4
419.305	1	3
419.647	1	-8
419.988	1	3
420.329	1	-3
420.671	1	6
421.012	1	-1
421.353	1	-1
421.695	1	-8
422.036	1	-3
422.377	1	2
422.718	1	8
423.060	1	-12
423.401	1	2
423.742	1	-1
424.084	1	-5
424.425	1	1
424.766	1	-2
425.107	1	-1
425.449	1	2
425.790	1	-14
426.131	1	1
426.472	1	-2
426.814	1	-2
427.155	1	-2
427.496	1	2
427.837	1	-7
428.179	1	-3
428.520	1	2
428.861	1	4
429.202	1	-3
429.544	1	-1
429.885	1	2
430.226	1	-1
430.567	1	-3
430.909	1	6
431.250	1	0
431.591	1	11
431.932	1	3
432.273	1	-1
432.615	1	-7
432.956	1	-5
433.297	1	-3
433.638	1	-1
433.979	1	-4
434.320	1	-2
434.662	1	-1
435.003	1	5
435.344	1	3
435.685	1	-1
436.026	1	18
436.368	1	1
436.709	1	1
437.050	1	2
437.391	1	10
437.732	1	-9
438.073	1	-4
438.414	1	-1
438.756	1	-2
439.097	1	0
439.438	1	-5
439.779	1	0
440.120	1	1
440.461	1	8
440.802	1	-4
441.143	1	4
441.485	1	-2
441.826	1	7
442.167	1	2
442.508	1	-5
442.849	1	12
443.190	1	-2
443.531	1	11
443.872	1	7
444.213	1	8
444.554	1	14
444.895	1	-12
445.237	1	-4
445.578	1	0
445.919	1	-8
446.260	1	-3
446.601	1	5
446.942	1	-2
447.283	1	-1
447.624	1	-2
447.965	1	0
448.306	1	-2
448.647	1	-7
448.988	1	0
449.329	1	3
449.670	1	12
450.011	1	7
450.352	1	6
450.693	1	-2
451.034	1	-8
451.375	1	14
451.716	1	0
452.057	1	0
452.398	1	1
452.739	1	6
453.080	1	1
453.421	1	-2
453.762	1	6
454.103	1	2
454.444	1	0
454.785	1	0
455.126	1	-3
455.467	1	-1
455.808	1	10
456.149	1	3
456.490	1	-2
456.831	1	10
457.172	1	0
457.513	1	0
457.854	1	3
458.195	1	-1
458.536	1	7
458.877	1	-2
459.218	1	6
459.559	1	6
459.899	1	0
460.240	1	3
460.581	1	9
460.922	1	10
461.263	1	8
461.604	1	-4
461.945	1	3
462.286	1	0
462.627	1	6
462.968	1	0
463.309	1	-1
463.649	1	-8
463.990	1	8
464.331	1	-4
464.672	1	0
465.013	1	3
465.354	1	4
465.695	1	-7
466.036	1	1
466.376	1	-6
466.717	1	1
467.058	1	-1
467.399	1	9
467.740	1	-4
468.081	1	-2
468.422	1	2
468.762	1	-7
469.103	1	-5
469.444	1	-6
469.785	1	-12
470.126	1	-13
470.467	1	-17
470.807	1	2
471.148	1	6
471.489	1	2
471.830	1	6
472.171	1	0
472.511	1	-10
472.852	1	5
473.193	1	2
473.534	1	3
473.875	1	15
474.215	1	9
474.556	1	-5
474.897	1	0
475.238	1	-6
475.578	1	-1
475.919	1	-1
476.260	1	1
476.601	1	-1
476.942	1	7
477.282	1	-8
477.623	1	-5
477.964	1	-10
478.305	1	-1
478.645	1	-5
478.986	1	2
479.327	1	-13
479.667	1	3
480.008	1	-4
480.349	1	-7
480.690	1	6
481.030	1	-1
481.371	1	7
481.712	1	3
482.053	1	5
482.393	1	9
482.734	1	2
483.075	1	-6
483.415	1	-3
483.756	1	1
484.097	1	-3
484.437	1	-8
484.778	1	-3
485.119	1	-3
485.459	1	17
485.800	1	7
486.141	1	4
486.481	1	0
486.822	1	9
487.163	1	1
487.503	1	9
487.844	1	-1
488.185	1	0
488.525	1	-5
488.866	1	5
489.207	1	7
489.547	1	1
489.888	1	3
490.228	1	5
490.569	1	10
490.910	1	2
491.250	1	-3
491.591	1	3
491.932	1	-5
492.272	1	-1
492.613	1	-3
492.953	1	9
493.294	1	-4
493.635	1	5
493.975	1	-3
494.316	1	2
494.656	1	-10
494.997	1	-2
495.337	1	3
495.678	1	6
496.019	1	-12
496.359	1	4
496.700	1	2
497.040	1	-14
497.381	1	1
497.721	1	2
498.062	1	0
498.403	1	-2
498.743	1	3
499.084	1	5
499.424	1	3
499.765	1	5
500.105	1	0
500.446	1	-12
500.786	1	-3
501.127	1	-1
501.467	1	-3
501.808	1	2
502.148	1	6
502.489	1	6
502.829	1	6
503.170	1	11
503.510	1	1
503.851	1	-10
504.191	1	6
504.532	1	8
504.872	1	4
505.213	1	11
505.553	1	-8
505.894	1	-10
506.234	1	14
506.575	1	7
506.915	1	12
507.256	1	4
507.596	1	8
507.936	1	7
508.277	1	-1
508.617	1	-2
508.958	1	-13
509.298	1	-1
509.639	1	-7
509.979	1	-7
510.319	1	8
510.660	1	-4
511.000	1	0
511.341	1	-4
511.681	1	5
512.022	1	-5
512.362	1	-6
512.702	1	-3
513.043	1	0
513.383	1	-6
513.724	1	4
514.064	1	14
514.404	1	0
514.745	1	-7
515.085	1	1
515.425	1	6
515.766	1	-7
516.106	1	5
516.447	1	13
516.787	1	11
517.127	1	1
517.468	1	2
517.808	1	-4
518.148	1	1
518.489	1	-3
518.829	1	12
519.169	1	-7
519.510	1	3
519.850	1	7
520.190	1	-5
520.531	1	9
520.871	1	2
521.211	1	-7
521.552	1	3
521.892	1	11
522.232	1	-2
522.573	1	2
522.913	1	-5
523.253	1	1
523.593	1	5
523.934	1	2
524.274	1	-2
524.614	1	0
524.955	1	2
525.295	1	9
525.635	1	0
525.975	1	0
526.316	1	5
526.656	1	1
526.996	1	-4
527.337	1	-10
527.677	1	9
528.017	1	-3
528.357	1	-4
528.698	1	-1
529.038	1	7
529.378	1	10
529.718	1	10
530.058	1	6
530.399	1	10
530.739	1	10
531.079	1	4
531.419	1	11
531.760	1	-1
532.100	1	-6
532.440	1	-1
532.780	1	4
533.120	1	12
533.461	1	9
533.801	1	10
534.141	1	1
534.481	1	-5
534.821	1	11
535.162	1	-3
535.502	1	2
535.842	1	9
536.182	1	3
536.522	1	-1
536.862	1	14
537.203	1	-12
537.543	1	-3
537.883	1	-6
538.223	1	1
538.563	1	8
538.903	1	-3
539.243	1	-5
539.584	1	-7
539.924	1	9
540.264	1	-3
540.604	1	-1
540.944	1	-4
541.284	1	3
541.624	1	7
541.964	1	5
542.305	1	3
542.645	1	-3
542.985	1	5
543.325	1	6
543.665	1	11
544.005	1	9
544.345	1	8
544.685	1	1
545.025	1	-4
545.365	1	0
545.705	1	-1
546.045	1	-9
546.386	1	5
546.726	1	-10
547.066	1	8
547.406	1	14
547.746	1	-7
548.086	1	2
548.426	1	2
548.766	1	-2
549.106	1	7
549.446	1	-8
549.786	1	-7
550.126	1	7
550.466	1	-5
550.806	1	-3
551.146	1	3
551.486	1	-8
551.826	1	0
552.166	1	9
552.506	1	4
552.846	1	0
553.186	1	12
553.526	1	-7
553.866	1	-2
554.206	1	2
554.546	1	-2
554.886	1	-1
555.226	1	-2
555.566	1	-1
555.906	1	10
556.246	1	7
556.586	1	-2
556.926	1	6
557.266	1	-9
557.606	1	4
557.946	1	8
558.286	1	9
558.626	1	8
558.966	1	4
559.306	1	-3
559.646	1	-1
559.986	1	-5
560.325	1	-2
560.665	1	3
561.005	1	-1
561.345	1	-2
561.685	1	-7
562.025	1	1
562.365	1	9
562.705	1	3
563.045	1	-1
563.385	1	-7
563.725	1	3
564.064	1	0
564.404	1	10
564.744	1	6
565.084	1	-4
565.424	1	-3
565.764	1	-2
566.104	1	8
566.444	1	2
566.783	1	-5
567.123	1	1
567.463	1	8
567.803	1	-2
568.143	1	1
568.483	1	4
568.823	1	0
569.162	1	4
569.502	1	-6
569.842	1	0
570.182	1	-6
570.522	1	-9
570.862	1	3
571.201	1	8
571.541	1	6
571.881	1	13
572.221	1	-7
572.561	1	-1
572.900	1	-2
573.240	1	-1
573.580	1	-1
573.920	1	0
574.260	1	6
574.599	1	-3
574.939	1	0
575.279	1	11
575.619	1	3
575.959	1	-8
576.298	1	8
576.638	1	-3
576.978	1	-1
577.318	1	10
577.657	1	-13
577.997	1	0
578.337	1	6
578.677	1	1
579.016	1	13
579.356	1	3
579.696	1	9
580.036	1	-1
580.375	1	-9
580.715	1	0
581.055	1	-1
581.394	1	1
581.734	1	-7
582.074	1	-5
582.414	1	5
582.753	1	1
583.093	1	-3
583.433	1	0
583.772	1	5
584.112	1	-3
584.452	1	7
584.791	1	-9
585.131	1	5
585.471	1	5
585.811	1	1
586.150	1	-5
586.490	1	0
586.830	1	4
587.169	1	3
587.509	1	-2
587.849	1	4
588.188	1	7
588.528	1	3
588.867	1	-1
589.207	1	-1
589.547	1	-3
589.886	1	-2
590.226	1	2
590.566	1	-4
590.905	1	0
591.245	1	-3
591.585	1	2
591.924	1	-4
592.264	1	5
592.603	1	-9
592.943	1	4
593.283	1	-2
593.622	1	4
593.962	1	11
594.301	1	9
594.641	1	-10
594.981	1	-8
595.320	1	9
595.660	1	-3
595.999	1	-6
596.339	1	4
596.678	1	-5
597.018	1	-9
597.358	1	-4
597.697	1	-1
598.037	1	-6
598.376	1	-3
598.716	1	10
599.055	1	10
599.395	1	-4
599.734	1	-7
600.074	1	1
600.413	1	4
600.753	1	5
601.092	1	10
601.432	1	-3
601.771	1	-1
602.111	1	2
602.451	1	7
602.790	1	-4
603.130	1	7
603.469	1	-15
603.809	1	8
604.148	1	1
604.487	1	-1
604.827	1	8
605.166	1	-2
605.506	1	0
605.845	1	-1
606.185	1	11
606.524	1	-4
606.864	1	6
607.203	1	0
607.543	1	4
607.882	1	-1
608.222	1	6
608.561	1	4
608.901	1	16
609.240	1	-10
609.579	1	3
609.919	1	16
610.258	1	4
610.598	1	0
610.937	1	-1
611.277	1	5
611.616	1	-1
611.955	1	1
612.295	1	-2
612.634	1	-6
612.974	1	-7
613.313	1	10
613.652	1	2
613.992	1	0
614.331	1	-2
614.671	1	7
615.010	1	-16
615.349	1	8
615.689	1	7
616.028	1	6
616.368	1	3
616.707	1	2
617.046	1	3
617.386	1	-6
617.725	1	4
618.064	1	-2
618.404	1	-8
618.743	1	6
619.082	1	4
619.422	1	-11
619.761	1	-2
620.100	1	7
620.440	1	-1
620.779	1	-3
621.118	1	1
621.458	1	-2
621.797	1	3
622.136	1	8
622.476	1	2
622.815	1	10
623.154	1	-1
623.494	1	10
623.833	1	3
624.172	1	2
624.511	1	-15
624.851	1	-6
625.190	1	-1
625.529	1	4
625.869	1	8
626.208	1	-1
626.547	1	2
626.886	1	8
627.226	1	12
627.565	1	5
627.904	1	-1
628.243	1	11
628.583	1	3
628.922	1	4
629.261	1	8
629.600	1	6
629.940	1	8
630.279	1	4
630.618	1	4
630.957	1	0
631.297	1	0
631.636	1	-11
631.975	1	8
632.314	1	2
632.653	1	-3
632.993	1	-2
633.332	1	6
633.671	1	-5
634.010	1	3
634.349	1	4
634.689	1	-1
635.028	1	7
635.367	1	9
635.706	1	4
636.045	1	3
636.384	1	-11
636.724	1	-4
637.063	1	7
637.402	1	1
637.741	1	2
638.080	1	2
638.419	1	-5
638.759	1	-5
639.098	1	7
639.437	1	1
639.776	1	-6
640.115	1	-2
640.454	1	-4
640.793	1	10
641.132	1	13
641.472	1	6
641.811	1	6
642.150	1	-12
642.489	1	6
642.828	1	-1
643.167	1	-7
643.506	1	-13
643.845	1	3
644.184	1	10
644.524	1	-3
644.863	1	-6
645.202	1	-7
645.541	1	3
645.880	1	7
646.219	1	8
646.558	1	2
646.897	1	3
647.236	1	2
647.575	1	5
647.914	1	4
648.253	1	12
648.592	1	4
648.931	1	5
649.270	1	-3
649.610	1	-2
649.949	1	1
650.288	1	2
650.627	1	-1
650.966	1	8
651.305	1	8
651.644	1	10
651.983	1	-3
652.322	1	-5
652.661	1	-3
653.000	1	4
653.339	1	6
653.678	1	1
654.017	1	4
654.356	1	-6
654.695	1	0
655.034	1	9
655.373	1	-2
655.712	1	-7
656.051	1	-6
656.390	1	-1
656.729	1	16
657.068	1	2
657.406	1	7
657.745	1	-1
658.084	1	-2
658.423	1	6
658.762	1	-4
659.101	1	16
659.440	1	7
659.779	1	4
660.118	1	1
660.457	1	13
660.796	1	-6
661.135	1	-7
661.474	1	-3
661.813	1	6
662.152	1	1
662.491	1	-3
662.829	1	-3
663.168	1	4
663.507	1	3
663.846	1	-9
664.185	1	7
664.524	1	4
664.863	1	0
665.202	1	-1
665.541	1	-3
665.879	1	-6
666.218	1	-6
666.557	1	4
666.896	1	-4
667.235	1	5
667.574	1	-3
667.913	1	6
668.251	1	8
668.590	1	0
668.929	1	-8
669.268	1	2
669.607	1	-5
669.946	1	2
670.285	1	0
670.623	1	0
670.962	1	-1
671.301	1	-7
671.640	1	4
671.979	1	1
672.317	1	4
672.656	1	0
672.995	1	6
673.334	1	0
673.673	1	3
674.011	1	1
674.350	1	-1
674.689	1	4
675.028	1	-4
675.367	1	0
675.705	1	3
676.044	1	-7
676.383	1	-2
676.722	1	7
677.060	1	-4
677.399	1	-1
677.738	1	16
678.077	1	10
678.416	1	6
678.754	1	-4
679.093	1	9
679.432	1	-4
679.771	1	-2
680.109	1	7
680.448	1	-5
680.787	1	-3
681.125	1	1
681.464	1	6
681.803	1	1
682.142	1	5
682.480	1	15
682.819	1	2
683.158	1	-1
683.496	1	3
683.835	1	0
684.174	1	0
684.512	1	-3
684.851	1	4
685.190	1	6
685.529	1	-7
685.867	1	3
686.206	1	-5
686.545	1	-5
686.883	1	5
687.222	1	1
687.561	1	-3
687.899	1	-4
688.238	1	1
688.577	1	-1
688.746	1	-1