File: Data/GaN_200K_800ms/GaN_sample F_spot 12_UVVIS_200 K_200um_800 ms 2x2mm1_341.txt
340.368	1	5
340.710	1	0
341.052	1	8
341.394	1	-1
341.737	1	0
342.079	1	-8
342.421	1	-1
342.763	1	4
343.105	1	0
343.447	1	-14
343.789	1	-6
344.131	1	-5
344.473	1	1
344.815	1	-2
345.157	1	-11
345.499	1	-1
345.841	1	4
346.183	1	-6
346.526	1	-10
346.868	1	6
347.210	1	-11
347.552	1	-1
347.894	1	-5
348.236	1	7
348.578	1	4
348.920	1	-9
349.262	1	-2
349.604	1	2
349.946	1	-8
350.288	1	11
350.630	1	1
350.972	1	-4
351.314	1	-5
351.656	1	-3
351.998	1	4
352.340	1	-1
352.682	1	-1
353.024	1	-2
353.366	1	5
353.708	1	1
354.050	1	-4
354.392	1	-13
354.734	1	1
355.076	1	2
355.418	1	-7
355.760	1	-7
356.102	1	6
356.444	1	8
356.785	1	18
357.127	1	-1
357.469	1	1
357.811	1	8
358.153	1	6
358.495	1	6
358.837	1	-11
359.179	1	8
359.521	1	2
359.863	1	-1
360.205	1	4
360.547	1	7
360.889	1	-1
361.231	1	-1
361.572	1	8
361.914	1	3
362.256	1	2
362.598	1	-2
362.940	1	-7
363.282	1	9
363.624	1	10
363.966	1	-7
364.308	1	0
364.649	1	3
364.991	1	7
365.333	1	5
365.675	1	7
366.017	1	11
366.359	1	9
366.701	1	2
367.042	1	15
367.384	1	14
367.726	1	8
368.068	1	3
368.410	1	25
368.752	1	-4
369.093	1	6
369.435	1	17
369.777	1	8
370.119	1	6
370.461	1	18
370.803	1	10
371.144	1	9
371.486	1	13
371.828	1	11
372.170	1	18
372.512	1	8
372.853	1	5
373.195	1	8
373.537	1	11
373.879	1	6
374.220	1	9
374.562	1	10
374.904	1	2
375.246	1	4
375.588	1	12
375.929	1	6
376.271	1	11
376.613	1	0
376.955	1	-7
377.296	1	1
377.638	1	5
377.980	1	7
378.321	1	-3
378.663	1	0
379.005	1	12
379.347	1	10
379.688	1	9
380.030	1	3
380.372	1	3
380.714	1	11
381.055	1	3
381.397	1	6
381.739	1	4
382.080	1	10
382.422	1	5
382.764	1	-2
383.105	1	-1
383.447	1	0
383.789	1	-6
384.130	1	-8
384.472	1	-2
384.814	1	-3
385.156	1	2
385.497	1	0
385.839	1	-1
386.180	1	3
386.522	1	10
386.864	1	2
387.205	1	2
387.547	1	-1
387.889	1	-3
388.230	1	1
388.572	1	1
388.914	1	8
389.255	1	-6
389.597	1	-1
389.939	1	-5
390.280	1	11
390.622	1	0
390.963	1	18
391.305	1	9
391.647	1	-4
391.988	1	6
392.330	1	9
392.671	1	2
393.013	1	-2
393.355	1	4
393.696	1	3
394.038	1	3
394.379	1	1
394.721	1	-4
395.062	1	4
395.404	1	-8
395.746	1	0
396.087	1	-3
396.429	1	0
396.770	1	1
397.112	1	0
397.453	1	17
397.795	1	8
398.136	1	-19
398.478	1	3
398.819	1	0
399.161	1	11
399.503	1	4
399.844	1	3
400.186	1	1
400.527	1	5
400.869	1	0
401.210	1	0
401.552	1	-9
401.893	1	2
402.235	1	8
402.576	1	0
402.918	1	1
403.259	1	5
403.601	1	4
403.942	1	10
404.284	1	9
404.625	1	12
404.967	1	2
405.308	1	10
405.649	1	-3
405.991	1	-2
406.332	1	1
406.674	1	-4
407.015	1	0
407.357	1	-7
407.698	1	5
408.040	1	-10
408.381	1	1
408.722	1	-16
409.064	1	-1
409.405	1	8
409.747	1	6
410.088	1	-3
410.430	1	-3
410.771	1	8
411.112	1	-8
411.454	1	-1
411.795	1	-2
412.137	1	4
412.478	1	7
412.819	1	-3
413.161	1	-6
413.502	1	2
413.844	1	0
414.185	1	6
414.526	1	0
414.868	1	2
415.209	1	-3
415.550	1	2
415.892	1	-6
416.233	1	3
416.575	1	7
416.916	1	-1
417.257	1	1
417.599	1	-2
417.940	1	1
418.281	1	1
418.623	1	-1
418.964	1	-4
419.305	1	-6
419.647	1	-2
419.988	1	-9
420.329	1	-13
420.671	1	0
421.012	1	0
421.353	1	1
421.695	1	-8
422.036	1	-2
422.377	1	0
422.718	1	6
423.060	1	-5
423.401	1	3
423.742	1	5
424.084	1	-5
424.425	1	10
424.766	1	2
425.107	1	-2
425.449	1	2
425.790	1	-15
426.131	1	0
426.472	1	1
426.814	1	3
427.155	1	-8
427.496	1	-4
427.837	1	-7
428.179	1	-9
428.520	1	1
428.861	1	5
429.202	1	2
429.544	1	-11
429.885	1	3
430.226	1	-9
430.567	1	1
430.909	1	9
431.250	1	0
431.591	1	6
431.932	1	1
432.273	1	-11
432.615	1	-1
432.956	1	-3
433.297	1	4
433.638	1	7
433.979	1	6
434.320	1	7
434.662	1	-4
435.003	1	1
435.344	1	7
435.685	1	-5
436.026	1	7
436.368	1	1
436.709	1	-1
437.050	1	0
437.391	1	4
437.732	1	-5
438.073	1	5
438.414	1	-14
438.756	1	-5
439.097	1	-9
439.438	1	-10
439.779	1	-5
440.120	1	-3
440.461	1	-6
440.802	1	0
441.143	1	7
441.485	1	2
441.826	1	2
442.167	1	1
442.508	1	-1
442.849	1	8
443.190	1	-4
443.531	1	1
443.872	1	-3
444.213	1	4
444.554	1	5
444.895	1	-3
445.237	1	-4
445.578	1	-8
445.919	1	-12
446.260	1	-9
446.601	1	2
446.942	1	4
447.283	1	-3
447.624	1	-3
447.965	1	7
448.306	1	5
448.647	1	-8
448.988	1	-3
449.329	1	0
449.670	1	3
450.011	1	1
450.352	1	-2
450.693	1	-11
451.034	1	-10
451.375	1	1
451.716	1	-1
452.057	1	-3
452.398	1	0
452.739	1	-1
453.080	1	-3
453.421	1	-10
453.762	1	2
454.103	1	2
454.444	1	-7
454.785	1	0
455.126	1	-12
455.467	1	-2
455.808	1	-2
456.149	1	7
456.490	1	1
456.831	1	7
457.172	1	-9
457.513	1	5
457.854	1	12
458.195	1	-8
458.536	1	1
458.877	1	1
459.218	1	-6
459.559	1	7
459.899	1	-5
460.240	1	5
460.581	1	13
460.922	1	0
461.263	1	-9
461.604	1	-8
461.945	1	-3
462.286	1	0
462.627	1	3
462.968	1	-8
463.309	1	-6
463.649	1	-4
463.990	1	-11
464.331	1	-8
464.672	1	-1
465.013	1	0
465.354	1	5
465.695	1	-6
466.036	1	-12
466.376	1	-3
466.717	1	-1
467.058	1	4
467.399	1	2
467.740	1	1
468.081	1	2
468.422	1	-6
468.762	1	-6
469.103	1	-14
469.444	1	-8
469.785	1	-16
470.126	1	-15
470.467	1	-5
470.807	1	-2
471.148	1	1
471.489	1	-7
471.830	1	2
472.171	1	5
472.511	1	-4
472.852	1	1
473.193	1	7
473.534	1	6
473.875	1	5
474.215	1	6
474.556	1	-5
474.897	1	-2
475.238	1	-6
475.578	1	-20
475.919	1	-9
476.260	1	-5
476.601	1	4
476.942	1	5
477.282	1	-5
477.623	1	-12
477.964	1	-3
478.305	1	-5
478.645	1	11
478.986	1	-6
479.327	1	-8
479.667	1	4
480.008	1	-5
480.349	1	-6
480.690	1	2
481.030	1	-3
481.371	1	1
481.712	1	1
482.053	1	4
482.393	1	5
482.734	1	-6
483.075	1	-3
483.415	1	-5
483.756	1	7
484.097	1	3
484.437	1	1
484.778	1	3
485.119	1	-5
485.459	1	10
485.800	1	-9
486.141	1	-7
486.481	1	-5
486.822	1	4
487.163	1	3
487.503	1	-6
487.844	1	2
488.185	1	2
488.525	1	-4
488.866	1	-1
489.207	1	-3
489.547	1	0
489.888	1	-9
490.228	1	-1
490.569	1	6
490.910	1	-1
491.250	1	-8
491.591	1	-8
491.932	1	-3
492.272	1	5
492.613	1	-15
492.953	1	-5
493.294	1	1
493.635	1	-2
493.975	1	-2
494.316	1	1
494.656	1	-8
494.997	1	0
495.337	1	1
495.678	1	2
496.019	1	1
496.359	1	-1
496.700	1	-4
497.040	1	-4
497.381	1	0
497.721	1	-4
498.062	1	2
498.403	1	6
498.743	1	0
499.084	1	2
499.424	1	16
499.765	1	-4
500.105	1	6
500.446	1	-6
500.786	1	-5
501.127	1	-1
501.467	1	-3
501.808	1	-3
502.148	1	-1
502.489	1	3
502.829	1	-2
503.170	1	2
503.510	1	6
503.851	1	1
504.191	1	6
504.532	1	6
504.872	1	-6
505.213	1	3
505.553	1	-7
505.894	1	-6
506.234	1	-6
506.575	1	4
506.915	1	3
507.256	1	2
507.596	1	-1
507.936	1	1
508.277	1	-2
508.617	1	1
508.958	1	-1
509.298	1	-1
509.639	1	4
509.979	1	1
510.319	1	-3
510.660	1	-9
511.000	1	-6
511.341	1	-5
511.681	1	-2
512.022	1	-7
512.362	1	-12
512.702	1	-3
513.043	1	0
513.383	1	-10
513.724	1	6
514.064	1	8
514.404	1	0
514.745	1	-10
515.085	1	5
515.425	1	-11
515.766	1	-10
516.106	1	-7
516.447	1	4
516.787	1	4
517.127	1	-2
517.468	1	5
517.808	1	-5
518.148	1	3
518.489	1	6
518.829	1	-1
519.169	1	1
519.510	1	4
519.850	1	3
520.190	1	-3
520.531	1	2
520.871	1	2
521.211	1	-11
521.552	1	5
521.892	1	-4
522.232	1	0
522.573	1	0
522.913	1	-5
523.253	1	2
523.593	1	-9
523.934	1	2
524.274	1	-2
524.614	1	-4
524.955	1	0
525.295	1	-5
525.635	1	-1
525.975	1	-2
526.316	1	8
526.656	1	-1
526.996	1	-1
527.337	1	-2
527.677	1	7
528.017	1	-5
528.357	1	10
528.698	1	-2
529.038	1	9
529.378	1	11
529.718	1	4
530.058	1	-2
530.399	1	5
530.739	1	10
531.079	1	-1
531.419	1	6
531.760	1	0
532.100	1	-3
532.440	1	0
532.780	1	-2
533.120	1	9
533.461	1	-1
533.801	1	9
534.141	1	-5
534.481	1	-3
534.821	1	1
535.162	1	-5
535.502	1	-2
535.842	1	8
536.182	1	-4
536.522	1	-2
536.862	1	3
537.203	1	-3
537.543	1	-2
537.883	1	-3
538.223	1	-1
538.563	1	9
538.903	1	-6
539.243	1	0
539.584	1	5
539.924	1	11
540.264	1	-2
540.604	1	3
540.944	1	4
541.284	1	7
541.624	1	3
541.964	1	7
542.305	1	11
542.645	1	5
542.985	1	-5
543.325	1	-3
543.665	1	3
544.005	1	8
544.345	1	6
544.685	1	-4
545.025	1	1
545.365	1	0
545.705	1	12
546.045	1	-2
546.386	1	8
546.726	1	-6
547.066	1	-1
547.406	1	3
547.746	1	-17
548.086	1	5
548.426	1	-2
548.766	1	-1
549.106	1	-5
549.446	1	-4
549.786	1	-2
550.126	1	12
550.466	1	0
550.806	1	-1
551.146	1	7
551.486	1	1
551.826	1	14
552.166	1	-1
552.506	1	6
552.846	1	8
553.186	1	-3
553.526	1	-5
553.866	1	0
554.206	1	4
554.546	1	-1
554.886	1	8
555.226	1	-1
555.566	1	7
555.906	1	4
556.246	1	10
556.586	1	6
556.926	1	6
557.266	1	2
557.606	1	6
557.946	1	7
558.286	1	1
558.626	1	4
558.966	1	-7
559.306	1	2
559.646	1	3
559.986	1	-2
560.325	1	-10
560.665	1	-2
561.005	1	-4
561.345	1	-6
561.685	1	-4
562.025	1	0
562.365	1	-4
562.705	1	-5
563.045	1	-4
563.385	1	-10
563.725	1	-4
564.064	1	1
564.404	1	5
564.744	1	5
565.084	1	-2
565.424	1	1
565.764	1	-3
566.104	1	4
566.444	1	-5
566.783	1	-2
567.123	1	11
567.463	1	4
567.803	1	-6
568.143	1	-5
568.483	1	6
568.823	1	-1
569.162	1	5
569.502	1	1
569.842	1	4
570.182	1	1
570.522	1	-5
570.862	1	-6
571.201	1	1
571.541	1	-1
571.881	1	9
572.221	1	-2
572.561	1	-6
572.900	1	-14
573.240	1	-6
573.580	1	0
573.920	1	-1
574.260	1	3
574.599	1	3
574.939	1	4
575.279	1	15
575.619	1	4
575.959	1	-7
576.298	1	11
576.638	1	1
576.978	1	6
577.318	1	3
577.657	1	2
577.997	1	4
578.337	1	9
578.677	1	9
579.016	1	9
579.356	1	-2
579.696	1	2
580.036	1	3
580.375	1	2
580.715	1	2
581.055	1	0
581.394	1	-4
581.734	1	-12
582.074	1	-1
582.414	1	5
582.753	1	-4
583.093	1	4
583.433	1	-8
583.772	1	6
584.112	1	-4
584.452	1	9
584.791	1	-7
585.131	1	3
585.471	1	3
585.811	1	8
586.150	1	-3
586.490	1	3
586.830	1	2
587.169	1	8
587.509	1	-3
587.849	1	-1
588.188	1	10
588.528	1	-1
588.867	1	9
589.207	1	-2
589.547	1	-3
589.886	1	-5
590.226	1	7
590.566	1	-11
590.905	1	-5
591.245	1	-8
591.585	1	-1
591.924	1	5
592.264	1	1
592.603	1	-3
592.943	1	13
593.283	1	4
593.622	1	-7
593.962	1	3
594.301	1	5
594.641	1	0
594.981	1	-3
595.320	1	1
595.660	1	2
595.999	1	-5
596.339	1	5
596.678	1	-8
597.018	1	-6
597.358	1	6
597.697	1	-9
598.037	1	2
598.376	1	7
598.716	1	7
599.055	1	2
599.395	1	-4
599.734	1	0
600.074	1	3
600.413	1	13
600.753	1	-3
601.092	1	5
601.432	1	-2
601.771	1	9
602.111	1	0
602.451	1	6
602.790	1	5
603.130	1	3
603.469	1	2
603.809	1	3
604.148	1	-4
604.487	1	2
604.827	1	3
605.166	1	3
605.506	1	-1
605.845	1	2
606.185	1	10
606.524	1	-4
606.864	1	-3
607.203	1	0
607.543	1	5
607.882	1	2
608.222	1	5
608.561	1	0
608.901	1	-2
609.240	1	-1
609.579	1	15
609.919	1	3
610.258	1	-3
610.598	1	-6
610.937	1	-1
611.277	1	-4
611.616	1	-8
611.955	1	-1
612.295	1	-6
612.634	1	0
612.974	1	-9
613.313	1	1
613.652	1	4
613.992	1	-8
614.331	1	-4
614.671	1	3
615.010	1	-9
615.349	1	14
615.689	1	7
616.028	1	0
616.368	1	-7
616.707	1	-3
617.046	1	0
617.386	1	-6
617.725	1	-5
618.064	1	-6
618.404	1	0
618.743	1	4
619.082	1	4
619.422	1	-9
619.761	1	8
620.100	1	5
620.440	1	-1
620.779	1	-11
621.118	1	1
621.458	1	3
621.797	1	-8
622.136	1	12
622.476	1	1
622.815	1	7
623.154	1	2
623.494	1	3
623.833	1	7
624.172	1	0
624.511	1	4
624.851	1	-9
625.190	1	-1
625.529	1	-4
625.869	1	11
626.208	1	1
626.547	1	1
626.886	1	7
627.226	1	15
627.565	1	-5
627.904	1	-2
628.243	1	8
628.583	1	3
628.922	1	6
629.261	1	6
629.600	1	2
629.940	1	4
630.279	1	-4
630.618	1	4
630.957	1	-6
631.297	1	1
631.636	1	-8
631.975	1	11
632.314	1	3
632.653	1	8
632.993	1	1
633.332	1	4
633.671	1	-3
634.010	1	-9
634.349	1	7
634.689	1	-9
635.028	1	9
635.367	1	7
635.706	1	4
636.045	1	16
636.384	1	-2
636.724	1	7
637.063	1	-2
637.402	1	7
637.741	1	-1
638.080	1	-6
638.419	1	6
638.759	1	-9
639.098	1	7
639.437	1	4
639.776	1	-2
640.115	1	-3
640.454	1	-4
640.793	1	5
641.132	1	5
641.472	1	0
641.811	1	3
642.150	1	-15
642.489	1	4
642.828	1	-7
643.167	1	-1
643.506	1	-8
643.845	1	-7
644.184	1	-3
644.524	1	-6
644.863	1	-7
645.202	1	2
645.541	1	1
645.880	1	-1
646.219	1	4
646.558	1	0
646.897	1	-4
647.236	1	1
647.575	1	0
647.914	1	-5
648.253	1	3
648.592	1	-4
648.931	1	1
649.270	1	-4
649.610	1	-1
649.949	1	5
650.288	1	8
650.627	1	2
650.966	1	-10
651.305	1	-11
651.644	1	9
651.983	1	2
652.322	1	-7
652.661	1	9
653.000	1	-3
653.339	1	11
653.678	1	4
654.017	1	-3
654.356	1	-5
654.695	1	0
655.034	1	1
655.373	1	5
655.712	1	1
656.051	1	8
656.390	1	-5
656.729	1	6
657.068	1	-1
657.406	1	2
657.745	1	-5
658.084	1	1
658.423	1	4
658.762	1	1
659.101	1	2
659.440	1	2
659.779	1	2
660.118	1	7
660.457	1	-1
660.796	1	-11
661.135	1	-10
661.474	1	-4
661.813	1	20
662.152	1	-1
662.491	1	-3
662.829	1	-9
663.168	1	1
663.507	1	7
663.846	1	-6
664.185	1	6
664.524	1	1
664.863	1	-3
665.202	1	6
665.541	1	-10
665.879	1	-9
666.218	1	-11
666.557	1	-2
666.896	1	-9
667.235	1	5
667.574	1	3
667.913	1	0
668.251	1	-7
668.590	1	1
668.929	1	-15
669.268	1	-10
669.607	1	-4
669.946	1	2
670.285	1	3
670.623	1	-4
670.962	1	-2
671.301	1	-7
671.640	1	4
671.979	1	-9
672.317	1	6
672.656	1	0
672.995	1	2
673.334	1	4
673.673	1	-1
674.011	1	-1
674.350	1	-6
674.689	1	5
675.028	1	0
675.367	1	0
675.705	1	4
676.044	1	-6
676.383	1	0
676.722	1	0
677.060	1	0
677.399	1	-2
677.738	1	3
678.077	1	2
678.416	1	-2
678.754	1	-6
679.093	1	10
679.432	1	-12
679.771	1	1
680.109	1	6
680.448	1	5
680.787	1	-2
681.125	1	-2
681.464	1	-8
681.803	1	-5
682.142	1	7
682.480	1	12
682.819	1	-4
683.158	1	-9
683.496	1	0
683.835	1	1
684.174	1	-4
684.512	1	-5
684.851	1	5
685.190	1	0
685.529	1	-11
685.867	1	4
686.206	1	-6
686.545	1	0
686.883	1	0
687.222	1	6
687.561	1	7
687.899	1	5
688.238	1	0
688.577	1	-9
688.746	1	0