File: Data/GaN_200K_800ms/GaN_sample F_spot 12_UVVIS_200 K_200um_800 ms 2x2mm1_500.txt
340.368	1	8
340.710	1	-11
341.052	1	-4
341.394	1	-2
341.737	1	4
342.079	1	3
342.421	1	-5
342.763	1	8
343.105	1	9
343.447	1	-8
343.789	1	-2
344.131	1	-1
344.473	1	-16
344.815	1	-4
345.157	1	-4
345.499	1	-2
345.841	1	3
346.183	1	-5
346.526	1	-8
346.868	1	6
347.210	1	-10
347.552	1	-2
347.894	1	10
348.236	1	0
348.578	1	-4
348.920	1	-4
349.262	1	-4
349.604	1	2
349.946	1	-5
350.288	1	4
350.630	1	-2
350.972	1	4
351.314	1	6
351.656	1	-4
351.998	1	8
352.340	1	-1
352.682	1	5
353.024	1	4
353.366	1	9
353.708	1	0
354.050	1	3
354.392	1	-8
354.734	1	8
355.076	1	2
355.418	1	-14
355.760	1	-3
356.102	1	11
356.444	1	1
356.785	1	3
357.127	1	-3
357.469	1	1
357.811	1	2
358.153	1	3
358.495	1	0
358.837	1	-12
359.179	1	-1
359.521	1	3
359.863	1	-8
360.205	1	3
360.547	1	5
360.889	1	-3
361.231	1	-7
361.572	1	2
361.914	1	6
362.256	1	3
362.598	1	-11
362.940	1	1
363.282	1	-5
363.624	1	15
363.966	1	-1
364.308	1	-5
364.649	1	13
364.991	1	-10
365.333	1	-2
365.675	1	3
366.017	1	6
366.359	1	7
366.701	1	8
367.042	1	5
367.384	1	9
367.726	1	8
368.068	1	7
368.410	1	7
368.752	1	6
369.093	1	8
369.435	1	9
369.777	1	6
370.119	1	9
370.461	1	17
370.803	1	11
371.144	1	8
371.486	1	9
371.828	1	10
372.170	1	17
372.512	1	0
372.853	1	3
373.195	1	1
373.537	1	-3
373.879	1	7
374.220	1	13
374.562	1	12
374.904	1	2
375.246	1	3
375.588	1	-5
375.929	1	3
376.271	1	3
376.613	1	4
376.955	1	-6
377.296	1	-3
377.638	1	2
377.980	1	0
378.321	1	-9
378.663	1	-7
379.005	1	15
379.347	1	7
379.688	1	4
380.030	1	2
380.372	1	5
380.714	1	6
381.055	1	10
381.397	1	6
381.739	1	1
382.080	1	-5
382.422	1	0
382.764	1	-3
383.105	1	-6
383.447	1	-3
383.789	1	-9
384.130	1	3
384.472	1	1
384.814	1	3
385.156	1	-8
385.497	1	7
385.839	1	-4
386.180	1	7
386.522	1	9
386.864	1	7
387.205	1	-6
387.547	1	-5
387.889	1	-6
388.230	1	6
388.572	1	3
388.914	1	3
389.255	1	-1
389.597	1	-4
389.939	1	5
390.280	1	-6
390.622	1	1
390.963	1	0
391.305	1	1
391.647	1	-3
391.988	1	0
392.330	1	4
392.671	1	-4
393.013	1	0
393.355	1	-5
393.696	1	0
394.038	1	6
394.379	1	-8
394.721	1	-1
395.062	1	5
395.404	1	-2
395.746	1	6
396.087	1	-3
396.429	1	5
396.770	1	-9
397.112	1	9
397.453	1	1
397.795	1	3
398.136	1	-8
398.478	1	-1
398.819	1	-4
399.161	1	12
399.503	1	-2
399.844	1	5
400.186	1	-2
400.527	1	3
400.869	1	-1
401.210	1	7
401.552	1	-19
401.893	1	0
402.235	1	8
402.576	1	2
402.918	1	2
403.259	1	3
403.601	1	-5
403.942	1	6
404.284	1	4
404.625	1	6
404.967	1	3
405.308	1	-1
405.649	1	-5
405.991	1	-2
406.332	1	-9
406.674	1	-3
407.015	1	-1
407.357	1	-5
407.698	1	10
408.040	1	-11
408.381	1	-1
408.722	1	-20
409.064	1	-3
409.405	1	9
409.747	1	2
410.088	1	2
410.430	1	8
410.771	1	-1
411.112	1	-2
411.454	1	-7
411.795	1	-8
412.137	1	-1
412.478	1	6
412.819	1	-10
413.161	1	-8
413.502	1	0
413.844	1	5
414.185	1	4
414.526	1	0
414.868	1	2
415.209	1	0
415.550	1	-15
415.892	1	-2
416.233	1	8
416.575	1	6
416.916	1	-2
417.257	1	-5
417.599	1	-1
417.940	1	4
418.281	1	-1
418.623	1	-9
418.964	1	-14
419.305	1	-1
419.647	1	-4
419.988	1	-5
420.329	1	-12
420.671	1	10
421.012	1	-6
421.353	1	-4
421.695	1	-4
422.036	1	2
422.377	1	-10
422.718	1	10
423.060	1	-14
423.401	1	2
423.742	1	4
424.084	1	-2
424.425	1	-1
424.766	1	-2
425.107	1	-6
425.449	1	-5
425.790	1	0
426.131	1	3
426.472	1	-1
426.814	1	-1
427.155	1	-10
427.496	1	-4
427.837	1	-6
428.179	1	-6
428.520	1	3
428.861	1	-4
429.202	1	2
429.544	1	-1
429.885	1	0
430.226	1	-14
430.567	1	-2
430.909	1	2
431.250	1	-3
431.591	1	2
431.932	1	-1
432.273	1	-10
432.615	1	-3
432.956	1	-8
433.297	1	1
433.638	1	2
433.979	1	-1
434.320	1	-4
434.662	1	3
435.003	1	-1
435.344	1	3
435.685	1	-10
436.026	1	3
436.368	1	2
436.709	1	-2
437.050	1	-4
437.391	1	1
437.732	1	-5
438.073	1	7
438.414	1	-7
438.756	1	-11
439.097	1	-21
439.438	1	-9
439.779	1	0
440.120	1	-9
440.461	1	6
440.802	1	-6
441.143	1	10
441.485	1	6
441.826	1	-4
442.167	1	0
442.508	1	-4
442.849	1	10
443.190	1	-8
443.531	1	6
443.872	1	7
444.213	1	-1
444.554	1	14
444.895	1	-8
445.237	1	2
445.578	1	-10
445.919	1	0
446.260	1	-5
446.601	1	0
446.942	1	-4
447.283	1	-4
447.624	1	1
447.965	1	-3
448.306	1	-4
448.647	1	-10
448.988	1	-2
449.329	1	-7
449.670	1	6
450.011	1	2
450.352	1	-6
450.693	1	-12
451.034	1	-12
451.375	1	1
451.716	1	3
452.057	1	2
452.398	1	2
452.739	1	6
453.080	1	-1
453.421	1	-3
453.762	1	-3
454.103	1	6
454.444	1	-17
454.785	1	-2
455.126	1	-11
455.467	1	-2
455.808	1	2
456.149	1	7
456.490	1	-6
456.831	1	5
457.172	1	-2
457.513	1	8
457.854	1	5
458.195	1	-6
458.536	1	2
458.877	1	0
459.218	1	-1
459.559	1	0
459.899	1	-1
460.240	1	-10
460.581	1	9
460.922	1	-1
461.263	1	-10
461.604	1	-6
461.945	1	-3
462.286	1	-6
462.627	1	2
462.968	1	-4
463.309	1	-6
463.649	1	-7
463.990	1	-17
464.331	1	-5
464.672	1	0
465.013	1	-6
465.354	1	-14
465.695	1	-2
466.036	1	-14
466.376	1	-4
466.717	1	-1
467.058	1	-1
467.399	1	4
467.740	1	-2
468.081	1	3
468.422	1	-1
468.762	1	-7
469.103	1	-8
469.444	1	-12
469.785	1	-7
470.126	1	-10
470.467	1	-3
470.807	1	0
471.148	1	-2
471.489	1	-2
471.830	1	1
472.171	1	8
472.511	1	-3
472.852	1	3
473.193	1	4
473.534	1	7
473.875	1	14
474.215	1	8
474.556	1	-8
474.897	1	4
475.238	1	0
475.578	1	-7
475.919	1	-8
476.260	1	-3
476.601	1	-3
476.942	1	-2
477.282	1	-12
477.623	1	-8
477.964	1	-4
478.305	1	-4
478.645	1	8
478.986	1	-12
479.327	1	-9
479.667	1	-5
480.008	1	-7
480.349	1	-6
480.690	1	3
481.030	1	-15
481.371	1	-2
481.712	1	1
482.053	1	2
482.393	1	-4
482.734	1	-2
483.075	1	-6
483.415	1	2
483.756	1	9
484.097	1	-3
484.437	1	-3
484.778	1	6
485.119	1	0
485.459	1	11
485.800	1	2
486.141	1	8
486.481	1	7
486.822	1	0
487.163	1	-6
487.503	1	-6
487.844	1	1
488.185	1	-1
488.525	1	-13
488.866	1	3
489.207	1	-1
489.547	1	0
489.888	1	-6
490.228	1	7
490.569	1	5
490.910	1	-3
491.250	1	-4
491.591	1	-8
491.932	1	0
492.272	1	-1
492.613	1	-7
492.953	1	-11
493.294	1	-3
493.635	1	-3
493.975	1	-2
494.316	1	4
494.656	1	-2
494.997	1	-1
495.337	1	1
495.678	1	-1
496.019	1	-9
496.359	1	-8
496.700	1	-6
497.040	1	-6
497.381	1	-2
497.721	1	-7
498.062	1	-1
498.403	1	7
498.743	1	-10
499.084	1	3
499.424	1	4
499.765	1	-6
500.105	1	-2
500.446	1	-14
500.786	1	-5
501.127	1	-2
501.467	1	-4
501.808	1	-4
502.148	1	5
502.489	1	-9
502.829	1	-3
503.170	1	10
503.510	1	3
503.851	1	-3
504.191	1	7
504.532	1	2
504.872	1	-4
505.213	1	4
505.553	1	-8
505.894	1	-2
506.234	1	6
506.575	1	2
506.915	1	3
507.256	1	6
507.596	1	0
507.936	1	6
508.277	1	5
508.617	1	-4
508.958	1	-11
509.298	1	-1
509.639	1	9
509.979	1	0
510.319	1	-2
510.660	1	-2
511.000	1	-7
511.341	1	1
511.681	1	2
512.022	1	-14
512.362	1	-10
512.702	1	-4
513.043	1	-4
513.383	1	-9
513.724	1	5
514.064	1	5
514.404	1	-4
514.745	1	3
515.085	1	-8
515.425	1	2
515.766	1	-9
516.106	1	5
516.447	1	22
516.787	1	2
517.127	1	2
517.468	1	-1
517.808	1	-7
518.148	1	6
518.489	1	-6
518.829	1	10
519.169	1	-4
519.510	1	4
519.850	1	9
520.190	1	-4
520.531	1	2
520.871	1	-1
521.211	1	-11
521.552	1	7
521.892	1	-4
522.232	1	-1
522.573	1	-7
522.913	1	0
523.253	1	7
523.593	1	-4
523.934	1	-6
524.274	1	-3
524.614	1	-1
524.955	1	-7
525.295	1	-4
525.635	1	-6
525.975	1	1
526.316	1	5
526.656	1	-1
526.996	1	0
527.337	1	-8
527.677	1	5
528.017	1	-13
528.357	1	-8
528.698	1	-2
529.038	1	9
529.378	1	-1
529.718	1	10
530.058	1	2
530.399	1	8
530.739	1	-5
531.079	1	6
531.419	1	-1
531.760	1	7
532.100	1	-3
532.440	1	4
532.780	1	7
533.120	1	9
533.461	1	3
533.801	1	16
534.141	1	-14
534.481	1	-12
534.821	1	1
535.162	1	-9
535.502	1	-5
535.842	1	5
536.182	1	-1
536.522	1	-2
536.862	1	4
537.203	1	-7
537.543	1	7
537.883	1	0
538.223	1	2
538.563	1	5
538.903	1	-5
539.243	1	3
539.584	1	-4
539.924	1	9
540.264	1	-1
540.604	1	-4
540.944	1	-3
541.284	1	3
541.624	1	5
541.964	1	3
542.305	1	0
542.645	1	-5
542.985	1	7
543.325	1	1
543.665	1	7
544.005	1	-3
544.345	1	8
544.685	1	6
545.025	1	15
545.365	1	3
545.705	1	-3
546.045	1	-3
546.386	1	9
546.726	1	-9
547.066	1	-1
547.406	1	-6
547.746	1	-15
548.086	1	-9
548.426	1	-6
548.766	1	-1
549.106	1	3
549.446	1	-8
549.786	1	-4
550.126	1	13
550.466	1	2
550.806	1	2
551.146	1	-4
551.486	1	1
551.826	1	6
552.166	1	2
552.506	1	6
552.846	1	5
553.186	1	5
553.526	1	-3
553.866	1	2
554.206	1	6
554.546	1	1
554.886	1	12
555.226	1	-7
555.566	1	-11
555.906	1	1
556.246	1	-1
556.586	1	2
556.926	1	-1
557.266	1	-4
557.606	1	-6
557.946	1	11
558.286	1	0
558.626	1	-3
558.966	1	-3
559.306	1	-10
559.646	1	2
559.986	1	-8
560.325	1	-8
560.665	1	-5
561.005	1	-9
561.345	1	5
561.685	1	-1
562.025	1	-6
562.365	1	0
562.705	1	-7
563.045	1	-1
563.385	1	-13
563.725	1	7
564.064	1	-3
564.404	1	3
564.744	1	3
565.084	1	-2
565.424	1	8
565.764	1	-4
566.104	1	-3
566.444	1	-3
566.783	1	-5
567.123	1	2
567.463	1	5
567.803	1	-11
568.143	1	-7
568.483	1	-2
568.823	1	-5
569.162	1	5
569.502	1	0
569.842	1	0
570.182	1	-3
570.522	1	-11
570.862	1	1
571.201	1	7
571.541	1	1
571.881	1	1
572.221	1	-3
572.561	1	2
572.900	1	-3
573.240	1	0
573.580	1	-1
573.920	1	-4
574.260	1	7
574.599	1	-4
574.939	1	3
575.279	1	10
575.619	1	16
575.959	1	-4
576.298	1	5
576.638	1	-2
576.978	1	9
577.318	1	6
577.657	1	-3
577.997	1	-4
578.337	1	14
578.677	1	11
579.016	1	12
579.356	1	-3
579.696	1	-2
580.036	1	-1
580.375	1	-6
580.715	1	-3
581.055	1	1
581.394	1	2
581.734	1	-10
582.074	1	-7
582.414	1	4
582.753	1	-1
583.093	1	4
583.433	1	-6
583.772	1	4
584.112	1	-3
584.452	1	4
584.791	1	-3
585.131	1	4
585.471	1	10
585.811	1	4
586.150	1	-5
586.490	1	9
586.830	1	-8
587.169	1	3
587.509	1	-6
587.849	1	-2
588.188	1	6
588.528	1	1
588.867	1	10
589.207	1	-7
589.547	1	-5
589.886	1	-3
590.226	1	3
590.566	1	-3
590.905	1	-3
591.245	1	5
591.585	1	-7
591.924	1	0
592.264	1	7
592.603	1	6
592.943	1	7
593.283	1	-5
593.622	1	-4
593.962	1	3
594.301	1	8
594.641	1	-1
594.981	1	-3
595.320	1	-2
595.660	1	2
595.999	1	0
596.339	1	-7
596.678	1	-5
597.018	1	0
597.358	1	2
597.697	1	1
598.037	1	-5
598.376	1	6
598.716	1	-3
599.055	1	0
599.395	1	-4
599.734	1	-3
600.074	1	-2
600.413	1	11
600.753	1	-5
601.092	1	17
601.432	1	-10
601.771	1	-4
602.111	1	2
602.451	1	3
602.790	1	-5
603.130	1	-6
603.469	1	-16
603.809	1	5
604.148	1	9
604.487	1	-2
604.827	1	3
605.166	1	4
605.506	1	4
605.845	1	9
606.185	1	1
606.524	1	1
606.864	1	8
607.203	1	-8
607.543	1	-1
607.882	1	11
608.222	1	9
608.561	1	-9
608.901	1	4
609.240	1	-11
609.579	1	7
609.919	1	0
610.258	1	6
610.598	1	5
610.937	1	3
611.277	1	-5
611.616	1	-13
611.955	1	-3
612.295	1	-9
612.634	1	2
612.974	1	-9
613.313	1	8
613.652	1	2
613.992	1	-2
614.331	1	-6
614.671	1	7
615.010	1	-6
615.349	1	7
615.689	1	3
616.028	1	0
616.368	1	-3
616.707	1	0
617.046	1	5
617.386	1	3
617.725	1	-8
618.064	1	3
618.404	1	1
618.743	1	3
619.082	1	1
619.422	1	-8
619.761	1	2
620.100	1	5
620.440	1	-1
620.779	1	-8
621.118	1	2
621.458	1	8
621.797	1	-10
622.136	1	5
622.476	1	1
622.815	1	6
623.154	1	4
623.494	1	9
623.833	1	3
624.172	1	-5
624.511	1	1
624.851	1	-6
625.190	1	-1
625.529	1	8
625.869	1	8
626.208	1	1
626.547	1	-2
626.886	1	1
627.226	1	5
627.565	1	-1
627.904	1	4
628.243	1	6
628.583	1	-7
628.922	1	-2
629.261	1	7
629.600	1	-1
629.940	1	-1
630.279	1	-5
630.618	1	-3
630.957	1	3
631.297	1	-1
631.636	1	-10
631.975	1	13
632.314	1	-2
632.653	1	0
632.993	1	0
633.332	1	4
633.671	1	-12
634.010	1	-9
634.349	1	3
634.689	1	5
635.028	1	4
635.367	1	-6
635.706	1	-4
636.045	1	2
636.384	1	-8
636.724	1	-9
637.063	1	-7
637.402	1	1
637.741	1	4
638.080	1	-9
638.419	1	-9
638.759	1	-9
639.098	1	4
639.437	1	0
639.776	1	-2
640.115	1	-8
640.454	1	-4
640.793	1	1
641.132	1	-1
641.472	1	-4
641.811	1	0
642.150	1	-17
642.489	1	3
642.828	1	-5
643.167	1	-2
643.506	1	-3
643.845	1	1
644.184	1	1
644.524	1	2
644.863	1	-6
645.202	1	-4
645.541	1	0
645.880	1	6
646.219	1	-7
646.558	1	-9
646.897	1	-5
647.236	1	1
647.575	1	-9
647.914	1	3
648.253	1	4
648.592	1	-6
648.931	1	4
649.270	1	5
649.610	1	-3
649.949	1	-8
650.288	1	3
650.627	1	-4
650.966	1	-2
651.305	1	-1
651.644	1	9
651.983	1	-2
652.322	1	-2
652.661	1	-5
653.000	1	-1
653.339	1	8
653.678	1	0
654.017	1	-4
654.356	1	-8
654.695	1	6
655.034	1	6
655.373	1	10
655.712	1	0
656.051	1	-2
656.390	1	-6
656.729	1	13
657.068	1	4
657.406	1	4
657.745	1	5
658.084	1	10
658.423	1	8
658.762	1	-11
659.101	1	9
659.440	1	2
659.779	1	8
660.118	1	3
660.457	1	0
660.796	1	-4
661.135	1	-7
661.474	1	-5
661.813	1	14
662.152	1	-4
662.491	1	-17
662.829	1	-7
663.168	1	5
663.507	1	1
663.846	1	-8
664.185	1	1
664.524	1	0
664.863	1	0
665.202	1	-4
665.541	1	-15
665.879	1	-5
666.218	1	-11
666.557	1	-7
666.896	1	-4
667.235	1	-2
667.574	1	-4
667.913	1	2
668.251	1	4
668.590	1	1
668.929	1	-23
669.268	1	-6
669.607	1	2
669.946	1	2
670.285	1	-6
670.623	1	3
670.962	1	1
671.301	1	-4
671.640	1	0
671.979	1	-2
672.317	1	3
672.656	1	1
672.995	1	2
673.334	1	-5
673.673	1	2
674.011	1	-7
674.350	1	4
674.689	1	-11
675.028	1	-5
675.367	1	3
675.705	1	3
676.044	1	-4
676.383	1	4
676.722	1	1
677.060	1	-9
677.399	1	-5
677.738	1	6
678.077	1	8
678.416	1	-3
678.754	1	-7
679.093	1	8
679.432	1	-7
679.771	1	-6
680.109	1	11
680.448	1	-4
680.787	1	0
681.125	1	5
681.464	1	6
681.803	1	-2
682.142	1	3
682.480	1	19
682.819	1	3
683.158	1	-8
683.496	1	-4
683.835	1	3
684.174	1	0
684.512	1	9
684.851	1	10
685.190	1	1
685.529	1	-9
685.867	1	2
686.206	1	-8
686.545	1	-4
686.883	1	-3
687.222	1	5
687.561	1	2
687.899	1	-3
688.238	1	7
688.577	1	3
688.746	1	5