File: Data/GaN_200K_800ms/GaN_sample F_spot 12_UVVIS_200 K_200um_800 ms 2x2mm1_264.txt
340.368	1	7
340.710	1	-4
341.052	1	6
341.394	1	3
341.737	1	11
342.079	1	-1
342.421	1	-3
342.763	1	11
343.105	1	10
343.447	1	0
343.789	1	-2
344.131	1	0
344.473	1	-5
344.815	1	-6
345.157	1	-3
345.499	1	6
345.841	1	13
346.183	1	1
346.526	1	-7
346.868	1	10
347.210	1	-1
347.552	1	-4
347.894	1	0
348.236	1	5
348.578	1	3
348.920	1	2
349.262	1	-5
349.604	1	-2
349.946	1	-9
350.288	1	5
350.630	1	-4
350.972	1	-2
351.314	1	-2
351.656	1	-1
351.998	1	9
352.340	1	2
352.682	1	6
353.024	1	-7
353.366	1	7
353.708	1	0
354.050	1	-6
354.392	1	-6
354.734	1	4
355.076	1	2
355.418	1	-5
355.760	1	-6
356.102	1	8
356.444	1	9
356.785	1	8
357.127	1	-6
357.469	1	5
357.811	1	3
358.153	1	-2
358.495	1	-3
358.837	1	-1
359.179	1	4
359.521	1	7
359.863	1	2
360.205	1	-1
360.547	1	6
360.889	1	0
361.231	1	-4
361.572	1	11
361.914	1	10
362.256	1	7
362.598	1	10
362.940	1	4
363.282	1	9
363.624	1	12
363.966	1	-6
364.308	1	12
364.649	1	15
364.991	1	6
365.333	1	8
365.675	1	11
366.017	1	15
366.359	1	7
366.701	1	18
367.042	1	14
367.384	1	19
367.726	1	11
368.068	1	18
368.410	1	27
368.752	1	10
369.093	1	20
369.435	1	15
369.777	1	22
370.119	1	24
370.461	1	29
370.803	1	22
371.144	1	19
371.486	1	21
371.828	1	26
372.170	1	20
372.512	1	5
372.853	1	19
373.195	1	18
373.537	1	6
373.879	1	10
374.220	1	27
374.562	1	30
374.904	1	11
375.246	1	14
375.588	1	8
375.929	1	14
376.271	1	19
376.613	1	5
376.955	1	-1
377.296	1	4
377.638	1	9
377.980	1	9
378.321	1	1
378.663	1	2
379.005	1	11
379.347	1	6
379.688	1	8
380.030	1	7
380.372	1	12
380.714	1	8
381.055	1	19
381.397	1	1
381.739	1	11
382.080	1	9
382.422	1	7
382.764	1	-2
383.105	1	0
383.447	1	7
383.789	1	0
384.130	1	-1
384.472	1	5
384.814	1	3
385.156	1	-4
385.497	1	1
385.839	1	1
386.180	1	13
386.522	1	10
386.864	1	11
387.205	1	-3
387.547	1	0
387.889	1	-4
388.230	1	5
388.572	1	-3
388.914	1	1
389.255	1	4
389.597	1	10
389.939	1	3
390.280	1	5
390.622	1	6
390.963	1	10
391.305	1	9
391.647	1	4
391.988	1	13
392.330	1	-1
392.671	1	-10
393.013	1	7
393.355	1	12
393.696	1	1
394.038	1	8
394.379	1	2
394.721	1	-5
395.062	1	4
395.404	1	4
395.746	1	2
396.087	1	0
396.429	1	2
396.770	1	0
397.112	1	11
397.453	1	9
397.795	1	-3
398.136	1	1
398.478	1	4
398.819	1	2
399.161	1	7
399.503	1	11
399.844	1	-7
400.186	1	0
400.527	1	3
400.869	1	-5
401.210	1	-4
401.552	1	-5
401.893	1	1
402.235	1	-2
402.576	1	-5
402.918	1	5
403.259	1	5
403.601	1	-8
403.942	1	17
404.284	1	2
404.625	1	3
404.967	1	6
405.308	1	5
405.649	1	3
405.991	1	1
406.332	1	5
406.674	1	-6
407.015	1	0
407.357	1	-2
407.698	1	16
408.040	1	-4
408.381	1	5
408.722	1	-9
409.064	1	1
409.405	1	11
409.747	1	-4
410.088	1	1
410.430	1	-8
410.771	1	9
411.112	1	-7
411.454	1	-6
411.795	1	-2
412.137	1	7
412.478	1	14
412.819	1	4
413.161	1	-2
413.502	1	-1
413.844	1	-3
414.185	1	0
414.526	1	-2
414.868	1	3
415.209	1	2
415.550	1	-1
415.892	1	-4
416.233	1	3
416.575	1	13
416.916	1	-2
417.257	1	-9
417.599	1	-4
417.940	1	8
418.281	1	-3
418.623	1	-15
418.964	1	-11
419.305	1	-6
419.647	1	-6
419.988	1	-4
420.329	1	-10
420.671	1	-2
421.012	1	1
421.353	1	-1
421.695	1	-4
422.036	1	4
422.377	1	-8
422.718	1	0
423.060	1	-4
423.401	1	-1
423.742	1	6
424.084	1	-1
424.425	1	6
424.766	1	-4
425.107	1	-3
425.449	1	2
425.790	1	-10
426.131	1	3
426.472	1	3
426.814	1	4
427.155	1	-5
427.496	1	0
427.837	1	-11
428.179	1	-2
428.520	1	2
428.861	1	-3
429.202	1	1
429.544	1	-5
429.885	1	3
430.226	1	-9
430.567	1	-1
430.909	1	9
431.250	1	-11
431.591	1	-2
431.932	1	-2
432.273	1	-1
432.615	1	-6
432.956	1	-6
433.297	1	0
433.638	1	-2
433.979	1	3
434.320	1	11
434.662	1	2
435.003	1	5
435.344	1	3
435.685	1	0
436.026	1	11
436.368	1	-4
436.709	1	-2
437.050	1	-7
437.391	1	11
437.732	1	-8
438.073	1	9
438.414	1	-10
438.756	1	-4
439.097	1	-5
439.438	1	-3
439.779	1	-7
440.120	1	3
440.461	1	-5
440.802	1	8
441.143	1	3
441.485	1	-3
441.826	1	-2
442.167	1	12
442.508	1	-4
442.849	1	11
443.190	1	1
443.531	1	1
443.872	1	0
444.213	1	1
444.554	1	8
444.895	1	-1
445.237	1	-3
445.578	1	-7
445.919	1	-9
446.260	1	-6
446.601	1	-3
446.942	1	0
447.283	1	-6
447.624	1	-1
447.965	1	2
448.306	1	-5
448.647	1	-2
448.988	1	-7
449.329	1	0
449.670	1	6
450.011	1	5
450.352	1	-7
450.693	1	-8
451.034	1	-3
451.375	1	-2
451.716	1	-1
452.057	1	-1
452.398	1	0
452.739	1	0
453.080	1	-1
453.421	1	-4
453.762	1	-3
454.103	1	2
454.444	1	-6
454.785	1	-12
455.126	1	-8
455.467	1	1
455.808	1	-6
456.149	1	2
456.490	1	-9
456.831	1	4
457.172	1	-9
457.513	1	11
457.854	1	4
458.195	1	-3
458.536	1	-8
458.877	1	-5
459.218	1	2
459.559	1	7
459.899	1	-6
460.240	1	-2
460.581	1	18
460.922	1	5
461.263	1	1
461.604	1	3
461.945	1	17
462.286	1	6
462.627	1	1
462.968	1	-6
463.309	1	-1
463.649	1	-4
463.990	1	2
464.331	1	-1
464.672	1	-8
465.013	1	-4
465.354	1	6
465.695	1	4
466.036	1	0
466.376	1	-5
466.717	1	1
467.058	1	3
467.399	1	2
467.740	1	2
468.081	1	-10
468.422	1	-1
468.762	1	-9
469.103	1	-6
469.444	1	-4
469.785	1	-9
470.126	1	-12
470.467	1	-5
470.807	1	2
471.148	1	10
471.489	1	-1
471.830	1	-1
472.171	1	4
472.511	1	-6
472.852	1	-5
473.193	1	7
473.534	1	2
473.875	1	17
474.215	1	9
474.556	1	-5
474.897	1	3
475.238	1	-5
475.578	1	-14
475.919	1	-6
476.260	1	4
476.601	1	1
476.942	1	12
477.282	1	-5
477.623	1	-8
477.964	1	0
478.305	1	2
478.645	1	5
478.986	1	-3
479.327	1	-2
479.667	1	-3
480.008	1	-4
480.349	1	-9
480.690	1	-4
481.030	1	-11
481.371	1	4
481.712	1	2
482.053	1	0
482.393	1	2
482.734	1	-6
483.075	1	1
483.415	1	1
483.756	1	8
484.097	1	-6
484.437	1	-5
484.778	1	5
485.119	1	-6
485.459	1	10
485.800	1	-3
486.141	1	-6
486.481	1	-10
486.822	1	3
487.163	1	-9
487.503	1	2
487.844	1	5
488.185	1	0
488.525	1	5
488.866	1	0
489.207	1	-4
489.547	1	-6
489.888	1	-5
490.228	1	6
490.569	1	14
490.910	1	-1
491.250	1	-9
491.591	1	-9
491.932	1	-8
492.272	1	6
492.613	1	-9
492.953	1	-8
493.294	1	-1
493.635	1	4
493.975	1	2
494.316	1	0
494.656	1	-1
494.997	1	-6
495.337	1	9
495.678	1	-2
496.019	1	-5
496.359	1	-1
496.700	1	2
497.040	1	-6
497.381	1	14
497.721	1	-2
498.062	1	1
498.403	1	7
498.743	1	1
499.084	1	-2
499.424	1	4
499.765	1	0
500.105	1	-5
500.446	1	-6
500.786	1	-10
501.127	1	-4
501.467	1	-4
501.808	1	-1
502.148	1	7
502.489	1	0
502.829	1	-2
503.170	1	10
503.510	1	3
503.851	1	-4
504.191	1	7
504.532	1	-2
504.872	1	0
505.213	1	13
505.553	1	-8
505.894	1	-5
506.234	1	15
506.575	1	-1
506.915	1	-1
507.256	1	3
507.596	1	7
507.936	1	0
508.277	1	-6
508.617	1	-5
508.958	1	-9
509.298	1	7
509.639	1	-2
509.979	1	-6
510.319	1	4
510.660	1	-3
511.000	1	-6
511.341	1	4
511.681	1	-3
512.022	1	-1
512.362	1	-4
512.702	1	-4
513.043	1	2
513.383	1	-5
513.724	1	2
514.064	1	10
514.404	1	1
514.745	1	-5
515.085	1	8
515.425	1	-5
515.766	1	-3
516.106	1	-6
516.447	1	10
516.787	1	9
517.127	1	1
517.468	1	-1
517.808	1	-6
518.148	1	5
518.489	1	-4
518.829	1	6
519.169	1	-4
519.510	1	7
519.850	1	5
520.190	1	1
520.531	1	7
520.871	1	-6
521.211	1	-6
521.552	1	10
521.892	1	1
522.232	1	4
522.573	1	5
522.913	1	5
523.253	1	4
523.593	1	-2
523.934	1	-6
524.274	1	2
524.614	1	-3
524.955	1	-3
525.295	1	12
525.635	1	-1
525.975	1	1
526.316	1	10
526.656	1	-4
526.996	1	1
527.337	1	-6
527.677	1	14
528.017	1	-18
528.357	1	0
528.698	1	3
529.038	1	1
529.378	1	1
529.718	1	16
530.058	1	-1
530.399	1	12
530.739	1	5
531.079	1	4
531.419	1	0
531.760	1	8
532.100	1	-6
532.440	1	2
532.780	1	2
533.120	1	12
533.461	1	-4
533.801	1	16
534.141	1	-10
534.481	1	-5
534.821	1	-1
535.162	1	3
535.502	1	-8
535.842	1	4
536.182	1	7
536.522	1	-5
536.862	1	5
537.203	1	-6
537.543	1	2
537.883	1	0
538.223	1	-2
538.563	1	15
538.903	1	-1
539.243	1	-5
539.584	1	-3
539.924	1	4
540.264	1	5
540.604	1	4
540.944	1	-10
541.284	1	6
541.624	1	4
541.964	1	10
542.305	1	6
542.645	1	6
542.985	1	3
543.325	1	-4
543.665	1	5
544.005	1	11
544.345	1	8
544.685	1	-9
545.025	1	5
545.365	1	-4
545.705	1	1
546.045	1	2
546.386	1	7
546.726	1	-8
547.066	1	5
547.406	1	6
547.746	1	-3
548.086	1	5
548.426	1	-2
548.766	1	2
549.106	1	5
549.446	1	-6
549.786	1	-8
550.126	1	10
550.466	1	1
550.806	1	8
551.146	1	-4
551.486	1	4
551.826	1	6
552.166	1	0
552.506	1	11
552.846	1	4
553.186	1	11
553.526	1	2
553.866	1	-3
554.206	1	20
554.546	1	4
554.886	1	6
555.226	1	-4
555.566	1	-6
555.906	1	8
556.246	1	1
556.586	1	8
556.926	1	2
557.266	1	-2
557.606	1	0
557.946	1	13
558.286	1	4
558.626	1	3
558.966	1	-3
559.306	1	0
559.646	1	-12
559.986	1	3
560.325	1	-3
560.665	1	4
561.005	1	-2
561.345	1	4
561.685	1	1
562.025	1	-4
562.365	1	-6
562.705	1	-9
563.045	1	-5
563.385	1	-6
563.725	1	0
564.064	1	-3
564.404	1	9
564.744	1	7
565.084	1	1
565.424	1	-6
565.764	1	-2
566.104	1	16
566.444	1	1
566.783	1	-8
567.123	1	-2
567.463	1	1
567.803	1	-5
568.143	1	5
568.483	1	1
568.823	1	-4
569.162	1	3
569.502	1	-4
569.842	1	16
570.182	1	6
570.522	1	-10
570.862	1	0
571.201	1	13
571.541	1	6
571.881	1	16
572.221	1	0
572.561	1	-3
572.900	1	-7
573.240	1	4
573.580	1	7
573.920	1	5
574.260	1	6
574.599	1	4
574.939	1	9
575.279	1	8
575.619	1	6
575.959	1	-3
576.298	1	6
576.638	1	-8
576.978	1	13
577.318	1	3
577.657	1	-2
577.997	1	-3
578.337	1	6
578.677	1	0
579.016	1	8
579.356	1	-11
579.696	1	7
580.036	1	-3
580.375	1	7
580.715	1	0
581.055	1	7
581.394	1	-2
581.734	1	-12
582.074	1	-1
582.414	1	10
582.753	1	-9
583.093	1	6
583.433	1	2
583.772	1	0
584.112	1	-4
584.452	1	5
584.791	1	2
585.131	1	7
585.471	1	13
585.811	1	11
586.150	1	-3
586.490	1	9
586.830	1	0
587.169	1	5
587.509	1	5
587.849	1	13
588.188	1	-2
588.528	1	2
588.867	1	3
589.207	1	0
589.547	1	5
589.886	1	-6
590.226	1	2
590.566	1	-1
590.905	1	-3
591.245	1	-2
591.585	1	6
591.924	1	9
592.264	1	4
592.603	1	7
592.943	1	3
593.283	1	12
593.622	1	-1
593.962	1	3
594.301	1	7
594.641	1	-4
594.981	1	-2
595.320	1	8
595.660	1	-4
595.999	1	-11
596.339	1	-7
596.678	1	-2
597.018	1	4
597.358	1	0
597.697	1	4
598.037	1	-5
598.376	1	5
598.716	1	4
599.055	1	4
599.395	1	2
599.734	1	-2
600.074	1	-5
600.413	1	4
600.753	1	0
601.092	1	3
601.432	1	-9
601.771	1	-2
602.111	1	0
602.451	1	16
602.790	1	3
603.130	1	0
603.469	1	-3
603.809	1	2
604.148	1	3
604.487	1	-5
604.827	1	7
605.166	1	1
605.506	1	6
605.845	1	-2
606.185	1	-1
606.524	1	6
606.864	1	0
607.203	1	4
607.543	1	3
607.882	1	5
608.222	1	-2
608.561	1	4
608.901	1	5
609.240	1	-2
609.579	1	2
609.919	1	5
610.258	1	6
610.598	1	0
610.937	1	-7
611.277	1	-10
611.616	1	2
611.955	1	3
612.295	1	-3
612.634	1	4
612.974	1	-9
613.313	1	2
613.652	1	8
613.992	1	4
614.331	1	-3
614.671	1	0
615.010	1	-11
615.349	1	9
615.689	1	5
616.028	1	-3
616.368	1	-3
616.707	1	4
617.046	1	16
617.386	1	5
617.725	1	-7
618.064	1	-4
618.404	1	-4
618.743	1	0
619.082	1	-2
619.422	1	-6
619.761	1	11
620.100	1	5
620.440	1	-2
620.779	1	-5
621.118	1	4
621.458	1	3
621.797	1	-3
622.136	1	13
622.476	1	1
622.815	1	15
623.154	1	6
623.494	1	10
623.833	1	0
624.172	1	-6
624.511	1	4
624.851	1	-4
625.190	1	1
625.529	1	2
625.869	1	5
626.208	1	-1
626.547	1	0
626.886	1	-2
627.226	1	7
627.565	1	1
627.904	1	1
628.243	1	11
628.583	1	-2
628.922	1	9
629.261	1	2
629.600	1	9
629.940	1	1
630.279	1	-3
630.618	1	-3
630.957	1	-4
631.297	1	-3
631.636	1	-8
631.975	1	17
632.314	1	0
632.653	1	8
632.993	1	5
633.332	1	10
633.671	1	-11
634.010	1	0
634.349	1	5
634.689	1	0
635.028	1	6
635.367	1	14
635.706	1	-8
636.045	1	14
636.384	1	-4
636.724	1	3
637.063	1	2
637.402	1	1
637.741	1	6
638.080	1	-3
638.419	1	-1
638.759	1	-9
639.098	1	6
639.437	1	7
639.776	1	-8
640.115	1	-4
640.454	1	-3
640.793	1	7
641.132	1	0
641.472	1	-1
641.811	1	3
642.150	1	-10
642.489	1	8
642.828	1	-4
643.167	1	-5
643.506	1	-7
643.845	1	-4
644.184	1	4
644.524	1	3
644.863	1	-10
645.202	1	5
645.541	1	4
645.880	1	0
646.219	1	3
646.558	1	-2
646.897	1	-4
647.236	1	0
647.575	1	5
647.914	1	-2
648.253	1	-3
648.592	1	1
648.931	1	8
649.270	1	0
649.610	1	2
649.949	1	-1
650.288	1	7
650.627	1	5
650.966	1	4
651.305	1	-3
651.644	1	4
651.983	1	-1
652.322	1	-2
652.661	1	4
653.000	1	0
653.339	1	9
653.678	1	0
654.017	1	-3
654.356	1	-1
654.695	1	1
655.034	1	-2
655.373	1	-2
655.712	1	-1
656.051	1	-4
656.390	1	-8
656.729	1	8
657.068	1	3
657.406	1	6
657.745	1	-1
658.084	1	7
658.423	1	7
658.762	1	-1
659.101	1	9
659.440	1	-4
659.779	1	3
660.118	1	0
660.457	1	3
660.796	1	-11
661.135	1	-1
661.474	1	-4
661.813	1	14
662.152	1	2
662.491	1	-8
662.829	1	-1
663.168	1	-5
663.507	1	2
663.846	1	-6
664.185	1	-2
664.524	1	7
664.863	1	3
665.202	1	5
665.541	1	-13
665.879	1	-1
666.218	1	0
666.557	1	1
666.896	1	-5
667.235	1	4
667.574	1	-6
667.913	1	1
668.251	1	0
668.590	1	-7
668.929	1	-3
669.268	1	-2
669.607	1	1
669.946	1	2
670.285	1	5
670.623	1	-3
670.962	1	6
671.301	1	3
671.640	1	-5
671.979	1	-2
672.317	1	5
672.656	1	-2
672.995	1	-1
673.334	1	0
673.673	1	4
674.011	1	-4
674.350	1	3
674.689	1	6
675.028	1	-3
675.367	1	6
675.705	1	8
676.044	1	6
676.383	1	2
676.722	1	-1
677.060	1	-10
677.399	1	-5
677.738	1	3
678.077	1	6
678.416	1	-7
678.754	1	-4
679.093	1	1
679.432	1	-5
679.771	1	-1
680.109	1	10
680.448	1	-8
680.787	1	-4
681.125	1	7
681.464	1	-1
681.803	1	5
682.142	1	5
682.480	1	17
682.819	1	2
683.158	1	-3
683.496	1	1
683.835	1	-3
684.174	1	0
684.512	1	1
684.851	1	0
685.190	1	-7
685.529	1	3
685.867	1	7
686.206	1	-3
686.545	1	-2
686.883	1	-6
687.222	1	9
687.561	1	0
687.899	1	0
688.238	1	1
688.577	1	5
688.746	1	-2