File: Data/GaN_200K_800ms/GaN_sample F_spot 12_UVVIS_200 K_200um_800 ms 2x2mm1_45.txt
340.368	1	12
340.710	1	0
341.052	1	10
341.394	1	-5
341.737	1	9
342.079	1	4
342.421	1	6
342.763	1	17
343.105	1	7
343.447	1	7
343.789	1	7
344.131	1	-1
344.473	1	-1
344.815	1	-2
345.157	1	3
345.499	1	6
345.841	1	16
346.183	1	-1
346.526	1	2
346.868	1	12
347.210	1	-6
347.552	1	7
347.894	1	1
348.236	1	14
348.578	1	10
348.920	1	8
349.262	1	5
349.604	1	13
349.946	1	3
350.288	1	17
350.630	1	9
350.972	1	16
351.314	1	21
351.656	1	18
351.998	1	24
352.340	1	17
352.682	1	18
353.024	1	19
353.366	1	25
353.708	1	15
354.050	1	5
354.392	1	20
354.734	1	20
355.076	1	26
355.418	1	13
355.760	1	27
356.102	1	44
356.444	1	31
356.785	1	49
357.127	1	32
357.469	1	37
357.811	1	39
358.153	1	60
358.495	1	50
358.837	1	51
359.179	1	56
359.521	1	75
359.863	1	73
360.205	1	70
360.547	1	83
360.889	1	82
361.231	1	106
361.572	1	109
361.914	1	127
362.256	1	125
362.598	1	139
362.940	1	171
363.282	1	175
363.624	1	221
363.966	1	217
364.308	1	243
364.649	1	271
364.991	1	307
365.333	1	350
365.675	1	383
366.017	1	429
366.359	1	470
366.701	1	501
367.042	1	560
367.384	1	588
367.726	1	615
368.068	1	667
368.410	1	714
368.752	1	737
369.093	1	761
369.435	1	767
369.777	1	772
370.119	1	772
370.461	1	757
370.803	1	723
371.144	1	709
371.486	1	691
371.828	1	647
372.170	1	632
372.512	1	563
372.853	1	550
373.195	1	505
373.537	1	493
373.879	1	471
374.220	1	445
374.562	1	419
374.904	1	409
375.246	1	388
375.588	1	355
375.929	1	340
376.271	1	337
376.613	1	299
376.955	1	274
377.296	1	270
377.638	1	263
377.980	1	233
378.321	1	224
378.663	1	214
379.005	1	213
379.347	1	203
379.688	1	172
380.030	1	168
380.372	1	152
380.714	1	164
381.055	1	155
381.397	1	144
381.739	1	156
382.080	1	135
382.422	1	124
382.764	1	115
383.105	1	114
383.447	1	116
383.789	1	97
384.130	1	100
384.472	1	87
384.814	1	94
385.156	1	82
385.497	1	100
385.839	1	89
386.180	1	97
386.522	1	92
386.864	1	79
387.205	1	67
387.547	1	71
387.889	1	64
388.230	1	64
388.572	1	52
388.914	1	54
389.255	1	51
389.597	1	67
389.939	1	61
390.280	1	63
390.622	1	44
390.963	1	63
391.305	1	50
391.647	1	44
391.988	1	45
392.330	1	41
392.671	1	40
393.013	1	31
393.355	1	44
393.696	1	44
394.038	1	42
394.379	1	35
394.721	1	31
395.062	1	35
395.404	1	28
395.746	1	32
396.087	1	37
396.429	1	27
396.770	1	30
397.112	1	39
397.453	1	42
397.795	1	25
398.136	1	31
398.478	1	34
398.819	1	22
399.161	1	30
399.503	1	28
399.844	1	25
400.186	1	22
400.527	1	18
400.869	1	20
401.210	1	22
401.552	1	8
401.893	1	10
402.235	1	22
402.576	1	17
402.918	1	25
403.259	1	21
403.601	1	9
403.942	1	22
404.284	1	14
404.625	1	18
404.967	1	14
405.308	1	17
405.649	1	19
405.991	1	8
406.332	1	15
406.674	1	6
407.015	1	15
407.357	1	11
407.698	1	17
408.040	1	8
408.381	1	18
408.722	1	2
409.064	1	15
409.405	1	16
409.747	1	12
410.088	1	17
410.430	1	15
410.771	1	12
411.112	1	11
411.454	1	5
411.795	1	11
412.137	1	18
412.478	1	10
412.819	1	11
413.161	1	7
413.502	1	-1
413.844	1	10
414.185	1	10
414.526	1	8
414.868	1	11
415.209	1	5
415.550	1	8
415.892	1	3
416.233	1	8
416.575	1	14
416.916	1	5
417.257	1	4
417.599	1	13
417.940	1	9
418.281	1	10
418.623	1	11
418.964	1	1
419.305	1	9
419.647	1	4
419.988	1	2
420.329	1	-3
420.671	1	19
421.012	1	14
421.353	1	3
421.695	1	-2
422.036	1	7
422.377	1	2
422.718	1	16
423.060	1	8
423.401	1	10
423.742	1	13
424.084	1	7
424.425	1	6
424.766	1	3
425.107	1	8
425.449	1	9
425.790	1	-3
426.131	1	0
426.472	1	12
426.814	1	7
427.155	1	-1
427.496	1	6
427.837	1	5
428.179	1	-1
428.520	1	13
428.861	1	7
429.202	1	10
429.544	1	7
429.885	1	8
430.226	1	3
430.567	1	1
430.909	1	10
431.250	1	2
431.591	1	15
431.932	1	8
432.273	1	3
432.615	1	-1
432.956	1	-2
433.297	1	11
433.638	1	-1
433.979	1	11
434.320	1	13
434.662	1	3
435.003	1	10
435.344	1	12
435.685	1	8
436.026	1	16
436.368	1	8
436.709	1	10
437.050	1	3
437.391	1	23
437.732	1	-2
438.073	1	4
438.414	1	-3
438.756	1	2
439.097	1	8
439.438	1	13
439.779	1	-2
440.120	1	4
440.461	1	11
440.802	1	-1
441.143	1	15
441.485	1	10
441.826	1	7
442.167	1	11
442.508	1	0
442.849	1	18
443.190	1	12
443.531	1	14
443.872	1	8
444.213	1	3
444.554	1	25
444.895	1	-2
445.237	1	-10
445.578	1	-11
445.919	1	2
446.260	1	2
446.601	1	-1
446.942	1	7
447.283	1	-2
447.624	1	5
447.965	1	9
448.306	1	0
448.647	1	0
448.988	1	-1
449.329	1	0
449.670	1	7
450.011	1	11
450.352	1	4
450.693	1	-8
451.034	1	0
451.375	1	7
451.716	1	4
452.057	1	5
452.398	1	9
452.739	1	5
453.080	1	13
453.421	1	-6
453.762	1	6
454.103	1	7
454.444	1	-4
454.785	1	3
455.126	1	5
455.467	1	4
455.808	1	14
456.149	1	6
456.490	1	2
456.831	1	8
457.172	1	2
457.513	1	9
457.854	1	6
458.195	1	1
458.536	1	9
458.877	1	12
459.218	1	3
459.559	1	12
459.899	1	9
460.240	1	5
460.581	1	18
460.922	1	0
461.263	1	10
461.604	1	6
461.945	1	3
462.286	1	-1
462.627	1	17
462.968	1	8
463.309	1	3
463.649	1	3
463.990	1	10
464.331	1	11
464.672	1	2
465.013	1	2
465.354	1	6
465.695	1	5
466.036	1	-2
466.376	1	-2
466.717	1	7
467.058	1	12
467.399	1	16
467.740	1	18
468.081	1	10
468.422	1	1
468.762	1	4
469.103	1	6
469.444	1	7
469.785	1	-6
470.126	1	7
470.467	1	5
470.807	1	6
471.148	1	6
471.489	1	0
471.830	1	11
472.171	1	3
472.511	1	9
472.852	1	7
473.193	1	11
473.534	1	15
473.875	1	15
474.215	1	17
474.556	1	5
474.897	1	4
475.238	1	4
475.578	1	4
475.919	1	11
476.260	1	5
476.601	1	7
476.942	1	11
477.282	1	5
477.623	1	-7
477.964	1	4
478.305	1	9
478.645	1	19
478.986	1	0
479.327	1	2
479.667	1	6
480.008	1	8
480.349	1	-2
480.690	1	2
481.030	1	-3
481.371	1	9
481.712	1	13
482.053	1	9
482.393	1	-2
482.734	1	7
483.075	1	5
483.415	1	12
483.756	1	21
484.097	1	18
484.437	1	-2
484.778	1	4
485.119	1	13
485.459	1	25
485.800	1	11
486.141	1	10
486.481	1	13
486.822	1	17
487.163	1	15
487.503	1	8
487.844	1	10
488.185	1	14
488.525	1	17
488.866	1	18
489.207	1	15
489.547	1	6
489.888	1	7
490.228	1	23
490.569	1	25
490.910	1	14
491.250	1	10
491.591	1	2
491.932	1	22
492.272	1	18
492.613	1	12
492.953	1	15
493.294	1	17
493.635	1	17
493.975	1	19
494.316	1	17
494.656	1	16
494.997	1	15
495.337	1	25
495.678	1	20
496.019	1	10
496.359	1	10
496.700	1	13
497.040	1	12
497.381	1	19
497.721	1	11
498.062	1	17
498.403	1	16
498.743	1	21
499.084	1	33
499.424	1	15
499.765	1	29
500.105	1	27
500.446	1	11
500.786	1	18
501.127	1	21
501.467	1	17
501.808	1	25
502.148	1	22
502.489	1	31
502.829	1	32
503.170	1	29
503.510	1	26
503.851	1	30
504.191	1	32
504.532	1	22
504.872	1	28
505.213	1	45
505.553	1	29
505.894	1	18
506.234	1	42
506.575	1	38
506.915	1	46
507.256	1	31
507.596	1	26
507.936	1	41
508.277	1	36
508.617	1	39
508.958	1	17
509.298	1	39
509.639	1	23
509.979	1	32
510.319	1	41
510.660	1	34
511.000	1	31
511.341	1	34
511.681	1	40
512.022	1	33
512.362	1	27
512.702	1	31
513.043	1	41
513.383	1	31
513.724	1	35
514.064	1	46
514.404	1	33
514.745	1	29
515.085	1	38
515.425	1	35
515.766	1	35
516.106	1	42
516.447	1	48
516.787	1	46
517.127	1	39
517.468	1	31
517.808	1	36
518.148	1	38
518.489	1	33
518.829	1	41
519.169	1	41
519.510	1	41
519.850	1	40
520.190	1	42
520.531	1	54
520.871	1	46
521.211	1	28
521.552	1	54
521.892	1	33
522.232	1	43
522.573	1	46
522.913	1	48
523.253	1	45
523.593	1	33
523.934	1	46
524.274	1	44
524.614	1	50
524.955	1	40
525.295	1	37
525.635	1	38
525.975	1	51
526.316	1	62
526.656	1	52
526.996	1	61
527.337	1	42
527.677	1	52
528.017	1	45
528.357	1	55
528.698	1	45
529.038	1	51
529.378	1	52
529.718	1	54
530.058	1	45
530.399	1	61
530.739	1	61
531.079	1	51
531.419	1	58
531.760	1	56
532.100	1	55
532.440	1	51
532.780	1	52
533.120	1	63
533.461	1	66
533.801	1	64
534.141	1	41
534.481	1	53
534.821	1	75
535.162	1	54
535.502	1	54
535.842	1	58
536.182	1	57
536.522	1	52
536.862	1	57
537.203	1	49
537.543	1	55
537.883	1	54
538.223	1	47
538.563	1	54
538.903	1	46
539.243	1	47
539.584	1	52
539.924	1	59
540.264	1	41
540.604	1	52
540.944	1	52
541.284	1	60
541.624	1	52
541.964	1	55
542.305	1	55
542.645	1	55
542.985	1	62
543.325	1	54
543.665	1	58
544.005	1	60
544.345	1	60
544.685	1	56
545.025	1	54
545.365	1	68
545.705	1	55
546.045	1	56
546.386	1	70
546.726	1	47
547.066	1	57
547.406	1	50
547.746	1	53
548.086	1	60
548.426	1	61
548.766	1	65
549.106	1	64
549.446	1	63
549.786	1	61
550.126	1	74
550.466	1	56
550.806	1	63
551.146	1	49
551.486	1	70
551.826	1	63
552.166	1	76
552.506	1	71
552.846	1	74
553.186	1	77
553.526	1	68
553.866	1	60
554.206	1	66
554.546	1	69
554.886	1	66
555.226	1	62
555.566	1	66
555.906	1	54
556.246	1	66
556.586	1	57
556.926	1	64
557.266	1	54
557.606	1	65
557.946	1	72
558.286	1	58
558.626	1	59
558.966	1	56
559.306	1	57
559.646	1	63
559.986	1	49
560.325	1	47
560.665	1	54
561.005	1	57
561.345	1	53
561.685	1	64
562.025	1	57
562.365	1	62
562.705	1	68
563.045	1	59
563.385	1	52
563.725	1	64
564.064	1	55
564.404	1	55
564.744	1	63
565.084	1	53
565.424	1	69
565.764	1	62
566.104	1	62
566.444	1	49
566.783	1	62
567.123	1	64
567.463	1	62
567.803	1	53
568.143	1	67
568.483	1	65
568.823	1	62
569.162	1	60
569.502	1	57
569.842	1	65
570.182	1	65
570.522	1	48
570.862	1	53
571.201	1	64
571.541	1	63
571.881	1	72
572.221	1	51
572.561	1	58
572.900	1	48
573.240	1	59
573.580	1	58
573.920	1	73
574.260	1	71
574.599	1	54
574.939	1	55
575.279	1	62
575.619	1	64
575.959	1	58
576.298	1	64
576.638	1	53
576.978	1	59
577.318	1	67
577.657	1	49
577.997	1	53
578.337	1	71
578.677	1	56
579.016	1	72
579.356	1	42
579.696	1	61
580.036	1	50
580.375	1	62
580.715	1	56
581.055	1	53
581.394	1	54
581.734	1	51
582.074	1	50
582.414	1	61
582.753	1	51
583.093	1	60
583.433	1	49
583.772	1	61
584.112	1	63
584.452	1	64
584.791	1	61
585.131	1	51
585.471	1	62
585.811	1	61
586.150	1	49
586.490	1	62
586.830	1	53
587.169	1	57
587.509	1	55
587.849	1	53
588.188	1	62
588.528	1	46
588.867	1	56
589.207	1	52
589.547	1	58
589.886	1	46
590.226	1	57
590.566	1	38
590.905	1	55
591.245	1	39
591.585	1	54
591.924	1	45
592.264	1	40
592.603	1	51
592.943	1	47
593.283	1	52
593.622	1	47
593.962	1	41
594.301	1	56
594.641	1	37
594.981	1	43
595.320	1	40
595.660	1	46
595.999	1	39
596.339	1	41
596.678	1	32
597.018	1	35
597.358	1	43
597.697	1	52
598.037	1	47
598.376	1	41
598.716	1	44
599.055	1	38
599.395	1	42
599.734	1	45
600.074	1	42
600.413	1	49
600.753	1	39
601.092	1	56
601.432	1	38
601.771	1	58
602.111	1	47
602.451	1	51
602.790	1	47
603.130	1	48
603.469	1	41
603.809	1	43
604.148	1	62
604.487	1	54
604.827	1	57
605.166	1	41
605.506	1	45
605.845	1	50
606.185	1	57
606.524	1	40
606.864	1	46
607.203	1	45
607.543	1	50
607.882	1	54
608.222	1	46
608.561	1	46
608.901	1	55
609.240	1	48
609.579	1	43
609.919	1	56
610.258	1	65
610.598	1	51
610.937	1	42
611.277	1	34
611.616	1	42
611.955	1	44
612.295	1	30
612.634	1	32
612.974	1	25
613.313	1	34
613.652	1	42
613.992	1	34
614.331	1	34
614.671	1	36
615.010	1	27
615.349	1	44
615.689	1	43
616.028	1	40
616.368	1	36
616.707	1	42
617.046	1	30
617.386	1	46
617.725	1	32
618.064	1	25
618.404	1	35
618.743	1	45
619.082	1	30
619.422	1	27
619.761	1	36
620.100	1	42
620.440	1	32
620.779	1	27
621.118	1	33
621.458	1	34
621.797	1	32
622.136	1	55
622.476	1	49
622.815	1	46
623.154	1	42
623.494	1	35
623.833	1	40
624.172	1	29
624.511	1	37
624.851	1	17
625.190	1	37
625.529	1	28
625.869	1	40
626.208	1	33
626.547	1	27
626.886	1	35
627.226	1	36
627.565	1	36
627.904	1	28
628.243	1	38
628.583	1	32
628.922	1	33
629.261	1	28
629.600	1	43
629.940	1	31
630.279	1	30
630.618	1	38
630.957	1	32
631.297	1	27
631.636	1	24
631.975	1	39
632.314	1	34
632.653	1	25
632.993	1	21
633.332	1	28
633.671	1	24
634.010	1	27
634.349	1	35
634.689	1	29
635.028	1	36
635.367	1	31
635.706	1	33
636.045	1	32
636.384	1	23
636.724	1	29
637.063	1	27
637.402	1	24
637.741	1	29
638.080	1	29
638.419	1	11
638.759	1	27
639.098	1	29
639.437	1	30
639.776	1	22
640.115	1	24
640.454	1	20
640.793	1	33
641.132	1	38
641.472	1	27
641.811	1	22
642.150	1	9
642.489	1	35
642.828	1	15
643.167	1	15
643.506	1	21
643.845	1	18
644.184	1	29
644.524	1	25
644.863	1	15
645.202	1	29
645.541	1	27
645.880	1	24
646.219	1	24
646.558	1	24
646.897	1	16
647.236	1	20
647.575	1	31
647.914	1	19
648.253	1	33
648.592	1	18
648.931	1	31
649.270	1	30
649.610	1	15
649.949	1	16
650.288	1	25
650.627	1	28
650.966	1	25
651.305	1	21
651.644	1	25
651.983	1	25
652.322	1	10
652.661	1	11
653.000	1	24
653.339	1	21
653.678	1	19
654.017	1	15
654.356	1	12
654.695	1	29
655.034	1	17
655.373	1	22
655.712	1	24
656.051	1	15
656.390	1	9
656.729	1	29
657.068	1	17
657.406	1	16
657.745	1	14
658.084	1	17
658.423	1	28
658.762	1	20
659.101	1	27
659.440	1	14
659.779	1	21
660.118	1	21
660.457	1	16
660.796	1	9
661.135	1	18
661.474	1	24
661.813	1	24
662.152	1	19
662.491	1	12
662.829	1	8
663.168	1	15
663.507	1	27
663.846	1	10
664.185	1	21
664.524	1	17
664.863	1	18
665.202	1	14
665.541	1	0
665.879	1	8
666.218	1	-2
666.557	1	10
666.896	1	9
667.235	1	17
667.574	1	11
667.913	1	17
668.251	1	14
668.590	1	8
668.929	1	9
669.268	1	15
669.607	1	13
669.946	1	14
670.285	1	13
670.623	1	15
670.962	1	16
671.301	1	14
671.640	1	16
671.979	1	11
672.317	1	20
672.656	1	20
672.995	1	18
673.334	1	10
673.673	1	16
674.011	1	17
674.350	1	15
674.689	1	11
675.028	1	18
675.367	1	16
675.705	1	16
676.044	1	12
676.383	1	15
676.722	1	17
677.060	1	2
677.399	1	10
677.738	1	19
678.077	1	21
678.416	1	22
678.754	1	12
679.093	1	19
679.432	1	13
679.771	1	23
680.109	1	12
680.448	1	26
680.787	1	6
681.125	1	15
681.464	1	12
681.803	1	7
682.142	1	24
682.480	1	17
682.819	1	16
683.158	1	20
683.496	1	7
683.835	1	12
684.174	1	18
684.512	1	22
684.851	1	20
685.190	1	10
685.529	1	16
685.867	1	12
686.206	1	9
686.545	1	10
686.883	1	11
687.222	1	18
687.561	1	17
687.899	1	23
688.238	1	20
688.577	1	21
688.746	1	13