File: Data/GaN_200K_800ms/GaN_sample F_spot 12_UVVIS_200 K_200um_800 ms 2x2mm1_127.txt
340.368	1	-1
340.710	1	-4
341.052	1	15
341.394	1	-1
341.737	1	9
342.079	1	-9
342.421	1	-1
342.763	1	4
343.105	1	2
343.447	1	0
343.789	1	1
344.131	1	8
344.473	1	5
344.815	1	7
345.157	1	-7
345.499	1	6
345.841	1	10
346.183	1	-7
346.526	1	3
346.868	1	4
347.210	1	-3
347.552	1	0
347.894	1	7
348.236	1	7
348.578	1	0
348.920	1	-1
349.262	1	5
349.604	1	9
349.946	1	4
350.288	1	11
350.630	1	2
350.972	1	8
351.314	1	9
351.656	1	9
351.998	1	9
352.340	1	-1
352.682	1	15
353.024	1	11
353.366	1	19
353.708	1	8
354.050	1	-5
354.392	1	-8
354.734	1	10
355.076	1	6
355.418	1	-6
355.760	1	-1
356.102	1	11
356.444	1	7
356.785	1	11
357.127	1	0
357.469	1	11
357.811	1	9
358.153	1	18
358.495	1	6
358.837	1	9
359.179	1	13
359.521	1	15
359.863	1	8
360.205	1	16
360.547	1	11
360.889	1	7
361.231	1	13
361.572	1	20
361.914	1	17
362.256	1	24
362.598	1	13
362.940	1	15
363.282	1	28
363.624	1	31
363.966	1	16
364.308	1	27
364.649	1	35
364.991	1	29
365.333	1	30
365.675	1	27
366.017	1	43
366.359	1	50
366.701	1	62
367.042	1	61
367.384	1	63
367.726	1	63
368.068	1	61
368.410	1	75
368.752	1	55
369.093	1	65
369.435	1	65
369.777	1	68
370.119	1	61
370.461	1	72
370.803	1	70
371.144	1	57
371.486	1	69
371.828	1	71
372.170	1	66
372.512	1	57
372.853	1	63
373.195	1	47
373.537	1	50
373.879	1	51
374.220	1	52
374.562	1	55
374.904	1	43
375.246	1	33
375.588	1	46
375.929	1	51
376.271	1	45
376.613	1	38
376.955	1	23
377.296	1	20
377.638	1	31
377.980	1	30
378.321	1	23
378.663	1	32
379.005	1	23
379.347	1	23
379.688	1	20
380.030	1	34
380.372	1	22
380.714	1	23
381.055	1	34
381.397	1	15
381.739	1	16
382.080	1	13
382.422	1	15
382.764	1	17
383.105	1	18
383.447	1	16
383.789	1	9
384.130	1	12
384.472	1	16
384.814	1	7
385.156	1	4
385.497	1	16
385.839	1	17
386.180	1	9
386.522	1	15
386.864	1	13
387.205	1	4
387.547	1	8
387.889	1	9
388.230	1	20
388.572	1	-7
388.914	1	9
389.255	1	1
389.597	1	12
389.939	1	8
390.280	1	9
390.622	1	6
390.963	1	17
391.305	1	12
391.647	1	8
391.988	1	11
392.330	1	17
392.671	1	0
393.013	1	8
393.355	1	15
393.696	1	20
394.038	1	2
394.379	1	13
394.721	1	5
395.062	1	3
395.404	1	-3
395.746	1	8
396.087	1	2
396.429	1	5
396.770	1	-2
397.112	1	14
397.453	1	16
397.795	1	3
398.136	1	2
398.478	1	10
398.819	1	2
399.161	1	22
399.503	1	4
399.844	1	7
400.186	1	-3
400.527	1	4
400.869	1	4
401.210	1	5
401.552	1	-10
401.893	1	2
402.235	1	12
402.576	1	-2
402.918	1	12
403.259	1	8
403.601	1	-1
403.942	1	16
404.284	1	-3
404.625	1	12
404.967	1	0
405.308	1	20
405.649	1	1
405.991	1	5
406.332	1	12
406.674	1	0
407.015	1	8
407.357	1	10
407.698	1	7
408.040	1	3
408.381	1	4
408.722	1	-11
409.064	1	6
409.405	1	7
409.747	1	6
410.088	1	-6
410.430	1	12
410.771	1	2
411.112	1	3
411.454	1	-1
411.795	1	0
412.137	1	9
412.478	1	17
412.819	1	0
413.161	1	4
413.502	1	-2
413.844	1	6
414.185	1	10
414.526	1	2
414.868	1	15
415.209	1	8
415.550	1	4
415.892	1	6
416.233	1	8
416.575	1	15
416.916	1	-6
417.257	1	5
417.599	1	-1
417.940	1	7
418.281	1	4
418.623	1	4
418.964	1	-11
419.305	1	3
419.647	1	-5
419.988	1	-10
420.329	1	-4
420.671	1	7
421.012	1	0
421.353	1	0
421.695	1	4
422.036	1	2
422.377	1	2
422.718	1	8
423.060	1	-6
423.401	1	8
423.742	1	3
424.084	1	0
424.425	1	9
424.766	1	-1
425.107	1	-2
425.449	1	8
425.790	1	-2
426.131	1	-2
426.472	1	2
426.814	1	8
427.155	1	-11
427.496	1	4
427.837	1	-2
428.179	1	-8
428.520	1	3
428.861	1	-5
429.202	1	-2
429.544	1	9
429.885	1	1
430.226	1	-9
430.567	1	4
430.909	1	2
431.250	1	-4
431.591	1	13
431.932	1	-8
432.273	1	2
432.615	1	0
432.956	1	-3
433.297	1	-3
433.638	1	3
433.979	1	5
434.320	1	4
434.662	1	2
435.003	1	1
435.344	1	7
435.685	1	0
436.026	1	9
436.368	1	11
436.709	1	-1
437.050	1	6
437.391	1	14
437.732	1	-8
438.073	1	-7
438.414	1	-10
438.756	1	-2
439.097	1	-3
439.438	1	-3
439.779	1	-5
440.120	1	-1
440.461	1	5
440.802	1	3
441.143	1	16
441.485	1	10
441.826	1	1
442.167	1	9
442.508	1	-9
442.849	1	-1
443.190	1	-4
443.531	1	11
443.872	1	6
444.213	1	10
444.554	1	7
444.895	1	-4
445.237	1	-3
445.578	1	-6
445.919	1	0
446.260	1	-5
446.601	1	1
446.942	1	2
447.283	1	-3
447.624	1	7
447.965	1	-1
448.306	1	5
448.647	1	-1
448.988	1	1
449.329	1	3
449.670	1	14
450.011	1	9
450.352	1	-12
450.693	1	-14
451.034	1	-4
451.375	1	-3
451.716	1	5
452.057	1	6
452.398	1	3
452.739	1	10
453.080	1	7
453.421	1	1
453.762	1	2
454.103	1	1
454.444	1	-11
454.785	1	9
455.126	1	-10
455.467	1	5
455.808	1	-2
456.149	1	7
456.490	1	-1
456.831	1	8
457.172	1	-5
457.513	1	1
457.854	1	4
458.195	1	-4
458.536	1	7
458.877	1	5
459.218	1	6
459.559	1	0
459.899	1	0
460.240	1	7
460.581	1	18
460.922	1	12
461.263	1	2
461.604	1	-2
461.945	1	5
462.286	1	-1
462.627	1	4
462.968	1	10
463.309	1	-4
463.649	1	0
463.990	1	3
464.331	1	-3
464.672	1	-4
465.013	1	5
465.354	1	8
465.695	1	-4
466.036	1	-4
466.376	1	-11
466.717	1	7
467.058	1	6
467.399	1	6
467.740	1	-2
468.081	1	8
468.422	1	-4
468.762	1	-2
469.103	1	-4
469.444	1	-6
469.785	1	-9
470.126	1	1
470.467	1	1
470.807	1	10
471.148	1	7
471.489	1	4
471.830	1	10
472.171	1	9
472.511	1	1
472.852	1	1
473.193	1	3
473.534	1	6
473.875	1	9
474.215	1	7
474.556	1	0
474.897	1	2
475.238	1	2
475.578	1	-3
475.919	1	-1
476.260	1	3
476.601	1	2
476.942	1	15
477.282	1	1
477.623	1	-15
477.964	1	2
478.305	1	2
478.645	1	6
478.986	1	5
479.327	1	-8
479.667	1	-1
480.008	1	-6
480.349	1	-2
480.690	1	-2
481.030	1	-5
481.371	1	1
481.712	1	1
482.053	1	-3
482.393	1	6
482.734	1	-4
483.075	1	6
483.415	1	-2
483.756	1	13
484.097	1	4
484.437	1	-7
484.778	1	10
485.119	1	1
485.459	1	17
485.800	1	5
486.141	1	4
486.481	1	0
486.822	1	5
487.163	1	3
487.503	1	2
487.844	1	8
488.185	1	6
488.525	1	0
488.866	1	8
489.207	1	-7
489.547	1	-2
489.888	1	-1
490.228	1	1
490.569	1	15
490.910	1	10
491.250	1	2
491.591	1	2
491.932	1	-4
492.272	1	-3
492.613	1	-2
492.953	1	-3
493.294	1	5
493.635	1	1
493.975	1	2
494.316	1	5
494.656	1	10
494.997	1	4
495.337	1	7
495.678	1	7
496.019	1	7
496.359	1	-4
496.700	1	2
497.040	1	-7
497.381	1	0
497.721	1	-3
498.062	1	6
498.403	1	8
498.743	1	-3
499.084	1	-1
499.424	1	2
499.765	1	3
500.105	1	5
500.446	1	2
500.786	1	-16
501.127	1	-2
501.467	1	-9
501.808	1	9
502.148	1	5
502.489	1	1
502.829	1	-2
503.170	1	15
503.510	1	13
503.851	1	10
504.191	1	14
504.532	1	9
504.872	1	2
505.213	1	15
505.553	1	-13
505.894	1	-3
506.234	1	14
506.575	1	5
506.915	1	7
507.256	1	8
507.596	1	7
507.936	1	12
508.277	1	8
508.617	1	-2
508.958	1	-3
509.298	1	2
509.639	1	-1
509.979	1	2
510.319	1	16
510.660	1	1
511.000	1	2
511.341	1	-3
511.681	1	12
512.022	1	1
512.362	1	4
512.702	1	-3
513.043	1	10
513.383	1	-2
513.724	1	13
514.064	1	6
514.404	1	3
514.745	1	2
515.085	1	0
515.425	1	8
515.766	1	-6
516.106	1	9
516.447	1	16
516.787	1	7
517.127	1	5
517.468	1	0
517.808	1	5
518.148	1	5
518.489	1	8
518.829	1	13
519.169	1	4
519.510	1	5
519.850	1	6
520.190	1	13
520.531	1	11
520.871	1	13
521.211	1	-13
521.552	1	11
521.892	1	6
522.232	1	5
522.573	1	3
522.913	1	12
523.253	1	-2
523.593	1	2
523.934	1	7
524.274	1	6
524.614	1	0
524.955	1	-1
525.295	1	13
525.635	1	7
525.975	1	4
526.316	1	14
526.656	1	8
526.996	1	6
527.337	1	4
527.677	1	7
528.017	1	-8
528.357	1	5
528.698	1	9
529.038	1	3
529.378	1	10
529.718	1	6
530.058	1	4
530.399	1	16
530.739	1	6
531.079	1	16
531.419	1	8
531.760	1	15
532.100	1	12
532.440	1	3
532.780	1	2
533.120	1	24
533.461	1	2
533.801	1	17
534.141	1	-6
534.481	1	-2
534.821	1	6
535.162	1	7
535.502	1	-8
535.842	1	8
536.182	1	12
536.522	1	-1
536.862	1	8
537.203	1	-6
537.543	1	1
537.883	1	-3
538.223	1	10
538.563	1	12
538.903	1	-2
539.243	1	0
539.584	1	4
539.924	1	14
540.264	1	2
540.604	1	3
540.944	1	11
541.284	1	4
541.624	1	10
541.964	1	22
542.305	1	12
542.645	1	9
542.985	1	7
543.325	1	-2
543.665	1	16
544.005	1	9
544.345	1	14
544.685	1	2
545.025	1	7
545.365	1	4
545.705	1	3
546.045	1	4
546.386	1	6
546.726	1	-5
547.066	1	12
547.406	1	4
547.746	1	7
548.086	1	12
548.426	1	-5
548.766	1	0
549.106	1	7
549.446	1	-1
549.786	1	1
550.126	1	16
550.466	1	6
550.806	1	6
551.146	1	2
551.486	1	3
551.826	1	4
552.166	1	18
552.506	1	11
552.846	1	8
553.186	1	12
553.526	1	-4
553.866	1	9
554.206	1	8
554.546	1	8
554.886	1	14
555.226	1	-5
555.566	1	5
555.906	1	13
556.246	1	13
556.586	1	9
556.926	1	9
557.266	1	-2
557.606	1	7
557.946	1	16
558.286	1	17
558.626	1	1
558.966	1	4
559.306	1	1
559.646	1	2
559.986	1	9
560.325	1	-3
560.665	1	0
561.005	1	2
561.345	1	15
561.685	1	6
562.025	1	7
562.365	1	2
562.705	1	4
563.045	1	9
563.385	1	-7
563.725	1	7
564.064	1	5
564.404	1	9
564.744	1	10
565.084	1	3
565.424	1	0
565.764	1	3
566.104	1	9
566.444	1	9
566.783	1	0
567.123	1	2
567.463	1	14
567.803	1	3
568.143	1	0
568.483	1	2
568.823	1	8
569.162	1	3
569.502	1	-5
569.842	1	10
570.182	1	10
570.522	1	-3
570.862	1	9
571.201	1	14
571.541	1	15
571.881	1	24
572.221	1	2
572.561	1	1
572.900	1	-1
573.240	1	-1
573.580	1	9
573.920	1	7
574.260	1	13
574.599	1	7
574.939	1	7
575.279	1	19
575.619	1	12
575.959	1	-4
576.298	1	3
576.638	1	-3
576.978	1	7
577.318	1	14
577.657	1	4
577.997	1	5
578.337	1	14
578.677	1	14
579.016	1	15
579.356	1	1
579.696	1	11
580.036	1	5
580.375	1	8
580.715	1	5
581.055	1	-5
581.394	1	12
581.734	1	-5
582.074	1	4
582.414	1	12
582.753	1	12
583.093	1	5
583.433	1	4
583.772	1	4
584.112	1	10
584.452	1	11
584.791	1	12
585.131	1	5
585.471	1	15
585.811	1	14
586.150	1	-7
586.490	1	1
586.830	1	1
587.169	1	6
587.509	1	0
587.849	1	10
588.188	1	14
588.528	1	10
588.867	1	9
589.207	1	15
589.547	1	6
589.886	1	-4
590.226	1	6
590.566	1	3
590.905	1	2
591.245	1	-2
591.585	1	7
591.924	1	7
592.264	1	12
592.603	1	6
592.943	1	5
593.283	1	12
593.622	1	2
593.962	1	14
594.301	1	9
594.641	1	13
594.981	1	-4
595.320	1	6
595.660	1	4
595.999	1	1
596.339	1	15
596.678	1	4
597.018	1	-2
597.358	1	15
597.697	1	8
598.037	1	6
598.376	1	5
598.716	1	12
599.055	1	9
599.395	1	11
599.734	1	6
600.074	1	5
600.413	1	9
600.753	1	1
601.092	1	14
601.432	1	1
601.771	1	11
602.111	1	12
602.451	1	5
602.790	1	5
603.130	1	5
603.469	1	-5
603.809	1	11
604.148	1	11
604.487	1	13
604.827	1	9
605.166	1	14
605.506	1	4
605.845	1	11
606.185	1	16
606.524	1	0
606.864	1	-6
607.203	1	3
607.543	1	6
607.882	1	12
608.222	1	12
608.561	1	4
608.901	1	5
609.240	1	-2
609.579	1	11
609.919	1	9
610.258	1	10
610.598	1	-4
610.937	1	0
611.277	1	-4
611.616	1	2
611.955	1	-3
612.295	1	-4
612.634	1	-2
612.974	1	-5
613.313	1	24
613.652	1	11
613.992	1	3
614.331	1	4
614.671	1	-2
615.010	1	-3
615.349	1	4
615.689	1	20
616.028	1	-2
616.368	1	9
616.707	1	13
617.046	1	-2
617.386	1	4
617.725	1	5
618.064	1	8
618.404	1	2
618.743	1	7
619.082	1	-9
619.422	1	0
619.761	1	9
620.100	1	11
620.440	1	11
620.779	1	-10
621.118	1	5
621.458	1	3
621.797	1	6
622.136	1	16
622.476	1	4
622.815	1	5
623.154	1	10
623.494	1	14
623.833	1	7
624.172	1	4
624.511	1	1
624.851	1	-12
625.190	1	7
625.529	1	2
625.869	1	2
626.208	1	-4
626.547	1	8
626.886	1	15
627.226	1	6
627.565	1	-1
627.904	1	5
628.243	1	3
628.583	1	0
628.922	1	6
629.261	1	5
629.600	1	12
629.940	1	5
630.279	1	-4
630.618	1	2
630.957	1	11
631.297	1	5
631.636	1	-5
631.975	1	6
632.314	1	-5
632.653	1	4
632.993	1	5
633.332	1	4
633.671	1	1
634.010	1	-1
634.349	1	8
634.689	1	1
635.028	1	10
635.367	1	0
635.706	1	1
636.045	1	13
636.384	1	10
636.724	1	-1
637.063	1	-6
637.402	1	9
637.741	1	8
638.080	1	-2
638.419	1	-1
638.759	1	0
639.098	1	3
639.437	1	2
639.776	1	-1
640.115	1	-1
640.454	1	0
640.793	1	9
641.132	1	13
641.472	1	8
641.811	1	1
642.150	1	-8
642.489	1	6
642.828	1	-8
643.167	1	-4
643.506	1	-5
643.845	1	9
644.184	1	5
644.524	1	-3
644.863	1	-4
645.202	1	6
645.541	1	2
645.880	1	10
646.219	1	0
646.558	1	-1
646.897	1	8
647.236	1	2
647.575	1	2
647.914	1	-7
648.253	1	9
648.592	1	-3
648.931	1	5
649.270	1	2
649.610	1	9
649.949	1	-2
650.288	1	7
650.627	1	1
650.966	1	11
651.305	1	0
651.644	1	12
651.983	1	11
652.322	1	9
652.661	1	-3
653.000	1	6
653.339	1	13
653.678	1	-2
654.017	1	0
654.356	1	-4
654.695	1	7
655.034	1	-1
655.373	1	5
655.712	1	5
656.051	1	3
656.390	1	2
656.729	1	11
657.068	1	2
657.406	1	9
657.745	1	0
658.084	1	-3
658.423	1	13
658.762	1	-5
659.101	1	14
659.440	1	-2
659.779	1	12
660.118	1	2
660.457	1	1
660.796	1	-3
661.135	1	0
661.474	1	3
661.813	1	11
662.152	1	10
662.491	1	2
662.829	1	-1
663.168	1	14
663.507	1	15
663.846	1	-10
664.185	1	9
664.524	1	3
664.863	1	0
665.202	1	4
665.541	1	-5
665.879	1	-6
666.218	1	-7
666.557	1	-3
666.896	1	-3
667.235	1	2
667.574	1	4
667.913	1	3
668.251	1	2
668.590	1	-2
668.929	1	-13
669.268	1	2
669.607	1	6
669.946	1	11
670.285	1	3
670.623	1	-5
670.962	1	3
671.301	1	6
671.640	1	1
671.979	1	-7
672.317	1	9
672.656	1	6
672.995	1	11
673.334	1	2
673.673	1	-2
674.011	1	-7
674.350	1	7
674.689	1	11
675.028	1	5
675.367	1	6
675.705	1	0
676.044	1	2
676.383	1	8
676.722	1	9
677.060	1	0
677.399	1	3
677.738	1	3
678.077	1	5
678.416	1	7
678.754	1	-4
679.093	1	1
679.432	1	8
679.771	1	1
680.109	1	13
680.448	1	7
680.787	1	2
681.125	1	12
681.464	1	6
681.803	1	8
682.142	1	18
682.480	1	19
682.819	1	0
683.158	1	2
683.496	1	-3
683.835	1	13
684.174	1	-3
684.512	1	8
684.851	1	10
685.190	1	5
685.529	1	3
685.867	1	6
686.206	1	-3
686.545	1	-3
686.883	1	0
687.222	1	6
687.561	1	12
687.899	1	-1
688.238	1	4
688.577	1	13
688.746	1	8