File: Data/GaN_200K_800ms/GaN_sample F_spot 12_UVVIS_200 K_200um_800 ms 2x2mm1_320.txt
340.368	1	2
340.710	1	-4
341.052	1	7
341.394	1	-3
341.737	1	-1
342.079	1	-11
342.421	1	-6
342.763	1	4
343.105	1	1
343.447	1	-6
343.789	1	3
344.131	1	-3
344.473	1	-3
344.815	1	-11
345.157	1	-7
345.499	1	0
345.841	1	-1
346.183	1	-1
346.526	1	5
346.868	1	10
347.210	1	-9
347.552	1	1
347.894	1	11
348.236	1	3
348.578	1	-4
348.920	1	-2
349.262	1	-2
349.604	1	8
349.946	1	-11
350.288	1	3
350.630	1	-2
350.972	1	-4
351.314	1	5
351.656	1	3
351.998	1	-1
352.340	1	3
352.682	1	6
353.024	1	1
353.366	1	14
353.708	1	5
354.050	1	-7
354.392	1	-1
354.734	1	4
355.076	1	-9
355.418	1	-8
355.760	1	1
356.102	1	11
356.444	1	-8
356.785	1	12
357.127	1	-1
357.469	1	3
357.811	1	3
358.153	1	15
358.495	1	6
358.837	1	-16
359.179	1	8
359.521	1	7
359.863	1	3
360.205	1	-1
360.547	1	8
360.889	1	-3
361.231	1	0
361.572	1	6
361.914	1	5
362.256	1	-2
362.598	1	-7
362.940	1	9
363.282	1	10
363.624	1	13
363.966	1	3
364.308	1	0
364.649	1	15
364.991	1	9
365.333	1	2
365.675	1	4
366.017	1	9
366.359	1	2
366.701	1	7
367.042	1	16
367.384	1	16
367.726	1	17
368.068	1	17
368.410	1	23
368.752	1	8
369.093	1	9
369.435	1	18
369.777	1	10
370.119	1	8
370.461	1	22
370.803	1	11
371.144	1	6
371.486	1	25
371.828	1	14
372.170	1	21
372.512	1	7
372.853	1	17
373.195	1	13
373.537	1	10
373.879	1	7
374.220	1	15
374.562	1	15
374.904	1	4
375.246	1	6
375.588	1	3
375.929	1	16
376.271	1	9
376.613	1	6
376.955	1	2
377.296	1	2
377.638	1	5
377.980	1	16
378.321	1	-2
378.663	1	9
379.005	1	21
379.347	1	3
379.688	1	9
380.030	1	0
380.372	1	4
380.714	1	14
381.055	1	15
381.397	1	8
381.739	1	9
382.080	1	10
382.422	1	1
382.764	1	-1
383.105	1	-5
383.447	1	2
383.789	1	0
384.130	1	-1
384.472	1	5
384.814	1	1
385.156	1	-5
385.497	1	-3
385.839	1	-2
386.180	1	-4
386.522	1	3
386.864	1	6
387.205	1	1
387.547	1	-4
387.889	1	-2
388.230	1	4
388.572	1	6
388.914	1	0
389.255	1	0
389.597	1	10
389.939	1	1
390.280	1	1
390.622	1	-7
390.963	1	9
391.305	1	2
391.647	1	6
391.988	1	5
392.330	1	2
392.671	1	-12
393.013	1	-5
393.355	1	0
393.696	1	2
394.038	1	-7
394.379	1	8
394.721	1	1
395.062	1	3
395.404	1	-5
395.746	1	8
396.087	1	-6
396.429	1	5
396.770	1	6
397.112	1	11
397.453	1	21
397.795	1	-6
398.136	1	-10
398.478	1	8
398.819	1	9
399.161	1	13
399.503	1	-2
399.844	1	-4
400.186	1	8
400.527	1	-5
400.869	1	3
401.210	1	1
401.552	1	-5
401.893	1	-1
402.235	1	12
402.576	1	-5
402.918	1	5
403.259	1	7
403.601	1	-3
403.942	1	9
404.284	1	2
404.625	1	3
404.967	1	6
405.308	1	3
405.649	1	6
405.991	1	0
406.332	1	4
406.674	1	-2
407.015	1	1
407.357	1	-6
407.698	1	1
408.040	1	-7
408.381	1	-2
408.722	1	-4
409.064	1	6
409.405	1	6
409.747	1	-6
410.088	1	4
410.430	1	4
410.771	1	8
411.112	1	-5
411.454	1	4
411.795	1	-3
412.137	1	11
412.478	1	13
412.819	1	-4
413.161	1	-7
413.502	1	1
413.844	1	-1
414.185	1	7
414.526	1	-3
414.868	1	-3
415.209	1	-6
415.550	1	-5
415.892	1	-5
416.233	1	9
416.575	1	-1
416.916	1	-6
417.257	1	2
417.599	1	7
417.940	1	6
418.281	1	0
418.623	1	0
418.964	1	-9
419.305	1	2
419.647	1	-3
419.988	1	2
420.329	1	-10
420.671	1	3
421.012	1	-1
421.353	1	-1
421.695	1	-3
422.036	1	-5
422.377	1	-6
422.718	1	1
423.060	1	-12
423.401	1	-3
423.742	1	-1
424.084	1	-6
424.425	1	0
424.766	1	-1
425.107	1	-4
425.449	1	-3
425.790	1	-17
426.131	1	-2
426.472	1	-4
426.814	1	5
427.155	1	1
427.496	1	-3
427.837	1	3
428.179	1	-12
428.520	1	-8
428.861	1	-4
429.202	1	-2
429.544	1	4
429.885	1	-1
430.226	1	-2
430.567	1	-1
430.909	1	7
431.250	1	4
431.591	1	6
431.932	1	-4
432.273	1	-5
432.615	1	4
432.956	1	-2
433.297	1	1
433.638	1	0
433.979	1	1
434.320	1	0
434.662	1	0
435.003	1	2
435.344	1	3
435.685	1	-1
436.026	1	2
436.368	1	3
436.709	1	5
437.050	1	-5
437.391	1	11
437.732	1	-6
438.073	1	-1
438.414	1	-13
438.756	1	-8
439.097	1	-6
439.438	1	-1
439.779	1	0
440.120	1	-10
440.461	1	4
440.802	1	-10
441.143	1	10
441.485	1	-4
441.826	1	-8
442.167	1	2
442.508	1	-12
442.849	1	8
443.190	1	-2
443.531	1	-1
443.872	1	8
444.213	1	-4
444.554	1	6
444.895	1	1
445.237	1	-5
445.578	1	-7
445.919	1	-10
446.260	1	-5
446.601	1	-11
446.942	1	1
447.283	1	-2
447.624	1	-6
447.965	1	-5
448.306	1	-4
448.647	1	-11
448.988	1	-8
449.329	1	3
449.670	1	4
450.011	1	2
450.352	1	-7
450.693	1	0
451.034	1	-4
451.375	1	11
451.716	1	0
452.057	1	1
452.398	1	-5
452.739	1	3
453.080	1	0
453.421	1	3
453.762	1	-2
454.103	1	0
454.444	1	-14
454.785	1	0
455.126	1	-14
455.467	1	-1
455.808	1	1
456.149	1	1
456.490	1	4
456.831	1	2
457.172	1	-9
457.513	1	5
457.854	1	1
458.195	1	-2
458.536	1	-2
458.877	1	5
459.218	1	-5
459.559	1	1
459.899	1	-9
460.240	1	3
460.581	1	17
460.922	1	1
461.263	1	-5
461.604	1	1
461.945	1	5
462.286	1	-3
462.627	1	0
462.968	1	0
463.309	1	-13
463.649	1	-3
463.990	1	-3
464.331	1	-9
464.672	1	-10
465.013	1	1
465.354	1	7
465.695	1	-3
466.036	1	-1
466.376	1	-5
466.717	1	-4
467.058	1	5
467.399	1	8
467.740	1	6
468.081	1	-2
468.422	1	-9
468.762	1	-5
469.103	1	-2
469.444	1	-1
469.785	1	-8
470.126	1	-12
470.467	1	-3
470.807	1	5
471.148	1	4
471.489	1	1
471.830	1	-3
472.171	1	4
472.511	1	-4
472.852	1	-2
473.193	1	2
473.534	1	10
473.875	1	6
474.215	1	10
474.556	1	0
474.897	1	-6
475.238	1	-3
475.578	1	-1
475.919	1	-1
476.260	1	4
476.601	1	6
476.942	1	1
477.282	1	-6
477.623	1	-14
477.964	1	1
478.305	1	2
478.645	1	12
478.986	1	-5
479.327	1	-3
479.667	1	-8
480.008	1	-6
480.349	1	3
480.690	1	4
481.030	1	0
481.371	1	3
481.712	1	3
482.053	1	7
482.393	1	-2
482.734	1	-6
483.075	1	-5
483.415	1	2
483.756	1	12
484.097	1	5
484.437	1	-1
484.778	1	4
485.119	1	0
485.459	1	13
485.800	1	-7
486.141	1	-7
486.481	1	-1
486.822	1	10
487.163	1	-8
487.503	1	6
487.844	1	2
488.185	1	2
488.525	1	7
488.866	1	-1
489.207	1	-5
489.547	1	-2
489.888	1	-3
490.228	1	-4
490.569	1	18
490.910	1	-6
491.250	1	-11
491.591	1	-3
491.932	1	-8
492.272	1	5
492.613	1	-11
492.953	1	9
493.294	1	0
493.635	1	-1
493.975	1	-3
494.316	1	-2
494.656	1	-5
494.997	1	-8
495.337	1	2
495.678	1	-4
496.019	1	0
496.359	1	-6
496.700	1	7
497.040	1	1
497.381	1	10
497.721	1	13
498.062	1	-6
498.403	1	-5
498.743	1	0
499.084	1	-1
499.424	1	3
499.765	1	4
500.105	1	4
500.446	1	-8
500.786	1	-13
501.127	1	-3
501.467	1	-9
501.808	1	1
502.148	1	1
502.489	1	5
502.829	1	0
503.170	1	3
503.510	1	1
503.851	1	2
504.191	1	7
504.532	1	14
504.872	1	-2
505.213	1	10
505.553	1	-3
505.894	1	-10
506.234	1	2
506.575	1	9
506.915	1	-1
507.256	1	1
507.596	1	2
507.936	1	2
508.277	1	1
508.617	1	8
508.958	1	-12
509.298	1	4
509.639	1	-5
509.979	1	-1
510.319	1	-2
510.660	1	-7
511.000	1	-4
511.341	1	-7
511.681	1	-1
512.022	1	-4
512.362	1	-4
512.702	1	-2
513.043	1	9
513.383	1	-11
513.724	1	-1
514.064	1	0
514.404	1	1
514.745	1	1
515.085	1	-2
515.425	1	-2
515.766	1	-10
516.106	1	-3
516.447	1	5
516.787	1	-1
517.127	1	1
517.468	1	-2
517.808	1	-4
518.148	1	-1
518.489	1	-3
518.829	1	9
519.169	1	4
519.510	1	-4
519.850	1	3
520.190	1	-8
520.531	1	0
520.871	1	-7
521.211	1	-14
521.552	1	-5
521.892	1	3
522.232	1	5
522.573	1	-4
522.913	1	6
523.253	1	2
523.593	1	-6
523.934	1	-7
524.274	1	-6
524.614	1	0
524.955	1	-15
525.295	1	-1
525.635	1	-9
525.975	1	-4
526.316	1	9
526.656	1	-7
526.996	1	6
527.337	1	-11
527.677	1	15
528.017	1	0
528.357	1	2
528.698	1	1
529.038	1	-2
529.378	1	4
529.718	1	6
530.058	1	0
530.399	1	-1
530.739	1	10
531.079	1	3
531.419	1	4
531.760	1	3
532.100	1	-3
532.440	1	-3
532.780	1	-2
533.120	1	12
533.461	1	2
533.801	1	16
534.141	1	0
534.481	1	-5
534.821	1	8
535.162	1	0
535.502	1	-5
535.842	1	5
536.182	1	3
536.522	1	4
536.862	1	5
537.203	1	-5
537.543	1	9
537.883	1	1
538.223	1	-2
538.563	1	3
538.903	1	-8
539.243	1	5
539.584	1	-6
539.924	1	3
540.264	1	5
540.604	1	-2
540.944	1	-3
541.284	1	4
541.624	1	2
541.964	1	5
542.305	1	9
542.645	1	2
542.985	1	2
543.325	1	-2
543.665	1	8
544.005	1	1
544.345	1	6
544.685	1	1
545.025	1	-6
545.365	1	-5
545.705	1	-2
546.045	1	-3
546.386	1	3
546.726	1	-6
547.066	1	3
547.406	1	3
547.746	1	-6
548.086	1	-1
548.426	1	-9
548.766	1	-7
549.106	1	6
549.446	1	-5
549.786	1	-6
550.126	1	1
550.466	1	-1
550.806	1	-9
551.146	1	6
551.486	1	-9
551.826	1	0
552.166	1	-6
552.506	1	12
552.846	1	0
553.186	1	4
553.526	1	-4
553.866	1	2
554.206	1	7
554.546	1	3
554.886	1	10
555.226	1	-6
555.566	1	12
555.906	1	7
556.246	1	10
556.586	1	5
556.926	1	5
557.266	1	-9
557.606	1	1
557.946	1	19
558.286	1	10
558.626	1	-7
558.966	1	-3
559.306	1	-8
559.646	1	1
559.986	1	-14
560.325	1	-5
560.665	1	1
561.005	1	-4
561.345	1	3
561.685	1	-6
562.025	1	5
562.365	1	-1
562.705	1	-4
563.045	1	-6
563.385	1	-6
563.725	1	-7
564.064	1	-2
564.404	1	2
564.744	1	2
565.084	1	-5
565.424	1	7
565.764	1	0
566.104	1	5
566.444	1	1
566.783	1	-1
567.123	1	-3
567.463	1	6
567.803	1	-9
568.143	1	-7
568.483	1	0
568.823	1	6
569.162	1	7
569.502	1	1
569.842	1	9
570.182	1	8
570.522	1	-8
570.862	1	-6
571.201	1	9
571.541	1	0
571.881	1	19
572.221	1	-4
572.561	1	5
572.900	1	-10
573.240	1	3
573.580	1	3
573.920	1	6
574.260	1	4
574.599	1	4
574.939	1	-1
575.279	1	5
575.619	1	6
575.959	1	-8
576.298	1	7
576.638	1	-6
576.978	1	7
577.318	1	0
577.657	1	-6
577.997	1	-6
578.337	1	9
578.677	1	7
579.016	1	13
579.356	1	-9
579.696	1	5
580.036	1	-11
580.375	1	5
580.715	1	-2
581.055	1	-3
581.394	1	-1
581.734	1	-9
582.074	1	5
582.414	1	6
582.753	1	-2
583.093	1	3
583.433	1	-4
583.772	1	4
584.112	1	-5
584.452	1	7
584.791	1	-5
585.131	1	4
585.471	1	4
585.811	1	0
586.150	1	0
586.490	1	2
586.830	1	-2
587.169	1	-2
587.509	1	-5
587.849	1	-1
588.188	1	9
588.528	1	3
588.867	1	1
589.207	1	-1
589.547	1	-2
589.886	1	-4
590.226	1	4
590.566	1	2
590.905	1	4
591.245	1	-7
591.585	1	5
591.924	1	2
592.264	1	10
592.603	1	2
592.943	1	-1
593.283	1	6
593.622	1	1
593.962	1	-1
594.301	1	2
594.641	1	4
594.981	1	-1
595.320	1	4
595.660	1	4
595.999	1	-7
596.339	1	7
596.678	1	-8
597.018	1	-13
597.358	1	8
597.697	1	-3
598.037	1	-2
598.376	1	4
598.716	1	5
599.055	1	7
599.395	1	8
599.734	1	0
600.074	1	-1
600.413	1	10
600.753	1	3
601.092	1	14
601.432	1	2
601.771	1	5
602.111	1	4
602.451	1	7
602.790	1	4
603.130	1	5
603.469	1	-3
603.809	1	10
604.148	1	8
604.487	1	-3
604.827	1	3
605.166	1	-2
605.506	1	1
605.845	1	5
606.185	1	6
606.524	1	2
606.864	1	-1
607.203	1	-2
607.543	1	4
607.882	1	7
608.222	1	5
608.561	1	0
608.901	1	5
609.240	1	-3
609.579	1	2
609.919	1	6
610.258	1	8
610.598	1	-8
610.937	1	5
611.277	1	0
611.616	1	-2
611.955	1	-10
612.295	1	-2
612.634	1	1
612.974	1	-3
613.313	1	17
613.652	1	2
613.992	1	-5
614.331	1	-1
614.671	1	6
615.010	1	-7
615.349	1	9
615.689	1	8
616.028	1	3
616.368	1	8
616.707	1	3
617.046	1	-5
617.386	1	2
617.725	1	0
618.064	1	-4
618.404	1	-4
618.743	1	9
619.082	1	11
619.422	1	-5
619.761	1	11
620.100	1	7
620.440	1	0
620.779	1	-2
621.118	1	-5
621.458	1	-2
621.797	1	-2
622.136	1	7
622.476	1	2
622.815	1	3
623.154	1	5
623.494	1	10
623.833	1	9
624.172	1	6
624.511	1	4
624.851	1	-9
625.190	1	5
625.529	1	2
625.869	1	5
626.208	1	-7
626.547	1	-2
626.886	1	6
627.226	1	3
627.565	1	6
627.904	1	-7
628.243	1	7
628.583	1	2
628.922	1	3
629.261	1	7
629.600	1	8
629.940	1	7
630.279	1	-9
630.618	1	-1
630.957	1	4
631.297	1	0
631.636	1	-3
631.975	1	12
632.314	1	-8
632.653	1	5
632.993	1	1
633.332	1	-4
633.671	1	2
634.010	1	-1
634.349	1	0
634.689	1	-3
635.028	1	-1
635.367	1	3
635.706	1	6
636.045	1	20
636.384	1	-8
636.724	1	0
637.063	1	-6
637.402	1	9
637.741	1	-6
638.080	1	1
638.419	1	-12
638.759	1	-8
639.098	1	12
639.437	1	0
639.776	1	-11
640.115	1	-2
640.454	1	-1
640.793	1	6
641.132	1	3
641.472	1	7
641.811	1	7
642.150	1	-12
642.489	1	10
642.828	1	-2
643.167	1	-8
643.506	1	-11
643.845	1	-1
644.184	1	4
644.524	1	-6
644.863	1	-5
645.202	1	-1
645.541	1	2
645.880	1	-8
646.219	1	3
646.558	1	-1
646.897	1	10
647.236	1	1
647.575	1	-3
647.914	1	0
648.253	1	1
648.592	1	-9
648.931	1	6
649.270	1	1
649.610	1	-3
649.949	1	-6
650.288	1	4
650.627	1	-1
650.966	1	2
651.305	1	-4
651.644	1	6
651.983	1	4
652.322	1	-3
652.661	1	-4
653.000	1	5
653.339	1	4
653.678	1	2
654.017	1	-9
654.356	1	-7
654.695	1	5
655.034	1	4
655.373	1	8
655.712	1	-5
656.051	1	-3
656.390	1	-4
656.729	1	7
657.068	1	8
657.406	1	2
657.745	1	0
658.084	1	14
658.423	1	4
658.762	1	-2
659.101	1	0
659.440	1	0
659.779	1	7
660.118	1	-4
660.457	1	-6
660.796	1	-10
661.135	1	-9
661.474	1	-3
661.813	1	3
662.152	1	-1
662.491	1	-4
662.829	1	-17
663.168	1	-2
663.507	1	4
663.846	1	-4
664.185	1	5
664.524	1	2
664.863	1	0
665.202	1	-5
665.541	1	-28
665.879	1	-9
666.218	1	-5
666.557	1	1
666.896	1	-4
667.235	1	-6
667.574	1	-5
667.913	1	6
668.251	1	-2
668.590	1	2
668.929	1	-6
669.268	1	-1
669.607	1	2
669.946	1	7
670.285	1	4
670.623	1	3
670.962	1	-6
671.301	1	0
671.640	1	-2
671.979	1	-11
672.317	1	-2
672.656	1	-3
672.995	1	6
673.334	1	-4
673.673	1	-7
674.011	1	-3
674.350	1	1
674.689	1	-5
675.028	1	0
675.367	1	8
675.705	1	0
676.044	1	-6
676.383	1	1
676.722	1	0
677.060	1	1
677.399	1	-7
677.738	1	10
678.077	1	10
678.416	1	-1
678.754	1	0
679.093	1	10
679.432	1	5
679.771	1	0
680.109	1	9
680.448	1	1
680.787	1	-5
681.125	1	9
681.464	1	-1
681.803	1	-4
682.142	1	2
682.480	1	8
682.819	1	1
683.158	1	-2
683.496	1	8
683.835	1	3
684.174	1	1
684.512	1	7
684.851	1	7
685.190	1	-6
685.529	1	-7
685.867	1	-5
686.206	1	-7
686.545	1	-9
686.883	1	2
687.222	1	2
687.561	1	2
687.899	1	10
688.238	1	-2
688.577	1	-9
688.746	1	3