File: Data/GaN_200K_800ms/GaN_sample F_spot 12_UVVIS_200 K_200um_800 ms 2x2mm1_30.txt
340.368	1	-4
340.710	1	-8
341.052	1	11
341.394	1	-1
341.737	1	10
342.079	1	-2
342.421	1	1
342.763	1	1
343.105	1	5
343.447	1	-2
343.789	1	0
344.131	1	-2
344.473	1	10
344.815	1	5
345.157	1	-6
345.499	1	2
345.841	1	7
346.183	1	3
346.526	1	-3
346.868	1	6
347.210	1	-2
347.552	1	-2
347.894	1	8
348.236	1	10
348.578	1	-1
348.920	1	6
349.262	1	4
349.604	1	4
349.946	1	-12
350.288	1	10
350.630	1	3
350.972	1	3
351.314	1	3
351.656	1	4
351.998	1	2
352.340	1	3
352.682	1	7
353.024	1	9
353.366	1	15
353.708	1	1
354.050	1	-7
354.392	1	-5
354.734	1	5
355.076	1	2
355.418	1	-12
355.760	1	-3
356.102	1	9
356.444	1	4
356.785	1	9
357.127	1	2
357.469	1	5
357.811	1	-3
358.153	1	7
358.495	1	3
358.837	1	-2
359.179	1	10
359.521	1	15
359.863	1	-1
360.205	1	-11
360.547	1	7
360.889	1	2
361.231	1	-2
361.572	1	-4
361.914	1	3
362.256	1	-3
362.598	1	-3
362.940	1	-7
363.282	1	5
363.624	1	9
363.966	1	6
364.308	1	3
364.649	1	-4
364.991	1	2
365.333	1	2
365.675	1	-2
366.017	1	5
366.359	1	-12
366.701	1	3
367.042	1	4
367.384	1	11
367.726	1	5
368.068	1	11
368.410	1	9
368.752	1	-2
369.093	1	-3
369.435	1	-5
369.777	1	-5
370.119	1	-1
370.461	1	10
370.803	1	-1
371.144	1	-10
371.486	1	8
371.828	1	3
372.170	1	4
372.512	1	-4
372.853	1	0
373.195	1	-9
373.537	1	0
373.879	1	0
374.220	1	12
374.562	1	4
374.904	1	9
375.246	1	3
375.588	1	0
375.929	1	-1
376.271	1	7
376.613	1	-1
376.955	1	-7
377.296	1	7
377.638	1	7
377.980	1	1
378.321	1	-4
378.663	1	-8
379.005	1	8
379.347	1	14
379.688	1	9
380.030	1	6
380.372	1	-3
380.714	1	5
381.055	1	4
381.397	1	-4
381.739	1	7
382.080	1	3
382.422	1	0
382.764	1	-8
383.105	1	-7
383.447	1	-6
383.789	1	-3
384.130	1	3
384.472	1	-6
384.814	1	8
385.156	1	-5
385.497	1	0
385.839	1	0
386.180	1	4
386.522	1	-1
386.864	1	11
387.205	1	-5
387.547	1	-5
387.889	1	-1
388.230	1	15
388.572	1	-4
388.914	1	6
389.255	1	-14
389.597	1	6
389.939	1	10
390.280	1	-2
390.622	1	5
390.963	1	12
391.305	1	9
391.647	1	4
391.988	1	12
392.330	1	6
392.671	1	-12
393.013	1	-4
393.355	1	15
393.696	1	16
394.038	1	-6
394.379	1	4
394.721	1	-11
395.062	1	5
395.404	1	-3
395.746	1	12
396.087	1	-5
396.429	1	-2
396.770	1	3
397.112	1	13
397.453	1	20
397.795	1	5
398.136	1	5
398.478	1	1
398.819	1	0
399.161	1	10
399.503	1	1
399.844	1	1
400.186	1	-1
400.527	1	-5
400.869	1	-6
401.210	1	-5
401.552	1	-3
401.893	1	1
402.235	1	1
402.576	1	-4
402.918	1	8
403.259	1	5
403.601	1	-6
403.942	1	8
404.284	1	5
404.625	1	5
404.967	1	0
405.308	1	6
405.649	1	12
405.991	1	-3
406.332	1	4
406.674	1	3
407.015	1	7
407.357	1	1
407.698	1	6
408.040	1	1
408.381	1	2
408.722	1	-7
409.064	1	-11
409.405	1	11
409.747	1	-5
410.088	1	0
410.430	1	9
410.771	1	-2
411.112	1	4
411.454	1	-4
411.795	1	2
412.137	1	11
412.478	1	8
412.819	1	6
413.161	1	-3
413.502	1	7
413.844	1	6
414.185	1	13
414.526	1	-4
414.868	1	11
415.209	1	6
415.550	1	1
415.892	1	3
416.233	1	3
416.575	1	7
416.916	1	-4
417.257	1	-10
417.599	1	9
417.940	1	15
418.281	1	4
418.623	1	-11
418.964	1	-14
419.305	1	-2
419.647	1	-2
419.988	1	5
420.329	1	-4
420.671	1	5
421.012	1	-2
421.353	1	4
421.695	1	-3
422.036	1	1
422.377	1	-7
422.718	1	14
423.060	1	-7
423.401	1	0
423.742	1	4
424.084	1	11
424.425	1	-4
424.766	1	0
425.107	1	2
425.449	1	8
425.790	1	-8
426.131	1	3
426.472	1	8
426.814	1	5
427.155	1	-2
427.496	1	-1
427.837	1	2
428.179	1	-8
428.520	1	-2
428.861	1	-4
429.202	1	0
429.544	1	0
429.885	1	4
430.226	1	-7
430.567	1	6
430.909	1	4
431.250	1	0
431.591	1	13
431.932	1	-9
432.273	1	2
432.615	1	-1
432.956	1	-2
433.297	1	3
433.638	1	6
433.979	1	6
434.320	1	-2
434.662	1	2
435.003	1	9
435.344	1	5
435.685	1	1
436.026	1	8
436.368	1	6
436.709	1	0
437.050	1	-4
437.391	1	8
437.732	1	-4
438.073	1	1
438.414	1	-3
438.756	1	-3
439.097	1	-3
439.438	1	-3
439.779	1	-5
440.120	1	7
440.461	1	-6
440.802	1	-2
441.143	1	9
441.485	1	3
441.826	1	1
442.167	1	4
442.508	1	-5
442.849	1	13
443.190	1	-6
443.531	1	3
443.872	1	3
444.213	1	2
444.554	1	15
444.895	1	0
445.237	1	1
445.578	1	-4
445.919	1	-6
446.260	1	1
446.601	1	-2
446.942	1	-8
447.283	1	-3
447.624	1	0
447.965	1	0
448.306	1	10
448.647	1	-3
448.988	1	0
449.329	1	-6
449.670	1	11
450.011	1	8
450.352	1	5
450.693	1	1
451.034	1	-6
451.375	1	6
451.716	1	-1
452.057	1	2
452.398	1	5
452.739	1	-4
453.080	1	-7
453.421	1	-2
453.762	1	2
454.103	1	-3
454.444	1	-8
454.785	1	-7
455.126	1	-7
455.467	1	4
455.808	1	6
456.149	1	7
456.490	1	-8
456.831	1	6
457.172	1	-4
457.513	1	7
457.854	1	6
458.195	1	-7
458.536	1	11
458.877	1	3
459.218	1	-1
459.559	1	-8
459.899	1	-4
460.240	1	1
460.581	1	12
460.922	1	6
461.263	1	-10
461.604	1	1
461.945	1	2
462.286	1	8
462.627	1	5
462.968	1	-2
463.309	1	-10
463.649	1	3
463.990	1	7
464.331	1	-1
464.672	1	0
465.013	1	-7
465.354	1	4
465.695	1	-4
466.036	1	-10
466.376	1	3
466.717	1	9
467.058	1	-2
467.399	1	4
467.740	1	-4
468.081	1	4
468.422	1	-4
468.762	1	-5
469.103	1	-3
469.444	1	-3
469.785	1	-15
470.126	1	-4
470.467	1	-9
470.807	1	7
471.148	1	7
471.489	1	3
471.830	1	-3
472.171	1	9
472.511	1	-9
472.852	1	5
473.193	1	9
473.534	1	15
473.875	1	13
474.215	1	7
474.556	1	7
474.897	1	5
475.238	1	-2
475.578	1	-10
475.919	1	4
476.260	1	2
476.601	1	0
476.942	1	5
477.282	1	-5
477.623	1	-5
477.964	1	-2
478.305	1	-1
478.645	1	9
478.986	1	4
479.327	1	-10
479.667	1	-6
480.008	1	0
480.349	1	5
480.690	1	9
481.030	1	0
481.371	1	3
481.712	1	6
482.053	1	7
482.393	1	6
482.734	1	-4
483.075	1	0
483.415	1	2
483.756	1	3
484.097	1	2
484.437	1	-6
484.778	1	13
485.119	1	-7
485.459	1	13
485.800	1	-6
486.141	1	1
486.481	1	0
486.822	1	12
487.163	1	3
487.503	1	5
487.844	1	7
488.185	1	0
488.525	1	0
488.866	1	-4
489.207	1	-1
489.547	1	-4
489.888	1	-1
490.228	1	7
490.569	1	14
490.910	1	3
491.250	1	-6
491.591	1	-8
491.932	1	1
492.272	1	1
492.613	1	-10
492.953	1	-6
493.294	1	1
493.635	1	6
493.975	1	-6
494.316	1	4
494.656	1	1
494.997	1	-5
495.337	1	8
495.678	1	4
496.019	1	-4
496.359	1	-9
496.700	1	8
497.040	1	-3
497.381	1	-7
497.721	1	-2
498.062	1	-2
498.403	1	7
498.743	1	7
499.084	1	1
499.424	1	1
499.765	1	6
500.105	1	2
500.446	1	-8
500.786	1	-8
501.127	1	4
501.467	1	-12
501.808	1	5
502.148	1	3
502.489	1	7
502.829	1	7
503.170	1	2
503.510	1	7
503.851	1	-8
504.191	1	8
504.532	1	4
504.872	1	2
505.213	1	3
505.553	1	-7
505.894	1	0
506.234	1	5
506.575	1	2
506.915	1	7
507.256	1	4
507.596	1	10
507.936	1	2
508.277	1	-3
508.617	1	11
508.958	1	-5
509.298	1	0
509.639	1	-3
509.979	1	-9
510.319	1	10
510.660	1	-4
511.000	1	3
511.341	1	1
511.681	1	0
512.022	1	0
512.362	1	0
512.702	1	2
513.043	1	2
513.383	1	-8
513.724	1	-8
514.064	1	10
514.404	1	3
514.745	1	-1
515.085	1	-1
515.425	1	-1
515.766	1	-11
516.106	1	-6
516.447	1	11
516.787	1	8
517.127	1	4
517.468	1	1
517.808	1	-3
518.148	1	9
518.489	1	-9
518.829	1	11
519.169	1	1
519.510	1	1
519.850	1	5
520.190	1	-1
520.531	1	5
520.871	1	2
521.211	1	-7
521.552	1	1
521.892	1	9
522.232	1	5
522.573	1	5
522.913	1	3
523.253	1	2
523.593	1	-3
523.934	1	-2
524.274	1	7
524.614	1	-1
524.955	1	-3
525.295	1	4
525.635	1	-5
525.975	1	3
526.316	1	6
526.656	1	4
526.996	1	3
527.337	1	-10
527.677	1	6
528.017	1	-7
528.357	1	1
528.698	1	-1
529.038	1	5
529.378	1	11
529.718	1	5
530.058	1	4
530.399	1	2
530.739	1	-1
531.079	1	3
531.419	1	1
531.760	1	1
532.100	1	-3
532.440	1	1
532.780	1	-9
533.120	1	-4
533.461	1	3
533.801	1	6
534.141	1	-11
534.481	1	-12
534.821	1	6
535.162	1	5
535.502	1	1
535.842	1	6
536.182	1	-1
536.522	1	-5
536.862	1	-4
537.203	1	-2
537.543	1	0
537.883	1	-6
538.223	1	0
538.563	1	11
538.903	1	-13
539.243	1	0
539.584	1	6
539.924	1	10
540.264	1	-3
540.604	1	1
540.944	1	0
541.284	1	5
541.624	1	7
541.964	1	1
542.305	1	8
542.645	1	1
542.985	1	3
543.325	1	1
543.665	1	8
544.005	1	10
544.345	1	4
544.685	1	1
545.025	1	-1
545.365	1	5
545.705	1	-6
546.045	1	-6
546.386	1	1
546.726	1	-7
547.066	1	0
547.406	1	10
547.746	1	-10
548.086	1	-4
548.426	1	1
548.766	1	1
549.106	1	-4
549.446	1	-3
549.786	1	-3
550.126	1	10
550.466	1	1
550.806	1	2
551.146	1	-3
551.486	1	1
551.826	1	11
552.166	1	0
552.506	1	12
552.846	1	1
553.186	1	-5
553.526	1	-4
553.866	1	-4
554.206	1	6
554.546	1	6
554.886	1	-1
555.226	1	2
555.566	1	11
555.906	1	14
556.246	1	1
556.586	1	2
556.926	1	5
557.266	1	2
557.606	1	4
557.946	1	7
558.286	1	11
558.626	1	4
558.966	1	-6
559.306	1	-10
559.646	1	-12
559.986	1	-3
560.325	1	0
560.665	1	0
561.005	1	2
561.345	1	4
561.685	1	2
562.025	1	3
562.365	1	4
562.705	1	1
563.045	1	-9
563.385	1	-8
563.725	1	-5
564.064	1	3
564.404	1	-6
564.744	1	3
565.084	1	0
565.424	1	8
565.764	1	-2
566.104	1	-3
566.444	1	3
566.783	1	-11
567.123	1	-2
567.463	1	-2
567.803	1	-8
568.143	1	-1
568.483	1	10
568.823	1	2
569.162	1	10
569.502	1	0
569.842	1	11
570.182	1	-12
570.522	1	-16
570.862	1	-5
571.201	1	13
571.541	1	12
571.881	1	13
572.221	1	-4
572.561	1	7
572.900	1	-6
573.240	1	1
573.580	1	-3
573.920	1	-3
574.260	1	12
574.599	1	9
574.939	1	2
575.279	1	13
575.619	1	0
575.959	1	0
576.298	1	1
576.638	1	-6
576.978	1	8
577.318	1	2
577.657	1	3
577.997	1	-4
578.337	1	13
578.677	1	3
579.016	1	5
579.356	1	-3
579.696	1	3
580.036	1	0
580.375	1	2
580.715	1	-8
581.055	1	3
581.394	1	-2
581.734	1	0
582.074	1	-2
582.414	1	7
582.753	1	-2
583.093	1	-8
583.433	1	11
583.772	1	8
584.112	1	-1
584.452	1	6
584.791	1	1
585.131	1	2
585.471	1	8
585.811	1	4
586.150	1	-2
586.490	1	-2
586.830	1	6
587.169	1	0
587.509	1	-3
587.849	1	4
588.188	1	19
588.528	1	12
588.867	1	2
589.207	1	4
589.547	1	-3
589.886	1	-13
590.226	1	7
590.566	1	-8
590.905	1	-1
591.245	1	4
591.585	1	10
591.924	1	1
592.264	1	4
592.603	1	-1
592.943	1	-1
593.283	1	0
593.622	1	-4
593.962	1	5
594.301	1	9
594.641	1	-1
594.981	1	-6
595.320	1	4
595.660	1	-3
595.999	1	-7
596.339	1	8
596.678	1	-7
597.018	1	1
597.358	1	6
597.697	1	-6
598.037	1	-5
598.376	1	5
598.716	1	12
599.055	1	-2
599.395	1	-1
599.734	1	1
600.074	1	7
600.413	1	5
600.753	1	-1
601.092	1	12
601.432	1	-3
601.771	1	0
602.111	1	7
602.451	1	6
602.790	1	-8
603.130	1	7
603.469	1	-11
603.809	1	4
604.148	1	10
604.487	1	0
604.827	1	6
605.166	1	-4
605.506	1	1
605.845	1	5
606.185	1	0
606.524	1	-4
606.864	1	-1
607.203	1	5
607.543	1	2
607.882	1	2
608.222	1	2
608.561	1	-8
608.901	1	-1
609.240	1	-9
609.579	1	5
609.919	1	5
610.258	1	7
610.598	1	0
610.937	1	-1
611.277	1	2
611.616	1	-3
611.955	1	3
612.295	1	3
612.634	1	-3
612.974	1	-10
613.313	1	3
613.652	1	7
613.992	1	-4
614.331	1	0
614.671	1	0
615.010	1	-9
615.349	1	2
615.689	1	4
616.028	1	-9
616.368	1	6
616.707	1	0
617.046	1	5
617.386	1	-2
617.725	1	-7
618.064	1	-8
618.404	1	7
618.743	1	15
619.082	1	1
619.422	1	0
619.761	1	0
620.100	1	10
620.440	1	1
620.779	1	-2
621.118	1	-2
621.458	1	0
621.797	1	-1
622.136	1	6
622.476	1	11
622.815	1	8
623.154	1	2
623.494	1	11
623.833	1	5
624.172	1	2
624.511	1	2
624.851	1	-7
625.190	1	0
625.529	1	8
625.869	1	11
626.208	1	5
626.547	1	-4
626.886	1	5
627.226	1	3
627.565	1	3
627.904	1	2
628.243	1	8
628.583	1	-4
628.922	1	-1
629.261	1	4
629.600	1	14
629.940	1	-1
630.279	1	-7
630.618	1	4
630.957	1	2
631.297	1	6
631.636	1	-8
631.975	1	18
632.314	1	-3
632.653	1	0
632.993	1	-5
633.332	1	4
633.671	1	3
634.010	1	-2
634.349	1	11
634.689	1	5
635.028	1	8
635.367	1	7
635.706	1	6
636.045	1	6
636.384	1	0
636.724	1	-1
637.063	1	-1
637.402	1	-2
637.741	1	-1
638.080	1	5
638.419	1	-2
638.759	1	-14
639.098	1	13
639.437	1	6
639.776	1	6
640.115	1	-2
640.454	1	-2
640.793	1	7
641.132	1	10
641.472	1	10
641.811	1	-2
642.150	1	-1
642.489	1	13
642.828	1	-7
643.167	1	-7
643.506	1	-6
643.845	1	2
644.184	1	6
644.524	1	-1
644.863	1	-13
645.202	1	5
645.541	1	4
645.880	1	0
646.219	1	2
646.558	1	-8
646.897	1	-3
647.236	1	2
647.575	1	9
647.914	1	-3
648.253	1	19
648.592	1	-7
648.931	1	10
649.270	1	10
649.610	1	-2
649.949	1	0
650.288	1	5
650.627	1	-2
650.966	1	5
651.305	1	-2
651.644	1	11
651.983	1	3
652.322	1	-2
652.661	1	-6
653.000	1	9
653.339	1	8
653.678	1	1
654.017	1	3
654.356	1	-8
654.695	1	3
655.034	1	1
655.373	1	9
655.712	1	9
656.051	1	1
656.390	1	2
656.729	1	10
657.068	1	11
657.406	1	6
657.745	1	1
658.084	1	-7
658.423	1	7
658.762	1	-5
659.101	1	6
659.440	1	5
659.779	1	5
660.118	1	11
660.457	1	2
660.796	1	-4
661.135	1	-3
661.474	1	-8
661.813	1	14
662.152	1	-3
662.491	1	5
662.829	1	-10
663.168	1	0
663.507	1	12
663.846	1	0
664.185	1	3
664.524	1	3
664.863	1	-5
665.202	1	12
665.541	1	-6
665.879	1	-2
666.218	1	-10
666.557	1	1
666.896	1	-2
667.235	1	3
667.574	1	1
667.913	1	2
668.251	1	-5
668.590	1	8
668.929	1	-5
669.268	1	2
669.607	1	0
669.946	1	-8
670.285	1	10
670.623	1	1
670.962	1	3
671.301	1	-4
671.640	1	6
671.979	1	-2
672.317	1	6
672.656	1	-1
672.995	1	8
673.334	1	-1
673.673	1	5
674.011	1	3
674.350	1	2
674.689	1	-6
675.028	1	5
675.367	1	5
675.705	1	5
676.044	1	4
676.383	1	6
676.722	1	9
677.060	1	-6
677.399	1	-8
677.738	1	7
678.077	1	3
678.416	1	1
678.754	1	-7
679.093	1	2
679.432	1	-1
679.771	1	2
680.109	1	10
680.448	1	4
680.787	1	-1
681.125	1	0
681.464	1	4
681.803	1	-2
682.142	1	13
682.480	1	12
682.819	1	8
683.158	1	5
683.496	1	7
683.835	1	1
684.174	1	9
684.512	1	2
684.851	1	8
685.190	1	1
685.529	1	4
685.867	1	4
686.206	1	0
686.545	1	-4
686.883	1	2
687.222	1	15
687.561	1	4
687.899	1	-1
688.238	1	9
688.577	1	-3
688.746	1	-9