File: Data/GaN_200K_800ms/GaN_sample F_spot 12_UVVIS_200 K_200um_800 ms 2x2mm1_144.txt
340.368	1	4
340.710	1	-11
341.052	1	11
341.394	1	-7
341.737	1	2
342.079	1	-1
342.421	1	5
342.763	1	4
343.105	1	10
343.447	1	-7
343.789	1	8
344.131	1	-3
344.473	1	-1
344.815	1	5
345.157	1	-3
345.499	1	3
345.841	1	4
346.183	1	-5
346.526	1	-6
346.868	1	10
347.210	1	-9
347.552	1	-4
347.894	1	7
348.236	1	10
348.578	1	3
348.920	1	5
349.262	1	1
349.604	1	-1
349.946	1	-5
350.288	1	6
350.630	1	1
350.972	1	2
351.314	1	-1
351.656	1	0
351.998	1	6
352.340	1	2
352.682	1	15
353.024	1	10
353.366	1	16
353.708	1	6
354.050	1	-7
354.392	1	0
354.734	1	4
355.076	1	7
355.418	1	-8
355.760	1	1
356.102	1	19
356.444	1	4
356.785	1	17
357.127	1	7
357.469	1	11
357.811	1	5
358.153	1	22
358.495	1	16
358.837	1	-3
359.179	1	8
359.521	1	18
359.863	1	3
360.205	1	6
360.547	1	19
360.889	1	4
361.231	1	16
361.572	1	14
361.914	1	13
362.256	1	15
362.598	1	8
362.940	1	18
363.282	1	12
363.624	1	27
363.966	1	13
364.308	1	19
364.649	1	26
364.991	1	34
365.333	1	36
365.675	1	26
366.017	1	42
366.359	1	38
366.701	1	50
367.042	1	40
367.384	1	47
367.726	1	45
368.068	1	54
368.410	1	61
368.752	1	45
369.093	1	50
369.435	1	58
369.777	1	50
370.119	1	50
370.461	1	66
370.803	1	59
371.144	1	42
371.486	1	51
371.828	1	49
372.170	1	56
372.512	1	42
372.853	1	50
373.195	1	40
373.537	1	40
373.879	1	40
374.220	1	45
374.562	1	40
374.904	1	32
375.246	1	32
375.588	1	31
375.929	1	38
376.271	1	36
376.613	1	24
376.955	1	19
377.296	1	26
377.638	1	31
377.980	1	30
378.321	1	26
378.663	1	11
379.005	1	29
379.347	1	18
379.688	1	19
380.030	1	16
380.372	1	21
380.714	1	13
381.055	1	25
381.397	1	12
381.739	1	11
382.080	1	15
382.422	1	4
382.764	1	9
383.105	1	8
383.447	1	6
383.789	1	8
384.130	1	10
384.472	1	7
384.814	1	7
385.156	1	6
385.497	1	11
385.839	1	13
386.180	1	16
386.522	1	9
386.864	1	13
387.205	1	1
387.547	1	2
387.889	1	13
388.230	1	12
388.572	1	1
388.914	1	8
389.255	1	6
389.597	1	10
389.939	1	10
390.280	1	9
390.622	1	10
390.963	1	15
391.305	1	14
391.647	1	7
391.988	1	12
392.330	1	9
392.671	1	7
393.013	1	2
393.355	1	10
393.696	1	7
394.038	1	6
394.379	1	4
394.721	1	-3
395.062	1	10
395.404	1	0
395.746	1	8
396.087	1	3
396.429	1	11
396.770	1	2
397.112	1	15
397.453	1	17
397.795	1	4
398.136	1	-10
398.478	1	1
398.819	1	3
399.161	1	19
399.503	1	12
399.844	1	1
400.186	1	-5
400.527	1	0
400.869	1	0
401.210	1	8
401.552	1	-3
401.893	1	5
402.235	1	0
402.576	1	-5
402.918	1	6
403.259	1	4
403.601	1	-3
403.942	1	12
404.284	1	13
404.625	1	12
404.967	1	8
405.308	1	4
405.649	1	12
405.991	1	3
406.332	1	7
406.674	1	3
407.015	1	9
407.357	1	-2
407.698	1	14
408.040	1	-3
408.381	1	8
408.722	1	-13
409.064	1	4
409.405	1	7
409.747	1	8
410.088	1	3
410.430	1	-1
410.771	1	10
411.112	1	-3
411.454	1	1
411.795	1	-3
412.137	1	9
412.478	1	10
412.819	1	-3
413.161	1	-1
413.502	1	4
413.844	1	3
414.185	1	7
414.526	1	-3
414.868	1	-4
415.209	1	-5
415.550	1	-2
415.892	1	-2
416.233	1	8
416.575	1	15
416.916	1	-5
417.257	1	4
417.599	1	5
417.940	1	7
418.281	1	5
418.623	1	5
418.964	1	1
419.305	1	2
419.647	1	0
419.988	1	0
420.329	1	-7
420.671	1	6
421.012	1	5
421.353	1	-2
421.695	1	-4
422.036	1	11
422.377	1	6
422.718	1	11
423.060	1	-2
423.401	1	-1
423.742	1	6
424.084	1	-4
424.425	1	9
424.766	1	3
425.107	1	4
425.449	1	8
425.790	1	-2
426.131	1	0
426.472	1	-4
426.814	1	11
427.155	1	-4
427.496	1	-8
427.837	1	-4
428.179	1	-9
428.520	1	3
428.861	1	-4
429.202	1	2
429.544	1	-6
429.885	1	3
430.226	1	0
430.567	1	3
430.909	1	-3
431.250	1	-10
431.591	1	5
431.932	1	-1
432.273	1	-2
432.615	1	-5
432.956	1	-9
433.297	1	0
433.638	1	6
433.979	1	14
434.320	1	6
434.662	1	-1
435.003	1	6
435.344	1	8
435.685	1	-4
436.026	1	6
436.368	1	9
436.709	1	-5
437.050	1	-1
437.391	1	8
437.732	1	-14
438.073	1	-5
438.414	1	-4
438.756	1	1
439.097	1	-10
439.438	1	-6
439.779	1	3
440.120	1	-2
440.461	1	-2
440.802	1	-10
441.143	1	11
441.485	1	4
441.826	1	1
442.167	1	2
442.508	1	-12
442.849	1	2
443.190	1	3
443.531	1	10
443.872	1	8
444.213	1	0
444.554	1	10
444.895	1	-2
445.237	1	-3
445.578	1	-3
445.919	1	-4
446.260	1	-6
446.601	1	-1
446.942	1	6
447.283	1	5
447.624	1	2
447.965	1	3
448.306	1	1
448.647	1	-13
448.988	1	2
449.329	1	4
449.670	1	3
450.011	1	7
450.352	1	5
450.693	1	-2
451.034	1	3
451.375	1	0
451.716	1	4
452.057	1	1
452.398	1	-2
452.739	1	10
453.080	1	-5
453.421	1	-3
453.762	1	0
454.103	1	-1
454.444	1	-7
454.785	1	3
455.126	1	-3
455.467	1	9
455.808	1	5
456.149	1	3
456.490	1	4
456.831	1	4
457.172	1	-1
457.513	1	11
457.854	1	7
458.195	1	8
458.536	1	2
458.877	1	-2
459.218	1	2
459.559	1	7
459.899	1	-2
460.240	1	11
460.581	1	10
460.922	1	2
461.263	1	3
461.604	1	4
461.945	1	0
462.286	1	-3
462.627	1	9
462.968	1	8
463.309	1	-7
463.649	1	-7
463.990	1	-8
464.331	1	-1
464.672	1	0
465.013	1	3
465.354	1	2
465.695	1	-5
466.036	1	2
466.376	1	-6
466.717	1	3
467.058	1	1
467.399	1	4
467.740	1	-1
468.081	1	-6
468.422	1	-3
468.762	1	-3
469.103	1	-3
469.444	1	-8
469.785	1	-3
470.126	1	-5
470.467	1	-4
470.807	1	-5
471.148	1	-1
471.489	1	-3
471.830	1	5
472.171	1	5
472.511	1	-9
472.852	1	0
473.193	1	0
473.534	1	6
473.875	1	13
474.215	1	13
474.556	1	2
474.897	1	14
475.238	1	0
475.578	1	-6
475.919	1	0
476.260	1	0
476.601	1	4
476.942	1	3
477.282	1	3
477.623	1	-6
477.964	1	1
478.305	1	-5
478.645	1	15
478.986	1	2
479.327	1	-11
479.667	1	-7
480.008	1	-2
480.349	1	3
480.690	1	0
481.030	1	-11
481.371	1	9
481.712	1	5
482.053	1	-1
482.393	1	8
482.734	1	-4
483.075	1	-8
483.415	1	2
483.756	1	7
484.097	1	-4
484.437	1	-3
484.778	1	2
485.119	1	-2
485.459	1	18
485.800	1	-1
486.141	1	1
486.481	1	11
486.822	1	5
487.163	1	1
487.503	1	4
487.844	1	-8
488.185	1	-1
488.525	1	-13
488.866	1	1
489.207	1	3
489.547	1	-1
489.888	1	9
490.228	1	7
490.569	1	14
490.910	1	-2
491.250	1	1
491.591	1	-1
491.932	1	8
492.272	1	8
492.613	1	-8
492.953	1	-2
493.294	1	2
493.635	1	3
493.975	1	-1
494.316	1	7
494.656	1	9
494.997	1	-2
495.337	1	6
495.678	1	1
496.019	1	-7
496.359	1	-4
496.700	1	2
497.040	1	0
497.381	1	2
497.721	1	4
498.062	1	8
498.403	1	13
498.743	1	6
499.084	1	-5
499.424	1	4
499.765	1	11
500.105	1	3
500.446	1	-5
500.786	1	-3
501.127	1	4
501.467	1	-10
501.808	1	2
502.148	1	6
502.489	1	-1
502.829	1	4
503.170	1	12
503.510	1	6
503.851	1	1
504.191	1	8
504.532	1	7
504.872	1	3
505.213	1	15
505.553	1	8
505.894	1	4
506.234	1	6
506.575	1	-2
506.915	1	8
507.256	1	4
507.596	1	6
507.936	1	5
508.277	1	-4
508.617	1	9
508.958	1	-5
509.298	1	0
509.639	1	-2
509.979	1	1
510.319	1	4
510.660	1	-1
511.000	1	2
511.341	1	0
511.681	1	13
512.022	1	-10
512.362	1	1
512.702	1	0
513.043	1	6
513.383	1	-9
513.724	1	3
514.064	1	16
514.404	1	9
514.745	1	-4
515.085	1	-1
515.425	1	-7
515.766	1	-2
516.106	1	6
516.447	1	8
516.787	1	8
517.127	1	1
517.468	1	-1
517.808	1	-4
518.148	1	3
518.489	1	3
518.829	1	12
519.169	1	9
519.510	1	9
519.850	1	7
520.190	1	0
520.531	1	10
520.871	1	2
521.211	1	-10
521.552	1	16
521.892	1	6
522.232	1	5
522.573	1	5
522.913	1	5
523.253	1	6
523.593	1	9
523.934	1	2
524.274	1	7
524.614	1	-4
524.955	1	0
525.295	1	12
525.635	1	2
525.975	1	7
526.316	1	14
526.656	1	0
526.996	1	11
527.337	1	1
527.677	1	3
528.017	1	2
528.357	1	2
528.698	1	3
529.038	1	6
529.378	1	11
529.718	1	5
530.058	1	2
530.399	1	9
530.739	1	2
531.079	1	14
531.419	1	14
531.760	1	14
532.100	1	-4
532.440	1	9
532.780	1	8
533.120	1	9
533.461	1	4
533.801	1	10
534.141	1	-8
534.481	1	-9
534.821	1	11
535.162	1	-7
535.502	1	2
535.842	1	18
536.182	1	17
536.522	1	4
536.862	1	10
537.203	1	2
537.543	1	7
537.883	1	7
538.223	1	10
538.563	1	8
538.903	1	-3
539.243	1	6
539.584	1	2
539.924	1	13
540.264	1	-5
540.604	1	-3
540.944	1	0
541.284	1	7
541.624	1	3
541.964	1	12
542.305	1	13
542.645	1	5
542.985	1	1
543.325	1	9
543.665	1	7
544.005	1	14
544.345	1	5
544.685	1	4
545.025	1	2
545.365	1	4
545.705	1	-4
546.045	1	0
546.386	1	6
546.726	1	1
547.066	1	4
547.406	1	0
547.746	1	-6
548.086	1	5
548.426	1	7
548.766	1	8
549.106	1	6
549.446	1	4
549.786	1	-4
550.126	1	18
550.466	1	7
550.806	1	6
551.146	1	6
551.486	1	8
551.826	1	11
552.166	1	4
552.506	1	12
552.846	1	4
553.186	1	9
553.526	1	7
553.866	1	4
554.206	1	9
554.546	1	12
554.886	1	9
555.226	1	5
555.566	1	11
555.906	1	11
556.246	1	10
556.586	1	7
556.926	1	10
557.266	1	8
557.606	1	5
557.946	1	7
558.286	1	1
558.626	1	7
558.966	1	-1
559.306	1	-2
559.646	1	0
559.986	1	0
560.325	1	-7
560.665	1	12
561.005	1	2
561.345	1	9
561.685	1	8
562.025	1	8
562.365	1	2
562.705	1	-3
563.045	1	0
563.385	1	2
563.725	1	15
564.064	1	7
564.404	1	6
564.744	1	15
565.084	1	5
565.424	1	8
565.764	1	3
566.104	1	4
566.444	1	-4
566.783	1	-4
567.123	1	8
567.463	1	13
567.803	1	5
568.143	1	6
568.483	1	9
568.823	1	4
569.162	1	12
569.502	1	5
569.842	1	12
570.182	1	7
570.522	1	-8
570.862	1	4
571.201	1	12
571.541	1	9
571.881	1	17
572.221	1	7
572.561	1	2
572.900	1	6
573.240	1	7
573.580	1	9
573.920	1	9
574.260	1	11
574.599	1	4
574.939	1	5
575.279	1	18
575.619	1	11
575.959	1	-2
576.298	1	14
576.638	1	8
576.978	1	14
577.318	1	19
577.657	1	-1
577.997	1	4
578.337	1	12
578.677	1	12
579.016	1	12
579.356	1	2
579.696	1	12
580.036	1	-2
580.375	1	9
580.715	1	2
581.055	1	9
581.394	1	4
581.734	1	0
582.074	1	-9
582.414	1	7
582.753	1	8
583.093	1	6
583.433	1	9
583.772	1	5
584.112	1	6
584.452	1	7
584.791	1	7
585.131	1	12
585.471	1	13
585.811	1	9
586.150	1	6
586.490	1	14
586.830	1	11
587.169	1	13
587.509	1	6
587.849	1	0
588.188	1	16
588.528	1	7
588.867	1	10
589.207	1	1
589.547	1	1
589.886	1	0
590.226	1	9
590.566	1	-2
590.905	1	2
591.245	1	-3
591.585	1	9
591.924	1	6
592.264	1	16
592.603	1	10
592.943	1	2
593.283	1	-2
593.622	1	4
593.962	1	4
594.301	1	12
594.641	1	-5
594.981	1	2
595.320	1	13
595.660	1	9
595.999	1	-3
596.339	1	1
596.678	1	-2
597.018	1	-6
597.358	1	3
597.697	1	4
598.037	1	-3
598.376	1	15
598.716	1	13
599.055	1	7
599.395	1	3
599.734	1	13
600.074	1	-1
600.413	1	15
600.753	1	2
601.092	1	21
601.432	1	-1
601.771	1	11
602.111	1	9
602.451	1	11
602.790	1	7
603.130	1	11
603.469	1	0
603.809	1	13
604.148	1	6
604.487	1	1
604.827	1	10
605.166	1	7
605.506	1	13
605.845	1	5
606.185	1	8
606.524	1	3
606.864	1	1
607.203	1	4
607.543	1	-1
607.882	1	7
608.222	1	4
608.561	1	12
608.901	1	7
609.240	1	-10
609.579	1	13
609.919	1	3
610.258	1	15
610.598	1	1
610.937	1	0
611.277	1	-3
611.616	1	-2
611.955	1	2
612.295	1	-3
612.634	1	-4
612.974	1	-4
613.313	1	9
613.652	1	18
613.992	1	1
614.331	1	0
614.671	1	10
615.010	1	-1
615.349	1	10
615.689	1	15
616.028	1	3
616.368	1	7
616.707	1	5
617.046	1	-1
617.386	1	14
617.725	1	-1
618.064	1	5
618.404	1	2
618.743	1	2
619.082	1	3
619.422	1	4
619.761	1	8
620.100	1	8
620.440	1	6
620.779	1	-11
621.118	1	3
621.458	1	11
621.797	1	-9
622.136	1	17
622.476	1	3
622.815	1	14
623.154	1	8
623.494	1	16
623.833	1	6
624.172	1	8
624.511	1	3
624.851	1	-7
625.190	1	-3
625.529	1	7
625.869	1	15
626.208	1	2
626.547	1	11
626.886	1	5
627.226	1	10
627.565	1	9
627.904	1	5
628.243	1	9
628.583	1	-6
628.922	1	1
629.261	1	2
629.600	1	15
629.940	1	2
630.279	1	-3
630.618	1	5
630.957	1	4
631.297	1	5
631.636	1	-10
631.975	1	15
632.314	1	-1
632.653	1	4
632.993	1	0
633.332	1	3
633.671	1	-3
634.010	1	-5
634.349	1	9
634.689	1	3
635.028	1	14
635.367	1	2
635.706	1	2
636.045	1	16
636.384	1	6
636.724	1	6
637.063	1	1
637.402	1	4
637.741	1	0
638.080	1	-3
638.419	1	-3
638.759	1	-8
639.098	1	6
639.437	1	4
639.776	1	-5
640.115	1	6
640.454	1	-5
640.793	1	12
641.132	1	7
641.472	1	8
641.811	1	6
642.150	1	-3
642.489	1	10
642.828	1	-8
643.167	1	1
643.506	1	-5
643.845	1	2
644.184	1	11
644.524	1	2
644.863	1	2
645.202	1	-2
645.541	1	4
645.880	1	6
646.219	1	14
646.558	1	-5
646.897	1	4
647.236	1	1
647.575	1	9
647.914	1	5
648.253	1	9
648.592	1	4
648.931	1	17
649.270	1	-2
649.610	1	0
649.949	1	-9
650.288	1	4
650.627	1	12
650.966	1	8
651.305	1	6
651.644	1	14
651.983	1	7
652.322	1	7
652.661	1	4
653.000	1	0
653.339	1	9
653.678	1	1
654.017	1	-2
654.356	1	-2
654.695	1	4
655.034	1	1
655.373	1	12
655.712	1	-1
656.051	1	2
656.390	1	-7
656.729	1	14
657.068	1	8
657.406	1	7
657.745	1	-6
658.084	1	8
658.423	1	12
658.762	1	-9
659.101	1	7
659.440	1	5
659.779	1	8
660.118	1	11
660.457	1	4
660.796	1	-4
661.135	1	-2
661.474	1	-1
661.813	1	9
662.152	1	4
662.491	1	-2
662.829	1	-10
663.168	1	10
663.507	1	14
663.846	1	-2
664.185	1	0
664.524	1	8
664.863	1	-4
665.202	1	6
665.541	1	-8
665.879	1	1
666.218	1	0
666.557	1	-9
666.896	1	3
667.235	1	-3
667.574	1	-1
667.913	1	3
668.251	1	-6
668.590	1	-6
668.929	1	-7
669.268	1	2
669.607	1	1
669.946	1	2
670.285	1	-1
670.623	1	1
670.962	1	-9
671.301	1	-2
671.640	1	10
671.979	1	-5
672.317	1	6
672.656	1	5
672.995	1	12
673.334	1	1
673.673	1	7
674.011	1	-2
674.350	1	19
674.689	1	-1
675.028	1	-3
675.367	1	7
675.705	1	12
676.044	1	6
676.383	1	-4
676.722	1	6
677.060	1	1
677.399	1	-3
677.738	1	-1
678.077	1	5
678.416	1	2
678.754	1	-1
679.093	1	16
679.432	1	7
679.771	1	13
680.109	1	14
680.448	1	11
680.787	1	8
681.125	1	6
681.464	1	-1
681.803	1	0
682.142	1	11
682.480	1	16
682.819	1	-1
683.158	1	-1
683.496	1	8
683.835	1	7
684.174	1	9
684.512	1	10
684.851	1	0
685.190	1	2
685.529	1	10
685.867	1	7
686.206	1	-2
686.545	1	2
686.883	1	5
687.222	1	3
687.561	1	14
687.899	1	3
688.238	1	1
688.577	1	-4
688.746	1	-1