File: Data/GaN_200K_800ms/GaN_sample F_spot 12_UVVIS_200 K_200um_800 ms 2x2mm1_312.txt
340.368	1	4
340.710	1	-2
341.052	1	2
341.394	1	2
341.737	1	-2
342.079	1	-13
342.421	1	-3
342.763	1	4
343.105	1	0
343.447	1	-7
343.789	1	4
344.131	1	5
344.473	1	-2
344.815	1	-4
345.157	1	-4
345.499	1	1
345.841	1	3
346.183	1	-1
346.526	1	-6
346.868	1	11
347.210	1	-11
347.552	1	-3
347.894	1	3
348.236	1	10
348.578	1	3
348.920	1	5
349.262	1	-7
349.604	1	-8
349.946	1	0
350.288	1	6
350.630	1	-4
350.972	1	0
351.314	1	1
351.656	1	4
351.998	1	-1
352.340	1	3
352.682	1	4
353.024	1	7
353.366	1	11
353.708	1	-5
354.050	1	-7
354.392	1	0
354.734	1	-5
355.076	1	4
355.418	1	-19
355.760	1	4
356.102	1	7
356.444	1	11
356.785	1	13
357.127	1	-10
357.469	1	6
357.811	1	-4
358.153	1	12
358.495	1	8
358.837	1	-4
359.179	1	-2
359.521	1	4
359.863	1	2
360.205	1	-6
360.547	1	7
360.889	1	-5
361.231	1	-5
361.572	1	5
361.914	1	8
362.256	1	8
362.598	1	-6
362.940	1	-4
363.282	1	2
363.624	1	6
363.966	1	-2
364.308	1	4
364.649	1	10
364.991	1	9
365.333	1	3
365.675	1	-5
366.017	1	9
366.359	1	8
366.701	1	16
367.042	1	8
367.384	1	20
367.726	1	18
368.068	1	13
368.410	1	20
368.752	1	5
369.093	1	8
369.435	1	16
369.777	1	15
370.119	1	13
370.461	1	26
370.803	1	20
371.144	1	14
371.486	1	22
371.828	1	13
372.170	1	19
372.512	1	11
372.853	1	15
373.195	1	11
373.537	1	11
373.879	1	9
374.220	1	23
374.562	1	18
374.904	1	11
375.246	1	11
375.588	1	9
375.929	1	11
376.271	1	14
376.613	1	1
376.955	1	-4
377.296	1	5
377.638	1	3
377.980	1	2
378.321	1	0
378.663	1	3
379.005	1	4
379.347	1	7
379.688	1	5
380.030	1	5
380.372	1	9
380.714	1	12
381.055	1	7
381.397	1	2
381.739	1	8
382.080	1	4
382.422	1	0
382.764	1	-5
383.105	1	3
383.447	1	-2
383.789	1	0
384.130	1	5
384.472	1	0
384.814	1	4
385.156	1	-6
385.497	1	5
385.839	1	8
386.180	1	6
386.522	1	12
386.864	1	8
387.205	1	9
387.547	1	5
387.889	1	2
388.230	1	10
388.572	1	-2
388.914	1	-1
389.255	1	4
389.597	1	-1
389.939	1	1
390.280	1	4
390.622	1	0
390.963	1	9
391.305	1	17
391.647	1	-1
391.988	1	3
392.330	1	13
392.671	1	-8
393.013	1	-6
393.355	1	7
393.696	1	9
394.038	1	-2
394.379	1	3
394.721	1	-6
395.062	1	0
395.404	1	-4
395.746	1	1
396.087	1	2
396.429	1	1
396.770	1	-11
397.112	1	5
397.453	1	7
397.795	1	6
398.136	1	-9
398.478	1	9
398.819	1	-1
399.161	1	10
399.503	1	7
399.844	1	3
400.186	1	3
400.527	1	-4
400.869	1	-1
401.210	1	1
401.552	1	-8
401.893	1	1
402.235	1	1
402.576	1	-6
402.918	1	8
403.259	1	4
403.601	1	-8
403.942	1	15
404.284	1	5
404.625	1	5
404.967	1	2
405.308	1	-3
405.649	1	8
405.991	1	-2
406.332	1	12
406.674	1	-9
407.015	1	0
407.357	1	2
407.698	1	11
408.040	1	3
408.381	1	2
408.722	1	-5
409.064	1	-2
409.405	1	12
409.747	1	-3
410.088	1	-2
410.430	1	5
410.771	1	9
411.112	1	3
411.454	1	-5
411.795	1	-11
412.137	1	5
412.478	1	11
412.819	1	9
413.161	1	-2
413.502	1	2
413.844	1	1
414.185	1	5
414.526	1	3
414.868	1	-2
415.209	1	-4
415.550	1	-1
415.892	1	-4
416.233	1	3
416.575	1	8
416.916	1	-2
417.257	1	3
417.599	1	4
417.940	1	1
418.281	1	1
418.623	1	-7
418.964	1	-19
419.305	1	-1
419.647	1	3
419.988	1	-9
420.329	1	-1
420.671	1	1
421.012	1	-2
421.353	1	-7
421.695	1	-1
422.036	1	-1
422.377	1	2
422.718	1	16
423.060	1	-8
423.401	1	-1
423.742	1	0
424.084	1	1
424.425	1	4
424.766	1	-2
425.107	1	1
425.449	1	0
425.790	1	-8
426.131	1	-5
426.472	1	4
426.814	1	3
427.155	1	-8
427.496	1	-3
427.837	1	-7
428.179	1	-2
428.520	1	0
428.861	1	-5
429.202	1	2
429.544	1	-7
429.885	1	2
430.226	1	-8
430.567	1	-5
430.909	1	2
431.250	1	-3
431.591	1	2
431.932	1	-2
432.273	1	-10
432.615	1	-12
432.956	1	-9
433.297	1	-1
433.638	1	-1
433.979	1	2
434.320	1	0
434.662	1	-3
435.003	1	8
435.344	1	8
435.685	1	8
436.026	1	3
436.368	1	3
436.709	1	-3
437.050	1	2
437.391	1	0
437.732	1	-7
438.073	1	-4
438.414	1	-6
438.756	1	-3
439.097	1	-6
439.438	1	-6
439.779	1	-5
440.120	1	4
440.461	1	-5
440.802	1	0
441.143	1	9
441.485	1	-3
441.826	1	-2
442.167	1	-6
442.508	1	-8
442.849	1	6
443.190	1	-1
443.531	1	12
443.872	1	10
444.213	1	-1
444.554	1	11
444.895	1	-5
445.237	1	-10
445.578	1	-12
445.919	1	-11
446.260	1	-4
446.601	1	-1
446.942	1	1
447.283	1	-4
447.624	1	-5
447.965	1	0
448.306	1	2
448.647	1	-6
448.988	1	-7
449.329	1	-3
449.670	1	10
450.011	1	20
450.352	1	-3
450.693	1	-12
451.034	1	-4
451.375	1	-1
451.716	1	-3
452.057	1	-3
452.398	1	5
452.739	1	8
453.080	1	7
453.421	1	-3
453.762	1	7
454.103	1	3
454.444	1	-11
454.785	1	2
455.126	1	1
455.467	1	0
455.808	1	-5
456.149	1	0
456.490	1	-4
456.831	1	2
457.172	1	-6
457.513	1	0
457.854	1	-5
458.195	1	-8
458.536	1	3
458.877	1	4
459.218	1	3
459.559	1	9
459.899	1	-4
460.240	1	6
460.581	1	10
460.922	1	-4
461.263	1	-6
461.604	1	-2
461.945	1	0
462.286	1	3
462.627	1	6
462.968	1	8
463.309	1	-1
463.649	1	-1
463.990	1	-6
464.331	1	-9
464.672	1	3
465.013	1	-7
465.354	1	-3
465.695	1	-13
466.036	1	-7
466.376	1	-13
466.717	1	1
467.058	1	5
467.399	1	1
467.740	1	2
468.081	1	-2
468.422	1	-3
468.762	1	-12
469.103	1	-1
469.444	1	-5
469.785	1	-11
470.126	1	-4
470.467	1	-4
470.807	1	-4
471.148	1	10
471.489	1	0
471.830	1	-7
472.171	1	9
472.511	1	-1
472.852	1	1
473.193	1	7
473.534	1	6
473.875	1	7
474.215	1	6
474.556	1	-1
474.897	1	0
475.238	1	-2
475.578	1	-14
475.919	1	-9
476.260	1	-7
476.601	1	-4
476.942	1	12
477.282	1	-3
477.623	1	-9
477.964	1	-8
478.305	1	-3
478.645	1	6
478.986	1	4
479.327	1	-5
479.667	1	-6
480.008	1	2
480.349	1	-6
480.690	1	3
481.030	1	-2
481.371	1	-1
481.712	1	-2
482.053	1	5
482.393	1	5
482.734	1	-12
483.075	1	-9
483.415	1	1
483.756	1	3
484.097	1	1
484.437	1	-3
484.778	1	9
485.119	1	-3
485.459	1	12
485.800	1	-11
486.141	1	-3
486.481	1	-3
486.822	1	10
487.163	1	5
487.503	1	1
487.844	1	0
488.185	1	-4
488.525	1	-4
488.866	1	5
489.207	1	-11
489.547	1	-6
489.888	1	-7
490.228	1	-5
490.569	1	6
490.910	1	1
491.250	1	-11
491.591	1	-7
491.932	1	-2
492.272	1	-4
492.613	1	-4
492.953	1	-8
493.294	1	2
493.635	1	1
493.975	1	4
494.316	1	-8
494.656	1	-1
494.997	1	-5
495.337	1	10
495.678	1	4
496.019	1	3
496.359	1	-11
496.700	1	-2
497.040	1	7
497.381	1	-8
497.721	1	-1
498.062	1	2
498.403	1	8
498.743	1	-3
499.084	1	-6
499.424	1	2
499.765	1	-7
500.105	1	2
500.446	1	-7
500.786	1	-5
501.127	1	2
501.467	1	-7
501.808	1	1
502.148	1	2
502.489	1	3
502.829	1	5
503.170	1	4
503.510	1	5
503.851	1	6
504.191	1	4
504.532	1	8
504.872	1	-2
505.213	1	7
505.553	1	-14
505.894	1	-10
506.234	1	2
506.575	1	0
506.915	1	4
507.256	1	7
507.596	1	2
507.936	1	-2
508.277	1	0
508.617	1	5
508.958	1	-11
509.298	1	-2
509.639	1	-3
509.979	1	3
510.319	1	2
510.660	1	-6
511.000	1	-2
511.341	1	0
511.681	1	2
512.022	1	-3
512.362	1	-8
512.702	1	-3
513.043	1	-1
513.383	1	-10
513.724	1	-10
514.064	1	15
514.404	1	4
514.745	1	5
515.085	1	-3
515.425	1	-6
515.766	1	-10
516.106	1	-1
516.447	1	2
516.787	1	5
517.127	1	-4
517.468	1	-4
517.808	1	-1
518.148	1	9
518.489	1	2
518.829	1	7
519.169	1	0
519.510	1	-3
519.850	1	-1
520.190	1	1
520.531	1	10
520.871	1	-4
521.211	1	-6
521.552	1	4
521.892	1	-4
522.232	1	3
522.573	1	4
522.913	1	7
523.253	1	-5
523.593	1	-1
523.934	1	-4
524.274	1	-8
524.614	1	1
524.955	1	-3
525.295	1	2
525.635	1	2
525.975	1	9
526.316	1	6
526.656	1	6
526.996	1	6
527.337	1	-2
527.677	1	1
528.017	1	-9
528.357	1	-4
528.698	1	3
529.038	1	2
529.378	1	8
529.718	1	0
530.058	1	-3
530.399	1	2
530.739	1	-3
531.079	1	-2
531.419	1	0
531.760	1	-3
532.100	1	-13
532.440	1	4
532.780	1	4
533.120	1	-2
533.461	1	5
533.801	1	11
534.141	1	-13
534.481	1	-14
534.821	1	5
535.162	1	-9
535.502	1	-9
535.842	1	8
536.182	1	1
536.522	1	-2
536.862	1	1
537.203	1	-7
537.543	1	-1
537.883	1	-5
538.223	1	3
538.563	1	-3
538.903	1	1
539.243	1	-6
539.584	1	4
539.924	1	-4
540.264	1	-7
540.604	1	0
540.944	1	-6
541.284	1	2
541.624	1	6
541.964	1	8
542.305	1	8
542.645	1	-4
542.985	1	-3
543.325	1	0
543.665	1	7
544.005	1	0
544.345	1	5
544.685	1	-3
545.025	1	0
545.365	1	-1
545.705	1	0
546.045	1	1
546.386	1	13
546.726	1	-6
547.066	1	-9
547.406	1	5
547.746	1	-22
548.086	1	5
548.426	1	-5
548.766	1	8
549.106	1	-1
549.446	1	-5
549.786	1	-1
550.126	1	12
550.466	1	9
550.806	1	3
551.146	1	-1
551.486	1	4
551.826	1	4
552.166	1	6
552.506	1	5
552.846	1	-2
553.186	1	4
553.526	1	-3
553.866	1	5
554.206	1	6
554.546	1	5
554.886	1	1
555.226	1	-11
555.566	1	9
555.906	1	12
556.246	1	6
556.586	1	-7
556.926	1	3
557.266	1	-15
557.606	1	3
557.946	1	7
558.286	1	1
558.626	1	7
558.966	1	5
559.306	1	1
559.646	1	-6
559.986	1	-2
560.325	1	-5
560.665	1	-6
561.005	1	-7
561.345	1	6
561.685	1	0
562.025	1	2
562.365	1	1
562.705	1	-3
563.045	1	-10
563.385	1	-8
563.725	1	2
564.064	1	3
564.404	1	0
564.744	1	6
565.084	1	5
565.424	1	3
565.764	1	-1
566.104	1	-4
566.444	1	-12
566.783	1	-4
567.123	1	3
567.463	1	3
567.803	1	-5
568.143	1	-1
568.483	1	8
568.823	1	8
569.162	1	9
569.502	1	-3
569.842	1	6
570.182	1	-2
570.522	1	-10
570.862	1	-5
571.201	1	2
571.541	1	7
571.881	1	14
572.221	1	-5
572.561	1	2
572.900	1	-7
573.240	1	4
573.580	1	6
573.920	1	13
574.260	1	1
574.599	1	-6
574.939	1	3
575.279	1	13
575.619	1	14
575.959	1	-4
576.298	1	2
576.638	1	-9
576.978	1	7
577.318	1	6
577.657	1	0
577.997	1	-4
578.337	1	1
578.677	1	4
579.016	1	7
579.356	1	-9
579.696	1	5
580.036	1	3
580.375	1	6
580.715	1	-2
581.055	1	-5
581.394	1	-1
581.734	1	-4
582.074	1	6
582.414	1	8
582.753	1	0
583.093	1	-3
583.433	1	5
583.772	1	6
584.112	1	-4
584.452	1	-3
584.791	1	-2
585.131	1	5
585.471	1	10
585.811	1	6
586.150	1	6
586.490	1	5
586.830	1	-5
587.169	1	4
587.509	1	-5
587.849	1	-4
588.188	1	8
588.528	1	2
588.867	1	0
589.207	1	-4
589.547	1	1
589.886	1	-1
590.226	1	12
590.566	1	2
590.905	1	-2
591.245	1	-5
591.585	1	7
591.924	1	1
592.264	1	10
592.603	1	2
592.943	1	-1
593.283	1	-2
593.622	1	-9
593.962	1	6
594.301	1	3
594.641	1	-3
594.981	1	-4
595.320	1	9
595.660	1	7
595.999	1	-5
596.339	1	4
596.678	1	-5
597.018	1	-5
597.358	1	-6
597.697	1	0
598.037	1	-5
598.376	1	6
598.716	1	1
599.055	1	6
599.395	1	-2
599.734	1	3
600.074	1	-2
600.413	1	3
600.753	1	7
601.092	1	9
601.432	1	-4
601.771	1	3
602.111	1	-2
602.451	1	7
602.790	1	4
603.130	1	4
603.469	1	-10
603.809	1	-7
604.148	1	-1
604.487	1	2
604.827	1	7
605.166	1	3
605.506	1	5
605.845	1	-2
606.185	1	5
606.524	1	-2
606.864	1	-5
607.203	1	0
607.543	1	-9
607.882	1	1
608.222	1	6
608.561	1	-2
608.901	1	7
609.240	1	-7
609.579	1	3
609.919	1	10
610.258	1	9
610.598	1	-4
610.937	1	-2
611.277	1	1
611.616	1	5
611.955	1	-1
612.295	1	-3
612.634	1	-4
612.974	1	2
613.313	1	3
613.652	1	2
613.992	1	4
614.331	1	1
614.671	1	7
615.010	1	-8
615.349	1	4
615.689	1	5
616.028	1	1
616.368	1	6
616.707	1	2
617.046	1	-5
617.386	1	-2
617.725	1	3
618.064	1	-5
618.404	1	4
618.743	1	1
619.082	1	2
619.422	1	-9
619.761	1	1
620.100	1	3
620.440	1	14
620.779	1	0
621.118	1	-3
621.458	1	5
621.797	1	-3
622.136	1	15
622.476	1	8
622.815	1	4
623.154	1	2
623.494	1	12
623.833	1	1
624.172	1	-2
624.511	1	-2
624.851	1	-14
625.190	1	-1
625.529	1	2
625.869	1	5
626.208	1	0
626.547	1	-7
626.886	1	6
627.226	1	6
627.565	1	7
627.904	1	3
628.243	1	1
628.583	1	-4
628.922	1	0
629.261	1	9
629.600	1	14
629.940	1	-3
630.279	1	-3
630.618	1	-4
630.957	1	-1
631.297	1	7
631.636	1	-10
631.975	1	10
632.314	1	4
632.653	1	5
632.993	1	-1
633.332	1	-1
633.671	1	-2
634.010	1	-4
634.349	1	9
634.689	1	3
635.028	1	4
635.367	1	4
635.706	1	-2
636.045	1	5
636.384	1	-1
636.724	1	6
637.063	1	0
637.402	1	13
637.741	1	0
638.080	1	-11
638.419	1	1
638.759	1	-11
639.098	1	-4
639.437	1	-4
639.776	1	1
640.115	1	0
640.454	1	-2
640.793	1	3
641.132	1	6
641.472	1	10
641.811	1	3
642.150	1	-3
642.489	1	3
642.828	1	-12
643.167	1	-3
643.506	1	-6
643.845	1	2
644.184	1	-5
644.524	1	-3
644.863	1	-13
645.202	1	-1
645.541	1	6
645.880	1	0
646.219	1	0
646.558	1	-1
646.897	1	-5
647.236	1	2
647.575	1	-1
647.914	1	-3
648.253	1	15
648.592	1	-10
648.931	1	7
649.270	1	-1
649.610	1	5
649.949	1	-3
650.288	1	-3
650.627	1	-7
650.966	1	6
651.305	1	-6
651.644	1	13
651.983	1	1
652.322	1	-5
652.661	1	-1
653.000	1	-1
653.339	1	13
653.678	1	6
654.017	1	0
654.356	1	-3
654.695	1	1
655.034	1	-1
655.373	1	20
655.712	1	7
656.051	1	-5
656.390	1	-14
656.729	1	6
657.068	1	-3
657.406	1	-2
657.745	1	1
658.084	1	2
658.423	1	10
658.762	1	-5
659.101	1	7
659.440	1	0
659.779	1	4
660.118	1	-3
660.457	1	-1
660.796	1	-14
661.135	1	-1
661.474	1	-4
661.813	1	10
662.152	1	3
662.491	1	-5
662.829	1	-4
663.168	1	0
663.507	1	-1
663.846	1	-10
664.185	1	4
664.524	1	0
664.863	1	-4
665.202	1	0
665.541	1	-11
665.879	1	-8
666.218	1	-6
666.557	1	-1
666.896	1	-4
667.235	1	4
667.574	1	-5
667.913	1	0
668.251	1	-6
668.590	1	-2
668.929	1	-15
669.268	1	-6
669.607	1	-5
669.946	1	5
670.285	1	-3
670.623	1	2
670.962	1	0
671.301	1	-7
671.640	1	0
671.979	1	-5
672.317	1	-4
672.656	1	-4
672.995	1	-2
673.334	1	-9
673.673	1	7
674.011	1	0
674.350	1	9
674.689	1	-5
675.028	1	-2
675.367	1	-1
675.705	1	-1
676.044	1	4
676.383	1	-1
676.722	1	-10
677.060	1	-10
677.399	1	-2
677.738	1	4
678.077	1	-1
678.416	1	-3
678.754	1	-1
679.093	1	4
679.432	1	0
679.771	1	2
680.109	1	2
680.448	1	-4
680.787	1	-6
681.125	1	6
681.464	1	-3
681.803	1	0
682.142	1	11
682.480	1	16
682.819	1	3
683.158	1	-3
683.496	1	0
683.835	1	-6
684.174	1	1
684.512	1	-6
684.851	1	2
685.190	1	2
685.529	1	-4
685.867	1	6
686.206	1	-7
686.545	1	-1
686.883	1	-4
687.222	1	6
687.561	1	6
687.899	1	3
688.238	1	7
688.577	1	-3
688.746	1	-3