File: Data/GaN_200K_800ms/GaN_sample F_spot 12_UVVIS_200 K_200um_800 ms 2x2mm1_154.txt
340.368	1	7
340.710	1	-8
341.052	1	8
341.394	1	-5
341.737	1	0
342.079	1	6
342.421	1	3
342.763	1	5
343.105	1	3
343.447	1	-8
343.789	1	4
344.131	1	-2
344.473	1	-5
344.815	1	0
345.157	1	-3
345.499	1	4
345.841	1	11
346.183	1	-15
346.526	1	-12
346.868	1	11
347.210	1	-4
347.552	1	2
347.894	1	0
348.236	1	7
348.578	1	4
348.920	1	-1
349.262	1	-4
349.604	1	2
349.946	1	-1
350.288	1	9
350.630	1	3
350.972	1	3
351.314	1	10
351.656	1	7
351.998	1	8
352.340	1	7
352.682	1	16
353.024	1	6
353.366	1	15
353.708	1	0
354.050	1	-10
354.392	1	-4
354.734	1	17
355.076	1	-3
355.418	1	-1
355.760	1	3
356.102	1	17
356.444	1	12
356.785	1	8
357.127	1	8
357.469	1	9
357.811	1	7
358.153	1	12
358.495	1	3
358.837	1	-1
359.179	1	13
359.521	1	5
359.863	1	4
360.205	1	4
360.547	1	14
360.889	1	4
361.231	1	3
361.572	1	11
361.914	1	15
362.256	1	14
362.598	1	6
362.940	1	20
363.282	1	18
363.624	1	17
363.966	1	18
364.308	1	21
364.649	1	15
364.991	1	32
365.333	1	31
365.675	1	14
366.017	1	30
366.359	1	40
366.701	1	40
367.042	1	44
367.384	1	49
367.726	1	39
368.068	1	43
368.410	1	55
368.752	1	47
369.093	1	50
369.435	1	45
369.777	1	39
370.119	1	46
370.461	1	56
370.803	1	40
371.144	1	43
371.486	1	52
371.828	1	46
372.170	1	41
372.512	1	36
372.853	1	44
373.195	1	42
373.537	1	33
373.879	1	29
374.220	1	44
374.562	1	29
374.904	1	28
375.246	1	36
375.588	1	34
375.929	1	33
376.271	1	33
376.613	1	28
376.955	1	22
377.296	1	30
377.638	1	21
377.980	1	22
378.321	1	18
378.663	1	21
379.005	1	18
379.347	1	20
379.688	1	19
380.030	1	9
380.372	1	14
380.714	1	20
381.055	1	25
381.397	1	10
381.739	1	19
382.080	1	7
382.422	1	4
382.764	1	11
383.105	1	-2
383.447	1	10
383.789	1	5
384.130	1	13
384.472	1	12
384.814	1	13
385.156	1	13
385.497	1	10
385.839	1	5
386.180	1	6
386.522	1	13
386.864	1	4
387.205	1	5
387.547	1	2
387.889	1	12
388.230	1	12
388.572	1	10
388.914	1	-1
389.255	1	0
389.597	1	15
389.939	1	1
390.280	1	7
390.622	1	6
390.963	1	21
391.305	1	11
391.647	1	7
391.988	1	14
392.330	1	13
392.671	1	-3
393.013	1	0
393.355	1	8
393.696	1	7
394.038	1	15
394.379	1	4
394.721	1	3
395.062	1	13
395.404	1	-5
395.746	1	10
396.087	1	12
396.429	1	12
396.770	1	4
397.112	1	8
397.453	1	11
397.795	1	5
398.136	1	-11
398.478	1	5
398.819	1	2
399.161	1	13
399.503	1	-3
399.844	1	2
400.186	1	2
400.527	1	4
400.869	1	0
401.210	1	2
401.552	1	-5
401.893	1	6
402.235	1	-3
402.576	1	3
402.918	1	13
403.259	1	7
403.601	1	-1
403.942	1	9
404.284	1	12
404.625	1	12
404.967	1	4
405.308	1	1
405.649	1	1
405.991	1	-1
406.332	1	13
406.674	1	-3
407.015	1	12
407.357	1	-9
407.698	1	-1
408.040	1	-5
408.381	1	5
408.722	1	-19
409.064	1	-2
409.405	1	6
409.747	1	0
410.088	1	9
410.430	1	11
410.771	1	-9
411.112	1	1
411.454	1	3
411.795	1	-7
412.137	1	2
412.478	1	-3
412.819	1	-5
413.161	1	-3
413.502	1	5
413.844	1	-2
414.185	1	4
414.526	1	-2
414.868	1	7
415.209	1	4
415.550	1	-9
415.892	1	-2
416.233	1	5
416.575	1	7
416.916	1	7
417.257	1	-2
417.599	1	-3
417.940	1	6
418.281	1	5
418.623	1	-3
418.964	1	-11
419.305	1	5
419.647	1	-1
419.988	1	2
420.329	1	-5
420.671	1	6
421.012	1	9
421.353	1	-7
421.695	1	-6
422.036	1	2
422.377	1	-13
422.718	1	4
423.060	1	-1
423.401	1	5
423.742	1	-3
424.084	1	6
424.425	1	7
424.766	1	-2
425.107	1	-3
425.449	1	-1
425.790	1	-6
426.131	1	3
426.472	1	-2
426.814	1	-1
427.155	1	-1
427.496	1	-4
427.837	1	-2
428.179	1	-1
428.520	1	2
428.861	1	-5
429.202	1	2
429.544	1	-4
429.885	1	5
430.226	1	-11
430.567	1	-6
430.909	1	-2
431.250	1	2
431.591	1	5
431.932	1	-4
432.273	1	7
432.615	1	-3
432.956	1	-6
433.297	1	1
433.638	1	-5
433.979	1	-2
434.320	1	7
434.662	1	1
435.003	1	5
435.344	1	1
435.685	1	2
436.026	1	7
436.368	1	10
436.709	1	-4
437.050	1	-4
437.391	1	8
437.732	1	1
438.073	1	-8
438.414	1	-13
438.756	1	-14
439.097	1	1
439.438	1	-6
439.779	1	0
440.120	1	-2
440.461	1	9
440.802	1	-3
441.143	1	10
441.485	1	10
441.826	1	-4
442.167	1	2
442.508	1	-10
442.849	1	19
443.190	1	0
443.531	1	7
443.872	1	4
444.213	1	3
444.554	1	9
444.895	1	-3
445.237	1	-3
445.578	1	-8
445.919	1	-11
446.260	1	-5
446.601	1	-8
446.942	1	-2
447.283	1	3
447.624	1	6
447.965	1	-3
448.306	1	5
448.647	1	-12
448.988	1	2
449.329	1	-5
449.670	1	3
450.011	1	3
450.352	1	4
450.693	1	-3
451.034	1	-3
451.375	1	0
451.716	1	0
452.057	1	2
452.398	1	1
452.739	1	11
453.080	1	-3
453.421	1	6
453.762	1	0
454.103	1	0
454.444	1	0
454.785	1	-5
455.126	1	1
455.467	1	11
455.808	1	5
456.149	1	0
456.490	1	2
456.831	1	3
457.172	1	4
457.513	1	8
457.854	1	3
458.195	1	-4
458.536	1	7
458.877	1	5
459.218	1	0
459.559	1	13
459.899	1	2
460.240	1	2
460.581	1	19
460.922	1	9
461.263	1	-2
461.604	1	-3
461.945	1	3
462.286	1	11
462.627	1	9
462.968	1	8
463.309	1	-5
463.649	1	1
463.990	1	-4
464.331	1	-7
464.672	1	5
465.013	1	-1
465.354	1	-3
465.695	1	-2
466.036	1	2
466.376	1	-6
466.717	1	-1
467.058	1	-3
467.399	1	7
467.740	1	1
468.081	1	5
468.422	1	-1
468.762	1	-13
469.103	1	-4
469.444	1	-3
469.785	1	-11
470.126	1	-7
470.467	1	-3
470.807	1	3
471.148	1	6
471.489	1	-6
471.830	1	6
472.171	1	10
472.511	1	-11
472.852	1	3
473.193	1	5
473.534	1	10
473.875	1	14
474.215	1	5
474.556	1	2
474.897	1	1
475.238	1	1
475.578	1	-3
475.919	1	-2
476.260	1	-5
476.601	1	6
476.942	1	21
477.282	1	1
477.623	1	-4
477.964	1	4
478.305	1	0
478.645	1	6
478.986	1	3
479.327	1	-7
479.667	1	-1
480.008	1	-2
480.349	1	-1
480.690	1	-4
481.030	1	-1
481.371	1	8
481.712	1	3
482.053	1	-11
482.393	1	-4
482.734	1	-4
483.075	1	4
483.415	1	-3
483.756	1	17
484.097	1	0
484.437	1	6
484.778	1	1
485.119	1	-6
485.459	1	17
485.800	1	-6
486.141	1	-6
486.481	1	1
486.822	1	6
487.163	1	-9
487.503	1	1
487.844	1	3
488.185	1	3
488.525	1	4
488.866	1	-6
489.207	1	2
489.547	1	4
489.888	1	0
490.228	1	8
490.569	1	14
490.910	1	-2
491.250	1	1
491.591	1	-1
491.932	1	-2
492.272	1	-6
492.613	1	-6
492.953	1	2
493.294	1	-4
493.635	1	1
493.975	1	8
494.316	1	1
494.656	1	7
494.997	1	6
495.337	1	6
495.678	1	-2
496.019	1	-5
496.359	1	-5
496.700	1	3
497.040	1	-11
497.381	1	14
497.721	1	0
498.062	1	8
498.403	1	-3
498.743	1	2
499.084	1	-1
499.424	1	7
499.765	1	-1
500.105	1	-7
500.446	1	-5
500.786	1	-1
501.127	1	0
501.467	1	-7
501.808	1	7
502.148	1	8
502.489	1	1
502.829	1	-1
503.170	1	6
503.510	1	-1
503.851	1	-2
504.191	1	3
504.532	1	7
504.872	1	-1
505.213	1	8
505.553	1	6
505.894	1	3
506.234	1	7
506.575	1	10
506.915	1	7
507.256	1	3
507.596	1	3
507.936	1	1
508.277	1	-2
508.617	1	-6
508.958	1	-10
509.298	1	3
509.639	1	1
509.979	1	11
510.319	1	2
510.660	1	0
511.000	1	-6
511.341	1	-4
511.681	1	9
512.022	1	-2
512.362	1	5
512.702	1	-3
513.043	1	6
513.383	1	-11
513.724	1	-1
514.064	1	7
514.404	1	4
514.745	1	-2
515.085	1	-5
515.425	1	-10
515.766	1	-12
516.106	1	0
516.447	1	22
516.787	1	6
517.127	1	-1
517.468	1	5
517.808	1	6
518.148	1	3
518.489	1	3
518.829	1	11
519.169	1	6
519.510	1	1
519.850	1	3
520.190	1	-5
520.531	1	5
520.871	1	3
521.211	1	-3
521.552	1	6
521.892	1	-5
522.232	1	8
522.573	1	2
522.913	1	9
523.253	1	3
523.593	1	-1
523.934	1	2
524.274	1	6
524.614	1	7
524.955	1	5
525.295	1	3
525.635	1	-4
525.975	1	9
526.316	1	9
526.656	1	-2
526.996	1	5
527.337	1	6
527.677	1	11
528.017	1	-1
528.357	1	5
528.698	1	10
529.038	1	5
529.378	1	8
529.718	1	15
530.058	1	-5
530.399	1	10
530.739	1	-3
531.079	1	-1
531.419	1	6
531.760	1	4
532.100	1	11
532.440	1	4
532.780	1	12
533.120	1	11
533.461	1	11
533.801	1	16
534.141	1	-3
534.481	1	2
534.821	1	8
535.162	1	4
535.502	1	-3
535.842	1	1
536.182	1	2
536.522	1	4
536.862	1	16
537.203	1	-7
537.543	1	6
537.883	1	2
538.223	1	6
538.563	1	7
538.903	1	-5
539.243	1	11
539.584	1	1
539.924	1	9
540.264	1	2
540.604	1	4
540.944	1	-2
541.284	1	13
541.624	1	4
541.964	1	17
542.305	1	13
542.645	1	1
542.985	1	12
543.325	1	2
543.665	1	12
544.005	1	23
544.345	1	9
544.685	1	4
545.025	1	5
545.365	1	9
545.705	1	3
546.045	1	-2
546.386	1	11
546.726	1	-4
547.066	1	21
547.406	1	3
547.746	1	-6
548.086	1	4
548.426	1	-3
548.766	1	3
549.106	1	-9
549.446	1	7
549.786	1	5
550.126	1	14
550.466	1	14
550.806	1	4
551.146	1	-2
551.486	1	-1
551.826	1	9
552.166	1	6
552.506	1	9
552.846	1	7
553.186	1	18
553.526	1	2
553.866	1	-1
554.206	1	12
554.546	1	4
554.886	1	13
555.226	1	-7
555.566	1	9
555.906	1	12
556.246	1	10
556.586	1	-1
556.926	1	5
557.266	1	4
557.606	1	3
557.946	1	13
558.286	1	1
558.626	1	16
558.966	1	4
559.306	1	2
559.646	1	-3
559.986	1	-3
560.325	1	1
560.665	1	3
561.005	1	11
561.345	1	9
561.685	1	2
562.025	1	3
562.365	1	1
562.705	1	-1
563.045	1	5
563.385	1	3
563.725	1	11
564.064	1	8
564.404	1	8
564.744	1	3
565.084	1	13
565.424	1	6
565.764	1	9
566.104	1	2
566.444	1	6
566.783	1	3
567.123	1	11
567.463	1	10
567.803	1	-1
568.143	1	9
568.483	1	15
568.823	1	10
569.162	1	7
569.502	1	-3
569.842	1	11
570.182	1	-1
570.522	1	-6
570.862	1	1
571.201	1	8
571.541	1	5
571.881	1	18
572.221	1	5
572.561	1	9
572.900	1	-3
573.240	1	7
573.580	1	8
573.920	1	5
574.260	1	16
574.599	1	3
574.939	1	2
575.279	1	18
575.619	1	18
575.959	1	2
576.298	1	16
576.638	1	4
576.978	1	9
577.318	1	9
577.657	1	-7
577.997	1	-5
578.337	1	23
578.677	1	10
579.016	1	6
579.356	1	-4
579.696	1	15
580.036	1	5
580.375	1	9
580.715	1	9
581.055	1	5
581.394	1	8
581.734	1	-3
582.074	1	-7
582.414	1	10
582.753	1	1
583.093	1	12
583.433	1	1
583.772	1	5
584.112	1	2
584.452	1	5
584.791	1	-7
585.131	1	8
585.471	1	14
585.811	1	12
586.150	1	1
586.490	1	11
586.830	1	2
587.169	1	7
587.509	1	2
587.849	1	2
588.188	1	14
588.528	1	0
588.867	1	7
589.207	1	9
589.547	1	5
589.886	1	1
590.226	1	10
590.566	1	9
590.905	1	9
591.245	1	7
591.585	1	11
591.924	1	3
592.264	1	2
592.603	1	8
592.943	1	1
593.283	1	5
593.622	1	3
593.962	1	7
594.301	1	7
594.641	1	6
594.981	1	-2
595.320	1	8
595.660	1	4
595.999	1	-6
596.339	1	9
596.678	1	4
597.018	1	-7
597.358	1	-2
597.697	1	3
598.037	1	2
598.376	1	6
598.716	1	2
599.055	1	6
599.395	1	2
599.734	1	5
600.074	1	-1
600.413	1	7
600.753	1	2
601.092	1	16
601.432	1	-5
601.771	1	13
602.111	1	3
602.451	1	12
602.790	1	3
603.130	1	2
603.469	1	3
603.809	1	6
604.148	1	1
604.487	1	1
604.827	1	8
605.166	1	7
605.506	1	5
605.845	1	2
606.185	1	5
606.524	1	3
606.864	1	9
607.203	1	-2
607.543	1	10
607.882	1	15
608.222	1	12
608.561	1	-1
608.901	1	8
609.240	1	1
609.579	1	6
609.919	1	12
610.258	1	7
610.598	1	-8
610.937	1	0
611.277	1	-2
611.616	1	2
611.955	1	9
612.295	1	-8
612.634	1	5
612.974	1	-7
613.313	1	8
613.652	1	4
613.992	1	3
614.331	1	1
614.671	1	9
615.010	1	-9
615.349	1	12
615.689	1	14
616.028	1	7
616.368	1	2
616.707	1	0
617.046	1	8
617.386	1	2
617.725	1	1
618.064	1	-1
618.404	1	5
618.743	1	3
619.082	1	4
619.422	1	-5
619.761	1	15
620.100	1	10
620.440	1	7
620.779	1	7
621.118	1	8
621.458	1	-2
621.797	1	-2
622.136	1	6
622.476	1	7
622.815	1	13
623.154	1	8
623.494	1	4
623.833	1	7
624.172	1	-2
624.511	1	0
624.851	1	-11
625.190	1	-6
625.529	1	8
625.869	1	2
626.208	1	12
626.547	1	1
626.886	1	6
627.226	1	6
627.565	1	1
627.904	1	5
628.243	1	6
628.583	1	4
628.922	1	3
629.261	1	1
629.600	1	6
629.940	1	4
630.279	1	-1
630.618	1	-3
630.957	1	-1
631.297	1	6
631.636	1	-8
631.975	1	12
632.314	1	-6
632.653	1	4
632.993	1	-4
633.332	1	1
633.671	1	-1
634.010	1	-4
634.349	1	12
634.689	1	-4
635.028	1	14
635.367	1	0
635.706	1	1
636.045	1	15
636.384	1	8
636.724	1	10
637.063	1	6
637.402	1	6
637.741	1	2
638.080	1	2
638.419	1	1
638.759	1	4
639.098	1	9
639.437	1	4
639.776	1	-1
640.115	1	3
640.454	1	2
640.793	1	23
641.132	1	4
641.472	1	12
641.811	1	2
642.150	1	-9
642.489	1	1
642.828	1	-4
643.167	1	-1
643.506	1	-8
643.845	1	3
644.184	1	1
644.524	1	0
644.863	1	-10
645.202	1	-2
645.541	1	5
645.880	1	5
646.219	1	-4
646.558	1	-4
646.897	1	5
647.236	1	4
647.575	1	1
647.914	1	2
648.253	1	10
648.592	1	3
648.931	1	11
649.270	1	-4
649.610	1	4
649.949	1	8
650.288	1	12
650.627	1	-4
650.966	1	2
651.305	1	4
651.644	1	10
651.983	1	3
652.322	1	-1
652.661	1	-1
653.000	1	3
653.339	1	16
653.678	1	0
654.017	1	0
654.356	1	-9
654.695	1	6
655.034	1	4
655.373	1	4
655.712	1	2
656.051	1	-1
656.390	1	-1
656.729	1	12
657.068	1	3
657.406	1	5
657.745	1	4
658.084	1	5
658.423	1	3
658.762	1	0
659.101	1	2
659.440	1	6
659.779	1	-3
660.118	1	11
660.457	1	-3
660.796	1	-12
661.135	1	-6
661.474	1	5
661.813	1	17
662.152	1	2
662.491	1	-5
662.829	1	-2
663.168	1	-2
663.507	1	19
663.846	1	0
664.185	1	-2
664.524	1	-1
664.863	1	-3
665.202	1	6
665.541	1	1
665.879	1	-2
666.218	1	-3
666.557	1	0
666.896	1	0
667.235	1	6
667.574	1	8
667.913	1	5
668.251	1	-4
668.590	1	3
668.929	1	-7
669.268	1	-4
669.607	1	-7
669.946	1	8
670.285	1	11
670.623	1	-3
670.962	1	3
671.301	1	-2
671.640	1	-4
671.979	1	-5
672.317	1	10
672.656	1	-2
672.995	1	12
673.334	1	4
673.673	1	4
674.011	1	0
674.350	1	5
674.689	1	4
675.028	1	5
675.367	1	11
675.705	1	6
676.044	1	0
676.383	1	4
676.722	1	5
677.060	1	0
677.399	1	-5
677.738	1	17
678.077	1	7
678.416	1	3
678.754	1	1
679.093	1	3
679.432	1	-1
679.771	1	4
680.109	1	13
680.448	1	-3
680.787	1	-1
681.125	1	-8
681.464	1	3
681.803	1	-2
682.142	1	8
682.480	1	13
682.819	1	6
683.158	1	-2
683.496	1	-2
683.835	1	6
684.174	1	0
684.512	1	4
684.851	1	3
685.190	1	2
685.529	1	5
685.867	1	2
686.206	1	2
686.545	1	1
686.883	1	6
687.222	1	10
687.561	1	10
687.899	1	-1
688.238	1	13
688.577	1	-1
688.746	1	6