File: Data/GaN_200K_800ms/GaN_sample F_spot 12_UVVIS_200 K_200um_800 ms 2x2mm1_48.txt
340.368	1	0
340.710	1	-5
341.052	1	13
341.394	1	7
341.737	1	14
342.079	1	5
342.421	1	4
342.763	1	12
343.105	1	10
343.447	1	1
343.789	1	1
344.131	1	2
344.473	1	7
344.815	1	7
345.157	1	-2
345.499	1	14
345.841	1	10
346.183	1	1
346.526	1	-4
346.868	1	12
347.210	1	-8
347.552	1	10
347.894	1	4
348.236	1	19
348.578	1	14
348.920	1	16
349.262	1	11
349.604	1	10
349.946	1	1
350.288	1	16
350.630	1	10
350.972	1	10
351.314	1	22
351.656	1	20
351.998	1	17
352.340	1	22
352.682	1	12
353.024	1	20
353.366	1	19
353.708	1	21
354.050	1	12
354.392	1	20
354.734	1	21
355.076	1	18
355.418	1	9
355.760	1	26
356.102	1	27
356.444	1	26
356.785	1	41
357.127	1	32
357.469	1	50
357.811	1	32
358.153	1	47
358.495	1	44
358.837	1	41
359.179	1	47
359.521	1	51
359.863	1	63
360.205	1	65
360.547	1	70
360.889	1	78
361.231	1	86
361.572	1	106
361.914	1	104
362.256	1	105
362.598	1	117
362.940	1	138
363.282	1	141
363.624	1	163
363.966	1	189
364.308	1	206
364.649	1	236
364.991	1	232
365.333	1	271
365.675	1	302
366.017	1	326
366.359	1	364
366.701	1	396
367.042	1	427
367.384	1	456
367.726	1	483
368.068	1	530
368.410	1	566
368.752	1	550
369.093	1	602
369.435	1	594
369.777	1	591
370.119	1	593
370.461	1	575
370.803	1	568
371.144	1	541
371.486	1	516
371.828	1	501
372.170	1	471
372.512	1	454
372.853	1	414
373.195	1	402
373.537	1	383
373.879	1	359
374.220	1	355
374.562	1	337
374.904	1	309
375.246	1	309
375.588	1	295
375.929	1	266
376.271	1	264
376.613	1	228
376.955	1	221
377.296	1	208
377.638	1	219
377.980	1	206
378.321	1	182
378.663	1	174
379.005	1	173
379.347	1	153
379.688	1	141
380.030	1	136
380.372	1	127
380.714	1	132
381.055	1	130
381.397	1	123
381.739	1	125
382.080	1	125
382.422	1	100
382.764	1	95
383.105	1	98
383.447	1	75
383.789	1	81
384.130	1	89
384.472	1	87
384.814	1	73
385.156	1	67
385.497	1	79
385.839	1	76
386.180	1	72
386.522	1	73
386.864	1	71
387.205	1	67
387.547	1	54
387.889	1	56
388.230	1	57
388.572	1	50
388.914	1	51
389.255	1	37
389.597	1	43
389.939	1	52
390.280	1	44
390.622	1	39
390.963	1	51
391.305	1	40
391.647	1	46
391.988	1	39
392.330	1	40
392.671	1	47
393.013	1	36
393.355	1	45
393.696	1	41
394.038	1	31
394.379	1	35
394.721	1	23
395.062	1	29
395.404	1	17
395.746	1	21
396.087	1	30
396.429	1	27
396.770	1	18
397.112	1	18
397.453	1	31
397.795	1	29
398.136	1	15
398.478	1	17
398.819	1	14
399.161	1	36
399.503	1	17
399.844	1	27
400.186	1	18
400.527	1	15
400.869	1	18
401.210	1	22
401.552	1	6
401.893	1	15
402.235	1	16
402.576	1	14
402.918	1	21
403.259	1	18
403.601	1	7
403.942	1	29
404.284	1	24
404.625	1	20
404.967	1	10
405.308	1	15
405.649	1	13
405.991	1	8
406.332	1	17
406.674	1	11
407.015	1	16
407.357	1	4
407.698	1	18
408.040	1	4
408.381	1	13
408.722	1	-1
409.064	1	14
409.405	1	14
409.747	1	6
410.088	1	6
410.430	1	15
410.771	1	14
411.112	1	7
411.454	1	13
411.795	1	9
412.137	1	9
412.478	1	11
412.819	1	7
413.161	1	11
413.502	1	6
413.844	1	6
414.185	1	3
414.526	1	11
414.868	1	13
415.209	1	4
415.550	1	4
415.892	1	-1
416.233	1	13
416.575	1	10
416.916	1	6
417.257	1	7
417.599	1	12
417.940	1	9
418.281	1	8
418.623	1	7
418.964	1	0
419.305	1	12
419.647	1	7
419.988	1	1
420.329	1	-7
420.671	1	17
421.012	1	9
421.353	1	6
421.695	1	6
422.036	1	14
422.377	1	9
422.718	1	13
423.060	1	4
423.401	1	6
423.742	1	11
424.084	1	3
424.425	1	1
424.766	1	0
425.107	1	6
425.449	1	7
425.790	1	1
426.131	1	10
426.472	1	5
426.814	1	2
427.155	1	4
427.496	1	6
427.837	1	8
428.179	1	0
428.520	1	0
428.861	1	-3
429.202	1	7
429.544	1	-1
429.885	1	7
430.226	1	-3
430.567	1	7
430.909	1	7
431.250	1	3
431.591	1	0
431.932	1	-3
432.273	1	-3
432.615	1	-3
432.956	1	-6
433.297	1	1
433.638	1	-1
433.979	1	12
434.320	1	8
434.662	1	8
435.003	1	2
435.344	1	14
435.685	1	6
436.026	1	10
436.368	1	2
436.709	1	2
437.050	1	-2
437.391	1	8
437.732	1	-3
438.073	1	6
438.414	1	-1
438.756	1	0
439.097	1	0
439.438	1	6
439.779	1	6
440.120	1	12
440.461	1	17
440.802	1	0
441.143	1	9
441.485	1	8
441.826	1	12
442.167	1	7
442.508	1	5
442.849	1	17
443.190	1	5
443.531	1	9
443.872	1	7
444.213	1	-2
444.554	1	12
444.895	1	0
445.237	1	5
445.578	1	5
445.919	1	-3
446.260	1	4
446.601	1	5
446.942	1	6
447.283	1	-2
447.624	1	7
447.965	1	0
448.306	1	-1
448.647	1	5
448.988	1	-5
449.329	1	6
449.670	1	12
450.011	1	12
450.352	1	1
450.693	1	3
451.034	1	5
451.375	1	2
451.716	1	4
452.057	1	5
452.398	1	4
452.739	1	7
453.080	1	3
453.421	1	9
453.762	1	8
454.103	1	-2
454.444	1	-5
454.785	1	7
455.126	1	-1
455.467	1	5
455.808	1	7
456.149	1	8
456.490	1	-1
456.831	1	10
457.172	1	5
457.513	1	4
457.854	1	2
458.195	1	-3
458.536	1	10
458.877	1	12
459.218	1	-3
459.559	1	11
459.899	1	7
460.240	1	3
460.581	1	22
460.922	1	9
461.263	1	7
461.604	1	2
461.945	1	5
462.286	1	10
462.627	1	7
462.968	1	1
463.309	1	-1
463.649	1	11
463.990	1	6
464.331	1	-2
464.672	1	6
465.013	1	1
465.354	1	12
465.695	1	3
466.036	1	0
466.376	1	-8
466.717	1	9
467.058	1	-2
467.399	1	8
467.740	1	7
468.081	1	1
468.422	1	-4
468.762	1	-9
469.103	1	-6
469.444	1	-6
469.785	1	-7
470.126	1	-5
470.467	1	10
470.807	1	11
471.148	1	1
471.489	1	1
471.830	1	2
472.171	1	19
472.511	1	-2
472.852	1	2
473.193	1	14
473.534	1	13
473.875	1	18
474.215	1	17
474.556	1	4
474.897	1	9
475.238	1	5
475.578	1	8
475.919	1	4
476.260	1	5
476.601	1	10
476.942	1	7
477.282	1	1
477.623	1	-4
477.964	1	4
478.305	1	7
478.645	1	21
478.986	1	5
479.327	1	-2
479.667	1	9
480.008	1	8
480.349	1	6
480.690	1	5
481.030	1	-1
481.371	1	9
481.712	1	11
482.053	1	2
482.393	1	3
482.734	1	10
483.075	1	7
483.415	1	13
483.756	1	18
484.097	1	9
484.437	1	3
484.778	1	10
485.119	1	6
485.459	1	16
485.800	1	-3
486.141	1	6
486.481	1	9
486.822	1	19
487.163	1	12
487.503	1	7
487.844	1	13
488.185	1	16
488.525	1	8
488.866	1	16
489.207	1	7
489.547	1	9
489.888	1	-2
490.228	1	15
490.569	1	17
490.910	1	8
491.250	1	6
491.591	1	10
491.932	1	2
492.272	1	13
492.613	1	6
492.953	1	9
493.294	1	9
493.635	1	14
493.975	1	15
494.316	1	10
494.656	1	8
494.997	1	13
495.337	1	21
495.678	1	7
496.019	1	14
496.359	1	11
496.700	1	11
497.040	1	3
497.381	1	12
497.721	1	15
498.062	1	16
498.403	1	16
498.743	1	15
499.084	1	13
499.424	1	13
499.765	1	7
500.105	1	17
500.446	1	11
500.786	1	14
501.127	1	16
501.467	1	22
501.808	1	26
502.148	1	21
502.489	1	18
502.829	1	29
503.170	1	28
503.510	1	21
503.851	1	12
504.191	1	25
504.532	1	31
504.872	1	28
505.213	1	17
505.553	1	26
505.894	1	17
506.234	1	29
506.575	1	25
506.915	1	30
507.256	1	30
507.596	1	28
507.936	1	18
508.277	1	22
508.617	1	21
508.958	1	19
509.298	1	36
509.639	1	23
509.979	1	25
510.319	1	27
510.660	1	29
511.000	1	23
511.341	1	22
511.681	1	32
512.022	1	21
512.362	1	11
512.702	1	29
513.043	1	42
513.383	1	19
513.724	1	19
514.064	1	47
514.404	1	23
514.745	1	19
515.085	1	29
515.425	1	22
515.766	1	11
516.106	1	26
516.447	1	35
516.787	1	30
517.127	1	29
517.468	1	28
517.808	1	24
518.148	1	33
518.489	1	24
518.829	1	32
519.169	1	45
519.510	1	33
519.850	1	27
520.190	1	31
520.531	1	39
520.871	1	33
521.211	1	21
521.552	1	39
521.892	1	34
522.232	1	32
522.573	1	23
522.913	1	26
523.253	1	39
523.593	1	21
523.934	1	42
524.274	1	36
524.614	1	32
524.955	1	33
525.295	1	23
525.635	1	33
525.975	1	31
526.316	1	51
526.656	1	41
526.996	1	52
527.337	1	30
527.677	1	49
528.017	1	36
528.357	1	36
528.698	1	54
529.038	1	43
529.378	1	46
529.718	1	45
530.058	1	45
530.399	1	46
530.739	1	44
531.079	1	44
531.419	1	47
531.760	1	51
532.100	1	38
532.440	1	44
532.780	1	42
533.120	1	52
533.461	1	47
533.801	1	62
534.141	1	35
534.481	1	36
534.821	1	47
535.162	1	45
535.502	1	42
535.842	1	44
536.182	1	46
536.522	1	37
536.862	1	40
537.203	1	33
537.543	1	44
537.883	1	38
538.223	1	44
538.563	1	56
538.903	1	32
539.243	1	44
539.584	1	37
539.924	1	47
540.264	1	42
540.604	1	40
540.944	1	30
541.284	1	41
541.624	1	47
541.964	1	48
542.305	1	36
542.645	1	44
542.985	1	37
543.325	1	43
543.665	1	45
544.005	1	57
544.345	1	47
544.685	1	42
545.025	1	42
545.365	1	36
545.705	1	41
546.045	1	54
546.386	1	48
546.726	1	47
547.066	1	43
547.406	1	48
547.746	1	41
548.086	1	50
548.426	1	34
548.766	1	46
549.106	1	63
549.446	1	45
549.786	1	55
550.126	1	62
550.466	1	46
550.806	1	50
551.146	1	52
551.486	1	51
551.826	1	51
552.166	1	51
552.506	1	50
552.846	1	56
553.186	1	57
553.526	1	49
553.866	1	44
554.206	1	52
554.546	1	57
554.886	1	44
555.226	1	42
555.566	1	48
555.906	1	58
556.246	1	43
556.586	1	48
556.926	1	53
557.266	1	35
557.606	1	51
557.946	1	60
558.286	1	53
558.626	1	50
558.966	1	56
559.306	1	41
559.646	1	39
559.986	1	36
560.325	1	40
560.665	1	45
561.005	1	43
561.345	1	47
561.685	1	46
562.025	1	44
562.365	1	40
562.705	1	53
563.045	1	41
563.385	1	35
563.725	1	47
564.064	1	47
564.404	1	48
564.744	1	52
565.084	1	50
565.424	1	50
565.764	1	51
566.104	1	54
566.444	1	39
566.783	1	41
567.123	1	43
567.463	1	49
567.803	1	39
568.143	1	47
568.483	1	56
568.823	1	48
569.162	1	60
569.502	1	41
569.842	1	49
570.182	1	54
570.522	1	41
570.862	1	42
571.201	1	52
571.541	1	53
571.881	1	58
572.221	1	41
572.561	1	50
572.900	1	38
573.240	1	50
573.580	1	48
573.920	1	49
574.260	1	50
574.599	1	51
574.939	1	44
575.279	1	54
575.619	1	42
575.959	1	31
576.298	1	59
576.638	1	40
576.978	1	40
577.318	1	57
577.657	1	37
577.997	1	36
578.337	1	48
578.677	1	50
579.016	1	46
579.356	1	39
579.696	1	58
580.036	1	38
580.375	1	47
580.715	1	41
581.055	1	42
581.394	1	44
581.734	1	40
582.074	1	35
582.414	1	45
582.753	1	32
583.093	1	41
583.433	1	45
583.772	1	37
584.112	1	43
584.452	1	48
584.791	1	36
585.131	1	40
585.471	1	47
585.811	1	51
586.150	1	46
586.490	1	53
586.830	1	45
587.169	1	47
587.509	1	31
587.849	1	40
588.188	1	39
588.528	1	43
588.867	1	42
589.207	1	36
589.547	1	37
589.886	1	36
590.226	1	50
590.566	1	41
590.905	1	38
591.245	1	27
591.585	1	43
591.924	1	31
592.264	1	35
592.603	1	34
592.943	1	41
593.283	1	35
593.622	1	39
593.962	1	39
594.301	1	39
594.641	1	20
594.981	1	19
595.320	1	27
595.660	1	34
595.999	1	24
596.339	1	38
596.678	1	33
597.018	1	24
597.358	1	39
597.697	1	28
598.037	1	23
598.376	1	39
598.716	1	49
599.055	1	34
599.395	1	37
599.734	1	33
600.074	1	38
600.413	1	35
600.753	1	35
601.092	1	40
601.432	1	26
601.771	1	35
602.111	1	37
602.451	1	36
602.790	1	31
603.130	1	39
603.469	1	28
603.809	1	27
604.148	1	35
604.487	1	31
604.827	1	39
605.166	1	38
605.506	1	35
605.845	1	35
606.185	1	43
606.524	1	30
606.864	1	36
607.203	1	36
607.543	1	33
607.882	1	45
608.222	1	38
608.561	1	32
608.901	1	37
609.240	1	30
609.579	1	38
609.919	1	33
610.258	1	39
610.598	1	29
610.937	1	33
611.277	1	29
611.616	1	29
611.955	1	33
612.295	1	23
612.634	1	31
612.974	1	26
613.313	1	26
613.652	1	29
613.992	1	29
614.331	1	29
614.671	1	33
615.010	1	21
615.349	1	42
615.689	1	34
616.028	1	25
616.368	1	30
616.707	1	33
617.046	1	38
617.386	1	27
617.725	1	32
618.064	1	27
618.404	1	22
618.743	1	27
619.082	1	22
619.422	1	14
619.761	1	27
620.100	1	31
620.440	1	24
620.779	1	19
621.118	1	20
621.458	1	24
621.797	1	27
622.136	1	45
622.476	1	21
622.815	1	38
623.154	1	34
623.494	1	30
623.833	1	33
624.172	1	27
624.511	1	20
624.851	1	22
625.190	1	30
625.529	1	20
625.869	1	36
626.208	1	31
626.547	1	30
626.886	1	29
627.226	1	23
627.565	1	26
627.904	1	25
628.243	1	20
628.583	1	26
628.922	1	31
629.261	1	36
629.600	1	34
629.940	1	18
630.279	1	18
630.618	1	32
630.957	1	28
631.297	1	16
631.636	1	9
631.975	1	42
632.314	1	27
632.653	1	30
632.993	1	10
633.332	1	26
633.671	1	22
634.010	1	15
634.349	1	30
634.689	1	28
635.028	1	19
635.367	1	11
635.706	1	27
636.045	1	27
636.384	1	29
636.724	1	20
637.063	1	25
637.402	1	14
637.741	1	19
638.080	1	13
638.419	1	2
638.759	1	6
639.098	1	22
639.437	1	20
639.776	1	17
640.115	1	15
640.454	1	17
640.793	1	34
641.132	1	26
641.472	1	23
641.811	1	10
642.150	1	13
642.489	1	17
642.828	1	20
643.167	1	21
643.506	1	6
643.845	1	22
644.184	1	21
644.524	1	15
644.863	1	11
645.202	1	7
645.541	1	20
645.880	1	15
646.219	1	17
646.558	1	19
646.897	1	16
647.236	1	19
647.575	1	22
647.914	1	21
648.253	1	23
648.592	1	10
648.931	1	29
649.270	1	14
649.610	1	6
649.949	1	15
650.288	1	19
650.627	1	21
650.966	1	22
651.305	1	24
651.644	1	22
651.983	1	8
652.322	1	17
652.661	1	5
653.000	1	21
653.339	1	10
653.678	1	4
654.017	1	20
654.356	1	18
654.695	1	24
655.034	1	18
655.373	1	18
655.712	1	19
656.051	1	13
656.390	1	13
656.729	1	21
657.068	1	10
657.406	1	11
657.745	1	5
658.084	1	24
658.423	1	18
658.762	1	24
659.101	1	18
659.440	1	13
659.779	1	12
660.118	1	19
660.457	1	13
660.796	1	8
661.135	1	10
661.474	1	3
661.813	1	33
662.152	1	22
662.491	1	4
662.829	1	6
663.168	1	9
663.507	1	16
663.846	1	7
664.185	1	18
664.524	1	17
664.863	1	8
665.202	1	22
665.541	1	3
665.879	1	13
666.218	1	6
666.557	1	16
666.896	1	3
667.235	1	12
667.574	1	10
667.913	1	14
668.251	1	14
668.590	1	17
668.929	1	-2
669.268	1	9
669.607	1	4
669.946	1	10
670.285	1	18
670.623	1	10
670.962	1	16
671.301	1	17
671.640	1	18
671.979	1	-1
672.317	1	24
672.656	1	5
672.995	1	24
673.334	1	12
673.673	1	18
674.011	1	9
674.350	1	19
674.689	1	15
675.028	1	11
675.367	1	25
675.705	1	14
676.044	1	10
676.383	1	12
676.722	1	14
677.060	1	1
677.399	1	3
677.738	1	22
678.077	1	15
678.416	1	13
678.754	1	12
679.093	1	24
679.432	1	15
679.771	1	9
680.109	1	22
680.448	1	15
680.787	1	6
681.125	1	15
681.464	1	17
681.803	1	14
682.142	1	14
682.480	1	17
682.819	1	10
683.158	1	7
683.496	1	12
683.835	1	11
684.174	1	8
684.512	1	18
684.851	1	15
685.190	1	7
685.529	1	7
685.867	1	8
686.206	1	6
686.545	1	20
686.883	1	7
687.222	1	18
687.561	1	22
687.899	1	3
688.238	1	10
688.577	1	16
688.746	1	4