File: Data/GaN_200K_800ms/GaN_sample F_spot 12_UVVIS_200 K_200um_800 ms 2x2mm1_489.txt
340.368	1	10
340.710	1	-13
341.052	1	9
341.394	1	-4
341.737	1	3
342.079	1	-7
342.421	1	-5
342.763	1	1
343.105	1	3
343.447	1	-13
343.789	1	-11
344.131	1	-2
344.473	1	-4
344.815	1	-5
345.157	1	5
345.499	1	0
345.841	1	4
346.183	1	-5
346.526	1	-9
346.868	1	2
347.210	1	-10
347.552	1	-8
347.894	1	-7
348.236	1	-1
348.578	1	-4
348.920	1	-4
349.262	1	-12
349.604	1	-1
349.946	1	-5
350.288	1	6
350.630	1	-5
350.972	1	-4
351.314	1	3
351.656	1	8
351.998	1	9
352.340	1	4
352.682	1	1
353.024	1	6
353.366	1	12
353.708	1	1
354.050	1	-11
354.392	1	-10
354.734	1	2
355.076	1	6
355.418	1	-10
355.760	1	-1
356.102	1	9
356.444	1	7
356.785	1	7
357.127	1	3
357.469	1	-3
357.811	1	2
358.153	1	6
358.495	1	2
358.837	1	-8
359.179	1	-3
359.521	1	3
359.863	1	-2
360.205	1	-4
360.547	1	2
360.889	1	-8
361.231	1	-8
361.572	1	0
361.914	1	-1
362.256	1	7
362.598	1	-3
362.940	1	1
363.282	1	5
363.624	1	-4
363.966	1	3
364.308	1	5
364.649	1	4
364.991	1	6
365.333	1	6
365.675	1	-4
366.017	1	3
366.359	1	10
366.701	1	9
367.042	1	7
367.384	1	13
367.726	1	9
368.068	1	11
368.410	1	18
368.752	1	-9
369.093	1	0
369.435	1	8
369.777	1	11
370.119	1	6
370.461	1	13
370.803	1	6
371.144	1	12
371.486	1	9
371.828	1	15
372.170	1	13
372.512	1	1
372.853	1	10
373.195	1	3
373.537	1	4
373.879	1	8
374.220	1	12
374.562	1	10
374.904	1	5
375.246	1	5
375.588	1	0
375.929	1	8
376.271	1	1
376.613	1	-2
376.955	1	-1
377.296	1	0
377.638	1	1
377.980	1	2
378.321	1	-1
378.663	1	0
379.005	1	7
379.347	1	7
379.688	1	11
380.030	1	1
380.372	1	0
380.714	1	5
381.055	1	9
381.397	1	-2
381.739	1	10
382.080	1	1
382.422	1	-2
382.764	1	-7
383.105	1	-2
383.447	1	-3
383.789	1	-9
384.130	1	-6
384.472	1	0
384.814	1	-1
385.156	1	1
385.497	1	-2
385.839	1	5
386.180	1	-2
386.522	1	4
386.864	1	3
387.205	1	-4
387.547	1	-8
387.889	1	-7
388.230	1	-2
388.572	1	-12
388.914	1	0
389.255	1	-3
389.597	1	17
389.939	1	-2
390.280	1	-1
390.622	1	1
390.963	1	9
391.305	1	2
391.647	1	-2
391.988	1	2
392.330	1	4
392.671	1	-4
393.013	1	-3
393.355	1	10
393.696	1	3
394.038	1	-7
394.379	1	9
394.721	1	0
395.062	1	8
395.404	1	-9
395.746	1	6
396.087	1	-4
396.429	1	-3
396.770	1	-5
397.112	1	0
397.453	1	2
397.795	1	1
398.136	1	-13
398.478	1	4
398.819	1	-4
399.161	1	17
399.503	1	6
399.844	1	4
400.186	1	-4
400.527	1	-4
400.869	1	-1
401.210	1	-6
401.552	1	-5
401.893	1	-1
402.235	1	0
402.576	1	-1
402.918	1	7
403.259	1	8
403.601	1	-3
403.942	1	12
404.284	1	3
404.625	1	9
404.967	1	3
405.308	1	-5
405.649	1	0
405.991	1	-4
406.332	1	1
406.674	1	-6
407.015	1	1
407.357	1	0
407.698	1	12
408.040	1	-5
408.381	1	2
408.722	1	-10
409.064	1	-2
409.405	1	5
409.747	1	-3
410.088	1	-1
410.430	1	1
410.771	1	8
411.112	1	6
411.454	1	-6
411.795	1	-5
412.137	1	3
412.478	1	4
412.819	1	-7
413.161	1	-3
413.502	1	1
413.844	1	-7
414.185	1	3
414.526	1	0
414.868	1	-5
415.209	1	-3
415.550	1	-8
415.892	1	-11
416.233	1	1
416.575	1	12
416.916	1	-3
417.257	1	-11
417.599	1	1
417.940	1	1
418.281	1	3
418.623	1	-7
418.964	1	-11
419.305	1	-1
419.647	1	-6
419.988	1	1
420.329	1	-6
420.671	1	-4
421.012	1	-8
421.353	1	-2
421.695	1	-6
422.036	1	2
422.377	1	-5
422.718	1	-6
423.060	1	-4
423.401	1	-10
423.742	1	-2
424.084	1	0
424.425	1	6
424.766	1	-5
425.107	1	-7
425.449	1	8
425.790	1	-5
426.131	1	-6
426.472	1	3
426.814	1	3
427.155	1	-3
427.496	1	-4
427.837	1	0
428.179	1	-10
428.520	1	3
428.861	1	-5
429.202	1	0
429.544	1	-3
429.885	1	-2
430.226	1	-9
430.567	1	4
430.909	1	-4
431.250	1	-7
431.591	1	4
431.932	1	-6
432.273	1	-11
432.615	1	-12
432.956	1	-17
433.297	1	3
433.638	1	-6
433.979	1	2
434.320	1	4
434.662	1	5
435.003	1	-2
435.344	1	2
435.685	1	1
436.026	1	9
436.368	1	-2
436.709	1	2
437.050	1	-3
437.391	1	12
437.732	1	-3
438.073	1	-1
438.414	1	-12
438.756	1	-9
439.097	1	-5
439.438	1	-7
439.779	1	-4
440.120	1	0
440.461	1	1
440.802	1	-5
441.143	1	8
441.485	1	-1
441.826	1	2
442.167	1	0
442.508	1	-7
442.849	1	7
443.190	1	3
443.531	1	6
443.872	1	10
444.213	1	2
444.554	1	15
444.895	1	-4
445.237	1	-6
445.578	1	-9
445.919	1	-1
446.260	1	-11
446.601	1	-7
446.942	1	-5
447.283	1	-1
447.624	1	-4
447.965	1	-4
448.306	1	-3
448.647	1	-2
448.988	1	-5
449.329	1	-6
449.670	1	-5
450.011	1	2
450.352	1	-8
450.693	1	-5
451.034	1	2
451.375	1	8
451.716	1	-8
452.057	1	-4
452.398	1	5
452.739	1	3
453.080	1	5
453.421	1	-3
453.762	1	5
454.103	1	-1
454.444	1	-5
454.785	1	-2
455.126	1	-2
455.467	1	-2
455.808	1	-5
456.149	1	-4
456.490	1	-11
456.831	1	0
457.172	1	-7
457.513	1	5
457.854	1	1
458.195	1	-6
458.536	1	2
458.877	1	3
459.218	1	0
459.559	1	5
459.899	1	2
460.240	1	8
460.581	1	15
460.922	1	5
461.263	1	-14
461.604	1	-9
461.945	1	1
462.286	1	1
462.627	1	7
462.968	1	0
463.309	1	-9
463.649	1	-4
463.990	1	-10
464.331	1	-9
464.672	1	-6
465.013	1	-1
465.354	1	-11
465.695	1	-6
466.036	1	-8
466.376	1	-8
466.717	1	0
467.058	1	1
467.399	1	4
467.740	1	-3
468.081	1	-4
468.422	1	4
468.762	1	-6
469.103	1	3
469.444	1	-15
469.785	1	-16
470.126	1	-8
470.467	1	-5
470.807	1	-2
471.148	1	-9
471.489	1	0
471.830	1	-4
472.171	1	-3
472.511	1	-5
472.852	1	-8
473.193	1	2
473.534	1	3
473.875	1	4
474.215	1	18
474.556	1	-2
474.897	1	0
475.238	1	1
475.578	1	-11
475.919	1	0
476.260	1	1
476.601	1	6
476.942	1	7
477.282	1	-4
477.623	1	-2
477.964	1	-3
478.305	1	2
478.645	1	9
478.986	1	3
479.327	1	-11
479.667	1	-6
480.008	1	-4
480.349	1	-3
480.690	1	0
481.030	1	-4
481.371	1	7
481.712	1	9
482.053	1	-4
482.393	1	-3
482.734	1	-10
483.075	1	-12
483.415	1	-5
483.756	1	3
484.097	1	-1
484.437	1	-2
484.778	1	5
485.119	1	3
485.459	1	12
485.800	1	-4
486.141	1	-6
486.481	1	9
486.822	1	4
487.163	1	-7
487.503	1	-4
487.844	1	-3
488.185	1	-4
488.525	1	6
488.866	1	-1
489.207	1	-3
489.547	1	1
489.888	1	-8
490.228	1	-2
490.569	1	5
490.910	1	-7
491.250	1	-2
491.591	1	-4
491.932	1	-2
492.272	1	2
492.613	1	0
492.953	1	7
493.294	1	-8
493.635	1	-6
493.975	1	-3
494.316	1	-6
494.656	1	-4
494.997	1	0
495.337	1	2
495.678	1	-2
496.019	1	-3
496.359	1	-6
496.700	1	0
497.040	1	-3
497.381	1	-9
497.721	1	0
498.062	1	3
498.403	1	-1
498.743	1	-2
499.084	1	1
499.424	1	-7
499.765	1	-4
500.105	1	-12
500.446	1	-9
500.786	1	1
501.127	1	-5
501.467	1	-13
501.808	1	-3
502.148	1	3
502.489	1	-1
502.829	1	-1
503.170	1	4
503.510	1	1
503.851	1	-5
504.191	1	1
504.532	1	4
504.872	1	-3
505.213	1	7
505.553	1	-5
505.894	1	-9
506.234	1	5
506.575	1	-5
506.915	1	5
507.256	1	1
507.596	1	-1
507.936	1	1
508.277	1	-1
508.617	1	-3
508.958	1	-14
509.298	1	8
509.639	1	-9
509.979	1	-3
510.319	1	-4
510.660	1	-1
511.000	1	-9
511.341	1	-5
511.681	1	4
512.022	1	0
512.362	1	-6
512.702	1	-1
513.043	1	8
513.383	1	-7
513.724	1	8
514.064	1	6
514.404	1	-5
514.745	1	-4
515.085	1	-1
515.425	1	-7
515.766	1	-16
516.106	1	-3
516.447	1	10
516.787	1	-2
517.127	1	-5
517.468	1	-6
517.808	1	-6
518.148	1	4
518.489	1	-8
518.829	1	3
519.169	1	1
519.510	1	2
519.850	1	8
520.190	1	-3
520.531	1	1
520.871	1	3
521.211	1	-6
521.552	1	-4
521.892	1	1
522.232	1	-5
522.573	1	-7
522.913	1	11
523.253	1	-8
523.593	1	-4
523.934	1	-1
524.274	1	-1
524.614	1	7
524.955	1	-6
525.295	1	-8
525.635	1	-4
525.975	1	-5
526.316	1	12
526.656	1	4
526.996	1	8
527.337	1	0
527.677	1	5
528.017	1	-12
528.357	1	0
528.698	1	-3
529.038	1	1
529.378	1	-6
529.718	1	0
530.058	1	-3
530.399	1	13
530.739	1	-1
531.079	1	9
531.419	1	11
531.760	1	2
532.100	1	5
532.440	1	0
532.780	1	-5
533.120	1	12
533.461	1	2
533.801	1	8
534.141	1	-11
534.481	1	-12
534.821	1	7
535.162	1	3
535.502	1	-5
535.842	1	7
536.182	1	-2
536.522	1	-3
536.862	1	9
537.203	1	-9
537.543	1	4
537.883	1	4
538.223	1	0
538.563	1	5
538.903	1	-10
539.243	1	-4
539.584	1	-5
539.924	1	11
540.264	1	2
540.604	1	5
540.944	1	-10
541.284	1	5
541.624	1	0
541.964	1	4
542.305	1	4
542.645	1	0
542.985	1	8
543.325	1	2
543.665	1	11
544.005	1	-3
544.345	1	7
544.685	1	2
545.025	1	-5
545.365	1	-5
545.705	1	-4
546.045	1	-4
546.386	1	8
546.726	1	1
547.066	1	1
547.406	1	7
547.746	1	-17
548.086	1	7
548.426	1	-9
548.766	1	3
549.106	1	2
549.446	1	-6
549.786	1	-5
550.126	1	21
550.466	1	-9
550.806	1	-5
551.146	1	-4
551.486	1	0
551.826	1	5
552.166	1	4
552.506	1	3
552.846	1	9
553.186	1	4
553.526	1	-2
553.866	1	-6
554.206	1	3
554.546	1	3
554.886	1	0
555.226	1	-9
555.566	1	-3
555.906	1	-5
556.246	1	3
556.586	1	5
556.926	1	-5
557.266	1	-10
557.606	1	7
557.946	1	7
558.286	1	3
558.626	1	4
558.966	1	1
559.306	1	-7
559.646	1	-5
559.986	1	-5
560.325	1	3
560.665	1	-4
561.005	1	-9
561.345	1	-2
561.685	1	4
562.025	1	6
562.365	1	0
562.705	1	0
563.045	1	-9
563.385	1	-7
563.725	1	4
564.064	1	-1
564.404	1	7
564.744	1	-1
565.084	1	-5
565.424	1	-9
565.764	1	-4
566.104	1	-4
566.444	1	-1
566.783	1	-7
567.123	1	-3
567.463	1	6
567.803	1	-8
568.143	1	-5
568.483	1	1
568.823	1	5
569.162	1	9
569.502	1	-7
569.842	1	4
570.182	1	-1
570.522	1	-9
570.862	1	-4
571.201	1	-1
571.541	1	0
571.881	1	12
572.221	1	-2
572.561	1	-11
572.900	1	-2
573.240	1	-6
573.580	1	2
573.920	1	5
574.260	1	5
574.599	1	9
574.939	1	4
575.279	1	3
575.619	1	-5
575.959	1	-1
576.298	1	3
576.638	1	-8
576.978	1	10
577.318	1	3
577.657	1	-4
577.997	1	-8
578.337	1	5
578.677	1	0
579.016	1	5
579.356	1	-3
579.696	1	5
580.036	1	4
580.375	1	5
580.715	1	-3
581.055	1	-3
581.394	1	1
581.734	1	-2
582.074	1	-8
582.414	1	9
582.753	1	-9
583.093	1	2
583.433	1	1
583.772	1	6
584.112	1	-3
584.452	1	0
584.791	1	-11
585.131	1	-3
585.471	1	7
585.811	1	3
586.150	1	0
586.490	1	5
586.830	1	-9
587.169	1	8
587.509	1	-3
587.849	1	0
588.188	1	5
588.528	1	1
588.867	1	-1
589.207	1	3
589.547	1	3
589.886	1	-2
590.226	1	6
590.566	1	1
590.905	1	-2
591.245	1	0
591.585	1	3
591.924	1	6
592.264	1	9
592.603	1	-7
592.943	1	-6
593.283	1	-7
593.622	1	2
593.962	1	9
594.301	1	10
594.641	1	-11
594.981	1	-7
595.320	1	-1
595.660	1	3
595.999	1	-5
596.339	1	11
596.678	1	-4
597.018	1	-3
597.358	1	0
597.697	1	2
598.037	1	0
598.376	1	5
598.716	1	-2
599.055	1	6
599.395	1	-5
599.734	1	-4
600.074	1	0
600.413	1	10
600.753	1	8
601.092	1	14
601.432	1	-13
601.771	1	4
602.111	1	4
602.451	1	9
602.790	1	-5
603.130	1	2
603.469	1	-10
603.809	1	-7
604.148	1	5
604.487	1	-12
604.827	1	-3
605.166	1	2
605.506	1	7
605.845	1	-3
606.185	1	6
606.524	1	-3
606.864	1	-5
607.203	1	9
607.543	1	-6
607.882	1	4
608.222	1	1
608.561	1	-5
608.901	1	0
609.240	1	-4
609.579	1	6
609.919	1	2
610.258	1	13
610.598	1	-9
610.937	1	7
611.277	1	-2
611.616	1	-3
611.955	1	-2
612.295	1	-10
612.634	1	-2
612.974	1	-8
613.313	1	3
613.652	1	-1
613.992	1	-5
614.331	1	1
614.671	1	8
615.010	1	1
615.349	1	10
615.689	1	2
616.028	1	-2
616.368	1	-3
616.707	1	-4
617.046	1	-14
617.386	1	5
617.725	1	-4
618.064	1	-3
618.404	1	-1
618.743	1	10
619.082	1	-6
619.422	1	-15
619.761	1	1
620.100	1	9
620.440	1	0
620.779	1	-15
621.118	1	-3
621.458	1	-2
621.797	1	-9
622.136	1	14
622.476	1	3
622.815	1	14
623.154	1	-1
623.494	1	-3
623.833	1	2
624.172	1	3
624.511	1	2
624.851	1	-4
625.190	1	2
625.529	1	-7
625.869	1	0
626.208	1	4
626.547	1	-4
626.886	1	5
627.226	1	1
627.565	1	-7
627.904	1	3
628.243	1	10
628.583	1	-8
628.922	1	7
629.261	1	4
629.600	1	4
629.940	1	5
630.279	1	0
630.618	1	-2
630.957	1	6
631.297	1	1
631.636	1	-11
631.975	1	6
632.314	1	-10
632.653	1	3
632.993	1	-8
633.332	1	1
633.671	1	-9
634.010	1	-1
634.349	1	3
634.689	1	6
635.028	1	0
635.367	1	-3
635.706	1	-3
636.045	1	8
636.384	1	2
636.724	1	2
637.063	1	3
637.402	1	2
637.741	1	7
638.080	1	0
638.419	1	-5
638.759	1	-9
639.098	1	4
639.437	1	-9
639.776	1	-2
640.115	1	-3
640.454	1	-1
640.793	1	7
641.132	1	0
641.472	1	6
641.811	1	4
642.150	1	-16
642.489	1	3
642.828	1	1
643.167	1	-5
643.506	1	-2
643.845	1	-2
644.184	1	7
644.524	1	-3
644.863	1	-6
645.202	1	2
645.541	1	-2
645.880	1	-5
646.219	1	0
646.558	1	5
646.897	1	-2
647.236	1	-5
647.575	1	5
647.914	1	-6
648.253	1	4
648.592	1	-3
648.931	1	15
649.270	1	-2
649.610	1	3
649.949	1	-8
650.288	1	-3
650.627	1	0
650.966	1	7
651.305	1	-4
651.644	1	16
651.983	1	6
652.322	1	-10
652.661	1	5
653.000	1	0
653.339	1	7
653.678	1	-4
654.017	1	-3
654.356	1	2
654.695	1	3
655.034	1	2
655.373	1	16
655.712	1	0
656.051	1	-3
656.390	1	-12
656.729	1	9
657.068	1	9
657.406	1	6
657.745	1	0
658.084	1	1
658.423	1	1
658.762	1	0
659.101	1	7
659.440	1	1
659.779	1	4
660.118	1	-4
660.457	1	-4
660.796	1	-1
661.135	1	-5
661.474	1	-9
661.813	1	12
662.152	1	-2
662.491	1	-11
662.829	1	-1
663.168	1	-5
663.507	1	7
663.846	1	-5
664.185	1	-3
664.524	1	-3
664.863	1	-1
665.202	1	6
665.541	1	-17
665.879	1	-10
666.218	1	-4
666.557	1	-6
666.896	1	-7
667.235	1	2
667.574	1	2
667.913	1	-5
668.251	1	3
668.590	1	3
668.929	1	-4
669.268	1	-10
669.607	1	-8
669.946	1	1
670.285	1	-2
670.623	1	3
670.962	1	-3
671.301	1	-7
671.640	1	-4
671.979	1	-7
672.317	1	-7
672.656	1	3
672.995	1	1
673.334	1	-10
673.673	1	6
674.011	1	-1
674.350	1	1
674.689	1	-3
675.028	1	-1
675.367	1	1
675.705	1	-1
676.044	1	3
676.383	1	3
676.722	1	4
677.060	1	0
677.399	1	-4
677.738	1	7
678.077	1	6
678.416	1	7
678.754	1	0
679.093	1	1
679.432	1	-6
679.771	1	-1
680.109	1	11
680.448	1	7
680.787	1	0
681.125	1	4
681.464	1	-3
681.803	1	0
682.142	1	3
682.480	1	7
682.819	1	-1
683.158	1	-12
683.496	1	4
683.835	1	6
684.174	1	-2
684.512	1	2
684.851	1	3
685.190	1	-2
685.529	1	0
685.867	1	-3
686.206	1	-5
686.545	1	-4
686.883	1	-1
687.222	1	2
687.561	1	3
687.899	1	-5
688.238	1	4
688.577	1	-8
688.746	1	-2