File: Data/GaN_200K_800ms/GaN_sample F_spot 12_UVVIS_200 K_200um_800 ms 2x2mm1_39.txt
340.368	1	9
340.710	1	5
341.052	1	9
341.394	1	8
341.737	1	9
342.079	1	5
342.421	1	3
342.763	1	3
343.105	1	12
343.447	1	-3
343.789	1	11
344.131	1	7
344.473	1	6
344.815	1	-2
345.157	1	11
345.499	1	12
345.841	1	17
346.183	1	7
346.526	1	9
346.868	1	14
347.210	1	4
347.552	1	13
347.894	1	12
348.236	1	19
348.578	1	10
348.920	1	2
349.262	1	9
349.604	1	16
349.946	1	5
350.288	1	19
350.630	1	17
350.972	1	12
351.314	1	23
351.656	1	13
351.998	1	18
352.340	1	28
352.682	1	21
353.024	1	21
353.366	1	35
353.708	1	23
354.050	1	25
354.392	1	28
354.734	1	29
355.076	1	43
355.418	1	28
355.760	1	38
356.102	1	50
356.444	1	54
356.785	1	49
357.127	1	56
357.469	1	66
357.811	1	63
358.153	1	68
358.495	1	66
358.837	1	65
359.179	1	83
359.521	1	101
359.863	1	115
360.205	1	110
360.547	1	130
360.889	1	147
361.231	1	168
361.572	1	199
361.914	1	217
362.256	1	245
362.598	1	257
362.940	1	278
363.282	1	327
363.624	1	388
363.966	1	425
364.308	1	482
364.649	1	547
364.991	1	644
365.333	1	721
365.675	1	801
366.017	1	915
366.359	1	999
366.701	1	1134
367.042	1	1270
367.384	1	1399
367.726	1	1517
368.068	1	1645
368.410	1	1762
368.752	1	1796
369.093	1	1860
369.435	1	1924
369.777	1	1947
370.119	1	1928
370.461	1	1891
370.803	1	1810
371.144	1	1752
371.486	1	1692
371.828	1	1608
372.170	1	1517
372.512	1	1395
372.853	1	1308
373.195	1	1232
373.537	1	1169
373.879	1	1112
374.220	1	1050
374.562	1	980
374.904	1	959
375.246	1	862
375.588	1	836
375.929	1	778
376.271	1	747
376.613	1	679
376.955	1	636
377.296	1	621
377.638	1	578
377.980	1	541
378.321	1	495
378.663	1	486
379.005	1	443
379.347	1	416
379.688	1	398
380.030	1	373
380.372	1	342
380.714	1	335
381.055	1	311
381.397	1	301
381.739	1	285
382.080	1	267
382.422	1	272
382.764	1	244
383.105	1	233
383.447	1	232
383.789	1	205
384.130	1	213
384.472	1	199
384.814	1	201
385.156	1	186
385.497	1	200
385.839	1	185
386.180	1	170
386.522	1	193
386.864	1	169
387.205	1	156
387.547	1	147
387.889	1	148
388.230	1	125
388.572	1	114
388.914	1	123
389.255	1	118
389.597	1	107
389.939	1	106
390.280	1	106
390.622	1	104
390.963	1	112
391.305	1	102
391.647	1	89
391.988	1	101
392.330	1	95
392.671	1	89
393.013	1	89
393.355	1	76
393.696	1	80
394.038	1	77
394.379	1	75
394.721	1	55
395.062	1	63
395.404	1	62
395.746	1	68
396.087	1	49
396.429	1	68
396.770	1	57
397.112	1	58
397.453	1	64
397.795	1	55
398.136	1	42
398.478	1	52
398.819	1	44
399.161	1	70
399.503	1	54
399.844	1	55
400.186	1	51
400.527	1	48
400.869	1	44
401.210	1	48
401.552	1	28
401.893	1	42
402.235	1	37
402.576	1	38
402.918	1	45
403.259	1	31
403.601	1	37
403.942	1	50
404.284	1	34
404.625	1	39
404.967	1	37
405.308	1	41
405.649	1	35
405.991	1	33
406.332	1	46
406.674	1	25
407.015	1	30
407.357	1	38
407.698	1	28
408.040	1	27
408.381	1	33
408.722	1	23
409.064	1	19
409.405	1	36
409.747	1	34
410.088	1	15
410.430	1	35
410.771	1	29
411.112	1	26
411.454	1	17
411.795	1	26
412.137	1	28
412.478	1	34
412.819	1	29
413.161	1	26
413.502	1	20
413.844	1	29
414.185	1	24
414.526	1	14
414.868	1	10
415.209	1	20
415.550	1	17
415.892	1	21
416.233	1	18
416.575	1	27
416.916	1	19
417.257	1	22
417.599	1	21
417.940	1	17
418.281	1	22
418.623	1	19
418.964	1	0
419.305	1	26
419.647	1	13
419.988	1	12
420.329	1	12
420.671	1	26
421.012	1	19
421.353	1	13
421.695	1	16
422.036	1	7
422.377	1	5
422.718	1	19
423.060	1	7
423.401	1	12
423.742	1	15
424.084	1	14
424.425	1	18
424.766	1	10
425.107	1	4
425.449	1	22
425.790	1	0
426.131	1	13
426.472	1	22
426.814	1	20
427.155	1	13
427.496	1	15
427.837	1	5
428.179	1	13
428.520	1	10
428.861	1	19
429.202	1	14
429.544	1	7
429.885	1	9
430.226	1	8
430.567	1	17
430.909	1	17
431.250	1	15
431.591	1	22
431.932	1	5
432.273	1	10
432.615	1	0
432.956	1	1
433.297	1	14
433.638	1	7
433.979	1	14
434.320	1	13
434.662	1	17
435.003	1	11
435.344	1	19
435.685	1	16
436.026	1	15
436.368	1	20
436.709	1	14
437.050	1	10
437.391	1	25
437.732	1	11
438.073	1	7
438.414	1	13
438.756	1	8
439.097	1	2
439.438	1	15
439.779	1	16
440.120	1	11
440.461	1	15
440.802	1	8
441.143	1	20
441.485	1	11
441.826	1	13
442.167	1	16
442.508	1	0
442.849	1	24
443.190	1	16
443.531	1	23
443.872	1	17
444.213	1	11
444.554	1	24
444.895	1	7
445.237	1	10
445.578	1	-2
445.919	1	12
446.260	1	4
446.601	1	9
446.942	1	14
447.283	1	9
447.624	1	13
447.965	1	14
448.306	1	16
448.647	1	10
448.988	1	12
449.329	1	3
449.670	1	22
450.011	1	13
450.352	1	10
450.693	1	5
451.034	1	14
451.375	1	11
451.716	1	3
452.057	1	16
452.398	1	10
452.739	1	8
453.080	1	11
453.421	1	10
453.762	1	17
454.103	1	6
454.444	1	1
454.785	1	10
455.126	1	7
455.467	1	20
455.808	1	1
456.149	1	22
456.490	1	19
456.831	1	15
457.172	1	8
457.513	1	23
457.854	1	16
458.195	1	7
458.536	1	13
458.877	1	12
459.218	1	15
459.559	1	11
459.899	1	9
460.240	1	7
460.581	1	18
460.922	1	15
461.263	1	10
461.604	1	7
461.945	1	19
462.286	1	16
462.627	1	16
462.968	1	11
463.309	1	7
463.649	1	16
463.990	1	13
464.331	1	4
464.672	1	5
465.013	1	8
465.354	1	20
465.695	1	4
466.036	1	11
466.376	1	9
466.717	1	5
467.058	1	9
467.399	1	20
467.740	1	12
468.081	1	17
468.422	1	2
468.762	1	6
469.103	1	5
469.444	1	3
469.785	1	8
470.126	1	7
470.467	1	21
470.807	1	11
471.148	1	14
471.489	1	10
471.830	1	8
472.171	1	11
472.511	1	9
472.852	1	19
473.193	1	16
473.534	1	19
473.875	1	17
474.215	1	13
474.556	1	23
474.897	1	14
475.238	1	13
475.578	1	8
475.919	1	10
476.260	1	4
476.601	1	13
476.942	1	18
477.282	1	16
477.623	1	5
477.964	1	14
478.305	1	17
478.645	1	19
478.986	1	14
479.327	1	19
479.667	1	17
480.008	1	13
480.349	1	20
480.690	1	23
481.030	1	14
481.371	1	18
481.712	1	26
482.053	1	13
482.393	1	22
482.734	1	17
483.075	1	21
483.415	1	19
483.756	1	21
484.097	1	31
484.437	1	20
484.778	1	29
485.119	1	26
485.459	1	42
485.800	1	28
486.141	1	22
486.481	1	26
486.822	1	29
487.163	1	27
487.503	1	32
487.844	1	34
488.185	1	28
488.525	1	28
488.866	1	28
489.207	1	31
489.547	1	38
489.888	1	27
490.228	1	44
490.569	1	47
490.910	1	36
491.250	1	35
491.591	1	21
491.932	1	42
492.272	1	39
492.613	1	37
492.953	1	24
493.294	1	27
493.635	1	43
493.975	1	42
494.316	1	36
494.656	1	46
494.997	1	43
495.337	1	52
495.678	1	39
496.019	1	40
496.359	1	40
496.700	1	39
497.040	1	43
497.381	1	46
497.721	1	43
498.062	1	50
498.403	1	52
498.743	1	54
499.084	1	40
499.424	1	46
499.765	1	43
500.105	1	45
500.446	1	42
500.786	1	57
501.127	1	57
501.467	1	52
501.808	1	61
502.148	1	56
502.489	1	66
502.829	1	55
503.170	1	67
503.510	1	74
503.851	1	61
504.191	1	76
504.532	1	76
504.872	1	74
505.213	1	70
505.553	1	66
505.894	1	68
506.234	1	83
506.575	1	82
506.915	1	82
507.256	1	76
507.596	1	77
507.936	1	79
508.277	1	79
508.617	1	74
508.958	1	84
509.298	1	76
509.639	1	75
509.979	1	84
510.319	1	85
510.660	1	78
511.000	1	83
511.341	1	80
511.681	1	85
512.022	1	87
512.362	1	88
512.702	1	88
513.043	1	93
513.383	1	89
513.724	1	97
514.064	1	100
514.404	1	83
514.745	1	78
515.085	1	96
515.425	1	92
515.766	1	98
516.106	1	94
516.447	1	104
516.787	1	108
517.127	1	98
517.468	1	112
517.808	1	102
518.148	1	102
518.489	1	107
518.829	1	103
519.169	1	105
519.510	1	114
519.850	1	112
520.190	1	113
520.531	1	107
520.871	1	117
521.211	1	110
521.552	1	125
521.892	1	114
522.232	1	118
522.573	1	113
522.913	1	117
523.253	1	122
523.593	1	113
523.934	1	127
524.274	1	117
524.614	1	126
524.955	1	112
525.295	1	113
525.635	1	115
525.975	1	128
526.316	1	127
526.656	1	123
526.996	1	134
527.337	1	128
527.677	1	133
528.017	1	121
528.357	1	134
528.698	1	140
529.038	1	148
529.378	1	133
529.718	1	146
530.058	1	142
530.399	1	153
530.739	1	147
531.079	1	142
531.419	1	150
531.760	1	162
532.100	1	152
532.440	1	149
532.780	1	157
533.120	1	167
533.461	1	156
533.801	1	174
534.141	1	146
534.481	1	163
534.821	1	162
535.162	1	156
535.502	1	150
535.842	1	174
536.182	1	163
536.522	1	164
536.862	1	154
537.203	1	154
537.543	1	155
537.883	1	155
538.223	1	159
538.563	1	167
538.903	1	140
539.243	1	158
539.584	1	154
539.924	1	160
540.264	1	149
540.604	1	150
540.944	1	164
541.284	1	155
541.624	1	149
541.964	1	167
542.305	1	156
542.645	1	162
542.985	1	164
543.325	1	158
543.665	1	169
544.005	1	182
544.345	1	158
544.685	1	147
545.025	1	165
545.365	1	155
545.705	1	167
546.045	1	170
546.386	1	164
546.726	1	172
547.066	1	186
547.406	1	175
547.746	1	174
548.086	1	190
548.426	1	184
548.766	1	204
549.106	1	190
549.446	1	183
549.786	1	196
550.126	1	204
550.466	1	214
550.806	1	196
551.146	1	194
551.486	1	209
551.826	1	201
552.166	1	206
552.506	1	198
552.846	1	204
553.186	1	211
553.526	1	209
553.866	1	205
554.206	1	207
554.546	1	204
554.886	1	209
555.226	1	179
555.566	1	210
555.906	1	192
556.246	1	194
556.586	1	186
556.926	1	188
557.266	1	191
557.606	1	172
557.946	1	202
558.286	1	185
558.626	1	191
558.966	1	178
559.306	1	179
559.646	1	205
559.986	1	196
560.325	1	185
560.665	1	195
561.005	1	194
561.345	1	184
561.685	1	175
562.025	1	183
562.365	1	199
562.705	1	190
563.045	1	173
563.385	1	177
563.725	1	189
564.064	1	194
564.404	1	184
564.744	1	181
565.084	1	192
565.424	1	189
565.764	1	199
566.104	1	188
566.444	1	190
566.783	1	189
567.123	1	196
567.463	1	188
567.803	1	190
568.143	1	187
568.483	1	203
568.823	1	194
569.162	1	199
569.502	1	189
569.842	1	199
570.182	1	194
570.522	1	186
570.862	1	184
571.201	1	189
571.541	1	192
571.881	1	191
572.221	1	191
572.561	1	186
572.900	1	188
573.240	1	192
573.580	1	181
573.920	1	186
574.260	1	185
574.599	1	189
574.939	1	194
575.279	1	198
575.619	1	198
575.959	1	171
576.298	1	206
576.638	1	182
576.978	1	192
577.318	1	175
577.657	1	190
577.997	1	168
578.337	1	194
578.677	1	188
579.016	1	185
579.356	1	184
579.696	1	189
580.036	1	178
580.375	1	177
580.715	1	175
581.055	1	176
581.394	1	169
581.734	1	179
582.074	1	184
582.414	1	191
582.753	1	190
583.093	1	176
583.433	1	177
583.772	1	193
584.112	1	176
584.452	1	196
584.791	1	172
585.131	1	187
585.471	1	185
585.811	1	185
586.150	1	176
586.490	1	196
586.830	1	170
587.169	1	178
587.509	1	188
587.849	1	167
588.188	1	175
588.528	1	175
588.867	1	189
589.207	1	172
589.547	1	173
589.886	1	164
590.226	1	162
590.566	1	157
590.905	1	147
591.245	1	148
591.585	1	168
591.924	1	153
592.264	1	159
592.603	1	156
592.943	1	147
593.283	1	147
593.622	1	155
593.962	1	144
594.301	1	155
594.641	1	157
594.981	1	144
595.320	1	143
595.660	1	142
595.999	1	144
596.339	1	151
596.678	1	147
597.018	1	131
597.358	1	138
597.697	1	139
598.037	1	129
598.376	1	136
598.716	1	140
599.055	1	142
599.395	1	141
599.734	1	132
600.074	1	150
600.413	1	146
600.753	1	140
601.092	1	157
601.432	1	129
601.771	1	149
602.111	1	149
602.451	1	144
602.790	1	135
603.130	1	145
603.469	1	139
603.809	1	145
604.148	1	144
604.487	1	141
604.827	1	133
605.166	1	155
605.506	1	174
605.845	1	144
606.185	1	149
606.524	1	142
606.864	1	147
607.203	1	148
607.543	1	151
607.882	1	140
608.222	1	149
608.561	1	139
608.901	1	149
609.240	1	136
609.579	1	148
609.919	1	148
610.258	1	147
610.598	1	137
610.937	1	137
611.277	1	129
611.616	1	126
611.955	1	121
612.295	1	118
612.634	1	141
612.974	1	111
613.313	1	121
613.652	1	127
613.992	1	122
614.331	1	133
614.671	1	129
615.010	1	108
615.349	1	120
615.689	1	127
616.028	1	114
616.368	1	124
616.707	1	119
617.046	1	117
617.386	1	114
617.725	1	104
618.064	1	107
618.404	1	111
618.743	1	114
619.082	1	115
619.422	1	97
619.761	1	109
620.100	1	115
620.440	1	104
620.779	1	105
621.118	1	109
621.458	1	109
621.797	1	97
622.136	1	111
622.476	1	112
622.815	1	101
623.154	1	98
623.494	1	99
623.833	1	104
624.172	1	102
624.511	1	88
624.851	1	91
625.190	1	104
625.529	1	106
625.869	1	105
626.208	1	82
626.547	1	93
626.886	1	109
627.226	1	107
627.565	1	105
627.904	1	94
628.243	1	95
628.583	1	90
628.922	1	100
629.261	1	93
629.600	1	102
629.940	1	99
630.279	1	89
630.618	1	92
630.957	1	95
631.297	1	91
631.636	1	85
631.975	1	108
632.314	1	92
632.653	1	97
632.993	1	87
633.332	1	80
633.671	1	84
634.010	1	83
634.349	1	93
634.689	1	82
635.028	1	91
635.367	1	85
635.706	1	87
636.045	1	92
636.384	1	86
636.724	1	81
637.063	1	81
637.402	1	87
637.741	1	74
638.080	1	90
638.419	1	87
638.759	1	67
639.098	1	88
639.437	1	76
639.776	1	79
640.115	1	75
640.454	1	76
640.793	1	81
641.132	1	83
641.472	1	72
641.811	1	84
642.150	1	68
642.489	1	84
642.828	1	72
643.167	1	62
643.506	1	66
643.845	1	74
644.184	1	67
644.524	1	62
644.863	1	59
645.202	1	78
645.541	1	76
645.880	1	74
646.219	1	68
646.558	1	67
646.897	1	70
647.236	1	73
647.575	1	74
647.914	1	66
648.253	1	76
648.592	1	64
648.931	1	69
649.270	1	67
649.610	1	68
649.949	1	66
650.288	1	72
650.627	1	59
650.966	1	77
651.305	1	73
651.644	1	79
651.983	1	62
652.322	1	59
652.661	1	56
653.000	1	66
653.339	1	63
653.678	1	79
654.017	1	67
654.356	1	69
654.695	1	68
655.034	1	58
655.373	1	74
655.712	1	47
656.051	1	53
656.390	1	55
656.729	1	61
657.068	1	61
657.406	1	65
657.745	1	57
658.084	1	64
658.423	1	67
658.762	1	51
659.101	1	63
659.440	1	45
659.779	1	54
660.118	1	59
660.457	1	60
660.796	1	44
661.135	1	51
661.474	1	48
661.813	1	58
662.152	1	57
662.491	1	44
662.829	1	46
663.168	1	50
663.507	1	55
663.846	1	39
664.185	1	46
664.524	1	46
664.863	1	47
665.202	1	50
665.541	1	38
665.879	1	39
666.218	1	52
666.557	1	49
666.896	1	47
667.235	1	45
667.574	1	44
667.913	1	43
668.251	1	44
668.590	1	44
668.929	1	37
669.268	1	42
669.607	1	40
669.946	1	46
670.285	1	34
670.623	1	37
670.962	1	42
671.301	1	55
671.640	1	40
671.979	1	42
672.317	1	44
672.656	1	40
672.995	1	55
673.334	1	50
673.673	1	47
674.011	1	41
674.350	1	60
674.689	1	53
675.028	1	41
675.367	1	46
675.705	1	54
676.044	1	43
676.383	1	45
676.722	1	45
677.060	1	43
677.399	1	35
677.738	1	44
678.077	1	48
678.416	1	47
678.754	1	39
679.093	1	46
679.432	1	48
679.771	1	42
680.109	1	49
680.448	1	41
680.787	1	38
681.125	1	42
681.464	1	39
681.803	1	28
682.142	1	48
682.480	1	55
682.819	1	51
683.158	1	35
683.496	1	45
683.835	1	44
684.174	1	36
684.512	1	40
684.851	1	40
685.190	1	42
685.529	1	39
685.867	1	38
686.206	1	35
686.545	1	36
686.883	1	38
687.222	1	39
687.561	1	41
687.899	1	48
688.238	1	40
688.577	1	29
688.746	1	29