File: Data/GaN_200K_800ms/GaN_sample F_spot 12_UVVIS_200 K_200um_800 ms 2x2mm1_375.txt
340.368	1	6
340.710	1	-12
341.052	1	0
341.394	1	-10
341.737	1	-3
342.079	1	-4
342.421	1	-2
342.763	1	-1
343.105	1	1
343.447	1	-4
343.789	1	-4
344.131	1	-3
344.473	1	-1
344.815	1	-1
345.157	1	-6
345.499	1	-4
345.841	1	8
346.183	1	-8
346.526	1	-9
346.868	1	3
347.210	1	-9
347.552	1	-12
347.894	1	2
348.236	1	5
348.578	1	-2
348.920	1	2
349.262	1	-3
349.604	1	2
349.946	1	-4
350.288	1	7
350.630	1	1
350.972	1	1
351.314	1	4
351.656	1	-1
351.998	1	-2
352.340	1	3
352.682	1	9
353.024	1	3
353.366	1	12
353.708	1	0
354.050	1	-6
354.392	1	-16
354.734	1	-3
355.076	1	4
355.418	1	-15
355.760	1	-7
356.102	1	9
356.444	1	8
356.785	1	8
357.127	1	-7
357.469	1	-2
357.811	1	1
358.153	1	11
358.495	1	3
358.837	1	0
359.179	1	2
359.521	1	-1
359.863	1	-4
360.205	1	1
360.547	1	2
360.889	1	-6
361.231	1	-3
361.572	1	2
361.914	1	4
362.256	1	8
362.598	1	-10
362.940	1	-4
363.282	1	5
363.624	1	15
363.966	1	9
364.308	1	6
364.649	1	4
364.991	1	9
365.333	1	1
365.675	1	3
366.017	1	9
366.359	1	2
366.701	1	5
367.042	1	5
367.384	1	14
367.726	1	13
368.068	1	12
368.410	1	25
368.752	1	5
369.093	1	1
369.435	1	12
369.777	1	8
370.119	1	1
370.461	1	14
370.803	1	3
371.144	1	7
371.486	1	22
371.828	1	11
372.170	1	17
372.512	1	7
372.853	1	12
373.195	1	4
373.537	1	5
373.879	1	5
374.220	1	17
374.562	1	19
374.904	1	12
375.246	1	7
375.588	1	4
375.929	1	8
376.271	1	6
376.613	1	-3
376.955	1	-2
377.296	1	0
377.638	1	4
377.980	1	12
378.321	1	-2
378.663	1	-12
379.005	1	8
379.347	1	12
379.688	1	8
380.030	1	2
380.372	1	0
380.714	1	9
381.055	1	7
381.397	1	3
381.739	1	4
382.080	1	9
382.422	1	6
382.764	1	-4
383.105	1	-8
383.447	1	-5
383.789	1	-3
384.130	1	-2
384.472	1	1
384.814	1	-1
385.156	1	-6
385.497	1	3
385.839	1	-3
386.180	1	4
386.522	1	14
386.864	1	-4
387.205	1	-3
387.547	1	-1
387.889	1	0
388.230	1	17
388.572	1	-5
388.914	1	1
389.255	1	0
389.597	1	-1
389.939	1	1
390.280	1	2
390.622	1	-13
390.963	1	6
391.305	1	5
391.647	1	0
391.988	1	11
392.330	1	10
392.671	1	-3
393.013	1	6
393.355	1	2
393.696	1	-4
394.038	1	4
394.379	1	3
394.721	1	-3
395.062	1	1
395.404	1	-4
395.746	1	9
396.087	1	-7
396.429	1	1
396.770	1	-5
397.112	1	3
397.453	1	12
397.795	1	2
398.136	1	-3
398.478	1	-3
398.819	1	-4
399.161	1	9
399.503	1	-5
399.844	1	5
400.186	1	-6
400.527	1	3
400.869	1	0
401.210	1	0
401.552	1	-11
401.893	1	0
402.235	1	-2
402.576	1	-13
402.918	1	2
403.259	1	7
403.601	1	-2
403.942	1	9
404.284	1	6
404.625	1	-3
404.967	1	9
405.308	1	-1
405.649	1	1
405.991	1	-3
406.332	1	-1
406.674	1	-6
407.015	1	1
407.357	1	-1
407.698	1	7
408.040	1	-5
408.381	1	6
408.722	1	-17
409.064	1	-2
409.405	1	0
409.747	1	-3
410.088	1	-4
410.430	1	12
410.771	1	3
411.112	1	-1
411.454	1	-5
411.795	1	0
412.137	1	3
412.478	1	8
412.819	1	-2
413.161	1	-7
413.502	1	6
413.844	1	3
414.185	1	6
414.526	1	-2
414.868	1	1
415.209	1	8
415.550	1	-2
415.892	1	0
416.233	1	-3
416.575	1	8
416.916	1	-7
417.257	1	-2
417.599	1	0
417.940	1	2
418.281	1	1
418.623	1	-3
418.964	1	-11
419.305	1	7
419.647	1	4
419.988	1	-8
420.329	1	-10
420.671	1	-3
421.012	1	-3
421.353	1	-3
421.695	1	-9
422.036	1	5
422.377	1	-4
422.718	1	3
423.060	1	-2
423.401	1	-3
423.742	1	-5
424.084	1	1
424.425	1	6
424.766	1	-6
425.107	1	1
425.449	1	-2
425.790	1	-6
426.131	1	6
426.472	1	2
426.814	1	-3
427.155	1	-13
427.496	1	-4
427.837	1	-9
428.179	1	-5
428.520	1	1
428.861	1	-7
429.202	1	2
429.544	1	-1
429.885	1	5
430.226	1	-3
430.567	1	0
430.909	1	2
431.250	1	-6
431.591	1	9
431.932	1	-3
432.273	1	-5
432.615	1	-7
432.956	1	-9
433.297	1	5
433.638	1	-11
433.979	1	-7
434.320	1	-3
434.662	1	-6
435.003	1	1
435.344	1	5
435.685	1	-3
436.026	1	-2
436.368	1	4
436.709	1	2
437.050	1	-3
437.391	1	15
437.732	1	-10
438.073	1	-4
438.414	1	-9
438.756	1	-12
439.097	1	-10
439.438	1	-2
439.779	1	3
440.120	1	0
440.461	1	-2
440.802	1	-2
441.143	1	6
441.485	1	1
441.826	1	4
442.167	1	5
442.508	1	-8
442.849	1	13
443.190	1	4
443.531	1	10
443.872	1	4
444.213	1	2
444.554	1	5
444.895	1	-5
445.237	1	-10
445.578	1	-5
445.919	1	-9
446.260	1	-4
446.601	1	-13
446.942	1	2
447.283	1	5
447.624	1	5
447.965	1	3
448.306	1	1
448.647	1	-11
448.988	1	-7
449.329	1	3
449.670	1	5
450.011	1	-4
450.352	1	-4
450.693	1	-6
451.034	1	-12
451.375	1	-1
451.716	1	-2
452.057	1	-2
452.398	1	2
452.739	1	-3
453.080	1	0
453.421	1	9
453.762	1	0
454.103	1	-7
454.444	1	-18
454.785	1	-1
455.126	1	-5
455.467	1	-1
455.808	1	-2
456.149	1	0
456.490	1	-1
456.831	1	8
457.172	1	-5
457.513	1	1
457.854	1	7
458.195	1	-8
458.536	1	6
458.877	1	4
459.218	1	-11
459.559	1	3
459.899	1	-2
460.240	1	5
460.581	1	11
460.922	1	3
461.263	1	-1
461.604	1	-2
461.945	1	-1
462.286	1	1
462.627	1	2
462.968	1	-4
463.309	1	-12
463.649	1	5
463.990	1	-2
464.331	1	-6
464.672	1	-1
465.013	1	-5
465.354	1	5
465.695	1	-12
466.036	1	-1
466.376	1	-15
466.717	1	-8
467.058	1	-5
467.399	1	5
467.740	1	-2
468.081	1	3
468.422	1	-6
468.762	1	-8
469.103	1	-9
469.444	1	-4
469.785	1	-13
470.126	1	-1
470.467	1	-9
470.807	1	-1
471.148	1	5
471.489	1	1
471.830	1	-6
472.171	1	3
472.511	1	-2
472.852	1	-5
473.193	1	6
473.534	1	4
473.875	1	8
474.215	1	6
474.556	1	6
474.897	1	2
475.238	1	1
475.578	1	-15
475.919	1	3
476.260	1	-5
476.601	1	6
476.942	1	2
477.282	1	-9
477.623	1	-9
477.964	1	-8
478.305	1	-1
478.645	1	9
478.986	1	-2
479.327	1	-15
479.667	1	-3
480.008	1	-10
480.349	1	-6
480.690	1	5
481.030	1	-13
481.371	1	5
481.712	1	3
482.053	1	2
482.393	1	-3
482.734	1	-4
483.075	1	-4
483.415	1	11
483.756	1	2
484.097	1	4
484.437	1	-8
484.778	1	10
485.119	1	-7
485.459	1	14
485.800	1	-8
486.141	1	-4
486.481	1	3
486.822	1	3
487.163	1	-3
487.503	1	1
487.844	1	0
488.185	1	-1
488.525	1	1
488.866	1	-5
489.207	1	4
489.547	1	-11
489.888	1	-6
490.228	1	10
490.569	1	11
490.910	1	4
491.250	1	-6
491.591	1	-3
491.932	1	-7
492.272	1	4
492.613	1	2
492.953	1	-12
493.294	1	-1
493.635	1	-6
493.975	1	3
494.316	1	1
494.656	1	-2
494.997	1	-4
495.337	1	8
495.678	1	-2
496.019	1	1
496.359	1	-4
496.700	1	-2
497.040	1	-3
497.381	1	6
497.721	1	-3
498.062	1	0
498.403	1	4
498.743	1	1
499.084	1	1
499.424	1	2
499.765	1	-8
500.105	1	-8
500.446	1	-7
500.786	1	-11
501.127	1	-6
501.467	1	-3
501.808	1	5
502.148	1	-2
502.489	1	2
502.829	1	-6
503.170	1	5
503.510	1	12
503.851	1	1
504.191	1	4
504.532	1	0
504.872	1	-3
505.213	1	12
505.553	1	-7
505.894	1	-7
506.234	1	4
506.575	1	9
506.915	1	2
507.256	1	3
507.596	1	-8
507.936	1	4
508.277	1	0
508.617	1	2
508.958	1	-8
509.298	1	4
509.639	1	-9
509.979	1	-2
510.319	1	0
510.660	1	0
511.000	1	-4
511.341	1	1
511.681	1	4
512.022	1	-11
512.362	1	4
512.702	1	-1
513.043	1	10
513.383	1	-5
513.724	1	-2
514.064	1	10
514.404	1	-2
514.745	1	-8
515.085	1	-7
515.425	1	-9
515.766	1	0
516.106	1	-1
516.447	1	-1
516.787	1	10
517.127	1	-4
517.468	1	-4
517.808	1	-6
518.148	1	1
518.489	1	1
518.829	1	7
519.169	1	-1
519.510	1	-2
519.850	1	4
520.190	1	-5
520.531	1	8
520.871	1	8
521.211	1	-18
521.552	1	-2
521.892	1	2
522.232	1	7
522.573	1	-8
522.913	1	4
523.253	1	0
523.593	1	-6
523.934	1	-9
524.274	1	-6
524.614	1	-9
524.955	1	-12
525.295	1	5
525.635	1	4
525.975	1	-4
526.316	1	2
526.656	1	-3
526.996	1	8
527.337	1	-1
527.677	1	0
528.017	1	-12
528.357	1	-1
528.698	1	3
529.038	1	-10
529.378	1	-1
529.718	1	1
530.058	1	2
530.399	1	3
530.739	1	1
531.079	1	2
531.419	1	2
531.760	1	-3
532.100	1	-4
532.440	1	1
532.780	1	-12
533.120	1	5
533.461	1	5
533.801	1	5
534.141	1	-14
534.481	1	-7
534.821	1	5
535.162	1	-2
535.502	1	-2
535.842	1	1
536.182	1	-5
536.522	1	-2
536.862	1	8
537.203	1	-12
537.543	1	-6
537.883	1	-13
538.223	1	-4
538.563	1	3
538.903	1	-5
539.243	1	2
539.584	1	5
539.924	1	8
540.264	1	-1
540.604	1	1
540.944	1	-4
541.284	1	12
541.624	1	15
541.964	1	5
542.305	1	11
542.645	1	4
542.985	1	-5
543.325	1	1
543.665	1	-2
544.005	1	10
544.345	1	-3
544.685	1	-8
545.025	1	3
545.365	1	-4
545.705	1	4
546.045	1	-8
546.386	1	2
546.726	1	-10
547.066	1	0
547.406	1	-3
547.746	1	-14
548.086	1	-2
548.426	1	-6
548.766	1	8
549.106	1	-7
549.446	1	-3
549.786	1	-9
550.126	1	8
550.466	1	-4
550.806	1	-5
551.146	1	-6
551.486	1	-5
551.826	1	7
552.166	1	-11
552.506	1	5
552.846	1	1
553.186	1	2
553.526	1	-8
553.866	1	2
554.206	1	10
554.546	1	1
554.886	1	10
555.226	1	-14
555.566	1	9
555.906	1	10
556.246	1	9
556.586	1	0
556.926	1	-6
557.266	1	0
557.606	1	0
557.946	1	13
558.286	1	-2
558.626	1	-1
558.966	1	-6
559.306	1	-6
559.646	1	-9
559.986	1	-15
560.325	1	0
560.665	1	-4
561.005	1	-4
561.345	1	-7
561.685	1	-3
562.025	1	1
562.365	1	6
562.705	1	4
563.045	1	-5
563.385	1	-3
563.725	1	-4
564.064	1	2
564.404	1	0
564.744	1	9
565.084	1	-2
565.424	1	3
565.764	1	0
566.104	1	-3
566.444	1	-8
566.783	1	-6
567.123	1	-4
567.463	1	1
567.803	1	-9
568.143	1	4
568.483	1	5
568.823	1	4
569.162	1	-1
569.502	1	-3
569.842	1	-6
570.182	1	0
570.522	1	-5
570.862	1	-9
571.201	1	6
571.541	1	2
571.881	1	14
572.221	1	0
572.561	1	2
572.900	1	-14
573.240	1	1
573.580	1	-3
573.920	1	3
574.260	1	7
574.599	1	-5
574.939	1	7
575.279	1	6
575.619	1	6
575.959	1	-5
576.298	1	6
576.638	1	-5
576.978	1	6
577.318	1	2
577.657	1	3
577.997	1	-11
578.337	1	9
578.677	1	11
579.016	1	13
579.356	1	-2
579.696	1	5
580.036	1	-9
580.375	1	4
580.715	1	2
581.055	1	-8
581.394	1	-8
581.734	1	-5
582.074	1	-5
582.414	1	5
582.753	1	-7
583.093	1	-2
583.433	1	-3
583.772	1	-7
584.112	1	-4
584.452	1	2
584.791	1	-1
585.131	1	2
585.471	1	5
585.811	1	-1
586.150	1	-4
586.490	1	-2
586.830	1	-1
587.169	1	4
587.509	1	0
587.849	1	-4
588.188	1	9
588.528	1	0
588.867	1	9
589.207	1	7
589.547	1	-3
589.886	1	2
590.226	1	9
590.566	1	-3
590.905	1	-2
591.245	1	-1
591.585	1	9
591.924	1	-5
592.264	1	0
592.603	1	8
592.943	1	4
593.283	1	-8
593.622	1	-2
593.962	1	-1
594.301	1	9
594.641	1	-6
594.981	1	-7
595.320	1	-2
595.660	1	0
595.999	1	-9
596.339	1	0
596.678	1	-10
597.018	1	-4
597.358	1	7
597.697	1	2
598.037	1	0
598.376	1	3
598.716	1	7
599.055	1	8
599.395	1	-4
599.734	1	-2
600.074	1	3
600.413	1	8
600.753	1	4
601.092	1	7
601.432	1	-9
601.771	1	1
602.111	1	4
602.451	1	5
602.790	1	6
603.130	1	3
603.469	1	-10
603.809	1	7
604.148	1	4
604.487	1	1
604.827	1	3
605.166	1	4
605.506	1	8
605.845	1	-5
606.185	1	8
606.524	1	-3
606.864	1	3
607.203	1	-1
607.543	1	-3
607.882	1	5
608.222	1	5
608.561	1	0
608.901	1	14
609.240	1	-11
609.579	1	3
609.919	1	1
610.258	1	1
610.598	1	-12
610.937	1	-4
611.277	1	0
611.616	1	3
611.955	1	-4
612.295	1	-17
612.634	1	1
612.974	1	-3
613.313	1	6
613.652	1	-2
613.992	1	-5
614.331	1	-2
614.671	1	-3
615.010	1	-9
615.349	1	-2
615.689	1	11
616.028	1	0
616.368	1	7
616.707	1	-3
617.046	1	-2
617.386	1	5
617.725	1	2
618.064	1	-4
618.404	1	-7
618.743	1	-2
619.082	1	2
619.422	1	-8
619.761	1	10
620.100	1	3
620.440	1	6
620.779	1	-2
621.118	1	-1
621.458	1	3
621.797	1	0
622.136	1	5
622.476	1	11
622.815	1	0
623.154	1	1
623.494	1	8
623.833	1	6
624.172	1	-4
624.511	1	-5
624.851	1	-1
625.190	1	-12
625.529	1	4
625.869	1	1
626.208	1	3
626.547	1	4
626.886	1	2
627.226	1	-1
627.565	1	-6
627.904	1	1
628.243	1	3
628.583	1	-4
628.922	1	4
629.261	1	2
629.600	1	6
629.940	1	-1
630.279	1	-6
630.618	1	1
630.957	1	2
631.297	1	0
631.636	1	-8
631.975	1	8
632.314	1	-8
632.653	1	11
632.993	1	2
633.332	1	7
633.671	1	0
634.010	1	6
634.349	1	7
634.689	1	2
635.028	1	8
635.367	1	-3
635.706	1	3
636.045	1	4
636.384	1	-8
636.724	1	4
637.063	1	-11
637.402	1	-2
637.741	1	0
638.080	1	-1
638.419	1	-8
638.759	1	-6
639.098	1	13
639.437	1	-2
639.776	1	2
640.115	1	-4
640.454	1	-11
640.793	1	9
641.132	1	7
641.472	1	1
641.811	1	-3
642.150	1	-5
642.489	1	10
642.828	1	-3
643.167	1	-5
643.506	1	-15
643.845	1	7
644.184	1	8
644.524	1	-2
644.863	1	-10
645.202	1	6
645.541	1	-8
645.880	1	1
646.219	1	-2
646.558	1	1
646.897	1	-3
647.236	1	-5
647.575	1	1
647.914	1	-4
648.253	1	8
648.592	1	-15
648.931	1	3
649.270	1	-2
649.610	1	4
649.949	1	-12
650.288	1	4
650.627	1	-1
650.966	1	10
651.305	1	-2
651.644	1	10
651.983	1	2
652.322	1	-8
652.661	1	-7
653.000	1	-7
653.339	1	13
653.678	1	2
654.017	1	-1
654.356	1	-6
654.695	1	6
655.034	1	0
655.373	1	12
655.712	1	0
656.051	1	-1
656.390	1	0
656.729	1	8
657.068	1	-6
657.406	1	5
657.745	1	-12
658.084	1	3
658.423	1	0
658.762	1	3
659.101	1	5
659.440	1	0
659.779	1	-6
660.118	1	0
660.457	1	5
660.796	1	-3
661.135	1	-11
661.474	1	-3
661.813	1	8
662.152	1	8
662.491	1	-1
662.829	1	-7
663.168	1	-2
663.507	1	7
663.846	1	5
664.185	1	-4
664.524	1	-3
664.863	1	-6
665.202	1	5
665.541	1	-11
665.879	1	-6
666.218	1	-8
666.557	1	-2
666.896	1	-3
667.235	1	-11
667.574	1	-2
667.913	1	-5
668.251	1	-10
668.590	1	-9
668.929	1	-10
669.268	1	-3
669.607	1	-4
669.946	1	-5
670.285	1	2
670.623	1	1
670.962	1	-7
671.301	1	-7
671.640	1	-5
671.979	1	-4
672.317	1	-3
672.656	1	-1
672.995	1	6
673.334	1	1
673.673	1	3
674.011	1	0
674.350	1	6
674.689	1	5
675.028	1	3
675.367	1	10
675.705	1	7
676.044	1	-1
676.383	1	9
676.722	1	5
677.060	1	-6
677.399	1	-2
677.738	1	6
678.077	1	4
678.416	1	6
678.754	1	-1
679.093	1	6
679.432	1	-4
679.771	1	-1
680.109	1	6
680.448	1	6
680.787	1	1
681.125	1	2
681.464	1	-6
681.803	1	2
682.142	1	2
682.480	1	8
682.819	1	-5
683.158	1	-4
683.496	1	5
683.835	1	-6
684.174	1	1
684.512	1	0
684.851	1	-2
685.190	1	-4
685.529	1	-4
685.867	1	-4
686.206	1	-5
686.545	1	-2
686.883	1	-10
687.222	1	-1
687.561	1	0
687.899	1	-1
688.238	1	-5
688.577	1	2
688.746	1	1