File: Data/GaN_200K_800ms/GaN_sample F_spot 12_UVVIS_200 K_200um_800 ms 2x2mm1_104.txt
340.368	1	8
340.710	1	-6
341.052	1	9
341.394	1	-1
341.737	1	5
342.079	1	0
342.421	1	-1
342.763	1	4
343.105	1	5
343.447	1	1
343.789	1	1
344.131	1	1
344.473	1	-3
344.815	1	9
345.157	1	-2
345.499	1	7
345.841	1	3
346.183	1	0
346.526	1	-2
346.868	1	4
347.210	1	-10
347.552	1	3
347.894	1	7
348.236	1	15
348.578	1	3
348.920	1	7
349.262	1	9
349.604	1	11
349.946	1	-1
350.288	1	16
350.630	1	4
350.972	1	4
351.314	1	4
351.656	1	0
351.998	1	11
352.340	1	7
352.682	1	12
353.024	1	10
353.366	1	11
353.708	1	9
354.050	1	4
354.392	1	-2
354.734	1	7
355.076	1	10
355.418	1	-2
355.760	1	8
356.102	1	15
356.444	1	18
356.785	1	17
357.127	1	0
357.469	1	14
357.811	1	10
358.153	1	17
358.495	1	14
358.837	1	11
359.179	1	12
359.521	1	19
359.863	1	17
360.205	1	5
360.547	1	15
360.889	1	18
361.231	1	16
361.572	1	19
361.914	1	14
362.256	1	32
362.598	1	27
362.940	1	31
363.282	1	36
363.624	1	39
363.966	1	38
364.308	1	34
364.649	1	42
364.991	1	47
365.333	1	47
365.675	1	32
366.017	1	63
366.359	1	55
366.701	1	66
367.042	1	80
367.384	1	81
367.726	1	80
368.068	1	84
368.410	1	87
368.752	1	87
369.093	1	81
369.435	1	102
369.777	1	86
370.119	1	88
370.461	1	100
370.803	1	95
371.144	1	80
371.486	1	80
371.828	1	91
372.170	1	84
372.512	1	76
372.853	1	76
373.195	1	65
373.537	1	61
373.879	1	61
374.220	1	71
374.562	1	69
374.904	1	49
375.246	1	64
375.588	1	56
375.929	1	54
376.271	1	61
376.613	1	53
376.955	1	44
377.296	1	43
377.638	1	42
377.980	1	44
378.321	1	29
378.663	1	28
379.005	1	44
379.347	1	33
379.688	1	41
380.030	1	31
380.372	1	34
380.714	1	34
381.055	1	46
381.397	1	33
381.739	1	33
382.080	1	24
382.422	1	16
382.764	1	22
383.105	1	22
383.447	1	6
383.789	1	21
384.130	1	18
384.472	1	19
384.814	1	12
385.156	1	12
385.497	1	23
385.839	1	14
386.180	1	16
386.522	1	24
386.864	1	13
387.205	1	15
387.547	1	2
387.889	1	25
388.230	1	20
388.572	1	8
388.914	1	10
389.255	1	6
389.597	1	18
389.939	1	6
390.280	1	18
390.622	1	1
390.963	1	16
391.305	1	21
391.647	1	12
391.988	1	20
392.330	1	20
392.671	1	5
393.013	1	17
393.355	1	18
393.696	1	4
394.038	1	9
394.379	1	16
394.721	1	7
395.062	1	7
395.404	1	0
395.746	1	13
396.087	1	5
396.429	1	11
396.770	1	0
397.112	1	9
397.453	1	12
397.795	1	9
398.136	1	1
398.478	1	4
398.819	1	8
399.161	1	8
399.503	1	11
399.844	1	12
400.186	1	5
400.527	1	3
400.869	1	-2
401.210	1	5
401.552	1	-1
401.893	1	6
402.235	1	6
402.576	1	5
402.918	1	15
403.259	1	16
403.601	1	-3
403.942	1	17
404.284	1	9
404.625	1	12
404.967	1	6
405.308	1	0
405.649	1	4
405.991	1	4
406.332	1	11
406.674	1	-1
407.015	1	12
407.357	1	-3
407.698	1	2
408.040	1	-3
408.381	1	3
408.722	1	-4
409.064	1	8
409.405	1	7
409.747	1	1
410.088	1	7
410.430	1	3
410.771	1	8
411.112	1	4
411.454	1	0
411.795	1	1
412.137	1	6
412.478	1	11
412.819	1	6
413.161	1	4
413.502	1	-8
413.844	1	10
414.185	1	2
414.526	1	1
414.868	1	5
415.209	1	2
415.550	1	3
415.892	1	5
416.233	1	8
416.575	1	19
416.916	1	0
417.257	1	4
417.599	1	3
417.940	1	24
418.281	1	-2
418.623	1	2
418.964	1	-3
419.305	1	12
419.647	1	4
419.988	1	-2
420.329	1	-12
420.671	1	11
421.012	1	5
421.353	1	5
421.695	1	-7
422.036	1	5
422.377	1	2
422.718	1	15
423.060	1	-4
423.401	1	3
423.742	1	3
424.084	1	9
424.425	1	9
424.766	1	6
425.107	1	-2
425.449	1	0
425.790	1	-8
426.131	1	3
426.472	1	3
426.814	1	10
427.155	1	-1
427.496	1	1
427.837	1	2
428.179	1	-3
428.520	1	4
428.861	1	4
429.202	1	7
429.544	1	-5
429.885	1	-1
430.226	1	-12
430.567	1	6
430.909	1	-2
431.250	1	1
431.591	1	9
431.932	1	4
432.273	1	-8
432.615	1	-8
432.956	1	-4
433.297	1	1
433.638	1	3
433.979	1	2
434.320	1	7
434.662	1	7
435.003	1	8
435.344	1	0
435.685	1	-4
436.026	1	-1
436.368	1	14
436.709	1	1
437.050	1	7
437.391	1	15
437.732	1	-9
438.073	1	-5
438.414	1	-10
438.756	1	-4
439.097	1	-7
439.438	1	4
439.779	1	2
440.120	1	3
440.461	1	2
440.802	1	-2
441.143	1	13
441.485	1	6
441.826	1	9
442.167	1	12
442.508	1	-8
442.849	1	10
443.190	1	-5
443.531	1	6
443.872	1	6
444.213	1	7
444.554	1	12
444.895	1	-2
445.237	1	-7
445.578	1	0
445.919	1	-9
446.260	1	-3
446.601	1	6
446.942	1	8
447.283	1	-2
447.624	1	3
447.965	1	-5
448.306	1	12
448.647	1	-4
448.988	1	8
449.329	1	2
449.670	1	6
450.011	1	4
450.352	1	2
450.693	1	-8
451.034	1	-7
451.375	1	-2
451.716	1	12
452.057	1	5
452.398	1	1
452.739	1	5
453.080	1	1
453.421	1	5
453.762	1	-2
454.103	1	-8
454.444	1	-8
454.785	1	-4
455.126	1	-7
455.467	1	5
455.808	1	-1
456.149	1	8
456.490	1	6
456.831	1	7
457.172	1	-2
457.513	1	10
457.854	1	-5
458.195	1	-4
458.536	1	6
458.877	1	1
459.218	1	-2
459.559	1	12
459.899	1	-6
460.240	1	2
460.581	1	17
460.922	1	0
461.263	1	-3
461.604	1	0
461.945	1	1
462.286	1	10
462.627	1	-2
462.968	1	11
463.309	1	-4
463.649	1	1
463.990	1	-2
464.331	1	12
464.672	1	4
465.013	1	2
465.354	1	1
465.695	1	-3
466.036	1	1
466.376	1	-4
466.717	1	8
467.058	1	-2
467.399	1	10
467.740	1	2
468.081	1	14
468.422	1	0
468.762	1	-3
469.103	1	0
469.444	1	4
469.785	1	3
470.126	1	-4
470.467	1	-8
470.807	1	4
471.148	1	-3
471.489	1	-2
471.830	1	1
472.171	1	7
472.511	1	-2
472.852	1	1
473.193	1	12
473.534	1	4
473.875	1	9
474.215	1	8
474.556	1	-2
474.897	1	5
475.238	1	0
475.578	1	-9
475.919	1	-7
476.260	1	4
476.601	1	7
476.942	1	4
477.282	1	-1
477.623	1	-2
477.964	1	-1
478.305	1	-4
478.645	1	8
478.986	1	2
479.327	1	0
479.667	1	-4
480.008	1	4
480.349	1	2
480.690	1	5
481.030	1	2
481.371	1	4
481.712	1	2
482.053	1	3
482.393	1	0
482.734	1	-5
483.075	1	4
483.415	1	-2
483.756	1	9
484.097	1	-5
484.437	1	-3
484.778	1	9
485.119	1	5
485.459	1	15
485.800	1	3
486.141	1	-5
486.481	1	0
486.822	1	0
487.163	1	7
487.503	1	0
487.844	1	2
488.185	1	9
488.525	1	-1
488.866	1	8
489.207	1	-6
489.547	1	-2
489.888	1	-5
490.228	1	9
490.569	1	10
490.910	1	3
491.250	1	5
491.591	1	-5
491.932	1	1
492.272	1	13
492.613	1	-2
492.953	1	-1
493.294	1	1
493.635	1	2
493.975	1	0
494.316	1	3
494.656	1	-3
494.997	1	4
495.337	1	14
495.678	1	10
496.019	1	0
496.359	1	8
496.700	1	9
497.040	1	-2
497.381	1	7
497.721	1	9
498.062	1	1
498.403	1	9
498.743	1	0
499.084	1	8
499.424	1	7
499.765	1	6
500.105	1	9
500.446	1	-4
500.786	1	-4
501.127	1	2
501.467	1	-7
501.808	1	7
502.148	1	6
502.489	1	5
502.829	1	4
503.170	1	14
503.510	1	11
503.851	1	-2
504.191	1	7
504.532	1	-2
504.872	1	3
505.213	1	12
505.553	1	2
505.894	1	-3
506.234	1	10
506.575	1	4
506.915	1	15
507.256	1	8
507.596	1	5
507.936	1	4
508.277	1	1
508.617	1	6
508.958	1	0
509.298	1	10
509.639	1	10
509.979	1	-5
510.319	1	6
510.660	1	7
511.000	1	-2
511.341	1	6
511.681	1	15
512.022	1	7
512.362	1	8
512.702	1	8
513.043	1	7
513.383	1	-5
513.724	1	-4
514.064	1	11
514.404	1	5
514.745	1	2
515.085	1	13
515.425	1	5
515.766	1	1
516.106	1	2
516.447	1	17
516.787	1	10
517.127	1	6
517.468	1	2
517.808	1	11
518.148	1	10
518.489	1	13
518.829	1	15
519.169	1	8
519.510	1	8
519.850	1	10
520.190	1	11
520.531	1	12
520.871	1	8
521.211	1	2
521.552	1	12
521.892	1	10
522.232	1	14
522.573	1	10
522.913	1	3
523.253	1	4
523.593	1	1
523.934	1	8
524.274	1	10
524.614	1	12
524.955	1	7
525.295	1	9
525.635	1	10
525.975	1	10
526.316	1	14
526.656	1	-4
526.996	1	17
527.337	1	0
527.677	1	11
528.017	1	-10
528.357	1	5
528.698	1	8
529.038	1	10
529.378	1	19
529.718	1	13
530.058	1	4
530.399	1	12
530.739	1	7
531.079	1	14
531.419	1	7
531.760	1	10
532.100	1	2
532.440	1	0
532.780	1	6
533.120	1	19
533.461	1	14
533.801	1	17
534.141	1	3
534.481	1	3
534.821	1	13
535.162	1	5
535.502	1	0
535.842	1	5
536.182	1	11
536.522	1	7
536.862	1	17
537.203	1	13
537.543	1	10
537.883	1	5
538.223	1	15
538.563	1	15
538.903	1	1
539.243	1	6
539.584	1	7
539.924	1	10
540.264	1	-8
540.604	1	7
540.944	1	15
541.284	1	16
541.624	1	11
541.964	1	18
542.305	1	10
542.645	1	3
542.985	1	2
543.325	1	11
543.665	1	13
544.005	1	21
544.345	1	6
544.685	1	9
545.025	1	11
545.365	1	8
545.705	1	7
546.045	1	3
546.386	1	17
546.726	1	0
547.066	1	6
547.406	1	22
547.746	1	1
548.086	1	12
548.426	1	6
548.766	1	12
549.106	1	8
549.446	1	5
549.786	1	4
550.126	1	19
550.466	1	19
550.806	1	11
551.146	1	10
551.486	1	12
551.826	1	6
552.166	1	9
552.506	1	20
552.846	1	18
553.186	1	11
553.526	1	14
553.866	1	16
554.206	1	18
554.546	1	19
554.886	1	13
555.226	1	9
555.566	1	13
555.906	1	11
556.246	1	14
556.586	1	12
556.926	1	10
557.266	1	5
557.606	1	16
557.946	1	14
558.286	1	10
558.626	1	10
558.966	1	5
559.306	1	9
559.646	1	4
559.986	1	9
560.325	1	3
560.665	1	2
561.005	1	6
561.345	1	12
561.685	1	5
562.025	1	4
562.365	1	19
562.705	1	9
563.045	1	6
563.385	1	2
563.725	1	6
564.064	1	10
564.404	1	10
564.744	1	15
565.084	1	11
565.424	1	0
565.764	1	14
566.104	1	16
566.444	1	10
566.783	1	6
567.123	1	16
567.463	1	13
567.803	1	12
568.143	1	14
568.483	1	10
568.823	1	12
569.162	1	17
569.502	1	15
569.842	1	8
570.182	1	6
570.522	1	7
570.862	1	8
571.201	1	21
571.541	1	16
571.881	1	15
572.221	1	6
572.561	1	3
572.900	1	0
573.240	1	9
573.580	1	13
573.920	1	11
574.260	1	17
574.599	1	16
574.939	1	12
575.279	1	18
575.619	1	9
575.959	1	-5
576.298	1	17
576.638	1	1
576.978	1	22
577.318	1	20
577.657	1	4
577.997	1	2
578.337	1	20
578.677	1	19
579.016	1	22
579.356	1	7
579.696	1	14
580.036	1	4
580.375	1	10
580.715	1	14
581.055	1	9
581.394	1	10
581.734	1	-2
582.074	1	14
582.414	1	18
582.753	1	5
583.093	1	10
583.433	1	3
583.772	1	14
584.112	1	13
584.452	1	8
584.791	1	5
585.131	1	11
585.471	1	5
585.811	1	20
586.150	1	7
586.490	1	16
586.830	1	9
587.169	1	15
587.509	1	13
587.849	1	7
588.188	1	17
588.528	1	10
588.867	1	19
589.207	1	6
589.547	1	11
589.886	1	10
590.226	1	15
590.566	1	2
590.905	1	10
591.245	1	14
591.585	1	7
591.924	1	14
592.264	1	12
592.603	1	8
592.943	1	10
593.283	1	15
593.622	1	2
593.962	1	11
594.301	1	19
594.641	1	2
594.981	1	1
595.320	1	9
595.660	1	7
595.999	1	4
596.339	1	-2
596.678	1	11
597.018	1	6
597.358	1	9
597.697	1	13
598.037	1	3
598.376	1	8
598.716	1	11
599.055	1	12
599.395	1	1
599.734	1	8
600.074	1	-2
600.413	1	20
600.753	1	19
601.092	1	18
601.432	1	9
601.771	1	8
602.111	1	12
602.451	1	16
602.790	1	10
603.130	1	10
603.469	1	3
603.809	1	11
604.148	1	13
604.487	1	-1
604.827	1	18
605.166	1	15
605.506	1	11
605.845	1	20
606.185	1	26
606.524	1	2
606.864	1	6
607.203	1	3
607.543	1	3
607.882	1	9
608.222	1	11
608.561	1	16
608.901	1	7
609.240	1	4
609.579	1	17
609.919	1	15
610.258	1	6
610.598	1	6
610.937	1	5
611.277	1	5
611.616	1	7
611.955	1	11
612.295	1	-2
612.634	1	11
612.974	1	-2
613.313	1	15
613.652	1	14
613.992	1	-1
614.331	1	3
614.671	1	14
615.010	1	-5
615.349	1	15
615.689	1	8
616.028	1	9
616.368	1	10
616.707	1	1
617.046	1	10
617.386	1	12
617.725	1	9
618.064	1	3
618.404	1	10
618.743	1	6
619.082	1	13
619.422	1	-3
619.761	1	12
620.100	1	11
620.440	1	10
620.779	1	0
621.118	1	5
621.458	1	11
621.797	1	0
622.136	1	18
622.476	1	15
622.815	1	13
623.154	1	11
623.494	1	15
623.833	1	10
624.172	1	9
624.511	1	4
624.851	1	0
625.190	1	19
625.529	1	21
625.869	1	14
626.208	1	3
626.547	1	-1
626.886	1	3
627.226	1	15
627.565	1	9
627.904	1	-1
628.243	1	3
628.583	1	7
628.922	1	15
629.261	1	10
629.600	1	13
629.940	1	-4
630.279	1	1
630.618	1	-6
630.957	1	9
631.297	1	7
631.636	1	-5
631.975	1	13
632.314	1	6
632.653	1	12
632.993	1	0
633.332	1	5
633.671	1	5
634.010	1	1
634.349	1	9
634.689	1	9
635.028	1	9
635.367	1	11
635.706	1	6
636.045	1	15
636.384	1	11
636.724	1	5
637.063	1	9
637.402	1	4
637.741	1	9
638.080	1	13
638.419	1	3
638.759	1	-6
639.098	1	15
639.437	1	3
639.776	1	3
640.115	1	6
640.454	1	-2
640.793	1	15
641.132	1	2
641.472	1	11
641.811	1	-1
642.150	1	1
642.489	1	7
642.828	1	1
643.167	1	8
643.506	1	1
643.845	1	-1
644.184	1	8
644.524	1	1
644.863	1	-3
645.202	1	0
645.541	1	10
645.880	1	-2
646.219	1	5
646.558	1	4
646.897	1	8
647.236	1	4
647.575	1	-4
647.914	1	6
648.253	1	17
648.592	1	-7
648.931	1	13
649.270	1	0
649.610	1	7
649.949	1	12
650.288	1	3
650.627	1	2
650.966	1	4
651.305	1	8
651.644	1	14
651.983	1	4
652.322	1	2
652.661	1	1
653.000	1	1
653.339	1	9
653.678	1	5
654.017	1	3
654.356	1	-5
654.695	1	8
655.034	1	7
655.373	1	10
655.712	1	12
656.051	1	4
656.390	1	4
656.729	1	9
657.068	1	0
657.406	1	9
657.745	1	-3
658.084	1	11
658.423	1	8
658.762	1	-2
659.101	1	0
659.440	1	-1
659.779	1	8
660.118	1	12
660.457	1	13
660.796	1	-7
661.135	1	4
661.474	1	4
661.813	1	16
662.152	1	0
662.491	1	5
662.829	1	-6
663.168	1	13
663.507	1	17
663.846	1	3
664.185	1	6
664.524	1	9
664.863	1	4
665.202	1	9
665.541	1	-6
665.879	1	-1
666.218	1	-5
666.557	1	2
666.896	1	-1
667.235	1	5
667.574	1	3
667.913	1	12
668.251	1	-2
668.590	1	1
668.929	1	-12
669.268	1	0
669.607	1	-13
669.946	1	-1
670.285	1	12
670.623	1	-2
670.962	1	1
671.301	1	-5
671.640	1	7
671.979	1	6
672.317	1	8
672.656	1	3
672.995	1	10
673.334	1	0
673.673	1	2
674.011	1	-2
674.350	1	10
674.689	1	-3
675.028	1	0
675.367	1	14
675.705	1	9
676.044	1	7
676.383	1	12
676.722	1	1
677.060	1	-1
677.399	1	2
677.738	1	1
678.077	1	7
678.416	1	2
678.754	1	4
679.093	1	14
679.432	1	7
679.771	1	5
680.109	1	6
680.448	1	7
680.787	1	7
681.125	1	1
681.464	1	4
681.803	1	3
682.142	1	16
682.480	1	19
682.819	1	-1
683.158	1	0
683.496	1	17
683.835	1	-5
684.174	1	-3
684.512	1	14
684.851	1	5
685.190	1	9
685.529	1	4
685.867	1	3
686.206	1	0
686.545	1	0
686.883	1	8
687.222	1	9
687.561	1	5
687.899	1	2
688.238	1	4
688.577	1	5
688.746	1	8