File: Data/GaN_200K_800ms/GaN_sample F_spot 12_UVVIS_200 K_200um_800 ms 2x2mm1_469.txt
340.368	1	4
340.710	1	-10
341.052	1	8
341.394	1	-2
341.737	1	-2
342.079	1	-5
342.421	1	2
342.763	1	1
343.105	1	-1
343.447	1	-10
343.789	1	1
344.131	1	-3
344.473	1	-3
344.815	1	-8
345.157	1	-8
345.499	1	3
345.841	1	0
346.183	1	-2
346.526	1	-5
346.868	1	-2
347.210	1	-4
347.552	1	-10
347.894	1	-9
348.236	1	0
348.578	1	3
348.920	1	-7
349.262	1	-3
349.604	1	-1
349.946	1	-17
350.288	1	6
350.630	1	3
350.972	1	-8
351.314	1	0
351.656	1	-2
351.998	1	6
352.340	1	-4
352.682	1	4
353.024	1	2
353.366	1	9
353.708	1	-3
354.050	1	-6
354.392	1	-9
354.734	1	2
355.076	1	-5
355.418	1	-15
355.760	1	-5
356.102	1	9
356.444	1	5
356.785	1	15
357.127	1	-1
357.469	1	-3
357.811	1	0
358.153	1	5
358.495	1	1
358.837	1	-9
359.179	1	2
359.521	1	6
359.863	1	-3
360.205	1	1
360.547	1	7
360.889	1	4
361.231	1	-4
361.572	1	9
361.914	1	10
362.256	1	-3
362.598	1	-9
362.940	1	4
363.282	1	9
363.624	1	11
363.966	1	1
364.308	1	-3
364.649	1	8
364.991	1	5
365.333	1	10
365.675	1	-10
366.017	1	4
366.359	1	1
366.701	1	-1
367.042	1	17
367.384	1	1
367.726	1	10
368.068	1	21
368.410	1	24
368.752	1	8
369.093	1	7
369.435	1	6
369.777	1	7
370.119	1	7
370.461	1	20
370.803	1	7
371.144	1	9
371.486	1	13
371.828	1	11
372.170	1	10
372.512	1	-1
372.853	1	1
373.195	1	4
373.537	1	6
373.879	1	-1
374.220	1	26
374.562	1	9
374.904	1	0
375.246	1	8
375.588	1	2
375.929	1	12
376.271	1	7
376.613	1	-9
376.955	1	-6
377.296	1	-5
377.638	1	3
377.980	1	3
378.321	1	-6
378.663	1	-1
379.005	1	12
379.347	1	-1
379.688	1	5
380.030	1	2
380.372	1	3
380.714	1	8
381.055	1	4
381.397	1	3
381.739	1	6
382.080	1	5
382.422	1	4
382.764	1	-7
383.105	1	0
383.447	1	-8
383.789	1	-4
384.130	1	5
384.472	1	1
384.814	1	-1
385.156	1	-4
385.497	1	-2
385.839	1	-3
386.180	1	-4
386.522	1	3
386.864	1	8
387.205	1	6
387.547	1	-5
387.889	1	-3
388.230	1	3
388.572	1	6
388.914	1	2
389.255	1	2
389.597	1	-4
389.939	1	5
390.280	1	3
390.622	1	-4
390.963	1	9
391.305	1	-6
391.647	1	-1
391.988	1	4
392.330	1	4
392.671	1	-8
393.013	1	1
393.355	1	0
393.696	1	4
394.038	1	-4
394.379	1	-1
394.721	1	-6
395.062	1	5
395.404	1	-10
395.746	1	10
396.087	1	-5
396.429	1	-1
396.770	1	-2
397.112	1	9
397.453	1	17
397.795	1	4
398.136	1	-16
398.478	1	-2
398.819	1	1
399.161	1	12
399.503	1	1
399.844	1	0
400.186	1	-1
400.527	1	-4
400.869	1	-5
401.210	1	-1
401.552	1	-7
401.893	1	-9
402.235	1	5
402.576	1	-5
402.918	1	5
403.259	1	6
403.601	1	3
403.942	1	3
404.284	1	11
404.625	1	-2
404.967	1	8
405.308	1	1
405.649	1	3
405.991	1	-9
406.332	1	0
406.674	1	-3
407.015	1	0
407.357	1	-3
407.698	1	4
408.040	1	1
408.381	1	-1
408.722	1	-11
409.064	1	4
409.405	1	9
409.747	1	-1
410.088	1	7
410.430	1	6
410.771	1	-9
411.112	1	1
411.454	1	-14
411.795	1	-3
412.137	1	7
412.478	1	8
412.819	1	2
413.161	1	-3
413.502	1	4
413.844	1	-2
414.185	1	4
414.526	1	1
414.868	1	-2
415.209	1	-1
415.550	1	2
415.892	1	-9
416.233	1	12
416.575	1	12
416.916	1	-1
417.257	1	-7
417.599	1	0
417.940	1	7
418.281	1	5
418.623	1	-2
418.964	1	-12
419.305	1	7
419.647	1	-2
419.988	1	-8
420.329	1	-1
420.671	1	2
421.012	1	-1
421.353	1	-9
421.695	1	-14
422.036	1	-2
422.377	1	-10
422.718	1	-1
423.060	1	-6
423.401	1	4
423.742	1	4
424.084	1	-3
424.425	1	0
424.766	1	-2
425.107	1	-4
425.449	1	4
425.790	1	-15
426.131	1	-6
426.472	1	-3
426.814	1	3
427.155	1	-8
427.496	1	-2
427.837	1	-8
428.179	1	-8
428.520	1	-6
428.861	1	-4
429.202	1	5
429.544	1	-3
429.885	1	8
430.226	1	-8
430.567	1	0
430.909	1	-2
431.250	1	-5
431.591	1	0
431.932	1	-7
432.273	1	-2
432.615	1	-10
432.956	1	-6
433.297	1	-1
433.638	1	1
433.979	1	-2
434.320	1	-4
434.662	1	-4
435.003	1	9
435.344	1	2
435.685	1	-2
436.026	1	1
436.368	1	3
436.709	1	0
437.050	1	2
437.391	1	12
437.732	1	-7
438.073	1	4
438.414	1	-8
438.756	1	-8
439.097	1	-7
439.438	1	-8
439.779	1	-4
440.120	1	-9
440.461	1	4
440.802	1	-7
441.143	1	9
441.485	1	-5
441.826	1	-3
442.167	1	-2
442.508	1	-11
442.849	1	12
443.190	1	-7
443.531	1	2
443.872	1	4
444.213	1	-4
444.554	1	10
444.895	1	-11
445.237	1	-4
445.578	1	-4
445.919	1	-10
446.260	1	-9
446.601	1	-2
446.942	1	3
447.283	1	-8
447.624	1	-9
447.965	1	6
448.306	1	1
448.647	1	-8
448.988	1	6
449.329	1	-6
449.670	1	10
450.011	1	16
450.352	1	-5
450.693	1	-8
451.034	1	-3
451.375	1	-8
451.716	1	0
452.057	1	5
452.398	1	-3
452.739	1	-1
453.080	1	-4
453.421	1	-1
453.762	1	3
454.103	1	-8
454.444	1	-9
454.785	1	-2
455.126	1	-3
455.467	1	-4
455.808	1	-8
456.149	1	-2
456.490	1	0
456.831	1	1
457.172	1	-5
457.513	1	-4
457.854	1	-3
458.195	1	-3
458.536	1	4
458.877	1	-2
459.218	1	4
459.559	1	6
459.899	1	1
460.240	1	-6
460.581	1	6
460.922	1	-1
461.263	1	-1
461.604	1	2
461.945	1	-3
462.286	1	-3
462.627	1	-2
462.968	1	-2
463.309	1	0
463.649	1	-9
463.990	1	0
464.331	1	-6
464.672	1	-7
465.013	1	-4
465.354	1	-3
465.695	1	-4
466.036	1	0
466.376	1	-5
466.717	1	-1
467.058	1	-5
467.399	1	1
467.740	1	5
468.081	1	7
468.422	1	-6
468.762	1	-12
469.103	1	-14
469.444	1	-8
469.785	1	-13
470.126	1	-6
470.467	1	-7
470.807	1	0
471.148	1	6
471.489	1	-3
471.830	1	-3
472.171	1	5
472.511	1	-4
472.852	1	0
473.193	1	10
473.534	1	6
473.875	1	14
474.215	1	0
474.556	1	-6
474.897	1	5
475.238	1	-1
475.578	1	-11
475.919	1	-5
476.260	1	-9
476.601	1	0
476.942	1	16
477.282	1	-4
477.623	1	-7
477.964	1	-9
478.305	1	3
478.645	1	10
478.986	1	-6
479.327	1	-11
479.667	1	1
480.008	1	2
480.349	1	-7
480.690	1	-2
481.030	1	-7
481.371	1	5
481.712	1	-2
482.053	1	-7
482.393	1	2
482.734	1	-4
483.075	1	9
483.415	1	-1
483.756	1	6
484.097	1	-5
484.437	1	-6
484.778	1	-2
485.119	1	-7
485.459	1	9
485.800	1	-6
486.141	1	2
486.481	1	-2
486.822	1	8
487.163	1	-10
487.503	1	1
487.844	1	-2
488.185	1	-1
488.525	1	-6
488.866	1	2
489.207	1	-2
489.547	1	-5
489.888	1	-10
490.228	1	5
490.569	1	11
490.910	1	3
491.250	1	-6
491.591	1	-8
491.932	1	-3
492.272	1	0
492.613	1	-11
492.953	1	-5
493.294	1	-1
493.635	1	-5
493.975	1	-2
494.316	1	2
494.656	1	4
494.997	1	-13
495.337	1	5
495.678	1	4
496.019	1	-5
496.359	1	-4
496.700	1	1
497.040	1	-3
497.381	1	1
497.721	1	-6
498.062	1	5
498.403	1	1
498.743	1	3
499.084	1	-7
499.424	1	6
499.765	1	-3
500.105	1	-10
500.446	1	-12
500.786	1	-6
501.127	1	2
501.467	1	-7
501.808	1	5
502.148	1	0
502.489	1	-2
502.829	1	-6
503.170	1	7
503.510	1	0
503.851	1	5
504.191	1	7
504.532	1	9
504.872	1	-7
505.213	1	7
505.553	1	-5
505.894	1	-14
506.234	1	-2
506.575	1	-3
506.915	1	4
507.256	1	2
507.596	1	1
507.936	1	0
508.277	1	-2
508.617	1	-1
508.958	1	-6
509.298	1	1
509.639	1	-6
509.979	1	-3
510.319	1	12
510.660	1	11
511.000	1	-11
511.341	1	-7
511.681	1	3
512.022	1	-11
512.362	1	-6
512.702	1	2
513.043	1	2
513.383	1	-14
513.724	1	2
514.064	1	11
514.404	1	-5
514.745	1	-3
515.085	1	6
515.425	1	-10
515.766	1	-6
516.106	1	-4
516.447	1	3
516.787	1	12
517.127	1	-7
517.468	1	2
517.808	1	2
518.148	1	2
518.489	1	-10
518.829	1	-1
519.169	1	-2
519.510	1	8
519.850	1	1
520.190	1	-1
520.531	1	-4
520.871	1	1
521.211	1	-8
521.552	1	3
521.892	1	2
522.232	1	5
522.573	1	0
522.913	1	5
523.253	1	-5
523.593	1	-1
523.934	1	2
524.274	1	0
524.614	1	0
524.955	1	-6
525.295	1	0
525.635	1	-1
525.975	1	3
526.316	1	7
526.656	1	-15
526.996	1	8
527.337	1	-5
527.677	1	2
528.017	1	-4
528.357	1	2
528.698	1	2
529.038	1	-3
529.378	1	6
529.718	1	6
530.058	1	-2
530.399	1	7
530.739	1	4
531.079	1	6
531.419	1	8
531.760	1	0
532.100	1	-5
532.440	1	-6
532.780	1	4
533.120	1	2
533.461	1	5
533.801	1	10
534.141	1	-6
534.481	1	-11
534.821	1	12
535.162	1	-2
535.502	1	-7
535.842	1	4
536.182	1	4
536.522	1	-8
536.862	1	8
537.203	1	-2
537.543	1	2
537.883	1	-3
538.223	1	-1
538.563	1	-4
538.903	1	-5
539.243	1	-9
539.584	1	2
539.924	1	8
540.264	1	-3
540.604	1	3
540.944	1	-14
541.284	1	7
541.624	1	0
541.964	1	3
542.305	1	6
542.645	1	-5
542.985	1	5
543.325	1	-7
543.665	1	0
544.005	1	13
544.345	1	4
544.685	1	-10
545.025	1	0
545.365	1	5
545.705	1	-7
546.045	1	-6
546.386	1	6
546.726	1	-4
547.066	1	11
547.406	1	1
547.746	1	-12
548.086	1	-3
548.426	1	-6
548.766	1	3
549.106	1	0
549.446	1	1
549.786	1	-3
550.126	1	11
550.466	1	9
550.806	1	-8
551.146	1	-2
551.486	1	-3
551.826	1	5
552.166	1	1
552.506	1	10
552.846	1	3
553.186	1	10
553.526	1	-6
553.866	1	0
554.206	1	8
554.546	1	9
554.886	1	-1
555.226	1	-3
555.566	1	-5
555.906	1	12
556.246	1	2
556.586	1	-4
556.926	1	2
557.266	1	-7
557.606	1	0
557.946	1	5
558.286	1	3
558.626	1	11
558.966	1	0
559.306	1	1
559.646	1	-5
559.986	1	-8
560.325	1	-7
560.665	1	1
561.005	1	-3
561.345	1	1
561.685	1	7
562.025	1	0
562.365	1	-4
562.705	1	-6
563.045	1	-9
563.385	1	-3
563.725	1	0
564.064	1	0
564.404	1	-4
564.744	1	2
565.084	1	-7
565.424	1	7
565.764	1	-3
566.104	1	-8
566.444	1	-14
566.783	1	-2
567.123	1	5
567.463	1	2
567.803	1	-9
568.143	1	-3
568.483	1	6
568.823	1	1
569.162	1	2
569.502	1	3
569.842	1	7
570.182	1	1
570.522	1	-9
570.862	1	-4
571.201	1	0
571.541	1	6
571.881	1	6
572.221	1	-8
572.561	1	6
572.900	1	-7
573.240	1	1
573.580	1	-2
573.920	1	4
574.260	1	9
574.599	1	5
574.939	1	4
575.279	1	15
575.619	1	5
575.959	1	-7
576.298	1	2
576.638	1	-4
576.978	1	3
577.318	1	5
577.657	1	-3
577.997	1	-7
578.337	1	17
578.677	1	10
579.016	1	16
579.356	1	-1
579.696	1	5
580.036	1	1
580.375	1	-5
580.715	1	2
581.055	1	0
581.394	1	1
581.734	1	-7
582.074	1	-2
582.414	1	4
582.753	1	-1
583.093	1	4
583.433	1	-4
583.772	1	1
584.112	1	-1
584.452	1	-2
584.791	1	1
585.131	1	1
585.471	1	14
585.811	1	7
586.150	1	-6
586.490	1	-1
586.830	1	5
587.169	1	3
587.509	1	-6
587.849	1	-1
588.188	1	8
588.528	1	1
588.867	1	-2
589.207	1	0
589.547	1	-2
589.886	1	-9
590.226	1	-2
590.566	1	-6
590.905	1	7
591.245	1	-1
591.585	1	10
591.924	1	3
592.264	1	2
592.603	1	0
592.943	1	-2
593.283	1	-3
593.622	1	0
593.962	1	-3
594.301	1	3
594.641	1	-4
594.981	1	-10
595.320	1	0
595.660	1	0
595.999	1	-10
596.339	1	2
596.678	1	-6
597.018	1	4
597.358	1	1
597.697	1	-5
598.037	1	5
598.376	1	1
598.716	1	10
599.055	1	3
599.395	1	-5
599.734	1	-6
600.074	1	1
600.413	1	1
600.753	1	7
601.092	1	8
601.432	1	-5
601.771	1	4
602.111	1	5
602.451	1	6
602.790	1	-5
603.130	1	6
603.469	1	-10
603.809	1	6
604.148	1	6
604.487	1	-5
604.827	1	6
605.166	1	5
605.506	1	-13
605.845	1	1
606.185	1	5
606.524	1	-4
606.864	1	2
607.203	1	-3
607.543	1	2
607.882	1	-6
608.222	1	8
608.561	1	-3
608.901	1	0
609.240	1	-10
609.579	1	7
609.919	1	5
610.258	1	-1
610.598	1	-1
610.937	1	-5
611.277	1	-2
611.616	1	-1
611.955	1	2
612.295	1	2
612.634	1	2
612.974	1	-11
613.313	1	10
613.652	1	4
613.992	1	-5
614.331	1	-1
614.671	1	-1
615.010	1	1
615.349	1	3
615.689	1	5
616.028	1	-8
616.368	1	-2
616.707	1	3
617.046	1	1
617.386	1	1
617.725	1	-3
618.064	1	2
618.404	1	6
618.743	1	0
619.082	1	0
619.422	1	-7
619.761	1	-3
620.100	1	2
620.440	1	5
620.779	1	-3
621.118	1	2
621.458	1	-3
621.797	1	-10
622.136	1	13
622.476	1	-1
622.815	1	0
623.154	1	2
623.494	1	4
623.833	1	5
624.172	1	-2
624.511	1	3
624.851	1	-11
625.190	1	4
625.529	1	2
625.869	1	1
626.208	1	-8
626.547	1	-5
626.886	1	-3
627.226	1	9
627.565	1	-4
627.904	1	-5
628.243	1	1
628.583	1	-1
628.922	1	2
629.261	1	2
629.600	1	2
629.940	1	-4
630.279	1	-5
630.618	1	-5
630.957	1	-12
631.297	1	-2
631.636	1	-8
631.975	1	13
632.314	1	-1
632.653	1	-3
632.993	1	3
633.332	1	1
633.671	1	4
634.010	1	-10
634.349	1	4
634.689	1	2
635.028	1	1
635.367	1	7
635.706	1	-4
636.045	1	5
636.384	1	-2
636.724	1	2
637.063	1	-6
637.402	1	1
637.741	1	3
638.080	1	-1
638.419	1	-3
638.759	1	-13
639.098	1	2
639.437	1	-6
639.776	1	-4
640.115	1	-2
640.454	1	-7
640.793	1	8
641.132	1	3
641.472	1	10
641.811	1	-1
642.150	1	-7
642.489	1	7
642.828	1	-8
643.167	1	1
643.506	1	-14
643.845	1	-3
644.184	1	7
644.524	1	0
644.863	1	-2
645.202	1	-9
645.541	1	4
645.880	1	9
646.219	1	7
646.558	1	4
646.897	1	2
647.236	1	2
647.575	1	1
647.914	1	-5
648.253	1	0
648.592	1	-8
648.931	1	-1
649.270	1	-9
649.610	1	-3
649.949	1	0
650.288	1	4
650.627	1	2
650.966	1	3
651.305	1	-12
651.644	1	8
651.983	1	-1
652.322	1	-4
652.661	1	-5
653.000	1	0
653.339	1	-5
653.678	1	-3
654.017	1	-1
654.356	1	1
654.695	1	3
655.034	1	-2
655.373	1	7
655.712	1	-5
656.051	1	1
656.390	1	-3
656.729	1	1
657.068	1	-6
657.406	1	7
657.745	1	-3
658.084	1	-4
658.423	1	7
658.762	1	0
659.101	1	11
659.440	1	2
659.779	1	-2
660.118	1	7
660.457	1	1
660.796	1	-7
661.135	1	-2
661.474	1	-1
661.813	1	7
662.152	1	1
662.491	1	-6
662.829	1	-1
663.168	1	6
663.507	1	1
663.846	1	0
664.185	1	0
664.524	1	-4
664.863	1	-1
665.202	1	2
665.541	1	-14
665.879	1	-3
666.218	1	0
666.557	1	-9
666.896	1	3
667.235	1	5
667.574	1	4
667.913	1	2
668.251	1	-2
668.590	1	-3
668.929	1	-9
669.268	1	3
669.607	1	-8
669.946	1	-7
670.285	1	13
670.623	1	-2
670.962	1	3
671.301	1	-8
671.640	1	1
671.979	1	-7
672.317	1	0
672.656	1	-4
672.995	1	-3
673.334	1	-11
673.673	1	7
674.011	1	-1
674.350	1	-4
674.689	1	-3
675.028	1	4
675.367	1	0
675.705	1	1
676.044	1	-9
676.383	1	-3
676.722	1	-1
677.060	1	4
677.399	1	-7
677.738	1	2
678.077	1	6
678.416	1	1
678.754	1	-8
679.093	1	7
679.432	1	-1
679.771	1	0
680.109	1	8
680.448	1	5
680.787	1	-4
681.125	1	4
681.464	1	2
681.803	1	-3
682.142	1	8
682.480	1	7
682.819	1	-3
683.158	1	2
683.496	1	-3
683.835	1	8
684.174	1	-8
684.512	1	-3
684.851	1	7
685.190	1	-4
685.529	1	-12
685.867	1	-2
686.206	1	-5
686.545	1	-8
686.883	1	-5
687.222	1	6
687.561	1	10
687.899	1	-6
688.238	1	1
688.577	1	-2
688.746	1	4