File: Data/GaN_200K_800ms/GaN_sample F_spot 12_UVVIS_200 K_200um_800 ms 2x2mm1_67.txt
340.368	1	4
340.710	1	0
341.052	1	9
341.394	1	12
341.737	1	4
342.079	1	2
342.421	1	3
342.763	1	9
343.105	1	-1
343.447	1	5
343.789	1	0
344.131	1	4
344.473	1	-3
344.815	1	3
345.157	1	4
345.499	1	12
345.841	1	14
346.183	1	2
346.526	1	-4
346.868	1	2
347.210	1	-4
347.552	1	4
347.894	1	5
348.236	1	11
348.578	1	4
348.920	1	5
349.262	1	9
349.604	1	12
349.946	1	-2
350.288	1	18
350.630	1	4
350.972	1	5
351.314	1	11
351.656	1	20
351.998	1	9
352.340	1	14
352.682	1	20
353.024	1	19
353.366	1	17
353.708	1	16
354.050	1	7
354.392	1	9
354.734	1	15
355.076	1	18
355.418	1	1
355.760	1	7
356.102	1	23
356.444	1	10
356.785	1	22
357.127	1	14
357.469	1	27
357.811	1	13
358.153	1	27
358.495	1	28
358.837	1	14
359.179	1	28
359.521	1	44
359.863	1	32
360.205	1	35
360.547	1	48
360.889	1	46
361.231	1	48
361.572	1	48
361.914	1	53
362.256	1	50
362.598	1	55
362.940	1	57
363.282	1	74
363.624	1	81
363.966	1	83
364.308	1	95
364.649	1	112
364.991	1	111
365.333	1	113
365.675	1	124
366.017	1	134
366.359	1	146
366.701	1	160
367.042	1	174
367.384	1	174
367.726	1	195
368.068	1	197
368.410	1	228
368.752	1	213
369.093	1	213
369.435	1	220
369.777	1	231
370.119	1	217
370.461	1	220
370.803	1	222
371.144	1	207
371.486	1	205
371.828	1	196
372.170	1	198
372.512	1	166
372.853	1	159
373.195	1	159
373.537	1	146
373.879	1	142
374.220	1	152
374.562	1	143
374.904	1	132
375.246	1	122
375.588	1	123
375.929	1	115
376.271	1	97
376.613	1	92
376.955	1	89
377.296	1	82
377.638	1	95
377.980	1	97
378.321	1	65
378.663	1	71
379.005	1	83
379.347	1	83
379.688	1	71
380.030	1	65
380.372	1	60
380.714	1	58
381.055	1	53
381.397	1	58
381.739	1	53
382.080	1	48
382.422	1	51
382.764	1	48
383.105	1	47
383.447	1	38
383.789	1	36
384.130	1	33
384.472	1	37
384.814	1	37
385.156	1	36
385.497	1	37
385.839	1	40
386.180	1	38
386.522	1	36
386.864	1	32
387.205	1	23
387.547	1	30
387.889	1	28
388.230	1	34
388.572	1	18
388.914	1	24
389.255	1	25
389.597	1	20
389.939	1	24
390.280	1	23
390.622	1	19
390.963	1	32
391.305	1	23
391.647	1	20
391.988	1	26
392.330	1	13
392.671	1	19
393.013	1	18
393.355	1	13
393.696	1	17
394.038	1	17
394.379	1	17
394.721	1	5
395.062	1	9
395.404	1	5
395.746	1	18
396.087	1	10
396.429	1	14
396.770	1	12
397.112	1	14
397.453	1	16
397.795	1	12
398.136	1	3
398.478	1	15
398.819	1	2
399.161	1	22
399.503	1	16
399.844	1	9
400.186	1	12
400.527	1	10
400.869	1	-6
401.210	1	21
401.552	1	-3
401.893	1	9
402.235	1	7
402.576	1	5
402.918	1	25
403.259	1	13
403.601	1	7
403.942	1	15
404.284	1	13
404.625	1	15
404.967	1	6
405.308	1	16
405.649	1	4
405.991	1	4
406.332	1	7
406.674	1	1
407.015	1	11
407.357	1	-1
407.698	1	16
408.040	1	7
408.381	1	7
408.722	1	-3
409.064	1	9
409.405	1	8
409.747	1	9
410.088	1	8
410.430	1	11
410.771	1	10
411.112	1	2
411.454	1	9
411.795	1	-2
412.137	1	17
412.478	1	21
412.819	1	4
413.161	1	0
413.502	1	9
413.844	1	9
414.185	1	1
414.526	1	4
414.868	1	3
415.209	1	-6
415.550	1	4
415.892	1	9
416.233	1	6
416.575	1	21
416.916	1	-5
417.257	1	4
417.599	1	7
417.940	1	15
418.281	1	8
418.623	1	3
418.964	1	-4
419.305	1	16
419.647	1	2
419.988	1	5
420.329	1	-9
420.671	1	17
421.012	1	4
421.353	1	6
421.695	1	-1
422.036	1	11
422.377	1	3
422.718	1	22
423.060	1	9
423.401	1	9
423.742	1	6
424.084	1	5
424.425	1	-4
424.766	1	1
425.107	1	-7
425.449	1	7
425.790	1	-8
426.131	1	6
426.472	1	4
426.814	1	7
427.155	1	-2
427.496	1	-2
427.837	1	0
428.179	1	-5
428.520	1	4
428.861	1	2
429.202	1	2
429.544	1	0
429.885	1	-1
430.226	1	-4
430.567	1	-2
430.909	1	3
431.250	1	4
431.591	1	13
431.932	1	1
432.273	1	1
432.615	1	-6
432.956	1	-9
433.297	1	7
433.638	1	0
433.979	1	8
434.320	1	5
434.662	1	6
435.003	1	4
435.344	1	8
435.685	1	-3
436.026	1	7
436.368	1	11
436.709	1	3
437.050	1	4
437.391	1	16
437.732	1	4
438.073	1	-5
438.414	1	-4
438.756	1	1
439.097	1	-3
439.438	1	-1
439.779	1	6
440.120	1	3
440.461	1	7
440.802	1	-9
441.143	1	15
441.485	1	3
441.826	1	4
442.167	1	9
442.508	1	-5
442.849	1	13
443.190	1	2
443.531	1	9
443.872	1	13
444.213	1	-1
444.554	1	21
444.895	1	0
445.237	1	-2
445.578	1	-9
445.919	1	-3
446.260	1	0
446.601	1	5
446.942	1	-3
447.283	1	2
447.624	1	7
447.965	1	-3
448.306	1	7
448.647	1	-9
448.988	1	-8
449.329	1	3
449.670	1	9
450.011	1	13
450.352	1	1
450.693	1	-6
451.034	1	-4
451.375	1	1
451.716	1	11
452.057	1	3
452.398	1	5
452.739	1	11
453.080	1	8
453.421	1	0
453.762	1	5
454.103	1	-4
454.444	1	-12
454.785	1	-4
455.126	1	2
455.467	1	-6
455.808	1	3
456.149	1	4
456.490	1	8
456.831	1	16
457.172	1	-8
457.513	1	11
457.854	1	3
458.195	1	4
458.536	1	9
458.877	1	-3
459.218	1	0
459.559	1	-1
459.899	1	1
460.240	1	12
460.581	1	15
460.922	1	-1
461.263	1	-1
461.604	1	-3
461.945	1	1
462.286	1	-4
462.627	1	11
462.968	1	8
463.309	1	-4
463.649	1	-7
463.990	1	7
464.331	1	5
464.672	1	5
465.013	1	-4
465.354	1	4
465.695	1	-5
466.036	1	2
466.376	1	-1
466.717	1	1
467.058	1	5
467.399	1	9
467.740	1	8
468.081	1	5
468.422	1	2
468.762	1	-5
469.103	1	-1
469.444	1	2
469.785	1	-8
470.126	1	2
470.467	1	-3
470.807	1	5
471.148	1	8
471.489	1	0
471.830	1	-2
472.171	1	2
472.511	1	-1
472.852	1	8
473.193	1	2
473.534	1	12
473.875	1	12
474.215	1	9
474.556	1	-1
474.897	1	9
475.238	1	5
475.578	1	-2
475.919	1	6
476.260	1	9
476.601	1	-1
476.942	1	9
477.282	1	5
477.623	1	-9
477.964	1	-2
478.305	1	6
478.645	1	18
478.986	1	-5
479.327	1	-13
479.667	1	8
480.008	1	5
480.349	1	3
480.690	1	5
481.030	1	-4
481.371	1	2
481.712	1	7
482.053	1	7
482.393	1	2
482.734	1	4
483.075	1	-6
483.415	1	14
483.756	1	3
484.097	1	4
484.437	1	7
484.778	1	13
485.119	1	0
485.459	1	11
485.800	1	3
486.141	1	4
486.481	1	13
486.822	1	4
487.163	1	5
487.503	1	3
487.844	1	2
488.185	1	13
488.525	1	10
488.866	1	3
489.207	1	3
489.547	1	10
489.888	1	13
490.228	1	15
490.569	1	11
490.910	1	5
491.250	1	-2
491.591	1	7
491.932	1	6
492.272	1	5
492.613	1	3
492.953	1	8
493.294	1	2
493.635	1	7
493.975	1	11
494.316	1	4
494.656	1	5
494.997	1	1
495.337	1	10
495.678	1	12
496.019	1	3
496.359	1	1
496.700	1	14
497.040	1	11
497.381	1	3
497.721	1	7
498.062	1	2
498.403	1	10
498.743	1	7
499.084	1	6
499.424	1	4
499.765	1	0
500.105	1	6
500.446	1	6
500.786	1	-1
501.127	1	14
501.467	1	4
501.808	1	6
502.148	1	16
502.489	1	0
502.829	1	10
503.170	1	19
503.510	1	24
503.851	1	4
504.191	1	17
504.532	1	14
504.872	1	11
505.213	1	21
505.553	1	-3
505.894	1	8
506.234	1	23
506.575	1	8
506.915	1	11
507.256	1	11
507.596	1	3
507.936	1	12
508.277	1	13
508.617	1	15
508.958	1	3
509.298	1	5
509.639	1	17
509.979	1	8
510.319	1	13
510.660	1	20
511.000	1	5
511.341	1	12
511.681	1	11
512.022	1	2
512.362	1	6
512.702	1	9
513.043	1	18
513.383	1	14
513.724	1	10
514.064	1	19
514.404	1	11
514.745	1	4
515.085	1	12
515.425	1	9
515.766	1	18
516.106	1	7
516.447	1	22
516.787	1	10
517.127	1	17
517.468	1	13
517.808	1	3
518.148	1	17
518.489	1	11
518.829	1	16
519.169	1	14
519.510	1	10
519.850	1	18
520.190	1	13
520.531	1	18
520.871	1	11
521.211	1	3
521.552	1	8
521.892	1	17
522.232	1	14
522.573	1	13
522.913	1	20
523.253	1	11
523.593	1	19
523.934	1	16
524.274	1	13
524.614	1	17
524.955	1	7
525.295	1	14
525.635	1	17
525.975	1	17
526.316	1	19
526.656	1	8
526.996	1	18
527.337	1	2
527.677	1	14
528.017	1	3
528.357	1	23
528.698	1	14
529.038	1	18
529.378	1	21
529.718	1	22
530.058	1	15
530.399	1	21
530.739	1	11
531.079	1	22
531.419	1	27
531.760	1	24
532.100	1	13
532.440	1	18
532.780	1	21
533.120	1	25
533.461	1	15
533.801	1	42
534.141	1	12
534.481	1	12
534.821	1	30
535.162	1	18
535.502	1	13
535.842	1	25
536.182	1	19
536.522	1	13
536.862	1	28
537.203	1	17
537.543	1	19
537.883	1	14
538.223	1	27
538.563	1	16
538.903	1	2
539.243	1	13
539.584	1	14
539.924	1	25
540.264	1	8
540.604	1	12
540.944	1	14
541.284	1	21
541.624	1	19
541.964	1	29
542.305	1	20
542.645	1	22
542.985	1	27
543.325	1	16
543.665	1	29
544.005	1	32
544.345	1	24
544.685	1	13
545.025	1	16
545.365	1	17
545.705	1	10
546.045	1	19
546.386	1	29
546.726	1	9
547.066	1	11
547.406	1	23
547.746	1	17
548.086	1	20
548.426	1	6
548.766	1	28
549.106	1	24
549.446	1	24
549.786	1	20
550.126	1	35
550.466	1	20
550.806	1	17
551.146	1	29
551.486	1	21
551.826	1	31
552.166	1	26
552.506	1	34
552.846	1	27
553.186	1	31
553.526	1	23
553.866	1	18
554.206	1	31
554.546	1	30
554.886	1	37
555.226	1	15
555.566	1	30
555.906	1	25
556.246	1	27
556.586	1	23
556.926	1	21
557.266	1	20
557.606	1	27
557.946	1	23
558.286	1	21
558.626	1	26
558.966	1	18
559.306	1	22
559.646	1	18
559.986	1	20
560.325	1	20
560.665	1	26
561.005	1	23
561.345	1	24
561.685	1	23
562.025	1	22
562.365	1	28
562.705	1	17
563.045	1	27
563.385	1	15
563.725	1	23
564.064	1	23
564.404	1	28
564.744	1	23
565.084	1	32
565.424	1	13
565.764	1	19
566.104	1	27
566.444	1	22
566.783	1	30
567.123	1	26
567.463	1	21
567.803	1	19
568.143	1	14
568.483	1	30
568.823	1	24
569.162	1	27
569.502	1	20
569.842	1	25
570.182	1	17
570.522	1	13
570.862	1	18
571.201	1	27
571.541	1	31
571.881	1	38
572.221	1	16
572.561	1	17
572.900	1	19
573.240	1	25
573.580	1	29
573.920	1	31
574.260	1	31
574.599	1	25
574.939	1	28
575.279	1	33
575.619	1	29
575.959	1	16
576.298	1	25
576.638	1	13
576.978	1	33
577.318	1	15
577.657	1	14
577.997	1	15
578.337	1	36
578.677	1	13
579.016	1	28
579.356	1	14
579.696	1	26
580.036	1	20
580.375	1	23
580.715	1	17
581.055	1	18
581.394	1	13
581.734	1	11
582.074	1	21
582.414	1	24
582.753	1	10
583.093	1	18
583.433	1	14
583.772	1	29
584.112	1	21
584.452	1	18
584.791	1	15
585.131	1	31
585.471	1	24
585.811	1	19
586.150	1	12
586.490	1	23
586.830	1	15
587.169	1	22
587.509	1	29
587.849	1	26
588.188	1	24
588.528	1	23
588.867	1	25
589.207	1	28
589.547	1	21
589.886	1	9
590.226	1	18
590.566	1	20
590.905	1	21
591.245	1	12
591.585	1	36
591.924	1	12
592.264	1	20
592.603	1	38
592.943	1	22
593.283	1	11
593.622	1	17
593.962	1	19
594.301	1	34
594.641	1	4
594.981	1	8
595.320	1	13
595.660	1	13
595.999	1	3
596.339	1	17
596.678	1	25
597.018	1	4
597.358	1	20
597.697	1	14
598.037	1	16
598.376	1	23
598.716	1	18
599.055	1	24
599.395	1	15
599.734	1	18
600.074	1	20
600.413	1	25
600.753	1	22
601.092	1	43
601.432	1	7
601.771	1	18
602.111	1	13
602.451	1	21
602.790	1	10
603.130	1	24
603.469	1	16
603.809	1	25
604.148	1	19
604.487	1	23
604.827	1	16
605.166	1	18
605.506	1	13
605.845	1	21
606.185	1	18
606.524	1	11
606.864	1	18
607.203	1	18
607.543	1	18
607.882	1	21
608.222	1	20
608.561	1	20
608.901	1	16
609.240	1	17
609.579	1	29
609.919	1	21
610.258	1	26
610.598	1	16
610.937	1	12
611.277	1	20
611.616	1	14
611.955	1	17
612.295	1	10
612.634	1	19
612.974	1	9
613.313	1	28
613.652	1	18
613.992	1	8
614.331	1	5
614.671	1	23
615.010	1	10
615.349	1	14
615.689	1	20
616.028	1	22
616.368	1	17
616.707	1	20
617.046	1	13
617.386	1	20
617.725	1	5
618.064	1	7
618.404	1	16
618.743	1	11
619.082	1	16
619.422	1	3
619.761	1	21
620.100	1	29
620.440	1	13
620.779	1	3
621.118	1	7
621.458	1	13
621.797	1	16
622.136	1	22
622.476	1	16
622.815	1	17
623.154	1	17
623.494	1	22
623.833	1	10
624.172	1	11
624.511	1	12
624.851	1	0
625.190	1	14
625.529	1	17
625.869	1	17
626.208	1	5
626.547	1	15
626.886	1	12
627.226	1	15
627.565	1	6
627.904	1	2
628.243	1	15
628.583	1	12
628.922	1	19
629.261	1	20
629.600	1	22
629.940	1	10
630.279	1	4
630.618	1	5
630.957	1	8
631.297	1	12
631.636	1	2
631.975	1	18
632.314	1	17
632.653	1	14
632.993	1	3
633.332	1	9
633.671	1	7
634.010	1	9
634.349	1	17
634.689	1	16
635.028	1	9
635.367	1	5
635.706	1	17
636.045	1	26
636.384	1	10
636.724	1	1
637.063	1	5
637.402	1	14
637.741	1	14
638.080	1	7
638.419	1	3
638.759	1	4
639.098	1	12
639.437	1	8
639.776	1	9
640.115	1	9
640.454	1	-3
640.793	1	10
641.132	1	13
641.472	1	14
641.811	1	10
642.150	1	0
642.489	1	15
642.828	1	3
643.167	1	-1
643.506	1	5
643.845	1	1
644.184	1	10
644.524	1	2
644.863	1	-4
645.202	1	14
645.541	1	6
645.880	1	10
646.219	1	4
646.558	1	10
646.897	1	13
647.236	1	16
647.575	1	17
647.914	1	3
648.253	1	14
648.592	1	9
648.931	1	15
649.270	1	5
649.610	1	11
649.949	1	12
650.288	1	15
650.627	1	7
650.966	1	15
651.305	1	8
651.644	1	22
651.983	1	7
652.322	1	7
652.661	1	8
653.000	1	6
653.339	1	18
653.678	1	12
654.017	1	7
654.356	1	-7
654.695	1	15
655.034	1	23
655.373	1	17
655.712	1	11
656.051	1	11
656.390	1	2
656.729	1	15
657.068	1	15
657.406	1	9
657.745	1	9
658.084	1	14
658.423	1	13
658.762	1	6
659.101	1	30
659.440	1	9
659.779	1	8
660.118	1	11
660.457	1	1
660.796	1	-10
661.135	1	-3
661.474	1	-5
661.813	1	16
662.152	1	13
662.491	1	0
662.829	1	-4
663.168	1	5
663.507	1	15
663.846	1	5
664.185	1	4
664.524	1	8
664.863	1	6
665.202	1	19
665.541	1	-6
665.879	1	-2
666.218	1	0
666.557	1	5
666.896	1	2
667.235	1	11
667.574	1	11
667.913	1	11
668.251	1	1
668.590	1	6
668.929	1	-5
669.268	1	13
669.607	1	0
669.946	1	10
670.285	1	9
670.623	1	16
670.962	1	3
671.301	1	12
671.640	1	8
671.979	1	4
672.317	1	12
672.656	1	2
672.995	1	3
673.334	1	4
673.673	1	5
674.011	1	6
674.350	1	10
674.689	1	5
675.028	1	3
675.367	1	10
675.705	1	12
676.044	1	7
676.383	1	-1
676.722	1	7
677.060	1	-4
677.399	1	7
677.738	1	13
678.077	1	12
678.416	1	11
678.754	1	11
679.093	1	16
679.432	1	4
679.771	1	14
680.109	1	15
680.448	1	13
680.787	1	7
681.125	1	6
681.464	1	7
681.803	1	9
682.142	1	15
682.480	1	26
682.819	1	4
683.158	1	12
683.496	1	4
683.835	1	9
684.174	1	6
684.512	1	12
684.851	1	13
685.190	1	7
685.529	1	6
685.867	1	8
686.206	1	8
686.545	1	-1
686.883	1	11
687.222	1	14
687.561	1	19
687.899	1	9
688.238	1	14
688.577	1	15
688.746	1	14