File: Data/GaN_200K_800ms/GaN_sample F_spot 12_UVVIS_200 K_200um_800 ms 2x2mm1_187.txt
340.368	1	5
340.710	1	-5
341.052	1	5
341.394	1	-3
341.737	1	-1
342.079	1	1
342.421	1	1
342.763	1	2
343.105	1	7
343.447	1	-8
343.789	1	1
344.131	1	-2
344.473	1	-9
344.815	1	-4
345.157	1	-9
345.499	1	2
345.841	1	4
346.183	1	0
346.526	1	-5
346.868	1	5
347.210	1	-1
347.552	1	0
347.894	1	3
348.236	1	9
348.578	1	1
348.920	1	8
349.262	1	-3
349.604	1	1
349.946	1	-4
350.288	1	10
350.630	1	3
350.972	1	8
351.314	1	0
351.656	1	0
351.998	1	6
352.340	1	9
352.682	1	8
353.024	1	1
353.366	1	5
353.708	1	-1
354.050	1	-6
354.392	1	3
354.734	1	14
355.076	1	5
355.418	1	-7
355.760	1	-5
356.102	1	13
356.444	1	6
356.785	1	7
357.127	1	11
357.469	1	9
357.811	1	9
358.153	1	14
358.495	1	9
358.837	1	-3
359.179	1	-2
359.521	1	12
359.863	1	9
360.205	1	6
360.547	1	8
360.889	1	4
361.231	1	3
361.572	1	12
361.914	1	16
362.256	1	7
362.598	1	9
362.940	1	3
363.282	1	17
363.624	1	22
363.966	1	15
364.308	1	10
364.649	1	13
364.991	1	29
365.333	1	13
365.675	1	14
366.017	1	26
366.359	1	25
366.701	1	26
367.042	1	26
367.384	1	36
367.726	1	33
368.068	1	27
368.410	1	49
368.752	1	37
369.093	1	23
369.435	1	37
369.777	1	32
370.119	1	40
370.461	1	46
370.803	1	41
371.144	1	29
371.486	1	45
371.828	1	37
372.170	1	49
372.512	1	25
372.853	1	26
373.195	1	22
373.537	1	33
373.879	1	30
374.220	1	39
374.562	1	31
374.904	1	15
375.246	1	32
375.588	1	27
375.929	1	15
376.271	1	27
376.613	1	24
376.955	1	12
377.296	1	12
377.638	1	29
377.980	1	21
378.321	1	4
378.663	1	14
379.005	1	20
379.347	1	10
379.688	1	17
380.030	1	4
380.372	1	9
380.714	1	6
381.055	1	11
381.397	1	3
381.739	1	17
382.080	1	3
382.422	1	7
382.764	1	8
383.105	1	4
383.447	1	7
383.789	1	0
384.130	1	2
384.472	1	2
384.814	1	4
385.156	1	0
385.497	1	12
385.839	1	-2
386.180	1	9
386.522	1	14
386.864	1	10
387.205	1	2
387.547	1	0
387.889	1	2
388.230	1	13
388.572	1	5
388.914	1	4
389.255	1	-3
389.597	1	9
389.939	1	4
390.280	1	-1
390.622	1	0
390.963	1	12
391.305	1	9
391.647	1	1
391.988	1	9
392.330	1	10
392.671	1	13
393.013	1	-1
393.355	1	4
393.696	1	9
394.038	1	0
394.379	1	9
394.721	1	-7
395.062	1	4
395.404	1	-3
395.746	1	17
396.087	1	-2
396.429	1	-5
396.770	1	-5
397.112	1	11
397.453	1	11
397.795	1	-2
398.136	1	-13
398.478	1	4
398.819	1	5
399.161	1	14
399.503	1	9
399.844	1	5
400.186	1	-5
400.527	1	-4
400.869	1	-5
401.210	1	7
401.552	1	-8
401.893	1	-5
402.235	1	2
402.576	1	4
402.918	1	10
403.259	1	7
403.601	1	-4
403.942	1	8
404.284	1	13
404.625	1	9
404.967	1	2
405.308	1	3
405.649	1	-4
405.991	1	-3
406.332	1	10
406.674	1	-1
407.015	1	6
407.357	1	-5
407.698	1	5
408.040	1	-9
408.381	1	3
408.722	1	-6
409.064	1	7
409.405	1	9
409.747	1	5
410.088	1	7
410.430	1	2
410.771	1	11
411.112	1	-4
411.454	1	-8
411.795	1	-6
412.137	1	1
412.478	1	10
412.819	1	-2
413.161	1	0
413.502	1	-5
413.844	1	-3
414.185	1	10
414.526	1	7
414.868	1	5
415.209	1	1
415.550	1	-9
415.892	1	-2
416.233	1	6
416.575	1	15
416.916	1	-1
417.257	1	-1
417.599	1	8
417.940	1	13
418.281	1	7
418.623	1	-4
418.964	1	-2
419.305	1	6
419.647	1	-4
419.988	1	2
420.329	1	-10
420.671	1	13
421.012	1	5
421.353	1	-1
421.695	1	5
422.036	1	7
422.377	1	-4
422.718	1	4
423.060	1	-8
423.401	1	3
423.742	1	9
424.084	1	7
424.425	1	-2
424.766	1	-1
425.107	1	-6
425.449	1	3
425.790	1	-6
426.131	1	6
426.472	1	3
426.814	1	-4
427.155	1	-6
427.496	1	-5
427.837	1	5
428.179	1	-13
428.520	1	-1
428.861	1	-3
429.202	1	-5
429.544	1	-1
429.885	1	-2
430.226	1	-9
430.567	1	5
430.909	1	1
431.250	1	1
431.591	1	7
431.932	1	1
432.273	1	-1
432.615	1	2
432.956	1	-1
433.297	1	5
433.638	1	2
433.979	1	8
434.320	1	7
434.662	1	-1
435.003	1	-5
435.344	1	-4
435.685	1	7
436.026	1	1
436.368	1	10
436.709	1	-1
437.050	1	-1
437.391	1	8
437.732	1	-9
438.073	1	5
438.414	1	-2
438.756	1	-1
439.097	1	-4
439.438	1	-5
439.779	1	0
440.120	1	-4
440.461	1	-4
440.802	1	0
441.143	1	3
441.485	1	6
441.826	1	-2
442.167	1	5
442.508	1	-2
442.849	1	7
443.190	1	10
443.531	1	11
443.872	1	3
444.213	1	1
444.554	1	7
444.895	1	-1
445.237	1	0
445.578	1	-16
445.919	1	-6
446.260	1	0
446.601	1	-7
446.942	1	0
447.283	1	-5
447.624	1	6
447.965	1	2
448.306	1	7
448.647	1	-1
448.988	1	0
449.329	1	-4
449.670	1	9
450.011	1	3
450.352	1	-7
450.693	1	-8
451.034	1	-9
451.375	1	2
451.716	1	-1
452.057	1	-1
452.398	1	-2
452.739	1	8
453.080	1	-4
453.421	1	1
453.762	1	6
454.103	1	-3
454.444	1	-9
454.785	1	-5
455.126	1	-9
455.467	1	4
455.808	1	-3
456.149	1	2
456.490	1	-1
456.831	1	-2
457.172	1	0
457.513	1	10
457.854	1	8
458.195	1	3
458.536	1	0
458.877	1	-6
459.218	1	-2
459.559	1	1
459.899	1	-3
460.240	1	-3
460.581	1	14
460.922	1	6
461.263	1	-1
461.604	1	-5
461.945	1	2
462.286	1	8
462.627	1	3
462.968	1	3
463.309	1	-5
463.649	1	2
463.990	1	-5
464.331	1	-5
464.672	1	-1
465.013	1	-5
465.354	1	7
465.695	1	-4
466.036	1	7
466.376	1	-12
466.717	1	1
467.058	1	1
467.399	1	3
467.740	1	3
468.081	1	5
468.422	1	-4
468.762	1	-11
469.103	1	-8
469.444	1	-6
469.785	1	-7
470.126	1	-8
470.467	1	7
470.807	1	7
471.148	1	4
471.489	1	-5
471.830	1	3
472.171	1	8
472.511	1	-4
472.852	1	5
473.193	1	11
473.534	1	7
473.875	1	20
474.215	1	-2
474.556	1	-9
474.897	1	4
475.238	1	3
475.578	1	-6
475.919	1	1
476.260	1	-3
476.601	1	5
476.942	1	9
477.282	1	-6
477.623	1	-7
477.964	1	-1
478.305	1	-5
478.645	1	8
478.986	1	1
479.327	1	-2
479.667	1	3
480.008	1	-1
480.349	1	-4
480.690	1	-3
481.030	1	1
481.371	1	0
481.712	1	-2
482.053	1	2
482.393	1	-2
482.734	1	-7
483.075	1	-1
483.415	1	2
483.756	1	11
484.097	1	1
484.437	1	-3
484.778	1	-6
485.119	1	3
485.459	1	16
485.800	1	-5
486.141	1	-3
486.481	1	4
486.822	1	9
487.163	1	-6
487.503	1	-7
487.844	1	1
488.185	1	6
488.525	1	-4
488.866	1	0
489.207	1	-1
489.547	1	-3
489.888	1	-4
490.228	1	5
490.569	1	12
490.910	1	3
491.250	1	2
491.591	1	0
491.932	1	-4
492.272	1	11
492.613	1	-2
492.953	1	-9
493.294	1	-6
493.635	1	6
493.975	1	-2
494.316	1	3
494.656	1	4
494.997	1	-4
495.337	1	14
495.678	1	-1
496.019	1	-3
496.359	1	-4
496.700	1	2
497.040	1	-10
497.381	1	-4
497.721	1	1
498.062	1	-1
498.403	1	0
498.743	1	3
499.084	1	2
499.424	1	2
499.765	1	11
500.105	1	3
500.446	1	-12
500.786	1	-7
501.127	1	2
501.467	1	-2
501.808	1	0
502.148	1	1
502.489	1	8
502.829	1	2
503.170	1	8
503.510	1	7
503.851	1	8
504.191	1	3
504.532	1	11
504.872	1	1
505.213	1	11
505.553	1	-12
505.894	1	-6
506.234	1	16
506.575	1	1
506.915	1	9
507.256	1	3
507.596	1	4
507.936	1	5
508.277	1	6
508.617	1	1
508.958	1	-12
509.298	1	6
509.639	1	-2
509.979	1	2
510.319	1	11
510.660	1	7
511.000	1	-6
511.341	1	3
511.681	1	8
512.022	1	-3
512.362	1	-1
512.702	1	-2
513.043	1	4
513.383	1	-2
513.724	1	1
514.064	1	4
514.404	1	1
514.745	1	0
515.085	1	1
515.425	1	-4
515.766	1	-11
516.106	1	0
516.447	1	14
516.787	1	4
517.127	1	6
517.468	1	-1
517.808	1	5
518.148	1	4
518.489	1	-11
518.829	1	15
519.169	1	0
519.510	1	-7
519.850	1	5
520.190	1	-1
520.531	1	6
520.871	1	-2
521.211	1	-12
521.552	1	13
521.892	1	3
522.232	1	6
522.573	1	-5
522.913	1	5
523.253	1	0
523.593	1	2
523.934	1	11
524.274	1	7
524.614	1	-3
524.955	1	-1
525.295	1	5
525.635	1	-2
525.975	1	4
526.316	1	10
526.656	1	-2
526.996	1	7
527.337	1	1
527.677	1	2
528.017	1	-2
528.357	1	5
528.698	1	0
529.038	1	-3
529.378	1	4
529.718	1	8
530.058	1	7
530.399	1	14
530.739	1	1
531.079	1	8
531.419	1	0
531.760	1	3
532.100	1	0
532.440	1	-4
532.780	1	4
533.120	1	4
533.461	1	5
533.801	1	11
534.141	1	-6
534.481	1	-4
534.821	1	9
535.162	1	1
535.502	1	-5
535.842	1	6
536.182	1	2
536.522	1	-1
536.862	1	7
537.203	1	-1
537.543	1	-2
537.883	1	2
538.223	1	1
538.563	1	-1
538.903	1	-3
539.243	1	0
539.584	1	-4
539.924	1	9
540.264	1	1
540.604	1	2
540.944	1	2
541.284	1	13
541.624	1	11
541.964	1	15
542.305	1	9
542.645	1	5
542.985	1	4
543.325	1	0
543.665	1	13
544.005	1	4
544.345	1	8
544.685	1	3
545.025	1	-3
545.365	1	-4
545.705	1	-5
546.045	1	-12
546.386	1	-2
546.726	1	-6
547.066	1	-6
547.406	1	6
547.746	1	-1
548.086	1	7
548.426	1	-3
548.766	1	-2
549.106	1	5
549.446	1	3
549.786	1	-4
550.126	1	7
550.466	1	-9
550.806	1	1
551.146	1	2
551.486	1	-3
551.826	1	8
552.166	1	0
552.506	1	13
552.846	1	1
553.186	1	5
553.526	1	4
553.866	1	4
554.206	1	10
554.546	1	11
554.886	1	21
555.226	1	-6
555.566	1	12
555.906	1	4
556.246	1	4
556.586	1	7
556.926	1	4
557.266	1	-3
557.606	1	8
557.946	1	16
558.286	1	2
558.626	1	10
558.966	1	3
559.306	1	-1
559.646	1	-3
559.986	1	-2
560.325	1	4
560.665	1	0
561.005	1	-7
561.345	1	-2
561.685	1	0
562.025	1	-4
562.365	1	4
562.705	1	0
563.045	1	7
563.385	1	-13
563.725	1	8
564.064	1	9
564.404	1	13
564.744	1	9
565.084	1	-7
565.424	1	4
565.764	1	1
566.104	1	8
566.444	1	-7
566.783	1	2
567.123	1	5
567.463	1	6
567.803	1	-6
568.143	1	5
568.483	1	6
568.823	1	-4
569.162	1	12
569.502	1	2
569.842	1	8
570.182	1	5
570.522	1	-6
570.862	1	6
571.201	1	2
571.541	1	8
571.881	1	7
572.221	1	-8
572.561	1	1
572.900	1	-3
573.240	1	-2
573.580	1	3
573.920	1	8
574.260	1	14
574.599	1	6
574.939	1	2
575.279	1	11
575.619	1	10
575.959	1	0
576.298	1	10
576.638	1	-3
576.978	1	11
577.318	1	0
577.657	1	2
577.997	1	5
578.337	1	14
578.677	1	2
579.016	1	0
579.356	1	3
579.696	1	6
580.036	1	-4
580.375	1	8
580.715	1	2
581.055	1	5
581.394	1	-5
581.734	1	-3
582.074	1	0
582.414	1	14
582.753	1	-2
583.093	1	7
583.433	1	-3
583.772	1	6
584.112	1	-2
584.452	1	3
584.791	1	-5
585.131	1	10
585.471	1	3
585.811	1	6
586.150	1	0
586.490	1	16
586.830	1	-1
587.169	1	7
587.509	1	1
587.849	1	5
588.188	1	4
588.528	1	8
588.867	1	5
589.207	1	4
589.547	1	-3
589.886	1	-6
590.226	1	10
590.566	1	4
590.905	1	1
591.245	1	0
591.585	1	5
591.924	1	-2
592.264	1	7
592.603	1	-1
592.943	1	7
593.283	1	0
593.622	1	2
593.962	1	4
594.301	1	-2
594.641	1	-2
594.981	1	-8
595.320	1	7
595.660	1	5
595.999	1	-1
596.339	1	12
596.678	1	-3
597.018	1	1
597.358	1	9
597.697	1	-4
598.037	1	4
598.376	1	8
598.716	1	8
599.055	1	0
599.395	1	0
599.734	1	5
600.074	1	1
600.413	1	11
600.753	1	3
601.092	1	10
601.432	1	0
601.771	1	9
602.111	1	11
602.451	1	14
602.790	1	9
603.130	1	9
603.469	1	1
603.809	1	6
604.148	1	8
604.487	1	-3
604.827	1	9
605.166	1	7
605.506	1	5
605.845	1	7
606.185	1	10
606.524	1	-3
606.864	1	9
607.203	1	1
607.543	1	-2
607.882	1	5
608.222	1	3
608.561	1	-2
608.901	1	-6
609.240	1	-9
609.579	1	15
609.919	1	15
610.258	1	14
610.598	1	-2
610.937	1	1
611.277	1	10
611.616	1	-4
611.955	1	-3
612.295	1	1
612.634	1	1
612.974	1	-2
613.313	1	7
613.652	1	2
613.992	1	4
614.331	1	-1
614.671	1	4
615.010	1	-2
615.349	1	16
615.689	1	10
616.028	1	-2
616.368	1	4
616.707	1	-5
617.046	1	1
617.386	1	4
617.725	1	-1
618.064	1	-3
618.404	1	4
618.743	1	7
619.082	1	-3
619.422	1	-5
619.761	1	-4
620.100	1	10
620.440	1	1
620.779	1	-1
621.118	1	-7
621.458	1	2
621.797	1	-12
622.136	1	11
622.476	1	7
622.815	1	8
623.154	1	8
623.494	1	18
623.833	1	6
624.172	1	6
624.511	1	8
624.851	1	-14
625.190	1	2
625.529	1	3
625.869	1	9
626.208	1	5
626.547	1	3
626.886	1	3
627.226	1	2
627.565	1	5
627.904	1	-2
628.243	1	6
628.583	1	-2
628.922	1	3
629.261	1	9
629.600	1	13
629.940	1	7
630.279	1	-15
630.618	1	2
630.957	1	-4
631.297	1	8
631.636	1	-7
631.975	1	-2
632.314	1	0
632.653	1	-2
632.993	1	2
633.332	1	4
633.671	1	-10
634.010	1	-2
634.349	1	11
634.689	1	8
635.028	1	10
635.367	1	1
635.706	1	4
636.045	1	9
636.384	1	-10
636.724	1	-2
637.063	1	-5
637.402	1	-5
637.741	1	-1
638.080	1	-3
638.419	1	-2
638.759	1	-2
639.098	1	1
639.437	1	-2
639.776	1	4
640.115	1	0
640.454	1	3
640.793	1	10
641.132	1	9
641.472	1	6
641.811	1	0
642.150	1	-9
642.489	1	9
642.828	1	-8
643.167	1	-2
643.506	1	-6
643.845	1	5
644.184	1	2
644.524	1	-1
644.863	1	-7
645.202	1	-2
645.541	1	2
645.880	1	-2
646.219	1	6
646.558	1	-1
646.897	1	3
647.236	1	2
647.575	1	7
647.914	1	-3
648.253	1	4
648.592	1	3
648.931	1	10
649.270	1	3
649.610	1	1
649.949	1	-3
650.288	1	1
650.627	1	-1
650.966	1	2
651.305	1	4
651.644	1	19
651.983	1	9
652.322	1	-3
652.661	1	2
653.000	1	2
653.339	1	9
653.678	1	10
654.017	1	2
654.356	1	-6
654.695	1	7
655.034	1	10
655.373	1	-1
655.712	1	6
656.051	1	6
656.390	1	3
656.729	1	14
657.068	1	4
657.406	1	6
657.745	1	3
658.084	1	0
658.423	1	18
658.762	1	3
659.101	1	9
659.440	1	5
659.779	1	9
660.118	1	-2
660.457	1	0
660.796	1	-2
661.135	1	1
661.474	1	2
661.813	1	17
662.152	1	8
662.491	1	-7
662.829	1	-5
663.168	1	0
663.507	1	7
663.846	1	-1
664.185	1	14
664.524	1	-3
664.863	1	-7
665.202	1	1
665.541	1	-6
665.879	1	-10
666.218	1	-5
666.557	1	0
666.896	1	-1
667.235	1	9
667.574	1	-4
667.913	1	11
668.251	1	-7
668.590	1	7
668.929	1	-10
669.268	1	-9
669.607	1	-5
669.946	1	-3
670.285	1	8
670.623	1	3
670.962	1	9
671.301	1	-3
671.640	1	7
671.979	1	-3
672.317	1	10
672.656	1	-5
672.995	1	1
673.334	1	-6
673.673	1	6
674.011	1	-5
674.350	1	-5
674.689	1	3
675.028	1	3
675.367	1	3
675.705	1	3
676.044	1	3
676.383	1	4
676.722	1	5
677.060	1	1
677.399	1	0
677.738	1	7
678.077	1	2
678.416	1	-2
678.754	1	-13
679.093	1	6
679.432	1	-5
679.771	1	1
680.109	1	4
680.448	1	2
680.787	1	-2
681.125	1	13
681.464	1	1
681.803	1	2
682.142	1	14
682.480	1	5
682.819	1	-4
683.158	1	-4
683.496	1	8
683.835	1	2
684.174	1	6
684.512	1	3
684.851	1	11
685.190	1	4
685.529	1	-2
685.867	1	-3
686.206	1	-17
686.545	1	-2
686.883	1	-2
687.222	1	9
687.561	1	5
687.899	1	2
688.238	1	9
688.577	1	5
688.746	1	-2