File: Data/GaN_200K_800ms/GaN_sample F_spot 12_UVVIS_200 K_200um_800 ms 2x2mm1_109.txt
340.368	1	9
340.710	1	-3
341.052	1	6
341.394	1	2
341.737	1	13
342.079	1	-5
342.421	1	-2
342.763	1	15
343.105	1	6
343.447	1	-4
343.789	1	2
344.131	1	5
344.473	1	-9
344.815	1	-1
345.157	1	-3
345.499	1	8
345.841	1	10
346.183	1	2
346.526	1	-7
346.868	1	8
347.210	1	-3
347.552	1	-8
347.894	1	8
348.236	1	8
348.578	1	11
348.920	1	3
349.262	1	5
349.604	1	7
349.946	1	2
350.288	1	13
350.630	1	13
350.972	1	9
351.314	1	13
351.656	1	9
351.998	1	10
352.340	1	10
352.682	1	8
353.024	1	8
353.366	1	18
353.708	1	4
354.050	1	-8
354.392	1	-2
354.734	1	9
355.076	1	12
355.418	1	4
355.760	1	3
356.102	1	27
356.444	1	8
356.785	1	11
357.127	1	10
357.469	1	8
357.811	1	7
358.153	1	20
358.495	1	13
358.837	1	5
359.179	1	11
359.521	1	20
359.863	1	18
360.205	1	13
360.547	1	14
360.889	1	9
361.231	1	15
361.572	1	24
361.914	1	33
362.256	1	28
362.598	1	15
362.940	1	23
363.282	1	37
363.624	1	36
363.966	1	33
364.308	1	41
364.649	1	48
364.991	1	36
365.333	1	52
365.675	1	40
366.017	1	51
366.359	1	55
366.701	1	69
367.042	1	58
367.384	1	70
367.726	1	64
368.068	1	81
368.410	1	102
368.752	1	73
369.093	1	70
369.435	1	83
369.777	1	88
370.119	1	83
370.461	1	99
370.803	1	79
371.144	1	69
371.486	1	80
371.828	1	75
372.170	1	85
372.512	1	56
372.853	1	68
373.195	1	65
373.537	1	57
373.879	1	49
374.220	1	78
374.562	1	66
374.904	1	56
375.246	1	54
375.588	1	50
375.929	1	41
376.271	1	43
376.613	1	40
376.955	1	39
377.296	1	36
377.638	1	36
377.980	1	39
378.321	1	27
378.663	1	35
379.005	1	43
379.347	1	36
379.688	1	36
380.030	1	25
380.372	1	25
380.714	1	30
381.055	1	29
381.397	1	25
381.739	1	34
382.080	1	30
382.422	1	22
382.764	1	13
383.105	1	15
383.447	1	19
383.789	1	15
384.130	1	12
384.472	1	16
384.814	1	14
385.156	1	8
385.497	1	22
385.839	1	10
386.180	1	9
386.522	1	16
386.864	1	23
387.205	1	7
387.547	1	10
387.889	1	6
388.230	1	15
388.572	1	3
388.914	1	10
389.255	1	4
389.597	1	16
389.939	1	8
390.280	1	18
390.622	1	9
390.963	1	17
391.305	1	16
391.647	1	15
391.988	1	19
392.330	1	12
392.671	1	9
393.013	1	11
393.355	1	16
393.696	1	8
394.038	1	7
394.379	1	7
394.721	1	7
395.062	1	7
395.404	1	-4
395.746	1	9
396.087	1	2
396.429	1	9
396.770	1	6
397.112	1	22
397.453	1	13
397.795	1	4
398.136	1	1
398.478	1	5
398.819	1	10
399.161	1	20
399.503	1	8
399.844	1	7
400.186	1	-1
400.527	1	6
400.869	1	3
401.210	1	11
401.552	1	-9
401.893	1	3
402.235	1	0
402.576	1	1
402.918	1	10
403.259	1	17
403.601	1	-7
403.942	1	15
404.284	1	12
404.625	1	15
404.967	1	2
405.308	1	4
405.649	1	2
405.991	1	1
406.332	1	0
406.674	1	1
407.015	1	7
407.357	1	-3
407.698	1	12
408.040	1	4
408.381	1	9
408.722	1	-9
409.064	1	5
409.405	1	4
409.747	1	7
410.088	1	5
410.430	1	13
410.771	1	4
411.112	1	-2
411.454	1	-3
411.795	1	2
412.137	1	9
412.478	1	16
412.819	1	17
413.161	1	3
413.502	1	0
413.844	1	-6
414.185	1	9
414.526	1	-5
414.868	1	5
415.209	1	5
415.550	1	0
415.892	1	6
416.233	1	10
416.575	1	15
416.916	1	1
417.257	1	3
417.599	1	3
417.940	1	12
418.281	1	5
418.623	1	-2
418.964	1	-9
419.305	1	9
419.647	1	-3
419.988	1	10
420.329	1	-10
420.671	1	6
421.012	1	3
421.353	1	1
421.695	1	-3
422.036	1	5
422.377	1	-6
422.718	1	4
423.060	1	-2
423.401	1	7
423.742	1	10
424.084	1	2
424.425	1	6
424.766	1	-7
425.107	1	-2
425.449	1	0
425.790	1	-17
426.131	1	-5
426.472	1	-3
426.814	1	3
427.155	1	0
427.496	1	9
427.837	1	-2
428.179	1	-8
428.520	1	3
428.861	1	-3
429.202	1	1
429.544	1	0
429.885	1	0
430.226	1	-5
430.567	1	2
430.909	1	8
431.250	1	5
431.591	1	5
431.932	1	0
432.273	1	5
432.615	1	-4
432.956	1	1
433.297	1	3
433.638	1	-2
433.979	1	4
434.320	1	1
434.662	1	3
435.003	1	4
435.344	1	4
435.685	1	4
436.026	1	13
436.368	1	12
436.709	1	1
437.050	1	1
437.391	1	4
437.732	1	0
438.073	1	4
438.414	1	0
438.756	1	2
439.097	1	-3
439.438	1	-4
439.779	1	5
440.120	1	8
440.461	1	8
440.802	1	-5
441.143	1	5
441.485	1	10
441.826	1	-1
442.167	1	1
442.508	1	-1
442.849	1	15
443.190	1	-5
443.531	1	6
443.872	1	12
444.213	1	1
444.554	1	5
444.895	1	0
445.237	1	-3
445.578	1	-8
445.919	1	-13
446.260	1	6
446.601	1	-1
446.942	1	2
447.283	1	3
447.624	1	5
447.965	1	4
448.306	1	0
448.647	1	-6
448.988	1	0
449.329	1	3
449.670	1	15
450.011	1	-4
450.352	1	0
450.693	1	2
451.034	1	-5
451.375	1	6
451.716	1	4
452.057	1	5
452.398	1	4
452.739	1	8
453.080	1	5
453.421	1	1
453.762	1	0
454.103	1	-4
454.444	1	-4
454.785	1	10
455.126	1	-4
455.467	1	10
455.808	1	0
456.149	1	2
456.490	1	-3
456.831	1	2
457.172	1	-2
457.513	1	17
457.854	1	4
458.195	1	-1
458.536	1	5
458.877	1	1
459.218	1	4
459.559	1	3
459.899	1	7
460.240	1	2
460.581	1	21
460.922	1	3
461.263	1	5
461.604	1	3
461.945	1	-1
462.286	1	3
462.627	1	8
462.968	1	4
463.309	1	-10
463.649	1	-3
463.990	1	5
464.331	1	-4
464.672	1	0
465.013	1	-6
465.354	1	6
465.695	1	-7
466.036	1	3
466.376	1	-5
466.717	1	6
467.058	1	6
467.399	1	9
467.740	1	1
468.081	1	3
468.422	1	-1
468.762	1	-2
469.103	1	-2
469.444	1	-7
469.785	1	-9
470.126	1	-6
470.467	1	0
470.807	1	-3
471.148	1	3
471.489	1	-2
471.830	1	-3
472.171	1	5
472.511	1	-4
472.852	1	8
473.193	1	7
473.534	1	11
473.875	1	10
474.215	1	10
474.556	1	3
474.897	1	1
475.238	1	-1
475.578	1	-11
475.919	1	2
476.260	1	-5
476.601	1	10
476.942	1	8
477.282	1	-6
477.623	1	-10
477.964	1	-1
478.305	1	5
478.645	1	12
478.986	1	-2
479.327	1	-1
479.667	1	-2
480.008	1	6
480.349	1	-2
480.690	1	-1
481.030	1	-15
481.371	1	6
481.712	1	4
482.053	1	2
482.393	1	1
482.734	1	-7
483.075	1	0
483.415	1	4
483.756	1	14
484.097	1	4
484.437	1	7
484.778	1	11
485.119	1	-4
485.459	1	14
485.800	1	-5
486.141	1	0
486.481	1	-1
486.822	1	4
487.163	1	-1
487.503	1	8
487.844	1	3
488.185	1	4
488.525	1	6
488.866	1	-1
489.207	1	5
489.547	1	7
489.888	1	-2
490.228	1	13
490.569	1	10
490.910	1	2
491.250	1	-5
491.591	1	-4
491.932	1	6
492.272	1	10
492.613	1	-2
492.953	1	-9
493.294	1	-2
493.635	1	7
493.975	1	-2
494.316	1	5
494.656	1	4
494.997	1	1
495.337	1	0
495.678	1	1
496.019	1	3
496.359	1	11
496.700	1	2
497.040	1	0
497.381	1	-1
497.721	1	-3
498.062	1	8
498.403	1	2
498.743	1	2
499.084	1	0
499.424	1	3
499.765	1	2
500.105	1	3
500.446	1	-2
500.786	1	-2
501.127	1	7
501.467	1	-7
501.808	1	13
502.148	1	13
502.489	1	5
502.829	1	3
503.170	1	17
503.510	1	11
503.851	1	6
504.191	1	5
504.532	1	14
504.872	1	2
505.213	1	1
505.553	1	0
505.894	1	1
506.234	1	15
506.575	1	0
506.915	1	12
507.256	1	4
507.596	1	8
507.936	1	3
508.277	1	1
508.617	1	3
508.958	1	0
509.298	1	3
509.639	1	1
509.979	1	4
510.319	1	9
510.660	1	2
511.000	1	-1
511.341	1	-2
511.681	1	4
512.022	1	4
512.362	1	-1
512.702	1	0
513.043	1	5
513.383	1	3
513.724	1	10
514.064	1	8
514.404	1	3
514.745	1	2
515.085	1	11
515.425	1	7
515.766	1	1
516.106	1	4
516.447	1	12
516.787	1	14
517.127	1	13
517.468	1	7
517.808	1	-6
518.148	1	3
518.489	1	4
518.829	1	13
519.169	1	6
519.510	1	0
519.850	1	9
520.190	1	1
520.531	1	9
520.871	1	8
521.211	1	-2
521.552	1	10
521.892	1	14
522.232	1	2
522.573	1	13
522.913	1	12
523.253	1	8
523.593	1	8
523.934	1	7
524.274	1	19
524.614	1	3
524.955	1	9
525.295	1	13
525.635	1	2
525.975	1	8
526.316	1	21
526.656	1	2
526.996	1	8
527.337	1	6
527.677	1	17
528.017	1	0
528.357	1	13
528.698	1	10
529.038	1	13
529.378	1	8
529.718	1	29
530.058	1	7
530.399	1	16
530.739	1	-1
531.079	1	8
531.419	1	5
531.760	1	12
532.100	1	3
532.440	1	8
532.780	1	5
533.120	1	13
533.461	1	13
533.801	1	19
534.141	1	-2
534.481	1	-4
534.821	1	11
535.162	1	5
535.502	1	4
535.842	1	20
536.182	1	8
536.522	1	3
536.862	1	17
537.203	1	7
537.543	1	11
537.883	1	6
538.223	1	11
538.563	1	10
538.903	1	-3
539.243	1	2
539.584	1	6
539.924	1	7
540.264	1	5
540.604	1	13
540.944	1	3
541.284	1	9
541.624	1	16
541.964	1	11
542.305	1	11
542.645	1	14
542.985	1	11
543.325	1	4
543.665	1	17
544.005	1	20
544.345	1	15
544.685	1	11
545.025	1	14
545.365	1	7
545.705	1	7
546.045	1	-3
546.386	1	18
546.726	1	1
547.066	1	15
547.406	1	5
547.746	1	3
548.086	1	8
548.426	1	9
548.766	1	11
549.106	1	3
549.446	1	6
549.786	1	10
550.126	1	21
550.466	1	12
550.806	1	2
551.146	1	8
551.486	1	8
551.826	1	20
552.166	1	11
552.506	1	15
552.846	1	9
553.186	1	7
553.526	1	-2
553.866	1	11
554.206	1	10
554.546	1	15
554.886	1	12
555.226	1	4
555.566	1	6
555.906	1	21
556.246	1	16
556.586	1	10
556.926	1	8
557.266	1	16
557.606	1	14
557.946	1	22
558.286	1	6
558.626	1	11
558.966	1	11
559.306	1	13
559.646	1	4
559.986	1	4
560.325	1	4
560.665	1	3
561.005	1	1
561.345	1	8
561.685	1	19
562.025	1	14
562.365	1	10
562.705	1	8
563.045	1	16
563.385	1	-1
563.725	1	10
564.064	1	10
564.404	1	13
564.744	1	13
565.084	1	4
565.424	1	13
565.764	1	3
566.104	1	5
566.444	1	8
566.783	1	1
567.123	1	9
567.463	1	12
567.803	1	6
568.143	1	10
568.483	1	10
568.823	1	15
569.162	1	18
569.502	1	16
569.842	1	14
570.182	1	7
570.522	1	3
570.862	1	2
571.201	1	10
571.541	1	11
571.881	1	23
572.221	1	6
572.561	1	3
572.900	1	-5
573.240	1	17
573.580	1	19
573.920	1	9
574.260	1	16
574.599	1	4
574.939	1	10
575.279	1	17
575.619	1	13
575.959	1	7
576.298	1	22
576.638	1	8
576.978	1	18
577.318	1	19
577.657	1	-3
577.997	1	3
578.337	1	17
578.677	1	12
579.016	1	24
579.356	1	0
579.696	1	20
580.036	1	0
580.375	1	10
580.715	1	7
581.055	1	7
581.394	1	8
581.734	1	-2
582.074	1	6
582.414	1	13
582.753	1	4
583.093	1	4
583.433	1	8
583.772	1	17
584.112	1	5
584.452	1	10
584.791	1	7
585.131	1	5
585.471	1	14
585.811	1	19
586.150	1	6
586.490	1	15
586.830	1	4
587.169	1	15
587.509	1	9
587.849	1	20
588.188	1	19
588.528	1	13
588.867	1	6
589.207	1	19
589.547	1	10
589.886	1	5
590.226	1	2
590.566	1	4
590.905	1	5
591.245	1	9
591.585	1	1
591.924	1	10
592.264	1	6
592.603	1	10
592.943	1	8
593.283	1	15
593.622	1	5
593.962	1	13
594.301	1	12
594.641	1	9
594.981	1	1
595.320	1	9
595.660	1	4
595.999	1	2
596.339	1	11
596.678	1	-3
597.018	1	0
597.358	1	8
597.697	1	6
598.037	1	9
598.376	1	2
598.716	1	11
599.055	1	7
599.395	1	12
599.734	1	2
600.074	1	7
600.413	1	17
600.753	1	12
601.092	1	15
601.432	1	11
601.771	1	12
602.111	1	17
602.451	1	11
602.790	1	10
603.130	1	5
603.469	1	3
603.809	1	17
604.148	1	9
604.487	1	-6
604.827	1	15
605.166	1	8
605.506	1	12
605.845	1	7
606.185	1	7
606.524	1	4
606.864	1	6
607.203	1	3
607.543	1	0
607.882	1	13
608.222	1	13
608.561	1	8
608.901	1	2
609.240	1	2
609.579	1	14
609.919	1	13
610.258	1	16
610.598	1	2
610.937	1	8
611.277	1	15
611.616	1	6
611.955	1	2
612.295	1	-1
612.634	1	10
612.974	1	-8
613.313	1	17
613.652	1	6
613.992	1	6
614.331	1	14
614.671	1	12
615.010	1	-6
615.349	1	8
615.689	1	10
616.028	1	4
616.368	1	7
616.707	1	6
617.046	1	3
617.386	1	16
617.725	1	2
618.064	1	7
618.404	1	7
618.743	1	11
619.082	1	8
619.422	1	-7
619.761	1	4
620.100	1	9
620.440	1	4
620.779	1	-12
621.118	1	3
621.458	1	5
621.797	1	8
622.136	1	15
622.476	1	10
622.815	1	12
623.154	1	8
623.494	1	12
623.833	1	2
624.172	1	8
624.511	1	2
624.851	1	-9
625.190	1	1
625.529	1	6
625.869	1	12
626.208	1	4
626.547	1	4
626.886	1	9
627.226	1	7
627.565	1	10
627.904	1	-3
628.243	1	6
628.583	1	-1
628.922	1	10
629.261	1	10
629.600	1	8
629.940	1	4
630.279	1	-2
630.618	1	2
630.957	1	10
631.297	1	-3
631.636	1	-10
631.975	1	16
632.314	1	7
632.653	1	3
632.993	1	-9
633.332	1	2
633.671	1	2
634.010	1	0
634.349	1	18
634.689	1	1
635.028	1	8
635.367	1	9
635.706	1	10
636.045	1	8
636.384	1	10
636.724	1	7
637.063	1	4
637.402	1	8
637.741	1	7
638.080	1	3
638.419	1	5
638.759	1	-7
639.098	1	10
639.437	1	8
639.776	1	2
640.115	1	6
640.454	1	2
640.793	1	21
641.132	1	4
641.472	1	0
641.811	1	6
642.150	1	-4
642.489	1	11
642.828	1	-1
643.167	1	1
643.506	1	-2
643.845	1	0
644.184	1	6
644.524	1	1
644.863	1	-5
645.202	1	-1
645.541	1	2
645.880	1	3
646.219	1	-4
646.558	1	4
646.897	1	7
647.236	1	0
647.575	1	5
647.914	1	-2
648.253	1	18
648.592	1	2
648.931	1	17
649.270	1	5
649.610	1	8
649.949	1	3
650.288	1	2
650.627	1	2
650.966	1	13
651.305	1	8
651.644	1	11
651.983	1	6
652.322	1	5
652.661	1	-5
653.000	1	4
653.339	1	12
653.678	1	9
654.017	1	10
654.356	1	-3
654.695	1	11
655.034	1	0
655.373	1	10
655.712	1	10
656.051	1	-1
656.390	1	-3
656.729	1	13
657.068	1	9
657.406	1	8
657.745	1	-1
658.084	1	6
658.423	1	12
658.762	1	1
659.101	1	14
659.440	1	3
659.779	1	4
660.118	1	9
660.457	1	-3
660.796	1	-9
661.135	1	0
661.474	1	4
661.813	1	12
662.152	1	6
662.491	1	-7
662.829	1	-7
663.168	1	1
663.507	1	7
663.846	1	-3
664.185	1	2
664.524	1	6
664.863	1	5
665.202	1	4
665.541	1	-7
665.879	1	-6
666.218	1	-8
666.557	1	2
666.896	1	4
667.235	1	6
667.574	1	-1
667.913	1	1
668.251	1	-9
668.590	1	0
668.929	1	-16
669.268	1	4
669.607	1	3
669.946	1	8
670.285	1	8
670.623	1	-4
670.962	1	3
671.301	1	-5
671.640	1	7
671.979	1	-1
672.317	1	8
672.656	1	4
672.995	1	3
673.334	1	-3
673.673	1	4
674.011	1	1
674.350	1	6
674.689	1	-3
675.028	1	2
675.367	1	6
675.705	1	5
676.044	1	6
676.383	1	11
676.722	1	4
677.060	1	0
677.399	1	-8
677.738	1	9
678.077	1	8
678.416	1	6
678.754	1	-1
679.093	1	16
679.432	1	6
679.771	1	-2
680.109	1	19
680.448	1	8
680.787	1	0
681.125	1	6
681.464	1	9
681.803	1	4
682.142	1	6
682.480	1	11
682.819	1	2
683.158	1	7
683.496	1	4
683.835	1	-1
684.174	1	1
684.512	1	3
684.851	1	13
685.190	1	-6
685.529	1	6
685.867	1	2
686.206	1	-3
686.545	1	2
686.883	1	-6
687.222	1	9
687.561	1	4
687.899	1	9
688.238	1	-1
688.577	1	-1
688.746	1	4