File: Data/GaN_200K_800ms/GaN_sample F_spot 12_UVVIS_200 K_200um_800 ms 2x2mm1_511.txt
340.368	1	1
340.710	1	-10
341.052	1	13
341.394	1	-7
341.737	1	10
342.079	1	-1
342.421	1	1
342.763	1	5
343.105	1	0
343.447	1	-6
343.789	1	3
344.131	1	-2
344.473	1	-7
344.815	1	-7
345.157	1	-5
345.499	1	-3
345.841	1	0
346.183	1	-9
346.526	1	-7
346.868	1	8
347.210	1	-10
347.552	1	-4
347.894	1	1
348.236	1	5
348.578	1	-4
348.920	1	-7
349.262	1	-4
349.604	1	-6
349.946	1	-6
350.288	1	3
350.630	1	-4
350.972	1	-5
351.314	1	1
351.656	1	6
351.998	1	-3
352.340	1	3
352.682	1	-9
353.024	1	-10
353.366	1	7
353.708	1	8
354.050	1	-9
354.392	1	0
354.734	1	7
355.076	1	3
355.418	1	-11
355.760	1	-11
356.102	1	13
356.444	1	6
356.785	1	0
357.127	1	-3
357.469	1	-3
357.811	1	-3
358.153	1	9
358.495	1	7
358.837	1	-4
359.179	1	-7
359.521	1	9
359.863	1	-5
360.205	1	-3
360.547	1	13
360.889	1	-5
361.231	1	-6
361.572	1	4
361.914	1	6
362.256	1	3
362.598	1	-3
362.940	1	-5
363.282	1	2
363.624	1	8
363.966	1	-5
364.308	1	-3
364.649	1	9
364.991	1	4
365.333	1	0
365.675	1	-11
366.017	1	-5
366.359	1	14
366.701	1	10
367.042	1	7
367.384	1	5
367.726	1	3
368.068	1	11
368.410	1	10
368.752	1	7
369.093	1	9
369.435	1	11
369.777	1	-1
370.119	1	9
370.461	1	16
370.803	1	7
371.144	1	10
371.486	1	10
371.828	1	1
372.170	1	10
372.512	1	0
372.853	1	12
373.195	1	9
373.537	1	-1
373.879	1	4
374.220	1	15
374.562	1	20
374.904	1	6
375.246	1	-2
375.588	1	0
375.929	1	5
376.271	1	8
376.613	1	-3
376.955	1	-12
377.296	1	1
377.638	1	0
377.980	1	7
378.321	1	-9
378.663	1	-13
379.005	1	5
379.347	1	1
379.688	1	8
380.030	1	-3
380.372	1	6
380.714	1	6
381.055	1	9
381.397	1	-4
381.739	1	5
382.080	1	3
382.422	1	4
382.764	1	1
383.105	1	-5
383.447	1	2
383.789	1	-2
384.130	1	0
384.472	1	1
384.814	1	-1
385.156	1	-4
385.497	1	1
385.839	1	0
386.180	1	7
386.522	1	1
386.864	1	2
387.205	1	-5
387.547	1	-3
387.889	1	-9
388.230	1	10
388.572	1	-2
388.914	1	5
389.255	1	1
389.597	1	2
389.939	1	0
390.280	1	1
390.622	1	-7
390.963	1	7
391.305	1	10
391.647	1	6
391.988	1	-4
392.330	1	8
392.671	1	-4
393.013	1	-5
393.355	1	4
393.696	1	2
394.038	1	-1
394.379	1	6
394.721	1	5
395.062	1	5
395.404	1	-2
395.746	1	1
396.087	1	4
396.429	1	-1
396.770	1	-2
397.112	1	2
397.453	1	9
397.795	1	-4
398.136	1	-9
398.478	1	-2
398.819	1	0
399.161	1	12
399.503	1	-2
399.844	1	-5
400.186	1	0
400.527	1	-4
400.869	1	-5
401.210	1	-2
401.552	1	-12
401.893	1	-3
402.235	1	3
402.576	1	-4
402.918	1	6
403.259	1	2
403.601	1	-4
403.942	1	16
404.284	1	2
404.625	1	4
404.967	1	-7
405.308	1	1
405.649	1	-7
405.991	1	-6
406.332	1	5
406.674	1	-3
407.015	1	4
407.357	1	-6
407.698	1	2
408.040	1	-8
408.381	1	-4
408.722	1	-21
409.064	1	-3
409.405	1	-3
409.747	1	-7
410.088	1	-3
410.430	1	9
410.771	1	3
411.112	1	-4
411.454	1	-2
411.795	1	-10
412.137	1	0
412.478	1	17
412.819	1	-2
413.161	1	-1
413.502	1	2
413.844	1	0
414.185	1	6
414.526	1	-11
414.868	1	-3
415.209	1	-4
415.550	1	-5
415.892	1	-2
416.233	1	3
416.575	1	12
416.916	1	-6
417.257	1	-5
417.599	1	5
417.940	1	9
418.281	1	8
418.623	1	0
418.964	1	-6
419.305	1	3
419.647	1	-1
419.988	1	-7
420.329	1	-7
420.671	1	-1
421.012	1	-4
421.353	1	-13
421.695	1	0
422.036	1	-3
422.377	1	-4
422.718	1	-2
423.060	1	-4
423.401	1	4
423.742	1	-1
424.084	1	6
424.425	1	4
424.766	1	8
425.107	1	-1
425.449	1	-2
425.790	1	-15
426.131	1	-3
426.472	1	5
426.814	1	-1
427.155	1	-4
427.496	1	-3
427.837	1	-5
428.179	1	-9
428.520	1	3
428.861	1	2
429.202	1	-6
429.544	1	-4
429.885	1	-4
430.226	1	-10
430.567	1	0
430.909	1	7
431.250	1	-3
431.591	1	4
431.932	1	-3
432.273	1	-7
432.615	1	-12
432.956	1	-12
433.297	1	-4
433.638	1	-6
433.979	1	4
434.320	1	3
434.662	1	-2
435.003	1	0
435.344	1	1
435.685	1	-3
436.026	1	8
436.368	1	14
436.709	1	-5
437.050	1	-3
437.391	1	5
437.732	1	-5
438.073	1	1
438.414	1	-18
438.756	1	-10
439.097	1	-15
439.438	1	-4
439.779	1	4
440.120	1	-2
440.461	1	0
440.802	1	-4
441.143	1	6
441.485	1	1
441.826	1	3
442.167	1	-1
442.508	1	-12
442.849	1	3
443.190	1	0
443.531	1	8
443.872	1	0
444.213	1	1
444.554	1	3
444.895	1	-9
445.237	1	-9
445.578	1	-15
445.919	1	-9
446.260	1	-13
446.601	1	-3
446.942	1	-5
447.283	1	-5
447.624	1	-8
447.965	1	0
448.306	1	1
448.647	1	-8
448.988	1	-7
449.329	1	0
449.670	1	7
450.011	1	15
450.352	1	-4
450.693	1	-13
451.034	1	-13
451.375	1	0
451.716	1	-4
452.057	1	6
452.398	1	-4
452.739	1	3
453.080	1	-7
453.421	1	-1
453.762	1	4
454.103	1	-4
454.444	1	-11
454.785	1	-2
455.126	1	-1
455.467	1	-5
455.808	1	-4
456.149	1	-2
456.490	1	-3
456.831	1	13
457.172	1	-10
457.513	1	5
457.854	1	-6
458.195	1	-4
458.536	1	6
458.877	1	7
459.218	1	-2
459.559	1	2
459.899	1	-2
460.240	1	-4
460.581	1	18
460.922	1	2
461.263	1	-11
461.604	1	-5
461.945	1	-3
462.286	1	-5
462.627	1	4
462.968	1	-3
463.309	1	-5
463.649	1	-4
463.990	1	-5
464.331	1	-3
464.672	1	5
465.013	1	-3
465.354	1	9
465.695	1	-4
466.036	1	-1
466.376	1	-4
466.717	1	7
467.058	1	-9
467.399	1	2
467.740	1	-10
468.081	1	-5
468.422	1	-15
468.762	1	-9
469.103	1	-11
469.444	1	-9
469.785	1	-12
470.126	1	-7
470.467	1	-7
470.807	1	-5
471.148	1	5
471.489	1	-2
471.830	1	1
472.171	1	0
472.511	1	-14
472.852	1	4
473.193	1	2
473.534	1	9
473.875	1	19
474.215	1	10
474.556	1	-5
474.897	1	4
475.238	1	-2
475.578	1	-11
475.919	1	-7
476.260	1	-1
476.601	1	6
476.942	1	4
477.282	1	-4
477.623	1	-13
477.964	1	6
478.305	1	0
478.645	1	2
478.986	1	-10
479.327	1	-13
479.667	1	2
480.008	1	-6
480.349	1	-14
480.690	1	4
481.030	1	-13
481.371	1	-13
481.712	1	1
482.053	1	-1
482.393	1	-6
482.734	1	-4
483.075	1	-4
483.415	1	-6
483.756	1	8
484.097	1	0
484.437	1	-2
484.778	1	3
485.119	1	0
485.459	1	3
485.800	1	-2
486.141	1	-10
486.481	1	-5
486.822	1	-1
487.163	1	-4
487.503	1	-6
487.844	1	5
488.185	1	2
488.525	1	2
488.866	1	3
489.207	1	-5
489.547	1	-1
489.888	1	-7
490.228	1	7
490.569	1	10
490.910	1	-4
491.250	1	-8
491.591	1	-4
491.932	1	-1
492.272	1	1
492.613	1	-11
492.953	1	-8
493.294	1	-7
493.635	1	4
493.975	1	-2
494.316	1	-3
494.656	1	-6
494.997	1	-2
495.337	1	-1
495.678	1	-1
496.019	1	4
496.359	1	3
496.700	1	6
497.040	1	-7
497.381	1	0
497.721	1	-8
498.062	1	-2
498.403	1	8
498.743	1	1
499.084	1	-9
499.424	1	5
499.765	1	9
500.105	1	0
500.446	1	-7
500.786	1	-1
501.127	1	-4
501.467	1	-2
501.808	1	-5
502.148	1	2
502.489	1	1
502.829	1	-4
503.170	1	6
503.510	1	4
503.851	1	-6
504.191	1	-4
504.532	1	8
504.872	1	-1
505.213	1	7
505.553	1	-6
505.894	1	-11
506.234	1	2
506.575	1	7
506.915	1	5
507.256	1	-4
507.596	1	3
507.936	1	-6
508.277	1	-11
508.617	1	-1
508.958	1	-16
509.298	1	4
509.639	1	-11
509.979	1	8
510.319	1	-5
510.660	1	-3
511.000	1	0
511.341	1	-6
511.681	1	7
512.022	1	-9
512.362	1	-6
512.702	1	-3
513.043	1	2
513.383	1	-15
513.724	1	-7
514.064	1	2
514.404	1	-3
514.745	1	-11
515.085	1	-6
515.425	1	-5
515.766	1	-8
516.106	1	0
516.447	1	5
516.787	1	3
517.127	1	-4
517.468	1	-2
517.808	1	0
518.148	1	-6
518.489	1	6
518.829	1	-1
519.169	1	4
519.510	1	-8
519.850	1	3
520.190	1	0
520.531	1	4
520.871	1	5
521.211	1	-14
521.552	1	4
521.892	1	-9
522.232	1	1
522.573	1	1
522.913	1	-1
523.253	1	1
523.593	1	-4
523.934	1	1
524.274	1	1
524.614	1	10
524.955	1	-12
525.295	1	2
525.635	1	-1
525.975	1	1
526.316	1	7
526.656	1	-8
526.996	1	15
527.337	1	-12
527.677	1	-1
528.017	1	-8
528.357	1	2
528.698	1	0
529.038	1	-1
529.378	1	2
529.718	1	5
530.058	1	0
530.399	1	8
530.739	1	-6
531.079	1	4
531.419	1	1
531.760	1	5
532.100	1	0
532.440	1	1
532.780	1	-5
533.120	1	3
533.461	1	6
533.801	1	15
534.141	1	-9
534.481	1	-11
534.821	1	4
535.162	1	-5
535.502	1	-2
535.842	1	3
536.182	1	2
536.522	1	-8
536.862	1	1
537.203	1	-7
537.543	1	-1
537.883	1	-4
538.223	1	2
538.563	1	-5
538.903	1	-9
539.243	1	-7
539.584	1	-3
539.924	1	12
540.264	1	-2
540.604	1	-2
540.944	1	-9
541.284	1	10
541.624	1	3
541.964	1	2
542.305	1	9
542.645	1	-4
542.985	1	-5
543.325	1	0
543.665	1	0
544.005	1	10
544.345	1	5
544.685	1	7
545.025	1	-2
545.365	1	4
545.705	1	3
546.045	1	-8
546.386	1	9
546.726	1	-10
547.066	1	6
547.406	1	-7
547.746	1	-15
548.086	1	-6
548.426	1	-2
548.766	1	-1
549.106	1	-14
549.446	1	-6
549.786	1	-11
550.126	1	13
550.466	1	-6
550.806	1	-1
551.146	1	-5
551.486	1	-1
551.826	1	5
552.166	1	1
552.506	1	13
552.846	1	-6
553.186	1	-1
553.526	1	2
553.866	1	-7
554.206	1	15
554.546	1	5
554.886	1	-3
555.226	1	-9
555.566	1	5
555.906	1	-5
556.246	1	-2
556.586	1	1
556.926	1	1
557.266	1	-10
557.606	1	-2
557.946	1	8
558.286	1	0
558.626	1	2
558.966	1	-5
559.306	1	-10
559.646	1	-6
559.986	1	-7
560.325	1	-8
560.665	1	-5
561.005	1	-6
561.345	1	-5
561.685	1	-7
562.025	1	5
562.365	1	1
562.705	1	-6
563.045	1	-4
563.385	1	-11
563.725	1	-5
564.064	1	-10
564.404	1	0
564.744	1	5
565.084	1	-4
565.424	1	-9
565.764	1	-9
566.104	1	-6
566.444	1	-5
566.783	1	-9
567.123	1	10
567.463	1	3
567.803	1	-9
568.143	1	-7
568.483	1	-4
568.823	1	5
569.162	1	3
569.502	1	1
569.842	1	-4
570.182	1	2
570.522	1	-8
570.862	1	-7
571.201	1	8
571.541	1	5
571.881	1	3
572.221	1	-14
572.561	1	-4
572.900	1	-9
573.240	1	0
573.580	1	-1
573.920	1	4
574.260	1	5
574.599	1	2
574.939	1	8
575.279	1	12
575.619	1	5
575.959	1	-13
576.298	1	8
576.638	1	-1
576.978	1	5
577.318	1	1
577.657	1	-7
577.997	1	-2
578.337	1	4
578.677	1	5
579.016	1	8
579.356	1	-1
579.696	1	0
580.036	1	-2
580.375	1	-3
580.715	1	8
581.055	1	-3
581.394	1	-3
581.734	1	-6
582.074	1	1
582.414	1	8
582.753	1	-4
583.093	1	-3
583.433	1	-4
583.772	1	8
584.112	1	0
584.452	1	-3
584.791	1	-5
585.131	1	2
585.471	1	11
585.811	1	6
586.150	1	-11
586.490	1	6
586.830	1	-5
587.169	1	1
587.509	1	9
587.849	1	4
588.188	1	-4
588.528	1	1
588.867	1	5
589.207	1	-3
589.547	1	5
589.886	1	5
590.226	1	-3
590.566	1	-6
590.905	1	-6
591.245	1	-6
591.585	1	3
591.924	1	-5
592.264	1	-1
592.603	1	-5
592.943	1	4
593.283	1	-6
593.622	1	5
593.962	1	12
594.301	1	14
594.641	1	-3
594.981	1	-2
595.320	1	0
595.660	1	2
595.999	1	-5
596.339	1	0
596.678	1	-11
597.018	1	-6
597.358	1	7
597.697	1	0
598.037	1	-1
598.376	1	-7
598.716	1	0
599.055	1	7
599.395	1	2
599.734	1	5
600.074	1	3
600.413	1	14
600.753	1	1
601.092	1	6
601.432	1	-12
601.771	1	0
602.111	1	1
602.451	1	1
602.790	1	-6
603.130	1	10
603.469	1	-9
603.809	1	1
604.148	1	10
604.487	1	-7
604.827	1	5
605.166	1	2
605.506	1	-6
605.845	1	2
606.185	1	2
606.524	1	5
606.864	1	-1
607.203	1	-4
607.543	1	4
607.882	1	7
608.222	1	2
608.561	1	-10
608.901	1	5
609.240	1	-8
609.579	1	8
609.919	1	9
610.258	1	8
610.598	1	5
610.937	1	-4
611.277	1	-1
611.616	1	-2
611.955	1	-2
612.295	1	-15
612.634	1	-8
612.974	1	-15
613.313	1	5
613.652	1	8
613.992	1	-8
614.331	1	-7
614.671	1	-2
615.010	1	-13
615.349	1	13
615.689	1	-7
616.028	1	-5
616.368	1	4
616.707	1	-1
617.046	1	4
617.386	1	-3
617.725	1	-11
618.064	1	-7
618.404	1	-5
618.743	1	11
619.082	1	-6
619.422	1	-6
619.761	1	8
620.100	1	3
620.440	1	0
620.779	1	-11
621.118	1	-6
621.458	1	4
621.797	1	-7
622.136	1	11
622.476	1	4
622.815	1	3
623.154	1	8
623.494	1	8
623.833	1	4
624.172	1	3
624.511	1	-2
624.851	1	-12
625.190	1	5
625.529	1	0
625.869	1	12
626.208	1	0
626.547	1	-2
626.886	1	-7
627.226	1	-5
627.565	1	0
627.904	1	-6
628.243	1	3
628.583	1	-4
628.922	1	8
629.261	1	3
629.600	1	1
629.940	1	-6
630.279	1	-10
630.618	1	9
630.957	1	0
631.297	1	3
631.636	1	-11
631.975	1	10
632.314	1	-4
632.653	1	-1
632.993	1	-8
633.332	1	6
633.671	1	-3
634.010	1	-11
634.349	1	13
634.689	1	2
635.028	1	8
635.367	1	-5
635.706	1	-3
636.045	1	6
636.384	1	-6
636.724	1	4
637.063	1	-7
637.402	1	6
637.741	1	-6
638.080	1	1
638.419	1	4
638.759	1	-5
639.098	1	2
639.437	1	-3
639.776	1	-6
640.115	1	-13
640.454	1	-2
640.793	1	9
641.132	1	1
641.472	1	4
641.811	1	-7
642.150	1	-11
642.489	1	4
642.828	1	-7
643.167	1	-5
643.506	1	-7
643.845	1	-1
644.184	1	6
644.524	1	-7
644.863	1	-3
645.202	1	5
645.541	1	5
645.880	1	0
646.219	1	1
646.558	1	1
646.897	1	2
647.236	1	0
647.575	1	1
647.914	1	-4
648.253	1	-1
648.592	1	-2
648.931	1	5
649.270	1	7
649.610	1	1
649.949	1	-2
650.288	1	6
650.627	1	-11
650.966	1	6
651.305	1	2
651.644	1	4
651.983	1	-1
652.322	1	-8
652.661	1	-5
653.000	1	-2
653.339	1	1
653.678	1	-4
654.017	1	-5
654.356	1	-7
654.695	1	9
655.034	1	7
655.373	1	-3
655.712	1	-2
656.051	1	2
656.390	1	-3
656.729	1	10
657.068	1	0
657.406	1	1
657.745	1	-5
658.084	1	3
658.423	1	1
658.762	1	3
659.101	1	7
659.440	1	4
659.779	1	-7
660.118	1	1
660.457	1	-6
660.796	1	-8
661.135	1	-6
661.474	1	0
661.813	1	10
662.152	1	5
662.491	1	-6
662.829	1	-2
663.168	1	-5
663.507	1	15
663.846	1	-2
664.185	1	-2
664.524	1	1
664.863	1	-15
665.202	1	0
665.541	1	-14
665.879	1	-11
666.218	1	-5
666.557	1	-4
666.896	1	-3
667.235	1	7
667.574	1	-2
667.913	1	-1
668.251	1	-12
668.590	1	-3
668.929	1	-14
669.268	1	-4
669.607	1	1
669.946	1	-3
670.285	1	4
670.623	1	-3
670.962	1	8
671.301	1	-5
671.640	1	-1
671.979	1	-10
672.317	1	2
672.656	1	-2
672.995	1	1
673.334	1	-10
673.673	1	-5
674.011	1	-7
674.350	1	2
674.689	1	1
675.028	1	-8
675.367	1	-7
675.705	1	4
676.044	1	-3
676.383	1	-7
676.722	1	-2
677.060	1	2
677.399	1	-6
677.738	1	2
678.077	1	7
678.416	1	2
678.754	1	-4
679.093	1	-1
679.432	1	-8
679.771	1	-6
680.109	1	8
680.448	1	-1
680.787	1	-7
681.125	1	-2
681.464	1	-4
681.803	1	-1
682.142	1	12
682.480	1	2
682.819	1	5
683.158	1	-5
683.496	1	3
683.835	1	4
684.174	1	-3
684.512	1	1
684.851	1	-3
685.190	1	-1
685.529	1	-2
685.867	1	-2
686.206	1	-8
686.545	1	-13
686.883	1	-2
687.222	1	-2
687.561	1	8
687.899	1	-9
688.238	1	0
688.577	1	-8
688.746	1	0