File: Data/GaN_200K_800ms/GaN_sample F_spot 12_UVVIS_200 K_200um_800 ms 2x2mm1_283.txt
340.368	1	0
340.710	1	-12
341.052	1	0
341.394	1	-3
341.737	1	1
342.079	1	-10
342.421	1	5
342.763	1	13
343.105	1	0
343.447	1	-12
343.789	1	2
344.131	1	2
344.473	1	-4
344.815	1	1
345.157	1	-5
345.499	1	3
345.841	1	8
346.183	1	-3
346.526	1	-10
346.868	1	6
347.210	1	-15
347.552	1	-16
347.894	1	10
348.236	1	5
348.578	1	-3
348.920	1	-3
349.262	1	-2
349.604	1	-1
349.946	1	1
350.288	1	13
350.630	1	1
350.972	1	1
351.314	1	5
351.656	1	0
351.998	1	-3
352.340	1	3
352.682	1	2
353.024	1	7
353.366	1	5
353.708	1	3
354.050	1	-8
354.392	1	-8
354.734	1	3
355.076	1	0
355.418	1	-8
355.760	1	2
356.102	1	11
356.444	1	0
356.785	1	10
357.127	1	0
357.469	1	6
357.811	1	-8
358.153	1	6
358.495	1	6
358.837	1	-7
359.179	1	1
359.521	1	8
359.863	1	-3
360.205	1	1
360.547	1	2
360.889	1	-1
361.231	1	-5
361.572	1	2
361.914	1	1
362.256	1	3
362.598	1	-1
362.940	1	9
363.282	1	6
363.624	1	17
363.966	1	0
364.308	1	2
364.649	1	16
364.991	1	17
365.333	1	15
365.675	1	5
366.017	1	15
366.359	1	7
366.701	1	8
367.042	1	7
367.384	1	17
367.726	1	12
368.068	1	12
368.410	1	25
368.752	1	7
369.093	1	16
369.435	1	26
369.777	1	12
370.119	1	10
370.461	1	35
370.803	1	19
371.144	1	18
371.486	1	26
371.828	1	23
372.170	1	25
372.512	1	13
372.853	1	13
373.195	1	14
373.537	1	15
373.879	1	8
374.220	1	25
374.562	1	17
374.904	1	14
375.246	1	8
375.588	1	8
375.929	1	17
376.271	1	12
376.613	1	10
376.955	1	0
377.296	1	3
377.638	1	13
377.980	1	12
378.321	1	2
378.663	1	2
379.005	1	11
379.347	1	8
379.688	1	16
380.030	1	-3
380.372	1	1
380.714	1	9
381.055	1	14
381.397	1	2
381.739	1	9
382.080	1	10
382.422	1	4
382.764	1	6
383.105	1	-4
383.447	1	8
383.789	1	-4
384.130	1	-3
384.472	1	-1
384.814	1	-1
385.156	1	-3
385.497	1	4
385.839	1	5
386.180	1	3
386.522	1	14
386.864	1	1
387.205	1	2
387.547	1	0
387.889	1	-8
388.230	1	18
388.572	1	-4
388.914	1	-2
389.255	1	-1
389.597	1	7
389.939	1	4
390.280	1	9
390.622	1	-3
390.963	1	13
391.305	1	1
391.647	1	4
391.988	1	3
392.330	1	8
392.671	1	-3
393.013	1	12
393.355	1	7
393.696	1	-2
394.038	1	5
394.379	1	4
394.721	1	-1
395.062	1	0
395.404	1	-8
395.746	1	3
396.087	1	-3
396.429	1	7
396.770	1	0
397.112	1	3
397.453	1	19
397.795	1	4
398.136	1	-6
398.478	1	3
398.819	1	2
399.161	1	8
399.503	1	5
399.844	1	2
400.186	1	0
400.527	1	-11
400.869	1	1
401.210	1	8
401.552	1	-9
401.893	1	-2
402.235	1	0
402.576	1	1
402.918	1	0
403.259	1	9
403.601	1	-6
403.942	1	9
404.284	1	2
404.625	1	12
404.967	1	13
405.308	1	2
405.649	1	-2
405.991	1	-6
406.332	1	1
406.674	1	-1
407.015	1	4
407.357	1	-7
407.698	1	14
408.040	1	-5
408.381	1	-3
408.722	1	-21
409.064	1	-2
409.405	1	8
409.747	1	-2
410.088	1	1
410.430	1	9
410.771	1	4
411.112	1	2
411.454	1	-4
411.795	1	-10
412.137	1	7
412.478	1	14
412.819	1	-4
413.161	1	-7
413.502	1	-5
413.844	1	2
414.185	1	1
414.526	1	1
414.868	1	-3
415.209	1	1
415.550	1	-5
415.892	1	3
416.233	1	11
416.575	1	-2
416.916	1	0
417.257	1	-4
417.599	1	11
417.940	1	6
418.281	1	4
418.623	1	-4
418.964	1	-15
419.305	1	9
419.647	1	-2
419.988	1	3
420.329	1	-13
420.671	1	4
421.012	1	2
421.353	1	-7
421.695	1	-3
422.036	1	0
422.377	1	-6
422.718	1	21
423.060	1	4
423.401	1	7
423.742	1	-2
424.084	1	-1
424.425	1	2
424.766	1	3
425.107	1	-6
425.449	1	7
425.790	1	-2
426.131	1	-4
426.472	1	-5
426.814	1	3
427.155	1	5
427.496	1	-6
427.837	1	-13
428.179	1	-8
428.520	1	6
428.861	1	-11
429.202	1	2
429.544	1	9
429.885	1	3
430.226	1	-6
430.567	1	6
430.909	1	-3
431.250	1	2
431.591	1	-1
431.932	1	-5
432.273	1	-5
432.615	1	-5
432.956	1	-5
433.297	1	-1
433.638	1	2
433.979	1	6
434.320	1	6
434.662	1	7
435.003	1	1
435.344	1	-4
435.685	1	3
436.026	1	7
436.368	1	6
436.709	1	4
437.050	1	1
437.391	1	14
437.732	1	-2
438.073	1	8
438.414	1	-11
438.756	1	-6
439.097	1	-13
439.438	1	2
439.779	1	2
440.120	1	-13
440.461	1	-7
440.802	1	-7
441.143	1	7
441.485	1	-4
441.826	1	3
442.167	1	-1
442.508	1	-12
442.849	1	2
443.190	1	5
443.531	1	10
443.872	1	8
444.213	1	-4
444.554	1	1
444.895	1	-5
445.237	1	-3
445.578	1	-8
445.919	1	-5
446.260	1	-2
446.601	1	-4
446.942	1	-2
447.283	1	0
447.624	1	1
447.965	1	-2
448.306	1	0
448.647	1	-1
448.988	1	-3
449.329	1	-6
449.670	1	9
450.011	1	8
450.352	1	-4
450.693	1	-3
451.034	1	-8
451.375	1	12
451.716	1	-9
452.057	1	2
452.398	1	2
452.739	1	4
453.080	1	6
453.421	1	-4
453.762	1	0
454.103	1	-7
454.444	1	-16
454.785	1	-9
455.126	1	-6
455.467	1	0
455.808	1	0
456.149	1	0
456.490	1	1
456.831	1	5
457.172	1	-3
457.513	1	7
457.854	1	1
458.195	1	1
458.536	1	3
458.877	1	1
459.218	1	1
459.559	1	-3
459.899	1	-1
460.240	1	-1
460.581	1	14
460.922	1	-2
461.263	1	-6
461.604	1	3
461.945	1	-4
462.286	1	-2
462.627	1	6
462.968	1	1
463.309	1	-4
463.649	1	-1
463.990	1	-1
464.331	1	0
464.672	1	8
465.013	1	-1
465.354	1	3
465.695	1	-1
466.036	1	-4
466.376	1	-1
466.717	1	-4
467.058	1	-7
467.399	1	-2
467.740	1	3
468.081	1	-4
468.422	1	-2
468.762	1	-4
469.103	1	-5
469.444	1	1
469.785	1	-12
470.126	1	-5
470.467	1	1
470.807	1	7
471.148	1	-2
471.489	1	4
471.830	1	-7
472.171	1	2
472.511	1	-15
472.852	1	0
473.193	1	3
473.534	1	5
473.875	1	15
474.215	1	7
474.556	1	-4
474.897	1	4
475.238	1	1
475.578	1	-9
475.919	1	0
476.260	1	-9
476.601	1	3
476.942	1	1
477.282	1	-6
477.623	1	-6
477.964	1	-9
478.305	1	-3
478.645	1	11
478.986	1	-6
479.327	1	-9
479.667	1	-1
480.008	1	-7
480.349	1	-8
480.690	1	2
481.030	1	-2
481.371	1	0
481.712	1	2
482.053	1	4
482.393	1	1
482.734	1	-10
483.075	1	-2
483.415	1	-6
483.756	1	1
484.097	1	-1
484.437	1	-1
484.778	1	-4
485.119	1	-2
485.459	1	14
485.800	1	8
486.141	1	0
486.481	1	3
486.822	1	0
487.163	1	-3
487.503	1	5
487.844	1	-8
488.185	1	4
488.525	1	-9
488.866	1	7
489.207	1	0
489.547	1	2
489.888	1	-6
490.228	1	3
490.569	1	1
490.910	1	2
491.250	1	-5
491.591	1	-10
491.932	1	-3
492.272	1	-5
492.613	1	-3
492.953	1	-4
493.294	1	-1
493.635	1	0
493.975	1	3
494.316	1	8
494.656	1	4
494.997	1	-11
495.337	1	12
495.678	1	3
496.019	1	3
496.359	1	-6
496.700	1	7
497.040	1	-1
497.381	1	-6
497.721	1	2
498.062	1	-2
498.403	1	3
498.743	1	-1
499.084	1	4
499.424	1	3
499.765	1	-2
500.105	1	8
500.446	1	-7
500.786	1	1
501.127	1	4
501.467	1	-13
501.808	1	10
502.148	1	6
502.489	1	3
502.829	1	6
503.170	1	3
503.510	1	1
503.851	1	4
504.191	1	10
504.532	1	5
504.872	1	-5
505.213	1	0
505.553	1	0
505.894	1	-14
506.234	1	6
506.575	1	9
506.915	1	10
507.256	1	3
507.596	1	0
507.936	1	3
508.277	1	-4
508.617	1	-2
508.958	1	-5
509.298	1	-1
509.639	1	-7
509.979	1	-1
510.319	1	7
510.660	1	-2
511.000	1	-7
511.341	1	6
511.681	1	2
512.022	1	-4
512.362	1	-3
512.702	1	-6
513.043	1	5
513.383	1	-8
513.724	1	5
514.064	1	12
514.404	1	7
514.745	1	-1
515.085	1	-2
515.425	1	-7
515.766	1	-11
516.106	1	-7
516.447	1	13
516.787	1	10
517.127	1	0
517.468	1	1
517.808	1	-3
518.148	1	-2
518.489	1	2
518.829	1	6
519.169	1	-1
519.510	1	3
519.850	1	3
520.190	1	-3
520.531	1	4
520.871	1	0
521.211	1	-8
521.552	1	4
521.892	1	0
522.232	1	-7
522.573	1	0
522.913	1	5
523.253	1	3
523.593	1	1
523.934	1	5
524.274	1	-1
524.614	1	-1
524.955	1	-2
525.295	1	-2
525.635	1	4
525.975	1	4
526.316	1	15
526.656	1	-3
526.996	1	5
527.337	1	1
527.677	1	-1
528.017	1	-4
528.357	1	-11
528.698	1	6
529.038	1	8
529.378	1	9
529.718	1	4
530.058	1	7
530.399	1	8
530.739	1	6
531.079	1	0
531.419	1	0
531.760	1	-1
532.100	1	0
532.440	1	-5
532.780	1	-5
533.120	1	7
533.461	1	2
533.801	1	15
534.141	1	-16
534.481	1	-8
534.821	1	10
535.162	1	4
535.502	1	-3
535.842	1	13
536.182	1	-3
536.522	1	2
536.862	1	3
537.203	1	-7
537.543	1	-8
537.883	1	-4
538.223	1	-7
538.563	1	0
538.903	1	2
539.243	1	-5
539.584	1	-4
539.924	1	10
540.264	1	0
540.604	1	1
540.944	1	-6
541.284	1	6
541.624	1	4
541.964	1	2
542.305	1	11
542.645	1	-5
542.985	1	1
543.325	1	6
543.665	1	11
544.005	1	1
544.345	1	2
544.685	1	-1
545.025	1	3
545.365	1	5
545.705	1	-4
546.045	1	-7
546.386	1	6
546.726	1	-9
547.066	1	-3
547.406	1	-2
547.746	1	-9
548.086	1	8
548.426	1	3
548.766	1	5
549.106	1	4
549.446	1	-3
549.786	1	-7
550.126	1	12
550.466	1	-2
550.806	1	-6
551.146	1	-1
551.486	1	2
551.826	1	2
552.166	1	5
552.506	1	5
552.846	1	10
553.186	1	9
553.526	1	2
553.866	1	-1
554.206	1	4
554.546	1	5
554.886	1	6
555.226	1	-1
555.566	1	4
555.906	1	5
556.246	1	3
556.586	1	-1
556.926	1	9
557.266	1	-7
557.606	1	3
557.946	1	12
558.286	1	7
558.626	1	3
558.966	1	-4
559.306	1	-2
559.646	1	-1
559.986	1	-4
560.325	1	-10
560.665	1	-1
561.005	1	6
561.345	1	4
561.685	1	2
562.025	1	0
562.365	1	6
562.705	1	3
563.045	1	-4
563.385	1	-6
563.725	1	9
564.064	1	-3
564.404	1	-3
564.744	1	10
565.084	1	-7
565.424	1	3
565.764	1	0
566.104	1	9
566.444	1	-3
566.783	1	-7
567.123	1	-3
567.463	1	5
567.803	1	3
568.143	1	5
568.483	1	5
568.823	1	0
569.162	1	5
569.502	1	0
569.842	1	5
570.182	1	6
570.522	1	-6
570.862	1	-1
571.201	1	10
571.541	1	8
571.881	1	14
572.221	1	1
572.561	1	4
572.900	1	-11
573.240	1	3
573.580	1	4
573.920	1	13
574.260	1	10
574.599	1	5
574.939	1	5
575.279	1	8
575.619	1	8
575.959	1	-5
576.298	1	7
576.638	1	2
576.978	1	9
577.318	1	5
577.657	1	1
577.997	1	0
578.337	1	12
578.677	1	13
579.016	1	3
579.356	1	-9
579.696	1	2
580.036	1	-5
580.375	1	-2
580.715	1	0
581.055	1	-4
581.394	1	3
581.734	1	-5
582.074	1	6
582.414	1	3
582.753	1	2
583.093	1	-8
583.433	1	0
583.772	1	14
584.112	1	1
584.452	1	3
584.791	1	-3
585.131	1	2
585.471	1	9
585.811	1	6
586.150	1	3
586.490	1	2
586.830	1	-10
587.169	1	2
587.509	1	5
587.849	1	4
588.188	1	9
588.528	1	2
588.867	1	0
589.207	1	1
589.547	1	2
589.886	1	-12
590.226	1	4
590.566	1	-7
590.905	1	2
591.245	1	-7
591.585	1	0
591.924	1	4
592.264	1	7
592.603	1	-2
592.943	1	8
593.283	1	5
593.622	1	-4
593.962	1	0
594.301	1	13
594.641	1	-5
594.981	1	-1
595.320	1	-4
595.660	1	6
595.999	1	-7
596.339	1	6
596.678	1	-6
597.018	1	-6
597.358	1	5
597.697	1	2
598.037	1	-2
598.376	1	-2
598.716	1	-4
599.055	1	6
599.395	1	0
599.734	1	9
600.074	1	5
600.413	1	20
600.753	1	3
601.092	1	11
601.432	1	-11
601.771	1	1
602.111	1	1
602.451	1	10
602.790	1	-2
603.130	1	5
603.469	1	-1
603.809	1	11
604.148	1	10
604.487	1	-5
604.827	1	1
605.166	1	4
605.506	1	0
605.845	1	-4
606.185	1	1
606.524	1	4
606.864	1	-2
607.203	1	5
607.543	1	9
607.882	1	5
608.222	1	2
608.561	1	-1
608.901	1	8
609.240	1	-10
609.579	1	13
609.919	1	4
610.258	1	5
610.598	1	4
610.937	1	1
611.277	1	-2
611.616	1	-2
611.955	1	0
612.295	1	-11
612.634	1	2
612.974	1	-12
613.313	1	13
613.652	1	3
613.992	1	-3
614.331	1	-5
614.671	1	4
615.010	1	-6
615.349	1	2
615.689	1	6
616.028	1	1
616.368	1	-2
616.707	1	-4
617.046	1	7
617.386	1	1
617.725	1	-6
618.064	1	-2
618.404	1	-2
618.743	1	-4
619.082	1	-1
619.422	1	-8
619.761	1	5
620.100	1	15
620.440	1	-6
620.779	1	-7
621.118	1	-7
621.458	1	-1
621.797	1	-9
622.136	1	9
622.476	1	-3
622.815	1	1
623.154	1	5
623.494	1	16
623.833	1	7
624.172	1	-2
624.511	1	4
624.851	1	-14
625.190	1	1
625.529	1	2
625.869	1	7
626.208	1	1
626.547	1	-2
626.886	1	9
627.226	1	8
627.565	1	1
627.904	1	-4
628.243	1	5
628.583	1	4
628.922	1	7
629.261	1	4
629.600	1	12
629.940	1	3
630.279	1	-3
630.618	1	-4
630.957	1	12
631.297	1	0
631.636	1	-10
631.975	1	18
632.314	1	-6
632.653	1	-2
632.993	1	-1
633.332	1	4
633.671	1	-1
634.010	1	-9
634.349	1	9
634.689	1	-3
635.028	1	1
635.367	1	-4
635.706	1	2
636.045	1	16
636.384	1	-4
636.724	1	5
637.063	1	0
637.402	1	7
637.741	1	1
638.080	1	3
638.419	1	-3
638.759	1	-4
639.098	1	4
639.437	1	5
639.776	1	-9
640.115	1	-1
640.454	1	-1
640.793	1	6
641.132	1	1
641.472	1	5
641.811	1	9
642.150	1	-11
642.489	1	3
642.828	1	-3
643.167	1	-9
643.506	1	-1
643.845	1	4
644.184	1	2
644.524	1	-1
644.863	1	-10
645.202	1	-1
645.541	1	1
645.880	1	5
646.219	1	-2
646.558	1	0
646.897	1	2
647.236	1	5
647.575	1	10
647.914	1	-6
648.253	1	5
648.592	1	-7
648.931	1	13
649.270	1	-6
649.610	1	1
649.949	1	0
650.288	1	5
650.627	1	2
650.966	1	4
651.305	1	3
651.644	1	2
651.983	1	0
652.322	1	-3
652.661	1	-2
653.000	1	-4
653.339	1	5
653.678	1	1
654.017	1	2
654.356	1	1
654.695	1	-6
655.034	1	7
655.373	1	7
655.712	1	3
656.051	1	0
656.390	1	-9
656.729	1	4
657.068	1	-2
657.406	1	9
657.745	1	-5
658.084	1	3
658.423	1	2
658.762	1	2
659.101	1	12
659.440	1	3
659.779	1	4
660.118	1	0
660.457	1	1
660.796	1	-7
661.135	1	-8
661.474	1	5
661.813	1	9
662.152	1	1
662.491	1	-3
662.829	1	-7
663.168	1	2
663.507	1	3
663.846	1	-3
664.185	1	4
664.524	1	0
664.863	1	-9
665.202	1	2
665.541	1	-10
665.879	1	-8
666.218	1	-6
666.557	1	4
666.896	1	2
667.235	1	10
667.574	1	5
667.913	1	8
668.251	1	2
668.590	1	2
668.929	1	-8
669.268	1	-3
669.607	1	0
669.946	1	6
670.285	1	6
670.623	1	3
670.962	1	12
671.301	1	-10
671.640	1	-1
671.979	1	-2
672.317	1	5
672.656	1	-1
672.995	1	5
673.334	1	1
673.673	1	6
674.011	1	-5
674.350	1	5
674.689	1	-5
675.028	1	-1
675.367	1	18
675.705	1	1
676.044	1	1
676.383	1	1
676.722	1	5
677.060	1	-7
677.399	1	-9
677.738	1	0
678.077	1	7
678.416	1	-6
678.754	1	0
679.093	1	10
679.432	1	1
679.771	1	5
680.109	1	14
680.448	1	9
680.787	1	-6
681.125	1	8
681.464	1	3
681.803	1	-7
682.142	1	5
682.480	1	3
682.819	1	-1
683.158	1	-1
683.496	1	5
683.835	1	2
684.174	1	1
684.512	1	5
684.851	1	8
685.190	1	-6
685.529	1	-3
685.867	1	9
686.206	1	0
686.545	1	2
686.883	1	1
687.222	1	5
687.561	1	2
687.899	1	-3
688.238	1	-2
688.577	1	-4
688.746	1	-4