File: Data/GaN_200K_800ms/GaN_sample F_spot 12_UVVIS_200 K_200um_800 ms 2x2mm1_422.txt
340.368	1	-2
340.710	1	-14
341.052	1	3
341.394	1	-6
341.737	1	0
342.079	1	-14
342.421	1	1
342.763	1	4
343.105	1	2
343.447	1	-6
343.789	1	-6
344.131	1	-4
344.473	1	-3
344.815	1	0
345.157	1	-10
345.499	1	-7
345.841	1	0
346.183	1	-2
346.526	1	-11
346.868	1	0
347.210	1	-5
347.552	1	-12
347.894	1	0
348.236	1	9
348.578	1	6
348.920	1	-6
349.262	1	-6
349.604	1	9
349.946	1	-5
350.288	1	13
350.630	1	1
350.972	1	1
351.314	1	1
351.656	1	11
351.998	1	3
352.340	1	-2
352.682	1	5
353.024	1	0
353.366	1	8
353.708	1	-2
354.050	1	-12
354.392	1	-16
354.734	1	3
355.076	1	-7
355.418	1	-19
355.760	1	0
356.102	1	6
356.444	1	11
356.785	1	5
357.127	1	-3
357.469	1	-3
357.811	1	-3
358.153	1	4
358.495	1	4
358.837	1	-16
359.179	1	0
359.521	1	-1
359.863	1	0
360.205	1	-4
360.547	1	-2
360.889	1	-3
361.231	1	-1
361.572	1	6
361.914	1	4
362.256	1	1
362.598	1	-7
362.940	1	2
363.282	1	6
363.624	1	9
363.966	1	-8
364.308	1	0
364.649	1	19
364.991	1	1
365.333	1	-5
365.675	1	-3
366.017	1	-5
366.359	1	-6
366.701	1	3
367.042	1	9
367.384	1	13
367.726	1	11
368.068	1	13
368.410	1	16
368.752	1	6
369.093	1	1
369.435	1	10
369.777	1	1
370.119	1	2
370.461	1	20
370.803	1	19
371.144	1	2
371.486	1	6
371.828	1	8
372.170	1	14
372.512	1	3
372.853	1	18
373.195	1	-2
373.537	1	11
373.879	1	0
374.220	1	11
374.562	1	11
374.904	1	2
375.246	1	8
375.588	1	9
375.929	1	9
376.271	1	4
376.613	1	-3
376.955	1	-4
377.296	1	-7
377.638	1	2
377.980	1	9
378.321	1	-2
378.663	1	0
379.005	1	6
379.347	1	8
379.688	1	6
380.030	1	5
380.372	1	8
380.714	1	15
381.055	1	11
381.397	1	1
381.739	1	3
382.080	1	-4
382.422	1	-3
382.764	1	0
383.105	1	1
383.447	1	4
383.789	1	-6
384.130	1	4
384.472	1	-5
384.814	1	-6
385.156	1	0
385.497	1	8
385.839	1	-2
386.180	1	-2
386.522	1	9
386.864	1	-2
387.205	1	-2
387.547	1	-11
387.889	1	1
388.230	1	7
388.572	1	-1
388.914	1	5
389.255	1	-6
389.597	1	0
389.939	1	2
390.280	1	7
390.622	1	0
390.963	1	12
391.305	1	-4
391.647	1	6
391.988	1	1
392.330	1	12
392.671	1	-11
393.013	1	0
393.355	1	-4
393.696	1	7
394.038	1	0
394.379	1	2
394.721	1	-8
395.062	1	5
395.404	1	1
395.746	1	13
396.087	1	-6
396.429	1	-7
396.770	1	-1
397.112	1	7
397.453	1	15
397.795	1	3
398.136	1	-10
398.478	1	-2
398.819	1	-6
399.161	1	12
399.503	1	-5
399.844	1	-1
400.186	1	-8
400.527	1	-8
400.869	1	-7
401.210	1	2
401.552	1	-18
401.893	1	3
402.235	1	-2
402.576	1	-1
402.918	1	8
403.259	1	-1
403.601	1	1
403.942	1	9
404.284	1	1
404.625	1	2
404.967	1	-1
405.308	1	8
405.649	1	-5
405.991	1	-4
406.332	1	-1
406.674	1	3
407.015	1	14
407.357	1	2
407.698	1	4
408.040	1	-4
408.381	1	1
408.722	1	-11
409.064	1	1
409.405	1	3
409.747	1	2
410.088	1	6
410.430	1	4
410.771	1	-1
411.112	1	-7
411.454	1	1
411.795	1	-7
412.137	1	1
412.478	1	13
412.819	1	-10
413.161	1	-3
413.502	1	-1
413.844	1	0
414.185	1	3
414.526	1	-4
414.868	1	5
415.209	1	-2
415.550	1	0
415.892	1	-1
416.233	1	2
416.575	1	6
416.916	1	-5
417.257	1	-7
417.599	1	6
417.940	1	13
418.281	1	6
418.623	1	-8
418.964	1	-1
419.305	1	2
419.647	1	0
419.988	1	-1
420.329	1	-5
420.671	1	7
421.012	1	3
421.353	1	-4
421.695	1	-7
422.036	1	-1
422.377	1	-8
422.718	1	2
423.060	1	-9
423.401	1	-5
423.742	1	1
424.084	1	1
424.425	1	6
424.766	1	-4
425.107	1	-12
425.449	1	5
425.790	1	-14
426.131	1	-4
426.472	1	-5
426.814	1	7
427.155	1	-8
427.496	1	0
427.837	1	-8
428.179	1	-3
428.520	1	-8
428.861	1	-5
429.202	1	1
429.544	1	3
429.885	1	0
430.226	1	1
430.567	1	-10
430.909	1	1
431.250	1	-5
431.591	1	4
431.932	1	3
432.273	1	-11
432.615	1	-7
432.956	1	-5
433.297	1	6
433.638	1	-2
433.979	1	5
434.320	1	1
434.662	1	-4
435.003	1	-5
435.344	1	-2
435.685	1	-1
436.026	1	9
436.368	1	0
436.709	1	5
437.050	1	1
437.391	1	3
437.732	1	-7
438.073	1	-9
438.414	1	-10
438.756	1	0
439.097	1	-6
439.438	1	-11
439.779	1	0
440.120	1	-4
440.461	1	-5
440.802	1	-1
441.143	1	6
441.485	1	4
441.826	1	-5
442.167	1	3
442.508	1	-2
442.849	1	11
443.190	1	1
443.531	1	6
443.872	1	5
444.213	1	1
444.554	1	4
444.895	1	-2
445.237	1	1
445.578	1	-5
445.919	1	-4
446.260	1	-3
446.601	1	-4
446.942	1	7
447.283	1	4
447.624	1	-2
447.965	1	3
448.306	1	-4
448.647	1	-14
448.988	1	-2
449.329	1	-4
449.670	1	12
450.011	1	1
450.352	1	3
450.693	1	-5
451.034	1	1
451.375	1	2
451.716	1	-4
452.057	1	6
452.398	1	0
452.739	1	4
453.080	1	1
453.421	1	-4
453.762	1	-5
454.103	1	-4
454.444	1	-10
454.785	1	0
455.126	1	-10
455.467	1	-3
455.808	1	-1
456.149	1	-2
456.490	1	-3
456.831	1	9
457.172	1	-3
457.513	1	7
457.854	1	-2
458.195	1	-11
458.536	1	2
458.877	1	0
459.218	1	-2
459.559	1	3
459.899	1	2
460.240	1	-3
460.581	1	4
460.922	1	2
461.263	1	1
461.604	1	2
461.945	1	6
462.286	1	1
462.627	1	14
462.968	1	3
463.309	1	-4
463.649	1	-8
463.990	1	-4
464.331	1	-1
464.672	1	-6
465.013	1	-2
465.354	1	5
465.695	1	-3
466.036	1	-9
466.376	1	-5
466.717	1	-1
467.058	1	-13
467.399	1	18
467.740	1	1
468.081	1	-5
468.422	1	-5
468.762	1	-10
469.103	1	-17
469.444	1	0
469.785	1	-16
470.126	1	-11
470.467	1	-5
470.807	1	3
471.148	1	4
471.489	1	-6
471.830	1	-2
472.171	1	5
472.511	1	-9
472.852	1	-3
473.193	1	3
473.534	1	3
473.875	1	12
474.215	1	11
474.556	1	0
474.897	1	7
475.238	1	6
475.578	1	-7
475.919	1	-1
476.260	1	6
476.601	1	-10
476.942	1	11
477.282	1	-8
477.623	1	-9
477.964	1	-4
478.305	1	-2
478.645	1	5
478.986	1	3
479.327	1	1
479.667	1	-14
480.008	1	-7
480.349	1	-10
480.690	1	4
481.030	1	-3
481.371	1	3
481.712	1	1
482.053	1	5
482.393	1	-3
482.734	1	3
483.075	1	3
483.415	1	-2
483.756	1	-1
484.097	1	-11
484.437	1	0
484.778	1	-4
485.119	1	-2
485.459	1	9
485.800	1	-3
486.141	1	1
486.481	1	-3
486.822	1	9
487.163	1	-5
487.503	1	-2
487.844	1	4
488.185	1	7
488.525	1	1
488.866	1	2
489.207	1	1
489.547	1	1
489.888	1	-11
490.228	1	13
490.569	1	6
490.910	1	5
491.250	1	-4
491.591	1	-4
491.932	1	-1
492.272	1	3
492.613	1	-12
492.953	1	1
493.294	1	-5
493.635	1	0
493.975	1	-7
494.316	1	-4
494.656	1	1
494.997	1	-1
495.337	1	5
495.678	1	-7
496.019	1	4
496.359	1	-3
496.700	1	2
497.040	1	-4
497.381	1	-6
497.721	1	-5
498.062	1	3
498.403	1	3
498.743	1	5
499.084	1	0
499.424	1	2
499.765	1	-5
500.105	1	-4
500.446	1	-12
500.786	1	-3
501.127	1	3
501.467	1	-8
501.808	1	5
502.148	1	-1
502.489	1	-2
502.829	1	3
503.170	1	9
503.510	1	7
503.851	1	-3
504.191	1	5
504.532	1	4
504.872	1	-8
505.213	1	1
505.553	1	-11
505.894	1	-11
506.234	1	-4
506.575	1	-5
506.915	1	4
507.256	1	0
507.596	1	-2
507.936	1	-1
508.277	1	-2
508.617	1	-1
508.958	1	-3
509.298	1	-5
509.639	1	-16
509.979	1	0
510.319	1	5
510.660	1	-8
511.000	1	1
511.341	1	7
511.681	1	7
512.022	1	2
512.362	1	-12
512.702	1	-3
513.043	1	10
513.383	1	-11
513.724	1	-1
514.064	1	0
514.404	1	-2
514.745	1	-3
515.085	1	-5
515.425	1	-3
515.766	1	-9
516.106	1	-1
516.447	1	10
516.787	1	-2
517.127	1	-1
517.468	1	-3
517.808	1	-6
518.148	1	0
518.489	1	-3
518.829	1	-1
519.169	1	-1
519.510	1	-2
519.850	1	4
520.190	1	-4
520.531	1	5
520.871	1	13
521.211	1	-9
521.552	1	1
521.892	1	-5
522.232	1	3
522.573	1	1
522.913	1	6
523.253	1	-4
523.593	1	-4
523.934	1	-3
524.274	1	-6
524.614	1	-5
524.955	1	-7
525.295	1	2
525.635	1	-4
525.975	1	-2
526.316	1	6
526.656	1	-6
526.996	1	3
527.337	1	-3
527.677	1	-1
528.017	1	-7
528.357	1	-2
528.698	1	-3
529.038	1	-1
529.378	1	10
529.718	1	10
530.058	1	-1
530.399	1	13
530.739	1	-4
531.079	1	5
531.419	1	1
531.760	1	-1
532.100	1	-8
532.440	1	-2
532.780	1	-10
533.120	1	3
533.461	1	-3
533.801	1	7
534.141	1	1
534.481	1	-7
534.821	1	0
535.162	1	7
535.502	1	-6
535.842	1	5
536.182	1	-4
536.522	1	-1
536.862	1	4
537.203	1	-6
537.543	1	-10
537.883	1	-6
538.223	1	6
538.563	1	0
538.903	1	-13
539.243	1	2
539.584	1	-4
539.924	1	9
540.264	1	-7
540.604	1	2
540.944	1	1
541.284	1	9
541.624	1	10
541.964	1	10
542.305	1	9
542.645	1	-4
542.985	1	1
543.325	1	-5
543.665	1	3
544.005	1	6
544.345	1	7
544.685	1	-2
545.025	1	-8
545.365	1	1
545.705	1	-12
546.045	1	-5
546.386	1	7
546.726	1	-11
547.066	1	2
547.406	1	3
547.746	1	-4
548.086	1	2
548.426	1	-6
548.766	1	2
549.106	1	4
549.446	1	-5
549.786	1	-10
550.126	1	11
550.466	1	-1
550.806	1	-6
551.146	1	-4
551.486	1	-11
551.826	1	3
552.166	1	-7
552.506	1	9
552.846	1	1
553.186	1	1
553.526	1	2
553.866	1	6
554.206	1	1
554.546	1	4
554.886	1	8
555.226	1	-5
555.566	1	7
555.906	1	8
556.246	1	9
556.586	1	0
556.926	1	-6
557.266	1	-4
557.606	1	4
557.946	1	11
558.286	1	5
558.626	1	0
558.966	1	-2
559.306	1	-7
559.646	1	-5
559.986	1	-7
560.325	1	-5
560.665	1	2
561.005	1	-2
561.345	1	1
561.685	1	-5
562.025	1	-5
562.365	1	9
562.705	1	2
563.045	1	-2
563.385	1	-6
563.725	1	0
564.064	1	-7
564.404	1	7
564.744	1	0
565.084	1	-6
565.424	1	0
565.764	1	1
566.104	1	-5
566.444	1	-11
566.783	1	-2
567.123	1	5
567.463	1	11
567.803	1	-10
568.143	1	-4
568.483	1	0
568.823	1	-1
569.162	1	4
569.502	1	-8
569.842	1	0
570.182	1	-5
570.522	1	-7
570.862	1	-9
571.201	1	6
571.541	1	0
571.881	1	11
572.221	1	-13
572.561	1	-8
572.900	1	-2
573.240	1	5
573.580	1	4
573.920	1	8
574.260	1	6
574.599	1	-3
574.939	1	-4
575.279	1	1
575.619	1	12
575.959	1	-8
576.298	1	9
576.638	1	-5
576.978	1	2
577.318	1	1
577.657	1	-6
577.997	1	1
578.337	1	11
578.677	1	8
579.016	1	4
579.356	1	-4
579.696	1	3
580.036	1	0
580.375	1	-2
580.715	1	-5
581.055	1	3
581.394	1	0
581.734	1	-2
582.074	1	-3
582.414	1	4
582.753	1	-9
583.093	1	-6
583.433	1	-6
583.772	1	7
584.112	1	4
584.452	1	8
584.791	1	-1
585.131	1	-5
585.471	1	13
585.811	1	5
586.150	1	-2
586.490	1	-3
586.830	1	4
587.169	1	1
587.509	1	-10
587.849	1	-2
588.188	1	4
588.528	1	-1
588.867	1	3
589.207	1	5
589.547	1	1
589.886	1	-7
590.226	1	1
590.566	1	-10
590.905	1	-8
591.245	1	0
591.585	1	12
591.924	1	-1
592.264	1	-3
592.603	1	4
592.943	1	1
593.283	1	-2
593.622	1	-1
593.962	1	-3
594.301	1	-1
594.641	1	-1
594.981	1	-7
595.320	1	-7
595.660	1	-5
595.999	1	-8
596.339	1	4
596.678	1	-10
597.018	1	-8
597.358	1	2
597.697	1	-5
598.037	1	-4
598.376	1	3
598.716	1	8
599.055	1	5
599.395	1	-3
599.734	1	-1
600.074	1	4
600.413	1	10
600.753	1	2
601.092	1	5
601.432	1	-6
601.771	1	7
602.111	1	4
602.451	1	7
602.790	1	-3
603.130	1	3
603.469	1	-12
603.809	1	0
604.148	1	5
604.487	1	-3
604.827	1	4
605.166	1	6
605.506	1	0
605.845	1	-3
606.185	1	1
606.524	1	-6
606.864	1	-1
607.203	1	1
607.543	1	-4
607.882	1	1
608.222	1	5
608.561	1	-2
608.901	1	5
609.240	1	-8
609.579	1	5
609.919	1	4
610.258	1	8
610.598	1	-2
610.937	1	-5
611.277	1	4
611.616	1	-8
611.955	1	-7
612.295	1	0
612.634	1	-6
612.974	1	-16
613.313	1	4
613.652	1	3
613.992	1	-6
614.331	1	1
614.671	1	10
615.010	1	-7
615.349	1	3
615.689	1	9
616.028	1	-3
616.368	1	-6
616.707	1	1
617.046	1	-2
617.386	1	2
617.725	1	3
618.064	1	0
618.404	1	0
618.743	1	-1
619.082	1	-1
619.422	1	-8
619.761	1	0
620.100	1	6
620.440	1	3
620.779	1	-6
621.118	1	3
621.458	1	-2
621.797	1	0
622.136	1	8
622.476	1	3
622.815	1	5
623.154	1	10
623.494	1	12
623.833	1	8
624.172	1	4
624.511	1	-8
624.851	1	-6
625.190	1	-1
625.529	1	-1
625.869	1	11
626.208	1	-1
626.547	1	-2
626.886	1	4
627.226	1	-1
627.565	1	4
627.904	1	-1
628.243	1	2
628.583	1	1
628.922	1	4
629.261	1	2
629.600	1	13
629.940	1	-4
630.279	1	2
630.618	1	1
630.957	1	2
631.297	1	0
631.636	1	-6
631.975	1	10
632.314	1	3
632.653	1	-2
632.993	1	5
633.332	1	3
633.671	1	0
634.010	1	-4
634.349	1	-1
634.689	1	2
635.028	1	3
635.367	1	1
635.706	1	6
636.045	1	8
636.384	1	-1
636.724	1	-6
637.063	1	-1
637.402	1	-2
637.741	1	-4
638.080	1	-9
638.419	1	-6
638.759	1	-4
639.098	1	2
639.437	1	4
639.776	1	-8
640.115	1	-5
640.454	1	-4
640.793	1	6
641.132	1	2
641.472	1	7
641.811	1	-3
642.150	1	-15
642.489	1	10
642.828	1	-3
643.167	1	-2
643.506	1	-4
643.845	1	-4
644.184	1	1
644.524	1	0
644.863	1	-8
645.202	1	0
645.541	1	0
645.880	1	-3
646.219	1	0
646.558	1	-1
646.897	1	1
647.236	1	2
647.575	1	-1
647.914	1	-7
648.253	1	10
648.592	1	-6
648.931	1	12
649.270	1	7
649.610	1	-4
649.949	1	-2
650.288	1	11
650.627	1	-10
650.966	1	1
651.305	1	0
651.644	1	14
651.983	1	1
652.322	1	4
652.661	1	-5
653.000	1	-4
653.339	1	3
653.678	1	-2
654.017	1	-2
654.356	1	1
654.695	1	5
655.034	1	-2
655.373	1	6
655.712	1	5
656.051	1	-2
656.390	1	0
656.729	1	8
657.068	1	4
657.406	1	2
657.745	1	-1
658.084	1	10
658.423	1	8
658.762	1	3
659.101	1	14
659.440	1	6
659.779	1	-2
660.118	1	-1
660.457	1	-9
660.796	1	-8
661.135	1	-4
661.474	1	-10
661.813	1	7
662.152	1	-6
662.491	1	3
662.829	1	-12
663.168	1	-1
663.507	1	-3
663.846	1	-7
664.185	1	0
664.524	1	3
664.863	1	-3
665.202	1	-1
665.541	1	-14
665.879	1	-11
666.218	1	-8
666.557	1	-4
666.896	1	-6
667.235	1	1
667.574	1	-1
667.913	1	0
668.251	1	-9
668.590	1	-1
668.929	1	-13
669.268	1	-8
669.607	1	0
669.946	1	-3
670.285	1	12
670.623	1	-7
670.962	1	-5
671.301	1	-2
671.640	1	-2
671.979	1	-6
672.317	1	2
672.656	1	0
672.995	1	3
673.334	1	-6
673.673	1	4
674.011	1	1
674.350	1	-2
674.689	1	-8
675.028	1	1
675.367	1	8
675.705	1	2
676.044	1	-4
676.383	1	6
676.722	1	8
677.060	1	-10
677.399	1	-11
677.738	1	10
678.077	1	8
678.416	1	-2
678.754	1	-13
679.093	1	6
679.432	1	-3
679.771	1	-4
680.109	1	8
680.448	1	2
680.787	1	0
681.125	1	4
681.464	1	0
681.803	1	-3
682.142	1	0
682.480	1	9
682.819	1	2
683.158	1	1
683.496	1	0
683.835	1	5
684.174	1	0
684.512	1	3
684.851	1	5
685.190	1	3
685.529	1	-3
685.867	1	-3
686.206	1	-2
686.545	1	-6
686.883	1	-3
687.222	1	3
687.561	1	-2
687.899	1	-3
688.238	1	-1
688.577	1	-8
688.746	1	-1