File: Data/GaN_200K_800ms/GaN_sample F_spot 12_UVVIS_200 K_200um_800 ms 2x2mm1_499.txt
340.368	1	4
340.710	1	-9
341.052	1	-4
341.394	1	-11
341.737	1	8
342.079	1	-2
342.421	1	-7
342.763	1	5
343.105	1	-5
343.447	1	-3
343.789	1	-2
344.131	1	-2
344.473	1	-9
344.815	1	-1
345.157	1	-9
345.499	1	-3
345.841	1	1
346.183	1	-6
346.526	1	-3
346.868	1	5
347.210	1	-11
347.552	1	-10
347.894	1	-5
348.236	1	5
348.578	1	-1
348.920	1	-7
349.262	1	-5
349.604	1	0
349.946	1	0
350.288	1	6
350.630	1	3
350.972	1	2
351.314	1	10
351.656	1	8
351.998	1	2
352.340	1	1
352.682	1	1
353.024	1	3
353.366	1	12
353.708	1	-3
354.050	1	-5
354.392	1	-7
354.734	1	6
355.076	1	4
355.418	1	-10
355.760	1	-5
356.102	1	8
356.444	1	-3
356.785	1	3
357.127	1	5
357.469	1	-1
357.811	1	-6
358.153	1	7
358.495	1	6
358.837	1	-13
359.179	1	5
359.521	1	9
359.863	1	0
360.205	1	6
360.547	1	3
360.889	1	-3
361.231	1	-4
361.572	1	5
361.914	1	7
362.256	1	1
362.598	1	0
362.940	1	-11
363.282	1	-1
363.624	1	11
363.966	1	5
364.308	1	2
364.649	1	6
364.991	1	2
365.333	1	0
365.675	1	1
366.017	1	4
366.359	1	-3
366.701	1	2
367.042	1	8
367.384	1	13
367.726	1	13
368.068	1	2
368.410	1	12
368.752	1	-5
369.093	1	-1
369.435	1	14
369.777	1	-1
370.119	1	2
370.461	1	22
370.803	1	11
371.144	1	0
371.486	1	5
371.828	1	13
372.170	1	10
372.512	1	-3
372.853	1	-1
373.195	1	3
373.537	1	2
373.879	1	3
374.220	1	12
374.562	1	15
374.904	1	2
375.246	1	5
375.588	1	7
375.929	1	1
376.271	1	8
376.613	1	3
376.955	1	-2
377.296	1	0
377.638	1	-2
377.980	1	2
378.321	1	-8
378.663	1	-3
379.005	1	14
379.347	1	1
379.688	1	5
380.030	1	2
380.372	1	3
380.714	1	5
381.055	1	7
381.397	1	0
381.739	1	10
382.080	1	-7
382.422	1	-6
382.764	1	-4
383.105	1	-9
383.447	1	1
383.789	1	-5
384.130	1	-1
384.472	1	5
384.814	1	-2
385.156	1	-13
385.497	1	0
385.839	1	-6
386.180	1	-2
386.522	1	8
386.864	1	0
387.205	1	0
387.547	1	-4
387.889	1	3
388.230	1	0
388.572	1	-3
388.914	1	14
389.255	1	-4
389.597	1	-6
389.939	1	-4
390.280	1	-1
390.622	1	-3
390.963	1	11
391.305	1	3
391.647	1	7
391.988	1	2
392.330	1	8
392.671	1	8
393.013	1	-6
393.355	1	1
393.696	1	-3
394.038	1	-4
394.379	1	-2
394.721	1	-7
395.062	1	5
395.404	1	-4
395.746	1	5
396.087	1	-5
396.429	1	6
396.770	1	2
397.112	1	-1
397.453	1	9
397.795	1	0
398.136	1	-9
398.478	1	2
398.819	1	5
399.161	1	11
399.503	1	-5
399.844	1	-1
400.186	1	-4
400.527	1	-5
400.869	1	0
401.210	1	7
401.552	1	-2
401.893	1	6
402.235	1	2
402.576	1	-3
402.918	1	5
403.259	1	5
403.601	1	2
403.942	1	1
404.284	1	8
404.625	1	1
404.967	1	-2
405.308	1	-1
405.649	1	-1
405.991	1	-1
406.332	1	7
406.674	1	0
407.015	1	9
407.357	1	-3
407.698	1	3
408.040	1	-3
408.381	1	3
408.722	1	-22
409.064	1	7
409.405	1	-1
409.747	1	-4
410.088	1	4
410.430	1	8
410.771	1	-5
411.112	1	-5
411.454	1	-14
411.795	1	-8
412.137	1	1
412.478	1	9
412.819	1	-3
413.161	1	-3
413.502	1	-4
413.844	1	-5
414.185	1	-2
414.526	1	-4
414.868	1	4
415.209	1	0
415.550	1	-1
415.892	1	-4
416.233	1	7
416.575	1	9
416.916	1	-4
417.257	1	-5
417.599	1	-5
417.940	1	3
418.281	1	7
418.623	1	-3
418.964	1	-3
419.305	1	2
419.647	1	-6
419.988	1	-2
420.329	1	-6
420.671	1	8
421.012	1	-2
421.353	1	-11
421.695	1	-10
422.036	1	0
422.377	1	-3
422.718	1	3
423.060	1	-1
423.401	1	-4
423.742	1	-3
424.084	1	0
424.425	1	4
424.766	1	3
425.107	1	-5
425.449	1	2
425.790	1	-12
426.131	1	-4
426.472	1	-6
426.814	1	-4
427.155	1	-4
427.496	1	-8
427.837	1	-8
428.179	1	-18
428.520	1	3
428.861	1	2
429.202	1	-5
429.544	1	-3
429.885	1	2
430.226	1	-15
430.567	1	5
430.909	1	1
431.250	1	-1
431.591	1	-2
431.932	1	-6
432.273	1	-2
432.615	1	-10
432.956	1	-14
433.297	1	-2
433.638	1	7
433.979	1	9
434.320	1	8
434.662	1	-4
435.003	1	-5
435.344	1	-7
435.685	1	-6
436.026	1	4
436.368	1	0
436.709	1	2
437.050	1	-9
437.391	1	13
437.732	1	-8
438.073	1	5
438.414	1	-6
438.756	1	-3
439.097	1	-12
439.438	1	-10
439.779	1	-1
440.120	1	3
440.461	1	1
440.802	1	-10
441.143	1	3
441.485	1	3
441.826	1	4
442.167	1	5
442.508	1	2
442.849	1	-1
443.190	1	5
443.531	1	11
443.872	1	7
444.213	1	-4
444.554	1	5
444.895	1	-14
445.237	1	2
445.578	1	-6
445.919	1	-8
446.260	1	-6
446.601	1	-10
446.942	1	-1
447.283	1	-9
447.624	1	1
447.965	1	-4
448.306	1	-6
448.647	1	-14
448.988	1	-5
449.329	1	0
449.670	1	5
450.011	1	6
450.352	1	4
450.693	1	-4
451.034	1	-1
451.375	1	2
451.716	1	3
452.057	1	3
452.398	1	1
452.739	1	-6
453.080	1	-2
453.421	1	5
453.762	1	1
454.103	1	-1
454.444	1	-13
454.785	1	2
455.126	1	-11
455.467	1	2
455.808	1	5
456.149	1	9
456.490	1	-4
456.831	1	6
457.172	1	-6
457.513	1	7
457.854	1	3
458.195	1	-13
458.536	1	-1
458.877	1	2
459.218	1	-2
459.559	1	0
459.899	1	-11
460.240	1	7
460.581	1	10
460.922	1	-5
461.263	1	-14
461.604	1	-5
461.945	1	-4
462.286	1	-1
462.627	1	7
462.968	1	2
463.309	1	-2
463.649	1	-7
463.990	1	0
464.331	1	-2
464.672	1	0
465.013	1	-7
465.354	1	2
465.695	1	-8
466.036	1	2
466.376	1	3
466.717	1	-4
467.058	1	-4
467.399	1	2
467.740	1	-7
468.081	1	7
468.422	1	-3
468.762	1	0
469.103	1	-8
469.444	1	-7
469.785	1	-12
470.126	1	-12
470.467	1	-2
470.807	1	-1
471.148	1	-5
471.489	1	0
471.830	1	-1
472.171	1	-2
472.511	1	-6
472.852	1	8
473.193	1	6
473.534	1	10
473.875	1	14
474.215	1	4
474.556	1	-2
474.897	1	1
475.238	1	-10
475.578	1	-2
475.919	1	-2
476.260	1	-2
476.601	1	-8
476.942	1	8
477.282	1	-7
477.623	1	-13
477.964	1	5
478.305	1	0
478.645	1	4
478.986	1	-9
479.327	1	-14
479.667	1	3
480.008	1	0
480.349	1	-5
480.690	1	-5
481.030	1	-2
481.371	1	4
481.712	1	5
482.053	1	4
482.393	1	0
482.734	1	-5
483.075	1	-5
483.415	1	-1
483.756	1	5
484.097	1	2
484.437	1	-13
484.778	1	-1
485.119	1	-4
485.459	1	12
485.800	1	-13
486.141	1	-13
486.481	1	-8
486.822	1	8
487.163	1	-5
487.503	1	-5
487.844	1	-17
488.185	1	3
488.525	1	-1
488.866	1	-2
489.207	1	3
489.547	1	-3
489.888	1	-7
490.228	1	6
490.569	1	11
490.910	1	-4
491.250	1	0
491.591	1	5
491.932	1	-9
492.272	1	-2
492.613	1	3
492.953	1	-7
493.294	1	-2
493.635	1	-11
493.975	1	5
494.316	1	5
494.656	1	1
494.997	1	-3
495.337	1	7
495.678	1	0
496.019	1	-8
496.359	1	-9
496.700	1	5
497.040	1	-11
497.381	1	-5
497.721	1	2
498.062	1	4
498.403	1	2
498.743	1	3
499.084	1	-2
499.424	1	11
499.765	1	5
500.105	1	3
500.446	1	-14
500.786	1	-6
501.127	1	2
501.467	1	-4
501.808	1	2
502.148	1	-2
502.489	1	6
502.829	1	-1
503.170	1	2
503.510	1	2
503.851	1	4
504.191	1	11
504.532	1	7
504.872	1	5
505.213	1	5
505.553	1	-2
505.894	1	-8
506.234	1	6
506.575	1	2
506.915	1	11
507.256	1	2
507.596	1	-3
507.936	1	-1
508.277	1	-3
508.617	1	-1
508.958	1	-1
509.298	1	1
509.639	1	-4
509.979	1	-3
510.319	1	11
510.660	1	-2
511.000	1	-5
511.341	1	3
511.681	1	3
512.022	1	-7
512.362	1	-10
512.702	1	-4
513.043	1	7
513.383	1	-2
513.724	1	-2
514.064	1	0
514.404	1	5
514.745	1	-2
515.085	1	-3
515.425	1	-7
515.766	1	-10
516.106	1	-5
516.447	1	8
516.787	1	5
517.127	1	-8
517.468	1	3
517.808	1	-6
518.148	1	1
518.489	1	2
518.829	1	7
519.169	1	-4
519.510	1	-10
519.850	1	0
520.190	1	-2
520.531	1	0
520.871	1	9
521.211	1	-8
521.552	1	-1
521.892	1	-1
522.232	1	0
522.573	1	-1
522.913	1	-1
523.253	1	-3
523.593	1	-5
523.934	1	1
524.274	1	5
524.614	1	-4
524.955	1	-2
525.295	1	9
525.635	1	0
525.975	1	0
526.316	1	7
526.656	1	0
526.996	1	5
527.337	1	1
527.677	1	10
528.017	1	-7
528.357	1	7
528.698	1	2
529.038	1	0
529.378	1	-3
529.718	1	7
530.058	1	-2
530.399	1	10
530.739	1	4
531.079	1	5
531.419	1	5
531.760	1	2
532.100	1	-6
532.440	1	-4
532.780	1	-9
533.120	1	-4
533.461	1	2
533.801	1	12
534.141	1	-9
534.481	1	-5
534.821	1	9
535.162	1	-1
535.502	1	-8
535.842	1	2
536.182	1	5
536.522	1	-6
536.862	1	5
537.203	1	-15
537.543	1	1
537.883	1	-8
538.223	1	-2
538.563	1	0
538.903	1	-4
539.243	1	-1
539.584	1	1
539.924	1	4
540.264	1	-7
540.604	1	-2
540.944	1	-6
541.284	1	2
541.624	1	6
541.964	1	9
542.305	1	1
542.645	1	-1
542.985	1	-1
543.325	1	4
543.665	1	2
544.005	1	3
544.345	1	0
544.685	1	-6
545.025	1	-3
545.365	1	2
545.705	1	0
546.045	1	1
546.386	1	5
546.726	1	-11
547.066	1	-6
547.406	1	3
547.746	1	-13
548.086	1	2
548.426	1	-6
548.766	1	2
549.106	1	-2
549.446	1	-6
549.786	1	-5
550.126	1	5
550.466	1	1
550.806	1	-6
551.146	1	1
551.486	1	-3
551.826	1	4
552.166	1	0
552.506	1	5
552.846	1	2
553.186	1	6
553.526	1	-4
553.866	1	-2
554.206	1	-3
554.546	1	2
554.886	1	2
555.226	1	-7
555.566	1	8
555.906	1	5
556.246	1	-2
556.586	1	0
556.926	1	0
557.266	1	-10
557.606	1	10
557.946	1	8
558.286	1	-3
558.626	1	-1
558.966	1	4
559.306	1	-10
559.646	1	-9
559.986	1	-3
560.325	1	-5
560.665	1	-2
561.005	1	1
561.345	1	-2
561.685	1	4
562.025	1	5
562.365	1	-1
562.705	1	4
563.045	1	-3
563.385	1	-13
563.725	1	-7
564.064	1	-8
564.404	1	2
564.744	1	0
565.084	1	-3
565.424	1	4
565.764	1	-7
566.104	1	-3
566.444	1	-9
566.783	1	1
567.123	1	-2
567.463	1	8
567.803	1	-5
568.143	1	-1
568.483	1	-5
568.823	1	0
569.162	1	0
569.502	1	-2
569.842	1	4
570.182	1	-1
570.522	1	-13
570.862	1	4
571.201	1	3
571.541	1	4
571.881	1	11
572.221	1	-3
572.561	1	-4
572.900	1	-8
573.240	1	-1
573.580	1	-5
573.920	1	8
574.260	1	6
574.599	1	1
574.939	1	6
575.279	1	9
575.619	1	4
575.959	1	-5
576.298	1	13
576.638	1	-8
576.978	1	7
577.318	1	8
577.657	1	-6
577.997	1	-4
578.337	1	8
578.677	1	0
579.016	1	-4
579.356	1	-11
579.696	1	-5
580.036	1	-4
580.375	1	-4
580.715	1	-6
581.055	1	-6
581.394	1	7
581.734	1	-5
582.074	1	-2
582.414	1	1
582.753	1	-5
583.093	1	1
583.433	1	-9
583.772	1	4
584.112	1	-4
584.452	1	-4
584.791	1	-5
585.131	1	-1
585.471	1	1
585.811	1	6
586.150	1	-7
586.490	1	-2
586.830	1	1
587.169	1	-1
587.509	1	-2
587.849	1	5
588.188	1	6
588.528	1	5
588.867	1	-2
589.207	1	-1
589.547	1	-8
589.886	1	-8
590.226	1	6
590.566	1	0
590.905	1	-1
591.245	1	1
591.585	1	2
591.924	1	5
592.264	1	-2
592.603	1	-3
592.943	1	5
593.283	1	4
593.622	1	-12
593.962	1	-2
594.301	1	4
594.641	1	-5
594.981	1	-14
595.320	1	-2
595.660	1	-4
595.999	1	-4
596.339	1	-6
596.678	1	-10
597.018	1	-7
597.358	1	6
597.697	1	-1
598.037	1	0
598.376	1	2
598.716	1	-3
599.055	1	13
599.395	1	-5
599.734	1	-5
600.074	1	10
600.413	1	2
600.753	1	3
601.092	1	7
601.432	1	-6
601.771	1	1
602.111	1	6
602.451	1	3
602.790	1	-3
603.130	1	8
603.469	1	-5
603.809	1	-4
604.148	1	6
604.487	1	2
604.827	1	7
605.166	1	0
605.506	1	3
605.845	1	-2
606.185	1	5
606.524	1	-7
606.864	1	-3
607.203	1	4
607.543	1	4
607.882	1	6
608.222	1	2
608.561	1	-1
608.901	1	5
609.240	1	-4
609.579	1	3
609.919	1	0
610.258	1	0
610.598	1	-1
610.937	1	1
611.277	1	1
611.616	1	-8
611.955	1	1
612.295	1	-5
612.634	1	-2
612.974	1	-15
613.313	1	1
613.652	1	-4
613.992	1	-2
614.331	1	-4
614.671	1	8
615.010	1	-15
615.349	1	11
615.689	1	7
616.028	1	-1
616.368	1	0
616.707	1	-4
617.046	1	-5
617.386	1	6
617.725	1	-1
618.064	1	1
618.404	1	-4
618.743	1	3
619.082	1	1
619.422	1	-7
619.761	1	4
620.100	1	2
620.440	1	-1
620.779	1	2
621.118	1	0
621.458	1	3
621.797	1	-9
622.136	1	11
622.476	1	2
622.815	1	5
623.154	1	9
623.494	1	3
623.833	1	13
624.172	1	-1
624.511	1	-5
624.851	1	-12
625.190	1	2
625.529	1	14
625.869	1	10
626.208	1	-5
626.547	1	-4
626.886	1	7
627.226	1	-1
627.565	1	13
627.904	1	-2
628.243	1	2
628.583	1	-2
628.922	1	0
629.261	1	3
629.600	1	17
629.940	1	-4
630.279	1	-7
630.618	1	-1
630.957	1	-9
631.297	1	1
631.636	1	-9
631.975	1	11
632.314	1	1
632.653	1	-2
632.993	1	-2
633.332	1	6
633.671	1	1
634.010	1	-6
634.349	1	3
634.689	1	-5
635.028	1	4
635.367	1	-7
635.706	1	-4
636.045	1	6
636.384	1	-3
636.724	1	-1
637.063	1	-1
637.402	1	2
637.741	1	2
638.080	1	-2
638.419	1	-5
638.759	1	-3
639.098	1	8
639.437	1	0
639.776	1	-7
640.115	1	-9
640.454	1	-6
640.793	1	8
641.132	1	0
641.472	1	-6
641.811	1	3
642.150	1	-11
642.489	1	5
642.828	1	-3
643.167	1	-4
643.506	1	-8
643.845	1	-10
644.184	1	1
644.524	1	0
644.863	1	-8
645.202	1	6
645.541	1	-7
645.880	1	2
646.219	1	-11
646.558	1	-2
646.897	1	-7
647.236	1	-1
647.575	1	8
647.914	1	-12
648.253	1	1
648.592	1	-3
648.931	1	3
649.270	1	-2
649.610	1	8
649.949	1	-3
650.288	1	9
650.627	1	3
650.966	1	6
651.305	1	-4
651.644	1	3
651.983	1	-3
652.322	1	0
652.661	1	-6
653.000	1	-3
653.339	1	4
653.678	1	0
654.017	1	-4
654.356	1	1
654.695	1	3
655.034	1	7
655.373	1	7
655.712	1	3
656.051	1	-6
656.390	1	1
656.729	1	5
657.068	1	-7
657.406	1	0
657.745	1	-9
658.084	1	4
658.423	1	10
658.762	1	-1
659.101	1	6
659.440	1	2
659.779	1	3
660.118	1	-1
660.457	1	-10
660.796	1	-5
661.135	1	-6
661.474	1	1
661.813	1	11
662.152	1	4
662.491	1	-2
662.829	1	-7
663.168	1	5
663.507	1	12
663.846	1	6
664.185	1	-2
664.524	1	-2
664.863	1	-9
665.202	1	0
665.541	1	-7
665.879	1	-18
666.218	1	2
666.557	1	3
666.896	1	-3
667.235	1	0
667.574	1	0
667.913	1	2
668.251	1	-6
668.590	1	-9
668.929	1	-8
669.268	1	0
669.607	1	-6
669.946	1	3
670.285	1	1
670.623	1	2
670.962	1	-10
671.301	1	-6
671.640	1	5
671.979	1	-3
672.317	1	-2
672.656	1	4
672.995	1	2
673.334	1	-1
673.673	1	-5
674.011	1	2
674.350	1	4
674.689	1	-1
675.028	1	-12
675.367	1	-10
675.705	1	2
676.044	1	4
676.383	1	1
676.722	1	-7
677.060	1	-3
677.399	1	-6
677.738	1	-5
678.077	1	7
678.416	1	-1
678.754	1	-4
679.093	1	-2
679.432	1	-16
679.771	1	11
680.109	1	0
680.448	1	-4
680.787	1	0
681.125	1	-2
681.464	1	-9
681.803	1	-7
682.142	1	3
682.480	1	5
682.819	1	-4
683.158	1	-5
683.496	1	-5
683.835	1	-1
684.174	1	-6
684.512	1	12
684.851	1	2
685.190	1	2
685.529	1	-2
685.867	1	1
686.206	1	-2
686.545	1	-9
686.883	1	-7
687.222	1	3
687.561	1	4
687.899	1	5
688.238	1	-4
688.577	1	-3
688.746	1	-2