File: Data/GaN_200K_800ms/GaN_sample F_spot 12_UVVIS_200 K_200um_800 ms 2x2mm1_324.txt
340.368	1	1
340.710	1	-13
341.052	1	8
341.394	1	0
341.737	1	6
342.079	1	0
342.421	1	-2
342.763	1	5
343.105	1	-2
343.447	1	-1
343.789	1	7
344.131	1	-7
344.473	1	5
344.815	1	-3
345.157	1	1
345.499	1	3
345.841	1	1
346.183	1	-2
346.526	1	-2
346.868	1	4
347.210	1	-11
347.552	1	1
347.894	1	-4
348.236	1	4
348.578	1	6
348.920	1	-6
349.262	1	-2
349.604	1	8
349.946	1	-10
350.288	1	6
350.630	1	1
350.972	1	-2
351.314	1	1
351.656	1	0
351.998	1	2
352.340	1	7
352.682	1	7
353.024	1	8
353.366	1	11
353.708	1	3
354.050	1	0
354.392	1	2
354.734	1	5
355.076	1	0
355.418	1	-10
355.760	1	-8
356.102	1	5
356.444	1	-2
356.785	1	9
357.127	1	-1
357.469	1	-9
357.811	1	-1
358.153	1	11
358.495	1	7
358.837	1	-10
359.179	1	-3
359.521	1	7
359.863	1	-2
360.205	1	6
360.547	1	2
360.889	1	3
361.231	1	-3
361.572	1	-1
361.914	1	6
362.256	1	10
362.598	1	-2
362.940	1	-1
363.282	1	7
363.624	1	15
363.966	1	5
364.308	1	8
364.649	1	8
364.991	1	2
365.333	1	-3
365.675	1	4
366.017	1	3
366.359	1	7
366.701	1	14
367.042	1	14
367.384	1	21
367.726	1	13
368.068	1	8
368.410	1	25
368.752	1	12
369.093	1	6
369.435	1	15
369.777	1	15
370.119	1	0
370.461	1	25
370.803	1	17
371.144	1	5
371.486	1	21
371.828	1	10
372.170	1	19
372.512	1	9
372.853	1	9
373.195	1	11
373.537	1	25
373.879	1	6
374.220	1	19
374.562	1	10
374.904	1	8
375.246	1	13
375.588	1	12
375.929	1	8
376.271	1	18
376.613	1	-3
376.955	1	-4
377.296	1	2
377.638	1	6
377.980	1	14
378.321	1	-4
378.663	1	1
379.005	1	7
379.347	1	5
379.688	1	10
380.030	1	-2
380.372	1	6
380.714	1	2
381.055	1	7
381.397	1	8
381.739	1	-1
382.080	1	7
382.422	1	4
382.764	1	3
383.105	1	0
383.447	1	-5
383.789	1	-4
384.130	1	0
384.472	1	1
384.814	1	4
385.156	1	3
385.497	1	0
385.839	1	-4
386.180	1	7
386.522	1	10
386.864	1	5
387.205	1	3
387.547	1	-6
387.889	1	11
388.230	1	6
388.572	1	3
388.914	1	-5
389.255	1	-4
389.597	1	0
389.939	1	1
390.280	1	0
390.622	1	-1
390.963	1	13
391.305	1	3
391.647	1	-4
391.988	1	6
392.330	1	8
392.671	1	-13
393.013	1	-3
393.355	1	8
393.696	1	9
394.038	1	5
394.379	1	4
394.721	1	-8
395.062	1	-4
395.404	1	-10
395.746	1	1
396.087	1	5
396.429	1	3
396.770	1	-7
397.112	1	13
397.453	1	11
397.795	1	8
398.136	1	-15
398.478	1	11
398.819	1	2
399.161	1	8
399.503	1	5
399.844	1	-5
400.186	1	2
400.527	1	0
400.869	1	1
401.210	1	3
401.552	1	-17
401.893	1	-8
402.235	1	2
402.576	1	-8
402.918	1	15
403.259	1	10
403.601	1	-13
403.942	1	6
404.284	1	1
404.625	1	10
404.967	1	-4
405.308	1	3
405.649	1	-2
405.991	1	-11
406.332	1	8
406.674	1	-3
407.015	1	3
407.357	1	1
407.698	1	1
408.040	1	-3
408.381	1	7
408.722	1	-22
409.064	1	-4
409.405	1	5
409.747	1	-6
410.088	1	3
410.430	1	7
410.771	1	0
411.112	1	-2
411.454	1	1
411.795	1	-4
412.137	1	-1
412.478	1	5
412.819	1	-7
413.161	1	1
413.502	1	5
413.844	1	2
414.185	1	-3
414.526	1	-2
414.868	1	6
415.209	1	0
415.550	1	0
415.892	1	-11
416.233	1	3
416.575	1	16
416.916	1	-5
417.257	1	1
417.599	1	6
417.940	1	2
418.281	1	3
418.623	1	1
418.964	1	-11
419.305	1	1
419.647	1	-4
419.988	1	-7
420.329	1	-3
420.671	1	11
421.012	1	-3
421.353	1	1
421.695	1	2
422.036	1	-4
422.377	1	-6
422.718	1	13
423.060	1	-12
423.401	1	2
423.742	1	4
424.084	1	0
424.425	1	0
424.766	1	-2
425.107	1	-11
425.449	1	-1
425.790	1	-6
426.131	1	5
426.472	1	-3
426.814	1	2
427.155	1	5
427.496	1	2
427.837	1	-1
428.179	1	-6
428.520	1	3
428.861	1	-6
429.202	1	10
429.544	1	-8
429.885	1	-3
430.226	1	-11
430.567	1	1
430.909	1	6
431.250	1	-2
431.591	1	5
431.932	1	-9
432.273	1	-4
432.615	1	-10
432.956	1	-6
433.297	1	2
433.638	1	-12
433.979	1	15
434.320	1	-1
434.662	1	0
435.003	1	5
435.344	1	6
435.685	1	-3
436.026	1	0
436.368	1	3
436.709	1	-6
437.050	1	1
437.391	1	6
437.732	1	-14
438.073	1	-7
438.414	1	-7
438.756	1	-4
439.097	1	-7
439.438	1	-1
439.779	1	0
440.120	1	-10
440.461	1	0
440.802	1	-8
441.143	1	0
441.485	1	-4
441.826	1	-2
442.167	1	5
442.508	1	0
442.849	1	0
443.190	1	0
443.531	1	7
443.872	1	3
444.213	1	-3
444.554	1	2
444.895	1	-10
445.237	1	0
445.578	1	-12
445.919	1	-6
446.260	1	-8
446.601	1	-6
446.942	1	-6
447.283	1	-2
447.624	1	-5
447.965	1	-3
448.306	1	7
448.647	1	-10
448.988	1	-1
449.329	1	2
449.670	1	0
450.011	1	5
450.352	1	4
450.693	1	-2
451.034	1	-1
451.375	1	0
451.716	1	-2
452.057	1	-2
452.398	1	-1
452.739	1	6
453.080	1	1
453.421	1	-4
453.762	1	1
454.103	1	-1
454.444	1	-12
454.785	1	7
455.126	1	-3
455.467	1	5
455.808	1	-8
456.149	1	5
456.490	1	6
456.831	1	9
457.172	1	-7
457.513	1	-4
457.854	1	-4
458.195	1	-3
458.536	1	-5
458.877	1	4
459.218	1	1
459.559	1	-2
459.899	1	6
460.240	1	-4
460.581	1	15
460.922	1	-1
461.263	1	-1
461.604	1	-5
461.945	1	0
462.286	1	1
462.627	1	5
462.968	1	5
463.309	1	-4
463.649	1	-2
463.990	1	-7
464.331	1	-1
464.672	1	-9
465.013	1	-6
465.354	1	-4
465.695	1	0
466.036	1	-4
466.376	1	-10
466.717	1	5
467.058	1	3
467.399	1	4
467.740	1	-2
468.081	1	-2
468.422	1	1
468.762	1	-12
469.103	1	-7
469.444	1	-9
469.785	1	-12
470.126	1	-11
470.467	1	-2
470.807	1	-2
471.148	1	6
471.489	1	-4
471.830	1	3
472.171	1	7
472.511	1	0
472.852	1	4
473.193	1	3
473.534	1	2
473.875	1	20
474.215	1	19
474.556	1	-9
474.897	1	0
475.238	1	5
475.578	1	-6
475.919	1	1
476.260	1	-1
476.601	1	-3
476.942	1	14
477.282	1	-7
477.623	1	-11
477.964	1	-4
478.305	1	-1
478.645	1	4
478.986	1	-2
479.327	1	-13
479.667	1	2
480.008	1	0
480.349	1	-9
480.690	1	-2
481.030	1	-2
481.371	1	1
481.712	1	4
482.053	1	4
482.393	1	1
482.734	1	-5
483.075	1	-7
483.415	1	1
483.756	1	11
484.097	1	-5
484.437	1	-4
484.778	1	8
485.119	1	0
485.459	1	12
485.800	1	-12
486.141	1	-4
486.481	1	-7
486.822	1	5
487.163	1	0
487.503	1	-4
487.844	1	-2
488.185	1	4
488.525	1	4
488.866	1	0
489.207	1	1
489.547	1	-7
489.888	1	-4
490.228	1	4
490.569	1	11
490.910	1	1
491.250	1	-7
491.591	1	2
491.932	1	-8
492.272	1	0
492.613	1	-7
492.953	1	-3
493.294	1	0
493.635	1	1
493.975	1	3
494.316	1	0
494.656	1	1
494.997	1	-5
495.337	1	7
495.678	1	-1
496.019	1	1
496.359	1	-8
496.700	1	-4
497.040	1	0
497.381	1	0
497.721	1	2
498.062	1	-5
498.403	1	2
498.743	1	-7
499.084	1	-11
499.424	1	-5
499.765	1	-2
500.105	1	3
500.446	1	-5
500.786	1	-2
501.127	1	7
501.467	1	-1
501.808	1	2
502.148	1	3
502.489	1	0
502.829	1	-5
503.170	1	8
503.510	1	1
503.851	1	-3
504.191	1	2
504.532	1	0
504.872	1	8
505.213	1	4
505.553	1	-17
505.894	1	-2
506.234	1	7
506.575	1	3
506.915	1	5
507.256	1	-1
507.596	1	3
507.936	1	-2
508.277	1	-4
508.617	1	-11
508.958	1	3
509.298	1	1
509.639	1	-12
509.979	1	-5
510.319	1	7
510.660	1	-3
511.000	1	-8
511.341	1	4
511.681	1	2
512.022	1	-7
512.362	1	-5
512.702	1	-8
513.043	1	3
513.383	1	-4
513.724	1	2
514.064	1	12
514.404	1	-3
514.745	1	-7
515.085	1	-3
515.425	1	2
515.766	1	-3
516.106	1	-5
516.447	1	8
516.787	1	6
517.127	1	0
517.468	1	-1
517.808	1	1
518.148	1	5
518.489	1	1
518.829	1	7
519.169	1	-5
519.510	1	8
519.850	1	5
520.190	1	-6
520.531	1	-2
520.871	1	7
521.211	1	-6
521.552	1	10
521.892	1	1
522.232	1	4
522.573	1	-6
522.913	1	7
523.253	1	-2
523.593	1	-8
523.934	1	1
524.274	1	-1
524.614	1	-1
524.955	1	-13
525.295	1	-2
525.635	1	-1
525.975	1	-3
526.316	1	8
526.656	1	-4
526.996	1	7
527.337	1	-4
527.677	1	4
528.017	1	-9
528.357	1	-1
528.698	1	-2
529.038	1	3
529.378	1	5
529.718	1	6
530.058	1	3
530.399	1	-1
530.739	1	-1
531.079	1	3
531.419	1	10
531.760	1	-3
532.100	1	-5
532.440	1	4
532.780	1	-4
533.120	1	14
533.461	1	0
533.801	1	13
534.141	1	-8
534.481	1	-17
534.821	1	7
535.162	1	-4
535.502	1	-13
535.842	1	13
536.182	1	-8
536.522	1	0
536.862	1	4
537.203	1	-11
537.543	1	4
537.883	1	-5
538.223	1	0
538.563	1	2
538.903	1	-16
539.243	1	-7
539.584	1	-8
539.924	1	10
540.264	1	-4
540.604	1	3
540.944	1	-5
541.284	1	-4
541.624	1	6
541.964	1	6
542.305	1	6
542.645	1	6
542.985	1	3
543.325	1	-5
543.665	1	13
544.005	1	0
544.345	1	9
544.685	1	-3
545.025	1	1
545.365	1	-1
545.705	1	3
546.045	1	-4
546.386	1	3
546.726	1	-13
547.066	1	0
547.406	1	0
547.746	1	-6
548.086	1	3
548.426	1	-1
548.766	1	7
549.106	1	7
549.446	1	-1
549.786	1	-2
550.126	1	11
550.466	1	1
550.806	1	-4
551.146	1	-2
551.486	1	-2
551.826	1	4
552.166	1	2
552.506	1	9
552.846	1	4
553.186	1	5
553.526	1	-6
553.866	1	0
554.206	1	6
554.546	1	5
554.886	1	9
555.226	1	-8
555.566	1	5
555.906	1	7
556.246	1	14
556.586	1	2
556.926	1	13
557.266	1	-5
557.606	1	10
557.946	1	12
558.286	1	6
558.626	1	5
558.966	1	2
559.306	1	-3
559.646	1	-9
559.986	1	0
560.325	1	-4
560.665	1	2
561.005	1	0
561.345	1	3
561.685	1	3
562.025	1	-4
562.365	1	6
562.705	1	-10
563.045	1	-9
563.385	1	-11
563.725	1	4
564.064	1	-1
564.404	1	12
564.744	1	2
565.084	1	-7
565.424	1	-3
565.764	1	-5
566.104	1	3
566.444	1	-3
566.783	1	-2
567.123	1	-4
567.463	1	7
567.803	1	-15
568.143	1	7
568.483	1	0
568.823	1	-3
569.162	1	-1
569.502	1	-6
569.842	1	7
570.182	1	9
570.522	1	-10
570.862	1	-5
571.201	1	6
571.541	1	7
571.881	1	12
572.221	1	-6
572.561	1	4
572.900	1	-7
573.240	1	0
573.580	1	-4
573.920	1	13
574.260	1	5
574.599	1	8
574.939	1	4
575.279	1	8
575.619	1	3
575.959	1	-7
576.298	1	13
576.638	1	-6
576.978	1	0
577.318	1	-3
577.657	1	7
577.997	1	-2
578.337	1	5
578.677	1	-2
579.016	1	3
579.356	1	1
579.696	1	4
580.036	1	-2
580.375	1	5
580.715	1	-1
581.055	1	-4
581.394	1	-3
581.734	1	-6
582.074	1	-4
582.414	1	3
582.753	1	-4
583.093	1	-4
583.433	1	2
583.772	1	9
584.112	1	-5
584.452	1	-4
584.791	1	-5
585.131	1	4
585.471	1	11
585.811	1	10
586.150	1	-4
586.490	1	6
586.830	1	3
587.169	1	0
587.509	1	-4
587.849	1	-3
588.188	1	10
588.528	1	7
588.867	1	3
589.207	1	6
589.547	1	4
589.886	1	2
590.226	1	2
590.566	1	1
590.905	1	1
591.245	1	-7
591.585	1	-1
591.924	1	-2
592.264	1	4
592.603	1	8
592.943	1	4
593.283	1	2
593.622	1	-8
593.962	1	13
594.301	1	1
594.641	1	0
594.981	1	-7
595.320	1	1
595.660	1	4
595.999	1	-6
596.339	1	3
596.678	1	-9
597.018	1	-16
597.358	1	5
597.697	1	5
598.037	1	5
598.376	1	4
598.716	1	0
599.055	1	5
599.395	1	-4
599.734	1	3
600.074	1	6
600.413	1	9
600.753	1	3
601.092	1	15
601.432	1	-8
601.771	1	1
602.111	1	-2
602.451	1	6
602.790	1	7
603.130	1	5
603.469	1	-8
603.809	1	-6
604.148	1	2
604.487	1	2
604.827	1	3
605.166	1	4
605.506	1	-1
605.845	1	8
606.185	1	13
606.524	1	1
606.864	1	6
607.203	1	4
607.543	1	3
607.882	1	8
608.222	1	-1
608.561	1	-1
608.901	1	7
609.240	1	-8
609.579	1	12
609.919	1	7
610.258	1	7
610.598	1	-8
610.937	1	3
611.277	1	-2
611.616	1	-2
611.955	1	-1
612.295	1	-6
612.634	1	4
612.974	1	-10
613.313	1	1
613.652	1	8
613.992	1	-7
614.331	1	0
614.671	1	3
615.010	1	-10
615.349	1	3
615.689	1	5
616.028	1	-4
616.368	1	6
616.707	1	6
617.046	1	3
617.386	1	5
617.725	1	0
618.064	1	1
618.404	1	1
618.743	1	7
619.082	1	-1
619.422	1	-4
619.761	1	3
620.100	1	4
620.440	1	8
620.779	1	-11
621.118	1	6
621.458	1	6
621.797	1	-3
622.136	1	14
622.476	1	9
622.815	1	10
623.154	1	8
623.494	1	14
623.833	1	7
624.172	1	-1
624.511	1	-8
624.851	1	-10
625.190	1	1
625.529	1	6
625.869	1	2
626.208	1	0
626.547	1	1
626.886	1	10
627.226	1	1
627.565	1	1
627.904	1	-3
628.243	1	5
628.583	1	0
628.922	1	2
629.261	1	0
629.600	1	12
629.940	1	-2
630.279	1	-14
630.618	1	-11
630.957	1	-3
631.297	1	-5
631.636	1	-12
631.975	1	8
632.314	1	-3
632.653	1	0
632.993	1	-8
633.332	1	6
633.671	1	0
634.010	1	1
634.349	1	10
634.689	1	-4
635.028	1	5
635.367	1	4
635.706	1	3
636.045	1	10
636.384	1	-10
636.724	1	11
637.063	1	-3
637.402	1	7
637.741	1	3
638.080	1	-4
638.419	1	-3
638.759	1	1
639.098	1	11
639.437	1	-2
639.776	1	-5
640.115	1	-4
640.454	1	-9
640.793	1	1
641.132	1	6
641.472	1	6
641.811	1	-2
642.150	1	-6
642.489	1	7
642.828	1	-2
643.167	1	1
643.506	1	-5
643.845	1	-11
644.184	1	-5
644.524	1	5
644.863	1	-5
645.202	1	7
645.541	1	2
645.880	1	8
646.219	1	-1
646.558	1	-7
646.897	1	1
647.236	1	0
647.575	1	7
647.914	1	-5
648.253	1	15
648.592	1	-3
648.931	1	3
649.270	1	-4
649.610	1	5
649.949	1	2
650.288	1	4
650.627	1	-5
650.966	1	-3
651.305	1	4
651.644	1	8
651.983	1	6
652.322	1	-3
652.661	1	0
653.000	1	-1
653.339	1	2
653.678	1	-1
654.017	1	5
654.356	1	-1
654.695	1	15
655.034	1	7
655.373	1	8
655.712	1	-1
656.051	1	2
656.390	1	-10
656.729	1	6
657.068	1	2
657.406	1	9
657.745	1	0
658.084	1	6
658.423	1	7
658.762	1	1
659.101	1	14
659.440	1	4
659.779	1	-4
660.118	1	-3
660.457	1	-2
660.796	1	0
661.135	1	-5
661.474	1	-5
661.813	1	9
662.152	1	11
662.491	1	-2
662.829	1	-6
663.168	1	3
663.507	1	14
663.846	1	6
664.185	1	7
664.524	1	10
664.863	1	-3
665.202	1	6
665.541	1	-16
665.879	1	-13
666.218	1	-7
666.557	1	-5
666.896	1	5
667.235	1	7
667.574	1	2
667.913	1	0
668.251	1	-3
668.590	1	-7
668.929	1	-8
669.268	1	0
669.607	1	-10
669.946	1	-4
670.285	1	4
670.623	1	-8
670.962	1	0
671.301	1	-5
671.640	1	-2
671.979	1	-8
672.317	1	4
672.656	1	-1
672.995	1	6
673.334	1	-1
673.673	1	2
674.011	1	-9
674.350	1	-5
674.689	1	-4
675.028	1	-4
675.367	1	5
675.705	1	0
676.044	1	3
676.383	1	1
676.722	1	-4
677.060	1	-6
677.399	1	-4
677.738	1	1
678.077	1	3
678.416	1	-2
678.754	1	-5
679.093	1	4
679.432	1	4
679.771	1	-3
680.109	1	10
680.448	1	-2
680.787	1	1
681.125	1	0
681.464	1	-3
681.803	1	-9
682.142	1	1
682.480	1	12
682.819	1	-2
683.158	1	1
683.496	1	0
683.835	1	7
684.174	1	-2
684.512	1	9
684.851	1	-8
685.190	1	-8
685.529	1	-4
685.867	1	2
686.206	1	3
686.545	1	-9
686.883	1	-4
687.222	1	10
687.561	1	3
687.899	1	-2
688.238	1	6
688.577	1	8
688.746	1	-4