File: Data/GaN_200K_800ms/GaN_sample F_spot 12_UVVIS_200 K_200um_800 ms 2x2mm1_101.txt
340.368	1	11
340.710	1	-7
341.052	1	11
341.394	1	3
341.737	1	13
342.079	1	-3
342.421	1	1
342.763	1	15
343.105	1	0
343.447	1	3
343.789	1	5
344.131	1	-6
344.473	1	-2
344.815	1	1
345.157	1	3
345.499	1	-5
345.841	1	12
346.183	1	-4
346.526	1	0
346.868	1	7
347.210	1	4
347.552	1	-2
347.894	1	7
348.236	1	7
348.578	1	-5
348.920	1	0
349.262	1	-4
349.604	1	7
349.946	1	-1
350.288	1	9
350.630	1	-2
350.972	1	7
351.314	1	6
351.656	1	12
351.998	1	1
352.340	1	9
352.682	1	9
353.024	1	6
353.366	1	11
353.708	1	1
354.050	1	1
354.392	1	0
354.734	1	14
355.076	1	13
355.418	1	-6
355.760	1	6
356.102	1	18
356.444	1	12
356.785	1	9
357.127	1	12
357.469	1	15
357.811	1	9
358.153	1	14
358.495	1	12
358.837	1	6
359.179	1	24
359.521	1	13
359.863	1	13
360.205	1	19
360.547	1	27
360.889	1	10
361.231	1	16
361.572	1	37
361.914	1	34
362.256	1	23
362.598	1	29
362.940	1	26
363.282	1	39
363.624	1	41
363.966	1	38
364.308	1	47
364.649	1	48
364.991	1	48
365.333	1	50
365.675	1	51
366.017	1	59
366.359	1	61
366.701	1	76
367.042	1	74
367.384	1	95
367.726	1	82
368.068	1	88
368.410	1	97
368.752	1	91
369.093	1	89
369.435	1	101
369.777	1	85
370.119	1	104
370.461	1	96
370.803	1	97
371.144	1	90
371.486	1	99
371.828	1	94
372.170	1	75
372.512	1	83
372.853	1	73
373.195	1	65
373.537	1	73
373.879	1	69
374.220	1	71
374.562	1	70
374.904	1	60
375.246	1	61
375.588	1	62
375.929	1	59
376.271	1	59
376.613	1	40
376.955	1	46
377.296	1	48
377.638	1	45
377.980	1	45
378.321	1	23
378.663	1	36
379.005	1	43
379.347	1	31
379.688	1	38
380.030	1	27
380.372	1	28
380.714	1	32
381.055	1	31
381.397	1	32
381.739	1	34
382.080	1	34
382.422	1	32
382.764	1	22
383.105	1	24
383.447	1	21
383.789	1	13
384.130	1	20
384.472	1	14
384.814	1	17
385.156	1	8
385.497	1	18
385.839	1	14
386.180	1	8
386.522	1	29
386.864	1	9
387.205	1	8
387.547	1	13
387.889	1	13
388.230	1	28
388.572	1	13
388.914	1	0
389.255	1	14
389.597	1	17
389.939	1	20
390.280	1	13
390.622	1	10
390.963	1	20
391.305	1	26
391.647	1	17
391.988	1	14
392.330	1	16
392.671	1	10
393.013	1	9
393.355	1	6
393.696	1	15
394.038	1	7
394.379	1	23
394.721	1	12
395.062	1	13
395.404	1	4
395.746	1	6
396.087	1	8
396.429	1	11
396.770	1	6
397.112	1	17
397.453	1	10
397.795	1	3
398.136	1	-1
398.478	1	6
398.819	1	1
399.161	1	20
399.503	1	5
399.844	1	15
400.186	1	-5
400.527	1	-2
400.869	1	3
401.210	1	7
401.552	1	0
401.893	1	3
402.235	1	8
402.576	1	-2
402.918	1	13
403.259	1	19
403.601	1	10
403.942	1	15
404.284	1	12
404.625	1	12
404.967	1	2
405.308	1	9
405.649	1	7
405.991	1	8
406.332	1	8
406.674	1	3
407.015	1	12
407.357	1	0
407.698	1	17
408.040	1	1
408.381	1	2
408.722	1	-14
409.064	1	4
409.405	1	7
409.747	1	0
410.088	1	4
410.430	1	13
410.771	1	3
411.112	1	0
411.454	1	-3
411.795	1	-10
412.137	1	11
412.478	1	15
412.819	1	0
413.161	1	3
413.502	1	11
413.844	1	0
414.185	1	18
414.526	1	5
414.868	1	0
415.209	1	-6
415.550	1	5
415.892	1	1
416.233	1	15
416.575	1	14
416.916	1	-4
417.257	1	-1
417.599	1	2
417.940	1	8
418.281	1	3
418.623	1	2
418.964	1	-18
419.305	1	3
419.647	1	-6
419.988	1	9
420.329	1	-10
420.671	1	15
421.012	1	-1
421.353	1	7
421.695	1	-3
422.036	1	7
422.377	1	-4
422.718	1	18
423.060	1	3
423.401	1	-1
423.742	1	4
424.084	1	3
424.425	1	5
424.766	1	-3
425.107	1	-5
425.449	1	11
425.790	1	-5
426.131	1	3
426.472	1	0
426.814	1	11
427.155	1	-6
427.496	1	-4
427.837	1	-4
428.179	1	-2
428.520	1	11
428.861	1	4
429.202	1	4
429.544	1	0
429.885	1	5
430.226	1	-3
430.567	1	12
430.909	1	13
431.250	1	-4
431.591	1	3
431.932	1	0
432.273	1	-4
432.615	1	-9
432.956	1	-4
433.297	1	4
433.638	1	5
433.979	1	17
434.320	1	5
434.662	1	-2
435.003	1	6
435.344	1	4
435.685	1	-8
436.026	1	8
436.368	1	-3
436.709	1	2
437.050	1	2
437.391	1	14
437.732	1	-7
438.073	1	2
438.414	1	-8
438.756	1	-9
439.097	1	-2
439.438	1	-5
439.779	1	2
440.120	1	-4
440.461	1	10
440.802	1	-7
441.143	1	9
441.485	1	1
441.826	1	-5
442.167	1	8
442.508	1	-6
442.849	1	11
443.190	1	6
443.531	1	13
443.872	1	9
444.213	1	2
444.554	1	7
444.895	1	-7
445.237	1	-9
445.578	1	3
445.919	1	-5
446.260	1	-1
446.601	1	-2
446.942	1	4
447.283	1	0
447.624	1	-2
447.965	1	3
448.306	1	8
448.647	1	-1
448.988	1	-2
449.329	1	7
449.670	1	13
450.011	1	4
450.352	1	5
450.693	1	-6
451.034	1	-7
451.375	1	-2
451.716	1	8
452.057	1	9
452.398	1	4
452.739	1	-5
453.080	1	9
453.421	1	-4
453.762	1	7
454.103	1	-4
454.444	1	-2
454.785	1	1
455.126	1	-1
455.467	1	7
455.808	1	-2
456.149	1	9
456.490	1	6
456.831	1	16
457.172	1	0
457.513	1	11
457.854	1	4
458.195	1	-1
458.536	1	9
458.877	1	-1
459.218	1	4
459.559	1	5
459.899	1	7
460.240	1	2
460.581	1	8
460.922	1	-1
461.263	1	-11
461.604	1	-11
461.945	1	9
462.286	1	1
462.627	1	11
462.968	1	8
463.309	1	1
463.649	1	-2
463.990	1	1
464.331	1	-6
464.672	1	-4
465.013	1	5
465.354	1	5
465.695	1	-8
466.036	1	-6
466.376	1	5
466.717	1	1
467.058	1	8
467.399	1	6
467.740	1	2
468.081	1	10
468.422	1	0
468.762	1	-12
469.103	1	-5
469.444	1	-3
469.785	1	-15
470.126	1	-16
470.467	1	-2
470.807	1	4
471.148	1	-1
471.489	1	3
471.830	1	2
472.171	1	11
472.511	1	-2
472.852	1	-2
473.193	1	13
473.534	1	5
473.875	1	14
474.215	1	10
474.556	1	-2
474.897	1	12
475.238	1	6
475.578	1	3
475.919	1	-2
476.260	1	-6
476.601	1	-2
476.942	1	12
477.282	1	-2
477.623	1	-5
477.964	1	-3
478.305	1	-2
478.645	1	22
478.986	1	0
479.327	1	-13
479.667	1	4
480.008	1	-4
480.349	1	2
480.690	1	0
481.030	1	-2
481.371	1	8
481.712	1	7
482.053	1	-3
482.393	1	-9
482.734	1	1
483.075	1	2
483.415	1	6
483.756	1	14
484.097	1	4
484.437	1	-7
484.778	1	4
485.119	1	2
485.459	1	10
485.800	1	-1
486.141	1	-3
486.481	1	9
486.822	1	6
487.163	1	-1
487.503	1	2
487.844	1	2
488.185	1	-1
488.525	1	6
488.866	1	8
489.207	1	0
489.547	1	0
489.888	1	-7
490.228	1	-2
490.569	1	16
490.910	1	2
491.250	1	2
491.591	1	1
491.932	1	-4
492.272	1	-1
492.613	1	3
492.953	1	8
493.294	1	-3
493.635	1	-1
493.975	1	6
494.316	1	5
494.656	1	3
494.997	1	12
495.337	1	12
495.678	1	7
496.019	1	-4
496.359	1	-2
496.700	1	-3
497.040	1	4
497.381	1	1
497.721	1	4
498.062	1	-1
498.403	1	5
498.743	1	5
499.084	1	-2
499.424	1	2
499.765	1	4
500.105	1	-1
500.446	1	-10
500.786	1	2
501.127	1	-5
501.467	1	-3
501.808	1	7
502.148	1	7
502.489	1	6
502.829	1	10
503.170	1	9
503.510	1	7
503.851	1	0
504.191	1	16
504.532	1	0
504.872	1	10
505.213	1	13
505.553	1	0
505.894	1	2
506.234	1	7
506.575	1	14
506.915	1	10
507.256	1	8
507.596	1	9
507.936	1	8
508.277	1	5
508.617	1	0
508.958	1	-5
509.298	1	12
509.639	1	9
509.979	1	5
510.319	1	5
510.660	1	5
511.000	1	1
511.341	1	6
511.681	1	11
512.022	1	-2
512.362	1	-3
512.702	1	-3
513.043	1	14
513.383	1	-4
513.724	1	4
514.064	1	16
514.404	1	-1
514.745	1	0
515.085	1	9
515.425	1	4
515.766	1	-2
516.106	1	0
516.447	1	12
516.787	1	15
517.127	1	12
517.468	1	6
517.808	1	4
518.148	1	16
518.489	1	4
518.829	1	12
519.169	1	4
519.510	1	3
519.850	1	10
520.190	1	7
520.531	1	11
520.871	1	6
521.211	1	-8
521.552	1	15
521.892	1	11
522.232	1	4
522.573	1	10
522.913	1	11
523.253	1	6
523.593	1	7
523.934	1	7
524.274	1	5
524.614	1	2
524.955	1	-1
525.295	1	2
525.635	1	9
525.975	1	6
526.316	1	18
526.656	1	12
526.996	1	14
527.337	1	7
527.677	1	10
528.017	1	2
528.357	1	1
528.698	1	7
529.038	1	4
529.378	1	7
529.718	1	11
530.058	1	4
530.399	1	18
530.739	1	7
531.079	1	13
531.419	1	19
531.760	1	14
532.100	1	1
532.440	1	5
532.780	1	3
533.120	1	21
533.461	1	18
533.801	1	26
534.141	1	-2
534.481	1	1
534.821	1	13
535.162	1	7
535.502	1	9
535.842	1	10
536.182	1	1
536.522	1	5
536.862	1	11
537.203	1	4
537.543	1	12
537.883	1	9
538.223	1	11
538.563	1	12
538.903	1	3
539.243	1	10
539.584	1	-6
539.924	1	21
540.264	1	3
540.604	1	-4
540.944	1	4
541.284	1	17
541.624	1	17
541.964	1	18
542.305	1	19
542.645	1	10
542.985	1	18
543.325	1	4
543.665	1	18
544.005	1	23
544.345	1	13
544.685	1	8
545.025	1	15
545.365	1	10
545.705	1	6
546.045	1	3
546.386	1	7
546.726	1	-4
547.066	1	10
547.406	1	10
547.746	1	-4
548.086	1	9
548.426	1	12
548.766	1	12
549.106	1	15
549.446	1	3
549.786	1	2
550.126	1	28
550.466	1	16
550.806	1	8
551.146	1	14
551.486	1	3
551.826	1	13
552.166	1	8
552.506	1	15
552.846	1	12
553.186	1	21
553.526	1	14
553.866	1	6
554.206	1	12
554.546	1	13
554.886	1	12
555.226	1	-1
555.566	1	23
555.906	1	15
556.246	1	12
556.586	1	5
556.926	1	11
557.266	1	-3
557.606	1	21
557.946	1	16
558.286	1	10
558.626	1	11
558.966	1	13
559.306	1	2
559.646	1	4
559.986	1	11
560.325	1	-4
560.665	1	10
561.005	1	4
561.345	1	3
561.685	1	16
562.025	1	11
562.365	1	17
562.705	1	6
563.045	1	8
563.385	1	4
563.725	1	4
564.064	1	6
564.404	1	10
564.744	1	12
565.084	1	4
565.424	1	7
565.764	1	6
566.104	1	4
566.444	1	7
566.783	1	4
567.123	1	9
567.463	1	6
567.803	1	7
568.143	1	10
568.483	1	16
568.823	1	3
569.162	1	5
569.502	1	18
569.842	1	19
570.182	1	19
570.522	1	10
570.862	1	10
571.201	1	17
571.541	1	15
571.881	1	19
572.221	1	1
572.561	1	-3
572.900	1	4
573.240	1	4
573.580	1	14
573.920	1	2
574.260	1	11
574.599	1	19
574.939	1	8
575.279	1	19
575.619	1	14
575.959	1	6
576.298	1	21
576.638	1	11
576.978	1	13
577.318	1	18
577.657	1	6
577.997	1	6
578.337	1	29
578.677	1	12
579.016	1	20
579.356	1	-8
579.696	1	18
580.036	1	4
580.375	1	12
580.715	1	9
581.055	1	10
581.394	1	7
581.734	1	0
582.074	1	-2
582.414	1	14
582.753	1	9
583.093	1	6
583.433	1	0
583.772	1	10
584.112	1	7
584.452	1	14
584.791	1	9
585.131	1	14
585.471	1	18
585.811	1	8
586.150	1	6
586.490	1	14
586.830	1	6
587.169	1	11
587.509	1	13
587.849	1	6
588.188	1	13
588.528	1	17
588.867	1	14
589.207	1	11
589.547	1	8
589.886	1	2
590.226	1	10
590.566	1	5
590.905	1	6
591.245	1	4
591.585	1	13
591.924	1	8
592.264	1	5
592.603	1	9
592.943	1	14
593.283	1	6
593.622	1	13
593.962	1	20
594.301	1	13
594.641	1	3
594.981	1	5
595.320	1	5
595.660	1	12
595.999	1	-4
596.339	1	8
596.678	1	3
597.018	1	0
597.358	1	14
597.697	1	4
598.037	1	11
598.376	1	7
598.716	1	26
599.055	1	16
599.395	1	5
599.734	1	2
600.074	1	4
600.413	1	18
600.753	1	11
601.092	1	16
601.432	1	0
601.771	1	10
602.111	1	11
602.451	1	21
602.790	1	10
603.130	1	5
603.469	1	4
603.809	1	11
604.148	1	13
604.487	1	1
604.827	1	16
605.166	1	16
605.506	1	7
605.845	1	14
606.185	1	22
606.524	1	8
606.864	1	7
607.203	1	4
607.543	1	-1
607.882	1	12
608.222	1	14
608.561	1	9
608.901	1	5
609.240	1	8
609.579	1	7
609.919	1	18
610.258	1	22
610.598	1	1
610.937	1	8
611.277	1	10
611.616	1	4
611.955	1	10
612.295	1	7
612.634	1	8
612.974	1	2
613.313	1	23
613.652	1	10
613.992	1	7
614.331	1	10
614.671	1	14
615.010	1	-3
615.349	1	13
615.689	1	14
616.028	1	1
616.368	1	10
616.707	1	3
617.046	1	16
617.386	1	14
617.725	1	5
618.064	1	1
618.404	1	7
618.743	1	17
619.082	1	4
619.422	1	-1
619.761	1	12
620.100	1	5
620.440	1	13
620.779	1	-4
621.118	1	13
621.458	1	3
621.797	1	7
622.136	1	11
622.476	1	16
622.815	1	7
623.154	1	13
623.494	1	14
623.833	1	12
624.172	1	12
624.511	1	-2
624.851	1	-7
625.190	1	8
625.529	1	8
625.869	1	15
626.208	1	8
626.547	1	3
626.886	1	4
627.226	1	15
627.565	1	5
627.904	1	0
628.243	1	4
628.583	1	3
628.922	1	10
629.261	1	9
629.600	1	3
629.940	1	-4
630.279	1	-3
630.618	1	9
630.957	1	6
631.297	1	9
631.636	1	-5
631.975	1	9
632.314	1	12
632.653	1	9
632.993	1	6
633.332	1	-6
633.671	1	3
634.010	1	-2
634.349	1	19
634.689	1	11
635.028	1	13
635.367	1	-3
635.706	1	13
636.045	1	6
636.384	1	5
636.724	1	9
637.063	1	7
637.402	1	13
637.741	1	11
638.080	1	4
638.419	1	6
638.759	1	-1
639.098	1	17
639.437	1	10
639.776	1	-6
640.115	1	0
640.454	1	-2
640.793	1	11
641.132	1	6
641.472	1	0
641.811	1	16
642.150	1	-6
642.489	1	12
642.828	1	4
643.167	1	3
643.506	1	-3
643.845	1	0
644.184	1	5
644.524	1	-3
644.863	1	3
645.202	1	-4
645.541	1	5
645.880	1	8
646.219	1	3
646.558	1	1
646.897	1	11
647.236	1	15
647.575	1	11
647.914	1	4
648.253	1	15
648.592	1	1
648.931	1	14
649.270	1	7
649.610	1	7
649.949	1	1
650.288	1	10
650.627	1	8
650.966	1	-5
651.305	1	-6
651.644	1	24
651.983	1	7
652.322	1	-2
652.661	1	9
653.000	1	9
653.339	1	6
653.678	1	7
654.017	1	13
654.356	1	2
654.695	1	1
655.034	1	-5
655.373	1	1
655.712	1	9
656.051	1	-3
656.390	1	0
656.729	1	8
657.068	1	1
657.406	1	7
657.745	1	2
658.084	1	17
658.423	1	3
658.762	1	-6
659.101	1	8
659.440	1	9
659.779	1	-6
660.118	1	11
660.457	1	2
660.796	1	-5
661.135	1	9
661.474	1	-1
661.813	1	5
662.152	1	9
662.491	1	9
662.829	1	2
663.168	1	8
663.507	1	10
663.846	1	-6
664.185	1	3
664.524	1	8
664.863	1	2
665.202	1	4
665.541	1	-8
665.879	1	-5
666.218	1	-4
666.557	1	5
666.896	1	-4
667.235	1	12
667.574	1	0
667.913	1	9
668.251	1	2
668.590	1	0
668.929	1	4
669.268	1	7
669.607	1	7
669.946	1	-1
670.285	1	10
670.623	1	-8
670.962	1	9
671.301	1	5
671.640	1	9
671.979	1	0
672.317	1	4
672.656	1	9
672.995	1	11
673.334	1	8
673.673	1	10
674.011	1	7
674.350	1	3
674.689	1	0
675.028	1	1
675.367	1	6
675.705	1	22
676.044	1	4
676.383	1	8
676.722	1	1
677.060	1	1
677.399	1	-3
677.738	1	9
678.077	1	6
678.416	1	4
678.754	1	0
679.093	1	8
679.432	1	-2
679.771	1	0
680.109	1	13
680.448	1	2
680.787	1	5
681.125	1	3
681.464	1	2
681.803	1	2
682.142	1	-1
682.480	1	17
682.819	1	4
683.158	1	-3
683.496	1	9
683.835	1	9
684.174	1	8
684.512	1	3
684.851	1	4
685.190	1	-7
685.529	1	8
685.867	1	0
686.206	1	-2
686.545	1	-5
686.883	1	2
687.222	1	8
687.561	1	10
687.899	1	6
688.238	1	11
688.577	1	4
688.746	1	4