File: Data/GaN_200K_800ms/GaN_sample F_spot 12_UVVIS_200 K_200um_800 ms 2x2mm1_221.txt
340.368	1	4
340.710	1	-8
341.052	1	11
341.394	1	-7
341.737	1	5
342.079	1	-2
342.421	1	-4
342.763	1	10
343.105	1	3
343.447	1	0
343.789	1	6
344.131	1	-9
344.473	1	5
344.815	1	2
345.157	1	-9
345.499	1	-4
345.841	1	6
346.183	1	-8
346.526	1	-8
346.868	1	-1
347.210	1	-15
347.552	1	-4
347.894	1	5
348.236	1	4
348.578	1	-4
348.920	1	-9
349.262	1	-12
349.604	1	6
349.946	1	-3
350.288	1	13
350.630	1	2
350.972	1	1
351.314	1	7
351.656	1	-1
351.998	1	8
352.340	1	6
352.682	1	-2
353.024	1	-1
353.366	1	13
353.708	1	8
354.050	1	-4
354.392	1	4
354.734	1	-5
355.076	1	6
355.418	1	-5
355.760	1	-8
356.102	1	9
356.444	1	-4
356.785	1	8
357.127	1	-2
357.469	1	6
357.811	1	5
358.153	1	15
358.495	1	9
358.837	1	-8
359.179	1	4
359.521	1	16
359.863	1	6
360.205	1	5
360.547	1	7
360.889	1	0
361.231	1	1
361.572	1	12
361.914	1	8
362.256	1	9
362.598	1	6
362.940	1	15
363.282	1	5
363.624	1	14
363.966	1	6
364.308	1	18
364.649	1	11
364.991	1	12
365.333	1	10
365.675	1	15
366.017	1	22
366.359	1	15
366.701	1	13
367.042	1	21
367.384	1	18
367.726	1	22
368.068	1	28
368.410	1	40
368.752	1	35
369.093	1	15
369.435	1	37
369.777	1	31
370.119	1	24
370.461	1	41
370.803	1	32
371.144	1	26
371.486	1	36
371.828	1	23
372.170	1	31
372.512	1	20
372.853	1	28
373.195	1	27
373.537	1	9
373.879	1	13
374.220	1	33
374.562	1	22
374.904	1	13
375.246	1	21
375.588	1	13
375.929	1	24
376.271	1	24
376.613	1	10
376.955	1	12
377.296	1	5
377.638	1	15
377.980	1	13
378.321	1	-2
378.663	1	2
379.005	1	12
379.347	1	9
379.688	1	11
380.030	1	9
380.372	1	12
380.714	1	9
381.055	1	15
381.397	1	0
381.739	1	11
382.080	1	12
382.422	1	11
382.764	1	1
383.105	1	9
383.447	1	6
383.789	1	1
384.130	1	10
384.472	1	4
384.814	1	8
385.156	1	-2
385.497	1	9
385.839	1	2
386.180	1	-4
386.522	1	7
386.864	1	9
387.205	1	1
387.547	1	0
387.889	1	6
388.230	1	13
388.572	1	-2
388.914	1	5
389.255	1	2
389.597	1	9
389.939	1	4
390.280	1	2
390.622	1	2
390.963	1	10
391.305	1	9
391.647	1	4
391.988	1	-1
392.330	1	13
392.671	1	2
393.013	1	3
393.355	1	7
393.696	1	-1
394.038	1	11
394.379	1	4
394.721	1	-4
395.062	1	5
395.404	1	-4
395.746	1	6
396.087	1	2
396.429	1	2
396.770	1	-1
397.112	1	10
397.453	1	11
397.795	1	1
398.136	1	0
398.478	1	5
398.819	1	4
399.161	1	13
399.503	1	-3
399.844	1	7
400.186	1	1
400.527	1	2
400.869	1	1
401.210	1	2
401.552	1	-3
401.893	1	1
402.235	1	6
402.576	1	2
402.918	1	5
403.259	1	2
403.601	1	7
403.942	1	10
404.284	1	3
404.625	1	4
404.967	1	-2
405.308	1	7
405.649	1	7
405.991	1	-5
406.332	1	8
406.674	1	-11
407.015	1	8
407.357	1	1
407.698	1	5
408.040	1	0
408.381	1	-1
408.722	1	-11
409.064	1	2
409.405	1	6
409.747	1	2
410.088	1	-3
410.430	1	8
410.771	1	9
411.112	1	-9
411.454	1	-12
411.795	1	-2
412.137	1	-1
412.478	1	16
412.819	1	-4
413.161	1	-5
413.502	1	5
413.844	1	5
414.185	1	9
414.526	1	-8
414.868	1	-2
415.209	1	-2
415.550	1	-3
415.892	1	3
416.233	1	6
416.575	1	14
416.916	1	-2
417.257	1	0
417.599	1	0
417.940	1	10
418.281	1	2
418.623	1	3
418.964	1	-9
419.305	1	2
419.647	1	-6
419.988	1	-1
420.329	1	-7
420.671	1	4
421.012	1	1
421.353	1	-9
421.695	1	0
422.036	1	-6
422.377	1	-9
422.718	1	7
423.060	1	-5
423.401	1	4
423.742	1	6
424.084	1	4
424.425	1	6
424.766	1	-10
425.107	1	-1
425.449	1	-2
425.790	1	-13
426.131	1	-2
426.472	1	-4
426.814	1	8
427.155	1	-5
427.496	1	6
427.837	1	-8
428.179	1	-11
428.520	1	-6
428.861	1	-7
429.202	1	2
429.544	1	0
429.885	1	2
430.226	1	-5
430.567	1	2
430.909	1	2
431.250	1	-4
431.591	1	4
431.932	1	-5
432.273	1	-7
432.615	1	-2
432.956	1	-1
433.297	1	7
433.638	1	-13
433.979	1	13
434.320	1	4
434.662	1	1
435.003	1	-3
435.344	1	4
435.685	1	-6
436.026	1	3
436.368	1	-1
436.709	1	-4
437.050	1	-2
437.391	1	8
437.732	1	-13
438.073	1	3
438.414	1	-11
438.756	1	-7
439.097	1	-11
439.438	1	-6
439.779	1	-3
440.120	1	-7
440.461	1	1
440.802	1	0
441.143	1	13
441.485	1	12
441.826	1	-5
442.167	1	1
442.508	1	-5
442.849	1	13
443.190	1	-2
443.531	1	-2
443.872	1	11
444.213	1	0
444.554	1	7
444.895	1	-4
445.237	1	-6
445.578	1	-3
445.919	1	-8
446.260	1	-4
446.601	1	1
446.942	1	1
447.283	1	-10
447.624	1	-3
447.965	1	-5
448.306	1	8
448.647	1	-10
448.988	1	-4
449.329	1	6
449.670	1	4
450.011	1	7
450.352	1	6
450.693	1	-11
451.034	1	-6
451.375	1	1
451.716	1	-4
452.057	1	-1
452.398	1	-3
452.739	1	8
453.080	1	3
453.421	1	-7
453.762	1	-3
454.103	1	-1
454.444	1	-7
454.785	1	5
455.126	1	-4
455.467	1	1
455.808	1	3
456.149	1	0
456.490	1	6
456.831	1	5
457.172	1	-7
457.513	1	-2
457.854	1	-4
458.195	1	2
458.536	1	11
458.877	1	0
459.218	1	-1
459.559	1	5
459.899	1	-5
460.240	1	-4
460.581	1	15
460.922	1	1
461.263	1	0
461.604	1	-1
461.945	1	-5
462.286	1	-2
462.627	1	8
462.968	1	9
463.309	1	-5
463.649	1	-3
463.990	1	-6
464.331	1	3
464.672	1	3
465.013	1	-4
465.354	1	0
465.695	1	-5
466.036	1	-5
466.376	1	-6
466.717	1	-1
467.058	1	-3
467.399	1	5
467.740	1	1
468.081	1	3
468.422	1	-8
468.762	1	-7
469.103	1	-6
469.444	1	-4
469.785	1	-9
470.126	1	-8
470.467	1	1
470.807	1	4
471.148	1	4
471.489	1	-8
471.830	1	4
472.171	1	0
472.511	1	-5
472.852	1	6
473.193	1	-1
473.534	1	11
473.875	1	12
474.215	1	13
474.556	1	0
474.897	1	7
475.238	1	-2
475.578	1	-7
475.919	1	-4
476.260	1	2
476.601	1	1
476.942	1	21
477.282	1	-18
477.623	1	-6
477.964	1	-3
478.305	1	-2
478.645	1	9
478.986	1	2
479.327	1	-11
479.667	1	0
480.008	1	8
480.349	1	-4
480.690	1	5
481.030	1	1
481.371	1	8
481.712	1	4
482.053	1	0
482.393	1	0
482.734	1	-1
483.075	1	0
483.415	1	0
483.756	1	6
484.097	1	-1
484.437	1	-12
484.778	1	1
485.119	1	-4
485.459	1	14
485.800	1	-5
486.141	1	4
486.481	1	4
486.822	1	-6
487.163	1	3
487.503	1	3
487.844	1	-1
488.185	1	1
488.525	1	-3
488.866	1	1
489.207	1	-4
489.547	1	-5
489.888	1	4
490.228	1	14
490.569	1	13
490.910	1	1
491.250	1	-1
491.591	1	-9
491.932	1	-1
492.272	1	10
492.613	1	-7
492.953	1	2
493.294	1	1
493.635	1	5
493.975	1	4
494.316	1	6
494.656	1	0
494.997	1	-5
495.337	1	11
495.678	1	-4
496.019	1	5
496.359	1	-7
496.700	1	5
497.040	1	-4
497.381	1	2
497.721	1	6
498.062	1	0
498.403	1	1
498.743	1	3
499.084	1	0
499.424	1	5
499.765	1	-7
500.105	1	3
500.446	1	-5
500.786	1	-1
501.127	1	3
501.467	1	-6
501.808	1	-4
502.148	1	5
502.489	1	6
502.829	1	5
503.170	1	8
503.510	1	6
503.851	1	3
504.191	1	5
504.532	1	6
504.872	1	-1
505.213	1	8
505.553	1	-3
505.894	1	-8
506.234	1	9
506.575	1	11
506.915	1	9
507.256	1	6
507.596	1	0
507.936	1	-5
508.277	1	-3
508.617	1	-4
508.958	1	-15
509.298	1	-1
509.639	1	-1
509.979	1	-5
510.319	1	6
510.660	1	7
511.000	1	-2
511.341	1	3
511.681	1	-6
512.022	1	1
512.362	1	-1
512.702	1	-6
513.043	1	6
513.383	1	-2
513.724	1	-1
514.064	1	14
514.404	1	-11
514.745	1	5
515.085	1	6
515.425	1	-5
515.766	1	-10
516.106	1	0
516.447	1	15
516.787	1	2
517.127	1	-1
517.468	1	-4
517.808	1	2
518.148	1	11
518.489	1	5
518.829	1	15
519.169	1	10
519.510	1	15
519.850	1	10
520.190	1	-8
520.531	1	1
520.871	1	7
521.211	1	-4
521.552	1	5
521.892	1	1
522.232	1	0
522.573	1	10
522.913	1	6
523.253	1	-8
523.593	1	0
523.934	1	-1
524.274	1	2
524.614	1	-1
524.955	1	-3
525.295	1	10
525.635	1	6
525.975	1	7
526.316	1	14
526.656	1	-9
526.996	1	3
527.337	1	1
527.677	1	7
528.017	1	-2
528.357	1	7
528.698	1	-2
529.038	1	9
529.378	1	2
529.718	1	13
530.058	1	0
530.399	1	3
530.739	1	4
531.079	1	11
531.419	1	8
531.760	1	10
532.100	1	-5
532.440	1	4
532.780	1	-1
533.120	1	8
533.461	1	4
533.801	1	16
534.141	1	0
534.481	1	-9
534.821	1	14
535.162	1	-6
535.502	1	-3
535.842	1	10
536.182	1	5
536.522	1	7
536.862	1	6
537.203	1	1
537.543	1	11
537.883	1	0
538.223	1	3
538.563	1	7
538.903	1	0
539.243	1	7
539.584	1	-1
539.924	1	6
540.264	1	-7
540.604	1	9
540.944	1	4
541.284	1	13
541.624	1	11
541.964	1	1
542.305	1	8
542.645	1	2
542.985	1	-2
543.325	1	6
543.665	1	15
544.005	1	12
544.345	1	6
544.685	1	9
545.025	1	5
545.365	1	3
545.705	1	8
546.045	1	-9
546.386	1	4
546.726	1	-12
547.066	1	-1
547.406	1	10
547.746	1	-13
548.086	1	7
548.426	1	-6
548.766	1	5
549.106	1	8
549.446	1	-3
549.786	1	-10
550.126	1	16
550.466	1	3
550.806	1	2
551.146	1	1
551.486	1	5
551.826	1	1
552.166	1	11
552.506	1	21
552.846	1	6
553.186	1	19
553.526	1	4
553.866	1	8
554.206	1	10
554.546	1	7
554.886	1	6
555.226	1	-3
555.566	1	8
555.906	1	13
556.246	1	6
556.586	1	0
556.926	1	7
557.266	1	-2
557.606	1	8
557.946	1	10
558.286	1	9
558.626	1	5
558.966	1	0
559.306	1	14
559.646	1	-7
559.986	1	-3
560.325	1	4
560.665	1	-2
561.005	1	0
561.345	1	4
561.685	1	4
562.025	1	4
562.365	1	6
562.705	1	-5
563.045	1	0
563.385	1	-6
563.725	1	4
564.064	1	11
564.404	1	8
564.744	1	4
565.084	1	0
565.424	1	12
565.764	1	6
566.104	1	-1
566.444	1	2
566.783	1	1
567.123	1	4
567.463	1	13
567.803	1	-1
568.143	1	-2
568.483	1	17
568.823	1	5
569.162	1	6
569.502	1	-3
569.842	1	18
570.182	1	15
570.522	1	-4
570.862	1	9
571.201	1	10
571.541	1	4
571.881	1	13
572.221	1	1
572.561	1	-1
572.900	1	-10
573.240	1	7
573.580	1	1
573.920	1	16
574.260	1	13
574.599	1	0
574.939	1	9
575.279	1	10
575.619	1	5
575.959	1	-6
576.298	1	9
576.638	1	0
576.978	1	8
577.318	1	8
577.657	1	0
577.997	1	1
578.337	1	9
578.677	1	6
579.016	1	9
579.356	1	-6
579.696	1	13
580.036	1	-3
580.375	1	9
580.715	1	1
581.055	1	8
581.394	1	1
581.734	1	-5
582.074	1	-4
582.414	1	12
582.753	1	4
583.093	1	-3
583.433	1	0
583.772	1	7
584.112	1	10
584.452	1	6
584.791	1	-1
585.131	1	16
585.471	1	7
585.811	1	14
586.150	1	2
586.490	1	5
586.830	1	10
587.169	1	4
587.509	1	1
587.849	1	4
588.188	1	14
588.528	1	12
588.867	1	19
589.207	1	15
589.547	1	5
589.886	1	-1
590.226	1	6
590.566	1	4
590.905	1	6
591.245	1	-1
591.585	1	8
591.924	1	2
592.264	1	4
592.603	1	6
592.943	1	4
593.283	1	6
593.622	1	3
593.962	1	4
594.301	1	10
594.641	1	3
594.981	1	-3
595.320	1	2
595.660	1	15
595.999	1	-2
596.339	1	7
596.678	1	0
597.018	1	-3
597.358	1	4
597.697	1	7
598.037	1	8
598.376	1	3
598.716	1	6
599.055	1	13
599.395	1	4
599.734	1	0
600.074	1	3
600.413	1	13
600.753	1	12
601.092	1	12
601.432	1	0
601.771	1	1
602.111	1	4
602.451	1	5
602.790	1	4
603.130	1	7
603.469	1	1
603.809	1	8
604.148	1	9
604.487	1	6
604.827	1	1
605.166	1	10
605.506	1	2
605.845	1	3
606.185	1	5
606.524	1	-1
606.864	1	8
607.203	1	3
607.543	1	5
607.882	1	11
608.222	1	8
608.561	1	8
608.901	1	5
609.240	1	-6
609.579	1	15
609.919	1	3
610.258	1	8
610.598	1	4
610.937	1	2
611.277	1	6
611.616	1	2
611.955	1	3
612.295	1	-1
612.634	1	-5
612.974	1	-5
613.313	1	8
613.652	1	16
613.992	1	6
614.331	1	-4
614.671	1	0
615.010	1	0
615.349	1	14
615.689	1	5
616.028	1	2
616.368	1	2
616.707	1	9
617.046	1	12
617.386	1	11
617.725	1	3
618.064	1	-2
618.404	1	-1
618.743	1	8
619.082	1	6
619.422	1	-5
619.761	1	5
620.100	1	2
620.440	1	9
620.779	1	-4
621.118	1	3
621.458	1	1
621.797	1	0
622.136	1	17
622.476	1	8
622.815	1	2
623.154	1	6
623.494	1	14
623.833	1	4
624.172	1	1
624.511	1	7
624.851	1	-7
625.190	1	-1
625.529	1	1
625.869	1	8
626.208	1	0
626.547	1	2
626.886	1	4
627.226	1	10
627.565	1	1
627.904	1	-4
628.243	1	7
628.583	1	1
628.922	1	6
629.261	1	4
629.600	1	13
629.940	1	6
630.279	1	-3
630.618	1	4
630.957	1	7
631.297	1	0
631.636	1	-8
631.975	1	19
632.314	1	-2
632.653	1	11
632.993	1	3
633.332	1	3
633.671	1	-2
634.010	1	4
634.349	1	12
634.689	1	-3
635.028	1	1
635.367	1	2
635.706	1	2
636.045	1	8
636.384	1	1
636.724	1	3
637.063	1	-2
637.402	1	8
637.741	1	8
638.080	1	2
638.419	1	6
638.759	1	5
639.098	1	9
639.437	1	5
639.776	1	-5
640.115	1	-8
640.454	1	-1
640.793	1	11
641.132	1	9
641.472	1	1
641.811	1	3
642.150	1	-7
642.489	1	3
642.828	1	3
643.167	1	0
643.506	1	-4
643.845	1	6
644.184	1	1
644.524	1	3
644.863	1	0
645.202	1	6
645.541	1	5
645.880	1	-4
646.219	1	3
646.558	1	7
646.897	1	-6
647.236	1	4
647.575	1	9
647.914	1	3
648.253	1	12
648.592	1	2
648.931	1	10
649.270	1	-7
649.610	1	2
649.949	1	4
650.288	1	6
650.627	1	2
650.966	1	4
651.305	1	0
651.644	1	13
651.983	1	4
652.322	1	-4
652.661	1	-3
653.000	1	3
653.339	1	8
653.678	1	0
654.017	1	-1
654.356	1	-4
654.695	1	9
655.034	1	-2
655.373	1	5
655.712	1	3
656.051	1	-6
656.390	1	9
656.729	1	6
657.068	1	8
657.406	1	9
657.745	1	-6
658.084	1	8
658.423	1	9
658.762	1	0
659.101	1	7
659.440	1	-10
659.779	1	1
660.118	1	4
660.457	1	-4
660.796	1	-4
661.135	1	-8
661.474	1	1
661.813	1	17
662.152	1	2
662.491	1	8
662.829	1	-8
663.168	1	-1
663.507	1	7
663.846	1	0
664.185	1	3
664.524	1	-4
664.863	1	-4
665.202	1	0
665.541	1	-7
665.879	1	-6
666.218	1	-2
666.557	1	-1
666.896	1	2
667.235	1	0
667.574	1	0
667.913	1	-1
668.251	1	-13
668.590	1	2
668.929	1	-13
669.268	1	2
669.607	1	1
669.946	1	-2
670.285	1	2
670.623	1	-4
670.962	1	2
671.301	1	-3
671.640	1	2
671.979	1	-7
672.317	1	9
672.656	1	0
672.995	1	9
673.334	1	1
673.673	1	2
674.011	1	5
674.350	1	9
674.689	1	4
675.028	1	-1
675.367	1	4
675.705	1	5
676.044	1	3
676.383	1	0
676.722	1	-2
677.060	1	-2
677.399	1	-4
677.738	1	6
678.077	1	5
678.416	1	1
678.754	1	-10
679.093	1	9
679.432	1	-1
679.771	1	0
680.109	1	8
680.448	1	2
680.787	1	-5
681.125	1	4
681.464	1	2
681.803	1	7
682.142	1	10
682.480	1	17
682.819	1	-6
683.158	1	2
683.496	1	5
683.835	1	-6
684.174	1	5
684.512	1	2
684.851	1	-2
685.190	1	0
685.529	1	0
685.867	1	3
686.206	1	1
686.545	1	-2
686.883	1	-4
687.222	1	1
687.561	1	2
687.899	1	-3
688.238	1	9
688.577	1	3
688.746	1	5