File: Data/GaN_200K_800ms/GaN_sample F_spot 12_UVVIS_200 K_200um_800 ms 2x2mm1_376.txt
340.368	1	5
340.710	1	-7
341.052	1	13
341.394	1	-3
341.737	1	12
342.079	1	-4
342.421	1	-2
342.763	1	5
343.105	1	-2
343.447	1	-13
343.789	1	-5
344.131	1	-2
344.473	1	-5
344.815	1	-7
345.157	1	-5
345.499	1	2
345.841	1	1
346.183	1	-2
346.526	1	-5
346.868	1	-1
347.210	1	-11
347.552	1	-6
347.894	1	5
348.236	1	8
348.578	1	0
348.920	1	2
349.262	1	0
349.604	1	-3
349.946	1	-10
350.288	1	10
350.630	1	-2
350.972	1	-5
351.314	1	1
351.656	1	1
351.998	1	6
352.340	1	6
352.682	1	12
353.024	1	3
353.366	1	5
353.708	1	6
354.050	1	-5
354.392	1	-2
354.734	1	1
355.076	1	1
355.418	1	-7
355.760	1	1
356.102	1	5
356.444	1	9
356.785	1	7
357.127	1	-2
357.469	1	3
357.811	1	-9
358.153	1	-5
358.495	1	-5
358.837	1	3
359.179	1	8
359.521	1	4
359.863	1	3
360.205	1	-6
360.547	1	7
360.889	1	7
361.231	1	1
361.572	1	2
361.914	1	-1
362.256	1	4
362.598	1	3
362.940	1	-5
363.282	1	-2
363.624	1	8
363.966	1	3
364.308	1	6
364.649	1	5
364.991	1	6
365.333	1	-6
365.675	1	-4
366.017	1	11
366.359	1	6
366.701	1	9
367.042	1	6
367.384	1	9
367.726	1	10
368.068	1	14
368.410	1	19
368.752	1	3
369.093	1	3
369.435	1	12
369.777	1	-1
370.119	1	3
370.461	1	15
370.803	1	9
371.144	1	7
371.486	1	14
371.828	1	15
372.170	1	16
372.512	1	4
372.853	1	11
373.195	1	7
373.537	1	0
373.879	1	7
374.220	1	20
374.562	1	7
374.904	1	-1
375.246	1	7
375.588	1	5
375.929	1	5
376.271	1	3
376.613	1	7
376.955	1	3
377.296	1	2
377.638	1	-1
377.980	1	2
378.321	1	-8
378.663	1	5
379.005	1	9
379.347	1	-1
379.688	1	6
380.030	1	-4
380.372	1	-1
380.714	1	2
381.055	1	0
381.397	1	1
381.739	1	13
382.080	1	2
382.422	1	8
382.764	1	-5
383.105	1	0
383.447	1	-5
383.789	1	-8
384.130	1	3
384.472	1	3
384.814	1	4
385.156	1	1
385.497	1	0
385.839	1	-3
386.180	1	-4
386.522	1	1
386.864	1	-2
387.205	1	-7
387.547	1	1
387.889	1	-5
388.230	1	10
388.572	1	4
388.914	1	5
389.255	1	-11
389.597	1	5
389.939	1	4
390.280	1	-8
390.622	1	2
390.963	1	8
391.305	1	4
391.647	1	-2
391.988	1	8
392.330	1	9
392.671	1	-3
393.013	1	1
393.355	1	3
393.696	1	-3
394.038	1	9
394.379	1	0
394.721	1	-11
395.062	1	0
395.404	1	-11
395.746	1	4
396.087	1	-1
396.429	1	3
396.770	1	-13
397.112	1	6
397.453	1	7
397.795	1	3
398.136	1	-6
398.478	1	5
398.819	1	1
399.161	1	8
399.503	1	3
399.844	1	-5
400.186	1	5
400.527	1	-8
400.869	1	1
401.210	1	-3
401.552	1	-13
401.893	1	2
402.235	1	-1
402.576	1	-6
402.918	1	12
403.259	1	7
403.601	1	-8
403.942	1	6
404.284	1	0
404.625	1	3
404.967	1	2
405.308	1	-6
405.649	1	4
405.991	1	-8
406.332	1	1
406.674	1	-8
407.015	1	6
407.357	1	3
407.698	1	3
408.040	1	-8
408.381	1	7
408.722	1	-8
409.064	1	5
409.405	1	11
409.747	1	-14
410.088	1	-2
410.430	1	3
410.771	1	1
411.112	1	-3
411.454	1	-18
411.795	1	-7
412.137	1	8
412.478	1	14
412.819	1	3
413.161	1	-5
413.502	1	5
413.844	1	9
414.185	1	5
414.526	1	-2
414.868	1	-1
415.209	1	2
415.550	1	-6
415.892	1	2
416.233	1	-2
416.575	1	14
416.916	1	-5
417.257	1	2
417.599	1	-1
417.940	1	3
418.281	1	-2
418.623	1	-6
418.964	1	-17
419.305	1	3
419.647	1	-3
419.988	1	-1
420.329	1	-7
420.671	1	-2
421.012	1	-6
421.353	1	-8
421.695	1	-14
422.036	1	5
422.377	1	-3
422.718	1	2
423.060	1	-5
423.401	1	4
423.742	1	0
424.084	1	-3
424.425	1	2
424.766	1	2
425.107	1	-7
425.449	1	5
425.790	1	-5
426.131	1	-5
426.472	1	-7
426.814	1	-4
427.155	1	3
427.496	1	-4
427.837	1	-6
428.179	1	-5
428.520	1	6
428.861	1	-4
429.202	1	0
429.544	1	-4
429.885	1	5
430.226	1	-12
430.567	1	-3
430.909	1	-2
431.250	1	0
431.591	1	-2
431.932	1	-8
432.273	1	-4
432.615	1	-7
432.956	1	-5
433.297	1	6
433.638	1	-2
433.979	1	5
434.320	1	5
434.662	1	8
435.003	1	3
435.344	1	-10
435.685	1	2
436.026	1	8
436.368	1	3
436.709	1	-1
437.050	1	-4
437.391	1	11
437.732	1	-5
438.073	1	-8
438.414	1	-16
438.756	1	-11
439.097	1	-5
439.438	1	-3
439.779	1	-6
440.120	1	-9
440.461	1	-7
440.802	1	-6
441.143	1	5
441.485	1	1
441.826	1	-4
442.167	1	-3
442.508	1	-7
442.849	1	10
443.190	1	-1
443.531	1	4
443.872	1	-5
444.213	1	3
444.554	1	8
444.895	1	5
445.237	1	-7
445.578	1	-7
445.919	1	-9
446.260	1	-6
446.601	1	2
446.942	1	-3
447.283	1	-4
447.624	1	-6
447.965	1	-9
448.306	1	-1
448.647	1	-14
448.988	1	-5
449.329	1	0
449.670	1	4
450.011	1	3
450.352	1	0
450.693	1	-17
451.034	1	-1
451.375	1	-7
451.716	1	-8
452.057	1	7
452.398	1	-6
452.739	1	-1
453.080	1	-3
453.421	1	-2
453.762	1	2
454.103	1	-5
454.444	1	-8
454.785	1	-8
455.126	1	-7
455.467	1	-6
455.808	1	-9
456.149	1	10
456.490	1	-3
456.831	1	-1
457.172	1	4
457.513	1	5
457.854	1	-8
458.195	1	-10
458.536	1	8
458.877	1	-2
459.218	1	0
459.559	1	13
459.899	1	6
460.240	1	4
460.581	1	5
460.922	1	5
461.263	1	-9
461.604	1	1
461.945	1	0
462.286	1	2
462.627	1	3
462.968	1	5
463.309	1	-8
463.649	1	1
463.990	1	-5
464.331	1	-9
464.672	1	-1
465.013	1	-6
465.354	1	4
465.695	1	-5
466.036	1	-5
466.376	1	-4
466.717	1	-1
467.058	1	6
467.399	1	2
467.740	1	-1
468.081	1	3
468.422	1	-13
468.762	1	0
469.103	1	-8
469.444	1	-3
469.785	1	-18
470.126	1	-7
470.467	1	-4
470.807	1	1
471.148	1	3
471.489	1	-1
471.830	1	2
472.171	1	0
472.511	1	-9
472.852	1	-3
473.193	1	2
473.534	1	-3
473.875	1	19
474.215	1	12
474.556	1	-6
474.897	1	8
475.238	1	3
475.578	1	-8
475.919	1	-2
476.260	1	2
476.601	1	4
476.942	1	12
477.282	1	-7
477.623	1	-14
477.964	1	4
478.305	1	-3
478.645	1	-3
478.986	1	5
479.327	1	-6
479.667	1	-3
480.008	1	-17
480.349	1	-3
480.690	1	7
481.030	1	-6
481.371	1	0
481.712	1	-1
482.053	1	2
482.393	1	7
482.734	1	-8
483.075	1	-8
483.415	1	0
483.756	1	2
484.097	1	-8
484.437	1	-6
484.778	1	6
485.119	1	0
485.459	1	12
485.800	1	-8
486.141	1	-1
486.481	1	0
486.822	1	3
487.163	1	-3
487.503	1	-1
487.844	1	2
488.185	1	3
488.525	1	2
488.866	1	-1
489.207	1	-1
489.547	1	-4
489.888	1	-5
490.228	1	1
490.569	1	0
490.910	1	-8
491.250	1	-6
491.591	1	-2
491.932	1	-3
492.272	1	3
492.613	1	-11
492.953	1	7
493.294	1	-5
493.635	1	-2
493.975	1	-8
494.316	1	-4
494.656	1	-8
494.997	1	-3
495.337	1	11
495.678	1	1
496.019	1	0
496.359	1	-5
496.700	1	4
497.040	1	-13
497.381	1	-1
497.721	1	0
498.062	1	3
498.403	1	2
498.743	1	-8
499.084	1	-4
499.424	1	7
499.765	1	7
500.105	1	-1
500.446	1	-15
500.786	1	-8
501.127	1	2
501.467	1	-5
501.808	1	6
502.148	1	5
502.489	1	-4
502.829	1	-9
503.170	1	9
503.510	1	3
503.851	1	-3
504.191	1	1
504.532	1	-6
504.872	1	1
505.213	1	8
505.553	1	-10
505.894	1	-11
506.234	1	6
506.575	1	6
506.915	1	4
507.256	1	-3
507.596	1	-7
507.936	1	2
508.277	1	-4
508.617	1	-3
508.958	1	-7
509.298	1	1
509.639	1	7
509.979	1	-8
510.319	1	5
510.660	1	-1
511.000	1	2
511.341	1	-2
511.681	1	7
512.022	1	-9
512.362	1	-9
512.702	1	-1
513.043	1	6
513.383	1	-6
513.724	1	6
514.064	1	3
514.404	1	-1
514.745	1	-11
515.085	1	1
515.425	1	-5
515.766	1	-6
516.106	1	6
516.447	1	13
516.787	1	6
517.127	1	-7
517.468	1	-5
517.808	1	-11
518.148	1	3
518.489	1	-3
518.829	1	1
519.169	1	-4
519.510	1	-3
519.850	1	0
520.190	1	-4
520.531	1	0
520.871	1	1
521.211	1	-7
521.552	1	-2
521.892	1	6
522.232	1	1
522.573	1	1
522.913	1	1
523.253	1	13
523.593	1	-7
523.934	1	9
524.274	1	-1
524.614	1	-1
524.955	1	-14
525.295	1	4
525.635	1	-2
525.975	1	-7
526.316	1	8
526.656	1	1
526.996	1	4
527.337	1	-6
527.677	1	2
528.017	1	-8
528.357	1	4
528.698	1	1
529.038	1	-3
529.378	1	3
529.718	1	6
530.058	1	1
530.399	1	12
530.739	1	-3
531.079	1	5
531.419	1	6
531.760	1	1
532.100	1	5
532.440	1	0
532.780	1	-3
533.120	1	-1
533.461	1	4
533.801	1	11
534.141	1	-5
534.481	1	-8
534.821	1	8
535.162	1	3
535.502	1	0
535.842	1	6
536.182	1	-11
536.522	1	-13
536.862	1	3
537.203	1	-11
537.543	1	3
537.883	1	6
538.223	1	3
538.563	1	11
538.903	1	0
539.243	1	-3
539.584	1	-7
539.924	1	17
540.264	1	-12
540.604	1	0
540.944	1	-6
541.284	1	11
541.624	1	2
541.964	1	8
542.305	1	0
542.645	1	-2
542.985	1	-2
543.325	1	0
543.665	1	8
544.005	1	9
544.345	1	4
544.685	1	-4
545.025	1	-7
545.365	1	1
545.705	1	-7
546.045	1	-9
546.386	1	5
546.726	1	-8
547.066	1	9
547.406	1	6
547.746	1	-17
548.086	1	-5
548.426	1	-12
548.766	1	-5
549.106	1	-6
549.446	1	-2
549.786	1	-8
550.126	1	2
550.466	1	0
550.806	1	-2
551.146	1	2
551.486	1	-8
551.826	1	4
552.166	1	-2
552.506	1	3
552.846	1	9
553.186	1	10
553.526	1	-2
553.866	1	2
554.206	1	5
554.546	1	-1
554.886	1	3
555.226	1	-4
555.566	1	4
555.906	1	4
556.246	1	0
556.586	1	-4
556.926	1	1
557.266	1	-8
557.606	1	1
557.946	1	9
558.286	1	-1
558.626	1	7
558.966	1	1
559.306	1	2
559.646	1	4
559.986	1	1
560.325	1	-2
560.665	1	-5
561.005	1	4
561.345	1	-3
561.685	1	-2
562.025	1	-6
562.365	1	5
562.705	1	3
563.045	1	-7
563.385	1	-13
563.725	1	1
564.064	1	-2
564.404	1	5
564.744	1	-1
565.084	1	-3
565.424	1	-1
565.764	1	-1
566.104	1	4
566.444	1	-7
566.783	1	-1
567.123	1	2
567.463	1	0
567.803	1	-9
568.143	1	-7
568.483	1	3
568.823	1	3
569.162	1	1
569.502	1	-3
569.842	1	-2
570.182	1	2
570.522	1	-13
570.862	1	1
571.201	1	7
571.541	1	-4
571.881	1	7
572.221	1	0
572.561	1	-7
572.900	1	-5
573.240	1	-2
573.580	1	5
573.920	1	7
574.260	1	6
574.599	1	0
574.939	1	1
575.279	1	2
575.619	1	10
575.959	1	1
576.298	1	9
576.638	1	1
576.978	1	7
577.318	1	6
577.657	1	-8
577.997	1	-12
578.337	1	6
578.677	1	2
579.016	1	10
579.356	1	3
579.696	1	1
580.036	1	0
580.375	1	4
580.715	1	-6
581.055	1	6
581.394	1	-8
581.734	1	-3
582.074	1	-9
582.414	1	10
582.753	1	-11
583.093	1	1
583.433	1	-6
583.772	1	7
584.112	1	9
584.452	1	6
584.791	1	-8
585.131	1	4
585.471	1	4
585.811	1	6
586.150	1	2
586.490	1	0
586.830	1	-3
587.169	1	12
587.509	1	-4
587.849	1	2
588.188	1	-2
588.528	1	-1
588.867	1	11
589.207	1	1
589.547	1	0
589.886	1	-8
590.226	1	2
590.566	1	-11
590.905	1	-1
591.245	1	-5
591.585	1	2
591.924	1	-9
592.264	1	-6
592.603	1	10
592.943	1	4
593.283	1	-2
593.622	1	-2
593.962	1	4
594.301	1	5
594.641	1	-8
594.981	1	-9
595.320	1	1
595.660	1	8
595.999	1	-12
596.339	1	5
596.678	1	-9
597.018	1	-3
597.358	1	7
597.697	1	5
598.037	1	-3
598.376	1	2
598.716	1	7
599.055	1	-3
599.395	1	-11
599.734	1	3
600.074	1	1
600.413	1	14
600.753	1	13
601.092	1	4
601.432	1	-7
601.771	1	10
602.111	1	2
602.451	1	5
602.790	1	0
603.130	1	2
603.469	1	-12
603.809	1	5
604.148	1	9
604.487	1	-2
604.827	1	2
605.166	1	4
605.506	1	-6
605.845	1	-7
606.185	1	2
606.524	1	-1
606.864	1	0
607.203	1	-3
607.543	1	-3
607.882	1	5
608.222	1	4
608.561	1	-7
608.901	1	2
609.240	1	-9
609.579	1	11
609.919	1	8
610.258	1	9
610.598	1	-9
610.937	1	1
611.277	1	-7
611.616	1	-8
611.955	1	3
612.295	1	-8
612.634	1	8
612.974	1	-16
613.313	1	5
613.652	1	-3
613.992	1	0
614.331	1	-1
614.671	1	5
615.010	1	-7
615.349	1	5
615.689	1	0
616.028	1	-1
616.368	1	3
616.707	1	-2
617.046	1	1
617.386	1	6
617.725	1	-6
618.064	1	-12
618.404	1	-7
618.743	1	7
619.082	1	0
619.422	1	-3
619.761	1	9
620.100	1	-5
620.440	1	8
620.779	1	-2
621.118	1	-3
621.458	1	-1
621.797	1	-5
622.136	1	8
622.476	1	-2
622.815	1	10
623.154	1	9
623.494	1	10
623.833	1	4
624.172	1	-3
624.511	1	-2
624.851	1	-9
625.190	1	7
625.529	1	4
625.869	1	5
626.208	1	-1
626.547	1	-1
626.886	1	1
627.226	1	-3
627.565	1	4
627.904	1	8
628.243	1	-6
628.583	1	-1
628.922	1	5
629.261	1	-1
629.600	1	7
629.940	1	-5
630.279	1	-8
630.618	1	-5
630.957	1	9
631.297	1	-3
631.636	1	-9
631.975	1	6
632.314	1	-7
632.653	1	4
632.993	1	-6
633.332	1	5
633.671	1	-6
634.010	1	-11
634.349	1	6
634.689	1	7
635.028	1	9
635.367	1	-6
635.706	1	0
636.045	1	5
636.384	1	3
636.724	1	2
637.063	1	-8
637.402	1	0
637.741	1	-9
638.080	1	-4
638.419	1	-6
638.759	1	-9
639.098	1	10
639.437	1	0
639.776	1	-2
640.115	1	-3
640.454	1	2
640.793	1	-2
641.132	1	3
641.472	1	3
641.811	1	-2
642.150	1	-10
642.489	1	5
642.828	1	-10
643.167	1	-6
643.506	1	0
643.845	1	-5
644.184	1	7
644.524	1	-8
644.863	1	-4
645.202	1	-3
645.541	1	-2
645.880	1	9
646.219	1	1
646.558	1	-4
646.897	1	2
647.236	1	0
647.575	1	-1
647.914	1	-4
648.253	1	11
648.592	1	-8
648.931	1	8
649.270	1	2
649.610	1	6
649.949	1	-4
650.288	1	5
650.627	1	-3
650.966	1	5
651.305	1	-1
651.644	1	4
651.983	1	11
652.322	1	-10
652.661	1	8
653.000	1	-7
653.339	1	3
653.678	1	-1
654.017	1	-6
654.356	1	-5
654.695	1	0
655.034	1	-3
655.373	1	13
655.712	1	1
656.051	1	-5
656.390	1	0
656.729	1	7
657.068	1	4
657.406	1	12
657.745	1	3
658.084	1	3
658.423	1	10
658.762	1	-3
659.101	1	11
659.440	1	0
659.779	1	4
660.118	1	-5
660.457	1	0
660.796	1	-13
661.135	1	-2
661.474	1	-5
661.813	1	10
662.152	1	3
662.491	1	-8
662.829	1	-7
663.168	1	-1
663.507	1	5
663.846	1	-4
664.185	1	9
664.524	1	-8
664.863	1	-10
665.202	1	-1
665.541	1	-12
665.879	1	-6
666.218	1	-10
666.557	1	-6
666.896	1	-8
667.235	1	-1
667.574	1	-6
667.913	1	-5
668.251	1	-2
668.590	1	-2
668.929	1	-16
669.268	1	11
669.607	1	-3
669.946	1	2
670.285	1	-1
670.623	1	3
670.962	1	4
671.301	1	-4
671.640	1	9
671.979	1	1
672.317	1	7
672.656	1	6
672.995	1	7
673.334	1	-1
673.673	1	0
674.011	1	-7
674.350	1	3
674.689	1	-2
675.028	1	11
675.367	1	3
675.705	1	11
676.044	1	-4
676.383	1	-2
676.722	1	-2
677.060	1	-5
677.399	1	-6
677.738	1	3
678.077	1	11
678.416	1	1
678.754	1	-1
679.093	1	7
679.432	1	-3
679.771	1	-5
680.109	1	5
680.448	1	4
680.787	1	-12
681.125	1	1
681.464	1	0
681.803	1	-7
682.142	1	13
682.480	1	12
682.819	1	1
683.158	1	-5
683.496	1	7
683.835	1	-5
684.174	1	-6
684.512	1	2
684.851	1	11
685.190	1	0
685.529	1	-2
685.867	1	1
686.206	1	-15
686.545	1	-7
686.883	1	-1
687.222	1	12
687.561	1	2
687.899	1	-11
688.238	1	5
688.577	1	-5
688.746	1	0