File: Data/GaN_200K_800ms/GaN_sample F_spot 12_UVVIS_200 K_200um_800 ms 2x2mm1_257.txt
340.368	1	8
340.710	1	-9
341.052	1	11
341.394	1	-8
341.737	1	9
342.079	1	-10
342.421	1	3
342.763	1	3
343.105	1	4
343.447	1	-8
343.789	1	-3
344.131	1	-2
344.473	1	-3
344.815	1	3
345.157	1	-14
345.499	1	-1
345.841	1	0
346.183	1	-3
346.526	1	-5
346.868	1	0
347.210	1	-8
347.552	1	-1
347.894	1	-1
348.236	1	2
348.578	1	3
348.920	1	-1
349.262	1	-6
349.604	1	5
349.946	1	-3
350.288	1	7
350.630	1	8
350.972	1	0
351.314	1	0
351.656	1	4
351.998	1	4
352.340	1	1
352.682	1	4
353.024	1	10
353.366	1	19
353.708	1	1
354.050	1	-7
354.392	1	-7
354.734	1	4
355.076	1	7
355.418	1	-8
355.760	1	0
356.102	1	5
356.444	1	4
356.785	1	9
357.127	1	3
357.469	1	9
357.811	1	4
358.153	1	5
358.495	1	3
358.837	1	-2
359.179	1	4
359.521	1	6
359.863	1	8
360.205	1	-3
360.547	1	5
360.889	1	2
361.231	1	10
361.572	1	7
361.914	1	14
362.256	1	8
362.598	1	-3
362.940	1	3
363.282	1	3
363.624	1	20
363.966	1	1
364.308	1	9
364.649	1	18
364.991	1	10
365.333	1	8
365.675	1	6
366.017	1	11
366.359	1	7
366.701	1	14
367.042	1	19
367.384	1	33
367.726	1	15
368.068	1	16
368.410	1	27
368.752	1	17
369.093	1	19
369.435	1	26
369.777	1	23
370.119	1	17
370.461	1	31
370.803	1	24
371.144	1	17
371.486	1	22
371.828	1	27
372.170	1	25
372.512	1	7
372.853	1	15
373.195	1	16
373.537	1	16
373.879	1	17
374.220	1	32
374.562	1	25
374.904	1	17
375.246	1	17
375.588	1	14
375.929	1	20
376.271	1	18
376.613	1	1
376.955	1	9
377.296	1	2
377.638	1	12
377.980	1	16
378.321	1	8
378.663	1	3
379.005	1	10
379.347	1	5
379.688	1	11
380.030	1	-2
380.372	1	-4
380.714	1	11
381.055	1	8
381.397	1	6
381.739	1	15
382.080	1	2
382.422	1	8
382.764	1	0
383.105	1	1
383.447	1	-1
383.789	1	-2
384.130	1	3
384.472	1	-8
384.814	1	8
385.156	1	-3
385.497	1	4
385.839	1	1
386.180	1	16
386.522	1	12
386.864	1	7
387.205	1	-3
387.547	1	-9
387.889	1	2
388.230	1	5
388.572	1	3
388.914	1	9
389.255	1	-5
389.597	1	9
389.939	1	-1
390.280	1	10
390.622	1	-9
390.963	1	6
391.305	1	7
391.647	1	1
391.988	1	5
392.330	1	14
392.671	1	-7
393.013	1	4
393.355	1	12
393.696	1	5
394.038	1	2
394.379	1	1
394.721	1	0
395.062	1	6
395.404	1	4
395.746	1	2
396.087	1	-7
396.429	1	6
396.770	1	-3
397.112	1	10
397.453	1	9
397.795	1	5
398.136	1	-6
398.478	1	7
398.819	1	5
399.161	1	5
399.503	1	2
399.844	1	-3
400.186	1	-2
400.527	1	0
400.869	1	-1
401.210	1	4
401.552	1	3
401.893	1	-2
402.235	1	-3
402.576	1	-1
402.918	1	12
403.259	1	-1
403.601	1	5
403.942	1	11
404.284	1	6
404.625	1	4
404.967	1	6
405.308	1	0
405.649	1	-4
405.991	1	-1
406.332	1	7
406.674	1	2
407.015	1	13
407.357	1	2
407.698	1	14
408.040	1	-8
408.381	1	4
408.722	1	-19
409.064	1	9
409.405	1	1
409.747	1	1
410.088	1	-6
410.430	1	13
410.771	1	5
411.112	1	-5
411.454	1	-3
411.795	1	2
412.137	1	3
412.478	1	7
412.819	1	0
413.161	1	-7
413.502	1	2
413.844	1	6
414.185	1	8
414.526	1	1
414.868	1	3
415.209	1	-6
415.550	1	-4
415.892	1	-1
416.233	1	6
416.575	1	17
416.916	1	-4
417.257	1	2
417.599	1	6
417.940	1	13
418.281	1	0
418.623	1	-4
418.964	1	-15
419.305	1	4
419.647	1	-1
419.988	1	0
420.329	1	-4
420.671	1	6
421.012	1	1
421.353	1	4
421.695	1	4
422.036	1	6
422.377	1	-5
422.718	1	0
423.060	1	-8
423.401	1	1
423.742	1	4
424.084	1	-2
424.425	1	9
424.766	1	3
425.107	1	-6
425.449	1	0
425.790	1	-11
426.131	1	-1
426.472	1	2
426.814	1	-3
427.155	1	-3
427.496	1	2
427.837	1	-2
428.179	1	-9
428.520	1	0
428.861	1	-4
429.202	1	4
429.544	1	1
429.885	1	3
430.226	1	-5
430.567	1	8
430.909	1	-1
431.250	1	-3
431.591	1	3
431.932	1	-1
432.273	1	3
432.615	1	-9
432.956	1	-8
433.297	1	-1
433.638	1	-1
433.979	1	1
434.320	1	3
434.662	1	-6
435.003	1	10
435.344	1	8
435.685	1	-1
436.026	1	8
436.368	1	-3
436.709	1	-1
437.050	1	-5
437.391	1	13
437.732	1	-12
438.073	1	1
438.414	1	-12
438.756	1	-4
439.097	1	-10
439.438	1	-6
439.779	1	4
440.120	1	1
440.461	1	-1
440.802	1	1
441.143	1	9
441.485	1	-2
441.826	1	-1
442.167	1	0
442.508	1	6
442.849	1	7
443.190	1	-1
443.531	1	8
443.872	1	8
444.213	1	3
444.554	1	8
444.895	1	1
445.237	1	-4
445.578	1	-12
445.919	1	-4
446.260	1	1
446.601	1	-5
446.942	1	5
447.283	1	-9
447.624	1	-5
447.965	1	6
448.306	1	-5
448.647	1	-12
448.988	1	-12
449.329	1	-5
449.670	1	6
450.011	1	4
450.352	1	-4
450.693	1	-1
451.034	1	-3
451.375	1	-3
451.716	1	6
452.057	1	-4
452.398	1	2
452.739	1	-4
453.080	1	-1
453.421	1	1
453.762	1	1
454.103	1	-2
454.444	1	-8
454.785	1	-6
455.126	1	-5
455.467	1	2
455.808	1	-2
456.149	1	4
456.490	1	-5
456.831	1	0
457.172	1	3
457.513	1	-1
457.854	1	2
458.195	1	-2
458.536	1	11
458.877	1	-2
459.218	1	-2
459.559	1	3
459.899	1	6
460.240	1	2
460.581	1	12
460.922	1	9
461.263	1	-4
461.604	1	-1
461.945	1	1
462.286	1	0
462.627	1	1
462.968	1	9
463.309	1	-5
463.649	1	6
463.990	1	-10
464.331	1	-5
464.672	1	-1
465.013	1	-1
465.354	1	6
465.695	1	-4
466.036	1	-5
466.376	1	-7
466.717	1	0
467.058	1	3
467.399	1	4
467.740	1	-3
468.081	1	4
468.422	1	-6
468.762	1	-9
469.103	1	-5
469.444	1	-4
469.785	1	-16
470.126	1	-6
470.467	1	0
470.807	1	-4
471.148	1	6
471.489	1	-3
471.830	1	7
472.171	1	3
472.511	1	-4
472.852	1	1
473.193	1	1
473.534	1	8
473.875	1	6
474.215	1	5
474.556	1	2
474.897	1	1
475.238	1	3
475.578	1	-3
475.919	1	-9
476.260	1	0
476.601	1	0
476.942	1	7
477.282	1	-9
477.623	1	-9
477.964	1	0
478.305	1	0
478.645	1	6
478.986	1	4
479.327	1	-9
479.667	1	3
480.008	1	-4
480.349	1	1
480.690	1	4
481.030	1	-7
481.371	1	5
481.712	1	-5
482.053	1	5
482.393	1	-5
482.734	1	-5
483.075	1	-5
483.415	1	-5
483.756	1	4
484.097	1	2
484.437	1	4
484.778	1	12
485.119	1	-12
485.459	1	14
485.800	1	-2
486.141	1	-1
486.481	1	-3
486.822	1	8
487.163	1	-2
487.503	1	-4
487.844	1	-5
488.185	1	-1
488.525	1	0
488.866	1	5
489.207	1	-5
489.547	1	0
489.888	1	-6
490.228	1	3
490.569	1	10
490.910	1	0
491.250	1	-11
491.591	1	4
491.932	1	-1
492.272	1	-1
492.613	1	-9
492.953	1	3
493.294	1	-10
493.635	1	3
493.975	1	0
494.316	1	5
494.656	1	-6
494.997	1	-2
495.337	1	1
495.678	1	8
496.019	1	0
496.359	1	-10
496.700	1	5
497.040	1	-1
497.381	1	-10
497.721	1	-1
498.062	1	-4
498.403	1	1
498.743	1	-3
499.084	1	2
499.424	1	2
499.765	1	-9
500.105	1	-1
500.446	1	-10
500.786	1	-2
501.127	1	3
501.467	1	-8
501.808	1	-1
502.148	1	8
502.489	1	9
502.829	1	-2
503.170	1	8
503.510	1	1
503.851	1	-4
504.191	1	0
504.532	1	12
504.872	1	1
505.213	1	11
505.553	1	-14
505.894	1	-2
506.234	1	1
506.575	1	7
506.915	1	1
507.256	1	-1
507.596	1	9
507.936	1	-3
508.277	1	4
508.617	1	6
508.958	1	-9
509.298	1	7
509.639	1	-8
509.979	1	-6
510.319	1	2
510.660	1	1
511.000	1	-2
511.341	1	2
511.681	1	10
512.022	1	-8
512.362	1	1
512.702	1	-5
513.043	1	9
513.383	1	-3
513.724	1	-3
514.064	1	3
514.404	1	-9
514.745	1	-10
515.085	1	-4
515.425	1	-7
515.766	1	-6
516.106	1	9
516.447	1	14
516.787	1	7
517.127	1	3
517.468	1	2
517.808	1	3
518.148	1	-1
518.489	1	1
518.829	1	4
519.169	1	-2
519.510	1	-5
519.850	1	8
520.190	1	-2
520.531	1	0
520.871	1	2
521.211	1	-14
521.552	1	8
521.892	1	6
522.232	1	-1
522.573	1	1
522.913	1	1
523.253	1	-4
523.593	1	1
523.934	1	-2
524.274	1	2
524.614	1	-3
524.955	1	-4
525.295	1	6
525.635	1	-7
525.975	1	-5
526.316	1	14
526.656	1	3
526.996	1	5
527.337	1	-6
527.677	1	5
528.017	1	-4
528.357	1	0
528.698	1	-3
529.038	1	7
529.378	1	10
529.718	1	5
530.058	1	2
530.399	1	4
530.739	1	-1
531.079	1	4
531.419	1	3
531.760	1	4
532.100	1	2
532.440	1	3
532.780	1	-2
533.120	1	11
533.461	1	1
533.801	1	12
534.141	1	-10
534.481	1	-7
534.821	1	5
535.162	1	9
535.502	1	-6
535.842	1	6
536.182	1	1
536.522	1	-1
536.862	1	1
537.203	1	-2
537.543	1	-2
537.883	1	-3
538.223	1	-1
538.563	1	5
538.903	1	-4
539.243	1	0
539.584	1	0
539.924	1	3
540.264	1	-3
540.604	1	3
540.944	1	-10
541.284	1	2
541.624	1	10
541.964	1	10
542.305	1	11
542.645	1	4
542.985	1	7
543.325	1	2
543.665	1	15
544.005	1	13
544.345	1	7
544.685	1	-7
545.025	1	3
545.365	1	1
545.705	1	-5
546.045	1	0
546.386	1	3
546.726	1	-10
547.066	1	-2
547.406	1	13
547.746	1	-12
548.086	1	1
548.426	1	-2
548.766	1	5
549.106	1	1
549.446	1	1
549.786	1	0
550.126	1	9
550.466	1	3
550.806	1	8
551.146	1	-6
551.486	1	1
551.826	1	2
552.166	1	0
552.506	1	9
552.846	1	7
553.186	1	6
553.526	1	0
553.866	1	0
554.206	1	7
554.546	1	3
554.886	1	3
555.226	1	-1
555.566	1	4
555.906	1	4
556.246	1	-1
556.586	1	1
556.926	1	2
557.266	1	-9
557.606	1	6
557.946	1	19
558.286	1	-4
558.626	1	7
558.966	1	-2
559.306	1	-3
559.646	1	-3
559.986	1	0
560.325	1	-3
560.665	1	-3
561.005	1	-4
561.345	1	-1
561.685	1	7
562.025	1	4
562.365	1	7
562.705	1	-3
563.045	1	-3
563.385	1	-4
563.725	1	3
564.064	1	3
564.404	1	-2
564.744	1	3
565.084	1	-2
565.424	1	0
565.764	1	5
566.104	1	2
566.444	1	-6
566.783	1	-10
567.123	1	12
567.463	1	-1
567.803	1	-3
568.143	1	-5
568.483	1	10
568.823	1	-1
569.162	1	6
569.502	1	-5
569.842	1	2
570.182	1	1
570.522	1	-5
570.862	1	5
571.201	1	1
571.541	1	5
571.881	1	12
572.221	1	-5
572.561	1	-5
572.900	1	0
573.240	1	-2
573.580	1	3
573.920	1	5
574.260	1	8
574.599	1	6
574.939	1	6
575.279	1	5
575.619	1	5
575.959	1	-5
576.298	1	10
576.638	1	5
576.978	1	12
577.318	1	4
577.657	1	-11
577.997	1	-7
578.337	1	13
578.677	1	1
579.016	1	16
579.356	1	-5
579.696	1	2
580.036	1	6
580.375	1	7
580.715	1	-7
581.055	1	2
581.394	1	7
581.734	1	-11
582.074	1	3
582.414	1	3
582.753	1	-6
583.093	1	6
583.433	1	4
583.772	1	4
584.112	1	-2
584.452	1	13
584.791	1	-1
585.131	1	7
585.471	1	2
585.811	1	-2
586.150	1	-6
586.490	1	0
586.830	1	0
587.169	1	5
587.509	1	0
587.849	1	5
588.188	1	7
588.528	1	3
588.867	1	-1
589.207	1	-3
589.547	1	8
589.886	1	0
590.226	1	3
590.566	1	2
590.905	1	-11
591.245	1	0
591.585	1	4
591.924	1	-3
592.264	1	4
592.603	1	8
592.943	1	6
593.283	1	3
593.622	1	-4
593.962	1	2
594.301	1	7
594.641	1	-1
594.981	1	-7
595.320	1	3
595.660	1	3
595.999	1	-5
596.339	1	9
596.678	1	-8
597.018	1	-5
597.358	1	7
597.697	1	0
598.037	1	-3
598.376	1	-2
598.716	1	8
599.055	1	7
599.395	1	-2
599.734	1	5
600.074	1	4
600.413	1	3
600.753	1	13
601.092	1	10
601.432	1	-5
601.771	1	4
602.111	1	8
602.451	1	12
602.790	1	5
603.130	1	7
603.469	1	6
603.809	1	2
604.148	1	-3
604.487	1	4
604.827	1	1
605.166	1	7
605.506	1	2
605.845	1	5
606.185	1	4
606.524	1	-2
606.864	1	-1
607.203	1	4
607.543	1	-2
607.882	1	-3
608.222	1	3
608.561	1	5
608.901	1	9
609.240	1	-8
609.579	1	3
609.919	1	8
610.258	1	7
610.598	1	3
610.937	1	-1
611.277	1	-4
611.616	1	8
611.955	1	1
612.295	1	-6
612.634	1	-6
612.974	1	-5
613.313	1	10
613.652	1	8
613.992	1	2
614.331	1	3
614.671	1	5
615.010	1	-3
615.349	1	-1
615.689	1	7
616.028	1	2
616.368	1	10
616.707	1	-4
617.046	1	-4
617.386	1	-4
617.725	1	1
618.064	1	-5
618.404	1	-3
618.743	1	2
619.082	1	7
619.422	1	-5
619.761	1	5
620.100	1	1
620.440	1	4
620.779	1	-3
621.118	1	2
621.458	1	5
621.797	1	-3
622.136	1	15
622.476	1	-4
622.815	1	6
623.154	1	12
623.494	1	9
623.833	1	-2
624.172	1	-2
624.511	1	1
624.851	1	-6
625.190	1	-5
625.529	1	1
625.869	1	10
626.208	1	-3
626.547	1	6
626.886	1	3
627.226	1	8
627.565	1	8
627.904	1	4
628.243	1	7
628.583	1	8
628.922	1	6
629.261	1	1
629.600	1	8
629.940	1	8
630.279	1	-6
630.618	1	2
630.957	1	5
631.297	1	3
631.636	1	-12
631.975	1	14
632.314	1	-7
632.653	1	-6
632.993	1	-8
633.332	1	-4
633.671	1	-2
634.010	1	-13
634.349	1	5
634.689	1	-3
635.028	1	10
635.367	1	3
635.706	1	7
636.045	1	10
636.384	1	-1
636.724	1	7
637.063	1	0
637.402	1	8
637.741	1	6
638.080	1	2
638.419	1	0
638.759	1	0
639.098	1	11
639.437	1	2
639.776	1	5
640.115	1	4
640.454	1	-11
640.793	1	12
641.132	1	5
641.472	1	12
641.811	1	-2
642.150	1	-6
642.489	1	11
642.828	1	-1
643.167	1	-2
643.506	1	2
643.845	1	6
644.184	1	7
644.524	1	-3
644.863	1	-3
645.202	1	3
645.541	1	0
645.880	1	2
646.219	1	7
646.558	1	6
646.897	1	-3
647.236	1	1
647.575	1	-1
647.914	1	0
648.253	1	6
648.592	1	-2
648.931	1	14
649.270	1	-3
649.610	1	7
649.949	1	-12
650.288	1	0
650.627	1	-2
650.966	1	6
651.305	1	2
651.644	1	15
651.983	1	0
652.322	1	-8
652.661	1	-5
653.000	1	-1
653.339	1	8
653.678	1	0
654.017	1	-5
654.356	1	-4
654.695	1	14
655.034	1	1
655.373	1	7
655.712	1	0
656.051	1	-2
656.390	1	-5
656.729	1	8
657.068	1	7
657.406	1	12
657.745	1	-2
658.084	1	1
658.423	1	6
658.762	1	-11
659.101	1	-5
659.440	1	-3
659.779	1	0
660.118	1	1
660.457	1	6
660.796	1	-6
661.135	1	-9
661.474	1	-4
661.813	1	5
662.152	1	-1
662.491	1	-1
662.829	1	-5
663.168	1	4
663.507	1	6
663.846	1	-7
664.185	1	-3
664.524	1	1
664.863	1	2
665.202	1	3
665.541	1	-11
665.879	1	-6
666.218	1	1
666.557	1	-2
666.896	1	0
667.235	1	3
667.574	1	-1
667.913	1	6
668.251	1	-9
668.590	1	-2
668.929	1	-10
669.268	1	2
669.607	1	2
669.946	1	-2
670.285	1	6
670.623	1	-1
670.962	1	1
671.301	1	0
671.640	1	7
671.979	1	-1
672.317	1	-1
672.656	1	1
672.995	1	1
673.334	1	-4
673.673	1	-2
674.011	1	-5
674.350	1	1
674.689	1	4
675.028	1	-2
675.367	1	9
675.705	1	0
676.044	1	9
676.383	1	-2
676.722	1	2
677.060	1	-2
677.399	1	-4
677.738	1	1
678.077	1	7
678.416	1	2
678.754	1	-2
679.093	1	0
679.432	1	5
679.771	1	-4
680.109	1	10
680.448	1	4
680.787	1	-5
681.125	1	-1
681.464	1	-6
681.803	1	4
682.142	1	9
682.480	1	10
682.819	1	4
683.158	1	-5
683.496	1	3
683.835	1	8
684.174	1	2
684.512	1	7
684.851	1	2
685.190	1	-1
685.529	1	-7
685.867	1	5
686.206	1	-9
686.545	1	-8
686.883	1	-1
687.222	1	11
687.561	1	7
687.899	1	5
688.238	1	6
688.577	1	-3
688.746	1	-5