File: Data/GaN_200K_800ms/GaN_sample F_spot 12_UVVIS_200 K_200um_800 ms 2x2mm1_477.txt
340.368	1	1
340.710	1	-15
341.052	1	1
341.394	1	-8
341.737	1	-3
342.079	1	-8
342.421	1	-3
342.763	1	0
343.105	1	1
343.447	1	-8
343.789	1	3
344.131	1	1
344.473	1	-5
344.815	1	-4
345.157	1	-2
345.499	1	1
345.841	1	6
346.183	1	-6
346.526	1	-8
346.868	1	3
347.210	1	-10
347.552	1	-6
347.894	1	-7
348.236	1	7
348.578	1	-2
348.920	1	-3
349.262	1	-6
349.604	1	4
349.946	1	1
350.288	1	2
350.630	1	-2
350.972	1	-5
351.314	1	3
351.656	1	-3
351.998	1	7
352.340	1	-5
352.682	1	2
353.024	1	-3
353.366	1	0
353.708	1	-7
354.050	1	-8
354.392	1	-3
354.734	1	3
355.076	1	1
355.418	1	-14
355.760	1	-1
356.102	1	11
356.444	1	0
356.785	1	7
357.127	1	-4
357.469	1	2
357.811	1	-2
358.153	1	4
358.495	1	0
358.837	1	-14
359.179	1	10
359.521	1	1
359.863	1	7
360.205	1	0
360.547	1	4
360.889	1	-10
361.231	1	4
361.572	1	7
361.914	1	11
362.256	1	0
362.598	1	-4
362.940	1	-2
363.282	1	7
363.624	1	7
363.966	1	0
364.308	1	1
364.649	1	1
364.991	1	3
365.333	1	8
365.675	1	1
366.017	1	4
366.359	1	5
366.701	1	9
367.042	1	8
367.384	1	7
367.726	1	13
368.068	1	10
368.410	1	10
368.752	1	4
369.093	1	11
369.435	1	15
369.777	1	-1
370.119	1	2
370.461	1	19
370.803	1	11
371.144	1	-1
371.486	1	11
371.828	1	11
372.170	1	11
372.512	1	2
372.853	1	-4
373.195	1	0
373.537	1	1
373.879	1	-2
374.220	1	19
374.562	1	11
374.904	1	3
375.246	1	5
375.588	1	3
375.929	1	12
376.271	1	8
376.613	1	-5
376.955	1	-3
377.296	1	-4
377.638	1	7
377.980	1	3
378.321	1	-13
378.663	1	0
379.005	1	6
379.347	1	1
379.688	1	-1
380.030	1	-2
380.372	1	3
380.714	1	9
381.055	1	10
381.397	1	-3
381.739	1	2
382.080	1	2
382.422	1	0
382.764	1	1
383.105	1	-4
383.447	1	-1
383.789	1	-12
384.130	1	-3
384.472	1	-7
384.814	1	-6
385.156	1	4
385.497	1	0
385.839	1	7
386.180	1	0
386.522	1	2
386.864	1	9
387.205	1	-2
387.547	1	-1
387.889	1	4
388.230	1	9
388.572	1	2
388.914	1	-3
389.255	1	-5
389.597	1	-1
389.939	1	3
390.280	1	5
390.622	1	-9
390.963	1	8
391.305	1	3
391.647	1	-2
391.988	1	3
392.330	1	-4
392.671	1	-10
393.013	1	1
393.355	1	10
393.696	1	7
394.038	1	2
394.379	1	4
394.721	1	-4
395.062	1	-4
395.404	1	-6
395.746	1	8
396.087	1	0
396.429	1	4
396.770	1	0
397.112	1	6
397.453	1	13
397.795	1	8
398.136	1	-3
398.478	1	0
398.819	1	3
399.161	1	-2
399.503	1	3
399.844	1	-4
400.186	1	5
400.527	1	-5
400.869	1	-3
401.210	1	7
401.552	1	-12
401.893	1	-3
402.235	1	2
402.576	1	-6
402.918	1	8
403.259	1	7
403.601	1	-7
403.942	1	9
404.284	1	6
404.625	1	4
404.967	1	1
405.308	1	-11
405.649	1	-9
405.991	1	-8
406.332	1	1
406.674	1	-6
407.015	1	-1
407.357	1	9
407.698	1	9
408.040	1	-5
408.381	1	3
408.722	1	-14
409.064	1	0
409.405	1	8
409.747	1	-1
410.088	1	-9
410.430	1	8
410.771	1	6
411.112	1	-6
411.454	1	-10
411.795	1	-16
412.137	1	1
412.478	1	18
412.819	1	-8
413.161	1	-10
413.502	1	-7
413.844	1	5
414.185	1	-3
414.526	1	0
414.868	1	-4
415.209	1	-8
415.550	1	-11
415.892	1	0
416.233	1	-5
416.575	1	14
416.916	1	-3
417.257	1	-2
417.599	1	6
417.940	1	8
418.281	1	1
418.623	1	-2
418.964	1	-21
419.305	1	5
419.647	1	-3
419.988	1	-1
420.329	1	-12
420.671	1	11
421.012	1	1
421.353	1	-6
421.695	1	-6
422.036	1	-1
422.377	1	-7
422.718	1	11
423.060	1	-17
423.401	1	-2
423.742	1	0
424.084	1	3
424.425	1	-1
424.766	1	-3
425.107	1	-11
425.449	1	2
425.790	1	-14
426.131	1	-2
426.472	1	-3
426.814	1	-2
427.155	1	-2
427.496	1	-4
427.837	1	-10
428.179	1	-8
428.520	1	-3
428.861	1	1
429.202	1	3
429.544	1	0
429.885	1	3
430.226	1	-9
430.567	1	-7
430.909	1	-1
431.250	1	-4
431.591	1	0
431.932	1	-7
432.273	1	-5
432.615	1	-8
432.956	1	-2
433.297	1	-2
433.638	1	-3
433.979	1	5
434.320	1	-2
434.662	1	1
435.003	1	4
435.344	1	1
435.685	1	0
436.026	1	10
436.368	1	0
436.709	1	3
437.050	1	-2
437.391	1	10
437.732	1	-9
438.073	1	-1
438.414	1	-9
438.756	1	-8
439.097	1	0
439.438	1	-7
439.779	1	1
440.120	1	-6
440.461	1	2
440.802	1	0
441.143	1	5
441.485	1	6
441.826	1	-6
442.167	1	1
442.508	1	-8
442.849	1	11
443.190	1	-2
443.531	1	2
443.872	1	13
444.213	1	1
444.554	1	11
444.895	1	-4
445.237	1	-5
445.578	1	-10
445.919	1	2
446.260	1	-7
446.601	1	-1
446.942	1	2
447.283	1	-6
447.624	1	0
447.965	1	-4
448.306	1	-8
448.647	1	-4
448.988	1	-3
449.329	1	-6
449.670	1	5
450.011	1	-1
450.352	1	-7
450.693	1	-2
451.034	1	-10
451.375	1	-3
451.716	1	-5
452.057	1	3
452.398	1	-3
452.739	1	-8
453.080	1	3
453.421	1	1
453.762	1	6
454.103	1	-11
454.444	1	-17
454.785	1	-10
455.126	1	-10
455.467	1	-7
455.808	1	-7
456.149	1	-3
456.490	1	-1
456.831	1	3
457.172	1	-3
457.513	1	9
457.854	1	-7
458.195	1	-6
458.536	1	8
458.877	1	8
459.218	1	4
459.559	1	-3
459.899	1	-3
460.240	1	2
460.581	1	8
460.922	1	0
461.263	1	-10
461.604	1	-4
461.945	1	-8
462.286	1	-1
462.627	1	14
462.968	1	2
463.309	1	-6
463.649	1	0
463.990	1	5
464.331	1	0
464.672	1	-1
465.013	1	-2
465.354	1	2
465.695	1	-12
466.036	1	-3
466.376	1	-5
466.717	1	-1
467.058	1	0
467.399	1	-2
467.740	1	-6
468.081	1	-5
468.422	1	-4
468.762	1	-14
469.103	1	-8
469.444	1	-8
469.785	1	-16
470.126	1	-12
470.467	1	-13
470.807	1	9
471.148	1	6
471.489	1	0
471.830	1	-3
472.171	1	2
472.511	1	-11
472.852	1	-2
473.193	1	4
473.534	1	7
473.875	1	7
474.215	1	3
474.556	1	-1
474.897	1	3
475.238	1	-4
475.578	1	-14
475.919	1	4
476.260	1	-10
476.601	1	2
476.942	1	9
477.282	1	-1
477.623	1	-17
477.964	1	3
478.305	1	3
478.645	1	14
478.986	1	3
479.327	1	-7
479.667	1	-1
480.008	1	0
480.349	1	1
480.690	1	-1
481.030	1	-8
481.371	1	11
481.712	1	5
482.053	1	5
482.393	1	-2
482.734	1	-13
483.075	1	-4
483.415	1	2
483.756	1	12
484.097	1	3
484.437	1	0
484.778	1	-1
485.119	1	1
485.459	1	2
485.800	1	-12
486.141	1	3
486.481	1	6
486.822	1	10
487.163	1	-2
487.503	1	0
487.844	1	0
488.185	1	1
488.525	1	2
488.866	1	1
489.207	1	-4
489.547	1	-4
489.888	1	1
490.228	1	7
490.569	1	4
490.910	1	-4
491.250	1	-3
491.591	1	0
491.932	1	-12
492.272	1	1
492.613	1	-10
492.953	1	-3
493.294	1	-7
493.635	1	-1
493.975	1	-3
494.316	1	8
494.656	1	1
494.997	1	6
495.337	1	6
495.678	1	-1
496.019	1	-9
496.359	1	-10
496.700	1	2
497.040	1	-6
497.381	1	-2
497.721	1	-10
498.062	1	-3
498.403	1	-5
498.743	1	3
499.084	1	4
499.424	1	1
499.765	1	4
500.105	1	-6
500.446	1	-3
500.786	1	-6
501.127	1	-1
501.467	1	-8
501.808	1	3
502.148	1	-3
502.489	1	2
502.829	1	1
503.170	1	12
503.510	1	2
503.851	1	8
504.191	1	7
504.532	1	-1
504.872	1	-3
505.213	1	6
505.553	1	-7
505.894	1	-4
506.234	1	11
506.575	1	7
506.915	1	7
507.256	1	2
507.596	1	-1
507.936	1	2
508.277	1	-4
508.617	1	-2
508.958	1	-3
509.298	1	-2
509.639	1	-6
509.979	1	-7
510.319	1	6
510.660	1	-3
511.000	1	-10
511.341	1	-5
511.681	1	1
512.022	1	-10
512.362	1	-8
512.702	1	-6
513.043	1	11
513.383	1	-10
513.724	1	-2
514.064	1	7
514.404	1	0
514.745	1	4
515.085	1	-1
515.425	1	-3
515.766	1	-2
516.106	1	-3
516.447	1	8
516.787	1	6
517.127	1	-2
517.468	1	6
517.808	1	-1
518.148	1	-1
518.489	1	6
518.829	1	12
519.169	1	2
519.510	1	2
519.850	1	5
520.190	1	-5
520.531	1	5
520.871	1	5
521.211	1	-12
521.552	1	-1
521.892	1	4
522.232	1	7
522.573	1	-2
522.913	1	4
523.253	1	-4
523.593	1	-4
523.934	1	4
524.274	1	-5
524.614	1	7
524.955	1	-12
525.295	1	4
525.635	1	5
525.975	1	2
526.316	1	15
526.656	1	2
526.996	1	8
527.337	1	-6
527.677	1	4
528.017	1	-2
528.357	1	-1
528.698	1	1
529.038	1	1
529.378	1	9
529.718	1	4
530.058	1	-2
530.399	1	6
530.739	1	3
531.079	1	3
531.419	1	1
531.760	1	8
532.100	1	0
532.440	1	-2
532.780	1	-7
533.120	1	2
533.461	1	1
533.801	1	14
534.141	1	-2
534.481	1	-14
534.821	1	-1
535.162	1	4
535.502	1	0
535.842	1	10
536.182	1	-5
536.522	1	-7
536.862	1	5
537.203	1	-9
537.543	1	-8
537.883	1	-9
538.223	1	6
538.563	1	3
538.903	1	-4
539.243	1	-2
539.584	1	-2
539.924	1	4
540.264	1	-2
540.604	1	-1
540.944	1	-7
541.284	1	4
541.624	1	3
541.964	1	15
542.305	1	10
542.645	1	4
542.985	1	7
543.325	1	0
543.665	1	7
544.005	1	-2
544.345	1	6
544.685	1	3
545.025	1	2
545.365	1	-5
545.705	1	2
546.045	1	-2
546.386	1	-8
546.726	1	-8
547.066	1	1
547.406	1	2
547.746	1	-13
548.086	1	0
548.426	1	-4
548.766	1	-3
549.106	1	-4
549.446	1	-6
549.786	1	-7
550.126	1	11
550.466	1	15
550.806	1	-4
551.146	1	-5
551.486	1	-12
551.826	1	-3
552.166	1	3
552.506	1	20
552.846	1	1
553.186	1	3
553.526	1	5
553.866	1	-2
554.206	1	4
554.546	1	9
554.886	1	7
555.226	1	-1
555.566	1	5
555.906	1	5
556.246	1	0
556.586	1	-4
556.926	1	4
557.266	1	-12
557.606	1	7
557.946	1	2
558.286	1	3
558.626	1	1
558.966	1	-5
559.306	1	-8
559.646	1	-13
559.986	1	-5
560.325	1	-14
560.665	1	6
561.005	1	-3
561.345	1	-1
561.685	1	-5
562.025	1	-2
562.365	1	-1
562.705	1	-6
563.045	1	-4
563.385	1	-9
563.725	1	-6
564.064	1	-4
564.404	1	1
564.744	1	0
565.084	1	-4
565.424	1	-3
565.764	1	2
566.104	1	-1
566.444	1	-8
566.783	1	-13
567.123	1	-3
567.463	1	7
567.803	1	-6
568.143	1	-7
568.483	1	6
568.823	1	-4
569.162	1	5
569.502	1	-5
569.842	1	3
570.182	1	-5
570.522	1	-8
570.862	1	-1
571.201	1	7
571.541	1	-5
571.881	1	2
572.221	1	-11
572.561	1	-4
572.900	1	-3
573.240	1	1
573.580	1	-5
573.920	1	4
574.260	1	9
574.599	1	-4
574.939	1	3
575.279	1	5
575.619	1	7
575.959	1	-11
576.298	1	10
576.638	1	-7
576.978	1	4
577.318	1	2
577.657	1	-3
577.997	1	-8
578.337	1	13
578.677	1	1
579.016	1	11
579.356	1	-2
579.696	1	9
580.036	1	-5
580.375	1	8
580.715	1	-2
581.055	1	-6
581.394	1	-1
581.734	1	-7
582.074	1	-2
582.414	1	3
582.753	1	0
583.093	1	-1
583.433	1	-5
583.772	1	-4
584.112	1	-8
584.452	1	1
584.791	1	0
585.131	1	9
585.471	1	4
585.811	1	6
586.150	1	-5
586.490	1	6
586.830	1	-2
587.169	1	1
587.509	1	-8
587.849	1	7
588.188	1	3
588.528	1	-1
588.867	1	2
589.207	1	-2
589.547	1	3
589.886	1	-3
590.226	1	1
590.566	1	-1
590.905	1	-2
591.245	1	-1
591.585	1	3
591.924	1	-10
592.264	1	-2
592.603	1	4
592.943	1	6
593.283	1	6
593.622	1	-4
593.962	1	-4
594.301	1	5
594.641	1	-2
594.981	1	-4
595.320	1	1
595.660	1	-1
595.999	1	0
596.339	1	-5
596.678	1	-9
597.018	1	-3
597.358	1	2
597.697	1	3
598.037	1	-5
598.376	1	3
598.716	1	7
599.055	1	4
599.395	1	-1
599.734	1	2
600.074	1	-1
600.413	1	8
600.753	1	5
601.092	1	7
601.432	1	-7
601.771	1	3
602.111	1	4
602.451	1	7
602.790	1	-8
603.130	1	0
603.469	1	-13
603.809	1	-8
604.148	1	-4
604.487	1	-2
604.827	1	5
605.166	1	12
605.506	1	-4
605.845	1	2
606.185	1	9
606.524	1	0
606.864	1	5
607.203	1	-4
607.543	1	-3
607.882	1	-2
608.222	1	0
608.561	1	0
608.901	1	-1
609.240	1	-2
609.579	1	8
609.919	1	2
610.258	1	10
610.598	1	-6
610.937	1	3
611.277	1	-4
611.616	1	-7
611.955	1	-7
612.295	1	-5
612.634	1	-6
612.974	1	-14
613.313	1	9
613.652	1	-8
613.992	1	-9
614.331	1	2
614.671	1	0
615.010	1	-10
615.349	1	8
615.689	1	9
616.028	1	-5
616.368	1	2
616.707	1	4
617.046	1	1
617.386	1	3
617.725	1	1
618.064	1	-4
618.404	1	-10
618.743	1	5
619.082	1	-8
619.422	1	-8
619.761	1	1
620.100	1	5
620.440	1	0
620.779	1	-4
621.118	1	-7
621.458	1	9
621.797	1	2
622.136	1	12
622.476	1	7
622.815	1	0
623.154	1	-1
623.494	1	7
623.833	1	10
624.172	1	-8
624.511	1	-7
624.851	1	-5
625.190	1	-3
625.529	1	-1
625.869	1	5
626.208	1	-4
626.547	1	2
626.886	1	-1
627.226	1	3
627.565	1	3
627.904	1	-3
628.243	1	6
628.583	1	2
628.922	1	7
629.261	1	3
629.600	1	7
629.940	1	1
630.279	1	-14
630.618	1	-6
630.957	1	1
631.297	1	-1
631.636	1	-11
631.975	1	7
632.314	1	-3
632.653	1	-4
632.993	1	-7
633.332	1	-6
633.671	1	-3
634.010	1	-8
634.349	1	-1
634.689	1	-4
635.028	1	5
635.367	1	-1
635.706	1	-6
636.045	1	8
636.384	1	3
636.724	1	-1
637.063	1	-10
637.402	1	5
637.741	1	1
638.080	1	-3
638.419	1	-7
638.759	1	-6
639.098	1	6
639.437	1	-2
639.776	1	-8
640.115	1	2
640.454	1	-5
640.793	1	11
641.132	1	1
641.472	1	4
641.811	1	-5
642.150	1	-8
642.489	1	3
642.828	1	-14
643.167	1	-2
643.506	1	-15
643.845	1	-2
644.184	1	-5
644.524	1	-6
644.863	1	-13
645.202	1	1
645.541	1	4
645.880	1	-4
646.219	1	2
646.558	1	4
646.897	1	0
647.236	1	4
647.575	1	-7
647.914	1	-4
648.253	1	12
648.592	1	-3
648.931	1	6
649.270	1	0
649.610	1	-4
649.949	1	-4
650.288	1	-9
650.627	1	-2
650.966	1	3
651.305	1	7
651.644	1	14
651.983	1	-7
652.322	1	2
652.661	1	-5
653.000	1	-5
653.339	1	6
653.678	1	-3
654.017	1	-1
654.356	1	-9
654.695	1	5
655.034	1	3
655.373	1	5
655.712	1	-1
656.051	1	-3
656.390	1	-4
656.729	1	6
657.068	1	-7
657.406	1	10
657.745	1	-7
658.084	1	3
658.423	1	5
658.762	1	-5
659.101	1	11
659.440	1	-5
659.779	1	2
660.118	1	7
660.457	1	0
660.796	1	-6
661.135	1	-6
661.474	1	-1
661.813	1	18
662.152	1	5
662.491	1	-11
662.829	1	-6
663.168	1	8
663.507	1	1
663.846	1	-4
664.185	1	2
664.524	1	0
664.863	1	-8
665.202	1	-3
665.541	1	2
665.879	1	-3
666.218	1	-13
666.557	1	-5
666.896	1	-6
667.235	1	3
667.574	1	-3
667.913	1	-6
668.251	1	-5
668.590	1	0
668.929	1	-11
669.268	1	-4
669.607	1	4
669.946	1	-7
670.285	1	1
670.623	1	3
670.962	1	1
671.301	1	-2
671.640	1	6
671.979	1	-8
672.317	1	8
672.656	1	-1
672.995	1	4
673.334	1	-6
673.673	1	4
674.011	1	6
674.350	1	1
674.689	1	3
675.028	1	1
675.367	1	1
675.705	1	6
676.044	1	-3
676.383	1	-5
676.722	1	-2
677.060	1	-11
677.399	1	-8
677.738	1	-8
678.077	1	-1
678.416	1	1
678.754	1	-5
679.093	1	5
679.432	1	-2
679.771	1	-4
680.109	1	7
680.448	1	-4
680.787	1	-4
681.125	1	1
681.464	1	-2
681.803	1	-3
682.142	1	11
682.480	1	8
682.819	1	-13
683.158	1	-1
683.496	1	-4
683.835	1	-2
684.174	1	5
684.512	1	9
684.851	1	3
685.190	1	-2
685.529	1	-11
685.867	1	2
686.206	1	2
686.545	1	-5
686.883	1	0
687.222	1	9
687.561	1	7
687.899	1	0
688.238	1	4
688.577	1	3
688.746	1	-7