File: Data/GaN_200K_800ms/GaN_sample F_spot 12_UVVIS_200 K_200um_800 ms 2x2mm1_40.txt
340.368	1	2
340.710	1	-5
341.052	1	8
341.394	1	0
341.737	1	12
342.079	1	-1
342.421	1	4
342.763	1	11
343.105	1	2
343.447	1	1
343.789	1	10
344.131	1	1
344.473	1	-3
344.815	1	5
345.157	1	10
345.499	1	7
345.841	1	15
346.183	1	7
346.526	1	4
346.868	1	8
347.210	1	1
347.552	1	4
347.894	1	12
348.236	1	12
348.578	1	14
348.920	1	8
349.262	1	10
349.604	1	16
349.946	1	6
350.288	1	19
350.630	1	7
350.972	1	11
351.314	1	12
351.656	1	12
351.998	1	15
352.340	1	25
352.682	1	23
353.024	1	22
353.366	1	34
353.708	1	26
354.050	1	31
354.392	1	32
354.734	1	34
355.076	1	25
355.418	1	32
355.760	1	33
356.102	1	51
356.444	1	42
356.785	1	56
357.127	1	47
357.469	1	50
357.811	1	66
358.153	1	68
358.495	1	63
358.837	1	74
359.179	1	84
359.521	1	92
359.863	1	89
360.205	1	88
360.547	1	114
360.889	1	118
361.231	1	128
361.572	1	164
361.914	1	184
362.256	1	207
362.598	1	222
362.940	1	256
363.282	1	283
363.624	1	322
363.966	1	372
364.308	1	421
364.649	1	475
364.991	1	537
365.333	1	597
365.675	1	667
366.017	1	752
366.359	1	850
366.701	1	934
367.042	1	1054
367.384	1	1118
367.726	1	1249
368.068	1	1297
368.410	1	1397
368.752	1	1463
369.093	1	1513
369.435	1	1562
369.777	1	1544
370.119	1	1542
370.461	1	1530
370.803	1	1441
371.144	1	1375
371.486	1	1372
371.828	1	1277
372.170	1	1190
372.512	1	1090
372.853	1	1062
373.195	1	972
373.537	1	904
373.879	1	884
374.220	1	808
374.562	1	797
374.904	1	747
375.246	1	690
375.588	1	655
375.929	1	634
376.271	1	598
376.613	1	557
376.955	1	513
377.296	1	490
377.638	1	451
377.980	1	424
378.321	1	415
378.663	1	396
379.005	1	379
379.347	1	341
379.688	1	333
380.030	1	313
380.372	1	289
380.714	1	285
381.055	1	259
381.397	1	237
381.739	1	236
382.080	1	227
382.422	1	214
382.764	1	194
383.105	1	187
383.447	1	192
383.789	1	187
384.130	1	171
384.472	1	169
384.814	1	172
385.156	1	158
385.497	1	160
385.839	1	148
386.180	1	138
386.522	1	147
386.864	1	142
387.205	1	115
387.547	1	111
387.889	1	106
388.230	1	114
388.572	1	98
388.914	1	94
389.255	1	95
389.597	1	91
389.939	1	87
390.280	1	83
390.622	1	85
390.963	1	85
391.305	1	83
391.647	1	78
391.988	1	83
392.330	1	70
392.671	1	70
393.013	1	60
393.355	1	68
393.696	1	62
394.038	1	57
394.379	1	57
394.721	1	46
395.062	1	59
395.404	1	50
395.746	1	61
396.087	1	52
396.429	1	55
396.770	1	39
397.112	1	40
397.453	1	49
397.795	1	50
398.136	1	43
398.478	1	48
398.819	1	45
399.161	1	49
399.503	1	45
399.844	1	43
400.186	1	46
400.527	1	38
400.869	1	32
401.210	1	48
401.552	1	26
401.893	1	30
402.235	1	29
402.576	1	36
402.918	1	37
403.259	1	30
403.601	1	22
403.942	1	39
404.284	1	38
404.625	1	27
404.967	1	38
405.308	1	23
405.649	1	32
405.991	1	25
406.332	1	25
406.674	1	22
407.015	1	40
407.357	1	36
407.698	1	23
408.040	1	26
408.381	1	24
408.722	1	0
409.064	1	28
409.405	1	36
409.747	1	21
410.088	1	27
410.430	1	28
410.771	1	17
411.112	1	25
411.454	1	13
411.795	1	28
412.137	1	18
412.478	1	31
412.819	1	12
413.161	1	19
413.502	1	13
413.844	1	21
414.185	1	19
414.526	1	18
414.868	1	19
415.209	1	14
415.550	1	2
415.892	1	13
416.233	1	17
416.575	1	24
416.916	1	9
417.257	1	21
417.599	1	18
417.940	1	26
418.281	1	22
418.623	1	11
418.964	1	-1
419.305	1	16
419.647	1	17
419.988	1	18
420.329	1	14
420.671	1	18
421.012	1	16
421.353	1	11
421.695	1	7
422.036	1	6
422.377	1	7
422.718	1	19
423.060	1	11
423.401	1	17
423.742	1	14
424.084	1	17
424.425	1	13
424.766	1	10
425.107	1	6
425.449	1	14
425.790	1	8
426.131	1	5
426.472	1	14
426.814	1	14
427.155	1	4
427.496	1	9
427.837	1	11
428.179	1	7
428.520	1	12
428.861	1	5
429.202	1	18
429.544	1	6
429.885	1	9
430.226	1	6
430.567	1	5
430.909	1	15
431.250	1	9
431.591	1	19
431.932	1	8
432.273	1	7
432.615	1	7
432.956	1	8
433.297	1	7
433.638	1	3
433.979	1	12
434.320	1	15
434.662	1	18
435.003	1	17
435.344	1	8
435.685	1	8
436.026	1	15
436.368	1	9
436.709	1	8
437.050	1	3
437.391	1	19
437.732	1	9
438.073	1	13
438.414	1	1
438.756	1	1
439.097	1	2
439.438	1	6
439.779	1	19
440.120	1	17
440.461	1	7
440.802	1	8
441.143	1	14
441.485	1	14
441.826	1	9
442.167	1	10
442.508	1	3
442.849	1	23
443.190	1	8
443.531	1	14
443.872	1	9
444.213	1	15
444.554	1	30
444.895	1	7
445.237	1	2
445.578	1	-4
445.919	1	-1
446.260	1	0
446.601	1	8
446.942	1	17
447.283	1	7
447.624	1	10
447.965	1	6
448.306	1	18
448.647	1	3
448.988	1	8
449.329	1	10
449.670	1	14
450.011	1	14
450.352	1	14
450.693	1	2
451.034	1	-1
451.375	1	4
451.716	1	14
452.057	1	11
452.398	1	7
452.739	1	6
453.080	1	3
453.421	1	6
453.762	1	1
454.103	1	7
454.444	1	5
454.785	1	3
455.126	1	7
455.467	1	12
455.808	1	8
456.149	1	15
456.490	1	9
456.831	1	14
457.172	1	3
457.513	1	19
457.854	1	23
458.195	1	13
458.536	1	14
458.877	1	2
459.218	1	-1
459.559	1	11
459.899	1	20
460.240	1	10
460.581	1	34
460.922	1	11
461.263	1	9
461.604	1	15
461.945	1	6
462.286	1	12
462.627	1	16
462.968	1	18
463.309	1	8
463.649	1	8
463.990	1	4
464.331	1	8
464.672	1	13
465.013	1	0
465.354	1	10
465.695	1	-3
466.036	1	-4
466.376	1	7
466.717	1	6
467.058	1	6
467.399	1	17
467.740	1	12
468.081	1	8
468.422	1	-5
468.762	1	16
469.103	1	4
469.444	1	0
469.785	1	-2
470.126	1	1
470.467	1	10
470.807	1	17
471.148	1	8
471.489	1	11
471.830	1	6
472.171	1	14
472.511	1	5
472.852	1	11
473.193	1	14
473.534	1	13
473.875	1	24
474.215	1	19
474.556	1	16
474.897	1	16
475.238	1	16
475.578	1	-1
475.919	1	4
476.260	1	10
476.601	1	18
476.942	1	16
477.282	1	10
477.623	1	9
477.964	1	5
478.305	1	18
478.645	1	7
478.986	1	8
479.327	1	8
479.667	1	11
480.008	1	20
480.349	1	7
480.690	1	13
481.030	1	11
481.371	1	20
481.712	1	15
482.053	1	14
482.393	1	9
482.734	1	7
483.075	1	12
483.415	1	11
483.756	1	23
484.097	1	11
484.437	1	12
484.778	1	25
485.119	1	9
485.459	1	23
485.800	1	14
486.141	1	9
486.481	1	20
486.822	1	26
487.163	1	20
487.503	1	22
487.844	1	22
488.185	1	24
488.525	1	18
488.866	1	19
489.207	1	29
489.547	1	30
489.888	1	27
490.228	1	20
490.569	1	38
490.910	1	32
491.250	1	28
491.591	1	33
491.932	1	31
492.272	1	34
492.613	1	33
492.953	1	30
493.294	1	31
493.635	1	30
493.975	1	30
494.316	1	28
494.656	1	34
494.997	1	36
495.337	1	39
495.678	1	32
496.019	1	31
496.359	1	24
496.700	1	34
497.040	1	45
497.381	1	30
497.721	1	31
498.062	1	38
498.403	1	45
498.743	1	42
499.084	1	38
499.424	1	41
499.765	1	44
500.105	1	43
500.446	1	38
500.786	1	35
501.127	1	42
501.467	1	45
501.808	1	50
502.148	1	50
502.489	1	44
502.829	1	44
503.170	1	64
503.510	1	48
503.851	1	40
504.191	1	46
504.532	1	59
504.872	1	55
505.213	1	55
505.553	1	46
505.894	1	46
506.234	1	65
506.575	1	63
506.915	1	65
507.256	1	64
507.596	1	58
507.936	1	59
508.277	1	56
508.617	1	61
508.958	1	60
509.298	1	59
509.639	1	57
509.979	1	60
510.319	1	57
510.660	1	60
511.000	1	65
511.341	1	66
511.681	1	72
512.022	1	56
512.362	1	60
512.702	1	60
513.043	1	68
513.383	1	56
513.724	1	74
514.064	1	76
514.404	1	67
514.745	1	67
515.085	1	57
515.425	1	66
515.766	1	63
516.106	1	71
516.447	1	88
516.787	1	83
517.127	1	70
517.468	1	69
517.808	1	69
518.148	1	82
518.489	1	75
518.829	1	92
519.169	1	85
519.510	1	74
519.850	1	90
520.190	1	80
520.531	1	85
520.871	1	91
521.211	1	64
521.552	1	95
521.892	1	90
522.232	1	82
522.573	1	90
522.913	1	85
523.253	1	83
523.593	1	89
523.934	1	94
524.274	1	93
524.614	1	87
524.955	1	90
525.295	1	92
525.635	1	96
525.975	1	88
526.316	1	106
526.656	1	85
526.996	1	95
527.337	1	98
527.677	1	104
528.017	1	97
528.357	1	99
528.698	1	100
529.038	1	112
529.378	1	111
529.718	1	114
530.058	1	113
530.399	1	116
530.739	1	110
531.079	1	109
531.419	1	103
531.760	1	124
532.100	1	119
532.440	1	109
532.780	1	121
533.120	1	119
533.461	1	112
533.801	1	127
534.141	1	106
534.481	1	107
534.821	1	125
535.162	1	115
535.502	1	114
535.842	1	125
536.182	1	109
536.522	1	104
536.862	1	114
537.203	1	110
537.543	1	113
537.883	1	109
538.223	1	105
538.563	1	111
538.903	1	97
539.243	1	106
539.584	1	107
539.924	1	110
540.264	1	113
540.604	1	109
540.944	1	108
541.284	1	106
541.624	1	110
541.964	1	121
542.305	1	114
542.645	1	114
542.985	1	111
543.325	1	112
543.665	1	123
544.005	1	124
544.345	1	127
544.685	1	115
545.025	1	117
545.365	1	116
545.705	1	120
546.045	1	117
546.386	1	140
546.726	1	113
547.066	1	128
547.406	1	122
547.746	1	118
548.086	1	120
548.426	1	126
548.766	1	120
549.106	1	131
549.446	1	144
549.786	1	126
550.126	1	155
550.466	1	141
550.806	1	137
551.146	1	128
551.486	1	149
551.826	1	144
552.166	1	131
552.506	1	140
552.846	1	150
553.186	1	147
553.526	1	145
553.866	1	141
554.206	1	146
554.546	1	154
554.886	1	143
555.226	1	134
555.566	1	144
555.906	1	146
556.246	1	136
556.586	1	128
556.926	1	136
557.266	1	127
557.606	1	135
557.946	1	132
558.286	1	136
558.626	1	137
558.966	1	131
559.306	1	129
559.646	1	110
559.986	1	131
560.325	1	132
560.665	1	141
561.005	1	120
561.345	1	140
561.685	1	133
562.025	1	131
562.365	1	137
562.705	1	126
563.045	1	120
563.385	1	112
563.725	1	132
564.064	1	121
564.404	1	145
564.744	1	130
565.084	1	127
565.424	1	124
565.764	1	132
566.104	1	130
566.444	1	116
566.783	1	119
567.123	1	146
567.463	1	139
567.803	1	130
568.143	1	122
568.483	1	139
568.823	1	131
569.162	1	141
569.502	1	122
569.842	1	130
570.182	1	120
570.522	1	126
570.862	1	132
571.201	1	132
571.541	1	142
571.881	1	142
572.221	1	122
572.561	1	132
572.900	1	123
573.240	1	134
573.580	1	128
573.920	1	124
574.260	1	134
574.599	1	127
574.939	1	133
575.279	1	137
575.619	1	121
575.959	1	125
576.298	1	139
576.638	1	122
576.978	1	120
577.318	1	133
577.657	1	100
577.997	1	117
578.337	1	134
578.677	1	136
579.016	1	132
579.356	1	114
579.696	1	135
580.036	1	130
580.375	1	132
580.715	1	120
581.055	1	123
581.394	1	129
581.734	1	110
582.074	1	121
582.414	1	121
582.753	1	129
583.093	1	133
583.433	1	119
583.772	1	134
584.112	1	121
584.452	1	116
584.791	1	131
585.131	1	118
585.471	1	141
585.811	1	133
586.150	1	114
586.490	1	130
586.830	1	121
587.169	1	117
587.509	1	114
587.849	1	121
588.188	1	130
588.528	1	121
588.867	1	126
589.207	1	111
589.547	1	128
589.886	1	116
590.226	1	113
590.566	1	112
590.905	1	119
591.245	1	105
591.585	1	118
591.924	1	107
592.264	1	105
592.603	1	118
592.943	1	96
593.283	1	103
593.622	1	98
593.962	1	113
594.301	1	100
594.641	1	105
594.981	1	91
595.320	1	106
595.660	1	97
595.999	1	92
596.339	1	102
596.678	1	102
597.018	1	106
597.358	1	102
597.697	1	96
598.037	1	102
598.376	1	101
598.716	1	92
599.055	1	94
599.395	1	93
599.734	1	96
600.074	1	99
600.413	1	100
600.753	1	101
601.092	1	110
601.432	1	87
601.771	1	106
602.111	1	102
602.451	1	102
602.790	1	103
603.130	1	102
603.469	1	94
603.809	1	99
604.148	1	94
604.487	1	95
604.827	1	112
605.166	1	104
605.506	1	102
605.845	1	96
606.185	1	100
606.524	1	111
606.864	1	95
607.203	1	84
607.543	1	95
607.882	1	103
608.222	1	102
608.561	1	105
608.901	1	96
609.240	1	98
609.579	1	107
609.919	1	106
610.258	1	110
610.598	1	74
610.937	1	94
611.277	1	93
611.616	1	98
611.955	1	89
612.295	1	83
612.634	1	95
612.974	1	83
613.313	1	87
613.652	1	87
613.992	1	84
614.331	1	83
614.671	1	86
615.010	1	81
615.349	1	87
615.689	1	89
616.028	1	78
616.368	1	84
616.707	1	75
617.046	1	89
617.386	1	78
617.725	1	75
618.064	1	82
618.404	1	72
618.743	1	79
619.082	1	81
619.422	1	71
619.761	1	75
620.100	1	77
620.440	1	70
620.779	1	74
621.118	1	65
621.458	1	67
621.797	1	71
622.136	1	83
622.476	1	75
622.815	1	76
623.154	1	66
623.494	1	81
623.833	1	77
624.172	1	73
624.511	1	82
624.851	1	67
625.190	1	68
625.529	1	69
625.869	1	85
626.208	1	62
626.547	1	69
626.886	1	72
627.226	1	70
627.565	1	78
627.904	1	65
628.243	1	69
628.583	1	71
628.922	1	80
629.261	1	65
629.600	1	70
629.940	1	64
630.279	1	58
630.618	1	64
630.957	1	63
631.297	1	69
631.636	1	64
631.975	1	79
632.314	1	61
632.653	1	63
632.993	1	55
633.332	1	68
633.671	1	61
634.010	1	67
634.349	1	69
634.689	1	63
635.028	1	61
635.367	1	52
635.706	1	57
636.045	1	68
636.384	1	54
636.724	1	60
637.063	1	53
637.402	1	69
637.741	1	55
638.080	1	53
638.419	1	59
638.759	1	54
639.098	1	55
639.437	1	55
639.776	1	51
640.115	1	57
640.454	1	52
640.793	1	59
641.132	1	65
641.472	1	55
641.811	1	54
642.150	1	50
642.489	1	57
642.828	1	50
643.167	1	45
643.506	1	38
643.845	1	51
644.184	1	54
644.524	1	46
644.863	1	30
645.202	1	58
645.541	1	55
645.880	1	59
646.219	1	58
646.558	1	42
646.897	1	47
647.236	1	43
647.575	1	45
647.914	1	48
648.253	1	54
648.592	1	40
648.931	1	52
649.270	1	49
649.610	1	43
649.949	1	43
650.288	1	53
650.627	1	56
650.966	1	51
651.305	1	42
651.644	1	56
651.983	1	36
652.322	1	48
652.661	1	49
653.000	1	53
653.339	1	55
653.678	1	47
654.017	1	45
654.356	1	43
654.695	1	46
655.034	1	47
655.373	1	53
655.712	1	41
656.051	1	41
656.390	1	36
656.729	1	53
657.068	1	44
657.406	1	39
657.745	1	38
658.084	1	38
658.423	1	39
658.762	1	42
659.101	1	41
659.440	1	42
659.779	1	39
660.118	1	51
660.457	1	31
660.796	1	34
661.135	1	26
661.474	1	38
661.813	1	45
662.152	1	45
662.491	1	38
662.829	1	24
663.168	1	35
663.507	1	54
663.846	1	26
664.185	1	38
664.524	1	33
664.863	1	23
665.202	1	42
665.541	1	26
665.879	1	32
666.218	1	26
666.557	1	36
666.896	1	18
667.235	1	30
667.574	1	37
667.913	1	38
668.251	1	23
668.590	1	32
668.929	1	22
669.268	1	25
669.607	1	36
669.946	1	42
670.285	1	30
670.623	1	36
670.962	1	33
671.301	1	17
671.640	1	44
671.979	1	33
672.317	1	41
672.656	1	33
672.995	1	48
673.334	1	28
673.673	1	48
674.011	1	29
674.350	1	32
674.689	1	32
675.028	1	29
675.367	1	33
675.705	1	39
676.044	1	28
676.383	1	36
676.722	1	28
677.060	1	21
677.399	1	28
677.738	1	39
678.077	1	29
678.416	1	40
678.754	1	31
679.093	1	38
679.432	1	28
679.771	1	24
680.109	1	44
680.448	1	35
680.787	1	29
681.125	1	33
681.464	1	31
681.803	1	27
682.142	1	42
682.480	1	38
682.819	1	30
683.158	1	24
683.496	1	32
683.835	1	32
684.174	1	24
684.512	1	46
684.851	1	31
685.190	1	33
685.529	1	33
685.867	1	35
686.206	1	36
686.545	1	36
686.883	1	32
687.222	1	32
687.561	1	23
687.899	1	33
688.238	1	34
688.577	1	22
688.746	1	33