File: Data/GaN_200K_800ms/GaN_sample F_spot 12_UVVIS_200 K_200um_800 ms 2x2mm1_47.txt
340.368	1	14
340.710	1	4
341.052	1	13
341.394	1	0
341.737	1	14
342.079	1	-4
342.421	1	3
342.763	1	10
343.105	1	2
343.447	1	-2
343.789	1	-1
344.131	1	2
344.473	1	4
344.815	1	3
345.157	1	4
345.499	1	3
345.841	1	17
346.183	1	-1
346.526	1	7
346.868	1	12
347.210	1	5
347.552	1	5
347.894	1	13
348.236	1	19
348.578	1	11
348.920	1	5
349.262	1	11
349.604	1	4
349.946	1	-3
350.288	1	25
350.630	1	15
350.972	1	10
351.314	1	21
351.656	1	19
351.998	1	18
352.340	1	18
352.682	1	24
353.024	1	17
353.366	1	32
353.708	1	28
354.050	1	12
354.392	1	27
354.734	1	21
355.076	1	18
355.418	1	19
355.760	1	25
356.102	1	39
356.444	1	29
356.785	1	38
357.127	1	28
357.469	1	34
357.811	1	43
358.153	1	44
358.495	1	50
358.837	1	39
359.179	1	40
359.521	1	69
359.863	1	62
360.205	1	60
360.547	1	74
360.889	1	66
361.231	1	76
361.572	1	96
361.914	1	110
362.256	1	105
362.598	1	117
362.940	1	127
363.282	1	153
363.624	1	183
363.966	1	189
364.308	1	208
364.649	1	253
364.991	1	254
365.333	1	292
365.675	1	301
366.017	1	366
366.359	1	397
366.701	1	411
367.042	1	465
367.384	1	496
367.726	1	528
368.068	1	552
368.410	1	602
368.752	1	596
369.093	1	636
369.435	1	632
369.777	1	634
370.119	1	626
370.461	1	626
370.803	1	614
371.144	1	600
371.486	1	571
371.828	1	538
372.170	1	528
372.512	1	462
372.853	1	461
373.195	1	421
373.537	1	413
373.879	1	385
374.220	1	391
374.562	1	349
374.904	1	332
375.246	1	327
375.588	1	309
375.929	1	291
376.271	1	290
376.613	1	248
376.955	1	224
377.296	1	213
377.638	1	222
377.980	1	216
378.321	1	176
378.663	1	177
379.005	1	190
379.347	1	166
379.688	1	163
380.030	1	141
380.372	1	149
380.714	1	137
381.055	1	124
381.397	1	122
381.739	1	116
382.080	1	110
382.422	1	112
382.764	1	98
383.105	1	98
383.447	1	98
383.789	1	92
384.130	1	87
384.472	1	83
384.814	1	80
385.156	1	84
385.497	1	81
385.839	1	82
386.180	1	71
386.522	1	81
386.864	1	57
387.205	1	59
387.547	1	67
387.889	1	53
388.230	1	56
388.572	1	50
388.914	1	67
389.255	1	45
389.597	1	48
389.939	1	47
390.280	1	42
390.622	1	42
390.963	1	54
391.305	1	45
391.647	1	44
391.988	1	45
392.330	1	40
392.671	1	39
393.013	1	34
393.355	1	40
393.696	1	35
394.038	1	33
394.379	1	35
394.721	1	30
395.062	1	36
395.404	1	22
395.746	1	33
396.087	1	21
396.429	1	26
396.770	1	30
397.112	1	34
397.453	1	30
397.795	1	27
398.136	1	24
398.478	1	26
398.819	1	22
399.161	1	36
399.503	1	24
399.844	1	27
400.186	1	20
400.527	1	24
400.869	1	22
401.210	1	15
401.552	1	12
401.893	1	10
402.235	1	11
402.576	1	16
402.918	1	21
403.259	1	16
403.601	1	9
403.942	1	22
404.284	1	21
404.625	1	15
404.967	1	13
405.308	1	15
405.649	1	18
405.991	1	9
406.332	1	22
406.674	1	12
407.015	1	19
407.357	1	8
407.698	1	19
408.040	1	13
408.381	1	22
408.722	1	-3
409.064	1	12
409.405	1	14
409.747	1	18
410.088	1	15
410.430	1	9
410.771	1	10
411.112	1	11
411.454	1	-4
411.795	1	14
412.137	1	12
412.478	1	20
412.819	1	7
413.161	1	2
413.502	1	11
413.844	1	14
414.185	1	13
414.526	1	16
414.868	1	5
415.209	1	4
415.550	1	10
415.892	1	10
416.233	1	22
416.575	1	15
416.916	1	2
417.257	1	5
417.599	1	8
417.940	1	18
418.281	1	7
418.623	1	1
418.964	1	-1
419.305	1	10
419.647	1	8
419.988	1	7
420.329	1	4
420.671	1	4
421.012	1	8
421.353	1	3
421.695	1	6
422.036	1	15
422.377	1	7
422.718	1	10
423.060	1	4
423.401	1	-4
423.742	1	11
424.084	1	11
424.425	1	11
424.766	1	9
425.107	1	0
425.449	1	6
425.790	1	-4
426.131	1	8
426.472	1	5
426.814	1	14
427.155	1	7
427.496	1	7
427.837	1	5
428.179	1	-3
428.520	1	7
428.861	1	2
429.202	1	14
429.544	1	9
429.885	1	10
430.226	1	-3
430.567	1	1
430.909	1	12
431.250	1	9
431.591	1	12
431.932	1	6
432.273	1	9
432.615	1	0
432.956	1	0
433.297	1	3
433.638	1	2
433.979	1	12
434.320	1	15
434.662	1	0
435.003	1	6
435.344	1	11
435.685	1	4
436.026	1	6
436.368	1	2
436.709	1	10
437.050	1	1
437.391	1	13
437.732	1	7
438.073	1	4
438.414	1	-9
438.756	1	-2
439.097	1	2
439.438	1	2
439.779	1	4
440.120	1	3
440.461	1	18
440.802	1	3
441.143	1	5
441.485	1	6
441.826	1	4
442.167	1	12
442.508	1	3
442.849	1	10
443.190	1	9
443.531	1	4
443.872	1	17
444.213	1	4
444.554	1	17
444.895	1	-4
445.237	1	-5
445.578	1	-3
445.919	1	3
446.260	1	3
446.601	1	6
446.942	1	2
447.283	1	5
447.624	1	10
447.965	1	4
448.306	1	-3
448.647	1	-4
448.988	1	6
449.329	1	4
449.670	1	10
450.011	1	14
450.352	1	5
450.693	1	-7
451.034	1	2
451.375	1	7
451.716	1	4
452.057	1	-1
452.398	1	2
452.739	1	10
453.080	1	3
453.421	1	5
453.762	1	12
454.103	1	4
454.444	1	2
454.785	1	4
455.126	1	-3
455.467	1	4
455.808	1	12
456.149	1	9
456.490	1	10
456.831	1	15
457.172	1	3
457.513	1	6
457.854	1	4
458.195	1	2
458.536	1	5
458.877	1	-1
459.218	1	3
459.559	1	5
459.899	1	0
460.240	1	1
460.581	1	24
460.922	1	-2
461.263	1	-2
461.604	1	2
461.945	1	2
462.286	1	5
462.627	1	7
462.968	1	3
463.309	1	-4
463.649	1	2
463.990	1	0
464.331	1	-7
464.672	1	8
465.013	1	3
465.354	1	6
465.695	1	1
466.036	1	7
466.376	1	-2
466.717	1	2
467.058	1	8
467.399	1	23
467.740	1	14
468.081	1	9
468.422	1	2
468.762	1	-5
469.103	1	6
469.444	1	0
469.785	1	1
470.126	1	-3
470.467	1	0
470.807	1	5
471.148	1	10
471.489	1	3
471.830	1	5
472.171	1	14
472.511	1	0
472.852	1	3
473.193	1	13
473.534	1	19
473.875	1	22
474.215	1	13
474.556	1	14
474.897	1	18
475.238	1	3
475.578	1	1
475.919	1	3
476.260	1	10
476.601	1	7
476.942	1	9
477.282	1	2
477.623	1	5
477.964	1	12
478.305	1	8
478.645	1	11
478.986	1	1
479.327	1	1
479.667	1	9
480.008	1	5
480.349	1	14
480.690	1	8
481.030	1	-2
481.371	1	2
481.712	1	12
482.053	1	6
482.393	1	12
482.734	1	3
483.075	1	9
483.415	1	5
483.756	1	17
484.097	1	11
484.437	1	1
484.778	1	20
485.119	1	3
485.459	1	23
485.800	1	9
486.141	1	9
486.481	1	13
486.822	1	19
487.163	1	7
487.503	1	6
487.844	1	16
488.185	1	7
488.525	1	9
488.866	1	14
489.207	1	6
489.547	1	3
489.888	1	9
490.228	1	20
490.569	1	24
490.910	1	15
491.250	1	9
491.591	1	9
491.932	1	4
492.272	1	20
492.613	1	8
492.953	1	8
493.294	1	4
493.635	1	19
493.975	1	5
494.316	1	25
494.656	1	11
494.997	1	17
495.337	1	22
495.678	1	9
496.019	1	19
496.359	1	10
496.700	1	7
497.040	1	13
497.381	1	13
497.721	1	10
498.062	1	15
498.403	1	12
498.743	1	8
499.084	1	6
499.424	1	16
499.765	1	12
500.105	1	17
500.446	1	13
500.786	1	3
501.127	1	17
501.467	1	11
501.808	1	22
502.148	1	28
502.489	1	21
502.829	1	13
503.170	1	35
503.510	1	27
503.851	1	18
504.191	1	23
504.532	1	27
504.872	1	22
505.213	1	31
505.553	1	26
505.894	1	23
506.234	1	33
506.575	1	27
506.915	1	30
507.256	1	28
507.596	1	29
507.936	1	31
508.277	1	19
508.617	1	25
508.958	1	22
509.298	1	37
509.639	1	23
509.979	1	25
510.319	1	42
510.660	1	35
511.000	1	28
511.341	1	26
511.681	1	31
512.022	1	16
512.362	1	27
512.702	1	22
513.043	1	34
513.383	1	25
513.724	1	29
514.064	1	38
514.404	1	28
514.745	1	37
515.085	1	32
515.425	1	31
515.766	1	22
516.106	1	35
516.447	1	51
516.787	1	34
517.127	1	39
517.468	1	20
517.808	1	35
518.148	1	30
518.489	1	33
518.829	1	32
519.169	1	37
519.510	1	26
519.850	1	36
520.190	1	36
520.531	1	45
520.871	1	40
521.211	1	29
521.552	1	42
521.892	1	36
522.232	1	33
522.573	1	33
522.913	1	42
523.253	1	35
523.593	1	30
523.934	1	37
524.274	1	38
524.614	1	38
524.955	1	36
525.295	1	40
525.635	1	44
525.975	1	34
526.316	1	59
526.656	1	40
526.996	1	45
527.337	1	41
527.677	1	43
528.017	1	42
528.357	1	44
528.698	1	47
529.038	1	42
529.378	1	44
529.718	1	48
530.058	1	47
530.399	1	55
530.739	1	56
531.079	1	48
531.419	1	53
531.760	1	57
532.100	1	48
532.440	1	49
532.780	1	38
533.120	1	54
533.461	1	55
533.801	1	67
534.141	1	36
534.481	1	43
534.821	1	53
535.162	1	47
535.502	1	41
535.842	1	59
536.182	1	41
536.522	1	44
536.862	1	49
537.203	1	46
537.543	1	42
537.883	1	46
538.223	1	43
538.563	1	52
538.903	1	43
539.243	1	38
539.584	1	37
539.924	1	43
540.264	1	39
540.604	1	48
540.944	1	44
541.284	1	46
541.624	1	51
541.964	1	55
542.305	1	52
542.645	1	49
542.985	1	44
543.325	1	40
543.665	1	57
544.005	1	46
544.345	1	45
544.685	1	39
545.025	1	50
545.365	1	39
545.705	1	42
546.045	1	47
546.386	1	47
546.726	1	38
547.066	1	51
547.406	1	51
547.746	1	37
548.086	1	54
548.426	1	44
548.766	1	47
549.106	1	57
549.446	1	47
549.786	1	52
550.126	1	67
550.466	1	52
550.806	1	55
551.146	1	46
551.486	1	50
551.826	1	54
552.166	1	51
552.506	1	73
552.846	1	56
553.186	1	66
553.526	1	46
553.866	1	54
554.206	1	57
554.546	1	56
554.886	1	61
555.226	1	51
555.566	1	58
555.906	1	52
556.246	1	54
556.586	1	52
556.926	1	53
557.266	1	49
557.606	1	54
557.946	1	61
558.286	1	53
558.626	1	52
558.966	1	55
559.306	1	35
559.646	1	49
559.986	1	48
560.325	1	39
560.665	1	54
561.005	1	38
561.345	1	46
561.685	1	50
562.025	1	49
562.365	1	44
562.705	1	49
563.045	1	41
563.385	1	43
563.725	1	48
564.064	1	43
564.404	1	54
564.744	1	49
565.084	1	51
565.424	1	68
565.764	1	51
566.104	1	56
566.444	1	53
566.783	1	40
567.123	1	56
567.463	1	55
567.803	1	53
568.143	1	48
568.483	1	48
568.823	1	57
569.162	1	62
569.502	1	50
569.842	1	55
570.182	1	47
570.522	1	42
570.862	1	50
571.201	1	55
571.541	1	51
571.881	1	49
572.221	1	40
572.561	1	47
572.900	1	42
573.240	1	51
573.580	1	48
573.920	1	57
574.260	1	63
574.599	1	49
574.939	1	52
575.279	1	53
575.619	1	54
575.959	1	44
576.298	1	61
576.638	1	39
576.978	1	58
577.318	1	55
577.657	1	51
577.997	1	45
578.337	1	50
578.677	1	54
579.016	1	57
579.356	1	34
579.696	1	50
580.036	1	39
580.375	1	62
580.715	1	52
581.055	1	51
581.394	1	49
581.734	1	38
582.074	1	36
582.414	1	56
582.753	1	49
583.093	1	49
583.433	1	42
583.772	1	50
584.112	1	49
584.452	1	48
584.791	1	39
585.131	1	54
585.471	1	51
585.811	1	50
586.150	1	42
586.490	1	44
586.830	1	55
587.169	1	39
587.509	1	46
587.849	1	51
588.188	1	53
588.528	1	46
588.867	1	56
589.207	1	45
589.547	1	42
589.886	1	41
590.226	1	49
590.566	1	33
590.905	1	55
591.245	1	40
591.585	1	49
591.924	1	47
592.264	1	39
592.603	1	40
592.943	1	49
593.283	1	40
593.622	1	40
593.962	1	39
594.301	1	52
594.641	1	43
594.981	1	34
595.320	1	36
595.660	1	43
595.999	1	32
596.339	1	39
596.678	1	36
597.018	1	35
597.358	1	36
597.697	1	41
598.037	1	34
598.376	1	42
598.716	1	44
599.055	1	45
599.395	1	36
599.734	1	33
600.074	1	39
600.413	1	39
600.753	1	38
601.092	1	53
601.432	1	29
601.771	1	45
602.111	1	42
602.451	1	35
602.790	1	36
603.130	1	43
603.469	1	30
603.809	1	39
604.148	1	45
604.487	1	36
604.827	1	42
605.166	1	40
605.506	1	40
605.845	1	43
606.185	1	44
606.524	1	34
606.864	1	41
607.203	1	36
607.543	1	41
607.882	1	35
608.222	1	43
608.561	1	44
608.901	1	38
609.240	1	37
609.579	1	40
609.919	1	39
610.258	1	47
610.598	1	32
610.937	1	40
611.277	1	32
611.616	1	35
611.955	1	41
612.295	1	26
612.634	1	30
612.974	1	23
613.313	1	37
613.652	1	37
613.992	1	38
614.331	1	30
614.671	1	26
615.010	1	30
615.349	1	38
615.689	1	44
616.028	1	37
616.368	1	38
616.707	1	32
617.046	1	31
617.386	1	37
617.725	1	37
618.064	1	33
618.404	1	27
618.743	1	28
619.082	1	35
619.422	1	22
619.761	1	37
620.100	1	36
620.440	1	31
620.779	1	28
621.118	1	29
621.458	1	43
621.797	1	18
622.136	1	34
622.476	1	39
622.815	1	20
623.154	1	40
623.494	1	39
623.833	1	32
624.172	1	22
624.511	1	24
624.851	1	12
625.190	1	21
625.529	1	25
625.869	1	37
626.208	1	27
626.547	1	27
626.886	1	29
627.226	1	24
627.565	1	29
627.904	1	26
628.243	1	37
628.583	1	31
628.922	1	33
629.261	1	23
629.600	1	41
629.940	1	33
630.279	1	17
630.618	1	28
630.957	1	27
631.297	1	24
631.636	1	12
631.975	1	37
632.314	1	27
632.653	1	24
632.993	1	18
633.332	1	24
633.671	1	19
634.010	1	10
634.349	1	27
634.689	1	37
635.028	1	44
635.367	1	18
635.706	1	20
636.045	1	35
636.384	1	16
636.724	1	19
637.063	1	25
637.402	1	18
637.741	1	19
638.080	1	33
638.419	1	37
638.759	1	19
639.098	1	32
639.437	1	23
639.776	1	28
640.115	1	21
640.454	1	19
640.793	1	24
641.132	1	40
641.472	1	28
641.811	1	20
642.150	1	3
642.489	1	25
642.828	1	18
643.167	1	21
643.506	1	4
643.845	1	30
644.184	1	17
644.524	1	16
644.863	1	11
645.202	1	17
645.541	1	19
645.880	1	19
646.219	1	20
646.558	1	15
646.897	1	19
647.236	1	18
647.575	1	21
647.914	1	19
648.253	1	30
648.592	1	11
648.931	1	32
649.270	1	24
649.610	1	16
649.949	1	23
650.288	1	28
650.627	1	14
650.966	1	23
651.305	1	7
651.644	1	30
651.983	1	21
652.322	1	16
652.661	1	16
653.000	1	11
653.339	1	19
653.678	1	23
654.017	1	21
654.356	1	9
654.695	1	18
655.034	1	9
655.373	1	34
655.712	1	15
656.051	1	20
656.390	1	12
656.729	1	20
657.068	1	21
657.406	1	20
657.745	1	4
658.084	1	17
658.423	1	23
658.762	1	24
659.101	1	28
659.440	1	11
659.779	1	15
660.118	1	22
660.457	1	13
660.796	1	5
661.135	1	14
661.474	1	8
661.813	1	24
662.152	1	15
662.491	1	15
662.829	1	10
663.168	1	21
663.507	1	22
663.846	1	5
664.185	1	16
664.524	1	16
664.863	1	16
665.202	1	13
665.541	1	-2
665.879	1	6
666.218	1	14
666.557	1	0
666.896	1	13
667.235	1	22
667.574	1	11
667.913	1	16
668.251	1	6
668.590	1	11
668.929	1	0
669.268	1	7
669.607	1	9
669.946	1	5
670.285	1	15
670.623	1	8
670.962	1	10
671.301	1	5
671.640	1	17
671.979	1	5
672.317	1	11
672.656	1	16
672.995	1	7
673.334	1	16
673.673	1	18
674.011	1	17
674.350	1	23
674.689	1	9
675.028	1	6
675.367	1	17
675.705	1	11
676.044	1	9
676.383	1	16
676.722	1	13
677.060	1	2
677.399	1	3
677.738	1	14
678.077	1	20
678.416	1	15
678.754	1	7
679.093	1	23
679.432	1	17
679.771	1	16
680.109	1	29
680.448	1	15
680.787	1	12
681.125	1	22
681.464	1	6
681.803	1	14
682.142	1	20
682.480	1	20
682.819	1	11
683.158	1	7
683.496	1	16
683.835	1	15
684.174	1	14
684.512	1	17
684.851	1	18
685.190	1	13
685.529	1	19
685.867	1	18
686.206	1	14
686.545	1	8
686.883	1	20
687.222	1	25
687.561	1	23
687.899	1	18
688.238	1	20
688.577	1	15
688.746	1	15