File: Data/GaN_200K_800ms/GaN_sample F_spot 12_UVVIS_200 K_200um_800 ms 2x2mm1_14.txt
340.368	1	3
340.710	1	-9
341.052	1	14
341.394	1	2
341.737	1	15
342.079	1	-9
342.421	1	5
342.763	1	8
343.105	1	3
343.447	1	-6
343.789	1	-1
344.131	1	4
344.473	1	1
344.815	1	5
345.157	1	-5
345.499	1	10
345.841	1	5
346.183	1	3
346.526	1	-8
346.868	1	7
347.210	1	-2
347.552	1	-7
347.894	1	4
348.236	1	6
348.578	1	4
348.920	1	-4
349.262	1	0
349.604	1	-3
349.946	1	-10
350.288	1	6
350.630	1	4
350.972	1	3
351.314	1	7
351.656	1	9
351.998	1	3
352.340	1	-2
352.682	1	4
353.024	1	-4
353.366	1	9
353.708	1	0
354.050	1	-8
354.392	1	-10
354.734	1	5
355.076	1	0
355.418	1	-5
355.760	1	-6
356.102	1	7
356.444	1	-1
356.785	1	5
357.127	1	2
357.469	1	0
357.811	1	-1
358.153	1	6
358.495	1	7
358.837	1	-6
359.179	1	4
359.521	1	8
359.863	1	3
360.205	1	-2
360.547	1	1
360.889	1	1
361.231	1	-2
361.572	1	5
361.914	1	7
362.256	1	3
362.598	1	-3
362.940	1	-10
363.282	1	4
363.624	1	6
363.966	1	-3
364.308	1	0
364.649	1	-1
364.991	1	3
365.333	1	-5
365.675	1	-8
366.017	1	-8
366.359	1	-7
366.701	1	-3
367.042	1	8
367.384	1	3
367.726	1	-3
368.068	1	1
368.410	1	11
368.752	1	-1
369.093	1	-7
369.435	1	3
369.777	1	-4
370.119	1	-1
370.461	1	10
370.803	1	3
371.144	1	-12
371.486	1	-7
371.828	1	3
372.170	1	5
372.512	1	-14
372.853	1	-8
373.195	1	-7
373.537	1	0
373.879	1	3
374.220	1	14
374.562	1	8
374.904	1	-8
375.246	1	3
375.588	1	-13
375.929	1	-2
376.271	1	3
376.613	1	-3
376.955	1	-5
377.296	1	-4
377.638	1	0
377.980	1	8
378.321	1	-6
378.663	1	-2
379.005	1	3
379.347	1	6
379.688	1	3
380.030	1	-7
380.372	1	5
380.714	1	3
381.055	1	14
381.397	1	2
381.739	1	5
382.080	1	4
382.422	1	-2
382.764	1	-2
383.105	1	-2
383.447	1	1
383.789	1	-5
384.130	1	0
384.472	1	2
384.814	1	1
385.156	1	-11
385.497	1	10
385.839	1	0
386.180	1	-1
386.522	1	7
386.864	1	12
387.205	1	-1
387.547	1	-1
387.889	1	-5
388.230	1	0
388.572	1	0
388.914	1	1
389.255	1	-4
389.597	1	9
389.939	1	8
390.280	1	2
390.622	1	3
390.963	1	7
391.305	1	9
391.647	1	2
391.988	1	8
392.330	1	7
392.671	1	3
393.013	1	1
393.355	1	11
393.696	1	5
394.038	1	-4
394.379	1	-9
394.721	1	-1
395.062	1	4
395.404	1	0
395.746	1	-2
396.087	1	0
396.429	1	2
396.770	1	0
397.112	1	9
397.453	1	8
397.795	1	-2
398.136	1	-6
398.478	1	5
398.819	1	-7
399.161	1	8
399.503	1	-1
399.844	1	-1
400.186	1	2
400.527	1	2
400.869	1	4
401.210	1	8
401.552	1	0
401.893	1	5
402.235	1	-4
402.576	1	0
402.918	1	10
403.259	1	0
403.601	1	-1
403.942	1	12
404.284	1	11
404.625	1	7
404.967	1	-2
405.308	1	0
405.649	1	-4
405.991	1	4
406.332	1	6
406.674	1	-9
407.015	1	2
407.357	1	-8
407.698	1	11
408.040	1	-6
408.381	1	1
408.722	1	-9
409.064	1	3
409.405	1	5
409.747	1	-3
410.088	1	-3
410.430	1	4
410.771	1	5
411.112	1	9
411.454	1	-8
411.795	1	-2
412.137	1	5
412.478	1	15
412.819	1	-3
413.161	1	-4
413.502	1	-3
413.844	1	-2
414.185	1	3
414.526	1	-1
414.868	1	2
415.209	1	-4
415.550	1	-7
415.892	1	2
416.233	1	7
416.575	1	12
416.916	1	1
417.257	1	4
417.599	1	10
417.940	1	15
418.281	1	8
418.623	1	-1
418.964	1	-9
419.305	1	0
419.647	1	-1
419.988	1	6
420.329	1	4
420.671	1	8
421.012	1	-3
421.353	1	-3
421.695	1	-3
422.036	1	-6
422.377	1	-1
422.718	1	8
423.060	1	5
423.401	1	-1
423.742	1	9
424.084	1	-2
424.425	1	-4
424.766	1	-7
425.107	1	-1
425.449	1	1
425.790	1	-10
426.131	1	1
426.472	1	0
426.814	1	2
427.155	1	-9
427.496	1	-2
427.837	1	-6
428.179	1	-11
428.520	1	1
428.861	1	1
429.202	1	4
429.544	1	-1
429.885	1	7
430.226	1	-6
430.567	1	5
430.909	1	4
431.250	1	-5
431.591	1	10
431.932	1	-6
432.273	1	-2
432.615	1	-15
432.956	1	-3
433.297	1	1
433.638	1	-2
433.979	1	10
434.320	1	3
434.662	1	5
435.003	1	-3
435.344	1	-3
435.685	1	2
436.026	1	2
436.368	1	3
436.709	1	10
437.050	1	-4
437.391	1	11
437.732	1	3
438.073	1	-1
438.414	1	-6
438.756	1	-4
439.097	1	1
439.438	1	-8
439.779	1	0
440.120	1	-1
440.461	1	8
440.802	1	-5
441.143	1	7
441.485	1	6
441.826	1	1
442.167	1	7
442.508	1	-4
442.849	1	8
443.190	1	5
443.531	1	13
443.872	1	16
444.213	1	1
444.554	1	13
444.895	1	-4
445.237	1	-2
445.578	1	-10
445.919	1	-5
446.260	1	-9
446.601	1	-2
446.942	1	4
447.283	1	-1
447.624	1	-5
447.965	1	-1
448.306	1	4
448.647	1	-9
448.988	1	3
449.329	1	2
449.670	1	13
450.011	1	7
450.352	1	5
450.693	1	-1
451.034	1	-8
451.375	1	-7
451.716	1	6
452.057	1	1
452.398	1	3
452.739	1	3
453.080	1	1
453.421	1	8
453.762	1	7
454.103	1	12
454.444	1	-6
454.785	1	-7
455.126	1	-5
455.467	1	-1
455.808	1	-1
456.149	1	5
456.490	1	3
456.831	1	8
457.172	1	7
457.513	1	6
457.854	1	3
458.195	1	-9
458.536	1	6
458.877	1	2
459.218	1	1
459.559	1	4
459.899	1	-6
460.240	1	-2
460.581	1	19
460.922	1	7
461.263	1	-7
461.604	1	-4
461.945	1	-1
462.286	1	5
462.627	1	13
462.968	1	8
463.309	1	-4
463.649	1	-2
463.990	1	-9
464.331	1	-2
464.672	1	-2
465.013	1	-6
465.354	1	1
465.695	1	-3
466.036	1	-2
466.376	1	-3
466.717	1	7
467.058	1	8
467.399	1	-2
467.740	1	-1
468.081	1	2
468.422	1	-8
468.762	1	-1
469.103	1	-11
469.444	1	1
469.785	1	-12
470.126	1	-4
470.467	1	-4
470.807	1	0
471.148	1	-3
471.489	1	-5
471.830	1	-5
472.171	1	8
472.511	1	-8
472.852	1	1
473.193	1	2
473.534	1	7
473.875	1	16
474.215	1	5
474.556	1	1
474.897	1	2
475.238	1	0
475.578	1	0
475.919	1	-9
476.260	1	0
476.601	1	2
476.942	1	7
477.282	1	-8
477.623	1	-4
477.964	1	-6
478.305	1	-10
478.645	1	10
478.986	1	-9
479.327	1	-5
479.667	1	-4
480.008	1	-4
480.349	1	1
480.690	1	2
481.030	1	-5
481.371	1	4
481.712	1	12
482.053	1	-5
482.393	1	3
482.734	1	-13
483.075	1	-4
483.415	1	0
483.756	1	6
484.097	1	0
484.437	1	3
484.778	1	8
485.119	1	-2
485.459	1	9
485.800	1	5
486.141	1	0
486.481	1	0
486.822	1	-4
487.163	1	5
487.503	1	4
487.844	1	-1
488.185	1	-3
488.525	1	2
488.866	1	-6
489.207	1	3
489.547	1	1
489.888	1	-6
490.228	1	11
490.569	1	6
490.910	1	-1
491.250	1	-9
491.591	1	-5
491.932	1	1
492.272	1	6
492.613	1	-3
492.953	1	-3
493.294	1	0
493.635	1	5
493.975	1	0
494.316	1	14
494.656	1	0
494.997	1	6
495.337	1	3
495.678	1	1
496.019	1	2
496.359	1	-4
496.700	1	5
497.040	1	1
497.381	1	-3
497.721	1	2
498.062	1	-2
498.403	1	4
498.743	1	-4
499.084	1	-5
499.424	1	1
499.765	1	1
500.105	1	1
500.446	1	-6
500.786	1	-3
501.127	1	-4
501.467	1	-6
501.808	1	5
502.148	1	6
502.489	1	9
502.829	1	7
503.170	1	11
503.510	1	-3
503.851	1	-2
504.191	1	11
504.532	1	6
504.872	1	0
505.213	1	-3
505.553	1	-2
505.894	1	-6
506.234	1	12
506.575	1	-2
506.915	1	2
507.256	1	2
507.596	1	3
507.936	1	10
508.277	1	-5
508.617	1	-2
508.958	1	-5
509.298	1	10
509.639	1	-7
509.979	1	-1
510.319	1	3
510.660	1	-5
511.000	1	-9
511.341	1	6
511.681	1	5
512.022	1	-6
512.362	1	-12
512.702	1	-4
513.043	1	10
513.383	1	-3
513.724	1	4
514.064	1	11
514.404	1	-5
514.745	1	1
515.085	1	2
515.425	1	0
515.766	1	-1
516.106	1	8
516.447	1	10
516.787	1	-1
517.127	1	-4
517.468	1	-5
517.808	1	-1
518.148	1	8
518.489	1	1
518.829	1	11
519.169	1	-5
519.510	1	-6
519.850	1	2
520.190	1	7
520.531	1	-1
520.871	1	8
521.211	1	-23
521.552	1	5
521.892	1	7
522.232	1	-6
522.573	1	1
522.913	1	3
523.253	1	1
523.593	1	-9
523.934	1	-6
524.274	1	8
524.614	1	9
524.955	1	-3
525.295	1	4
525.635	1	3
525.975	1	6
526.316	1	18
526.656	1	5
526.996	1	8
527.337	1	0
527.677	1	9
528.017	1	-15
528.357	1	4
528.698	1	6
529.038	1	3
529.378	1	2
529.718	1	11
530.058	1	1
530.399	1	4
530.739	1	3
531.079	1	9
531.419	1	7
531.760	1	10
532.100	1	-2
532.440	1	3
532.780	1	-2
533.120	1	5
533.461	1	5
533.801	1	6
534.141	1	-6
534.481	1	-5
534.821	1	-1
535.162	1	5
535.502	1	-8
535.842	1	7
536.182	1	3
536.522	1	5
536.862	1	4
537.203	1	-5
537.543	1	4
537.883	1	0
538.223	1	2
538.563	1	7
538.903	1	-7
539.243	1	1
539.584	1	-8
539.924	1	8
540.264	1	0
540.604	1	-3
540.944	1	-4
541.284	1	3
541.624	1	12
541.964	1	3
542.305	1	1
542.645	1	-3
542.985	1	1
543.325	1	1
543.665	1	1
544.005	1	12
544.345	1	12
544.685	1	-1
545.025	1	-2
545.365	1	-2
545.705	1	-2
546.045	1	-6
546.386	1	1
546.726	1	-4
547.066	1	4
547.406	1	2
547.746	1	-12
548.086	1	4
548.426	1	-4
548.766	1	5
549.106	1	-1
549.446	1	-5
549.786	1	1
550.126	1	15
550.466	1	1
550.806	1	2
551.146	1	-8
551.486	1	2
551.826	1	-1
552.166	1	1
552.506	1	6
552.846	1	7
553.186	1	14
553.526	1	-5
553.866	1	2
554.206	1	6
554.546	1	6
554.886	1	8
555.226	1	-5
555.566	1	-1
555.906	1	0
556.246	1	0
556.586	1	2
556.926	1	8
557.266	1	-5
557.606	1	3
557.946	1	4
558.286	1	0
558.626	1	1
558.966	1	-2
559.306	1	-2
559.646	1	-4
559.986	1	-7
560.325	1	-12
560.665	1	-1
561.005	1	2
561.345	1	-1
561.685	1	-2
562.025	1	-4
562.365	1	7
562.705	1	-8
563.045	1	5
563.385	1	-18
563.725	1	4
564.064	1	-8
564.404	1	4
564.744	1	4
565.084	1	2
565.424	1	9
565.764	1	-4
566.104	1	7
566.444	1	-11
566.783	1	-6
567.123	1	8
567.463	1	4
567.803	1	-9
568.143	1	1
568.483	1	2
568.823	1	4
569.162	1	6
569.502	1	4
569.842	1	0
570.182	1	-1
570.522	1	-10
570.862	1	-2
571.201	1	9
571.541	1	-1
571.881	1	7
572.221	1	-14
572.561	1	-2
572.900	1	-5
573.240	1	6
573.580	1	-1
573.920	1	-1
574.260	1	2
574.599	1	-2
574.939	1	0
575.279	1	11
575.619	1	9
575.959	1	-10
576.298	1	6
576.638	1	-5
576.978	1	10
577.318	1	-2
577.657	1	0
577.997	1	-5
578.337	1	11
578.677	1	9
579.016	1	0
579.356	1	-12
579.696	1	3
580.036	1	6
580.375	1	-2
580.715	1	-1
581.055	1	-2
581.394	1	1
581.734	1	-7
582.074	1	-7
582.414	1	8
582.753	1	-8
583.093	1	3
583.433	1	-5
583.772	1	4
584.112	1	6
584.452	1	4
584.791	1	-2
585.131	1	4
585.471	1	4
585.811	1	-1
586.150	1	1
586.490	1	1
586.830	1	-4
587.169	1	0
587.509	1	-16
587.849	1	-5
588.188	1	8
588.528	1	3
588.867	1	4
589.207	1	4
589.547	1	3
589.886	1	-2
590.226	1	3
590.566	1	-6
590.905	1	4
591.245	1	-12
591.585	1	-3
591.924	1	-7
592.264	1	5
592.603	1	2
592.943	1	8
593.283	1	-3
593.622	1	-9
593.962	1	7
594.301	1	2
594.641	1	3
594.981	1	-5
595.320	1	-4
595.660	1	-3
595.999	1	-12
596.339	1	-5
596.678	1	-6
597.018	1	-12
597.358	1	3
597.697	1	1
598.037	1	1
598.376	1	2
598.716	1	8
599.055	1	1
599.395	1	-1
599.734	1	6
600.074	1	2
600.413	1	2
600.753	1	-4
601.092	1	9
601.432	1	-8
601.771	1	6
602.111	1	-1
602.451	1	8
602.790	1	-11
603.130	1	-1
603.469	1	-12
603.809	1	-1
604.148	1	1
604.487	1	6
604.827	1	3
605.166	1	-2
605.506	1	3
605.845	1	-5
606.185	1	7
606.524	1	-4
606.864	1	-2
607.203	1	1
607.543	1	-9
607.882	1	-1
608.222	1	1
608.561	1	3
608.901	1	10
609.240	1	-3
609.579	1	11
609.919	1	4
610.258	1	-2
610.598	1	-3
610.937	1	3
611.277	1	3
611.616	1	-1
611.955	1	6
612.295	1	-9
612.634	1	5
612.974	1	-14
613.313	1	11
613.652	1	0
613.992	1	0
614.331	1	11
614.671	1	9
615.010	1	-9
615.349	1	0
615.689	1	15
616.028	1	2
616.368	1	4
616.707	1	-5
617.046	1	-1
617.386	1	0
617.725	1	7
618.064	1	-2
618.404	1	-13
618.743	1	1
619.082	1	9
619.422	1	-11
619.761	1	2
620.100	1	9
620.440	1	5
620.779	1	-6
621.118	1	-3
621.458	1	4
621.797	1	-5
622.136	1	9
622.476	1	-3
622.815	1	6
623.154	1	10
623.494	1	14
623.833	1	9
624.172	1	-3
624.511	1	-2
624.851	1	-5
625.190	1	2
625.529	1	0
625.869	1	6
626.208	1	-2
626.547	1	-2
626.886	1	6
627.226	1	4
627.565	1	13
627.904	1	-5
628.243	1	14
628.583	1	-4
628.922	1	7
629.261	1	-2
629.600	1	17
629.940	1	8
630.279	1	-5
630.618	1	-1
630.957	1	2
631.297	1	-1
631.636	1	-2
631.975	1	11
632.314	1	1
632.653	1	4
632.993	1	-2
633.332	1	0
633.671	1	6
634.010	1	1
634.349	1	7
634.689	1	2
635.028	1	5
635.367	1	0
635.706	1	3
636.045	1	17
636.384	1	-2
636.724	1	4
637.063	1	-1
637.402	1	-4
637.741	1	2
638.080	1	-1
638.419	1	-3
638.759	1	-6
639.098	1	11
639.437	1	4
639.776	1	1
640.115	1	-2
640.454	1	-5
640.793	1	2
641.132	1	14
641.472	1	-1
641.811	1	3
642.150	1	-11
642.489	1	13
642.828	1	-10
643.167	1	-5
643.506	1	-19
643.845	1	3
644.184	1	3
644.524	1	-6
644.863	1	-8
645.202	1	8
645.541	1	6
645.880	1	6
646.219	1	-9
646.558	1	0
646.897	1	1
647.236	1	3
647.575	1	-1
647.914	1	-5
648.253	1	6
648.592	1	-5
648.931	1	14
649.270	1	-7
649.610	1	-3
649.949	1	3
650.288	1	8
650.627	1	4
650.966	1	10
651.305	1	-5
651.644	1	9
651.983	1	0
652.322	1	-4
652.661	1	-2
653.000	1	4
653.339	1	13
653.678	1	-4
654.017	1	-1
654.356	1	0
654.695	1	5
655.034	1	0
655.373	1	6
655.712	1	-2
656.051	1	0
656.390	1	4
656.729	1	4
657.068	1	5
657.406	1	2
657.745	1	-10
658.084	1	5
658.423	1	7
658.762	1	0
659.101	1	5
659.440	1	2
659.779	1	4
660.118	1	3
660.457	1	1
660.796	1	-7
661.135	1	-5
661.474	1	-5
661.813	1	14
662.152	1	2
662.491	1	-3
662.829	1	4
663.168	1	5
663.507	1	11
663.846	1	-1
664.185	1	7
664.524	1	3
664.863	1	-6
665.202	1	8
665.541	1	-7
665.879	1	-10
666.218	1	1
666.557	1	9
666.896	1	-7
667.235	1	0
667.574	1	-2
667.913	1	-1
668.251	1	-3
668.590	1	-1
668.929	1	-9
669.268	1	-5
669.607	1	0
669.946	1	-1
670.285	1	8
670.623	1	4
670.962	1	6
671.301	1	-4
671.640	1	3
671.979	1	0
672.317	1	5
672.656	1	-2
672.995	1	1
673.334	1	-4
673.673	1	-4
674.011	1	3
674.350	1	5
674.689	1	-5
675.028	1	-5
675.367	1	11
675.705	1	3
676.044	1	3
676.383	1	-6
676.722	1	0
677.060	1	2
677.399	1	-4
677.738	1	11
678.077	1	12
678.416	1	2
678.754	1	-4
679.093	1	5
679.432	1	-7
679.771	1	1
680.109	1	14
680.448	1	11
680.787	1	-1
681.125	1	10
681.464	1	3
681.803	1	0
682.142	1	6
682.480	1	6
682.819	1	-8
683.158	1	-5
683.496	1	-3
683.835	1	12
684.174	1	1
684.512	1	7
684.851	1	4
685.190	1	2
685.529	1	-12
685.867	1	1
686.206	1	-1
686.545	1	-7
686.883	1	2
687.222	1	2
687.561	1	5
687.899	1	-5
688.238	1	10
688.577	1	-5
688.746	1	-7