File: Data/GaN_200K_800ms/GaN_sample F_spot 12_UVVIS_200 K_200um_800 ms 2x2mm1_225.txt
340.368	1	16
340.710	1	-4
341.052	1	13
341.394	1	-9
341.737	1	9
342.079	1	4
342.421	1	3
342.763	1	4
343.105	1	5
343.447	1	1
343.789	1	2
344.131	1	1
344.473	1	-5
344.815	1	-3
345.157	1	-10
345.499	1	-5
345.841	1	4
346.183	1	-1
346.526	1	3
346.868	1	8
347.210	1	-9
347.552	1	-13
347.894	1	8
348.236	1	0
348.578	1	3
348.920	1	-1
349.262	1	-1
349.604	1	1
349.946	1	-5
350.288	1	14
350.630	1	0
350.972	1	3
351.314	1	6
351.656	1	8
351.998	1	10
352.340	1	2
352.682	1	12
353.024	1	5
353.366	1	17
353.708	1	2
354.050	1	-2
354.392	1	-2
354.734	1	6
355.076	1	6
355.418	1	-3
355.760	1	-13
356.102	1	7
356.444	1	6
356.785	1	1
357.127	1	3
357.469	1	6
357.811	1	2
358.153	1	13
358.495	1	9
358.837	1	-1
359.179	1	4
359.521	1	13
359.863	1	6
360.205	1	5
360.547	1	7
360.889	1	-5
361.231	1	1
361.572	1	20
361.914	1	6
362.256	1	8
362.598	1	10
362.940	1	7
363.282	1	3
363.624	1	12
363.966	1	14
364.308	1	4
364.649	1	9
364.991	1	15
365.333	1	2
365.675	1	7
366.017	1	19
366.359	1	8
366.701	1	23
367.042	1	20
367.384	1	22
367.726	1	20
368.068	1	20
368.410	1	36
368.752	1	22
369.093	1	21
369.435	1	43
369.777	1	26
370.119	1	29
370.461	1	48
370.803	1	23
371.144	1	16
371.486	1	27
371.828	1	37
372.170	1	30
372.512	1	14
372.853	1	28
373.195	1	32
373.537	1	27
373.879	1	20
374.220	1	21
374.562	1	29
374.904	1	17
375.246	1	19
375.588	1	8
375.929	1	11
376.271	1	16
376.613	1	10
376.955	1	13
377.296	1	14
377.638	1	13
377.980	1	13
378.321	1	3
378.663	1	11
379.005	1	18
379.347	1	14
379.688	1	10
380.030	1	6
380.372	1	4
380.714	1	9
381.055	1	9
381.397	1	1
381.739	1	14
382.080	1	6
382.422	1	19
382.764	1	-1
383.105	1	7
383.447	1	0
383.789	1	10
384.130	1	3
384.472	1	-1
384.814	1	-4
385.156	1	-2
385.497	1	10
385.839	1	4
386.180	1	13
386.522	1	11
386.864	1	6
387.205	1	1
387.547	1	-4
387.889	1	-1
388.230	1	7
388.572	1	-6
388.914	1	-1
389.255	1	1
389.597	1	5
389.939	1	2
390.280	1	-4
390.622	1	3
390.963	1	12
391.305	1	11
391.647	1	-2
391.988	1	6
392.330	1	9
392.671	1	-2
393.013	1	-2
393.355	1	8
393.696	1	3
394.038	1	3
394.379	1	4
394.721	1	-6
395.062	1	9
395.404	1	-10
395.746	1	7
396.087	1	-1
396.429	1	9
396.770	1	2
397.112	1	9
397.453	1	12
397.795	1	-4
398.136	1	-1
398.478	1	2
398.819	1	3
399.161	1	12
399.503	1	1
399.844	1	2
400.186	1	-1
400.527	1	3
400.869	1	-5
401.210	1	9
401.552	1	-4
401.893	1	3
402.235	1	-6
402.576	1	-6
402.918	1	8
403.259	1	1
403.601	1	-6
403.942	1	2
404.284	1	7
404.625	1	5
404.967	1	-7
405.308	1	11
405.649	1	7
405.991	1	-6
406.332	1	8
406.674	1	-1
407.015	1	4
407.357	1	-5
407.698	1	7
408.040	1	-5
408.381	1	0
408.722	1	-16
409.064	1	-1
409.405	1	2
409.747	1	2
410.088	1	5
410.430	1	1
410.771	1	10
411.112	1	-7
411.454	1	-10
411.795	1	-3
412.137	1	1
412.478	1	13
412.819	1	-7
413.161	1	1
413.502	1	4
413.844	1	7
414.185	1	3
414.526	1	2
414.868	1	-2
415.209	1	-1
415.550	1	-3
415.892	1	-3
416.233	1	12
416.575	1	7
416.916	1	-2
417.257	1	-11
417.599	1	3
417.940	1	6
418.281	1	0
418.623	1	-6
418.964	1	-6
419.305	1	-4
419.647	1	1
419.988	1	-3
420.329	1	-10
420.671	1	3
421.012	1	4
421.353	1	3
421.695	1	-5
422.036	1	3
422.377	1	-5
422.718	1	6
423.060	1	0
423.401	1	-4
423.742	1	8
424.084	1	0
424.425	1	6
424.766	1	-4
425.107	1	5
425.449	1	4
425.790	1	-10
426.131	1	-2
426.472	1	-1
426.814	1	3
427.155	1	-8
427.496	1	-5
427.837	1	-2
428.179	1	-10
428.520	1	-2
428.861	1	0
429.202	1	0
429.544	1	1
429.885	1	7
430.226	1	-1
430.567	1	1
430.909	1	6
431.250	1	2
431.591	1	2
431.932	1	2
432.273	1	-4
432.615	1	-14
432.956	1	-4
433.297	1	1
433.638	1	-2
433.979	1	8
434.320	1	5
434.662	1	-10
435.003	1	8
435.344	1	-2
435.685	1	-2
436.026	1	6
436.368	1	-2
436.709	1	-8
437.050	1	-1
437.391	1	7
437.732	1	-5
438.073	1	-10
438.414	1	-12
438.756	1	-7
439.097	1	-4
439.438	1	-5
439.779	1	-1
440.120	1	-5
440.461	1	-2
440.802	1	0
441.143	1	3
441.485	1	5
441.826	1	-6
442.167	1	7
442.508	1	-2
442.849	1	3
443.190	1	2
443.531	1	9
443.872	1	6
444.213	1	6
444.554	1	5
444.895	1	-2
445.237	1	-8
445.578	1	-3
445.919	1	-4
446.260	1	2
446.601	1	-4
446.942	1	1
447.283	1	-6
447.624	1	0
447.965	1	6
448.306	1	-8
448.647	1	-5
448.988	1	-7
449.329	1	11
449.670	1	5
450.011	1	1
450.352	1	1
450.693	1	-14
451.034	1	0
451.375	1	-1
451.716	1	-3
452.057	1	1
452.398	1	0
452.739	1	0
453.080	1	-7
453.421	1	-5
453.762	1	-2
454.103	1	-2
454.444	1	-8
454.785	1	-4
455.126	1	0
455.467	1	1
455.808	1	2
456.149	1	6
456.490	1	-5
456.831	1	7
457.172	1	-5
457.513	1	7
457.854	1	-4
458.195	1	-5
458.536	1	7
458.877	1	-1
459.218	1	-1
459.559	1	-2
459.899	1	-2
460.240	1	7
460.581	1	10
460.922	1	3
461.263	1	-5
461.604	1	-6
461.945	1	-6
462.286	1	0
462.627	1	11
462.968	1	1
463.309	1	-5
463.649	1	-1
463.990	1	-8
464.331	1	3
464.672	1	3
465.013	1	-5
465.354	1	-3
465.695	1	-11
466.036	1	-3
466.376	1	0
466.717	1	7
467.058	1	0
467.399	1	2
467.740	1	-3
468.081	1	6
468.422	1	-2
468.762	1	-6
469.103	1	-15
469.444	1	-1
469.785	1	-12
470.126	1	-3
470.467	1	2
470.807	1	4
471.148	1	5
471.489	1	0
471.830	1	-9
472.171	1	5
472.511	1	-5
472.852	1	-8
473.193	1	2
473.534	1	2
473.875	1	15
474.215	1	12
474.556	1	2
474.897	1	7
475.238	1	2
475.578	1	-4
475.919	1	-4
476.260	1	-1
476.601	1	1
476.942	1	5
477.282	1	-9
477.623	1	-10
477.964	1	0
478.305	1	0
478.645	1	11
478.986	1	-8
479.327	1	-7
479.667	1	-5
480.008	1	-3
480.349	1	-1
480.690	1	1
481.030	1	-3
481.371	1	11
481.712	1	9
482.053	1	-8
482.393	1	-6
482.734	1	-9
483.075	1	0
483.415	1	5
483.756	1	7
484.097	1	-5
484.437	1	-5
484.778	1	1
485.119	1	1
485.459	1	12
485.800	1	1
486.141	1	-7
486.481	1	3
486.822	1	6
487.163	1	-5
487.503	1	6
487.844	1	-2
488.185	1	3
488.525	1	0
488.866	1	9
489.207	1	-2
489.547	1	3
489.888	1	1
490.228	1	0
490.569	1	20
490.910	1	1
491.250	1	-4
491.591	1	-1
491.932	1	0
492.272	1	7
492.613	1	-2
492.953	1	-4
493.294	1	1
493.635	1	2
493.975	1	2
494.316	1	5
494.656	1	0
494.997	1	1
495.337	1	10
495.678	1	-8
496.019	1	2
496.359	1	-6
496.700	1	0
497.040	1	-3
497.381	1	-1
497.721	1	-4
498.062	1	1
498.403	1	9
498.743	1	-1
499.084	1	1
499.424	1	1
499.765	1	-7
500.105	1	3
500.446	1	-7
500.786	1	4
501.127	1	-5
501.467	1	-7
501.808	1	-1
502.148	1	7
502.489	1	0
502.829	1	2
503.170	1	12
503.510	1	14
503.851	1	-5
504.191	1	5
504.532	1	3
504.872	1	-9
505.213	1	13
505.553	1	-7
505.894	1	1
506.234	1	5
506.575	1	6
506.915	1	1
507.256	1	2
507.596	1	7
507.936	1	-1
508.277	1	3
508.617	1	-1
508.958	1	-3
509.298	1	5
509.639	1	1
509.979	1	-2
510.319	1	6
510.660	1	8
511.000	1	-5
511.341	1	4
511.681	1	6
512.022	1	-10
512.362	1	7
512.702	1	7
513.043	1	13
513.383	1	-7
513.724	1	10
514.064	1	8
514.404	1	-8
514.745	1	-2
515.085	1	6
515.425	1	-3
515.766	1	-10
516.106	1	3
516.447	1	12
516.787	1	5
517.127	1	2
517.468	1	-6
517.808	1	-8
518.148	1	11
518.489	1	-4
518.829	1	5
519.169	1	4
519.510	1	-3
519.850	1	2
520.190	1	-2
520.531	1	6
520.871	1	-11
521.211	1	-6
521.552	1	13
521.892	1	6
522.232	1	5
522.573	1	3
522.913	1	10
523.253	1	0
523.593	1	0
523.934	1	-4
524.274	1	1
524.614	1	-1
524.955	1	-7
525.295	1	4
525.635	1	-8
525.975	1	8
526.316	1	10
526.656	1	1
526.996	1	-1
527.337	1	3
527.677	1	2
528.017	1	-8
528.357	1	4
528.698	1	5
529.038	1	3
529.378	1	4
529.718	1	10
530.058	1	3
530.399	1	2
530.739	1	-1
531.079	1	6
531.419	1	2
531.760	1	9
532.100	1	-3
532.440	1	7
532.780	1	6
533.120	1	9
533.461	1	10
533.801	1	12
534.141	1	1
534.481	1	-10
534.821	1	10
535.162	1	7
535.502	1	6
535.842	1	5
536.182	1	8
536.522	1	-3
536.862	1	8
537.203	1	-11
537.543	1	5
537.883	1	-8
538.223	1	1
538.563	1	13
538.903	1	-4
539.243	1	5
539.584	1	6
539.924	1	7
540.264	1	4
540.604	1	7
540.944	1	1
541.284	1	8
541.624	1	12
541.964	1	9
542.305	1	1
542.645	1	-1
542.985	1	1
543.325	1	1
543.665	1	10
544.005	1	8
544.345	1	11
544.685	1	5
545.025	1	-3
545.365	1	2
545.705	1	5
546.045	1	-2
546.386	1	8
546.726	1	-9
547.066	1	5
547.406	1	0
547.746	1	-8
548.086	1	0
548.426	1	-2
548.766	1	7
549.106	1	3
549.446	1	8
549.786	1	4
550.126	1	21
550.466	1	7
550.806	1	9
551.146	1	0
551.486	1	2
551.826	1	1
552.166	1	9
552.506	1	9
552.846	1	9
553.186	1	6
553.526	1	-2
553.866	1	-3
554.206	1	5
554.546	1	2
554.886	1	1
555.226	1	-5
555.566	1	7
555.906	1	9
556.246	1	3
556.586	1	7
556.926	1	5
557.266	1	-6
557.606	1	4
557.946	1	7
558.286	1	9
558.626	1	10
558.966	1	2
559.306	1	6
559.646	1	-7
559.986	1	2
560.325	1	1
560.665	1	5
561.005	1	2
561.345	1	8
561.685	1	5
562.025	1	5
562.365	1	7
562.705	1	0
563.045	1	-3
563.385	1	-9
563.725	1	7
564.064	1	-4
564.404	1	15
564.744	1	6
565.084	1	-2
565.424	1	13
565.764	1	7
566.104	1	1
566.444	1	-3
566.783	1	-1
567.123	1	8
567.463	1	7
567.803	1	-5
568.143	1	2
568.483	1	2
568.823	1	0
569.162	1	3
569.502	1	-2
569.842	1	7
570.182	1	6
570.522	1	-2
570.862	1	-10
571.201	1	5
571.541	1	2
571.881	1	13
572.221	1	5
572.561	1	-1
572.900	1	-3
573.240	1	7
573.580	1	6
573.920	1	8
574.260	1	5
574.599	1	6
574.939	1	6
575.279	1	14
575.619	1	16
575.959	1	-1
576.298	1	5
576.638	1	1
576.978	1	12
577.318	1	7
577.657	1	0
577.997	1	3
578.337	1	16
578.677	1	11
579.016	1	-1
579.356	1	-3
579.696	1	17
580.036	1	9
580.375	1	10
580.715	1	8
581.055	1	2
581.394	1	0
581.734	1	0
582.074	1	-6
582.414	1	14
582.753	1	-8
583.093	1	-1
583.433	1	2
583.772	1	6
584.112	1	0
584.452	1	2
584.791	1	-3
585.131	1	-3
585.471	1	15
585.811	1	6
586.150	1	3
586.490	1	4
586.830	1	7
587.169	1	2
587.509	1	-1
587.849	1	-2
588.188	1	8
588.528	1	-2
588.867	1	11
589.207	1	11
589.547	1	13
589.886	1	-1
590.226	1	9
590.566	1	-1
590.905	1	7
591.245	1	-3
591.585	1	0
591.924	1	6
592.264	1	14
592.603	1	5
592.943	1	5
593.283	1	-2
593.622	1	5
593.962	1	8
594.301	1	4
594.641	1	4
594.981	1	-6
595.320	1	7
595.660	1	-1
595.999	1	-8
596.339	1	7
596.678	1	-2
597.018	1	1
597.358	1	-1
597.697	1	-1
598.037	1	3
598.376	1	8
598.716	1	3
599.055	1	-1
599.395	1	-1
599.734	1	-6
600.074	1	9
600.413	1	9
600.753	1	5
601.092	1	11
601.432	1	7
601.771	1	-1
602.111	1	4
602.451	1	10
602.790	1	0
603.130	1	0
603.469	1	-6
603.809	1	13
604.148	1	4
604.487	1	-1
604.827	1	9
605.166	1	-1
605.506	1	-1
605.845	1	10
606.185	1	7
606.524	1	10
606.864	1	-5
607.203	1	4
607.543	1	6
607.882	1	9
608.222	1	0
608.561	1	0
608.901	1	8
609.240	1	1
609.579	1	14
609.919	1	9
610.258	1	14
610.598	1	1
610.937	1	2
611.277	1	4
611.616	1	-3
611.955	1	-2
612.295	1	2
612.634	1	0
612.974	1	-3
613.313	1	9
613.652	1	10
613.992	1	2
614.331	1	4
614.671	1	11
615.010	1	9
615.349	1	6
615.689	1	14
616.028	1	2
616.368	1	3
616.707	1	11
617.046	1	3
617.386	1	11
617.725	1	-5
618.064	1	5
618.404	1	1
618.743	1	9
619.082	1	7
619.422	1	-2
619.761	1	8
620.100	1	13
620.440	1	8
620.779	1	-2
621.118	1	4
621.458	1	-3
621.797	1	-3
622.136	1	6
622.476	1	6
622.815	1	14
623.154	1	0
623.494	1	9
623.833	1	11
624.172	1	8
624.511	1	-7
624.851	1	-6
625.190	1	5
625.529	1	7
625.869	1	13
626.208	1	2
626.547	1	-2
626.886	1	3
627.226	1	11
627.565	1	5
627.904	1	-1
628.243	1	7
628.583	1	-1
628.922	1	8
629.261	1	6
629.600	1	10
629.940	1	9
630.279	1	-8
630.618	1	6
630.957	1	1
631.297	1	3
631.636	1	0
631.975	1	4
632.314	1	3
632.653	1	5
632.993	1	-5
633.332	1	3
633.671	1	-6
634.010	1	-4
634.349	1	14
634.689	1	7
635.028	1	10
635.367	1	7
635.706	1	2
636.045	1	6
636.384	1	-5
636.724	1	-2
637.063	1	-1
637.402	1	9
637.741	1	4
638.080	1	-3
638.419	1	1
638.759	1	5
639.098	1	8
639.437	1	7
639.776	1	-3
640.115	1	-3
640.454	1	1
640.793	1	0
641.132	1	8
641.472	1	4
641.811	1	4
642.150	1	-13
642.489	1	2
642.828	1	-9
643.167	1	-11
643.506	1	-11
643.845	1	3
644.184	1	3
644.524	1	-8
644.863	1	-5
645.202	1	0
645.541	1	7
645.880	1	11
646.219	1	-1
646.558	1	-2
646.897	1	8
647.236	1	-2
647.575	1	3
647.914	1	-5
648.253	1	3
648.592	1	6
648.931	1	9
649.270	1	3
649.610	1	5
649.949	1	3
650.288	1	10
650.627	1	-2
650.966	1	6
651.305	1	-5
651.644	1	16
651.983	1	6
652.322	1	-4
652.661	1	-1
653.000	1	-1
653.339	1	9
653.678	1	2
654.017	1	0
654.356	1	-4
654.695	1	10
655.034	1	1
655.373	1	6
655.712	1	3
656.051	1	-1
656.390	1	1
656.729	1	13
657.068	1	-3
657.406	1	2
657.745	1	-7
658.084	1	6
658.423	1	5
658.762	1	-9
659.101	1	4
659.440	1	2
659.779	1	6
660.118	1	7
660.457	1	2
660.796	1	-10
661.135	1	0
661.474	1	2
661.813	1	11
662.152	1	11
662.491	1	-7
662.829	1	2
663.168	1	3
663.507	1	7
663.846	1	-6
664.185	1	8
664.524	1	4
664.863	1	-2
665.202	1	3
665.541	1	-14
665.879	1	-4
666.218	1	-10
666.557	1	2
666.896	1	7
667.235	1	8
667.574	1	0
667.913	1	5
668.251	1	-3
668.590	1	5
668.929	1	-7
669.268	1	-4
669.607	1	-2
669.946	1	-2
670.285	1	-10
670.623	1	1
670.962	1	-4
671.301	1	0
671.640	1	0
671.979	1	0
672.317	1	5
672.656	1	9
672.995	1	11
673.334	1	-8
673.673	1	1
674.011	1	6
674.350	1	11
674.689	1	-4
675.028	1	0
675.367	1	3
675.705	1	16
676.044	1	-1
676.383	1	2
676.722	1	4
677.060	1	1
677.399	1	1
677.738	1	9
678.077	1	7
678.416	1	6
678.754	1	0
679.093	1	8
679.432	1	1
679.771	1	-8
680.109	1	12
680.448	1	-3
680.787	1	-3
681.125	1	6
681.464	1	-1
681.803	1	1
682.142	1	11
682.480	1	19
682.819	1	2
683.158	1	-3
683.496	1	-1
683.835	1	10
684.174	1	5
684.512	1	3
684.851	1	6
685.190	1	7
685.529	1	-1
685.867	1	-5
686.206	1	1
686.545	1	-4
686.883	1	-2
687.222	1	4
687.561	1	0
687.899	1	6
688.238	1	0
688.577	1	-9
688.746	1	0