File: Data/GaN_200K_800ms/GaN_sample F_spot 12_UVVIS_200 K_200um_800 ms 2x2mm1_316.txt
340.368	1	-6
340.710	1	-12
341.052	1	0
341.394	1	-6
341.737	1	7
342.079	1	0
342.421	1	3
342.763	1	4
343.105	1	-4
343.447	1	-10
343.789	1	-10
344.131	1	-8
344.473	1	-4
344.815	1	-4
345.157	1	-7
345.499	1	-1
345.841	1	-2
346.183	1	0
346.526	1	-6
346.868	1	4
347.210	1	-9
347.552	1	-2
347.894	1	9
348.236	1	10
348.578	1	-5
348.920	1	-2
349.262	1	-1
349.604	1	3
349.946	1	-7
350.288	1	15
350.630	1	5
350.972	1	2
351.314	1	2
351.656	1	3
351.998	1	-1
352.340	1	4
352.682	1	0
353.024	1	1
353.366	1	5
353.708	1	-2
354.050	1	-11
354.392	1	-6
354.734	1	0
355.076	1	0
355.418	1	-12
355.760	1	-4
356.102	1	9
356.444	1	1
356.785	1	6
357.127	1	5
357.469	1	4
357.811	1	9
358.153	1	6
358.495	1	6
358.837	1	2
359.179	1	-3
359.521	1	5
359.863	1	2
360.205	1	-2
360.547	1	4
360.889	1	-12
361.231	1	2
361.572	1	9
361.914	1	5
362.256	1	11
362.598	1	-3
362.940	1	7
363.282	1	4
363.624	1	19
363.966	1	3
364.308	1	9
364.649	1	9
364.991	1	5
365.333	1	-4
365.675	1	1
366.017	1	8
366.359	1	16
366.701	1	17
367.042	1	10
367.384	1	31
367.726	1	19
368.068	1	8
368.410	1	12
368.752	1	2
369.093	1	4
369.435	1	14
369.777	1	9
370.119	1	16
370.461	1	28
370.803	1	19
371.144	1	6
371.486	1	22
371.828	1	19
372.170	1	17
372.512	1	0
372.853	1	16
373.195	1	14
373.537	1	10
373.879	1	7
374.220	1	22
374.562	1	14
374.904	1	13
375.246	1	8
375.588	1	11
375.929	1	15
376.271	1	8
376.613	1	4
376.955	1	-1
377.296	1	-3
377.638	1	6
377.980	1	12
378.321	1	-7
378.663	1	-1
379.005	1	5
379.347	1	9
379.688	1	10
380.030	1	1
380.372	1	0
380.714	1	2
381.055	1	4
381.397	1	4
381.739	1	2
382.080	1	8
382.422	1	8
382.764	1	1
383.105	1	1
383.447	1	-2
383.789	1	2
384.130	1	3
384.472	1	1
384.814	1	3
385.156	1	-9
385.497	1	8
385.839	1	1
386.180	1	5
386.522	1	9
386.864	1	3
387.205	1	-6
387.547	1	-3
387.889	1	-2
388.230	1	15
388.572	1	6
388.914	1	3
389.255	1	-9
389.597	1	2
389.939	1	-3
390.280	1	5
390.622	1	5
390.963	1	10
391.305	1	5
391.647	1	7
391.988	1	9
392.330	1	6
392.671	1	-3
393.013	1	-5
393.355	1	0
393.696	1	-1
394.038	1	-3
394.379	1	0
394.721	1	-12
395.062	1	3
395.404	1	5
395.746	1	3
396.087	1	0
396.429	1	-3
396.770	1	-4
397.112	1	7
397.453	1	12
397.795	1	9
398.136	1	-7
398.478	1	5
398.819	1	6
399.161	1	9
399.503	1	3
399.844	1	9
400.186	1	-1
400.527	1	8
400.869	1	-4
401.210	1	-4
401.552	1	-6
401.893	1	1
402.235	1	-2
402.576	1	1
402.918	1	8
403.259	1	2
403.601	1	-8
403.942	1	11
404.284	1	11
404.625	1	-1
404.967	1	-2
405.308	1	-3
405.649	1	8
405.991	1	-3
406.332	1	4
406.674	1	1
407.015	1	0
407.357	1	-1
407.698	1	11
408.040	1	-5
408.381	1	0
408.722	1	-13
409.064	1	5
409.405	1	0
409.747	1	4
410.088	1	-4
410.430	1	1
410.771	1	4
411.112	1	-1
411.454	1	-10
411.795	1	-7
412.137	1	3
412.478	1	8
412.819	1	3
413.161	1	-7
413.502	1	2
413.844	1	-2
414.185	1	9
414.526	1	-2
414.868	1	5
415.209	1	-5
415.550	1	-5
415.892	1	0
416.233	1	5
416.575	1	1
416.916	1	3
417.257	1	-6
417.599	1	2
417.940	1	3
418.281	1	3
418.623	1	-1
418.964	1	-8
419.305	1	11
419.647	1	-7
419.988	1	-2
420.329	1	-8
420.671	1	4
421.012	1	-1
421.353	1	3
421.695	1	1
422.036	1	6
422.377	1	6
422.718	1	8
423.060	1	-3
423.401	1	5
423.742	1	0
424.084	1	-9
424.425	1	-4
424.766	1	1
425.107	1	-8
425.449	1	7
425.790	1	-13
426.131	1	0
426.472	1	4
426.814	1	-5
427.155	1	-6
427.496	1	-4
427.837	1	-3
428.179	1	-4
428.520	1	5
428.861	1	3
429.202	1	1
429.544	1	-8
429.885	1	1
430.226	1	-3
430.567	1	3
430.909	1	4
431.250	1	-3
431.591	1	4
431.932	1	-6
432.273	1	-3
432.615	1	1
432.956	1	-5
433.297	1	-1
433.638	1	0
433.979	1	1
434.320	1	0
434.662	1	-2
435.003	1	6
435.344	1	4
435.685	1	-3
436.026	1	8
436.368	1	-6
436.709	1	-6
437.050	1	-3
437.391	1	14
437.732	1	-9
438.073	1	-4
438.414	1	-6
438.756	1	-4
439.097	1	-6
439.438	1	2
439.779	1	-9
440.120	1	-1
440.461	1	0
440.802	1	-11
441.143	1	13
441.485	1	4
441.826	1	3
442.167	1	-2
442.508	1	-10
442.849	1	9
443.190	1	-2
443.531	1	7
443.872	1	-2
444.213	1	3
444.554	1	8
444.895	1	-8
445.237	1	-1
445.578	1	-11
445.919	1	-5
446.260	1	-10
446.601	1	-7
446.942	1	1
447.283	1	3
447.624	1	1
447.965	1	-2
448.306	1	-1
448.647	1	-15
448.988	1	-7
449.329	1	-5
449.670	1	9
450.011	1	0
450.352	1	-4
450.693	1	-3
451.034	1	-11
451.375	1	-7
451.716	1	5
452.057	1	-3
452.398	1	-3
452.739	1	8
453.080	1	-7
453.421	1	4
453.762	1	-5
454.103	1	-2
454.444	1	-1
454.785	1	-7
455.126	1	3
455.467	1	0
455.808	1	-7
456.149	1	2
456.490	1	0
456.831	1	5
457.172	1	-3
457.513	1	-1
457.854	1	0
458.195	1	1
458.536	1	10
458.877	1	-4
459.218	1	-5
459.559	1	-1
459.899	1	-1
460.240	1	-2
460.581	1	6
460.922	1	0
461.263	1	-5
461.604	1	-2
461.945	1	1
462.286	1	1
462.627	1	2
462.968	1	4
463.309	1	-5
463.649	1	3
463.990	1	4
464.331	1	3
464.672	1	3
465.013	1	-8
465.354	1	4
465.695	1	-5
466.036	1	-7
466.376	1	-15
466.717	1	0
467.058	1	-9
467.399	1	2
467.740	1	-2
468.081	1	-8
468.422	1	-4
468.762	1	1
469.103	1	-16
469.444	1	-10
469.785	1	-18
470.126	1	-12
470.467	1	1
470.807	1	2
471.148	1	3
471.489	1	-8
471.830	1	-7
472.171	1	6
472.511	1	-11
472.852	1	-1
473.193	1	8
473.534	1	8
473.875	1	5
474.215	1	4
474.556	1	3
474.897	1	0
475.238	1	1
475.578	1	1
475.919	1	0
476.260	1	3
476.601	1	-1
476.942	1	14
477.282	1	0
477.623	1	-13
477.964	1	-6
478.305	1	-5
478.645	1	6
478.986	1	4
479.327	1	-13
479.667	1	-6
480.008	1	-6
480.349	1	-11
480.690	1	5
481.030	1	-9
481.371	1	8
481.712	1	5
482.053	1	4
482.393	1	-6
482.734	1	-6
483.075	1	-8
483.415	1	-7
483.756	1	4
484.097	1	0
484.437	1	-13
484.778	1	0
485.119	1	-5
485.459	1	10
485.800	1	2
486.141	1	0
486.481	1	-2
486.822	1	5
487.163	1	1
487.503	1	7
487.844	1	-1
488.185	1	0
488.525	1	1
488.866	1	2
489.207	1	-5
489.547	1	-10
489.888	1	-10
490.228	1	6
490.569	1	13
490.910	1	-2
491.250	1	-8
491.591	1	-8
491.932	1	6
492.272	1	0
492.613	1	-10
492.953	1	-4
493.294	1	-3
493.635	1	-5
493.975	1	1
494.316	1	3
494.656	1	-8
494.997	1	-3
495.337	1	6
495.678	1	-4
496.019	1	1
496.359	1	-6
496.700	1	-1
497.040	1	-5
497.381	1	2
497.721	1	-6
498.062	1	4
498.403	1	-2
498.743	1	-4
499.084	1	0
499.424	1	1
499.765	1	-5
500.105	1	8
500.446	1	-3
500.786	1	-12
501.127	1	11
501.467	1	0
501.808	1	3
502.148	1	5
502.489	1	0
502.829	1	5
503.170	1	6
503.510	1	2
503.851	1	0
504.191	1	4
504.532	1	0
504.872	1	-1
505.213	1	10
505.553	1	-4
505.894	1	-5
506.234	1	7
506.575	1	-3
506.915	1	9
507.256	1	8
507.596	1	4
507.936	1	-3
508.277	1	-4
508.617	1	1
508.958	1	-13
509.298	1	-5
509.639	1	-3
509.979	1	2
510.319	1	3
510.660	1	-1
511.000	1	-3
511.341	1	1
511.681	1	14
512.022	1	-4
512.362	1	-9
512.702	1	2
513.043	1	7
513.383	1	-12
513.724	1	7
514.064	1	4
514.404	1	-2
514.745	1	6
515.085	1	-9
515.425	1	-5
515.766	1	-10
516.106	1	0
516.447	1	10
516.787	1	4
517.127	1	0
517.468	1	-3
517.808	1	-6
518.148	1	5
518.489	1	-2
518.829	1	-4
519.169	1	-7
519.510	1	7
519.850	1	11
520.190	1	-11
520.531	1	3
520.871	1	-2
521.211	1	-9
521.552	1	8
521.892	1	-4
522.232	1	-2
522.573	1	-6
522.913	1	4
523.253	1	8
523.593	1	1
523.934	1	4
524.274	1	7
524.614	1	4
524.955	1	-7
525.295	1	-2
525.635	1	3
525.975	1	4
526.316	1	14
526.656	1	7
526.996	1	3
527.337	1	0
527.677	1	-7
528.017	1	-2
528.357	1	1
528.698	1	6
529.038	1	1
529.378	1	6
529.718	1	7
530.058	1	-7
530.399	1	8
530.739	1	1
531.079	1	8
531.419	1	1
531.760	1	11
532.100	1	2
532.440	1	-1
532.780	1	-1
533.120	1	6
533.461	1	3
533.801	1	18
534.141	1	-7
534.481	1	-11
534.821	1	1
535.162	1	5
535.502	1	-9
535.842	1	2
536.182	1	4
536.522	1	3
536.862	1	5
537.203	1	-6
537.543	1	-5
537.883	1	10
538.223	1	12
538.563	1	1
538.903	1	-10
539.243	1	-2
539.584	1	-9
539.924	1	6
540.264	1	-8
540.604	1	7
540.944	1	4
541.284	1	13
541.624	1	8
541.964	1	10
542.305	1	2
542.645	1	7
542.985	1	-2
543.325	1	5
543.665	1	12
544.005	1	12
544.345	1	3
544.685	1	1
545.025	1	3
545.365	1	-1
545.705	1	-3
546.045	1	-5
546.386	1	4
546.726	1	-10
547.066	1	12
547.406	1	-1
547.746	1	-11
548.086	1	-5
548.426	1	-7
548.766	1	3
549.106	1	2
549.446	1	-8
549.786	1	-2
550.126	1	19
550.466	1	3
550.806	1	-10
551.146	1	0
551.486	1	-1
551.826	1	1
552.166	1	3
552.506	1	5
552.846	1	2
553.186	1	6
553.526	1	-6
553.866	1	5
554.206	1	12
554.546	1	1
554.886	1	7
555.226	1	-7
555.566	1	7
555.906	1	1
556.246	1	-2
556.586	1	-3
556.926	1	-1
557.266	1	-8
557.606	1	5
557.946	1	7
558.286	1	4
558.626	1	3
558.966	1	0
559.306	1	-3
559.646	1	-5
559.986	1	4
560.325	1	-3
560.665	1	3
561.005	1	-3
561.345	1	0
561.685	1	-4
562.025	1	-1
562.365	1	9
562.705	1	-2
563.045	1	-2
563.385	1	-17
563.725	1	1
564.064	1	5
564.404	1	-3
564.744	1	8
565.084	1	-3
565.424	1	5
565.764	1	1
566.104	1	0
566.444	1	-3
566.783	1	-10
567.123	1	6
567.463	1	3
567.803	1	0
568.143	1	2
568.483	1	6
568.823	1	3
569.162	1	10
569.502	1	0
569.842	1	4
570.182	1	-1
570.522	1	-9
570.862	1	0
571.201	1	12
571.541	1	1
571.881	1	11
572.221	1	-5
572.561	1	0
572.900	1	-2
573.240	1	3
573.580	1	1
573.920	1	0
574.260	1	8
574.599	1	-4
574.939	1	-2
575.279	1	2
575.619	1	4
575.959	1	-5
576.298	1	16
576.638	1	-3
576.978	1	1
577.318	1	7
577.657	1	0
577.997	1	-1
578.337	1	15
578.677	1	-6
579.016	1	8
579.356	1	2
579.696	1	-3
580.036	1	-1
580.375	1	10
580.715	1	0
581.055	1	-2
581.394	1	0
581.734	1	-3
582.074	1	2
582.414	1	13
582.753	1	2
583.093	1	-9
583.433	1	-5
583.772	1	4
584.112	1	-1
584.452	1	1
584.791	1	-1
585.131	1	8
585.471	1	13
585.811	1	4
586.150	1	-1
586.490	1	0
586.830	1	-3
587.169	1	4
587.509	1	4
587.849	1	4
588.188	1	5
588.528	1	-2
588.867	1	5
589.207	1	1
589.547	1	4
589.886	1	2
590.226	1	11
590.566	1	-8
590.905	1	1
591.245	1	4
591.585	1	12
591.924	1	1
592.264	1	4
592.603	1	-5
592.943	1	-4
593.283	1	5
593.622	1	-2
593.962	1	4
594.301	1	6
594.641	1	2
594.981	1	1
595.320	1	-1
595.660	1	1
595.999	1	-5
596.339	1	12
596.678	1	-5
597.018	1	-9
597.358	1	-1
597.697	1	1
598.037	1	-1
598.376	1	4
598.716	1	9
599.055	1	5
599.395	1	-3
599.734	1	-2
600.074	1	1
600.413	1	5
600.753	1	4
601.092	1	17
601.432	1	-11
601.771	1	-1
602.111	1	-6
602.451	1	4
602.790	1	4
603.130	1	-4
603.469	1	-13
603.809	1	5
604.148	1	0
604.487	1	-13
604.827	1	5
605.166	1	5
605.506	1	-4
605.845	1	-5
606.185	1	11
606.524	1	2
606.864	1	7
607.203	1	-5
607.543	1	-8
607.882	1	11
608.222	1	11
608.561	1	-5
608.901	1	3
609.240	1	-5
609.579	1	11
609.919	1	7
610.258	1	5
610.598	1	2
610.937	1	3
611.277	1	-1
611.616	1	-5
611.955	1	1
612.295	1	-3
612.634	1	-6
612.974	1	-13
613.313	1	-1
613.652	1	3
613.992	1	-2
614.331	1	-8
614.671	1	-2
615.010	1	-4
615.349	1	1
615.689	1	9
616.028	1	-6
616.368	1	2
616.707	1	11
617.046	1	8
617.386	1	2
617.725	1	-7
618.064	1	-10
618.404	1	-4
618.743	1	7
619.082	1	3
619.422	1	-7
619.761	1	4
620.100	1	6
620.440	1	3
620.779	1	-4
621.118	1	0
621.458	1	-2
621.797	1	5
622.136	1	7
622.476	1	11
622.815	1	6
623.154	1	9
623.494	1	2
623.833	1	5
624.172	1	-3
624.511	1	-2
624.851	1	-6
625.190	1	0
625.529	1	1
625.869	1	5
626.208	1	-2
626.547	1	0
626.886	1	-1
627.226	1	5
627.565	1	0
627.904	1	-7
628.243	1	5
628.583	1	1
628.922	1	-1
629.261	1	2
629.600	1	3
629.940	1	-9
630.279	1	-8
630.618	1	-5
630.957	1	2
631.297	1	3
631.636	1	-9
631.975	1	11
632.314	1	-4
632.653	1	-1
632.993	1	-10
633.332	1	3
633.671	1	-6
634.010	1	-4
634.349	1	4
634.689	1	2
635.028	1	4
635.367	1	0
635.706	1	1
636.045	1	6
636.384	1	-3
636.724	1	8
637.063	1	1
637.402	1	-6
637.741	1	-5
638.080	1	-3
638.419	1	-4
638.759	1	-5
639.098	1	11
639.437	1	-6
639.776	1	-7
640.115	1	6
640.454	1	-7
640.793	1	14
641.132	1	8
641.472	1	7
641.811	1	-1
642.150	1	-3
642.489	1	1
642.828	1	-5
643.167	1	-9
643.506	1	-4
643.845	1	-8
644.184	1	1
644.524	1	-2
644.863	1	-14
645.202	1	3
645.541	1	2
645.880	1	-2
646.219	1	3
646.558	1	-1
646.897	1	1
647.236	1	4
647.575	1	3
647.914	1	-6
648.253	1	6
648.592	1	2
648.931	1	8
649.270	1	7
649.610	1	5
649.949	1	-2
650.288	1	7
650.627	1	-4
650.966	1	4
651.305	1	3
651.644	1	10
651.983	1	-2
652.322	1	0
652.661	1	-2
653.000	1	-11
653.339	1	7
653.678	1	-6
654.017	1	-6
654.356	1	-7
654.695	1	1
655.034	1	7
655.373	1	4
655.712	1	3
656.051	1	-1
656.390	1	-6
656.729	1	7
657.068	1	-4
657.406	1	2
657.745	1	-4
658.084	1	-3
658.423	1	10
658.762	1	-6
659.101	1	8
659.440	1	5
659.779	1	3
660.118	1	3
660.457	1	10
660.796	1	-2
661.135	1	-4
661.474	1	3
661.813	1	10
662.152	1	2
662.491	1	-1
662.829	1	-14
663.168	1	3
663.507	1	0
663.846	1	-3
664.185	1	7
664.524	1	3
664.863	1	1
665.202	1	3
665.541	1	-8
665.879	1	-1
666.218	1	-9
666.557	1	-4
666.896	1	-9
667.235	1	4
667.574	1	-4
667.913	1	-6
668.251	1	-3
668.590	1	-3
668.929	1	-8
669.268	1	-11
669.607	1	-12
669.946	1	3
670.285	1	11
670.623	1	-1
670.962	1	1
671.301	1	-7
671.640	1	-1
671.979	1	-5
672.317	1	13
672.656	1	-2
672.995	1	1
673.334	1	-7
673.673	1	10
674.011	1	-1
674.350	1	-1
674.689	1	4
675.028	1	-4
675.367	1	4
675.705	1	9
676.044	1	1
676.383	1	1
676.722	1	9
677.060	1	-4
677.399	1	-11
677.738	1	6
678.077	1	13
678.416	1	1
678.754	1	-9
679.093	1	3
679.432	1	4
679.771	1	-2
680.109	1	9
680.448	1	0
680.787	1	-10
681.125	1	7
681.464	1	1
681.803	1	-8
682.142	1	14
682.480	1	5
682.819	1	0
683.158	1	-5
683.496	1	-3
683.835	1	-6
684.174	1	4
684.512	1	1
684.851	1	0
685.190	1	2
685.529	1	1
685.867	1	-4
686.206	1	-5
686.545	1	-1
686.883	1	-1
687.222	1	0
687.561	1	3
687.899	1	3
688.238	1	1
688.577	1	-3
688.746	1	3