File: Data/GaN_200K_800ms/GaN_sample F_spot 12_UVVIS_200 K_200um_800 ms 2x2mm1_539.txt
340.368	1	2
340.710	1	-12
341.052	1	2
341.394	1	-8
341.737	1	12
342.079	1	-5
342.421	1	-2
342.763	1	4
343.105	1	2
343.447	1	-1
343.789	1	-6
344.131	1	-4
344.473	1	-6
344.815	1	-10
345.157	1	-7
345.499	1	-3
345.841	1	2
346.183	1	-4
346.526	1	-8
346.868	1	-6
347.210	1	-8
347.552	1	-6
347.894	1	-6
348.236	1	4
348.578	1	0
348.920	1	10
349.262	1	1
349.604	1	1
349.946	1	-4
350.288	1	6
350.630	1	0
350.972	1	-11
351.314	1	4
351.656	1	-1
351.998	1	-1
352.340	1	8
352.682	1	-4
353.024	1	-3
353.366	1	4
353.708	1	-5
354.050	1	-3
354.392	1	-4
354.734	1	-1
355.076	1	-7
355.418	1	-16
355.760	1	5
356.102	1	14
356.444	1	-4
356.785	1	13
357.127	1	-1
357.469	1	2
357.811	1	-2
358.153	1	1
358.495	1	1
358.837	1	5
359.179	1	6
359.521	1	5
359.863	1	3
360.205	1	-8
360.547	1	2
360.889	1	-1
361.231	1	-4
361.572	1	6
361.914	1	1
362.256	1	6
362.598	1	4
362.940	1	-5
363.282	1	-3
363.624	1	0
363.966	1	-3
364.308	1	6
364.649	1	6
364.991	1	0
365.333	1	1
365.675	1	-5
366.017	1	4
366.359	1	-1
366.701	1	0
367.042	1	4
367.384	1	8
367.726	1	11
368.068	1	7
368.410	1	12
368.752	1	2
369.093	1	1
369.435	1	8
369.777	1	0
370.119	1	1
370.461	1	8
370.803	1	5
371.144	1	6
371.486	1	6
371.828	1	9
372.170	1	12
372.512	1	8
372.853	1	6
373.195	1	1
373.537	1	11
373.879	1	-6
374.220	1	20
374.562	1	10
374.904	1	0
375.246	1	6
375.588	1	5
375.929	1	3
376.271	1	-5
376.613	1	-3
376.955	1	-7
377.296	1	2
377.638	1	6
377.980	1	5
378.321	1	-4
378.663	1	-5
379.005	1	11
379.347	1	6
379.688	1	10
380.030	1	-5
380.372	1	-2
380.714	1	5
381.055	1	11
381.397	1	-1
381.739	1	-3
382.080	1	-5
382.422	1	0
382.764	1	-2
383.105	1	-9
383.447	1	-5
383.789	1	-2
384.130	1	-6
384.472	1	1
384.814	1	-13
385.156	1	-6
385.497	1	5
385.839	1	-6
386.180	1	-2
386.522	1	5
386.864	1	1
387.205	1	2
387.547	1	0
387.889	1	2
388.230	1	7
388.572	1	-11
388.914	1	3
389.255	1	0
389.597	1	0
389.939	1	-3
390.280	1	-6
390.622	1	-6
390.963	1	10
391.305	1	5
391.647	1	5
391.988	1	-2
392.330	1	3
392.671	1	-2
393.013	1	-3
393.355	1	2
393.696	1	-2
394.038	1	-4
394.379	1	3
394.721	1	-5
395.062	1	1
395.404	1	-6
395.746	1	4
396.087	1	1
396.429	1	0
396.770	1	-9
397.112	1	4
397.453	1	5
397.795	1	1
398.136	1	-7
398.478	1	-2
398.819	1	1
399.161	1	4
399.503	1	-13
399.844	1	-5
400.186	1	1
400.527	1	-2
400.869	1	-6
401.210	1	-2
401.552	1	-13
401.893	1	-6
402.235	1	-9
402.576	1	-4
402.918	1	6
403.259	1	8
403.601	1	-2
403.942	1	11
404.284	1	5
404.625	1	7
404.967	1	-1
405.308	1	1
405.649	1	2
405.991	1	-7
406.332	1	3
406.674	1	-10
407.015	1	1
407.357	1	-3
407.698	1	6
408.040	1	-10
408.381	1	1
408.722	1	-15
409.064	1	5
409.405	1	10
409.747	1	-4
410.088	1	1
410.430	1	4
410.771	1	-2
411.112	1	-4
411.454	1	-4
411.795	1	-2
412.137	1	2
412.478	1	9
412.819	1	-7
413.161	1	-3
413.502	1	-8
413.844	1	6
414.185	1	-3
414.526	1	3
414.868	1	6
415.209	1	-14
415.550	1	-8
415.892	1	-5
416.233	1	5
416.575	1	8
416.916	1	-5
417.257	1	-1
417.599	1	10
417.940	1	10
418.281	1	10
418.623	1	-9
418.964	1	-17
419.305	1	0
419.647	1	-2
419.988	1	-10
420.329	1	-8
420.671	1	-5
421.012	1	3
421.353	1	-3
421.695	1	-4
422.036	1	-2
422.377	1	-2
422.718	1	5
423.060	1	-12
423.401	1	-4
423.742	1	-6
424.084	1	0
424.425	1	2
424.766	1	-6
425.107	1	-3
425.449	1	6
425.790	1	-1
426.131	1	3
426.472	1	4
426.814	1	6
427.155	1	-12
427.496	1	-3
427.837	1	-8
428.179	1	-6
428.520	1	-9
428.861	1	3
429.202	1	-7
429.544	1	3
429.885	1	-5
430.226	1	-5
430.567	1	10
430.909	1	8
431.250	1	-6
431.591	1	4
431.932	1	-5
432.273	1	-6
432.615	1	-5
432.956	1	-12
433.297	1	4
433.638	1	0
433.979	1	4
434.320	1	2
434.662	1	4
435.003	1	3
435.344	1	2
435.685	1	-5
436.026	1	-4
436.368	1	3
436.709	1	-3
437.050	1	-14
437.391	1	2
437.732	1	-6
438.073	1	1
438.414	1	-10
438.756	1	-8
439.097	1	-12
439.438	1	-1
439.779	1	1
440.120	1	-5
440.461	1	-2
440.802	1	-4
441.143	1	5
441.485	1	-11
441.826	1	3
442.167	1	-5
442.508	1	-8
442.849	1	7
443.190	1	2
443.531	1	5
443.872	1	5
444.213	1	4
444.554	1	13
444.895	1	-5
445.237	1	-6
445.578	1	-8
445.919	1	-10
446.260	1	0
446.601	1	-4
446.942	1	2
447.283	1	1
447.624	1	5
447.965	1	2
448.306	1	6
448.647	1	3
448.988	1	-1
449.329	1	-10
449.670	1	6
450.011	1	2
450.352	1	-2
450.693	1	-3
451.034	1	-8
451.375	1	-6
451.716	1	4
452.057	1	0
452.398	1	-12
452.739	1	-5
453.080	1	-7
453.421	1	-2
453.762	1	-1
454.103	1	-8
454.444	1	1
454.785	1	-4
455.126	1	-10
455.467	1	3
455.808	1	-5
456.149	1	-1
456.490	1	1
456.831	1	5
457.172	1	-10
457.513	1	12
457.854	1	-6
458.195	1	-10
458.536	1	-1
458.877	1	-10
459.218	1	-4
459.559	1	0
459.899	1	-5
460.240	1	4
460.581	1	7
460.922	1	0
461.263	1	-7
461.604	1	-5
461.945	1	-3
462.286	1	1
462.627	1	7
462.968	1	-1
463.309	1	-8
463.649	1	-8
463.990	1	-2
464.331	1	-5
464.672	1	4
465.013	1	2
465.354	1	3
465.695	1	-10
466.036	1	-3
466.376	1	-9
466.717	1	2
467.058	1	-7
467.399	1	1
467.740	1	8
468.081	1	1
468.422	1	1
468.762	1	-15
469.103	1	-8
469.444	1	-10
469.785	1	-7
470.126	1	-4
470.467	1	-7
470.807	1	-2
471.148	1	2
471.489	1	-8
471.830	1	-1
472.171	1	9
472.511	1	-6
472.852	1	3
473.193	1	5
473.534	1	2
473.875	1	7
474.215	1	11
474.556	1	-2
474.897	1	-3
475.238	1	-2
475.578	1	-9
475.919	1	3
476.260	1	5
476.601	1	-4
476.942	1	-3
477.282	1	-1
477.623	1	-9
477.964	1	7
478.305	1	-2
478.645	1	8
478.986	1	-6
479.327	1	-8
479.667	1	-1
480.008	1	-8
480.349	1	-1
480.690	1	-4
481.030	1	-7
481.371	1	7
481.712	1	-7
482.053	1	0
482.393	1	-4
482.734	1	-8
483.075	1	-4
483.415	1	-5
483.756	1	4
484.097	1	-2
484.437	1	-8
484.778	1	5
485.119	1	-10
485.459	1	15
485.800	1	1
486.141	1	-6
486.481	1	-4
486.822	1	12
487.163	1	-10
487.503	1	-2
487.844	1	0
488.185	1	1
488.525	1	3
488.866	1	2
489.207	1	-4
489.547	1	-10
489.888	1	-5
490.228	1	-3
490.569	1	4
490.910	1	-2
491.250	1	-5
491.591	1	-9
491.932	1	-5
492.272	1	1
492.613	1	-6
492.953	1	-10
493.294	1	-5
493.635	1	-12
493.975	1	-8
494.316	1	-3
494.656	1	-8
494.997	1	-5
495.337	1	4
495.678	1	-6
496.019	1	-4
496.359	1	7
496.700	1	-4
497.040	1	-6
497.381	1	-2
497.721	1	-5
498.062	1	5
498.403	1	-5
498.743	1	-5
499.084	1	6
499.424	1	-2
499.765	1	-6
500.105	1	1
500.446	1	-1
500.786	1	-3
501.127	1	0
501.467	1	2
501.808	1	6
502.148	1	0
502.489	1	0
502.829	1	0
503.170	1	12
503.510	1	3
503.851	1	-5
504.191	1	-2
504.532	1	-1
504.872	1	7
505.213	1	2
505.553	1	-5
505.894	1	-6
506.234	1	8
506.575	1	-5
506.915	1	-2
507.256	1	-2
507.596	1	-3
507.936	1	0
508.277	1	-9
508.617	1	0
508.958	1	-9
509.298	1	3
509.639	1	-4
509.979	1	0
510.319	1	3
510.660	1	-5
511.000	1	-12
511.341	1	10
511.681	1	4
512.022	1	-3
512.362	1	-14
512.702	1	-6
513.043	1	-1
513.383	1	-6
513.724	1	-3
514.064	1	8
514.404	1	-5
514.745	1	0
515.085	1	-9
515.425	1	-8
515.766	1	-5
516.106	1	3
516.447	1	6
516.787	1	4
517.127	1	5
517.468	1	-3
517.808	1	-1
518.148	1	4
518.489	1	1
518.829	1	2
519.169	1	5
519.510	1	1
519.850	1	2
520.190	1	-7
520.531	1	1
520.871	1	5
521.211	1	-7
521.552	1	5
521.892	1	-3
522.232	1	2
522.573	1	0
522.913	1	5
523.253	1	-1
523.593	1	-11
523.934	1	1
524.274	1	-2
524.614	1	1
524.955	1	-9
525.295	1	-4
525.635	1	2
525.975	1	0
526.316	1	17
526.656	1	-3
526.996	1	8
527.337	1	-11
527.677	1	11
528.017	1	-11
528.357	1	0
528.698	1	-9
529.038	1	-2
529.378	1	11
529.718	1	6
530.058	1	-4
530.399	1	-2
530.739	1	-1
531.079	1	6
531.419	1	7
531.760	1	5
532.100	1	-1
532.440	1	2
532.780	1	-6
533.120	1	7
533.461	1	-2
533.801	1	8
534.141	1	-2
534.481	1	-12
534.821	1	5
535.162	1	-2
535.502	1	-10
535.842	1	-5
536.182	1	-10
536.522	1	-12
536.862	1	1
537.203	1	-9
537.543	1	-3
537.883	1	4
538.223	1	-7
538.563	1	15
538.903	1	-7
539.243	1	2
539.584	1	-9
539.924	1	9
540.264	1	-5
540.604	1	3
540.944	1	-2
541.284	1	4
541.624	1	-1
541.964	1	9
542.305	1	3
542.645	1	5
542.985	1	3
543.325	1	-6
543.665	1	8
544.005	1	1
544.345	1	2
544.685	1	-2
545.025	1	2
545.365	1	1
545.705	1	1
546.045	1	-8
546.386	1	2
546.726	1	-13
547.066	1	3
547.406	1	2
547.746	1	-10
548.086	1	5
548.426	1	-10
548.766	1	1
549.106	1	-8
549.446	1	0
549.786	1	-6
550.126	1	13
550.466	1	-8
550.806	1	-4
551.146	1	1
551.486	1	-10
551.826	1	-3
552.166	1	4
552.506	1	12
552.846	1	4
553.186	1	-5
553.526	1	-7
553.866	1	-1
554.206	1	7
554.546	1	-1
554.886	1	-4
555.226	1	-8
555.566	1	4
555.906	1	12
556.246	1	9
556.586	1	-3
556.926	1	-7
557.266	1	-3
557.606	1	-3
557.946	1	13
558.286	1	2
558.626	1	2
558.966	1	-7
559.306	1	-4
559.646	1	-4
559.986	1	-10
560.325	1	-11
560.665	1	6
561.005	1	-13
561.345	1	5
561.685	1	-5
562.025	1	-4
562.365	1	2
562.705	1	-3
563.045	1	-7
563.385	1	-14
563.725	1	0
564.064	1	-3
564.404	1	7
564.744	1	2
565.084	1	1
565.424	1	4
565.764	1	-3
566.104	1	-3
566.444	1	-11
566.783	1	-13
567.123	1	3
567.463	1	6
567.803	1	-8
568.143	1	-7
568.483	1	-4
568.823	1	-1
569.162	1	5
569.502	1	-8
569.842	1	0
570.182	1	0
570.522	1	-1
570.862	1	-2
571.201	1	1
571.541	1	-1
571.881	1	10
572.221	1	-10
572.561	1	-6
572.900	1	-6
573.240	1	0
573.580	1	4
573.920	1	11
574.260	1	11
574.599	1	-9
574.939	1	3
575.279	1	11
575.619	1	8
575.959	1	-11
576.298	1	4
576.638	1	-1
576.978	1	13
577.318	1	1
577.657	1	-6
577.997	1	-6
578.337	1	10
578.677	1	4
579.016	1	4
579.356	1	-9
579.696	1	1
580.036	1	-3
580.375	1	0
580.715	1	5
581.055	1	-10
581.394	1	-1
581.734	1	-15
582.074	1	-4
582.414	1	5
582.753	1	-10
583.093	1	-7
583.433	1	-2
583.772	1	4
584.112	1	5
584.452	1	-2
584.791	1	-7
585.131	1	5
585.471	1	5
585.811	1	0
586.150	1	-3
586.490	1	1
586.830	1	-9
587.169	1	3
587.509	1	1
587.849	1	6
588.188	1	3
588.528	1	0
588.867	1	5
589.207	1	0
589.547	1	-2
589.886	1	-5
590.226	1	3
590.566	1	5
590.905	1	-8
591.245	1	-10
591.585	1	-2
591.924	1	-1
592.264	1	6
592.603	1	-6
592.943	1	0
593.283	1	-1
593.622	1	8
593.962	1	1
594.301	1	1
594.641	1	-11
594.981	1	-10
595.320	1	-6
595.660	1	5
595.999	1	-9
596.339	1	3
596.678	1	5
597.018	1	-7
597.358	1	2
597.697	1	-5
598.037	1	-1
598.376	1	9
598.716	1	12
599.055	1	12
599.395	1	1
599.734	1	2
600.074	1	-1
600.413	1	12
600.753	1	-1
601.092	1	6
601.432	1	-11
601.771	1	-3
602.111	1	6
602.451	1	6
602.790	1	-3
603.130	1	3
603.469	1	-17
603.809	1	3
604.148	1	4
604.487	1	-2
604.827	1	3
605.166	1	-5
605.506	1	4
605.845	1	-8
606.185	1	7
606.524	1	-6
606.864	1	-1
607.203	1	-5
607.543	1	-5
607.882	1	0
608.222	1	4
608.561	1	2
608.901	1	5
609.240	1	-5
609.579	1	0
609.919	1	5
610.258	1	9
610.598	1	-9
610.937	1	-7
611.277	1	-2
611.616	1	-3
611.955	1	-5
612.295	1	-3
612.634	1	-2
612.974	1	-13
613.313	1	8
613.652	1	1
613.992	1	-5
614.331	1	-4
614.671	1	1
615.010	1	-9
615.349	1	-2
615.689	1	5
616.028	1	-2
616.368	1	7
616.707	1	0
617.046	1	1
617.386	1	0
617.725	1	-12
618.064	1	-8
618.404	1	-8
618.743	1	-4
619.082	1	1
619.422	1	-11
619.761	1	-7
620.100	1	6
620.440	1	-3
620.779	1	-6
621.118	1	-1
621.458	1	-4
621.797	1	-5
622.136	1	12
622.476	1	3
622.815	1	1
623.154	1	7
623.494	1	-1
623.833	1	5
624.172	1	3
624.511	1	1
624.851	1	-5
625.190	1	1
625.529	1	-5
625.869	1	10
626.208	1	2
626.547	1	-3
626.886	1	5
627.226	1	6
627.565	1	0
627.904	1	3
628.243	1	-2
628.583	1	2
628.922	1	-1
629.261	1	10
629.600	1	6
629.940	1	-2
630.279	1	-9
630.618	1	2
630.957	1	-8
631.297	1	-1
631.636	1	-9
631.975	1	10
632.314	1	2
632.653	1	-2
632.993	1	-12
633.332	1	-5
633.671	1	-1
634.010	1	-4
634.349	1	1
634.689	1	7
635.028	1	6
635.367	1	4
635.706	1	-2
636.045	1	15
636.384	1	4
636.724	1	5
637.063	1	-4
637.402	1	7
637.741	1	3
638.080	1	-3
638.419	1	1
638.759	1	-10
639.098	1	7
639.437	1	-3
639.776	1	-2
640.115	1	5
640.454	1	-4
640.793	1	14
641.132	1	2
641.472	1	7
641.811	1	-1
642.150	1	-6
642.489	1	-3
642.828	1	-6
643.167	1	-5
643.506	1	-13
643.845	1	-1
644.184	1	-3
644.524	1	-2
644.863	1	-8
645.202	1	-1
645.541	1	-8
645.880	1	3
646.219	1	3
646.558	1	0
646.897	1	5
647.236	1	-3
647.575	1	12
647.914	1	-6
648.253	1	5
648.592	1	-9
648.931	1	5
649.270	1	4
649.610	1	7
649.949	1	-7
650.288	1	12
650.627	1	-7
650.966	1	2
651.305	1	-3
651.644	1	5
651.983	1	-2
652.322	1	-3
652.661	1	-7
653.000	1	-3
653.339	1	5
653.678	1	-6
654.017	1	1
654.356	1	-5
654.695	1	3
655.034	1	3
655.373	1	9
655.712	1	0
656.051	1	5
656.390	1	-3
656.729	1	4
657.068	1	-1
657.406	1	-7
657.745	1	-8
658.084	1	1
658.423	1	9
658.762	1	-5
659.101	1	8
659.440	1	-9
659.779	1	2
660.118	1	6
660.457	1	7
660.796	1	-16
661.135	1	-4
661.474	1	-1
661.813	1	11
662.152	1	3
662.491	1	-12
662.829	1	-11
663.168	1	5
663.507	1	10
663.846	1	3
664.185	1	3
664.524	1	-1
664.863	1	-8
665.202	1	-5
665.541	1	-8
665.879	1	-13
666.218	1	-13
666.557	1	-2
666.896	1	-4
667.235	1	0
667.574	1	2
667.913	1	-2
668.251	1	-12
668.590	1	0
668.929	1	-19
669.268	1	-6
669.607	1	-7
669.946	1	0
670.285	1	-1
670.623	1	-4
670.962	1	-1
671.301	1	-10
671.640	1	-4
671.979	1	-8
672.317	1	0
672.656	1	-8
672.995	1	8
673.334	1	-12
673.673	1	9
674.011	1	-5
674.350	1	-5
674.689	1	2
675.028	1	-5
675.367	1	-4
675.705	1	0
676.044	1	1
676.383	1	-4
676.722	1	6
677.060	1	-3
677.399	1	-6
677.738	1	-4
678.077	1	5
678.416	1	4
678.754	1	-10
679.093	1	6
679.432	1	-2
679.771	1	-5
680.109	1	14
680.448	1	6
680.787	1	-5
681.125	1	0
681.464	1	1
681.803	1	3
682.142	1	4
682.480	1	10
682.819	1	6
683.158	1	0
683.496	1	0
683.835	1	-2
684.174	1	-1
684.512	1	2
684.851	1	-3
685.190	1	-4
685.529	1	-3
685.867	1	-1
686.206	1	-11
686.545	1	-2
686.883	1	-6
687.222	1	1
687.561	1	-5
687.899	1	-9
688.238	1	-5
688.577	1	2
688.746	1	7