File: Data/GaN_200K_800ms/GaN_sample F_spot 12_UVVIS_200 K_200um_800 ms 2x2mm1_49.txt
340.368	1	9
340.710	1	-9
341.052	1	11
341.394	1	9
341.737	1	13
342.079	1	0
342.421	1	4
342.763	1	6
343.105	1	0
343.447	1	2
343.789	1	5
344.131	1	-4
344.473	1	4
344.815	1	2
345.157	1	-2
345.499	1	10
345.841	1	12
346.183	1	-5
346.526	1	5
346.868	1	15
347.210	1	-2
347.552	1	2
347.894	1	14
348.236	1	18
348.578	1	6
348.920	1	7
349.262	1	0
349.604	1	8
349.946	1	-2
350.288	1	20
350.630	1	14
350.972	1	12
351.314	1	13
351.656	1	17
351.998	1	14
352.340	1	14
352.682	1	13
353.024	1	21
353.366	1	19
353.708	1	13
354.050	1	9
354.392	1	22
354.734	1	21
355.076	1	14
355.418	1	4
355.760	1	22
356.102	1	38
356.444	1	31
356.785	1	43
357.127	1	31
357.469	1	39
357.811	1	28
358.153	1	35
358.495	1	47
358.837	1	38
359.179	1	44
359.521	1	59
359.863	1	52
360.205	1	73
360.547	1	65
360.889	1	70
361.231	1	85
361.572	1	96
361.914	1	95
362.256	1	105
362.598	1	103
362.940	1	126
363.282	1	140
363.624	1	154
363.966	1	174
364.308	1	193
364.649	1	220
364.991	1	238
365.333	1	242
365.675	1	280
366.017	1	297
366.359	1	344
366.701	1	380
367.042	1	402
367.384	1	420
367.726	1	472
368.068	1	476
368.410	1	515
368.752	1	521
369.093	1	522
369.435	1	547
369.777	1	542
370.119	1	547
370.461	1	541
370.803	1	516
371.144	1	487
371.486	1	477
371.828	1	458
372.170	1	442
372.512	1	412
372.853	1	401
373.195	1	368
373.537	1	346
373.879	1	335
374.220	1	338
374.562	1	324
374.904	1	287
375.246	1	282
375.588	1	275
375.929	1	233
376.271	1	257
376.613	1	209
376.955	1	205
377.296	1	189
377.638	1	189
377.980	1	173
378.321	1	169
378.663	1	166
379.005	1	164
379.347	1	146
379.688	1	152
380.030	1	127
380.372	1	125
380.714	1	132
381.055	1	114
381.397	1	104
381.739	1	108
382.080	1	103
382.422	1	93
382.764	1	84
383.105	1	85
383.447	1	77
383.789	1	74
384.130	1	82
384.472	1	72
384.814	1	71
385.156	1	63
385.497	1	66
385.839	1	75
386.180	1	65
386.522	1	69
386.864	1	66
387.205	1	55
387.547	1	50
387.889	1	44
388.230	1	61
388.572	1	46
388.914	1	51
389.255	1	39
389.597	1	44
389.939	1	45
390.280	1	41
390.622	1	32
390.963	1	50
391.305	1	39
391.647	1	35
391.988	1	33
392.330	1	37
392.671	1	34
393.013	1	24
393.355	1	37
393.696	1	28
394.038	1	30
394.379	1	36
394.721	1	22
395.062	1	36
395.404	1	16
395.746	1	28
396.087	1	27
396.429	1	14
396.770	1	18
397.112	1	26
397.453	1	41
397.795	1	22
398.136	1	16
398.478	1	24
398.819	1	12
399.161	1	33
399.503	1	25
399.844	1	6
400.186	1	24
400.527	1	13
400.869	1	8
401.210	1	20
401.552	1	6
401.893	1	16
402.235	1	13
402.576	1	3
402.918	1	28
403.259	1	16
403.601	1	4
403.942	1	22
404.284	1	13
404.625	1	20
404.967	1	14
405.308	1	10
405.649	1	13
405.991	1	12
406.332	1	20
406.674	1	11
407.015	1	22
407.357	1	11
407.698	1	9
408.040	1	7
408.381	1	16
408.722	1	-7
409.064	1	8
409.405	1	16
409.747	1	18
410.088	1	11
410.430	1	16
410.771	1	5
411.112	1	3
411.454	1	10
411.795	1	-2
412.137	1	11
412.478	1	32
412.819	1	-1
413.161	1	9
413.502	1	9
413.844	1	9
414.185	1	14
414.526	1	4
414.868	1	13
415.209	1	13
415.550	1	3
415.892	1	9
416.233	1	5
416.575	1	17
416.916	1	6
417.257	1	5
417.599	1	13
417.940	1	10
418.281	1	9
418.623	1	7
418.964	1	-1
419.305	1	13
419.647	1	-4
419.988	1	6
420.329	1	8
420.671	1	17
421.012	1	7
421.353	1	-3
421.695	1	4
422.036	1	10
422.377	1	3
422.718	1	14
423.060	1	-6
423.401	1	7
423.742	1	7
424.084	1	4
424.425	1	11
424.766	1	4
425.107	1	3
425.449	1	1
425.790	1	-1
426.131	1	3
426.472	1	5
426.814	1	9
427.155	1	-4
427.496	1	1
427.837	1	-1
428.179	1	-5
428.520	1	1
428.861	1	-1
429.202	1	8
429.544	1	3
429.885	1	10
430.226	1	-2
430.567	1	11
430.909	1	9
431.250	1	1
431.591	1	5
431.932	1	1
432.273	1	-2
432.615	1	-3
432.956	1	5
433.297	1	5
433.638	1	2
433.979	1	7
434.320	1	13
434.662	1	11
435.003	1	6
435.344	1	-2
435.685	1	5
436.026	1	21
436.368	1	14
436.709	1	8
437.050	1	2
437.391	1	16
437.732	1	-4
438.073	1	6
438.414	1	-5
438.756	1	0
439.097	1	-8
439.438	1	5
439.779	1	-4
440.120	1	2
440.461	1	10
440.802	1	0
441.143	1	15
441.485	1	0
441.826	1	6
442.167	1	7
442.508	1	-4
442.849	1	27
443.190	1	9
443.531	1	8
443.872	1	16
444.213	1	-3
444.554	1	24
444.895	1	2
445.237	1	1
445.578	1	0
445.919	1	-4
446.260	1	8
446.601	1	4
446.942	1	10
447.283	1	1
447.624	1	14
447.965	1	16
448.306	1	6
448.647	1	-7
448.988	1	0
449.329	1	6
449.670	1	11
450.011	1	15
450.352	1	-1
450.693	1	0
451.034	1	-12
451.375	1	-2
451.716	1	0
452.057	1	19
452.398	1	1
452.739	1	5
453.080	1	10
453.421	1	8
453.762	1	3
454.103	1	9
454.444	1	-5
454.785	1	2
455.126	1	-3
455.467	1	12
455.808	1	5
456.149	1	14
456.490	1	-4
456.831	1	6
457.172	1	2
457.513	1	13
457.854	1	4
458.195	1	-1
458.536	1	11
458.877	1	1
459.218	1	0
459.559	1	11
459.899	1	9
460.240	1	7
460.581	1	23
460.922	1	6
461.263	1	9
461.604	1	7
461.945	1	4
462.286	1	2
462.627	1	2
462.968	1	4
463.309	1	-1
463.649	1	2
463.990	1	7
464.331	1	2
464.672	1	5
465.013	1	3
465.354	1	6
465.695	1	7
466.036	1	5
466.376	1	-3
466.717	1	0
467.058	1	12
467.399	1	11
467.740	1	6
468.081	1	7
468.422	1	-4
468.762	1	-6
469.103	1	0
469.444	1	2
469.785	1	-9
470.126	1	1
470.467	1	-1
470.807	1	10
471.148	1	3
471.489	1	8
471.830	1	9
472.171	1	9
472.511	1	-1
472.852	1	8
473.193	1	10
473.534	1	11
473.875	1	17
474.215	1	14
474.556	1	1
474.897	1	14
475.238	1	10
475.578	1	-1
475.919	1	9
476.260	1	2
476.601	1	5
476.942	1	8
477.282	1	2
477.623	1	2
477.964	1	2
478.305	1	8
478.645	1	18
478.986	1	2
479.327	1	-3
479.667	1	7
480.008	1	3
480.349	1	13
480.690	1	7
481.030	1	2
481.371	1	12
481.712	1	2
482.053	1	13
482.393	1	-1
482.734	1	-5
483.075	1	3
483.415	1	9
483.756	1	8
484.097	1	11
484.437	1	-5
484.778	1	13
485.119	1	2
485.459	1	26
485.800	1	6
486.141	1	11
486.481	1	6
486.822	1	14
487.163	1	5
487.503	1	4
487.844	1	9
488.185	1	16
488.525	1	20
488.866	1	14
489.207	1	5
489.547	1	12
489.888	1	5
490.228	1	10
490.569	1	24
490.910	1	18
491.250	1	10
491.591	1	2
491.932	1	12
492.272	1	20
492.613	1	1
492.953	1	10
493.294	1	15
493.635	1	2
493.975	1	17
494.316	1	14
494.656	1	6
494.997	1	14
495.337	1	20
495.678	1	12
496.019	1	17
496.359	1	4
496.700	1	14
497.040	1	14
497.381	1	14
497.721	1	13
498.062	1	13
498.403	1	12
498.743	1	9
499.084	1	10
499.424	1	9
499.765	1	14
500.105	1	15
500.446	1	5
500.786	1	3
501.127	1	12
501.467	1	6
501.808	1	21
502.148	1	20
502.489	1	22
502.829	1	13
503.170	1	21
503.510	1	18
503.851	1	22
504.191	1	32
504.532	1	26
504.872	1	12
505.213	1	34
505.553	1	18
505.894	1	20
506.234	1	31
506.575	1	26
506.915	1	27
507.256	1	30
507.596	1	18
507.936	1	30
508.277	1	21
508.617	1	27
508.958	1	17
509.298	1	31
509.639	1	18
509.979	1	27
510.319	1	31
510.660	1	15
511.000	1	22
511.341	1	24
511.681	1	22
512.022	1	23
512.362	1	25
512.702	1	26
513.043	1	34
513.383	1	19
513.724	1	29
514.064	1	36
514.404	1	22
514.745	1	24
515.085	1	20
515.425	1	35
515.766	1	24
516.106	1	25
516.447	1	38
516.787	1	31
517.127	1	26
517.468	1	17
517.808	1	28
518.148	1	31
518.489	1	29
518.829	1	44
519.169	1	41
519.510	1	33
519.850	1	39
520.190	1	24
520.531	1	36
520.871	1	37
521.211	1	28
521.552	1	33
521.892	1	36
522.232	1	36
522.573	1	21
522.913	1	30
523.253	1	29
523.593	1	27
523.934	1	30
524.274	1	41
524.614	1	31
524.955	1	35
525.295	1	30
525.635	1	35
525.975	1	41
526.316	1	50
526.656	1	28
526.996	1	44
527.337	1	29
527.677	1	41
528.017	1	26
528.357	1	37
528.698	1	44
529.038	1	38
529.378	1	49
529.718	1	44
530.058	1	42
530.399	1	37
530.739	1	39
531.079	1	50
531.419	1	47
531.760	1	42
532.100	1	37
532.440	1	47
532.780	1	34
533.120	1	54
533.461	1	45
533.801	1	51
534.141	1	39
534.481	1	39
534.821	1	44
535.162	1	32
535.502	1	37
535.842	1	37
536.182	1	42
536.522	1	47
536.862	1	47
537.203	1	29
537.543	1	38
537.883	1	42
538.223	1	39
538.563	1	39
538.903	1	30
539.243	1	45
539.584	1	38
539.924	1	52
540.264	1	37
540.604	1	37
540.944	1	42
541.284	1	43
541.624	1	42
541.964	1	46
542.305	1	50
542.645	1	41
542.985	1	38
543.325	1	42
543.665	1	56
544.005	1	47
544.345	1	48
544.685	1	44
545.025	1	39
545.365	1	36
545.705	1	34
546.045	1	39
546.386	1	47
546.726	1	34
547.066	1	40
547.406	1	37
547.746	1	32
548.086	1	37
548.426	1	39
548.766	1	60
549.106	1	43
549.446	1	45
549.786	1	43
550.126	1	56
550.466	1	42
550.806	1	45
551.146	1	46
551.486	1	45
551.826	1	51
552.166	1	41
552.506	1	55
552.846	1	55
553.186	1	43
553.526	1	37
553.866	1	43
554.206	1	48
554.546	1	46
554.886	1	45
555.226	1	33
555.566	1	51
555.906	1	38
556.246	1	48
556.586	1	50
556.926	1	43
557.266	1	38
557.606	1	37
557.946	1	57
558.286	1	47
558.626	1	48
558.966	1	32
559.306	1	42
559.646	1	41
559.986	1	35
560.325	1	37
560.665	1	37
561.005	1	33
561.345	1	36
561.685	1	45
562.025	1	38
562.365	1	39
562.705	1	41
563.045	1	36
563.385	1	29
563.725	1	46
564.064	1	41
564.404	1	54
564.744	1	39
565.084	1	45
565.424	1	45
565.764	1	47
566.104	1	44
566.444	1	41
566.783	1	35
567.123	1	45
567.463	1	42
567.803	1	37
568.143	1	54
568.483	1	48
568.823	1	38
569.162	1	48
569.502	1	41
569.842	1	50
570.182	1	46
570.522	1	39
570.862	1	47
571.201	1	52
571.541	1	38
571.881	1	51
572.221	1	41
572.561	1	38
572.900	1	32
573.240	1	45
573.580	1	47
573.920	1	45
574.260	1	50
574.599	1	43
574.939	1	44
575.279	1	50
575.619	1	45
575.959	1	38
576.298	1	54
576.638	1	32
576.978	1	51
577.318	1	50
577.657	1	35
577.997	1	34
578.337	1	52
578.677	1	45
579.016	1	61
579.356	1	37
579.696	1	47
580.036	1	41
580.375	1	40
580.715	1	39
581.055	1	38
581.394	1	33
581.734	1	24
582.074	1	44
582.414	1	40
582.753	1	36
583.093	1	38
583.433	1	40
583.772	1	43
584.112	1	42
584.452	1	46
584.791	1	38
585.131	1	45
585.471	1	38
585.811	1	45
586.150	1	38
586.490	1	49
586.830	1	40
587.169	1	42
587.509	1	36
587.849	1	44
588.188	1	50
588.528	1	34
588.867	1	39
589.207	1	39
589.547	1	34
589.886	1	29
590.226	1	40
590.566	1	31
590.905	1	26
591.245	1	36
591.585	1	34
591.924	1	30
592.264	1	34
592.603	1	35
592.943	1	41
593.283	1	35
593.622	1	30
593.962	1	34
594.301	1	39
594.641	1	28
594.981	1	24
595.320	1	33
595.660	1	26
595.999	1	29
596.339	1	42
596.678	1	42
597.018	1	21
597.358	1	34
597.697	1	27
598.037	1	30
598.376	1	38
598.716	1	35
599.055	1	37
599.395	1	29
599.734	1	41
600.074	1	37
600.413	1	45
600.753	1	32
601.092	1	41
601.432	1	20
601.771	1	38
602.111	1	34
602.451	1	43
602.790	1	30
603.130	1	35
603.469	1	36
603.809	1	29
604.148	1	42
604.487	1	29
604.827	1	32
605.166	1	33
605.506	1	29
605.845	1	36
606.185	1	39
606.524	1	20
606.864	1	29
607.203	1	29
607.543	1	32
607.882	1	39
608.222	1	36
608.561	1	31
608.901	1	40
609.240	1	33
609.579	1	36
609.919	1	38
610.258	1	41
610.598	1	24
610.937	1	30
611.277	1	32
611.616	1	24
611.955	1	22
612.295	1	24
612.634	1	33
612.974	1	18
613.313	1	33
613.652	1	29
613.992	1	26
614.331	1	35
614.671	1	41
615.010	1	21
615.349	1	34
615.689	1	38
616.028	1	18
616.368	1	30
616.707	1	33
617.046	1	31
617.386	1	28
617.725	1	26
618.064	1	23
618.404	1	24
618.743	1	28
619.082	1	25
619.422	1	26
619.761	1	37
620.100	1	34
620.440	1	25
620.779	1	18
621.118	1	27
621.458	1	32
621.797	1	23
622.136	1	33
622.476	1	31
622.815	1	27
623.154	1	33
623.494	1	31
623.833	1	27
624.172	1	30
624.511	1	15
624.851	1	8
625.190	1	26
625.529	1	27
625.869	1	29
626.208	1	28
626.547	1	11
626.886	1	38
627.226	1	32
627.565	1	22
627.904	1	17
628.243	1	33
628.583	1	22
628.922	1	22
629.261	1	22
629.600	1	29
629.940	1	18
630.279	1	7
630.618	1	25
630.957	1	18
631.297	1	27
631.636	1	10
631.975	1	34
632.314	1	22
632.653	1	23
632.993	1	17
633.332	1	21
633.671	1	21
634.010	1	22
634.349	1	17
634.689	1	17
635.028	1	26
635.367	1	11
635.706	1	18
636.045	1	28
636.384	1	10
636.724	1	20
637.063	1	18
637.402	1	20
637.741	1	17
638.080	1	29
638.419	1	19
638.759	1	5
639.098	1	25
639.437	1	31
639.776	1	19
640.115	1	13
640.454	1	12
640.793	1	25
641.132	1	17
641.472	1	27
641.811	1	10
642.150	1	8
642.489	1	23
642.828	1	15
643.167	1	7
643.506	1	3
643.845	1	9
644.184	1	16
644.524	1	13
644.863	1	8
645.202	1	12
645.541	1	22
645.880	1	16
646.219	1	9
646.558	1	9
646.897	1	14
647.236	1	16
647.575	1	17
647.914	1	8
648.253	1	21
648.592	1	20
648.931	1	18
649.270	1	23
649.610	1	19
649.949	1	11
650.288	1	25
650.627	1	13
650.966	1	22
651.305	1	10
651.644	1	22
651.983	1	18
652.322	1	12
652.661	1	13
653.000	1	18
653.339	1	31
653.678	1	12
654.017	1	22
654.356	1	7
654.695	1	16
655.034	1	19
655.373	1	18
655.712	1	15
656.051	1	16
656.390	1	8
656.729	1	22
657.068	1	15
657.406	1	19
657.745	1	9
658.084	1	19
658.423	1	13
658.762	1	9
659.101	1	23
659.440	1	15
659.779	1	15
660.118	1	17
660.457	1	14
660.796	1	8
661.135	1	5
661.474	1	12
661.813	1	28
662.152	1	16
662.491	1	8
662.829	1	9
663.168	1	9
663.507	1	29
663.846	1	18
664.185	1	14
664.524	1	10
664.863	1	9
665.202	1	17
665.541	1	-1
665.879	1	11
666.218	1	6
666.557	1	2
666.896	1	3
667.235	1	20
667.574	1	13
667.913	1	18
668.251	1	16
668.590	1	6
668.929	1	0
669.268	1	13
669.607	1	14
669.946	1	13
670.285	1	19
670.623	1	5
670.962	1	8
671.301	1	9
671.640	1	18
671.979	1	4
672.317	1	13
672.656	1	8
672.995	1	16
673.334	1	1
673.673	1	14
674.011	1	8
674.350	1	20
674.689	1	5
675.028	1	10
675.367	1	14
675.705	1	14
676.044	1	3
676.383	1	13
676.722	1	11
677.060	1	4
677.399	1	11
677.738	1	9
678.077	1	18
678.416	1	15
678.754	1	2
679.093	1	15
679.432	1	15
679.771	1	14
680.109	1	21
680.448	1	5
680.787	1	6
681.125	1	21
681.464	1	13
681.803	1	8
682.142	1	17
682.480	1	31
682.819	1	15
683.158	1	14
683.496	1	10
683.835	1	15
684.174	1	16
684.512	1	22
684.851	1	22
685.190	1	7
685.529	1	8
685.867	1	9
686.206	1	12
686.545	1	8
686.883	1	2
687.222	1	30
687.561	1	12
687.899	1	22
688.238	1	19
688.577	1	14
688.746	1	10