File: Data/GaN_200K_800ms/GaN_sample F_spot 12_UVVIS_200 K_200um_800 ms 2x2mm1_475.txt
340.368	1	0
340.710	1	-8
341.052	1	4
341.394	1	-8
341.737	1	0
342.079	1	-8
342.421	1	2
342.763	1	7
343.105	1	3
343.447	1	-8
343.789	1	-7
344.131	1	-5
344.473	1	-2
344.815	1	-10
345.157	1	-6
345.499	1	-10
345.841	1	2
346.183	1	-6
346.526	1	-10
346.868	1	4
347.210	1	-18
347.552	1	-5
347.894	1	6
348.236	1	10
348.578	1	-4
348.920	1	1
349.262	1	-9
349.604	1	-6
349.946	1	1
350.288	1	5
350.630	1	1
350.972	1	-5
351.314	1	7
351.656	1	8
351.998	1	6
352.340	1	-3
352.682	1	3
353.024	1	1
353.366	1	3
353.708	1	-1
354.050	1	-10
354.392	1	-2
354.734	1	-2
355.076	1	5
355.418	1	-6
355.760	1	6
356.102	1	12
356.444	1	3
356.785	1	-4
357.127	1	-1
357.469	1	5
357.811	1	-1
358.153	1	10
358.495	1	9
358.837	1	-8
359.179	1	-1
359.521	1	7
359.863	1	-5
360.205	1	-13
360.547	1	-2
360.889	1	-6
361.231	1	0
361.572	1	6
361.914	1	6
362.256	1	3
362.598	1	-1
362.940	1	1
363.282	1	2
363.624	1	12
363.966	1	1
364.308	1	-4
364.649	1	5
364.991	1	-2
365.333	1	3
365.675	1	2
366.017	1	6
366.359	1	9
366.701	1	6
367.042	1	2
367.384	1	14
367.726	1	11
368.068	1	7
368.410	1	17
368.752	1	2
369.093	1	-1
369.435	1	4
369.777	1	-1
370.119	1	6
370.461	1	19
370.803	1	7
371.144	1	-3
371.486	1	16
371.828	1	7
372.170	1	8
372.512	1	3
372.853	1	10
373.195	1	8
373.537	1	3
373.879	1	-4
374.220	1	7
374.562	1	16
374.904	1	4
375.246	1	3
375.588	1	9
375.929	1	6
376.271	1	5
376.613	1	-5
376.955	1	0
377.296	1	0
377.638	1	5
377.980	1	7
378.321	1	-13
378.663	1	2
379.005	1	7
379.347	1	-4
379.688	1	1
380.030	1	-6
380.372	1	3
380.714	1	7
381.055	1	5
381.397	1	-8
381.739	1	9
382.080	1	-2
382.422	1	2
382.764	1	4
383.105	1	1
383.447	1	-3
383.789	1	-2
384.130	1	5
384.472	1	0
384.814	1	-9
385.156	1	-2
385.497	1	3
385.839	1	-7
386.180	1	-1
386.522	1	1
386.864	1	9
387.205	1	4
387.547	1	-1
387.889	1	-9
388.230	1	9
388.572	1	-1
388.914	1	-2
389.255	1	3
389.597	1	-8
389.939	1	3
390.280	1	-5
390.622	1	-1
390.963	1	7
391.305	1	0
391.647	1	-4
391.988	1	4
392.330	1	6
392.671	1	-5
393.013	1	-3
393.355	1	-2
393.696	1	1
394.038	1	-1
394.379	1	3
394.721	1	-2
395.062	1	6
395.404	1	-2
395.746	1	6
396.087	1	2
396.429	1	3
396.770	1	-1
397.112	1	8
397.453	1	5
397.795	1	-2
398.136	1	-9
398.478	1	9
398.819	1	4
399.161	1	10
399.503	1	2
399.844	1	2
400.186	1	-5
400.527	1	-3
400.869	1	-1
401.210	1	0
401.552	1	-8
401.893	1	2
402.235	1	-4
402.576	1	2
402.918	1	1
403.259	1	-4
403.601	1	-3
403.942	1	5
404.284	1	3
404.625	1	10
404.967	1	-3
405.308	1	2
405.649	1	0
405.991	1	-2
406.332	1	-6
406.674	1	-2
407.015	1	3
407.357	1	-8
407.698	1	7
408.040	1	0
408.381	1	2
408.722	1	-7
409.064	1	-2
409.405	1	8
409.747	1	-2
410.088	1	-6
410.430	1	7
410.771	1	-1
411.112	1	-1
411.454	1	-5
411.795	1	-12
412.137	1	6
412.478	1	15
412.819	1	4
413.161	1	-10
413.502	1	-1
413.844	1	8
414.185	1	5
414.526	1	-4
414.868	1	2
415.209	1	-3
415.550	1	-4
415.892	1	3
416.233	1	2
416.575	1	7
416.916	1	-8
417.257	1	-2
417.599	1	1
417.940	1	1
418.281	1	-4
418.623	1	-6
418.964	1	-17
419.305	1	-5
419.647	1	-3
419.988	1	-5
420.329	1	-7
420.671	1	1
421.012	1	2
421.353	1	3
421.695	1	1
422.036	1	2
422.377	1	-8
422.718	1	-2
423.060	1	-4
423.401	1	-5
423.742	1	0
424.084	1	-2
424.425	1	1
424.766	1	-3
425.107	1	-3
425.449	1	5
425.790	1	-8
426.131	1	5
426.472	1	-3
426.814	1	-3
427.155	1	-11
427.496	1	1
427.837	1	-3
428.179	1	-7
428.520	1	0
428.861	1	-1
429.202	1	-3
429.544	1	-3
429.885	1	11
430.226	1	-10
430.567	1	5
430.909	1	0
431.250	1	-13
431.591	1	8
431.932	1	-7
432.273	1	-2
432.615	1	-9
432.956	1	-19
433.297	1	3
433.638	1	1
433.979	1	11
434.320	1	6
434.662	1	0
435.003	1	0
435.344	1	2
435.685	1	-6
436.026	1	0
436.368	1	-1
436.709	1	2
437.050	1	-4
437.391	1	-3
437.732	1	0
438.073	1	-2
438.414	1	-5
438.756	1	-9
439.097	1	-6
439.438	1	-3
439.779	1	3
440.120	1	-6
440.461	1	5
440.802	1	0
441.143	1	7
441.485	1	-2
441.826	1	-2
442.167	1	-4
442.508	1	-6
442.849	1	10
443.190	1	-2
443.531	1	4
443.872	1	0
444.213	1	-1
444.554	1	10
444.895	1	-9
445.237	1	-5
445.578	1	-8
445.919	1	-7
446.260	1	-7
446.601	1	2
446.942	1	-10
447.283	1	2
447.624	1	5
447.965	1	3
448.306	1	-8
448.647	1	-14
448.988	1	-8
449.329	1	-10
449.670	1	8
450.011	1	-1
450.352	1	-3
450.693	1	-3
451.034	1	-12
451.375	1	-6
451.716	1	-2
452.057	1	0
452.398	1	-2
452.739	1	8
453.080	1	1
453.421	1	-6
453.762	1	5
454.103	1	-7
454.444	1	-13
454.785	1	-10
455.126	1	-10
455.467	1	0
455.808	1	2
456.149	1	-3
456.490	1	-2
456.831	1	-1
457.172	1	-4
457.513	1	12
457.854	1	-4
458.195	1	-10
458.536	1	10
458.877	1	-1
459.218	1	-3
459.559	1	-3
459.899	1	-2
460.240	1	4
460.581	1	15
460.922	1	2
461.263	1	-8
461.604	1	2
461.945	1	-6
462.286	1	-3
462.627	1	6
462.968	1	6
463.309	1	-11
463.649	1	-5
463.990	1	0
464.331	1	-7
464.672	1	-5
465.013	1	-3
465.354	1	-4
465.695	1	-9
466.036	1	-4
466.376	1	-9
466.717	1	0
467.058	1	6
467.399	1	-1
467.740	1	-5
468.081	1	-1
468.422	1	-11
468.762	1	-17
469.103	1	3
469.444	1	-10
469.785	1	-15
470.126	1	-15
470.467	1	-7
470.807	1	0
471.148	1	1
471.489	1	-5
471.830	1	-9
472.171	1	2
472.511	1	-5
472.852	1	-7
473.193	1	3
473.534	1	10
473.875	1	10
474.215	1	11
474.556	1	4
474.897	1	1
475.238	1	1
475.578	1	-10
475.919	1	-2
476.260	1	-3
476.601	1	-3
476.942	1	1
477.282	1	-4
477.623	1	-6
477.964	1	-12
478.305	1	5
478.645	1	9
478.986	1	-2
479.327	1	0
479.667	1	-6
480.008	1	-9
480.349	1	1
480.690	1	-3
481.030	1	-9
481.371	1	-7
481.712	1	5
482.053	1	1
482.393	1	-6
482.734	1	-9
483.075	1	6
483.415	1	1
483.756	1	6
484.097	1	-1
484.437	1	-12
484.778	1	-8
485.119	1	-10
485.459	1	1
485.800	1	-1
486.141	1	-3
486.481	1	-2
486.822	1	3
487.163	1	8
487.503	1	7
487.844	1	1
488.185	1	-3
488.525	1	0
488.866	1	0
489.207	1	-4
489.547	1	-2
489.888	1	-3
490.228	1	4
490.569	1	2
490.910	1	7
491.250	1	-13
491.591	1	-14
491.932	1	-7
492.272	1	1
492.613	1	-19
492.953	1	-11
493.294	1	-10
493.635	1	-1
493.975	1	0
494.316	1	11
494.656	1	0
494.997	1	1
495.337	1	-4
495.678	1	-1
496.019	1	3
496.359	1	-6
496.700	1	-4
497.040	1	-4
497.381	1	-5
497.721	1	-6
498.062	1	2
498.403	1	-2
498.743	1	-5
499.084	1	-10
499.424	1	4
499.765	1	-4
500.105	1	3
500.446	1	-7
500.786	1	-3
501.127	1	4
501.467	1	-13
501.808	1	-2
502.148	1	2
502.489	1	-2
502.829	1	5
503.170	1	0
503.510	1	2
503.851	1	-11
504.191	1	9
504.532	1	-3
504.872	1	-1
505.213	1	11
505.553	1	-4
505.894	1	-3
506.234	1	2
506.575	1	0
506.915	1	-2
507.256	1	4
507.596	1	0
507.936	1	-1
508.277	1	-10
508.617	1	-9
508.958	1	-7
509.298	1	-5
509.639	1	-18
509.979	1	-3
510.319	1	2
510.660	1	1
511.000	1	-6
511.341	1	0
511.681	1	19
512.022	1	-2
512.362	1	-10
512.702	1	4
513.043	1	4
513.383	1	-8
513.724	1	10
514.064	1	10
514.404	1	-4
514.745	1	-4
515.085	1	-8
515.425	1	-1
515.766	1	-1
516.106	1	-2
516.447	1	8
516.787	1	6
517.127	1	-1
517.468	1	7
517.808	1	-8
518.148	1	1
518.489	1	-2
518.829	1	1
519.169	1	-11
519.510	1	-4
519.850	1	0
520.190	1	-10
520.531	1	10
520.871	1	-3
521.211	1	-14
521.552	1	1
521.892	1	1
522.232	1	6
522.573	1	6
522.913	1	6
523.253	1	8
523.593	1	0
523.934	1	2
524.274	1	-6
524.614	1	-10
524.955	1	-13
525.295	1	1
525.635	1	-3
525.975	1	-5
526.316	1	2
526.656	1	-2
526.996	1	11
527.337	1	-12
527.677	1	-4
528.017	1	-4
528.357	1	2
528.698	1	-2
529.038	1	-7
529.378	1	-3
529.718	1	9
530.058	1	-1
530.399	1	7
530.739	1	-4
531.079	1	1
531.419	1	2
531.760	1	5
532.100	1	-4
532.440	1	-2
532.780	1	-3
533.120	1	9
533.461	1	-5
533.801	1	12
534.141	1	-13
534.481	1	-9
534.821	1	9
535.162	1	1
535.502	1	-11
535.842	1	-5
536.182	1	-3
536.522	1	-6
536.862	1	-2
537.203	1	-6
537.543	1	-3
537.883	1	-9
538.223	1	1
538.563	1	0
538.903	1	-8
539.243	1	2
539.584	1	-11
539.924	1	9
540.264	1	-3
540.604	1	-4
540.944	1	-3
541.284	1	4
541.624	1	10
541.964	1	6
542.305	1	3
542.645	1	2
542.985	1	2
543.325	1	2
543.665	1	9
544.005	1	5
544.345	1	0
544.685	1	1
545.025	1	6
545.365	1	2
545.705	1	-10
546.045	1	-10
546.386	1	-7
546.726	1	-7
547.066	1	-1
547.406	1	3
547.746	1	-11
548.086	1	-7
548.426	1	-11
548.766	1	0
549.106	1	0
549.446	1	-2
549.786	1	-9
550.126	1	9
550.466	1	-4
550.806	1	0
551.146	1	3
551.486	1	0
551.826	1	10
552.166	1	3
552.506	1	9
552.846	1	5
553.186	1	9
553.526	1	-8
553.866	1	2
554.206	1	5
554.546	1	4
554.886	1	8
555.226	1	-14
555.566	1	8
555.906	1	7
556.246	1	1
556.586	1	-7
556.926	1	5
557.266	1	-8
557.606	1	-1
557.946	1	8
558.286	1	4
558.626	1	5
558.966	1	1
559.306	1	-1
559.646	1	1
559.986	1	-2
560.325	1	-4
560.665	1	-5
561.005	1	-3
561.345	1	-1
561.685	1	-4
562.025	1	6
562.365	1	8
562.705	1	0
563.045	1	-6
563.385	1	-10
563.725	1	-4
564.064	1	0
564.404	1	6
564.744	1	0
565.084	1	3
565.424	1	-6
565.764	1	5
566.104	1	-2
566.444	1	-8
566.783	1	-18
567.123	1	5
567.463	1	11
567.803	1	1
568.143	1	-13
568.483	1	-2
568.823	1	-2
569.162	1	8
569.502	1	4
569.842	1	8
570.182	1	6
570.522	1	-6
570.862	1	2
571.201	1	4
571.541	1	3
571.881	1	11
572.221	1	-12
572.561	1	2
572.900	1	1
573.240	1	-5
573.580	1	-8
573.920	1	6
574.260	1	13
574.599	1	-4
574.939	1	11
575.279	1	18
575.619	1	9
575.959	1	-5
576.298	1	15
576.638	1	-9
576.978	1	0
577.318	1	6
577.657	1	-9
577.997	1	-14
578.337	1	4
578.677	1	5
579.016	1	13
579.356	1	-6
579.696	1	5
580.036	1	-4
580.375	1	6
580.715	1	-5
581.055	1	-3
581.394	1	-8
581.734	1	-6
582.074	1	-3
582.414	1	0
582.753	1	-6
583.093	1	3
583.433	1	2
583.772	1	-3
584.112	1	1
584.452	1	-5
584.791	1	1
585.131	1	8
585.471	1	12
585.811	1	4
586.150	1	2
586.490	1	12
586.830	1	1
587.169	1	0
587.509	1	3
587.849	1	-6
588.188	1	6
588.528	1	5
588.867	1	-1
589.207	1	-6
589.547	1	-1
589.886	1	-11
590.226	1	1
590.566	1	-3
590.905	1	1
591.245	1	0
591.585	1	4
591.924	1	-3
592.264	1	2
592.603	1	6
592.943	1	3
593.283	1	-6
593.622	1	6
593.962	1	5
594.301	1	11
594.641	1	-4
594.981	1	-4
595.320	1	2
595.660	1	2
595.999	1	-4
596.339	1	-1
596.678	1	-4
597.018	1	-3
597.358	1	3
597.697	1	-1
598.037	1	-8
598.376	1	2
598.716	1	7
599.055	1	14
599.395	1	-3
599.734	1	-1
600.074	1	-1
600.413	1	3
600.753	1	4
601.092	1	12
601.432	1	-7
601.771	1	3
602.111	1	9
602.451	1	6
602.790	1	4
603.130	1	0
603.469	1	-13
603.809	1	9
604.148	1	1
604.487	1	1
604.827	1	3
605.166	1	4
605.506	1	0
605.845	1	-1
606.185	1	-5
606.524	1	-5
606.864	1	7
607.203	1	-5
607.543	1	1
607.882	1	6
608.222	1	-1
608.561	1	6
608.901	1	12
609.240	1	1
609.579	1	9
609.919	1	10
610.258	1	-1
610.598	1	-1
610.937	1	-4
611.277	1	-7
611.616	1	-7
611.955	1	1
612.295	1	-2
612.634	1	-3
612.974	1	-9
613.313	1	8
613.652	1	4
613.992	1	5
614.331	1	-7
614.671	1	1
615.010	1	-4
615.349	1	9
615.689	1	16
616.028	1	-9
616.368	1	13
616.707	1	2
617.046	1	0
617.386	1	9
617.725	1	-7
618.064	1	-7
618.404	1	-11
618.743	1	2
619.082	1	0
619.422	1	-4
619.761	1	-2
620.100	1	4
620.440	1	5
620.779	1	-5
621.118	1	-3
621.458	1	12
621.797	1	-8
622.136	1	5
622.476	1	1
622.815	1	-1
623.154	1	4
623.494	1	11
623.833	1	0
624.172	1	-4
624.511	1	-4
624.851	1	-18
625.190	1	-4
625.529	1	0
625.869	1	3
626.208	1	7
626.547	1	3
626.886	1	3
627.226	1	-5
627.565	1	0
627.904	1	4
628.243	1	7
628.583	1	-4
628.922	1	5
629.261	1	3
629.600	1	5
629.940	1	-1
630.279	1	-6
630.618	1	-3
630.957	1	-7
631.297	1	-2
631.636	1	-9
631.975	1	2
632.314	1	-4
632.653	1	-2
632.993	1	-11
633.332	1	-8
633.671	1	-1
634.010	1	-9
634.349	1	6
634.689	1	1
635.028	1	1
635.367	1	-3
635.706	1	0
636.045	1	13
636.384	1	-1
636.724	1	3
637.063	1	-4
637.402	1	-1
637.741	1	-1
638.080	1	1
638.419	1	4
638.759	1	-5
639.098	1	4
639.437	1	-3
639.776	1	-1
640.115	1	-2
640.454	1	-6
640.793	1	3
641.132	1	-3
641.472	1	4
641.811	1	-3
642.150	1	-10
642.489	1	-1
642.828	1	-4
643.167	1	-1
643.506	1	-12
643.845	1	-4
644.184	1	3
644.524	1	-7
644.863	1	-11
645.202	1	4
645.541	1	-2
645.880	1	-2
646.219	1	8
646.558	1	5
646.897	1	-2
647.236	1	-6
647.575	1	0
647.914	1	-6
648.253	1	4
648.592	1	-4
648.931	1	-8
649.270	1	-4
649.610	1	4
649.949	1	-2
650.288	1	10
650.627	1	-1
650.966	1	-1
651.305	1	1
651.644	1	12
651.983	1	6
652.322	1	2
652.661	1	4
653.000	1	-3
653.339	1	12
653.678	1	2
654.017	1	0
654.356	1	-4
654.695	1	6
655.034	1	5
655.373	1	1
655.712	1	3
656.051	1	6
656.390	1	-4
656.729	1	10
657.068	1	-2
657.406	1	5
657.745	1	-11
658.084	1	-3
658.423	1	6
658.762	1	-3
659.101	1	9
659.440	1	-4
659.779	1	4
660.118	1	-1
660.457	1	2
660.796	1	-10
661.135	1	-6
661.474	1	-4
661.813	1	17
662.152	1	-3
662.491	1	-1
662.829	1	1
663.168	1	0
663.507	1	8
663.846	1	-3
664.185	1	10
664.524	1	-3
664.863	1	-8
665.202	1	0
665.541	1	-13
665.879	1	-5
666.218	1	-16
666.557	1	-12
666.896	1	-7
667.235	1	4
667.574	1	-3
667.913	1	1
668.251	1	-2
668.590	1	-2
668.929	1	-5
669.268	1	-4
669.607	1	-1
669.946	1	2
670.285	1	6
670.623	1	-5
670.962	1	-4
671.301	1	-5
671.640	1	-2
671.979	1	-6
672.317	1	-3
672.656	1	4
672.995	1	-3
673.334	1	-1
673.673	1	5
674.011	1	-4
674.350	1	1
674.689	1	-3
675.028	1	-1
675.367	1	2
675.705	1	-4
676.044	1	-4
676.383	1	-3
676.722	1	-7
677.060	1	-7
677.399	1	-8
677.738	1	1
678.077	1	5
678.416	1	-3
678.754	1	-13
679.093	1	0
679.432	1	1
679.771	1	-3
680.109	1	6
680.448	1	0
680.787	1	-8
681.125	1	5
681.464	1	2
681.803	1	-4
682.142	1	4
682.480	1	7
682.819	1	3
683.158	1	-7
683.496	1	7
683.835	1	1
684.174	1	-4
684.512	1	-1
684.851	1	1
685.190	1	-7
685.529	1	-8
685.867	1	-7
686.206	1	-10
686.545	1	-6
686.883	1	-1
687.222	1	1
687.561	1	1
687.899	1	0
688.238	1	-1
688.577	1	-2
688.746	1	-1