File: Data/GaN_200K_800ms/GaN_sample F_spot 12_UVVIS_200 K_200um_800 ms 2x2mm1_430.txt
340.368	1	2
340.710	1	-20
341.052	1	5
341.394	1	-9
341.737	1	4
342.079	1	-9
342.421	1	-1
342.763	1	-2
343.105	1	10
343.447	1	-8
343.789	1	-7
344.131	1	-9
344.473	1	-2
344.815	1	-7
345.157	1	-8
345.499	1	0
345.841	1	8
346.183	1	-7
346.526	1	-9
346.868	1	5
347.210	1	-16
347.552	1	1
347.894	1	-3
348.236	1	3
348.578	1	-1
348.920	1	-8
349.262	1	1
349.604	1	-1
349.946	1	-5
350.288	1	-3
350.630	1	4
350.972	1	0
351.314	1	1
351.656	1	2
351.998	1	4
352.340	1	4
352.682	1	5
353.024	1	12
353.366	1	17
353.708	1	-1
354.050	1	-3
354.392	1	-7
354.734	1	3
355.076	1	-5
355.418	1	-16
355.760	1	-14
356.102	1	4
356.444	1	1
356.785	1	4
357.127	1	2
357.469	1	-6
357.811	1	-2
358.153	1	3
358.495	1	-2
358.837	1	-5
359.179	1	3
359.521	1	1
359.863	1	-6
360.205	1	-9
360.547	1	2
360.889	1	-6
361.231	1	-3
361.572	1	12
361.914	1	10
362.256	1	5
362.598	1	-8
362.940	1	-6
363.282	1	5
363.624	1	7
363.966	1	7
364.308	1	8
364.649	1	-2
364.991	1	-1
365.333	1	8
365.675	1	-7
366.017	1	-4
366.359	1	3
366.701	1	4
367.042	1	6
367.384	1	8
367.726	1	2
368.068	1	15
368.410	1	17
368.752	1	8
369.093	1	8
369.435	1	8
369.777	1	7
370.119	1	7
370.461	1	21
370.803	1	8
371.144	1	3
371.486	1	1
371.828	1	11
372.170	1	14
372.512	1	-1
372.853	1	16
373.195	1	0
373.537	1	12
373.879	1	1
374.220	1	17
374.562	1	15
374.904	1	7
375.246	1	12
375.588	1	-4
375.929	1	18
376.271	1	5
376.613	1	0
376.955	1	1
377.296	1	-2
377.638	1	1
377.980	1	1
378.321	1	0
378.663	1	-5
379.005	1	6
379.347	1	-6
379.688	1	8
380.030	1	7
380.372	1	6
380.714	1	8
381.055	1	10
381.397	1	1
381.739	1	9
382.080	1	9
382.422	1	3
382.764	1	-8
383.105	1	-6
383.447	1	-8
383.789	1	-8
384.130	1	2
384.472	1	-3
384.814	1	2
385.156	1	-5
385.497	1	2
385.839	1	-1
386.180	1	-3
386.522	1	1
386.864	1	-1
387.205	1	-7
387.547	1	-7
387.889	1	2
388.230	1	6
388.572	1	-11
388.914	1	-1
389.255	1	0
389.597	1	5
389.939	1	5
390.280	1	4
390.622	1	-6
390.963	1	20
391.305	1	13
391.647	1	5
391.988	1	2
392.330	1	-2
392.671	1	-6
393.013	1	5
393.355	1	6
393.696	1	5
394.038	1	-8
394.379	1	-2
394.721	1	-4
395.062	1	15
395.404	1	-5
395.746	1	7
396.087	1	-6
396.429	1	2
396.770	1	-1
397.112	1	1
397.453	1	10
397.795	1	-2
398.136	1	-8
398.478	1	-5
398.819	1	-1
399.161	1	14
399.503	1	6
399.844	1	1
400.186	1	1
400.527	1	-2
400.869	1	-8
401.210	1	-5
401.552	1	-7
401.893	1	0
402.235	1	-5
402.576	1	0
402.918	1	10
403.259	1	2
403.601	1	2
403.942	1	19
404.284	1	4
404.625	1	2
404.967	1	3
405.308	1	10
405.649	1	-2
405.991	1	-1
406.332	1	-4
406.674	1	-2
407.015	1	3
407.357	1	-2
407.698	1	6
408.040	1	-5
408.381	1	-3
408.722	1	-15
409.064	1	5
409.405	1	-2
409.747	1	-1
410.088	1	-1
410.430	1	4
410.771	1	-4
411.112	1	-12
411.454	1	-8
411.795	1	2
412.137	1	9
412.478	1	6
412.819	1	-1
413.161	1	-11
413.502	1	-1
413.844	1	5
414.185	1	2
414.526	1	-8
414.868	1	8
415.209	1	2
415.550	1	5
415.892	1	0
416.233	1	1
416.575	1	6
416.916	1	-7
417.257	1	6
417.599	1	-4
417.940	1	9
418.281	1	-1
418.623	1	1
418.964	1	-13
419.305	1	3
419.647	1	2
419.988	1	-9
420.329	1	-2
420.671	1	0
421.012	1	-5
421.353	1	-7
421.695	1	-9
422.036	1	-9
422.377	1	-6
422.718	1	3
423.060	1	-12
423.401	1	0
423.742	1	3
424.084	1	-11
424.425	1	1
424.766	1	1
425.107	1	-3
425.449	1	-2
425.790	1	-8
426.131	1	-4
426.472	1	-7
426.814	1	2
427.155	1	2
427.496	1	-13
427.837	1	-7
428.179	1	-13
428.520	1	-8
428.861	1	-2
429.202	1	-1
429.544	1	5
429.885	1	10
430.226	1	-10
430.567	1	-9
430.909	1	5
431.250	1	-3
431.591	1	6
431.932	1	-5
432.273	1	-6
432.615	1	-5
432.956	1	-5
433.297	1	-2
433.638	1	4
433.979	1	5
434.320	1	3
434.662	1	-2
435.003	1	0
435.344	1	2
435.685	1	-1
436.026	1	4
436.368	1	9
436.709	1	-10
437.050	1	-9
437.391	1	6
437.732	1	-10
438.073	1	0
438.414	1	-15
438.756	1	2
439.097	1	-6
439.438	1	-14
439.779	1	6
440.120	1	3
440.461	1	-5
440.802	1	-1
441.143	1	8
441.485	1	2
441.826	1	-2
442.167	1	-3
442.508	1	-3
442.849	1	14
443.190	1	-5
443.531	1	7
443.872	1	3
444.213	1	5
444.554	1	9
444.895	1	-11
445.237	1	3
445.578	1	-17
445.919	1	-9
446.260	1	-9
446.601	1	-5
446.942	1	-8
447.283	1	-3
447.624	1	4
447.965	1	-6
448.306	1	-4
448.647	1	-10
448.988	1	-4
449.329	1	2
449.670	1	4
450.011	1	-4
450.352	1	-8
450.693	1	1
451.034	1	-7
451.375	1	-8
451.716	1	3
452.057	1	-1
452.398	1	0
452.739	1	5
453.080	1	-1
453.421	1	-5
453.762	1	-2
454.103	1	4
454.444	1	-10
454.785	1	-4
455.126	1	-6
455.467	1	2
455.808	1	0
456.149	1	5
456.490	1	-3
456.831	1	1
457.172	1	-13
457.513	1	2
457.854	1	-3
458.195	1	-6
458.536	1	3
458.877	1	-4
459.218	1	-7
459.559	1	-2
459.899	1	-2
460.240	1	7
460.581	1	8
460.922	1	6
461.263	1	-1
461.604	1	-2
461.945	1	0
462.286	1	-3
462.627	1	3
462.968	1	2
463.309	1	2
463.649	1	-14
463.990	1	-5
464.331	1	-2
464.672	1	2
465.013	1	-4
465.354	1	-1
465.695	1	1
466.036	1	-7
466.376	1	1
466.717	1	4
467.058	1	-5
467.399	1	7
467.740	1	3
468.081	1	-5
468.422	1	-3
468.762	1	-18
469.103	1	-8
469.444	1	-1
469.785	1	-18
470.126	1	-14
470.467	1	-7
470.807	1	1
471.148	1	-2
471.489	1	-3
471.830	1	1
472.171	1	-3
472.511	1	-6
472.852	1	2
473.193	1	6
473.534	1	8
473.875	1	12
474.215	1	9
474.556	1	1
474.897	1	8
475.238	1	5
475.578	1	-9
475.919	1	-1
476.260	1	5
476.601	1	-1
476.942	1	12
477.282	1	5
477.623	1	-11
477.964	1	-2
478.305	1	-5
478.645	1	21
478.986	1	-14
479.327	1	-5
479.667	1	-7
480.008	1	6
480.349	1	-10
480.690	1	-6
481.030	1	-10
481.371	1	3
481.712	1	0
482.053	1	-3
482.393	1	-1
482.734	1	-4
483.075	1	-6
483.415	1	-2
483.756	1	12
484.097	1	-6
484.437	1	-1
484.778	1	7
485.119	1	-7
485.459	1	9
485.800	1	2
486.141	1	-7
486.481	1	1
486.822	1	1
487.163	1	-3
487.503	1	3
487.844	1	6
488.185	1	1
488.525	1	1
488.866	1	4
489.207	1	-5
489.547	1	4
489.888	1	-7
490.228	1	2
490.569	1	21
490.910	1	4
491.250	1	0
491.591	1	-5
491.932	1	3
492.272	1	-7
492.613	1	-6
492.953	1	-8
493.294	1	-1
493.635	1	-3
493.975	1	-3
494.316	1	-4
494.656	1	-4
494.997	1	1
495.337	1	0
495.678	1	-4
496.019	1	-5
496.359	1	-6
496.700	1	-4
497.040	1	-4
497.381	1	-3
497.721	1	2
498.062	1	-2
498.403	1	-2
498.743	1	-2
499.084	1	3
499.424	1	-1
499.765	1	0
500.105	1	-1
500.446	1	-7
500.786	1	-3
501.127	1	-8
501.467	1	-12
501.808	1	3
502.148	1	9
502.489	1	-2
502.829	1	-1
503.170	1	2
503.510	1	8
503.851	1	0
504.191	1	8
504.532	1	-1
504.872	1	2
505.213	1	5
505.553	1	-10
505.894	1	-6
506.234	1	1
506.575	1	1
506.915	1	6
507.256	1	-1
507.596	1	3
507.936	1	-5
508.277	1	-3
508.617	1	-7
508.958	1	-8
509.298	1	0
509.639	1	0
509.979	1	-2
510.319	1	3
510.660	1	-6
511.000	1	-5
511.341	1	4
511.681	1	-1
512.022	1	-3
512.362	1	-1
512.702	1	-3
513.043	1	4
513.383	1	-5
513.724	1	-4
514.064	1	10
514.404	1	1
514.745	1	-2
515.085	1	0
515.425	1	-12
515.766	1	-10
516.106	1	4
516.447	1	11
516.787	1	-4
517.127	1	-9
517.468	1	-13
517.808	1	-5
518.148	1	-1
518.489	1	-7
518.829	1	2
519.169	1	-2
519.510	1	-2
519.850	1	4
520.190	1	-7
520.531	1	4
520.871	1	4
521.211	1	-6
521.552	1	3
521.892	1	7
522.232	1	11
522.573	1	-3
522.913	1	1
523.253	1	2
523.593	1	-1
523.934	1	-3
524.274	1	-6
524.614	1	-7
524.955	1	-10
525.295	1	6
525.635	1	-7
525.975	1	4
526.316	1	10
526.656	1	-3
526.996	1	-6
527.337	1	-6
527.677	1	-3
528.017	1	-10
528.357	1	-2
528.698	1	-2
529.038	1	-1
529.378	1	2
529.718	1	7
530.058	1	1
530.399	1	4
530.739	1	3
531.079	1	10
531.419	1	0
531.760	1	-6
532.100	1	-9
532.440	1	-8
532.780	1	-5
533.120	1	5
533.461	1	-1
533.801	1	7
534.141	1	-7
534.481	1	-4
534.821	1	0
535.162	1	3
535.502	1	1
535.842	1	2
536.182	1	6
536.522	1	-2
536.862	1	4
537.203	1	-8
537.543	1	7
537.883	1	0
538.223	1	3
538.563	1	3
538.903	1	-6
539.243	1	1
539.584	1	3
539.924	1	9
540.264	1	1
540.604	1	1
540.944	1	-1
541.284	1	15
541.624	1	1
541.964	1	7
542.305	1	5
542.645	1	1
542.985	1	0
543.325	1	-1
543.665	1	2
544.005	1	4
544.345	1	2
544.685	1	4
545.025	1	1
545.365	1	-2
545.705	1	-1
546.045	1	3
546.386	1	2
546.726	1	-8
547.066	1	-1
547.406	1	0
547.746	1	-12
548.086	1	-7
548.426	1	1
548.766	1	0
549.106	1	1
549.446	1	-4
549.786	1	4
550.126	1	6
550.466	1	-2
550.806	1	-7
551.146	1	-2
551.486	1	-4
551.826	1	1
552.166	1	1
552.506	1	7
552.846	1	0
553.186	1	-2
553.526	1	-9
553.866	1	-5
554.206	1	-4
554.546	1	-6
554.886	1	0
555.226	1	-9
555.566	1	4
555.906	1	-4
556.246	1	4
556.586	1	2
556.926	1	8
557.266	1	-2
557.606	1	8
557.946	1	11
558.286	1	4
558.626	1	4
558.966	1	0
559.306	1	6
559.646	1	-8
559.986	1	-7
560.325	1	-2
560.665	1	-2
561.005	1	0
561.345	1	-7
561.685	1	-8
562.025	1	0
562.365	1	0
562.705	1	-2
563.045	1	-9
563.385	1	-12
563.725	1	4
564.064	1	1
564.404	1	-1
564.744	1	-2
565.084	1	3
565.424	1	-8
565.764	1	-2
566.104	1	-1
566.444	1	-9
566.783	1	-8
567.123	1	0
567.463	1	7
567.803	1	-8
568.143	1	-5
568.483	1	5
568.823	1	6
569.162	1	6
569.502	1	-1
569.842	1	5
570.182	1	-2
570.522	1	-7
570.862	1	-9
571.201	1	5
571.541	1	4
571.881	1	2
572.221	1	-6
572.561	1	-3
572.900	1	-7
573.240	1	0
573.580	1	0
573.920	1	5
574.260	1	7
574.599	1	3
574.939	1	0
575.279	1	9
575.619	1	8
575.959	1	-14
576.298	1	9
576.638	1	-2
576.978	1	2
577.318	1	4
577.657	1	-17
577.997	1	3
578.337	1	4
578.677	1	3
579.016	1	3
579.356	1	7
579.696	1	11
580.036	1	-4
580.375	1	6
580.715	1	1
581.055	1	-7
581.394	1	0
581.734	1	-4
582.074	1	-2
582.414	1	3
582.753	1	-1
583.093	1	1
583.433	1	3
583.772	1	9
584.112	1	-5
584.452	1	4
584.791	1	-4
585.131	1	-1
585.471	1	9
585.811	1	5
586.150	1	-1
586.490	1	-2
586.830	1	-3
587.169	1	4
587.509	1	0
587.849	1	2
588.188	1	6
588.528	1	3
588.867	1	4
589.207	1	11
589.547	1	-3
589.886	1	-5
590.226	1	11
590.566	1	-7
590.905	1	-2
591.245	1	-6
591.585	1	6
591.924	1	5
592.264	1	5
592.603	1	3
592.943	1	8
593.283	1	-4
593.622	1	-4
593.962	1	4
594.301	1	7
594.641	1	-6
594.981	1	-4
595.320	1	9
595.660	1	1
595.999	1	2
596.339	1	-1
596.678	1	-5
597.018	1	-5
597.358	1	-2
597.697	1	-4
598.037	1	-10
598.376	1	-1
598.716	1	7
599.055	1	4
599.395	1	-2
599.734	1	-9
600.074	1	-2
600.413	1	8
600.753	1	0
601.092	1	18
601.432	1	1
601.771	1	-3
602.111	1	-8
602.451	1	11
602.790	1	3
603.130	1	-1
603.469	1	-4
603.809	1	1
604.148	1	1
604.487	1	-2
604.827	1	9
605.166	1	1
605.506	1	-2
605.845	1	0
606.185	1	5
606.524	1	-3
606.864	1	-5
607.203	1	-12
607.543	1	0
607.882	1	-4
608.222	1	0
608.561	1	-1
608.901	1	-1
609.240	1	-6
609.579	1	1
609.919	1	0
610.258	1	8
610.598	1	-3
610.937	1	9
611.277	1	-7
611.616	1	-1
611.955	1	-9
612.295	1	-3
612.634	1	-8
612.974	1	-8
613.313	1	-2
613.652	1	2
613.992	1	-4
614.331	1	-1
614.671	1	-1
615.010	1	-5
615.349	1	7
615.689	1	4
616.028	1	-4
616.368	1	-1
616.707	1	-8
617.046	1	5
617.386	1	4
617.725	1	-6
618.064	1	2
618.404	1	-13
618.743	1	4
619.082	1	0
619.422	1	-4
619.761	1	3
620.100	1	-1
620.440	1	2
620.779	1	-3
621.118	1	-1
621.458	1	2
621.797	1	3
622.136	1	-2
622.476	1	14
622.815	1	3
623.154	1	-3
623.494	1	1
623.833	1	2
624.172	1	0
624.511	1	-9
624.851	1	-14
625.190	1	-2
625.529	1	5
625.869	1	2
626.208	1	10
626.547	1	-2
626.886	1	-3
627.226	1	-1
627.565	1	6
627.904	1	-4
628.243	1	4
628.583	1	-3
628.922	1	-3
629.261	1	2
629.600	1	9
629.940	1	-4
630.279	1	-11
630.618	1	-1
630.957	1	-12
631.297	1	-2
631.636	1	-6
631.975	1	17
632.314	1	-7
632.653	1	-7
632.993	1	-2
633.332	1	-5
633.671	1	-3
634.010	1	-6
634.349	1	6
634.689	1	-4
635.028	1	-3
635.367	1	-3
635.706	1	6
636.045	1	9
636.384	1	-3
636.724	1	-1
637.063	1	0
637.402	1	5
637.741	1	5
638.080	1	-8
638.419	1	-2
638.759	1	-4
639.098	1	4
639.437	1	8
639.776	1	-3
640.115	1	3
640.454	1	1
640.793	1	7
641.132	1	-3
641.472	1	10
641.811	1	5
642.150	1	1
642.489	1	2
642.828	1	-16
643.167	1	-8
643.506	1	-14
643.845	1	2
644.184	1	4
644.524	1	-5
644.863	1	-2
645.202	1	-1
645.541	1	-3
645.880	1	-3
646.219	1	-7
646.558	1	-5
646.897	1	-3
647.236	1	4
647.575	1	-3
647.914	1	-2
648.253	1	4
648.592	1	-3
648.931	1	0
649.270	1	-4
649.610	1	-10
649.949	1	2
650.288	1	0
650.627	1	1
650.966	1	5
651.305	1	1
651.644	1	13
651.983	1	-2
652.322	1	-1
652.661	1	-5
653.000	1	0
653.339	1	9
653.678	1	5
654.017	1	-1
654.356	1	-1
654.695	1	3
655.034	1	-8
655.373	1	0
655.712	1	-5
656.051	1	-2
656.390	1	-2
656.729	1	9
657.068	1	-8
657.406	1	1
657.745	1	-5
658.084	1	6
658.423	1	5
658.762	1	3
659.101	1	9
659.440	1	2
659.779	1	2
660.118	1	0
660.457	1	-2
660.796	1	-12
661.135	1	-4
661.474	1	-5
661.813	1	9
662.152	1	2
662.491	1	-1
662.829	1	-10
663.168	1	0
663.507	1	12
663.846	1	-6
664.185	1	2
664.524	1	-1
664.863	1	-3
665.202	1	5
665.541	1	-9
665.879	1	-6
666.218	1	-6
666.557	1	1
666.896	1	-3
667.235	1	5
667.574	1	-11
667.913	1	0
668.251	1	-4
668.590	1	-2
668.929	1	-16
669.268	1	-8
669.607	1	-9
669.946	1	3
670.285	1	-1
670.623	1	1
670.962	1	-3
671.301	1	-5
671.640	1	7
671.979	1	-1
672.317	1	9
672.656	1	4
672.995	1	6
673.334	1	-6
673.673	1	-2
674.011	1	5
674.350	1	1
674.689	1	-1
675.028	1	-4
675.367	1	-5
675.705	1	6
676.044	1	-3
676.383	1	5
676.722	1	5
677.060	1	-9
677.399	1	-10
677.738	1	-1
678.077	1	2
678.416	1	2
678.754	1	0
679.093	1	6
679.432	1	-9
679.771	1	4
680.109	1	15
680.448	1	4
680.787	1	-9
681.125	1	-2
681.464	1	-10
681.803	1	-4
682.142	1	13
682.480	1	8
682.819	1	6
683.158	1	1
683.496	1	9
683.835	1	-4
684.174	1	4
684.512	1	-1
684.851	1	16
685.190	1	-4
685.529	1	3
685.867	1	-4
686.206	1	-5
686.545	1	-7
686.883	1	-2
687.222	1	6
687.561	1	8
687.899	1	1
688.238	1	3
688.577	1	-6
688.746	1	-8