File: Data/GaN_200K_800ms/GaN_sample F_spot 12_UVVIS_200 K_200um_800 ms 2x2mm1_199.txt
340.368	1	5
340.710	1	-6
341.052	1	7
341.394	1	-8
341.737	1	0
342.079	1	-8
342.421	1	-4
342.763	1	5
343.105	1	-4
343.447	1	-7
343.789	1	-1
344.131	1	0
344.473	1	-3
344.815	1	6
345.157	1	1
345.499	1	1
345.841	1	3
346.183	1	-5
346.526	1	-7
346.868	1	-1
347.210	1	-2
347.552	1	4
347.894	1	-5
348.236	1	1
348.578	1	1
348.920	1	4
349.262	1	8
349.604	1	4
349.946	1	-3
350.288	1	5
350.630	1	3
350.972	1	3
351.314	1	7
351.656	1	10
351.998	1	4
352.340	1	3
352.682	1	0
353.024	1	2
353.366	1	11
353.708	1	5
354.050	1	-2
354.392	1	1
354.734	1	10
355.076	1	15
355.418	1	-11
355.760	1	-3
356.102	1	13
356.444	1	6
356.785	1	9
357.127	1	3
357.469	1	4
357.811	1	3
358.153	1	11
358.495	1	2
358.837	1	-11
359.179	1	2
359.521	1	7
359.863	1	-2
360.205	1	3
360.547	1	14
360.889	1	-1
361.231	1	4
361.572	1	8
361.914	1	12
362.256	1	10
362.598	1	4
362.940	1	3
363.282	1	15
363.624	1	24
363.966	1	14
364.308	1	13
364.649	1	7
364.991	1	17
365.333	1	22
365.675	1	12
366.017	1	19
366.359	1	24
366.701	1	23
367.042	1	21
367.384	1	26
367.726	1	30
368.068	1	33
368.410	1	49
368.752	1	25
369.093	1	19
369.435	1	38
369.777	1	40
370.119	1	27
370.461	1	50
370.803	1	33
371.144	1	26
371.486	1	29
371.828	1	32
372.170	1	36
372.512	1	19
372.853	1	18
373.195	1	23
373.537	1	32
373.879	1	22
374.220	1	36
374.562	1	42
374.904	1	22
375.246	1	22
375.588	1	8
375.929	1	27
376.271	1	26
376.613	1	14
376.955	1	16
377.296	1	10
377.638	1	15
377.980	1	25
378.321	1	9
378.663	1	5
379.005	1	36
379.347	1	7
379.688	1	17
380.030	1	16
380.372	1	13
380.714	1	19
381.055	1	10
381.397	1	7
381.739	1	14
382.080	1	18
382.422	1	9
382.764	1	6
383.105	1	1
383.447	1	4
383.789	1	9
384.130	1	6
384.472	1	-2
384.814	1	1
385.156	1	6
385.497	1	4
385.839	1	6
386.180	1	2
386.522	1	10
386.864	1	9
387.205	1	2
387.547	1	9
387.889	1	-5
388.230	1	12
388.572	1	0
388.914	1	0
389.255	1	1
389.597	1	5
389.939	1	6
390.280	1	4
390.622	1	1
390.963	1	8
391.305	1	6
391.647	1	8
391.988	1	5
392.330	1	1
392.671	1	-10
393.013	1	7
393.355	1	12
393.696	1	-1
394.038	1	-9
394.379	1	9
394.721	1	2
395.062	1	5
395.404	1	-3
395.746	1	5
396.087	1	-1
396.429	1	6
396.770	1	-8
397.112	1	9
397.453	1	7
397.795	1	7
398.136	1	-17
398.478	1	6
398.819	1	-1
399.161	1	15
399.503	1	0
399.844	1	2
400.186	1	-4
400.527	1	-1
400.869	1	10
401.210	1	4
401.552	1	-3
401.893	1	2
402.235	1	0
402.576	1	2
402.918	1	6
403.259	1	-2
403.601	1	-1
403.942	1	9
404.284	1	10
404.625	1	6
404.967	1	2
405.308	1	3
405.649	1	4
405.991	1	-3
406.332	1	8
406.674	1	-9
407.015	1	7
407.357	1	2
407.698	1	10
408.040	1	2
408.381	1	0
408.722	1	-11
409.064	1	8
409.405	1	13
409.747	1	-5
410.088	1	6
410.430	1	2
410.771	1	2
411.112	1	3
411.454	1	3
411.795	1	-6
412.137	1	4
412.478	1	4
412.819	1	0
413.161	1	3
413.502	1	6
413.844	1	2
414.185	1	6
414.526	1	-3
414.868	1	5
415.209	1	1
415.550	1	-2
415.892	1	-2
416.233	1	5
416.575	1	10
416.916	1	-10
417.257	1	-1
417.599	1	2
417.940	1	9
418.281	1	3
418.623	1	-2
418.964	1	-4
419.305	1	2
419.647	1	-1
419.988	1	-7
420.329	1	-5
420.671	1	1
421.012	1	5
421.353	1	-9
421.695	1	-8
422.036	1	3
422.377	1	-1
422.718	1	4
423.060	1	-4
423.401	1	2
423.742	1	2
424.084	1	4
424.425	1	1
424.766	1	-5
425.107	1	-6
425.449	1	1
425.790	1	-7
426.131	1	1
426.472	1	5
426.814	1	-1
427.155	1	-7
427.496	1	7
427.837	1	0
428.179	1	4
428.520	1	1
428.861	1	2
429.202	1	6
429.544	1	6
429.885	1	9
430.226	1	-4
430.567	1	-1
430.909	1	4
431.250	1	-1
431.591	1	6
431.932	1	-4
432.273	1	-4
432.615	1	-9
432.956	1	2
433.297	1	7
433.638	1	2
433.979	1	10
434.320	1	7
434.662	1	-2
435.003	1	6
435.344	1	-4
435.685	1	8
436.026	1	-4
436.368	1	5
436.709	1	5
437.050	1	4
437.391	1	2
437.732	1	-11
438.073	1	-4
438.414	1	-10
438.756	1	1
439.097	1	-5
439.438	1	-6
439.779	1	-5
440.120	1	8
440.461	1	1
440.802	1	3
441.143	1	9
441.485	1	5
441.826	1	7
442.167	1	0
442.508	1	-3
442.849	1	9
443.190	1	-2
443.531	1	8
443.872	1	4
444.213	1	5
444.554	1	9
444.895	1	-7
445.237	1	-8
445.578	1	-10
445.919	1	-8
446.260	1	8
446.601	1	11
446.942	1	-3
447.283	1	-9
447.624	1	0
447.965	1	0
448.306	1	4
448.647	1	-6
448.988	1	-11
449.329	1	0
449.670	1	8
450.011	1	10
450.352	1	2
450.693	1	-3
451.034	1	0
451.375	1	0
451.716	1	6
452.057	1	6
452.398	1	-1
452.739	1	7
453.080	1	-1
453.421	1	-9
453.762	1	4
454.103	1	-5
454.444	1	-4
454.785	1	-3
455.126	1	-6
455.467	1	-3
455.808	1	3
456.149	1	2
456.490	1	3
456.831	1	0
457.172	1	-1
457.513	1	2
457.854	1	-1
458.195	1	4
458.536	1	3
458.877	1	6
459.218	1	3
459.559	1	4
459.899	1	7
460.240	1	-3
460.581	1	9
460.922	1	3
461.263	1	-3
461.604	1	-9
461.945	1	8
462.286	1	-4
462.627	1	13
462.968	1	-1
463.309	1	-12
463.649	1	1
463.990	1	-8
464.331	1	-3
464.672	1	5
465.013	1	1
465.354	1	1
465.695	1	-8
466.036	1	-4
466.376	1	-10
466.717	1	8
467.058	1	4
467.399	1	13
467.740	1	-7
468.081	1	-1
468.422	1	0
468.762	1	-10
469.103	1	2
469.444	1	-8
469.785	1	-8
470.126	1	0
470.467	1	-1
470.807	1	-2
471.148	1	11
471.489	1	-3
471.830	1	2
472.171	1	12
472.511	1	-5
472.852	1	-8
473.193	1	13
473.534	1	8
473.875	1	11
474.215	1	5
474.556	1	-7
474.897	1	9
475.238	1	4
475.578	1	-7
475.919	1	-7
476.260	1	-4
476.601	1	1
476.942	1	4
477.282	1	-6
477.623	1	-12
477.964	1	-1
478.305	1	-1
478.645	1	15
478.986	1	0
479.327	1	-5
479.667	1	-4
480.008	1	-5
480.349	1	-11
480.690	1	-2
481.030	1	-3
481.371	1	2
481.712	1	10
482.053	1	-1
482.393	1	4
482.734	1	-5
483.075	1	-1
483.415	1	6
483.756	1	11
484.097	1	0
484.437	1	-4
484.778	1	6
485.119	1	-11
485.459	1	11
485.800	1	-7
486.141	1	4
486.481	1	0
486.822	1	4
487.163	1	2
487.503	1	7
487.844	1	3
488.185	1	3
488.525	1	0
488.866	1	3
489.207	1	0
489.547	1	1
489.888	1	0
490.228	1	7
490.569	1	11
490.910	1	1
491.250	1	-2
491.591	1	-6
491.932	1	-6
492.272	1	1
492.613	1	0
492.953	1	-4
493.294	1	1
493.635	1	-4
493.975	1	3
494.316	1	-9
494.656	1	-4
494.997	1	-4
495.337	1	10
495.678	1	1
496.019	1	-4
496.359	1	-2
496.700	1	-2
497.040	1	5
497.381	1	-1
497.721	1	7
498.062	1	-1
498.403	1	3
498.743	1	4
499.084	1	5
499.424	1	4
499.765	1	-7
500.105	1	3
500.446	1	-3
500.786	1	-1
501.127	1	6
501.467	1	-8
501.808	1	1
502.148	1	7
502.489	1	11
502.829	1	0
503.170	1	-2
503.510	1	5
503.851	1	-6
504.191	1	7
504.532	1	6
504.872	1	6
505.213	1	-2
505.553	1	-10
505.894	1	-3
506.234	1	5
506.575	1	4
506.915	1	7
507.256	1	-7
507.596	1	0
507.936	1	0
508.277	1	-1
508.617	1	4
508.958	1	-10
509.298	1	8
509.639	1	0
509.979	1	-1
510.319	1	3
510.660	1	8
511.000	1	-2
511.341	1	1
511.681	1	1
512.022	1	-3
512.362	1	-6
512.702	1	-8
513.043	1	7
513.383	1	-10
513.724	1	0
514.064	1	11
514.404	1	-1
514.745	1	3
515.085	1	4
515.425	1	3
515.766	1	-8
516.106	1	-1
516.447	1	13
516.787	1	5
517.127	1	-4
517.468	1	3
517.808	1	-1
518.148	1	-3
518.489	1	5
518.829	1	6
519.169	1	3
519.510	1	6
519.850	1	9
520.190	1	0
520.531	1	4
520.871	1	6
521.211	1	-9
521.552	1	13
521.892	1	1
522.232	1	1
522.573	1	3
522.913	1	10
523.253	1	-5
523.593	1	-10
523.934	1	2
524.274	1	0
524.614	1	-2
524.955	1	2
525.295	1	-2
525.635	1	6
525.975	1	-3
526.316	1	7
526.656	1	1
526.996	1	12
527.337	1	-4
527.677	1	2
528.017	1	-9
528.357	1	-3
528.698	1	6
529.038	1	9
529.378	1	1
529.718	1	14
530.058	1	5
530.399	1	9
530.739	1	2
531.079	1	6
531.419	1	6
531.760	1	6
532.100	1	-2
532.440	1	4
532.780	1	-1
533.120	1	6
533.461	1	3
533.801	1	10
534.141	1	-13
534.481	1	-9
534.821	1	12
535.162	1	-1
535.502	1	-2
535.842	1	6
536.182	1	-1
536.522	1	-9
536.862	1	10
537.203	1	-4
537.543	1	0
537.883	1	5
538.223	1	11
538.563	1	11
538.903	1	-11
539.243	1	2
539.584	1	-3
539.924	1	11
540.264	1	-4
540.604	1	-2
540.944	1	3
541.284	1	13
541.624	1	12
541.964	1	11
542.305	1	3
542.645	1	2
542.985	1	8
543.325	1	6
543.665	1	14
544.005	1	13
544.345	1	1
544.685	1	8
545.025	1	5
545.365	1	4
545.705	1	-1
546.045	1	-4
546.386	1	8
546.726	1	-8
547.066	1	2
547.406	1	1
547.746	1	-8
548.086	1	-3
548.426	1	-8
548.766	1	6
549.106	1	-2
549.446	1	6
549.786	1	3
550.126	1	22
550.466	1	4
550.806	1	-13
551.146	1	2
551.486	1	2
551.826	1	8
552.166	1	-4
552.506	1	8
552.846	1	2
553.186	1	11
553.526	1	-7
553.866	1	4
554.206	1	7
554.546	1	4
554.886	1	1
555.226	1	-1
555.566	1	7
555.906	1	17
556.246	1	-1
556.586	1	8
556.926	1	5
557.266	1	3
557.606	1	2
557.946	1	10
558.286	1	-3
558.626	1	12
558.966	1	0
559.306	1	1
559.646	1	-5
559.986	1	3
560.325	1	-3
560.665	1	-3
561.005	1	6
561.345	1	-3
561.685	1	1
562.025	1	4
562.365	1	-1
562.705	1	1
563.045	1	-4
563.385	1	-5
563.725	1	3
564.064	1	0
564.404	1	3
564.744	1	-4
565.084	1	1
565.424	1	1
565.764	1	-5
566.104	1	1
566.444	1	-5
566.783	1	4
567.123	1	6
567.463	1	7
567.803	1	5
568.143	1	2
568.483	1	-2
568.823	1	1
569.162	1	8
569.502	1	2
569.842	1	1
570.182	1	3
570.522	1	-9
570.862	1	0
571.201	1	9
571.541	1	0
571.881	1	14
572.221	1	-2
572.561	1	-6
572.900	1	-5
573.240	1	6
573.580	1	-5
573.920	1	6
574.260	1	11
574.599	1	7
574.939	1	6
575.279	1	13
575.619	1	8
575.959	1	-4
576.298	1	7
576.638	1	1
576.978	1	-6
577.318	1	9
577.657	1	-5
577.997	1	3
578.337	1	9
578.677	1	-1
579.016	1	-1
579.356	1	-10
579.696	1	8
580.036	1	-4
580.375	1	7
580.715	1	7
581.055	1	2
581.394	1	-2
581.734	1	-9
582.074	1	-7
582.414	1	7
582.753	1	5
583.093	1	-2
583.433	1	0
583.772	1	11
584.112	1	0
584.452	1	8
584.791	1	-3
585.131	1	0
585.471	1	9
585.811	1	8
586.150	1	0
586.490	1	6
586.830	1	-1
587.169	1	2
587.509	1	4
587.849	1	2
588.188	1	12
588.528	1	3
588.867	1	-4
589.207	1	-1
589.547	1	2
589.886	1	-9
590.226	1	6
590.566	1	-5
590.905	1	-1
591.245	1	-3
591.585	1	2
591.924	1	0
592.264	1	4
592.603	1	3
592.943	1	3
593.283	1	1
593.622	1	2
593.962	1	5
594.301	1	9
594.641	1	3
594.981	1	-14
595.320	1	3
595.660	1	-3
595.999	1	-11
596.339	1	4
596.678	1	-2
597.018	1	-3
597.358	1	6
597.697	1	1
598.037	1	-6
598.376	1	1
598.716	1	11
599.055	1	12
599.395	1	-1
599.734	1	-5
600.074	1	-6
600.413	1	13
600.753	1	9
601.092	1	13
601.432	1	-4
601.771	1	2
602.111	1	0
602.451	1	7
602.790	1	5
603.130	1	8
603.469	1	-6
603.809	1	2
604.148	1	2
604.487	1	5
604.827	1	11
605.166	1	12
605.506	1	8
605.845	1	-2
606.185	1	14
606.524	1	-3
606.864	1	2
607.203	1	-6
607.543	1	1
607.882	1	9
608.222	1	9
608.561	1	9
608.901	1	4
609.240	1	1
609.579	1	4
609.919	1	11
610.258	1	10
610.598	1	1
610.937	1	3
611.277	1	-3
611.616	1	4
611.955	1	2
612.295	1	-10
612.634	1	-1
612.974	1	-19
613.313	1	12
613.652	1	6
613.992	1	7
614.331	1	-1
614.671	1	-3
615.010	1	-11
615.349	1	7
615.689	1	13
616.028	1	-1
616.368	1	-1
616.707	1	-5
617.046	1	4
617.386	1	7
617.725	1	3
618.064	1	-7
618.404	1	-1
618.743	1	4
619.082	1	12
619.422	1	-7
619.761	1	8
620.100	1	2
620.440	1	3
620.779	1	-8
621.118	1	3
621.458	1	4
621.797	1	3
622.136	1	17
622.476	1	9
622.815	1	16
623.154	1	3
623.494	1	10
623.833	1	7
624.172	1	-2
624.511	1	-6
624.851	1	-4
625.190	1	7
625.529	1	5
625.869	1	9
626.208	1	3
626.547	1	5
626.886	1	5
627.226	1	-2
627.565	1	7
627.904	1	-12
628.243	1	8
628.583	1	2
628.922	1	13
629.261	1	2
629.600	1	9
629.940	1	-6
630.279	1	4
630.618	1	7
630.957	1	2
631.297	1	-4
631.636	1	-18
631.975	1	20
632.314	1	3
632.653	1	6
632.993	1	-3
633.332	1	7
633.671	1	-4
634.010	1	-5
634.349	1	12
634.689	1	0
635.028	1	7
635.367	1	-7
635.706	1	3
636.045	1	-1
636.384	1	-3
636.724	1	6
637.063	1	-6
637.402	1	5
637.741	1	1
638.080	1	-5
638.419	1	0
638.759	1	-3
639.098	1	0
639.437	1	-1
639.776	1	-7
640.115	1	-10
640.454	1	-4
640.793	1	5
641.132	1	7
641.472	1	5
641.811	1	1
642.150	1	-2
642.489	1	5
642.828	1	-7
643.167	1	-6
643.506	1	-8
643.845	1	-1
644.184	1	3
644.524	1	6
644.863	1	-4
645.202	1	6
645.541	1	4
645.880	1	6
646.219	1	7
646.558	1	-1
646.897	1	-5
647.236	1	2
647.575	1	4
647.914	1	-12
648.253	1	11
648.592	1	5
648.931	1	1
649.270	1	12
649.610	1	5
649.949	1	-2
650.288	1	5
650.627	1	3
650.966	1	4
651.305	1	4
651.644	1	14
651.983	1	2
652.322	1	3
652.661	1	-1
653.000	1	9
653.339	1	17
653.678	1	1
654.017	1	-11
654.356	1	2
654.695	1	8
655.034	1	4
655.373	1	9
655.712	1	-4
656.051	1	-7
656.390	1	-1
656.729	1	3
657.068	1	-2
657.406	1	7
657.745	1	0
658.084	1	-2
658.423	1	3
658.762	1	-3
659.101	1	7
659.440	1	4
659.779	1	2
660.118	1	6
660.457	1	-1
660.796	1	-8
661.135	1	-1
661.474	1	-4
661.813	1	3
662.152	1	2
662.491	1	-3
662.829	1	-4
663.168	1	10
663.507	1	14
663.846	1	-9
664.185	1	2
664.524	1	-1
664.863	1	-4
665.202	1	5
665.541	1	-5
665.879	1	-10
666.218	1	-10
666.557	1	-2
666.896	1	3
667.235	1	8
667.574	1	-4
667.913	1	11
668.251	1	-7
668.590	1	-1
668.929	1	-1
669.268	1	-8
669.607	1	-7
669.946	1	0
670.285	1	8
670.623	1	-5
670.962	1	-4
671.301	1	4
671.640	1	1
671.979	1	-5
672.317	1	0
672.656	1	7
672.995	1	7
673.334	1	-9
673.673	1	-6
674.011	1	-3
674.350	1	3
674.689	1	4
675.028	1	1
675.367	1	0
675.705	1	11
676.044	1	0
676.383	1	2
676.722	1	-1
677.060	1	-2
677.399	1	-10
677.738	1	7
678.077	1	5
678.416	1	11
678.754	1	0
679.093	1	0
679.432	1	-2
679.771	1	-5
680.109	1	11
680.448	1	1
680.787	1	-3
681.125	1	4
681.464	1	1
681.803	1	-3
682.142	1	9
682.480	1	6
682.819	1	6
683.158	1	-2
683.496	1	10
683.835	1	4
684.174	1	-6
684.512	1	4
684.851	1	2
685.190	1	-6
685.529	1	0
685.867	1	8
686.206	1	-1
686.545	1	-2
686.883	1	3
687.222	1	-1
687.561	1	5
687.899	1	5
688.238	1	14
688.577	1	-4
688.746	1	-1