File: Data/GaN_200K_800ms/GaN_sample F_spot 12_UVVIS_200 K_200um_800 ms 2x2mm1_495.txt
340.368	1	2
340.710	1	-14
341.052	1	15
341.394	1	-4
341.737	1	6
342.079	1	-4
342.421	1	-4
342.763	1	1
343.105	1	-2
343.447	1	-1
343.789	1	-8
344.131	1	-5
344.473	1	-2
344.815	1	-6
345.157	1	1
345.499	1	0
345.841	1	13
346.183	1	-6
346.526	1	-8
346.868	1	3
347.210	1	-8
347.552	1	-6
347.894	1	8
348.236	1	5
348.578	1	-1
348.920	1	2
349.262	1	-3
349.604	1	0
349.946	1	-16
350.288	1	3
350.630	1	0
350.972	1	2
351.314	1	6
351.656	1	5
351.998	1	-2
352.340	1	-1
352.682	1	-5
353.024	1	1
353.366	1	6
353.708	1	-5
354.050	1	-2
354.392	1	-8
354.734	1	0
355.076	1	5
355.418	1	-9
355.760	1	3
356.102	1	13
356.444	1	1
356.785	1	2
357.127	1	-5
357.469	1	-4
357.811	1	6
358.153	1	-2
358.495	1	-1
358.837	1	-11
359.179	1	3
359.521	1	4
359.863	1	-4
360.205	1	-5
360.547	1	2
360.889	1	-4
361.231	1	-13
361.572	1	4
361.914	1	-6
362.256	1	2
362.598	1	-11
362.940	1	1
363.282	1	5
363.624	1	8
363.966	1	2
364.308	1	-3
364.649	1	8
364.991	1	8
365.333	1	2
365.675	1	-1
366.017	1	10
366.359	1	11
366.701	1	0
367.042	1	0
367.384	1	2
367.726	1	7
368.068	1	10
368.410	1	17
368.752	1	7
369.093	1	0
369.435	1	6
369.777	1	9
370.119	1	-1
370.461	1	18
370.803	1	6
371.144	1	2
371.486	1	15
371.828	1	14
372.170	1	4
372.512	1	1
372.853	1	12
373.195	1	9
373.537	1	4
373.879	1	-2
374.220	1	17
374.562	1	8
374.904	1	-1
375.246	1	4
375.588	1	2
375.929	1	6
376.271	1	3
376.613	1	2
376.955	1	2
377.296	1	-5
377.638	1	9
377.980	1	6
378.321	1	-18
378.663	1	-6
379.005	1	2
379.347	1	6
379.688	1	4
380.030	1	-8
380.372	1	-1
380.714	1	8
381.055	1	11
381.397	1	-4
381.739	1	6
382.080	1	-4
382.422	1	-5
382.764	1	-3
383.105	1	0
383.447	1	-7
383.789	1	-2
384.130	1	0
384.472	1	-1
384.814	1	0
385.156	1	-4
385.497	1	8
385.839	1	-5
386.180	1	7
386.522	1	7
386.864	1	3
387.205	1	-8
387.547	1	-4
387.889	1	-9
388.230	1	8
388.572	1	-9
388.914	1	1
389.255	1	-4
389.597	1	5
389.939	1	5
390.280	1	0
390.622	1	-6
390.963	1	11
391.305	1	-4
391.647	1	5
391.988	1	3
392.330	1	8
392.671	1	-2
393.013	1	-7
393.355	1	-1
393.696	1	3
394.038	1	0
394.379	1	8
394.721	1	-4
395.062	1	4
395.404	1	-2
395.746	1	7
396.087	1	-4
396.429	1	5
396.770	1	2
397.112	1	4
397.453	1	7
397.795	1	3
398.136	1	-3
398.478	1	0
398.819	1	1
399.161	1	10
399.503	1	-3
399.844	1	2
400.186	1	1
400.527	1	-5
400.869	1	-1
401.210	1	-1
401.552	1	-9
401.893	1	-7
402.235	1	-7
402.576	1	0
402.918	1	9
403.259	1	6
403.601	1	-8
403.942	1	5
404.284	1	5
404.625	1	5
404.967	1	-4
405.308	1	5
405.649	1	4
405.991	1	-2
406.332	1	3
406.674	1	-2
407.015	1	1
407.357	1	-7
407.698	1	8
408.040	1	0
408.381	1	-6
408.722	1	-13
409.064	1	4
409.405	1	10
409.747	1	-4
410.088	1	0
410.430	1	4
410.771	1	-5
411.112	1	-4
411.454	1	-4
411.795	1	-10
412.137	1	0
412.478	1	5
412.819	1	-5
413.161	1	-1
413.502	1	1
413.844	1	-2
414.185	1	0
414.526	1	-3
414.868	1	-5
415.209	1	-3
415.550	1	-7
415.892	1	-4
416.233	1	4
416.575	1	10
416.916	1	-10
417.257	1	-4
417.599	1	3
417.940	1	9
418.281	1	-4
418.623	1	-4
418.964	1	-10
419.305	1	9
419.647	1	3
419.988	1	-1
420.329	1	-2
420.671	1	4
421.012	1	2
421.353	1	-6
421.695	1	-3
422.036	1	-1
422.377	1	-2
422.718	1	10
423.060	1	-9
423.401	1	8
423.742	1	-3
424.084	1	1
424.425	1	5
424.766	1	-9
425.107	1	-6
425.449	1	2
425.790	1	-9
426.131	1	7
426.472	1	12
426.814	1	-2
427.155	1	-12
427.496	1	0
427.837	1	-4
428.179	1	-8
428.520	1	-2
428.861	1	-1
429.202	1	7
429.544	1	-9
429.885	1	7
430.226	1	-11
430.567	1	-2
430.909	1	-2
431.250	1	-1
431.591	1	1
431.932	1	-9
432.273	1	-8
432.615	1	-4
432.956	1	-13
433.297	1	-5
433.638	1	-2
433.979	1	4
434.320	1	5
434.662	1	0
435.003	1	4
435.344	1	4
435.685	1	3
436.026	1	-2
436.368	1	4
436.709	1	-4
437.050	1	-3
437.391	1	3
437.732	1	-10
438.073	1	-5
438.414	1	-7
438.756	1	-10
439.097	1	-8
439.438	1	-2
439.779	1	-6
440.120	1	-2
440.461	1	-4
440.802	1	-5
441.143	1	3
441.485	1	-2
441.826	1	1
442.167	1	0
442.508	1	-4
442.849	1	6
443.190	1	1
443.531	1	2
443.872	1	5
444.213	1	-1
444.554	1	2
444.895	1	-8
445.237	1	-2
445.578	1	-7
445.919	1	-9
446.260	1	-9
446.601	1	-1
446.942	1	9
447.283	1	-9
447.624	1	-1
447.965	1	-2
448.306	1	5
448.647	1	-13
448.988	1	-4
449.329	1	0
449.670	1	6
450.011	1	3
450.352	1	-1
450.693	1	-2
451.034	1	-7
451.375	1	-3
451.716	1	0
452.057	1	5
452.398	1	-2
452.739	1	1
453.080	1	0
453.421	1	-8
453.762	1	-7
454.103	1	-1
454.444	1	-10
454.785	1	-5
455.126	1	-7
455.467	1	2
455.808	1	-1
456.149	1	3
456.490	1	-1
456.831	1	4
457.172	1	-12
457.513	1	8
457.854	1	-2
458.195	1	-8
458.536	1	10
458.877	1	0
459.218	1	-1
459.559	1	-6
459.899	1	-3
460.240	1	-1
460.581	1	16
460.922	1	5
461.263	1	-8
461.604	1	-4
461.945	1	-3
462.286	1	0
462.627	1	-1
462.968	1	-2
463.309	1	-10
463.649	1	-2
463.990	1	-4
464.331	1	0
464.672	1	-3
465.013	1	-4
465.354	1	1
465.695	1	-5
466.036	1	-5
466.376	1	-11
466.717	1	5
467.058	1	-10
467.399	1	6
467.740	1	2
468.081	1	-2
468.422	1	-9
468.762	1	-10
469.103	1	-7
469.444	1	-7
469.785	1	-10
470.126	1	-3
470.467	1	-4
470.807	1	5
471.148	1	4
471.489	1	1
471.830	1	-4
472.171	1	3
472.511	1	-10
472.852	1	2
473.193	1	6
473.534	1	12
473.875	1	17
474.215	1	6
474.556	1	3
474.897	1	2
475.238	1	2
475.578	1	-13
475.919	1	-7
476.260	1	-3
476.601	1	1
476.942	1	9
477.282	1	1
477.623	1	-10
477.964	1	-5
478.305	1	-6
478.645	1	4
478.986	1	-7
479.327	1	-17
479.667	1	-8
480.008	1	-9
480.349	1	-6
480.690	1	6
481.030	1	-2
481.371	1	4
481.712	1	5
482.053	1	5
482.393	1	-4
482.734	1	-5
483.075	1	2
483.415	1	-2
483.756	1	-2
484.097	1	-13
484.437	1	-4
484.778	1	1
485.119	1	-4
485.459	1	18
485.800	1	-2
486.141	1	-10
486.481	1	-3
486.822	1	9
487.163	1	3
487.503	1	-1
487.844	1	-1
488.185	1	-1
488.525	1	-5
488.866	1	3
489.207	1	-2
489.547	1	-3
489.888	1	-1
490.228	1	7
490.569	1	6
490.910	1	2
491.250	1	-4
491.591	1	-6
491.932	1	7
492.272	1	5
492.613	1	-3
492.953	1	-4
493.294	1	-3
493.635	1	-5
493.975	1	-7
494.316	1	0
494.656	1	-6
494.997	1	-2
495.337	1	6
495.678	1	-7
496.019	1	-2
496.359	1	-6
496.700	1	6
497.040	1	0
497.381	1	-5
497.721	1	1
498.062	1	-7
498.403	1	5
498.743	1	-7
499.084	1	1
499.424	1	0
499.765	1	0
500.105	1	-3
500.446	1	-10
500.786	1	-14
501.127	1	6
501.467	1	-6
501.808	1	2
502.148	1	3
502.489	1	0
502.829	1	-8
503.170	1	9
503.510	1	3
503.851	1	0
504.191	1	-2
504.532	1	0
504.872	1	3
505.213	1	8
505.553	1	-8
505.894	1	-11
506.234	1	4
506.575	1	7
506.915	1	8
507.256	1	0
507.596	1	2
507.936	1	0
508.277	1	-7
508.617	1	3
508.958	1	-10
509.298	1	-4
509.639	1	-6
509.979	1	-1
510.319	1	6
510.660	1	-6
511.000	1	-8
511.341	1	-3
511.681	1	10
512.022	1	-4
512.362	1	0
512.702	1	-7
513.043	1	8
513.383	1	-12
513.724	1	12
514.064	1	7
514.404	1	-9
514.745	1	-4
515.085	1	-2
515.425	1	-6
515.766	1	-9
516.106	1	-2
516.447	1	12
516.787	1	2
517.127	1	-5
517.468	1	0
517.808	1	-4
518.148	1	-2
518.489	1	-3
518.829	1	2
519.169	1	-14
519.510	1	3
519.850	1	0
520.190	1	-5
520.531	1	9
520.871	1	5
521.211	1	-17
521.552	1	7
521.892	1	0
522.232	1	8
522.573	1	-6
522.913	1	2
523.253	1	3
523.593	1	0
523.934	1	2
524.274	1	0
524.614	1	3
524.955	1	-9
525.295	1	1
525.635	1	0
525.975	1	2
526.316	1	10
526.656	1	-9
526.996	1	3
527.337	1	-4
527.677	1	0
528.017	1	-10
528.357	1	-8
528.698	1	1
529.038	1	0
529.378	1	7
529.718	1	1
530.058	1	-5
530.399	1	6
530.739	1	-3
531.079	1	-1
531.419	1	3
531.760	1	-3
532.100	1	-2
532.440	1	-8
532.780	1	1
533.120	1	11
533.461	1	-8
533.801	1	8
534.141	1	-9
534.481	1	-9
534.821	1	7
535.162	1	1
535.502	1	-4
535.842	1	10
536.182	1	-5
536.522	1	-11
536.862	1	1
537.203	1	-14
537.543	1	-1
537.883	1	-4
538.223	1	2
538.563	1	6
538.903	1	-5
539.243	1	0
539.584	1	-3
539.924	1	16
540.264	1	-9
540.604	1	1
540.944	1	-8
541.284	1	10
541.624	1	6
541.964	1	7
542.305	1	7
542.645	1	1
542.985	1	-2
543.325	1	0
543.665	1	8
544.005	1	4
544.345	1	6
544.685	1	-1
545.025	1	-3
545.365	1	3
545.705	1	3
546.045	1	-7
546.386	1	0
546.726	1	-5
547.066	1	1
547.406	1	2
547.746	1	-7
548.086	1	2
548.426	1	-11
548.766	1	2
549.106	1	-1
549.446	1	2
549.786	1	3
550.126	1	9
550.466	1	-4
550.806	1	1
551.146	1	1
551.486	1	-3
551.826	1	0
552.166	1	1
552.506	1	11
552.846	1	-1
553.186	1	1
553.526	1	2
553.866	1	4
554.206	1	3
554.546	1	-8
554.886	1	1
555.226	1	-3
555.566	1	2
555.906	1	4
556.246	1	0
556.586	1	-5
556.926	1	-5
557.266	1	-2
557.606	1	-3
557.946	1	14
558.286	1	-8
558.626	1	11
558.966	1	-1
559.306	1	-15
559.646	1	-8
559.986	1	-2
560.325	1	0
560.665	1	11
561.005	1	-6
561.345	1	6
561.685	1	-5
562.025	1	-4
562.365	1	9
562.705	1	7
563.045	1	-9
563.385	1	-18
563.725	1	-4
564.064	1	-2
564.404	1	7
564.744	1	-5
565.084	1	-3
565.424	1	0
565.764	1	3
566.104	1	4
566.444	1	-6
566.783	1	-1
567.123	1	4
567.463	1	3
567.803	1	-12
568.143	1	-5
568.483	1	1
568.823	1	-3
569.162	1	-1
569.502	1	1
569.842	1	5
570.182	1	-5
570.522	1	-15
570.862	1	-8
571.201	1	6
571.541	1	-3
571.881	1	10
572.221	1	-9
572.561	1	-6
572.900	1	-8
573.240	1	8
573.580	1	-4
573.920	1	10
574.260	1	3
574.599	1	0
574.939	1	-1
575.279	1	4
575.619	1	2
575.959	1	-3
576.298	1	13
576.638	1	-3
576.978	1	3
577.318	1	3
577.657	1	-4
577.997	1	-4
578.337	1	10
578.677	1	-1
579.016	1	-1
579.356	1	-2
579.696	1	5
580.036	1	3
580.375	1	0
580.715	1	3
581.055	1	-1
581.394	1	0
581.734	1	-3
582.074	1	0
582.414	1	6
582.753	1	-4
583.093	1	-2
583.433	1	-6
583.772	1	-2
584.112	1	-4
584.452	1	-1
584.791	1	-3
585.131	1	4
585.471	1	4
585.811	1	-1
586.150	1	5
586.490	1	3
586.830	1	-1
587.169	1	3
587.509	1	-1
587.849	1	4
588.188	1	-1
588.528	1	-4
588.867	1	1
589.207	1	-4
589.547	1	2
589.886	1	-8
590.226	1	3
590.566	1	-6
590.905	1	-1
591.245	1	5
591.585	1	6
591.924	1	1
592.264	1	-1
592.603	1	-2
592.943	1	-7
593.283	1	-3
593.622	1	-1
593.962	1	6
594.301	1	6
594.641	1	-2
594.981	1	-7
595.320	1	6
595.660	1	3
595.999	1	-2
596.339	1	6
596.678	1	-5
597.018	1	-8
597.358	1	6
597.697	1	-2
598.037	1	0
598.376	1	2
598.716	1	6
599.055	1	-3
599.395	1	-9
599.734	1	5
600.074	1	0
600.413	1	13
600.753	1	0
601.092	1	9
601.432	1	-5
601.771	1	7
602.111	1	-2
602.451	1	11
602.790	1	-6
603.130	1	-2
603.469	1	-10
603.809	1	-1
604.148	1	-3
604.487	1	-7
604.827	1	5
605.166	1	-2
605.506	1	2
605.845	1	-2
606.185	1	4
606.524	1	-8
606.864	1	-7
607.203	1	-10
607.543	1	0
607.882	1	-1
608.222	1	4
608.561	1	3
608.901	1	9
609.240	1	1
609.579	1	3
609.919	1	8
610.258	1	5
610.598	1	-3
610.937	1	0
611.277	1	-2
611.616	1	-3
611.955	1	1
612.295	1	-2
612.634	1	-4
612.974	1	-10
613.313	1	9
613.652	1	1
613.992	1	-3
614.331	1	-4
614.671	1	1
615.010	1	-11
615.349	1	6
615.689	1	6
616.028	1	2
616.368	1	0
616.707	1	2
617.046	1	-7
617.386	1	5
617.725	1	-3
618.064	1	-13
618.404	1	-3
618.743	1	6
619.082	1	5
619.422	1	-9
619.761	1	-1
620.100	1	2
620.440	1	1
620.779	1	-8
621.118	1	-1
621.458	1	-4
621.797	1	-3
622.136	1	12
622.476	1	-2
622.815	1	13
623.154	1	3
623.494	1	13
623.833	1	4
624.172	1	-2
624.511	1	4
624.851	1	-6
625.190	1	-4
625.529	1	-1
625.869	1	15
626.208	1	-2
626.547	1	2
626.886	1	2
627.226	1	3
627.565	1	-8
627.904	1	-3
628.243	1	4
628.583	1	-3
628.922	1	4
629.261	1	2
629.600	1	9
629.940	1	-2
630.279	1	-4
630.618	1	1
630.957	1	-2
631.297	1	1
631.636	1	-4
631.975	1	8
632.314	1	2
632.653	1	4
632.993	1	-4
633.332	1	2
633.671	1	-11
634.010	1	0
634.349	1	2
634.689	1	-7
635.028	1	9
635.367	1	4
635.706	1	-4
636.045	1	15
636.384	1	-4
636.724	1	-1
637.063	1	2
637.402	1	3
637.741	1	4
638.080	1	-1
638.419	1	-15
638.759	1	0
639.098	1	3
639.437	1	2
639.776	1	-6
640.115	1	-7
640.454	1	-8
640.793	1	3
641.132	1	1
641.472	1	1
641.811	1	4
642.150	1	-7
642.489	1	7
642.828	1	-3
643.167	1	3
643.506	1	-10
643.845	1	-1
644.184	1	-2
644.524	1	-8
644.863	1	-15
645.202	1	7
645.541	1	4
645.880	1	4
646.219	1	0
646.558	1	-11
646.897	1	6
647.236	1	2
647.575	1	0
647.914	1	-6
648.253	1	4
648.592	1	-5
648.931	1	-1
649.270	1	-4
649.610	1	0
649.949	1	-7
650.288	1	1
650.627	1	-2
650.966	1	5
651.305	1	4
651.644	1	5
651.983	1	-4
652.322	1	-5
652.661	1	-8
653.000	1	-3
653.339	1	3
653.678	1	-7
654.017	1	-10
654.356	1	-9
654.695	1	2
655.034	1	-2
655.373	1	11
655.712	1	-3
656.051	1	-7
656.390	1	-3
656.729	1	6
657.068	1	8
657.406	1	3
657.745	1	-6
658.084	1	0
658.423	1	9
658.762	1	-4
659.101	1	1
659.440	1	6
659.779	1	0
660.118	1	5
660.457	1	-3
660.796	1	-4
661.135	1	-2
661.474	1	-1
661.813	1	7
662.152	1	2
662.491	1	-3
662.829	1	-5
663.168	1	-1
663.507	1	-2
663.846	1	-3
664.185	1	5
664.524	1	5
664.863	1	-4
665.202	1	13
665.541	1	-13
665.879	1	-9
666.218	1	1
666.557	1	1
666.896	1	-7
667.235	1	3
667.574	1	0
667.913	1	4
668.251	1	-9
668.590	1	-10
668.929	1	-14
669.268	1	-6
669.607	1	-11
669.946	1	-2
670.285	1	2
670.623	1	-8
670.962	1	-2
671.301	1	-4
671.640	1	2
671.979	1	-10
672.317	1	-5
672.656	1	-3
672.995	1	3
673.334	1	-6
673.673	1	6
674.011	1	7
674.350	1	3
674.689	1	-2
675.028	1	-2
675.367	1	2
675.705	1	8
676.044	1	-3
676.383	1	-2
676.722	1	-2
677.060	1	2
677.399	1	-8
677.738	1	3
678.077	1	-7
678.416	1	0
678.754	1	-6
679.093	1	6
679.432	1	-7
679.771	1	4
680.109	1	3
680.448	1	-8
680.787	1	-2
681.125	1	2
681.464	1	0
681.803	1	-5
682.142	1	2
682.480	1	12
682.819	1	-3
683.158	1	-1
683.496	1	-5
683.835	1	0
684.174	1	-6
684.512	1	6
684.851	1	-1
685.190	1	-6
685.529	1	-6
685.867	1	6
686.206	1	-4
686.545	1	-7
686.883	1	-6
687.222	1	-1
687.561	1	-1
687.899	1	4
688.238	1	-4
688.577	1	-8
688.746	1	-3