File: Data/GaN_200K_800ms/GaN_sample F_spot 12_UVVIS_200 K_200um_800 ms 2x2mm1_102.txt
340.368	1	11
340.710	1	-1
341.052	1	11
341.394	1	-2
341.737	1	6
342.079	1	0
342.421	1	-2
342.763	1	9
343.105	1	2
343.447	1	-4
343.789	1	4
344.131	1	-3
344.473	1	4
344.815	1	1
345.157	1	-1
345.499	1	3
345.841	1	7
346.183	1	-1
346.526	1	-4
346.868	1	18
347.210	1	-11
347.552	1	-4
347.894	1	5
348.236	1	10
348.578	1	2
348.920	1	10
349.262	1	0
349.604	1	3
349.946	1	-2
350.288	1	14
350.630	1	11
350.972	1	3
351.314	1	9
351.656	1	8
351.998	1	13
352.340	1	16
352.682	1	20
353.024	1	6
353.366	1	20
353.708	1	2
354.050	1	-7
354.392	1	4
354.734	1	17
355.076	1	9
355.418	1	-9
355.760	1	0
356.102	1	17
356.444	1	16
356.785	1	16
357.127	1	4
357.469	1	13
357.811	1	14
358.153	1	25
358.495	1	13
358.837	1	-1
359.179	1	17
359.521	1	21
359.863	1	15
360.205	1	13
360.547	1	16
360.889	1	17
361.231	1	21
361.572	1	23
361.914	1	26
362.256	1	32
362.598	1	15
362.940	1	28
363.282	1	41
363.624	1	46
363.966	1	38
364.308	1	36
364.649	1	55
364.991	1	58
365.333	1	37
365.675	1	45
366.017	1	54
366.359	1	59
366.701	1	70
367.042	1	74
367.384	1	81
367.726	1	81
368.068	1	92
368.410	1	95
368.752	1	84
369.093	1	96
369.435	1	104
369.777	1	96
370.119	1	102
370.461	1	106
370.803	1	96
371.144	1	88
371.486	1	94
371.828	1	99
372.170	1	79
372.512	1	68
372.853	1	71
373.195	1	64
373.537	1	70
373.879	1	64
374.220	1	73
374.562	1	60
374.904	1	61
375.246	1	64
375.588	1	62
375.929	1	47
376.271	1	48
376.613	1	49
376.955	1	41
377.296	1	38
377.638	1	38
377.980	1	41
378.321	1	34
378.663	1	30
379.005	1	50
379.347	1	40
379.688	1	32
380.030	1	34
380.372	1	39
380.714	1	37
381.055	1	34
381.397	1	32
381.739	1	33
382.080	1	28
382.422	1	19
382.764	1	13
383.105	1	21
383.447	1	28
383.789	1	16
384.130	1	24
384.472	1	8
384.814	1	15
385.156	1	16
385.497	1	33
385.839	1	15
386.180	1	23
386.522	1	9
386.864	1	25
387.205	1	10
387.547	1	7
387.889	1	9
388.230	1	13
388.572	1	21
388.914	1	13
389.255	1	8
389.597	1	16
389.939	1	8
390.280	1	8
390.622	1	5
390.963	1	16
391.305	1	8
391.647	1	15
391.988	1	12
392.330	1	5
392.671	1	13
393.013	1	11
393.355	1	15
393.696	1	8
394.038	1	8
394.379	1	3
394.721	1	6
395.062	1	13
395.404	1	2
395.746	1	17
396.087	1	3
396.429	1	12
396.770	1	1
397.112	1	12
397.453	1	13
397.795	1	16
398.136	1	-14
398.478	1	6
398.819	1	12
399.161	1	13
399.503	1	8
399.844	1	-4
400.186	1	4
400.527	1	1
400.869	1	14
401.210	1	6
401.552	1	0
401.893	1	3
402.235	1	0
402.576	1	-2
402.918	1	15
403.259	1	4
403.601	1	-2
403.942	1	6
404.284	1	1
404.625	1	6
404.967	1	5
405.308	1	5
405.649	1	1
405.991	1	-2
406.332	1	0
406.674	1	5
407.015	1	6
407.357	1	1
407.698	1	8
408.040	1	6
408.381	1	9
408.722	1	-6
409.064	1	2
409.405	1	3
409.747	1	8
410.088	1	8
410.430	1	7
410.771	1	6
411.112	1	4
411.454	1	0
411.795	1	5
412.137	1	2
412.478	1	8
412.819	1	-3
413.161	1	7
413.502	1	1
413.844	1	3
414.185	1	7
414.526	1	0
414.868	1	11
415.209	1	6
415.550	1	-3
415.892	1	-7
416.233	1	3
416.575	1	16
416.916	1	1
417.257	1	3
417.599	1	10
417.940	1	10
418.281	1	9
418.623	1	4
418.964	1	-7
419.305	1	8
419.647	1	4
419.988	1	5
420.329	1	-3
420.671	1	7
421.012	1	12
421.353	1	2
421.695	1	-5
422.036	1	7
422.377	1	7
422.718	1	10
423.060	1	2
423.401	1	8
423.742	1	11
424.084	1	-1
424.425	1	12
424.766	1	1
425.107	1	2
425.449	1	6
425.790	1	-3
426.131	1	8
426.472	1	11
426.814	1	8
427.155	1	-3
427.496	1	3
427.837	1	-8
428.179	1	-2
428.520	1	9
428.861	1	-8
429.202	1	9
429.544	1	-6
429.885	1	14
430.226	1	-8
430.567	1	-1
430.909	1	4
431.250	1	2
431.591	1	12
431.932	1	0
432.273	1	1
432.615	1	-5
432.956	1	-4
433.297	1	7
433.638	1	-5
433.979	1	1
434.320	1	1
434.662	1	1
435.003	1	3
435.344	1	10
435.685	1	1
436.026	1	9
436.368	1	2
436.709	1	1
437.050	1	2
437.391	1	9
437.732	1	-8
438.073	1	0
438.414	1	-6
438.756	1	0
439.097	1	-12
439.438	1	-2
439.779	1	-1
440.120	1	3
440.461	1	5
440.802	1	-2
441.143	1	11
441.485	1	-2
441.826	1	-5
442.167	1	-1
442.508	1	-6
442.849	1	16
443.190	1	0
443.531	1	6
443.872	1	2
444.213	1	4
444.554	1	14
444.895	1	1
445.237	1	-2
445.578	1	-4
445.919	1	-2
446.260	1	-3
446.601	1	-2
446.942	1	2
447.283	1	-2
447.624	1	4
447.965	1	1
448.306	1	2
448.647	1	-5
448.988	1	3
449.329	1	4
449.670	1	6
450.011	1	10
450.352	1	1
450.693	1	3
451.034	1	-4
451.375	1	2
451.716	1	2
452.057	1	2
452.398	1	-1
452.739	1	15
453.080	1	0
453.421	1	0
453.762	1	-3
454.103	1	-2
454.444	1	2
454.785	1	1
455.126	1	-5
455.467	1	-1
455.808	1	5
456.149	1	12
456.490	1	3
456.831	1	3
457.172	1	-6
457.513	1	6
457.854	1	3
458.195	1	-4
458.536	1	8
458.877	1	-3
459.218	1	-1
459.559	1	6
459.899	1	-2
460.240	1	4
460.581	1	20
460.922	1	3
461.263	1	-4
461.604	1	1
461.945	1	-3
462.286	1	7
462.627	1	8
462.968	1	5
463.309	1	-4
463.649	1	-1
463.990	1	-1
464.331	1	-5
464.672	1	-2
465.013	1	-3
465.354	1	-10
465.695	1	-2
466.036	1	5
466.376	1	-4
466.717	1	6
467.058	1	-1
467.399	1	5
467.740	1	8
468.081	1	5
468.422	1	-1
468.762	1	-6
469.103	1	-1
469.444	1	-7
469.785	1	-2
470.126	1	-9
470.467	1	-3
470.807	1	-1
471.148	1	3
471.489	1	-3
471.830	1	4
472.171	1	1
472.511	1	-8
472.852	1	1
473.193	1	8
473.534	1	14
473.875	1	22
474.215	1	12
474.556	1	7
474.897	1	3
475.238	1	2
475.578	1	-9
475.919	1	-4
476.260	1	-4
476.601	1	0
476.942	1	7
477.282	1	1
477.623	1	-12
477.964	1	-1
478.305	1	1
478.645	1	15
478.986	1	-5
479.327	1	-5
479.667	1	4
480.008	1	7
480.349	1	-4
480.690	1	2
481.030	1	0
481.371	1	-1
481.712	1	2
482.053	1	9
482.393	1	11
482.734	1	-6
483.075	1	5
483.415	1	9
483.756	1	14
484.097	1	7
484.437	1	4
484.778	1	4
485.119	1	-6
485.459	1	7
485.800	1	1
486.141	1	-1
486.481	1	1
486.822	1	8
487.163	1	-5
487.503	1	2
487.844	1	6
488.185	1	5
488.525	1	12
488.866	1	9
489.207	1	0
489.547	1	4
489.888	1	-3
490.228	1	5
490.569	1	7
490.910	1	-4
491.250	1	4
491.591	1	-3
491.932	1	0
492.272	1	12
492.613	1	1
492.953	1	1
493.294	1	2
493.635	1	7
493.975	1	7
494.316	1	8
494.656	1	1
494.997	1	1
495.337	1	12
495.678	1	8
496.019	1	2
496.359	1	5
496.700	1	3
497.040	1	3
497.381	1	-5
497.721	1	5
498.062	1	2
498.403	1	6
498.743	1	-2
499.084	1	3
499.424	1	3
499.765	1	4
500.105	1	13
500.446	1	-3
500.786	1	-5
501.127	1	5
501.467	1	1
501.808	1	4
502.148	1	2
502.489	1	-1
502.829	1	8
503.170	1	21
503.510	1	13
503.851	1	8
504.191	1	7
504.532	1	11
504.872	1	6
505.213	1	10
505.553	1	-5
505.894	1	1
506.234	1	13
506.575	1	14
506.915	1	9
507.256	1	9
507.596	1	9
507.936	1	8
508.277	1	12
508.617	1	9
508.958	1	0
509.298	1	0
509.639	1	7
509.979	1	13
510.319	1	13
510.660	1	5
511.000	1	0
511.341	1	9
511.681	1	4
512.022	1	2
512.362	1	6
512.702	1	4
513.043	1	13
513.383	1	-3
513.724	1	3
514.064	1	13
514.404	1	2
514.745	1	2
515.085	1	2
515.425	1	7
515.766	1	-2
516.106	1	9
516.447	1	27
516.787	1	13
517.127	1	3
517.468	1	7
517.808	1	2
518.148	1	13
518.489	1	-3
518.829	1	4
519.169	1	8
519.510	1	4
519.850	1	12
520.190	1	4
520.531	1	10
520.871	1	9
521.211	1	-6
521.552	1	15
521.892	1	6
522.232	1	14
522.573	1	10
522.913	1	8
523.253	1	12
523.593	1	11
523.934	1	0
524.274	1	9
524.614	1	4
524.955	1	8
525.295	1	8
525.635	1	2
525.975	1	7
526.316	1	17
526.656	1	9
526.996	1	19
527.337	1	6
527.677	1	10
528.017	1	0
528.357	1	10
528.698	1	5
529.038	1	11
529.378	1	16
529.718	1	18
530.058	1	2
530.399	1	25
530.739	1	8
531.079	1	12
531.419	1	16
531.760	1	13
532.100	1	7
532.440	1	8
532.780	1	10
533.120	1	18
533.461	1	16
533.801	1	10
534.141	1	-3
534.481	1	8
534.821	1	16
535.162	1	12
535.502	1	-8
535.842	1	15
536.182	1	11
536.522	1	6
536.862	1	13
537.203	1	-1
537.543	1	10
537.883	1	11
538.223	1	8
538.563	1	23
538.903	1	4
539.243	1	10
539.584	1	8
539.924	1	19
540.264	1	5
540.604	1	11
540.944	1	-1
541.284	1	17
541.624	1	18
541.964	1	16
542.305	1	17
542.645	1	17
542.985	1	16
543.325	1	10
543.665	1	20
544.005	1	15
544.345	1	13
544.685	1	4
545.025	1	12
545.365	1	13
545.705	1	11
546.045	1	7
546.386	1	17
546.726	1	4
547.066	1	14
547.406	1	17
547.746	1	0
548.086	1	15
548.426	1	4
548.766	1	18
549.106	1	12
549.446	1	12
549.786	1	11
550.126	1	25
550.466	1	5
550.806	1	6
551.146	1	10
551.486	1	11
551.826	1	16
552.166	1	11
552.506	1	18
552.846	1	10
553.186	1	11
553.526	1	8
553.866	1	13
554.206	1	15
554.546	1	18
554.886	1	20
555.226	1	4
555.566	1	23
555.906	1	24
556.246	1	15
556.586	1	10
556.926	1	13
557.266	1	3
557.606	1	19
557.946	1	19
558.286	1	10
558.626	1	6
558.966	1	12
559.306	1	1
559.646	1	7
559.986	1	3
560.325	1	9
560.665	1	15
561.005	1	3
561.345	1	9
561.685	1	7
562.025	1	10
562.365	1	17
562.705	1	8
563.045	1	4
563.385	1	0
563.725	1	10
564.064	1	16
564.404	1	14
564.744	1	16
565.084	1	5
565.424	1	7
565.764	1	5
566.104	1	14
566.444	1	-2
566.783	1	8
567.123	1	16
567.463	1	17
567.803	1	8
568.143	1	18
568.483	1	16
568.823	1	6
569.162	1	17
569.502	1	9
569.842	1	9
570.182	1	16
570.522	1	9
570.862	1	14
571.201	1	21
571.541	1	22
571.881	1	28
572.221	1	2
572.561	1	9
572.900	1	9
573.240	1	13
573.580	1	7
573.920	1	15
574.260	1	21
574.599	1	16
574.939	1	15
575.279	1	18
575.619	1	17
575.959	1	2
576.298	1	15
576.638	1	6
576.978	1	11
577.318	1	17
577.657	1	5
577.997	1	16
578.337	1	14
578.677	1	18
579.016	1	16
579.356	1	9
579.696	1	15
580.036	1	2
580.375	1	13
580.715	1	3
581.055	1	15
581.394	1	7
581.734	1	7
582.074	1	18
582.414	1	18
582.753	1	3
583.093	1	8
583.433	1	4
583.772	1	15
584.112	1	13
584.452	1	3
584.791	1	6
585.131	1	10
585.471	1	24
585.811	1	11
586.150	1	13
586.490	1	6
586.830	1	6
587.169	1	17
587.509	1	10
587.849	1	19
588.188	1	18
588.528	1	9
588.867	1	15
589.207	1	15
589.547	1	-1
589.886	1	10
590.226	1	12
590.566	1	12
590.905	1	2
591.245	1	8
591.585	1	20
591.924	1	9
592.264	1	4
592.603	1	3
592.943	1	16
593.283	1	6
593.622	1	11
593.962	1	16
594.301	1	11
594.641	1	10
594.981	1	6
595.320	1	9
595.660	1	13
595.999	1	-1
596.339	1	12
596.678	1	5
597.018	1	2
597.358	1	14
597.697	1	5
598.037	1	8
598.376	1	9
598.716	1	17
599.055	1	7
599.395	1	8
599.734	1	9
600.074	1	3
600.413	1	17
600.753	1	9
601.092	1	14
601.432	1	1
601.771	1	18
602.111	1	16
602.451	1	26
602.790	1	3
603.130	1	10
603.469	1	7
603.809	1	10
604.148	1	9
604.487	1	3
604.827	1	15
605.166	1	21
605.506	1	4
605.845	1	2
606.185	1	19
606.524	1	0
606.864	1	11
607.203	1	-1
607.543	1	1
607.882	1	12
608.222	1	5
608.561	1	1
608.901	1	10
609.240	1	4
609.579	1	16
609.919	1	10
610.258	1	17
610.598	1	11
610.937	1	4
611.277	1	7
611.616	1	9
611.955	1	5
612.295	1	5
612.634	1	9
612.974	1	3
613.313	1	10
613.652	1	8
613.992	1	8
614.331	1	12
614.671	1	14
615.010	1	5
615.349	1	19
615.689	1	12
616.028	1	2
616.368	1	14
616.707	1	12
617.046	1	9
617.386	1	11
617.725	1	15
618.064	1	6
618.404	1	5
618.743	1	11
619.082	1	13
619.422	1	-4
619.761	1	12
620.100	1	10
620.440	1	0
620.779	1	-5
621.118	1	5
621.458	1	-4
621.797	1	-5
622.136	1	22
622.476	1	19
622.815	1	15
623.154	1	14
623.494	1	15
623.833	1	15
624.172	1	11
624.511	1	6
624.851	1	-4
625.190	1	8
625.529	1	7
625.869	1	7
626.208	1	4
626.547	1	15
626.886	1	11
627.226	1	8
627.565	1	3
627.904	1	11
628.243	1	12
628.583	1	9
628.922	1	12
629.261	1	12
629.600	1	14
629.940	1	9
630.279	1	-1
630.618	1	0
630.957	1	9
631.297	1	3
631.636	1	-6
631.975	1	22
632.314	1	3
632.653	1	4
632.993	1	2
633.332	1	5
633.671	1	7
634.010	1	0
634.349	1	5
634.689	1	17
635.028	1	16
635.367	1	3
635.706	1	12
636.045	1	10
636.384	1	1
636.724	1	6
637.063	1	-3
637.402	1	14
637.741	1	5
638.080	1	8
638.419	1	0
638.759	1	-4
639.098	1	11
639.437	1	4
639.776	1	4
640.115	1	10
640.454	1	5
640.793	1	9
641.132	1	15
641.472	1	5
641.811	1	6
642.150	1	6
642.489	1	15
642.828	1	-10
643.167	1	-1
643.506	1	-3
643.845	1	2
644.184	1	16
644.524	1	1
644.863	1	-2
645.202	1	2
645.541	1	11
645.880	1	4
646.219	1	7
646.558	1	14
646.897	1	7
647.236	1	12
647.575	1	9
647.914	1	7
648.253	1	17
648.592	1	-2
648.931	1	4
649.270	1	7
649.610	1	1
649.949	1	10
650.288	1	12
650.627	1	11
650.966	1	10
651.305	1	-3
651.644	1	8
651.983	1	6
652.322	1	0
652.661	1	0
653.000	1	9
653.339	1	8
653.678	1	16
654.017	1	3
654.356	1	1
654.695	1	9
655.034	1	12
655.373	1	12
655.712	1	-1
656.051	1	-4
656.390	1	-3
656.729	1	9
657.068	1	8
657.406	1	3
657.745	1	4
658.084	1	5
658.423	1	8
658.762	1	2
659.101	1	8
659.440	1	6
659.779	1	11
660.118	1	8
660.457	1	2
660.796	1	-14
661.135	1	-4
661.474	1	4
661.813	1	16
662.152	1	11
662.491	1	1
662.829	1	1
663.168	1	7
663.507	1	13
663.846	1	-3
664.185	1	9
664.524	1	1
664.863	1	8
665.202	1	5
665.541	1	-11
665.879	1	-2
666.218	1	-2
666.557	1	8
666.896	1	0
667.235	1	16
667.574	1	2
667.913	1	-2
668.251	1	-4
668.590	1	7
668.929	1	-6
669.268	1	5
669.607	1	4
669.946	1	4
670.285	1	12
670.623	1	-3
670.962	1	2
671.301	1	14
671.640	1	8
671.979	1	0
672.317	1	8
672.656	1	4
672.995	1	12
673.334	1	1
673.673	1	12
674.011	1	4
674.350	1	7
674.689	1	6
675.028	1	7
675.367	1	5
675.705	1	11
676.044	1	1
676.383	1	7
676.722	1	7
677.060	1	-1
677.399	1	-1
677.738	1	7
678.077	1	17
678.416	1	11
678.754	1	1
679.093	1	1
679.432	1	5
679.771	1	-2
680.109	1	16
680.448	1	8
680.787	1	1
681.125	1	5
681.464	1	3
681.803	1	8
682.142	1	13
682.480	1	10
682.819	1	8
683.158	1	5
683.496	1	10
683.835	1	-4
684.174	1	0
684.512	1	6
684.851	1	9
685.190	1	-4
685.529	1	1
685.867	1	12
686.206	1	1
686.545	1	4
686.883	1	1
687.222	1	7
687.561	1	4
687.899	1	2
688.238	1	5
688.577	1	6
688.746	1	4