File: Data/GaN_200K_800ms/GaN_sample F_spot 12_UVVIS_200 K_200um_800 ms 2x2mm1_390.txt
340.368	1	9
340.710	1	-11
341.052	1	3
341.394	1	-4
341.737	1	8
342.079	1	-5
342.421	1	-5
342.763	1	-2
343.105	1	-7
343.447	1	0
343.789	1	-3
344.131	1	-10
344.473	1	-10
344.815	1	4
345.157	1	-4
345.499	1	-4
345.841	1	0
346.183	1	-19
346.526	1	-5
346.868	1	1
347.210	1	-10
347.552	1	-6
347.894	1	-4
348.236	1	6
348.578	1	4
348.920	1	-5
349.262	1	3
349.604	1	-2
349.946	1	-9
350.288	1	7
350.630	1	-1
350.972	1	-5
351.314	1	11
351.656	1	0
351.998	1	6
352.340	1	8
352.682	1	4
353.024	1	9
353.366	1	9
353.708	1	3
354.050	1	-10
354.392	1	-3
354.734	1	1
355.076	1	3
355.418	1	-10
355.760	1	-8
356.102	1	12
356.444	1	-3
356.785	1	7
357.127	1	5
357.469	1	5
357.811	1	4
358.153	1	4
358.495	1	-6
358.837	1	-2
359.179	1	-3
359.521	1	14
359.863	1	0
360.205	1	-4
360.547	1	1
360.889	1	-3
361.231	1	-1
361.572	1	0
361.914	1	14
362.256	1	-1
362.598	1	-16
362.940	1	2
363.282	1	4
363.624	1	12
363.966	1	-1
364.308	1	-2
364.649	1	4
364.991	1	4
365.333	1	0
365.675	1	-3
366.017	1	1
366.359	1	-4
366.701	1	11
367.042	1	9
367.384	1	10
367.726	1	8
368.068	1	9
368.410	1	16
368.752	1	2
369.093	1	0
369.435	1	8
369.777	1	6
370.119	1	7
370.461	1	20
370.803	1	6
371.144	1	1
371.486	1	21
371.828	1	12
372.170	1	19
372.512	1	-2
372.853	1	10
373.195	1	6
373.537	1	10
373.879	1	8
374.220	1	17
374.562	1	15
374.904	1	4
375.246	1	12
375.588	1	3
375.929	1	4
376.271	1	11
376.613	1	0
376.955	1	2
377.296	1	6
377.638	1	9
377.980	1	11
378.321	1	-6
378.663	1	-5
379.005	1	20
379.347	1	1
379.688	1	0
380.030	1	-3
380.372	1	-1
380.714	1	8
381.055	1	8
381.397	1	5
381.739	1	5
382.080	1	7
382.422	1	5
382.764	1	-4
383.105	1	-8
383.447	1	-10
383.789	1	-8
384.130	1	3
384.472	1	-7
384.814	1	-1
385.156	1	6
385.497	1	4
385.839	1	0
386.180	1	-5
386.522	1	11
386.864	1	4
387.205	1	0
387.547	1	-2
387.889	1	2
388.230	1	5
388.572	1	-2
388.914	1	6
389.255	1	-10
389.597	1	1
389.939	1	12
390.280	1	-6
390.622	1	0
390.963	1	13
391.305	1	3
391.647	1	0
391.988	1	1
392.330	1	16
392.671	1	2
393.013	1	-6
393.355	1	10
393.696	1	5
394.038	1	2
394.379	1	2
394.721	1	-7
395.062	1	13
395.404	1	2
395.746	1	2
396.087	1	0
396.429	1	3
396.770	1	-9
397.112	1	6
397.453	1	15
397.795	1	5
398.136	1	-7
398.478	1	3
398.819	1	2
399.161	1	4
399.503	1	1
399.844	1	-7
400.186	1	1
400.527	1	1
400.869	1	2
401.210	1	-1
401.552	1	-4
401.893	1	-3
402.235	1	-4
402.576	1	-9
402.918	1	4
403.259	1	7
403.601	1	-10
403.942	1	14
404.284	1	4
404.625	1	1
404.967	1	2
405.308	1	5
405.649	1	4
405.991	1	1
406.332	1	3
406.674	1	-2
407.015	1	7
407.357	1	0
407.698	1	9
408.040	1	-10
408.381	1	3
408.722	1	-11
409.064	1	2
409.405	1	1
409.747	1	-3
410.088	1	3
410.430	1	4
410.771	1	-6
411.112	1	-5
411.454	1	-6
411.795	1	-7
412.137	1	4
412.478	1	6
412.819	1	-3
413.161	1	-7
413.502	1	-3
413.844	1	1
414.185	1	-3
414.526	1	-7
414.868	1	-3
415.209	1	0
415.550	1	-11
415.892	1	6
416.233	1	0
416.575	1	13
416.916	1	-14
417.257	1	1
417.599	1	-3
417.940	1	11
418.281	1	5
418.623	1	-6
418.964	1	-12
419.305	1	0
419.647	1	-5
419.988	1	-1
420.329	1	-4
420.671	1	6
421.012	1	3
421.353	1	2
421.695	1	-7
422.036	1	-3
422.377	1	-6
422.718	1	5
423.060	1	-1
423.401	1	4
423.742	1	1
424.084	1	-3
424.425	1	9
424.766	1	0
425.107	1	-2
425.449	1	3
425.790	1	-15
426.131	1	2
426.472	1	0
426.814	1	0
427.155	1	-5
427.496	1	-3
427.837	1	-4
428.179	1	-4
428.520	1	2
428.861	1	4
429.202	1	1
429.544	1	-3
429.885	1	5
430.226	1	-9
430.567	1	-10
430.909	1	1
431.250	1	2
431.591	1	-5
431.932	1	-1
432.273	1	-5
432.615	1	-6
432.956	1	-7
433.297	1	2
433.638	1	1
433.979	1	6
434.320	1	-3
434.662	1	-3
435.003	1	2
435.344	1	2
435.685	1	-3
436.026	1	5
436.368	1	-9
436.709	1	-6
437.050	1	-4
437.391	1	8
437.732	1	-4
438.073	1	-2
438.414	1	-16
438.756	1	-6
439.097	1	-8
439.438	1	-5
439.779	1	-8
440.120	1	0
440.461	1	-7
440.802	1	-4
441.143	1	6
441.485	1	0
441.826	1	5
442.167	1	2
442.508	1	-8
442.849	1	5
443.190	1	5
443.531	1	1
443.872	1	1
444.213	1	3
444.554	1	13
444.895	1	-4
445.237	1	-2
445.578	1	-12
445.919	1	-11
446.260	1	0
446.601	1	1
446.942	1	7
447.283	1	-7
447.624	1	-3
447.965	1	-4
448.306	1	-5
448.647	1	1
448.988	1	-2
449.329	1	1
449.670	1	0
450.011	1	11
450.352	1	-8
450.693	1	-7
451.034	1	-4
451.375	1	-1
451.716	1	-1
452.057	1	1
452.398	1	-3
452.739	1	-3
453.080	1	-5
453.421	1	2
453.762	1	-3
454.103	1	0
454.444	1	-6
454.785	1	-4
455.126	1	-3
455.467	1	1
455.808	1	0
456.149	1	0
456.490	1	2
456.831	1	8
457.172	1	-12
457.513	1	2
457.854	1	-7
458.195	1	-8
458.536	1	-7
458.877	1	-5
459.218	1	2
459.559	1	13
459.899	1	-2
460.240	1	-2
460.581	1	14
460.922	1	-1
461.263	1	-15
461.604	1	2
461.945	1	3
462.286	1	-4
462.627	1	7
462.968	1	2
463.309	1	-13
463.649	1	-3
463.990	1	2
464.331	1	-2
464.672	1	-3
465.013	1	-4
465.354	1	-3
465.695	1	3
466.036	1	3
466.376	1	-5
466.717	1	-6
467.058	1	1
467.399	1	10
467.740	1	6
468.081	1	5
468.422	1	-15
468.762	1	-2
469.103	1	-5
469.444	1	-6
469.785	1	-13
470.126	1	-12
470.467	1	-5
470.807	1	5
471.148	1	2
471.489	1	5
471.830	1	-1
472.171	1	6
472.511	1	-2
472.852	1	-3
473.193	1	10
473.534	1	15
473.875	1	5
474.215	1	12
474.556	1	-6
474.897	1	8
475.238	1	-4
475.578	1	-8
475.919	1	0
476.260	1	-12
476.601	1	-5
476.942	1	17
477.282	1	-8
477.623	1	-7
477.964	1	-10
478.305	1	0
478.645	1	10
478.986	1	-4
479.327	1	-5
479.667	1	-1
480.008	1	-2
480.349	1	0
480.690	1	-4
481.030	1	0
481.371	1	4
481.712	1	5
482.053	1	0
482.393	1	1
482.734	1	-8
483.075	1	-2
483.415	1	-3
483.756	1	9
484.097	1	-6
484.437	1	-7
484.778	1	3
485.119	1	-11
485.459	1	12
485.800	1	-1
486.141	1	-6
486.481	1	3
486.822	1	4
487.163	1	-4
487.503	1	2
487.844	1	3
488.185	1	-8
488.525	1	-8
488.866	1	-3
489.207	1	0
489.547	1	-4
489.888	1	-9
490.228	1	3
490.569	1	13
490.910	1	-4
491.250	1	-10
491.591	1	-10
491.932	1	-6
492.272	1	5
492.613	1	-11
492.953	1	-6
493.294	1	-4
493.635	1	0
493.975	1	-5
494.316	1	2
494.656	1	1
494.997	1	-3
495.337	1	-3
495.678	1	0
496.019	1	-1
496.359	1	-2
496.700	1	-6
497.040	1	-4
497.381	1	2
497.721	1	1
498.062	1	-2
498.403	1	0
498.743	1	-1
499.084	1	-11
499.424	1	-3
499.765	1	5
500.105	1	-3
500.446	1	-13
500.786	1	-13
501.127	1	-4
501.467	1	-6
501.808	1	2
502.148	1	5
502.489	1	-5
502.829	1	-3
503.170	1	10
503.510	1	-1
503.851	1	-13
504.191	1	1
504.532	1	-3
504.872	1	-14
505.213	1	-2
505.553	1	-7
505.894	1	-8
506.234	1	3
506.575	1	9
506.915	1	-2
507.256	1	2
507.596	1	-1
507.936	1	-2
508.277	1	-5
508.617	1	3
508.958	1	-9
509.298	1	-8
509.639	1	-7
509.979	1	-7
510.319	1	0
510.660	1	-16
511.000	1	-6
511.341	1	0
511.681	1	12
512.022	1	3
512.362	1	-9
512.702	1	2
513.043	1	3
513.383	1	-15
513.724	1	5
514.064	1	8
514.404	1	-2
514.745	1	0
515.085	1	-2
515.425	1	-3
515.766	1	-2
516.106	1	-3
516.447	1	10
516.787	1	3
517.127	1	-2
517.468	1	-7
517.808	1	6
518.148	1	-3
518.489	1	-3
518.829	1	-1
519.169	1	-8
519.510	1	1
519.850	1	8
520.190	1	4
520.531	1	7
520.871	1	-1
521.211	1	-6
521.552	1	8
521.892	1	-2
522.232	1	-1
522.573	1	-6
522.913	1	1
523.253	1	-3
523.593	1	-1
523.934	1	-6
524.274	1	-6
524.614	1	2
524.955	1	-2
525.295	1	6
525.635	1	4
525.975	1	0
526.316	1	5
526.656	1	5
526.996	1	9
527.337	1	2
527.677	1	3
528.017	1	-12
528.357	1	5
528.698	1	1
529.038	1	-4
529.378	1	1
529.718	1	8
530.058	1	5
530.399	1	6
530.739	1	-4
531.079	1	1
531.419	1	5
531.760	1	7
532.100	1	-10
532.440	1	-2
532.780	1	-9
533.120	1	5
533.461	1	2
533.801	1	10
534.141	1	-17
534.481	1	-17
534.821	1	5
535.162	1	4
535.502	1	-4
535.842	1	9
536.182	1	-7
536.522	1	-9
536.862	1	6
537.203	1	-3
537.543	1	-1
537.883	1	2
538.223	1	-3
538.563	1	5
538.903	1	-8
539.243	1	-3
539.584	1	-6
539.924	1	9
540.264	1	-5
540.604	1	10
540.944	1	-2
541.284	1	4
541.624	1	4
541.964	1	11
542.305	1	9
542.645	1	-5
542.985	1	4
543.325	1	0
543.665	1	9
544.005	1	8
544.345	1	6
544.685	1	0
545.025	1	-7
545.365	1	-7
545.705	1	1
546.045	1	0
546.386	1	-2
546.726	1	-4
547.066	1	-1
547.406	1	-2
547.746	1	-12
548.086	1	-6
548.426	1	-2
548.766	1	-11
549.106	1	-11
549.446	1	-5
549.786	1	-2
550.126	1	12
550.466	1	-3
550.806	1	-2
551.146	1	2
551.486	1	-4
551.826	1	4
552.166	1	15
552.506	1	2
552.846	1	8
553.186	1	0
553.526	1	-5
553.866	1	1
554.206	1	3
554.546	1	3
554.886	1	-2
555.226	1	-9
555.566	1	7
555.906	1	6
556.246	1	6
556.586	1	2
556.926	1	-1
557.266	1	-2
557.606	1	2
557.946	1	4
558.286	1	3
558.626	1	2
558.966	1	-1
559.306	1	-5
559.646	1	-5
559.986	1	-4
560.325	1	0
560.665	1	4
561.005	1	-5
561.345	1	-4
561.685	1	5
562.025	1	3
562.365	1	10
562.705	1	-5
563.045	1	-5
563.385	1	-9
563.725	1	5
564.064	1	-3
564.404	1	5
564.744	1	4
565.084	1	-7
565.424	1	0
565.764	1	6
566.104	1	-4
566.444	1	-6
566.783	1	-8
567.123	1	-6
567.463	1	6
567.803	1	-6
568.143	1	-3
568.483	1	0
568.823	1	7
569.162	1	3
569.502	1	-11
569.842	1	4
570.182	1	-2
570.522	1	-7
570.862	1	2
571.201	1	6
571.541	1	0
571.881	1	20
572.221	1	0
572.561	1	-7
572.900	1	-10
573.240	1	2
573.580	1	-9
573.920	1	4
574.260	1	11
574.599	1	1
574.939	1	-2
575.279	1	5
575.619	1	5
575.959	1	-5
576.298	1	7
576.638	1	0
576.978	1	4
577.318	1	5
577.657	1	-5
577.997	1	1
578.337	1	15
578.677	1	8
579.016	1	2
579.356	1	-3
579.696	1	3
580.036	1	-1
580.375	1	6
580.715	1	1
581.055	1	4
581.394	1	-5
581.734	1	-6
582.074	1	-8
582.414	1	4
582.753	1	-5
583.093	1	-2
583.433	1	5
583.772	1	6
584.112	1	4
584.452	1	1
584.791	1	4
585.131	1	3
585.471	1	7
585.811	1	-2
586.150	1	-5
586.490	1	-2
586.830	1	-1
587.169	1	-4
587.509	1	-5
587.849	1	-2
588.188	1	3
588.528	1	6
588.867	1	-6
589.207	1	-5
589.547	1	0
589.886	1	-7
590.226	1	-3
590.566	1	-3
590.905	1	3
591.245	1	-3
591.585	1	-3
591.924	1	-1
592.264	1	-1
592.603	1	4
592.943	1	-8
593.283	1	4
593.622	1	7
593.962	1	2
594.301	1	2
594.641	1	-4
594.981	1	-8
595.320	1	0
595.660	1	-4
595.999	1	-10
596.339	1	3
596.678	1	-2
597.018	1	1
597.358	1	4
597.697	1	-3
598.037	1	-4
598.376	1	1
598.716	1	6
599.055	1	11
599.395	1	-7
599.734	1	-2
600.074	1	-9
600.413	1	6
600.753	1	1
601.092	1	11
601.432	1	-6
601.771	1	5
602.111	1	8
602.451	1	6
602.790	1	8
603.130	1	10
603.469	1	-9
603.809	1	-1
604.148	1	0
604.487	1	-7
604.827	1	3
605.166	1	11
605.506	1	-3
605.845	1	-3
606.185	1	9
606.524	1	1
606.864	1	-1
607.203	1	-8
607.543	1	-2
607.882	1	-2
608.222	1	0
608.561	1	-3
608.901	1	9
609.240	1	-5
609.579	1	9
609.919	1	12
610.258	1	0
610.598	1	-7
610.937	1	1
611.277	1	-3
611.616	1	-1
611.955	1	12
612.295	1	-14
612.634	1	-3
612.974	1	-20
613.313	1	9
613.652	1	7
613.992	1	2
614.331	1	7
614.671	1	0
615.010	1	-14
615.349	1	-2
615.689	1	14
616.028	1	-7
616.368	1	0
616.707	1	8
617.046	1	3
617.386	1	0
617.725	1	-12
618.064	1	-1
618.404	1	-10
618.743	1	3
619.082	1	-1
619.422	1	-16
619.761	1	10
620.100	1	3
620.440	1	3
620.779	1	-2
621.118	1	-4
621.458	1	2
621.797	1	-6
622.136	1	14
622.476	1	6
622.815	1	18
623.154	1	6
623.494	1	8
623.833	1	1
624.172	1	-4
624.511	1	-6
624.851	1	-9
625.190	1	4
625.529	1	-2
625.869	1	5
626.208	1	-4
626.547	1	-1
626.886	1	11
627.226	1	5
627.565	1	7
627.904	1	-1
628.243	1	3
628.583	1	-6
628.922	1	6
629.261	1	3
629.600	1	11
629.940	1	-5
630.279	1	-15
630.618	1	-4
630.957	1	1
631.297	1	-3
631.636	1	-12
631.975	1	7
632.314	1	1
632.653	1	-5
632.993	1	0
633.332	1	-4
633.671	1	-6
634.010	1	-1
634.349	1	3
634.689	1	-4
635.028	1	-1
635.367	1	2
635.706	1	-3
636.045	1	10
636.384	1	3
636.724	1	-1
637.063	1	0
637.402	1	0
637.741	1	4
638.080	1	-1
638.419	1	-6
638.759	1	-5
639.098	1	11
639.437	1	4
639.776	1	-2
640.115	1	0
640.454	1	-9
640.793	1	8
641.132	1	0
641.472	1	8
641.811	1	-3
642.150	1	-9
642.489	1	1
642.828	1	-12
643.167	1	-8
643.506	1	-14
643.845	1	4
644.184	1	-2
644.524	1	-8
644.863	1	-12
645.202	1	-1
645.541	1	4
645.880	1	-3
646.219	1	-2
646.558	1	-1
646.897	1	2
647.236	1	8
647.575	1	9
647.914	1	-3
648.253	1	6
648.592	1	-6
648.931	1	9
649.270	1	4
649.610	1	4
649.949	1	-1
650.288	1	2
650.627	1	-2
650.966	1	7
651.305	1	5
651.644	1	7
651.983	1	4
652.322	1	-6
652.661	1	2
653.000	1	-6
653.339	1	6
653.678	1	-7
654.017	1	2
654.356	1	-9
654.695	1	8
655.034	1	-1
655.373	1	2
655.712	1	0
656.051	1	0
656.390	1	5
656.729	1	10
657.068	1	-7
657.406	1	0
657.745	1	-9
658.084	1	-1
658.423	1	5
658.762	1	1
659.101	1	4
659.440	1	-1
659.779	1	6
660.118	1	7
660.457	1	-1
660.796	1	-4
661.135	1	-5
661.474	1	-7
661.813	1	10
662.152	1	-2
662.491	1	-13
662.829	1	-6
663.168	1	0
663.507	1	6
663.846	1	-3
664.185	1	4
664.524	1	-1
664.863	1	-8
665.202	1	-6
665.541	1	-12
665.879	1	-8
666.218	1	-4
666.557	1	5
666.896	1	0
667.235	1	-1
667.574	1	-4
667.913	1	-1
668.251	1	-2
668.590	1	-7
668.929	1	-9
669.268	1	-5
669.607	1	2
669.946	1	-4
670.285	1	8
670.623	1	-5
670.962	1	-6
671.301	1	3
671.640	1	11
671.979	1	-1
672.317	1	-2
672.656	1	-3
672.995	1	7
673.334	1	-5
673.673	1	2
674.011	1	-8
674.350	1	-1
674.689	1	2
675.028	1	-11
675.367	1	5
675.705	1	-4
676.044	1	6
676.383	1	1
676.722	1	-1
677.060	1	-8
677.399	1	-8
677.738	1	1
678.077	1	11
678.416	1	0
678.754	1	2
679.093	1	11
679.432	1	-6
679.771	1	-1
680.109	1	5
680.448	1	-3
680.787	1	-7
681.125	1	-6
681.464	1	6
681.803	1	-1
682.142	1	6
682.480	1	5
682.819	1	-3
683.158	1	-6
683.496	1	4
683.835	1	-3
684.174	1	-3
684.512	1	8
684.851	1	1
685.190	1	-2
685.529	1	-7
685.867	1	-2
686.206	1	-5
686.545	1	-6
686.883	1	-7
687.222	1	0
687.561	1	2
687.899	1	1
688.238	1	-2
688.577	1	-4
688.746	1	-3