File: Data/GaN_200K_800ms/GaN_sample F_spot 12_UVVIS_200 K_200um_800 ms 2x2mm1_302.txt
340.368	1	-2
340.710	1	-13
341.052	1	-2
341.394	1	-5
341.737	1	7
342.079	1	1
342.421	1	-2
342.763	1	3
343.105	1	-1
343.447	1	-6
343.789	1	3
344.131	1	-11
344.473	1	1
344.815	1	1
345.157	1	-5
345.499	1	6
345.841	1	2
346.183	1	-13
346.526	1	6
346.868	1	-1
347.210	1	-6
347.552	1	-7
347.894	1	-1
348.236	1	11
348.578	1	-9
348.920	1	-6
349.262	1	-9
349.604	1	2
349.946	1	-6
350.288	1	5
350.630	1	4
350.972	1	1
351.314	1	8
351.656	1	-1
351.998	1	0
352.340	1	6
352.682	1	14
353.024	1	-1
353.366	1	5
353.708	1	0
354.050	1	-5
354.392	1	-2
354.734	1	7
355.076	1	-1
355.418	1	-14
355.760	1	-11
356.102	1	8
356.444	1	-1
356.785	1	4
357.127	1	6
357.469	1	2
357.811	1	-3
358.153	1	4
358.495	1	2
358.837	1	-5
359.179	1	-8
359.521	1	3
359.863	1	3
360.205	1	7
360.547	1	4
360.889	1	0
361.231	1	-1
361.572	1	-1
361.914	1	7
362.256	1	2
362.598	1	0
362.940	1	-2
363.282	1	9
363.624	1	11
363.966	1	0
364.308	1	7
364.649	1	7
364.991	1	12
365.333	1	10
365.675	1	-1
366.017	1	16
366.359	1	8
366.701	1	8
367.042	1	5
367.384	1	15
367.726	1	19
368.068	1	21
368.410	1	33
368.752	1	5
369.093	1	7
369.435	1	24
369.777	1	17
370.119	1	18
370.461	1	17
370.803	1	19
371.144	1	15
371.486	1	18
371.828	1	22
372.170	1	18
372.512	1	-1
372.853	1	10
373.195	1	14
373.537	1	10
373.879	1	15
374.220	1	23
374.562	1	23
374.904	1	13
375.246	1	12
375.588	1	4
375.929	1	12
376.271	1	15
376.613	1	10
376.955	1	7
377.296	1	1
377.638	1	10
377.980	1	7
378.321	1	-2
378.663	1	10
379.005	1	6
379.347	1	6
379.688	1	7
380.030	1	4
380.372	1	6
380.714	1	14
381.055	1	11
381.397	1	3
381.739	1	12
382.080	1	7
382.422	1	2
382.764	1	4
383.105	1	2
383.447	1	1
383.789	1	0
384.130	1	-4
384.472	1	-6
384.814	1	6
385.156	1	5
385.497	1	6
385.839	1	10
386.180	1	12
386.522	1	13
386.864	1	6
387.205	1	0
387.547	1	-2
387.889	1	1
388.230	1	11
388.572	1	-1
388.914	1	4
389.255	1	1
389.597	1	6
389.939	1	3
390.280	1	1
390.622	1	-1
390.963	1	19
391.305	1	6
391.647	1	-2
391.988	1	-1
392.330	1	9
392.671	1	-4
393.013	1	-1
393.355	1	4
393.696	1	11
394.038	1	6
394.379	1	-3
394.721	1	-5
395.062	1	7
395.404	1	-7
395.746	1	9
396.087	1	3
396.429	1	5
396.770	1	-9
397.112	1	5
397.453	1	13
397.795	1	0
398.136	1	-5
398.478	1	7
398.819	1	3
399.161	1	10
399.503	1	2
399.844	1	-6
400.186	1	4
400.527	1	4
400.869	1	6
401.210	1	5
401.552	1	-4
401.893	1	4
402.235	1	2
402.576	1	4
402.918	1	10
403.259	1	2
403.601	1	0
403.942	1	10
404.284	1	8
404.625	1	0
404.967	1	3
405.308	1	2
405.649	1	2
405.991	1	3
406.332	1	-3
406.674	1	-7
407.015	1	1
407.357	1	0
407.698	1	0
408.040	1	-3
408.381	1	5
408.722	1	-12
409.064	1	-1
409.405	1	1
409.747	1	-2
410.088	1	4
410.430	1	10
410.771	1	11
411.112	1	0
411.454	1	1
411.795	1	-5
412.137	1	4
412.478	1	10
412.819	1	-6
413.161	1	-1
413.502	1	3
413.844	1	1
414.185	1	12
414.526	1	-4
414.868	1	1
415.209	1	0
415.550	1	-10
415.892	1	-1
416.233	1	1
416.575	1	13
416.916	1	-1
417.257	1	-8
417.599	1	-2
417.940	1	19
418.281	1	5
418.623	1	0
418.964	1	-13
419.305	1	-1
419.647	1	-6
419.988	1	-10
420.329	1	0
420.671	1	2
421.012	1	8
421.353	1	1
421.695	1	-1
422.036	1	-8
422.377	1	-3
422.718	1	12
423.060	1	-10
423.401	1	-2
423.742	1	3
424.084	1	-4
424.425	1	5
424.766	1	-6
425.107	1	0
425.449	1	-1
425.790	1	-8
426.131	1	-5
426.472	1	-8
426.814	1	5
427.155	1	-10
427.496	1	2
427.837	1	-2
428.179	1	-13
428.520	1	5
428.861	1	5
429.202	1	2
429.544	1	8
429.885	1	0
430.226	1	-5
430.567	1	4
430.909	1	4
431.250	1	-5
431.591	1	7
431.932	1	-2
432.273	1	-7
432.615	1	-6
432.956	1	-12
433.297	1	-3
433.638	1	-2
433.979	1	5
434.320	1	4
434.662	1	1
435.003	1	9
435.344	1	5
435.685	1	4
436.026	1	-1
436.368	1	7
436.709	1	4
437.050	1	-4
437.391	1	-1
437.732	1	-2
438.073	1	10
438.414	1	-5
438.756	1	-8
439.097	1	-6
439.438	1	1
439.779	1	-2
440.120	1	2
440.461	1	2
440.802	1	3
441.143	1	7
441.485	1	-2
441.826	1	7
442.167	1	-2
442.508	1	-2
442.849	1	11
443.190	1	0
443.531	1	14
443.872	1	6
444.213	1	4
444.554	1	6
444.895	1	-4
445.237	1	-15
445.578	1	1
445.919	1	-13
446.260	1	-10
446.601	1	3
446.942	1	-3
447.283	1	0
447.624	1	3
447.965	1	-5
448.306	1	-15
448.647	1	-8
448.988	1	-2
449.329	1	-1
449.670	1	6
450.011	1	3
450.352	1	-4
450.693	1	0
451.034	1	-6
451.375	1	-11
451.716	1	-2
452.057	1	-8
452.398	1	2
452.739	1	2
453.080	1	3
453.421	1	-3
453.762	1	3
454.103	1	2
454.444	1	-12
454.785	1	-8
455.126	1	-5
455.467	1	-3
455.808	1	-2
456.149	1	3
456.490	1	1
456.831	1	8
457.172	1	-2
457.513	1	5
457.854	1	4
458.195	1	-6
458.536	1	7
458.877	1	-4
459.218	1	-3
459.559	1	3
459.899	1	-3
460.240	1	2
460.581	1	19
460.922	1	5
461.263	1	-2
461.604	1	-2
461.945	1	-4
462.286	1	-5
462.627	1	4
462.968	1	3
463.309	1	-11
463.649	1	-6
463.990	1	-1
464.331	1	-3
464.672	1	0
465.013	1	-6
465.354	1	0
465.695	1	0
466.036	1	-4
466.376	1	-16
466.717	1	3
467.058	1	-1
467.399	1	6
467.740	1	12
468.081	1	5
468.422	1	-2
468.762	1	-1
469.103	1	-6
469.444	1	-9
469.785	1	-9
470.126	1	-9
470.467	1	-2
470.807	1	1
471.148	1	-2
471.489	1	6
471.830	1	6
472.171	1	0
472.511	1	-7
472.852	1	-3
473.193	1	6
473.534	1	7
473.875	1	9
474.215	1	6
474.556	1	-5
474.897	1	8
475.238	1	0
475.578	1	0
475.919	1	-3
476.260	1	-6
476.601	1	-2
476.942	1	7
477.282	1	-4
477.623	1	-5
477.964	1	0
478.305	1	-9
478.645	1	4
478.986	1	-4
479.327	1	-6
479.667	1	0
480.008	1	-4
480.349	1	-8
480.690	1	-4
481.030	1	-1
481.371	1	2
481.712	1	-1
482.053	1	0
482.393	1	-5
482.734	1	-5
483.075	1	-6
483.415	1	-4
483.756	1	-5
484.097	1	-9
484.437	1	-2
484.778	1	8
485.119	1	-5
485.459	1	16
485.800	1	0
486.141	1	-3
486.481	1	-4
486.822	1	2
487.163	1	4
487.503	1	-6
487.844	1	5
488.185	1	-6
488.525	1	-5
488.866	1	-4
489.207	1	-3
489.547	1	-2
489.888	1	-10
490.228	1	1
490.569	1	14
490.910	1	1
491.250	1	-1
491.591	1	-5
491.932	1	-5
492.272	1	0
492.613	1	1
492.953	1	-8
493.294	1	-7
493.635	1	1
493.975	1	0
494.316	1	4
494.656	1	-2
494.997	1	-1
495.337	1	6
495.678	1	-4
496.019	1	-3
496.359	1	-2
496.700	1	2
497.040	1	6
497.381	1	-3
497.721	1	5
498.062	1	-2
498.403	1	7
498.743	1	-7
499.084	1	-3
499.424	1	-2
499.765	1	-10
500.105	1	-2
500.446	1	-11
500.786	1	-14
501.127	1	3
501.467	1	-5
501.808	1	5
502.148	1	2
502.489	1	-7
502.829	1	4
503.170	1	7
503.510	1	7
503.851	1	-3
504.191	1	16
504.532	1	8
504.872	1	-4
505.213	1	1
505.553	1	-9
505.894	1	-3
506.234	1	12
506.575	1	2
506.915	1	13
507.256	1	6
507.596	1	6
507.936	1	1
508.277	1	5
508.617	1	-3
508.958	1	-10
509.298	1	10
509.639	1	-3
509.979	1	0
510.319	1	3
510.660	1	-1
511.000	1	-10
511.341	1	-3
511.681	1	3
512.022	1	0
512.362	1	2
512.702	1	-4
513.043	1	12
513.383	1	-9
513.724	1	4
514.064	1	2
514.404	1	-5
514.745	1	-1
515.085	1	0
515.425	1	-4
515.766	1	-10
516.106	1	-4
516.447	1	7
516.787	1	5
517.127	1	-2
517.468	1	-8
517.808	1	-8
518.148	1	3
518.489	1	-1
518.829	1	10
519.169	1	-9
519.510	1	2
519.850	1	7
520.190	1	-7
520.531	1	1
520.871	1	-1
521.211	1	-6
521.552	1	3
521.892	1	4
522.232	1	-4
522.573	1	-1
522.913	1	0
523.253	1	3
523.593	1	-8
523.934	1	5
524.274	1	-3
524.614	1	6
524.955	1	-1
525.295	1	5
525.635	1	5
525.975	1	3
526.316	1	5
526.656	1	1
526.996	1	1
527.337	1	-3
527.677	1	2
528.017	1	-13
528.357	1	6
528.698	1	6
529.038	1	-6
529.378	1	6
529.718	1	6
530.058	1	4
530.399	1	9
530.739	1	3
531.079	1	4
531.419	1	6
531.760	1	5
532.100	1	-1
532.440	1	-6
532.780	1	1
533.120	1	6
533.461	1	5
533.801	1	18
534.141	1	-9
534.481	1	-5
534.821	1	2
535.162	1	-1
535.502	1	-1
535.842	1	4
536.182	1	-3
536.522	1	2
536.862	1	5
537.203	1	-4
537.543	1	11
537.883	1	-1
538.223	1	5
538.563	1	6
538.903	1	-2
539.243	1	2
539.584	1	3
539.924	1	4
540.264	1	-1
540.604	1	1
540.944	1	-3
541.284	1	3
541.624	1	7
541.964	1	9
542.305	1	3
542.645	1	4
542.985	1	3
543.325	1	-6
543.665	1	9
544.005	1	-2
544.345	1	5
544.685	1	-4
545.025	1	8
545.365	1	-9
545.705	1	2
546.045	1	-4
546.386	1	-1
546.726	1	-1
547.066	1	3
547.406	1	9
547.746	1	-14
548.086	1	10
548.426	1	3
548.766	1	7
549.106	1	-2
549.446	1	9
549.786	1	-2
550.126	1	15
550.466	1	4
550.806	1	2
551.146	1	8
551.486	1	-1
551.826	1	-2
552.166	1	-4
552.506	1	5
552.846	1	4
553.186	1	8
553.526	1	-9
553.866	1	0
554.206	1	5
554.546	1	2
554.886	1	4
555.226	1	-4
555.566	1	12
555.906	1	10
556.246	1	2
556.586	1	7
556.926	1	5
557.266	1	-9
557.606	1	2
557.946	1	11
558.286	1	5
558.626	1	-1
558.966	1	6
559.306	1	-6
559.646	1	-1
559.986	1	3
560.325	1	-4
560.665	1	5
561.005	1	-13
561.345	1	2
561.685	1	-2
562.025	1	-2
562.365	1	3
562.705	1	-3
563.045	1	-7
563.385	1	-7
563.725	1	-3
564.064	1	4
564.404	1	3
564.744	1	0
565.084	1	-2
565.424	1	3
565.764	1	-2
566.104	1	9
566.444	1	-4
566.783	1	3
567.123	1	0
567.463	1	7
567.803	1	4
568.143	1	7
568.483	1	2
568.823	1	5
569.162	1	9
569.502	1	1
569.842	1	8
570.182	1	2
570.522	1	-11
570.862	1	1
571.201	1	1
571.541	1	4
571.881	1	7
572.221	1	-4
572.561	1	-6
572.900	1	-3
573.240	1	-4
573.580	1	-4
573.920	1	-4
574.260	1	6
574.599	1	-2
574.939	1	-1
575.279	1	9
575.619	1	-2
575.959	1	-2
576.298	1	13
576.638	1	1
576.978	1	12
577.318	1	5
577.657	1	0
577.997	1	-1
578.337	1	6
578.677	1	5
579.016	1	3
579.356	1	-8
579.696	1	3
580.036	1	5
580.375	1	3
580.715	1	3
581.055	1	2
581.394	1	1
581.734	1	0
582.074	1	-3
582.414	1	9
582.753	1	-2
583.093	1	-3
583.433	1	3
583.772	1	2
584.112	1	-2
584.452	1	4
584.791	1	-7
585.131	1	0
585.471	1	13
585.811	1	12
586.150	1	-7
586.490	1	2
586.830	1	-3
587.169	1	3
587.509	1	-1
587.849	1	6
588.188	1	5
588.528	1	9
588.867	1	8
589.207	1	6
589.547	1	-3
589.886	1	-6
590.226	1	7
590.566	1	3
590.905	1	3
591.245	1	0
591.585	1	3
591.924	1	-6
592.264	1	5
592.603	1	0
592.943	1	5
593.283	1	-4
593.622	1	5
593.962	1	-2
594.301	1	6
594.641	1	-8
594.981	1	-2
595.320	1	5
595.660	1	-2
595.999	1	-8
596.339	1	6
596.678	1	-5
597.018	1	-4
597.358	1	7
597.697	1	8
598.037	1	-1
598.376	1	4
598.716	1	4
599.055	1	4
599.395	1	-1
599.734	1	2
600.074	1	5
600.413	1	17
600.753	1	4
601.092	1	11
601.432	1	-7
601.771	1	1
602.111	1	2
602.451	1	3
602.790	1	0
603.130	1	11
603.469	1	-11
603.809	1	3
604.148	1	6
604.487	1	0
604.827	1	3
605.166	1	2
605.506	1	4
605.845	1	4
606.185	1	14
606.524	1	-6
606.864	1	6
607.203	1	-6
607.543	1	0
607.882	1	2
608.222	1	6
608.561	1	5
608.901	1	7
609.240	1	1
609.579	1	11
609.919	1	10
610.258	1	10
610.598	1	-6
610.937	1	2
611.277	1	-2
611.616	1	-3
611.955	1	9
612.295	1	-4
612.634	1	-2
612.974	1	-7
613.313	1	13
613.652	1	3
613.992	1	-5
614.331	1	-7
614.671	1	1
615.010	1	-6
615.349	1	6
615.689	1	5
616.028	1	-9
616.368	1	4
616.707	1	1
617.046	1	3
617.386	1	0
617.725	1	3
618.064	1	-12
618.404	1	1
618.743	1	9
619.082	1	-4
619.422	1	-14
619.761	1	14
620.100	1	8
620.440	1	-4
620.779	1	-7
621.118	1	-3
621.458	1	-3
621.797	1	-4
622.136	1	14
622.476	1	5
622.815	1	11
623.154	1	0
623.494	1	0
623.833	1	8
624.172	1	6
624.511	1	2
624.851	1	-13
625.190	1	-2
625.529	1	5
625.869	1	7
626.208	1	8
626.547	1	5
626.886	1	8
627.226	1	4
627.565	1	5
627.904	1	3
628.243	1	8
628.583	1	0
628.922	1	1
629.261	1	0
629.600	1	14
629.940	1	-1
630.279	1	-10
630.618	1	-3
630.957	1	4
631.297	1	-2
631.636	1	-6
631.975	1	8
632.314	1	3
632.653	1	3
632.993	1	-11
633.332	1	0
633.671	1	-7
634.010	1	1
634.349	1	11
634.689	1	2
635.028	1	4
635.367	1	-3
635.706	1	4
636.045	1	6
636.384	1	3
636.724	1	0
637.063	1	1
637.402	1	7
637.741	1	4
638.080	1	-6
638.419	1	1
638.759	1	-8
639.098	1	-2
639.437	1	4
639.776	1	-13
640.115	1	2
640.454	1	-4
640.793	1	8
641.132	1	11
641.472	1	3
641.811	1	1
642.150	1	-2
642.489	1	2
642.828	1	-2
643.167	1	-11
643.506	1	-14
643.845	1	-1
644.184	1	-2
644.524	1	-3
644.863	1	-7
645.202	1	3
645.541	1	-7
645.880	1	-2
646.219	1	-2
646.558	1	1
646.897	1	1
647.236	1	-4
647.575	1	3
647.914	1	-4
648.253	1	13
648.592	1	-1
648.931	1	6
649.270	1	2
649.610	1	4
649.949	1	-2
650.288	1	-2
650.627	1	1
650.966	1	1
651.305	1	-2
651.644	1	7
651.983	1	2
652.322	1	-6
652.661	1	-3
653.000	1	-1
653.339	1	6
653.678	1	1
654.017	1	-9
654.356	1	-9
654.695	1	1
655.034	1	-6
655.373	1	10
655.712	1	-6
656.051	1	0
656.390	1	-1
656.729	1	9
657.068	1	2
657.406	1	6
657.745	1	1
658.084	1	11
658.423	1	12
658.762	1	-11
659.101	1	8
659.440	1	4
659.779	1	-1
660.118	1	-5
660.457	1	6
660.796	1	-20
661.135	1	0
661.474	1	3
661.813	1	11
662.152	1	7
662.491	1	-12
662.829	1	-1
663.168	1	5
663.507	1	12
663.846	1	1
664.185	1	3
664.524	1	-1
664.863	1	-9
665.202	1	7
665.541	1	-5
665.879	1	-9
666.218	1	-8
666.557	1	-3
666.896	1	0
667.235	1	6
667.574	1	0
667.913	1	2
668.251	1	-5
668.590	1	-2
668.929	1	-2
669.268	1	-4
669.607	1	2
669.946	1	4
670.285	1	4
670.623	1	-3
670.962	1	-2
671.301	1	4
671.640	1	-5
671.979	1	6
672.317	1	12
672.656	1	-7
672.995	1	10
673.334	1	2
673.673	1	-1
674.011	1	5
674.350	1	5
674.689	1	-1
675.028	1	1
675.367	1	1
675.705	1	6
676.044	1	5
676.383	1	1
676.722	1	-5
677.060	1	-7
677.399	1	3
677.738	1	3
678.077	1	9
678.416	1	5
678.754	1	-5
679.093	1	7
679.432	1	-8
679.771	1	5
680.109	1	4
680.448	1	2
680.787	1	-7
681.125	1	2
681.464	1	6
681.803	1	0
682.142	1	4
682.480	1	7
682.819	1	0
683.158	1	0
683.496	1	5
683.835	1	-1
684.174	1	-8
684.512	1	5
684.851	1	3
685.190	1	-8
685.529	1	-3
685.867	1	-2
686.206	1	-8
686.545	1	-1
686.883	1	-2
687.222	1	-2
687.561	1	3
687.899	1	-4
688.238	1	6
688.577	1	-3
688.746	1	-9