File: Data/GaN_200K_800ms/GaN_sample F_spot 12_UVVIS_200 K_200um_800 ms 2x2mm1_62.txt
340.368	1	7
340.710	1	2
341.052	1	1
341.394	1	-10
341.737	1	10
342.079	1	-3
342.421	1	8
342.763	1	5
343.105	1	11
343.447	1	0
343.789	1	-4
344.131	1	-2
344.473	1	-6
344.815	1	-1
345.157	1	9
345.499	1	9
345.841	1	8
346.183	1	2
346.526	1	0
346.868	1	3
347.210	1	1
347.552	1	9
347.894	1	7
348.236	1	15
348.578	1	4
348.920	1	4
349.262	1	2
349.604	1	5
349.946	1	4
350.288	1	20
350.630	1	18
350.972	1	-3
351.314	1	13
351.656	1	21
351.998	1	9
352.340	1	12
352.682	1	15
353.024	1	13
353.366	1	25
353.708	1	9
354.050	1	-4
354.392	1	10
354.734	1	9
355.076	1	15
355.418	1	4
355.760	1	19
356.102	1	22
356.444	1	35
356.785	1	34
357.127	1	21
357.469	1	19
357.811	1	19
358.153	1	32
358.495	1	37
358.837	1	4
359.179	1	40
359.521	1	44
359.863	1	45
360.205	1	46
360.547	1	48
360.889	1	50
361.231	1	40
361.572	1	58
361.914	1	65
362.256	1	62
362.598	1	57
362.940	1	71
363.282	1	80
363.624	1	92
363.966	1	98
364.308	1	93
364.649	1	115
364.991	1	112
365.333	1	132
365.675	1	144
366.017	1	162
366.359	1	194
366.701	1	197
367.042	1	211
367.384	1	232
367.726	1	231
368.068	1	229
368.410	1	240
368.752	1	250
369.093	1	254
369.435	1	281
369.777	1	252
370.119	1	264
370.461	1	276
370.803	1	262
371.144	1	239
371.486	1	239
371.828	1	229
372.170	1	224
372.512	1	227
372.853	1	202
373.195	1	178
373.537	1	188
373.879	1	172
374.220	1	180
374.562	1	170
374.904	1	150
375.246	1	150
375.588	1	144
375.929	1	130
376.271	1	122
376.613	1	110
376.955	1	113
377.296	1	97
377.638	1	110
377.980	1	96
378.321	1	73
378.663	1	91
379.005	1	92
379.347	1	84
379.688	1	82
380.030	1	74
380.372	1	77
380.714	1	71
381.055	1	71
381.397	1	52
381.739	1	63
382.080	1	61
382.422	1	59
382.764	1	50
383.105	1	47
383.447	1	51
383.789	1	45
384.130	1	37
384.472	1	35
384.814	1	37
385.156	1	34
385.497	1	47
385.839	1	35
386.180	1	43
386.522	1	51
386.864	1	46
387.205	1	28
387.547	1	29
387.889	1	24
388.230	1	42
388.572	1	31
388.914	1	28
389.255	1	19
389.597	1	32
389.939	1	26
390.280	1	19
390.622	1	16
390.963	1	34
391.305	1	29
391.647	1	14
391.988	1	22
392.330	1	27
392.671	1	15
393.013	1	21
393.355	1	23
393.696	1	24
394.038	1	7
394.379	1	16
394.721	1	17
395.062	1	14
395.404	1	8
395.746	1	14
396.087	1	22
396.429	1	21
396.770	1	11
397.112	1	13
397.453	1	27
397.795	1	12
398.136	1	5
398.478	1	14
398.819	1	12
399.161	1	24
399.503	1	16
399.844	1	18
400.186	1	2
400.527	1	11
400.869	1	11
401.210	1	9
401.552	1	6
401.893	1	5
402.235	1	20
402.576	1	13
402.918	1	13
403.259	1	13
403.601	1	10
403.942	1	23
404.284	1	17
404.625	1	7
404.967	1	10
405.308	1	17
405.649	1	16
405.991	1	5
406.332	1	9
406.674	1	-5
407.015	1	20
407.357	1	8
407.698	1	15
408.040	1	8
408.381	1	11
408.722	1	-8
409.064	1	11
409.405	1	16
409.747	1	6
410.088	1	-1
410.430	1	18
410.771	1	11
411.112	1	8
411.454	1	-7
411.795	1	-7
412.137	1	12
412.478	1	17
412.819	1	1
413.161	1	7
413.502	1	5
413.844	1	4
414.185	1	0
414.526	1	6
414.868	1	8
415.209	1	5
415.550	1	6
415.892	1	0
416.233	1	13
416.575	1	16
416.916	1	-1
417.257	1	4
417.599	1	11
417.940	1	10
418.281	1	7
418.623	1	-4
418.964	1	-10
419.305	1	6
419.647	1	5
419.988	1	7
420.329	1	-3
420.671	1	7
421.012	1	0
421.353	1	3
421.695	1	-1
422.036	1	8
422.377	1	-4
422.718	1	10
423.060	1	4
423.401	1	8
423.742	1	14
424.084	1	11
424.425	1	3
424.766	1	5
425.107	1	-1
425.449	1	4
425.790	1	-4
426.131	1	-2
426.472	1	1
426.814	1	8
427.155	1	-7
427.496	1	11
427.837	1	-2
428.179	1	-9
428.520	1	5
428.861	1	1
429.202	1	7
429.544	1	0
429.885	1	11
430.226	1	-7
430.567	1	0
430.909	1	5
431.250	1	5
431.591	1	16
431.932	1	-7
432.273	1	9
432.615	1	-2
432.956	1	-9
433.297	1	-4
433.638	1	-5
433.979	1	7
434.320	1	11
434.662	1	3
435.003	1	4
435.344	1	-4
435.685	1	-2
436.026	1	6
436.368	1	4
436.709	1	9
437.050	1	-5
437.391	1	12
437.732	1	0
438.073	1	14
438.414	1	-3
438.756	1	1
439.097	1	-10
439.438	1	-1
439.779	1	1
440.120	1	9
440.461	1	-4
440.802	1	-3
441.143	1	4
441.485	1	6
441.826	1	-2
442.167	1	-3
442.508	1	-2
442.849	1	14
443.190	1	4
443.531	1	7
443.872	1	6
444.213	1	-1
444.554	1	7
444.895	1	3
445.237	1	4
445.578	1	-12
445.919	1	-4
446.260	1	-1
446.601	1	7
446.942	1	1
447.283	1	-7
447.624	1	1
447.965	1	5
448.306	1	-3
448.647	1	-1
448.988	1	-6
449.329	1	1
449.670	1	10
450.011	1	13
450.352	1	2
450.693	1	-3
451.034	1	-2
451.375	1	1
451.716	1	3
452.057	1	7
452.398	1	-2
452.739	1	5
453.080	1	3
453.421	1	5
453.762	1	9
454.103	1	-4
454.444	1	-8
454.785	1	-4
455.126	1	-4
455.467	1	-8
455.808	1	-3
456.149	1	2
456.490	1	0
456.831	1	9
457.172	1	3
457.513	1	10
457.854	1	9
458.195	1	3
458.536	1	9
458.877	1	7
459.218	1	9
459.559	1	3
459.899	1	2
460.240	1	2
460.581	1	20
460.922	1	11
461.263	1	3
461.604	1	-4
461.945	1	4
462.286	1	8
462.627	1	6
462.968	1	9
463.309	1	-3
463.649	1	4
463.990	1	-3
464.331	1	8
464.672	1	-4
465.013	1	1
465.354	1	-1
465.695	1	-1
466.036	1	8
466.376	1	-9
466.717	1	4
467.058	1	5
467.399	1	5
467.740	1	10
468.081	1	13
468.422	1	-9
468.762	1	4
469.103	1	-2
469.444	1	0
469.785	1	-6
470.126	1	-3
470.467	1	4
470.807	1	9
471.148	1	7
471.489	1	-9
471.830	1	-7
472.171	1	12
472.511	1	0
472.852	1	2
473.193	1	4
473.534	1	10
473.875	1	17
474.215	1	14
474.556	1	1
474.897	1	6
475.238	1	4
475.578	1	-9
475.919	1	-1
476.260	1	6
476.601	1	-2
476.942	1	7
477.282	1	-2
477.623	1	-10
477.964	1	-2
478.305	1	-1
478.645	1	9
478.986	1	3
479.327	1	-1
479.667	1	6
480.008	1	5
480.349	1	4
480.690	1	1
481.030	1	-1
481.371	1	9
481.712	1	14
482.053	1	4
482.393	1	5
482.734	1	-4
483.075	1	5
483.415	1	5
483.756	1	11
484.097	1	2
484.437	1	-7
484.778	1	19
485.119	1	-8
485.459	1	23
485.800	1	4
486.141	1	7
486.481	1	15
486.822	1	10
487.163	1	10
487.503	1	-1
487.844	1	5
488.185	1	5
488.525	1	7
488.866	1	4
489.207	1	4
489.547	1	3
489.888	1	2
490.228	1	13
490.569	1	15
490.910	1	6
491.250	1	-3
491.591	1	1
491.932	1	11
492.272	1	8
492.613	1	10
492.953	1	4
493.294	1	0
493.635	1	4
493.975	1	11
494.316	1	14
494.656	1	10
494.997	1	4
495.337	1	11
495.678	1	13
496.019	1	9
496.359	1	7
496.700	1	7
497.040	1	2
497.381	1	11
497.721	1	5
498.062	1	9
498.403	1	12
498.743	1	12
499.084	1	9
499.424	1	6
499.765	1	11
500.105	1	9
500.446	1	8
500.786	1	0
501.127	1	12
501.467	1	-2
501.808	1	9
502.148	1	14
502.489	1	19
502.829	1	12
503.170	1	9
503.510	1	11
503.851	1	14
504.191	1	18
504.532	1	16
504.872	1	9
505.213	1	20
505.553	1	7
505.894	1	8
506.234	1	18
506.575	1	12
506.915	1	16
507.256	1	6
507.596	1	17
507.936	1	17
508.277	1	10
508.617	1	18
508.958	1	16
509.298	1	10
509.639	1	15
509.979	1	22
510.319	1	11
510.660	1	14
511.000	1	5
511.341	1	14
511.681	1	19
512.022	1	5
512.362	1	5
512.702	1	3
513.043	1	15
513.383	1	8
513.724	1	14
514.064	1	16
514.404	1	13
514.745	1	13
515.085	1	9
515.425	1	12
515.766	1	0
516.106	1	15
516.447	1	20
516.787	1	17
517.127	1	10
517.468	1	18
517.808	1	17
518.148	1	15
518.489	1	17
518.829	1	17
519.169	1	16
519.510	1	15
519.850	1	13
520.190	1	8
520.531	1	19
520.871	1	16
521.211	1	11
521.552	1	21
521.892	1	22
522.232	1	20
522.573	1	19
522.913	1	22
523.253	1	12
523.593	1	9
523.934	1	17
524.274	1	17
524.614	1	15
524.955	1	4
525.295	1	19
525.635	1	16
525.975	1	10
526.316	1	26
526.656	1	13
526.996	1	21
527.337	1	6
527.677	1	22
528.017	1	3
528.357	1	28
528.698	1	25
529.038	1	15
529.378	1	18
529.718	1	31
530.058	1	21
530.399	1	29
530.739	1	29
531.079	1	21
531.419	1	18
531.760	1	35
532.100	1	15
532.440	1	21
532.780	1	18
533.120	1	22
533.461	1	21
533.801	1	40
534.141	1	18
534.481	1	21
534.821	1	22
535.162	1	24
535.502	1	25
535.842	1	20
536.182	1	26
536.522	1	21
536.862	1	18
537.203	1	21
537.543	1	27
537.883	1	20
538.223	1	17
538.563	1	27
538.903	1	8
539.243	1	18
539.584	1	17
539.924	1	23
540.264	1	16
540.604	1	24
540.944	1	25
541.284	1	21
541.624	1	26
541.964	1	19
542.305	1	25
542.645	1	26
542.985	1	22
543.325	1	11
543.665	1	30
544.005	1	26
544.345	1	29
544.685	1	31
545.025	1	13
545.365	1	24
545.705	1	22
546.045	1	17
546.386	1	21
546.726	1	22
547.066	1	21
547.406	1	26
547.746	1	15
548.086	1	25
548.426	1	23
548.766	1	33
549.106	1	25
549.446	1	26
549.786	1	25
550.126	1	33
550.466	1	31
550.806	1	39
551.146	1	24
551.486	1	24
551.826	1	36
552.166	1	29
552.506	1	29
552.846	1	36
553.186	1	35
553.526	1	26
553.866	1	32
554.206	1	31
554.546	1	29
554.886	1	34
555.226	1	13
555.566	1	34
555.906	1	33
556.246	1	26
556.586	1	28
556.926	1	20
557.266	1	18
557.606	1	29
557.946	1	32
558.286	1	27
558.626	1	29
558.966	1	28
559.306	1	27
559.646	1	20
559.986	1	27
560.325	1	16
560.665	1	23
561.005	1	23
561.345	1	21
561.685	1	20
562.025	1	25
562.365	1	24
562.705	1	11
563.045	1	20
563.385	1	22
563.725	1	33
564.064	1	23
564.404	1	27
564.744	1	27
565.084	1	31
565.424	1	20
565.764	1	28
566.104	1	24
566.444	1	20
566.783	1	10
567.123	1	33
567.463	1	30
567.803	1	14
568.143	1	27
568.483	1	28
568.823	1	24
569.162	1	27
569.502	1	22
569.842	1	26
570.182	1	27
570.522	1	16
570.862	1	23
571.201	1	45
571.541	1	26
571.881	1	28
572.221	1	19
572.561	1	27
572.900	1	27
573.240	1	32
573.580	1	28
573.920	1	30
574.260	1	21
574.599	1	24
574.939	1	31
575.279	1	25
575.619	1	27
575.959	1	9
576.298	1	29
576.638	1	17
576.978	1	40
577.318	1	20
577.657	1	8
577.997	1	22
578.337	1	28
578.677	1	27
579.016	1	25
579.356	1	22
579.696	1	28
580.036	1	7
580.375	1	19
580.715	1	34
581.055	1	30
581.394	1	23
581.734	1	16
582.074	1	23
582.414	1	36
582.753	1	28
583.093	1	24
583.433	1	27
583.772	1	22
584.112	1	22
584.452	1	25
584.791	1	14
585.131	1	30
585.471	1	34
585.811	1	17
586.150	1	26
586.490	1	25
586.830	1	9
587.169	1	31
587.509	1	23
587.849	1	30
588.188	1	27
588.528	1	25
588.867	1	35
589.207	1	28
589.547	1	29
589.886	1	19
590.226	1	29
590.566	1	21
590.905	1	20
591.245	1	19
591.585	1	15
591.924	1	16
592.264	1	35
592.603	1	23
592.943	1	18
593.283	1	35
593.622	1	12
593.962	1	20
594.301	1	19
594.641	1	7
594.981	1	10
595.320	1	22
595.660	1	23
595.999	1	24
596.339	1	15
596.678	1	18
597.018	1	8
597.358	1	14
597.697	1	26
598.037	1	7
598.376	1	19
598.716	1	26
599.055	1	21
599.395	1	18
599.734	1	21
600.074	1	14
600.413	1	14
600.753	1	22
601.092	1	25
601.432	1	10
601.771	1	22
602.111	1	22
602.451	1	27
602.790	1	19
603.130	1	20
603.469	1	11
603.809	1	10
604.148	1	22
604.487	1	20
604.827	1	15
605.166	1	23
605.506	1	22
605.845	1	27
606.185	1	29
606.524	1	14
606.864	1	16
607.203	1	15
607.543	1	11
607.882	1	30
608.222	1	14
608.561	1	21
608.901	1	20
609.240	1	9
609.579	1	25
609.919	1	23
610.258	1	19
610.598	1	12
610.937	1	15
611.277	1	19
611.616	1	17
611.955	1	12
612.295	1	7
612.634	1	12
612.974	1	4
613.313	1	22
613.652	1	20
613.992	1	17
614.331	1	20
614.671	1	27
615.010	1	3
615.349	1	15
615.689	1	19
616.028	1	18
616.368	1	18
616.707	1	20
617.046	1	16
617.386	1	15
617.725	1	19
618.064	1	23
618.404	1	19
618.743	1	9
619.082	1	9
619.422	1	4
619.761	1	22
620.100	1	21
620.440	1	15
620.779	1	11
621.118	1	17
621.458	1	14
621.797	1	10
622.136	1	21
622.476	1	22
622.815	1	16
623.154	1	23
623.494	1	25
623.833	1	10
624.172	1	7
624.511	1	12
624.851	1	-1
625.190	1	10
625.529	1	13
625.869	1	16
626.208	1	16
626.547	1	9
626.886	1	11
627.226	1	16
627.565	1	17
627.904	1	3
628.243	1	16
628.583	1	11
628.922	1	15
629.261	1	25
629.600	1	14
629.940	1	18
630.279	1	10
630.618	1	14
630.957	1	20
631.297	1	10
631.636	1	12
631.975	1	24
632.314	1	9
632.653	1	15
632.993	1	9
633.332	1	11
633.671	1	13
634.010	1	10
634.349	1	26
634.689	1	14
635.028	1	14
635.367	1	12
635.706	1	11
636.045	1	22
636.384	1	12
636.724	1	15
637.063	1	6
637.402	1	10
637.741	1	15
638.080	1	-4
638.419	1	3
638.759	1	8
639.098	1	16
639.437	1	13
639.776	1	8
640.115	1	8
640.454	1	6
640.793	1	15
641.132	1	18
641.472	1	12
641.811	1	9
642.150	1	3
642.489	1	9
642.828	1	1
643.167	1	9
643.506	1	2
643.845	1	16
644.184	1	12
644.524	1	8
644.863	1	8
645.202	1	10
645.541	1	-3
645.880	1	10
646.219	1	9
646.558	1	8
646.897	1	9
647.236	1	5
647.575	1	8
647.914	1	4
648.253	1	17
648.592	1	-2
648.931	1	16
649.270	1	6
649.610	1	13
649.949	1	13
650.288	1	21
650.627	1	6
650.966	1	10
651.305	1	16
651.644	1	22
651.983	1	10
652.322	1	11
652.661	1	6
653.000	1	2
653.339	1	15
653.678	1	12
654.017	1	3
654.356	1	2
654.695	1	13
655.034	1	15
655.373	1	24
655.712	1	9
656.051	1	12
656.390	1	-4
656.729	1	13
657.068	1	10
657.406	1	10
657.745	1	7
658.084	1	5
658.423	1	3
658.762	1	4
659.101	1	21
659.440	1	7
659.779	1	8
660.118	1	4
660.457	1	8
660.796	1	1
661.135	1	1
661.474	1	-1
661.813	1	24
662.152	1	15
662.491	1	5
662.829	1	2
663.168	1	5
663.507	1	19
663.846	1	5
664.185	1	17
664.524	1	11
664.863	1	-1
665.202	1	18
665.541	1	4
665.879	1	2
666.218	1	-1
666.557	1	8
666.896	1	2
667.235	1	4
667.574	1	9
667.913	1	4
668.251	1	4
668.590	1	13
668.929	1	-6
669.268	1	9
669.607	1	3
669.946	1	8
670.285	1	7
670.623	1	1
670.962	1	13
671.301	1	2
671.640	1	9
671.979	1	10
672.317	1	15
672.656	1	11
672.995	1	16
673.334	1	2
673.673	1	9
674.011	1	9
674.350	1	13
674.689	1	8
675.028	1	14
675.367	1	6
675.705	1	9
676.044	1	6
676.383	1	7
676.722	1	8
677.060	1	0
677.399	1	-4
677.738	1	10
678.077	1	10
678.416	1	8
678.754	1	3
679.093	1	16
679.432	1	6
679.771	1	5
680.109	1	9
680.448	1	14
680.787	1	7
681.125	1	13
681.464	1	14
681.803	1	7
682.142	1	16
682.480	1	15
682.819	1	4
683.158	1	9
683.496	1	13
683.835	1	12
684.174	1	0
684.512	1	17
684.851	1	18
685.190	1	12
685.529	1	4
685.867	1	1
686.206	1	-8
686.545	1	0
686.883	1	4
687.222	1	14
687.561	1	7
687.899	1	9
688.238	1	13
688.577	1	15
688.746	1	11