File: Data/GaN_200K_800ms/GaN_sample F_spot 12_UVVIS_200 K_200um_800 ms 2x2mm1_12.txt
340.368	1	-2
340.710	1	-6
341.052	1	13
341.394	1	4
341.737	1	-1
342.079	1	-7
342.421	1	0
342.763	1	4
343.105	1	4
343.447	1	3
343.789	1	2
344.131	1	3
344.473	1	-2
344.815	1	-7
345.157	1	-6
345.499	1	1
345.841	1	5
346.183	1	-2
346.526	1	-4
346.868	1	7
347.210	1	-5
347.552	1	-5
347.894	1	1
348.236	1	11
348.578	1	-6
348.920	1	-3
349.262	1	-4
349.604	1	1
349.946	1	-3
350.288	1	3
350.630	1	6
350.972	1	-5
351.314	1	7
351.656	1	-3
351.998	1	7
352.340	1	4
352.682	1	6
353.024	1	4
353.366	1	9
353.708	1	4
354.050	1	-5
354.392	1	1
354.734	1	5
355.076	1	4
355.418	1	-6
355.760	1	-2
356.102	1	10
356.444	1	1
356.785	1	2
357.127	1	3
357.469	1	6
357.811	1	5
358.153	1	-2
358.495	1	11
358.837	1	-7
359.179	1	5
359.521	1	8
359.863	1	-7
360.205	1	-6
360.547	1	3
360.889	1	-7
361.231	1	-10
361.572	1	0
361.914	1	11
362.256	1	-13
362.598	1	-11
362.940	1	-5
363.282	1	-3
363.624	1	6
363.966	1	-5
364.308	1	-2
364.649	1	2
364.991	1	-2
365.333	1	-6
365.675	1	-4
366.017	1	-3
366.359	1	1
366.701	1	-3
367.042	1	2
367.384	1	8
367.726	1	2
368.068	1	-2
368.410	1	9
368.752	1	-6
369.093	1	-5
369.435	1	-1
369.777	1	-17
370.119	1	-7
370.461	1	5
370.803	1	9
371.144	1	2
371.486	1	11
371.828	1	-1
372.170	1	4
372.512	1	-10
372.853	1	-4
373.195	1	-1
373.537	1	-4
373.879	1	0
374.220	1	14
374.562	1	8
374.904	1	-7
375.246	1	4
375.588	1	4
375.929	1	9
376.271	1	4
376.613	1	-3
376.955	1	-3
377.296	1	7
377.638	1	5
377.980	1	-6
378.321	1	-5
378.663	1	-10
379.005	1	3
379.347	1	0
379.688	1	6
380.030	1	-5
380.372	1	1
380.714	1	7
381.055	1	3
381.397	1	1
381.739	1	5
382.080	1	9
382.422	1	8
382.764	1	-5
383.105	1	-9
383.447	1	-11
383.789	1	-5
384.130	1	-1
384.472	1	-4
384.814	1	0
385.156	1	-6
385.497	1	3
385.839	1	-1
386.180	1	2
386.522	1	6
386.864	1	-3
387.205	1	-5
387.547	1	-11
387.889	1	0
388.230	1	6
388.572	1	-8
388.914	1	0
389.255	1	-5
389.597	1	4
389.939	1	3
390.280	1	0
390.622	1	-7
390.963	1	15
391.305	1	-4
391.647	1	7
391.988	1	0
392.330	1	4
392.671	1	0
393.013	1	-13
393.355	1	2
393.696	1	-2
394.038	1	-3
394.379	1	9
394.721	1	2
395.062	1	5
395.404	1	1
395.746	1	11
396.087	1	-3
396.429	1	5
396.770	1	-3
397.112	1	12
397.453	1	9
397.795	1	6
398.136	1	-8
398.478	1	10
398.819	1	1
399.161	1	12
399.503	1	2
399.844	1	2
400.186	1	-1
400.527	1	1
400.869	1	3
401.210	1	0
401.552	1	-7
401.893	1	1
402.235	1	4
402.576	1	-10
402.918	1	5
403.259	1	8
403.601	1	-1
403.942	1	2
404.284	1	18
404.625	1	9
404.967	1	8
405.308	1	11
405.649	1	4
405.991	1	-4
406.332	1	5
406.674	1	1
407.015	1	12
407.357	1	6
407.698	1	5
408.040	1	-14
408.381	1	6
408.722	1	-6
409.064	1	-6
409.405	1	8
409.747	1	-5
410.088	1	4
410.430	1	4
410.771	1	-1
411.112	1	-3
411.454	1	-4
411.795	1	-4
412.137	1	4
412.478	1	6
412.819	1	-5
413.161	1	1
413.502	1	2
413.844	1	9
414.185	1	6
414.526	1	3
414.868	1	0
415.209	1	-7
415.550	1	-8
415.892	1	-4
416.233	1	11
416.575	1	10
416.916	1	-1
417.257	1	3
417.599	1	11
417.940	1	12
418.281	1	4
418.623	1	2
418.964	1	-3
419.305	1	-2
419.647	1	-4
419.988	1	1
420.329	1	-3
420.671	1	0
421.012	1	-1
421.353	1	-7
421.695	1	-6
422.036	1	4
422.377	1	-1
422.718	1	9
423.060	1	1
423.401	1	0
423.742	1	6
424.084	1	1
424.425	1	1
424.766	1	8
425.107	1	-3
425.449	1	-2
425.790	1	-16
426.131	1	-3
426.472	1	3
426.814	1	4
427.155	1	-2
427.496	1	-1
427.837	1	-2
428.179	1	-3
428.520	1	4
428.861	1	-12
429.202	1	7
429.544	1	0
429.885	1	4
430.226	1	-11
430.567	1	-1
430.909	1	1
431.250	1	-4
431.591	1	10
431.932	1	-4
432.273	1	-2
432.615	1	-10
432.956	1	-4
433.297	1	-2
433.638	1	5
433.979	1	5
434.320	1	9
434.662	1	-2
435.003	1	7
435.344	1	0
435.685	1	-2
436.026	1	6
436.368	1	8
436.709	1	-5
437.050	1	0
437.391	1	12
437.732	1	0
438.073	1	-2
438.414	1	-5
438.756	1	-7
439.097	1	-3
439.438	1	-9
439.779	1	0
440.120	1	-3
440.461	1	2
440.802	1	-3
441.143	1	-1
441.485	1	0
441.826	1	-7
442.167	1	0
442.508	1	-11
442.849	1	3
443.190	1	-3
443.531	1	0
443.872	1	20
444.213	1	0
444.554	1	11
444.895	1	1
445.237	1	-5
445.578	1	-5
445.919	1	-3
446.260	1	-11
446.601	1	2
446.942	1	6
447.283	1	3
447.624	1	0
447.965	1	3
448.306	1	-1
448.647	1	-4
448.988	1	-6
449.329	1	5
449.670	1	6
450.011	1	8
450.352	1	2
450.693	1	1
451.034	1	-7
451.375	1	-2
451.716	1	0
452.057	1	0
452.398	1	1
452.739	1	8
453.080	1	1
453.421	1	6
453.762	1	10
454.103	1	0
454.444	1	-5
454.785	1	5
455.126	1	-2
455.467	1	-1
455.808	1	8
456.149	1	10
456.490	1	-7
456.831	1	12
457.172	1	-8
457.513	1	4
457.854	1	2
458.195	1	-3
458.536	1	8
458.877	1	6
459.218	1	6
459.559	1	6
459.899	1	2
460.240	1	-1
460.581	1	11
460.922	1	4
461.263	1	-3
461.604	1	-5
461.945	1	7
462.286	1	3
462.627	1	4
462.968	1	0
463.309	1	-2
463.649	1	1
463.990	1	0
464.331	1	-1
464.672	1	0
465.013	1	2
465.354	1	5
465.695	1	8
466.036	1	3
466.376	1	-7
466.717	1	-1
467.058	1	1
467.399	1	12
467.740	1	4
468.081	1	1
468.422	1	-5
468.762	1	-16
469.103	1	-6
469.444	1	-9
469.785	1	-13
470.126	1	-5
470.467	1	-1
470.807	1	4
471.148	1	3
471.489	1	-3
471.830	1	2
472.171	1	-3
472.511	1	-11
472.852	1	-5
473.193	1	6
473.534	1	6
473.875	1	10
474.215	1	11
474.556	1	2
474.897	1	2
475.238	1	-2
475.578	1	-5
475.919	1	-6
476.260	1	-1
476.601	1	-1
476.942	1	16
477.282	1	-3
477.623	1	-2
477.964	1	1
478.305	1	-2
478.645	1	8
478.986	1	4
479.327	1	-8
479.667	1	4
480.008	1	-2
480.349	1	-5
480.690	1	-6
481.030	1	-5
481.371	1	2
481.712	1	1
482.053	1	-7
482.393	1	0
482.734	1	-3
483.075	1	0
483.415	1	8
483.756	1	0
484.097	1	-5
484.437	1	-5
484.778	1	11
485.119	1	-5
485.459	1	11
485.800	1	0
486.141	1	-7
486.481	1	1
486.822	1	-2
487.163	1	-11
487.503	1	0
487.844	1	-6
488.185	1	4
488.525	1	7
488.866	1	3
489.207	1	-5
489.547	1	-2
489.888	1	-8
490.228	1	8
490.569	1	13
490.910	1	-2
491.250	1	-2
491.591	1	-8
491.932	1	6
492.272	1	2
492.613	1	-2
492.953	1	-1
493.294	1	1
493.635	1	0
493.975	1	6
494.316	1	1
494.656	1	0
494.997	1	-3
495.337	1	5
495.678	1	0
496.019	1	1
496.359	1	-6
496.700	1	7
497.040	1	5
497.381	1	-1
497.721	1	-4
498.062	1	13
498.403	1	-2
498.743	1	1
499.084	1	-2
499.424	1	3
499.765	1	-7
500.105	1	-6
500.446	1	-12
500.786	1	-5
501.127	1	3
501.467	1	-10
501.808	1	1
502.148	1	-6
502.489	1	5
502.829	1	-2
503.170	1	7
503.510	1	13
503.851	1	-4
504.191	1	1
504.532	1	-2
504.872	1	-1
505.213	1	10
505.553	1	-11
505.894	1	-8
506.234	1	-1
506.575	1	10
506.915	1	0
507.256	1	-6
507.596	1	3
507.936	1	8
508.277	1	1
508.617	1	-10
508.958	1	-7
509.298	1	2
509.639	1	-3
509.979	1	-6
510.319	1	7
510.660	1	-5
511.000	1	-4
511.341	1	5
511.681	1	2
512.022	1	-11
512.362	1	1
512.702	1	-2
513.043	1	4
513.383	1	-4
513.724	1	-1
514.064	1	4
514.404	1	1
514.745	1	-5
515.085	1	-2
515.425	1	-5
515.766	1	-5
516.106	1	-3
516.447	1	11
516.787	1	14
517.127	1	2
517.468	1	1
517.808	1	-6
518.148	1	3
518.489	1	-1
518.829	1	1
519.169	1	0
519.510	1	2
519.850	1	1
520.190	1	-3
520.531	1	7
520.871	1	7
521.211	1	-11
521.552	1	-2
521.892	1	10
522.232	1	-8
522.573	1	-2
522.913	1	5
523.253	1	-1
523.593	1	-7
523.934	1	6
524.274	1	1
524.614	1	-5
524.955	1	-6
525.295	1	-5
525.635	1	-10
525.975	1	6
526.316	1	7
526.656	1	-4
526.996	1	3
527.337	1	1
527.677	1	7
528.017	1	0
528.357	1	1
528.698	1	-3
529.038	1	3
529.378	1	4
529.718	1	15
530.058	1	-2
530.399	1	7
530.739	1	5
531.079	1	9
531.419	1	-1
531.760	1	5
532.100	1	-3
532.440	1	0
532.780	1	3
533.120	1	1
533.461	1	1
533.801	1	9
534.141	1	-9
534.481	1	-15
534.821	1	9
535.162	1	0
535.502	1	-10
535.842	1	6
536.182	1	5
536.522	1	-6
536.862	1	-4
537.203	1	-9
537.543	1	-8
537.883	1	-5
538.223	1	2
538.563	1	11
538.903	1	-14
539.243	1	2
539.584	1	5
539.924	1	11
540.264	1	-6
540.604	1	-2
540.944	1	-7
541.284	1	8
541.624	1	7
541.964	1	7
542.305	1	6
542.645	1	1
542.985	1	3
543.325	1	0
543.665	1	5
544.005	1	13
544.345	1	11
544.685	1	2
545.025	1	-8
545.365	1	-4
545.705	1	8
546.045	1	-5
546.386	1	-1
546.726	1	-2
547.066	1	3
547.406	1	-2
547.746	1	-7
548.086	1	-9
548.426	1	-12
548.766	1	3
549.106	1	2
549.446	1	2
549.786	1	-9
550.126	1	4
550.466	1	-5
550.806	1	-6
551.146	1	5
551.486	1	2
551.826	1	7
552.166	1	-4
552.506	1	6
552.846	1	9
553.186	1	7
553.526	1	-1
553.866	1	-2
554.206	1	2
554.546	1	5
554.886	1	3
555.226	1	-5
555.566	1	3
555.906	1	-2
556.246	1	4
556.586	1	2
556.926	1	6
557.266	1	-7
557.606	1	8
557.946	1	12
558.286	1	-1
558.626	1	11
558.966	1	4
559.306	1	-3
559.646	1	1
559.986	1	-8
560.325	1	-9
560.665	1	-1
561.005	1	4
561.345	1	0
561.685	1	-3
562.025	1	0
562.365	1	2
562.705	1	-4
563.045	1	-4
563.385	1	-12
563.725	1	3
564.064	1	-2
564.404	1	-1
564.744	1	3
565.084	1	4
565.424	1	4
565.764	1	12
566.104	1	2
566.444	1	-4
566.783	1	-5
567.123	1	-1
567.463	1	7
567.803	1	-1
568.143	1	2
568.483	1	-1
568.823	1	-3
569.162	1	1
569.502	1	-1
569.842	1	2
570.182	1	3
570.522	1	-6
570.862	1	-8
571.201	1	11
571.541	1	1
571.881	1	11
572.221	1	-2
572.561	1	-2
572.900	1	-10
573.240	1	7
573.580	1	6
573.920	1	5
574.260	1	15
574.599	1	0
574.939	1	8
575.279	1	10
575.619	1	7
575.959	1	-4
576.298	1	7
576.638	1	-7
576.978	1	5
577.318	1	5
577.657	1	-6
577.997	1	-1
578.337	1	7
578.677	1	-5
579.016	1	10
579.356	1	-3
579.696	1	2
580.036	1	3
580.375	1	6
580.715	1	2
581.055	1	-8
581.394	1	1
581.734	1	-3
582.074	1	-2
582.414	1	9
582.753	1	1
583.093	1	-1
583.433	1	-12
583.772	1	8
584.112	1	-1
584.452	1	2
584.791	1	-4
585.131	1	7
585.471	1	11
585.811	1	2
586.150	1	-4
586.490	1	4
586.830	1	9
587.169	1	1
587.509	1	2
587.849	1	-1
588.188	1	10
588.528	1	-1
588.867	1	0
589.207	1	0
589.547	1	-3
589.886	1	-1
590.226	1	10
590.566	1	-9
590.905	1	-2
591.245	1	0
591.585	1	5
591.924	1	1
592.264	1	5
592.603	1	2
592.943	1	5
593.283	1	-2
593.622	1	-4
593.962	1	-1
594.301	1	1
594.641	1	-2
594.981	1	-9
595.320	1	-4
595.660	1	-7
595.999	1	-6
596.339	1	1
596.678	1	-8
597.018	1	-5
597.358	1	4
597.697	1	-1
598.037	1	1
598.376	1	-3
598.716	1	8
599.055	1	1
599.395	1	0
599.734	1	1
600.074	1	0
600.413	1	9
600.753	1	-1
601.092	1	12
601.432	1	-11
601.771	1	6
602.111	1	0
602.451	1	5
602.790	1	2
603.130	1	0
603.469	1	-7
603.809	1	4
604.148	1	6
604.487	1	1
604.827	1	10
605.166	1	10
605.506	1	1
605.845	1	-5
606.185	1	3
606.524	1	3
606.864	1	0
607.203	1	-3
607.543	1	-4
607.882	1	15
608.222	1	3
608.561	1	4
608.901	1	8
609.240	1	-4
609.579	1	7
609.919	1	8
610.258	1	8
610.598	1	1
610.937	1	5
611.277	1	-1
611.616	1	-6
611.955	1	0
612.295	1	-9
612.634	1	13
612.974	1	-15
613.313	1	4
613.652	1	4
613.992	1	-1
614.331	1	2
614.671	1	5
615.010	1	-9
615.349	1	12
615.689	1	-1
616.028	1	9
616.368	1	-4
616.707	1	-5
617.046	1	5
617.386	1	1
617.725	1	1
618.064	1	-3
618.404	1	8
618.743	1	7
619.082	1	4
619.422	1	2
619.761	1	-1
620.100	1	1
620.440	1	5
620.779	1	-7
621.118	1	4
621.458	1	3
621.797	1	-7
622.136	1	12
622.476	1	3
622.815	1	10
623.154	1	7
623.494	1	11
623.833	1	7
624.172	1	2
624.511	1	-5
624.851	1	-5
625.190	1	3
625.529	1	9
625.869	1	0
626.208	1	2
626.547	1	2
626.886	1	14
627.226	1	0
627.565	1	5
627.904	1	-4
628.243	1	12
628.583	1	1
628.922	1	9
629.261	1	0
629.600	1	5
629.940	1	-6
630.279	1	-5
630.618	1	-5
630.957	1	2
631.297	1	-3
631.636	1	-11
631.975	1	13
632.314	1	9
632.653	1	4
632.993	1	-9
633.332	1	5
633.671	1	-4
634.010	1	0
634.349	1	6
634.689	1	2
635.028	1	8
635.367	1	8
635.706	1	3
636.045	1	9
636.384	1	-11
636.724	1	1
637.063	1	0
637.402	1	5
637.741	1	9
638.080	1	-4
638.419	1	0
638.759	1	-4
639.098	1	9
639.437	1	-1
639.776	1	-3
640.115	1	6
640.454	1	-7
640.793	1	10
641.132	1	8
641.472	1	11
641.811	1	-3
642.150	1	-8
642.489	1	5
642.828	1	2
643.167	1	-7
643.506	1	-3
643.845	1	0
644.184	1	5
644.524	1	-4
644.863	1	-9
645.202	1	2
645.541	1	4
645.880	1	5
646.219	1	1
646.558	1	-4
646.897	1	1
647.236	1	-6
647.575	1	5
647.914	1	-5
648.253	1	4
648.592	1	-7
648.931	1	1
649.270	1	7
649.610	1	-1
649.949	1	-1
650.288	1	3
650.627	1	1
650.966	1	2
651.305	1	-7
651.644	1	12
651.983	1	-2
652.322	1	-7
652.661	1	-2
653.000	1	-4
653.339	1	17
653.678	1	-2
654.017	1	6
654.356	1	-7
654.695	1	-1
655.034	1	-2
655.373	1	8
655.712	1	-6
656.051	1	2
656.390	1	0
656.729	1	8
657.068	1	8
657.406	1	9
657.745	1	-4
658.084	1	4
658.423	1	11
658.762	1	1
659.101	1	5
659.440	1	7
659.779	1	-1
660.118	1	6
660.457	1	1
660.796	1	-11
661.135	1	-2
661.474	1	-2
661.813	1	9
662.152	1	1
662.491	1	-4
662.829	1	-4
663.168	1	5
663.507	1	3
663.846	1	-6
664.185	1	5
664.524	1	0
664.863	1	-2
665.202	1	2
665.541	1	-10
665.879	1	-1
666.218	1	-5
666.557	1	9
666.896	1	-2
667.235	1	0
667.574	1	-2
667.913	1	5
668.251	1	-2
668.590	1	0
668.929	1	-13
669.268	1	5
669.607	1	1
669.946	1	2
670.285	1	18
670.623	1	2
670.962	1	-1
671.301	1	2
671.640	1	3
671.979	1	-9
672.317	1	11
672.656	1	-1
672.995	1	17
673.334	1	-8
673.673	1	10
674.011	1	5
674.350	1	-3
674.689	1	2
675.028	1	-3
675.367	1	5
675.705	1	4
676.044	1	-3
676.383	1	-2
676.722	1	-7
677.060	1	0
677.399	1	-2
677.738	1	7
678.077	1	4
678.416	1	10
678.754	1	-3
679.093	1	1
679.432	1	-5
679.771	1	-2
680.109	1	12
680.448	1	-1
680.787	1	-4
681.125	1	-7
681.464	1	3
681.803	1	-1
682.142	1	11
682.480	1	15
682.819	1	-7
683.158	1	-4
683.496	1	2
683.835	1	8
684.174	1	-5
684.512	1	-2
684.851	1	-3
685.190	1	-5
685.529	1	5
685.867	1	1
686.206	1	-2
686.545	1	-4
686.883	1	1
687.222	1	12
687.561	1	-1
687.899	1	4
688.238	1	7
688.577	1	-1
688.746	1	-2