File: Data/GaN_200K_800ms/GaN_sample F_spot 12_UVVIS_200 K_200um_800 ms 2x2mm1_362.txt
340.368	1	-1
340.710	1	-7
341.052	1	7
341.394	1	-5
341.737	1	5
342.079	1	0
342.421	1	-10
342.763	1	2
343.105	1	4
343.447	1	-2
343.789	1	-8
344.131	1	-5
344.473	1	2
344.815	1	-5
345.157	1	-8
345.499	1	4
345.841	1	3
346.183	1	-6
346.526	1	-2
346.868	1	0
347.210	1	-8
347.552	1	-8
347.894	1	8
348.236	1	-1
348.578	1	3
348.920	1	-3
349.262	1	-2
349.604	1	-8
349.946	1	-8
350.288	1	2
350.630	1	-8
350.972	1	0
351.314	1	1
351.656	1	1
351.998	1	5
352.340	1	8
352.682	1	4
353.024	1	-1
353.366	1	5
353.708	1	-4
354.050	1	-6
354.392	1	-7
354.734	1	-1
355.076	1	5
355.418	1	-9
355.760	1	1
356.102	1	8
356.444	1	0
356.785	1	6
357.127	1	-1
357.469	1	-1
357.811	1	-3
358.153	1	2
358.495	1	6
358.837	1	-3
359.179	1	-1
359.521	1	4
359.863	1	-5
360.205	1	4
360.547	1	1
360.889	1	-3
361.231	1	-4
361.572	1	1
361.914	1	3
362.256	1	-3
362.598	1	1
362.940	1	-2
363.282	1	10
363.624	1	8
363.966	1	7
364.308	1	4
364.649	1	13
364.991	1	6
365.333	1	4
365.675	1	5
366.017	1	8
366.359	1	9
366.701	1	17
367.042	1	11
367.384	1	15
367.726	1	17
368.068	1	11
368.410	1	27
368.752	1	-1
369.093	1	4
369.435	1	18
369.777	1	7
370.119	1	8
370.461	1	24
370.803	1	15
371.144	1	12
371.486	1	18
371.828	1	16
372.170	1	15
372.512	1	18
372.853	1	5
373.195	1	1
373.537	1	6
373.879	1	5
374.220	1	21
374.562	1	21
374.904	1	4
375.246	1	10
375.588	1	8
375.929	1	20
376.271	1	8
376.613	1	18
376.955	1	-1
377.296	1	-5
377.638	1	6
377.980	1	9
378.321	1	1
378.663	1	7
379.005	1	7
379.347	1	0
379.688	1	-4
380.030	1	-4
380.372	1	-1
380.714	1	7
381.055	1	10
381.397	1	1
381.739	1	8
382.080	1	0
382.422	1	-1
382.764	1	-2
383.105	1	1
383.447	1	-3
383.789	1	-3
384.130	1	-2
384.472	1	-3
384.814	1	-1
385.156	1	-5
385.497	1	4
385.839	1	0
386.180	1	7
386.522	1	3
386.864	1	7
387.205	1	0
387.547	1	-8
387.889	1	-2
388.230	1	7
388.572	1	5
388.914	1	-1
389.255	1	-1
389.597	1	3
389.939	1	9
390.280	1	0
390.622	1	-6
390.963	1	11
391.305	1	11
391.647	1	0
391.988	1	14
392.330	1	10
392.671	1	-3
393.013	1	4
393.355	1	4
393.696	1	3
394.038	1	1
394.379	1	3
394.721	1	-11
395.062	1	0
395.404	1	-4
395.746	1	7
396.087	1	1
396.429	1	3
396.770	1	-2
397.112	1	-2
397.453	1	8
397.795	1	1
398.136	1	-10
398.478	1	6
398.819	1	3
399.161	1	15
399.503	1	-6
399.844	1	2
400.186	1	1
400.527	1	-1
400.869	1	-1
401.210	1	0
401.552	1	-8
401.893	1	-1
402.235	1	2
402.576	1	-10
402.918	1	7
403.259	1	3
403.601	1	-4
403.942	1	7
404.284	1	11
404.625	1	2
404.967	1	8
405.308	1	1
405.649	1	-3
405.991	1	-11
406.332	1	3
406.674	1	-8
407.015	1	0
407.357	1	-4
407.698	1	5
408.040	1	-7
408.381	1	8
408.722	1	-12
409.064	1	-3
409.405	1	13
409.747	1	3
410.088	1	1
410.430	1	-2
410.771	1	9
411.112	1	-5
411.454	1	-8
411.795	1	-3
412.137	1	7
412.478	1	9
412.819	1	-11
413.161	1	-5
413.502	1	4
413.844	1	3
414.185	1	11
414.526	1	0
414.868	1	10
415.209	1	3
415.550	1	-4
415.892	1	5
416.233	1	4
416.575	1	6
416.916	1	-9
417.257	1	1
417.599	1	-3
417.940	1	12
418.281	1	4
418.623	1	-8
418.964	1	-11
419.305	1	0
419.647	1	-6
419.988	1	-6
420.329	1	-14
420.671	1	4
421.012	1	5
421.353	1	2
421.695	1	-5
422.036	1	5
422.377	1	-2
422.718	1	11
423.060	1	-1
423.401	1	6
423.742	1	3
424.084	1	-1
424.425	1	4
424.766	1	-9
425.107	1	-6
425.449	1	2
425.790	1	-9
426.131	1	-2
426.472	1	-2
426.814	1	0
427.155	1	-11
427.496	1	-2
427.837	1	-11
428.179	1	-12
428.520	1	-4
428.861	1	1
429.202	1	8
429.544	1	-4
429.885	1	6
430.226	1	-9
430.567	1	1
430.909	1	4
431.250	1	-5
431.591	1	7
431.932	1	-6
432.273	1	-3
432.615	1	-5
432.956	1	-7
433.297	1	7
433.638	1	-10
433.979	1	3
434.320	1	2
434.662	1	-3
435.003	1	-6
435.344	1	4
435.685	1	-4
436.026	1	5
436.368	1	-1
436.709	1	-11
437.050	1	-5
437.391	1	11
437.732	1	-9
438.073	1	-2
438.414	1	-16
438.756	1	-6
439.097	1	-6
439.438	1	-6
439.779	1	-6
440.120	1	1
440.461	1	3
440.802	1	-1
441.143	1	8
441.485	1	0
441.826	1	-4
442.167	1	6
442.508	1	-6
442.849	1	9
443.190	1	-9
443.531	1	10
443.872	1	1
444.213	1	-8
444.554	1	11
444.895	1	-11
445.237	1	-4
445.578	1	-7
445.919	1	-13
446.260	1	-5
446.601	1	2
446.942	1	-15
447.283	1	-3
447.624	1	1
447.965	1	3
448.306	1	3
448.647	1	-5
448.988	1	-2
449.329	1	-7
449.670	1	12
450.011	1	-2
450.352	1	-10
450.693	1	-10
451.034	1	-6
451.375	1	3
451.716	1	-11
452.057	1	-3
452.398	1	-12
452.739	1	3
453.080	1	10
453.421	1	-3
453.762	1	-2
454.103	1	-1
454.444	1	-8
454.785	1	1
455.126	1	-4
455.467	1	-5
455.808	1	2
456.149	1	1
456.490	1	-6
456.831	1	10
457.172	1	-5
457.513	1	5
457.854	1	-2
458.195	1	-6
458.536	1	5
458.877	1	-2
459.218	1	3
459.559	1	8
459.899	1	-3
460.240	1	-2
460.581	1	17
460.922	1	3
461.263	1	-5
461.604	1	-7
461.945	1	1
462.286	1	-3
462.627	1	2
462.968	1	4
463.309	1	-6
463.649	1	1
463.990	1	-6
464.331	1	-8
464.672	1	-6
465.013	1	-2
465.354	1	-2
465.695	1	-2
466.036	1	-1
466.376	1	1
466.717	1	-9
467.058	1	3
467.399	1	-1
467.740	1	11
468.081	1	6
468.422	1	-6
468.762	1	-6
469.103	1	-4
469.444	1	-4
469.785	1	-20
470.126	1	-5
470.467	1	-12
470.807	1	5
471.148	1	8
471.489	1	-5
471.830	1	-3
472.171	1	4
472.511	1	3
472.852	1	-5
473.193	1	5
473.534	1	4
473.875	1	5
474.215	1	5
474.556	1	1
474.897	1	4
475.238	1	10
475.578	1	-4
475.919	1	-5
476.260	1	2
476.601	1	-7
476.942	1	10
477.282	1	-5
477.623	1	-9
477.964	1	0
478.305	1	-6
478.645	1	8
478.986	1	-2
479.327	1	-5
479.667	1	-5
480.008	1	-3
480.349	1	-1
480.690	1	2
481.030	1	-5
481.371	1	0
481.712	1	-1
482.053	1	10
482.393	1	3
482.734	1	-7
483.075	1	4
483.415	1	-1
483.756	1	0
484.097	1	-2
484.437	1	-6
484.778	1	-2
485.119	1	-4
485.459	1	8
485.800	1	6
486.141	1	-4
486.481	1	-2
486.822	1	5
487.163	1	-1
487.503	1	4
487.844	1	5
488.185	1	5
488.525	1	6
488.866	1	3
489.207	1	-6
489.547	1	1
489.888	1	-6
490.228	1	6
490.569	1	4
490.910	1	-6
491.250	1	-7
491.591	1	-9
491.932	1	-2
492.272	1	5
492.613	1	-11
492.953	1	-6
493.294	1	-7
493.635	1	-5
493.975	1	4
494.316	1	2
494.656	1	-8
494.997	1	2
495.337	1	1
495.678	1	10
496.019	1	-1
496.359	1	-3
496.700	1	-3
497.040	1	1
497.381	1	-2
497.721	1	1
498.062	1	-2
498.403	1	0
498.743	1	-3
499.084	1	-2
499.424	1	4
499.765	1	0
500.105	1	2
500.446	1	-8
500.786	1	-7
501.127	1	6
501.467	1	-12
501.808	1	4
502.148	1	3
502.489	1	0
502.829	1	0
503.170	1	7
503.510	1	6
503.851	1	-3
504.191	1	3
504.532	1	7
504.872	1	8
505.213	1	12
505.553	1	-12
505.894	1	0
506.234	1	8
506.575	1	6
506.915	1	1
507.256	1	3
507.596	1	11
507.936	1	-3
508.277	1	-1
508.617	1	9
508.958	1	-14
509.298	1	-2
509.639	1	-8
509.979	1	-1
510.319	1	3
510.660	1	2
511.000	1	-6
511.341	1	0
511.681	1	-2
512.022	1	-17
512.362	1	-8
512.702	1	-8
513.043	1	1
513.383	1	-12
513.724	1	0
514.064	1	9
514.404	1	-2
514.745	1	-3
515.085	1	-8
515.425	1	0
515.766	1	-8
516.106	1	2
516.447	1	16
516.787	1	6
517.127	1	-4
517.468	1	0
517.808	1	-1
518.148	1	-1
518.489	1	-1
518.829	1	-3
519.169	1	-1
519.510	1	3
519.850	1	-3
520.190	1	-5
520.531	1	8
520.871	1	-8
521.211	1	-5
521.552	1	7
521.892	1	6
522.232	1	4
522.573	1	-3
522.913	1	6
523.253	1	3
523.593	1	1
523.934	1	1
524.274	1	4
524.614	1	-6
524.955	1	-9
525.295	1	7
525.635	1	-1
525.975	1	6
526.316	1	11
526.656	1	2
526.996	1	6
527.337	1	1
527.677	1	5
528.017	1	-9
528.357	1	5
528.698	1	0
529.038	1	4
529.378	1	5
529.718	1	12
530.058	1	-7
530.399	1	2
530.739	1	-3
531.079	1	1
531.419	1	12
531.760	1	10
532.100	1	-7
532.440	1	2
532.780	1	1
533.120	1	10
533.461	1	-1
533.801	1	4
534.141	1	-7
534.481	1	-5
534.821	1	0
535.162	1	-4
535.502	1	-5
535.842	1	2
536.182	1	-1
536.522	1	-1
536.862	1	-6
537.203	1	-7
537.543	1	2
537.883	1	0
538.223	1	1
538.563	1	5
538.903	1	-9
539.243	1	-2
539.584	1	-1
539.924	1	10
540.264	1	-3
540.604	1	-1
540.944	1	-2
541.284	1	7
541.624	1	10
541.964	1	7
542.305	1	10
542.645	1	2
542.985	1	4
543.325	1	-2
543.665	1	8
544.005	1	11
544.345	1	9
544.685	1	-2
545.025	1	11
545.365	1	2
545.705	1	0
546.045	1	-1
546.386	1	6
546.726	1	-12
547.066	1	2
547.406	1	0
547.746	1	-10
548.086	1	4
548.426	1	-5
548.766	1	5
549.106	1	5
549.446	1	2
549.786	1	-8
550.126	1	8
550.466	1	2
550.806	1	-2
551.146	1	-5
551.486	1	-2
551.826	1	5
552.166	1	1
552.506	1	5
552.846	1	5
553.186	1	-3
553.526	1	-7
553.866	1	3
554.206	1	3
554.546	1	2
554.886	1	9
555.226	1	-13
555.566	1	3
555.906	1	13
556.246	1	-9
556.586	1	-2
556.926	1	4
557.266	1	-6
557.606	1	2
557.946	1	8
558.286	1	12
558.626	1	1
558.966	1	-1
559.306	1	-6
559.646	1	0
559.986	1	2
560.325	1	1
560.665	1	1
561.005	1	-6
561.345	1	4
561.685	1	9
562.025	1	-8
562.365	1	2
562.705	1	-7
563.045	1	-5
563.385	1	-19
563.725	1	8
564.064	1	3
564.404	1	6
564.744	1	9
565.084	1	5
565.424	1	3
565.764	1	2
566.104	1	5
566.444	1	-12
566.783	1	-4
567.123	1	4
567.463	1	7
567.803	1	-1
568.143	1	9
568.483	1	11
568.823	1	5
569.162	1	3
569.502	1	0
569.842	1	9
570.182	1	2
570.522	1	-8
570.862	1	-5
571.201	1	9
571.541	1	2
571.881	1	12
572.221	1	0
572.561	1	1
572.900	1	-4
573.240	1	1
573.580	1	1
573.920	1	2
574.260	1	10
574.599	1	8
574.939	1	6
575.279	1	7
575.619	1	7
575.959	1	-1
576.298	1	16
576.638	1	-9
576.978	1	6
577.318	1	8
577.657	1	-6
577.997	1	-5
578.337	1	5
578.677	1	7
579.016	1	4
579.356	1	-1
579.696	1	10
580.036	1	0
580.375	1	4
580.715	1	0
581.055	1	-8
581.394	1	1
581.734	1	-6
582.074	1	-4
582.414	1	14
582.753	1	1
583.093	1	1
583.433	1	-11
583.772	1	2
584.112	1	-4
584.452	1	-1
584.791	1	-1
585.131	1	1
585.471	1	5
585.811	1	0
586.150	1	-1
586.490	1	3
586.830	1	1
587.169	1	3
587.509	1	-1
587.849	1	-8
588.188	1	11
588.528	1	7
588.867	1	2
589.207	1	-4
589.547	1	0
589.886	1	-12
590.226	1	1
590.566	1	-3
590.905	1	5
591.245	1	1
591.585	1	15
591.924	1	3
592.264	1	3
592.603	1	-3
592.943	1	4
593.283	1	9
593.622	1	0
593.962	1	0
594.301	1	0
594.641	1	-6
594.981	1	-6
595.320	1	5
595.660	1	-1
595.999	1	-8
596.339	1	10
596.678	1	8
597.018	1	-12
597.358	1	8
597.697	1	-1
598.037	1	3
598.376	1	-2
598.716	1	2
599.055	1	5
599.395	1	3
599.734	1	1
600.074	1	1
600.413	1	11
600.753	1	8
601.092	1	11
601.432	1	-5
601.771	1	6
602.111	1	3
602.451	1	12
602.790	1	1
603.130	1	2
603.469	1	-5
603.809	1	-1
604.148	1	-2
604.487	1	-2
604.827	1	11
605.166	1	5
605.506	1	-1
605.845	1	7
606.185	1	4
606.524	1	-4
606.864	1	-3
607.203	1	-7
607.543	1	1
607.882	1	7
608.222	1	6
608.561	1	-6
608.901	1	5
609.240	1	-7
609.579	1	6
609.919	1	7
610.258	1	-1
610.598	1	-8
610.937	1	1
611.277	1	-1
611.616	1	-9
611.955	1	4
612.295	1	-7
612.634	1	0
612.974	1	-10
613.313	1	10
613.652	1	-8
613.992	1	4
614.331	1	2
614.671	1	7
615.010	1	-4
615.349	1	3
615.689	1	6
616.028	1	4
616.368	1	6
616.707	1	-2
617.046	1	9
617.386	1	-2
617.725	1	-3
618.064	1	0
618.404	1	2
618.743	1	3
619.082	1	4
619.422	1	-2
619.761	1	6
620.100	1	9
620.440	1	7
620.779	1	-11
621.118	1	2
621.458	1	-1
621.797	1	-3
622.136	1	12
622.476	1	5
622.815	1	10
623.154	1	-1
623.494	1	7
623.833	1	-1
624.172	1	-2
624.511	1	-9
624.851	1	0
625.190	1	0
625.529	1	-7
625.869	1	8
626.208	1	1
626.547	1	1
626.886	1	12
627.226	1	-1
627.565	1	-1
627.904	1	-7
628.243	1	11
628.583	1	-5
628.922	1	2
629.261	1	5
629.600	1	5
629.940	1	0
630.279	1	-10
630.618	1	-3
630.957	1	1
631.297	1	5
631.636	1	-8
631.975	1	15
632.314	1	5
632.653	1	8
632.993	1	-9
633.332	1	9
633.671	1	-7
634.010	1	-7
634.349	1	11
634.689	1	5
635.028	1	2
635.367	1	5
635.706	1	2
636.045	1	8
636.384	1	-2
636.724	1	2
637.063	1	-1
637.402	1	10
637.741	1	0
638.080	1	-4
638.419	1	-3
638.759	1	-11
639.098	1	4
639.437	1	2
639.776	1	-8
640.115	1	-3
640.454	1	-9
640.793	1	1
641.132	1	7
641.472	1	-2
641.811	1	-3
642.150	1	-5
642.489	1	4
642.828	1	-9
643.167	1	-10
643.506	1	-11
643.845	1	0
644.184	1	1
644.524	1	4
644.863	1	-4
645.202	1	-6
645.541	1	-5
645.880	1	-4
646.219	1	2
646.558	1	2
646.897	1	2
647.236	1	4
647.575	1	1
647.914	1	-6
648.253	1	8
648.592	1	-5
648.931	1	19
649.270	1	1
649.610	1	-6
649.949	1	4
650.288	1	-6
650.627	1	0
650.966	1	13
651.305	1	5
651.644	1	15
651.983	1	4
652.322	1	-4
652.661	1	-2
653.000	1	-5
653.339	1	3
653.678	1	0
654.017	1	4
654.356	1	1
654.695	1	3
655.034	1	4
655.373	1	11
655.712	1	2
656.051	1	-1
656.390	1	-10
656.729	1	10
657.068	1	1
657.406	1	4
657.745	1	-3
658.084	1	-8
658.423	1	7
658.762	1	2
659.101	1	5
659.440	1	5
659.779	1	7
660.118	1	5
660.457	1	4
660.796	1	-10
661.135	1	-5
661.474	1	-7
661.813	1	12
662.152	1	4
662.491	1	-5
662.829	1	-11
663.168	1	7
663.507	1	10
663.846	1	4
664.185	1	3
664.524	1	-3
664.863	1	-8
665.202	1	3
665.541	1	-15
665.879	1	-4
666.218	1	-6
666.557	1	-6
666.896	1	-15
667.235	1	1
667.574	1	1
667.913	1	3
668.251	1	-7
668.590	1	-6
668.929	1	-11
669.268	1	0
669.607	1	-2
669.946	1	-3
670.285	1	-1
670.623	1	-2
670.962	1	-9
671.301	1	-3
671.640	1	6
671.979	1	-6
672.317	1	9
672.656	1	-3
672.995	1	9
673.334	1	-2
673.673	1	1
674.011	1	6
674.350	1	2
674.689	1	5
675.028	1	0
675.367	1	6
675.705	1	1
676.044	1	-3
676.383	1	5
676.722	1	-7
677.060	1	-4
677.399	1	-10
677.738	1	2
678.077	1	7
678.416	1	5
678.754	1	-15
679.093	1	4
679.432	1	-3
679.771	1	4
680.109	1	15
680.448	1	-5
680.787	1	-7
681.125	1	5
681.464	1	-2
681.803	1	-10
682.142	1	3
682.480	1	9
682.819	1	0
683.158	1	3
683.496	1	1
683.835	1	2
684.174	1	0
684.512	1	2
684.851	1	-1
685.190	1	-5
685.529	1	-4
685.867	1	-2
686.206	1	-11
686.545	1	-4
686.883	1	0
687.222	1	-4
687.561	1	6
687.899	1	1
688.238	1	-3
688.577	1	2
688.746	1	-2