File: Data/GaN_200K_800ms/GaN_sample F_spot 12_UVVIS_200 K_200um_800 ms 2x2mm1_181.txt
340.368	1	3
340.710	1	-2
341.052	1	7
341.394	1	-3
341.737	1	3
342.079	1	-3
342.421	1	0
342.763	1	6
343.105	1	1
343.447	1	0
343.789	1	2
344.131	1	3
344.473	1	-6
344.815	1	-4
345.157	1	4
345.499	1	3
345.841	1	5
346.183	1	-2
346.526	1	-4
346.868	1	-4
347.210	1	0
347.552	1	0
347.894	1	4
348.236	1	8
348.578	1	3
348.920	1	2
349.262	1	3
349.604	1	3
349.946	1	-7
350.288	1	9
350.630	1	3
350.972	1	9
351.314	1	3
351.656	1	-1
351.998	1	4
352.340	1	7
352.682	1	10
353.024	1	-1
353.366	1	5
353.708	1	3
354.050	1	0
354.392	1	3
354.734	1	6
355.076	1	4
355.418	1	-5
355.760	1	5
356.102	1	10
356.444	1	2
356.785	1	15
357.127	1	5
357.469	1	8
357.811	1	6
358.153	1	9
358.495	1	10
358.837	1	0
359.179	1	3
359.521	1	6
359.863	1	7
360.205	1	-1
360.547	1	12
360.889	1	3
361.231	1	7
361.572	1	12
361.914	1	12
362.256	1	14
362.598	1	4
362.940	1	11
363.282	1	17
363.624	1	18
363.966	1	6
364.308	1	19
364.649	1	19
364.991	1	28
365.333	1	17
365.675	1	22
366.017	1	30
366.359	1	22
366.701	1	20
367.042	1	24
367.384	1	40
367.726	1	29
368.068	1	46
368.410	1	48
368.752	1	31
369.093	1	29
369.435	1	39
369.777	1	36
370.119	1	41
370.461	1	48
370.803	1	48
371.144	1	32
371.486	1	46
371.828	1	41
372.170	1	37
372.512	1	27
372.853	1	27
373.195	1	34
373.537	1	35
373.879	1	27
374.220	1	37
374.562	1	25
374.904	1	24
375.246	1	29
375.588	1	27
375.929	1	21
376.271	1	34
376.613	1	24
376.955	1	14
377.296	1	13
377.638	1	23
377.980	1	22
378.321	1	3
378.663	1	4
379.005	1	19
379.347	1	18
379.688	1	19
380.030	1	10
380.372	1	9
380.714	1	16
381.055	1	8
381.397	1	12
381.739	1	23
382.080	1	14
382.422	1	14
382.764	1	6
383.105	1	0
383.447	1	-1
383.789	1	11
384.130	1	8
384.472	1	1
384.814	1	3
385.156	1	-1
385.497	1	7
385.839	1	7
386.180	1	2
386.522	1	14
386.864	1	12
387.205	1	-3
387.547	1	6
387.889	1	4
388.230	1	15
388.572	1	7
388.914	1	-1
389.255	1	3
389.597	1	4
389.939	1	3
390.280	1	1
390.622	1	6
390.963	1	10
391.305	1	2
391.647	1	5
391.988	1	13
392.330	1	5
392.671	1	-3
393.013	1	-9
393.355	1	13
393.696	1	9
394.038	1	10
394.379	1	6
394.721	1	-3
395.062	1	4
395.404	1	6
395.746	1	6
396.087	1	2
396.429	1	13
396.770	1	-5
397.112	1	12
397.453	1	12
397.795	1	9
398.136	1	-6
398.478	1	5
398.819	1	7
399.161	1	15
399.503	1	7
399.844	1	10
400.186	1	-3
400.527	1	2
400.869	1	-5
401.210	1	14
401.552	1	-5
401.893	1	0
402.235	1	7
402.576	1	-6
402.918	1	3
403.259	1	5
403.601	1	-3
403.942	1	12
404.284	1	7
404.625	1	11
404.967	1	0
405.308	1	9
405.649	1	-1
405.991	1	1
406.332	1	4
406.674	1	-9
407.015	1	3
407.357	1	4
407.698	1	14
408.040	1	-4
408.381	1	6
408.722	1	-12
409.064	1	5
409.405	1	9
409.747	1	2
410.088	1	-1
410.430	1	11
410.771	1	4
411.112	1	-2
411.454	1	-3
411.795	1	-6
412.137	1	8
412.478	1	14
412.819	1	0
413.161	1	1
413.502	1	1
413.844	1	-4
414.185	1	14
414.526	1	2
414.868	1	10
415.209	1	0
415.550	1	2
415.892	1	4
416.233	1	7
416.575	1	10
416.916	1	-6
417.257	1	4
417.599	1	-2
417.940	1	16
418.281	1	1
418.623	1	2
418.964	1	-10
419.305	1	9
419.647	1	-8
419.988	1	-1
420.329	1	-6
420.671	1	4
421.012	1	7
421.353	1	-4
421.695	1	-2
422.036	1	1
422.377	1	-9
422.718	1	3
423.060	1	-6
423.401	1	1
423.742	1	7
424.084	1	6
424.425	1	4
424.766	1	3
425.107	1	-8
425.449	1	2
425.790	1	-19
426.131	1	2
426.472	1	2
426.814	1	-2
427.155	1	-7
427.496	1	-3
427.837	1	-3
428.179	1	-6
428.520	1	-7
428.861	1	-2
429.202	1	-1
429.544	1	1
429.885	1	4
430.226	1	-6
430.567	1	11
430.909	1	3
431.250	1	-2
431.591	1	2
431.932	1	4
432.273	1	8
432.615	1	-9
432.956	1	-14
433.297	1	9
433.638	1	-7
433.979	1	2
434.320	1	2
434.662	1	3
435.003	1	6
435.344	1	-3
435.685	1	0
436.026	1	12
436.368	1	8
436.709	1	0
437.050	1	8
437.391	1	9
437.732	1	-4
438.073	1	2
438.414	1	-4
438.756	1	-6
439.097	1	-10
439.438	1	1
439.779	1	5
440.120	1	3
440.461	1	7
440.802	1	-3
441.143	1	9
441.485	1	-4
441.826	1	-5
442.167	1	-3
442.508	1	2
442.849	1	6
443.190	1	5
443.531	1	5
443.872	1	6
444.213	1	-1
444.554	1	3
444.895	1	0
445.237	1	-7
445.578	1	0
445.919	1	-5
446.260	1	-13
446.601	1	7
446.942	1	-1
447.283	1	-10
447.624	1	-1
447.965	1	3
448.306	1	-3
448.647	1	-6
448.988	1	-2
449.329	1	0
449.670	1	10
450.011	1	0
450.352	1	-8
450.693	1	-20
451.034	1	-7
451.375	1	9
451.716	1	0
452.057	1	1
452.398	1	-5
452.739	1	9
453.080	1	2
453.421	1	1
453.762	1	7
454.103	1	3
454.444	1	-11
454.785	1	-3
455.126	1	0
455.467	1	4
455.808	1	-2
456.149	1	5
456.490	1	1
456.831	1	0
457.172	1	-2
457.513	1	-2
457.854	1	1
458.195	1	-11
458.536	1	7
458.877	1	-3
459.218	1	-1
459.559	1	9
459.899	1	-6
460.240	1	8
460.581	1	13
460.922	1	5
461.263	1	-1
461.604	1	-4
461.945	1	-4
462.286	1	3
462.627	1	4
462.968	1	0
463.309	1	0
463.649	1	10
463.990	1	-1
464.331	1	-6
464.672	1	5
465.013	1	-7
465.354	1	2
465.695	1	-5
466.036	1	-6
466.376	1	-5
466.717	1	5
467.058	1	10
467.399	1	5
467.740	1	-4
468.081	1	-4
468.422	1	-6
468.762	1	-8
469.103	1	-3
469.444	1	-4
469.785	1	-11
470.126	1	4
470.467	1	-4
470.807	1	5
471.148	1	5
471.489	1	3
471.830	1	-2
472.171	1	1
472.511	1	1
472.852	1	2
473.193	1	9
473.534	1	9
473.875	1	18
474.215	1	6
474.556	1	-2
474.897	1	13
475.238	1	-4
475.578	1	-9
475.919	1	-6
476.260	1	2
476.601	1	3
476.942	1	8
477.282	1	0
477.623	1	-6
477.964	1	-8
478.305	1	-1
478.645	1	9
478.986	1	-2
479.327	1	-10
479.667	1	3
480.008	1	-9
480.349	1	-6
480.690	1	-3
481.030	1	-11
481.371	1	11
481.712	1	0
482.053	1	-4
482.393	1	-1
482.734	1	-8
483.075	1	-5
483.415	1	3
483.756	1	12
484.097	1	-3
484.437	1	-2
484.778	1	7
485.119	1	-1
485.459	1	16
485.800	1	1
486.141	1	-3
486.481	1	-1
486.822	1	9
487.163	1	-4
487.503	1	-4
487.844	1	1
488.185	1	3
488.525	1	11
488.866	1	7
489.207	1	0
489.547	1	-3
489.888	1	2
490.228	1	0
490.569	1	9
490.910	1	4
491.250	1	-1
491.591	1	-3
491.932	1	-4
492.272	1	2
492.613	1	-4
492.953	1	-2
493.294	1	0
493.635	1	1
493.975	1	5
494.316	1	7
494.656	1	0
494.997	1	-7
495.337	1	12
495.678	1	-7
496.019	1	-8
496.359	1	-9
496.700	1	-1
497.040	1	6
497.381	1	-4
497.721	1	6
498.062	1	-3
498.403	1	-2
498.743	1	-2
499.084	1	-6
499.424	1	3
499.765	1	1
500.105	1	-5
500.446	1	-15
500.786	1	-4
501.127	1	-3
501.467	1	-1
501.808	1	3
502.148	1	3
502.489	1	4
502.829	1	0
503.170	1	16
503.510	1	6
503.851	1	0
504.191	1	6
504.532	1	10
504.872	1	1
505.213	1	4
505.553	1	-5
505.894	1	-9
506.234	1	8
506.575	1	8
506.915	1	14
507.256	1	10
507.596	1	4
507.936	1	-3
508.277	1	-1
508.617	1	6
508.958	1	-5
509.298	1	1
509.639	1	0
509.979	1	0
510.319	1	7
510.660	1	-3
511.000	1	6
511.341	1	-1
511.681	1	2
512.022	1	-4
512.362	1	6
512.702	1	5
513.043	1	7
513.383	1	-9
513.724	1	5
514.064	1	15
514.404	1	1
514.745	1	-9
515.085	1	4
515.425	1	-2
515.766	1	-2
516.106	1	7
516.447	1	12
516.787	1	6
517.127	1	5
517.468	1	3
517.808	1	-7
518.148	1	4
518.489	1	-2
518.829	1	7
519.169	1	-2
519.510	1	1
519.850	1	-7
520.190	1	4
520.531	1	5
520.871	1	1
521.211	1	-10
521.552	1	17
521.892	1	0
522.232	1	10
522.573	1	6
522.913	1	5
523.253	1	1
523.593	1	-3
523.934	1	4
524.274	1	0
524.614	1	-1
524.955	1	-3
525.295	1	4
525.635	1	-1
525.975	1	11
526.316	1	18
526.656	1	11
526.996	1	12
527.337	1	0
527.677	1	3
528.017	1	-2
528.357	1	-3
528.698	1	4
529.038	1	3
529.378	1	6
529.718	1	6
530.058	1	-1
530.399	1	14
530.739	1	6
531.079	1	9
531.419	1	5
531.760	1	-1
532.100	1	2
532.440	1	2
532.780	1	-1
533.120	1	17
533.461	1	7
533.801	1	7
534.141	1	0
534.481	1	-3
534.821	1	10
535.162	1	5
535.502	1	-11
535.842	1	16
536.182	1	-6
536.522	1	-1
536.862	1	12
537.203	1	-3
537.543	1	-1
537.883	1	4
538.223	1	5
538.563	1	18
538.903	1	-5
539.243	1	5
539.584	1	6
539.924	1	12
540.264	1	2
540.604	1	12
540.944	1	5
541.284	1	10
541.624	1	5
541.964	1	11
542.305	1	8
542.645	1	7
542.985	1	5
543.325	1	2
543.665	1	4
544.005	1	16
544.345	1	3
544.685	1	1
545.025	1	6
545.365	1	1
545.705	1	4
546.045	1	-1
546.386	1	4
546.726	1	-13
547.066	1	11
547.406	1	4
547.746	1	-3
548.086	1	-4
548.426	1	2
548.766	1	4
549.106	1	4
549.446	1	6
549.786	1	-3
550.126	1	17
550.466	1	5
550.806	1	7
551.146	1	0
551.486	1	-3
551.826	1	6
552.166	1	4
552.506	1	4
552.846	1	-1
553.186	1	7
553.526	1	-9
553.866	1	4
554.206	1	13
554.546	1	10
554.886	1	9
555.226	1	-1
555.566	1	7
555.906	1	3
556.246	1	6
556.586	1	5
556.926	1	2
557.266	1	-1
557.606	1	9
557.946	1	15
558.286	1	-2
558.626	1	5
558.966	1	1
559.306	1	7
559.646	1	1
559.986	1	0
560.325	1	3
560.665	1	2
561.005	1	3
561.345	1	3
561.685	1	2
562.025	1	5
562.365	1	9
562.705	1	-3
563.045	1	-7
563.385	1	-6
563.725	1	1
564.064	1	12
564.404	1	8
564.744	1	5
565.084	1	1
565.424	1	6
565.764	1	1
566.104	1	-3
566.444	1	0
566.783	1	-5
567.123	1	3
567.463	1	5
567.803	1	-6
568.143	1	-5
568.483	1	6
568.823	1	2
569.162	1	12
569.502	1	-1
569.842	1	10
570.182	1	7
570.522	1	-2
570.862	1	3
571.201	1	5
571.541	1	2
571.881	1	10
572.221	1	1
572.561	1	1
572.900	1	-10
573.240	1	7
573.580	1	3
573.920	1	11
574.260	1	15
574.599	1	5
574.939	1	5
575.279	1	18
575.619	1	9
575.959	1	0
576.298	1	8
576.638	1	-4
576.978	1	11
577.318	1	8
577.657	1	-2
577.997	1	4
578.337	1	13
578.677	1	9
579.016	1	9
579.356	1	-1
579.696	1	8
580.036	1	0
580.375	1	5
580.715	1	-6
581.055	1	5
581.394	1	-4
581.734	1	-5
582.074	1	2
582.414	1	12
582.753	1	5
583.093	1	-2
583.433	1	2
583.772	1	14
584.112	1	-5
584.452	1	6
584.791	1	-3
585.131	1	12
585.471	1	5
585.811	1	-3
586.150	1	-1
586.490	1	6
586.830	1	-4
587.169	1	7
587.509	1	9
587.849	1	9
588.188	1	10
588.528	1	6
588.867	1	12
589.207	1	7
589.547	1	-5
589.886	1	1
590.226	1	6
590.566	1	3
590.905	1	8
591.245	1	-2
591.585	1	4
591.924	1	8
592.264	1	20
592.603	1	2
592.943	1	7
593.283	1	-2
593.622	1	11
593.962	1	11
594.301	1	9
594.641	1	1
594.981	1	-15
595.320	1	2
595.660	1	-6
595.999	1	-4
596.339	1	2
596.678	1	-5
597.018	1	1
597.358	1	7
597.697	1	4
598.037	1	9
598.376	1	5
598.716	1	4
599.055	1	8
599.395	1	-2
599.734	1	5
600.074	1	1
600.413	1	2
600.753	1	7
601.092	1	10
601.432	1	7
601.771	1	10
602.111	1	5
602.451	1	8
602.790	1	2
603.130	1	4
603.469	1	4
603.809	1	2
604.148	1	2
604.487	1	5
604.827	1	2
605.166	1	5
605.506	1	2
605.845	1	7
606.185	1	9
606.524	1	8
606.864	1	5
607.203	1	0
607.543	1	-3
607.882	1	12
608.222	1	5
608.561	1	4
608.901	1	4
609.240	1	-5
609.579	1	8
609.919	1	9
610.258	1	13
610.598	1	6
610.937	1	5
611.277	1	-1
611.616	1	-2
611.955	1	6
612.295	1	-5
612.634	1	4
612.974	1	-6
613.313	1	7
613.652	1	2
613.992	1	-2
614.331	1	0
614.671	1	9
615.010	1	-4
615.349	1	11
615.689	1	6
616.028	1	1
616.368	1	7
616.707	1	14
617.046	1	-2
617.386	1	7
617.725	1	1
618.064	1	-4
618.404	1	2
618.743	1	7
619.082	1	8
619.422	1	-5
619.761	1	6
620.100	1	1
620.440	1	5
620.779	1	-5
621.118	1	6
621.458	1	3
621.797	1	-8
622.136	1	6
622.476	1	1
622.815	1	7
623.154	1	7
623.494	1	5
623.833	1	6
624.172	1	8
624.511	1	2
624.851	1	-5
625.190	1	2
625.529	1	3
625.869	1	7
626.208	1	4
626.547	1	-1
626.886	1	10
627.226	1	9
627.565	1	-2
627.904	1	0
628.243	1	-7
628.583	1	-1
628.922	1	3
629.261	1	2
629.600	1	14
629.940	1	2
630.279	1	-4
630.618	1	1
630.957	1	2
631.297	1	6
631.636	1	2
631.975	1	10
632.314	1	-2
632.653	1	11
632.993	1	6
633.332	1	7
633.671	1	6
634.010	1	-5
634.349	1	1
634.689	1	8
635.028	1	3
635.367	1	1
635.706	1	6
636.045	1	11
636.384	1	3
636.724	1	4
637.063	1	-6
637.402	1	-2
637.741	1	6
638.080	1	-3
638.419	1	3
638.759	1	-6
639.098	1	3
639.437	1	12
639.776	1	-2
640.115	1	-2
640.454	1	-4
640.793	1	5
641.132	1	4
641.472	1	9
641.811	1	-4
642.150	1	1
642.489	1	7
642.828	1	-11
643.167	1	-11
643.506	1	1
643.845	1	4
644.184	1	7
644.524	1	4
644.863	1	-14
645.202	1	5
645.541	1	3
645.880	1	6
646.219	1	-1
646.558	1	6
646.897	1	1
647.236	1	3
647.575	1	6
647.914	1	2
648.253	1	3
648.592	1	1
648.931	1	16
649.270	1	-5
649.610	1	-6
649.949	1	-6
650.288	1	12
650.627	1	-8
650.966	1	10
651.305	1	5
651.644	1	7
651.983	1	8
652.322	1	-3
652.661	1	4
653.000	1	1
653.339	1	1
653.678	1	9
654.017	1	1
654.356	1	-2
654.695	1	11
655.034	1	0
655.373	1	17
655.712	1	6
656.051	1	-7
656.390	1	-10
656.729	1	14
657.068	1	3
657.406	1	1
657.745	1	-1
658.084	1	1
658.423	1	9
658.762	1	-4
659.101	1	6
659.440	1	1
659.779	1	-1
660.118	1	2
660.457	1	-7
660.796	1	-6
661.135	1	-8
661.474	1	-4
661.813	1	5
662.152	1	-3
662.491	1	-6
662.829	1	-3
663.168	1	7
663.507	1	7
663.846	1	3
664.185	1	0
664.524	1	8
664.863	1	-2
665.202	1	1
665.541	1	-11
665.879	1	-5
666.218	1	-3
666.557	1	2
666.896	1	-5
667.235	1	8
667.574	1	2
667.913	1	6
668.251	1	-4
668.590	1	-11
668.929	1	-6
669.268	1	0
669.607	1	-3
669.946	1	-5
670.285	1	4
670.623	1	1
670.962	1	6
671.301	1	1
671.640	1	-4
671.979	1	2
672.317	1	4
672.656	1	-1
672.995	1	11
673.334	1	-8
673.673	1	2
674.011	1	4
674.350	1	6
674.689	1	15
675.028	1	1
675.367	1	9
675.705	1	5
676.044	1	-5
676.383	1	-2
676.722	1	7
677.060	1	-4
677.399	1	0
677.738	1	8
678.077	1	7
678.416	1	2
678.754	1	7
679.093	1	1
679.432	1	-9
679.771	1	1
680.109	1	0
680.448	1	4
680.787	1	0
681.125	1	3
681.464	1	-2
681.803	1	0
682.142	1	6
682.480	1	15
682.819	1	1
683.158	1	0
683.496	1	3
683.835	1	-1
684.174	1	3
684.512	1	4
684.851	1	-3
685.190	1	-9
685.529	1	-12
685.867	1	0
686.206	1	-2
686.545	1	-4
686.883	1	0
687.222	1	3
687.561	1	5
687.899	1	7
688.238	1	3
688.577	1	-4
688.746	1	2