File: Data/GaN_200K_800ms/GaN_sample F_spot 12_UVVIS_200 K_200um_800 ms 2x2mm1_260.txt
340.368	1	10
340.710	1	-14
341.052	1	9
341.394	1	-9
341.737	1	5
342.079	1	3
342.421	1	-1
342.763	1	9
343.105	1	-6
343.447	1	-8
343.789	1	-4
344.131	1	-1
344.473	1	-2
344.815	1	-3
345.157	1	-1
345.499	1	5
345.841	1	13
346.183	1	-10
346.526	1	0
346.868	1	3
347.210	1	-6
347.552	1	-5
347.894	1	7
348.236	1	12
348.578	1	3
348.920	1	-6
349.262	1	-2
349.604	1	-3
349.946	1	-8
350.288	1	13
350.630	1	12
350.972	1	-5
351.314	1	4
351.656	1	4
351.998	1	2
352.340	1	0
352.682	1	4
353.024	1	6
353.366	1	15
353.708	1	2
354.050	1	-5
354.392	1	-9
354.734	1	8
355.076	1	10
355.418	1	-3
355.760	1	-2
356.102	1	16
356.444	1	2
356.785	1	12
357.127	1	6
357.469	1	9
357.811	1	0
358.153	1	2
358.495	1	-1
358.837	1	-3
359.179	1	-1
359.521	1	2
359.863	1	-2
360.205	1	-10
360.547	1	8
360.889	1	-1
361.231	1	-1
361.572	1	15
361.914	1	8
362.256	1	1
362.598	1	-3
362.940	1	7
363.282	1	13
363.624	1	10
363.966	1	15
364.308	1	5
364.649	1	6
364.991	1	15
365.333	1	16
365.675	1	10
366.017	1	14
366.359	1	18
366.701	1	10
367.042	1	14
367.384	1	14
367.726	1	21
368.068	1	22
368.410	1	34
368.752	1	13
369.093	1	14
369.435	1	25
369.777	1	9
370.119	1	19
370.461	1	34
370.803	1	12
371.144	1	31
371.486	1	21
371.828	1	27
372.170	1	27
372.512	1	11
372.853	1	22
373.195	1	7
373.537	1	11
373.879	1	14
374.220	1	19
374.562	1	17
374.904	1	6
375.246	1	15
375.588	1	14
375.929	1	21
376.271	1	19
376.613	1	13
376.955	1	13
377.296	1	5
377.638	1	16
377.980	1	8
378.321	1	5
378.663	1	4
379.005	1	14
379.347	1	15
379.688	1	12
380.030	1	3
380.372	1	2
380.714	1	6
381.055	1	12
381.397	1	8
381.739	1	14
382.080	1	2
382.422	1	-3
382.764	1	-2
383.105	1	1
383.447	1	5
383.789	1	0
384.130	1	-5
384.472	1	-2
384.814	1	0
385.156	1	2
385.497	1	16
385.839	1	-3
386.180	1	4
386.522	1	5
386.864	1	8
387.205	1	3
387.547	1	-6
387.889	1	-1
388.230	1	10
388.572	1	-1
388.914	1	-4
389.255	1	6
389.597	1	3
389.939	1	7
390.280	1	-6
390.622	1	0
390.963	1	10
391.305	1	3
391.647	1	11
391.988	1	9
392.330	1	13
392.671	1	-10
393.013	1	-8
393.355	1	9
393.696	1	10
394.038	1	0
394.379	1	8
394.721	1	-8
395.062	1	4
395.404	1	-3
395.746	1	9
396.087	1	-4
396.429	1	1
396.770	1	3
397.112	1	13
397.453	1	11
397.795	1	8
398.136	1	-7
398.478	1	1
398.819	1	2
399.161	1	14
399.503	1	5
399.844	1	-9
400.186	1	6
400.527	1	-5
400.869	1	3
401.210	1	1
401.552	1	-7
401.893	1	-7
402.235	1	-1
402.576	1	1
402.918	1	1
403.259	1	8
403.601	1	2
403.942	1	6
404.284	1	10
404.625	1	14
404.967	1	2
405.308	1	6
405.649	1	-4
405.991	1	-5
406.332	1	5
406.674	1	8
407.015	1	9
407.357	1	-3
407.698	1	7
408.040	1	0
408.381	1	13
408.722	1	-13
409.064	1	1
409.405	1	-1
409.747	1	5
410.088	1	9
410.430	1	6
410.771	1	-4
411.112	1	-5
411.454	1	-2
411.795	1	-4
412.137	1	11
412.478	1	4
412.819	1	-5
413.161	1	1
413.502	1	1
413.844	1	8
414.185	1	7
414.526	1	-1
414.868	1	3
415.209	1	-2
415.550	1	-3
415.892	1	3
416.233	1	9
416.575	1	9
416.916	1	-9
417.257	1	6
417.599	1	0
417.940	1	8
418.281	1	4
418.623	1	-2
418.964	1	-11
419.305	1	-2
419.647	1	0
419.988	1	1
420.329	1	-1
420.671	1	6
421.012	1	-5
421.353	1	-1
421.695	1	-2
422.036	1	-1
422.377	1	1
422.718	1	3
423.060	1	-6
423.401	1	-11
423.742	1	-2
424.084	1	2
424.425	1	-5
424.766	1	2
425.107	1	-7
425.449	1	2
425.790	1	-3
426.131	1	5
426.472	1	3
426.814	1	8
427.155	1	-6
427.496	1	-7
427.837	1	-6
428.179	1	-11
428.520	1	4
428.861	1	-5
429.202	1	4
429.544	1	-5
429.885	1	6
430.226	1	-14
430.567	1	-2
430.909	1	5
431.250	1	-4
431.591	1	-3
431.932	1	1
432.273	1	4
432.615	1	-6
432.956	1	-7
433.297	1	0
433.638	1	6
433.979	1	3
434.320	1	11
434.662	1	5
435.003	1	2
435.344	1	4
435.685	1	-3
436.026	1	11
436.368	1	7
436.709	1	8
437.050	1	-3
437.391	1	7
437.732	1	-12
438.073	1	-3
438.414	1	-18
438.756	1	-1
439.097	1	-4
439.438	1	0
439.779	1	-2
440.120	1	8
440.461	1	-3
440.802	1	-2
441.143	1	10
441.485	1	9
441.826	1	4
442.167	1	2
442.508	1	-6
442.849	1	7
443.190	1	0
443.531	1	2
443.872	1	7
444.213	1	5
444.554	1	11
444.895	1	-2
445.237	1	-1
445.578	1	-14
445.919	1	-7
446.260	1	-4
446.601	1	-4
446.942	1	-1
447.283	1	-11
447.624	1	0
447.965	1	3
448.306	1	-4
448.647	1	-6
448.988	1	1
449.329	1	-2
449.670	1	12
450.011	1	15
450.352	1	-4
450.693	1	-1
451.034	1	-10
451.375	1	7
451.716	1	-2
452.057	1	-4
452.398	1	-4
452.739	1	9
453.080	1	1
453.421	1	3
453.762	1	3
454.103	1	3
454.444	1	-10
454.785	1	-7
455.126	1	-5
455.467	1	0
455.808	1	4
456.149	1	5
456.490	1	2
456.831	1	5
457.172	1	-4
457.513	1	-8
457.854	1	1
458.195	1	-7
458.536	1	-1
458.877	1	4
459.218	1	2
459.559	1	7
459.899	1	0
460.240	1	1
460.581	1	15
460.922	1	1
461.263	1	-5
461.604	1	-9
461.945	1	-6
462.286	1	-7
462.627	1	11
462.968	1	7
463.309	1	-14
463.649	1	0
463.990	1	-3
464.331	1	4
464.672	1	-4
465.013	1	-7
465.354	1	-9
465.695	1	-11
466.036	1	-11
466.376	1	-5
466.717	1	-7
467.058	1	-7
467.399	1	15
467.740	1	-6
468.081	1	2
468.422	1	4
468.762	1	-8
469.103	1	-8
469.444	1	-8
469.785	1	-8
470.126	1	-5
470.467	1	-1
470.807	1	0
471.148	1	-1
471.489	1	1
471.830	1	-1
472.171	1	10
472.511	1	-11
472.852	1	-1
473.193	1	0
473.534	1	10
473.875	1	13
474.215	1	0
474.556	1	-2
474.897	1	4
475.238	1	1
475.578	1	-9
475.919	1	-1
476.260	1	-4
476.601	1	-10
476.942	1	3
477.282	1	1
477.623	1	-10
477.964	1	3
478.305	1	-2
478.645	1	10
478.986	1	3
479.327	1	-4
479.667	1	6
480.008	1	7
480.349	1	-4
480.690	1	0
481.030	1	-4
481.371	1	-1
481.712	1	-5
482.053	1	8
482.393	1	1
482.734	1	-4
483.075	1	-3
483.415	1	5
483.756	1	13
484.097	1	-5
484.437	1	-2
484.778	1	2
485.119	1	-11
485.459	1	16
485.800	1	-4
486.141	1	-5
486.481	1	-5
486.822	1	2
487.163	1	-2
487.503	1	3
487.844	1	-2
488.185	1	1
488.525	1	-6
488.866	1	11
489.207	1	2
489.547	1	-5
489.888	1	3
490.228	1	2
490.569	1	5
490.910	1	0
491.250	1	-11
491.591	1	0
491.932	1	-3
492.272	1	1
492.613	1	-7
492.953	1	3
493.294	1	-6
493.635	1	7
493.975	1	-4
494.316	1	-1
494.656	1	-2
494.997	1	-3
495.337	1	7
495.678	1	-1
496.019	1	-4
496.359	1	-2
496.700	1	-3
497.040	1	-9
497.381	1	4
497.721	1	3
498.062	1	1
498.403	1	6
498.743	1	-2
499.084	1	-5
499.424	1	3
499.765	1	4
500.105	1	-4
500.446	1	-7
500.786	1	-4
501.127	1	3
501.467	1	-3
501.808	1	4
502.148	1	-1
502.489	1	0
502.829	1	3
503.170	1	9
503.510	1	1
503.851	1	-5
504.191	1	10
504.532	1	1
504.872	1	3
505.213	1	5
505.553	1	-6
505.894	1	-7
506.234	1	0
506.575	1	3
506.915	1	7
507.256	1	8
507.596	1	2
507.936	1	-1
508.277	1	-3
508.617	1	-2
508.958	1	0
509.298	1	11
509.639	1	-8
509.979	1	-4
510.319	1	3
510.660	1	4
511.000	1	-9
511.341	1	5
511.681	1	7
512.022	1	-5
512.362	1	-11
512.702	1	-5
513.043	1	9
513.383	1	-12
513.724	1	3
514.064	1	8
514.404	1	-7
514.745	1	-3
515.085	1	-3
515.425	1	0
515.766	1	-8
516.106	1	1
516.447	1	12
516.787	1	9
517.127	1	-15
517.468	1	4
517.808	1	-5
518.148	1	1
518.489	1	-4
518.829	1	8
519.169	1	-1
519.510	1	2
519.850	1	4
520.190	1	-3
520.531	1	3
520.871	1	4
521.211	1	-8
521.552	1	12
521.892	1	2
522.232	1	2
522.573	1	2
522.913	1	7
523.253	1	0
523.593	1	-2
523.934	1	3
524.274	1	6
524.614	1	0
524.955	1	-11
525.295	1	6
525.635	1	1
525.975	1	2
526.316	1	11
526.656	1	-2
526.996	1	7
527.337	1	-1
527.677	1	2
528.017	1	-6
528.357	1	-3
528.698	1	-3
529.038	1	8
529.378	1	4
529.718	1	8
530.058	1	5
530.399	1	3
530.739	1	5
531.079	1	7
531.419	1	11
531.760	1	-2
532.100	1	-1
532.440	1	1
532.780	1	2
533.120	1	11
533.461	1	4
533.801	1	16
534.141	1	-8
534.481	1	-12
534.821	1	0
535.162	1	-5
535.502	1	0
535.842	1	7
536.182	1	-2
536.522	1	-6
536.862	1	3
537.203	1	-2
537.543	1	10
537.883	1	10
538.223	1	1
538.563	1	11
538.903	1	0
539.243	1	-1
539.584	1	0
539.924	1	10
540.264	1	-9
540.604	1	-1
540.944	1	-3
541.284	1	9
541.624	1	3
541.964	1	9
542.305	1	1
542.645	1	3
542.985	1	7
543.325	1	9
543.665	1	7
544.005	1	7
544.345	1	7
544.685	1	-3
545.025	1	5
545.365	1	0
545.705	1	4
546.045	1	-2
546.386	1	6
546.726	1	-10
547.066	1	4
547.406	1	6
547.746	1	-11
548.086	1	9
548.426	1	-5
548.766	1	-5
549.106	1	-7
549.446	1	-4
549.786	1	-3
550.126	1	8
550.466	1	9
550.806	1	-3
551.146	1	-6
551.486	1	-3
551.826	1	1
552.166	1	4
552.506	1	2
552.846	1	5
553.186	1	7
553.526	1	7
553.866	1	1
554.206	1	9
554.546	1	3
554.886	1	9
555.226	1	-3
555.566	1	1
555.906	1	10
556.246	1	7
556.586	1	2
556.926	1	14
557.266	1	1
557.606	1	1
557.946	1	15
558.286	1	13
558.626	1	6
558.966	1	-2
559.306	1	-2
559.646	1	-5
559.986	1	-7
560.325	1	-7
560.665	1	2
561.005	1	-4
561.345	1	0
561.685	1	-1
562.025	1	1
562.365	1	8
562.705	1	-10
563.045	1	0
563.385	1	-4
563.725	1	7
564.064	1	-3
564.404	1	4
564.744	1	-1
565.084	1	7
565.424	1	8
565.764	1	-2
566.104	1	5
566.444	1	0
566.783	1	1
567.123	1	-3
567.463	1	5
567.803	1	-6
568.143	1	5
568.483	1	2
568.823	1	-1
569.162	1	16
569.502	1	-8
569.842	1	10
570.182	1	0
570.522	1	-18
570.862	1	-9
571.201	1	4
571.541	1	2
571.881	1	11
572.221	1	-3
572.561	1	-7
572.900	1	-2
573.240	1	6
573.580	1	2
573.920	1	14
574.260	1	12
574.599	1	-3
574.939	1	3
575.279	1	3
575.619	1	7
575.959	1	-8
576.298	1	9
576.638	1	-12
576.978	1	5
577.318	1	7
577.657	1	-9
577.997	1	0
578.337	1	3
578.677	1	7
579.016	1	12
579.356	1	-7
579.696	1	9
580.036	1	-2
580.375	1	-7
580.715	1	-1
581.055	1	2
581.394	1	-3
581.734	1	-11
582.074	1	-4
582.414	1	7
582.753	1	-3
583.093	1	-3
583.433	1	-2
583.772	1	5
584.112	1	-1
584.452	1	8
584.791	1	0
585.131	1	0
585.471	1	7
585.811	1	0
586.150	1	3
586.490	1	5
586.830	1	-1
587.169	1	2
587.509	1	1
587.849	1	6
588.188	1	4
588.528	1	2
588.867	1	10
589.207	1	1
589.547	1	5
589.886	1	-6
590.226	1	8
590.566	1	-2
590.905	1	-1
591.245	1	-8
591.585	1	12
591.924	1	3
592.264	1	1
592.603	1	7
592.943	1	2
593.283	1	6
593.622	1	3
593.962	1	7
594.301	1	2
594.641	1	-2
594.981	1	-7
595.320	1	1
595.660	1	0
595.999	1	-7
596.339	1	-9
596.678	1	2
597.018	1	-1
597.358	1	-2
597.697	1	4
598.037	1	5
598.376	1	11
598.716	1	13
599.055	1	4
599.395	1	-7
599.734	1	1
600.074	1	-2
600.413	1	10
600.753	1	5
601.092	1	8
601.432	1	-4
601.771	1	6
602.111	1	10
602.451	1	14
602.790	1	-3
603.130	1	10
603.469	1	-8
603.809	1	0
604.148	1	0
604.487	1	-5
604.827	1	1
605.166	1	6
605.506	1	2
605.845	1	0
606.185	1	4
606.524	1	-7
606.864	1	2
607.203	1	-3
607.543	1	-2
607.882	1	8
608.222	1	0
608.561	1	6
608.901	1	3
609.240	1	-7
609.579	1	12
609.919	1	6
610.258	1	12
610.598	1	5
610.937	1	5
611.277	1	-1
611.616	1	2
611.955	1	0
612.295	1	-7
612.634	1	-3
612.974	1	-13
613.313	1	9
613.652	1	4
613.992	1	2
614.331	1	0
614.671	1	9
615.010	1	-10
615.349	1	15
615.689	1	5
616.028	1	4
616.368	1	1
616.707	1	-2
617.046	1	1
617.386	1	0
617.725	1	0
618.064	1	-3
618.404	1	3
618.743	1	-3
619.082	1	3
619.422	1	-5
619.761	1	10
620.100	1	9
620.440	1	0
620.779	1	-7
621.118	1	3
621.458	1	0
621.797	1	-12
622.136	1	9
622.476	1	6
622.815	1	2
623.154	1	12
623.494	1	12
623.833	1	0
624.172	1	-8
624.511	1	-4
624.851	1	-6
625.190	1	5
625.529	1	4
625.869	1	6
626.208	1	-6
626.547	1	5
626.886	1	3
627.226	1	0
627.565	1	0
627.904	1	-1
628.243	1	6
628.583	1	1
628.922	1	3
629.261	1	3
629.600	1	14
629.940	1	10
630.279	1	-12
630.618	1	1
630.957	1	-4
631.297	1	1
631.636	1	-8
631.975	1	6
632.314	1	-4
632.653	1	8
632.993	1	-2
633.332	1	0
633.671	1	1
634.010	1	-7
634.349	1	10
634.689	1	6
635.028	1	2
635.367	1	2
635.706	1	2
636.045	1	4
636.384	1	4
636.724	1	-2
637.063	1	-3
637.402	1	2
637.741	1	-4
638.080	1	-2
638.419	1	-17
638.759	1	-4
639.098	1	11
639.437	1	-2
639.776	1	-9
640.115	1	4
640.454	1	-4
640.793	1	9
641.132	1	6
641.472	1	5
641.811	1	3
642.150	1	-1
642.489	1	5
642.828	1	-7
643.167	1	-8
643.506	1	-8
643.845	1	-8
644.184	1	-1
644.524	1	1
644.863	1	-7
645.202	1	3
645.541	1	0
645.880	1	-2
646.219	1	2
646.558	1	-8
646.897	1	6
647.236	1	1
647.575	1	1
647.914	1	2
648.253	1	5
648.592	1	3
648.931	1	15
649.270	1	8
649.610	1	-4
649.949	1	-5
650.288	1	1
650.627	1	6
650.966	1	3
651.305	1	-9
651.644	1	9
651.983	1	-5
652.322	1	2
652.661	1	7
653.000	1	-5
653.339	1	4
653.678	1	5
654.017	1	2
654.356	1	-4
654.695	1	8
655.034	1	9
655.373	1	8
655.712	1	0
656.051	1	0
656.390	1	-4
656.729	1	14
657.068	1	7
657.406	1	2
657.745	1	0
658.084	1	-1
658.423	1	9
658.762	1	5
659.101	1	9
659.440	1	-5
659.779	1	-3
660.118	1	3
660.457	1	4
660.796	1	-4
661.135	1	-6
661.474	1	4
661.813	1	12
662.152	1	2
662.491	1	-4
662.829	1	-12
663.168	1	3
663.507	1	8
663.846	1	-8
664.185	1	8
664.524	1	-2
664.863	1	-8
665.202	1	8
665.541	1	-10
665.879	1	-8
666.218	1	-2
666.557	1	-5
666.896	1	1
667.235	1	7
667.574	1	-1
667.913	1	4
668.251	1	-2
668.590	1	3
668.929	1	-12
669.268	1	3
669.607	1	0
669.946	1	7
670.285	1	10
670.623	1	0
670.962	1	-7
671.301	1	-5
671.640	1	3
671.979	1	-3
672.317	1	8
672.656	1	-3
672.995	1	5
673.334	1	-6
673.673	1	2
674.011	1	-4
674.350	1	2
674.689	1	0
675.028	1	-6
675.367	1	2
675.705	1	-1
676.044	1	6
676.383	1	8
676.722	1	6
677.060	1	-5
677.399	1	-5
677.738	1	-2
678.077	1	12
678.416	1	-4
678.754	1	-4
679.093	1	6
679.432	1	-3
679.771	1	-3
680.109	1	2
680.448	1	6
680.787	1	-8
681.125	1	4
681.464	1	0
681.803	1	-1
682.142	1	7
682.480	1	6
682.819	1	0
683.158	1	-5
683.496	1	2
683.835	1	-3
684.174	1	-3
684.512	1	12
684.851	1	6
685.190	1	1
685.529	1	1
685.867	1	1
686.206	1	-9
686.545	1	-5
686.883	1	0
687.222	1	1
687.561	1	3
687.899	1	0
688.238	1	0
688.577	1	1
688.746	1	-1