File: Data/GaN_200K_800ms/GaN_sample F_spot 12_UVVIS_200 K_200um_800 ms 2x2mm1_78.txt
340.368	1	0
340.710	1	-12
341.052	1	10
341.394	1	-1
341.737	1	19
342.079	1	-15
342.421	1	1
342.763	1	13
343.105	1	11
343.447	1	-4
343.789	1	2
344.131	1	5
344.473	1	-1
344.815	1	5
345.157	1	-6
345.499	1	7
345.841	1	10
346.183	1	1
346.526	1	-3
346.868	1	15
347.210	1	-9
347.552	1	-5
347.894	1	10
348.236	1	12
348.578	1	9
348.920	1	5
349.262	1	8
349.604	1	8
349.946	1	2
350.288	1	15
350.630	1	5
350.972	1	5
351.314	1	10
351.656	1	13
351.998	1	5
352.340	1	14
352.682	1	13
353.024	1	9
353.366	1	22
353.708	1	8
354.050	1	-1
354.392	1	5
354.734	1	14
355.076	1	14
355.418	1	-1
355.760	1	10
356.102	1	20
356.444	1	16
356.785	1	24
357.127	1	14
357.469	1	20
357.811	1	19
358.153	1	17
358.495	1	22
358.837	1	21
359.179	1	15
359.521	1	33
359.863	1	32
360.205	1	26
360.547	1	32
360.889	1	22
361.231	1	31
361.572	1	38
361.914	1	45
362.256	1	46
362.598	1	32
362.940	1	47
363.282	1	53
363.624	1	59
363.966	1	69
364.308	1	66
364.649	1	74
364.991	1	83
365.333	1	88
365.675	1	83
366.017	1	107
366.359	1	108
366.701	1	102
367.042	1	125
367.384	1	135
367.726	1	126
368.068	1	153
368.410	1	145
368.752	1	137
369.093	1	150
369.435	1	166
369.777	1	160
370.119	1	146
370.461	1	163
370.803	1	143
371.144	1	137
371.486	1	145
371.828	1	131
372.170	1	122
372.512	1	124
372.853	1	116
373.195	1	110
373.537	1	109
373.879	1	102
374.220	1	106
374.562	1	101
374.904	1	96
375.246	1	81
375.588	1	80
375.929	1	88
376.271	1	88
376.613	1	66
376.955	1	59
377.296	1	60
377.638	1	71
377.980	1	63
378.321	1	52
378.663	1	55
379.005	1	65
379.347	1	55
379.688	1	49
380.030	1	41
380.372	1	50
380.714	1	52
381.055	1	50
381.397	1	42
381.739	1	49
382.080	1	37
382.422	1	39
382.764	1	33
383.105	1	39
383.447	1	33
383.789	1	33
384.130	1	30
384.472	1	25
384.814	1	34
385.156	1	24
385.497	1	37
385.839	1	26
386.180	1	25
386.522	1	34
386.864	1	29
387.205	1	18
387.547	1	23
387.889	1	28
388.230	1	25
388.572	1	8
388.914	1	23
389.255	1	14
389.597	1	23
389.939	1	24
390.280	1	7
390.622	1	17
390.963	1	29
391.305	1	10
391.647	1	15
391.988	1	15
392.330	1	21
392.671	1	15
393.013	1	13
393.355	1	18
393.696	1	9
394.038	1	13
394.379	1	10
394.721	1	5
395.062	1	10
395.404	1	7
395.746	1	23
396.087	1	3
396.429	1	9
396.770	1	11
397.112	1	13
397.453	1	18
397.795	1	7
398.136	1	3
398.478	1	6
398.819	1	12
399.161	1	22
399.503	1	11
399.844	1	14
400.186	1	-1
400.527	1	6
400.869	1	9
401.210	1	7
401.552	1	1
401.893	1	15
402.235	1	1
402.576	1	9
402.918	1	15
403.259	1	7
403.601	1	-1
403.942	1	11
404.284	1	11
404.625	1	15
404.967	1	10
405.308	1	17
405.649	1	2
405.991	1	4
406.332	1	17
406.674	1	2
407.015	1	4
407.357	1	3
407.698	1	13
408.040	1	3
408.381	1	12
408.722	1	-12
409.064	1	10
409.405	1	16
409.747	1	4
410.088	1	10
410.430	1	4
410.771	1	7
411.112	1	6
411.454	1	1
411.795	1	4
412.137	1	8
412.478	1	10
412.819	1	2
413.161	1	-4
413.502	1	5
413.844	1	6
414.185	1	15
414.526	1	3
414.868	1	0
415.209	1	5
415.550	1	-1
415.892	1	7
416.233	1	3
416.575	1	13
416.916	1	1
417.257	1	1
417.599	1	2
417.940	1	12
418.281	1	10
418.623	1	1
418.964	1	-7
419.305	1	10
419.647	1	0
419.988	1	7
420.329	1	-6
420.671	1	12
421.012	1	5
421.353	1	-1
421.695	1	3
422.036	1	4
422.377	1	0
422.718	1	11
423.060	1	-6
423.401	1	0
423.742	1	1
424.084	1	3
424.425	1	-2
424.766	1	9
425.107	1	-4
425.449	1	3
425.790	1	-5
426.131	1	8
426.472	1	-1
426.814	1	8
427.155	1	1
427.496	1	2
427.837	1	5
428.179	1	-7
428.520	1	12
428.861	1	-4
429.202	1	-1
429.544	1	3
429.885	1	13
430.226	1	0
430.567	1	8
430.909	1	4
431.250	1	0
431.591	1	9
431.932	1	1
432.273	1	-2
432.615	1	-10
432.956	1	-2
433.297	1	8
433.638	1	-2
433.979	1	8
434.320	1	-2
434.662	1	7
435.003	1	6
435.344	1	6
435.685	1	9
436.026	1	9
436.368	1	10
436.709	1	1
437.050	1	-6
437.391	1	4
437.732	1	-8
438.073	1	4
438.414	1	-3
438.756	1	3
439.097	1	-2
439.438	1	3
439.779	1	0
440.120	1	1
440.461	1	10
440.802	1	2
441.143	1	8
441.485	1	-5
441.826	1	5
442.167	1	11
442.508	1	2
442.849	1	8
443.190	1	6
443.531	1	11
443.872	1	14
444.213	1	9
444.554	1	13
444.895	1	1
445.237	1	-1
445.578	1	-7
445.919	1	-5
446.260	1	3
446.601	1	0
446.942	1	13
447.283	1	0
447.624	1	9
447.965	1	7
448.306	1	0
448.647	1	-8
448.988	1	1
449.329	1	0
449.670	1	15
450.011	1	6
450.352	1	-1
450.693	1	-2
451.034	1	-2
451.375	1	7
451.716	1	0
452.057	1	11
452.398	1	9
452.739	1	3
453.080	1	0
453.421	1	-1
453.762	1	9
454.103	1	-2
454.444	1	-4
454.785	1	0
455.126	1	-2
455.467	1	-1
455.808	1	11
456.149	1	8
456.490	1	-8
456.831	1	11
457.172	1	6
457.513	1	7
457.854	1	6
458.195	1	7
458.536	1	4
458.877	1	8
459.218	1	4
459.559	1	4
459.899	1	-2
460.240	1	-1
460.581	1	18
460.922	1	3
461.263	1	-7
461.604	1	4
461.945	1	3
462.286	1	3
462.627	1	8
462.968	1	4
463.309	1	1
463.649	1	2
463.990	1	0
464.331	1	1
464.672	1	3
465.013	1	0
465.354	1	6
465.695	1	-2
466.036	1	-1
466.376	1	2
466.717	1	-3
467.058	1	4
467.399	1	12
467.740	1	1
468.081	1	4
468.422	1	-2
468.762	1	-2
469.103	1	-2
469.444	1	1
469.785	1	-10
470.126	1	-8
470.467	1	-7
470.807	1	2
471.148	1	4
471.489	1	0
471.830	1	4
472.171	1	7
472.511	1	-2
472.852	1	-5
473.193	1	9
473.534	1	12
473.875	1	18
474.215	1	9
474.556	1	5
474.897	1	13
475.238	1	6
475.578	1	-11
475.919	1	3
476.260	1	-2
476.601	1	0
476.942	1	8
477.282	1	1
477.623	1	-4
477.964	1	1
478.305	1	1
478.645	1	12
478.986	1	2
479.327	1	-9
479.667	1	-4
480.008	1	0
480.349	1	0
480.690	1	8
481.030	1	4
481.371	1	2
481.712	1	2
482.053	1	2
482.393	1	-2
482.734	1	-3
483.075	1	-8
483.415	1	14
483.756	1	15
484.097	1	9
484.437	1	3
484.778	1	10
485.119	1	-8
485.459	1	20
485.800	1	-3
486.141	1	3
486.481	1	4
486.822	1	14
487.163	1	10
487.503	1	7
487.844	1	8
488.185	1	9
488.525	1	8
488.866	1	-1
489.207	1	0
489.547	1	0
489.888	1	9
490.228	1	10
490.569	1	17
490.910	1	-2
491.250	1	0
491.591	1	1
491.932	1	2
492.272	1	3
492.613	1	-1
492.953	1	9
493.294	1	8
493.635	1	4
493.975	1	-5
494.316	1	7
494.656	1	11
494.997	1	11
495.337	1	19
495.678	1	0
496.019	1	4
496.359	1	6
496.700	1	11
497.040	1	0
497.381	1	3
497.721	1	-2
498.062	1	6
498.403	1	19
498.743	1	1
499.084	1	-6
499.424	1	9
499.765	1	5
500.105	1	11
500.446	1	2
500.786	1	0
501.127	1	2
501.467	1	-4
501.808	1	6
502.148	1	4
502.489	1	8
502.829	1	13
503.170	1	5
503.510	1	12
503.851	1	9
504.191	1	13
504.532	1	9
504.872	1	10
505.213	1	9
505.553	1	12
505.894	1	-2
506.234	1	20
506.575	1	9
506.915	1	8
507.256	1	8
507.596	1	10
507.936	1	12
508.277	1	3
508.617	1	5
508.958	1	5
509.298	1	21
509.639	1	0
509.979	1	12
510.319	1	17
510.660	1	12
511.000	1	12
511.341	1	13
511.681	1	17
512.022	1	-2
512.362	1	6
512.702	1	10
513.043	1	15
513.383	1	1
513.724	1	16
514.064	1	17
514.404	1	0
514.745	1	3
515.085	1	21
515.425	1	3
515.766	1	-1
516.106	1	8
516.447	1	23
516.787	1	11
517.127	1	8
517.468	1	7
517.808	1	1
518.148	1	11
518.489	1	4
518.829	1	17
519.169	1	10
519.510	1	5
519.850	1	12
520.190	1	9
520.531	1	12
520.871	1	12
521.211	1	1
521.552	1	23
521.892	1	13
522.232	1	10
522.573	1	13
522.913	1	10
523.253	1	9
523.593	1	11
523.934	1	23
524.274	1	2
524.614	1	7
524.955	1	8
525.295	1	11
525.635	1	4
525.975	1	16
526.316	1	26
526.656	1	9
526.996	1	22
527.337	1	12
527.677	1	9
528.017	1	-1
528.357	1	11
528.698	1	17
529.038	1	17
529.378	1	13
529.718	1	14
530.058	1	9
530.399	1	28
530.739	1	16
531.079	1	20
531.419	1	20
531.760	1	10
532.100	1	9
532.440	1	18
532.780	1	11
533.120	1	25
533.461	1	12
533.801	1	24
534.141	1	0
534.481	1	-2
534.821	1	17
535.162	1	15
535.502	1	10
535.842	1	33
536.182	1	14
536.522	1	10
536.862	1	10
537.203	1	12
537.543	1	5
537.883	1	11
538.223	1	4
538.563	1	14
538.903	1	6
539.243	1	7
539.584	1	13
539.924	1	12
540.264	1	10
540.604	1	12
540.944	1	13
541.284	1	21
541.624	1	25
541.964	1	18
542.305	1	17
542.645	1	18
542.985	1	9
543.325	1	14
543.665	1	28
544.005	1	20
544.345	1	15
544.685	1	8
545.025	1	19
545.365	1	8
545.705	1	8
546.045	1	0
546.386	1	14
546.726	1	16
547.066	1	18
547.406	1	12
547.746	1	8
548.086	1	16
548.426	1	11
548.766	1	6
549.106	1	3
549.446	1	15
549.786	1	4
550.126	1	22
550.466	1	21
550.806	1	12
551.146	1	14
551.486	1	13
551.826	1	18
552.166	1	12
552.506	1	14
552.846	1	28
553.186	1	17
553.526	1	10
553.866	1	28
554.206	1	18
554.546	1	23
554.886	1	19
555.226	1	5
555.566	1	19
555.906	1	16
556.246	1	18
556.586	1	14
556.926	1	22
557.266	1	9
557.606	1	15
557.946	1	27
558.286	1	22
558.626	1	23
558.966	1	14
559.306	1	7
559.646	1	4
559.986	1	12
560.325	1	11
560.665	1	8
561.005	1	13
561.345	1	21
561.685	1	14
562.025	1	9
562.365	1	17
562.705	1	5
563.045	1	5
563.385	1	4
563.725	1	11
564.064	1	7
564.404	1	12
564.744	1	21
565.084	1	9
565.424	1	14
565.764	1	16
566.104	1	17
566.444	1	14
566.783	1	2
567.123	1	13
567.463	1	16
567.803	1	9
568.143	1	6
568.483	1	24
568.823	1	14
569.162	1	20
569.502	1	21
569.842	1	23
570.182	1	11
570.522	1	6
570.862	1	10
571.201	1	11
571.541	1	8
571.881	1	31
572.221	1	1
572.561	1	11
572.900	1	13
573.240	1	18
573.580	1	12
573.920	1	13
574.260	1	26
574.599	1	8
574.939	1	11
575.279	1	21
575.619	1	20
575.959	1	2
576.298	1	19
576.638	1	12
576.978	1	17
577.318	1	14
577.657	1	15
577.997	1	11
578.337	1	26
578.677	1	20
579.016	1	21
579.356	1	5
579.696	1	19
580.036	1	5
580.375	1	10
580.715	1	10
581.055	1	18
581.394	1	3
581.734	1	16
582.074	1	5
582.414	1	19
582.753	1	13
583.093	1	16
583.433	1	14
583.772	1	15
584.112	1	13
584.452	1	17
584.791	1	16
585.131	1	19
585.471	1	16
585.811	1	12
586.150	1	11
586.490	1	15
586.830	1	7
587.169	1	22
587.509	1	13
587.849	1	20
588.188	1	26
588.528	1	20
588.867	1	9
589.207	1	8
589.547	1	15
589.886	1	8
590.226	1	13
590.566	1	13
590.905	1	12
591.245	1	8
591.585	1	19
591.924	1	15
592.264	1	14
592.603	1	12
592.943	1	13
593.283	1	6
593.622	1	6
593.962	1	18
594.301	1	11
594.641	1	17
594.981	1	12
595.320	1	11
595.660	1	8
595.999	1	0
596.339	1	23
596.678	1	15
597.018	1	3
597.358	1	14
597.697	1	0
598.037	1	17
598.376	1	10
598.716	1	15
599.055	1	12
599.395	1	13
599.734	1	10
600.074	1	16
600.413	1	17
600.753	1	6
601.092	1	13
601.432	1	-6
601.771	1	13
602.111	1	6
602.451	1	19
602.790	1	17
603.130	1	12
603.469	1	2
603.809	1	19
604.148	1	17
604.487	1	11
604.827	1	17
605.166	1	12
605.506	1	12
605.845	1	12
606.185	1	19
606.524	1	12
606.864	1	9
607.203	1	13
607.543	1	4
607.882	1	16
608.222	1	11
608.561	1	13
608.901	1	11
609.240	1	8
609.579	1	22
609.919	1	9
610.258	1	14
610.598	1	11
610.937	1	9
611.277	1	9
611.616	1	7
611.955	1	14
612.295	1	1
612.634	1	7
612.974	1	-2
613.313	1	23
613.652	1	9
613.992	1	11
614.331	1	7
614.671	1	13
615.010	1	4
615.349	1	10
615.689	1	20
616.028	1	12
616.368	1	18
616.707	1	13
617.046	1	11
617.386	1	8
617.725	1	4
618.064	1	6
618.404	1	4
618.743	1	10
619.082	1	8
619.422	1	-1
619.761	1	14
620.100	1	13
620.440	1	13
620.779	1	-4
621.118	1	6
621.458	1	14
621.797	1	5
622.136	1	17
622.476	1	6
622.815	1	14
623.154	1	10
623.494	1	19
623.833	1	17
624.172	1	16
624.511	1	9
624.851	1	1
625.190	1	4
625.529	1	6
625.869	1	14
626.208	1	7
626.547	1	5
626.886	1	8
627.226	1	13
627.565	1	15
627.904	1	7
628.243	1	9
628.583	1	4
628.922	1	16
629.261	1	11
629.600	1	13
629.940	1	1
630.279	1	12
630.618	1	-3
630.957	1	5
631.297	1	5
631.636	1	0
631.975	1	26
632.314	1	14
632.653	1	9
632.993	1	5
633.332	1	-1
633.671	1	3
634.010	1	4
634.349	1	14
634.689	1	-1
635.028	1	16
635.367	1	16
635.706	1	-2
636.045	1	13
636.384	1	10
636.724	1	13
637.063	1	6
637.402	1	0
637.741	1	9
638.080	1	4
638.419	1	3
638.759	1	12
639.098	1	8
639.437	1	8
639.776	1	16
640.115	1	6
640.454	1	7
640.793	1	15
641.132	1	17
641.472	1	10
641.811	1	14
642.150	1	-1
642.489	1	12
642.828	1	3
643.167	1	5
643.506	1	2
643.845	1	4
644.184	1	4
644.524	1	7
644.863	1	8
645.202	1	7
645.541	1	7
645.880	1	6
646.219	1	5
646.558	1	12
646.897	1	10
647.236	1	9
647.575	1	10
647.914	1	9
648.253	1	19
648.592	1	0
648.931	1	10
649.270	1	0
649.610	1	5
649.949	1	9
650.288	1	9
650.627	1	3
650.966	1	14
651.305	1	7
651.644	1	17
651.983	1	4
652.322	1	-2
652.661	1	1
653.000	1	-1
653.339	1	18
653.678	1	12
654.017	1	7
654.356	1	2
654.695	1	15
655.034	1	15
655.373	1	8
655.712	1	7
656.051	1	6
656.390	1	-1
656.729	1	16
657.068	1	7
657.406	1	7
657.745	1	0
658.084	1	7
658.423	1	4
658.762	1	8
659.101	1	14
659.440	1	7
659.779	1	14
660.118	1	7
660.457	1	11
660.796	1	-2
661.135	1	-2
661.474	1	-6
661.813	1	12
662.152	1	13
662.491	1	-2
662.829	1	2
663.168	1	9
663.507	1	21
663.846	1	-3
664.185	1	13
664.524	1	7
664.863	1	-1
665.202	1	6
665.541	1	-2
665.879	1	1
666.218	1	-1
666.557	1	-4
666.896	1	-5
667.235	1	15
667.574	1	6
667.913	1	9
668.251	1	-2
668.590	1	9
668.929	1	-4
669.268	1	10
669.607	1	6
669.946	1	5
670.285	1	11
670.623	1	4
670.962	1	4
671.301	1	6
671.640	1	5
671.979	1	-5
672.317	1	3
672.656	1	5
672.995	1	11
673.334	1	2
673.673	1	8
674.011	1	13
674.350	1	5
674.689	1	9
675.028	1	-1
675.367	1	2
675.705	1	13
676.044	1	6
676.383	1	8
676.722	1	5
677.060	1	2
677.399	1	-1
677.738	1	10
678.077	1	10
678.416	1	11
678.754	1	4
679.093	1	16
679.432	1	3
679.771	1	0
680.109	1	19
680.448	1	-1
680.787	1	1
681.125	1	3
681.464	1	1
681.803	1	7
682.142	1	4
682.480	1	20
682.819	1	7
683.158	1	8
683.496	1	10
683.835	1	8
684.174	1	-1
684.512	1	7
684.851	1	7
685.190	1	0
685.529	1	3
685.867	1	3
686.206	1	2
686.545	1	11
686.883	1	-8
687.222	1	9
687.561	1	4
687.899	1	5
688.238	1	13
688.577	1	6
688.746	1	13