File: Data/GaN_200K_800ms/GaN_sample F_spot 12_UVVIS_200 K_200um_800 ms 2x2mm1_132.txt
340.368	1	-1
340.710	1	-6
341.052	1	12
341.394	1	-7
341.737	1	2
342.079	1	-1
342.421	1	8
342.763	1	18
343.105	1	4
343.447	1	3
343.789	1	3
344.131	1	-3
344.473	1	1
344.815	1	4
345.157	1	1
345.499	1	-9
345.841	1	10
346.183	1	5
346.526	1	-1
346.868	1	14
347.210	1	-11
347.552	1	-8
347.894	1	5
348.236	1	10
348.578	1	8
348.920	1	2
349.262	1	-5
349.604	1	8
349.946	1	-3
350.288	1	-2
350.630	1	1
350.972	1	7
351.314	1	4
351.656	1	8
351.998	1	6
352.340	1	13
352.682	1	12
353.024	1	7
353.366	1	11
353.708	1	11
354.050	1	3
354.392	1	0
354.734	1	11
355.076	1	10
355.418	1	-9
355.760	1	0
356.102	1	9
356.444	1	6
356.785	1	13
357.127	1	4
357.469	1	9
357.811	1	14
358.153	1	16
358.495	1	10
358.837	1	4
359.179	1	13
359.521	1	14
359.863	1	8
360.205	1	9
360.547	1	21
360.889	1	14
361.231	1	18
361.572	1	23
361.914	1	17
362.256	1	14
362.598	1	16
362.940	1	21
363.282	1	30
363.624	1	27
363.966	1	29
364.308	1	19
364.649	1	27
364.991	1	35
365.333	1	22
365.675	1	35
366.017	1	33
366.359	1	39
366.701	1	49
367.042	1	53
367.384	1	60
367.726	1	49
368.068	1	67
368.410	1	79
368.752	1	57
369.093	1	53
369.435	1	63
369.777	1	68
370.119	1	59
370.461	1	68
370.803	1	63
371.144	1	58
371.486	1	65
371.828	1	59
372.170	1	55
372.512	1	54
372.853	1	43
373.195	1	43
373.537	1	49
373.879	1	41
374.220	1	53
374.562	1	46
374.904	1	34
375.246	1	40
375.588	1	39
375.929	1	37
376.271	1	40
376.613	1	32
376.955	1	28
377.296	1	24
377.638	1	27
377.980	1	36
378.321	1	17
378.663	1	27
379.005	1	34
379.347	1	20
379.688	1	37
380.030	1	21
380.372	1	16
380.714	1	20
381.055	1	31
381.397	1	8
381.739	1	11
382.080	1	13
382.422	1	20
382.764	1	15
383.105	1	8
383.447	1	12
383.789	1	10
384.130	1	22
384.472	1	18
384.814	1	13
385.156	1	12
385.497	1	12
385.839	1	10
386.180	1	12
386.522	1	19
386.864	1	22
387.205	1	7
387.547	1	9
387.889	1	10
388.230	1	19
388.572	1	3
388.914	1	9
389.255	1	7
389.597	1	9
389.939	1	17
390.280	1	17
390.622	1	3
390.963	1	15
391.305	1	10
391.647	1	9
391.988	1	6
392.330	1	16
392.671	1	-3
393.013	1	8
393.355	1	1
393.696	1	4
394.038	1	1
394.379	1	6
394.721	1	3
395.062	1	4
395.404	1	4
395.746	1	12
396.087	1	4
396.429	1	5
396.770	1	-3
397.112	1	11
397.453	1	10
397.795	1	12
398.136	1	-2
398.478	1	3
398.819	1	9
399.161	1	19
399.503	1	3
399.844	1	1
400.186	1	5
400.527	1	6
400.869	1	16
401.210	1	4
401.552	1	-4
401.893	1	4
402.235	1	5
402.576	1	8
402.918	1	11
403.259	1	15
403.601	1	8
403.942	1	8
404.284	1	6
404.625	1	7
404.967	1	7
405.308	1	7
405.649	1	9
405.991	1	4
406.332	1	8
406.674	1	-2
407.015	1	8
407.357	1	-1
407.698	1	9
408.040	1	0
408.381	1	7
408.722	1	-8
409.064	1	3
409.405	1	1
409.747	1	4
410.088	1	4
410.430	1	11
410.771	1	11
411.112	1	2
411.454	1	-8
411.795	1	-12
412.137	1	9
412.478	1	17
412.819	1	-8
413.161	1	6
413.502	1	0
413.844	1	6
414.185	1	2
414.526	1	4
414.868	1	3
415.209	1	-1
415.550	1	-4
415.892	1	6
416.233	1	8
416.575	1	16
416.916	1	-8
417.257	1	3
417.599	1	5
417.940	1	3
418.281	1	1
418.623	1	3
418.964	1	-1
419.305	1	5
419.647	1	-1
419.988	1	6
420.329	1	-3
420.671	1	4
421.012	1	1
421.353	1	10
421.695	1	3
422.036	1	2
422.377	1	-3
422.718	1	4
423.060	1	3
423.401	1	4
423.742	1	-2
424.084	1	-3
424.425	1	-3
424.766	1	-1
425.107	1	-3
425.449	1	-3
425.790	1	-11
426.131	1	-2
426.472	1	8
426.814	1	6
427.155	1	-5
427.496	1	-1
427.837	1	-3
428.179	1	-9
428.520	1	6
428.861	1	-7
429.202	1	-1
429.544	1	-3
429.885	1	4
430.226	1	-3
430.567	1	4
430.909	1	3
431.250	1	5
431.591	1	8
431.932	1	-2
432.273	1	-8
432.615	1	-5
432.956	1	2
433.297	1	6
433.638	1	-4
433.979	1	9
434.320	1	2
434.662	1	6
435.003	1	6
435.344	1	7
435.685	1	6
436.026	1	1
436.368	1	-3
436.709	1	-2
437.050	1	-5
437.391	1	11
437.732	1	-3
438.073	1	-6
438.414	1	-5
438.756	1	-6
439.097	1	-3
439.438	1	0
439.779	1	5
440.120	1	-5
440.461	1	-2
440.802	1	5
441.143	1	4
441.485	1	1
441.826	1	-7
442.167	1	3
442.508	1	1
442.849	1	13
443.190	1	7
443.531	1	13
443.872	1	2
444.213	1	0
444.554	1	15
444.895	1	-1
445.237	1	-1
445.578	1	-7
445.919	1	-5
446.260	1	3
446.601	1	-3
446.942	1	6
447.283	1	0
447.624	1	-2
447.965	1	7
448.306	1	-2
448.647	1	5
448.988	1	-4
449.329	1	7
449.670	1	6
450.011	1	12
450.352	1	3
450.693	1	-7
451.034	1	0
451.375	1	5
451.716	1	-1
452.057	1	0
452.398	1	-9
452.739	1	8
453.080	1	8
453.421	1	-2
453.762	1	0
454.103	1	7
454.444	1	-2
454.785	1	5
455.126	1	-4
455.467	1	4
455.808	1	-5
456.149	1	3
456.490	1	3
456.831	1	7
457.172	1	-9
457.513	1	4
457.854	1	4
458.195	1	-9
458.536	1	5
458.877	1	7
459.218	1	2
459.559	1	9
459.899	1	-1
460.240	1	3
460.581	1	11
460.922	1	4
461.263	1	-10
461.604	1	0
461.945	1	4
462.286	1	6
462.627	1	1
462.968	1	-1
463.309	1	-9
463.649	1	-1
463.990	1	-9
464.331	1	-5
464.672	1	-2
465.013	1	-2
465.354	1	6
465.695	1	5
466.036	1	-9
466.376	1	-5
466.717	1	0
467.058	1	6
467.399	1	8
467.740	1	10
468.081	1	-1
468.422	1	0
468.762	1	-5
469.103	1	0
469.444	1	-1
469.785	1	-11
470.126	1	-4
470.467	1	-6
470.807	1	9
471.148	1	1
471.489	1	1
471.830	1	-7
472.171	1	1
472.511	1	-4
472.852	1	-2
473.193	1	4
473.534	1	12
473.875	1	19
474.215	1	10
474.556	1	6
474.897	1	6
475.238	1	-2
475.578	1	-9
475.919	1	2
476.260	1	5
476.601	1	5
476.942	1	9
477.282	1	-8
477.623	1	-8
477.964	1	-1
478.305	1	-1
478.645	1	6
478.986	1	0
479.327	1	-7
479.667	1	-2
480.008	1	0
480.349	1	3
480.690	1	-3
481.030	1	-4
481.371	1	7
481.712	1	2
482.053	1	6
482.393	1	2
482.734	1	-13
483.075	1	5
483.415	1	4
483.756	1	7
484.097	1	0
484.437	1	-1
484.778	1	4
485.119	1	-6
485.459	1	21
485.800	1	4
486.141	1	-2
486.481	1	3
486.822	1	1
487.163	1	-1
487.503	1	0
487.844	1	1
488.185	1	4
488.525	1	7
488.866	1	6
489.207	1	-10
489.547	1	2
489.888	1	0
490.228	1	8
490.569	1	15
490.910	1	2
491.250	1	6
491.591	1	-2
491.932	1	1
492.272	1	6
492.613	1	0
492.953	1	-3
493.294	1	2
493.635	1	1
493.975	1	7
494.316	1	9
494.656	1	-4
494.997	1	4
495.337	1	4
495.678	1	5
496.019	1	2
496.359	1	-7
496.700	1	5
497.040	1	3
497.381	1	2
497.721	1	6
498.062	1	10
498.403	1	-3
498.743	1	1
499.084	1	0
499.424	1	3
499.765	1	2
500.105	1	3
500.446	1	-1
500.786	1	-4
501.127	1	4
501.467	1	-7
501.808	1	10
502.148	1	5
502.489	1	6
502.829	1	0
503.170	1	11
503.510	1	5
503.851	1	6
504.191	1	11
504.532	1	9
504.872	1	8
505.213	1	10
505.553	1	3
505.894	1	-2
506.234	1	17
506.575	1	9
506.915	1	6
507.256	1	3
507.596	1	3
507.936	1	8
508.277	1	-5
508.617	1	12
508.958	1	1
509.298	1	8
509.639	1	3
509.979	1	-4
510.319	1	6
510.660	1	3
511.000	1	5
511.341	1	2
511.681	1	6
512.022	1	1
512.362	1	-4
512.702	1	3
513.043	1	9
513.383	1	-12
513.724	1	11
514.064	1	14
514.404	1	3
514.745	1	-7
515.085	1	5
515.425	1	-3
515.766	1	7
516.106	1	2
516.447	1	16
516.787	1	9
517.127	1	1
517.468	1	4
517.808	1	-3
518.148	1	7
518.489	1	0
518.829	1	2
519.169	1	2
519.510	1	-1
519.850	1	11
520.190	1	2
520.531	1	3
520.871	1	7
521.211	1	1
521.552	1	14
521.892	1	13
522.232	1	0
522.573	1	-2
522.913	1	-1
523.253	1	3
523.593	1	-5
523.934	1	2
524.274	1	3
524.614	1	1
524.955	1	7
525.295	1	7
525.635	1	6
525.975	1	14
526.316	1	12
526.656	1	-6
526.996	1	13
527.337	1	8
527.677	1	8
528.017	1	7
528.357	1	7
528.698	1	7
529.038	1	-2
529.378	1	13
529.718	1	5
530.058	1	0
530.399	1	10
530.739	1	2
531.079	1	11
531.419	1	13
531.760	1	10
532.100	1	4
532.440	1	4
532.780	1	0
533.120	1	13
533.461	1	7
533.801	1	13
534.141	1	-4
534.481	1	-8
534.821	1	8
535.162	1	-3
535.502	1	5
535.842	1	14
536.182	1	4
536.522	1	-10
536.862	1	-1
537.203	1	-2
537.543	1	5
537.883	1	3
538.223	1	6
538.563	1	12
538.903	1	-2
539.243	1	-2
539.584	1	5
539.924	1	11
540.264	1	-4
540.604	1	8
540.944	1	1
541.284	1	11
541.624	1	3
541.964	1	19
542.305	1	7
542.645	1	12
542.985	1	4
543.325	1	-5
543.665	1	13
544.005	1	11
544.345	1	14
544.685	1	-2
545.025	1	13
545.365	1	5
545.705	1	10
546.045	1	1
546.386	1	13
546.726	1	-4
547.066	1	4
547.406	1	16
547.746	1	-7
548.086	1	8
548.426	1	0
548.766	1	8
549.106	1	5
549.446	1	7
549.786	1	6
550.126	1	15
550.466	1	8
550.806	1	4
551.146	1	11
551.486	1	2
551.826	1	-4
552.166	1	3
552.506	1	18
552.846	1	2
553.186	1	9
553.526	1	6
553.866	1	3
554.206	1	10
554.546	1	8
554.886	1	9
555.226	1	-12
555.566	1	8
555.906	1	3
556.246	1	3
556.586	1	1
556.926	1	6
557.266	1	2
557.606	1	16
557.946	1	7
558.286	1	7
558.626	1	4
558.966	1	5
559.306	1	2
559.646	1	6
559.986	1	8
560.325	1	8
560.665	1	10
561.005	1	3
561.345	1	1
561.685	1	5
562.025	1	6
562.365	1	11
562.705	1	3
563.045	1	1
563.385	1	2
563.725	1	9
564.064	1	9
564.404	1	4
564.744	1	15
565.084	1	0
565.424	1	6
565.764	1	1
566.104	1	10
566.444	1	-6
566.783	1	-4
567.123	1	4
567.463	1	19
567.803	1	-4
568.143	1	6
568.483	1	6
568.823	1	4
569.162	1	2
569.502	1	8
569.842	1	12
570.182	1	5
570.522	1	1
570.862	1	9
571.201	1	13
571.541	1	11
571.881	1	24
572.221	1	-2
572.561	1	4
572.900	1	1
573.240	1	1
573.580	1	1
573.920	1	5
574.260	1	9
574.599	1	2
574.939	1	7
575.279	1	15
575.619	1	14
575.959	1	0
576.298	1	21
576.638	1	7
576.978	1	2
577.318	1	13
577.657	1	-1
577.997	1	-1
578.337	1	19
578.677	1	12
579.016	1	24
579.356	1	1
579.696	1	11
580.036	1	-3
580.375	1	7
580.715	1	7
581.055	1	8
581.394	1	4
581.734	1	9
582.074	1	-4
582.414	1	18
582.753	1	-4
583.093	1	2
583.433	1	3
583.772	1	10
584.112	1	10
584.452	1	4
584.791	1	2
585.131	1	2
585.471	1	13
585.811	1	5
586.150	1	5
586.490	1	6
586.830	1	-1
587.169	1	3
587.509	1	6
587.849	1	5
588.188	1	15
588.528	1	4
588.867	1	10
589.207	1	8
589.547	1	7
589.886	1	-4
590.226	1	12
590.566	1	-6
590.905	1	-1
591.245	1	-9
591.585	1	6
591.924	1	2
592.264	1	14
592.603	1	9
592.943	1	6
593.283	1	1
593.622	1	13
593.962	1	9
594.301	1	10
594.641	1	4
594.981	1	-5
595.320	1	4
595.660	1	8
595.999	1	-7
596.339	1	6
596.678	1	4
597.018	1	-3
597.358	1	14
597.697	1	1
598.037	1	6
598.376	1	0
598.716	1	10
599.055	1	13
599.395	1	8
599.734	1	7
600.074	1	4
600.413	1	16
600.753	1	11
601.092	1	16
601.432	1	-4
601.771	1	6
602.111	1	3
602.451	1	16
602.790	1	8
603.130	1	9
603.469	1	3
603.809	1	15
604.148	1	13
604.487	1	5
604.827	1	5
605.166	1	14
605.506	1	12
605.845	1	3
606.185	1	5
606.524	1	-1
606.864	1	4
607.203	1	3
607.543	1	-7
607.882	1	7
608.222	1	8
608.561	1	3
608.901	1	11
609.240	1	-4
609.579	1	10
609.919	1	20
610.258	1	9
610.598	1	12
610.937	1	1
611.277	1	0
611.616	1	13
611.955	1	2
612.295	1	-2
612.634	1	1
612.974	1	-2
613.313	1	8
613.652	1	9
613.992	1	6
614.331	1	3
614.671	1	12
615.010	1	1
615.349	1	10
615.689	1	6
616.028	1	11
616.368	1	13
616.707	1	-2
617.046	1	8
617.386	1	7
617.725	1	-2
618.064	1	-3
618.404	1	1
618.743	1	6
619.082	1	-1
619.422	1	-2
619.761	1	9
620.100	1	15
620.440	1	-5
620.779	1	2
621.118	1	1
621.458	1	-2
621.797	1	5
622.136	1	14
622.476	1	21
622.815	1	14
623.154	1	4
623.494	1	14
623.833	1	8
624.172	1	-3
624.511	1	7
624.851	1	-8
625.190	1	0
625.529	1	10
625.869	1	9
626.208	1	5
626.547	1	-2
626.886	1	-1
627.226	1	6
627.565	1	5
627.904	1	-1
628.243	1	7
628.583	1	2
628.922	1	11
629.261	1	7
629.600	1	13
629.940	1	6
630.279	1	-7
630.618	1	-3
630.957	1	-4
631.297	1	-6
631.636	1	-6
631.975	1	15
632.314	1	2
632.653	1	11
632.993	1	1
633.332	1	-4
633.671	1	0
634.010	1	-5
634.349	1	12
634.689	1	2
635.028	1	15
635.367	1	9
635.706	1	14
636.045	1	17
636.384	1	1
636.724	1	3
637.063	1	-4
637.402	1	1
637.741	1	10
638.080	1	-3
638.419	1	4
638.759	1	1
639.098	1	5
639.437	1	10
639.776	1	6
640.115	1	8
640.454	1	0
640.793	1	7
641.132	1	10
641.472	1	5
641.811	1	5
642.150	1	-4
642.489	1	18
642.828	1	3
643.167	1	2
643.506	1	-17
643.845	1	4
644.184	1	7
644.524	1	7
644.863	1	-9
645.202	1	0
645.541	1	2
645.880	1	4
646.219	1	8
646.558	1	-2
646.897	1	5
647.236	1	0
647.575	1	4
647.914	1	1
648.253	1	14
648.592	1	-8
648.931	1	11
649.270	1	8
649.610	1	-2
649.949	1	8
650.288	1	6
650.627	1	4
650.966	1	11
651.305	1	7
651.644	1	3
651.983	1	6
652.322	1	-6
652.661	1	6
653.000	1	0
653.339	1	12
653.678	1	6
654.017	1	10
654.356	1	4
654.695	1	6
655.034	1	4
655.373	1	6
655.712	1	3
656.051	1	-2
656.390	1	-2
656.729	1	14
657.068	1	4
657.406	1	5
657.745	1	3
658.084	1	0
658.423	1	4
658.762	1	8
659.101	1	13
659.440	1	8
659.779	1	-2
660.118	1	3
660.457	1	7
660.796	1	-5
661.135	1	-4
661.474	1	1
661.813	1	15
662.152	1	3
662.491	1	6
662.829	1	-6
663.168	1	21
663.507	1	9
663.846	1	0
664.185	1	7
664.524	1	1
664.863	1	0
665.202	1	1
665.541	1	-8
665.879	1	-2
666.218	1	2
666.557	1	2
666.896	1	3
667.235	1	9
667.574	1	5
667.913	1	7
668.251	1	-1
668.590	1	2
668.929	1	-9
669.268	1	1
669.607	1	1
669.946	1	4
670.285	1	7
670.623	1	6
670.962	1	4
671.301	1	-3
671.640	1	9
671.979	1	-7
672.317	1	1
672.656	1	8
672.995	1	3
673.334	1	-10
673.673	1	3
674.011	1	3
674.350	1	13
674.689	1	5
675.028	1	-7
675.367	1	7
675.705	1	9
676.044	1	11
676.383	1	0
676.722	1	17
677.060	1	2
677.399	1	-1
677.738	1	9
678.077	1	6
678.416	1	-2
678.754	1	-3
679.093	1	7
679.432	1	-3
679.771	1	2
680.109	1	8
680.448	1	6
680.787	1	2
681.125	1	7
681.464	1	8
681.803	1	4
682.142	1	12
682.480	1	11
682.819	1	5
683.158	1	2
683.496	1	-3
683.835	1	7
684.174	1	-1
684.512	1	5
684.851	1	10
685.190	1	0
685.529	1	7
685.867	1	10
686.206	1	2
686.545	1	-1
686.883	1	-1
687.222	1	9
687.561	1	7
687.899	1	7
688.238	1	6
688.577	1	1
688.746	1	-1