File: Data/GaN_200K_800ms/GaN_sample F_spot 12_UVVIS_200 K_200um_800 ms 2x2mm1_41.txt
340.368	1	10
340.710	1	-7
341.052	1	12
341.394	1	3
341.737	1	10
342.079	1	3
342.421	1	7
342.763	1	13
343.105	1	18
343.447	1	1
343.789	1	0
344.131	1	6
344.473	1	-5
344.815	1	12
345.157	1	5
345.499	1	10
345.841	1	18
346.183	1	1
346.526	1	1
346.868	1	21
347.210	1	7
347.552	1	3
347.894	1	12
348.236	1	26
348.578	1	17
348.920	1	1
349.262	1	8
349.604	1	12
349.946	1	6
350.288	1	16
350.630	1	19
350.972	1	21
351.314	1	24
351.656	1	16
351.998	1	27
352.340	1	28
352.682	1	33
353.024	1	26
353.366	1	33
353.708	1	32
354.050	1	20
354.392	1	24
354.734	1	34
355.076	1	40
355.418	1	19
355.760	1	38
356.102	1	43
356.444	1	49
356.785	1	46
357.127	1	45
357.469	1	41
357.811	1	52
358.153	1	58
358.495	1	65
358.837	1	64
359.179	1	72
359.521	1	78
359.863	1	86
360.205	1	94
360.547	1	113
360.889	1	123
361.231	1	135
361.572	1	142
361.914	1	161
362.256	1	181
362.598	1	200
362.940	1	226
363.282	1	264
363.624	1	297
363.966	1	323
364.308	1	369
364.649	1	432
364.991	1	452
365.333	1	517
365.675	1	573
366.017	1	656
366.359	1	729
366.701	1	804
367.042	1	887
367.384	1	978
367.726	1	1033
368.068	1	1131
368.410	1	1164
368.752	1	1234
369.093	1	1274
369.435	1	1274
369.777	1	1305
370.119	1	1283
370.461	1	1254
370.803	1	1233
371.144	1	1170
371.486	1	1125
371.828	1	1065
372.170	1	1018
372.512	1	960
372.853	1	911
373.195	1	847
373.537	1	782
373.879	1	741
374.220	1	701
374.562	1	663
374.904	1	626
375.246	1	608
375.588	1	569
375.929	1	542
376.271	1	509
376.613	1	471
376.955	1	444
377.296	1	427
377.638	1	413
377.980	1	395
378.321	1	360
378.663	1	336
379.005	1	335
379.347	1	293
379.688	1	285
380.030	1	262
380.372	1	251
380.714	1	232
381.055	1	239
381.397	1	214
381.739	1	199
382.080	1	185
382.422	1	184
382.764	1	186
383.105	1	172
383.447	1	160
383.789	1	155
384.130	1	151
384.472	1	147
384.814	1	142
385.156	1	134
385.497	1	134
385.839	1	126
386.180	1	116
386.522	1	128
386.864	1	120
387.205	1	106
387.547	1	100
387.889	1	92
388.230	1	108
388.572	1	87
388.914	1	84
389.255	1	88
389.597	1	82
389.939	1	75
390.280	1	72
390.622	1	72
390.963	1	78
391.305	1	77
391.647	1	75
391.988	1	80
392.330	1	76
392.671	1	56
393.013	1	53
393.355	1	67
393.696	1	59
394.038	1	57
394.379	1	53
394.721	1	40
395.062	1	51
395.404	1	38
395.746	1	46
396.087	1	34
396.429	1	46
396.770	1	36
397.112	1	53
397.453	1	51
397.795	1	46
398.136	1	36
398.478	1	35
398.819	1	44
399.161	1	48
399.503	1	34
399.844	1	34
400.186	1	33
400.527	1	30
400.869	1	30
401.210	1	27
401.552	1	19
401.893	1	29
402.235	1	25
402.576	1	16
402.918	1	35
403.259	1	27
403.601	1	20
403.942	1	30
404.284	1	31
404.625	1	29
404.967	1	26
405.308	1	26
405.649	1	26
405.991	1	28
406.332	1	32
406.674	1	19
407.015	1	29
407.357	1	23
407.698	1	21
408.040	1	12
408.381	1	32
408.722	1	5
409.064	1	18
409.405	1	25
409.747	1	20
410.088	1	19
410.430	1	22
410.771	1	17
411.112	1	9
411.454	1	14
411.795	1	0
412.137	1	11
412.478	1	26
412.819	1	6
413.161	1	5
413.502	1	13
413.844	1	21
414.185	1	20
414.526	1	10
414.868	1	7
415.209	1	7
415.550	1	7
415.892	1	20
416.233	1	15
416.575	1	20
416.916	1	12
417.257	1	-1
417.599	1	20
417.940	1	16
418.281	1	19
418.623	1	10
418.964	1	6
419.305	1	16
419.647	1	15
419.988	1	10
420.329	1	10
420.671	1	15
421.012	1	9
421.353	1	8
421.695	1	7
422.036	1	18
422.377	1	8
422.718	1	10
423.060	1	11
423.401	1	14
423.742	1	17
424.084	1	12
424.425	1	13
424.766	1	0
425.107	1	8
425.449	1	10
425.790	1	-2
426.131	1	17
426.472	1	2
426.814	1	12
427.155	1	-2
427.496	1	7
427.837	1	0
428.179	1	3
428.520	1	13
428.861	1	3
429.202	1	9
429.544	1	7
429.885	1	15
430.226	1	1
430.567	1	16
430.909	1	11
431.250	1	7
431.591	1	7
431.932	1	7
432.273	1	2
432.615	1	7
432.956	1	9
433.297	1	6
433.638	1	7
433.979	1	11
434.320	1	14
434.662	1	9
435.003	1	11
435.344	1	9
435.685	1	9
436.026	1	11
436.368	1	15
436.709	1	14
437.050	1	3
437.391	1	13
437.732	1	2
438.073	1	5
438.414	1	2
438.756	1	-2
439.097	1	10
439.438	1	0
439.779	1	9
440.120	1	4
440.461	1	13
440.802	1	1
441.143	1	20
441.485	1	9
441.826	1	10
442.167	1	10
442.508	1	1
442.849	1	15
443.190	1	9
443.531	1	12
443.872	1	24
444.213	1	5
444.554	1	23
444.895	1	9
445.237	1	3
445.578	1	-2
445.919	1	-4
446.260	1	5
446.601	1	6
446.942	1	10
447.283	1	5
447.624	1	8
447.965	1	7
448.306	1	10
448.647	1	6
448.988	1	4
449.329	1	14
449.670	1	16
450.011	1	12
450.352	1	0
450.693	1	5
451.034	1	-1
451.375	1	8
451.716	1	12
452.057	1	5
452.398	1	12
452.739	1	3
453.080	1	8
453.421	1	4
453.762	1	7
454.103	1	11
454.444	1	4
454.785	1	5
455.126	1	1
455.467	1	9
455.808	1	2
456.149	1	16
456.490	1	10
456.831	1	14
457.172	1	2
457.513	1	20
457.854	1	4
458.195	1	4
458.536	1	11
458.877	1	5
459.218	1	7
459.559	1	12
459.899	1	5
460.240	1	6
460.581	1	20
460.922	1	12
461.263	1	-1
461.604	1	4
461.945	1	10
462.286	1	8
462.627	1	18
462.968	1	15
463.309	1	3
463.649	1	13
463.990	1	8
464.331	1	9
464.672	1	9
465.013	1	3
465.354	1	8
465.695	1	8
466.036	1	4
466.376	1	6
466.717	1	13
467.058	1	6
467.399	1	12
467.740	1	1
468.081	1	7
468.422	1	9
468.762	1	1
469.103	1	9
469.444	1	0
469.785	1	-6
470.126	1	2
470.467	1	9
470.807	1	12
471.148	1	10
471.489	1	5
471.830	1	7
472.171	1	12
472.511	1	2
472.852	1	18
473.193	1	15
473.534	1	22
473.875	1	22
474.215	1	13
474.556	1	7
474.897	1	23
475.238	1	3
475.578	1	-2
475.919	1	3
476.260	1	12
476.601	1	9
476.942	1	18
477.282	1	10
477.623	1	-2
477.964	1	8
478.305	1	6
478.645	1	18
478.986	1	12
479.327	1	4
479.667	1	17
480.008	1	3
480.349	1	11
480.690	1	7
481.030	1	7
481.371	1	11
481.712	1	9
482.053	1	16
482.393	1	12
482.734	1	13
483.075	1	18
483.415	1	12
483.756	1	19
484.097	1	11
484.437	1	7
484.778	1	16
485.119	1	11
485.459	1	28
485.800	1	16
486.141	1	5
486.481	1	19
486.822	1	16
487.163	1	14
487.503	1	19
487.844	1	13
488.185	1	12
488.525	1	13
488.866	1	18
489.207	1	22
489.547	1	17
489.888	1	13
490.228	1	31
490.569	1	35
490.910	1	30
491.250	1	18
491.591	1	29
491.932	1	24
492.272	1	29
492.613	1	25
492.953	1	28
493.294	1	20
493.635	1	26
493.975	1	32
494.316	1	37
494.656	1	28
494.997	1	26
495.337	1	34
495.678	1	34
496.019	1	30
496.359	1	35
496.700	1	33
497.040	1	36
497.381	1	25
497.721	1	30
498.062	1	31
498.403	1	36
498.743	1	38
499.084	1	27
499.424	1	45
499.765	1	28
500.105	1	40
500.446	1	26
500.786	1	30
501.127	1	30
501.467	1	32
501.808	1	41
502.148	1	37
502.489	1	37
502.829	1	45
503.170	1	50
503.510	1	50
503.851	1	47
504.191	1	47
504.532	1	43
504.872	1	44
505.213	1	47
505.553	1	32
505.894	1	49
506.234	1	56
506.575	1	52
506.915	1	59
507.256	1	54
507.596	1	55
507.936	1	62
508.277	1	55
508.617	1	50
508.958	1	49
509.298	1	49
509.639	1	50
509.979	1	57
510.319	1	64
510.660	1	47
511.000	1	39
511.341	1	52
511.681	1	59
512.022	1	59
512.362	1	59
512.702	1	55
513.043	1	53
513.383	1	38
513.724	1	55
514.064	1	58
514.404	1	64
514.745	1	47
515.085	1	52
515.425	1	59
515.766	1	54
516.106	1	54
516.447	1	69
516.787	1	73
517.127	1	54
517.468	1	56
517.808	1	52
518.148	1	60
518.489	1	65
518.829	1	75
519.169	1	69
519.510	1	71
519.850	1	79
520.190	1	61
520.531	1	72
520.871	1	76
521.211	1	60
521.552	1	79
521.892	1	83
522.232	1	63
522.573	1	73
522.913	1	70
523.253	1	82
523.593	1	73
523.934	1	65
524.274	1	71
524.614	1	74
524.955	1	70
525.295	1	79
525.635	1	75
525.975	1	78
526.316	1	82
526.656	1	78
526.996	1	78
527.337	1	76
527.677	1	83
528.017	1	66
528.357	1	85
528.698	1	72
529.038	1	85
529.378	1	83
529.718	1	98
530.058	1	93
530.399	1	87
530.739	1	78
531.079	1	92
531.419	1	94
531.760	1	86
532.100	1	95
532.440	1	95
532.780	1	91
533.120	1	94
533.461	1	106
533.801	1	100
534.141	1	80
534.481	1	87
534.821	1	90
535.162	1	94
535.502	1	86
535.842	1	109
536.182	1	100
536.522	1	82
536.862	1	98
537.203	1	85
537.543	1	80
537.883	1	90
538.223	1	100
538.563	1	91
538.903	1	74
539.243	1	99
539.584	1	81
539.924	1	88
540.264	1	79
540.604	1	82
540.944	1	72
541.284	1	105
541.624	1	94
541.964	1	96
542.305	1	95
542.645	1	92
542.985	1	99
543.325	1	87
543.665	1	104
544.005	1	99
544.345	1	105
544.685	1	94
545.025	1	97
545.365	1	90
545.705	1	91
546.045	1	92
546.386	1	107
546.726	1	93
547.066	1	105
547.406	1	100
547.746	1	91
548.086	1	101
548.426	1	107
548.766	1	111
549.106	1	100
549.446	1	116
549.786	1	103
550.126	1	125
550.466	1	107
550.806	1	105
551.146	1	113
551.486	1	112
551.826	1	105
552.166	1	111
552.506	1	125
552.846	1	112
553.186	1	126
553.526	1	105
553.866	1	117
554.206	1	119
554.546	1	108
554.886	1	110
555.226	1	95
555.566	1	117
555.906	1	110
556.246	1	102
556.586	1	98
556.926	1	106
557.266	1	106
557.606	1	112
557.946	1	120
558.286	1	96
558.626	1	96
558.966	1	104
559.306	1	104
559.646	1	103
559.986	1	90
560.325	1	98
560.665	1	101
561.005	1	109
561.345	1	107
561.685	1	107
562.025	1	90
562.365	1	103
562.705	1	93
563.045	1	99
563.385	1	85
563.725	1	108
564.064	1	110
564.404	1	107
564.744	1	105
565.084	1	100
565.424	1	108
565.764	1	96
566.104	1	108
566.444	1	96
566.783	1	116
567.123	1	113
567.463	1	120
567.803	1	99
568.143	1	99
568.483	1	99
568.823	1	113
569.162	1	111
569.502	1	97
569.842	1	115
570.182	1	106
570.522	1	97
570.862	1	105
571.201	1	109
571.541	1	107
571.881	1	110
572.221	1	101
572.561	1	97
572.900	1	84
573.240	1	99
573.580	1	105
573.920	1	102
574.260	1	103
574.599	1	102
574.939	1	111
575.279	1	106
575.619	1	105
575.959	1	95
576.298	1	106
576.638	1	92
576.978	1	104
577.318	1	96
577.657	1	105
577.997	1	109
578.337	1	104
578.677	1	107
579.016	1	95
579.356	1	93
579.696	1	103
580.036	1	96
580.375	1	104
580.715	1	95
581.055	1	99
581.394	1	92
581.734	1	84
582.074	1	101
582.414	1	105
582.753	1	99
583.093	1	98
583.433	1	98
583.772	1	108
584.112	1	92
584.452	1	98
584.791	1	107
585.131	1	104
585.471	1	102
585.811	1	111
586.150	1	88
586.490	1	99
586.830	1	95
587.169	1	99
587.509	1	90
587.849	1	90
588.188	1	105
588.528	1	99
588.867	1	94
589.207	1	95
589.547	1	89
589.886	1	82
590.226	1	101
590.566	1	92
590.905	1	86
591.245	1	100
591.585	1	83
591.924	1	85
592.264	1	93
592.603	1	83
592.943	1	92
593.283	1	87
593.622	1	71
593.962	1	79
594.301	1	81
594.641	1	64
594.981	1	75
595.320	1	70
595.660	1	81
595.999	1	70
596.339	1	90
596.678	1	87
597.018	1	68
597.358	1	78
597.697	1	75
598.037	1	77
598.376	1	82
598.716	1	80
599.055	1	78
599.395	1	76
599.734	1	72
600.074	1	86
600.413	1	86
600.753	1	85
601.092	1	86
601.432	1	72
601.771	1	85
602.111	1	81
602.451	1	81
602.790	1	83
603.130	1	87
603.469	1	74
603.809	1	74
604.148	1	77
604.487	1	76
604.827	1	74
605.166	1	71
605.506	1	71
605.845	1	82
606.185	1	93
606.524	1	62
606.864	1	74
607.203	1	78
607.543	1	82
607.882	1	89
608.222	1	87
608.561	1	77
608.901	1	82
609.240	1	75
609.579	1	82
609.919	1	95
610.258	1	75
610.598	1	79
610.937	1	75
611.277	1	74
611.616	1	70
611.955	1	70
612.295	1	71
612.634	1	68
612.974	1	72
613.313	1	73
613.652	1	67
613.992	1	62
614.331	1	66
614.671	1	76
615.010	1	54
615.349	1	74
615.689	1	81
616.028	1	71
616.368	1	68
616.707	1	58
617.046	1	66
617.386	1	62
617.725	1	61
618.064	1	56
618.404	1	53
618.743	1	63
619.082	1	60
619.422	1	54
619.761	1	67
620.100	1	68
620.440	1	63
620.779	1	58
621.118	1	67
621.458	1	72
621.797	1	57
622.136	1	71
622.476	1	76
622.815	1	65
623.154	1	67
623.494	1	78
623.833	1	58
624.172	1	54
624.511	1	56
624.851	1	42
625.190	1	51
625.529	1	60
625.869	1	49
626.208	1	56
626.547	1	55
626.886	1	56
627.226	1	52
627.565	1	50
627.904	1	53
628.243	1	58
628.583	1	57
628.922	1	58
629.261	1	57
629.600	1	60
629.940	1	51
630.279	1	41
630.618	1	50
630.957	1	52
631.297	1	57
631.636	1	46
631.975	1	67
632.314	1	53
632.653	1	41
632.993	1	57
633.332	1	52
633.671	1	52
634.010	1	42
634.349	1	50
634.689	1	49
635.028	1	58
635.367	1	49
635.706	1	58
636.045	1	55
636.384	1	58
636.724	1	57
637.063	1	46
637.402	1	46
637.741	1	44
638.080	1	45
638.419	1	48
638.759	1	37
639.098	1	51
639.437	1	54
639.776	1	45
640.115	1	49
640.454	1	41
640.793	1	54
641.132	1	49
641.472	1	47
641.811	1	45
642.150	1	39
642.489	1	51
642.828	1	35
643.167	1	33
643.506	1	31
643.845	1	37
644.184	1	42
644.524	1	41
644.863	1	31
645.202	1	43
645.541	1	44
645.880	1	48
646.219	1	45
646.558	1	38
646.897	1	43
647.236	1	34
647.575	1	44
647.914	1	36
648.253	1	48
648.592	1	38
648.931	1	52
649.270	1	33
649.610	1	41
649.949	1	36
650.288	1	38
650.627	1	44
650.966	1	42
651.305	1	40
651.644	1	46
651.983	1	41
652.322	1	30
652.661	1	31
653.000	1	32
653.339	1	47
653.678	1	37
654.017	1	32
654.356	1	34
654.695	1	50
655.034	1	40
655.373	1	48
655.712	1	33
656.051	1	28
656.390	1	30
656.729	1	45
657.068	1	38
657.406	1	35
657.745	1	29
658.084	1	36
658.423	1	42
658.762	1	28
659.101	1	40
659.440	1	32
659.779	1	37
660.118	1	32
660.457	1	27
660.796	1	20
661.135	1	24
661.474	1	30
661.813	1	39
662.152	1	25
662.491	1	23
662.829	1	24
663.168	1	27
663.507	1	43
663.846	1	24
664.185	1	31
664.524	1	39
664.863	1	27
665.202	1	39
665.541	1	23
665.879	1	26
666.218	1	13
666.557	1	19
666.896	1	23
667.235	1	24
667.574	1	12
667.913	1	34
668.251	1	27
668.590	1	21
668.929	1	19
669.268	1	27
669.607	1	13
669.946	1	26
670.285	1	37
670.623	1	27
670.962	1	30
671.301	1	30
671.640	1	12
671.979	1	19
672.317	1	27
672.656	1	28
672.995	1	28
673.334	1	21
673.673	1	29
674.011	1	24
674.350	1	27
674.689	1	31
675.028	1	26
675.367	1	28
675.705	1	22
676.044	1	30
676.383	1	32
676.722	1	28
677.060	1	24
677.399	1	21
677.738	1	30
678.077	1	33
678.416	1	26
678.754	1	27
679.093	1	32
679.432	1	26
679.771	1	28
680.109	1	37
680.448	1	26
680.787	1	29
681.125	1	31
681.464	1	31
681.803	1	23
682.142	1	40
682.480	1	32
682.819	1	28
683.158	1	27
683.496	1	38
683.835	1	27
684.174	1	36
684.512	1	34
684.851	1	20
685.190	1	22
685.529	1	18
685.867	1	25
686.206	1	17
686.545	1	32
686.883	1	27
687.222	1	37
687.561	1	24
687.899	1	34
688.238	1	23
688.577	1	14
688.746	1	24