File: Data/GaN_200K_800ms/GaN_sample F_spot 12_UVVIS_200 K_200um_800 ms 2x2mm1_80.txt
340.368	1	4
340.710	1	-9
341.052	1	5
341.394	1	4
341.737	1	9
342.079	1	2
342.421	1	-3
342.763	1	5
343.105	1	4
343.447	1	-2
343.789	1	8
344.131	1	4
344.473	1	-1
344.815	1	3
345.157	1	3
345.499	1	7
345.841	1	5
346.183	1	5
346.526	1	-8
346.868	1	19
347.210	1	-2
347.552	1	-6
347.894	1	3
348.236	1	11
348.578	1	1
348.920	1	3
349.262	1	8
349.604	1	7
349.946	1	6
350.288	1	8
350.630	1	10
350.972	1	10
351.314	1	11
351.656	1	11
351.998	1	11
352.340	1	9
352.682	1	14
353.024	1	18
353.366	1	25
353.708	1	7
354.050	1	1
354.392	1	1
354.734	1	9
355.076	1	9
355.418	1	-11
355.760	1	13
356.102	1	21
356.444	1	12
356.785	1	16
357.127	1	12
357.469	1	21
357.811	1	17
358.153	1	19
358.495	1	26
358.837	1	11
359.179	1	27
359.521	1	32
359.863	1	13
360.205	1	28
360.547	1	34
360.889	1	25
361.231	1	28
361.572	1	31
361.914	1	39
362.256	1	41
362.598	1	46
362.940	1	36
363.282	1	58
363.624	1	63
363.966	1	62
364.308	1	66
364.649	1	68
364.991	1	78
365.333	1	82
365.675	1	76
366.017	1	86
366.359	1	106
366.701	1	115
367.042	1	117
367.384	1	130
367.726	1	135
368.068	1	133
368.410	1	132
368.752	1	136
369.093	1	139
369.435	1	136
369.777	1	150
370.119	1	141
370.461	1	148
370.803	1	138
371.144	1	143
371.486	1	141
371.828	1	125
372.170	1	127
372.512	1	113
372.853	1	119
373.195	1	108
373.537	1	104
373.879	1	92
374.220	1	112
374.562	1	94
374.904	1	92
375.246	1	90
375.588	1	74
375.929	1	90
376.271	1	76
376.613	1	73
376.955	1	63
377.296	1	68
377.638	1	63
377.980	1	57
378.321	1	55
378.663	1	54
379.005	1	63
379.347	1	57
379.688	1	53
380.030	1	50
380.372	1	42
380.714	1	54
381.055	1	42
381.397	1	38
381.739	1	39
382.080	1	42
382.422	1	28
382.764	1	34
383.105	1	26
383.447	1	29
383.789	1	43
384.130	1	24
384.472	1	23
384.814	1	33
385.156	1	32
385.497	1	25
385.839	1	21
386.180	1	30
386.522	1	20
386.864	1	22
387.205	1	21
387.547	1	14
387.889	1	8
388.230	1	30
388.572	1	10
388.914	1	16
389.255	1	8
389.597	1	16
389.939	1	17
390.280	1	15
390.622	1	13
390.963	1	17
391.305	1	17
391.647	1	20
391.988	1	24
392.330	1	20
392.671	1	6
393.013	1	12
393.355	1	15
393.696	1	18
394.038	1	16
394.379	1	8
394.721	1	12
395.062	1	8
395.404	1	3
395.746	1	22
396.087	1	5
396.429	1	12
396.770	1	5
397.112	1	20
397.453	1	17
397.795	1	11
398.136	1	-5
398.478	1	14
398.819	1	13
399.161	1	22
399.503	1	9
399.844	1	10
400.186	1	15
400.527	1	12
400.869	1	9
401.210	1	3
401.552	1	-11
401.893	1	6
402.235	1	13
402.576	1	-1
402.918	1	19
403.259	1	14
403.601	1	-1
403.942	1	16
404.284	1	22
404.625	1	14
404.967	1	2
405.308	1	4
405.649	1	10
405.991	1	11
406.332	1	7
406.674	1	-1
407.015	1	8
407.357	1	9
407.698	1	7
408.040	1	2
408.381	1	5
408.722	1	-8
409.064	1	18
409.405	1	15
409.747	1	2
410.088	1	9
410.430	1	-1
410.771	1	15
411.112	1	-4
411.454	1	2
411.795	1	1
412.137	1	10
412.478	1	17
412.819	1	-1
413.161	1	-2
413.502	1	-1
413.844	1	9
414.185	1	10
414.526	1	3
414.868	1	5
415.209	1	6
415.550	1	0
415.892	1	7
416.233	1	13
416.575	1	9
416.916	1	-1
417.257	1	5
417.599	1	8
417.940	1	15
418.281	1	10
418.623	1	-5
418.964	1	-6
419.305	1	7
419.647	1	-3
419.988	1	12
420.329	1	-7
420.671	1	9
421.012	1	2
421.353	1	6
421.695	1	-6
422.036	1	14
422.377	1	2
422.718	1	8
423.060	1	7
423.401	1	2
423.742	1	4
424.084	1	3
424.425	1	6
424.766	1	2
425.107	1	4
425.449	1	8
425.790	1	-4
426.131	1	11
426.472	1	-1
426.814	1	9
427.155	1	-2
427.496	1	-5
427.837	1	-3
428.179	1	-2
428.520	1	2
428.861	1	0
429.202	1	14
429.544	1	-4
429.885	1	5
430.226	1	0
430.567	1	5
430.909	1	1
431.250	1	-10
431.591	1	6
431.932	1	-3
432.273	1	-4
432.615	1	-3
432.956	1	-6
433.297	1	5
433.638	1	-7
433.979	1	11
434.320	1	7
434.662	1	5
435.003	1	4
435.344	1	2
435.685	1	4
436.026	1	12
436.368	1	10
436.709	1	12
437.050	1	1
437.391	1	14
437.732	1	-4
438.073	1	7
438.414	1	-10
438.756	1	-3
439.097	1	-1
439.438	1	-2
439.779	1	1
440.120	1	-3
440.461	1	4
440.802	1	4
441.143	1	7
441.485	1	5
441.826	1	1
442.167	1	4
442.508	1	-13
442.849	1	19
443.190	1	-3
443.531	1	0
443.872	1	13
444.213	1	5
444.554	1	14
444.895	1	5
445.237	1	-8
445.578	1	0
445.919	1	4
446.260	1	-7
446.601	1	-1
446.942	1	8
447.283	1	4
447.624	1	-2
447.965	1	8
448.306	1	6
448.647	1	1
448.988	1	-4
449.329	1	5
449.670	1	13
450.011	1	6
450.352	1	-2
450.693	1	4
451.034	1	-7
451.375	1	-2
451.716	1	1
452.057	1	15
452.398	1	2
452.739	1	2
453.080	1	-3
453.421	1	-2
453.762	1	-3
454.103	1	4
454.444	1	-5
454.785	1	0
455.126	1	1
455.467	1	-1
455.808	1	4
456.149	1	6
456.490	1	4
456.831	1	4
457.172	1	-4
457.513	1	0
457.854	1	-6
458.195	1	-3
458.536	1	5
458.877	1	1
459.218	1	4
459.559	1	5
459.899	1	1
460.240	1	7
460.581	1	19
460.922	1	8
461.263	1	5
461.604	1	2
461.945	1	1
462.286	1	7
462.627	1	7
462.968	1	4
463.309	1	-1
463.649	1	-1
463.990	1	4
464.331	1	6
464.672	1	3
465.013	1	-1
465.354	1	2
465.695	1	3
466.036	1	-4
466.376	1	-4
466.717	1	-1
467.058	1	-4
467.399	1	1
467.740	1	4
468.081	1	-3
468.422	1	-1
468.762	1	-6
469.103	1	-10
469.444	1	-7
469.785	1	-12
470.126	1	-1
470.467	1	-2
470.807	1	-1
471.148	1	4
471.489	1	1
471.830	1	2
472.171	1	1
472.511	1	-1
472.852	1	0
473.193	1	7
473.534	1	13
473.875	1	20
474.215	1	18
474.556	1	6
474.897	1	0
475.238	1	2
475.578	1	1
475.919	1	-5
476.260	1	3
476.601	1	-5
476.942	1	4
477.282	1	-1
477.623	1	-2
477.964	1	2
478.305	1	7
478.645	1	9
478.986	1	2
479.327	1	-17
479.667	1	0
480.008	1	-5
480.349	1	-5
480.690	1	0
481.030	1	2
481.371	1	9
481.712	1	1
482.053	1	5
482.393	1	-3
482.734	1	-5
483.075	1	1
483.415	1	4
483.756	1	13
484.097	1	2
484.437	1	-2
484.778	1	9
485.119	1	1
485.459	1	16
485.800	1	7
486.141	1	3
486.481	1	5
486.822	1	10
487.163	1	7
487.503	1	14
487.844	1	9
488.185	1	8
488.525	1	5
488.866	1	4
489.207	1	0
489.547	1	1
489.888	1	-2
490.228	1	7
490.569	1	14
490.910	1	-1
491.250	1	7
491.591	1	-5
491.932	1	2
492.272	1	10
492.613	1	4
492.953	1	4
493.294	1	2
493.635	1	5
493.975	1	4
494.316	1	11
494.656	1	7
494.997	1	-3
495.337	1	11
495.678	1	2
496.019	1	5
496.359	1	0
496.700	1	7
497.040	1	-5
497.381	1	3
497.721	1	10
498.062	1	11
498.403	1	6
498.743	1	-3
499.084	1	4
499.424	1	6
499.765	1	5
500.105	1	7
500.446	1	-2
500.786	1	-5
501.127	1	5
501.467	1	9
501.808	1	5
502.148	1	10
502.489	1	19
502.829	1	12
503.170	1	12
503.510	1	18
503.851	1	12
504.191	1	19
504.532	1	18
504.872	1	6
505.213	1	19
505.553	1	0
505.894	1	2
506.234	1	10
506.575	1	9
506.915	1	15
507.256	1	8
507.596	1	14
507.936	1	19
508.277	1	8
508.617	1	8
508.958	1	-3
509.298	1	12
509.639	1	7
509.979	1	5
510.319	1	20
510.660	1	-1
511.000	1	0
511.341	1	8
511.681	1	17
512.022	1	-4
512.362	1	9
512.702	1	5
513.043	1	9
513.383	1	14
513.724	1	11
514.064	1	23
514.404	1	7
514.745	1	10
515.085	1	13
515.425	1	8
515.766	1	0
516.106	1	2
516.447	1	18
516.787	1	18
517.127	1	9
517.468	1	9
517.808	1	8
518.148	1	18
518.489	1	9
518.829	1	11
519.169	1	13
519.510	1	10
519.850	1	16
520.190	1	0
520.531	1	14
520.871	1	5
521.211	1	0
521.552	1	17
521.892	1	12
522.232	1	10
522.573	1	8
522.913	1	8
523.253	1	12
523.593	1	8
523.934	1	7
524.274	1	9
524.614	1	19
524.955	1	6
525.295	1	14
525.635	1	10
525.975	1	14
526.316	1	27
526.656	1	8
526.996	1	18
527.337	1	7
527.677	1	21
528.017	1	2
528.357	1	17
528.698	1	9
529.038	1	21
529.378	1	13
529.718	1	9
530.058	1	10
530.399	1	20
530.739	1	18
531.079	1	13
531.419	1	16
531.760	1	21
532.100	1	14
532.440	1	15
532.780	1	9
533.120	1	20
533.461	1	19
533.801	1	16
534.141	1	15
534.481	1	5
534.821	1	17
535.162	1	21
535.502	1	16
535.842	1	29
536.182	1	21
536.522	1	13
536.862	1	13
537.203	1	9
537.543	1	12
537.883	1	20
538.223	1	18
538.563	1	22
538.903	1	8
539.243	1	15
539.584	1	12
539.924	1	21
540.264	1	9
540.604	1	16
540.944	1	13
541.284	1	22
541.624	1	18
541.964	1	18
542.305	1	20
542.645	1	12
542.985	1	5
543.325	1	20
543.665	1	19
544.005	1	9
544.345	1	21
544.685	1	8
545.025	1	18
545.365	1	5
545.705	1	16
546.045	1	14
546.386	1	23
546.726	1	7
547.066	1	19
547.406	1	15
547.746	1	4
548.086	1	16
548.426	1	6
548.766	1	10
549.106	1	14
549.446	1	12
549.786	1	15
550.126	1	35
550.466	1	19
550.806	1	11
551.146	1	15
551.486	1	13
551.826	1	22
552.166	1	19
552.506	1	19
552.846	1	14
553.186	1	25
553.526	1	17
553.866	1	18
554.206	1	13
554.546	1	26
554.886	1	11
555.226	1	9
555.566	1	25
555.906	1	15
556.246	1	16
556.586	1	11
556.926	1	20
557.266	1	11
557.606	1	18
557.946	1	20
558.286	1	18
558.626	1	21
558.966	1	3
559.306	1	11
559.646	1	10
559.986	1	8
560.325	1	17
560.665	1	16
561.005	1	8
561.345	1	10
561.685	1	25
562.025	1	14
562.365	1	16
562.705	1	17
563.045	1	11
563.385	1	9
563.725	1	19
564.064	1	18
564.404	1	20
564.744	1	25
565.084	1	24
565.424	1	12
565.764	1	22
566.104	1	10
566.444	1	6
566.783	1	5
567.123	1	15
567.463	1	19
567.803	1	11
568.143	1	3
568.483	1	19
568.823	1	20
569.162	1	25
569.502	1	9
569.842	1	15
570.182	1	15
570.522	1	13
570.862	1	14
571.201	1	25
571.541	1	20
571.881	1	22
572.221	1	17
572.561	1	9
572.900	1	10
573.240	1	19
573.580	1	21
573.920	1	21
574.260	1	25
574.599	1	12
574.939	1	9
575.279	1	28
575.619	1	22
575.959	1	10
576.298	1	20
576.638	1	7
576.978	1	17
577.318	1	13
577.657	1	13
577.997	1	12
578.337	1	23
578.677	1	13
579.016	1	25
579.356	1	9
579.696	1	24
580.036	1	15
580.375	1	14
580.715	1	17
581.055	1	11
581.394	1	14
581.734	1	11
582.074	1	13
582.414	1	16
582.753	1	10
583.093	1	12
583.433	1	4
583.772	1	19
584.112	1	9
584.452	1	11
584.791	1	10
585.131	1	13
585.471	1	32
585.811	1	18
586.150	1	13
586.490	1	12
586.830	1	12
587.169	1	18
587.509	1	14
587.849	1	-1
588.188	1	23
588.528	1	19
588.867	1	23
589.207	1	17
589.547	1	17
589.886	1	4
590.226	1	22
590.566	1	11
590.905	1	11
591.245	1	18
591.585	1	31
591.924	1	9
592.264	1	9
592.603	1	10
592.943	1	10
593.283	1	16
593.622	1	9
593.962	1	6
594.301	1	20
594.641	1	8
594.981	1	11
595.320	1	16
595.660	1	12
595.999	1	-6
596.339	1	18
596.678	1	17
597.018	1	9
597.358	1	11
597.697	1	4
598.037	1	8
598.376	1	18
598.716	1	20
599.055	1	18
599.395	1	11
599.734	1	15
600.074	1	9
600.413	1	22
600.753	1	11
601.092	1	18
601.432	1	6
601.771	1	15
602.111	1	11
602.451	1	11
602.790	1	13
603.130	1	17
603.469	1	12
603.809	1	16
604.148	1	15
604.487	1	8
604.827	1	22
605.166	1	10
605.506	1	6
605.845	1	9
606.185	1	15
606.524	1	12
606.864	1	8
607.203	1	9
607.543	1	12
607.882	1	23
608.222	1	13
608.561	1	12
608.901	1	19
609.240	1	5
609.579	1	21
609.919	1	17
610.258	1	14
610.598	1	7
610.937	1	12
611.277	1	15
611.616	1	2
611.955	1	11
612.295	1	4
612.634	1	12
612.974	1	0
613.313	1	17
613.652	1	17
613.992	1	7
614.331	1	9
614.671	1	12
615.010	1	4
615.349	1	11
615.689	1	8
616.028	1	18
616.368	1	14
616.707	1	10
617.046	1	6
617.386	1	9
617.725	1	-1
618.064	1	11
618.404	1	5
618.743	1	11
619.082	1	6
619.422	1	-3
619.761	1	2
620.100	1	18
620.440	1	9
620.779	1	-5
621.118	1	11
621.458	1	14
621.797	1	9
622.136	1	23
622.476	1	14
622.815	1	21
623.154	1	13
623.494	1	15
623.833	1	9
624.172	1	6
624.511	1	12
624.851	1	0
625.190	1	8
625.529	1	4
625.869	1	12
626.208	1	11
626.547	1	9
626.886	1	8
627.226	1	4
627.565	1	2
627.904	1	-1
628.243	1	17
628.583	1	8
628.922	1	7
629.261	1	13
629.600	1	18
629.940	1	11
630.279	1	0
630.618	1	6
630.957	1	6
631.297	1	4
631.636	1	2
631.975	1	15
632.314	1	5
632.653	1	11
632.993	1	12
633.332	1	8
633.671	1	7
634.010	1	1
634.349	1	16
634.689	1	10
635.028	1	12
635.367	1	10
635.706	1	9
636.045	1	23
636.384	1	7
636.724	1	19
637.063	1	5
637.402	1	6
637.741	1	1
638.080	1	13
638.419	1	11
638.759	1	4
639.098	1	10
639.437	1	10
639.776	1	4
640.115	1	10
640.454	1	10
640.793	1	15
641.132	1	13
641.472	1	8
641.811	1	13
642.150	1	-6
642.489	1	11
642.828	1	1
643.167	1	8
643.506	1	4
643.845	1	8
644.184	1	7
644.524	1	-6
644.863	1	-3
645.202	1	7
645.541	1	18
645.880	1	0
646.219	1	14
646.558	1	3
646.897	1	6
647.236	1	17
647.575	1	11
647.914	1	8
648.253	1	7
648.592	1	9
648.931	1	17
649.270	1	5
649.610	1	8
649.949	1	-4
650.288	1	5
650.627	1	4
650.966	1	9
651.305	1	16
651.644	1	18
651.983	1	11
652.322	1	4
652.661	1	5
653.000	1	6
653.339	1	13
653.678	1	3
654.017	1	6
654.356	1	-7
654.695	1	12
655.034	1	11
655.373	1	16
655.712	1	8
656.051	1	4
656.390	1	4
656.729	1	12
657.068	1	0
657.406	1	11
657.745	1	-4
658.084	1	6
658.423	1	20
658.762	1	0
659.101	1	19
659.440	1	9
659.779	1	4
660.118	1	11
660.457	1	8
660.796	1	-5
661.135	1	8
661.474	1	-2
661.813	1	20
662.152	1	13
662.491	1	1
662.829	1	-10
663.168	1	10
663.507	1	12
663.846	1	7
664.185	1	17
664.524	1	5
664.863	1	4
665.202	1	16
665.541	1	-1
665.879	1	7
666.218	1	6
666.557	1	7
666.896	1	-3
667.235	1	1
667.574	1	2
667.913	1	8
668.251	1	-1
668.590	1	2
668.929	1	-2
669.268	1	9
669.607	1	3
669.946	1	9
670.285	1	12
670.623	1	5
670.962	1	3
671.301	1	8
671.640	1	9
671.979	1	0
672.317	1	8
672.656	1	8
672.995	1	10
673.334	1	8
673.673	1	7
674.011	1	7
674.350	1	8
674.689	1	8
675.028	1	-3
675.367	1	8
675.705	1	2
676.044	1	3
676.383	1	14
676.722	1	9
677.060	1	-2
677.399	1	4
677.738	1	11
678.077	1	11
678.416	1	6
678.754	1	-4
679.093	1	18
679.432	1	2
679.771	1	8
680.109	1	5
680.448	1	5
680.787	1	4
681.125	1	10
681.464	1	-2
681.803	1	7
682.142	1	11
682.480	1	17
682.819	1	3
683.158	1	5
683.496	1	8
683.835	1	10
684.174	1	-4
684.512	1	16
684.851	1	12
685.190	1	-1
685.529	1	5
685.867	1	20
686.206	1	-4
686.545	1	1
686.883	1	18
687.222	1	10
687.561	1	7
687.899	1	3
688.238	1	12
688.577	1	13
688.746	1	15