File: Data/GaN_200K_800ms/GaN_sample F_spot 12_UVVIS_200 K_200um_800 ms 2x2mm1_540.txt
340.368	1	-2
340.710	1	-3
341.052	1	1
341.394	1	-1
341.737	1	-2
342.079	1	-2
342.421	1	4
342.763	1	6
343.105	1	3
343.447	1	-10
343.789	1	-6
344.131	1	-9
344.473	1	-11
344.815	1	-6
345.157	1	-8
345.499	1	-4
345.841	1	6
346.183	1	-8
346.526	1	-16
346.868	1	8
347.210	1	-7
347.552	1	-5
347.894	1	6
348.236	1	7
348.578	1	-2
348.920	1	-6
349.262	1	-6
349.604	1	1
349.946	1	-11
350.288	1	8
350.630	1	4
350.972	1	5
351.314	1	1
351.656	1	2
351.998	1	-1
352.340	1	-2
352.682	1	3
353.024	1	-2
353.366	1	12
353.708	1	1
354.050	1	-9
354.392	1	-5
354.734	1	7
355.076	1	4
355.418	1	-6
355.760	1	-2
356.102	1	9
356.444	1	2
356.785	1	4
357.127	1	8
357.469	1	-6
357.811	1	3
358.153	1	2
358.495	1	9
358.837	1	-7
359.179	1	-5
359.521	1	9
359.863	1	-4
360.205	1	-2
360.547	1	6
360.889	1	-10
361.231	1	-9
361.572	1	3
361.914	1	4
362.256	1	0
362.598	1	-9
362.940	1	-2
363.282	1	6
363.624	1	11
363.966	1	-1
364.308	1	7
364.649	1	8
364.991	1	4
365.333	1	-4
365.675	1	-2
366.017	1	6
366.359	1	0
366.701	1	2
367.042	1	9
367.384	1	10
367.726	1	10
368.068	1	12
368.410	1	13
368.752	1	5
369.093	1	5
369.435	1	13
369.777	1	5
370.119	1	0
370.461	1	23
370.803	1	12
371.144	1	2
371.486	1	9
371.828	1	7
372.170	1	5
372.512	1	8
372.853	1	9
373.195	1	2
373.537	1	3
373.879	1	-3
374.220	1	15
374.562	1	9
374.904	1	3
375.246	1	4
375.588	1	2
375.929	1	11
376.271	1	6
376.613	1	-4
376.955	1	-2
377.296	1	-1
377.638	1	6
377.980	1	2
378.321	1	-12
378.663	1	-6
379.005	1	3
379.347	1	2
379.688	1	4
380.030	1	-1
380.372	1	-2
380.714	1	7
381.055	1	5
381.397	1	-3
381.739	1	0
382.080	1	1
382.422	1	-3
382.764	1	-11
383.105	1	-2
383.447	1	-4
383.789	1	-9
384.130	1	-5
384.472	1	2
384.814	1	4
385.156	1	-2
385.497	1	0
385.839	1	-3
386.180	1	-5
386.522	1	5
386.864	1	5
387.205	1	-5
387.547	1	-11
387.889	1	2
388.230	1	-2
388.572	1	3
388.914	1	-7
389.255	1	-1
389.597	1	-4
389.939	1	-6
390.280	1	-6
390.622	1	-5
390.963	1	7
391.305	1	2
391.647	1	2
391.988	1	3
392.330	1	5
392.671	1	-4
393.013	1	3
393.355	1	8
393.696	1	-2
394.038	1	-2
394.379	1	3
394.721	1	-9
395.062	1	1
395.404	1	-6
395.746	1	7
396.087	1	-5
396.429	1	-1
396.770	1	2
397.112	1	1
397.453	1	10
397.795	1	4
398.136	1	-6
398.478	1	-1
398.819	1	3
399.161	1	7
399.503	1	3
399.844	1	-2
400.186	1	-1
400.527	1	-5
400.869	1	0
401.210	1	2
401.552	1	-8
401.893	1	-8
402.235	1	4
402.576	1	-6
402.918	1	11
403.259	1	-1
403.601	1	-2
403.942	1	15
404.284	1	0
404.625	1	4
404.967	1	6
405.308	1	2
405.649	1	1
405.991	1	-2
406.332	1	-4
406.674	1	-4
407.015	1	6
407.357	1	-8
407.698	1	-4
408.040	1	-2
408.381	1	2
408.722	1	-12
409.064	1	1
409.405	1	-1
409.747	1	0
410.088	1	1
410.430	1	6
410.771	1	13
411.112	1	0
411.454	1	-10
411.795	1	-11
412.137	1	8
412.478	1	12
412.819	1	-7
413.161	1	-12
413.502	1	-3
413.844	1	-4
414.185	1	3
414.526	1	-3
414.868	1	-2
415.209	1	0
415.550	1	-16
415.892	1	1
416.233	1	2
416.575	1	10
416.916	1	-1
417.257	1	-5
417.599	1	-2
417.940	1	3
418.281	1	1
418.623	1	-12
418.964	1	-10
419.305	1	5
419.647	1	-2
419.988	1	-5
420.329	1	-9
420.671	1	-3
421.012	1	-6
421.353	1	-4
421.695	1	-10
422.036	1	2
422.377	1	-3
422.718	1	2
423.060	1	-5
423.401	1	0
423.742	1	0
424.084	1	-2
424.425	1	0
424.766	1	-3
425.107	1	-9
425.449	1	4
425.790	1	-17
426.131	1	-8
426.472	1	3
426.814	1	1
427.155	1	-9
427.496	1	3
427.837	1	-6
428.179	1	-8
428.520	1	-10
428.861	1	-1
429.202	1	0
429.544	1	1
429.885	1	-2
430.226	1	-9
430.567	1	-1
430.909	1	0
431.250	1	-5
431.591	1	0
431.932	1	-4
432.273	1	1
432.615	1	-4
432.956	1	-7
433.297	1	-2
433.638	1	-7
433.979	1	5
434.320	1	-2
434.662	1	5
435.003	1	0
435.344	1	1
435.685	1	-4
436.026	1	1
436.368	1	-1
436.709	1	0
437.050	1	-5
437.391	1	12
437.732	1	-18
438.073	1	3
438.414	1	-9
438.756	1	-7
439.097	1	-4
439.438	1	-2
439.779	1	-5
440.120	1	-1
440.461	1	3
440.802	1	-13
441.143	1	1
441.485	1	-1
441.826	1	-1
442.167	1	-2
442.508	1	-10
442.849	1	2
443.190	1	-2
443.531	1	4
443.872	1	7
444.213	1	5
444.554	1	7
444.895	1	-9
445.237	1	-12
445.578	1	-16
445.919	1	-11
446.260	1	-6
446.601	1	-3
446.942	1	-1
447.283	1	-6
447.624	1	3
447.965	1	0
448.306	1	-6
448.647	1	-15
448.988	1	-7
449.329	1	3
449.670	1	16
450.011	1	1
450.352	1	0
450.693	1	-6
451.034	1	-12
451.375	1	-4
451.716	1	1
452.057	1	4
452.398	1	1
452.739	1	4
453.080	1	6
453.421	1	5
453.762	1	4
454.103	1	2
454.444	1	-3
454.785	1	-1
455.126	1	-8
455.467	1	-7
455.808	1	4
456.149	1	3
456.490	1	-2
456.831	1	-1
457.172	1	-4
457.513	1	6
457.854	1	-10
458.195	1	-5
458.536	1	5
458.877	1	0
459.218	1	-4
459.559	1	-1
459.899	1	2
460.240	1	-1
460.581	1	8
460.922	1	-1
461.263	1	-1
461.604	1	-2
461.945	1	-13
462.286	1	-8
462.627	1	5
462.968	1	-9
463.309	1	-3
463.649	1	-9
463.990	1	0
464.331	1	-4
464.672	1	0
465.013	1	-1
465.354	1	4
465.695	1	-1
466.036	1	4
466.376	1	-4
466.717	1	-1
467.058	1	1
467.399	1	5
467.740	1	-6
468.081	1	-5
468.422	1	-1
468.762	1	-6
469.103	1	-7
469.444	1	-6
469.785	1	-15
470.126	1	-12
470.467	1	-6
470.807	1	2
471.148	1	-1
471.489	1	-2
471.830	1	-8
472.171	1	5
472.511	1	-7
472.852	1	7
473.193	1	7
473.534	1	8
473.875	1	7
474.215	1	13
474.556	1	-4
474.897	1	1
475.238	1	-3
475.578	1	-12
475.919	1	-3
476.260	1	2
476.601	1	-2
476.942	1	10
477.282	1	-12
477.623	1	-11
477.964	1	-7
478.305	1	1
478.645	1	6
478.986	1	-2
479.327	1	-11
479.667	1	-6
480.008	1	-12
480.349	1	-2
480.690	1	0
481.030	1	-9
481.371	1	2
481.712	1	3
482.053	1	-1
482.393	1	-1
482.734	1	-7
483.075	1	-4
483.415	1	-4
483.756	1	12
484.097	1	-12
484.437	1	-11
484.778	1	3
485.119	1	-5
485.459	1	12
485.800	1	-6
486.141	1	-6
486.481	1	0
486.822	1	3
487.163	1	-6
487.503	1	-5
487.844	1	-3
488.185	1	-3
488.525	1	2
488.866	1	3
489.207	1	-6
489.547	1	-1
489.888	1	1
490.228	1	6
490.569	1	7
490.910	1	-1
491.250	1	-7
491.591	1	-6
491.932	1	-8
492.272	1	-6
492.613	1	-7
492.953	1	-8
493.294	1	-4
493.635	1	-9
493.975	1	-6
494.316	1	2
494.656	1	-5
494.997	1	-10
495.337	1	9
495.678	1	2
496.019	1	-5
496.359	1	-1
496.700	1	-1
497.040	1	-6
497.381	1	1
497.721	1	-4
498.062	1	-1
498.403	1	5
498.743	1	-8
499.084	1	-3
499.424	1	-5
499.765	1	-6
500.105	1	5
500.446	1	-13
500.786	1	-12
501.127	1	-4
501.467	1	-2
501.808	1	-6
502.148	1	7
502.489	1	-4
502.829	1	2
503.170	1	8
503.510	1	2
503.851	1	4
504.191	1	9
504.532	1	1
504.872	1	-1
505.213	1	14
505.553	1	10
505.894	1	0
506.234	1	4
506.575	1	0
506.915	1	3
507.256	1	0
507.596	1	6
507.936	1	-6
508.277	1	6
508.617	1	-3
508.958	1	-9
509.298	1	-1
509.639	1	-5
509.979	1	1
510.319	1	5
510.660	1	-9
511.000	1	0
511.341	1	1
511.681	1	2
512.022	1	-13
512.362	1	-9
512.702	1	-4
513.043	1	0
513.383	1	-16
513.724	1	1
514.064	1	10
514.404	1	-2
514.745	1	-11
515.085	1	-3
515.425	1	-8
515.766	1	-8
516.106	1	3
516.447	1	10
516.787	1	-1
517.127	1	-8
517.468	1	0
517.808	1	-5
518.148	1	-8
518.489	1	2
518.829	1	5
519.169	1	1
519.510	1	-1
519.850	1	-4
520.190	1	1
520.531	1	6
520.871	1	-5
521.211	1	-10
521.552	1	4
521.892	1	0
522.232	1	-2
522.573	1	-10
522.913	1	-2
523.253	1	8
523.593	1	-2
523.934	1	-2
524.274	1	-1
524.614	1	-7
524.955	1	-5
525.295	1	-6
525.635	1	-8
525.975	1	-2
526.316	1	2
526.656	1	1
526.996	1	9
527.337	1	-3
527.677	1	4
528.017	1	-8
528.357	1	-1
528.698	1	5
529.038	1	-8
529.378	1	-4
529.718	1	8
530.058	1	-8
530.399	1	8
530.739	1	0
531.079	1	3
531.419	1	2
531.760	1	6
532.100	1	-10
532.440	1	-6
532.780	1	-3
533.120	1	8
533.461	1	-6
533.801	1	12
534.141	1	-17
534.481	1	-8
534.821	1	1
535.162	1	-1
535.502	1	-15
535.842	1	1
536.182	1	2
536.522	1	-10
536.862	1	10
537.203	1	-7
537.543	1	2
537.883	1	-7
538.223	1	1
538.563	1	2
538.903	1	-1
539.243	1	-12
539.584	1	-2
539.924	1	6
540.264	1	-2
540.604	1	0
540.944	1	0
541.284	1	2
541.624	1	6
541.964	1	10
542.305	1	2
542.645	1	6
542.985	1	0
543.325	1	-4
543.665	1	1
544.005	1	1
544.345	1	5
544.685	1	-2
545.025	1	3
545.365	1	-3
545.705	1	-7
546.045	1	-4
546.386	1	-1
546.726	1	-8
547.066	1	1
547.406	1	-1
547.746	1	-11
548.086	1	-9
548.426	1	-8
548.766	1	2
549.106	1	-3
549.446	1	-2
549.786	1	-6
550.126	1	15
550.466	1	0
550.806	1	-4
551.146	1	4
551.486	1	-12
551.826	1	4
552.166	1	-5
552.506	1	5
552.846	1	-4
553.186	1	0
553.526	1	-1
553.866	1	-8
554.206	1	9
554.546	1	0
554.886	1	4
555.226	1	-7
555.566	1	3
555.906	1	6
556.246	1	-1
556.586	1	1
556.926	1	-1
557.266	1	0
557.606	1	3
557.946	1	8
558.286	1	2
558.626	1	5
558.966	1	0
559.306	1	-11
559.646	1	2
559.986	1	-10
560.325	1	-6
560.665	1	1
561.005	1	-12
561.345	1	0
561.685	1	3
562.025	1	-5
562.365	1	1
562.705	1	-5
563.045	1	0
563.385	1	-7
563.725	1	2
564.064	1	7
564.404	1	2
564.744	1	1
565.084	1	-11
565.424	1	5
565.764	1	-2
566.104	1	2
566.444	1	-7
566.783	1	-10
567.123	1	4
567.463	1	-1
567.803	1	-6
568.143	1	-10
568.483	1	14
568.823	1	-8
569.162	1	15
569.502	1	-1
569.842	1	5
570.182	1	-1
570.522	1	-5
570.862	1	-6
571.201	1	3
571.541	1	2
571.881	1	18
572.221	1	-10
572.561	1	-8
572.900	1	-10
573.240	1	-4
573.580	1	3
573.920	1	4
574.260	1	2
574.599	1	3
574.939	1	2
575.279	1	9
575.619	1	-1
575.959	1	-8
576.298	1	9
576.638	1	0
576.978	1	11
577.318	1	-4
577.657	1	-16
577.997	1	-1
578.337	1	12
578.677	1	1
579.016	1	4
579.356	1	-3
579.696	1	7
580.036	1	-6
580.375	1	11
580.715	1	-7
581.055	1	-5
581.394	1	-9
581.734	1	-11
582.074	1	-7
582.414	1	7
582.753	1	-1
583.093	1	-4
583.433	1	-8
583.772	1	1
584.112	1	0
584.452	1	5
584.791	1	-8
585.131	1	4
585.471	1	-3
585.811	1	2
586.150	1	-6
586.490	1	0
586.830	1	-1
587.169	1	-3
587.509	1	4
587.849	1	-1
588.188	1	6
588.528	1	8
588.867	1	1
589.207	1	-1
589.547	1	-7
589.886	1	-3
590.226	1	2
590.566	1	-1
590.905	1	-6
591.245	1	1
591.585	1	-1
591.924	1	-8
592.264	1	1
592.603	1	2
592.943	1	-2
593.283	1	3
593.622	1	-3
593.962	1	6
594.301	1	-1
594.641	1	-9
594.981	1	-7
595.320	1	-3
595.660	1	4
595.999	1	-14
596.339	1	2
596.678	1	0
597.018	1	1
597.358	1	4
597.697	1	-9
598.037	1	4
598.376	1	5
598.716	1	-6
599.055	1	4
599.395	1	-4
599.734	1	4
600.074	1	1
600.413	1	5
600.753	1	0
601.092	1	10
601.432	1	-11
601.771	1	5
602.111	1	3
602.451	1	3
602.790	1	1
603.130	1	0
603.469	1	-9
603.809	1	4
604.148	1	3
604.487	1	-5
604.827	1	3
605.166	1	6
605.506	1	-2
605.845	1	-1
606.185	1	9
606.524	1	-1
606.864	1	-2
607.203	1	-6
607.543	1	-19
607.882	1	2
608.222	1	-4
608.561	1	0
608.901	1	-4
609.240	1	-15
609.579	1	8
609.919	1	13
610.258	1	5
610.598	1	2
610.937	1	1
611.277	1	-4
611.616	1	-5
611.955	1	-5
612.295	1	-6
612.634	1	-2
612.974	1	-11
613.313	1	10
613.652	1	1
613.992	1	3
614.331	1	0
614.671	1	7
615.010	1	-11
615.349	1	6
615.689	1	3
616.028	1	-2
616.368	1	2
616.707	1	-4
617.046	1	-5
617.386	1	-2
617.725	1	5
618.064	1	-1
618.404	1	-4
618.743	1	1
619.082	1	7
619.422	1	-10
619.761	1	0
620.100	1	3
620.440	1	-2
620.779	1	-1
621.118	1	-2
621.458	1	3
621.797	1	3
622.136	1	10
622.476	1	3
622.815	1	1
623.154	1	-4
623.494	1	9
623.833	1	9
624.172	1	-12
624.511	1	-6
624.851	1	-16
625.190	1	-5
625.529	1	-7
625.869	1	6
626.208	1	-1
626.547	1	1
626.886	1	3
627.226	1	0
627.565	1	0
627.904	1	-2
628.243	1	2
628.583	1	-5
628.922	1	-3
629.261	1	-6
629.600	1	3
629.940	1	-2
630.279	1	0
630.618	1	3
630.957	1	4
631.297	1	-5
631.636	1	-12
631.975	1	11
632.314	1	0
632.653	1	-1
632.993	1	-8
633.332	1	0
633.671	1	-7
634.010	1	-10
634.349	1	-1
634.689	1	2
635.028	1	3
635.367	1	4
635.706	1	0
636.045	1	15
636.384	1	-1
636.724	1	2
637.063	1	-4
637.402	1	2
637.741	1	-2
638.080	1	-6
638.419	1	-5
638.759	1	-8
639.098	1	9
639.437	1	7
639.776	1	-4
640.115	1	-1
640.454	1	-15
640.793	1	-3
641.132	1	5
641.472	1	0
641.811	1	-1
642.150	1	-2
642.489	1	1
642.828	1	-1
643.167	1	-6
643.506	1	-5
643.845	1	1
644.184	1	3
644.524	1	-6
644.863	1	-4
645.202	1	6
645.541	1	2
645.880	1	0
646.219	1	0
646.558	1	-4
646.897	1	1
647.236	1	-2
647.575	1	2
647.914	1	-3
648.253	1	6
648.592	1	-6
648.931	1	6
649.270	1	-2
649.610	1	-7
649.949	1	-1
650.288	1	0
650.627	1	-2
650.966	1	6
651.305	1	5
651.644	1	3
651.983	1	1
652.322	1	-10
652.661	1	-3
653.000	1	-3
653.339	1	8
653.678	1	-6
654.017	1	-7
654.356	1	-6
654.695	1	-2
655.034	1	4
655.373	1	10
655.712	1	1
656.051	1	1
656.390	1	-12
656.729	1	7
657.068	1	-4
657.406	1	6
657.745	1	1
658.084	1	-5
658.423	1	8
658.762	1	-1
659.101	1	2
659.440	1	-9
659.779	1	-3
660.118	1	8
660.457	1	-2
660.796	1	-7
661.135	1	-14
661.474	1	-1
661.813	1	6
662.152	1	3
662.491	1	-3
662.829	1	-7
663.168	1	-1
663.507	1	8
663.846	1	-7
664.185	1	9
664.524	1	2
664.863	1	-5
665.202	1	6
665.541	1	-11
665.879	1	-3
666.218	1	-7
666.557	1	-8
666.896	1	-2
667.235	1	1
667.574	1	2
667.913	1	-2
668.251	1	-4
668.590	1	-11
668.929	1	-13
669.268	1	-8
669.607	1	-5
669.946	1	-6
670.285	1	0
670.623	1	-3
670.962	1	-2
671.301	1	2
671.640	1	-5
671.979	1	1
672.317	1	3
672.656	1	3
672.995	1	4
673.334	1	-4
673.673	1	-2
674.011	1	1
674.350	1	3
674.689	1	1
675.028	1	-7
675.367	1	1
675.705	1	6
676.044	1	-9
676.383	1	-2
676.722	1	5
677.060	1	-1
677.399	1	-7
677.738	1	-3
678.077	1	10
678.416	1	0
678.754	1	-6
679.093	1	-1
679.432	1	-7
679.771	1	-10
680.109	1	5
680.448	1	-5
680.787	1	-10
681.125	1	0
681.464	1	2
681.803	1	-1
682.142	1	4
682.480	1	11
682.819	1	0
683.158	1	-5
683.496	1	-2
683.835	1	-11
684.174	1	-8
684.512	1	-2
684.851	1	1
685.190	1	-3
685.529	1	-1
685.867	1	-2
686.206	1	-14
686.545	1	-6
686.883	1	-5
687.222	1	3
687.561	1	-4
687.899	1	2
688.238	1	4
688.577	1	-3
688.746	1	1