File: Data/GaN_200K_800ms/GaN_sample F_spot 12_UVVIS_200 K_200um_800 ms 2x2mm1_79.txt
340.368	1	4
340.710	1	-7
341.052	1	6
341.394	1	2
341.737	1	12
342.079	1	3
342.421	1	3
342.763	1	8
343.105	1	8
343.447	1	-10
343.789	1	-8
344.131	1	1
344.473	1	5
344.815	1	-5
345.157	1	-3
345.499	1	2
345.841	1	11
346.183	1	4
346.526	1	3
346.868	1	9
347.210	1	10
347.552	1	3
347.894	1	14
348.236	1	0
348.578	1	4
348.920	1	-1
349.262	1	1
349.604	1	8
349.946	1	-6
350.288	1	8
350.630	1	6
350.972	1	7
351.314	1	11
351.656	1	6
351.998	1	8
352.340	1	6
352.682	1	11
353.024	1	17
353.366	1	20
353.708	1	15
354.050	1	-2
354.392	1	7
354.734	1	8
355.076	1	18
355.418	1	-5
355.760	1	6
356.102	1	21
356.444	1	15
356.785	1	15
357.127	1	21
357.469	1	15
357.811	1	15
358.153	1	29
358.495	1	23
358.837	1	13
359.179	1	21
359.521	1	32
359.863	1	25
360.205	1	20
360.547	1	39
360.889	1	25
361.231	1	37
361.572	1	42
361.914	1	38
362.256	1	39
362.598	1	45
362.940	1	47
363.282	1	55
363.624	1	65
363.966	1	56
364.308	1	58
364.649	1	73
364.991	1	74
365.333	1	87
365.675	1	76
366.017	1	89
366.359	1	95
366.701	1	105
367.042	1	124
367.384	1	118
367.726	1	136
368.068	1	140
368.410	1	150
368.752	1	149
369.093	1	139
369.435	1	157
369.777	1	144
370.119	1	152
370.461	1	165
370.803	1	145
371.144	1	137
371.486	1	149
371.828	1	139
372.170	1	135
372.512	1	108
372.853	1	120
373.195	1	119
373.537	1	115
373.879	1	108
374.220	1	112
374.562	1	99
374.904	1	85
375.246	1	81
375.588	1	84
375.929	1	84
376.271	1	72
376.613	1	59
376.955	1	58
377.296	1	69
377.638	1	66
377.980	1	61
378.321	1	48
378.663	1	51
379.005	1	66
379.347	1	54
379.688	1	54
380.030	1	42
380.372	1	43
380.714	1	49
381.055	1	49
381.397	1	36
381.739	1	43
382.080	1	43
382.422	1	38
382.764	1	37
383.105	1	30
383.447	1	33
383.789	1	24
384.130	1	35
384.472	1	32
384.814	1	31
385.156	1	23
385.497	1	28
385.839	1	31
386.180	1	30
386.522	1	36
386.864	1	35
387.205	1	14
387.547	1	23
387.889	1	27
388.230	1	22
388.572	1	11
388.914	1	20
389.255	1	16
389.597	1	13
389.939	1	26
390.280	1	4
390.622	1	16
390.963	1	35
391.305	1	13
391.647	1	17
391.988	1	28
392.330	1	11
392.671	1	16
393.013	1	18
393.355	1	24
393.696	1	14
394.038	1	16
394.379	1	11
394.721	1	9
395.062	1	13
395.404	1	3
395.746	1	20
396.087	1	12
396.429	1	10
396.770	1	4
397.112	1	18
397.453	1	24
397.795	1	11
398.136	1	5
398.478	1	17
398.819	1	8
399.161	1	19
399.503	1	4
399.844	1	1
400.186	1	8
400.527	1	1
400.869	1	15
401.210	1	11
401.552	1	0
401.893	1	6
402.235	1	11
402.576	1	-8
402.918	1	4
403.259	1	10
403.601	1	-5
403.942	1	14
404.284	1	11
404.625	1	18
404.967	1	13
405.308	1	5
405.649	1	0
405.991	1	0
406.332	1	6
406.674	1	6
407.015	1	9
407.357	1	4
407.698	1	11
408.040	1	7
408.381	1	7
408.722	1	-3
409.064	1	5
409.405	1	6
409.747	1	2
410.088	1	5
410.430	1	8
410.771	1	12
411.112	1	5
411.454	1	1
411.795	1	4
412.137	1	11
412.478	1	14
412.819	1	0
413.161	1	1
413.502	1	8
413.844	1	0
414.185	1	3
414.526	1	3
414.868	1	11
415.209	1	-4
415.550	1	2
415.892	1	-3
416.233	1	9
416.575	1	11
416.916	1	-7
417.257	1	5
417.599	1	3
417.940	1	6
418.281	1	9
418.623	1	7
418.964	1	-8
419.305	1	11
419.647	1	-1
419.988	1	11
420.329	1	-6
420.671	1	8
421.012	1	1
421.353	1	-5
421.695	1	3
422.036	1	8
422.377	1	-1
422.718	1	4
423.060	1	-2
423.401	1	9
423.742	1	1
424.084	1	4
424.425	1	11
424.766	1	10
425.107	1	3
425.449	1	3
425.790	1	-10
426.131	1	1
426.472	1	-4
426.814	1	3
427.155	1	-2
427.496	1	0
427.837	1	1
428.179	1	4
428.520	1	7
428.861	1	-1
429.202	1	5
429.544	1	7
429.885	1	4
430.226	1	-7
430.567	1	1
430.909	1	2
431.250	1	-1
431.591	1	15
431.932	1	-1
432.273	1	-2
432.615	1	-7
432.956	1	-2
433.297	1	4
433.638	1	5
433.979	1	6
434.320	1	4
434.662	1	3
435.003	1	10
435.344	1	10
435.685	1	-1
436.026	1	13
436.368	1	11
436.709	1	2
437.050	1	1
437.391	1	15
437.732	1	-3
438.073	1	1
438.414	1	4
438.756	1	2
439.097	1	3
439.438	1	-6
439.779	1	-1
440.120	1	-1
440.461	1	2
440.802	1	5
441.143	1	4
441.485	1	7
441.826	1	10
442.167	1	5
442.508	1	-6
442.849	1	13
443.190	1	2
443.531	1	8
443.872	1	7
444.213	1	3
444.554	1	7
444.895	1	-6
445.237	1	3
445.578	1	-4
445.919	1	0
446.260	1	3
446.601	1	-7
446.942	1	-2
447.283	1	7
447.624	1	7
447.965	1	7
448.306	1	6
448.647	1	-9
448.988	1	0
449.329	1	-4
449.670	1	6
450.011	1	20
450.352	1	1
450.693	1	2
451.034	1	-5
451.375	1	2
451.716	1	0
452.057	1	8
452.398	1	0
452.739	1	7
453.080	1	-2
453.421	1	2
453.762	1	8
454.103	1	11
454.444	1	-16
454.785	1	-12
455.126	1	-9
455.467	1	6
455.808	1	0
456.149	1	-2
456.490	1	-3
456.831	1	15
457.172	1	4
457.513	1	9
457.854	1	-5
458.195	1	-10
458.536	1	7
458.877	1	3
459.218	1	10
459.559	1	9
459.899	1	7
460.240	1	8
460.581	1	10
460.922	1	6
461.263	1	5
461.604	1	6
461.945	1	2
462.286	1	6
462.627	1	15
462.968	1	4
463.309	1	-4
463.649	1	-7
463.990	1	8
464.331	1	-3
464.672	1	4
465.013	1	-3
465.354	1	1
465.695	1	2
466.036	1	4
466.376	1	1
466.717	1	0
467.058	1	8
467.399	1	5
467.740	1	4
468.081	1	3
468.422	1	0
468.762	1	-5
469.103	1	-4
469.444	1	3
469.785	1	-5
470.126	1	-8
470.467	1	-1
470.807	1	4
471.148	1	1
471.489	1	5
471.830	1	5
472.171	1	12
472.511	1	-6
472.852	1	9
473.193	1	2
473.534	1	8
473.875	1	14
474.215	1	17
474.556	1	8
474.897	1	13
475.238	1	8
475.578	1	-6
475.919	1	0
476.260	1	5
476.601	1	4
476.942	1	7
477.282	1	0
477.623	1	-4
477.964	1	4
478.305	1	2
478.645	1	6
478.986	1	2
479.327	1	-1
479.667	1	2
480.008	1	-5
480.349	1	-6
480.690	1	-1
481.030	1	1
481.371	1	1
481.712	1	11
482.053	1	2
482.393	1	1
482.734	1	-8
483.075	1	-1
483.415	1	1
483.756	1	13
484.097	1	4
484.437	1	-3
484.778	1	14
485.119	1	-8
485.459	1	19
485.800	1	8
486.141	1	2
486.481	1	14
486.822	1	9
487.163	1	4
487.503	1	16
487.844	1	3
488.185	1	20
488.525	1	3
488.866	1	5
489.207	1	10
489.547	1	7
489.888	1	-8
490.228	1	3
490.569	1	18
490.910	1	8
491.250	1	-1
491.591	1	0
491.932	1	0
492.272	1	9
492.613	1	-5
492.953	1	-2
493.294	1	3
493.635	1	9
493.975	1	5
494.316	1	4
494.656	1	13
494.997	1	9
495.337	1	10
495.678	1	-2
496.019	1	3
496.359	1	-4
496.700	1	13
497.040	1	10
497.381	1	1
497.721	1	10
498.062	1	10
498.403	1	12
498.743	1	0
499.084	1	0
499.424	1	8
499.765	1	-3
500.105	1	8
500.446	1	-3
500.786	1	-5
501.127	1	0
501.467	1	-3
501.808	1	15
502.148	1	10
502.489	1	9
502.829	1	6
503.170	1	11
503.510	1	14
503.851	1	15
504.191	1	9
504.532	1	6
504.872	1	7
505.213	1	12
505.553	1	-1
505.894	1	3
506.234	1	9
506.575	1	12
506.915	1	6
507.256	1	10
507.596	1	14
507.936	1	4
508.277	1	18
508.617	1	14
508.958	1	3
509.298	1	6
509.639	1	0
509.979	1	2
510.319	1	18
510.660	1	9
511.000	1	10
511.341	1	14
511.681	1	17
512.022	1	6
512.362	1	3
512.702	1	10
513.043	1	22
513.383	1	-4
513.724	1	6
514.064	1	15
514.404	1	9
514.745	1	0
515.085	1	16
515.425	1	8
515.766	1	3
516.106	1	18
516.447	1	21
516.787	1	15
517.127	1	9
517.468	1	3
517.808	1	12
518.148	1	10
518.489	1	17
518.829	1	12
519.169	1	9
519.510	1	13
519.850	1	10
520.190	1	9
520.531	1	6
520.871	1	13
521.211	1	1
521.552	1	20
521.892	1	4
522.232	1	15
522.573	1	16
522.913	1	8
523.253	1	9
523.593	1	15
523.934	1	16
524.274	1	7
524.614	1	11
524.955	1	14
525.295	1	5
525.635	1	11
525.975	1	23
526.316	1	15
526.656	1	16
526.996	1	18
527.337	1	4
527.677	1	14
528.017	1	-6
528.357	1	12
528.698	1	17
529.038	1	16
529.378	1	18
529.718	1	12
530.058	1	11
530.399	1	10
530.739	1	11
531.079	1	19
531.419	1	10
531.760	1	22
532.100	1	12
532.440	1	13
532.780	1	13
533.120	1	27
533.461	1	20
533.801	1	24
534.141	1	-1
534.481	1	6
534.821	1	11
535.162	1	12
535.502	1	0
535.842	1	11
536.182	1	9
536.522	1	8
536.862	1	20
537.203	1	8
537.543	1	16
537.883	1	14
538.223	1	5
538.563	1	22
538.903	1	9
539.243	1	14
539.584	1	15
539.924	1	14
540.264	1	4
540.604	1	12
540.944	1	17
541.284	1	22
541.624	1	15
541.964	1	22
542.305	1	15
542.645	1	14
542.985	1	21
543.325	1	7
543.665	1	20
544.005	1	21
544.345	1	18
544.685	1	7
545.025	1	9
545.365	1	13
545.705	1	13
546.045	1	13
546.386	1	12
546.726	1	3
547.066	1	10
547.406	1	10
547.746	1	9
548.086	1	14
548.426	1	8
548.766	1	14
549.106	1	11
549.446	1	6
549.786	1	17
550.126	1	20
550.466	1	10
550.806	1	6
551.146	1	7
551.486	1	16
551.826	1	15
552.166	1	19
552.506	1	19
552.846	1	29
553.186	1	16
553.526	1	16
553.866	1	12
554.206	1	22
554.546	1	27
554.886	1	18
555.226	1	3
555.566	1	29
555.906	1	19
556.246	1	14
556.586	1	8
556.926	1	19
557.266	1	9
557.606	1	18
557.946	1	17
558.286	1	6
558.626	1	12
558.966	1	13
559.306	1	11
559.646	1	11
559.986	1	9
560.325	1	10
560.665	1	15
561.005	1	12
561.345	1	17
561.685	1	12
562.025	1	11
562.365	1	15
562.705	1	10
563.045	1	14
563.385	1	5
563.725	1	23
564.064	1	5
564.404	1	23
564.744	1	13
565.084	1	2
565.424	1	11
565.764	1	6
566.104	1	7
566.444	1	12
566.783	1	16
567.123	1	10
567.463	1	25
567.803	1	5
568.143	1	18
568.483	1	16
568.823	1	16
569.162	1	20
569.502	1	12
569.842	1	20
570.182	1	17
570.522	1	7
570.862	1	11
571.201	1	23
571.541	1	19
571.881	1	15
572.221	1	9
572.561	1	18
572.900	1	7
573.240	1	21
573.580	1	18
573.920	1	21
574.260	1	15
574.599	1	11
574.939	1	19
575.279	1	20
575.619	1	21
575.959	1	6
576.298	1	22
576.638	1	12
576.978	1	24
577.318	1	17
577.657	1	5
577.997	1	14
578.337	1	24
578.677	1	16
579.016	1	17
579.356	1	1
579.696	1	15
580.036	1	9
580.375	1	12
580.715	1	14
581.055	1	8
581.394	1	11
581.734	1	7
582.074	1	14
582.414	1	25
582.753	1	17
583.093	1	20
583.433	1	4
583.772	1	14
584.112	1	16
584.452	1	10
584.791	1	9
585.131	1	13
585.471	1	22
585.811	1	24
586.150	1	9
586.490	1	25
586.830	1	7
587.169	1	25
587.509	1	13
587.849	1	11
588.188	1	26
588.528	1	18
588.867	1	15
589.207	1	18
589.547	1	18
589.886	1	6
590.226	1	16
590.566	1	12
590.905	1	12
591.245	1	8
591.585	1	17
591.924	1	12
592.264	1	12
592.603	1	18
592.943	1	10
593.283	1	12
593.622	1	12
593.962	1	13
594.301	1	21
594.641	1	7
594.981	1	12
595.320	1	12
595.660	1	13
595.999	1	1
596.339	1	13
596.678	1	4
597.018	1	-2
597.358	1	11
597.697	1	18
598.037	1	11
598.376	1	10
598.716	1	17
599.055	1	23
599.395	1	13
599.734	1	17
600.074	1	10
600.413	1	20
600.753	1	20
601.092	1	16
601.432	1	8
601.771	1	19
602.111	1	2
602.451	1	19
602.790	1	20
603.130	1	20
603.469	1	3
603.809	1	10
604.148	1	5
604.487	1	17
604.827	1	13
605.166	1	26
605.506	1	12
605.845	1	14
606.185	1	20
606.524	1	6
606.864	1	14
607.203	1	10
607.543	1	12
607.882	1	15
608.222	1	17
608.561	1	9
608.901	1	22
609.240	1	4
609.579	1	24
609.919	1	22
610.258	1	16
610.598	1	9
610.937	1	10
611.277	1	6
611.616	1	10
611.955	1	12
612.295	1	7
612.634	1	6
612.974	1	6
613.313	1	15
613.652	1	9
613.992	1	6
614.331	1	5
614.671	1	12
615.010	1	5
615.349	1	15
615.689	1	9
616.028	1	9
616.368	1	10
616.707	1	9
617.046	1	10
617.386	1	8
617.725	1	2
618.064	1	2
618.404	1	0
618.743	1	9
619.082	1	4
619.422	1	11
619.761	1	20
620.100	1	14
620.440	1	9
620.779	1	-5
621.118	1	8
621.458	1	16
621.797	1	-1
622.136	1	21
622.476	1	12
622.815	1	13
623.154	1	12
623.494	1	21
623.833	1	6
624.172	1	15
624.511	1	11
624.851	1	-7
625.190	1	3
625.529	1	10
625.869	1	16
626.208	1	11
626.547	1	9
626.886	1	14
627.226	1	4
627.565	1	4
627.904	1	8
628.243	1	12
628.583	1	3
628.922	1	16
629.261	1	15
629.600	1	17
629.940	1	7
630.279	1	1
630.618	1	-1
630.957	1	8
631.297	1	6
631.636	1	-1
631.975	1	19
632.314	1	-7
632.653	1	9
632.993	1	7
633.332	1	5
633.671	1	1
634.010	1	6
634.349	1	21
634.689	1	11
635.028	1	13
635.367	1	12
635.706	1	12
636.045	1	24
636.384	1	6
636.724	1	12
637.063	1	4
637.402	1	13
637.741	1	0
638.080	1	6
638.419	1	8
638.759	1	9
639.098	1	3
639.437	1	10
639.776	1	9
640.115	1	4
640.454	1	2
640.793	1	16
641.132	1	12
641.472	1	14
641.811	1	1
642.150	1	-7
642.489	1	21
642.828	1	-3
643.167	1	-5
643.506	1	-1
643.845	1	-3
644.184	1	-1
644.524	1	0
644.863	1	3
645.202	1	6
645.541	1	6
645.880	1	11
646.219	1	5
646.558	1	8
646.897	1	4
647.236	1	8
647.575	1	8
647.914	1	3
648.253	1	18
648.592	1	-1
648.931	1	16
649.270	1	16
649.610	1	2
649.949	1	5
650.288	1	7
650.627	1	7
650.966	1	6
651.305	1	7
651.644	1	16
651.983	1	11
652.322	1	5
652.661	1	2
653.000	1	7
653.339	1	12
653.678	1	8
654.017	1	-1
654.356	1	-3
654.695	1	12
655.034	1	7
655.373	1	15
655.712	1	5
656.051	1	9
656.390	1	6
656.729	1	16
657.068	1	4
657.406	1	9
657.745	1	5
658.084	1	4
658.423	1	7
658.762	1	7
659.101	1	16
659.440	1	1
659.779	1	10
660.118	1	7
660.457	1	10
660.796	1	-5
661.135	1	6
661.474	1	3
661.813	1	13
662.152	1	6
662.491	1	6
662.829	1	5
663.168	1	8
663.507	1	6
663.846	1	-3
664.185	1	5
664.524	1	4
664.863	1	2
665.202	1	4
665.541	1	-3
665.879	1	-2
666.218	1	1
666.557	1	6
666.896	1	8
667.235	1	14
667.574	1	0
667.913	1	6
668.251	1	5
668.590	1	5
668.929	1	-12
669.268	1	10
669.607	1	-5
669.946	1	1
670.285	1	8
670.623	1	1
670.962	1	13
671.301	1	-2
671.640	1	0
671.979	1	-3
672.317	1	16
672.656	1	9
672.995	1	11
673.334	1	1
673.673	1	7
674.011	1	12
674.350	1	8
674.689	1	13
675.028	1	6
675.367	1	11
675.705	1	6
676.044	1	7
676.383	1	15
676.722	1	1
677.060	1	3
677.399	1	0
677.738	1	-1
678.077	1	8
678.416	1	10
678.754	1	-2
679.093	1	8
679.432	1	7
679.771	1	7
680.109	1	11
680.448	1	10
680.787	1	-3
681.125	1	11
681.464	1	5
681.803	1	7
682.142	1	12
682.480	1	21
682.819	1	7
683.158	1	6
683.496	1	6
683.835	1	3
684.174	1	0
684.512	1	11
684.851	1	12
685.190	1	9
685.529	1	9
685.867	1	2
686.206	1	0
686.545	1	-2
686.883	1	13
687.222	1	18
687.561	1	6
687.899	1	2
688.238	1	2
688.577	1	4
688.746	1	6