File: Data/GaN_200K_800ms/GaN_sample F_spot 12_UVVIS_200 K_200um_800 ms 2x2mm1_58.txt
340.368	1	5
340.710	1	2
341.052	1	8
341.394	1	9
341.737	1	4
342.079	1	-1
342.421	1	-3
342.763	1	10
343.105	1	6
343.447	1	-6
343.789	1	1
344.131	1	10
344.473	1	-1
344.815	1	6
345.157	1	0
345.499	1	0
345.841	1	15
346.183	1	4
346.526	1	4
346.868	1	2
347.210	1	-3
347.552	1	5
347.894	1	6
348.236	1	18
348.578	1	1
348.920	1	11
349.262	1	1
349.604	1	13
349.946	1	7
350.288	1	22
350.630	1	20
350.972	1	3
351.314	1	16
351.656	1	12
351.998	1	16
352.340	1	9
352.682	1	17
353.024	1	19
353.366	1	20
353.708	1	14
354.050	1	14
354.392	1	5
354.734	1	23
355.076	1	21
355.418	1	5
355.760	1	12
356.102	1	24
356.444	1	14
356.785	1	36
357.127	1	32
357.469	1	24
357.811	1	26
358.153	1	27
358.495	1	37
358.837	1	21
359.179	1	37
359.521	1	43
359.863	1	38
360.205	1	38
360.547	1	52
360.889	1	47
361.231	1	47
361.572	1	75
361.914	1	68
362.256	1	73
362.598	1	64
362.940	1	88
363.282	1	92
363.624	1	108
363.966	1	109
364.308	1	118
364.649	1	136
364.991	1	152
365.333	1	158
365.675	1	175
366.017	1	192
366.359	1	215
366.701	1	228
367.042	1	253
367.384	1	269
367.726	1	276
368.068	1	288
368.410	1	322
368.752	1	311
369.093	1	302
369.435	1	328
369.777	1	318
370.119	1	315
370.461	1	327
370.803	1	292
371.144	1	301
371.486	1	309
371.828	1	298
372.170	1	283
372.512	1	245
372.853	1	230
373.195	1	228
373.537	1	217
373.879	1	202
374.220	1	207
374.562	1	201
374.904	1	180
375.246	1	178
375.588	1	155
375.929	1	146
376.271	1	147
376.613	1	138
376.955	1	124
377.296	1	125
377.638	1	118
377.980	1	116
378.321	1	96
378.663	1	103
379.005	1	109
379.347	1	95
379.688	1	96
380.030	1	85
380.372	1	79
380.714	1	84
381.055	1	90
381.397	1	77
381.739	1	73
382.080	1	76
382.422	1	66
382.764	1	62
383.105	1	55
383.447	1	56
383.789	1	48
384.130	1	49
384.472	1	51
384.814	1	45
385.156	1	49
385.497	1	58
385.839	1	43
386.180	1	52
386.522	1	49
386.864	1	41
387.205	1	37
387.547	1	34
387.889	1	34
388.230	1	47
388.572	1	34
388.914	1	37
389.255	1	29
389.597	1	36
389.939	1	34
390.280	1	30
390.622	1	26
390.963	1	41
391.305	1	35
391.647	1	23
391.988	1	30
392.330	1	34
392.671	1	17
393.013	1	20
393.355	1	25
393.696	1	22
394.038	1	23
394.379	1	23
394.721	1	13
395.062	1	16
395.404	1	19
395.746	1	23
396.087	1	10
396.429	1	30
396.770	1	8
397.112	1	22
397.453	1	21
397.795	1	14
398.136	1	10
398.478	1	14
398.819	1	23
399.161	1	27
399.503	1	14
399.844	1	5
400.186	1	12
400.527	1	11
400.869	1	21
401.210	1	14
401.552	1	0
401.893	1	18
402.235	1	2
402.576	1	10
402.918	1	17
403.259	1	14
403.601	1	1
403.942	1	15
404.284	1	19
404.625	1	13
404.967	1	13
405.308	1	7
405.649	1	9
405.991	1	-1
406.332	1	3
406.674	1	4
407.015	1	16
407.357	1	10
407.698	1	10
408.040	1	4
408.381	1	11
408.722	1	-12
409.064	1	8
409.405	1	16
409.747	1	15
410.088	1	9
410.430	1	21
410.771	1	8
411.112	1	11
411.454	1	3
411.795	1	-6
412.137	1	12
412.478	1	21
412.819	1	-2
413.161	1	9
413.502	1	11
413.844	1	17
414.185	1	11
414.526	1	-1
414.868	1	10
415.209	1	2
415.550	1	5
415.892	1	4
416.233	1	8
416.575	1	12
416.916	1	7
417.257	1	4
417.599	1	10
417.940	1	20
418.281	1	8
418.623	1	-6
418.964	1	-1
419.305	1	9
419.647	1	-3
419.988	1	2
420.329	1	1
420.671	1	11
421.012	1	6
421.353	1	9
421.695	1	4
422.036	1	3
422.377	1	6
422.718	1	9
423.060	1	3
423.401	1	12
423.742	1	4
424.084	1	-1
424.425	1	10
424.766	1	-1
425.107	1	9
425.449	1	10
425.790	1	-8
426.131	1	-3
426.472	1	6
426.814	1	3
427.155	1	0
427.496	1	1
427.837	1	0
428.179	1	-17
428.520	1	8
428.861	1	0
429.202	1	-1
429.544	1	5
429.885	1	3
430.226	1	-7
430.567	1	-5
430.909	1	7
431.250	1	2
431.591	1	16
431.932	1	3
432.273	1	5
432.615	1	4
432.956	1	-2
433.297	1	1
433.638	1	-3
433.979	1	12
434.320	1	8
434.662	1	-3
435.003	1	8
435.344	1	3
435.685	1	10
436.026	1	8
436.368	1	8
436.709	1	5
437.050	1	0
437.391	1	12
437.732	1	-7
438.073	1	2
438.414	1	-1
438.756	1	1
439.097	1	1
439.438	1	-1
439.779	1	-1
440.120	1	0
440.461	1	11
440.802	1	-2
441.143	1	17
441.485	1	6
441.826	1	6
442.167	1	7
442.508	1	0
442.849	1	7
443.190	1	3
443.531	1	7
443.872	1	12
444.213	1	4
444.554	1	13
444.895	1	4
445.237	1	-2
445.578	1	-4
445.919	1	-4
446.260	1	6
446.601	1	3
446.942	1	2
447.283	1	1
447.624	1	12
447.965	1	5
448.306	1	5
448.647	1	-8
448.988	1	1
449.329	1	-2
449.670	1	10
450.011	1	9
450.352	1	2
450.693	1	-4
451.034	1	-7
451.375	1	5
451.716	1	9
452.057	1	1
452.398	1	-5
452.739	1	9
453.080	1	5
453.421	1	6
453.762	1	2
454.103	1	5
454.444	1	-9
454.785	1	-8
455.126	1	-4
455.467	1	2
455.808	1	0
456.149	1	5
456.490	1	2
456.831	1	10
457.172	1	-5
457.513	1	10
457.854	1	2
458.195	1	5
458.536	1	2
458.877	1	4
459.218	1	2
459.559	1	7
459.899	1	2
460.240	1	0
460.581	1	16
460.922	1	13
461.263	1	-6
461.604	1	-3
461.945	1	6
462.286	1	8
462.627	1	18
462.968	1	11
463.309	1	-8
463.649	1	4
463.990	1	6
464.331	1	9
464.672	1	2
465.013	1	0
465.354	1	-3
465.695	1	1
466.036	1	3
466.376	1	5
466.717	1	11
467.058	1	4
467.399	1	17
467.740	1	8
468.081	1	3
468.422	1	-2
468.762	1	0
469.103	1	-5
469.444	1	-1
469.785	1	-6
470.126	1	-5
470.467	1	-1
470.807	1	2
471.148	1	11
471.489	1	-3
471.830	1	-2
472.171	1	16
472.511	1	-2
472.852	1	6
473.193	1	6
473.534	1	9
473.875	1	11
474.215	1	19
474.556	1	1
474.897	1	10
475.238	1	3
475.578	1	-3
475.919	1	6
476.260	1	5
476.601	1	3
476.942	1	12
477.282	1	5
477.623	1	3
477.964	1	6
478.305	1	2
478.645	1	9
478.986	1	-1
479.327	1	-5
479.667	1	8
480.008	1	0
480.349	1	4
480.690	1	3
481.030	1	0
481.371	1	-2
481.712	1	8
482.053	1	3
482.393	1	2
482.734	1	3
483.075	1	9
483.415	1	8
483.756	1	10
484.097	1	1
484.437	1	5
484.778	1	6
485.119	1	4
485.459	1	23
485.800	1	6
486.141	1	-2
486.481	1	13
486.822	1	10
487.163	1	-5
487.503	1	-3
487.844	1	7
488.185	1	8
488.525	1	9
488.866	1	4
489.207	1	13
489.547	1	10
489.888	1	2
490.228	1	8
490.569	1	23
490.910	1	-6
491.250	1	2
491.591	1	5
491.932	1	6
492.272	1	9
492.613	1	5
492.953	1	5
493.294	1	1
493.635	1	-2
493.975	1	13
494.316	1	12
494.656	1	14
494.997	1	12
495.337	1	19
495.678	1	7
496.019	1	10
496.359	1	5
496.700	1	10
497.040	1	5
497.381	1	15
497.721	1	7
498.062	1	3
498.403	1	12
498.743	1	11
499.084	1	9
499.424	1	11
499.765	1	4
500.105	1	8
500.446	1	-3
500.786	1	3
501.127	1	8
501.467	1	9
501.808	1	10
502.148	1	12
502.489	1	14
502.829	1	12
503.170	1	22
503.510	1	8
503.851	1	7
504.191	1	16
504.532	1	11
504.872	1	12
505.213	1	17
505.553	1	11
505.894	1	7
506.234	1	16
506.575	1	17
506.915	1	19
507.256	1	8
507.596	1	24
507.936	1	22
508.277	1	27
508.617	1	24
508.958	1	-3
509.298	1	23
509.639	1	10
509.979	1	20
510.319	1	11
510.660	1	20
511.000	1	7
511.341	1	24
511.681	1	16
512.022	1	8
512.362	1	14
512.702	1	10
513.043	1	23
513.383	1	4
513.724	1	20
514.064	1	31
514.404	1	9
514.745	1	9
515.085	1	13
515.425	1	16
515.766	1	3
516.106	1	19
516.447	1	26
516.787	1	19
517.127	1	23
517.468	1	22
517.808	1	17
518.148	1	16
518.489	1	16
518.829	1	20
519.169	1	14
519.510	1	17
519.850	1	25
520.190	1	18
520.531	1	26
520.871	1	20
521.211	1	9
521.552	1	36
521.892	1	16
522.232	1	22
522.573	1	24
522.913	1	28
523.253	1	13
523.593	1	18
523.934	1	21
524.274	1	27
524.614	1	13
524.955	1	15
525.295	1	23
525.635	1	29
525.975	1	16
526.316	1	33
526.656	1	18
526.996	1	27
527.337	1	25
527.677	1	24
528.017	1	16
528.357	1	27
528.698	1	20
529.038	1	32
529.378	1	22
529.718	1	26
530.058	1	21
530.399	1	35
530.739	1	33
531.079	1	31
531.419	1	25
531.760	1	32
532.100	1	28
532.440	1	27
532.780	1	24
533.120	1	36
533.461	1	31
533.801	1	32
534.141	1	29
534.481	1	19
534.821	1	32
535.162	1	24
535.502	1	34
535.842	1	30
536.182	1	18
536.522	1	22
536.862	1	32
537.203	1	15
537.543	1	28
537.883	1	29
538.223	1	30
538.563	1	31
538.903	1	21
539.243	1	15
539.584	1	25
539.924	1	33
540.264	1	13
540.604	1	21
540.944	1	30
541.284	1	38
541.624	1	31
541.964	1	28
542.305	1	36
542.645	1	31
542.985	1	21
543.325	1	21
543.665	1	22
544.005	1	34
544.345	1	29
544.685	1	33
545.025	1	26
545.365	1	32
545.705	1	31
546.045	1	23
546.386	1	30
546.726	1	24
547.066	1	38
547.406	1	29
547.746	1	11
548.086	1	27
548.426	1	28
548.766	1	37
549.106	1	32
549.446	1	32
549.786	1	25
550.126	1	42
550.466	1	32
550.806	1	26
551.146	1	31
551.486	1	34
551.826	1	37
552.166	1	27
552.506	1	38
552.846	1	39
553.186	1	31
553.526	1	25
553.866	1	34
554.206	1	43
554.546	1	28
554.886	1	36
555.226	1	19
555.566	1	40
555.906	1	36
556.246	1	29
556.586	1	21
556.926	1	39
557.266	1	32
557.606	1	35
557.946	1	45
558.286	1	28
558.626	1	41
558.966	1	37
559.306	1	32
559.646	1	35
559.986	1	29
560.325	1	19
560.665	1	28
561.005	1	22
561.345	1	34
561.685	1	29
562.025	1	24
562.365	1	35
562.705	1	24
563.045	1	39
563.385	1	24
563.725	1	24
564.064	1	32
564.404	1	36
564.744	1	27
565.084	1	35
565.424	1	35
565.764	1	20
566.104	1	27
566.444	1	26
566.783	1	25
567.123	1	35
567.463	1	38
567.803	1	26
568.143	1	34
568.483	1	38
568.823	1	29
569.162	1	29
569.502	1	33
569.842	1	32
570.182	1	23
570.522	1	13
570.862	1	26
571.201	1	35
571.541	1	32
571.881	1	38
572.221	1	24
572.561	1	33
572.900	1	15
573.240	1	20
573.580	1	22
573.920	1	35
574.260	1	39
574.599	1	17
574.939	1	25
575.279	1	44
575.619	1	28
575.959	1	23
576.298	1	36
576.638	1	22
576.978	1	28
577.318	1	27
577.657	1	24
577.997	1	23
578.337	1	39
578.677	1	40
579.016	1	31
579.356	1	28
579.696	1	24
580.036	1	28
580.375	1	32
580.715	1	27
581.055	1	27
581.394	1	34
581.734	1	31
582.074	1	21
582.414	1	38
582.753	1	24
583.093	1	32
583.433	1	31
583.772	1	39
584.112	1	24
584.452	1	26
584.791	1	32
585.131	1	36
585.471	1	29
585.811	1	34
586.150	1	21
586.490	1	33
586.830	1	22
587.169	1	24
587.509	1	28
587.849	1	37
588.188	1	30
588.528	1	29
588.867	1	26
589.207	1	31
589.547	1	24
589.886	1	17
590.226	1	34
590.566	1	16
590.905	1	20
591.245	1	21
591.585	1	35
591.924	1	16
592.264	1	35
592.603	1	32
592.943	1	28
593.283	1	15
593.622	1	16
593.962	1	27
594.301	1	32
594.641	1	18
594.981	1	19
595.320	1	21
595.660	1	13
595.999	1	14
596.339	1	37
596.678	1	21
597.018	1	11
597.358	1	24
597.697	1	13
598.037	1	23
598.376	1	23
598.716	1	21
599.055	1	29
599.395	1	20
599.734	1	26
600.074	1	24
600.413	1	22
600.753	1	13
601.092	1	37
601.432	1	9
601.771	1	16
602.111	1	29
602.451	1	32
602.790	1	25
603.130	1	26
603.469	1	10
603.809	1	27
604.148	1	19
604.487	1	14
604.827	1	26
605.166	1	30
605.506	1	38
605.845	1	11
606.185	1	34
606.524	1	20
606.864	1	19
607.203	1	6
607.543	1	17
607.882	1	23
608.222	1	29
608.561	1	25
608.901	1	19
609.240	1	13
609.579	1	25
609.919	1	36
610.258	1	26
610.598	1	25
610.937	1	19
611.277	1	14
611.616	1	19
611.955	1	13
612.295	1	8
612.634	1	17
612.974	1	10
613.313	1	27
613.652	1	27
613.992	1	16
614.331	1	9
614.671	1	29
615.010	1	13
615.349	1	27
615.689	1	17
616.028	1	14
616.368	1	27
616.707	1	17
617.046	1	20
617.386	1	35
617.725	1	6
618.064	1	7
618.404	1	26
618.743	1	16
619.082	1	11
619.422	1	5
619.761	1	14
620.100	1	21
620.440	1	12
620.779	1	12
621.118	1	20
621.458	1	11
621.797	1	14
622.136	1	31
622.476	1	10
622.815	1	22
623.154	1	21
623.494	1	18
623.833	1	30
624.172	1	21
624.511	1	15
624.851	1	6
625.190	1	16
625.529	1	13
625.869	1	19
626.208	1	17
626.547	1	25
626.886	1	7
627.226	1	11
627.565	1	28
627.904	1	5
628.243	1	14
628.583	1	21
628.922	1	23
629.261	1	14
629.600	1	12
629.940	1	13
630.279	1	16
630.618	1	15
630.957	1	17
631.297	1	12
631.636	1	10
631.975	1	26
632.314	1	15
632.653	1	8
632.993	1	13
633.332	1	12
633.671	1	12
634.010	1	15
634.349	1	20
634.689	1	12
635.028	1	19
635.367	1	6
635.706	1	12
636.045	1	23
636.384	1	1
636.724	1	15
637.063	1	20
637.402	1	22
637.741	1	24
638.080	1	14
638.419	1	7
638.759	1	8
639.098	1	13
639.437	1	5
639.776	1	14
640.115	1	9
640.454	1	1
640.793	1	13
641.132	1	17
641.472	1	19
641.811	1	13
642.150	1	8
642.489	1	14
642.828	1	4
643.167	1	6
643.506	1	2
643.845	1	15
644.184	1	19
644.524	1	10
644.863	1	1
645.202	1	15
645.541	1	6
645.880	1	8
646.219	1	14
646.558	1	12
646.897	1	8
647.236	1	14
647.575	1	15
647.914	1	4
648.253	1	18
648.592	1	3
648.931	1	16
649.270	1	11
649.610	1	11
649.949	1	14
650.288	1	10
650.627	1	8
650.966	1	14
651.305	1	15
651.644	1	13
651.983	1	20
652.322	1	6
652.661	1	14
653.000	1	9
653.339	1	18
653.678	1	10
654.017	1	5
654.356	1	5
654.695	1	11
655.034	1	5
655.373	1	16
655.712	1	2
656.051	1	13
656.390	1	6
656.729	1	16
657.068	1	9
657.406	1	16
657.745	1	7
658.084	1	11
658.423	1	4
658.762	1	7
659.101	1	9
659.440	1	10
659.779	1	10
660.118	1	13
660.457	1	9
660.796	1	0
661.135	1	5
661.474	1	-2
661.813	1	24
662.152	1	12
662.491	1	3
662.829	1	3
663.168	1	11
663.507	1	17
663.846	1	4
664.185	1	8
664.524	1	5
664.863	1	7
665.202	1	17
665.541	1	2
665.879	1	3
666.218	1	3
666.557	1	7
666.896	1	8
667.235	1	10
667.574	1	4
667.913	1	9
668.251	1	1
668.590	1	11
668.929	1	1
669.268	1	11
669.607	1	5
669.946	1	7
670.285	1	14
670.623	1	10
670.962	1	9
671.301	1	13
671.640	1	10
671.979	1	3
672.317	1	13
672.656	1	10
672.995	1	20
673.334	1	15
673.673	1	10
674.011	1	9
674.350	1	8
674.689	1	13
675.028	1	1
675.367	1	13
675.705	1	9
676.044	1	13
676.383	1	2
676.722	1	14
677.060	1	6
677.399	1	14
677.738	1	15
678.077	1	12
678.416	1	7
678.754	1	5
679.093	1	16
679.432	1	-1
679.771	1	14
680.109	1	9
680.448	1	7
680.787	1	8
681.125	1	12
681.464	1	7
681.803	1	5
682.142	1	22
682.480	1	20
682.819	1	16
683.158	1	1
683.496	1	12
683.835	1	10
684.174	1	11
684.512	1	11
684.851	1	16
685.190	1	4
685.529	1	9
685.867	1	11
686.206	1	4
686.545	1	0
686.883	1	11
687.222	1	17
687.561	1	13
687.899	1	9
688.238	1	11
688.577	1	0
688.746	1	20