File: Data/GaN_200K_800ms/GaN_sample F_spot 12_UVVIS_200 K_200um_800 ms 2x2mm1_60.txt
340.368	1	3
340.710	1	-9
341.052	1	13
341.394	1	-4
341.737	1	3
342.079	1	9
342.421	1	2
342.763	1	11
343.105	1	10
343.447	1	-1
343.789	1	0
344.131	1	5
344.473	1	-5
344.815	1	6
345.157	1	-1
345.499	1	-9
345.841	1	5
346.183	1	9
346.526	1	3
346.868	1	6
347.210	1	2
347.552	1	-3
347.894	1	6
348.236	1	17
348.578	1	5
348.920	1	1
349.262	1	17
349.604	1	10
349.946	1	0
350.288	1	16
350.630	1	3
350.972	1	6
351.314	1	14
351.656	1	21
351.998	1	24
352.340	1	12
352.682	1	16
353.024	1	12
353.366	1	18
353.708	1	15
354.050	1	8
354.392	1	13
354.734	1	16
355.076	1	11
355.418	1	10
355.760	1	4
356.102	1	19
356.444	1	27
356.785	1	22
357.127	1	17
357.469	1	18
357.811	1	32
358.153	1	35
358.495	1	44
358.837	1	31
359.179	1	35
359.521	1	42
359.863	1	35
360.205	1	32
360.547	1	55
360.889	1	48
361.231	1	49
361.572	1	67
361.914	1	71
362.256	1	68
362.598	1	62
362.940	1	80
363.282	1	89
363.624	1	95
363.966	1	101
364.308	1	114
364.649	1	121
364.991	1	126
365.333	1	150
365.675	1	161
366.017	1	187
366.359	1	197
366.701	1	202
367.042	1	215
367.384	1	236
367.726	1	243
368.068	1	258
368.410	1	278
368.752	1	270
369.093	1	287
369.435	1	296
369.777	1	306
370.119	1	284
370.461	1	308
370.803	1	274
371.144	1	272
371.486	1	266
371.828	1	251
372.170	1	249
372.512	1	225
372.853	1	214
373.195	1	187
373.537	1	210
373.879	1	180
374.220	1	193
374.562	1	191
374.904	1	159
375.246	1	165
375.588	1	162
375.929	1	149
376.271	1	129
376.613	1	120
376.955	1	130
377.296	1	121
377.638	1	105
377.980	1	113
378.321	1	92
378.663	1	93
379.005	1	99
379.347	1	85
379.688	1	89
380.030	1	85
380.372	1	84
380.714	1	73
381.055	1	79
381.397	1	61
381.739	1	57
382.080	1	62
382.422	1	53
382.764	1	51
383.105	1	56
383.447	1	45
383.789	1	48
384.130	1	45
384.472	1	42
384.814	1	43
385.156	1	37
385.497	1	51
385.839	1	42
386.180	1	49
386.522	1	48
386.864	1	42
387.205	1	32
387.547	1	30
387.889	1	38
388.230	1	31
388.572	1	28
388.914	1	29
389.255	1	15
389.597	1	25
389.939	1	39
390.280	1	42
390.622	1	16
390.963	1	34
391.305	1	32
391.647	1	26
391.988	1	33
392.330	1	35
392.671	1	24
393.013	1	25
393.355	1	15
393.696	1	28
394.038	1	25
394.379	1	14
394.721	1	10
395.062	1	30
395.404	1	17
395.746	1	16
396.087	1	12
396.429	1	23
396.770	1	14
397.112	1	34
397.453	1	28
397.795	1	11
398.136	1	11
398.478	1	17
398.819	1	13
399.161	1	31
399.503	1	8
399.844	1	20
400.186	1	10
400.527	1	9
400.869	1	8
401.210	1	5
401.552	1	6
401.893	1	10
402.235	1	15
402.576	1	5
402.918	1	19
403.259	1	9
403.601	1	3
403.942	1	21
404.284	1	18
404.625	1	15
404.967	1	9
405.308	1	5
405.649	1	13
405.991	1	2
406.332	1	16
406.674	1	-5
407.015	1	11
407.357	1	1
407.698	1	14
408.040	1	4
408.381	1	2
408.722	1	2
409.064	1	5
409.405	1	10
409.747	1	9
410.088	1	14
410.430	1	8
410.771	1	8
411.112	1	11
411.454	1	5
411.795	1	-1
412.137	1	0
412.478	1	9
412.819	1	10
413.161	1	14
413.502	1	2
413.844	1	9
414.185	1	2
414.526	1	11
414.868	1	8
415.209	1	-2
415.550	1	0
415.892	1	16
416.233	1	18
416.575	1	18
416.916	1	1
417.257	1	3
417.599	1	3
417.940	1	17
418.281	1	4
418.623	1	5
418.964	1	1
419.305	1	6
419.647	1	4
419.988	1	9
420.329	1	4
420.671	1	8
421.012	1	11
421.353	1	4
421.695	1	3
422.036	1	8
422.377	1	-3
422.718	1	14
423.060	1	1
423.401	1	10
423.742	1	5
424.084	1	0
424.425	1	10
424.766	1	3
425.107	1	-2
425.449	1	7
425.790	1	-15
426.131	1	9
426.472	1	7
426.814	1	12
427.155	1	4
427.496	1	-3
427.837	1	-1
428.179	1	3
428.520	1	2
428.861	1	-1
429.202	1	7
429.544	1	0
429.885	1	14
430.226	1	1
430.567	1	5
430.909	1	1
431.250	1	0
431.591	1	15
431.932	1	1
432.273	1	1
432.615	1	-9
432.956	1	2
433.297	1	3
433.638	1	8
433.979	1	2
434.320	1	5
434.662	1	5
435.003	1	11
435.344	1	8
435.685	1	-3
436.026	1	9
436.368	1	-5
436.709	1	5
437.050	1	6
437.391	1	14
437.732	1	-6
438.073	1	-3
438.414	1	-7
438.756	1	-6
439.097	1	1
439.438	1	-3
439.779	1	-3
440.120	1	-6
440.461	1	5
440.802	1	1
441.143	1	16
441.485	1	-3
441.826	1	5
442.167	1	8
442.508	1	-2
442.849	1	11
443.190	1	5
443.531	1	1
443.872	1	7
444.213	1	5
444.554	1	9
444.895	1	4
445.237	1	-3
445.578	1	-11
445.919	1	10
446.260	1	3
446.601	1	-1
446.942	1	3
447.283	1	1
447.624	1	5
447.965	1	5
448.306	1	2
448.647	1	-11
448.988	1	-1
449.329	1	-2
449.670	1	11
450.011	1	4
450.352	1	3
450.693	1	4
451.034	1	-8
451.375	1	3
451.716	1	1
452.057	1	2
452.398	1	5
452.739	1	-2
453.080	1	6
453.421	1	7
453.762	1	12
454.103	1	-2
454.444	1	-1
454.785	1	1
455.126	1	-5
455.467	1	5
455.808	1	7
456.149	1	12
456.490	1	-1
456.831	1	7
457.172	1	6
457.513	1	8
457.854	1	-1
458.195	1	-5
458.536	1	4
458.877	1	2
459.218	1	1
459.559	1	6
459.899	1	5
460.240	1	3
460.581	1	18
460.922	1	6
461.263	1	-4
461.604	1	-1
461.945	1	-1
462.286	1	4
462.627	1	1
462.968	1	3
463.309	1	3
463.649	1	-2
463.990	1	-1
464.331	1	-1
464.672	1	0
465.013	1	5
465.354	1	6
465.695	1	-2
466.036	1	3
466.376	1	5
466.717	1	6
467.058	1	-1
467.399	1	8
467.740	1	7
468.081	1	9
468.422	1	-2
468.762	1	-8
469.103	1	4
469.444	1	-1
469.785	1	-7
470.126	1	-4
470.467	1	-10
470.807	1	6
471.148	1	12
471.489	1	8
471.830	1	4
472.171	1	4
472.511	1	-4
472.852	1	-6
473.193	1	11
473.534	1	14
473.875	1	13
474.215	1	6
474.556	1	6
474.897	1	11
475.238	1	7
475.578	1	-4
475.919	1	5
476.260	1	4
476.601	1	-7
476.942	1	11
477.282	1	-3
477.623	1	-9
477.964	1	3
478.305	1	3
478.645	1	13
478.986	1	1
479.327	1	2
479.667	1	3
480.008	1	-1
480.349	1	6
480.690	1	7
481.030	1	5
481.371	1	3
481.712	1	4
482.053	1	5
482.393	1	7
482.734	1	-5
483.075	1	8
483.415	1	0
483.756	1	8
484.097	1	8
484.437	1	9
484.778	1	6
485.119	1	-1
485.459	1	12
485.800	1	-5
486.141	1	1
486.481	1	11
486.822	1	8
487.163	1	2
487.503	1	4
487.844	1	8
488.185	1	-3
488.525	1	3
488.866	1	6
489.207	1	-2
489.547	1	2
489.888	1	6
490.228	1	5
490.569	1	14
490.910	1	9
491.250	1	0
491.591	1	3
491.932	1	3
492.272	1	10
492.613	1	-3
492.953	1	11
493.294	1	1
493.635	1	8
493.975	1	7
494.316	1	8
494.656	1	9
494.997	1	7
495.337	1	16
495.678	1	13
496.019	1	4
496.359	1	6
496.700	1	5
497.040	1	-1
497.381	1	8
497.721	1	12
498.062	1	12
498.403	1	10
498.743	1	8
499.084	1	-2
499.424	1	15
499.765	1	3
500.105	1	19
500.446	1	1
500.786	1	7
501.127	1	12
501.467	1	10
501.808	1	11
502.148	1	17
502.489	1	13
502.829	1	10
503.170	1	19
503.510	1	15
503.851	1	10
504.191	1	16
504.532	1	9
504.872	1	13
505.213	1	17
505.553	1	16
505.894	1	7
506.234	1	27
506.575	1	10
506.915	1	14
507.256	1	20
507.596	1	17
507.936	1	15
508.277	1	7
508.617	1	14
508.958	1	5
509.298	1	16
509.639	1	14
509.979	1	17
510.319	1	11
510.660	1	14
511.000	1	17
511.341	1	21
511.681	1	14
512.022	1	11
512.362	1	12
512.702	1	10
513.043	1	22
513.383	1	6
513.724	1	11
514.064	1	23
514.404	1	18
514.745	1	10
515.085	1	13
515.425	1	7
515.766	1	7
516.106	1	11
516.447	1	26
516.787	1	20
517.127	1	10
517.468	1	8
517.808	1	15
518.148	1	16
518.489	1	18
518.829	1	21
519.169	1	13
519.510	1	10
519.850	1	24
520.190	1	13
520.531	1	24
520.871	1	16
521.211	1	4
521.552	1	26
521.892	1	21
522.232	1	20
522.573	1	19
522.913	1	20
523.253	1	14
523.593	1	17
523.934	1	23
524.274	1	22
524.614	1	12
524.955	1	10
525.295	1	19
525.635	1	22
525.975	1	29
526.316	1	25
526.656	1	20
526.996	1	30
527.337	1	13
527.677	1	29
528.017	1	7
528.357	1	18
528.698	1	31
529.038	1	28
529.378	1	30
529.718	1	25
530.058	1	27
530.399	1	30
530.739	1	33
531.079	1	29
531.419	1	22
531.760	1	27
532.100	1	25
532.440	1	24
532.780	1	28
533.120	1	33
533.461	1	26
533.801	1	37
534.141	1	14
534.481	1	18
534.821	1	25
535.162	1	27
535.502	1	24
535.842	1	31
536.182	1	29
536.522	1	22
536.862	1	30
537.203	1	26
537.543	1	24
537.883	1	30
538.223	1	29
538.563	1	23
538.903	1	23
539.243	1	30
539.584	1	18
539.924	1	22
540.264	1	26
540.604	1	18
540.944	1	14
541.284	1	33
541.624	1	34
541.964	1	20
542.305	1	27
542.645	1	28
542.985	1	30
543.325	1	27
543.665	1	30
544.005	1	33
544.345	1	22
544.685	1	16
545.025	1	24
545.365	1	32
545.705	1	26
546.045	1	21
546.386	1	30
546.726	1	20
547.066	1	34
547.406	1	30
547.746	1	19
548.086	1	28
548.426	1	27
548.766	1	25
549.106	1	20
549.446	1	36
549.786	1	15
550.126	1	37
550.466	1	28
550.806	1	18
551.146	1	30
551.486	1	36
551.826	1	20
552.166	1	30
552.506	1	44
552.846	1	30
553.186	1	31
553.526	1	31
553.866	1	25
554.206	1	42
554.546	1	37
554.886	1	39
555.226	1	25
555.566	1	29
555.906	1	33
556.246	1	34
556.586	1	32
556.926	1	36
557.266	1	24
557.606	1	30
557.946	1	43
558.286	1	35
558.626	1	33
558.966	1	37
559.306	1	29
559.646	1	26
559.986	1	23
560.325	1	18
560.665	1	23
561.005	1	15
561.345	1	32
561.685	1	32
562.025	1	24
562.365	1	39
562.705	1	18
563.045	1	24
563.385	1	26
563.725	1	29
564.064	1	22
564.404	1	33
564.744	1	37
565.084	1	25
565.424	1	33
565.764	1	19
566.104	1	30
566.444	1	16
566.783	1	18
567.123	1	33
567.463	1	31
567.803	1	23
568.143	1	25
568.483	1	28
568.823	1	31
569.162	1	42
569.502	1	13
569.842	1	34
570.182	1	42
570.522	1	17
570.862	1	20
571.201	1	30
571.541	1	29
571.881	1	45
572.221	1	28
572.561	1	28
572.900	1	25
573.240	1	30
573.580	1	25
573.920	1	36
574.260	1	32
574.599	1	23
574.939	1	24
575.279	1	42
575.619	1	30
575.959	1	24
576.298	1	25
576.638	1	25
576.978	1	35
577.318	1	43
577.657	1	22
577.997	1	18
578.337	1	38
578.677	1	24
579.016	1	29
579.356	1	16
579.696	1	28
580.036	1	30
580.375	1	30
580.715	1	28
581.055	1	22
581.394	1	22
581.734	1	17
582.074	1	16
582.414	1	33
582.753	1	22
583.093	1	22
583.433	1	20
583.772	1	38
584.112	1	22
584.452	1	26
584.791	1	23
585.131	1	28
585.471	1	36
585.811	1	34
586.150	1	22
586.490	1	37
586.830	1	22
587.169	1	39
587.509	1	24
587.849	1	25
588.188	1	29
588.528	1	22
588.867	1	30
589.207	1	27
589.547	1	23
589.886	1	16
590.226	1	17
590.566	1	28
590.905	1	18
591.245	1	9
591.585	1	23
591.924	1	13
592.264	1	21
592.603	1	15
592.943	1	27
593.283	1	15
593.622	1	17
593.962	1	22
594.301	1	21
594.641	1	13
594.981	1	13
595.320	1	21
595.660	1	13
595.999	1	8
596.339	1	20
596.678	1	13
597.018	1	13
597.358	1	12
597.697	1	22
598.037	1	14
598.376	1	18
598.716	1	29
599.055	1	19
599.395	1	17
599.734	1	23
600.074	1	18
600.413	1	30
600.753	1	18
601.092	1	28
601.432	1	19
601.771	1	25
602.111	1	20
602.451	1	27
602.790	1	11
603.130	1	31
603.469	1	14
603.809	1	27
604.148	1	17
604.487	1	18
604.827	1	28
605.166	1	18
605.506	1	12
605.845	1	27
606.185	1	25
606.524	1	17
606.864	1	27
607.203	1	25
607.543	1	15
607.882	1	28
608.222	1	24
608.561	1	18
608.901	1	16
609.240	1	14
609.579	1	35
609.919	1	21
610.258	1	24
610.598	1	22
610.937	1	24
611.277	1	13
611.616	1	28
611.955	1	25
612.295	1	15
612.634	1	19
612.974	1	6
613.313	1	29
613.652	1	21
613.992	1	11
614.331	1	20
614.671	1	12
615.010	1	0
615.349	1	21
615.689	1	16
616.028	1	20
616.368	1	11
616.707	1	10
617.046	1	19
617.386	1	16
617.725	1	19
618.064	1	16
618.404	1	11
618.743	1	19
619.082	1	13
619.422	1	4
619.761	1	27
620.100	1	16
620.440	1	10
620.779	1	-1
621.118	1	21
621.458	1	17
621.797	1	13
622.136	1	25
622.476	1	15
622.815	1	17
623.154	1	27
623.494	1	31
623.833	1	18
624.172	1	11
624.511	1	9
624.851	1	5
625.190	1	21
625.529	1	17
625.869	1	9
626.208	1	12
626.547	1	16
626.886	1	24
627.226	1	16
627.565	1	18
627.904	1	7
628.243	1	19
628.583	1	19
628.922	1	18
629.261	1	16
629.600	1	17
629.940	1	13
630.279	1	4
630.618	1	17
630.957	1	7
631.297	1	11
631.636	1	5
631.975	1	30
632.314	1	13
632.653	1	5
632.993	1	7
633.332	1	14
633.671	1	13
634.010	1	9
634.349	1	8
634.689	1	9
635.028	1	12
635.367	1	17
635.706	1	11
636.045	1	23
636.384	1	15
636.724	1	16
637.063	1	8
637.402	1	16
637.741	1	16
638.080	1	15
638.419	1	3
638.759	1	11
639.098	1	16
639.437	1	24
639.776	1	9
640.115	1	10
640.454	1	7
640.793	1	23
641.132	1	14
641.472	1	13
641.811	1	12
642.150	1	3
642.489	1	17
642.828	1	0
643.167	1	3
643.506	1	-6
643.845	1	4
644.184	1	12
644.524	1	6
644.863	1	1
645.202	1	14
645.541	1	11
645.880	1	9
646.219	1	11
646.558	1	3
646.897	1	6
647.236	1	9
647.575	1	10
647.914	1	6
648.253	1	14
648.592	1	7
648.931	1	27
649.270	1	9
649.610	1	6
649.949	1	17
650.288	1	15
650.627	1	0
650.966	1	18
651.305	1	9
651.644	1	24
651.983	1	11
652.322	1	15
652.661	1	7
653.000	1	9
653.339	1	18
653.678	1	7
654.017	1	6
654.356	1	4
654.695	1	13
655.034	1	12
655.373	1	8
655.712	1	6
656.051	1	5
656.390	1	2
656.729	1	14
657.068	1	7
657.406	1	15
657.745	1	14
658.084	1	15
658.423	1	11
658.762	1	0
659.101	1	17
659.440	1	13
659.779	1	9
660.118	1	12
660.457	1	11
660.796	1	1
661.135	1	5
661.474	1	-1
661.813	1	16
662.152	1	13
662.491	1	5
662.829	1	-2
663.168	1	8
663.507	1	19
663.846	1	10
664.185	1	5
664.524	1	6
664.863	1	4
665.202	1	12
665.541	1	1
665.879	1	-1
666.218	1	4
666.557	1	7
666.896	1	-2
667.235	1	20
667.574	1	-3
667.913	1	6
668.251	1	4
668.590	1	10
668.929	1	6
669.268	1	6
669.607	1	12
669.946	1	5
670.285	1	15
670.623	1	2
670.962	1	18
671.301	1	-1
671.640	1	4
671.979	1	8
672.317	1	14
672.656	1	4
672.995	1	19
673.334	1	7
673.673	1	11
674.011	1	6
674.350	1	5
674.689	1	25
675.028	1	3
675.367	1	17
675.705	1	12
676.044	1	8
676.383	1	3
676.722	1	18
677.060	1	11
677.399	1	6
677.738	1	12
678.077	1	10
678.416	1	15
678.754	1	1
679.093	1	8
679.432	1	8
679.771	1	9
680.109	1	20
680.448	1	8
680.787	1	4
681.125	1	23
681.464	1	9
681.803	1	11
682.142	1	12
682.480	1	26
682.819	1	8
683.158	1	11
683.496	1	17
683.835	1	14
684.174	1	11
684.512	1	15
684.851	1	12
685.190	1	5
685.529	1	2
685.867	1	6
686.206	1	2
686.545	1	8
686.883	1	8
687.222	1	12
687.561	1	13
687.899	1	9
688.238	1	8
688.577	1	13
688.746	1	5