File: Data/GaN_200K_800ms/GaN_sample F_spot 12_UVVIS_200 K_200um_800 ms 2x2mm1_488.txt
340.368	1	-1
340.710	1	-12
341.052	1	6
341.394	1	-1
341.737	1	4
342.079	1	-9
342.421	1	1
342.763	1	0
343.105	1	-5
343.447	1	-3
343.789	1	-2
344.131	1	-3
344.473	1	-8
344.815	1	-5
345.157	1	-4
345.499	1	-2
345.841	1	4
346.183	1	-4
346.526	1	-5
346.868	1	7
347.210	1	0
347.552	1	-3
347.894	1	-3
348.236	1	9
348.578	1	-3
348.920	1	-10
349.262	1	3
349.604	1	3
349.946	1	-10
350.288	1	2
350.630	1	0
350.972	1	-4
351.314	1	1
351.656	1	9
351.998	1	4
352.340	1	8
352.682	1	1
353.024	1	3
353.366	1	3
353.708	1	-1
354.050	1	-6
354.392	1	-4
354.734	1	-2
355.076	1	-1
355.418	1	-8
355.760	1	-7
356.102	1	7
356.444	1	6
356.785	1	10
357.127	1	-4
357.469	1	1
357.811	1	-2
358.153	1	-1
358.495	1	-5
358.837	1	-6
359.179	1	1
359.521	1	4
359.863	1	-6
360.205	1	0
360.547	1	-2
360.889	1	3
361.231	1	-1
361.572	1	7
361.914	1	3
362.256	1	4
362.598	1	-7
362.940	1	3
363.282	1	2
363.624	1	16
363.966	1	-1
364.308	1	2
364.649	1	8
364.991	1	6
365.333	1	1
365.675	1	5
366.017	1	-2
366.359	1	10
366.701	1	8
367.042	1	6
367.384	1	12
367.726	1	9
368.068	1	3
368.410	1	16
368.752	1	10
369.093	1	3
369.435	1	21
369.777	1	-5
370.119	1	6
370.461	1	18
370.803	1	11
371.144	1	0
371.486	1	15
371.828	1	10
372.170	1	11
372.512	1	4
372.853	1	2
373.195	1	6
373.537	1	4
373.879	1	6
374.220	1	11
374.562	1	7
374.904	1	-3
375.246	1	0
375.588	1	10
375.929	1	9
376.271	1	11
376.613	1	-1
376.955	1	6
377.296	1	0
377.638	1	3
377.980	1	4
378.321	1	-9
378.663	1	0
379.005	1	11
379.347	1	1
379.688	1	4
380.030	1	1
380.372	1	-1
380.714	1	3
381.055	1	12
381.397	1	2
381.739	1	8
382.080	1	8
382.422	1	-2
382.764	1	-2
383.105	1	-4
383.447	1	2
383.789	1	-1
384.130	1	-4
384.472	1	2
384.814	1	1
385.156	1	-2
385.497	1	2
385.839	1	4
386.180	1	10
386.522	1	1
386.864	1	7
387.205	1	0
387.547	1	-5
387.889	1	4
388.230	1	11
388.572	1	-8
388.914	1	-6
389.255	1	-14
389.597	1	7
389.939	1	2
390.280	1	1
390.622	1	1
390.963	1	5
391.305	1	4
391.647	1	-3
391.988	1	1
392.330	1	3
392.671	1	-11
393.013	1	-1
393.355	1	3
393.696	1	7
394.038	1	1
394.379	1	5
394.721	1	-6
395.062	1	-1
395.404	1	-2
395.746	1	6
396.087	1	-6
396.429	1	2
396.770	1	-5
397.112	1	-5
397.453	1	10
397.795	1	2
398.136	1	-1
398.478	1	-1
398.819	1	0
399.161	1	15
399.503	1	11
399.844	1	5
400.186	1	-3
400.527	1	3
400.869	1	-3
401.210	1	3
401.552	1	-14
401.893	1	2
402.235	1	-1
402.576	1	4
402.918	1	6
403.259	1	5
403.601	1	-11
403.942	1	6
404.284	1	4
404.625	1	5
404.967	1	0
405.308	1	5
405.649	1	-3
405.991	1	-8
406.332	1	-2
406.674	1	-12
407.015	1	-4
407.357	1	-9
407.698	1	4
408.040	1	-11
408.381	1	2
408.722	1	-16
409.064	1	2
409.405	1	6
409.747	1	-8
410.088	1	-8
410.430	1	5
410.771	1	6
411.112	1	2
411.454	1	-1
411.795	1	-3
412.137	1	-1
412.478	1	8
412.819	1	0
413.161	1	1
413.502	1	-6
413.844	1	4
414.185	1	3
414.526	1	-1
414.868	1	-3
415.209	1	-3
415.550	1	-3
415.892	1	4
416.233	1	8
416.575	1	14
416.916	1	1
417.257	1	-1
417.599	1	3
417.940	1	0
418.281	1	3
418.623	1	1
418.964	1	-7
419.305	1	7
419.647	1	-6
419.988	1	-2
420.329	1	-10
420.671	1	-3
421.012	1	-4
421.353	1	1
421.695	1	-6
422.036	1	7
422.377	1	0
422.718	1	8
423.060	1	-4
423.401	1	-2
423.742	1	-1
424.084	1	-4
424.425	1	2
424.766	1	5
425.107	1	-4
425.449	1	-5
425.790	1	-5
426.131	1	-2
426.472	1	2
426.814	1	3
427.155	1	-6
427.496	1	-5
427.837	1	-7
428.179	1	-11
428.520	1	-4
428.861	1	-6
429.202	1	-6
429.544	1	-6
429.885	1	2
430.226	1	-2
430.567	1	6
430.909	1	-7
431.250	1	-8
431.591	1	5
431.932	1	-7
432.273	1	-2
432.615	1	-12
432.956	1	-1
433.297	1	4
433.638	1	4
433.979	1	8
434.320	1	8
434.662	1	0
435.003	1	0
435.344	1	-5
435.685	1	2
436.026	1	14
436.368	1	4
436.709	1	-10
437.050	1	-1
437.391	1	2
437.732	1	-2
438.073	1	-5
438.414	1	-10
438.756	1	-9
439.097	1	-8
439.438	1	-14
439.779	1	-4
440.120	1	0
440.461	1	5
440.802	1	-4
441.143	1	7
441.485	1	0
441.826	1	-11
442.167	1	1
442.508	1	-17
442.849	1	7
443.190	1	-3
443.531	1	3
443.872	1	14
444.213	1	1
444.554	1	11
444.895	1	-1
445.237	1	1
445.578	1	-12
445.919	1	-8
446.260	1	-2
446.601	1	-7
446.942	1	1
447.283	1	-5
447.624	1	5
447.965	1	3
448.306	1	0
448.647	1	-1
448.988	1	-14
449.329	1	-4
449.670	1	-2
450.011	1	-1
450.352	1	-6
450.693	1	-6
451.034	1	-11
451.375	1	-10
451.716	1	-5
452.057	1	3
452.398	1	-2
452.739	1	3
453.080	1	2
453.421	1	-4
453.762	1	4
454.103	1	-2
454.444	1	-4
454.785	1	-4
455.126	1	-12
455.467	1	1
455.808	1	-1
456.149	1	6
456.490	1	0
456.831	1	0
457.172	1	-5
457.513	1	13
457.854	1	-7
458.195	1	-5
458.536	1	4
458.877	1	-3
459.218	1	1
459.559	1	7
459.899	1	-5
460.240	1	8
460.581	1	9
460.922	1	-5
461.263	1	-2
461.604	1	-7
461.945	1	5
462.286	1	3
462.627	1	6
462.968	1	6
463.309	1	0
463.649	1	-7
463.990	1	-4
464.331	1	-2
464.672	1	1
465.013	1	-4
465.354	1	-3
465.695	1	-6
466.036	1	-9
466.376	1	-9
466.717	1	-6
467.058	1	-7
467.399	1	-3
467.740	1	1
468.081	1	1
468.422	1	-4
468.762	1	-12
469.103	1	-9
469.444	1	-7
469.785	1	-14
470.126	1	-9
470.467	1	-10
470.807	1	-5
471.148	1	2
471.489	1	-1
471.830	1	-1
472.171	1	-4
472.511	1	-11
472.852	1	-3
473.193	1	3
473.534	1	3
473.875	1	8
474.215	1	13
474.556	1	-1
474.897	1	0
475.238	1	2
475.578	1	-1
475.919	1	2
476.260	1	4
476.601	1	9
476.942	1	6
477.282	1	-6
477.623	1	-7
477.964	1	0
478.305	1	-2
478.645	1	-3
478.986	1	-1
479.327	1	-6
479.667	1	-4
480.008	1	-3
480.349	1	-5
480.690	1	-1
481.030	1	-10
481.371	1	2
481.712	1	-1
482.053	1	7
482.393	1	0
482.734	1	-9
483.075	1	-7
483.415	1	-8
483.756	1	0
484.097	1	6
484.437	1	1
484.778	1	11
485.119	1	-9
485.459	1	5
485.800	1	-5
486.141	1	-2
486.481	1	0
486.822	1	13
487.163	1	-4
487.503	1	2
487.844	1	0
488.185	1	12
488.525	1	-1
488.866	1	1
489.207	1	-11
489.547	1	1
489.888	1	-5
490.228	1	-9
490.569	1	5
490.910	1	4
491.250	1	-7
491.591	1	-4
491.932	1	-4
492.272	1	-3
492.613	1	-12
492.953	1	-6
493.294	1	-5
493.635	1	-2
493.975	1	-4
494.316	1	7
494.656	1	-6
494.997	1	-2
495.337	1	10
495.678	1	-8
496.019	1	-13
496.359	1	-8
496.700	1	0
497.040	1	-10
497.381	1	-7
497.721	1	-1
498.062	1	5
498.403	1	0
498.743	1	2
499.084	1	1
499.424	1	-4
499.765	1	-5
500.105	1	-1
500.446	1	-7
500.786	1	-5
501.127	1	-3
501.467	1	-6
501.808	1	-1
502.148	1	9
502.489	1	-2
502.829	1	-6
503.170	1	6
503.510	1	-6
503.851	1	-7
504.191	1	11
504.532	1	1
504.872	1	3
505.213	1	9
505.553	1	-11
505.894	1	-5
506.234	1	7
506.575	1	0
506.915	1	7
507.256	1	7
507.596	1	-5
507.936	1	-3
508.277	1	-9
508.617	1	-4
508.958	1	-12
509.298	1	-4
509.639	1	-10
509.979	1	-3
510.319	1	-5
510.660	1	1
511.000	1	2
511.341	1	0
511.681	1	6
512.022	1	-8
512.362	1	-11
512.702	1	-5
513.043	1	4
513.383	1	-7
513.724	1	-5
514.064	1	4
514.404	1	2
514.745	1	-5
515.085	1	-1
515.425	1	-14
515.766	1	-7
516.106	1	2
516.447	1	8
516.787	1	3
517.127	1	-8
517.468	1	1
517.808	1	-9
518.148	1	-4
518.489	1	-7
518.829	1	4
519.169	1	0
519.510	1	-3
519.850	1	3
520.190	1	-2
520.531	1	0
520.871	1	8
521.211	1	-16
521.552	1	10
521.892	1	1
522.232	1	1
522.573	1	1
522.913	1	6
523.253	1	-5
523.593	1	2
523.934	1	4
524.274	1	0
524.614	1	-10
524.955	1	-3
525.295	1	3
525.635	1	1
525.975	1	3
526.316	1	16
526.656	1	7
526.996	1	8
527.337	1	-7
527.677	1	6
528.017	1	-2
528.357	1	2
528.698	1	-2
529.038	1	-2
529.378	1	-4
529.718	1	9
530.058	1	0
530.399	1	7
530.739	1	-6
531.079	1	0
531.419	1	4
531.760	1	3
532.100	1	0
532.440	1	-12
532.780	1	-6
533.120	1	-3
533.461	1	-1
533.801	1	14
534.141	1	-13
534.481	1	-13
534.821	1	-7
535.162	1	-10
535.502	1	-7
535.842	1	-2
536.182	1	-4
536.522	1	-2
536.862	1	-1
537.203	1	-11
537.543	1	-6
537.883	1	-1
538.223	1	-1
538.563	1	11
538.903	1	-5
539.243	1	-1
539.584	1	-1
539.924	1	10
540.264	1	1
540.604	1	9
540.944	1	-5
541.284	1	0
541.624	1	5
541.964	1	-3
542.305	1	8
542.645	1	4
542.985	1	-2
543.325	1	-3
543.665	1	4
544.005	1	6
544.345	1	-5
544.685	1	-3
545.025	1	-2
545.365	1	-5
545.705	1	0
546.045	1	-14
546.386	1	-3
546.726	1	-20
547.066	1	-7
547.406	1	2
547.746	1	-14
548.086	1	-3
548.426	1	0
548.766	1	-3
549.106	1	1
549.446	1	-7
549.786	1	0
550.126	1	11
550.466	1	9
550.806	1	-2
551.146	1	1
551.486	1	0
551.826	1	5
552.166	1	8
552.506	1	4
552.846	1	-4
553.186	1	10
553.526	1	3
553.866	1	1
554.206	1	8
554.546	1	-2
554.886	1	4
555.226	1	-2
555.566	1	7
555.906	1	5
556.246	1	2
556.586	1	-1
556.926	1	4
557.266	1	-6
557.606	1	0
557.946	1	11
558.286	1	2
558.626	1	4
558.966	1	2
559.306	1	3
559.646	1	-11
559.986	1	-8
560.325	1	-7
560.665	1	-2
561.005	1	-7
561.345	1	3
561.685	1	2
562.025	1	4
562.365	1	2
562.705	1	-7
563.045	1	2
563.385	1	-10
563.725	1	3
564.064	1	-5
564.404	1	6
564.744	1	2
565.084	1	-7
565.424	1	-11
565.764	1	-12
566.104	1	2
566.444	1	-4
566.783	1	-1
567.123	1	-3
567.463	1	9
567.803	1	-9
568.143	1	-1
568.483	1	-3
568.823	1	-4
569.162	1	10
569.502	1	8
569.842	1	-3
570.182	1	3
570.522	1	-17
570.862	1	-1
571.201	1	6
571.541	1	1
571.881	1	14
572.221	1	-13
572.561	1	-5
572.900	1	0
573.240	1	0
573.580	1	-3
573.920	1	-1
574.260	1	13
574.599	1	3
574.939	1	3
575.279	1	7
575.619	1	3
575.959	1	3
576.298	1	15
576.638	1	-10
576.978	1	10
577.318	1	0
577.657	1	-4
577.997	1	-6
578.337	1	3
578.677	1	7
579.016	1	2
579.356	1	-3
579.696	1	6
580.036	1	-2
580.375	1	1
580.715	1	-6
581.055	1	-6
581.394	1	-3
581.734	1	-8
582.074	1	0
582.414	1	9
582.753	1	-7
583.093	1	-3
583.433	1	-6
583.772	1	2
584.112	1	-8
584.452	1	0
584.791	1	-9
585.131	1	11
585.471	1	3
585.811	1	11
586.150	1	-2
586.490	1	2
586.830	1	-4
587.169	1	0
587.509	1	0
587.849	1	2
588.188	1	13
588.528	1	6
588.867	1	-4
589.207	1	-9
589.547	1	2
589.886	1	-8
590.226	1	6
590.566	1	-7
590.905	1	-1
591.245	1	-2
591.585	1	11
591.924	1	8
592.264	1	9
592.603	1	0
592.943	1	2
593.283	1	0
593.622	1	-5
593.962	1	5
594.301	1	-2
594.641	1	-4
594.981	1	-1
595.320	1	7
595.660	1	2
595.999	1	-3
596.339	1	8
596.678	1	-3
597.018	1	4
597.358	1	5
597.697	1	-5
598.037	1	-6
598.376	1	4
598.716	1	-2
599.055	1	6
599.395	1	1
599.734	1	4
600.074	1	2
600.413	1	9
600.753	1	-2
601.092	1	16
601.432	1	-5
601.771	1	8
602.111	1	3
602.451	1	15
602.790	1	1
603.130	1	1
603.469	1	-8
603.809	1	6
604.148	1	9
604.487	1	0
604.827	1	1
605.166	1	3
605.506	1	7
605.845	1	1
606.185	1	12
606.524	1	-6
606.864	1	-3
607.203	1	-4
607.543	1	-4
607.882	1	3
608.222	1	9
608.561	1	1
608.901	1	6
609.240	1	-5
609.579	1	-1
609.919	1	3
610.258	1	7
610.598	1	-8
610.937	1	8
611.277	1	-5
611.616	1	-7
611.955	1	2
612.295	1	-5
612.634	1	2
612.974	1	-14
613.313	1	8
613.652	1	6
613.992	1	1
614.331	1	-1
614.671	1	5
615.010	1	-8
615.349	1	4
615.689	1	10
616.028	1	2
616.368	1	1
616.707	1	-1
617.046	1	7
617.386	1	4
617.725	1	-7
618.064	1	1
618.404	1	2
618.743	1	-4
619.082	1	-6
619.422	1	-13
619.761	1	7
620.100	1	3
620.440	1	-2
620.779	1	-8
621.118	1	1
621.458	1	-3
621.797	1	-5
622.136	1	6
622.476	1	4
622.815	1	3
623.154	1	9
623.494	1	14
623.833	1	0
624.172	1	-9
624.511	1	9
624.851	1	-4
625.190	1	5
625.529	1	4
625.869	1	1
626.208	1	-6
626.547	1	-3
626.886	1	-2
627.226	1	2
627.565	1	1
627.904	1	-8
628.243	1	2
628.583	1	-4
628.922	1	10
629.261	1	6
629.600	1	5
629.940	1	7
630.279	1	-3
630.618	1	-4
630.957	1	0
631.297	1	0
631.636	1	-15
631.975	1	7
632.314	1	-3
632.653	1	-1
632.993	1	-3
633.332	1	2
633.671	1	-4
634.010	1	-6
634.349	1	-1
634.689	1	-2
635.028	1	5
635.367	1	7
635.706	1	6
636.045	1	15
636.384	1	-7
636.724	1	3
637.063	1	1
637.402	1	7
637.741	1	0
638.080	1	1
638.419	1	-6
638.759	1	-2
639.098	1	6
639.437	1	0
639.776	1	-7
640.115	1	3
640.454	1	-8
640.793	1	4
641.132	1	11
641.472	1	2
641.811	1	-4
642.150	1	-4
642.489	1	6
642.828	1	-4
643.167	1	-6
643.506	1	-13
643.845	1	0
644.184	1	-2
644.524	1	-7
644.863	1	-7
645.202	1	4
645.541	1	-9
645.880	1	5
646.219	1	-1
646.558	1	-8
646.897	1	0
647.236	1	-3
647.575	1	2
647.914	1	-13
648.253	1	5
648.592	1	-4
648.931	1	16
649.270	1	2
649.610	1	3
649.949	1	-17
650.288	1	-3
650.627	1	-5
650.966	1	5
651.305	1	1
651.644	1	5
651.983	1	1
652.322	1	-7
652.661	1	-7
653.000	1	-2
653.339	1	7
653.678	1	3
654.017	1	-3
654.356	1	-3
654.695	1	5
655.034	1	7
655.373	1	2
655.712	1	2
656.051	1	-4
656.390	1	5
656.729	1	7
657.068	1	5
657.406	1	6
657.745	1	-7
658.084	1	5
658.423	1	-2
658.762	1	-6
659.101	1	9
659.440	1	1
659.779	1	1
660.118	1	6
660.457	1	-8
660.796	1	1
661.135	1	-4
661.474	1	0
661.813	1	13
662.152	1	6
662.491	1	-14
662.829	1	-12
663.168	1	-2
663.507	1	3
663.846	1	-13
664.185	1	3
664.524	1	-2
664.863	1	2
665.202	1	8
665.541	1	-7
665.879	1	-3
666.218	1	0
666.557	1	-5
666.896	1	-7
667.235	1	7
667.574	1	-1
667.913	1	-4
668.251	1	-11
668.590	1	0
668.929	1	-15
669.268	1	3
669.607	1	-4
669.946	1	4
670.285	1	12
670.623	1	0
670.962	1	2
671.301	1	-1
671.640	1	-11
671.979	1	2
672.317	1	3
672.656	1	0
672.995	1	-3
673.334	1	-3
673.673	1	3
674.011	1	4
674.350	1	-1
674.689	1	-4
675.028	1	-4
675.367	1	7
675.705	1	-3
676.044	1	-3
676.383	1	1
676.722	1	1
677.060	1	-3
677.399	1	-18
677.738	1	1
678.077	1	-1
678.416	1	0
678.754	1	-3
679.093	1	4
679.432	1	0
679.771	1	0
680.109	1	7
680.448	1	0
680.787	1	0
681.125	1	-3
681.464	1	-7
681.803	1	-3
682.142	1	7
682.480	1	15
682.819	1	4
683.158	1	0
683.496	1	0
683.835	1	1
684.174	1	1
684.512	1	3
684.851	1	6
685.190	1	-7
685.529	1	4
685.867	1	-7
686.206	1	-6
686.545	1	-17
686.883	1	-6
687.222	1	10
687.561	1	6
687.899	1	-8
688.238	1	-5
688.577	1	-7
688.746	1	-4