File: Data/GaN_200K_800ms/GaN_sample F_spot 12_UVVIS_200 K_200um_800 ms 2x2mm1_55.txt
340.368	1	-1
340.710	1	-3
341.052	1	10
341.394	1	11
341.737	1	9
342.079	1	0
342.421	1	7
342.763	1	15
343.105	1	-1
343.447	1	-11
343.789	1	2
344.131	1	10
344.473	1	7
344.815	1	6
345.157	1	-5
345.499	1	-2
345.841	1	15
346.183	1	4
346.526	1	1
346.868	1	9
347.210	1	-8
347.552	1	13
347.894	1	13
348.236	1	15
348.578	1	9
348.920	1	7
349.262	1	15
349.604	1	9
349.946	1	6
350.288	1	17
350.630	1	11
350.972	1	8
351.314	1	20
351.656	1	17
351.998	1	10
352.340	1	13
352.682	1	20
353.024	1	8
353.366	1	22
353.708	1	14
354.050	1	6
354.392	1	8
354.734	1	17
355.076	1	20
355.418	1	8
355.760	1	19
356.102	1	23
356.444	1	22
356.785	1	32
357.127	1	20
357.469	1	22
357.811	1	30
358.153	1	39
358.495	1	42
358.837	1	22
359.179	1	43
359.521	1	52
359.863	1	37
360.205	1	52
360.547	1	59
360.889	1	52
361.231	1	61
361.572	1	74
361.914	1	77
362.256	1	84
362.598	1	94
362.940	1	93
363.282	1	111
363.624	1	124
363.966	1	124
364.308	1	138
364.649	1	149
364.991	1	168
365.333	1	181
365.675	1	198
366.017	1	224
366.359	1	248
366.701	1	255
367.042	1	287
367.384	1	303
367.726	1	322
368.068	1	335
368.410	1	352
368.752	1	357
369.093	1	363
369.435	1	380
369.777	1	378
370.119	1	376
370.461	1	365
370.803	1	352
371.144	1	338
371.486	1	331
371.828	1	320
372.170	1	308
372.512	1	289
372.853	1	272
373.195	1	257
373.537	1	255
373.879	1	222
374.220	1	238
374.562	1	223
374.904	1	195
375.246	1	205
375.588	1	187
375.929	1	195
376.271	1	162
376.613	1	159
376.955	1	137
377.296	1	139
377.638	1	132
377.980	1	123
378.321	1	122
378.663	1	119
379.005	1	120
379.347	1	107
379.688	1	114
380.030	1	89
380.372	1	85
380.714	1	102
381.055	1	100
381.397	1	77
381.739	1	86
382.080	1	86
382.422	1	74
382.764	1	64
383.105	1	72
383.447	1	66
383.789	1	64
384.130	1	64
384.472	1	61
384.814	1	51
385.156	1	39
385.497	1	55
385.839	1	44
386.180	1	48
386.522	1	58
386.864	1	52
387.205	1	37
387.547	1	29
387.889	1	34
388.230	1	41
388.572	1	35
388.914	1	35
389.255	1	27
389.597	1	40
389.939	1	39
390.280	1	41
390.622	1	29
390.963	1	32
391.305	1	35
391.647	1	38
391.988	1	35
392.330	1	36
392.671	1	31
393.013	1	33
393.355	1	27
393.696	1	27
394.038	1	32
394.379	1	11
394.721	1	10
395.062	1	17
395.404	1	15
395.746	1	17
396.087	1	13
396.429	1	17
396.770	1	5
397.112	1	19
397.453	1	33
397.795	1	16
398.136	1	6
398.478	1	15
398.819	1	19
399.161	1	21
399.503	1	17
399.844	1	11
400.186	1	18
400.527	1	10
400.869	1	16
401.210	1	13
401.552	1	1
401.893	1	11
402.235	1	6
402.576	1	6
402.918	1	7
403.259	1	11
403.601	1	11
403.942	1	25
404.284	1	14
404.625	1	13
404.967	1	9
405.308	1	12
405.649	1	6
405.991	1	-1
406.332	1	14
406.674	1	13
407.015	1	18
407.357	1	9
407.698	1	15
408.040	1	1
408.381	1	15
408.722	1	-9
409.064	1	8
409.405	1	10
409.747	1	14
410.088	1	7
410.430	1	17
410.771	1	10
411.112	1	5
411.454	1	-6
411.795	1	-3
412.137	1	8
412.478	1	17
412.819	1	4
413.161	1	8
413.502	1	8
413.844	1	11
414.185	1	3
414.526	1	2
414.868	1	10
415.209	1	7
415.550	1	4
415.892	1	10
416.233	1	10
416.575	1	20
416.916	1	0
417.257	1	8
417.599	1	13
417.940	1	13
418.281	1	8
418.623	1	6
418.964	1	-10
419.305	1	3
419.647	1	4
419.988	1	8
420.329	1	-4
420.671	1	12
421.012	1	10
421.353	1	4
421.695	1	6
422.036	1	5
422.377	1	-1
422.718	1	19
423.060	1	1
423.401	1	2
423.742	1	10
424.084	1	8
424.425	1	0
424.766	1	1
425.107	1	3
425.449	1	8
425.790	1	-7
426.131	1	7
426.472	1	2
426.814	1	11
427.155	1	5
427.496	1	-3
427.837	1	-3
428.179	1	-7
428.520	1	6
428.861	1	1
429.202	1	5
429.544	1	-5
429.885	1	9
430.226	1	-7
430.567	1	3
430.909	1	17
431.250	1	6
431.591	1	0
431.932	1	0
432.273	1	4
432.615	1	-2
432.956	1	-9
433.297	1	14
433.638	1	5
433.979	1	3
434.320	1	10
434.662	1	1
435.003	1	10
435.344	1	10
435.685	1	-1
436.026	1	12
436.368	1	0
436.709	1	2
437.050	1	10
437.391	1	9
437.732	1	-4
438.073	1	6
438.414	1	-6
438.756	1	4
439.097	1	-8
439.438	1	-2
439.779	1	4
440.120	1	-2
440.461	1	10
440.802	1	1
441.143	1	18
441.485	1	2
441.826	1	5
442.167	1	2
442.508	1	0
442.849	1	17
443.190	1	2
443.531	1	10
443.872	1	17
444.213	1	4
444.554	1	11
444.895	1	-3
445.237	1	7
445.578	1	-6
445.919	1	-4
446.260	1	1
446.601	1	-1
446.942	1	6
447.283	1	-4
447.624	1	7
447.965	1	6
448.306	1	-3
448.647	1	-7
448.988	1	-7
449.329	1	6
449.670	1	6
450.011	1	12
450.352	1	7
450.693	1	-2
451.034	1	-14
451.375	1	-5
451.716	1	-4
452.057	1	8
452.398	1	-2
452.739	1	10
453.080	1	5
453.421	1	5
453.762	1	1
454.103	1	3
454.444	1	-4
454.785	1	4
455.126	1	13
455.467	1	2
455.808	1	11
456.149	1	10
456.490	1	3
456.831	1	11
457.172	1	2
457.513	1	12
457.854	1	-7
458.195	1	-4
458.536	1	16
458.877	1	1
459.218	1	-6
459.559	1	3
459.899	1	10
460.240	1	14
460.581	1	17
460.922	1	11
461.263	1	-6
461.604	1	0
461.945	1	0
462.286	1	8
462.627	1	3
462.968	1	7
463.309	1	-4
463.649	1	-4
463.990	1	9
464.331	1	-3
464.672	1	-1
465.013	1	-2
465.354	1	9
465.695	1	2
466.036	1	-3
466.376	1	-5
466.717	1	7
467.058	1	4
467.399	1	9
467.740	1	14
468.081	1	5
468.422	1	3
468.762	1	-6
469.103	1	1
469.444	1	0
469.785	1	4
470.126	1	-4
470.467	1	0
470.807	1	3
471.148	1	6
471.489	1	12
471.830	1	-2
472.171	1	-1
472.511	1	-4
472.852	1	3
473.193	1	13
473.534	1	11
473.875	1	9
474.215	1	25
474.556	1	3
474.897	1	18
475.238	1	0
475.578	1	2
475.919	1	4
476.260	1	-1
476.601	1	14
476.942	1	17
477.282	1	3
477.623	1	-3
477.964	1	4
478.305	1	8
478.645	1	18
478.986	1	-2
479.327	1	-2
479.667	1	-2
480.008	1	1
480.349	1	-6
480.690	1	10
481.030	1	0
481.371	1	13
481.712	1	4
482.053	1	8
482.393	1	4
482.734	1	-1
483.075	1	5
483.415	1	7
483.756	1	9
484.097	1	3
484.437	1	-6
484.778	1	7
485.119	1	10
485.459	1	23
485.800	1	9
486.141	1	-2
486.481	1	5
486.822	1	14
487.163	1	6
487.503	1	14
487.844	1	11
488.185	1	10
488.525	1	12
488.866	1	7
489.207	1	6
489.547	1	12
489.888	1	0
490.228	1	12
490.569	1	22
490.910	1	13
491.250	1	6
491.591	1	1
491.932	1	8
492.272	1	0
492.613	1	8
492.953	1	4
493.294	1	8
493.635	1	9
493.975	1	15
494.316	1	15
494.656	1	4
494.997	1	4
495.337	1	23
495.678	1	13
496.019	1	17
496.359	1	16
496.700	1	1
497.040	1	14
497.381	1	12
497.721	1	14
498.062	1	11
498.403	1	18
498.743	1	4
499.084	1	9
499.424	1	17
499.765	1	13
500.105	1	9
500.446	1	5
500.786	1	-2
501.127	1	13
501.467	1	1
501.808	1	17
502.148	1	12
502.489	1	15
502.829	1	13
503.170	1	20
503.510	1	10
503.851	1	7
504.191	1	23
504.532	1	18
504.872	1	21
505.213	1	27
505.553	1	7
505.894	1	16
506.234	1	20
506.575	1	21
506.915	1	22
507.256	1	16
507.596	1	21
507.936	1	17
508.277	1	10
508.617	1	7
508.958	1	17
509.298	1	23
509.639	1	10
509.979	1	16
510.319	1	28
510.660	1	18
511.000	1	21
511.341	1	10
511.681	1	20
512.022	1	16
512.362	1	8
512.702	1	16
513.043	1	21
513.383	1	9
513.724	1	19
514.064	1	33
514.404	1	19
514.745	1	16
515.085	1	14
515.425	1	26
515.766	1	10
516.106	1	26
516.447	1	38
516.787	1	22
517.127	1	9
517.468	1	20
517.808	1	19
518.148	1	29
518.489	1	18
518.829	1	26
519.169	1	24
519.510	1	16
519.850	1	20
520.190	1	18
520.531	1	29
520.871	1	29
521.211	1	12
521.552	1	22
521.892	1	26
522.232	1	22
522.573	1	26
522.913	1	30
523.253	1	27
523.593	1	27
523.934	1	24
524.274	1	29
524.614	1	21
524.955	1	19
525.295	1	29
525.635	1	28
525.975	1	27
526.316	1	30
526.656	1	29
526.996	1	32
527.337	1	14
527.677	1	35
528.017	1	21
528.357	1	31
528.698	1	27
529.038	1	26
529.378	1	32
529.718	1	37
530.058	1	33
530.399	1	37
530.739	1	33
531.079	1	34
531.419	1	32
531.760	1	42
532.100	1	32
532.440	1	35
532.780	1	26
533.120	1	33
533.461	1	31
533.801	1	44
534.141	1	29
534.481	1	22
534.821	1	41
535.162	1	26
535.502	1	31
535.842	1	38
536.182	1	34
536.522	1	28
536.862	1	36
537.203	1	29
537.543	1	29
537.883	1	34
538.223	1	34
538.563	1	31
538.903	1	29
539.243	1	29
539.584	1	28
539.924	1	43
540.264	1	22
540.604	1	38
540.944	1	20
541.284	1	36
541.624	1	26
541.964	1	34
542.305	1	33
542.645	1	39
542.985	1	35
543.325	1	30
543.665	1	34
544.005	1	34
544.345	1	33
544.685	1	35
545.025	1	30
545.365	1	26
545.705	1	23
546.045	1	23
546.386	1	43
546.726	1	25
547.066	1	41
547.406	1	44
547.746	1	24
548.086	1	39
548.426	1	32
548.766	1	28
549.106	1	30
549.446	1	32
549.786	1	25
550.126	1	50
550.466	1	37
550.806	1	32
551.146	1	37
551.486	1	33
551.826	1	30
552.166	1	40
552.506	1	43
552.846	1	37
553.186	1	36
553.526	1	20
553.866	1	39
554.206	1	42
554.546	1	47
554.886	1	41
555.226	1	33
555.566	1	34
555.906	1	41
556.246	1	45
556.586	1	32
556.926	1	30
557.266	1	31
557.606	1	37
557.946	1	36
558.286	1	38
558.626	1	31
558.966	1	27
559.306	1	35
559.646	1	34
559.986	1	32
560.325	1	26
560.665	1	29
561.005	1	24
561.345	1	24
561.685	1	33
562.025	1	34
562.365	1	34
562.705	1	32
563.045	1	29
563.385	1	30
563.725	1	40
564.064	1	38
564.404	1	30
564.744	1	37
565.084	1	31
565.424	1	38
565.764	1	28
566.104	1	35
566.444	1	31
566.783	1	29
567.123	1	35
567.463	1	37
567.803	1	27
568.143	1	34
568.483	1	40
568.823	1	33
569.162	1	39
569.502	1	24
569.842	1	39
570.182	1	27
570.522	1	15
570.862	1	24
571.201	1	46
571.541	1	42
571.881	1	41
572.221	1	33
572.561	1	24
572.900	1	28
573.240	1	32
573.580	1	26
573.920	1	39
574.260	1	31
574.599	1	32
574.939	1	30
575.279	1	43
575.619	1	40
575.959	1	25
576.298	1	42
576.638	1	21
576.978	1	41
577.318	1	29
577.657	1	27
577.997	1	37
578.337	1	48
578.677	1	38
579.016	1	35
579.356	1	32
579.696	1	41
580.036	1	31
580.375	1	23
580.715	1	27
581.055	1	30
581.394	1	30
581.734	1	31
582.074	1	28
582.414	1	46
582.753	1	19
583.093	1	32
583.433	1	27
583.772	1	42
584.112	1	30
584.452	1	39
584.791	1	17
585.131	1	34
585.471	1	46
585.811	1	43
586.150	1	28
586.490	1	35
586.830	1	35
587.169	1	23
587.509	1	29
587.849	1	32
588.188	1	35
588.528	1	25
588.867	1	30
589.207	1	33
589.547	1	31
589.886	1	24
590.226	1	34
590.566	1	25
590.905	1	29
591.245	1	14
591.585	1	27
591.924	1	32
592.264	1	39
592.603	1	25
592.943	1	40
593.283	1	24
593.622	1	28
593.962	1	30
594.301	1	24
594.641	1	18
594.981	1	26
595.320	1	36
595.660	1	16
595.999	1	16
596.339	1	27
596.678	1	13
597.018	1	33
597.358	1	31
597.697	1	12
598.037	1	23
598.376	1	18
598.716	1	29
599.055	1	29
599.395	1	22
599.734	1	26
600.074	1	18
600.413	1	29
600.753	1	24
601.092	1	44
601.432	1	15
601.771	1	33
602.111	1	24
602.451	1	30
602.790	1	26
603.130	1	31
603.469	1	15
603.809	1	25
604.148	1	27
604.487	1	25
604.827	1	23
605.166	1	36
605.506	1	27
605.845	1	28
606.185	1	34
606.524	1	13
606.864	1	25
607.203	1	15
607.543	1	34
607.882	1	31
608.222	1	29
608.561	1	25
608.901	1	27
609.240	1	23
609.579	1	27
609.919	1	32
610.258	1	38
610.598	1	20
610.937	1	24
611.277	1	26
611.616	1	25
611.955	1	26
612.295	1	16
612.634	1	24
612.974	1	17
613.313	1	16
613.652	1	20
613.992	1	19
614.331	1	19
614.671	1	18
615.010	1	11
615.349	1	35
615.689	1	32
616.028	1	21
616.368	1	30
616.707	1	17
617.046	1	34
617.386	1	20
617.725	1	22
618.064	1	10
618.404	1	13
618.743	1	27
619.082	1	12
619.422	1	12
619.761	1	17
620.100	1	23
620.440	1	12
620.779	1	15
621.118	1	6
621.458	1	26
621.797	1	15
622.136	1	27
622.476	1	27
622.815	1	21
623.154	1	9
623.494	1	21
623.833	1	18
624.172	1	11
624.511	1	9
624.851	1	7
625.190	1	17
625.529	1	10
625.869	1	24
626.208	1	17
626.547	1	18
626.886	1	23
627.226	1	25
627.565	1	7
627.904	1	12
628.243	1	19
628.583	1	11
628.922	1	22
629.261	1	22
629.600	1	21
629.940	1	13
630.279	1	6
630.618	1	17
630.957	1	11
631.297	1	23
631.636	1	5
631.975	1	25
632.314	1	17
632.653	1	21
632.993	1	12
633.332	1	19
633.671	1	20
634.010	1	5
634.349	1	15
634.689	1	10
635.028	1	12
635.367	1	12
635.706	1	7
636.045	1	22
636.384	1	16
636.724	1	13
637.063	1	15
637.402	1	14
637.741	1	15
638.080	1	12
638.419	1	4
638.759	1	4
639.098	1	20
639.437	1	15
639.776	1	12
640.115	1	16
640.454	1	15
640.793	1	24
641.132	1	20
641.472	1	9
641.811	1	6
642.150	1	5
642.489	1	18
642.828	1	10
643.167	1	6
643.506	1	7
643.845	1	9
644.184	1	14
644.524	1	7
644.863	1	4
645.202	1	20
645.541	1	15
645.880	1	17
646.219	1	17
646.558	1	11
646.897	1	12
647.236	1	9
647.575	1	19
647.914	1	11
648.253	1	20
648.592	1	3
648.931	1	12
649.270	1	11
649.610	1	11
649.949	1	8
650.288	1	16
650.627	1	-1
650.966	1	17
651.305	1	17
651.644	1	19
651.983	1	6
652.322	1	8
652.661	1	4
653.000	1	9
653.339	1	16
653.678	1	13
654.017	1	10
654.356	1	4
654.695	1	19
655.034	1	8
655.373	1	14
655.712	1	15
656.051	1	11
656.390	1	0
656.729	1	19
657.068	1	11
657.406	1	15
657.745	1	7
658.084	1	15
658.423	1	23
658.762	1	5
659.101	1	22
659.440	1	8
659.779	1	11
660.118	1	6
660.457	1	14
660.796	1	4
661.135	1	9
661.474	1	3
661.813	1	15
662.152	1	18
662.491	1	8
662.829	1	9
663.168	1	2
663.507	1	14
663.846	1	4
664.185	1	13
664.524	1	9
664.863	1	8
665.202	1	13
665.541	1	10
665.879	1	7
666.218	1	1
666.557	1	3
666.896	1	4
667.235	1	12
667.574	1	5
667.913	1	6
668.251	1	1
668.590	1	5
668.929	1	-1
669.268	1	6
669.607	1	12
669.946	1	14
670.285	1	12
670.623	1	9
670.962	1	10
671.301	1	7
671.640	1	7
671.979	1	-5
672.317	1	18
672.656	1	4
672.995	1	18
673.334	1	7
673.673	1	24
674.011	1	15
674.350	1	9
674.689	1	6
675.028	1	15
675.367	1	3
675.705	1	17
676.044	1	13
676.383	1	10
676.722	1	4
677.060	1	1
677.399	1	14
677.738	1	13
678.077	1	21
678.416	1	8
678.754	1	8
679.093	1	19
679.432	1	4
679.771	1	2
680.109	1	23
680.448	1	8
680.787	1	10
681.125	1	7
681.464	1	13
681.803	1	16
682.142	1	26
682.480	1	7
682.819	1	9
683.158	1	10
683.496	1	15
683.835	1	23
684.174	1	13
684.512	1	11
684.851	1	15
685.190	1	12
685.529	1	7
685.867	1	3
686.206	1	4
686.545	1	6
686.883	1	14
687.222	1	16
687.561	1	12
687.899	1	8
688.238	1	19
688.577	1	8
688.746	1	19