File: Data/GaN_200K_800ms/GaN_sample F_spot 12_UVVIS_200 K_200um_800 ms 2x2mm1_247.txt
340.368	1	-1
340.710	1	-7
341.052	1	-2
341.394	1	-6
341.737	1	7
342.079	1	-4
342.421	1	3
342.763	1	7
343.105	1	-3
343.447	1	-7
343.789	1	-2
344.131	1	-2
344.473	1	-2
344.815	1	1
345.157	1	-1
345.499	1	0
345.841	1	8
346.183	1	-5
346.526	1	-2
346.868	1	5
347.210	1	-12
347.552	1	0
347.894	1	-2
348.236	1	12
348.578	1	3
348.920	1	4
349.262	1	-3
349.604	1	3
349.946	1	-7
350.288	1	7
350.630	1	5
350.972	1	3
351.314	1	7
351.656	1	6
351.998	1	4
352.340	1	13
352.682	1	12
353.024	1	4
353.366	1	9
353.708	1	3
354.050	1	3
354.392	1	-5
354.734	1	-1
355.076	1	6
355.418	1	-9
355.760	1	3
356.102	1	7
356.444	1	7
356.785	1	2
357.127	1	-5
357.469	1	4
357.811	1	1
358.153	1	10
358.495	1	2
358.837	1	-4
359.179	1	4
359.521	1	3
359.863	1	5
360.205	1	3
360.547	1	12
360.889	1	1
361.231	1	7
361.572	1	8
361.914	1	4
362.256	1	6
362.598	1	3
362.940	1	6
363.282	1	10
363.624	1	16
363.966	1	7
364.308	1	1
364.649	1	13
364.991	1	6
365.333	1	13
365.675	1	6
366.017	1	11
366.359	1	16
366.701	1	28
367.042	1	17
367.384	1	19
367.726	1	17
368.068	1	30
368.410	1	31
368.752	1	24
369.093	1	9
369.435	1	30
369.777	1	16
370.119	1	19
370.461	1	36
370.803	1	18
371.144	1	24
371.486	1	29
371.828	1	26
372.170	1	22
372.512	1	16
372.853	1	34
373.195	1	13
373.537	1	11
373.879	1	14
374.220	1	24
374.562	1	32
374.904	1	12
375.246	1	10
375.588	1	17
375.929	1	25
376.271	1	16
376.613	1	12
376.955	1	4
377.296	1	4
377.638	1	3
377.980	1	13
378.321	1	2
378.663	1	5
379.005	1	27
379.347	1	5
379.688	1	9
380.030	1	10
380.372	1	-4
380.714	1	2
381.055	1	10
381.397	1	7
381.739	1	9
382.080	1	8
382.422	1	-2
382.764	1	0
383.105	1	7
383.447	1	1
383.789	1	2
384.130	1	5
384.472	1	11
384.814	1	0
385.156	1	0
385.497	1	5
385.839	1	-1
386.180	1	15
386.522	1	16
386.864	1	5
387.205	1	4
387.547	1	0
387.889	1	0
388.230	1	11
388.572	1	2
388.914	1	2
389.255	1	1
389.597	1	7
389.939	1	8
390.280	1	-2
390.622	1	0
390.963	1	10
391.305	1	14
391.647	1	4
391.988	1	15
392.330	1	0
392.671	1	-5
393.013	1	0
393.355	1	-4
393.696	1	11
394.038	1	3
394.379	1	2
394.721	1	-9
395.062	1	0
395.404	1	-7
395.746	1	6
396.087	1	-4
396.429	1	4
396.770	1	3
397.112	1	11
397.453	1	13
397.795	1	-7
398.136	1	-5
398.478	1	6
398.819	1	3
399.161	1	12
399.503	1	0
399.844	1	2
400.186	1	-9
400.527	1	-6
400.869	1	-4
401.210	1	6
401.552	1	-6
401.893	1	0
402.235	1	-2
402.576	1	-3
402.918	1	2
403.259	1	7
403.601	1	-4
403.942	1	7
404.284	1	4
404.625	1	2
404.967	1	4
405.308	1	7
405.649	1	-6
405.991	1	1
406.332	1	-6
406.674	1	1
407.015	1	2
407.357	1	-8
407.698	1	8
408.040	1	-1
408.381	1	5
408.722	1	-14
409.064	1	-1
409.405	1	15
409.747	1	11
410.088	1	5
410.430	1	5
410.771	1	3
411.112	1	-2
411.454	1	-2
411.795	1	-5
412.137	1	10
412.478	1	8
412.819	1	2
413.161	1	-3
413.502	1	1
413.844	1	0
414.185	1	-2
414.526	1	-8
414.868	1	3
415.209	1	-1
415.550	1	-6
415.892	1	0
416.233	1	5
416.575	1	10
416.916	1	-5
417.257	1	-2
417.599	1	0
417.940	1	5
418.281	1	5
418.623	1	-5
418.964	1	-13
419.305	1	1
419.647	1	-7
419.988	1	-6
420.329	1	-1
420.671	1	5
421.012	1	2
421.353	1	-2
421.695	1	-12
422.036	1	3
422.377	1	-4
422.718	1	0
423.060	1	-3
423.401	1	5
423.742	1	2
424.084	1	8
424.425	1	-2
424.766	1	-2
425.107	1	-2
425.449	1	-1
425.790	1	-4
426.131	1	0
426.472	1	7
426.814	1	3
427.155	1	7
427.496	1	-11
427.837	1	-7
428.179	1	-10
428.520	1	8
428.861	1	8
429.202	1	-1
429.544	1	-11
429.885	1	-3
430.226	1	-15
430.567	1	-3
430.909	1	-6
431.250	1	-5
431.591	1	11
431.932	1	-3
432.273	1	-5
432.615	1	-9
432.956	1	-8
433.297	1	5
433.638	1	-11
433.979	1	3
434.320	1	5
434.662	1	-3
435.003	1	-2
435.344	1	2
435.685	1	-3
436.026	1	14
436.368	1	4
436.709	1	-12
437.050	1	-5
437.391	1	3
437.732	1	-4
438.073	1	-1
438.414	1	-14
438.756	1	-9
439.097	1	-8
439.438	1	7
439.779	1	-7
440.120	1	4
440.461	1	0
440.802	1	1
441.143	1	5
441.485	1	13
441.826	1	-6
442.167	1	0
442.508	1	-2
442.849	1	8
443.190	1	-1
443.531	1	3
443.872	1	4
444.213	1	3
444.554	1	11
444.895	1	-2
445.237	1	-10
445.578	1	-12
445.919	1	-3
446.260	1	-9
446.601	1	3
446.942	1	-11
447.283	1	2
447.624	1	-2
447.965	1	1
448.306	1	-8
448.647	1	-10
448.988	1	-2
449.329	1	-2
449.670	1	5
450.011	1	4
450.352	1	-2
450.693	1	-5
451.034	1	-2
451.375	1	1
451.716	1	-2
452.057	1	2
452.398	1	1
452.739	1	-1
453.080	1	1
453.421	1	0
453.762	1	1
454.103	1	-4
454.444	1	-3
454.785	1	-3
455.126	1	-4
455.467	1	-5
455.808	1	0
456.149	1	8
456.490	1	2
456.831	1	3
457.172	1	-4
457.513	1	-2
457.854	1	-1
458.195	1	-4
458.536	1	4
458.877	1	3
459.218	1	5
459.559	1	-3
459.899	1	1
460.240	1	-4
460.581	1	12
460.922	1	2
461.263	1	-3
461.604	1	-12
461.945	1	-3
462.286	1	-7
462.627	1	7
462.968	1	2
463.309	1	-5
463.649	1	1
463.990	1	2
464.331	1	3
464.672	1	-4
465.013	1	-5
465.354	1	1
465.695	1	-8
466.036	1	-1
466.376	1	-1
466.717	1	5
467.058	1	2
467.399	1	11
467.740	1	3
468.081	1	-1
468.422	1	3
468.762	1	-11
469.103	1	-3
469.444	1	-11
469.785	1	-1
470.126	1	-11
470.467	1	-5
470.807	1	5
471.148	1	-3
471.489	1	-4
471.830	1	11
472.171	1	4
472.511	1	-6
472.852	1	3
473.193	1	7
473.534	1	8
473.875	1	8
474.215	1	15
474.556	1	-5
474.897	1	4
475.238	1	4
475.578	1	-6
475.919	1	-9
476.260	1	1
476.601	1	1
476.942	1	9
477.282	1	8
477.623	1	-3
477.964	1	0
478.305	1	4
478.645	1	5
478.986	1	-2
479.327	1	-3
479.667	1	-2
480.008	1	-4
480.349	1	-3
480.690	1	-9
481.030	1	-7
481.371	1	-1
481.712	1	5
482.053	1	-2
482.393	1	-7
482.734	1	-4
483.075	1	3
483.415	1	-3
483.756	1	9
484.097	1	2
484.437	1	-7
484.778	1	3
485.119	1	-1
485.459	1	17
485.800	1	-3
486.141	1	-7
486.481	1	11
486.822	1	2
487.163	1	-5
487.503	1	10
487.844	1	-4
488.185	1	-1
488.525	1	-1
488.866	1	6
489.207	1	-5
489.547	1	-7
489.888	1	-5
490.228	1	10
490.569	1	8
490.910	1	1
491.250	1	-8
491.591	1	-4
491.932	1	-3
492.272	1	3
492.613	1	0
492.953	1	-4
493.294	1	-2
493.635	1	-4
493.975	1	-3
494.316	1	6
494.656	1	-4
494.997	1	1
495.337	1	12
495.678	1	-4
496.019	1	0
496.359	1	-4
496.700	1	4
497.040	1	2
497.381	1	5
497.721	1	0
498.062	1	-2
498.403	1	3
498.743	1	3
499.084	1	4
499.424	1	2
499.765	1	-10
500.105	1	-1
500.446	1	-6
500.786	1	0
501.127	1	-4
501.467	1	-5
501.808	1	6
502.148	1	-5
502.489	1	8
502.829	1	-1
503.170	1	16
503.510	1	-1
503.851	1	-3
504.191	1	10
504.532	1	2
504.872	1	-3
505.213	1	-1
505.553	1	-2
505.894	1	-6
506.234	1	11
506.575	1	2
506.915	1	3
507.256	1	0
507.596	1	4
507.936	1	1
508.277	1	-11
508.617	1	2
508.958	1	-7
509.298	1	5
509.639	1	6
509.979	1	-2
510.319	1	9
510.660	1	-2
511.000	1	2
511.341	1	-2
511.681	1	-1
512.022	1	2
512.362	1	-6
512.702	1	0
513.043	1	-3
513.383	1	-10
513.724	1	1
514.064	1	14
514.404	1	1
514.745	1	-7
515.085	1	-7
515.425	1	-1
515.766	1	-2
516.106	1	7
516.447	1	13
516.787	1	-4
517.127	1	7
517.468	1	-1
517.808	1	8
518.148	1	5
518.489	1	-10
518.829	1	3
519.169	1	5
519.510	1	-6
519.850	1	2
520.190	1	3
520.531	1	-6
520.871	1	4
521.211	1	-7
521.552	1	10
521.892	1	4
522.232	1	6
522.573	1	-3
522.913	1	0
523.253	1	7
523.593	1	3
523.934	1	-2
524.274	1	-7
524.614	1	-4
524.955	1	-7
525.295	1	5
525.635	1	5
525.975	1	4
526.316	1	8
526.656	1	1
526.996	1	1
527.337	1	1
527.677	1	-3
528.017	1	0
528.357	1	-3
528.698	1	9
529.038	1	7
529.378	1	0
529.718	1	3
530.058	1	9
530.399	1	4
530.739	1	1
531.079	1	4
531.419	1	8
531.760	1	7
532.100	1	-7
532.440	1	-5
532.780	1	-9
533.120	1	3
533.461	1	5
533.801	1	20
534.141	1	-11
534.481	1	-8
534.821	1	7
535.162	1	3
535.502	1	-6
535.842	1	10
536.182	1	0
536.522	1	-7
536.862	1	10
537.203	1	-5
537.543	1	4
537.883	1	-2
538.223	1	9
538.563	1	10
538.903	1	-8
539.243	1	6
539.584	1	-6
539.924	1	18
540.264	1	-7
540.604	1	-1
540.944	1	1
541.284	1	8
541.624	1	13
541.964	1	8
542.305	1	11
542.645	1	-3
542.985	1	10
543.325	1	4
543.665	1	10
544.005	1	12
544.345	1	5
544.685	1	-6
545.025	1	6
545.365	1	2
545.705	1	-3
546.045	1	-4
546.386	1	9
546.726	1	-5
547.066	1	5
547.406	1	0
547.746	1	-16
548.086	1	6
548.426	1	-4
548.766	1	0
549.106	1	2
549.446	1	-3
549.786	1	-5
550.126	1	6
550.466	1	4
550.806	1	3
551.146	1	0
551.486	1	3
551.826	1	5
552.166	1	7
552.506	1	6
552.846	1	2
553.186	1	10
553.526	1	-5
553.866	1	-2
554.206	1	13
554.546	1	11
554.886	1	10
555.226	1	-5
555.566	1	7
555.906	1	-1
556.246	1	6
556.586	1	2
556.926	1	6
557.266	1	-6
557.606	1	-3
557.946	1	12
558.286	1	4
558.626	1	11
558.966	1	1
559.306	1	3
559.646	1	-5
559.986	1	-9
560.325	1	2
560.665	1	-1
561.005	1	-1
561.345	1	5
561.685	1	4
562.025	1	8
562.365	1	7
562.705	1	-2
563.045	1	-3
563.385	1	2
563.725	1	13
564.064	1	-5
564.404	1	1
564.744	1	4
565.084	1	-7
565.424	1	-9
565.764	1	1
566.104	1	3
566.444	1	-5
566.783	1	-5
567.123	1	7
567.463	1	5
567.803	1	-4
568.143	1	1
568.483	1	1
568.823	1	5
569.162	1	7
569.502	1	-12
569.842	1	0
570.182	1	2
570.522	1	-6
570.862	1	4
571.201	1	9
571.541	1	7
571.881	1	7
572.221	1	2
572.561	1	0
572.900	1	-6
573.240	1	1
573.580	1	7
573.920	1	5
574.260	1	3
574.599	1	-5
574.939	1	8
575.279	1	9
575.619	1	8
575.959	1	-5
576.298	1	8
576.638	1	-5
576.978	1	14
577.318	1	3
577.657	1	-1
577.997	1	-6
578.337	1	12
578.677	1	1
579.016	1	13
579.356	1	-9
579.696	1	8
580.036	1	-6
580.375	1	6
580.715	1	3
581.055	1	16
581.394	1	-2
581.734	1	-5
582.074	1	-2
582.414	1	6
582.753	1	-8
583.093	1	-4
583.433	1	8
583.772	1	5
584.112	1	-8
584.452	1	6
584.791	1	-4
585.131	1	4
585.471	1	13
585.811	1	6
586.150	1	1
586.490	1	13
586.830	1	-2
587.169	1	6
587.509	1	4
587.849	1	-2
588.188	1	5
588.528	1	-2
588.867	1	5
589.207	1	-1
589.547	1	3
589.886	1	-5
590.226	1	14
590.566	1	-7
590.905	1	6
591.245	1	-8
591.585	1	7
591.924	1	0
592.264	1	-1
592.603	1	-1
592.943	1	-8
593.283	1	2
593.622	1	1
593.962	1	9
594.301	1	-2
594.641	1	-7
594.981	1	4
595.320	1	1
595.660	1	-3
595.999	1	-3
596.339	1	7
596.678	1	-7
597.018	1	4
597.358	1	3
597.697	1	-8
598.037	1	9
598.376	1	7
598.716	1	9
599.055	1	11
599.395	1	6
599.734	1	2
600.074	1	-4
600.413	1	6
600.753	1	0
601.092	1	11
601.432	1	-7
601.771	1	-4
602.111	1	-1
602.451	1	1
602.790	1	-3
603.130	1	1
603.469	1	-3
603.809	1	3
604.148	1	0
604.487	1	2
604.827	1	-2
605.166	1	6
605.506	1	9
605.845	1	3
606.185	1	7
606.524	1	0
606.864	1	0
607.203	1	-1
607.543	1	0
607.882	1	2
608.222	1	7
608.561	1	4
608.901	1	6
609.240	1	1
609.579	1	3
609.919	1	7
610.258	1	8
610.598	1	-2
610.937	1	6
611.277	1	-3
611.616	1	-3
611.955	1	9
612.295	1	-1
612.634	1	-7
612.974	1	-7
613.313	1	5
613.652	1	7
613.992	1	4
614.331	1	-9
614.671	1	4
615.010	1	-6
615.349	1	8
615.689	1	14
616.028	1	6
616.368	1	2
616.707	1	-3
617.046	1	-7
617.386	1	-2
617.725	1	4
618.064	1	-4
618.404	1	0
618.743	1	0
619.082	1	0
619.422	1	-11
619.761	1	11
620.100	1	11
620.440	1	1
620.779	1	-1
621.118	1	-2
621.458	1	9
621.797	1	-5
622.136	1	3
622.476	1	2
622.815	1	8
623.154	1	12
623.494	1	16
623.833	1	9
624.172	1	-1
624.511	1	6
624.851	1	-6
625.190	1	6
625.529	1	-7
625.869	1	1
626.208	1	2
626.547	1	-1
626.886	1	7
627.226	1	3
627.565	1	8
627.904	1	-3
628.243	1	7
628.583	1	-6
628.922	1	-1
629.261	1	11
629.600	1	5
629.940	1	2
630.279	1	-8
630.618	1	8
630.957	1	3
631.297	1	-3
631.636	1	-3
631.975	1	9
632.314	1	0
632.653	1	10
632.993	1	1
633.332	1	-3
633.671	1	-2
634.010	1	-10
634.349	1	3
634.689	1	0
635.028	1	6
635.367	1	-3
635.706	1	3
636.045	1	21
636.384	1	0
636.724	1	1
637.063	1	2
637.402	1	0
637.741	1	4
638.080	1	-5
638.419	1	-4
638.759	1	-6
639.098	1	1
639.437	1	6
639.776	1	4
640.115	1	2
640.454	1	4
640.793	1	14
641.132	1	11
641.472	1	7
641.811	1	3
642.150	1	-8
642.489	1	2
642.828	1	-3
643.167	1	-5
643.506	1	-11
643.845	1	-7
644.184	1	13
644.524	1	-2
644.863	1	-6
645.202	1	3
645.541	1	-7
645.880	1	3
646.219	1	-1
646.558	1	-12
646.897	1	-3
647.236	1	2
647.575	1	2
647.914	1	-7
648.253	1	8
648.592	1	0
648.931	1	14
649.270	1	-2
649.610	1	-7
649.949	1	-2
650.288	1	4
650.627	1	10
650.966	1	0
651.305	1	0
651.644	1	9
651.983	1	-2
652.322	1	-5
652.661	1	-7
653.000	1	2
653.339	1	1
653.678	1	11
654.017	1	0
654.356	1	-12
654.695	1	9
655.034	1	2
655.373	1	8
655.712	1	-1
656.051	1	-8
656.390	1	-1
656.729	1	13
657.068	1	7
657.406	1	-1
657.745	1	-9
658.084	1	5
658.423	1	9
658.762	1	1
659.101	1	6
659.440	1	-1
659.779	1	11
660.118	1	2
660.457	1	5
660.796	1	-11
661.135	1	-2
661.474	1	-1
661.813	1	12
662.152	1	8
662.491	1	-4
662.829	1	-2
663.168	1	8
663.507	1	5
663.846	1	1
664.185	1	4
664.524	1	-4
664.863	1	-5
665.202	1	10
665.541	1	-11
665.879	1	-8
666.218	1	-8
666.557	1	3
666.896	1	-5
667.235	1	8
667.574	1	-3
667.913	1	9
668.251	1	-4
668.590	1	-2
668.929	1	-8
669.268	1	6
669.607	1	2
669.946	1	-7
670.285	1	4
670.623	1	2
670.962	1	2
671.301	1	1
671.640	1	2
671.979	1	2
672.317	1	7
672.656	1	-5
672.995	1	4
673.334	1	0
673.673	1	5
674.011	1	4
674.350	1	1
674.689	1	8
675.028	1	0
675.367	1	10
675.705	1	0
676.044	1	3
676.383	1	3
676.722	1	-1
677.060	1	-6
677.399	1	-13
677.738	1	2
678.077	1	7
678.416	1	2
678.754	1	-5
679.093	1	9
679.432	1	4
679.771	1	-2
680.109	1	9
680.448	1	0
680.787	1	-7
681.125	1	7
681.464	1	-2
681.803	1	11
682.142	1	7
682.480	1	15
682.819	1	-2
683.158	1	-2
683.496	1	8
683.835	1	5
684.174	1	-2
684.512	1	3
684.851	1	6
685.190	1	7
685.529	1	1
685.867	1	13
686.206	1	-3
686.545	1	3
686.883	1	5
687.222	1	5
687.561	1	8
687.899	1	5
688.238	1	12
688.577	1	-8
688.746	1	3