File: Data/GaN_200K_800ms/GaN_sample F_spot 12_UVVIS_200 K_200um_800 ms 2x2mm1_380.txt
340.368	1	5
340.710	1	-15
341.052	1	-6
341.394	1	-14
341.737	1	3
342.079	1	-8
342.421	1	-2
342.763	1	3
343.105	1	0
343.447	1	0
343.789	1	-2
344.131	1	-2
344.473	1	-4
344.815	1	2
345.157	1	-13
345.499	1	4
345.841	1	2
346.183	1	-6
346.526	1	-11
346.868	1	0
347.210	1	-8
347.552	1	-8
347.894	1	-2
348.236	1	3
348.578	1	-2
348.920	1	-2
349.262	1	-2
349.604	1	2
349.946	1	-15
350.288	1	1
350.630	1	-2
350.972	1	1
351.314	1	5
351.656	1	1
351.998	1	-2
352.340	1	-1
352.682	1	6
353.024	1	0
353.366	1	9
353.708	1	-5
354.050	1	-8
354.392	1	-8
354.734	1	-1
355.076	1	1
355.418	1	-7
355.760	1	-5
356.102	1	6
356.444	1	-1
356.785	1	4
357.127	1	-4
357.469	1	-1
357.811	1	4
358.153	1	5
358.495	1	2
358.837	1	-4
359.179	1	3
359.521	1	3
359.863	1	1
360.205	1	5
360.547	1	0
360.889	1	-5
361.231	1	-9
361.572	1	0
361.914	1	7
362.256	1	5
362.598	1	-2
362.940	1	-2
363.282	1	6
363.624	1	13
363.966	1	3
364.308	1	-3
364.649	1	10
364.991	1	2
365.333	1	-1
365.675	1	6
366.017	1	6
366.359	1	10
366.701	1	5
367.042	1	18
367.384	1	16
367.726	1	12
368.068	1	8
368.410	1	21
368.752	1	10
369.093	1	6
369.435	1	10
369.777	1	-3
370.119	1	13
370.461	1	25
370.803	1	15
371.144	1	10
371.486	1	14
371.828	1	6
372.170	1	13
372.512	1	9
372.853	1	7
373.195	1	8
373.537	1	3
373.879	1	5
374.220	1	14
374.562	1	18
374.904	1	5
375.246	1	8
375.588	1	5
375.929	1	9
376.271	1	18
376.613	1	3
376.955	1	-2
377.296	1	2
377.638	1	11
377.980	1	7
378.321	1	-9
378.663	1	-6
379.005	1	15
379.347	1	2
379.688	1	4
380.030	1	2
380.372	1	-6
380.714	1	7
381.055	1	6
381.397	1	4
381.739	1	3
382.080	1	6
382.422	1	-2
382.764	1	-6
383.105	1	-1
383.447	1	-1
383.789	1	2
384.130	1	3
384.472	1	0
384.814	1	-1
385.156	1	4
385.497	1	-1
385.839	1	4
386.180	1	0
386.522	1	14
386.864	1	4
387.205	1	-9
387.547	1	-6
387.889	1	0
388.230	1	4
388.572	1	-1
388.914	1	-9
389.255	1	-7
389.597	1	6
389.939	1	-1
390.280	1	-6
390.622	1	-3
390.963	1	11
391.305	1	5
391.647	1	5
391.988	1	1
392.330	1	6
392.671	1	0
393.013	1	-2
393.355	1	0
393.696	1	2
394.038	1	-7
394.379	1	-1
394.721	1	-10
395.062	1	3
395.404	1	-6
395.746	1	6
396.087	1	-9
396.429	1	1
396.770	1	0
397.112	1	9
397.453	1	6
397.795	1	6
398.136	1	-8
398.478	1	-4
398.819	1	3
399.161	1	5
399.503	1	1
399.844	1	-3
400.186	1	-3
400.527	1	-3
400.869	1	4
401.210	1	8
401.552	1	-1
401.893	1	-5
402.235	1	-2
402.576	1	-3
402.918	1	7
403.259	1	12
403.601	1	-8
403.942	1	7
404.284	1	10
404.625	1	-3
404.967	1	6
405.308	1	0
405.649	1	2
405.991	1	-5
406.332	1	7
406.674	1	-7
407.015	1	5
407.357	1	2
407.698	1	10
408.040	1	-11
408.381	1	3
408.722	1	-17
409.064	1	1
409.405	1	12
409.747	1	0
410.088	1	8
410.430	1	6
410.771	1	6
411.112	1	-1
411.454	1	-8
411.795	1	-4
412.137	1	-1
412.478	1	10
412.819	1	-8
413.161	1	4
413.502	1	-8
413.844	1	-7
414.185	1	8
414.526	1	-3
414.868	1	-3
415.209	1	0
415.550	1	-11
415.892	1	1
416.233	1	-1
416.575	1	14
416.916	1	-8
417.257	1	-13
417.599	1	4
417.940	1	10
418.281	1	0
418.623	1	-6
418.964	1	-21
419.305	1	8
419.647	1	1
419.988	1	9
420.329	1	-4
420.671	1	8
421.012	1	1
421.353	1	-3
421.695	1	-2
422.036	1	1
422.377	1	-8
422.718	1	5
423.060	1	-7
423.401	1	-4
423.742	1	0
424.084	1	2
424.425	1	2
424.766	1	-2
425.107	1	-10
425.449	1	1
425.790	1	-13
426.131	1	-10
426.472	1	2
426.814	1	1
427.155	1	-3
427.496	1	-1
427.837	1	-6
428.179	1	-4
428.520	1	-1
428.861	1	0
429.202	1	6
429.544	1	-1
429.885	1	6
430.226	1	-1
430.567	1	0
430.909	1	4
431.250	1	-9
431.591	1	6
431.932	1	-4
432.273	1	-4
432.615	1	-7
432.956	1	-9
433.297	1	11
433.638	1	-4
433.979	1	3
434.320	1	9
434.662	1	-3
435.003	1	1
435.344	1	-6
435.685	1	-2
436.026	1	4
436.368	1	-3
436.709	1	-11
437.050	1	-6
437.391	1	3
437.732	1	-8
438.073	1	4
438.414	1	-10
438.756	1	-4
439.097	1	-6
439.438	1	-7
439.779	1	-3
440.120	1	0
440.461	1	-1
440.802	1	-13
441.143	1	-3
441.485	1	0
441.826	1	-1
442.167	1	0
442.508	1	-8
442.849	1	4
443.190	1	-1
443.531	1	1
443.872	1	3
444.213	1	0
444.554	1	9
444.895	1	-7
445.237	1	-11
445.578	1	-12
445.919	1	-9
446.260	1	-5
446.601	1	-9
446.942	1	-4
447.283	1	1
447.624	1	-10
447.965	1	-2
448.306	1	-2
448.647	1	-6
448.988	1	-8
449.329	1	-7
449.670	1	9
450.011	1	10
450.352	1	4
450.693	1	-11
451.034	1	-1
451.375	1	-4
451.716	1	-3
452.057	1	2
452.398	1	-5
452.739	1	10
453.080	1	5
453.421	1	-5
453.762	1	1
454.103	1	-7
454.444	1	-8
454.785	1	-9
455.126	1	-12
455.467	1	2
455.808	1	0
456.149	1	1
456.490	1	8
456.831	1	3
457.172	1	-11
457.513	1	-5
457.854	1	4
458.195	1	-8
458.536	1	7
458.877	1	2
459.218	1	4
459.559	1	-3
459.899	1	5
460.240	1	-2
460.581	1	10
460.922	1	7
461.263	1	0
461.604	1	-4
461.945	1	-10
462.286	1	-3
462.627	1	8
462.968	1	3
463.309	1	-3
463.649	1	-5
463.990	1	-5
464.331	1	-2
464.672	1	0
465.013	1	-4
465.354	1	-1
465.695	1	-12
466.036	1	-8
466.376	1	-8
466.717	1	-6
467.058	1	-8
467.399	1	7
467.740	1	1
468.081	1	-2
468.422	1	-1
468.762	1	-7
469.103	1	-19
469.444	1	-11
469.785	1	-14
470.126	1	-10
470.467	1	0
470.807	1	-2
471.148	1	6
471.489	1	-8
471.830	1	-3
472.171	1	2
472.511	1	-10
472.852	1	-8
473.193	1	2
473.534	1	1
473.875	1	9
474.215	1	6
474.556	1	7
474.897	1	0
475.238	1	1
475.578	1	-11
475.919	1	-1
476.260	1	-7
476.601	1	5
476.942	1	2
477.282	1	-3
477.623	1	-13
477.964	1	-8
478.305	1	-4
478.645	1	2
478.986	1	1
479.327	1	-11
479.667	1	-2
480.008	1	-4
480.349	1	-7
480.690	1	2
481.030	1	1
481.371	1	4
481.712	1	3
482.053	1	5
482.393	1	-2
482.734	1	-10
483.075	1	-5
483.415	1	1
483.756	1	7
484.097	1	-5
484.437	1	-4
484.778	1	0
485.119	1	-1
485.459	1	2
485.800	1	-6
486.141	1	3
486.481	1	0
486.822	1	7
487.163	1	-8
487.503	1	1
487.844	1	-7
488.185	1	-1
488.525	1	3
488.866	1	0
489.207	1	-4
489.547	1	-1
489.888	1	-2
490.228	1	1
490.569	1	11
490.910	1	0
491.250	1	-8
491.591	1	-12
491.932	1	6
492.272	1	1
492.613	1	-9
492.953	1	-4
493.294	1	-9
493.635	1	-1
493.975	1	-4
494.316	1	-7
494.656	1	-4
494.997	1	-5
495.337	1	5
495.678	1	1
496.019	1	-3
496.359	1	-1
496.700	1	4
497.040	1	-2
497.381	1	-3
497.721	1	-3
498.062	1	-2
498.403	1	-9
498.743	1	1
499.084	1	-3
499.424	1	1
499.765	1	-8
500.105	1	6
500.446	1	-14
500.786	1	-1
501.127	1	-4
501.467	1	-6
501.808	1	-1
502.148	1	1
502.489	1	6
502.829	1	-3
503.170	1	15
503.510	1	8
503.851	1	3
504.191	1	9
504.532	1	-2
504.872	1	-7
505.213	1	1
505.553	1	-11
505.894	1	2
506.234	1	8
506.575	1	-3
506.915	1	5
507.256	1	2
507.596	1	-5
507.936	1	-3
508.277	1	-6
508.617	1	-5
508.958	1	-5
509.298	1	8
509.639	1	1
509.979	1	-3
510.319	1	1
510.660	1	3
511.000	1	-10
511.341	1	-4
511.681	1	1
512.022	1	-9
512.362	1	-6
512.702	1	-8
513.043	1	-3
513.383	1	-5
513.724	1	-1
514.064	1	6
514.404	1	-6
514.745	1	-3
515.085	1	0
515.425	1	-2
515.766	1	6
516.106	1	-5
516.447	1	11
516.787	1	-4
517.127	1	6
517.468	1	-2
517.808	1	-5
518.148	1	1
518.489	1	-2
518.829	1	6
519.169	1	1
519.510	1	5
519.850	1	1
520.190	1	0
520.531	1	-6
520.871	1	-1
521.211	1	-9
521.552	1	5
521.892	1	6
522.232	1	3
522.573	1	3
522.913	1	-2
523.253	1	4
523.593	1	-7
523.934	1	7
524.274	1	5
524.614	1	-4
524.955	1	1
525.295	1	2
525.635	1	2
525.975	1	1
526.316	1	16
526.656	1	5
526.996	1	-2
527.337	1	1
527.677	1	2
528.017	1	-11
528.357	1	-6
528.698	1	0
529.038	1	1
529.378	1	4
529.718	1	8
530.058	1	-3
530.399	1	6
530.739	1	1
531.079	1	0
531.419	1	5
531.760	1	4
532.100	1	-3
532.440	1	-2
532.780	1	-9
533.120	1	10
533.461	1	-1
533.801	1	17
534.141	1	-7
534.481	1	-5
534.821	1	-2
535.162	1	0
535.502	1	-6
535.842	1	3
536.182	1	2
536.522	1	-11
536.862	1	-5
537.203	1	0
537.543	1	0
537.883	1	-7
538.223	1	-8
538.563	1	0
538.903	1	-9
539.243	1	-5
539.584	1	2
539.924	1	5
540.264	1	0
540.604	1	5
540.944	1	-6
541.284	1	4
541.624	1	3
541.964	1	10
542.305	1	14
542.645	1	1
542.985	1	7
543.325	1	0
543.665	1	14
544.005	1	8
544.345	1	1
544.685	1	-1
545.025	1	0
545.365	1	-4
545.705	1	-6
546.045	1	-9
546.386	1	-2
546.726	1	-10
547.066	1	8
547.406	1	-5
547.746	1	-9
548.086	1	-5
548.426	1	-10
548.766	1	-2
549.106	1	1
549.446	1	-8
549.786	1	3
550.126	1	10
550.466	1	2
550.806	1	-9
551.146	1	-6
551.486	1	-2
551.826	1	7
552.166	1	4
552.506	1	7
552.846	1	1
553.186	1	0
553.526	1	-3
553.866	1	9
554.206	1	3
554.546	1	6
554.886	1	0
555.226	1	4
555.566	1	1
555.906	1	2
556.246	1	5
556.586	1	4
556.926	1	6
557.266	1	-6
557.606	1	9
557.946	1	1
558.286	1	3
558.626	1	-2
558.966	1	5
559.306	1	4
559.646	1	-4
559.986	1	1
560.325	1	-9
560.665	1	-10
561.005	1	2
561.345	1	-2
561.685	1	-10
562.025	1	0
562.365	1	-6
562.705	1	-3
563.045	1	2
563.385	1	-14
563.725	1	6
564.064	1	-4
564.404	1	6
564.744	1	3
565.084	1	-2
565.424	1	4
565.764	1	1
566.104	1	-3
566.444	1	-10
566.783	1	-9
567.123	1	2
567.463	1	9
567.803	1	-7
568.143	1	1
568.483	1	1
568.823	1	-3
569.162	1	0
569.502	1	-8
569.842	1	-3
570.182	1	-7
570.522	1	-12
570.862	1	1
571.201	1	12
571.541	1	3
571.881	1	11
572.221	1	-2
572.561	1	6
572.900	1	-5
573.240	1	-3
573.580	1	-2
573.920	1	0
574.260	1	7
574.599	1	-2
574.939	1	-1
575.279	1	10
575.619	1	5
575.959	1	-6
576.298	1	1
576.638	1	-9
576.978	1	3
577.318	1	6
577.657	1	-4
577.997	1	1
578.337	1	4
578.677	1	-2
579.016	1	8
579.356	1	-6
579.696	1	1
580.036	1	-8
580.375	1	3
580.715	1	3
581.055	1	0
581.394	1	-3
581.734	1	-10
582.074	1	-6
582.414	1	4
582.753	1	-3
583.093	1	-2
583.433	1	-5
583.772	1	6
584.112	1	6
584.452	1	8
584.791	1	-3
585.131	1	-10
585.471	1	2
585.811	1	17
586.150	1	0
586.490	1	2
586.830	1	-2
587.169	1	-1
587.509	1	-7
587.849	1	-3
588.188	1	7
588.528	1	12
588.867	1	0
589.207	1	-4
589.547	1	-3
589.886	1	-7
590.226	1	10
590.566	1	-5
590.905	1	4
591.245	1	3
591.585	1	3
591.924	1	-3
592.264	1	5
592.603	1	-7
592.943	1	4
593.283	1	2
593.622	1	-3
593.962	1	2
594.301	1	6
594.641	1	-6
594.981	1	-7
595.320	1	2
595.660	1	-2
595.999	1	-9
596.339	1	15
596.678	1	-7
597.018	1	3
597.358	1	1
597.697	1	-5
598.037	1	-2
598.376	1	-1
598.716	1	5
599.055	1	15
599.395	1	5
599.734	1	-1
600.074	1	7
600.413	1	2
600.753	1	0
601.092	1	6
601.432	1	-4
601.771	1	0
602.111	1	5
602.451	1	8
602.790	1	-2
603.130	1	4
603.469	1	-16
603.809	1	1
604.148	1	-2
604.487	1	-7
604.827	1	-2
605.166	1	-2
605.506	1	3
605.845	1	3
606.185	1	0
606.524	1	-9
606.864	1	-13
607.203	1	-7
607.543	1	0
607.882	1	9
608.222	1	2
608.561	1	0
608.901	1	4
609.240	1	-11
609.579	1	8
609.919	1	5
610.258	1	7
610.598	1	-4
610.937	1	-5
611.277	1	3
611.616	1	-2
611.955	1	0
612.295	1	-4
612.634	1	0
612.974	1	-13
613.313	1	4
613.652	1	0
613.992	1	-4
614.331	1	-5
614.671	1	5
615.010	1	-9
615.349	1	7
615.689	1	8
616.028	1	-6
616.368	1	-3
616.707	1	0
617.046	1	-5
617.386	1	-1
617.725	1	-4
618.064	1	-5
618.404	1	-3
618.743	1	-3
619.082	1	0
619.422	1	-1
619.761	1	5
620.100	1	8
620.440	1	3
620.779	1	-8
621.118	1	-3
621.458	1	4
621.797	1	-4
622.136	1	9
622.476	1	8
622.815	1	3
623.154	1	2
623.494	1	4
623.833	1	8
624.172	1	0
624.511	1	4
624.851	1	-3
625.190	1	-1
625.529	1	4
625.869	1	10
626.208	1	-5
626.547	1	0
626.886	1	-2
627.226	1	4
627.565	1	-4
627.904	1	-3
628.243	1	1
628.583	1	-3
628.922	1	0
629.261	1	3
629.600	1	3
629.940	1	1
630.279	1	-13
630.618	1	-10
630.957	1	-4
631.297	1	-10
631.636	1	-9
631.975	1	16
632.314	1	3
632.653	1	2
632.993	1	-6
633.332	1	2
633.671	1	-11
634.010	1	-7
634.349	1	1
634.689	1	0
635.028	1	12
635.367	1	-7
635.706	1	-11
636.045	1	5
636.384	1	4
636.724	1	-1
637.063	1	-5
637.402	1	2
637.741	1	3
638.080	1	3
638.419	1	3
638.759	1	-13
639.098	1	2
639.437	1	4
639.776	1	-8
640.115	1	-2
640.454	1	-10
640.793	1	3
641.132	1	5
641.472	1	-1
641.811	1	1
642.150	1	-10
642.489	1	1
642.828	1	-5
643.167	1	-2
643.506	1	-9
643.845	1	2
644.184	1	4
644.524	1	-2
644.863	1	-2
645.202	1	-2
645.541	1	5
645.880	1	6
646.219	1	2
646.558	1	8
646.897	1	4
647.236	1	2
647.575	1	9
647.914	1	-12
648.253	1	9
648.592	1	-7
648.931	1	12
649.270	1	-1
649.610	1	5
649.949	1	-1
650.288	1	2
650.627	1	2
650.966	1	4
651.305	1	4
651.644	1	17
651.983	1	-1
652.322	1	2
652.661	1	5
653.000	1	1
653.339	1	9
653.678	1	-2
654.017	1	3
654.356	1	-11
654.695	1	12
655.034	1	0
655.373	1	5
655.712	1	3
656.051	1	-4
656.390	1	5
656.729	1	-3
657.068	1	4
657.406	1	3
657.745	1	-10
658.084	1	5
658.423	1	1
658.762	1	3
659.101	1	4
659.440	1	-12
659.779	1	-2
660.118	1	1
660.457	1	2
660.796	1	-11
661.135	1	-11
661.474	1	-5
661.813	1	5
662.152	1	-2
662.491	1	-4
662.829	1	-12
663.168	1	-2
663.507	1	7
663.846	1	-1
664.185	1	1
664.524	1	2
664.863	1	-6
665.202	1	7
665.541	1	-14
665.879	1	-11
666.218	1	-12
666.557	1	1
666.896	1	2
667.235	1	5
667.574	1	1
667.913	1	6
668.251	1	-6
668.590	1	3
668.929	1	-11
669.268	1	-3
669.607	1	-6
669.946	1	2
670.285	1	3
670.623	1	-1
670.962	1	-3
671.301	1	5
671.640	1	1
671.979	1	-3
672.317	1	-4
672.656	1	-6
672.995	1	9
673.334	1	-2
673.673	1	-1
674.011	1	1
674.350	1	2
674.689	1	-4
675.028	1	-8
675.367	1	1
675.705	1	1
676.044	1	1
676.383	1	-2
676.722	1	-2
677.060	1	-1
677.399	1	-11
677.738	1	0
678.077	1	0
678.416	1	-1
678.754	1	-6
679.093	1	2
679.432	1	2
679.771	1	3
680.109	1	4
680.448	1	-1
680.787	1	-7
681.125	1	8
681.464	1	-2
681.803	1	0
682.142	1	6
682.480	1	6
682.819	1	-6
683.158	1	2
683.496	1	2
683.835	1	-4
684.174	1	-4
684.512	1	5
684.851	1	-3
685.190	1	-3
685.529	1	-3
685.867	1	-2
686.206	1	-3
686.545	1	-5
686.883	1	-1
687.222	1	3
687.561	1	0
687.899	1	2
688.238	1	-5
688.577	1	-3
688.746	1	8