File: Data/GaN_200K_800ms/GaN_sample F_spot 12_UVVIS_200 K_200um_800 ms 2x2mm1_76.txt
340.368	1	8
340.710	1	-5
341.052	1	13
341.394	1	-12
341.737	1	8
342.079	1	-3
342.421	1	-4
342.763	1	5
343.105	1	10
343.447	1	-1
343.789	1	-2
344.131	1	3
344.473	1	-5
344.815	1	-3
345.157	1	4
345.499	1	6
345.841	1	13
346.183	1	-1
346.526	1	-4
346.868	1	3
347.210	1	-3
347.552	1	1
347.894	1	2
348.236	1	11
348.578	1	8
348.920	1	-1
349.262	1	1
349.604	1	11
349.946	1	1
350.288	1	15
350.630	1	10
350.972	1	3
351.314	1	5
351.656	1	9
351.998	1	13
352.340	1	14
352.682	1	8
353.024	1	5
353.366	1	15
353.708	1	8
354.050	1	4
354.392	1	4
354.734	1	15
355.076	1	20
355.418	1	-3
355.760	1	4
356.102	1	19
356.444	1	12
356.785	1	20
357.127	1	19
357.469	1	11
357.811	1	10
358.153	1	14
358.495	1	27
358.837	1	22
359.179	1	19
359.521	1	29
359.863	1	31
360.205	1	19
360.547	1	37
360.889	1	31
361.231	1	27
361.572	1	39
361.914	1	41
362.256	1	44
362.598	1	46
362.940	1	49
363.282	1	57
363.624	1	75
363.966	1	71
364.308	1	69
364.649	1	84
364.991	1	82
365.333	1	90
365.675	1	95
366.017	1	103
366.359	1	110
366.701	1	119
367.042	1	122
367.384	1	138
367.726	1	148
368.068	1	160
368.410	1	155
368.752	1	146
369.093	1	165
369.435	1	185
369.777	1	176
370.119	1	151
370.461	1	175
370.803	1	163
371.144	1	146
371.486	1	162
371.828	1	146
372.170	1	148
372.512	1	137
372.853	1	129
373.195	1	114
373.537	1	111
373.879	1	108
374.220	1	117
374.562	1	117
374.904	1	108
375.246	1	92
375.588	1	93
375.929	1	88
376.271	1	98
376.613	1	81
376.955	1	67
377.296	1	62
377.638	1	69
377.980	1	68
378.321	1	56
378.663	1	61
379.005	1	58
379.347	1	62
379.688	1	57
380.030	1	41
380.372	1	46
380.714	1	50
381.055	1	47
381.397	1	43
381.739	1	39
382.080	1	45
382.422	1	32
382.764	1	37
383.105	1	29
383.447	1	35
383.789	1	38
384.130	1	31
384.472	1	31
384.814	1	22
385.156	1	32
385.497	1	34
385.839	1	25
386.180	1	33
386.522	1	30
386.864	1	32
387.205	1	28
387.547	1	10
387.889	1	21
388.230	1	17
388.572	1	15
388.914	1	22
389.255	1	26
389.597	1	15
389.939	1	16
390.280	1	13
390.622	1	16
390.963	1	21
391.305	1	17
391.647	1	23
391.988	1	11
392.330	1	16
392.671	1	10
393.013	1	11
393.355	1	20
393.696	1	15
394.038	1	10
394.379	1	12
394.721	1	12
395.062	1	16
395.404	1	12
395.746	1	14
396.087	1	15
396.429	1	10
396.770	1	7
397.112	1	14
397.453	1	15
397.795	1	13
398.136	1	1
398.478	1	14
398.819	1	4
399.161	1	15
399.503	1	5
399.844	1	8
400.186	1	16
400.527	1	2
400.869	1	9
401.210	1	-4
401.552	1	-1
401.893	1	8
402.235	1	1
402.576	1	-3
402.918	1	17
403.259	1	6
403.601	1	11
403.942	1	13
404.284	1	10
404.625	1	15
404.967	1	2
405.308	1	8
405.649	1	12
405.991	1	0
406.332	1	15
406.674	1	2
407.015	1	10
407.357	1	5
407.698	1	9
408.040	1	3
408.381	1	1
408.722	1	-4
409.064	1	2
409.405	1	11
409.747	1	7
410.088	1	4
410.430	1	11
410.771	1	0
411.112	1	5
411.454	1	2
411.795	1	2
412.137	1	3
412.478	1	18
412.819	1	4
413.161	1	1
413.502	1	7
413.844	1	3
414.185	1	8
414.526	1	-3
414.868	1	3
415.209	1	4
415.550	1	1
415.892	1	-1
416.233	1	5
416.575	1	16
416.916	1	-4
417.257	1	3
417.599	1	13
417.940	1	5
418.281	1	6
418.623	1	1
418.964	1	-4
419.305	1	9
419.647	1	2
419.988	1	2
420.329	1	-8
420.671	1	0
421.012	1	5
421.353	1	4
421.695	1	-2
422.036	1	0
422.377	1	-5
422.718	1	-1
423.060	1	0
423.401	1	-1
423.742	1	5
424.084	1	4
424.425	1	4
424.766	1	-1
425.107	1	-3
425.449	1	12
425.790	1	-3
426.131	1	5
426.472	1	6
426.814	1	5
427.155	1	-5
427.496	1	7
427.837	1	-6
428.179	1	-2
428.520	1	8
428.861	1	0
429.202	1	4
429.544	1	8
429.885	1	6
430.226	1	-2
430.567	1	7
430.909	1	-6
431.250	1	-1
431.591	1	4
431.932	1	5
432.273	1	2
432.615	1	-12
432.956	1	5
433.297	1	9
433.638	1	10
433.979	1	2
434.320	1	7
434.662	1	-2
435.003	1	10
435.344	1	11
435.685	1	-2
436.026	1	12
436.368	1	6
436.709	1	9
437.050	1	6
437.391	1	12
437.732	1	2
438.073	1	1
438.414	1	-1
438.756	1	-6
439.097	1	-4
439.438	1	-6
439.779	1	12
440.120	1	9
440.461	1	4
440.802	1	0
441.143	1	3
441.485	1	2
441.826	1	-4
442.167	1	8
442.508	1	1
442.849	1	9
443.190	1	-5
443.531	1	6
443.872	1	16
444.213	1	12
444.554	1	9
444.895	1	-4
445.237	1	0
445.578	1	2
445.919	1	7
446.260	1	1
446.601	1	0
446.942	1	13
447.283	1	-1
447.624	1	-3
447.965	1	0
448.306	1	2
448.647	1	-7
448.988	1	5
449.329	1	9
449.670	1	12
450.011	1	5
450.352	1	6
450.693	1	3
451.034	1	-12
451.375	1	2
451.716	1	-10
452.057	1	7
452.398	1	11
452.739	1	5
453.080	1	5
453.421	1	3
453.762	1	-1
454.103	1	-2
454.444	1	3
454.785	1	7
455.126	1	-2
455.467	1	-4
455.808	1	3
456.149	1	13
456.490	1	5
456.831	1	13
457.172	1	-3
457.513	1	16
457.854	1	8
458.195	1	0
458.536	1	13
458.877	1	3
459.218	1	0
459.559	1	6
459.899	1	-2
460.240	1	-5
460.581	1	18
460.922	1	7
461.263	1	2
461.604	1	-2
461.945	1	1
462.286	1	0
462.627	1	6
462.968	1	10
463.309	1	-1
463.649	1	2
463.990	1	-8
464.331	1	-1
464.672	1	3
465.013	1	3
465.354	1	14
465.695	1	-8
466.036	1	1
466.376	1	-3
466.717	1	6
467.058	1	3
467.399	1	15
467.740	1	4
468.081	1	3
468.422	1	-8
468.762	1	-4
469.103	1	-3
469.444	1	-6
469.785	1	-16
470.126	1	1
470.467	1	1
470.807	1	-3
471.148	1	8
471.489	1	-1
471.830	1	-5
472.171	1	11
472.511	1	-8
472.852	1	2
473.193	1	12
473.534	1	11
473.875	1	11
474.215	1	7
474.556	1	12
474.897	1	7
475.238	1	9
475.578	1	-8
475.919	1	1
476.260	1	1
476.601	1	4
476.942	1	9
477.282	1	2
477.623	1	-12
477.964	1	3
478.305	1	0
478.645	1	19
478.986	1	-7
479.327	1	-5
479.667	1	5
480.008	1	0
480.349	1	-6
480.690	1	-6
481.030	1	-2
481.371	1	0
481.712	1	8
482.053	1	8
482.393	1	6
482.734	1	-9
483.075	1	8
483.415	1	13
483.756	1	20
484.097	1	1
484.437	1	-2
484.778	1	5
485.119	1	1
485.459	1	11
485.800	1	5
486.141	1	0
486.481	1	6
486.822	1	6
487.163	1	7
487.503	1	13
487.844	1	2
488.185	1	6
488.525	1	6
488.866	1	10
489.207	1	-4
489.547	1	-4
489.888	1	1
490.228	1	9
490.569	1	23
490.910	1	7
491.250	1	-4
491.591	1	-11
491.932	1	0
492.272	1	4
492.613	1	4
492.953	1	-1
493.294	1	2
493.635	1	4
493.975	1	0
494.316	1	4
494.656	1	6
494.997	1	9
495.337	1	11
495.678	1	-5
496.019	1	-2
496.359	1	10
496.700	1	8
497.040	1	12
497.381	1	3
497.721	1	0
498.062	1	10
498.403	1	9
498.743	1	6
499.084	1	-1
499.424	1	15
499.765	1	7
500.105	1	8
500.446	1	-6
500.786	1	2
501.127	1	10
501.467	1	0
501.808	1	7
502.148	1	8
502.489	1	9
502.829	1	2
503.170	1	6
503.510	1	14
503.851	1	14
504.191	1	17
504.532	1	11
504.872	1	8
505.213	1	13
505.553	1	8
505.894	1	2
506.234	1	6
506.575	1	12
506.915	1	8
507.256	1	11
507.596	1	12
507.936	1	8
508.277	1	8
508.617	1	6
508.958	1	9
509.298	1	8
509.639	1	1
509.979	1	5
510.319	1	20
510.660	1	10
511.000	1	1
511.341	1	1
511.681	1	18
512.022	1	5
512.362	1	8
512.702	1	8
513.043	1	12
513.383	1	-4
513.724	1	8
514.064	1	16
514.404	1	8
514.745	1	10
515.085	1	11
515.425	1	5
515.766	1	-4
516.106	1	7
516.447	1	21
516.787	1	23
517.127	1	11
517.468	1	13
517.808	1	1
518.148	1	12
518.489	1	6
518.829	1	14
519.169	1	18
519.510	1	14
519.850	1	7
520.190	1	10
520.531	1	15
520.871	1	5
521.211	1	-2
521.552	1	21
521.892	1	12
522.232	1	20
522.573	1	17
522.913	1	10
523.253	1	11
523.593	1	5
523.934	1	8
524.274	1	16
524.614	1	18
524.955	1	5
525.295	1	10
525.635	1	14
525.975	1	8
526.316	1	23
526.656	1	7
526.996	1	18
527.337	1	16
527.677	1	20
528.017	1	-4
528.357	1	17
528.698	1	14
529.038	1	17
529.378	1	23
529.718	1	18
530.058	1	7
530.399	1	26
530.739	1	14
531.079	1	23
531.419	1	17
531.760	1	15
532.100	1	7
532.440	1	-1
532.780	1	12
533.120	1	26
533.461	1	22
533.801	1	37
534.141	1	1
534.481	1	-2
534.821	1	17
535.162	1	10
535.502	1	12
535.842	1	21
536.182	1	12
536.522	1	8
536.862	1	19
537.203	1	10
537.543	1	9
537.883	1	13
538.223	1	11
538.563	1	19
538.903	1	7
539.243	1	10
539.584	1	18
539.924	1	18
540.264	1	14
540.604	1	8
540.944	1	15
541.284	1	17
541.624	1	18
541.964	1	22
542.305	1	16
542.645	1	19
542.985	1	13
543.325	1	21
543.665	1	27
544.005	1	24
544.345	1	14
544.685	1	22
545.025	1	13
545.365	1	8
545.705	1	14
546.045	1	10
546.386	1	23
546.726	1	5
547.066	1	19
547.406	1	22
547.746	1	6
548.086	1	16
548.426	1	10
548.766	1	25
549.106	1	15
549.446	1	27
549.786	1	8
550.126	1	34
550.466	1	23
550.806	1	12
551.146	1	17
551.486	1	16
551.826	1	19
552.166	1	23
552.506	1	17
552.846	1	20
553.186	1	26
553.526	1	25
553.866	1	8
554.206	1	29
554.546	1	20
554.886	1	33
555.226	1	16
555.566	1	25
555.906	1	25
556.246	1	23
556.586	1	14
556.926	1	22
557.266	1	10
557.606	1	31
557.946	1	29
558.286	1	13
558.626	1	20
558.966	1	27
559.306	1	15
559.646	1	9
559.986	1	10
560.325	1	16
560.665	1	17
561.005	1	9
561.345	1	12
561.685	1	24
562.025	1	13
562.365	1	20
562.705	1	21
563.045	1	16
563.385	1	2
563.725	1	16
564.064	1	11
564.404	1	16
564.744	1	18
565.084	1	16
565.424	1	19
565.764	1	14
566.104	1	12
566.444	1	17
566.783	1	13
567.123	1	17
567.463	1	18
567.803	1	20
568.143	1	10
568.483	1	19
568.823	1	16
569.162	1	25
569.502	1	20
569.842	1	21
570.182	1	9
570.522	1	13
570.862	1	19
571.201	1	28
571.541	1	22
571.881	1	20
572.221	1	15
572.561	1	16
572.900	1	11
573.240	1	17
573.580	1	16
573.920	1	19
574.260	1	26
574.599	1	23
574.939	1	27
575.279	1	19
575.619	1	31
575.959	1	20
576.298	1	23
576.638	1	15
576.978	1	28
577.318	1	19
577.657	1	17
577.997	1	13
578.337	1	30
578.677	1	19
579.016	1	33
579.356	1	6
579.696	1	16
580.036	1	13
580.375	1	21
580.715	1	14
581.055	1	16
581.394	1	15
581.734	1	5
582.074	1	15
582.414	1	25
582.753	1	23
583.093	1	11
583.433	1	12
583.772	1	21
584.112	1	8
584.452	1	12
584.791	1	8
585.131	1	15
585.471	1	20
585.811	1	15
586.150	1	16
586.490	1	18
586.830	1	15
587.169	1	18
587.509	1	15
587.849	1	22
588.188	1	22
588.528	1	16
588.867	1	19
589.207	1	10
589.547	1	8
589.886	1	-1
590.226	1	23
590.566	1	17
590.905	1	13
591.245	1	7
591.585	1	20
591.924	1	16
592.264	1	9
592.603	1	15
592.943	1	15
593.283	1	14
593.622	1	16
593.962	1	23
594.301	1	17
594.641	1	12
594.981	1	14
595.320	1	16
595.660	1	13
595.999	1	10
596.339	1	16
596.678	1	1
597.018	1	6
597.358	1	14
597.697	1	22
598.037	1	8
598.376	1	19
598.716	1	14
599.055	1	19
599.395	1	12
599.734	1	14
600.074	1	6
600.413	1	18
600.753	1	18
601.092	1	21
601.432	1	9
601.771	1	17
602.111	1	22
602.451	1	17
602.790	1	13
603.130	1	16
603.469	1	13
603.809	1	25
604.148	1	23
604.487	1	14
604.827	1	20
605.166	1	22
605.506	1	20
605.845	1	6
606.185	1	15
606.524	1	7
606.864	1	17
607.203	1	12
607.543	1	4
607.882	1	15
608.222	1	5
608.561	1	13
608.901	1	11
609.240	1	12
609.579	1	19
609.919	1	17
610.258	1	18
610.598	1	11
610.937	1	18
611.277	1	19
611.616	1	7
611.955	1	16
612.295	1	12
612.634	1	15
612.974	1	-1
613.313	1	14
613.652	1	7
613.992	1	11
614.331	1	7
614.671	1	9
615.010	1	7
615.349	1	28
615.689	1	11
616.028	1	7
616.368	1	11
616.707	1	11
617.046	1	15
617.386	1	9
617.725	1	15
618.064	1	4
618.404	1	12
618.743	1	10
619.082	1	15
619.422	1	6
619.761	1	11
620.100	1	10
620.440	1	13
620.779	1	3
621.118	1	12
621.458	1	17
621.797	1	4
622.136	1	16
622.476	1	13
622.815	1	22
623.154	1	14
623.494	1	16
623.833	1	14
624.172	1	1
624.511	1	11
624.851	1	4
625.190	1	11
625.529	1	7
625.869	1	24
626.208	1	5
626.547	1	10
626.886	1	12
627.226	1	13
627.565	1	4
627.904	1	11
628.243	1	13
628.583	1	12
628.922	1	17
629.261	1	18
629.600	1	17
629.940	1	14
630.279	1	4
630.618	1	4
630.957	1	8
631.297	1	5
631.636	1	2
631.975	1	17
632.314	1	9
632.653	1	4
632.993	1	1
633.332	1	9
633.671	1	3
634.010	1	1
634.349	1	17
634.689	1	11
635.028	1	12
635.367	1	17
635.706	1	5
636.045	1	21
636.384	1	6
636.724	1	8
637.063	1	9
637.402	1	5
637.741	1	11
638.080	1	5
638.419	1	1
638.759	1	-3
639.098	1	13
639.437	1	15
639.776	1	6
640.115	1	13
640.454	1	2
640.793	1	13
641.132	1	17
641.472	1	18
641.811	1	9
642.150	1	1
642.489	1	14
642.828	1	5
643.167	1	6
643.506	1	0
643.845	1	6
644.184	1	6
644.524	1	6
644.863	1	2
645.202	1	9
645.541	1	10
645.880	1	13
646.219	1	-1
646.558	1	10
646.897	1	9
647.236	1	14
647.575	1	7
647.914	1	2
648.253	1	21
648.592	1	12
648.931	1	12
649.270	1	9
649.610	1	10
649.949	1	5
650.288	1	15
650.627	1	4
650.966	1	20
651.305	1	16
651.644	1	15
651.983	1	-4
652.322	1	13
652.661	1	7
653.000	1	-1
653.339	1	18
653.678	1	8
654.017	1	12
654.356	1	0
654.695	1	12
655.034	1	8
655.373	1	16
655.712	1	15
656.051	1	2
656.390	1	9
656.729	1	17
657.068	1	9
657.406	1	15
657.745	1	9
658.084	1	13
658.423	1	7
658.762	1	9
659.101	1	13
659.440	1	13
659.779	1	10
660.118	1	10
660.457	1	12
660.796	1	-4
661.135	1	12
661.474	1	8
661.813	1	17
662.152	1	6
662.491	1	-1
662.829	1	-2
663.168	1	11
663.507	1	10
663.846	1	3
664.185	1	1
664.524	1	10
664.863	1	10
665.202	1	9
665.541	1	-5
665.879	1	6
666.218	1	5
666.557	1	-2
666.896	1	1
667.235	1	9
667.574	1	1
667.913	1	14
668.251	1	3
668.590	1	17
668.929	1	4
669.268	1	9
669.607	1	-4
669.946	1	9
670.285	1	9
670.623	1	1
670.962	1	9
671.301	1	5
671.640	1	4
671.979	1	4
672.317	1	3
672.656	1	5
672.995	1	8
673.334	1	4
673.673	1	13
674.011	1	10
674.350	1	8
674.689	1	3
675.028	1	8
675.367	1	14
675.705	1	11
676.044	1	10
676.383	1	15
676.722	1	12
677.060	1	-1
677.399	1	-3
677.738	1	17
678.077	1	5
678.416	1	1
678.754	1	11
679.093	1	12
679.432	1	6
679.771	1	3
680.109	1	11
680.448	1	-2
680.787	1	7
681.125	1	11
681.464	1	7
681.803	1	11
682.142	1	16
682.480	1	16
682.819	1	5
683.158	1	6
683.496	1	16
683.835	1	10
684.174	1	13
684.512	1	13
684.851	1	8
685.190	1	6
685.529	1	5
685.867	1	-4
686.206	1	5
686.545	1	2
686.883	1	8
687.222	1	11
687.561	1	14
687.899	1	12
688.238	1	8
688.577	1	-4
688.746	1	10