File: Data/GaN_200K_800ms/GaN_sample F_spot 12_UVVIS_200 K_200um_800 ms 2x2mm1_277.txt
340.368	1	3
340.710	1	-5
341.052	1	4
341.394	1	-10
341.737	1	-1
342.079	1	-4
342.421	1	2
342.763	1	6
343.105	1	5
343.447	1	0
343.789	1	-5
344.131	1	1
344.473	1	-3
344.815	1	-9
345.157	1	-8
345.499	1	2
345.841	1	8
346.183	1	-8
346.526	1	-11
346.868	1	10
347.210	1	-14
347.552	1	9
347.894	1	-5
348.236	1	1
348.578	1	-2
348.920	1	-3
349.262	1	-3
349.604	1	1
349.946	1	-6
350.288	1	11
350.630	1	1
350.972	1	4
351.314	1	13
351.656	1	8
351.998	1	0
352.340	1	2
352.682	1	10
353.024	1	-1
353.366	1	17
353.708	1	1
354.050	1	-11
354.392	1	-9
354.734	1	1
355.076	1	3
355.418	1	-14
355.760	1	-2
356.102	1	7
356.444	1	3
356.785	1	6
357.127	1	1
357.469	1	-4
357.811	1	6
358.153	1	7
358.495	1	2
358.837	1	-6
359.179	1	3
359.521	1	8
359.863	1	-1
360.205	1	-5
360.547	1	2
360.889	1	1
361.231	1	-5
361.572	1	12
361.914	1	4
362.256	1	1
362.598	1	0
362.940	1	9
363.282	1	-1
363.624	1	22
363.966	1	1
364.308	1	12
364.649	1	9
364.991	1	8
365.333	1	4
365.675	1	2
366.017	1	13
366.359	1	16
366.701	1	11
367.042	1	16
367.384	1	19
367.726	1	15
368.068	1	23
368.410	1	20
368.752	1	5
369.093	1	13
369.435	1	28
369.777	1	14
370.119	1	20
370.461	1	22
370.803	1	23
371.144	1	11
371.486	1	21
371.828	1	27
372.170	1	15
372.512	1	3
372.853	1	12
373.195	1	13
373.537	1	20
373.879	1	9
374.220	1	15
374.562	1	10
374.904	1	10
375.246	1	16
375.588	1	9
375.929	1	22
376.271	1	9
376.613	1	5
376.955	1	7
377.296	1	1
377.638	1	3
377.980	1	8
378.321	1	0
378.663	1	2
379.005	1	14
379.347	1	15
379.688	1	6
380.030	1	-1
380.372	1	9
380.714	1	7
381.055	1	12
381.397	1	8
381.739	1	15
382.080	1	1
382.422	1	6
382.764	1	-12
383.105	1	-2
383.447	1	-4
383.789	1	0
384.130	1	0
384.472	1	2
384.814	1	6
385.156	1	-3
385.497	1	10
385.839	1	-5
386.180	1	0
386.522	1	4
386.864	1	1
387.205	1	-2
387.547	1	1
387.889	1	4
388.230	1	13
388.572	1	-5
388.914	1	1
389.255	1	-5
389.597	1	7
389.939	1	5
390.280	1	6
390.622	1	-3
390.963	1	16
391.305	1	8
391.647	1	-7
391.988	1	3
392.330	1	11
392.671	1	-4
393.013	1	-2
393.355	1	8
393.696	1	4
394.038	1	9
394.379	1	-1
394.721	1	-12
395.062	1	8
395.404	1	1
395.746	1	10
396.087	1	4
396.429	1	7
396.770	1	-7
397.112	1	7
397.453	1	8
397.795	1	-3
398.136	1	-7
398.478	1	4
398.819	1	-3
399.161	1	5
399.503	1	0
399.844	1	-1
400.186	1	3
400.527	1	-1
400.869	1	-5
401.210	1	0
401.552	1	-7
401.893	1	8
402.235	1	3
402.576	1	-7
402.918	1	16
403.259	1	8
403.601	1	0
403.942	1	3
404.284	1	6
404.625	1	7
404.967	1	5
405.308	1	11
405.649	1	4
405.991	1	-1
406.332	1	2
406.674	1	-6
407.015	1	-4
407.357	1	-2
407.698	1	1
408.040	1	-2
408.381	1	9
408.722	1	-1
409.064	1	4
409.405	1	-1
409.747	1	-2
410.088	1	-2
410.430	1	1
410.771	1	5
411.112	1	-4
411.454	1	-2
411.795	1	-1
412.137	1	9
412.478	1	11
412.819	1	-3
413.161	1	-2
413.502	1	-2
413.844	1	-3
414.185	1	-2
414.526	1	-3
414.868	1	1
415.209	1	-1
415.550	1	-10
415.892	1	2
416.233	1	5
416.575	1	10
416.916	1	-6
417.257	1	-3
417.599	1	0
417.940	1	7
418.281	1	3
418.623	1	-9
418.964	1	-9
419.305	1	3
419.647	1	3
419.988	1	-1
420.329	1	3
420.671	1	14
421.012	1	4
421.353	1	4
421.695	1	1
422.036	1	8
422.377	1	0
422.718	1	8
423.060	1	-2
423.401	1	1
423.742	1	-2
424.084	1	1
424.425	1	9
424.766	1	-2
425.107	1	-11
425.449	1	-1
425.790	1	-9
426.131	1	2
426.472	1	-1
426.814	1	-2
427.155	1	-8
427.496	1	-8
427.837	1	-2
428.179	1	-11
428.520	1	-1
428.861	1	-11
429.202	1	3
429.544	1	1
429.885	1	3
430.226	1	-3
430.567	1	10
430.909	1	8
431.250	1	5
431.591	1	2
431.932	1	-3
432.273	1	-9
432.615	1	-13
432.956	1	1
433.297	1	0
433.638	1	2
433.979	1	14
434.320	1	5
434.662	1	3
435.003	1	-3
435.344	1	7
435.685	1	0
436.026	1	10
436.368	1	2
436.709	1	2
437.050	1	-6
437.391	1	7
437.732	1	-4
438.073	1	-1
438.414	1	-8
438.756	1	-8
439.097	1	-6
439.438	1	-2
439.779	1	-3
440.120	1	-5
440.461	1	-1
440.802	1	0
441.143	1	11
441.485	1	-1
441.826	1	1
442.167	1	1
442.508	1	-5
442.849	1	6
443.190	1	3
443.531	1	6
443.872	1	8
444.213	1	0
444.554	1	14
444.895	1	-4
445.237	1	0
445.578	1	-6
445.919	1	-1
446.260	1	-11
446.601	1	3
446.942	1	-3
447.283	1	-10
447.624	1	0
447.965	1	1
448.306	1	-2
448.647	1	-13
448.988	1	-2
449.329	1	-7
449.670	1	8
450.011	1	1
450.352	1	-9
450.693	1	-6
451.034	1	-3
451.375	1	-2
451.716	1	-2
452.057	1	-1
452.398	1	0
452.739	1	1
453.080	1	1
453.421	1	-5
453.762	1	6
454.103	1	-9
454.444	1	-7
454.785	1	-2
455.126	1	-8
455.467	1	4
455.808	1	-2
456.149	1	1
456.490	1	0
456.831	1	7
457.172	1	-2
457.513	1	-2
457.854	1	0
458.195	1	1
458.536	1	11
458.877	1	1
459.218	1	-5
459.559	1	4
459.899	1	-5
460.240	1	3
460.581	1	20
460.922	1	1
461.263	1	3
461.604	1	-13
461.945	1	-2
462.286	1	-3
462.627	1	6
462.968	1	3
463.309	1	2
463.649	1	-6
463.990	1	-1
464.331	1	-4
464.672	1	1
465.013	1	5
465.354	1	-5
465.695	1	-5
466.036	1	-9
466.376	1	-12
466.717	1	-4
467.058	1	1
467.399	1	7
467.740	1	5
468.081	1	2
468.422	1	-2
468.762	1	-9
469.103	1	-10
469.444	1	-3
469.785	1	-11
470.126	1	-2
470.467	1	-2
470.807	1	-3
471.148	1	2
471.489	1	-1
471.830	1	-6
472.171	1	4
472.511	1	-5
472.852	1	3
473.193	1	7
473.534	1	11
473.875	1	15
474.215	1	7
474.556	1	1
474.897	1	6
475.238	1	-1
475.578	1	-5
475.919	1	-4
476.260	1	-1
476.601	1	-2
476.942	1	7
477.282	1	0
477.623	1	-3
477.964	1	-6
478.305	1	9
478.645	1	8
478.986	1	0
479.327	1	-8
479.667	1	-3
480.008	1	-3
480.349	1	-5
480.690	1	-4
481.030	1	-2
481.371	1	3
481.712	1	3
482.053	1	0
482.393	1	4
482.734	1	-12
483.075	1	-4
483.415	1	7
483.756	1	4
484.097	1	-2
484.437	1	-6
484.778	1	4
485.119	1	-8
485.459	1	8
485.800	1	-5
486.141	1	-9
486.481	1	-3
486.822	1	8
487.163	1	-6
487.503	1	7
487.844	1	-7
488.185	1	0
488.525	1	-8
488.866	1	-1
489.207	1	0
489.547	1	1
489.888	1	-2
490.228	1	3
490.569	1	8
490.910	1	0
491.250	1	-4
491.591	1	-5
491.932	1	-3
492.272	1	6
492.613	1	-9
492.953	1	-3
493.294	1	-1
493.635	1	1
493.975	1	1
494.316	1	-2
494.656	1	3
494.997	1	-6
495.337	1	6
495.678	1	-6
496.019	1	-6
496.359	1	-1
496.700	1	-3
497.040	1	-6
497.381	1	-2
497.721	1	-8
498.062	1	-5
498.403	1	1
498.743	1	0
499.084	1	0
499.424	1	6
499.765	1	-2
500.105	1	-6
500.446	1	-8
500.786	1	-11
501.127	1	-4
501.467	1	-8
501.808	1	3
502.148	1	7
502.489	1	5
502.829	1	6
503.170	1	12
503.510	1	0
503.851	1	-9
504.191	1	2
504.532	1	4
504.872	1	4
505.213	1	2
505.553	1	-9
505.894	1	-8
506.234	1	5
506.575	1	5
506.915	1	-3
507.256	1	12
507.596	1	0
507.936	1	3
508.277	1	0
508.617	1	-5
508.958	1	-5
509.298	1	6
509.639	1	-5
509.979	1	-4
510.319	1	1
510.660	1	1
511.000	1	-10
511.341	1	-5
511.681	1	-1
512.022	1	-3
512.362	1	-14
512.702	1	-3
513.043	1	8
513.383	1	-8
513.724	1	7
514.064	1	7
514.404	1	-1
514.745	1	0
515.085	1	-2
515.425	1	-12
515.766	1	-6
516.106	1	4
516.447	1	9
516.787	1	3
517.127	1	2
517.468	1	-6
517.808	1	-3
518.148	1	8
518.489	1	-3
518.829	1	8
519.169	1	0
519.510	1	0
519.850	1	4
520.190	1	-7
520.531	1	-4
520.871	1	-7
521.211	1	-15
521.552	1	12
521.892	1	-2
522.232	1	2
522.573	1	-4
522.913	1	6
523.253	1	4
523.593	1	-3
523.934	1	2
524.274	1	1
524.614	1	-2
524.955	1	-4
525.295	1	2
525.635	1	5
525.975	1	1
526.316	1	12
526.656	1	3
526.996	1	4
527.337	1	3
527.677	1	13
528.017	1	-11
528.357	1	-4
528.698	1	-2
529.038	1	1
529.378	1	4
529.718	1	1
530.058	1	-3
530.399	1	7
530.739	1	0
531.079	1	7
531.419	1	2
531.760	1	6
532.100	1	-8
532.440	1	-6
532.780	1	1
533.120	1	0
533.461	1	6
533.801	1	8
534.141	1	-5
534.481	1	-13
534.821	1	3
535.162	1	7
535.502	1	4
535.842	1	-1
536.182	1	-2
536.522	1	-5
536.862	1	0
537.203	1	-5
537.543	1	-5
537.883	1	-3
538.223	1	-3
538.563	1	1
538.903	1	1
539.243	1	-3
539.584	1	-2
539.924	1	5
540.264	1	2
540.604	1	5
540.944	1	3
541.284	1	10
541.624	1	2
541.964	1	7
542.305	1	3
542.645	1	-1
542.985	1	4
543.325	1	1
543.665	1	11
544.005	1	8
544.345	1	5
544.685	1	4
545.025	1	1
545.365	1	11
545.705	1	-3
546.045	1	-8
546.386	1	1
546.726	1	-4
547.066	1	-2
547.406	1	8
547.746	1	-9
548.086	1	2
548.426	1	-14
548.766	1	-5
549.106	1	-4
549.446	1	-1
549.786	1	5
550.126	1	8
550.466	1	-2
550.806	1	-2
551.146	1	2
551.486	1	4
551.826	1	10
552.166	1	1
552.506	1	8
552.846	1	4
553.186	1	4
553.526	1	-1
553.866	1	8
554.206	1	5
554.546	1	1
554.886	1	6
555.226	1	-5
555.566	1	13
555.906	1	-7
556.246	1	5
556.586	1	-1
556.926	1	7
557.266	1	-4
557.606	1	5
557.946	1	15
558.286	1	2
558.626	1	2
558.966	1	5
559.306	1	-9
559.646	1	-1
559.986	1	-2
560.325	1	-15
560.665	1	3
561.005	1	-8
561.345	1	1
561.685	1	-1
562.025	1	2
562.365	1	1
562.705	1	1
563.045	1	-7
563.385	1	-7
563.725	1	3
564.064	1	-2
564.404	1	1
564.744	1	1
565.084	1	-2
565.424	1	1
565.764	1	1
566.104	1	-3
566.444	1	-8
566.783	1	2
567.123	1	4
567.463	1	1
567.803	1	-5
568.143	1	4
568.483	1	6
568.823	1	-3
569.162	1	11
569.502	1	-9
569.842	1	-2
570.182	1	8
570.522	1	-12
570.862	1	0
571.201	1	8
571.541	1	6
571.881	1	11
572.221	1	-2
572.561	1	-9
572.900	1	-17
573.240	1	5
573.580	1	-6
573.920	1	2
574.260	1	8
574.599	1	-4
574.939	1	-3
575.279	1	10
575.619	1	9
575.959	1	-2
576.298	1	10
576.638	1	-5
576.978	1	2
577.318	1	0
577.657	1	-8
577.997	1	4
578.337	1	15
578.677	1	8
579.016	1	14
579.356	1	0
579.696	1	0
580.036	1	0
580.375	1	-3
580.715	1	-4
581.055	1	2
581.394	1	1
581.734	1	-6
582.074	1	1
582.414	1	9
582.753	1	3
583.093	1	-6
583.433	1	-7
583.772	1	11
584.112	1	-1
584.452	1	4
584.791	1	3
585.131	1	4
585.471	1	5
585.811	1	1
586.150	1	-7
586.490	1	7
586.830	1	-5
587.169	1	2
587.509	1	-6
587.849	1	7
588.188	1	6
588.528	1	5
588.867	1	2
589.207	1	-1
589.547	1	0
589.886	1	3
590.226	1	8
590.566	1	-3
590.905	1	4
591.245	1	-3
591.585	1	5
591.924	1	-3
592.264	1	-2
592.603	1	9
592.943	1	6
593.283	1	-6
593.622	1	1
593.962	1	6
594.301	1	8
594.641	1	-3
594.981	1	-11
595.320	1	5
595.660	1	5
595.999	1	-7
596.339	1	8
596.678	1	-16
597.018	1	-7
597.358	1	6
597.697	1	8
598.037	1	-5
598.376	1	-5
598.716	1	9
599.055	1	0
599.395	1	8
599.734	1	-3
600.074	1	-5
600.413	1	10
600.753	1	6
601.092	1	10
601.432	1	-1
601.771	1	8
602.111	1	3
602.451	1	6
602.790	1	3
603.130	1	7
603.469	1	-7
603.809	1	7
604.148	1	-3
604.487	1	4
604.827	1	7
605.166	1	-1
605.506	1	-2
605.845	1	4
606.185	1	11
606.524	1	-4
606.864	1	-6
607.203	1	-8
607.543	1	-2
607.882	1	2
608.222	1	2
608.561	1	1
608.901	1	6
609.240	1	-6
609.579	1	6
609.919	1	6
610.258	1	-2
610.598	1	4
610.937	1	1
611.277	1	-3
611.616	1	-1
611.955	1	3
612.295	1	-7
612.634	1	-2
612.974	1	-9
613.313	1	11
613.652	1	3
613.992	1	-3
614.331	1	2
614.671	1	7
615.010	1	-12
615.349	1	4
615.689	1	3
616.028	1	5
616.368	1	10
616.707	1	-5
617.046	1	3
617.386	1	1
617.725	1	8
618.064	1	2
618.404	1	-8
618.743	1	7
619.082	1	5
619.422	1	-6
619.761	1	-1
620.100	1	2
620.440	1	3
620.779	1	-3
621.118	1	-1
621.458	1	-2
621.797	1	-6
622.136	1	6
622.476	1	8
622.815	1	4
623.154	1	0
623.494	1	11
623.833	1	1
624.172	1	3
624.511	1	-4
624.851	1	-7
625.190	1	-1
625.529	1	5
625.869	1	6
626.208	1	5
626.547	1	1
626.886	1	3
627.226	1	4
627.565	1	-2
627.904	1	-2
628.243	1	1
628.583	1	4
628.922	1	6
629.261	1	12
629.600	1	11
629.940	1	2
630.279	1	-15
630.618	1	-5
630.957	1	0
631.297	1	-3
631.636	1	-7
631.975	1	6
632.314	1	0
632.653	1	-9
632.993	1	-3
633.332	1	0
633.671	1	-9
634.010	1	-8
634.349	1	7
634.689	1	4
635.028	1	7
635.367	1	1
635.706	1	-3
636.045	1	8
636.384	1	6
636.724	1	4
637.063	1	-1
637.402	1	7
637.741	1	4
638.080	1	0
638.419	1	-6
638.759	1	0
639.098	1	2
639.437	1	0
639.776	1	-3
640.115	1	0
640.454	1	-9
640.793	1	6
641.132	1	9
641.472	1	2
641.811	1	3
642.150	1	-7
642.489	1	7
642.828	1	-6
643.167	1	-8
643.506	1	-4
643.845	1	-7
644.184	1	-1
644.524	1	-3
644.863	1	-3
645.202	1	4
645.541	1	3
645.880	1	0
646.219	1	11
646.558	1	0
646.897	1	4
647.236	1	-4
647.575	1	2
647.914	1	-8
648.253	1	7
648.592	1	8
648.931	1	5
649.270	1	3
649.610	1	-2
649.949	1	-3
650.288	1	5
650.627	1	-1
650.966	1	1
651.305	1	0
651.644	1	7
651.983	1	9
652.322	1	2
652.661	1	-9
653.000	1	-8
653.339	1	10
653.678	1	-5
654.017	1	-5
654.356	1	0
654.695	1	6
655.034	1	8
655.373	1	10
655.712	1	3
656.051	1	-4
656.390	1	-5
656.729	1	16
657.068	1	-1
657.406	1	7
657.745	1	-11
658.084	1	-5
658.423	1	0
658.762	1	-3
659.101	1	6
659.440	1	4
659.779	1	4
660.118	1	3
660.457	1	3
660.796	1	-6
661.135	1	-7
661.474	1	7
661.813	1	14
662.152	1	0
662.491	1	-7
662.829	1	-9
663.168	1	0
663.507	1	11
663.846	1	0
664.185	1	0
664.524	1	1
664.863	1	-1
665.202	1	-2
665.541	1	-13
665.879	1	-5
666.218	1	-6
666.557	1	-3
666.896	1	-8
667.235	1	3
667.574	1	-8
667.913	1	9
668.251	1	-6
668.590	1	2
668.929	1	-12
669.268	1	-1
669.607	1	5
669.946	1	-8
670.285	1	8
670.623	1	-7
670.962	1	-5
671.301	1	-5
671.640	1	0
671.979	1	-7
672.317	1	9
672.656	1	2
672.995	1	10
673.334	1	-6
673.673	1	6
674.011	1	3
674.350	1	3
674.689	1	-1
675.028	1	3
675.367	1	5
675.705	1	-2
676.044	1	-12
676.383	1	5
676.722	1	2
677.060	1	-9
677.399	1	-4
677.738	1	5
678.077	1	9
678.416	1	4
678.754	1	-3
679.093	1	17
679.432	1	2
679.771	1	4
680.109	1	0
680.448	1	-8
680.787	1	2
681.125	1	-4
681.464	1	-1
681.803	1	9
682.142	1	-4
682.480	1	8
682.819	1	3
683.158	1	-6
683.496	1	4
683.835	1	7
684.174	1	-5
684.512	1	9
684.851	1	4
685.190	1	7
685.529	1	2
685.867	1	-4
686.206	1	-6
686.545	1	-3
686.883	1	1
687.222	1	3
687.561	1	2
687.899	1	3
688.238	1	5
688.577	1	1
688.746	1	6