File: Data/GaN_200K_800ms/GaN_sample F_spot 12_UVVIS_200 K_200um_800 ms 2x2mm1_93.txt
340.368	1	6
340.710	1	3
341.052	1	14
341.394	1	2
341.737	1	11
342.079	1	-4
342.421	1	1
342.763	1	6
343.105	1	8
343.447	1	-3
343.789	1	9
344.131	1	1
344.473	1	2
344.815	1	8
345.157	1	-2
345.499	1	10
345.841	1	13
346.183	1	-1
346.526	1	5
346.868	1	9
347.210	1	-7
347.552	1	-2
347.894	1	3
348.236	1	9
348.578	1	-6
348.920	1	1
349.262	1	-7
349.604	1	8
349.946	1	-1
350.288	1	18
350.630	1	4
350.972	1	2
351.314	1	10
351.656	1	15
351.998	1	9
352.340	1	20
352.682	1	9
353.024	1	15
353.366	1	16
353.708	1	8
354.050	1	3
354.392	1	8
354.734	1	8
355.076	1	6
355.418	1	-5
355.760	1	1
356.102	1	13
356.444	1	17
356.785	1	28
357.127	1	9
357.469	1	4
357.811	1	15
358.153	1	17
358.495	1	13
358.837	1	13
359.179	1	19
359.521	1	22
359.863	1	18
360.205	1	16
360.547	1	20
360.889	1	17
361.231	1	18
361.572	1	33
361.914	1	34
362.256	1	43
362.598	1	29
362.940	1	37
363.282	1	40
363.624	1	55
363.966	1	52
364.308	1	51
364.649	1	59
364.991	1	57
365.333	1	61
365.675	1	56
366.017	1	73
366.359	1	72
366.701	1	88
367.042	1	92
367.384	1	99
367.726	1	106
368.068	1	105
368.410	1	108
368.752	1	108
369.093	1	108
369.435	1	119
369.777	1	111
370.119	1	100
370.461	1	129
370.803	1	118
371.144	1	97
371.486	1	104
371.828	1	105
372.170	1	95
372.512	1	83
372.853	1	89
373.195	1	79
373.537	1	81
373.879	1	82
374.220	1	86
374.562	1	71
374.904	1	76
375.246	1	60
375.588	1	63
375.929	1	72
376.271	1	71
376.613	1	59
376.955	1	49
377.296	1	47
377.638	1	58
377.980	1	57
378.321	1	36
378.663	1	42
379.005	1	53
379.347	1	36
379.688	1	47
380.030	1	32
380.372	1	31
380.714	1	37
381.055	1	40
381.397	1	33
381.739	1	37
382.080	1	34
382.422	1	26
382.764	1	23
383.105	1	30
383.447	1	23
383.789	1	20
384.130	1	30
384.472	1	25
384.814	1	21
385.156	1	22
385.497	1	19
385.839	1	15
386.180	1	20
386.522	1	19
386.864	1	23
387.205	1	17
387.547	1	14
387.889	1	14
388.230	1	22
388.572	1	14
388.914	1	14
389.255	1	15
389.597	1	17
389.939	1	15
390.280	1	9
390.622	1	16
390.963	1	16
391.305	1	19
391.647	1	4
391.988	1	18
392.330	1	14
392.671	1	6
393.013	1	13
393.355	1	5
393.696	1	6
394.038	1	12
394.379	1	10
394.721	1	8
395.062	1	8
395.404	1	2
395.746	1	16
396.087	1	13
396.429	1	15
396.770	1	2
397.112	1	12
397.453	1	19
397.795	1	13
398.136	1	8
398.478	1	11
398.819	1	10
399.161	1	9
399.503	1	-1
399.844	1	9
400.186	1	0
400.527	1	5
400.869	1	6
401.210	1	11
401.552	1	2
401.893	1	10
402.235	1	0
402.576	1	0
402.918	1	17
403.259	1	10
403.601	1	-2
403.942	1	15
404.284	1	8
404.625	1	9
404.967	1	-6
405.308	1	14
405.649	1	4
405.991	1	0
406.332	1	6
406.674	1	-2
407.015	1	8
407.357	1	5
407.698	1	12
408.040	1	-4
408.381	1	11
408.722	1	-4
409.064	1	6
409.405	1	14
409.747	1	1
410.088	1	3
410.430	1	6
410.771	1	7
411.112	1	-4
411.454	1	-3
411.795	1	4
412.137	1	13
412.478	1	11
412.819	1	5
413.161	1	4
413.502	1	3
413.844	1	16
414.185	1	6
414.526	1	6
414.868	1	2
415.209	1	1
415.550	1	-10
415.892	1	8
416.233	1	6
416.575	1	11
416.916	1	-7
417.257	1	-3
417.599	1	6
417.940	1	14
418.281	1	11
418.623	1	-6
418.964	1	-9
419.305	1	12
419.647	1	-1
419.988	1	-5
420.329	1	-4
420.671	1	6
421.012	1	6
421.353	1	-2
421.695	1	3
422.036	1	7
422.377	1	9
422.718	1	10
423.060	1	6
423.401	1	9
423.742	1	0
424.084	1	5
424.425	1	16
424.766	1	9
425.107	1	5
425.449	1	0
425.790	1	-6
426.131	1	7
426.472	1	3
426.814	1	1
427.155	1	-3
427.496	1	-3
427.837	1	0
428.179	1	-8
428.520	1	1
428.861	1	4
429.202	1	0
429.544	1	-3
429.885	1	-1
430.226	1	-4
430.567	1	-8
430.909	1	-1
431.250	1	3
431.591	1	11
431.932	1	7
432.273	1	4
432.615	1	-1
432.956	1	-6
433.297	1	11
433.638	1	-6
433.979	1	6
434.320	1	6
434.662	1	5
435.003	1	4
435.344	1	-2
435.685	1	5
436.026	1	7
436.368	1	7
436.709	1	1
437.050	1	4
437.391	1	7
437.732	1	-2
438.073	1	9
438.414	1	-2
438.756	1	-5
439.097	1	-4
439.438	1	-5
439.779	1	-1
440.120	1	5
440.461	1	2
440.802	1	5
441.143	1	9
441.485	1	5
441.826	1	1
442.167	1	6
442.508	1	-6
442.849	1	5
443.190	1	4
443.531	1	9
443.872	1	8
444.213	1	0
444.554	1	5
444.895	1	3
445.237	1	-5
445.578	1	-1
445.919	1	-7
446.260	1	-8
446.601	1	1
446.942	1	5
447.283	1	5
447.624	1	0
447.965	1	7
448.306	1	2
448.647	1	6
448.988	1	1
449.329	1	1
449.670	1	19
450.011	1	6
450.352	1	1
450.693	1	-5
451.034	1	-2
451.375	1	2
451.716	1	2
452.057	1	8
452.398	1	7
452.739	1	2
453.080	1	2
453.421	1	0
453.762	1	7
454.103	1	2
454.444	1	-4
454.785	1	6
455.126	1	-9
455.467	1	8
455.808	1	0
456.149	1	0
456.490	1	1
456.831	1	8
457.172	1	-11
457.513	1	9
457.854	1	4
458.195	1	5
458.536	1	11
458.877	1	-4
459.218	1	0
459.559	1	14
459.899	1	9
460.240	1	6
460.581	1	15
460.922	1	12
461.263	1	-6
461.604	1	10
461.945	1	1
462.286	1	1
462.627	1	7
462.968	1	4
463.309	1	-7
463.649	1	-2
463.990	1	-4
464.331	1	2
464.672	1	0
465.013	1	0
465.354	1	2
465.695	1	-4
466.036	1	-3
466.376	1	-1
466.717	1	9
467.058	1	3
467.399	1	18
467.740	1	6
468.081	1	9
468.422	1	-7
468.762	1	1
469.103	1	5
469.444	1	-5
469.785	1	-9
470.126	1	-1
470.467	1	-5
470.807	1	0
471.148	1	11
471.489	1	6
471.830	1	1
472.171	1	0
472.511	1	-1
472.852	1	2
473.193	1	3
473.534	1	10
473.875	1	6
474.215	1	4
474.556	1	5
474.897	1	5
475.238	1	3
475.578	1	-10
475.919	1	5
476.260	1	-5
476.601	1	4
476.942	1	8
477.282	1	-5
477.623	1	-8
477.964	1	1
478.305	1	6
478.645	1	11
478.986	1	4
479.327	1	-13
479.667	1	2
480.008	1	4
480.349	1	-5
480.690	1	8
481.030	1	-7
481.371	1	-2
481.712	1	4
482.053	1	5
482.393	1	4
482.734	1	-6
483.075	1	-1
483.415	1	4
483.756	1	14
484.097	1	2
484.437	1	11
484.778	1	-3
485.119	1	1
485.459	1	13
485.800	1	-3
486.141	1	2
486.481	1	9
486.822	1	4
487.163	1	5
487.503	1	-5
487.844	1	9
488.185	1	3
488.525	1	-3
488.866	1	5
489.207	1	4
489.547	1	5
489.888	1	3
490.228	1	4
490.569	1	7
490.910	1	12
491.250	1	10
491.591	1	3
491.932	1	-2
492.272	1	7
492.613	1	1
492.953	1	0
493.294	1	-2
493.635	1	7
493.975	1	4
494.316	1	7
494.656	1	9
494.997	1	8
495.337	1	9
495.678	1	6
496.019	1	3
496.359	1	2
496.700	1	2
497.040	1	4
497.381	1	5
497.721	1	9
498.062	1	9
498.403	1	3
498.743	1	2
499.084	1	3
499.424	1	9
499.765	1	12
500.105	1	1
500.446	1	0
500.786	1	-1
501.127	1	9
501.467	1	-5
501.808	1	8
502.148	1	8
502.489	1	11
502.829	1	6
503.170	1	13
503.510	1	8
503.851	1	5
504.191	1	20
504.532	1	7
504.872	1	4
505.213	1	15
505.553	1	1
505.894	1	-8
506.234	1	15
506.575	1	11
506.915	1	16
507.256	1	7
507.596	1	6
507.936	1	22
508.277	1	13
508.617	1	5
508.958	1	-4
509.298	1	9
509.639	1	1
509.979	1	5
510.319	1	16
510.660	1	9
511.000	1	-2
511.341	1	7
511.681	1	16
512.022	1	-8
512.362	1	5
512.702	1	8
513.043	1	12
513.383	1	-1
513.724	1	11
514.064	1	18
514.404	1	11
514.745	1	6
515.085	1	5
515.425	1	0
515.766	1	13
516.106	1	4
516.447	1	12
516.787	1	13
517.127	1	12
517.468	1	7
517.808	1	-1
518.148	1	9
518.489	1	3
518.829	1	10
519.169	1	17
519.510	1	0
519.850	1	14
520.190	1	18
520.531	1	14
520.871	1	15
521.211	1	-10
521.552	1	23
521.892	1	4
522.232	1	10
522.573	1	12
522.913	1	16
523.253	1	10
523.593	1	9
523.934	1	11
524.274	1	15
524.614	1	4
524.955	1	6
525.295	1	13
525.635	1	20
525.975	1	15
526.316	1	14
526.656	1	9
526.996	1	14
527.337	1	3
527.677	1	18
528.017	1	5
528.357	1	4
528.698	1	11
529.038	1	6
529.378	1	6
529.718	1	17
530.058	1	6
530.399	1	11
530.739	1	23
531.079	1	18
531.419	1	16
531.760	1	14
532.100	1	7
532.440	1	15
532.780	1	4
533.120	1	20
533.461	1	14
533.801	1	22
534.141	1	4
534.481	1	0
534.821	1	19
535.162	1	9
535.502	1	13
535.842	1	18
536.182	1	7
536.522	1	8
536.862	1	17
537.203	1	5
537.543	1	12
537.883	1	10
538.223	1	4
538.563	1	8
538.903	1	11
539.243	1	10
539.584	1	-2
539.924	1	18
540.264	1	7
540.604	1	13
540.944	1	14
541.284	1	19
541.624	1	17
541.964	1	17
542.305	1	20
542.645	1	12
542.985	1	11
543.325	1	18
543.665	1	12
544.005	1	20
544.345	1	18
544.685	1	4
545.025	1	9
545.365	1	16
545.705	1	6
546.045	1	8
546.386	1	20
546.726	1	5
547.066	1	17
547.406	1	18
547.746	1	3
548.086	1	13
548.426	1	13
548.766	1	18
549.106	1	13
549.446	1	10
549.786	1	8
550.126	1	27
550.466	1	10
550.806	1	17
551.146	1	8
551.486	1	25
551.826	1	23
552.166	1	12
552.506	1	26
552.846	1	15
553.186	1	15
553.526	1	7
553.866	1	4
554.206	1	19
554.546	1	10
554.886	1	18
555.226	1	9
555.566	1	25
555.906	1	23
556.246	1	11
556.586	1	15
556.926	1	19
557.266	1	9
557.606	1	10
557.946	1	22
558.286	1	20
558.626	1	22
558.966	1	10
559.306	1	13
559.646	1	3
559.986	1	7
560.325	1	15
560.665	1	16
561.005	1	6
561.345	1	9
561.685	1	10
562.025	1	21
562.365	1	9
562.705	1	9
563.045	1	3
563.385	1	8
563.725	1	12
564.064	1	11
564.404	1	22
564.744	1	12
565.084	1	16
565.424	1	19
565.764	1	16
566.104	1	15
566.444	1	4
566.783	1	13
567.123	1	7
567.463	1	23
567.803	1	7
568.143	1	19
568.483	1	16
568.823	1	17
569.162	1	14
569.502	1	6
569.842	1	17
570.182	1	18
570.522	1	14
570.862	1	9
571.201	1	19
571.541	1	14
571.881	1	25
572.221	1	6
572.561	1	8
572.900	1	4
573.240	1	8
573.580	1	13
573.920	1	18
574.260	1	19
574.599	1	16
574.939	1	9
575.279	1	23
575.619	1	19
575.959	1	20
576.298	1	18
576.638	1	10
576.978	1	12
577.318	1	20
577.657	1	8
577.997	1	14
578.337	1	26
578.677	1	16
579.016	1	23
579.356	1	6
579.696	1	22
580.036	1	8
580.375	1	17
580.715	1	5
581.055	1	8
581.394	1	18
581.734	1	5
582.074	1	10
582.414	1	14
582.753	1	16
583.093	1	12
583.433	1	10
583.772	1	15
584.112	1	16
584.452	1	14
584.791	1	11
585.131	1	15
585.471	1	18
585.811	1	17
586.150	1	9
586.490	1	16
586.830	1	15
587.169	1	21
587.509	1	3
587.849	1	11
588.188	1	14
588.528	1	17
588.867	1	11
589.207	1	12
589.547	1	18
589.886	1	0
590.226	1	19
590.566	1	9
590.905	1	12
591.245	1	15
591.585	1	17
591.924	1	8
592.264	1	3
592.603	1	12
592.943	1	18
593.283	1	14
593.622	1	9
593.962	1	10
594.301	1	14
594.641	1	11
594.981	1	-2
595.320	1	12
595.660	1	9
595.999	1	3
596.339	1	18
596.678	1	6
597.018	1	1
597.358	1	15
597.697	1	16
598.037	1	0
598.376	1	8
598.716	1	17
599.055	1	16
599.395	1	3
599.734	1	12
600.074	1	10
600.413	1	23
600.753	1	14
601.092	1	21
601.432	1	9
601.771	1	4
602.111	1	8
602.451	1	30
602.790	1	11
603.130	1	12
603.469	1	2
603.809	1	11
604.148	1	9
604.487	1	11
604.827	1	20
605.166	1	20
605.506	1	14
605.845	1	12
606.185	1	15
606.524	1	2
606.864	1	15
607.203	1	12
607.543	1	7
607.882	1	6
608.222	1	14
608.561	1	12
608.901	1	7
609.240	1	6
609.579	1	22
609.919	1	23
610.258	1	13
610.598	1	14
610.937	1	4
611.277	1	9
611.616	1	2
611.955	1	16
612.295	1	10
612.634	1	4
612.974	1	-3
613.313	1	18
613.652	1	14
613.992	1	8
614.331	1	8
614.671	1	15
615.010	1	1
615.349	1	15
615.689	1	9
616.028	1	13
616.368	1	2
616.707	1	14
617.046	1	14
617.386	1	5
617.725	1	3
618.064	1	0
618.404	1	4
618.743	1	16
619.082	1	7
619.422	1	-1
619.761	1	11
620.100	1	8
620.440	1	8
620.779	1	1
621.118	1	8
621.458	1	13
621.797	1	0
622.136	1	19
622.476	1	14
622.815	1	9
623.154	1	8
623.494	1	20
623.833	1	14
624.172	1	6
624.511	1	5
624.851	1	-12
625.190	1	13
625.529	1	3
625.869	1	17
626.208	1	11
626.547	1	13
626.886	1	18
627.226	1	10
627.565	1	10
627.904	1	10
628.243	1	2
628.583	1	2
628.922	1	9
629.261	1	14
629.600	1	17
629.940	1	4
630.279	1	1
630.618	1	7
630.957	1	8
631.297	1	12
631.636	1	-7
631.975	1	15
632.314	1	3
632.653	1	11
632.993	1	1
633.332	1	11
633.671	1	3
634.010	1	5
634.349	1	13
634.689	1	2
635.028	1	5
635.367	1	5
635.706	1	6
636.045	1	16
636.384	1	3
636.724	1	7
637.063	1	14
637.402	1	15
637.741	1	4
638.080	1	10
638.419	1	6
638.759	1	5
639.098	1	14
639.437	1	5
639.776	1	5
640.115	1	6
640.454	1	-2
640.793	1	12
641.132	1	9
641.472	1	5
641.811	1	6
642.150	1	7
642.489	1	10
642.828	1	-4
643.167	1	6
643.506	1	3
643.845	1	2
644.184	1	6
644.524	1	4
644.863	1	12
645.202	1	13
645.541	1	10
645.880	1	7
646.219	1	9
646.558	1	1
646.897	1	6
647.236	1	12
647.575	1	13
647.914	1	6
648.253	1	19
648.592	1	6
648.931	1	19
649.270	1	5
649.610	1	5
649.949	1	0
650.288	1	12
650.627	1	6
650.966	1	5
651.305	1	5
651.644	1	27
651.983	1	14
652.322	1	9
652.661	1	-1
653.000	1	11
653.339	1	8
653.678	1	6
654.017	1	10
654.356	1	9
654.695	1	10
655.034	1	11
655.373	1	0
655.712	1	14
656.051	1	7
656.390	1	-6
656.729	1	13
657.068	1	11
657.406	1	14
657.745	1	-1
658.084	1	13
658.423	1	14
658.762	1	-3
659.101	1	8
659.440	1	7
659.779	1	9
660.118	1	9
660.457	1	7
660.796	1	-1
661.135	1	-2
661.474	1	3
661.813	1	17
662.152	1	6
662.491	1	-5
662.829	1	1
663.168	1	4
663.507	1	15
663.846	1	1
664.185	1	7
664.524	1	-1
664.863	1	-1
665.202	1	7
665.541	1	-12
665.879	1	-4
666.218	1	6
666.557	1	4
666.896	1	-4
667.235	1	11
667.574	1	-3
667.913	1	5
668.251	1	1
668.590	1	8
668.929	1	-7
669.268	1	2
669.607	1	8
669.946	1	7
670.285	1	10
670.623	1	6
670.962	1	3
671.301	1	8
671.640	1	15
671.979	1	1
672.317	1	2
672.656	1	1
672.995	1	17
673.334	1	1
673.673	1	15
674.011	1	-5
674.350	1	-3
674.689	1	3
675.028	1	1
675.367	1	6
675.705	1	1
676.044	1	6
676.383	1	14
676.722	1	15
677.060	1	11
677.399	1	-2
677.738	1	8
678.077	1	11
678.416	1	4
678.754	1	-3
679.093	1	7
679.432	1	-1
679.771	1	9
680.109	1	5
680.448	1	-2
680.787	1	11
681.125	1	17
681.464	1	5
681.803	1	3
682.142	1	11
682.480	1	10
682.819	1	5
683.158	1	5
683.496	1	11
683.835	1	7
684.174	1	12
684.512	1	11
684.851	1	8
685.190	1	-4
685.529	1	12
685.867	1	10
686.206	1	0
686.545	1	5
686.883	1	1
687.222	1	5
687.561	1	13
687.899	1	5
688.238	1	7
688.577	1	1
688.746	1	6