File: Data/GaN_200K_800ms/GaN_sample F_spot 12_UVVIS_200 K_200um_800 ms 2x2mm1_406.txt
340.368	1	7
340.710	1	-6
341.052	1	6
341.394	1	-6
341.737	1	1
342.079	1	-5
342.421	1	-2
342.763	1	9
343.105	1	-4
343.447	1	0
343.789	1	-4
344.131	1	-5
344.473	1	-6
344.815	1	-4
345.157	1	-7
345.499	1	1
345.841	1	5
346.183	1	-12
346.526	1	-13
346.868	1	9
347.210	1	-12
347.552	1	-13
347.894	1	0
348.236	1	3
348.578	1	-3
348.920	1	-2
349.262	1	-1
349.604	1	7
349.946	1	-6
350.288	1	5
350.630	1	5
350.972	1	-2
351.314	1	-1
351.656	1	4
351.998	1	2
352.340	1	-2
352.682	1	1
353.024	1	2
353.366	1	9
353.708	1	-2
354.050	1	0
354.392	1	-6
354.734	1	0
355.076	1	4
355.418	1	-7
355.760	1	-4
356.102	1	5
356.444	1	4
356.785	1	8
357.127	1	-3
357.469	1	-7
357.811	1	-3
358.153	1	0
358.495	1	-2
358.837	1	-7
359.179	1	-1
359.521	1	7
359.863	1	0
360.205	1	0
360.547	1	1
360.889	1	2
361.231	1	-7
361.572	1	5
361.914	1	13
362.256	1	-1
362.598	1	-14
362.940	1	-3
363.282	1	1
363.624	1	14
363.966	1	-4
364.308	1	5
364.649	1	2
364.991	1	8
365.333	1	2
365.675	1	-5
366.017	1	9
366.359	1	10
366.701	1	10
367.042	1	5
367.384	1	8
367.726	1	8
368.068	1	9
368.410	1	19
368.752	1	4
369.093	1	3
369.435	1	17
369.777	1	2
370.119	1	7
370.461	1	29
370.803	1	19
371.144	1	0
371.486	1	17
371.828	1	15
372.170	1	15
372.512	1	3
372.853	1	4
373.195	1	13
373.537	1	3
373.879	1	4
374.220	1	20
374.562	1	11
374.904	1	12
375.246	1	10
375.588	1	7
375.929	1	1
376.271	1	9
376.613	1	-10
376.955	1	-1
377.296	1	1
377.638	1	4
377.980	1	7
378.321	1	-4
378.663	1	-1
379.005	1	8
379.347	1	4
379.688	1	5
380.030	1	-4
380.372	1	2
380.714	1	11
381.055	1	12
381.397	1	10
381.739	1	4
382.080	1	3
382.422	1	-2
382.764	1	0
383.105	1	2
383.447	1	4
383.789	1	10
384.130	1	-7
384.472	1	-4
384.814	1	3
385.156	1	-5
385.497	1	7
385.839	1	-4
386.180	1	1
386.522	1	13
386.864	1	4
387.205	1	-5
387.547	1	-5
387.889	1	-3
388.230	1	15
388.572	1	0
388.914	1	1
389.255	1	-1
389.597	1	3
389.939	1	0
390.280	1	1
390.622	1	-1
390.963	1	6
391.305	1	16
391.647	1	0
391.988	1	4
392.330	1	4
392.671	1	-6
393.013	1	-2
393.355	1	11
393.696	1	-2
394.038	1	4
394.379	1	10
394.721	1	-3
395.062	1	-1
395.404	1	-9
395.746	1	6
396.087	1	-2
396.429	1	-1
396.770	1	-1
397.112	1	7
397.453	1	13
397.795	1	-4
398.136	1	-5
398.478	1	-2
398.819	1	0
399.161	1	14
399.503	1	-3
399.844	1	1
400.186	1	-4
400.527	1	1
400.869	1	-3
401.210	1	-3
401.552	1	-7
401.893	1	-11
402.235	1	-7
402.576	1	1
402.918	1	4
403.259	1	4
403.601	1	-10
403.942	1	12
404.284	1	3
404.625	1	6
404.967	1	8
405.308	1	3
405.649	1	6
405.991	1	-2
406.332	1	8
406.674	1	-10
407.015	1	7
407.357	1	-3
407.698	1	6
408.040	1	-5
408.381	1	2
408.722	1	-8
409.064	1	0
409.405	1	7
409.747	1	-5
410.088	1	4
410.430	1	5
410.771	1	6
411.112	1	-7
411.454	1	-5
411.795	1	-5
412.137	1	-2
412.478	1	16
412.819	1	-7
413.161	1	1
413.502	1	1
413.844	1	-5
414.185	1	2
414.526	1	-1
414.868	1	3
415.209	1	1
415.550	1	-7
415.892	1	-3
416.233	1	5
416.575	1	6
416.916	1	2
417.257	1	0
417.599	1	-2
417.940	1	7
418.281	1	4
418.623	1	-4
418.964	1	-7
419.305	1	-2
419.647	1	-5
419.988	1	-8
420.329	1	7
420.671	1	3
421.012	1	-1
421.353	1	2
421.695	1	-2
422.036	1	3
422.377	1	-4
422.718	1	6
423.060	1	3
423.401	1	-1
423.742	1	2
424.084	1	-1
424.425	1	6
424.766	1	-6
425.107	1	-7
425.449	1	-7
425.790	1	-11
426.131	1	-6
426.472	1	9
426.814	1	-4
427.155	1	-3
427.496	1	-8
427.837	1	-2
428.179	1	-2
428.520	1	-5
428.861	1	-5
429.202	1	0
429.544	1	-6
429.885	1	2
430.226	1	-7
430.567	1	4
430.909	1	0
431.250	1	2
431.591	1	12
431.932	1	-7
432.273	1	2
432.615	1	-9
432.956	1	-14
433.297	1	0
433.638	1	-1
433.979	1	-2
434.320	1	5
434.662	1	-9
435.003	1	5
435.344	1	0
435.685	1	-2
436.026	1	-5
436.368	1	-2
436.709	1	-1
437.050	1	-4
437.391	1	1
437.732	1	-12
438.073	1	-3
438.414	1	-1
438.756	1	-6
439.097	1	-4
439.438	1	-6
439.779	1	-4
440.120	1	-8
440.461	1	-1
440.802	1	-8
441.143	1	2
441.485	1	1
441.826	1	5
442.167	1	3
442.508	1	-10
442.849	1	7
443.190	1	-1
443.531	1	2
443.872	1	6
444.213	1	2
444.554	1	2
444.895	1	-9
445.237	1	-1
445.578	1	-10
445.919	1	-10
446.260	1	-3
446.601	1	-4
446.942	1	-2
447.283	1	5
447.624	1	-5
447.965	1	-4
448.306	1	-7
448.647	1	-4
448.988	1	1
449.329	1	-6
449.670	1	7
450.011	1	6
450.352	1	-2
450.693	1	0
451.034	1	-14
451.375	1	-4
451.716	1	-4
452.057	1	-7
452.398	1	-5
452.739	1	4
453.080	1	1
453.421	1	0
453.762	1	-2
454.103	1	0
454.444	1	-6
454.785	1	-2
455.126	1	-7
455.467	1	-3
455.808	1	3
456.149	1	0
456.490	1	-6
456.831	1	5
457.172	1	-3
457.513	1	3
457.854	1	-1
458.195	1	-3
458.536	1	2
458.877	1	4
459.218	1	-3
459.559	1	1
459.899	1	-2
460.240	1	1
460.581	1	24
460.922	1	2
461.263	1	-7
461.604	1	4
461.945	1	-4
462.286	1	4
462.627	1	7
462.968	1	0
463.309	1	-10
463.649	1	3
463.990	1	-7
464.331	1	-9
464.672	1	1
465.013	1	-6
465.354	1	-1
465.695	1	-9
466.036	1	-6
466.376	1	-6
466.717	1	3
467.058	1	0
467.399	1	8
467.740	1	-1
468.081	1	-4
468.422	1	-4
468.762	1	-6
469.103	1	-2
469.444	1	1
469.785	1	-22
470.126	1	-12
470.467	1	-7
470.807	1	8
471.148	1	2
471.489	1	-2
471.830	1	-3
472.171	1	0
472.511	1	-11
472.852	1	-7
473.193	1	5
473.534	1	3
473.875	1	4
474.215	1	3
474.556	1	-1
474.897	1	2
475.238	1	4
475.578	1	-3
475.919	1	-12
476.260	1	-2
476.601	1	2
476.942	1	7
477.282	1	-10
477.623	1	-4
477.964	1	-11
478.305	1	0
478.645	1	9
478.986	1	-1
479.327	1	-12
479.667	1	-4
480.008	1	-4
480.349	1	-12
480.690	1	-1
481.030	1	-4
481.371	1	1
481.712	1	2
482.053	1	2
482.393	1	-3
482.734	1	-4
483.075	1	-4
483.415	1	-1
483.756	1	3
484.097	1	4
484.437	1	-8
484.778	1	2
485.119	1	-3
485.459	1	10
485.800	1	-15
486.141	1	-2
486.481	1	-6
486.822	1	8
487.163	1	-2
487.503	1	-5
487.844	1	-2
488.185	1	4
488.525	1	-3
488.866	1	7
489.207	1	-4
489.547	1	-11
489.888	1	-2
490.228	1	5
490.569	1	12
490.910	1	-5
491.250	1	-5
491.591	1	-3
491.932	1	-2
492.272	1	3
492.613	1	-13
492.953	1	-6
493.294	1	1
493.635	1	4
493.975	1	1
494.316	1	-1
494.656	1	-4
494.997	1	-4
495.337	1	9
495.678	1	-3
496.019	1	2
496.359	1	-5
496.700	1	2
497.040	1	-4
497.381	1	3
497.721	1	2
498.062	1	-3
498.403	1	-3
498.743	1	3
499.084	1	-3
499.424	1	-4
499.765	1	0
500.105	1	-4
500.446	1	-10
500.786	1	-10
501.127	1	-2
501.467	1	-5
501.808	1	0
502.148	1	9
502.489	1	2
502.829	1	-8
503.170	1	10
503.510	1	2
503.851	1	0
504.191	1	4
504.532	1	2
504.872	1	-2
505.213	1	-1
505.553	1	-2
505.894	1	-10
506.234	1	13
506.575	1	-3
506.915	1	2
507.256	1	3
507.596	1	5
507.936	1	3
508.277	1	-1
508.617	1	-7
508.958	1	-11
509.298	1	-4
509.639	1	-6
509.979	1	-6
510.319	1	4
510.660	1	3
511.000	1	11
511.341	1	5
511.681	1	8
512.022	1	-5
512.362	1	1
512.702	1	-2
513.043	1	3
513.383	1	-13
513.724	1	5
514.064	1	2
514.404	1	0
514.745	1	-4
515.085	1	-10
515.425	1	1
515.766	1	-8
516.106	1	0
516.447	1	9
516.787	1	3
517.127	1	-5
517.468	1	-4
517.808	1	2
518.148	1	2
518.489	1	-2
518.829	1	8
519.169	1	-3
519.510	1	-1
519.850	1	-3
520.190	1	0
520.531	1	11
520.871	1	1
521.211	1	-6
521.552	1	11
521.892	1	4
522.232	1	5
522.573	1	5
522.913	1	-7
523.253	1	0
523.593	1	-4
523.934	1	-3
524.274	1	1
524.614	1	-7
524.955	1	-8
525.295	1	4
525.635	1	-1
525.975	1	3
526.316	1	17
526.656	1	-5
526.996	1	6
527.337	1	-2
527.677	1	6
528.017	1	-9
528.357	1	-6
528.698	1	3
529.038	1	0
529.378	1	7
529.718	1	0
530.058	1	-13
530.399	1	8
530.739	1	-4
531.079	1	9
531.419	1	9
531.760	1	3
532.100	1	-6
532.440	1	0
532.780	1	-2
533.120	1	1
533.461	1	3
533.801	1	14
534.141	1	-12
534.481	1	-10
534.821	1	1
535.162	1	0
535.502	1	-6
535.842	1	-1
536.182	1	0
536.522	1	3
536.862	1	10
537.203	1	-5
537.543	1	2
537.883	1	1
538.223	1	3
538.563	1	-1
538.903	1	-1
539.243	1	-1
539.584	1	2
539.924	1	8
540.264	1	-8
540.604	1	-7
540.944	1	-3
541.284	1	10
541.624	1	2
541.964	1	2
542.305	1	1
542.645	1	-1
542.985	1	-3
543.325	1	5
543.665	1	13
544.005	1	6
544.345	1	6
544.685	1	-1
545.025	1	0
545.365	1	-8
545.705	1	0
546.045	1	-5
546.386	1	2
546.726	1	-10
547.066	1	-4
547.406	1	5
547.746	1	-8
548.086	1	-4
548.426	1	-1
548.766	1	5
549.106	1	-2
549.446	1	0
549.786	1	-8
550.126	1	17
550.466	1	-1
550.806	1	-5
551.146	1	3
551.486	1	-6
551.826	1	0
552.166	1	-2
552.506	1	9
552.846	1	5
553.186	1	3
553.526	1	1
553.866	1	0
554.206	1	8
554.546	1	-1
554.886	1	-1
555.226	1	-9
555.566	1	11
555.906	1	-5
556.246	1	0
556.586	1	-4
556.926	1	10
557.266	1	-7
557.606	1	2
557.946	1	3
558.286	1	-2
558.626	1	1
558.966	1	-4
559.306	1	-3
559.646	1	2
559.986	1	2
560.325	1	-5
560.665	1	-2
561.005	1	-9
561.345	1	5
561.685	1	2
562.025	1	3
562.365	1	5
562.705	1	-6
563.045	1	-6
563.385	1	1
563.725	1	4
564.064	1	2
564.404	1	2
564.744	1	3
565.084	1	-2
565.424	1	-2
565.764	1	-2
566.104	1	-1
566.444	1	-12
566.783	1	-3
567.123	1	2
567.463	1	0
567.803	1	1
568.143	1	-1
568.483	1	1
568.823	1	-1
569.162	1	7
569.502	1	0
569.842	1	2
570.182	1	-1
570.522	1	-11
570.862	1	-2
571.201	1	2
571.541	1	15
571.881	1	17
572.221	1	-6
572.561	1	2
572.900	1	-3
573.240	1	7
573.580	1	-3
573.920	1	7
574.260	1	8
574.599	1	13
574.939	1	1
575.279	1	8
575.619	1	1
575.959	1	-3
576.298	1	10
576.638	1	-4
576.978	1	-2
577.318	1	7
577.657	1	-10
577.997	1	-5
578.337	1	19
578.677	1	9
579.016	1	14
579.356	1	-1
579.696	1	8
580.036	1	-8
580.375	1	-3
580.715	1	-2
581.055	1	-4
581.394	1	5
581.734	1	-8
582.074	1	0
582.414	1	0
582.753	1	-7
583.093	1	1
583.433	1	-6
583.772	1	13
584.112	1	-1
584.452	1	0
584.791	1	-2
585.131	1	-2
585.471	1	2
585.811	1	-2
586.150	1	-7
586.490	1	4
586.830	1	-2
587.169	1	-1
587.509	1	-2
587.849	1	-5
588.188	1	7
588.528	1	5
588.867	1	5
589.207	1	-5
589.547	1	4
589.886	1	1
590.226	1	1
590.566	1	3
590.905	1	3
591.245	1	-8
591.585	1	-2
591.924	1	2
592.264	1	-2
592.603	1	3
592.943	1	5
593.283	1	6
593.622	1	2
593.962	1	5
594.301	1	6
594.641	1	-3
594.981	1	0
595.320	1	0
595.660	1	-2
595.999	1	-10
596.339	1	-4
596.678	1	1
597.018	1	-1
597.358	1	6
597.697	1	0
598.037	1	3
598.376	1	-4
598.716	1	4
599.055	1	1
599.395	1	0
599.734	1	-2
600.074	1	3
600.413	1	8
600.753	1	2
601.092	1	-1
601.432	1	-8
601.771	1	8
602.111	1	5
602.451	1	12
602.790	1	-2
603.130	1	1
603.469	1	-13
603.809	1	-5
604.148	1	-1
604.487	1	-1
604.827	1	12
605.166	1	-1
605.506	1	4
605.845	1	4
606.185	1	9
606.524	1	-8
606.864	1	5
607.203	1	1
607.543	1	-8
607.882	1	1
608.222	1	2
608.561	1	-3
608.901	1	4
609.240	1	-12
609.579	1	7
609.919	1	13
610.258	1	7
610.598	1	5
610.937	1	9
611.277	1	-7
611.616	1	5
611.955	1	10
612.295	1	-2
612.634	1	-7
612.974	1	-9
613.313	1	4
613.652	1	10
613.992	1	-3
614.331	1	3
614.671	1	-1
615.010	1	-4
615.349	1	8
615.689	1	8
616.028	1	3
616.368	1	-1
616.707	1	6
617.046	1	0
617.386	1	8
617.725	1	-3
618.064	1	-7
618.404	1	-4
618.743	1	9
619.082	1	2
619.422	1	-5
619.761	1	2
620.100	1	6
620.440	1	0
620.779	1	-6
621.118	1	3
621.458	1	1
621.797	1	-7
622.136	1	5
622.476	1	6
622.815	1	9
623.154	1	10
623.494	1	11
623.833	1	8
624.172	1	2
624.511	1	5
624.851	1	-6
625.190	1	0
625.529	1	-1
625.869	1	11
626.208	1	0
626.547	1	6
626.886	1	4
627.226	1	-2
627.565	1	2
627.904	1	-6
628.243	1	10
628.583	1	4
628.922	1	1
629.261	1	3
629.600	1	10
629.940	1	-7
630.279	1	-13
630.618	1	-2
630.957	1	0
631.297	1	-3
631.636	1	-13
631.975	1	10
632.314	1	-2
632.653	1	-7
632.993	1	-5
633.332	1	1
633.671	1	-3
634.010	1	-11
634.349	1	9
634.689	1	-12
635.028	1	2
635.367	1	-4
635.706	1	3
636.045	1	13
636.384	1	1
636.724	1	-6
637.063	1	-3
637.402	1	-2
637.741	1	9
638.080	1	-6
638.419	1	-1
638.759	1	0
639.098	1	3
639.437	1	3
639.776	1	-1
640.115	1	0
640.454	1	-2
640.793	1	10
641.132	1	8
641.472	1	1
641.811	1	-8
642.150	1	-16
642.489	1	7
642.828	1	-5
643.167	1	-7
643.506	1	-14
643.845	1	-4
644.184	1	5
644.524	1	0
644.863	1	-9
645.202	1	-6
645.541	1	-8
645.880	1	-1
646.219	1	7
646.558	1	3
646.897	1	5
647.236	1	1
647.575	1	0
647.914	1	-7
648.253	1	6
648.592	1	-8
648.931	1	13
649.270	1	-3
649.610	1	3
649.949	1	-5
650.288	1	-1
650.627	1	4
650.966	1	-1
651.305	1	-3
651.644	1	6
651.983	1	-3
652.322	1	-5
652.661	1	-11
653.000	1	1
653.339	1	-2
653.678	1	-3
654.017	1	-1
654.356	1	-3
654.695	1	4
655.034	1	4
655.373	1	5
655.712	1	0
656.051	1	-2
656.390	1	-1
656.729	1	9
657.068	1	-7
657.406	1	2
657.745	1	-3
658.084	1	-1
658.423	1	9
658.762	1	0
659.101	1	4
659.440	1	5
659.779	1	0
660.118	1	-1
660.457	1	3
660.796	1	-3
661.135	1	-2
661.474	1	3
661.813	1	4
662.152	1	6
662.491	1	-3
662.829	1	-7
663.168	1	-1
663.507	1	5
663.846	1	1
664.185	1	-3
664.524	1	5
664.863	1	-6
665.202	1	1
665.541	1	-13
665.879	1	-6
666.218	1	-2
666.557	1	0
666.896	1	-13
667.235	1	0
667.574	1	2
667.913	1	-2
668.251	1	0
668.590	1	-2
668.929	1	-10
669.268	1	-2
669.607	1	-5
669.946	1	2
670.285	1	9
670.623	1	3
670.962	1	2
671.301	1	-1
671.640	1	0
671.979	1	-1
672.317	1	1
672.656	1	-1
672.995	1	-5
673.334	1	0
673.673	1	0
674.011	1	2
674.350	1	1
674.689	1	-3
675.028	1	-1
675.367	1	-3
675.705	1	-2
676.044	1	8
676.383	1	-3
676.722	1	2
677.060	1	-9
677.399	1	-9
677.738	1	3
678.077	1	3
678.416	1	3
678.754	1	-11
679.093	1	3
679.432	1	4
679.771	1	-3
680.109	1	4
680.448	1	-5
680.787	1	-11
681.125	1	5
681.464	1	0
681.803	1	1
682.142	1	12
682.480	1	8
682.819	1	6
683.158	1	-2
683.496	1	6
683.835	1	4
684.174	1	0
684.512	1	8
684.851	1	8
685.190	1	2
685.529	1	-4
685.867	1	2
686.206	1	-10
686.545	1	-13
686.883	1	-1
687.222	1	3
687.561	1	-1
687.899	1	3
688.238	1	4
688.577	1	-3
688.746	1	2