File: Data/GaN_200K_800ms/GaN_sample F_spot 12_UVVIS_200 K_200um_800 ms 2x2mm1_391.txt
340.368	1	0
340.710	1	-10
341.052	1	7
341.394	1	-7
341.737	1	8
342.079	1	-3
342.421	1	0
342.763	1	0
343.105	1	1
343.447	1	-14
343.789	1	-3
344.131	1	3
344.473	1	-4
344.815	1	2
345.157	1	-3
345.499	1	-1
345.841	1	1
346.183	1	-9
346.526	1	-9
346.868	1	0
347.210	1	-6
347.552	1	-5
347.894	1	-1
348.236	1	3
348.578	1	-3
348.920	1	-2
349.262	1	-13
349.604	1	9
349.946	1	-3
350.288	1	5
350.630	1	7
350.972	1	-2
351.314	1	9
351.656	1	4
351.998	1	4
352.340	1	2
352.682	1	10
353.024	1	6
353.366	1	9
353.708	1	-1
354.050	1	-13
354.392	1	-9
354.734	1	1
355.076	1	-5
355.418	1	-16
355.760	1	-11
356.102	1	18
356.444	1	4
356.785	1	0
357.127	1	-14
357.469	1	2
357.811	1	2
358.153	1	4
358.495	1	-3
358.837	1	-4
359.179	1	4
359.521	1	5
359.863	1	5
360.205	1	3
360.547	1	8
360.889	1	1
361.231	1	-3
361.572	1	1
361.914	1	8
362.256	1	2
362.598	1	-3
362.940	1	-7
363.282	1	8
363.624	1	10
363.966	1	-6
364.308	1	-4
364.649	1	5
364.991	1	3
365.333	1	-1
365.675	1	-4
366.017	1	-1
366.359	1	12
366.701	1	10
367.042	1	10
367.384	1	19
367.726	1	8
368.068	1	12
368.410	1	19
368.752	1	6
369.093	1	3
369.435	1	16
369.777	1	8
370.119	1	7
370.461	1	19
370.803	1	7
371.144	1	5
371.486	1	18
371.828	1	7
372.170	1	6
372.512	1	6
372.853	1	13
373.195	1	1
373.537	1	10
373.879	1	4
374.220	1	17
374.562	1	14
374.904	1	11
375.246	1	4
375.588	1	8
375.929	1	11
376.271	1	14
376.613	1	-3
376.955	1	-1
377.296	1	-4
377.638	1	9
377.980	1	5
378.321	1	-8
378.663	1	12
379.005	1	9
379.347	1	2
379.688	1	3
380.030	1	8
380.372	1	10
380.714	1	3
381.055	1	7
381.397	1	-3
381.739	1	7
382.080	1	9
382.422	1	7
382.764	1	-2
383.105	1	-9
383.447	1	0
383.789	1	-10
384.130	1	2
384.472	1	-5
384.814	1	-2
385.156	1	-1
385.497	1	8
385.839	1	-2
386.180	1	1
386.522	1	13
386.864	1	3
387.205	1	-6
387.547	1	-7
387.889	1	7
388.230	1	11
388.572	1	-10
388.914	1	7
389.255	1	2
389.597	1	16
389.939	1	0
390.280	1	4
390.622	1	0
390.963	1	10
391.305	1	2
391.647	1	0
391.988	1	8
392.330	1	9
392.671	1	-1
393.013	1	-5
393.355	1	4
393.696	1	-5
394.038	1	6
394.379	1	3
394.721	1	-5
395.062	1	-1
395.404	1	-5
395.746	1	6
396.087	1	-5
396.429	1	8
396.770	1	0
397.112	1	9
397.453	1	7
397.795	1	-1
398.136	1	-5
398.478	1	1
398.819	1	3
399.161	1	5
399.503	1	2
399.844	1	8
400.186	1	0
400.527	1	2
400.869	1	-6
401.210	1	3
401.552	1	-12
401.893	1	-2
402.235	1	-4
402.576	1	2
402.918	1	5
403.259	1	-5
403.601	1	-5
403.942	1	5
404.284	1	14
404.625	1	-1
404.967	1	1
405.308	1	1
405.649	1	5
405.991	1	-3
406.332	1	0
406.674	1	-10
407.015	1	7
407.357	1	-1
407.698	1	10
408.040	1	6
408.381	1	6
408.722	1	-18
409.064	1	2
409.405	1	3
409.747	1	-3
410.088	1	0
410.430	1	4
410.771	1	-8
411.112	1	3
411.454	1	-1
411.795	1	-3
412.137	1	-3
412.478	1	10
412.819	1	-4
413.161	1	4
413.502	1	0
413.844	1	-2
414.185	1	8
414.526	1	1
414.868	1	8
415.209	1	-3
415.550	1	-10
415.892	1	-1
416.233	1	-2
416.575	1	12
416.916	1	-6
417.257	1	0
417.599	1	0
417.940	1	3
418.281	1	1
418.623	1	-6
418.964	1	-14
419.305	1	0
419.647	1	-3
419.988	1	-5
420.329	1	-2
420.671	1	-2
421.012	1	-3
421.353	1	-8
421.695	1	-6
422.036	1	-5
422.377	1	0
422.718	1	2
423.060	1	0
423.401	1	-3
423.742	1	5
424.084	1	-5
424.425	1	1
424.766	1	-6
425.107	1	0
425.449	1	-2
425.790	1	-19
426.131	1	7
426.472	1	-2
426.814	1	-1
427.155	1	-14
427.496	1	-4
427.837	1	-6
428.179	1	-11
428.520	1	-1
428.861	1	-8
429.202	1	-9
429.544	1	-2
429.885	1	-5
430.226	1	-6
430.567	1	6
430.909	1	10
431.250	1	-9
431.591	1	1
431.932	1	-1
432.273	1	-4
432.615	1	-5
432.956	1	-5
433.297	1	-1
433.638	1	-6
433.979	1	7
434.320	1	-2
434.662	1	2
435.003	1	8
435.344	1	0
435.685	1	-10
436.026	1	1
436.368	1	7
436.709	1	-2
437.050	1	0
437.391	1	10
437.732	1	-5
438.073	1	-2
438.414	1	-9
438.756	1	-5
439.097	1	-13
439.438	1	-8
439.779	1	1
440.120	1	-4
440.461	1	-6
440.802	1	-5
441.143	1	6
441.485	1	-2
441.826	1	-1
442.167	1	-5
442.508	1	-9
442.849	1	7
443.190	1	-3
443.531	1	-1
443.872	1	3
444.213	1	0
444.554	1	11
444.895	1	-3
445.237	1	-1
445.578	1	-16
445.919	1	-5
446.260	1	-4
446.601	1	0
446.942	1	2
447.283	1	-5
447.624	1	4
447.965	1	-4
448.306	1	-4
448.647	1	-3
448.988	1	-8
449.329	1	-1
449.670	1	5
450.011	1	3
450.352	1	-3
450.693	1	-4
451.034	1	-4
451.375	1	-3
451.716	1	-6
452.057	1	2
452.398	1	-3
452.739	1	-3
453.080	1	0
453.421	1	-2
453.762	1	-6
454.103	1	1
454.444	1	-7
454.785	1	-3
455.126	1	-9
455.467	1	-3
455.808	1	2
456.149	1	2
456.490	1	-4
456.831	1	7
457.172	1	-7
457.513	1	9
457.854	1	3
458.195	1	-8
458.536	1	6
458.877	1	-8
459.218	1	-7
459.559	1	1
459.899	1	-3
460.240	1	1
460.581	1	14
460.922	1	3
461.263	1	-5
461.604	1	4
461.945	1	-1
462.286	1	1
462.627	1	3
462.968	1	-1
463.309	1	-13
463.649	1	-2
463.990	1	-7
464.331	1	5
464.672	1	1
465.013	1	-8
465.354	1	2
465.695	1	-12
466.036	1	-13
466.376	1	-10
466.717	1	0
467.058	1	-4
467.399	1	5
467.740	1	-6
468.081	1	-4
468.422	1	-4
468.762	1	-3
469.103	1	-3
469.444	1	-8
469.785	1	-15
470.126	1	-5
470.467	1	-1
470.807	1	2
471.148	1	-5
471.489	1	-1
471.830	1	-4
472.171	1	-3
472.511	1	-5
472.852	1	3
473.193	1	3
473.534	1	10
473.875	1	6
474.215	1	7
474.556	1	7
474.897	1	8
475.238	1	5
475.578	1	-11
475.919	1	-4
476.260	1	3
476.601	1	0
476.942	1	5
477.282	1	-4
477.623	1	-8
477.964	1	-1
478.305	1	6
478.645	1	9
478.986	1	-9
479.327	1	-3
479.667	1	0
480.008	1	6
480.349	1	-1
480.690	1	1
481.030	1	-5
481.371	1	-8
481.712	1	11
482.053	1	-4
482.393	1	2
482.734	1	-6
483.075	1	4
483.415	1	12
483.756	1	7
484.097	1	-2
484.437	1	-15
484.778	1	6
485.119	1	-4
485.459	1	5
485.800	1	-3
486.141	1	-1
486.481	1	2
486.822	1	4
487.163	1	1
487.503	1	-9
487.844	1	-9
488.185	1	-4
488.525	1	0
488.866	1	0
489.207	1	-3
489.547	1	-1
489.888	1	-4
490.228	1	0
490.569	1	14
490.910	1	10
491.250	1	-4
491.591	1	-7
491.932	1	0
492.272	1	-6
492.613	1	1
492.953	1	-2
493.294	1	-3
493.635	1	5
493.975	1	3
494.316	1	0
494.656	1	2
494.997	1	-4
495.337	1	11
495.678	1	1
496.019	1	-5
496.359	1	-4
496.700	1	-1
497.040	1	0
497.381	1	-3
497.721	1	-7
498.062	1	-3
498.403	1	0
498.743	1	3
499.084	1	-3
499.424	1	3
499.765	1	-4
500.105	1	2
500.446	1	0
500.786	1	1
501.127	1	-2
501.467	1	-7
501.808	1	6
502.148	1	6
502.489	1	-4
502.829	1	-3
503.170	1	7
503.510	1	3
503.851	1	-1
504.191	1	0
504.532	1	1
504.872	1	-5
505.213	1	9
505.553	1	-11
505.894	1	-7
506.234	1	2
506.575	1	-6
506.915	1	4
507.256	1	11
507.596	1	6
507.936	1	-3
508.277	1	1
508.617	1	2
508.958	1	-6
509.298	1	6
509.639	1	-3
509.979	1	-2
510.319	1	2
510.660	1	3
511.000	1	-3
511.341	1	-1
511.681	1	6
512.022	1	-9
512.362	1	-7
512.702	1	-2
513.043	1	9
513.383	1	-11
513.724	1	-1
514.064	1	2
514.404	1	-7
514.745	1	-8
515.085	1	5
515.425	1	-6
515.766	1	0
516.106	1	2
516.447	1	22
516.787	1	3
517.127	1	-1
517.468	1	1
517.808	1	-8
518.148	1	0
518.489	1	-3
518.829	1	-1
519.169	1	-5
519.510	1	-2
519.850	1	5
520.190	1	-6
520.531	1	9
520.871	1	-3
521.211	1	-21
521.552	1	9
521.892	1	2
522.232	1	-1
522.573	1	1
522.913	1	3
523.253	1	5
523.593	1	-3
523.934	1	-2
524.274	1	8
524.614	1	-6
524.955	1	-3
525.295	1	1
525.635	1	1
525.975	1	10
526.316	1	14
526.656	1	0
526.996	1	6
527.337	1	-2
527.677	1	2
528.017	1	-10
528.357	1	0
528.698	1	3
529.038	1	-1
529.378	1	6
529.718	1	11
530.058	1	2
530.399	1	6
530.739	1	-1
531.079	1	-1
531.419	1	6
531.760	1	3
532.100	1	-1
532.440	1	-12
532.780	1	5
533.120	1	7
533.461	1	-5
533.801	1	9
534.141	1	-1
534.481	1	-7
534.821	1	9
535.162	1	4
535.502	1	-4
535.842	1	1
536.182	1	1
536.522	1	-1
536.862	1	-3
537.203	1	-5
537.543	1	-5
537.883	1	-2
538.223	1	-4
538.563	1	-1
538.903	1	-9
539.243	1	5
539.584	1	-4
539.924	1	11
540.264	1	-8
540.604	1	3
540.944	1	-8
541.284	1	1
541.624	1	6
541.964	1	10
542.305	1	5
542.645	1	-1
542.985	1	1
543.325	1	-6
543.665	1	14
544.005	1	9
544.345	1	-5
544.685	1	1
545.025	1	-10
545.365	1	-3
545.705	1	-5
546.045	1	-8
546.386	1	10
546.726	1	-2
547.066	1	1
547.406	1	4
547.746	1	-10
548.086	1	-1
548.426	1	0
548.766	1	-3
549.106	1	-5
549.446	1	-2
549.786	1	-4
550.126	1	10
550.466	1	6
550.806	1	-1
551.146	1	-2
551.486	1	0
551.826	1	1
552.166	1	-1
552.506	1	-4
552.846	1	7
553.186	1	-2
553.526	1	-4
553.866	1	7
554.206	1	3
554.546	1	0
554.886	1	4
555.226	1	-8
555.566	1	4
555.906	1	-2
556.246	1	0
556.586	1	-1
556.926	1	-2
557.266	1	-4
557.606	1	7
557.946	1	3
558.286	1	5
558.626	1	-6
558.966	1	0
559.306	1	-4
559.646	1	1
559.986	1	-9
560.325	1	1
560.665	1	-1
561.005	1	-4
561.345	1	2
561.685	1	-2
562.025	1	8
562.365	1	8
562.705	1	-6
563.045	1	-5
563.385	1	-6
563.725	1	1
564.064	1	-7
564.404	1	-7
564.744	1	-2
565.084	1	1
565.424	1	0
565.764	1	-5
566.104	1	-5
566.444	1	-8
566.783	1	-3
567.123	1	0
567.463	1	0
567.803	1	-2
568.143	1	-3
568.483	1	7
568.823	1	9
569.162	1	-2
569.502	1	-4
569.842	1	1
570.182	1	-5
570.522	1	-6
570.862	1	-9
571.201	1	4
571.541	1	6
571.881	1	8
572.221	1	-2
572.561	1	0
572.900	1	-10
573.240	1	5
573.580	1	-2
573.920	1	1
574.260	1	9
574.599	1	2
574.939	1	5
575.279	1	16
575.619	1	5
575.959	1	-7
576.298	1	6
576.638	1	-3
576.978	1	-1
577.318	1	15
577.657	1	-10
577.997	1	-5
578.337	1	10
578.677	1	8
579.016	1	3
579.356	1	-11
579.696	1	6
580.036	1	1
580.375	1	7
580.715	1	1
581.055	1	-6
581.394	1	0
581.734	1	-6
582.074	1	1
582.414	1	3
582.753	1	1
583.093	1	-5
583.433	1	-6
583.772	1	5
584.112	1	2
584.452	1	-3
584.791	1	-10
585.131	1	5
585.471	1	9
585.811	1	2
586.150	1	-4
586.490	1	2
586.830	1	1
587.169	1	4
587.509	1	-3
587.849	1	-6
588.188	1	8
588.528	1	8
588.867	1	-3
589.207	1	-3
589.547	1	-8
589.886	1	-5
590.226	1	0
590.566	1	-5
590.905	1	-12
591.245	1	-6
591.585	1	12
591.924	1	6
592.264	1	5
592.603	1	3
592.943	1	-5
593.283	1	-1
593.622	1	-1
593.962	1	3
594.301	1	4
594.641	1	-2
594.981	1	-13
595.320	1	6
595.660	1	0
595.999	1	-9
596.339	1	3
596.678	1	-4
597.018	1	-13
597.358	1	5
597.697	1	-3
598.037	1	-4
598.376	1	-1
598.716	1	0
599.055	1	2
599.395	1	-7
599.734	1	4
600.074	1	0
600.413	1	5
600.753	1	1
601.092	1	6
601.432	1	-5
601.771	1	3
602.111	1	-5
602.451	1	9
602.790	1	-2
603.130	1	8
603.469	1	-2
603.809	1	2
604.148	1	-1
604.487	1	-3
604.827	1	8
605.166	1	-2
605.506	1	-2
605.845	1	-2
606.185	1	13
606.524	1	-4
606.864	1	2
607.203	1	-4
607.543	1	2
607.882	1	3
608.222	1	6
608.561	1	-6
608.901	1	-1
609.240	1	-7
609.579	1	4
609.919	1	10
610.258	1	7
610.598	1	-4
610.937	1	1
611.277	1	-2
611.616	1	-8
611.955	1	-3
612.295	1	-6
612.634	1	1
612.974	1	-15
613.313	1	8
613.652	1	9
613.992	1	-7
614.331	1	1
614.671	1	0
615.010	1	-9
615.349	1	5
615.689	1	3
616.028	1	-1
616.368	1	10
616.707	1	3
617.046	1	4
617.386	1	3
617.725	1	-9
618.064	1	-2
618.404	1	3
618.743	1	-5
619.082	1	-10
619.422	1	-5
619.761	1	-4
620.100	1	3
620.440	1	-3
620.779	1	-7
621.118	1	-8
621.458	1	4
621.797	1	-1
622.136	1	10
622.476	1	6
622.815	1	13
623.154	1	3
623.494	1	4
623.833	1	4
624.172	1	3
624.511	1	5
624.851	1	-11
625.190	1	-6
625.529	1	1
625.869	1	11
626.208	1	-9
626.547	1	-1
626.886	1	-2
627.226	1	6
627.565	1	-2
627.904	1	0
628.243	1	3
628.583	1	-16
628.922	1	6
629.261	1	2
629.600	1	4
629.940	1	-7
630.279	1	-5
630.618	1	-3
630.957	1	-2
631.297	1	-3
631.636	1	-14
631.975	1	6
632.314	1	-8
632.653	1	0
632.993	1	-11
633.332	1	-3
633.671	1	-4
634.010	1	-5
634.349	1	9
634.689	1	-3
635.028	1	1
635.367	1	1
635.706	1	5
636.045	1	12
636.384	1	-6
636.724	1	-1
637.063	1	-1
637.402	1	8
637.741	1	-4
638.080	1	-3
638.419	1	-10
638.759	1	-11
639.098	1	3
639.437	1	0
639.776	1	-2
640.115	1	-9
640.454	1	-2
640.793	1	4
641.132	1	0
641.472	1	3
641.811	1	-3
642.150	1	-9
642.489	1	5
642.828	1	-6
643.167	1	-12
643.506	1	-6
643.845	1	1
644.184	1	2
644.524	1	-9
644.863	1	-5
645.202	1	-1
645.541	1	-1
645.880	1	2
646.219	1	1
646.558	1	-10
646.897	1	2
647.236	1	-4
647.575	1	4
647.914	1	2
648.253	1	8
648.592	1	-1
648.931	1	5
649.270	1	-1
649.610	1	-1
649.949	1	-5
650.288	1	-1
650.627	1	-4
650.966	1	-6
651.305	1	8
651.644	1	11
651.983	1	-4
652.322	1	-8
652.661	1	-10
653.000	1	-2
653.339	1	5
653.678	1	-2
654.017	1	-2
654.356	1	-8
654.695	1	0
655.034	1	0
655.373	1	2
655.712	1	8
656.051	1	-4
656.390	1	-9
656.729	1	9
657.068	1	5
657.406	1	9
657.745	1	-2
658.084	1	0
658.423	1	8
658.762	1	3
659.101	1	6
659.440	1	3
659.779	1	-2
660.118	1	-4
660.457	1	2
660.796	1	-9
661.135	1	-11
661.474	1	-4
661.813	1	11
662.152	1	1
662.491	1	1
662.829	1	0
663.168	1	12
663.507	1	11
663.846	1	-8
664.185	1	9
664.524	1	-3
664.863	1	-1
665.202	1	6
665.541	1	-10
665.879	1	-10
666.218	1	-6
666.557	1	-1
666.896	1	-4
667.235	1	0
667.574	1	-7
667.913	1	-3
668.251	1	-10
668.590	1	5
668.929	1	-7
669.268	1	7
669.607	1	-5
669.946	1	2
670.285	1	10
670.623	1	0
670.962	1	3
671.301	1	-10
671.640	1	8
671.979	1	-3
672.317	1	10
672.656	1	2
672.995	1	6
673.334	1	1
673.673	1	-9
674.011	1	7
674.350	1	6
674.689	1	0
675.028	1	-7
675.367	1	6
675.705	1	10
676.044	1	-3
676.383	1	1
676.722	1	0
677.060	1	-11
677.399	1	-7
677.738	1	-4
678.077	1	8
678.416	1	-8
678.754	1	1
679.093	1	-5
679.432	1	3
679.771	1	0
680.109	1	15
680.448	1	-1
680.787	1	-7
681.125	1	3
681.464	1	-4
681.803	1	-5
682.142	1	2
682.480	1	19
682.819	1	-3
683.158	1	-6
683.496	1	-1
683.835	1	4
684.174	1	-1
684.512	1	-3
684.851	1	5
685.190	1	-7
685.529	1	-5
685.867	1	5
686.206	1	-7
686.545	1	-12
686.883	1	-3
687.222	1	7
687.561	1	-1
687.899	1	-2
688.238	1	4
688.577	1	-4
688.746	1	2