File: Data/GaN_200K_800ms/GaN_sample F_spot 12_UVVIS_200 K_200um_800 ms 2x2mm1_389.txt
340.368	1	1
340.710	1	-10
341.052	1	2
341.394	1	-8
341.737	1	4
342.079	1	-6
342.421	1	-1
342.763	1	7
343.105	1	-1
343.447	1	-7
343.789	1	-7
344.131	1	1
344.473	1	-1
344.815	1	-1
345.157	1	-2
345.499	1	2
345.841	1	5
346.183	1	-1
346.526	1	-15
346.868	1	2
347.210	1	-7
347.552	1	-1
347.894	1	4
348.236	1	8
348.578	1	-6
348.920	1	-5
349.262	1	-9
349.604	1	-4
349.946	1	-3
350.288	1	12
350.630	1	1
350.972	1	-2
351.314	1	-7
351.656	1	4
351.998	1	0
352.340	1	9
352.682	1	6
353.024	1	2
353.366	1	18
353.708	1	3
354.050	1	-14
354.392	1	-1
354.734	1	-4
355.076	1	-2
355.418	1	-14
355.760	1	-5
356.102	1	5
356.444	1	3
356.785	1	10
357.127	1	-2
357.469	1	-1
357.811	1	2
358.153	1	6
358.495	1	-6
358.837	1	-3
359.179	1	1
359.521	1	2
359.863	1	5
360.205	1	1
360.547	1	4
360.889	1	1
361.231	1	-5
361.572	1	-2
361.914	1	4
362.256	1	6
362.598	1	-3
362.940	1	0
363.282	1	10
363.624	1	10
363.966	1	2
364.308	1	-1
364.649	1	-2
364.991	1	2
365.333	1	7
365.675	1	-5
366.017	1	13
366.359	1	11
366.701	1	5
367.042	1	7
367.384	1	11
367.726	1	4
368.068	1	13
368.410	1	19
368.752	1	13
369.093	1	7
369.435	1	8
369.777	1	10
370.119	1	13
370.461	1	32
370.803	1	14
371.144	1	5
371.486	1	16
371.828	1	14
372.170	1	11
372.512	1	8
372.853	1	6
373.195	1	8
373.537	1	7
373.879	1	5
374.220	1	13
374.562	1	13
374.904	1	-2
375.246	1	9
375.588	1	1
375.929	1	0
376.271	1	14
376.613	1	-1
376.955	1	1
377.296	1	7
377.638	1	5
377.980	1	5
378.321	1	-6
378.663	1	-2
379.005	1	19
379.347	1	1
379.688	1	6
380.030	1	1
380.372	1	1
380.714	1	7
381.055	1	5
381.397	1	1
381.739	1	5
382.080	1	3
382.422	1	1
382.764	1	1
383.105	1	-1
383.447	1	-2
383.789	1	-2
384.130	1	4
384.472	1	0
384.814	1	11
385.156	1	-1
385.497	1	4
385.839	1	1
386.180	1	3
386.522	1	2
386.864	1	-7
387.205	1	-10
387.547	1	-11
387.889	1	2
388.230	1	8
388.572	1	7
388.914	1	5
389.255	1	5
389.597	1	1
389.939	1	-3
390.280	1	5
390.622	1	-6
390.963	1	8
391.305	1	7
391.647	1	-4
391.988	1	10
392.330	1	-2
392.671	1	-2
393.013	1	-5
393.355	1	12
393.696	1	0
394.038	1	-3
394.379	1	6
394.721	1	-2
395.062	1	1
395.404	1	-5
395.746	1	4
396.087	1	-4
396.429	1	0
396.770	1	-6
397.112	1	3
397.453	1	12
397.795	1	-1
398.136	1	-12
398.478	1	5
398.819	1	6
399.161	1	1
399.503	1	7
399.844	1	2
400.186	1	0
400.527	1	-2
400.869	1	3
401.210	1	1
401.552	1	-6
401.893	1	-7
402.235	1	-4
402.576	1	0
402.918	1	3
403.259	1	9
403.601	1	3
403.942	1	10
404.284	1	5
404.625	1	1
404.967	1	0
405.308	1	4
405.649	1	-1
405.991	1	-6
406.332	1	7
406.674	1	-6
407.015	1	2
407.357	1	-5
407.698	1	4
408.040	1	-16
408.381	1	6
408.722	1	-17
409.064	1	0
409.405	1	-3
409.747	1	0
410.088	1	-12
410.430	1	7
410.771	1	5
411.112	1	-4
411.454	1	0
411.795	1	-7
412.137	1	-4
412.478	1	1
412.819	1	-2
413.161	1	1
413.502	1	-1
413.844	1	2
414.185	1	-4
414.526	1	4
414.868	1	0
415.209	1	1
415.550	1	-6
415.892	1	1
416.233	1	-6
416.575	1	13
416.916	1	-8
417.257	1	-7
417.599	1	-9
417.940	1	-2
418.281	1	3
418.623	1	-3
418.964	1	-10
419.305	1	-3
419.647	1	1
419.988	1	-6
420.329	1	-11
420.671	1	3
421.012	1	-3
421.353	1	-2
421.695	1	4
422.036	1	-3
422.377	1	0
422.718	1	0
423.060	1	-3
423.401	1	-3
423.742	1	7
424.084	1	2
424.425	1	-5
424.766	1	-3
425.107	1	-2
425.449	1	10
425.790	1	-13
426.131	1	-4
426.472	1	-4
426.814	1	0
427.155	1	-10
427.496	1	-3
427.837	1	-10
428.179	1	-3
428.520	1	1
428.861	1	1
429.202	1	1
429.544	1	-11
429.885	1	-2
430.226	1	-11
430.567	1	0
430.909	1	0
431.250	1	-14
431.591	1	1
431.932	1	-4
432.273	1	-3
432.615	1	-14
432.956	1	-13
433.297	1	-5
433.638	1	-1
433.979	1	1
434.320	1	-1
434.662	1	-6
435.003	1	2
435.344	1	-2
435.685	1	2
436.026	1	-2
436.368	1	-4
436.709	1	3
437.050	1	-1
437.391	1	8
437.732	1	-5
438.073	1	0
438.414	1	-12
438.756	1	-3
439.097	1	-5
439.438	1	-5
439.779	1	8
440.120	1	-5
440.461	1	6
440.802	1	-3
441.143	1	9
441.485	1	-2
441.826	1	-2
442.167	1	0
442.508	1	-6
442.849	1	10
443.190	1	-3
443.531	1	12
443.872	1	4
444.213	1	4
444.554	1	5
444.895	1	-2
445.237	1	-3
445.578	1	-7
445.919	1	-10
446.260	1	-2
446.601	1	4
446.942	1	1
447.283	1	3
447.624	1	-4
447.965	1	7
448.306	1	-3
448.647	1	-6
448.988	1	1
449.329	1	4
449.670	1	7
450.011	1	9
450.352	1	-1
450.693	1	-3
451.034	1	2
451.375	1	1
451.716	1	-3
452.057	1	3
452.398	1	1
452.739	1	4
453.080	1	5
453.421	1	-3
453.762	1	1
454.103	1	2
454.444	1	0
454.785	1	1
455.126	1	-13
455.467	1	0
455.808	1	-4
456.149	1	5
456.490	1	4
456.831	1	-8
457.172	1	-2
457.513	1	3
457.854	1	-10
458.195	1	-3
458.536	1	5
458.877	1	-9
459.218	1	6
459.559	1	-4
459.899	1	-6
460.240	1	3
460.581	1	15
460.922	1	4
461.263	1	-1
461.604	1	1
461.945	1	5
462.286	1	-4
462.627	1	2
462.968	1	-2
463.309	1	-16
463.649	1	-5
463.990	1	3
464.331	1	-6
464.672	1	-2
465.013	1	-3
465.354	1	-10
465.695	1	5
466.036	1	-3
466.376	1	2
466.717	1	1
467.058	1	5
467.399	1	4
467.740	1	4
468.081	1	2
468.422	1	-7
468.762	1	-4
469.103	1	-3
469.444	1	-9
469.785	1	-19
470.126	1	-13
470.467	1	-5
470.807	1	1
471.148	1	8
471.489	1	1
471.830	1	-10
472.171	1	3
472.511	1	-5
472.852	1	-1
473.193	1	7
473.534	1	1
473.875	1	6
474.215	1	6
474.556	1	-8
474.897	1	2
475.238	1	2
475.578	1	-6
475.919	1	-7
476.260	1	-4
476.601	1	-6
476.942	1	7
477.282	1	-4
477.623	1	-6
477.964	1	-2
478.305	1	-11
478.645	1	9
478.986	1	-2
479.327	1	-14
479.667	1	-5
480.008	1	-2
480.349	1	-2
480.690	1	2
481.030	1	1
481.371	1	5
481.712	1	5
482.053	1	10
482.393	1	-5
482.734	1	-1
483.075	1	-5
483.415	1	-4
483.756	1	1
484.097	1	-5
484.437	1	-7
484.778	1	6
485.119	1	-4
485.459	1	11
485.800	1	-4
486.141	1	-2
486.481	1	-12
486.822	1	3
487.163	1	1
487.503	1	-2
487.844	1	-4
488.185	1	-2
488.525	1	-6
488.866	1	2
489.207	1	-3
489.547	1	-1
489.888	1	-7
490.228	1	13
490.569	1	10
490.910	1	-2
491.250	1	-4
491.591	1	-9
491.932	1	2
492.272	1	0
492.613	1	-2
492.953	1	-3
493.294	1	-1
493.635	1	-4
493.975	1	-1
494.316	1	5
494.656	1	-7
494.997	1	-12
495.337	1	6
495.678	1	0
496.019	1	0
496.359	1	2
496.700	1	-3
497.040	1	-4
497.381	1	0
497.721	1	-9
498.062	1	-1
498.403	1	-7
498.743	1	-4
499.084	1	0
499.424	1	10
499.765	1	-3
500.105	1	-3
500.446	1	-9
500.786	1	-5
501.127	1	0
501.467	1	-3
501.808	1	0
502.148	1	-2
502.489	1	-3
502.829	1	5
503.170	1	10
503.510	1	-3
503.851	1	8
504.191	1	1
504.532	1	0
504.872	1	4
505.213	1	-1
505.553	1	-8
505.894	1	-2
506.234	1	4
506.575	1	4
506.915	1	4
507.256	1	-4
507.596	1	4
507.936	1	-6
508.277	1	-6
508.617	1	-3
508.958	1	-9
509.298	1	1
509.639	1	-5
509.979	1	-14
510.319	1	-2
510.660	1	1
511.000	1	-8
511.341	1	-5
511.681	1	9
512.022	1	-6
512.362	1	3
512.702	1	-12
513.043	1	6
513.383	1	-6
513.724	1	1
514.064	1	15
514.404	1	0
514.745	1	-1
515.085	1	-8
515.425	1	-4
515.766	1	-1
516.106	1	-8
516.447	1	12
516.787	1	5
517.127	1	-6
517.468	1	-1
517.808	1	-4
518.148	1	-1
518.489	1	-8
518.829	1	-2
519.169	1	-2
519.510	1	-1
519.850	1	6
520.190	1	-9
520.531	1	4
520.871	1	-1
521.211	1	-8
521.552	1	2
521.892	1	7
522.232	1	9
522.573	1	-3
522.913	1	1
523.253	1	5
523.593	1	-7
523.934	1	-1
524.274	1	6
524.614	1	-5
524.955	1	-6
525.295	1	8
525.635	1	0
525.975	1	-1
526.316	1	7
526.656	1	-9
526.996	1	3
527.337	1	3
527.677	1	-3
528.017	1	6
528.357	1	1
528.698	1	8
529.038	1	-5
529.378	1	2
529.718	1	17
530.058	1	0
530.399	1	1
530.739	1	0
531.079	1	12
531.419	1	0
531.760	1	-4
532.100	1	5
532.440	1	-3
532.780	1	-1
533.120	1	7
533.461	1	2
533.801	1	7
534.141	1	-17
534.481	1	-10
534.821	1	3
535.162	1	3
535.502	1	-5
535.842	1	7
536.182	1	6
536.522	1	-5
536.862	1	6
537.203	1	-15
537.543	1	7
537.883	1	-6
538.223	1	-1
538.563	1	7
538.903	1	-12
539.243	1	-5
539.584	1	-9
539.924	1	5
540.264	1	-2
540.604	1	-2
540.944	1	-6
541.284	1	7
541.624	1	-2
541.964	1	16
542.305	1	4
542.645	1	-1
542.985	1	10
543.325	1	-5
543.665	1	4
544.005	1	5
544.345	1	-2
544.685	1	-7
545.025	1	-2
545.365	1	-7
545.705	1	-7
546.045	1	-11
546.386	1	3
546.726	1	-9
547.066	1	5
547.406	1	-1
547.746	1	-9
548.086	1	-1
548.426	1	-4
548.766	1	2
549.106	1	-4
549.446	1	-5
549.786	1	-3
550.126	1	15
550.466	1	1
550.806	1	-5
551.146	1	4
551.486	1	7
551.826	1	2
552.166	1	1
552.506	1	11
552.846	1	3
553.186	1	-6
553.526	1	-10
553.866	1	-8
554.206	1	0
554.546	1	2
554.886	1	5
555.226	1	-1
555.566	1	3
555.906	1	7
556.246	1	0
556.586	1	0
556.926	1	-2
557.266	1	-7
557.606	1	-2
557.946	1	12
558.286	1	14
558.626	1	6
558.966	1	-1
559.306	1	0
559.646	1	3
559.986	1	-7
560.325	1	-8
560.665	1	-8
561.005	1	-1
561.345	1	2
561.685	1	1
562.025	1	-5
562.365	1	-1
562.705	1	-1
563.045	1	2
563.385	1	-16
563.725	1	-2
564.064	1	-1
564.404	1	3
564.744	1	-3
565.084	1	2
565.424	1	1
565.764	1	-5
566.104	1	3
566.444	1	-8
566.783	1	-6
567.123	1	8
567.463	1	3
567.803	1	-17
568.143	1	-1
568.483	1	1
568.823	1	11
569.162	1	8
569.502	1	-4
569.842	1	5
570.182	1	7
570.522	1	-11
570.862	1	-2
571.201	1	12
571.541	1	2
571.881	1	-3
572.221	1	-4
572.561	1	0
572.900	1	-9
573.240	1	0
573.580	1	-3
573.920	1	-2
574.260	1	11
574.599	1	-7
574.939	1	1
575.279	1	11
575.619	1	11
575.959	1	-5
576.298	1	14
576.638	1	-7
576.978	1	10
577.318	1	2
577.657	1	0
577.997	1	-8
578.337	1	6
578.677	1	6
579.016	1	8
579.356	1	-5
579.696	1	6
580.036	1	-6
580.375	1	-1
580.715	1	-1
581.055	1	5
581.394	1	1
581.734	1	-4
582.074	1	-1
582.414	1	14
582.753	1	-7
583.093	1	-3
583.433	1	-6
583.772	1	9
584.112	1	-6
584.452	1	-5
584.791	1	-6
585.131	1	0
585.471	1	-2
585.811	1	2
586.150	1	-2
586.490	1	-1
586.830	1	1
587.169	1	4
587.509	1	-4
587.849	1	4
588.188	1	9
588.528	1	8
588.867	1	5
589.207	1	4
589.547	1	0
589.886	1	-4
590.226	1	6
590.566	1	-1
590.905	1	1
591.245	1	-10
591.585	1	-4
591.924	1	-6
592.264	1	0
592.603	1	-5
592.943	1	-5
593.283	1	-6
593.622	1	-8
593.962	1	2
594.301	1	2
594.641	1	-9
594.981	1	-4
595.320	1	4
595.660	1	-6
595.999	1	-12
596.339	1	-6
596.678	1	-7
597.018	1	1
597.358	1	3
597.697	1	3
598.037	1	5
598.376	1	1
598.716	1	5
599.055	1	4
599.395	1	-5
599.734	1	7
600.074	1	4
600.413	1	14
600.753	1	5
601.092	1	7
601.432	1	-8
601.771	1	-1
602.111	1	2
602.451	1	-1
602.790	1	-2
603.130	1	10
603.469	1	-6
603.809	1	6
604.148	1	0
604.487	1	0
604.827	1	0
605.166	1	8
605.506	1	-2
605.845	1	-3
606.185	1	0
606.524	1	-7
606.864	1	-7
607.203	1	2
607.543	1	-7
607.882	1	2
608.222	1	-2
608.561	1	0
608.901	1	6
609.240	1	-1
609.579	1	-5
609.919	1	1
610.258	1	2
610.598	1	-2
610.937	1	1
611.277	1	-5
611.616	1	-2
611.955	1	1
612.295	1	-6
612.634	1	-6
612.974	1	-20
613.313	1	9
613.652	1	8
613.992	1	0
614.331	1	-6
614.671	1	12
615.010	1	-8
615.349	1	-1
615.689	1	0
616.028	1	5
616.368	1	-3
616.707	1	8
617.046	1	7
617.386	1	-2
617.725	1	-3
618.064	1	-8
618.404	1	-2
618.743	1	-3
619.082	1	2
619.422	1	-11
619.761	1	8
620.100	1	-3
620.440	1	3
620.779	1	-13
621.118	1	-5
621.458	1	1
621.797	1	-3
622.136	1	10
622.476	1	2
622.815	1	2
623.154	1	1
623.494	1	9
623.833	1	3
624.172	1	-5
624.511	1	-13
624.851	1	-7
625.190	1	-2
625.529	1	6
625.869	1	0
626.208	1	-2
626.547	1	-4
626.886	1	1
627.226	1	5
627.565	1	4
627.904	1	-1
628.243	1	10
628.583	1	-3
628.922	1	8
629.261	1	5
629.600	1	4
629.940	1	-5
630.279	1	-9
630.618	1	1
630.957	1	-3
631.297	1	-1
631.636	1	-11
631.975	1	5
632.314	1	5
632.653	1	4
632.993	1	-7
633.332	1	-4
633.671	1	-4
634.010	1	-3
634.349	1	6
634.689	1	-2
635.028	1	8
635.367	1	-8
635.706	1	3
636.045	1	5
636.384	1	2
636.724	1	8
637.063	1	-2
637.402	1	3
637.741	1	12
638.080	1	-11
638.419	1	-10
638.759	1	-8
639.098	1	6
639.437	1	5
639.776	1	-6
640.115	1	0
640.454	1	-7
640.793	1	8
641.132	1	2
641.472	1	2
641.811	1	0
642.150	1	-17
642.489	1	6
642.828	1	1
643.167	1	-8
643.506	1	-13
643.845	1	5
644.184	1	-1
644.524	1	1
644.863	1	-3
645.202	1	4
645.541	1	-5
645.880	1	-2
646.219	1	0
646.558	1	1
646.897	1	-2
647.236	1	2
647.575	1	0
647.914	1	-5
648.253	1	16
648.592	1	-3
648.931	1	7
649.270	1	-4
649.610	1	2
649.949	1	-6
650.288	1	1
650.627	1	-5
650.966	1	9
651.305	1	5
651.644	1	12
651.983	1	-8
652.322	1	3
652.661	1	-2
653.000	1	-4
653.339	1	5
653.678	1	-4
654.017	1	-8
654.356	1	-10
654.695	1	3
655.034	1	-5
655.373	1	12
655.712	1	-1
656.051	1	-4
656.390	1	-2
656.729	1	6
657.068	1	2
657.406	1	8
657.745	1	-6
658.084	1	0
658.423	1	8
658.762	1	0
659.101	1	17
659.440	1	-1
659.779	1	1
660.118	1	-6
660.457	1	-2
660.796	1	-10
661.135	1	-8
661.474	1	-7
661.813	1	5
662.152	1	0
662.491	1	-5
662.829	1	-8
663.168	1	-1
663.507	1	4
663.846	1	-4
664.185	1	2
664.524	1	1
664.863	1	-6
665.202	1	0
665.541	1	-8
665.879	1	-1
666.218	1	-7
666.557	1	-6
666.896	1	-5
667.235	1	4
667.574	1	-6
667.913	1	-5
668.251	1	-6
668.590	1	-2
668.929	1	-17
669.268	1	-5
669.607	1	0
669.946	1	8
670.285	1	-5
670.623	1	-1
670.962	1	-5
671.301	1	-2
671.640	1	-1
671.979	1	-5
672.317	1	7
672.656	1	2
672.995	1	1
673.334	1	1
673.673	1	5
674.011	1	3
674.350	1	-3
674.689	1	6
675.028	1	0
675.367	1	3
675.705	1	-2
676.044	1	1
676.383	1	-5
676.722	1	-2
677.060	1	-8
677.399	1	-3
677.738	1	10
678.077	1	-1
678.416	1	3
678.754	1	-7
679.093	1	0
679.432	1	3
679.771	1	1
680.109	1	7
680.448	1	0
680.787	1	-1
681.125	1	0
681.464	1	-2
681.803	1	3
682.142	1	9
682.480	1	13
682.819	1	1
683.158	1	0
683.496	1	3
683.835	1	1
684.174	1	-6
684.512	1	3
684.851	1	0
685.190	1	4
685.529	1	-3
685.867	1	-3
686.206	1	-4
686.545	1	-6
686.883	1	-7
687.222	1	-2
687.561	1	-2
687.899	1	6
688.238	1	3
688.577	1	-10
688.746	1	-3