File: Data/GaN_200K_800ms/GaN_sample F_spot 12_UVVIS_200 K_200um_800 ms 2x2mm1_348.txt
340.368	1	4
340.710	1	-8
341.052	1	1
341.394	1	-11
341.737	1	1
342.079	1	-7
342.421	1	-5
342.763	1	1
343.105	1	6
343.447	1	-2
343.789	1	8
344.131	1	2
344.473	1	-6
344.815	1	-10
345.157	1	-10
345.499	1	2
345.841	1	3
346.183	1	-2
346.526	1	-3
346.868	1	1
347.210	1	-7
347.552	1	-7
347.894	1	2
348.236	1	0
348.578	1	-6
348.920	1	-1
349.262	1	-3
349.604	1	0
349.946	1	-8
350.288	1	5
350.630	1	2
350.972	1	4
351.314	1	5
351.656	1	4
351.998	1	-3
352.340	1	-1
352.682	1	4
353.024	1	6
353.366	1	7
353.708	1	0
354.050	1	-4
354.392	1	1
354.734	1	4
355.076	1	-1
355.418	1	-10
355.760	1	-11
356.102	1	13
356.444	1	-4
356.785	1	15
357.127	1	10
357.469	1	4
357.811	1	-3
358.153	1	7
358.495	1	6
358.837	1	-7
359.179	1	-5
359.521	1	10
359.863	1	1
360.205	1	1
360.547	1	7
360.889	1	-6
361.231	1	-7
361.572	1	8
361.914	1	5
362.256	1	4
362.598	1	2
362.940	1	5
363.282	1	14
363.624	1	11
363.966	1	3
364.308	1	-1
364.649	1	6
364.991	1	8
365.333	1	3
365.675	1	-4
366.017	1	7
366.359	1	1
366.701	1	14
367.042	1	8
367.384	1	14
367.726	1	3
368.068	1	12
368.410	1	17
368.752	1	2
369.093	1	4
369.435	1	13
369.777	1	6
370.119	1	12
370.461	1	21
370.803	1	17
371.144	1	8
371.486	1	21
371.828	1	12
372.170	1	14
372.512	1	4
372.853	1	13
373.195	1	4
373.537	1	9
373.879	1	6
374.220	1	10
374.562	1	18
374.904	1	12
375.246	1	10
375.588	1	7
375.929	1	9
376.271	1	17
376.613	1	14
376.955	1	2
377.296	1	-3
377.638	1	0
377.980	1	8
378.321	1	2
378.663	1	1
379.005	1	10
379.347	1	7
379.688	1	7
380.030	1	8
380.372	1	8
380.714	1	10
381.055	1	5
381.397	1	1
381.739	1	4
382.080	1	5
382.422	1	-2
382.764	1	-4
383.105	1	6
383.447	1	12
383.789	1	0
384.130	1	0
384.472	1	0
384.814	1	6
385.156	1	-4
385.497	1	3
385.839	1	0
386.180	1	-6
386.522	1	3
386.864	1	13
387.205	1	6
387.547	1	-1
387.889	1	2
388.230	1	10
388.572	1	-1
388.914	1	-3
389.255	1	-4
389.597	1	3
389.939	1	2
390.280	1	9
390.622	1	-8
390.963	1	11
391.305	1	1
391.647	1	4
391.988	1	3
392.330	1	5
392.671	1	3
393.013	1	-5
393.355	1	2
393.696	1	3
394.038	1	3
394.379	1	1
394.721	1	-2
395.062	1	0
395.404	1	-1
395.746	1	5
396.087	1	4
396.429	1	7
396.770	1	-10
397.112	1	8
397.453	1	3
397.795	1	-2
398.136	1	-2
398.478	1	-1
398.819	1	0
399.161	1	9
399.503	1	0
399.844	1	-4
400.186	1	3
400.527	1	-7
400.869	1	-2
401.210	1	7
401.552	1	-12
401.893	1	0
402.235	1	-2
402.576	1	-5
402.918	1	6
403.259	1	12
403.601	1	-5
403.942	1	12
404.284	1	6
404.625	1	2
404.967	1	-4
405.308	1	4
405.649	1	3
405.991	1	1
406.332	1	-3
406.674	1	-6
407.015	1	3
407.357	1	-1
407.698	1	12
408.040	1	-2
408.381	1	4
408.722	1	-7
409.064	1	5
409.405	1	9
409.747	1	1
410.088	1	-8
410.430	1	11
410.771	1	4
411.112	1	-2
411.454	1	-3
411.795	1	-5
412.137	1	10
412.478	1	8
412.819	1	-3
413.161	1	-4
413.502	1	8
413.844	1	4
414.185	1	16
414.526	1	-1
414.868	1	0
415.209	1	-5
415.550	1	-6
415.892	1	2
416.233	1	5
416.575	1	11
416.916	1	2
417.257	1	0
417.599	1	3
417.940	1	8
418.281	1	-10
418.623	1	-5
418.964	1	-14
419.305	1	0
419.647	1	-7
419.988	1	-11
420.329	1	-9
420.671	1	3
421.012	1	2
421.353	1	-5
421.695	1	-12
422.036	1	1
422.377	1	-9
422.718	1	2
423.060	1	-4
423.401	1	0
423.742	1	3
424.084	1	1
424.425	1	7
424.766	1	-5
425.107	1	3
425.449	1	-7
425.790	1	-10
426.131	1	0
426.472	1	-3
426.814	1	3
427.155	1	-7
427.496	1	2
427.837	1	-4
428.179	1	-12
428.520	1	1
428.861	1	-3
429.202	1	2
429.544	1	-6
429.885	1	2
430.226	1	-4
430.567	1	5
430.909	1	1
431.250	1	-6
431.591	1	12
431.932	1	-7
432.273	1	-8
432.615	1	-9
432.956	1	-9
433.297	1	2
433.638	1	0
433.979	1	6
434.320	1	5
434.662	1	2
435.003	1	9
435.344	1	4
435.685	1	0
436.026	1	2
436.368	1	1
436.709	1	-3
437.050	1	-8
437.391	1	16
437.732	1	-8
438.073	1	2
438.414	1	-14
438.756	1	-7
439.097	1	-8
439.438	1	-7
439.779	1	1
440.120	1	-4
440.461	1	1
440.802	1	1
441.143	1	1
441.485	1	-4
441.826	1	3
442.167	1	-6
442.508	1	-6
442.849	1	2
443.190	1	-5
443.531	1	2
443.872	1	6
444.213	1	3
444.554	1	10
444.895	1	-5
445.237	1	-12
445.578	1	-1
445.919	1	-13
446.260	1	-2
446.601	1	-9
446.942	1	0
447.283	1	-9
447.624	1	-1
447.965	1	-1
448.306	1	-4
448.647	1	-14
448.988	1	-5
449.329	1	1
449.670	1	6
450.011	1	6
450.352	1	2
450.693	1	-10
451.034	1	-6
451.375	1	-5
451.716	1	0
452.057	1	1
452.398	1	1
452.739	1	5
453.080	1	1
453.421	1	1
453.762	1	2
454.103	1	-2
454.444	1	-7
454.785	1	-8
455.126	1	-16
455.467	1	4
455.808	1	4
456.149	1	8
456.490	1	3
456.831	1	-2
457.172	1	-1
457.513	1	3
457.854	1	2
458.195	1	-6
458.536	1	-4
458.877	1	2
459.218	1	1
459.559	1	1
459.899	1	-5
460.240	1	3
460.581	1	10
460.922	1	7
461.263	1	-7
461.604	1	-3
461.945	1	-2
462.286	1	-11
462.627	1	6
462.968	1	-6
463.309	1	-5
463.649	1	-4
463.990	1	1
464.331	1	-5
464.672	1	1
465.013	1	-6
465.354	1	-5
465.695	1	1
466.036	1	-5
466.376	1	-6
466.717	1	4
467.058	1	7
467.399	1	5
467.740	1	-5
468.081	1	5
468.422	1	-1
468.762	1	-7
469.103	1	-12
469.444	1	-8
469.785	1	-9
470.126	1	-11
470.467	1	-2
470.807	1	3
471.148	1	1
471.489	1	-8
471.830	1	0
472.171	1	9
472.511	1	-8
472.852	1	3
473.193	1	5
473.534	1	6
473.875	1	7
474.215	1	14
474.556	1	3
474.897	1	9
475.238	1	2
475.578	1	-5
475.919	1	-8
476.260	1	0
476.601	1	-4
476.942	1	16
477.282	1	-14
477.623	1	-5
477.964	1	8
478.305	1	-5
478.645	1	10
478.986	1	0
479.327	1	-7
479.667	1	5
480.008	1	-11
480.349	1	2
480.690	1	-4
481.030	1	-2
481.371	1	2
481.712	1	2
482.053	1	-1
482.393	1	-4
482.734	1	-11
483.075	1	-8
483.415	1	6
483.756	1	-8
484.097	1	3
484.437	1	2
484.778	1	-2
485.119	1	-4
485.459	1	11
485.800	1	-10
486.141	1	-5
486.481	1	7
486.822	1	12
487.163	1	-3
487.503	1	-3
487.844	1	-2
488.185	1	-3
488.525	1	-2
488.866	1	0
489.207	1	-6
489.547	1	-11
489.888	1	-2
490.228	1	2
490.569	1	12
490.910	1	5
491.250	1	-1
491.591	1	-8
491.932	1	-1
492.272	1	-2
492.613	1	-10
492.953	1	-5
493.294	1	-4
493.635	1	-3
493.975	1	-1
494.316	1	-1
494.656	1	-6
494.997	1	4
495.337	1	4
495.678	1	-8
496.019	1	4
496.359	1	-13
496.700	1	-3
497.040	1	-3
497.381	1	1
497.721	1	6
498.062	1	-3
498.403	1	1
498.743	1	-14
499.084	1	-3
499.424	1	-1
499.765	1	-6
500.105	1	-5
500.446	1	-2
500.786	1	-11
501.127	1	6
501.467	1	-6
501.808	1	2
502.148	1	2
502.489	1	1
502.829	1	1
503.170	1	15
503.510	1	7
503.851	1	-7
504.191	1	9
504.532	1	2
504.872	1	-1
505.213	1	0
505.553	1	-10
505.894	1	-3
506.234	1	4
506.575	1	9
506.915	1	0
507.256	1	4
507.596	1	5
507.936	1	-3
508.277	1	-6
508.617	1	-1
508.958	1	-6
509.298	1	4
509.639	1	1
509.979	1	-4
510.319	1	-4
510.660	1	-4
511.000	1	3
511.341	1	2
511.681	1	13
512.022	1	-10
512.362	1	-1
512.702	1	-1
513.043	1	5
513.383	1	-8
513.724	1	5
514.064	1	9
514.404	1	-5
514.745	1	-6
515.085	1	-3
515.425	1	-2
515.766	1	-9
516.106	1	-1
516.447	1	11
516.787	1	12
517.127	1	-4
517.468	1	-3
517.808	1	-2
518.148	1	4
518.489	1	-2
518.829	1	-2
519.169	1	0
519.510	1	6
519.850	1	5
520.190	1	-2
520.531	1	2
520.871	1	4
521.211	1	-21
521.552	1	6
521.892	1	-3
522.232	1	1
522.573	1	-3
522.913	1	6
523.253	1	-4
523.593	1	-3
523.934	1	-1
524.274	1	7
524.614	1	-6
524.955	1	-2
525.295	1	4
525.635	1	3
525.975	1	5
526.316	1	8
526.656	1	-3
526.996	1	-4
527.337	1	7
527.677	1	3
528.017	1	-5
528.357	1	2
528.698	1	-2
529.038	1	2
529.378	1	0
529.718	1	4
530.058	1	-4
530.399	1	7
530.739	1	8
531.079	1	-1
531.419	1	7
531.760	1	0
532.100	1	-1
532.440	1	-5
532.780	1	-2
533.120	1	6
533.461	1	-4
533.801	1	8
534.141	1	-7
534.481	1	-7
534.821	1	1
535.162	1	-4
535.502	1	-10
535.842	1	7
536.182	1	-5
536.522	1	-9
536.862	1	1
537.203	1	-10
537.543	1	-2
537.883	1	1
538.223	1	3
538.563	1	2
538.903	1	-9
539.243	1	-5
539.584	1	3
539.924	1	10
540.264	1	-5
540.604	1	5
540.944	1	-9
541.284	1	-4
541.624	1	6
541.964	1	14
542.305	1	2
542.645	1	3
542.985	1	10
543.325	1	0
543.665	1	2
544.005	1	6
544.345	1	8
544.685	1	1
545.025	1	-1
545.365	1	10
545.705	1	-13
546.045	1	1
546.386	1	9
546.726	1	-5
547.066	1	7
547.406	1	5
547.746	1	-9
548.086	1	3
548.426	1	-3
548.766	1	-3
549.106	1	-2
549.446	1	4
549.786	1	-10
550.126	1	9
550.466	1	-5
550.806	1	-5
551.146	1	1
551.486	1	-3
551.826	1	2
552.166	1	0
552.506	1	3
552.846	1	2
553.186	1	7
553.526	1	0
553.866	1	0
554.206	1	10
554.546	1	2
554.886	1	6
555.226	1	-8
555.566	1	11
555.906	1	5
556.246	1	0
556.586	1	-10
556.926	1	3
557.266	1	-5
557.606	1	1
557.946	1	-1
558.286	1	6
558.626	1	2
558.966	1	-1
559.306	1	-12
559.646	1	-7
559.986	1	3
560.325	1	-9
560.665	1	-5
561.005	1	-13
561.345	1	-1
561.685	1	0
562.025	1	9
562.365	1	-2
562.705	1	-5
563.045	1	-1
563.385	1	-9
563.725	1	6
564.064	1	-6
564.404	1	0
564.744	1	1
565.084	1	13
565.424	1	2
565.764	1	-10
566.104	1	5
566.444	1	3
566.783	1	2
567.123	1	6
567.463	1	3
567.803	1	-6
568.143	1	-2
568.483	1	0
568.823	1	8
569.162	1	1
569.502	1	0
569.842	1	-3
570.182	1	8
570.522	1	-8
570.862	1	-1
571.201	1	1
571.541	1	6
571.881	1	8
572.221	1	-6
572.561	1	-11
572.900	1	0
573.240	1	-4
573.580	1	-2
573.920	1	-2
574.260	1	11
574.599	1	0
574.939	1	1
575.279	1	6
575.619	1	5
575.959	1	-4
576.298	1	7
576.638	1	3
576.978	1	12
577.318	1	6
577.657	1	-8
577.997	1	1
578.337	1	7
578.677	1	4
579.016	1	7
579.356	1	-5
579.696	1	9
580.036	1	-5
580.375	1	12
580.715	1	-8
581.055	1	-5
581.394	1	-8
581.734	1	-1
582.074	1	0
582.414	1	2
582.753	1	-4
583.093	1	3
583.433	1	-2
583.772	1	-1
584.112	1	3
584.452	1	-4
584.791	1	-4
585.131	1	-4
585.471	1	6
585.811	1	6
586.150	1	-8
586.490	1	7
586.830	1	-13
587.169	1	7
587.509	1	1
587.849	1	5
588.188	1	11
588.528	1	10
588.867	1	11
589.207	1	1
589.547	1	4
589.886	1	-1
590.226	1	7
590.566	1	-7
590.905	1	6
591.245	1	-8
591.585	1	16
591.924	1	-4
592.264	1	2
592.603	1	9
592.943	1	0
593.283	1	-2
593.622	1	5
593.962	1	8
594.301	1	10
594.641	1	-4
594.981	1	-4
595.320	1	-2
595.660	1	-5
595.999	1	-7
596.339	1	5
596.678	1	-11
597.018	1	-1
597.358	1	2
597.697	1	-3
598.037	1	4
598.376	1	3
598.716	1	6
599.055	1	2
599.395	1	-4
599.734	1	-7
600.074	1	5
600.413	1	14
600.753	1	1
601.092	1	3
601.432	1	-5
601.771	1	0
602.111	1	0
602.451	1	12
602.790	1	-4
603.130	1	0
603.469	1	-9
603.809	1	3
604.148	1	8
604.487	1	3
604.827	1	10
605.166	1	11
605.506	1	9
605.845	1	-3
606.185	1	2
606.524	1	1
606.864	1	0
607.203	1	-7
607.543	1	2
607.882	1	10
608.222	1	7
608.561	1	7
608.901	1	4
609.240	1	-4
609.579	1	5
609.919	1	8
610.258	1	4
610.598	1	-2
610.937	1	4
611.277	1	-1
611.616	1	2
611.955	1	4
612.295	1	-7
612.634	1	-2
612.974	1	-10
613.313	1	9
613.652	1	6
613.992	1	2
614.331	1	3
614.671	1	-3
615.010	1	2
615.349	1	7
615.689	1	10
616.028	1	7
616.368	1	-4
616.707	1	1
617.046	1	-1
617.386	1	6
617.725	1	-4
618.064	1	0
618.404	1	-4
618.743	1	0
619.082	1	2
619.422	1	-4
619.761	1	7
620.100	1	-1
620.440	1	-1
620.779	1	-10
621.118	1	-7
621.458	1	-3
621.797	1	-5
622.136	1	3
622.476	1	-2
622.815	1	4
623.154	1	9
623.494	1	5
623.833	1	-1
624.172	1	-9
624.511	1	0
624.851	1	-7
625.190	1	0
625.529	1	-2
625.869	1	11
626.208	1	-10
626.547	1	-2
626.886	1	1
627.226	1	-5
627.565	1	2
627.904	1	-6
628.243	1	0
628.583	1	-3
628.922	1	4
629.261	1	2
629.600	1	8
629.940	1	8
630.279	1	-3
630.618	1	3
630.957	1	-3
631.297	1	1
631.636	1	-12
631.975	1	11
632.314	1	-4
632.653	1	-1
632.993	1	4
633.332	1	-1
633.671	1	-2
634.010	1	-8
634.349	1	1
634.689	1	-8
635.028	1	9
635.367	1	6
635.706	1	-4
636.045	1	7
636.384	1	-2
636.724	1	-5
637.063	1	-2
637.402	1	6
637.741	1	-3
638.080	1	-6
638.419	1	6
638.759	1	-5
639.098	1	7
639.437	1	2
639.776	1	-3
640.115	1	-4
640.454	1	-1
640.793	1	12
641.132	1	11
641.472	1	11
641.811	1	5
642.150	1	-9
642.489	1	-3
642.828	1	-3
643.167	1	-3
643.506	1	-8
643.845	1	-2
644.184	1	4
644.524	1	0
644.863	1	-8
645.202	1	4
645.541	1	-1
645.880	1	6
646.219	1	2
646.558	1	-3
646.897	1	0
647.236	1	5
647.575	1	0
647.914	1	-1
648.253	1	4
648.592	1	-4
648.931	1	11
649.270	1	2
649.610	1	1
649.949	1	-3
650.288	1	7
650.627	1	10
650.966	1	1
651.305	1	-3
651.644	1	5
651.983	1	-4
652.322	1	3
652.661	1	0
653.000	1	1
653.339	1	4
653.678	1	-5
654.017	1	-3
654.356	1	-2
654.695	1	0
655.034	1	-7
655.373	1	7
655.712	1	-8
656.051	1	2
656.390	1	2
656.729	1	9
657.068	1	-4
657.406	1	1
657.745	1	0
658.084	1	4
658.423	1	16
658.762	1	-8
659.101	1	11
659.440	1	-4
659.779	1	0
660.118	1	-7
660.457	1	7
660.796	1	-7
661.135	1	5
661.474	1	-9
661.813	1	12
662.152	1	5
662.491	1	-5
662.829	1	-2
663.168	1	5
663.507	1	2
663.846	1	3
664.185	1	6
664.524	1	1
664.863	1	0
665.202	1	-6
665.541	1	-13
665.879	1	-5
666.218	1	-8
666.557	1	4
666.896	1	-6
667.235	1	1
667.574	1	-2
667.913	1	7
668.251	1	-6
668.590	1	-1
668.929	1	-7
669.268	1	-8
669.607	1	6
669.946	1	3
670.285	1	10
670.623	1	-3
670.962	1	-3
671.301	1	-3
671.640	1	-2
671.979	1	-4
672.317	1	3
672.656	1	-7
672.995	1	7
673.334	1	-2
673.673	1	1
674.011	1	-6
674.350	1	10
674.689	1	8
675.028	1	-3
675.367	1	7
675.705	1	3
676.044	1	-1
676.383	1	-1
676.722	1	-8
677.060	1	3
677.399	1	-15
677.738	1	-7
678.077	1	7
678.416	1	1
678.754	1	2
679.093	1	2
679.432	1	-5
679.771	1	-9
680.109	1	16
680.448	1	2
680.787	1	-11
681.125	1	-4
681.464	1	1
681.803	1	1
682.142	1	10
682.480	1	10
682.819	1	-10
683.158	1	2
683.496	1	-1
683.835	1	-1
684.174	1	2
684.512	1	5
684.851	1	6
685.190	1	6
685.529	1	3
685.867	1	-5
686.206	1	-10
686.545	1	-12
686.883	1	5
687.222	1	11
687.561	1	6
687.899	1	-4
688.238	1	11
688.577	1	-3
688.746	1	5