File: Data/GaN_200K_800ms/GaN_sample F_spot 12_UVVIS_200 K_200um_800 ms 2x2mm1_8.txt
340.368	1	6
340.710	1	-11
341.052	1	14
341.394	1	-2
341.737	1	6
342.079	1	2
342.421	1	-9
342.763	1	7
343.105	1	11
343.447	1	0
343.789	1	0
344.131	1	2
344.473	1	-6
344.815	1	2
345.157	1	-10
345.499	1	0
345.841	1	6
346.183	1	-4
346.526	1	4
346.868	1	5
347.210	1	-10
347.552	1	-2
347.894	1	7
348.236	1	8
348.578	1	2
348.920	1	-4
349.262	1	-1
349.604	1	4
349.946	1	-5
350.288	1	4
350.630	1	0
350.972	1	8
351.314	1	-1
351.656	1	13
351.998	1	7
352.340	1	4
352.682	1	7
353.024	1	12
353.366	1	8
353.708	1	-6
354.050	1	-6
354.392	1	-2
354.734	1	8
355.076	1	11
355.418	1	-6
355.760	1	-12
356.102	1	11
356.444	1	4
356.785	1	5
357.127	1	-8
357.469	1	9
357.811	1	1
358.153	1	4
358.495	1	-2
358.837	1	-7
359.179	1	-3
359.521	1	11
359.863	1	-4
360.205	1	0
360.547	1	7
360.889	1	-6
361.231	1	-6
361.572	1	0
361.914	1	1
362.256	1	5
362.598	1	-1
362.940	1	-4
363.282	1	4
363.624	1	0
363.966	1	-6
364.308	1	-4
364.649	1	0
364.991	1	3
365.333	1	-4
365.675	1	-12
366.017	1	3
366.359	1	-7
366.701	1	-3
367.042	1	-2
367.384	1	7
367.726	1	6
368.068	1	0
368.410	1	8
368.752	1	1
369.093	1	-4
369.435	1	12
369.777	1	-9
370.119	1	-7
370.461	1	11
370.803	1	2
371.144	1	-2
371.486	1	5
371.828	1	-1
372.170	1	1
372.512	1	-11
372.853	1	0
373.195	1	7
373.537	1	-3
373.879	1	0
374.220	1	5
374.562	1	1
374.904	1	-6
375.246	1	4
375.588	1	0
375.929	1	4
376.271	1	7
376.613	1	1
376.955	1	-4
377.296	1	-3
377.638	1	5
377.980	1	2
378.321	1	-13
378.663	1	-1
379.005	1	9
379.347	1	1
379.688	1	1
380.030	1	-2
380.372	1	6
380.714	1	4
381.055	1	5
381.397	1	1
381.739	1	11
382.080	1	6
382.422	1	3
382.764	1	-2
383.105	1	-5
383.447	1	-8
383.789	1	1
384.130	1	3
384.472	1	-3
384.814	1	-4
385.156	1	1
385.497	1	0
385.839	1	-1
386.180	1	-3
386.522	1	8
386.864	1	5
387.205	1	-7
387.547	1	-5
387.889	1	-2
388.230	1	11
388.572	1	-8
388.914	1	4
389.255	1	-1
389.597	1	1
389.939	1	6
390.280	1	5
390.622	1	0
390.963	1	7
391.305	1	2
391.647	1	6
391.988	1	6
392.330	1	12
392.671	1	-6
393.013	1	-8
393.355	1	0
393.696	1	0
394.038	1	-1
394.379	1	-1
394.721	1	-10
395.062	1	-2
395.404	1	3
395.746	1	2
396.087	1	-4
396.429	1	7
396.770	1	1
397.112	1	3
397.453	1	8
397.795	1	-3
398.136	1	-4
398.478	1	6
398.819	1	5
399.161	1	4
399.503	1	-2
399.844	1	5
400.186	1	-2
400.527	1	3
400.869	1	3
401.210	1	2
401.552	1	-2
401.893	1	-5
402.235	1	6
402.576	1	-1
402.918	1	2
403.259	1	7
403.601	1	-10
403.942	1	13
404.284	1	16
404.625	1	9
404.967	1	8
405.308	1	9
405.649	1	4
405.991	1	-4
406.332	1	7
406.674	1	-7
407.015	1	6
407.357	1	-11
407.698	1	13
408.040	1	2
408.381	1	6
408.722	1	-15
409.064	1	-3
409.405	1	8
409.747	1	-1
410.088	1	2
410.430	1	11
410.771	1	1
411.112	1	-3
411.454	1	-11
411.795	1	-4
412.137	1	7
412.478	1	14
412.819	1	-3
413.161	1	-4
413.502	1	-4
413.844	1	4
414.185	1	4
414.526	1	-9
414.868	1	7
415.209	1	-7
415.550	1	-1
415.892	1	5
416.233	1	4
416.575	1	12
416.916	1	-2
417.257	1	8
417.599	1	0
417.940	1	5
418.281	1	6
418.623	1	-2
418.964	1	-3
419.305	1	1
419.647	1	-8
419.988	1	-7
420.329	1	-8
420.671	1	8
421.012	1	10
421.353	1	1
421.695	1	1
422.036	1	-3
422.377	1	-2
422.718	1	-1
423.060	1	-6
423.401	1	0
423.742	1	-2
424.084	1	-4
424.425	1	8
424.766	1	-6
425.107	1	-2
425.449	1	-8
425.790	1	-12
426.131	1	-6
426.472	1	0
426.814	1	1
427.155	1	-6
427.496	1	-1
427.837	1	-4
428.179	1	-5
428.520	1	9
428.861	1	-2
429.202	1	-10
429.544	1	-1
429.885	1	3
430.226	1	-6
430.567	1	1
430.909	1	6
431.250	1	-6
431.591	1	8
431.932	1	-1
432.273	1	4
432.615	1	-4
432.956	1	-10
433.297	1	3
433.638	1	2
433.979	1	5
434.320	1	4
434.662	1	-1
435.003	1	4
435.344	1	-5
435.685	1	1
436.026	1	3
436.368	1	-3
436.709	1	-2
437.050	1	-8
437.391	1	12
437.732	1	2
438.073	1	0
438.414	1	1
438.756	1	-5
439.097	1	-8
439.438	1	-7
439.779	1	3
440.120	1	4
440.461	1	5
440.802	1	-2
441.143	1	4
441.485	1	2
441.826	1	9
442.167	1	6
442.508	1	0
442.849	1	14
443.190	1	2
443.531	1	7
443.872	1	6
444.213	1	-6
444.554	1	11
444.895	1	-1
445.237	1	-6
445.578	1	-9
445.919	1	-6
446.260	1	1
446.601	1	0
446.942	1	2
447.283	1	-7
447.624	1	-7
447.965	1	-5
448.306	1	-1
448.647	1	-5
448.988	1	-4
449.329	1	5
449.670	1	4
450.011	1	5
450.352	1	0
450.693	1	-3
451.034	1	-12
451.375	1	-9
451.716	1	-3
452.057	1	4
452.398	1	0
452.739	1	11
453.080	1	-7
453.421	1	-3
453.762	1	-5
454.103	1	0
454.444	1	-9
454.785	1	-6
455.126	1	-3
455.467	1	-2
455.808	1	5
456.149	1	0
456.490	1	-3
456.831	1	4
457.172	1	-2
457.513	1	10
457.854	1	10
458.195	1	-1
458.536	1	3
458.877	1	0
459.218	1	4
459.559	1	0
459.899	1	3
460.240	1	2
460.581	1	15
460.922	1	-3
461.263	1	-6
461.604	1	-5
461.945	1	0
462.286	1	4
462.627	1	5
462.968	1	-2
463.309	1	-11
463.649	1	-7
463.990	1	-4
464.331	1	-1
464.672	1	0
465.013	1	-6
465.354	1	3
465.695	1	-1
466.036	1	-4
466.376	1	1
466.717	1	6
467.058	1	-5
467.399	1	12
467.740	1	-2
468.081	1	3
468.422	1	-6
468.762	1	-7
469.103	1	-16
469.444	1	-9
469.785	1	-15
470.126	1	-13
470.467	1	1
470.807	1	-1
471.148	1	6
471.489	1	2
471.830	1	3
472.171	1	1
472.511	1	-8
472.852	1	-2
473.193	1	-2
473.534	1	3
473.875	1	15
474.215	1	7
474.556	1	10
474.897	1	6
475.238	1	6
475.578	1	2
475.919	1	1
476.260	1	-2
476.601	1	2
476.942	1	8
477.282	1	0
477.623	1	-9
477.964	1	-4
478.305	1	-1
478.645	1	7
478.986	1	0
479.327	1	-7
479.667	1	-4
480.008	1	2
480.349	1	-10
480.690	1	-4
481.030	1	-4
481.371	1	1
481.712	1	4
482.053	1	1
482.393	1	3
482.734	1	-14
483.075	1	4
483.415	1	10
483.756	1	7
484.097	1	1
484.437	1	-10
484.778	1	-1
485.119	1	-7
485.459	1	12
485.800	1	3
486.141	1	-5
486.481	1	2
486.822	1	3
487.163	1	-2
487.503	1	-5
487.844	1	0
488.185	1	-2
488.525	1	-2
488.866	1	-6
489.207	1	-3
489.547	1	4
489.888	1	-10
490.228	1	4
490.569	1	23
490.910	1	7
491.250	1	-2
491.591	1	-8
491.932	1	6
492.272	1	-3
492.613	1	-3
492.953	1	-5
493.294	1	-3
493.635	1	-2
493.975	1	-1
494.316	1	9
494.656	1	-3
494.997	1	-4
495.337	1	10
495.678	1	0
496.019	1	-1
496.359	1	0
496.700	1	4
497.040	1	-6
497.381	1	-3
497.721	1	0
498.062	1	1
498.403	1	-2
498.743	1	5
499.084	1	0
499.424	1	2
499.765	1	-8
500.105	1	-2
500.446	1	-3
500.786	1	-11
501.127	1	2
501.467	1	-7
501.808	1	-2
502.148	1	2
502.489	1	6
502.829	1	-2
503.170	1	6
503.510	1	6
503.851	1	2
504.191	1	8
504.532	1	-1
504.872	1	5
505.213	1	10
505.553	1	-11
505.894	1	-12
506.234	1	5
506.575	1	4
506.915	1	3
507.256	1	5
507.596	1	1
507.936	1	2
508.277	1	-8
508.617	1	7
508.958	1	-16
509.298	1	-3
509.639	1	-9
509.979	1	-5
510.319	1	6
510.660	1	2
511.000	1	0
511.341	1	-5
511.681	1	7
512.022	1	-5
512.362	1	-3
512.702	1	3
513.043	1	1
513.383	1	1
513.724	1	0
514.064	1	8
514.404	1	-1
514.745	1	-1
515.085	1	-2
515.425	1	-6
515.766	1	-2
516.106	1	-3
516.447	1	15
516.787	1	5
517.127	1	-6
517.468	1	-10
517.808	1	-3
518.148	1	1
518.489	1	2
518.829	1	10
519.169	1	0
519.510	1	3
519.850	1	8
520.190	1	-2
520.531	1	2
520.871	1	8
521.211	1	-14
521.552	1	5
521.892	1	8
522.232	1	1
522.573	1	1
522.913	1	8
523.253	1	7
523.593	1	-8
523.934	1	-3
524.274	1	-1
524.614	1	-3
524.955	1	-9
525.295	1	0
525.635	1	-7
525.975	1	8
526.316	1	11
526.656	1	-3
526.996	1	3
527.337	1	-5
527.677	1	10
528.017	1	-11
528.357	1	-4
528.698	1	6
529.038	1	-5
529.378	1	5
529.718	1	12
530.058	1	-2
530.399	1	11
530.739	1	-5
531.079	1	11
531.419	1	-3
531.760	1	9
532.100	1	0
532.440	1	2
532.780	1	-5
533.120	1	3
533.461	1	4
533.801	1	3
534.141	1	-17
534.481	1	-13
534.821	1	-5
535.162	1	-6
535.502	1	-4
535.842	1	2
536.182	1	-7
536.522	1	-12
536.862	1	4
537.203	1	-9
537.543	1	0
537.883	1	-4
538.223	1	-3
538.563	1	7
538.903	1	-6
539.243	1	-3
539.584	1	-4
539.924	1	12
540.264	1	-9
540.604	1	0
540.944	1	1
541.284	1	10
541.624	1	-1
541.964	1	11
542.305	1	11
542.645	1	-3
542.985	1	-2
543.325	1	2
543.665	1	1
544.005	1	3
544.345	1	9
544.685	1	0
545.025	1	-5
545.365	1	0
545.705	1	0
546.045	1	-2
546.386	1	7
546.726	1	-6
547.066	1	3
547.406	1	-5
547.746	1	-8
548.086	1	-5
548.426	1	-3
548.766	1	13
549.106	1	1
549.446	1	5
549.786	1	-10
550.126	1	6
550.466	1	-2
550.806	1	-2
551.146	1	2
551.486	1	-2
551.826	1	-1
552.166	1	3
552.506	1	1
552.846	1	4
553.186	1	0
553.526	1	-2
553.866	1	4
554.206	1	0
554.546	1	-2
554.886	1	8
555.226	1	-12
555.566	1	-4
555.906	1	6
556.246	1	1
556.586	1	-4
556.926	1	12
557.266	1	-2
557.606	1	2
557.946	1	8
558.286	1	3
558.626	1	7
558.966	1	-8
559.306	1	10
559.646	1	-5
559.986	1	-2
560.325	1	-4
560.665	1	-1
561.005	1	-4
561.345	1	-3
561.685	1	-3
562.025	1	1
562.365	1	-1
562.705	1	0
563.045	1	-5
563.385	1	-5
563.725	1	7
564.064	1	0
564.404	1	-1
564.744	1	1
565.084	1	1
565.424	1	-10
565.764	1	1
566.104	1	-1
566.444	1	-5
566.783	1	-10
567.123	1	5
567.463	1	2
567.803	1	-13
568.143	1	0
568.483	1	7
568.823	1	-1
569.162	1	7
569.502	1	-8
569.842	1	3
570.182	1	-2
570.522	1	-10
570.862	1	-1
571.201	1	3
571.541	1	-2
571.881	1	12
572.221	1	-5
572.561	1	-4
572.900	1	-12
573.240	1	-9
573.580	1	-1
573.920	1	-1
574.260	1	9
574.599	1	-9
574.939	1	-2
575.279	1	4
575.619	1	3
575.959	1	-6
576.298	1	14
576.638	1	5
576.978	1	8
577.318	1	14
577.657	1	-11
577.997	1	-5
578.337	1	6
578.677	1	4
579.016	1	3
579.356	1	-6
579.696	1	2
580.036	1	1
580.375	1	1
580.715	1	0
581.055	1	2
581.394	1	-5
581.734	1	-12
582.074	1	0
582.414	1	8
582.753	1	7
583.093	1	-1
583.433	1	-4
583.772	1	7
584.112	1	1
584.452	1	12
584.791	1	-9
585.131	1	8
585.471	1	5
585.811	1	-3
586.150	1	-12
586.490	1	3
586.830	1	-1
587.169	1	0
587.509	1	-4
587.849	1	0
588.188	1	6
588.528	1	6
588.867	1	7
589.207	1	-2
589.547	1	2
589.886	1	-8
590.226	1	5
590.566	1	-7
590.905	1	1
591.245	1	2
591.585	1	11
591.924	1	5
592.264	1	3
592.603	1	4
592.943	1	6
593.283	1	-1
593.622	1	3
593.962	1	-4
594.301	1	10
594.641	1	-9
594.981	1	-7
595.320	1	0
595.660	1	2
595.999	1	-6
596.339	1	1
596.678	1	-3
597.018	1	-7
597.358	1	1
597.697	1	2
598.037	1	0
598.376	1	-5
598.716	1	12
599.055	1	4
599.395	1	1
599.734	1	6
600.074	1	-6
600.413	1	1
600.753	1	-3
601.092	1	7
601.432	1	-7
601.771	1	6
602.111	1	-3
602.451	1	4
602.790	1	8
603.130	1	5
603.469	1	-11
603.809	1	4
604.148	1	-6
604.487	1	-11
604.827	1	7
605.166	1	4
605.506	1	-1
605.845	1	3
606.185	1	3
606.524	1	-2
606.864	1	0
607.203	1	-2
607.543	1	-1
607.882	1	2
608.222	1	-1
608.561	1	0
608.901	1	2
609.240	1	-8
609.579	1	5
609.919	1	8
610.258	1	-4
610.598	1	0
610.937	1	3
611.277	1	-2
611.616	1	-1
611.955	1	-1
612.295	1	-2
612.634	1	9
612.974	1	-11
613.313	1	1
613.652	1	-4
613.992	1	-3
614.331	1	-3
614.671	1	3
615.010	1	-1
615.349	1	0
615.689	1	6
616.028	1	2
616.368	1	2
616.707	1	-3
617.046	1	-4
617.386	1	7
617.725	1	3
618.064	1	-8
618.404	1	-2
618.743	1	8
619.082	1	-2
619.422	1	-3
619.761	1	3
620.100	1	5
620.440	1	-4
620.779	1	-2
621.118	1	-1
621.458	1	0
621.797	1	4
622.136	1	12
622.476	1	8
622.815	1	7
623.154	1	4
623.494	1	10
623.833	1	8
624.172	1	3
624.511	1	-8
624.851	1	-6
625.190	1	-7
625.529	1	1
625.869	1	5
626.208	1	7
626.547	1	-1
626.886	1	3
627.226	1	1
627.565	1	-4
627.904	1	-3
628.243	1	4
628.583	1	-1
628.922	1	4
629.261	1	2
629.600	1	13
629.940	1	-6
630.279	1	-5
630.618	1	0
630.957	1	-1
631.297	1	8
631.636	1	-11
631.975	1	4
632.314	1	-6
632.653	1	-1
632.993	1	-5
633.332	1	2
633.671	1	0
634.010	1	-3
634.349	1	8
634.689	1	-6
635.028	1	5
635.367	1	5
635.706	1	1
636.045	1	11
636.384	1	4
636.724	1	-1
637.063	1	1
637.402	1	6
637.741	1	3
638.080	1	-9
638.419	1	-2
638.759	1	-7
639.098	1	5
639.437	1	0
639.776	1	-1
640.115	1	4
640.454	1	-11
640.793	1	10
641.132	1	12
641.472	1	1
641.811	1	1
642.150	1	-11
642.489	1	7
642.828	1	-7
643.167	1	-2
643.506	1	-6
643.845	1	-10
644.184	1	4
644.524	1	-3
644.863	1	-7
645.202	1	-8
645.541	1	6
645.880	1	-1
646.219	1	3
646.558	1	0
646.897	1	4
647.236	1	-8
647.575	1	2
647.914	1	-10
648.253	1	2
648.592	1	-8
648.931	1	7
649.270	1	1
649.610	1	4
649.949	1	-5
650.288	1	3
650.627	1	0
650.966	1	7
651.305	1	8
651.644	1	12
651.983	1	-3
652.322	1	-1
652.661	1	-4
653.000	1	2
653.339	1	7
653.678	1	-3
654.017	1	-2
654.356	1	1
654.695	1	5
655.034	1	4
655.373	1	1
655.712	1	6
656.051	1	2
656.390	1	-5
656.729	1	11
657.068	1	14
657.406	1	4
657.745	1	-6
658.084	1	8
658.423	1	13
658.762	1	4
659.101	1	5
659.440	1	2
659.779	1	2
660.118	1	8
660.457	1	1
660.796	1	-16
661.135	1	-6
661.474	1	2
661.813	1	5
662.152	1	5
662.491	1	1
662.829	1	-8
663.168	1	9
663.507	1	13
663.846	1	-8
664.185	1	-1
664.524	1	4
664.863	1	5
665.202	1	5
665.541	1	-10
665.879	1	-2
666.218	1	-2
666.557	1	1
666.896	1	0
667.235	1	1
667.574	1	-3
667.913	1	5
668.251	1	3
668.590	1	1
668.929	1	-9
669.268	1	-3
669.607	1	0
669.946	1	-1
670.285	1	0
670.623	1	-1
670.962	1	-7
671.301	1	-3
671.640	1	1
671.979	1	-6
672.317	1	-2
672.656	1	-6
672.995	1	10
673.334	1	0
673.673	1	-2
674.011	1	4
674.350	1	1
674.689	1	0
675.028	1	1
675.367	1	4
675.705	1	5
676.044	1	1
676.383	1	3
676.722	1	10
677.060	1	2
677.399	1	-5
677.738	1	5
678.077	1	10
678.416	1	5
678.754	1	-6
679.093	1	4
679.432	1	-2
679.771	1	5
680.109	1	2
680.448	1	-5
680.787	1	-11
681.125	1	2
681.464	1	6
681.803	1	-3
682.142	1	2
682.480	1	4
682.819	1	1
683.158	1	-1
683.496	1	2
683.835	1	-4
684.174	1	-12
684.512	1	5
684.851	1	-4
685.190	1	-2
685.529	1	3
685.867	1	-2
686.206	1	-1
686.545	1	-6
686.883	1	1
687.222	1	-3
687.561	1	3
687.899	1	-5
688.238	1	6
688.577	1	1
688.746	1	-1