File: Data/GaN_200K_800ms/GaN_sample F_spot 12_UVVIS_200 K_200um_800 ms 2x2mm1_263.txt
340.368	1	10
340.710	1	-11
341.052	1	8
341.394	1	-5
341.737	1	4
342.079	1	-8
342.421	1	2
342.763	1	7
343.105	1	2
343.447	1	-7
343.789	1	-7
344.131	1	-2
344.473	1	-1
344.815	1	2
345.157	1	-8
345.499	1	8
345.841	1	3
346.183	1	-5
346.526	1	1
346.868	1	1
347.210	1	-5
347.552	1	-12
347.894	1	-3
348.236	1	6
348.578	1	-3
348.920	1	1
349.262	1	-8
349.604	1	2
349.946	1	-6
350.288	1	10
350.630	1	4
350.972	1	-4
351.314	1	4
351.656	1	6
351.998	1	8
352.340	1	2
352.682	1	1
353.024	1	7
353.366	1	9
353.708	1	0
354.050	1	-7
354.392	1	-7
354.734	1	10
355.076	1	-2
355.418	1	-14
355.760	1	-2
356.102	1	13
356.444	1	3
356.785	1	1
357.127	1	-1
357.469	1	7
357.811	1	5
358.153	1	9
358.495	1	5
358.837	1	-5
359.179	1	-6
359.521	1	12
359.863	1	-1
360.205	1	7
360.547	1	11
360.889	1	-2
361.231	1	-3
361.572	1	8
361.914	1	6
362.256	1	3
362.598	1	1
362.940	1	1
363.282	1	7
363.624	1	20
363.966	1	-1
364.308	1	10
364.649	1	13
364.991	1	13
365.333	1	11
365.675	1	2
366.017	1	6
366.359	1	19
366.701	1	18
367.042	1	14
367.384	1	15
367.726	1	20
368.068	1	20
368.410	1	31
368.752	1	22
369.093	1	15
369.435	1	23
369.777	1	14
370.119	1	26
370.461	1	30
370.803	1	31
371.144	1	23
371.486	1	21
371.828	1	18
372.170	1	33
372.512	1	6
372.853	1	15
373.195	1	13
373.537	1	17
373.879	1	12
374.220	1	31
374.562	1	20
374.904	1	11
375.246	1	21
375.588	1	15
375.929	1	18
376.271	1	11
376.613	1	7
376.955	1	6
377.296	1	-2
377.638	1	8
377.980	1	11
378.321	1	0
378.663	1	6
379.005	1	22
379.347	1	6
379.688	1	12
380.030	1	3
380.372	1	3
380.714	1	10
381.055	1	11
381.397	1	6
381.739	1	12
382.080	1	8
382.422	1	5
382.764	1	5
383.105	1	-1
383.447	1	1
383.789	1	5
384.130	1	7
384.472	1	-1
384.814	1	-5
385.156	1	-5
385.497	1	11
385.839	1	2
386.180	1	-6
386.522	1	7
386.864	1	-1
387.205	1	-6
387.547	1	-3
387.889	1	9
388.230	1	14
388.572	1	0
388.914	1	3
389.255	1	-8
389.597	1	0
389.939	1	4
390.280	1	-5
390.622	1	-3
390.963	1	4
391.305	1	3
391.647	1	11
391.988	1	9
392.330	1	1
392.671	1	-3
393.013	1	-1
393.355	1	3
393.696	1	-4
394.038	1	8
394.379	1	-1
394.721	1	-9
395.062	1	1
395.404	1	-5
395.746	1	4
396.087	1	-4
396.429	1	17
396.770	1	-2
397.112	1	8
397.453	1	9
397.795	1	4
398.136	1	-6
398.478	1	0
398.819	1	8
399.161	1	11
399.503	1	-1
399.844	1	5
400.186	1	-2
400.527	1	6
400.869	1	0
401.210	1	-5
401.552	1	-2
401.893	1	-7
402.235	1	0
402.576	1	0
402.918	1	16
403.259	1	2
403.601	1	2
403.942	1	-2
404.284	1	20
404.625	1	12
404.967	1	8
405.308	1	2
405.649	1	1
405.991	1	-9
406.332	1	3
406.674	1	0
407.015	1	-3
407.357	1	-6
407.698	1	2
408.040	1	0
408.381	1	2
408.722	1	-14
409.064	1	0
409.405	1	7
409.747	1	-5
410.088	1	1
410.430	1	1
410.771	1	0
411.112	1	-7
411.454	1	-7
411.795	1	-17
412.137	1	10
412.478	1	9
412.819	1	3
413.161	1	-4
413.502	1	2
413.844	1	9
414.185	1	1
414.526	1	-4
414.868	1	2
415.209	1	3
415.550	1	-5
415.892	1	6
416.233	1	6
416.575	1	5
416.916	1	-8
417.257	1	-5
417.599	1	-3
417.940	1	-1
418.281	1	-2
418.623	1	0
418.964	1	-10
419.305	1	-1
419.647	1	3
419.988	1	-7
420.329	1	0
420.671	1	0
421.012	1	6
421.353	1	0
421.695	1	-7
422.036	1	7
422.377	1	3
422.718	1	11
423.060	1	-2
423.401	1	5
423.742	1	-4
424.084	1	6
424.425	1	0
424.766	1	4
425.107	1	2
425.449	1	-3
425.790	1	-8
426.131	1	5
426.472	1	1
426.814	1	3
427.155	1	-6
427.496	1	1
427.837	1	-3
428.179	1	-4
428.520	1	5
428.861	1	-2
429.202	1	-1
429.544	1	-5
429.885	1	6
430.226	1	-1
430.567	1	2
430.909	1	1
431.250	1	-1
431.591	1	7
431.932	1	-2
432.273	1	-8
432.615	1	-13
432.956	1	-9
433.297	1	0
433.638	1	-2
433.979	1	-3
434.320	1	7
434.662	1	-8
435.003	1	3
435.344	1	2
435.685	1	3
436.026	1	11
436.368	1	9
436.709	1	1
437.050	1	-2
437.391	1	3
437.732	1	-7
438.073	1	7
438.414	1	-6
438.756	1	2
439.097	1	-8
439.438	1	-7
439.779	1	0
440.120	1	-2
440.461	1	5
440.802	1	-6
441.143	1	13
441.485	1	0
441.826	1	10
442.167	1	3
442.508	1	-2
442.849	1	13
443.190	1	4
443.531	1	6
443.872	1	5
444.213	1	-2
444.554	1	14
444.895	1	-8
445.237	1	2
445.578	1	-9
445.919	1	-3
446.260	1	-5
446.601	1	2
446.942	1	7
447.283	1	-6
447.624	1	-4
447.965	1	4
448.306	1	-4
448.647	1	-11
448.988	1	0
449.329	1	-8
449.670	1	5
450.011	1	5
450.352	1	-3
450.693	1	5
451.034	1	1
451.375	1	0
451.716	1	-3
452.057	1	1
452.398	1	-3
452.739	1	7
453.080	1	-5
453.421	1	-9
453.762	1	-2
454.103	1	3
454.444	1	-4
454.785	1	-2
455.126	1	-13
455.467	1	1
455.808	1	-2
456.149	1	6
456.490	1	2
456.831	1	8
457.172	1	-3
457.513	1	-3
457.854	1	-8
458.195	1	-5
458.536	1	-2
458.877	1	-1
459.218	1	-10
459.559	1	6
459.899	1	6
460.240	1	5
460.581	1	17
460.922	1	8
461.263	1	-4
461.604	1	-5
461.945	1	4
462.286	1	-4
462.627	1	6
462.968	1	-6
463.309	1	-6
463.649	1	-5
463.990	1	-6
464.331	1	1
464.672	1	-7
465.013	1	-2
465.354	1	-4
465.695	1	-11
466.036	1	-3
466.376	1	-9
466.717	1	9
467.058	1	3
467.399	1	4
467.740	1	1
468.081	1	3
468.422	1	-9
468.762	1	-11
469.103	1	-5
469.444	1	2
469.785	1	-10
470.126	1	-11
470.467	1	-1
470.807	1	6
471.148	1	-1
471.489	1	-3
471.830	1	9
472.171	1	11
472.511	1	-6
472.852	1	3
473.193	1	8
473.534	1	1
473.875	1	6
474.215	1	1
474.556	1	-1
474.897	1	5
475.238	1	-12
475.578	1	-6
475.919	1	-3
476.260	1	-2
476.601	1	-2
476.942	1	7
477.282	1	1
477.623	1	-6
477.964	1	-6
478.305	1	-1
478.645	1	9
478.986	1	-2
479.327	1	-4
479.667	1	-1
480.008	1	3
480.349	1	-5
480.690	1	5
481.030	1	-8
481.371	1	-1
481.712	1	1
482.053	1	-9
482.393	1	-7
482.734	1	-4
483.075	1	-5
483.415	1	-1
483.756	1	10
484.097	1	4
484.437	1	3
484.778	1	2
485.119	1	-10
485.459	1	10
485.800	1	-3
486.141	1	-7
486.481	1	0
486.822	1	10
487.163	1	-1
487.503	1	-2
487.844	1	2
488.185	1	5
488.525	1	-2
488.866	1	0
489.207	1	-5
489.547	1	-8
489.888	1	-5
490.228	1	-2
490.569	1	9
490.910	1	1
491.250	1	1
491.591	1	-4
491.932	1	-3
492.272	1	-3
492.613	1	0
492.953	1	2
493.294	1	-6
493.635	1	8
493.975	1	-7
494.316	1	-2
494.656	1	0
494.997	1	-1
495.337	1	7
495.678	1	2
496.019	1	4
496.359	1	-6
496.700	1	1
497.040	1	3
497.381	1	0
497.721	1	-4
498.062	1	-3
498.403	1	7
498.743	1	6
499.084	1	-2
499.424	1	-5
499.765	1	1
500.105	1	-2
500.446	1	-10
500.786	1	-10
501.127	1	0
501.467	1	-6
501.808	1	2
502.148	1	6
502.489	1	4
502.829	1	-4
503.170	1	6
503.510	1	0
503.851	1	-1
504.191	1	12
504.532	1	4
504.872	1	-3
505.213	1	4
505.553	1	0
505.894	1	-6
506.234	1	2
506.575	1	2
506.915	1	-5
507.256	1	7
507.596	1	-2
507.936	1	5
508.277	1	-4
508.617	1	6
508.958	1	-8
509.298	1	6
509.639	1	-5
509.979	1	-6
510.319	1	2
510.660	1	-1
511.000	1	-8
511.341	1	-1
511.681	1	11
512.022	1	-5
512.362	1	-6
512.702	1	-3
513.043	1	0
513.383	1	-11
513.724	1	2
514.064	1	7
514.404	1	1
514.745	1	5
515.085	1	-5
515.425	1	-12
515.766	1	-7
516.106	1	-7
516.447	1	9
516.787	1	9
517.127	1	-5
517.468	1	9
517.808	1	-1
518.148	1	2
518.489	1	-10
518.829	1	11
519.169	1	3
519.510	1	10
519.850	1	8
520.190	1	-5
520.531	1	1
520.871	1	5
521.211	1	-7
521.552	1	10
521.892	1	2
522.232	1	5
522.573	1	3
522.913	1	5
523.253	1	7
523.593	1	0
523.934	1	2
524.274	1	11
524.614	1	5
524.955	1	-4
525.295	1	-4
525.635	1	-4
525.975	1	-2
526.316	1	13
526.656	1	-1
526.996	1	14
527.337	1	-10
527.677	1	3
528.017	1	-6
528.357	1	-2
528.698	1	2
529.038	1	2
529.378	1	11
529.718	1	2
530.058	1	8
530.399	1	9
530.739	1	2
531.079	1	4
531.419	1	3
531.760	1	5
532.100	1	0
532.440	1	8
532.780	1	-2
533.120	1	6
533.461	1	7
533.801	1	14
534.141	1	-11
534.481	1	-13
534.821	1	2
535.162	1	5
535.502	1	-3
535.842	1	9
536.182	1	-5
536.522	1	-12
536.862	1	0
537.203	1	-9
537.543	1	7
537.883	1	4
538.223	1	8
538.563	1	8
538.903	1	-2
539.243	1	4
539.584	1	-7
539.924	1	15
540.264	1	-14
540.604	1	-3
540.944	1	-1
541.284	1	5
541.624	1	4
541.964	1	10
542.305	1	8
542.645	1	4
542.985	1	6
543.325	1	0
543.665	1	5
544.005	1	13
544.345	1	10
544.685	1	1
545.025	1	6
545.365	1	1
545.705	1	-4
546.045	1	4
546.386	1	7
546.726	1	-9
547.066	1	2
547.406	1	5
547.746	1	-16
548.086	1	6
548.426	1	-7
548.766	1	-4
549.106	1	2
549.446	1	-1
549.786	1	6
550.126	1	8
550.466	1	2
550.806	1	-6
551.146	1	1
551.486	1	3
551.826	1	10
552.166	1	0
552.506	1	6
552.846	1	-2
553.186	1	6
553.526	1	0
553.866	1	6
554.206	1	11
554.546	1	-2
554.886	1	5
555.226	1	-4
555.566	1	9
555.906	1	17
556.246	1	3
556.586	1	-5
556.926	1	13
557.266	1	0
557.606	1	-8
557.946	1	14
558.286	1	8
558.626	1	6
558.966	1	4
559.306	1	-9
559.646	1	-5
559.986	1	-1
560.325	1	-3
560.665	1	5
561.005	1	-2
561.345	1	4
561.685	1	-2
562.025	1	3
562.365	1	1
562.705	1	-2
563.045	1	1
563.385	1	-16
563.725	1	3
564.064	1	-8
564.404	1	2
564.744	1	4
565.084	1	2
565.424	1	1
565.764	1	3
566.104	1	6
566.444	1	-3
566.783	1	-8
567.123	1	6
567.463	1	-2
567.803	1	-9
568.143	1	10
568.483	1	5
568.823	1	-2
569.162	1	7
569.502	1	0
569.842	1	14
570.182	1	0
570.522	1	-3
570.862	1	0
571.201	1	3
571.541	1	1
571.881	1	8
572.221	1	-1
572.561	1	2
572.900	1	-6
573.240	1	4
573.580	1	-1
573.920	1	8
574.260	1	6
574.599	1	-6
574.939	1	-2
575.279	1	7
575.619	1	11
575.959	1	-5
576.298	1	10
576.638	1	5
576.978	1	5
577.318	1	7
577.657	1	3
577.997	1	-1
578.337	1	10
578.677	1	7
579.016	1	21
579.356	1	-4
579.696	1	9
580.036	1	2
580.375	1	5
580.715	1	-3
581.055	1	-3
581.394	1	13
581.734	1	-6
582.074	1	-8
582.414	1	9
582.753	1	-1
583.093	1	0
583.433	1	6
583.772	1	8
584.112	1	6
584.452	1	5
584.791	1	-4
585.131	1	1
585.471	1	7
585.811	1	7
586.150	1	1
586.490	1	3
586.830	1	-1
587.169	1	1
587.509	1	1
587.849	1	-3
588.188	1	3
588.528	1	-4
588.867	1	11
589.207	1	4
589.547	1	1
589.886	1	4
590.226	1	10
590.566	1	0
590.905	1	0
591.245	1	-6
591.585	1	8
591.924	1	5
592.264	1	5
592.603	1	3
592.943	1	9
593.283	1	2
593.622	1	-2
593.962	1	8
594.301	1	12
594.641	1	0
594.981	1	-11
595.320	1	7
595.660	1	2
595.999	1	-5
596.339	1	10
596.678	1	-9
597.018	1	-10
597.358	1	0
597.697	1	3
598.037	1	-3
598.376	1	0
598.716	1	2
599.055	1	4
599.395	1	-4
599.734	1	8
600.074	1	4
600.413	1	8
600.753	1	7
601.092	1	8
601.432	1	-10
601.771	1	4
602.111	1	2
602.451	1	10
602.790	1	2
603.130	1	8
603.469	1	-4
603.809	1	-4
604.148	1	5
604.487	1	1
604.827	1	8
605.166	1	10
605.506	1	4
605.845	1	6
606.185	1	4
606.524	1	-4
606.864	1	3
607.203	1	-9
607.543	1	4
607.882	1	2
608.222	1	6
608.561	1	0
608.901	1	0
609.240	1	5
609.579	1	7
609.919	1	7
610.258	1	5
610.598	1	-3
610.937	1	3
611.277	1	0
611.616	1	1
611.955	1	-2
612.295	1	-4
612.634	1	-5
612.974	1	-10
613.313	1	4
613.652	1	-1
613.992	1	-2
614.331	1	-5
614.671	1	3
615.010	1	-11
615.349	1	1
615.689	1	12
616.028	1	-8
616.368	1	9
616.707	1	-5
617.046	1	-1
617.386	1	12
617.725	1	0
618.064	1	0
618.404	1	0
618.743	1	5
619.082	1	6
619.422	1	-9
619.761	1	4
620.100	1	4
620.440	1	8
620.779	1	-6
621.118	1	2
621.458	1	0
621.797	1	-6
622.136	1	10
622.476	1	-2
622.815	1	18
623.154	1	12
623.494	1	9
623.833	1	1
624.172	1	-4
624.511	1	2
624.851	1	-6
625.190	1	1
625.529	1	-2
625.869	1	4
626.208	1	5
626.547	1	1
626.886	1	10
627.226	1	3
627.565	1	2
627.904	1	-5
628.243	1	4
628.583	1	-2
628.922	1	0
629.261	1	6
629.600	1	-1
629.940	1	-1
630.279	1	-1
630.618	1	-7
630.957	1	-6
631.297	1	-1
631.636	1	-5
631.975	1	7
632.314	1	9
632.653	1	1
632.993	1	-5
633.332	1	-4
633.671	1	-3
634.010	1	-5
634.349	1	7
634.689	1	-2
635.028	1	2
635.367	1	-3
635.706	1	-4
636.045	1	10
636.384	1	-5
636.724	1	11
637.063	1	4
637.402	1	4
637.741	1	4
638.080	1	-5
638.419	1	5
638.759	1	-9
639.098	1	9
639.437	1	7
639.776	1	-1
640.115	1	-4
640.454	1	1
640.793	1	8
641.132	1	1
641.472	1	-1
641.811	1	-4
642.150	1	-10
642.489	1	9
642.828	1	-5
643.167	1	5
643.506	1	-8
643.845	1	-1
644.184	1	5
644.524	1	-8
644.863	1	-2
645.202	1	-3
645.541	1	6
645.880	1	3
646.219	1	1
646.558	1	-5
646.897	1	1
647.236	1	9
647.575	1	6
647.914	1	-3
648.253	1	7
648.592	1	-6
648.931	1	9
649.270	1	-2
649.610	1	1
649.949	1	-1
650.288	1	-3
650.627	1	2
650.966	1	9
651.305	1	-7
651.644	1	13
651.983	1	2
652.322	1	-7
652.661	1	-4
653.000	1	6
653.339	1	3
653.678	1	-1
654.017	1	3
654.356	1	-2
654.695	1	2
655.034	1	4
655.373	1	11
655.712	1	7
656.051	1	-7
656.390	1	0
656.729	1	5
657.068	1	0
657.406	1	15
657.745	1	-4
658.084	1	8
658.423	1	13
658.762	1	-2
659.101	1	8
659.440	1	1
659.779	1	2
660.118	1	-2
660.457	1	-2
660.796	1	-6
661.135	1	-5
661.474	1	0
661.813	1	14
662.152	1	7
662.491	1	-2
662.829	1	-1
663.168	1	6
663.507	1	10
663.846	1	-5
664.185	1	10
664.524	1	4
664.863	1	-5
665.202	1	-1
665.541	1	-7
665.879	1	-5
666.218	1	-7
666.557	1	-9
666.896	1	-7
667.235	1	10
667.574	1	-2
667.913	1	5
668.251	1	-4
668.590	1	2
668.929	1	-10
669.268	1	-6
669.607	1	-8
669.946	1	8
670.285	1	4
670.623	1	2
670.962	1	7
671.301	1	-10
671.640	1	6
671.979	1	-11
672.317	1	13
672.656	1	-5
672.995	1	8
673.334	1	-1
673.673	1	2
674.011	1	-4
674.350	1	8
674.689	1	1
675.028	1	0
675.367	1	3
675.705	1	6
676.044	1	4
676.383	1	2
676.722	1	5
677.060	1	-2
677.399	1	-1
677.738	1	3
678.077	1	8
678.416	1	7
678.754	1	-7
679.093	1	12
679.432	1	-4
679.771	1	-5
680.109	1	10
680.448	1	1
680.787	1	-4
681.125	1	9
681.464	1	-2
681.803	1	-4
682.142	1	4
682.480	1	5
682.819	1	8
683.158	1	-6
683.496	1	0
683.835	1	-3
684.174	1	-6
684.512	1	2
684.851	1	-4
685.190	1	-5
685.529	1	-5
685.867	1	-6
686.206	1	-6
686.545	1	-6
686.883	1	4
687.222	1	8
687.561	1	1
687.899	1	3
688.238	1	4
688.577	1	1
688.746	1	0