File: Data/GaN_200K_800ms/GaN_sample F_spot 12_UVVIS_200 K_200um_800 ms 2x2mm1_111.txt
340.368	1	4
340.710	1	-8
341.052	1	6
341.394	1	0
341.737	1	7
342.079	1	-1
342.421	1	1
342.763	1	9
343.105	1	1
343.447	1	4
343.789	1	3
344.131	1	0
344.473	1	7
344.815	1	0
345.157	1	-7
345.499	1	-2
345.841	1	17
346.183	1	-2
346.526	1	4
346.868	1	12
347.210	1	0
347.552	1	-3
347.894	1	4
348.236	1	16
348.578	1	-4
348.920	1	-2
349.262	1	0
349.604	1	-1
349.946	1	-3
350.288	1	10
350.630	1	10
350.972	1	1
351.314	1	7
351.656	1	6
351.998	1	12
352.340	1	6
352.682	1	20
353.024	1	13
353.366	1	11
353.708	1	10
354.050	1	-3
354.392	1	12
354.734	1	5
355.076	1	6
355.418	1	-5
355.760	1	6
356.102	1	13
356.444	1	6
356.785	1	8
357.127	1	5
357.469	1	6
357.811	1	8
358.153	1	20
358.495	1	12
358.837	1	9
359.179	1	13
359.521	1	21
359.863	1	11
360.205	1	6
360.547	1	15
360.889	1	19
361.231	1	16
361.572	1	23
361.914	1	26
362.256	1	27
362.598	1	12
362.940	1	24
363.282	1	26
363.624	1	44
363.966	1	35
364.308	1	37
364.649	1	44
364.991	1	50
365.333	1	49
365.675	1	48
366.017	1	54
366.359	1	67
366.701	1	65
367.042	1	66
367.384	1	66
367.726	1	79
368.068	1	75
368.410	1	101
368.752	1	75
369.093	1	83
369.435	1	82
369.777	1	75
370.119	1	80
370.461	1	80
370.803	1	76
371.144	1	75
371.486	1	70
371.828	1	80
372.170	1	80
372.512	1	66
372.853	1	65
373.195	1	57
373.537	1	64
373.879	1	65
374.220	1	75
374.562	1	55
374.904	1	50
375.246	1	55
375.588	1	47
375.929	1	55
376.271	1	51
376.613	1	39
376.955	1	32
377.296	1	40
377.638	1	36
377.980	1	42
378.321	1	27
378.663	1	34
379.005	1	32
379.347	1	29
379.688	1	20
380.030	1	28
380.372	1	26
380.714	1	35
381.055	1	29
381.397	1	17
381.739	1	35
382.080	1	34
382.422	1	23
382.764	1	17
383.105	1	17
383.447	1	20
383.789	1	11
384.130	1	12
384.472	1	23
384.814	1	11
385.156	1	10
385.497	1	22
385.839	1	19
386.180	1	27
386.522	1	20
386.864	1	21
387.205	1	4
387.547	1	13
387.889	1	0
388.230	1	16
388.572	1	9
388.914	1	6
389.255	1	4
389.597	1	8
389.939	1	16
390.280	1	14
390.622	1	14
390.963	1	22
391.305	1	14
391.647	1	6
391.988	1	12
392.330	1	7
392.671	1	7
393.013	1	11
393.355	1	23
393.696	1	14
394.038	1	9
394.379	1	12
394.721	1	-6
395.062	1	4
395.404	1	8
395.746	1	16
396.087	1	2
396.429	1	6
396.770	1	3
397.112	1	18
397.453	1	13
397.795	1	9
398.136	1	-6
398.478	1	7
398.819	1	9
399.161	1	8
399.503	1	3
399.844	1	7
400.186	1	5
400.527	1	1
400.869	1	5
401.210	1	3
401.552	1	-2
401.893	1	2
402.235	1	3
402.576	1	0
402.918	1	11
403.259	1	7
403.601	1	-4
403.942	1	13
404.284	1	18
404.625	1	11
404.967	1	3
405.308	1	13
405.649	1	17
405.991	1	-2
406.332	1	8
406.674	1	-3
407.015	1	3
407.357	1	3
407.698	1	8
408.040	1	6
408.381	1	2
408.722	1	-3
409.064	1	5
409.405	1	10
409.747	1	-4
410.088	1	3
410.430	1	17
410.771	1	16
411.112	1	1
411.454	1	-1
411.795	1	-5
412.137	1	8
412.478	1	18
412.819	1	-1
413.161	1	1
413.502	1	10
413.844	1	3
414.185	1	13
414.526	1	2
414.868	1	5
415.209	1	8
415.550	1	-9
415.892	1	5
416.233	1	8
416.575	1	21
416.916	1	-6
417.257	1	-5
417.599	1	5
417.940	1	16
418.281	1	9
418.623	1	5
418.964	1	-12
419.305	1	0
419.647	1	0
419.988	1	-1
420.329	1	6
420.671	1	5
421.012	1	2
421.353	1	0
421.695	1	5
422.036	1	3
422.377	1	2
422.718	1	3
423.060	1	-2
423.401	1	6
423.742	1	-1
424.084	1	6
424.425	1	-2
424.766	1	6
425.107	1	-1
425.449	1	17
425.790	1	-2
426.131	1	3
426.472	1	-2
426.814	1	7
427.155	1	0
427.496	1	-7
427.837	1	0
428.179	1	0
428.520	1	6
428.861	1	2
429.202	1	-4
429.544	1	-6
429.885	1	14
430.226	1	3
430.567	1	-2
430.909	1	7
431.250	1	2
431.591	1	4
431.932	1	1
432.273	1	-10
432.615	1	-8
432.956	1	-7
433.297	1	10
433.638	1	3
433.979	1	3
434.320	1	1
434.662	1	2
435.003	1	6
435.344	1	9
435.685	1	2
436.026	1	7
436.368	1	6
436.709	1	-2
437.050	1	5
437.391	1	4
437.732	1	-7
438.073	1	3
438.414	1	-2
438.756	1	-1
439.097	1	-1
439.438	1	6
439.779	1	7
440.120	1	-4
440.461	1	6
440.802	1	-5
441.143	1	8
441.485	1	4
441.826	1	-1
442.167	1	5
442.508	1	-1
442.849	1	15
443.190	1	4
443.531	1	6
443.872	1	6
444.213	1	-1
444.554	1	10
444.895	1	-7
445.237	1	2
445.578	1	-14
445.919	1	2
446.260	1	1
446.601	1	-4
446.942	1	2
447.283	1	-7
447.624	1	1
447.965	1	-2
448.306	1	3
448.647	1	0
448.988	1	-4
449.329	1	-5
449.670	1	8
450.011	1	13
450.352	1	-1
450.693	1	0
451.034	1	-1
451.375	1	-4
451.716	1	1
452.057	1	8
452.398	1	3
452.739	1	4
453.080	1	-8
453.421	1	-4
453.762	1	2
454.103	1	5
454.444	1	-2
454.785	1	1
455.126	1	-4
455.467	1	1
455.808	1	7
456.149	1	-3
456.490	1	1
456.831	1	-9
457.172	1	-9
457.513	1	3
457.854	1	7
458.195	1	5
458.536	1	-6
458.877	1	6
459.218	1	5
459.559	1	17
459.899	1	0
460.240	1	-2
460.581	1	8
460.922	1	6
461.263	1	2
461.604	1	-1
461.945	1	-9
462.286	1	3
462.627	1	13
462.968	1	-1
463.309	1	-9
463.649	1	-1
463.990	1	-6
464.331	1	-4
464.672	1	5
465.013	1	4
465.354	1	-3
465.695	1	2
466.036	1	4
466.376	1	4
466.717	1	7
467.058	1	3
467.399	1	4
467.740	1	0
468.081	1	5
468.422	1	-3
468.762	1	-10
469.103	1	-4
469.444	1	6
469.785	1	-10
470.126	1	-1
470.467	1	-3
470.807	1	8
471.148	1	8
471.489	1	4
471.830	1	-4
472.171	1	7
472.511	1	2
472.852	1	0
473.193	1	7
473.534	1	7
473.875	1	16
474.215	1	7
474.556	1	6
474.897	1	1
475.238	1	2
475.578	1	-2
475.919	1	-5
476.260	1	9
476.601	1	-1
476.942	1	11
477.282	1	-4
477.623	1	-3
477.964	1	-13
478.305	1	-3
478.645	1	12
478.986	1	7
479.327	1	-11
479.667	1	3
480.008	1	-2
480.349	1	-10
480.690	1	3
481.030	1	-1
481.371	1	10
481.712	1	-4
482.053	1	6
482.393	1	2
482.734	1	-2
483.075	1	-5
483.415	1	1
483.756	1	2
484.097	1	3
484.437	1	0
484.778	1	11
485.119	1	1
485.459	1	16
485.800	1	3
486.141	1	2
486.481	1	6
486.822	1	2
487.163	1	6
487.503	1	2
487.844	1	-4
488.185	1	5
488.525	1	5
488.866	1	1
489.207	1	5
489.547	1	0
489.888	1	-4
490.228	1	13
490.569	1	8
490.910	1	-5
491.250	1	-4
491.591	1	-7
491.932	1	5
492.272	1	6
492.613	1	8
492.953	1	4
493.294	1	-2
493.635	1	5
493.975	1	6
494.316	1	13
494.656	1	2
494.997	1	6
495.337	1	9
495.678	1	5
496.019	1	-2
496.359	1	5
496.700	1	0
497.040	1	-9
497.381	1	-3
497.721	1	-2
498.062	1	-1
498.403	1	3
498.743	1	-3
499.084	1	-2
499.424	1	2
499.765	1	10
500.105	1	3
500.446	1	6
500.786	1	8
501.127	1	7
501.467	1	5
501.808	1	10
502.148	1	10
502.489	1	5
502.829	1	-2
503.170	1	12
503.510	1	12
503.851	1	-4
504.191	1	5
504.532	1	6
504.872	1	8
505.213	1	5
505.553	1	0
505.894	1	6
506.234	1	9
506.575	1	6
506.915	1	5
507.256	1	5
507.596	1	7
507.936	1	11
508.277	1	9
508.617	1	5
508.958	1	-1
509.298	1	11
509.639	1	-3
509.979	1	1
510.319	1	0
510.660	1	10
511.000	1	-6
511.341	1	7
511.681	1	10
512.022	1	1
512.362	1	7
512.702	1	12
513.043	1	11
513.383	1	-1
513.724	1	9
514.064	1	4
514.404	1	-2
514.745	1	0
515.085	1	5
515.425	1	1
515.766	1	-6
516.106	1	7
516.447	1	11
516.787	1	11
517.127	1	3
517.468	1	8
517.808	1	-2
518.148	1	-4
518.489	1	2
518.829	1	18
519.169	1	15
519.510	1	8
519.850	1	7
520.190	1	-8
520.531	1	4
520.871	1	15
521.211	1	-6
521.552	1	17
521.892	1	4
522.232	1	1
522.573	1	3
522.913	1	0
523.253	1	8
523.593	1	4
523.934	1	6
524.274	1	9
524.614	1	-8
524.955	1	5
525.295	1	10
525.635	1	14
525.975	1	4
526.316	1	15
526.656	1	1
526.996	1	11
527.337	1	9
527.677	1	-4
528.017	1	-2
528.357	1	10
528.698	1	13
529.038	1	10
529.378	1	10
529.718	1	9
530.058	1	7
530.399	1	13
530.739	1	10
531.079	1	9
531.419	1	8
531.760	1	16
532.100	1	3
532.440	1	10
532.780	1	-1
533.120	1	13
533.461	1	12
533.801	1	20
534.141	1	-7
534.481	1	1
534.821	1	16
535.162	1	10
535.502	1	5
535.842	1	13
536.182	1	4
536.522	1	6
536.862	1	11
537.203	1	-2
537.543	1	5
537.883	1	8
538.223	1	11
538.563	1	11
538.903	1	2
539.243	1	-2
539.584	1	1
539.924	1	13
540.264	1	6
540.604	1	5
540.944	1	6
541.284	1	12
541.624	1	10
541.964	1	14
542.305	1	12
542.645	1	11
542.985	1	20
543.325	1	10
543.665	1	19
544.005	1	11
544.345	1	17
544.685	1	8
545.025	1	6
545.365	1	6
545.705	1	1
546.045	1	2
546.386	1	19
546.726	1	1
547.066	1	12
547.406	1	9
547.746	1	0
548.086	1	4
548.426	1	2
548.766	1	3
549.106	1	4
549.446	1	4
549.786	1	8
550.126	1	13
550.466	1	14
550.806	1	11
551.146	1	6
551.486	1	9
551.826	1	12
552.166	1	15
552.506	1	11
552.846	1	6
553.186	1	18
553.526	1	10
553.866	1	10
554.206	1	14
554.546	1	10
554.886	1	8
555.226	1	1
555.566	1	17
555.906	1	11
556.246	1	4
556.586	1	3
556.926	1	5
557.266	1	9
557.606	1	5
557.946	1	20
558.286	1	10
558.626	1	10
558.966	1	4
559.306	1	4
559.646	1	13
559.986	1	4
560.325	1	8
560.665	1	6
561.005	1	10
561.345	1	10
561.685	1	9
562.025	1	-2
562.365	1	10
562.705	1	3
563.045	1	4
563.385	1	5
563.725	1	5
564.064	1	12
564.404	1	11
564.744	1	11
565.084	1	8
565.424	1	9
565.764	1	4
566.104	1	3
566.444	1	12
566.783	1	5
567.123	1	3
567.463	1	13
567.803	1	7
568.143	1	12
568.483	1	12
568.823	1	9
569.162	1	10
569.502	1	3
569.842	1	14
570.182	1	10
570.522	1	-1
570.862	1	6
571.201	1	5
571.541	1	10
571.881	1	15
572.221	1	-4
572.561	1	1
572.900	1	3
573.240	1	11
573.580	1	14
573.920	1	13
574.260	1	18
574.599	1	5
574.939	1	9
575.279	1	21
575.619	1	14
575.959	1	7
576.298	1	24
576.638	1	7
576.978	1	16
577.318	1	15
577.657	1	10
577.997	1	4
578.337	1	18
578.677	1	16
579.016	1	25
579.356	1	3
579.696	1	10
580.036	1	2
580.375	1	10
580.715	1	9
581.055	1	9
581.394	1	2
581.734	1	0
582.074	1	9
582.414	1	14
582.753	1	2
583.093	1	5
583.433	1	4
583.772	1	8
584.112	1	0
584.452	1	10
584.791	1	4
585.131	1	8
585.471	1	14
585.811	1	22
586.150	1	6
586.490	1	15
586.830	1	4
587.169	1	10
587.509	1	9
587.849	1	15
588.188	1	14
588.528	1	6
588.867	1	8
589.207	1	4
589.547	1	9
589.886	1	10
590.226	1	8
590.566	1	4
590.905	1	4
591.245	1	9
591.585	1	13
591.924	1	11
592.264	1	8
592.603	1	12
592.943	1	12
593.283	1	8
593.622	1	3
593.962	1	5
594.301	1	16
594.641	1	5
594.981	1	-1
595.320	1	3
595.660	1	14
595.999	1	-2
596.339	1	20
596.678	1	3
597.018	1	-3
597.358	1	10
597.697	1	16
598.037	1	-3
598.376	1	7
598.716	1	7
599.055	1	14
599.395	1	8
599.734	1	9
600.074	1	10
600.413	1	14
600.753	1	14
601.092	1	18
601.432	1	-3
601.771	1	15
602.111	1	8
602.451	1	4
602.790	1	4
603.130	1	18
603.469	1	-5
603.809	1	15
604.148	1	17
604.487	1	8
604.827	1	9
605.166	1	6
605.506	1	12
605.845	1	9
606.185	1	8
606.524	1	7
606.864	1	6
607.203	1	3
607.543	1	9
607.882	1	10
608.222	1	10
608.561	1	5
608.901	1	14
609.240	1	-5
609.579	1	10
609.919	1	9
610.258	1	11
610.598	1	2
610.937	1	10
611.277	1	4
611.616	1	-1
611.955	1	8
612.295	1	-1
612.634	1	10
612.974	1	1
613.313	1	18
613.652	1	3
613.992	1	4
614.331	1	1
614.671	1	1
615.010	1	0
615.349	1	8
615.689	1	18
616.028	1	5
616.368	1	16
616.707	1	8
617.046	1	10
617.386	1	-1
617.725	1	11
618.064	1	-3
618.404	1	7
618.743	1	4
619.082	1	8
619.422	1	0
619.761	1	9
620.100	1	4
620.440	1	0
620.779	1	-2
621.118	1	8
621.458	1	7
621.797	1	6
622.136	1	15
622.476	1	8
622.815	1	15
623.154	1	16
623.494	1	14
623.833	1	17
624.172	1	-1
624.511	1	-1
624.851	1	-1
625.190	1	8
625.529	1	4
625.869	1	7
626.208	1	-6
626.547	1	2
626.886	1	3
627.226	1	12
627.565	1	9
627.904	1	-1
628.243	1	11
628.583	1	5
628.922	1	4
629.261	1	9
629.600	1	11
629.940	1	12
630.279	1	-6
630.618	1	3
630.957	1	1
631.297	1	10
631.636	1	-5
631.975	1	15
632.314	1	-1
632.653	1	5
632.993	1	6
633.332	1	5
633.671	1	-3
634.010	1	-2
634.349	1	14
634.689	1	4
635.028	1	9
635.367	1	5
635.706	1	8
636.045	1	18
636.384	1	-1
636.724	1	6
637.063	1	5
637.402	1	0
637.741	1	13
638.080	1	0
638.419	1	1
638.759	1	1
639.098	1	17
639.437	1	-1
639.776	1	3
640.115	1	2
640.454	1	3
640.793	1	16
641.132	1	11
641.472	1	13
641.811	1	3
642.150	1	-4
642.489	1	1
642.828	1	-7
643.167	1	-8
643.506	1	-1
643.845	1	9
644.184	1	11
644.524	1	7
644.863	1	-4
645.202	1	1
645.541	1	4
645.880	1	6
646.219	1	4
646.558	1	2
646.897	1	-1
647.236	1	-2
647.575	1	13
647.914	1	0
648.253	1	16
648.592	1	-1
648.931	1	8
649.270	1	-4
649.610	1	1
649.949	1	3
650.288	1	7
650.627	1	-3
650.966	1	20
651.305	1	4
651.644	1	16
651.983	1	6
652.322	1	6
652.661	1	-5
653.000	1	4
653.339	1	8
653.678	1	1
654.017	1	2
654.356	1	-3
654.695	1	12
655.034	1	10
655.373	1	11
655.712	1	8
656.051	1	8
656.390	1	-3
656.729	1	12
657.068	1	11
657.406	1	9
657.745	1	-6
658.084	1	3
658.423	1	5
658.762	1	9
659.101	1	13
659.440	1	-2
659.779	1	12
660.118	1	2
660.457	1	-1
660.796	1	-1
661.135	1	-7
661.474	1	3
661.813	1	14
662.152	1	10
662.491	1	1
662.829	1	-8
663.168	1	4
663.507	1	13
663.846	1	-2
664.185	1	4
664.524	1	1
664.863	1	-5
665.202	1	8
665.541	1	-4
665.879	1	5
666.218	1	-8
666.557	1	9
666.896	1	-1
667.235	1	6
667.574	1	-1
667.913	1	9
668.251	1	-1
668.590	1	-8
668.929	1	-9
669.268	1	9
669.607	1	4
669.946	1	1
670.285	1	9
670.623	1	2
670.962	1	1
671.301	1	5
671.640	1	12
671.979	1	3
672.317	1	1
672.656	1	-3
672.995	1	6
673.334	1	5
673.673	1	12
674.011	1	11
674.350	1	-2
674.689	1	-5
675.028	1	6
675.367	1	8
675.705	1	10
676.044	1	3
676.383	1	8
676.722	1	6
677.060	1	1
677.399	1	-4
677.738	1	6
678.077	1	7
678.416	1	6
678.754	1	-2
679.093	1	16
679.432	1	4
679.771	1	8
680.109	1	20
680.448	1	6
680.787	1	3
681.125	1	4
681.464	1	0
681.803	1	1
682.142	1	9
682.480	1	13
682.819	1	-4
683.158	1	-2
683.496	1	9
683.835	1	6
684.174	1	-5
684.512	1	18
684.851	1	7
685.190	1	-1
685.529	1	12
685.867	1	3
686.206	1	1
686.545	1	-1
686.883	1	-6
687.222	1	12
687.561	1	13
687.899	1	12
688.238	1	12
688.577	1	10
688.746	1	13