File: Data/GaN_200K_800ms/GaN_sample F_spot 12_UVVIS_200 K_200um_800 ms 2x2mm1_471.txt
340.368	1	-1
340.710	1	-11
341.052	1	6
341.394	1	0
341.737	1	11
342.079	1	0
342.421	1	-8
342.763	1	3
343.105	1	3
343.447	1	-6
343.789	1	-8
344.131	1	-3
344.473	1	-5
344.815	1	-7
345.157	1	-1
345.499	1	-5
345.841	1	2
346.183	1	-12
346.526	1	-6
346.868	1	3
347.210	1	-8
347.552	1	-4
347.894	1	-1
348.236	1	-1
348.578	1	-5
348.920	1	-6
349.262	1	-3
349.604	1	-4
349.946	1	-11
350.288	1	3
350.630	1	4
350.972	1	-6
351.314	1	-4
351.656	1	6
351.998	1	8
352.340	1	10
352.682	1	2
353.024	1	4
353.366	1	4
353.708	1	1
354.050	1	-2
354.392	1	-9
354.734	1	7
355.076	1	4
355.418	1	-12
355.760	1	-8
356.102	1	14
356.444	1	1
356.785	1	8
357.127	1	-5
357.469	1	10
357.811	1	0
358.153	1	1
358.495	1	0
358.837	1	-5
359.179	1	1
359.521	1	4
359.863	1	0
360.205	1	-11
360.547	1	8
360.889	1	-10
361.231	1	1
361.572	1	5
361.914	1	-4
362.256	1	-2
362.598	1	3
362.940	1	-3
363.282	1	9
363.624	1	10
363.966	1	4
364.308	1	1
364.649	1	9
364.991	1	12
365.333	1	0
365.675	1	-2
366.017	1	3
366.359	1	-2
366.701	1	6
367.042	1	11
367.384	1	18
367.726	1	2
368.068	1	11
368.410	1	16
368.752	1	4
369.093	1	2
369.435	1	18
369.777	1	4
370.119	1	8
370.461	1	18
370.803	1	13
371.144	1	0
371.486	1	4
371.828	1	11
372.170	1	9
372.512	1	1
372.853	1	6
373.195	1	8
373.537	1	10
373.879	1	1
374.220	1	23
374.562	1	11
374.904	1	-2
375.246	1	7
375.588	1	-1
375.929	1	8
376.271	1	16
376.613	1	-1
376.955	1	-2
377.296	1	-1
377.638	1	9
377.980	1	0
378.321	1	-5
378.663	1	-1
379.005	1	8
379.347	1	6
379.688	1	3
380.030	1	-6
380.372	1	3
380.714	1	1
381.055	1	15
381.397	1	0
381.739	1	14
382.080	1	6
382.422	1	0
382.764	1	-4
383.105	1	-8
383.447	1	3
383.789	1	-8
384.130	1	0
384.472	1	-5
384.814	1	-1
385.156	1	-10
385.497	1	1
385.839	1	-7
386.180	1	-2
386.522	1	2
386.864	1	1
387.205	1	-3
387.547	1	-7
387.889	1	5
388.230	1	8
388.572	1	-6
388.914	1	-1
389.255	1	-6
389.597	1	6
389.939	1	3
390.280	1	-7
390.622	1	-8
390.963	1	7
391.305	1	-5
391.647	1	-5
391.988	1	1
392.330	1	-1
392.671	1	-1
393.013	1	-7
393.355	1	-1
393.696	1	3
394.038	1	4
394.379	1	0
394.721	1	-4
395.062	1	3
395.404	1	-8
395.746	1	4
396.087	1	4
396.429	1	-4
396.770	1	-4
397.112	1	4
397.453	1	14
397.795	1	-3
398.136	1	-11
398.478	1	-3
398.819	1	-5
399.161	1	7
399.503	1	0
399.844	1	3
400.186	1	-5
400.527	1	-9
400.869	1	-7
401.210	1	3
401.552	1	-9
401.893	1	5
402.235	1	-5
402.576	1	-5
402.918	1	8
403.259	1	2
403.601	1	-1
403.942	1	8
404.284	1	-1
404.625	1	1
404.967	1	-1
405.308	1	2
405.649	1	-6
405.991	1	-10
406.332	1	3
406.674	1	-6
407.015	1	2
407.357	1	2
407.698	1	5
408.040	1	-7
408.381	1	-3
408.722	1	-12
409.064	1	-1
409.405	1	-6
409.747	1	-3
410.088	1	-6
410.430	1	-2
410.771	1	6
411.112	1	2
411.454	1	-3
411.795	1	-6
412.137	1	5
412.478	1	17
412.819	1	1
413.161	1	-6
413.502	1	-1
413.844	1	-3
414.185	1	2
414.526	1	0
414.868	1	-11
415.209	1	-4
415.550	1	-7
415.892	1	-3
416.233	1	5
416.575	1	12
416.916	1	-8
417.257	1	7
417.599	1	-1
417.940	1	14
418.281	1	6
418.623	1	0
418.964	1	-23
419.305	1	0
419.647	1	-2
419.988	1	-5
420.329	1	-7
420.671	1	-3
421.012	1	-2
421.353	1	-5
421.695	1	-6
422.036	1	-3
422.377	1	0
422.718	1	7
423.060	1	-3
423.401	1	5
423.742	1	4
424.084	1	1
424.425	1	1
424.766	1	-6
425.107	1	1
425.449	1	-4
425.790	1	0
426.131	1	3
426.472	1	5
426.814	1	6
427.155	1	0
427.496	1	-5
427.837	1	-5
428.179	1	-11
428.520	1	0
428.861	1	-5
429.202	1	-3
429.544	1	0
429.885	1	1
430.226	1	-12
430.567	1	-3
430.909	1	4
431.250	1	-13
431.591	1	2
431.932	1	-4
432.273	1	-3
432.615	1	-10
432.956	1	-11
433.297	1	0
433.638	1	-14
433.979	1	5
434.320	1	1
434.662	1	3
435.003	1	2
435.344	1	-4
435.685	1	2
436.026	1	6
436.368	1	2
436.709	1	-5
437.050	1	0
437.391	1	7
437.732	1	-3
438.073	1	-1
438.414	1	-11
438.756	1	-4
439.097	1	-3
439.438	1	-14
439.779	1	2
440.120	1	-8
440.461	1	0
440.802	1	-1
441.143	1	5
441.485	1	7
441.826	1	3
442.167	1	3
442.508	1	-8
442.849	1	10
443.190	1	-1
443.531	1	12
443.872	1	5
444.213	1	2
444.554	1	19
444.895	1	-4
445.237	1	-9
445.578	1	-12
445.919	1	-14
446.260	1	-2
446.601	1	-9
446.942	1	-4
447.283	1	-7
447.624	1	-1
447.965	1	-6
448.306	1	5
448.647	1	-4
448.988	1	-10
449.329	1	-2
449.670	1	3
450.011	1	2
450.352	1	-2
450.693	1	-1
451.034	1	-2
451.375	1	4
451.716	1	-6
452.057	1	0
452.398	1	9
452.739	1	2
453.080	1	3
453.421	1	1
453.762	1	1
454.103	1	1
454.444	1	-9
454.785	1	-9
455.126	1	-14
455.467	1	-1
455.808	1	3
456.149	1	5
456.490	1	2
456.831	1	4
457.172	1	-8
457.513	1	10
457.854	1	-8
458.195	1	-7
458.536	1	1
458.877	1	5
459.218	1	-1
459.559	1	4
459.899	1	-2
460.240	1	3
460.581	1	14
460.922	1	1
461.263	1	-8
461.604	1	4
461.945	1	-3
462.286	1	-3
462.627	1	5
462.968	1	-3
463.309	1	-5
463.649	1	-5
463.990	1	-4
464.331	1	-2
464.672	1	-10
465.013	1	-3
465.354	1	4
465.695	1	-3
466.036	1	-2
466.376	1	-3
466.717	1	-2
467.058	1	-5
467.399	1	5
467.740	1	-1
468.081	1	1
468.422	1	-8
468.762	1	-7
469.103	1	-3
469.444	1	-11
469.785	1	-20
470.126	1	-5
470.467	1	-10
470.807	1	2
471.148	1	-4
471.489	1	3
471.830	1	4
472.171	1	4
472.511	1	-16
472.852	1	-12
473.193	1	2
473.534	1	5
473.875	1	10
474.215	1	6
474.556	1	-5
474.897	1	1
475.238	1	-8
475.578	1	-13
475.919	1	-1
476.260	1	-6
476.601	1	1
476.942	1	-1
477.282	1	1
477.623	1	-24
477.964	1	1
478.305	1	-4
478.645	1	7
478.986	1	-8
479.327	1	-14
479.667	1	3
480.008	1	-9
480.349	1	-1
480.690	1	-4
481.030	1	-6
481.371	1	0
481.712	1	2
482.053	1	-1
482.393	1	-1
482.734	1	-5
483.075	1	-1
483.415	1	0
483.756	1	5
484.097	1	4
484.437	1	1
484.778	1	-5
485.119	1	-4
485.459	1	16
485.800	1	2
486.141	1	-1
486.481	1	-3
486.822	1	10
487.163	1	-7
487.503	1	-2
487.844	1	2
488.185	1	3
488.525	1	-5
488.866	1	10
489.207	1	-4
489.547	1	-14
489.888	1	-5
490.228	1	2
490.569	1	10
490.910	1	-6
491.250	1	-12
491.591	1	-6
491.932	1	1
492.272	1	-6
492.613	1	-13
492.953	1	-3
493.294	1	-6
493.635	1	1
493.975	1	-1
494.316	1	9
494.656	1	-1
494.997	1	-2
495.337	1	13
495.678	1	2
496.019	1	-9
496.359	1	-2
496.700	1	1
497.040	1	-11
497.381	1	-4
497.721	1	-5
498.062	1	3
498.403	1	-4
498.743	1	-6
499.084	1	-8
499.424	1	0
499.765	1	1
500.105	1	-7
500.446	1	-20
500.786	1	-8
501.127	1	-2
501.467	1	-9
501.808	1	2
502.148	1	4
502.489	1	-7
502.829	1	-2
503.170	1	5
503.510	1	5
503.851	1	-7
504.191	1	-3
504.532	1	12
504.872	1	-1
505.213	1	3
505.553	1	-5
505.894	1	-9
506.234	1	2
506.575	1	-2
506.915	1	-2
507.256	1	3
507.596	1	-4
507.936	1	-6
508.277	1	2
508.617	1	-6
508.958	1	-9
509.298	1	2
509.639	1	-10
509.979	1	0
510.319	1	-5
510.660	1	10
511.000	1	-4
511.341	1	3
511.681	1	3
512.022	1	-9
512.362	1	-3
512.702	1	2
513.043	1	-1
513.383	1	-14
513.724	1	0
514.064	1	2
514.404	1	-3
514.745	1	-8
515.085	1	-9
515.425	1	-11
515.766	1	-9
516.106	1	-3
516.447	1	12
516.787	1	11
517.127	1	0
517.468	1	-4
517.808	1	0
518.148	1	0
518.489	1	-13
518.829	1	4
519.169	1	4
519.510	1	5
519.850	1	-2
520.190	1	3
520.531	1	5
520.871	1	-3
521.211	1	-12
521.552	1	9
521.892	1	4
522.232	1	0
522.573	1	-3
522.913	1	1
523.253	1	2
523.593	1	-13
523.934	1	3
524.274	1	1
524.614	1	-6
524.955	1	-9
525.295	1	-3
525.635	1	-5
525.975	1	0
526.316	1	8
526.656	1	0
526.996	1	7
527.337	1	-1
527.677	1	-2
528.017	1	-6
528.357	1	7
528.698	1	1
529.038	1	-1
529.378	1	1
529.718	1	6
530.058	1	-3
530.399	1	12
530.739	1	1
531.079	1	0
531.419	1	0
531.760	1	4
532.100	1	-4
532.440	1	0
532.780	1	-8
533.120	1	0
533.461	1	1
533.801	1	12
534.141	1	-9
534.481	1	-12
534.821	1	2
535.162	1	-3
535.502	1	-5
535.842	1	6
536.182	1	-4
536.522	1	-2
536.862	1	-1
537.203	1	-4
537.543	1	3
537.883	1	0
538.223	1	0
538.563	1	2
538.903	1	0
539.243	1	-6
539.584	1	-7
539.924	1	1
540.264	1	-8
540.604	1	-2
540.944	1	-3
541.284	1	0
541.624	1	4
541.964	1	9
542.305	1	7
542.645	1	-1
542.985	1	4
543.325	1	5
543.665	1	7
544.005	1	9
544.345	1	0
544.685	1	-12
545.025	1	-7
545.365	1	-2
545.705	1	0
546.045	1	-4
546.386	1	0
546.726	1	-9
547.066	1	0
547.406	1	5
547.746	1	-12
548.086	1	7
548.426	1	-5
548.766	1	-2
549.106	1	5
549.446	1	-6
549.786	1	-1
550.126	1	8
550.466	1	-3
550.806	1	3
551.146	1	-1
551.486	1	5
551.826	1	-1
552.166	1	-3
552.506	1	6
552.846	1	-1
553.186	1	8
553.526	1	-6
553.866	1	2
554.206	1	8
554.546	1	12
554.886	1	2
555.226	1	-8
555.566	1	2
555.906	1	4
556.246	1	9
556.586	1	-8
556.926	1	3
557.266	1	-6
557.606	1	9
557.946	1	12
558.286	1	2
558.626	1	7
558.966	1	3
559.306	1	-5
559.646	1	-4
559.986	1	0
560.325	1	-5
560.665	1	-2
561.005	1	-9
561.345	1	-3
561.685	1	12
562.025	1	1
562.365	1	3
562.705	1	-2
563.045	1	-2
563.385	1	-13
563.725	1	-5
564.064	1	-5
564.404	1	3
564.744	1	5
565.084	1	2
565.424	1	-1
565.764	1	0
566.104	1	-9
566.444	1	-6
566.783	1	-2
567.123	1	-2
567.463	1	2
567.803	1	-8
568.143	1	-1
568.483	1	1
568.823	1	5
569.162	1	9
569.502	1	-1
569.842	1	2
570.182	1	-3
570.522	1	-9
570.862	1	1
571.201	1	-1
571.541	1	0
571.881	1	4
572.221	1	-4
572.561	1	-4
572.900	1	-7
573.240	1	6
573.580	1	11
573.920	1	0
574.260	1	6
574.599	1	12
574.939	1	7
575.279	1	10
575.619	1	-5
575.959	1	-1
576.298	1	16
576.638	1	-9
576.978	1	7
577.318	1	6
577.657	1	-15
577.997	1	-4
578.337	1	3
578.677	1	0
579.016	1	7
579.356	1	-7
579.696	1	4
580.036	1	1
580.375	1	-4
580.715	1	-4
581.055	1	-13
581.394	1	-7
581.734	1	-8
582.074	1	-3
582.414	1	13
582.753	1	-10
583.093	1	-4
583.433	1	-12
583.772	1	5
584.112	1	-3
584.452	1	-1
584.791	1	-13
585.131	1	1
585.471	1	6
585.811	1	12
586.150	1	3
586.490	1	-1
586.830	1	-4
587.169	1	6
587.509	1	5
587.849	1	1
588.188	1	2
588.528	1	8
588.867	1	5
589.207	1	-1
589.547	1	-3
589.886	1	-4
590.226	1	6
590.566	1	-5
590.905	1	-2
591.245	1	-3
591.585	1	-1
591.924	1	-3
592.264	1	-1
592.603	1	3
592.943	1	4
593.283	1	-4
593.622	1	3
593.962	1	12
594.301	1	6
594.641	1	-5
594.981	1	-9
595.320	1	-4
595.660	1	-5
595.999	1	-13
596.339	1	5
596.678	1	-9
597.018	1	0
597.358	1	3
597.697	1	-1
598.037	1	-3
598.376	1	6
598.716	1	16
599.055	1	2
599.395	1	-2
599.734	1	2
600.074	1	0
600.413	1	4
600.753	1	-8
601.092	1	15
601.432	1	-7
601.771	1	0
602.111	1	0
602.451	1	6
602.790	1	-2
603.130	1	4
603.469	1	-7
603.809	1	-3
604.148	1	1
604.487	1	-5
604.827	1	2
605.166	1	0
605.506	1	0
605.845	1	-1
606.185	1	4
606.524	1	-5
606.864	1	3
607.203	1	-5
607.543	1	2
607.882	1	3
608.222	1	-3
608.561	1	-1
608.901	1	9
609.240	1	0
609.579	1	2
609.919	1	8
610.258	1	12
610.598	1	13
610.937	1	-1
611.277	1	-3
611.616	1	1
611.955	1	-11
612.295	1	-4
612.634	1	0
612.974	1	-15
613.313	1	5
613.652	1	-1
613.992	1	-9
614.331	1	0
614.671	1	-2
615.010	1	-10
615.349	1	5
615.689	1	8
616.028	1	-4
616.368	1	8
616.707	1	3
617.046	1	-3
617.386	1	-7
617.725	1	-1
618.064	1	-3
618.404	1	-5
618.743	1	-1
619.082	1	4
619.422	1	-12
619.761	1	1
620.100	1	4
620.440	1	0
620.779	1	-9
621.118	1	-5
621.458	1	-6
621.797	1	-8
622.136	1	7
622.476	1	10
622.815	1	7
623.154	1	1
623.494	1	5
623.833	1	7
624.172	1	-11
624.511	1	-7
624.851	1	-5
625.190	1	-3
625.529	1	0
625.869	1	3
626.208	1	8
626.547	1	-3
626.886	1	-5
627.226	1	4
627.565	1	5
627.904	1	-3
628.243	1	1
628.583	1	-6
628.922	1	3
629.261	1	1
629.600	1	-1
629.940	1	0
630.279	1	-8
630.618	1	-5
630.957	1	4
631.297	1	0
631.636	1	-14
631.975	1	8
632.314	1	-1
632.653	1	2
632.993	1	-8
633.332	1	1
633.671	1	-3
634.010	1	-5
634.349	1	11
634.689	1	-4
635.028	1	6
635.367	1	-6
635.706	1	5
636.045	1	18
636.384	1	4
636.724	1	1
637.063	1	-3
637.402	1	0
637.741	1	-3
638.080	1	1
638.419	1	-8
638.759	1	4
639.098	1	9
639.437	1	1
639.776	1	-7
640.115	1	-4
640.454	1	-9
640.793	1	4
641.132	1	3
641.472	1	3
641.811	1	1
642.150	1	-6
642.489	1	0
642.828	1	-8
643.167	1	0
643.506	1	-9
643.845	1	2
644.184	1	0
644.524	1	1
644.863	1	-1
645.202	1	-2
645.541	1	-2
645.880	1	0
646.219	1	0
646.558	1	0
646.897	1	-1
647.236	1	2
647.575	1	1
647.914	1	0
648.253	1	4
648.592	1	-2
648.931	1	3
649.270	1	1
649.610	1	2
649.949	1	8
650.288	1	2
650.627	1	2
650.966	1	-2
651.305	1	2
651.644	1	8
651.983	1	9
652.322	1	-2
652.661	1	-5
653.000	1	-5
653.339	1	2
653.678	1	-3
654.017	1	-4
654.356	1	4
654.695	1	2
655.034	1	7
655.373	1	10
655.712	1	-1
656.051	1	-10
656.390	1	-3
656.729	1	14
657.068	1	0
657.406	1	5
657.745	1	-10
658.084	1	3
658.423	1	11
658.762	1	-11
659.101	1	2
659.440	1	-7
659.779	1	6
660.118	1	-5
660.457	1	-1
660.796	1	-9
661.135	1	-6
661.474	1	-1
661.813	1	6
662.152	1	5
662.491	1	-4
662.829	1	-9
663.168	1	0
663.507	1	5
663.846	1	-9
664.185	1	4
664.524	1	6
664.863	1	-1
665.202	1	6
665.541	1	-13
665.879	1	2
666.218	1	-8
666.557	1	5
666.896	1	-7
667.235	1	4
667.574	1	-2
667.913	1	1
668.251	1	-7
668.590	1	7
668.929	1	-16
669.268	1	-2
669.607	1	-9
669.946	1	1
670.285	1	0
670.623	1	2
670.962	1	4
671.301	1	-4
671.640	1	6
671.979	1	0
672.317	1	-11
672.656	1	1
672.995	1	9
673.334	1	-2
673.673	1	0
674.011	1	1
674.350	1	3
674.689	1	2
675.028	1	-7
675.367	1	6
675.705	1	6
676.044	1	2
676.383	1	-5
676.722	1	4
677.060	1	-6
677.399	1	-11
677.738	1	10
678.077	1	0
678.416	1	3
678.754	1	1
679.093	1	8
679.432	1	4
679.771	1	-4
680.109	1	6
680.448	1	4
680.787	1	-12
681.125	1	1
681.464	1	-3
681.803	1	-1
682.142	1	4
682.480	1	11
682.819	1	-8
683.158	1	-5
683.496	1	-1
683.835	1	0
684.174	1	-2
684.512	1	0
684.851	1	-3
685.190	1	-3
685.529	1	-6
685.867	1	0
686.206	1	0
686.545	1	-12
686.883	1	-7
687.222	1	1
687.561	1	12
687.899	1	1
688.238	1	5
688.577	1	4
688.746	1	-5