File: Data/GaN_200K_800ms/GaN_sample F_spot 12_UVVIS_200 K_200um_800 ms 2x2mm1_168.txt
340.368	1	6
340.710	1	-10
341.052	1	16
341.394	1	-4
341.737	1	4
342.079	1	-10
342.421	1	7
342.763	1	8
343.105	1	12
343.447	1	-4
343.789	1	0
344.131	1	-2
344.473	1	-2
344.815	1	-1
345.157	1	-6
345.499	1	6
345.841	1	11
346.183	1	-7
346.526	1	-8
346.868	1	13
347.210	1	-7
347.552	1	-1
347.894	1	7
348.236	1	9
348.578	1	0
348.920	1	3
349.262	1	-3
349.604	1	0
349.946	1	-1
350.288	1	3
350.630	1	12
350.972	1	2
351.314	1	3
351.656	1	9
351.998	1	15
352.340	1	5
352.682	1	5
353.024	1	14
353.366	1	10
353.708	1	11
354.050	1	-3
354.392	1	-7
354.734	1	0
355.076	1	7
355.418	1	-14
355.760	1	10
356.102	1	15
356.444	1	11
356.785	1	8
357.127	1	8
357.469	1	13
357.811	1	4
358.153	1	14
358.495	1	12
358.837	1	-4
359.179	1	4
359.521	1	9
359.863	1	10
360.205	1	4
360.547	1	10
360.889	1	0
361.231	1	8
361.572	1	18
361.914	1	14
362.256	1	9
362.598	1	2
362.940	1	15
363.282	1	20
363.624	1	22
363.966	1	17
364.308	1	12
364.649	1	18
364.991	1	23
365.333	1	21
365.675	1	24
366.017	1	38
366.359	1	30
366.701	1	33
367.042	1	38
367.384	1	53
367.726	1	41
368.068	1	42
368.410	1	56
368.752	1	42
369.093	1	34
369.435	1	46
369.777	1	51
370.119	1	44
370.461	1	55
370.803	1	50
371.144	1	33
371.486	1	50
371.828	1	44
372.170	1	42
372.512	1	36
372.853	1	29
373.195	1	35
373.537	1	31
373.879	1	26
374.220	1	47
374.562	1	30
374.904	1	30
375.246	1	27
375.588	1	27
375.929	1	26
376.271	1	32
376.613	1	6
376.955	1	10
377.296	1	19
377.638	1	30
377.980	1	16
378.321	1	15
378.663	1	7
379.005	1	32
379.347	1	17
379.688	1	22
380.030	1	10
380.372	1	22
380.714	1	17
381.055	1	21
381.397	1	15
381.739	1	15
382.080	1	13
382.422	1	13
382.764	1	5
383.105	1	4
383.447	1	6
383.789	1	2
384.130	1	13
384.472	1	8
384.814	1	11
385.156	1	5
385.497	1	10
385.839	1	1
386.180	1	5
386.522	1	12
386.864	1	6
387.205	1	-6
387.547	1	1
387.889	1	-5
388.230	1	17
388.572	1	7
388.914	1	0
389.255	1	0
389.597	1	7
389.939	1	14
390.280	1	2
390.622	1	-2
390.963	1	10
391.305	1	8
391.647	1	6
391.988	1	12
392.330	1	13
392.671	1	2
393.013	1	-1
393.355	1	2
393.696	1	2
394.038	1	12
394.379	1	-2
394.721	1	1
395.062	1	11
395.404	1	3
395.746	1	9
396.087	1	2
396.429	1	3
396.770	1	11
397.112	1	12
397.453	1	2
397.795	1	4
398.136	1	4
398.478	1	0
398.819	1	2
399.161	1	13
399.503	1	8
399.844	1	10
400.186	1	12
400.527	1	-5
400.869	1	4
401.210	1	-4
401.552	1	-3
401.893	1	-2
402.235	1	9
402.576	1	-4
402.918	1	9
403.259	1	10
403.601	1	-2
403.942	1	8
404.284	1	17
404.625	1	12
404.967	1	7
405.308	1	5
405.649	1	0
405.991	1	3
406.332	1	5
406.674	1	-7
407.015	1	4
407.357	1	3
407.698	1	3
408.040	1	-4
408.381	1	8
408.722	1	-19
409.064	1	2
409.405	1	8
409.747	1	-1
410.088	1	4
410.430	1	12
410.771	1	7
411.112	1	0
411.454	1	-6
411.795	1	-7
412.137	1	4
412.478	1	13
412.819	1	0
413.161	1	-4
413.502	1	-2
413.844	1	9
414.185	1	1
414.526	1	5
414.868	1	3
415.209	1	-2
415.550	1	-8
415.892	1	5
416.233	1	0
416.575	1	11
416.916	1	-3
417.257	1	7
417.599	1	8
417.940	1	5
418.281	1	8
418.623	1	-2
418.964	1	-8
419.305	1	-5
419.647	1	-5
419.988	1	-8
420.329	1	-4
420.671	1	6
421.012	1	6
421.353	1	-10
421.695	1	-3
422.036	1	6
422.377	1	-7
422.718	1	13
423.060	1	-4
423.401	1	4
423.742	1	-2
424.084	1	3
424.425	1	8
424.766	1	4
425.107	1	-4
425.449	1	5
425.790	1	-11
426.131	1	7
426.472	1	3
426.814	1	4
427.155	1	-8
427.496	1	0
427.837	1	-6
428.179	1	1
428.520	1	1
428.861	1	2
429.202	1	5
429.544	1	-1
429.885	1	7
430.226	1	-3
430.567	1	4
430.909	1	-3
431.250	1	1
431.591	1	7
431.932	1	1
432.273	1	5
432.615	1	-2
432.956	1	-4
433.297	1	5
433.638	1	-4
433.979	1	6
434.320	1	4
434.662	1	-8
435.003	1	5
435.344	1	0
435.685	1	3
436.026	1	3
436.368	1	2
436.709	1	-3
437.050	1	1
437.391	1	15
437.732	1	-7
438.073	1	0
438.414	1	-7
438.756	1	-6
439.097	1	-4
439.438	1	-1
439.779	1	5
440.120	1	2
440.461	1	0
440.802	1	-5
441.143	1	6
441.485	1	-1
441.826	1	-1
442.167	1	0
442.508	1	-8
442.849	1	9
443.190	1	-2
443.531	1	-1
443.872	1	6
444.213	1	2
444.554	1	13
444.895	1	-2
445.237	1	-13
445.578	1	-3
445.919	1	-13
446.260	1	2
446.601	1	3
446.942	1	2
447.283	1	5
447.624	1	9
447.965	1	0
448.306	1	0
448.647	1	-1
448.988	1	-7
449.329	1	6
449.670	1	12
450.011	1	7
450.352	1	-1
450.693	1	-2
451.034	1	-8
451.375	1	3
451.716	1	6
452.057	1	1
452.398	1	1
452.739	1	1
453.080	1	2
453.421	1	4
453.762	1	3
454.103	1	-3
454.444	1	-7
454.785	1	-3
455.126	1	-5
455.467	1	-2
455.808	1	3
456.149	1	6
456.490	1	5
456.831	1	6
457.172	1	-4
457.513	1	0
457.854	1	-3
458.195	1	-2
458.536	1	3
458.877	1	-1
459.218	1	2
459.559	1	6
459.899	1	2
460.240	1	-2
460.581	1	17
460.922	1	1
461.263	1	-3
461.604	1	4
461.945	1	4
462.286	1	2
462.627	1	6
462.968	1	1
463.309	1	-6
463.649	1	-1
463.990	1	-8
464.331	1	-1
464.672	1	4
465.013	1	0
465.354	1	-1
465.695	1	-2
466.036	1	-1
466.376	1	-11
466.717	1	-2
467.058	1	0
467.399	1	9
467.740	1	3
468.081	1	-1
468.422	1	-9
468.762	1	-6
469.103	1	-7
469.444	1	-10
469.785	1	-12
470.126	1	-7
470.467	1	2
470.807	1	-4
471.148	1	10
471.489	1	0
471.830	1	3
472.171	1	4
472.511	1	3
472.852	1	1
473.193	1	6
473.534	1	12
473.875	1	13
474.215	1	12
474.556	1	8
474.897	1	-3
475.238	1	-1
475.578	1	-8
475.919	1	3
476.260	1	-3
476.601	1	7
476.942	1	8
477.282	1	1
477.623	1	-11
477.964	1	2
478.305	1	-3
478.645	1	12
478.986	1	-6
479.327	1	-11
479.667	1	1
480.008	1	7
480.349	1	-3
480.690	1	-8
481.030	1	-11
481.371	1	0
481.712	1	4
482.053	1	1
482.393	1	1
482.734	1	-9
483.075	1	-1
483.415	1	2
483.756	1	2
484.097	1	7
484.437	1	-2
484.778	1	1
485.119	1	-5
485.459	1	16
485.800	1	-3
486.141	1	-5
486.481	1	4
486.822	1	6
487.163	1	-3
487.503	1	4
487.844	1	2
488.185	1	-3
488.525	1	-3
488.866	1	3
489.207	1	6
489.547	1	-5
489.888	1	0
490.228	1	-2
490.569	1	21
490.910	1	2
491.250	1	0
491.591	1	-7
491.932	1	3
492.272	1	8
492.613	1	-11
492.953	1	6
493.294	1	-4
493.635	1	6
493.975	1	-1
494.316	1	6
494.656	1	1
494.997	1	2
495.337	1	6
495.678	1	6
496.019	1	3
496.359	1	-7
496.700	1	6
497.040	1	-5
497.381	1	7
497.721	1	-8
498.062	1	4
498.403	1	7
498.743	1	2
499.084	1	-3
499.424	1	4
499.765	1	-3
500.105	1	6
500.446	1	-4
500.786	1	-3
501.127	1	8
501.467	1	-5
501.808	1	4
502.148	1	1
502.489	1	5
502.829	1	3
503.170	1	10
503.510	1	13
503.851	1	5
504.191	1	2
504.532	1	11
504.872	1	5
505.213	1	9
505.553	1	-7
505.894	1	-6
506.234	1	8
506.575	1	10
506.915	1	7
507.256	1	9
507.596	1	8
507.936	1	-1
508.277	1	-3
508.617	1	0
508.958	1	-15
509.298	1	3
509.639	1	-2
509.979	1	7
510.319	1	5
510.660	1	-9
511.000	1	-2
511.341	1	3
511.681	1	10
512.022	1	-7
512.362	1	-7
512.702	1	-2
513.043	1	7
513.383	1	-12
513.724	1	8
514.064	1	11
514.404	1	-3
514.745	1	0
515.085	1	0
515.425	1	9
515.766	1	-13
516.106	1	0
516.447	1	14
516.787	1	4
517.127	1	3
517.468	1	3
517.808	1	3
518.148	1	5
518.489	1	5
518.829	1	2
519.169	1	-7
519.510	1	2
519.850	1	3
520.190	1	5
520.531	1	10
520.871	1	8
521.211	1	-5
521.552	1	13
521.892	1	6
522.232	1	6
522.573	1	7
522.913	1	-3
523.253	1	6
523.593	1	-1
523.934	1	-5
524.274	1	12
524.614	1	0
524.955	1	5
525.295	1	7
525.635	1	3
525.975	1	10
526.316	1	10
526.656	1	-2
526.996	1	8
527.337	1	5
527.677	1	8
528.017	1	0
528.357	1	4
528.698	1	6
529.038	1	4
529.378	1	7
529.718	1	4
530.058	1	6
530.399	1	12
530.739	1	8
531.079	1	7
531.419	1	3
531.760	1	9
532.100	1	11
532.440	1	-3
532.780	1	5
533.120	1	4
533.461	1	3
533.801	1	22
534.141	1	-1
534.481	1	-1
534.821	1	2
535.162	1	-2
535.502	1	-2
535.842	1	11
536.182	1	11
536.522	1	-1
536.862	1	5
537.203	1	3
537.543	1	7
537.883	1	1
538.223	1	0
538.563	1	15
538.903	1	-9
539.243	1	10
539.584	1	4
539.924	1	12
540.264	1	-4
540.604	1	8
540.944	1	-4
541.284	1	8
541.624	1	11
541.964	1	8
542.305	1	12
542.645	1	13
542.985	1	6
543.325	1	7
543.665	1	0
544.005	1	18
544.345	1	2
544.685	1	6
545.025	1	14
545.365	1	-1
545.705	1	9
546.045	1	2
546.386	1	5
546.726	1	-7
547.066	1	7
547.406	1	12
547.746	1	6
548.086	1	6
548.426	1	-2
548.766	1	7
549.106	1	0
549.446	1	-1
549.786	1	-9
550.126	1	16
550.466	1	5
550.806	1	5
551.146	1	4
551.486	1	1
551.826	1	15
552.166	1	8
552.506	1	16
552.846	1	2
553.186	1	8
553.526	1	3
553.866	1	3
554.206	1	12
554.546	1	10
554.886	1	4
555.226	1	-1
555.566	1	7
555.906	1	11
556.246	1	12
556.586	1	-4
556.926	1	1
557.266	1	9
557.606	1	8
557.946	1	17
558.286	1	13
558.626	1	7
558.966	1	8
559.306	1	8
559.646	1	5
559.986	1	8
560.325	1	-1
560.665	1	1
561.005	1	2
561.345	1	8
561.685	1	6
562.025	1	-2
562.365	1	8
562.705	1	5
563.045	1	1
563.385	1	-6
563.725	1	11
564.064	1	10
564.404	1	11
564.744	1	0
565.084	1	8
565.424	1	7
565.764	1	8
566.104	1	3
566.444	1	-11
566.783	1	-1
567.123	1	13
567.463	1	13
567.803	1	0
568.143	1	2
568.483	1	13
568.823	1	1
569.162	1	11
569.502	1	11
569.842	1	6
570.182	1	7
570.522	1	-7
570.862	1	0
571.201	1	8
571.541	1	18
571.881	1	14
572.221	1	-7
572.561	1	5
572.900	1	6
573.240	1	12
573.580	1	6
573.920	1	7
574.260	1	5
574.599	1	10
574.939	1	13
575.279	1	13
575.619	1	-1
575.959	1	-1
576.298	1	17
576.638	1	4
576.978	1	7
577.318	1	5
577.657	1	0
577.997	1	0
578.337	1	16
578.677	1	15
579.016	1	11
579.356	1	9
579.696	1	10
580.036	1	2
580.375	1	13
580.715	1	-1
581.055	1	9
581.394	1	2
581.734	1	3
582.074	1	0
582.414	1	6
582.753	1	3
583.093	1	5
583.433	1	7
583.772	1	8
584.112	1	9
584.452	1	-3
584.791	1	6
585.131	1	10
585.471	1	15
585.811	1	8
586.150	1	1
586.490	1	9
586.830	1	3
587.169	1	13
587.509	1	8
587.849	1	11
588.188	1	12
588.528	1	11
588.867	1	10
589.207	1	3
589.547	1	5
589.886	1	1
590.226	1	15
590.566	1	2
590.905	1	5
591.245	1	-5
591.585	1	3
591.924	1	6
592.264	1	11
592.603	1	11
592.943	1	-3
593.283	1	-1
593.622	1	-1
593.962	1	8
594.301	1	16
594.641	1	3
594.981	1	5
595.320	1	9
595.660	1	10
595.999	1	2
596.339	1	6
596.678	1	0
597.018	1	0
597.358	1	5
597.697	1	2
598.037	1	1
598.376	1	2
598.716	1	11
599.055	1	14
599.395	1	-2
599.734	1	5
600.074	1	4
600.413	1	13
600.753	1	7
601.092	1	15
601.432	1	-6
601.771	1	-1
602.111	1	13
602.451	1	13
602.790	1	2
603.130	1	8
603.469	1	-3
603.809	1	9
604.148	1	0
604.487	1	7
604.827	1	12
605.166	1	11
605.506	1	0
605.845	1	3
606.185	1	13
606.524	1	1
606.864	1	17
607.203	1	5
607.543	1	-3
607.882	1	5
608.222	1	5
608.561	1	0
608.901	1	12
609.240	1	-6
609.579	1	11
609.919	1	8
610.258	1	9
610.598	1	1
610.937	1	6
611.277	1	0
611.616	1	5
611.955	1	9
612.295	1	-4
612.634	1	2
612.974	1	-16
613.313	1	5
613.652	1	12
613.992	1	0
614.331	1	9
614.671	1	4
615.010	1	-11
615.349	1	9
615.689	1	10
616.028	1	1
616.368	1	0
616.707	1	6
617.046	1	11
617.386	1	7
617.725	1	3
618.064	1	-5
618.404	1	2
618.743	1	11
619.082	1	4
619.422	1	1
619.761	1	6
620.100	1	8
620.440	1	0
620.779	1	-2
621.118	1	12
621.458	1	8
621.797	1	-5
622.136	1	12
622.476	1	1
622.815	1	9
623.154	1	0
623.494	1	13
623.833	1	9
624.172	1	1
624.511	1	8
624.851	1	-12
625.190	1	-8
625.529	1	5
625.869	1	9
626.208	1	-1
626.547	1	6
626.886	1	14
627.226	1	13
627.565	1	-1
627.904	1	-2
628.243	1	4
628.583	1	1
628.922	1	11
629.261	1	9
629.600	1	3
629.940	1	7
630.279	1	3
630.618	1	-1
630.957	1	4
631.297	1	5
631.636	1	-8
631.975	1	16
632.314	1	-1
632.653	1	3
632.993	1	-10
633.332	1	8
633.671	1	-8
634.010	1	-12
634.349	1	10
634.689	1	12
635.028	1	8
635.367	1	-4
635.706	1	5
636.045	1	13
636.384	1	0
636.724	1	6
637.063	1	-1
637.402	1	6
637.741	1	2
638.080	1	1
638.419	1	0
638.759	1	2
639.098	1	13
639.437	1	1
639.776	1	1
640.115	1	6
640.454	1	8
640.793	1	10
641.132	1	5
641.472	1	5
641.811	1	8
642.150	1	-6
642.489	1	10
642.828	1	-12
643.167	1	-2
643.506	1	-9
643.845	1	4
644.184	1	5
644.524	1	4
644.863	1	-5
645.202	1	1
645.541	1	-4
645.880	1	8
646.219	1	-1
646.558	1	4
646.897	1	1
647.236	1	7
647.575	1	10
647.914	1	-2
648.253	1	4
648.592	1	1
648.931	1	7
649.270	1	2
649.610	1	-2
649.949	1	-1
650.288	1	10
650.627	1	-3
650.966	1	2
651.305	1	0
651.644	1	5
651.983	1	9
652.322	1	1
652.661	1	3
653.000	1	7
653.339	1	4
653.678	1	0
654.017	1	-4
654.356	1	-10
654.695	1	3
655.034	1	6
655.373	1	2
655.712	1	8
656.051	1	-8
656.390	1	2
656.729	1	0
657.068	1	4
657.406	1	6
657.745	1	5
658.084	1	7
658.423	1	8
658.762	1	-9
659.101	1	7
659.440	1	9
659.779	1	8
660.118	1	-6
660.457	1	3
660.796	1	0
661.135	1	1
661.474	1	1
661.813	1	8
662.152	1	1
662.491	1	-3
662.829	1	3
663.168	1	-2
663.507	1	6
663.846	1	7
664.185	1	1
664.524	1	-7
664.863	1	-5
665.202	1	9
665.541	1	-15
665.879	1	2
666.218	1	2
666.557	1	4
666.896	1	-7
667.235	1	-2
667.574	1	-3
667.913	1	1
668.251	1	-1
668.590	1	10
668.929	1	-6
669.268	1	0
669.607	1	-4
669.946	1	6
670.285	1	8
670.623	1	1
670.962	1	1
671.301	1	1
671.640	1	3
671.979	1	0
672.317	1	10
672.656	1	-4
672.995	1	16
673.334	1	-7
673.673	1	1
674.011	1	0
674.350	1	3
674.689	1	0
675.028	1	-3
675.367	1	8
675.705	1	12
676.044	1	10
676.383	1	-3
676.722	1	-3
677.060	1	-3
677.399	1	-7
677.738	1	4
678.077	1	4
678.416	1	1
678.754	1	-7
679.093	1	5
679.432	1	3
679.771	1	-1
680.109	1	4
680.448	1	-3
680.787	1	0
681.125	1	9
681.464	1	-1
681.803	1	5
682.142	1	11
682.480	1	11
682.819	1	8
683.158	1	0
683.496	1	4
683.835	1	1
684.174	1	0
684.512	1	1
684.851	1	0
685.190	1	0
685.529	1	1
685.867	1	0
686.206	1	-7
686.545	1	3
686.883	1	3
687.222	1	7
687.561	1	4
687.899	1	3
688.238	1	12
688.577	1	-4
688.746	1	2