File: Data/GaN_200K_800ms/GaN_sample F_spot 12_UVVIS_200 K_200um_800 ms 2x2mm1_75.txt
340.368	1	2
340.710	1	-7
341.052	1	7
341.394	1	6
341.737	1	5
342.079	1	1
342.421	1	0
342.763	1	8
343.105	1	-1
343.447	1	4
343.789	1	-2
344.131	1	-2
344.473	1	3
344.815	1	0
345.157	1	-2
345.499	1	1
345.841	1	14
346.183	1	0
346.526	1	1
346.868	1	8
347.210	1	-7
347.552	1	5
347.894	1	9
348.236	1	4
348.578	1	6
348.920	1	3
349.262	1	3
349.604	1	1
349.946	1	7
350.288	1	18
350.630	1	7
350.972	1	8
351.314	1	4
351.656	1	5
351.998	1	13
352.340	1	16
352.682	1	9
353.024	1	11
353.366	1	17
353.708	1	12
354.050	1	3
354.392	1	-1
354.734	1	24
355.076	1	14
355.418	1	7
355.760	1	5
356.102	1	28
356.444	1	19
356.785	1	17
357.127	1	12
357.469	1	17
357.811	1	21
358.153	1	34
358.495	1	19
358.837	1	12
359.179	1	28
359.521	1	19
359.863	1	33
360.205	1	27
360.547	1	36
360.889	1	28
361.231	1	35
361.572	1	45
361.914	1	45
362.256	1	55
362.598	1	53
362.940	1	55
363.282	1	61
363.624	1	61
363.966	1	65
364.308	1	72
364.649	1	81
364.991	1	90
365.333	1	87
365.675	1	100
366.017	1	113
366.359	1	117
366.701	1	134
367.042	1	137
367.384	1	139
367.726	1	143
368.068	1	149
368.410	1	162
368.752	1	165
369.093	1	159
369.435	1	177
369.777	1	158
370.119	1	176
370.461	1	186
370.803	1	157
371.144	1	147
371.486	1	161
371.828	1	155
372.170	1	165
372.512	1	136
372.853	1	135
373.195	1	119
373.537	1	122
373.879	1	107
374.220	1	117
374.562	1	113
374.904	1	100
375.246	1	112
375.588	1	99
375.929	1	108
376.271	1	90
376.613	1	90
376.955	1	80
377.296	1	71
377.638	1	74
377.980	1	64
378.321	1	58
378.663	1	66
379.005	1	62
379.347	1	55
379.688	1	50
380.030	1	47
380.372	1	50
380.714	1	51
381.055	1	52
381.397	1	44
381.739	1	44
382.080	1	48
382.422	1	48
382.764	1	36
383.105	1	25
383.447	1	35
383.789	1	32
384.130	1	33
384.472	1	31
384.814	1	22
385.156	1	26
385.497	1	36
385.839	1	16
386.180	1	34
386.522	1	37
386.864	1	33
387.205	1	17
387.547	1	25
387.889	1	29
388.230	1	27
388.572	1	19
388.914	1	29
389.255	1	10
389.597	1	15
389.939	1	13
390.280	1	17
390.622	1	24
390.963	1	27
391.305	1	10
391.647	1	7
391.988	1	16
392.330	1	15
392.671	1	9
393.013	1	7
393.355	1	18
393.696	1	16
394.038	1	12
394.379	1	12
394.721	1	8
395.062	1	21
395.404	1	5
395.746	1	14
396.087	1	5
396.429	1	12
396.770	1	-5
397.112	1	17
397.453	1	21
397.795	1	9
398.136	1	1
398.478	1	21
398.819	1	3
399.161	1	21
399.503	1	5
399.844	1	14
400.186	1	5
400.527	1	9
400.869	1	11
401.210	1	12
401.552	1	-4
401.893	1	0
402.235	1	9
402.576	1	14
402.918	1	13
403.259	1	9
403.601	1	6
403.942	1	14
404.284	1	10
404.625	1	14
404.967	1	14
405.308	1	7
405.649	1	12
405.991	1	5
406.332	1	7
406.674	1	3
407.015	1	8
407.357	1	-5
407.698	1	8
408.040	1	-3
408.381	1	10
408.722	1	-12
409.064	1	7
409.405	1	6
409.747	1	6
410.088	1	-4
410.430	1	7
410.771	1	12
411.112	1	9
411.454	1	-1
411.795	1	-2
412.137	1	10
412.478	1	22
412.819	1	2
413.161	1	1
413.502	1	0
413.844	1	0
414.185	1	7
414.526	1	4
414.868	1	8
415.209	1	4
415.550	1	-3
415.892	1	0
416.233	1	4
416.575	1	15
416.916	1	1
417.257	1	-1
417.599	1	4
417.940	1	7
418.281	1	11
418.623	1	0
418.964	1	-10
419.305	1	3
419.647	1	-3
419.988	1	5
420.329	1	2
420.671	1	10
421.012	1	7
421.353	1	1
421.695	1	1
422.036	1	7
422.377	1	4
422.718	1	6
423.060	1	0
423.401	1	8
423.742	1	4
424.084	1	-2
424.425	1	1
424.766	1	12
425.107	1	-1
425.449	1	8
425.790	1	-6
426.131	1	11
426.472	1	1
426.814	1	10
427.155	1	-1
427.496	1	-6
427.837	1	-1
428.179	1	-3
428.520	1	9
428.861	1	-1
429.202	1	8
429.544	1	6
429.885	1	4
430.226	1	-5
430.567	1	3
430.909	1	3
431.250	1	4
431.591	1	5
431.932	1	10
432.273	1	1
432.615	1	-4
432.956	1	-2
433.297	1	10
433.638	1	2
433.979	1	6
434.320	1	5
434.662	1	4
435.003	1	13
435.344	1	2
435.685	1	2
436.026	1	8
436.368	1	13
436.709	1	7
437.050	1	5
437.391	1	7
437.732	1	-8
438.073	1	3
438.414	1	-4
438.756	1	-3
439.097	1	-1
439.438	1	0
439.779	1	-3
440.120	1	3
440.461	1	6
440.802	1	0
441.143	1	10
441.485	1	6
441.826	1	2
442.167	1	2
442.508	1	-3
442.849	1	15
443.190	1	-6
443.531	1	13
443.872	1	9
444.213	1	-1
444.554	1	18
444.895	1	-6
445.237	1	0
445.578	1	-11
445.919	1	-7
446.260	1	-3
446.601	1	6
446.942	1	1
447.283	1	-7
447.624	1	7
447.965	1	6
448.306	1	2
448.647	1	-6
448.988	1	6
449.329	1	3
449.670	1	5
450.011	1	9
450.352	1	5
450.693	1	-7
451.034	1	-1
451.375	1	-1
451.716	1	5
452.057	1	1
452.398	1	-3
452.739	1	2
453.080	1	-4
453.421	1	0
453.762	1	13
454.103	1	-2
454.444	1	-4
454.785	1	-2
455.126	1	9
455.467	1	6
455.808	1	5
456.149	1	2
456.490	1	4
456.831	1	6
457.172	1	0
457.513	1	13
457.854	1	3
458.195	1	4
458.536	1	6
458.877	1	2
459.218	1	-5
459.559	1	-1
459.899	1	1
460.240	1	-2
460.581	1	16
460.922	1	7
461.263	1	-2
461.604	1	-1
461.945	1	9
462.286	1	-2
462.627	1	14
462.968	1	4
463.309	1	2
463.649	1	4
463.990	1	7
464.331	1	-6
464.672	1	3
465.013	1	3
465.354	1	7
465.695	1	5
466.036	1	-8
466.376	1	-4
466.717	1	4
467.058	1	5
467.399	1	14
467.740	1	-1
468.081	1	11
468.422	1	0
468.762	1	-11
469.103	1	0
469.444	1	1
469.785	1	-8
470.126	1	-2
470.467	1	3
470.807	1	1
471.148	1	5
471.489	1	-2
471.830	1	-1
472.171	1	3
472.511	1	-1
472.852	1	-8
473.193	1	12
473.534	1	9
473.875	1	13
474.215	1	15
474.556	1	-1
474.897	1	8
475.238	1	3
475.578	1	-7
475.919	1	2
476.260	1	2
476.601	1	8
476.942	1	4
477.282	1	-6
477.623	1	-9
477.964	1	5
478.305	1	9
478.645	1	13
478.986	1	7
479.327	1	-5
479.667	1	10
480.008	1	4
480.349	1	-3
480.690	1	3
481.030	1	-14
481.371	1	6
481.712	1	5
482.053	1	11
482.393	1	-2
482.734	1	1
483.075	1	0
483.415	1	9
483.756	1	11
484.097	1	5
484.437	1	-3
484.778	1	8
485.119	1	2
485.459	1	18
485.800	1	2
486.141	1	0
486.481	1	2
486.822	1	10
487.163	1	5
487.503	1	8
487.844	1	0
488.185	1	6
488.525	1	5
488.866	1	6
489.207	1	4
489.547	1	-4
489.888	1	4
490.228	1	12
490.569	1	14
490.910	1	-4
491.250	1	2
491.591	1	0
491.932	1	10
492.272	1	14
492.613	1	3
492.953	1	-5
493.294	1	-6
493.635	1	2
493.975	1	-1
494.316	1	10
494.656	1	3
494.997	1	1
495.337	1	13
495.678	1	7
496.019	1	13
496.359	1	-2
496.700	1	4
497.040	1	1
497.381	1	8
497.721	1	6
498.062	1	12
498.403	1	13
498.743	1	7
499.084	1	5
499.424	1	1
499.765	1	8
500.105	1	11
500.446	1	2
500.786	1	8
501.127	1	17
501.467	1	-1
501.808	1	12
502.148	1	2
502.489	1	6
502.829	1	10
503.170	1	14
503.510	1	15
503.851	1	11
504.191	1	12
504.532	1	15
504.872	1	13
505.213	1	19
505.553	1	9
505.894	1	9
506.234	1	10
506.575	1	13
506.915	1	7
507.256	1	12
507.596	1	10
507.936	1	8
508.277	1	6
508.617	1	9
508.958	1	1
509.298	1	6
509.639	1	11
509.979	1	3
510.319	1	10
510.660	1	6
511.000	1	0
511.341	1	10
511.681	1	18
512.022	1	2
512.362	1	0
512.702	1	-2
513.043	1	19
513.383	1	7
513.724	1	17
514.064	1	22
514.404	1	14
514.745	1	8
515.085	1	5
515.425	1	3
515.766	1	6
516.106	1	6
516.447	1	22
516.787	1	15
517.127	1	4
517.468	1	7
517.808	1	8
518.148	1	14
518.489	1	3
518.829	1	24
519.169	1	8
519.510	1	16
519.850	1	17
520.190	1	10
520.531	1	12
520.871	1	11
521.211	1	5
521.552	1	15
521.892	1	13
522.232	1	21
522.573	1	7
522.913	1	21
523.253	1	7
523.593	1	8
523.934	1	6
524.274	1	19
524.614	1	5
524.955	1	12
525.295	1	7
525.635	1	23
525.975	1	12
526.316	1	28
526.656	1	11
526.996	1	17
527.337	1	16
527.677	1	19
528.017	1	0
528.357	1	13
528.698	1	13
529.038	1	17
529.378	1	26
529.718	1	22
530.058	1	17
530.399	1	25
530.739	1	22
531.079	1	18
531.419	1	16
531.760	1	15
532.100	1	15
532.440	1	8
532.780	1	7
533.120	1	20
533.461	1	14
533.801	1	30
534.141	1	17
534.481	1	5
534.821	1	13
535.162	1	29
535.502	1	13
535.842	1	12
536.182	1	27
536.522	1	15
536.862	1	21
537.203	1	11
537.543	1	17
537.883	1	22
538.223	1	17
538.563	1	15
538.903	1	1
539.243	1	14
539.584	1	19
539.924	1	26
540.264	1	21
540.604	1	14
540.944	1	14
541.284	1	20
541.624	1	24
541.964	1	18
542.305	1	23
542.645	1	11
542.985	1	19
543.325	1	19
543.665	1	25
544.005	1	17
544.345	1	22
544.685	1	11
545.025	1	17
545.365	1	9
545.705	1	24
546.045	1	15
546.386	1	21
546.726	1	11
547.066	1	16
547.406	1	17
547.746	1	11
548.086	1	8
548.426	1	10
548.766	1	15
549.106	1	23
549.446	1	11
549.786	1	10
550.126	1	30
550.466	1	7
550.806	1	18
551.146	1	21
551.486	1	25
551.826	1	29
552.166	1	25
552.506	1	21
552.846	1	11
553.186	1	21
553.526	1	21
553.866	1	22
554.206	1	22
554.546	1	28
554.886	1	23
555.226	1	11
555.566	1	27
555.906	1	21
556.246	1	22
556.586	1	18
556.926	1	11
557.266	1	11
557.606	1	21
557.946	1	39
558.286	1	18
558.626	1	17
558.966	1	17
559.306	1	17
559.646	1	10
559.986	1	14
560.325	1	15
560.665	1	8
561.005	1	16
561.345	1	10
561.685	1	19
562.025	1	20
562.365	1	22
562.705	1	13
563.045	1	9
563.385	1	10
563.725	1	14
564.064	1	15
564.404	1	12
564.744	1	22
565.084	1	13
565.424	1	23
565.764	1	23
566.104	1	16
566.444	1	8
566.783	1	19
567.123	1	16
567.463	1	23
567.803	1	8
568.143	1	15
568.483	1	26
568.823	1	11
569.162	1	21
569.502	1	16
569.842	1	22
570.182	1	23
570.522	1	8
570.862	1	17
571.201	1	20
571.541	1	28
571.881	1	23
572.221	1	12
572.561	1	18
572.900	1	13
573.240	1	16
573.580	1	13
573.920	1	29
574.260	1	23
574.599	1	13
574.939	1	10
575.279	1	30
575.619	1	25
575.959	1	20
576.298	1	23
576.638	1	9
576.978	1	11
577.318	1	11
577.657	1	19
577.997	1	-1
578.337	1	29
578.677	1	27
579.016	1	17
579.356	1	14
579.696	1	12
580.036	1	20
580.375	1	16
580.715	1	16
581.055	1	10
581.394	1	18
581.734	1	13
582.074	1	15
582.414	1	22
582.753	1	17
583.093	1	18
583.433	1	20
583.772	1	22
584.112	1	19
584.452	1	15
584.791	1	18
585.131	1	17
585.471	1	30
585.811	1	20
586.150	1	7
586.490	1	18
586.830	1	13
587.169	1	22
587.509	1	15
587.849	1	21
588.188	1	21
588.528	1	10
588.867	1	20
589.207	1	14
589.547	1	14
589.886	1	17
590.226	1	18
590.566	1	15
590.905	1	14
591.245	1	9
591.585	1	19
591.924	1	19
592.264	1	15
592.603	1	20
592.943	1	14
593.283	1	17
593.622	1	9
593.962	1	14
594.301	1	17
594.641	1	12
594.981	1	18
595.320	1	16
595.660	1	13
595.999	1	8
596.339	1	9
596.678	1	5
597.018	1	13
597.358	1	23
597.697	1	7
598.037	1	11
598.376	1	18
598.716	1	19
599.055	1	23
599.395	1	15
599.734	1	8
600.074	1	19
600.413	1	20
600.753	1	12
601.092	1	29
601.432	1	4
601.771	1	14
602.111	1	15
602.451	1	23
602.790	1	16
603.130	1	18
603.469	1	8
603.809	1	10
604.148	1	21
604.487	1	10
604.827	1	6
605.166	1	17
605.506	1	19
605.845	1	11
606.185	1	22
606.524	1	9
606.864	1	19
607.203	1	10
607.543	1	8
607.882	1	24
608.222	1	16
608.561	1	10
608.901	1	13
609.240	1	9
609.579	1	19
609.919	1	20
610.258	1	17
610.598	1	14
610.937	1	14
611.277	1	12
611.616	1	11
611.955	1	15
612.295	1	5
612.634	1	12
612.974	1	-5
613.313	1	12
613.652	1	6
613.992	1	15
614.331	1	13
614.671	1	15
615.010	1	11
615.349	1	24
615.689	1	17
616.028	1	12
616.368	1	20
616.707	1	10
617.046	1	18
617.386	1	8
617.725	1	9
618.064	1	12
618.404	1	4
618.743	1	17
619.082	1	8
619.422	1	11
619.761	1	8
620.100	1	19
620.440	1	9
620.779	1	1
621.118	1	5
621.458	1	11
621.797	1	9
622.136	1	23
622.476	1	11
622.815	1	13
623.154	1	14
623.494	1	20
623.833	1	16
624.172	1	0
624.511	1	1
624.851	1	-2
625.190	1	23
625.529	1	13
625.869	1	13
626.208	1	12
626.547	1	13
626.886	1	8
627.226	1	14
627.565	1	17
627.904	1	9
628.243	1	7
628.583	1	6
628.922	1	12
629.261	1	20
629.600	1	11
629.940	1	10
630.279	1	4
630.618	1	0
630.957	1	10
631.297	1	12
631.636	1	2
631.975	1	26
632.314	1	8
632.653	1	7
632.993	1	6
633.332	1	15
633.671	1	-8
634.010	1	8
634.349	1	18
634.689	1	0
635.028	1	13
635.367	1	8
635.706	1	6
636.045	1	21
636.384	1	11
636.724	1	14
637.063	1	11
637.402	1	5
637.741	1	13
638.080	1	13
638.419	1	14
638.759	1	0
639.098	1	17
639.437	1	11
639.776	1	4
640.115	1	5
640.454	1	12
640.793	1	9
641.132	1	10
641.472	1	12
641.811	1	3
642.150	1	0
642.489	1	9
642.828	1	4
643.167	1	7
643.506	1	0
643.845	1	9
644.184	1	22
644.524	1	8
644.863	1	5
645.202	1	-7
645.541	1	9
645.880	1	20
646.219	1	12
646.558	1	9
646.897	1	7
647.236	1	11
647.575	1	14
647.914	1	-8
648.253	1	14
648.592	1	-3
648.931	1	20
649.270	1	7
649.610	1	13
649.949	1	7
650.288	1	7
650.627	1	0
650.966	1	11
651.305	1	12
651.644	1	14
651.983	1	10
652.322	1	8
652.661	1	6
653.000	1	10
653.339	1	14
653.678	1	8
654.017	1	3
654.356	1	10
654.695	1	13
655.034	1	9
655.373	1	13
655.712	1	3
656.051	1	17
656.390	1	7
656.729	1	16
657.068	1	9
657.406	1	5
657.745	1	10
658.084	1	10
658.423	1	14
658.762	1	10
659.101	1	14
659.440	1	3
659.779	1	4
660.118	1	8
660.457	1	5
660.796	1	-2
661.135	1	-3
661.474	1	4
661.813	1	21
662.152	1	14
662.491	1	0
662.829	1	12
663.168	1	15
663.507	1	14
663.846	1	7
664.185	1	6
664.524	1	11
664.863	1	6
665.202	1	10
665.541	1	-4
665.879	1	-4
666.218	1	-2
666.557	1	3
666.896	1	2
667.235	1	12
667.574	1	5
667.913	1	6
668.251	1	4
668.590	1	-1
668.929	1	-3
669.268	1	-1
669.607	1	8
669.946	1	6
670.285	1	1
670.623	1	-2
670.962	1	4
671.301	1	4
671.640	1	5
671.979	1	11
672.317	1	7
672.656	1	11
672.995	1	15
673.334	1	6
673.673	1	9
674.011	1	10
674.350	1	7
674.689	1	8
675.028	1	-2
675.367	1	2
675.705	1	16
676.044	1	5
676.383	1	7
676.722	1	9
677.060	1	2
677.399	1	3
677.738	1	11
678.077	1	9
678.416	1	9
678.754	1	2
679.093	1	4
679.432	1	4
679.771	1	8
680.109	1	16
680.448	1	8
680.787	1	0
681.125	1	14
681.464	1	16
681.803	1	-5
682.142	1	14
682.480	1	12
682.819	1	12
683.158	1	7
683.496	1	9
683.835	1	7
684.174	1	16
684.512	1	14
684.851	1	11
685.190	1	3
685.529	1	1
685.867	1	8
686.206	1	-4
686.545	1	4
686.883	1	10
687.222	1	10
687.561	1	0
687.899	1	9
688.238	1	8
688.577	1	10
688.746	1	1