File: Data/GaN_200K_800ms/GaN_sample F_spot 12_UVVIS_200 K_200um_800 ms 2x2mm1_367.txt
340.368	1	11
340.710	1	-6
341.052	1	4
341.394	1	-4
341.737	1	7
342.079	1	1
342.421	1	1
342.763	1	0
343.105	1	1
343.447	1	-7
343.789	1	11
344.131	1	-1
344.473	1	0
344.815	1	-11
345.157	1	-7
345.499	1	6
345.841	1	7
346.183	1	-7
346.526	1	-1
346.868	1	10
347.210	1	-2
347.552	1	-2
347.894	1	0
348.236	1	7
348.578	1	-4
348.920	1	4
349.262	1	-3
349.604	1	-3
349.946	1	-9
350.288	1	3
350.630	1	-5
350.972	1	2
351.314	1	12
351.656	1	-1
351.998	1	-4
352.340	1	-5
352.682	1	11
353.024	1	5
353.366	1	14
353.708	1	2
354.050	1	-5
354.392	1	-11
354.734	1	3
355.076	1	2
355.418	1	-17
355.760	1	-8
356.102	1	8
356.444	1	-3
356.785	1	-5
357.127	1	-3
357.469	1	1
357.811	1	-1
358.153	1	8
358.495	1	-1
358.837	1	-5
359.179	1	7
359.521	1	3
359.863	1	-2
360.205	1	-1
360.547	1	3
360.889	1	1
361.231	1	3
361.572	1	10
361.914	1	-2
362.256	1	2
362.598	1	0
362.940	1	-5
363.282	1	6
363.624	1	6
363.966	1	-3
364.308	1	6
364.649	1	17
364.991	1	9
365.333	1	4
365.675	1	-1
366.017	1	10
366.359	1	12
366.701	1	23
367.042	1	0
367.384	1	18
367.726	1	9
368.068	1	8
368.410	1	21
368.752	1	8
369.093	1	6
369.435	1	10
369.777	1	-1
370.119	1	11
370.461	1	23
370.803	1	17
371.144	1	4
371.486	1	5
371.828	1	10
372.170	1	13
372.512	1	5
372.853	1	10
373.195	1	9
373.537	1	8
373.879	1	6
374.220	1	18
374.562	1	12
374.904	1	-5
375.246	1	12
375.588	1	2
375.929	1	9
376.271	1	7
376.613	1	5
376.955	1	2
377.296	1	-2
377.638	1	4
377.980	1	9
378.321	1	-6
378.663	1	3
379.005	1	18
379.347	1	2
379.688	1	5
380.030	1	5
380.372	1	8
380.714	1	8
381.055	1	10
381.397	1	6
381.739	1	5
382.080	1	2
382.422	1	11
382.764	1	-1
383.105	1	-2
383.447	1	-3
383.789	1	0
384.130	1	11
384.472	1	0
384.814	1	11
385.156	1	-8
385.497	1	15
385.839	1	1
386.180	1	10
386.522	1	9
386.864	1	3
387.205	1	-2
387.547	1	-4
387.889	1	0
388.230	1	16
388.572	1	4
388.914	1	3
389.255	1	-14
389.597	1	4
389.939	1	-3
390.280	1	9
390.622	1	-8
390.963	1	9
391.305	1	-1
391.647	1	-1
391.988	1	9
392.330	1	-1
392.671	1	9
393.013	1	-6
393.355	1	8
393.696	1	-1
394.038	1	4
394.379	1	1
394.721	1	-4
395.062	1	4
395.404	1	-6
395.746	1	10
396.087	1	-3
396.429	1	4
396.770	1	-5
397.112	1	-1
397.453	1	4
397.795	1	-3
398.136	1	-11
398.478	1	-1
398.819	1	-1
399.161	1	9
399.503	1	-7
399.844	1	-9
400.186	1	1
400.527	1	-3
400.869	1	-3
401.210	1	-2
401.552	1	-5
401.893	1	1
402.235	1	-3
402.576	1	2
402.918	1	8
403.259	1	6
403.601	1	-3
403.942	1	8
404.284	1	9
404.625	1	3
404.967	1	0
405.308	1	5
405.649	1	-4
405.991	1	6
406.332	1	1
406.674	1	-2
407.015	1	7
407.357	1	-5
407.698	1	9
408.040	1	-9
408.381	1	0
408.722	1	-14
409.064	1	-1
409.405	1	0
409.747	1	-5
410.088	1	-1
410.430	1	7
410.771	1	-2
411.112	1	-8
411.454	1	-3
411.795	1	-3
412.137	1	4
412.478	1	10
412.819	1	-3
413.161	1	-3
413.502	1	0
413.844	1	2
414.185	1	2
414.526	1	4
414.868	1	0
415.209	1	4
415.550	1	-8
415.892	1	0
416.233	1	10
416.575	1	4
416.916	1	-7
417.257	1	-5
417.599	1	-5
417.940	1	10
418.281	1	5
418.623	1	-6
418.964	1	-12
419.305	1	3
419.647	1	-8
419.988	1	1
420.329	1	-7
420.671	1	0
421.012	1	4
421.353	1	-3
421.695	1	3
422.036	1	-6
422.377	1	-13
422.718	1	6
423.060	1	-10
423.401	1	-3
423.742	1	3
424.084	1	-1
424.425	1	1
424.766	1	-5
425.107	1	3
425.449	1	-3
425.790	1	-14
426.131	1	-1
426.472	1	6
426.814	1	4
427.155	1	-6
427.496	1	-9
427.837	1	-12
428.179	1	-12
428.520	1	-5
428.861	1	-8
429.202	1	1
429.544	1	-7
429.885	1	6
430.226	1	-11
430.567	1	-5
430.909	1	6
431.250	1	-6
431.591	1	0
431.932	1	-4
432.273	1	-3
432.615	1	-9
432.956	1	-4
433.297	1	5
433.638	1	-2
433.979	1	10
434.320	1	1
434.662	1	0
435.003	1	8
435.344	1	-8
435.685	1	-1
436.026	1	5
436.368	1	1
436.709	1	-1
437.050	1	-7
437.391	1	0
437.732	1	-15
438.073	1	-4
438.414	1	-14
438.756	1	-2
439.097	1	-10
439.438	1	-2
439.779	1	-9
440.120	1	-2
440.461	1	4
440.802	1	-6
441.143	1	7
441.485	1	4
441.826	1	-5
442.167	1	-7
442.508	1	-9
442.849	1	4
443.190	1	-5
443.531	1	4
443.872	1	7
444.213	1	3
444.554	1	10
444.895	1	-4
445.237	1	3
445.578	1	-15
445.919	1	-3
446.260	1	-7
446.601	1	-2
446.942	1	-2
447.283	1	-8
447.624	1	-7
447.965	1	-5
448.306	1	-7
448.647	1	-10
448.988	1	-10
449.329	1	-1
449.670	1	2
450.011	1	6
450.352	1	-2
450.693	1	-9
451.034	1	-5
451.375	1	-2
451.716	1	0
452.057	1	-3
452.398	1	6
452.739	1	1
453.080	1	-6
453.421	1	-4
453.762	1	-2
454.103	1	2
454.444	1	-8
454.785	1	-8
455.126	1	-3
455.467	1	1
455.808	1	-2
456.149	1	1
456.490	1	5
456.831	1	10
457.172	1	-6
457.513	1	9
457.854	1	-6
458.195	1	-2
458.536	1	4
458.877	1	-1
459.218	1	-1
459.559	1	7
459.899	1	-1
460.240	1	3
460.581	1	17
460.922	1	-2
461.263	1	5
461.604	1	-12
461.945	1	-2
462.286	1	-1
462.627	1	0
462.968	1	9
463.309	1	-5
463.649	1	-6
463.990	1	2
464.331	1	0
464.672	1	-4
465.013	1	-5
465.354	1	9
465.695	1	-2
466.036	1	-3
466.376	1	-9
466.717	1	5
467.058	1	-4
467.399	1	6
467.740	1	-5
468.081	1	-3
468.422	1	-9
468.762	1	-11
469.103	1	-4
469.444	1	-5
469.785	1	-7
470.126	1	-12
470.467	1	-2
470.807	1	-7
471.148	1	3
471.489	1	0
471.830	1	-5
472.171	1	4
472.511	1	0
472.852	1	-6
473.193	1	6
473.534	1	2
473.875	1	11
474.215	1	3
474.556	1	3
474.897	1	5
475.238	1	0
475.578	1	-11
475.919	1	-1
476.260	1	-1
476.601	1	-4
476.942	1	4
477.282	1	-4
477.623	1	-6
477.964	1	8
478.305	1	4
478.645	1	3
478.986	1	0
479.327	1	-6
479.667	1	-5
480.008	1	-2
480.349	1	-4
480.690	1	4
481.030	1	0
481.371	1	1
481.712	1	9
482.053	1	-5
482.393	1	5
482.734	1	0
483.075	1	4
483.415	1	0
483.756	1	5
484.097	1	1
484.437	1	-2
484.778	1	-4
485.119	1	3
485.459	1	2
485.800	1	0
486.141	1	-1
486.481	1	-4
486.822	1	10
487.163	1	2
487.503	1	-6
487.844	1	-3
488.185	1	-4
488.525	1	1
488.866	1	-3
489.207	1	-2
489.547	1	-10
489.888	1	-8
490.228	1	5
490.569	1	6
490.910	1	0
491.250	1	3
491.591	1	-3
491.932	1	0
492.272	1	-2
492.613	1	-3
492.953	1	-12
493.294	1	-3
493.635	1	-1
493.975	1	2
494.316	1	2
494.656	1	5
494.997	1	-2
495.337	1	5
495.678	1	3
496.019	1	-3
496.359	1	-4
496.700	1	-2
497.040	1	-4
497.381	1	-1
497.721	1	5
498.062	1	1
498.403	1	0
498.743	1	-6
499.084	1	-4
499.424	1	3
499.765	1	-4
500.105	1	-11
500.446	1	-10
500.786	1	-5
501.127	1	13
501.467	1	-9
501.808	1	4
502.148	1	1
502.489	1	0
502.829	1	0
503.170	1	7
503.510	1	1
503.851	1	-13
504.191	1	8
504.532	1	4
504.872	1	-3
505.213	1	14
505.553	1	-10
505.894	1	-3
506.234	1	6
506.575	1	2
506.915	1	3
507.256	1	8
507.596	1	-1
507.936	1	8
508.277	1	-3
508.617	1	5
508.958	1	-10
509.298	1	4
509.639	1	-9
509.979	1	8
510.319	1	0
510.660	1	7
511.000	1	-3
511.341	1	0
511.681	1	2
512.022	1	-3
512.362	1	2
512.702	1	-3
513.043	1	10
513.383	1	-10
513.724	1	4
514.064	1	12
514.404	1	-1
514.745	1	-11
515.085	1	-5
515.425	1	-10
515.766	1	-8
516.106	1	-7
516.447	1	6
516.787	1	7
517.127	1	2
517.468	1	0
517.808	1	-5
518.148	1	2
518.489	1	-1
518.829	1	12
519.169	1	-5
519.510	1	-3
519.850	1	2
520.190	1	1
520.531	1	-3
520.871	1	-1
521.211	1	-8
521.552	1	6
521.892	1	2
522.232	1	2
522.573	1	2
522.913	1	11
523.253	1	-5
523.593	1	-6
523.934	1	2
524.274	1	6
524.614	1	-4
524.955	1	-5
525.295	1	1
525.635	1	-1
525.975	1	-3
526.316	1	5
526.656	1	1
526.996	1	4
527.337	1	0
527.677	1	13
528.017	1	-5
528.357	1	-2
528.698	1	7
529.038	1	-6
529.378	1	-1
529.718	1	1
530.058	1	-3
530.399	1	3
530.739	1	5
531.079	1	11
531.419	1	4
531.760	1	1
532.100	1	-13
532.440	1	6
532.780	1	-3
533.120	1	4
533.461	1	6
533.801	1	16
534.141	1	-7
534.481	1	-8
534.821	1	7
535.162	1	-1
535.502	1	-1
535.842	1	4
536.182	1	-8
536.522	1	10
536.862	1	3
537.203	1	-8
537.543	1	-5
537.883	1	-2
538.223	1	6
538.563	1	-2
538.903	1	-3
539.243	1	0
539.584	1	-10
539.924	1	13
540.264	1	-10
540.604	1	-3
540.944	1	-9
541.284	1	6
541.624	1	-3
541.964	1	6
542.305	1	-3
542.645	1	8
542.985	1	3
543.325	1	4
543.665	1	-4
544.005	1	8
544.345	1	4
544.685	1	0
545.025	1	-9
545.365	1	2
545.705	1	2
546.045	1	-8
546.386	1	-5
546.726	1	-6
547.066	1	5
547.406	1	-4
547.746	1	-7
548.086	1	6
548.426	1	-4
548.766	1	2
549.106	1	6
549.446	1	3
549.786	1	-5
550.126	1	9
550.466	1	2
550.806	1	-7
551.146	1	5
551.486	1	2
551.826	1	-2
552.166	1	-3
552.506	1	6
552.846	1	-4
553.186	1	4
553.526	1	-8
553.866	1	0
554.206	1	-1
554.546	1	6
554.886	1	4
555.226	1	-8
555.566	1	5
555.906	1	0
556.246	1	7
556.586	1	-2
556.926	1	6
557.266	1	-3
557.606	1	1
557.946	1	5
558.286	1	4
558.626	1	4
558.966	1	5
559.306	1	6
559.646	1	-10
559.986	1	-1
560.325	1	-5
560.665	1	-7
561.005	1	-1
561.345	1	1
561.685	1	0
562.025	1	10
562.365	1	-2
562.705	1	-1
563.045	1	-5
563.385	1	-6
563.725	1	0
564.064	1	-4
564.404	1	7
564.744	1	9
565.084	1	1
565.424	1	8
565.764	1	-3
566.104	1	11
566.444	1	-4
566.783	1	5
567.123	1	-1
567.463	1	8
567.803	1	-10
568.143	1	-5
568.483	1	8
568.823	1	0
569.162	1	11
569.502	1	-1
569.842	1	12
570.182	1	3
570.522	1	-5
570.862	1	1
571.201	1	12
571.541	1	6
571.881	1	13
572.221	1	-7
572.561	1	-9
572.900	1	-10
573.240	1	2
573.580	1	0
573.920	1	5
574.260	1	8
574.599	1	2
574.939	1	0
575.279	1	9
575.619	1	3
575.959	1	-10
576.298	1	9
576.638	1	-5
576.978	1	4
577.318	1	10
577.657	1	6
577.997	1	0
578.337	1	2
578.677	1	9
579.016	1	8
579.356	1	-6
579.696	1	5
580.036	1	-1
580.375	1	5
580.715	1	3
581.055	1	4
581.394	1	4
581.734	1	-3
582.074	1	-3
582.414	1	7
582.753	1	-1
583.093	1	0
583.433	1	-3
583.772	1	3
584.112	1	-7
584.452	1	9
584.791	1	0
585.131	1	12
585.471	1	19
585.811	1	1
586.150	1	-2
586.490	1	2
586.830	1	1
587.169	1	9
587.509	1	-5
587.849	1	-5
588.188	1	11
588.528	1	10
588.867	1	-1
589.207	1	3
589.547	1	8
589.886	1	-4
590.226	1	2
590.566	1	-7
590.905	1	5
591.245	1	-3
591.585	1	5
591.924	1	0
592.264	1	0
592.603	1	8
592.943	1	-5
593.283	1	2
593.622	1	4
593.962	1	-1
594.301	1	3
594.641	1	0
594.981	1	-6
595.320	1	8
595.660	1	-4
595.999	1	-11
596.339	1	5
596.678	1	-6
597.018	1	-5
597.358	1	9
597.697	1	-1
598.037	1	-6
598.376	1	-1
598.716	1	6
599.055	1	4
599.395	1	-5
599.734	1	0
600.074	1	6
600.413	1	19
600.753	1	0
601.092	1	11
601.432	1	-10
601.771	1	8
602.111	1	8
602.451	1	3
602.790	1	6
603.130	1	3
603.469	1	-9
603.809	1	3
604.148	1	2
604.487	1	6
604.827	1	-3
605.166	1	-3
605.506	1	4
605.845	1	2
606.185	1	-1
606.524	1	0
606.864	1	-3
607.203	1	1
607.543	1	-15
607.882	1	2
608.222	1	1
608.561	1	-1
608.901	1	1
609.240	1	-9
609.579	1	0
609.919	1	7
610.258	1	8
610.598	1	-8
610.937	1	3
611.277	1	1
611.616	1	1
611.955	1	0
612.295	1	-3
612.634	1	2
612.974	1	0
613.313	1	9
613.652	1	6
613.992	1	-1
614.331	1	-2
614.671	1	5
615.010	1	-12
615.349	1	4
615.689	1	6
616.028	1	4
616.368	1	6
616.707	1	-3
617.046	1	-4
617.386	1	-2
617.725	1	1
618.064	1	-5
618.404	1	4
618.743	1	6
619.082	1	6
619.422	1	-8
619.761	1	7
620.100	1	8
620.440	1	5
620.779	1	2
621.118	1	5
621.458	1	-2
621.797	1	-7
622.136	1	10
622.476	1	7
622.815	1	7
623.154	1	11
623.494	1	8
623.833	1	10
624.172	1	1
624.511	1	-2
624.851	1	-16
625.190	1	-7
625.529	1	0
625.869	1	4
626.208	1	2
626.547	1	-5
626.886	1	8
627.226	1	10
627.565	1	10
627.904	1	-4
628.243	1	-1
628.583	1	-2
628.922	1	5
629.261	1	5
629.600	1	15
629.940	1	-1
630.279	1	-10
630.618	1	-4
630.957	1	3
631.297	1	1
631.636	1	-14
631.975	1	7
632.314	1	1
632.653	1	1
632.993	1	-3
633.332	1	5
633.671	1	-2
634.010	1	2
634.349	1	10
634.689	1	0
635.028	1	7
635.367	1	-5
635.706	1	0
636.045	1	-1
636.384	1	-4
636.724	1	-1
637.063	1	5
637.402	1	9
637.741	1	-9
638.080	1	4
638.419	1	10
638.759	1	-5
639.098	1	-3
639.437	1	-1
639.776	1	-13
640.115	1	-12
640.454	1	-12
640.793	1	5
641.132	1	13
641.472	1	7
641.811	1	-6
642.150	1	-1
642.489	1	7
642.828	1	6
643.167	1	-2
643.506	1	-11
643.845	1	-1
644.184	1	4
644.524	1	0
644.863	1	-11
645.202	1	4
645.541	1	-4
645.880	1	4
646.219	1	-9
646.558	1	-7
646.897	1	-8
647.236	1	4
647.575	1	1
647.914	1	-1
648.253	1	1
648.592	1	-7
648.931	1	3
649.270	1	5
649.610	1	-1
649.949	1	-1
650.288	1	-2
650.627	1	-2
650.966	1	4
651.305	1	2
651.644	1	2
651.983	1	6
652.322	1	-6
652.661	1	1
653.000	1	-1
653.339	1	3
653.678	1	-6
654.017	1	-2
654.356	1	-6
654.695	1	7
655.034	1	6
655.373	1	1
655.712	1	5
656.051	1	1
656.390	1	-5
656.729	1	8
657.068	1	-13
657.406	1	5
657.745	1	3
658.084	1	4
658.423	1	8
658.762	1	-9
659.101	1	7
659.440	1	8
659.779	1	-4
660.118	1	3
660.457	1	3
660.796	1	-9
661.135	1	-3
661.474	1	-3
661.813	1	10
662.152	1	-2
662.491	1	-9
662.829	1	-11
663.168	1	5
663.507	1	15
663.846	1	-11
664.185	1	4
664.524	1	4
664.863	1	2
665.202	1	8
665.541	1	-11
665.879	1	-6
666.218	1	-7
666.557	1	-3
666.896	1	-2
667.235	1	16
667.574	1	-4
667.913	1	2
668.251	1	-8
668.590	1	1
668.929	1	-6
669.268	1	1
669.607	1	-2
669.946	1	-7
670.285	1	2
670.623	1	-6
670.962	1	0
671.301	1	-8
671.640	1	-1
671.979	1	0
672.317	1	5
672.656	1	2
672.995	1	8
673.334	1	-1
673.673	1	3
674.011	1	-4
674.350	1	9
674.689	1	-5
675.028	1	-4
675.367	1	1
675.705	1	6
676.044	1	0
676.383	1	2
676.722	1	4
677.060	1	-7
677.399	1	-3
677.738	1	4
678.077	1	5
678.416	1	9
678.754	1	-5
679.093	1	6
679.432	1	-4
679.771	1	7
680.109	1	5
680.448	1	-3
680.787	1	-3
681.125	1	0
681.464	1	3
681.803	1	-5
682.142	1	-1
682.480	1	14
682.819	1	-5
683.158	1	4
683.496	1	-4
683.835	1	-1
684.174	1	-7
684.512	1	2
684.851	1	-3
685.190	1	-8
685.529	1	-7
685.867	1	0
686.206	1	-10
686.545	1	-6
686.883	1	-7
687.222	1	-1
687.561	1	5
687.899	1	6
688.238	1	3
688.577	1	-6
688.746	1	1