File: Data/GaN_200K_800ms/GaN_sample F_spot 12_UVVIS_200 K_200um_800 ms 2x2mm1_508.txt
340.368	1	10
340.710	1	-11
341.052	1	8
341.394	1	-10
341.737	1	9
342.079	1	-9
342.421	1	-3
342.763	1	1
343.105	1	3
343.447	1	-2
343.789	1	5
344.131	1	-6
344.473	1	-9
344.815	1	-5
345.157	1	-7
345.499	1	-4
345.841	1	8
346.183	1	-12
346.526	1	-6
346.868	1	1
347.210	1	-10
347.552	1	0
347.894	1	-6
348.236	1	5
348.578	1	2
348.920	1	-2
349.262	1	0
349.604	1	12
349.946	1	3
350.288	1	14
350.630	1	5
350.972	1	4
351.314	1	6
351.656	1	1
351.998	1	5
352.340	1	9
352.682	1	9
353.024	1	4
353.366	1	6
353.708	1	-4
354.050	1	-7
354.392	1	-10
354.734	1	9
355.076	1	-7
355.418	1	-12
355.760	1	-6
356.102	1	-1
356.444	1	5
356.785	1	6
357.127	1	6
357.469	1	-2
357.811	1	-4
358.153	1	6
358.495	1	4
358.837	1	-10
359.179	1	1
359.521	1	3
359.863	1	3
360.205	1	-7
360.547	1	4
360.889	1	-2
361.231	1	0
361.572	1	2
361.914	1	-2
362.256	1	-2
362.598	1	-11
362.940	1	-6
363.282	1	4
363.624	1	12
363.966	1	-3
364.308	1	1
364.649	1	11
364.991	1	-1
365.333	1	0
365.675	1	-5
366.017	1	-1
366.359	1	8
366.701	1	5
367.042	1	7
367.384	1	5
367.726	1	1
368.068	1	4
368.410	1	24
368.752	1	-5
369.093	1	0
369.435	1	2
369.777	1	-1
370.119	1	5
370.461	1	20
370.803	1	12
371.144	1	0
371.486	1	2
371.828	1	5
372.170	1	7
372.512	1	3
372.853	1	3
373.195	1	5
373.537	1	-2
373.879	1	2
374.220	1	14
374.562	1	10
374.904	1	3
375.246	1	14
375.588	1	8
375.929	1	11
376.271	1	8
376.613	1	-1
376.955	1	-4
377.296	1	5
377.638	1	10
377.980	1	7
378.321	1	-7
378.663	1	-4
379.005	1	10
379.347	1	1
379.688	1	6
380.030	1	4
380.372	1	7
380.714	1	12
381.055	1	15
381.397	1	6
381.739	1	6
382.080	1	8
382.422	1	0
382.764	1	-4
383.105	1	-5
383.447	1	-4
383.789	1	-6
384.130	1	-1
384.472	1	-8
384.814	1	3
385.156	1	-7
385.497	1	10
385.839	1	3
386.180	1	2
386.522	1	5
386.864	1	3
387.205	1	1
387.547	1	0
387.889	1	-5
388.230	1	12
388.572	1	-1
388.914	1	-4
389.255	1	-8
389.597	1	5
389.939	1	0
390.280	1	-2
390.622	1	-8
390.963	1	6
391.305	1	4
391.647	1	-3
391.988	1	2
392.330	1	10
392.671	1	-5
393.013	1	-8
393.355	1	0
393.696	1	1
394.038	1	1
394.379	1	1
394.721	1	-10
395.062	1	1
395.404	1	-10
395.746	1	7
396.087	1	-2
396.429	1	5
396.770	1	-7
397.112	1	-2
397.453	1	3
397.795	1	2
398.136	1	-11
398.478	1	-4
398.819	1	1
399.161	1	7
399.503	1	2
399.844	1	-7
400.186	1	-6
400.527	1	-9
400.869	1	-2
401.210	1	3
401.552	1	-5
401.893	1	-1
402.235	1	3
402.576	1	-1
402.918	1	1
403.259	1	5
403.601	1	-11
403.942	1	3
404.284	1	9
404.625	1	-1
404.967	1	-4
405.308	1	-1
405.649	1	6
405.991	1	1
406.332	1	1
406.674	1	-9
407.015	1	1
407.357	1	5
407.698	1	7
408.040	1	-10
408.381	1	8
408.722	1	-25
409.064	1	-6
409.405	1	6
409.747	1	-3
410.088	1	-3
410.430	1	1
410.771	1	-2
411.112	1	-1
411.454	1	0
411.795	1	-7
412.137	1	6
412.478	1	0
412.819	1	2
413.161	1	-5
413.502	1	-4
413.844	1	-4
414.185	1	7
414.526	1	-4
414.868	1	3
415.209	1	-2
415.550	1	-6
415.892	1	0
416.233	1	10
416.575	1	13
416.916	1	-11
417.257	1	-3
417.599	1	-4
417.940	1	17
418.281	1	5
418.623	1	-7
418.964	1	-9
419.305	1	5
419.647	1	-1
419.988	1	-4
420.329	1	-13
420.671	1	7
421.012	1	4
421.353	1	-4
421.695	1	-12
422.036	1	-6
422.377	1	-13
422.718	1	5
423.060	1	-1
423.401	1	-6
423.742	1	2
424.084	1	-7
424.425	1	9
424.766	1	-2
425.107	1	-4
425.449	1	-5
425.790	1	-8
426.131	1	-5
426.472	1	4
426.814	1	-6
427.155	1	-9
427.496	1	0
427.837	1	-10
428.179	1	-2
428.520	1	2
428.861	1	-5
429.202	1	1
429.544	1	-7
429.885	1	2
430.226	1	-12
430.567	1	-3
430.909	1	7
431.250	1	-8
431.591	1	10
431.932	1	-14
432.273	1	-2
432.615	1	-6
432.956	1	-7
433.297	1	2
433.638	1	-2
433.979	1	0
434.320	1	1
434.662	1	-2
435.003	1	3
435.344	1	-8
435.685	1	-12
436.026	1	10
436.368	1	5
436.709	1	1
437.050	1	-10
437.391	1	5
437.732	1	-3
438.073	1	-3
438.414	1	-16
438.756	1	-11
439.097	1	-3
439.438	1	-11
439.779	1	6
440.120	1	2
440.461	1	-5
440.802	1	-4
441.143	1	4
441.485	1	6
441.826	1	-3
442.167	1	3
442.508	1	-6
442.849	1	3
443.190	1	7
443.531	1	8
443.872	1	14
444.213	1	-4
444.554	1	6
444.895	1	-9
445.237	1	-9
445.578	1	-16
445.919	1	-12
446.260	1	-13
446.601	1	0
446.942	1	-7
447.283	1	-3
447.624	1	-9
447.965	1	4
448.306	1	-3
448.647	1	-11
448.988	1	-5
449.329	1	-5
449.670	1	13
450.011	1	5
450.352	1	1
450.693	1	-6
451.034	1	-5
451.375	1	1
451.716	1	-3
452.057	1	4
452.398	1	2
452.739	1	1
453.080	1	-5
453.421	1	0
453.762	1	0
454.103	1	3
454.444	1	-4
454.785	1	3
455.126	1	-10
455.467	1	-6
455.808	1	0
456.149	1	0
456.490	1	-4
456.831	1	4
457.172	1	-3
457.513	1	4
457.854	1	-1
458.195	1	-14
458.536	1	2
458.877	1	-2
459.218	1	4
459.559	1	-7
459.899	1	3
460.240	1	-3
460.581	1	15
460.922	1	5
461.263	1	-4
461.604	1	-7
461.945	1	-7
462.286	1	-2
462.627	1	1
462.968	1	6
463.309	1	-10
463.649	1	0
463.990	1	-2
464.331	1	0
464.672	1	-4
465.013	1	-5
465.354	1	-3
465.695	1	-14
466.036	1	-5
466.376	1	-5
466.717	1	0
467.058	1	-6
467.399	1	2
467.740	1	-3
468.081	1	7
468.422	1	-5
468.762	1	-3
469.103	1	-3
469.444	1	-8
469.785	1	-10
470.126	1	-1
470.467	1	-2
470.807	1	6
471.148	1	1
471.489	1	-8
471.830	1	-5
472.171	1	-1
472.511	1	-6
472.852	1	-6
473.193	1	8
473.534	1	3
473.875	1	11
474.215	1	11
474.556	1	2
474.897	1	7
475.238	1	-7
475.578	1	-9
475.919	1	-4
476.260	1	-5
476.601	1	0
476.942	1	5
477.282	1	-4
477.623	1	-15
477.964	1	-6
478.305	1	-1
478.645	1	10
478.986	1	-9
479.327	1	-15
479.667	1	-2
480.008	1	-3
480.349	1	0
480.690	1	1
481.030	1	-8
481.371	1	4
481.712	1	5
482.053	1	3
482.393	1	-1
482.734	1	-10
483.075	1	-10
483.415	1	0
483.756	1	4
484.097	1	-3
484.437	1	-7
484.778	1	4
485.119	1	3
485.459	1	12
485.800	1	-7
486.141	1	-6
486.481	1	-7
486.822	1	0
487.163	1	-7
487.503	1	-6
487.844	1	-6
488.185	1	-7
488.525	1	1
488.866	1	6
489.207	1	1
489.547	1	2
489.888	1	-13
490.228	1	9
490.569	1	0
490.910	1	2
491.250	1	-4
491.591	1	-19
491.932	1	-1
492.272	1	-4
492.613	1	-9
492.953	1	-4
493.294	1	-6
493.635	1	-6
493.975	1	4
494.316	1	-2
494.656	1	-1
494.997	1	-3
495.337	1	11
495.678	1	-1
496.019	1	4
496.359	1	-5
496.700	1	2
497.040	1	-7
497.381	1	-3
497.721	1	1
498.062	1	-2
498.403	1	-2
498.743	1	-1
499.084	1	-15
499.424	1	1
499.765	1	-10
500.105	1	-3
500.446	1	-10
500.786	1	-6
501.127	1	-1
501.467	1	-2
501.808	1	-3
502.148	1	-1
502.489	1	7
502.829	1	-4
503.170	1	3
503.510	1	7
503.851	1	-5
504.191	1	-2
504.532	1	-4
504.872	1	-1
505.213	1	1
505.553	1	-8
505.894	1	-9
506.234	1	3
506.575	1	1
506.915	1	-1
507.256	1	6
507.596	1	4
507.936	1	1
508.277	1	-11
508.617	1	-1
508.958	1	-12
509.298	1	-1
509.639	1	-2
509.979	1	-5
510.319	1	4
510.660	1	-3
511.000	1	-12
511.341	1	0
511.681	1	1
512.022	1	-1
512.362	1	-19
512.702	1	-3
513.043	1	0
513.383	1	-14
513.724	1	2
514.064	1	5
514.404	1	-3
514.745	1	-7
515.085	1	0
515.425	1	-6
515.766	1	-10
516.106	1	-6
516.447	1	13
516.787	1	3
517.127	1	-5
517.468	1	-8
517.808	1	-5
518.148	1	9
518.489	1	-10
518.829	1	7
519.169	1	-3
519.510	1	-2
519.850	1	6
520.190	1	0
520.531	1	4
520.871	1	-3
521.211	1	-12
521.552	1	3
521.892	1	0
522.232	1	4
522.573	1	-2
522.913	1	3
523.253	1	0
523.593	1	1
523.934	1	2
524.274	1	-2
524.614	1	-7
524.955	1	3
525.295	1	-2
525.635	1	-2
525.975	1	9
526.316	1	9
526.656	1	-6
526.996	1	-3
527.337	1	-3
527.677	1	-4
528.017	1	-17
528.357	1	-2
528.698	1	0
529.038	1	4
529.378	1	-5
529.718	1	4
530.058	1	1
530.399	1	-5
530.739	1	3
531.079	1	0
531.419	1	-5
531.760	1	-7
532.100	1	-1
532.440	1	-1
532.780	1	-3
533.120	1	-1
533.461	1	0
533.801	1	12
534.141	1	-17
534.481	1	-11
534.821	1	-1
535.162	1	2
535.502	1	-10
535.842	1	3
536.182	1	-8
536.522	1	-7
536.862	1	7
537.203	1	-8
537.543	1	-3
537.883	1	-4
538.223	1	2
538.563	1	8
538.903	1	-7
539.243	1	-3
539.584	1	-1
539.924	1	0
540.264	1	-12
540.604	1	9
540.944	1	1
541.284	1	5
541.624	1	7
541.964	1	5
542.305	1	2
542.645	1	-3
542.985	1	6
543.325	1	-1
543.665	1	12
544.005	1	13
544.345	1	8
544.685	1	0
545.025	1	0
545.365	1	2
545.705	1	-6
546.045	1	-6
546.386	1	6
546.726	1	0
547.066	1	1
547.406	1	1
547.746	1	-11
548.086	1	5
548.426	1	-11
548.766	1	2
549.106	1	-5
549.446	1	2
549.786	1	-2
550.126	1	11
550.466	1	-4
550.806	1	-1
551.146	1	4
551.486	1	-6
551.826	1	-2
552.166	1	2
552.506	1	8
552.846	1	-4
553.186	1	3
553.526	1	-3
553.866	1	1
554.206	1	3
554.546	1	2
554.886	1	5
555.226	1	-10
555.566	1	7
555.906	1	2
556.246	1	-1
556.586	1	9
556.926	1	8
557.266	1	-9
557.606	1	6
557.946	1	12
558.286	1	-2
558.626	1	-4
558.966	1	-11
559.306	1	-5
559.646	1	-10
559.986	1	-8
560.325	1	-19
560.665	1	-5
561.005	1	-7
561.345	1	-11
561.685	1	-1
562.025	1	3
562.365	1	4
562.705	1	1
563.045	1	-1
563.385	1	-3
563.725	1	4
564.064	1	-8
564.404	1	4
564.744	1	-1
565.084	1	-3
565.424	1	0
565.764	1	-2
566.104	1	-9
566.444	1	1
566.783	1	0
567.123	1	-5
567.463	1	1
567.803	1	-7
568.143	1	-1
568.483	1	-3
568.823	1	-1
569.162	1	10
569.502	1	-2
569.842	1	6
570.182	1	0
570.522	1	-12
570.862	1	-6
571.201	1	2
571.541	1	-2
571.881	1	16
572.221	1	-13
572.561	1	-4
572.900	1	-8
573.240	1	-5
573.580	1	9
573.920	1	3
574.260	1	9
574.599	1	-8
574.939	1	-6
575.279	1	6
575.619	1	5
575.959	1	-6
576.298	1	0
576.638	1	-6
576.978	1	6
577.318	1	6
577.657	1	-3
577.997	1	-8
578.337	1	1
578.677	1	3
579.016	1	13
579.356	1	-2
579.696	1	4
580.036	1	2
580.375	1	-5
580.715	1	0
581.055	1	-2
581.394	1	3
581.734	1	-10
582.074	1	-12
582.414	1	5
582.753	1	-1
583.093	1	-3
583.433	1	-2
583.772	1	5
584.112	1	-2
584.452	1	-3
584.791	1	-7
585.131	1	2
585.471	1	-5
585.811	1	3
586.150	1	-3
586.490	1	7
586.830	1	-8
587.169	1	2
587.509	1	-10
587.849	1	5
588.188	1	7
588.528	1	4
588.867	1	-2
589.207	1	11
589.547	1	-2
589.886	1	2
590.226	1	4
590.566	1	-3
590.905	1	-8
591.245	1	-9
591.585	1	5
591.924	1	-2
592.264	1	3
592.603	1	4
592.943	1	10
593.283	1	-2
593.622	1	-2
593.962	1	-3
594.301	1	0
594.641	1	-10
594.981	1	-8
595.320	1	-3
595.660	1	4
595.999	1	-7
596.339	1	-3
596.678	1	-13
597.018	1	-7
597.358	1	-4
597.697	1	-3
598.037	1	-7
598.376	1	6
598.716	1	-2
599.055	1	4
599.395	1	0
599.734	1	2
600.074	1	10
600.413	1	5
600.753	1	1
601.092	1	3
601.432	1	-18
601.771	1	2
602.111	1	3
602.451	1	9
602.790	1	-8
603.130	1	-2
603.469	1	-6
603.809	1	-7
604.148	1	-1
604.487	1	-2
604.827	1	1
605.166	1	9
605.506	1	1
605.845	1	-5
606.185	1	2
606.524	1	-13
606.864	1	9
607.203	1	1
607.543	1	0
607.882	1	2
608.222	1	1
608.561	1	0
608.901	1	-2
609.240	1	-1
609.579	1	3
609.919	1	5
610.258	1	8
610.598	1	-4
610.937	1	4
611.277	1	0
611.616	1	-6
611.955	1	4
612.295	1	-13
612.634	1	-3
612.974	1	-10
613.313	1	3
613.652	1	0
613.992	1	-1
614.331	1	-2
614.671	1	3
615.010	1	-15
615.349	1	-2
615.689	1	-1
616.028	1	1
616.368	1	4
616.707	1	0
617.046	1	-2
617.386	1	0
617.725	1	-6
618.064	1	-10
618.404	1	-4
618.743	1	12
619.082	1	-6
619.422	1	-3
619.761	1	2
620.100	1	7
620.440	1	-1
620.779	1	-11
621.118	1	-2
621.458	1	9
621.797	1	-5
622.136	1	9
622.476	1	-1
622.815	1	3
623.154	1	1
623.494	1	7
623.833	1	1
624.172	1	3
624.511	1	3
624.851	1	-4
625.190	1	0
625.529	1	-6
625.869	1	4
626.208	1	0
626.547	1	3
626.886	1	6
627.226	1	2
627.565	1	-2
627.904	1	-4
628.243	1	-1
628.583	1	-3
628.922	1	1
629.261	1	6
629.600	1	16
629.940	1	-10
630.279	1	-8
630.618	1	-9
630.957	1	-7
631.297	1	-8
631.636	1	-18
631.975	1	15
632.314	1	-4
632.653	1	-2
632.993	1	-7
633.332	1	-1
633.671	1	-6
634.010	1	-8
634.349	1	12
634.689	1	-5
635.028	1	9
635.367	1	-4
635.706	1	-1
636.045	1	4
636.384	1	-5
636.724	1	5
637.063	1	-5
637.402	1	-8
637.741	1	0
638.080	1	-5
638.419	1	-9
638.759	1	-11
639.098	1	1
639.437	1	2
639.776	1	-2
640.115	1	-3
640.454	1	-4
640.793	1	1
641.132	1	9
641.472	1	4
641.811	1	-8
642.150	1	-2
642.489	1	4
642.828	1	-7
643.167	1	-15
643.506	1	-9
643.845	1	-4
644.184	1	3
644.524	1	-5
644.863	1	-9
645.202	1	-1
645.541	1	-4
645.880	1	-10
646.219	1	-8
646.558	1	2
646.897	1	-3
647.236	1	3
647.575	1	-6
647.914	1	-4
648.253	1	12
648.592	1	-11
648.931	1	7
649.270	1	-6
649.610	1	-5
649.949	1	-6
650.288	1	8
650.627	1	4
650.966	1	-1
651.305	1	0
651.644	1	7
651.983	1	9
652.322	1	-3
652.661	1	-8
653.000	1	-5
653.339	1	6
653.678	1	4
654.017	1	-2
654.356	1	-9
654.695	1	8
655.034	1	4
655.373	1	-2
655.712	1	-1
656.051	1	2
656.390	1	-7
656.729	1	7
657.068	1	9
657.406	1	3
657.745	1	-2
658.084	1	0
658.423	1	14
658.762	1	-5
659.101	1	9
659.440	1	-8
659.779	1	1
660.118	1	-6
660.457	1	8
660.796	1	-12
661.135	1	-8
661.474	1	-8
661.813	1	12
662.152	1	0
662.491	1	1
662.829	1	-11
663.168	1	-2
663.507	1	5
663.846	1	-7
664.185	1	3
664.524	1	-5
664.863	1	-9
665.202	1	5
665.541	1	-10
665.879	1	-10
666.218	1	-5
666.557	1	-3
666.896	1	1
667.235	1	5
667.574	1	5
667.913	1	-6
668.251	1	-10
668.590	1	-1
668.929	1	-18
669.268	1	0
669.607	1	-7
669.946	1	0
670.285	1	7
670.623	1	-3
670.962	1	0
671.301	1	2
671.640	1	5
671.979	1	-11
672.317	1	8
672.656	1	-5
672.995	1	1
673.334	1	-4
673.673	1	-10
674.011	1	1
674.350	1	1
674.689	1	-1
675.028	1	-6
675.367	1	5
675.705	1	-2
676.044	1	-6
676.383	1	4
676.722	1	8
677.060	1	-6
677.399	1	-5
677.738	1	-1
678.077	1	5
678.416	1	5
678.754	1	-4
679.093	1	1
679.432	1	-5
679.771	1	3
680.109	1	12
680.448	1	4
680.787	1	8
681.125	1	7
681.464	1	-3
681.803	1	-5
682.142	1	3
682.480	1	7
682.819	1	-2
683.158	1	-7
683.496	1	7
683.835	1	1
684.174	1	4
684.512	1	3
684.851	1	5
685.190	1	-3
685.529	1	-9
685.867	1	-4
686.206	1	-3
686.545	1	-6
686.883	1	3
687.222	1	2
687.561	1	-4
687.899	1	-2
688.238	1	2
688.577	1	-7
688.746	1	-2