File: Data/GaN_200K_800ms/GaN_sample F_spot 12_UVVIS_200 K_200um_800 ms 2x2mm1_418.txt
340.368	1	-5
340.710	1	-6
341.052	1	0
341.394	1	-2
341.737	1	0
342.079	1	-6
342.421	1	6
342.763	1	-4
343.105	1	0
343.447	1	-11
343.789	1	0
344.131	1	-11
344.473	1	2
344.815	1	-7
345.157	1	-10
345.499	1	-1
345.841	1	9
346.183	1	-11
346.526	1	1
346.868	1	12
347.210	1	-6
347.552	1	-9
347.894	1	1
348.236	1	10
348.578	1	0
348.920	1	0
349.262	1	-1
349.604	1	-5
349.946	1	-10
350.288	1	9
350.630	1	3
350.972	1	-1
351.314	1	1
351.656	1	2
351.998	1	9
352.340	1	0
352.682	1	1
353.024	1	-7
353.366	1	9
353.708	1	-4
354.050	1	-13
354.392	1	-3
354.734	1	-1
355.076	1	3
355.418	1	-13
355.760	1	-2
356.102	1	4
356.444	1	0
356.785	1	9
357.127	1	-5
357.469	1	5
357.811	1	3
358.153	1	4
358.495	1	2
358.837	1	-14
359.179	1	-9
359.521	1	7
359.863	1	4
360.205	1	-5
360.547	1	3
360.889	1	-3
361.231	1	-2
361.572	1	9
361.914	1	-2
362.256	1	8
362.598	1	-3
362.940	1	-4
363.282	1	-2
363.624	1	6
363.966	1	4
364.308	1	3
364.649	1	10
364.991	1	-3
365.333	1	7
365.675	1	2
366.017	1	7
366.359	1	3
366.701	1	1
367.042	1	8
367.384	1	8
367.726	1	11
368.068	1	12
368.410	1	12
368.752	1	6
369.093	1	3
369.435	1	16
369.777	1	10
370.119	1	10
370.461	1	24
370.803	1	6
371.144	1	5
371.486	1	15
371.828	1	15
372.170	1	11
372.512	1	0
372.853	1	14
373.195	1	4
373.537	1	6
373.879	1	7
374.220	1	7
374.562	1	14
374.904	1	0
375.246	1	9
375.588	1	3
375.929	1	8
376.271	1	5
376.613	1	4
376.955	1	-2
377.296	1	7
377.638	1	4
377.980	1	11
378.321	1	-9
378.663	1	-5
379.005	1	4
379.347	1	6
379.688	1	2
380.030	1	-2
380.372	1	4
380.714	1	18
381.055	1	12
381.397	1	-3
381.739	1	8
382.080	1	6
382.422	1	5
382.764	1	-5
383.105	1	2
383.447	1	-8
383.789	1	-8
384.130	1	-1
384.472	1	0
384.814	1	2
385.156	1	-3
385.497	1	3
385.839	1	-3
386.180	1	1
386.522	1	9
386.864	1	4
387.205	1	-3
387.547	1	-6
387.889	1	7
388.230	1	10
388.572	1	2
388.914	1	7
389.255	1	4
389.597	1	-3
389.939	1	4
390.280	1	4
390.622	1	-2
390.963	1	7
391.305	1	5
391.647	1	3
391.988	1	4
392.330	1	2
392.671	1	-4
393.013	1	-1
393.355	1	2
393.696	1	0
394.038	1	-3
394.379	1	1
394.721	1	0
395.062	1	4
395.404	1	-9
395.746	1	16
396.087	1	-1
396.429	1	2
396.770	1	-3
397.112	1	3
397.453	1	6
397.795	1	-2
398.136	1	-8
398.478	1	4
398.819	1	2
399.161	1	16
399.503	1	-1
399.844	1	-10
400.186	1	1
400.527	1	-8
400.869	1	0
401.210	1	1
401.552	1	-9
401.893	1	-9
402.235	1	0
402.576	1	-6
402.918	1	3
403.259	1	6
403.601	1	2
403.942	1	14
404.284	1	11
404.625	1	-3
404.967	1	4
405.308	1	5
405.649	1	0
405.991	1	0
406.332	1	-4
406.674	1	-10
407.015	1	2
407.357	1	4
407.698	1	11
408.040	1	3
408.381	1	2
408.722	1	-6
409.064	1	1
409.405	1	7
409.747	1	-1
410.088	1	-1
410.430	1	5
410.771	1	-3
411.112	1	-6
411.454	1	-8
411.795	1	-6
412.137	1	9
412.478	1	9
412.819	1	-1
413.161	1	0
413.502	1	3
413.844	1	-1
414.185	1	8
414.526	1	-4
414.868	1	-1
415.209	1	-11
415.550	1	-3
415.892	1	2
416.233	1	-4
416.575	1	9
416.916	1	-6
417.257	1	-5
417.599	1	1
417.940	1	8
418.281	1	3
418.623	1	-7
418.964	1	-12
419.305	1	5
419.647	1	0
419.988	1	-4
420.329	1	-16
420.671	1	7
421.012	1	-2
421.353	1	0
421.695	1	-6
422.036	1	1
422.377	1	-2
422.718	1	12
423.060	1	-9
423.401	1	3
423.742	1	-2
424.084	1	-10
424.425	1	3
424.766	1	-9
425.107	1	-6
425.449	1	-10
425.790	1	-11
426.131	1	-2
426.472	1	2
426.814	1	7
427.155	1	-1
427.496	1	-9
427.837	1	0
428.179	1	-5
428.520	1	-3
428.861	1	-1
429.202	1	-5
429.544	1	-2
429.885	1	3
430.226	1	-13
430.567	1	0
430.909	1	-1
431.250	1	-9
431.591	1	4
431.932	1	-13
432.273	1	-1
432.615	1	-11
432.956	1	-12
433.297	1	-2
433.638	1	3
433.979	1	9
434.320	1	0
434.662	1	-3
435.003	1	3
435.344	1	2
435.685	1	8
436.026	1	5
436.368	1	-3
436.709	1	-6
437.050	1	-4
437.391	1	4
437.732	1	-12
438.073	1	-1
438.414	1	-13
438.756	1	-13
439.097	1	-1
439.438	1	2
439.779	1	-1
440.120	1	-3
440.461	1	-1
440.802	1	-9
441.143	1	7
441.485	1	4
441.826	1	4
442.167	1	0
442.508	1	-8
442.849	1	8
443.190	1	-3
443.531	1	7
443.872	1	4
444.213	1	2
444.554	1	8
444.895	1	2
445.237	1	-2
445.578	1	-14
445.919	1	-12
446.260	1	-5
446.601	1	0
446.942	1	0
447.283	1	-9
447.624	1	-4
447.965	1	-1
448.306	1	1
448.647	1	-11
448.988	1	-3
449.329	1	-4
449.670	1	0
450.011	1	9
450.352	1	-5
450.693	1	-3
451.034	1	-10
451.375	1	-2
451.716	1	4
452.057	1	6
452.398	1	-5
452.739	1	2
453.080	1	0
453.421	1	-5
453.762	1	5
454.103	1	-3
454.444	1	-11
454.785	1	-9
455.126	1	-9
455.467	1	5
455.808	1	-4
456.149	1	2
456.490	1	-1
456.831	1	14
457.172	1	-8
457.513	1	8
457.854	1	-3
458.195	1	-2
458.536	1	6
458.877	1	-1
459.218	1	0
459.559	1	-2
459.899	1	-5
460.240	1	5
460.581	1	9
460.922	1	-5
461.263	1	4
461.604	1	-5
461.945	1	-3
462.286	1	-4
462.627	1	8
462.968	1	-5
463.309	1	-6
463.649	1	6
463.990	1	-5
464.331	1	-2
464.672	1	-7
465.013	1	-11
465.354	1	-3
465.695	1	-2
466.036	1	-6
466.376	1	-15
466.717	1	-6
467.058	1	5
467.399	1	3
467.740	1	-3
468.081	1	-5
468.422	1	-7
468.762	1	-9
469.103	1	-8
469.444	1	-7
469.785	1	-16
470.126	1	-15
470.467	1	-6
470.807	1	-3
471.148	1	3
471.489	1	3
471.830	1	-4
472.171	1	4
472.511	1	-9
472.852	1	2
473.193	1	-1
473.534	1	4
473.875	1	7
474.215	1	3
474.556	1	2
474.897	1	5
475.238	1	-4
475.578	1	-2
475.919	1	0
476.260	1	3
476.601	1	0
476.942	1	0
477.282	1	-1
477.623	1	-8
477.964	1	-6
478.305	1	-5
478.645	1	8
478.986	1	-1
479.327	1	-7
479.667	1	-2
480.008	1	0
480.349	1	-5
480.690	1	-1
481.030	1	-8
481.371	1	3
481.712	1	4
482.053	1	9
482.393	1	-4
482.734	1	-6
483.075	1	-9
483.415	1	0
483.756	1	1
484.097	1	-9
484.437	1	0
484.778	1	0
485.119	1	-6
485.459	1	20
485.800	1	-2
486.141	1	-9
486.481	1	4
486.822	1	4
487.163	1	6
487.503	1	-1
487.844	1	1
488.185	1	3
488.525	1	-4
488.866	1	-8
489.207	1	0
489.547	1	-1
489.888	1	-12
490.228	1	6
490.569	1	7
490.910	1	-9
491.250	1	-5
491.591	1	-6
491.932	1	-2
492.272	1	2
492.613	1	-6
492.953	1	-4
493.294	1	0
493.635	1	-3
493.975	1	-7
494.316	1	-8
494.656	1	-5
494.997	1	-5
495.337	1	2
495.678	1	3
496.019	1	2
496.359	1	-3
496.700	1	-1
497.040	1	-5
497.381	1	2
497.721	1	-4
498.062	1	1
498.403	1	6
498.743	1	-1
499.084	1	-15
499.424	1	1
499.765	1	-2
500.105	1	1
500.446	1	-4
500.786	1	-9
501.127	1	-1
501.467	1	-2
501.808	1	8
502.148	1	-2
502.489	1	-3
502.829	1	-6
503.170	1	8
503.510	1	3
503.851	1	-1
504.191	1	10
504.532	1	6
504.872	1	-4
505.213	1	0
505.553	1	-6
505.894	1	-12
506.234	1	-2
506.575	1	-4
506.915	1	12
507.256	1	3
507.596	1	2
507.936	1	5
508.277	1	1
508.617	1	0
508.958	1	-6
509.298	1	11
509.639	1	0
509.979	1	2
510.319	1	7
510.660	1	-4
511.000	1	-5
511.341	1	2
511.681	1	3
512.022	1	-6
512.362	1	-5
512.702	1	5
513.043	1	4
513.383	1	-18
513.724	1	-4
514.064	1	14
514.404	1	-4
514.745	1	-4
515.085	1	-3
515.425	1	-5
515.766	1	-9
516.106	1	3
516.447	1	14
516.787	1	7
517.127	1	-4
517.468	1	-5
517.808	1	-12
518.148	1	-3
518.489	1	-3
518.829	1	10
519.169	1	-5
519.510	1	1
519.850	1	1
520.190	1	-4
520.531	1	1
520.871	1	5
521.211	1	-9
521.552	1	5
521.892	1	14
522.232	1	3
522.573	1	-1
522.913	1	-3
523.253	1	-5
523.593	1	-3
523.934	1	-6
524.274	1	-6
524.614	1	-6
524.955	1	-11
525.295	1	-2
525.635	1	-1
525.975	1	2
526.316	1	8
526.656	1	2
526.996	1	-3
527.337	1	-3
527.677	1	3
528.017	1	-3
528.357	1	-6
528.698	1	4
529.038	1	0
529.378	1	3
529.718	1	3
530.058	1	-5
530.399	1	2
530.739	1	2
531.079	1	6
531.419	1	-3
531.760	1	3
532.100	1	-7
532.440	1	-1
532.780	1	-8
533.120	1	12
533.461	1	-4
533.801	1	14
534.141	1	-10
534.481	1	-7
534.821	1	11
535.162	1	-6
535.502	1	-4
535.842	1	3
536.182	1	-2
536.522	1	-4
536.862	1	13
537.203	1	-10
537.543	1	-3
537.883	1	-2
538.223	1	-3
538.563	1	-1
538.903	1	-6
539.243	1	0
539.584	1	1
539.924	1	17
540.264	1	-1
540.604	1	4
540.944	1	-4
541.284	1	13
541.624	1	-2
541.964	1	6
542.305	1	3
542.645	1	2
542.985	1	-1
543.325	1	-3
543.665	1	7
544.005	1	14
544.345	1	-4
544.685	1	-5
545.025	1	3
545.365	1	-2
545.705	1	-2
546.045	1	-3
546.386	1	3
546.726	1	-9
547.066	1	-2
547.406	1	0
547.746	1	-15
548.086	1	1
548.426	1	-5
548.766	1	2
549.106	1	0
549.446	1	-5
549.786	1	-6
550.126	1	11
550.466	1	7
550.806	1	-3
551.146	1	-1
551.486	1	-7
551.826	1	-2
552.166	1	4
552.506	1	9
552.846	1	-8
553.186	1	-2
553.526	1	-4
553.866	1	-3
554.206	1	0
554.546	1	5
554.886	1	1
555.226	1	-13
555.566	1	8
555.906	1	-3
556.246	1	-3
556.586	1	-5
556.926	1	10
557.266	1	-6
557.606	1	0
557.946	1	7
558.286	1	-2
558.626	1	17
558.966	1	1
559.306	1	-5
559.646	1	-10
559.986	1	-6
560.325	1	-5
560.665	1	2
561.005	1	-16
561.345	1	-2
561.685	1	-4
562.025	1	-12
562.365	1	6
562.705	1	-2
563.045	1	-4
563.385	1	-19
563.725	1	-9
564.064	1	-6
564.404	1	5
564.744	1	-8
565.084	1	3
565.424	1	1
565.764	1	-2
566.104	1	2
566.444	1	-3
566.783	1	2
567.123	1	4
567.463	1	10
567.803	1	-3
568.143	1	-4
568.483	1	-2
568.823	1	3
569.162	1	7
569.502	1	-1
569.842	1	7
570.182	1	1
570.522	1	-9
570.862	1	1
571.201	1	6
571.541	1	6
571.881	1	15
572.221	1	1
572.561	1	-10
572.900	1	0
573.240	1	-2
573.580	1	-1
573.920	1	3
574.260	1	15
574.599	1	10
574.939	1	7
575.279	1	17
575.619	1	7
575.959	1	-8
576.298	1	12
576.638	1	-7
576.978	1	4
577.318	1	-3
577.657	1	-5
577.997	1	-6
578.337	1	9
578.677	1	-1
579.016	1	1
579.356	1	-6
579.696	1	6
580.036	1	0
580.375	1	-2
580.715	1	-6
581.055	1	-7
581.394	1	-5
581.734	1	-10
582.074	1	-4
582.414	1	6
582.753	1	-2
583.093	1	-4
583.433	1	2
583.772	1	5
584.112	1	-8
584.452	1	5
584.791	1	-7
585.131	1	4
585.471	1	3
585.811	1	3
586.150	1	1
586.490	1	0
586.830	1	4
587.169	1	4
587.509	1	4
587.849	1	0
588.188	1	11
588.528	1	-5
588.867	1	-6
589.207	1	0
589.547	1	1
589.886	1	-8
590.226	1	3
590.566	1	-7
590.905	1	2
591.245	1	-3
591.585	1	6
591.924	1	6
592.264	1	-3
592.603	1	-1
592.943	1	7
593.283	1	1
593.622	1	-6
593.962	1	-2
594.301	1	0
594.641	1	-8
594.981	1	0
595.320	1	3
595.660	1	-1
595.999	1	-10
596.339	1	-3
596.678	1	-5
597.018	1	0
597.358	1	6
597.697	1	-5
598.037	1	2
598.376	1	0
598.716	1	4
599.055	1	-1
599.395	1	-7
599.734	1	6
600.074	1	-3
600.413	1	2
600.753	1	-1
601.092	1	5
601.432	1	-10
601.771	1	8
602.111	1	6
602.451	1	11
602.790	1	4
603.130	1	5
603.469	1	-5
603.809	1	11
604.148	1	4
604.487	1	-7
604.827	1	6
605.166	1	-1
605.506	1	4
605.845	1	1
606.185	1	1
606.524	1	-1
606.864	1	3
607.203	1	-10
607.543	1	-3
607.882	1	-4
608.222	1	8
608.561	1	5
608.901	1	7
609.240	1	7
609.579	1	6
609.919	1	9
610.258	1	5
610.598	1	-3
610.937	1	-3
611.277	1	-7
611.616	1	-3
611.955	1	-7
612.295	1	-6
612.634	1	6
612.974	1	-8
613.313	1	11
613.652	1	-2
613.992	1	3
614.331	1	0
614.671	1	2
615.010	1	-10
615.349	1	2
615.689	1	12
616.028	1	3
616.368	1	3
616.707	1	4
617.046	1	-4
617.386	1	-5
617.725	1	1
618.064	1	-3
618.404	1	-7
618.743	1	-7
619.082	1	-4
619.422	1	-9
619.761	1	1
620.100	1	7
620.440	1	-3
620.779	1	-1
621.118	1	-13
621.458	1	3
621.797	1	-2
622.136	1	12
622.476	1	1
622.815	1	7
623.154	1	-2
623.494	1	15
623.833	1	5
624.172	1	1
624.511	1	5
624.851	1	-4
625.190	1	-1
625.529	1	4
625.869	1	7
626.208	1	1
626.547	1	-4
626.886	1	-1
627.226	1	8
627.565	1	7
627.904	1	1
628.243	1	5
628.583	1	-7
628.922	1	10
629.261	1	3
629.600	1	1
629.940	1	0
630.279	1	-8
630.618	1	-4
630.957	1	-6
631.297	1	-6
631.636	1	-7
631.975	1	-3
632.314	1	4
632.653	1	7
632.993	1	-7
633.332	1	-1
633.671	1	-15
634.010	1	-10
634.349	1	0
634.689	1	4
635.028	1	4
635.367	1	3
635.706	1	-1
636.045	1	-3
636.384	1	-1
636.724	1	-2
637.063	1	-7
637.402	1	-1
637.741	1	-1
638.080	1	3
638.419	1	2
638.759	1	-8
639.098	1	5
639.437	1	4
639.776	1	8
640.115	1	-5
640.454	1	-1
640.793	1	9
641.132	1	13
641.472	1	6
641.811	1	6
642.150	1	-5
642.489	1	4
642.828	1	-8
643.167	1	-7
643.506	1	-7
643.845	1	-1
644.184	1	1
644.524	1	-3
644.863	1	-5
645.202	1	-2
645.541	1	0
645.880	1	6
646.219	1	-1
646.558	1	5
646.897	1	2
647.236	1	-1
647.575	1	0
647.914	1	-9
648.253	1	6
648.592	1	-4
648.931	1	5
649.270	1	-3
649.610	1	3
649.949	1	0
650.288	1	-1
650.627	1	0
650.966	1	-5
651.305	1	-1
651.644	1	4
651.983	1	-3
652.322	1	-6
652.661	1	-5
653.000	1	-1
653.339	1	10
653.678	1	5
654.017	1	-5
654.356	1	2
654.695	1	2
655.034	1	9
655.373	1	7
655.712	1	-6
656.051	1	-5
656.390	1	-3
656.729	1	7
657.068	1	4
657.406	1	-4
657.745	1	-3
658.084	1	0
658.423	1	9
658.762	1	3
659.101	1	8
659.440	1	3
659.779	1	0
660.118	1	0
660.457	1	-5
660.796	1	-8
661.135	1	-11
661.474	1	-2
661.813	1	1
662.152	1	0
662.491	1	-7
662.829	1	-4
663.168	1	1
663.507	1	10
663.846	1	0
664.185	1	-9
664.524	1	6
664.863	1	-2
665.202	1	0
665.541	1	-10
665.879	1	-10
666.218	1	-11
666.557	1	-1
666.896	1	-1
667.235	1	-1
667.574	1	-3
667.913	1	-7
668.251	1	-9
668.590	1	1
668.929	1	-7
669.268	1	-7
669.607	1	-4
669.946	1	-1
670.285	1	7
670.623	1	-3
670.962	1	2
671.301	1	-3
671.640	1	0
671.979	1	-7
672.317	1	3
672.656	1	0
672.995	1	5
673.334	1	-5
673.673	1	-1
674.011	1	3
674.350	1	1
674.689	1	0
675.028	1	-3
675.367	1	0
675.705	1	-1
676.044	1	-2
676.383	1	0
676.722	1	4
677.060	1	-2
677.399	1	-4
677.738	1	0
678.077	1	-4
678.416	1	1
678.754	1	-4
679.093	1	-4
679.432	1	-7
679.771	1	8
680.109	1	7
680.448	1	-8
680.787	1	-4
681.125	1	-1
681.464	1	-1
681.803	1	0
682.142	1	2
682.480	1	10
682.819	1	0
683.158	1	8
683.496	1	-5
683.835	1	2
684.174	1	0
684.512	1	-4
684.851	1	3
685.190	1	-8
685.529	1	-8
685.867	1	-9
686.206	1	-7
686.545	1	-7
686.883	1	-1
687.222	1	-3
687.561	1	-6
687.899	1	-1
688.238	1	5
688.577	1	-1
688.746	1	2