File: Data/GaN_200K_800ms/GaN_sample F_spot 12_UVVIS_200 K_200um_800 ms 2x2mm1_107.txt
340.368	1	9
340.710	1	-6
341.052	1	12
341.394	1	-5
341.737	1	9
342.079	1	-5
342.421	1	-2
342.763	1	8
343.105	1	9
343.447	1	4
343.789	1	5
344.131	1	0
344.473	1	-4
344.815	1	0
345.157	1	-9
345.499	1	2
345.841	1	9
346.183	1	3
346.526	1	-3
346.868	1	5
347.210	1	-7
347.552	1	4
347.894	1	3
348.236	1	17
348.578	1	5
348.920	1	-1
349.262	1	9
349.604	1	14
349.946	1	-4
350.288	1	20
350.630	1	8
350.972	1	9
351.314	1	16
351.656	1	8
351.998	1	8
352.340	1	8
352.682	1	11
353.024	1	5
353.366	1	24
353.708	1	6
354.050	1	12
354.392	1	10
354.734	1	10
355.076	1	5
355.418	1	0
355.760	1	4
356.102	1	17
356.444	1	10
356.785	1	18
357.127	1	8
357.469	1	12
357.811	1	10
358.153	1	16
358.495	1	13
358.837	1	1
359.179	1	17
359.521	1	15
359.863	1	21
360.205	1	13
360.547	1	28
360.889	1	17
361.231	1	27
361.572	1	29
361.914	1	30
362.256	1	31
362.598	1	30
362.940	1	29
363.282	1	32
363.624	1	33
363.966	1	38
364.308	1	39
364.649	1	41
364.991	1	43
365.333	1	49
365.675	1	46
366.017	1	54
366.359	1	53
366.701	1	73
367.042	1	60
367.384	1	80
367.726	1	82
368.068	1	84
368.410	1	93
368.752	1	80
369.093	1	84
369.435	1	99
369.777	1	81
370.119	1	75
370.461	1	88
370.803	1	89
371.144	1	92
371.486	1	95
371.828	1	78
372.170	1	81
372.512	1	70
372.853	1	71
373.195	1	63
373.537	1	61
373.879	1	57
374.220	1	83
374.562	1	67
374.904	1	58
375.246	1	57
375.588	1	50
375.929	1	51
376.271	1	46
376.613	1	47
376.955	1	30
377.296	1	39
377.638	1	40
377.980	1	44
378.321	1	22
378.663	1	30
379.005	1	36
379.347	1	37
379.688	1	35
380.030	1	33
380.372	1	29
380.714	1	20
381.055	1	35
381.397	1	25
381.739	1	34
382.080	1	31
382.422	1	20
382.764	1	8
383.105	1	24
383.447	1	19
383.789	1	13
384.130	1	16
384.472	1	14
384.814	1	9
385.156	1	26
385.497	1	22
385.839	1	12
386.180	1	19
386.522	1	14
386.864	1	22
387.205	1	18
387.547	1	9
387.889	1	14
388.230	1	16
388.572	1	9
388.914	1	15
389.255	1	6
389.597	1	21
389.939	1	16
390.280	1	16
390.622	1	10
390.963	1	17
391.305	1	20
391.647	1	9
391.988	1	11
392.330	1	7
392.671	1	10
393.013	1	11
393.355	1	10
393.696	1	4
394.038	1	6
394.379	1	9
394.721	1	6
395.062	1	10
395.404	1	-1
395.746	1	11
396.087	1	-5
396.429	1	11
396.770	1	4
397.112	1	12
397.453	1	14
397.795	1	9
398.136	1	7
398.478	1	10
398.819	1	3
399.161	1	9
399.503	1	3
399.844	1	10
400.186	1	13
400.527	1	11
400.869	1	2
401.210	1	10
401.552	1	-8
401.893	1	-1
402.235	1	2
402.576	1	3
402.918	1	10
403.259	1	10
403.601	1	0
403.942	1	9
404.284	1	5
404.625	1	6
404.967	1	5
405.308	1	13
405.649	1	3
405.991	1	-9
406.332	1	4
406.674	1	4
407.015	1	11
407.357	1	3
407.698	1	11
408.040	1	0
408.381	1	2
408.722	1	-3
409.064	1	4
409.405	1	5
409.747	1	2
410.088	1	2
410.430	1	17
410.771	1	8
411.112	1	-11
411.454	1	-1
411.795	1	-7
412.137	1	9
412.478	1	24
412.819	1	-2
413.161	1	5
413.502	1	-3
413.844	1	9
414.185	1	4
414.526	1	-2
414.868	1	0
415.209	1	-4
415.550	1	6
415.892	1	6
416.233	1	13
416.575	1	10
416.916	1	-5
417.257	1	1
417.599	1	0
417.940	1	12
418.281	1	7
418.623	1	-3
418.964	1	-5
419.305	1	5
419.647	1	-2
419.988	1	2
420.329	1	-3
420.671	1	4
421.012	1	-4
421.353	1	2
421.695	1	6
422.036	1	2
422.377	1	6
422.718	1	5
423.060	1	-2
423.401	1	-3
423.742	1	-2
424.084	1	4
424.425	1	7
424.766	1	-1
425.107	1	-6
425.449	1	8
425.790	1	-13
426.131	1	8
426.472	1	2
426.814	1	2
427.155	1	-9
427.496	1	8
427.837	1	-8
428.179	1	-10
428.520	1	6
428.861	1	-2
429.202	1	3
429.544	1	0
429.885	1	10
430.226	1	-2
430.567	1	1
430.909	1	5
431.250	1	3
431.591	1	9
431.932	1	-3
432.273	1	-1
432.615	1	0
432.956	1	-4
433.297	1	-3
433.638	1	2
433.979	1	7
434.320	1	2
434.662	1	1
435.003	1	6
435.344	1	9
435.685	1	6
436.026	1	8
436.368	1	12
436.709	1	-1
437.050	1	-2
437.391	1	10
437.732	1	-1
438.073	1	10
438.414	1	-6
438.756	1	-11
439.097	1	-5
439.438	1	0
439.779	1	5
440.120	1	-1
440.461	1	4
440.802	1	-3
441.143	1	12
441.485	1	6
441.826	1	3
442.167	1	0
442.508	1	-8
442.849	1	20
443.190	1	7
443.531	1	4
443.872	1	12
444.213	1	8
444.554	1	7
444.895	1	-4
445.237	1	-10
445.578	1	-5
445.919	1	2
446.260	1	2
446.601	1	-6
446.942	1	-5
447.283	1	-3
447.624	1	3
447.965	1	8
448.306	1	3
448.647	1	-2
448.988	1	0
449.329	1	1
449.670	1	12
450.011	1	4
450.352	1	-5
450.693	1	0
451.034	1	-6
451.375	1	1
451.716	1	-2
452.057	1	-2
452.398	1	6
452.739	1	-1
453.080	1	-1
453.421	1	-1
453.762	1	4
454.103	1	9
454.444	1	-7
454.785	1	4
455.126	1	-2
455.467	1	1
455.808	1	8
456.149	1	7
456.490	1	11
456.831	1	9
457.172	1	0
457.513	1	9
457.854	1	7
458.195	1	-3
458.536	1	8
458.877	1	4
459.218	1	-3
459.559	1	9
459.899	1	2
460.240	1	5
460.581	1	15
460.922	1	9
461.263	1	-6
461.604	1	-2
461.945	1	-3
462.286	1	3
462.627	1	8
462.968	1	7
463.309	1	-4
463.649	1	-1
463.990	1	1
464.331	1	-3
464.672	1	4
465.013	1	-7
465.354	1	4
465.695	1	-5
466.036	1	0
466.376	1	-8
466.717	1	6
467.058	1	-2
467.399	1	8
467.740	1	5
468.081	1	-3
468.422	1	10
468.762	1	-8
469.103	1	-2
469.444	1	2
469.785	1	-8
470.126	1	-9
470.467	1	-6
470.807	1	-3
471.148	1	3
471.489	1	-6
471.830	1	1
472.171	1	-2
472.511	1	1
472.852	1	6
473.193	1	10
473.534	1	17
473.875	1	2
474.215	1	16
474.556	1	-2
474.897	1	7
475.238	1	-2
475.578	1	-6
475.919	1	0
476.260	1	-1
476.601	1	5
476.942	1	11
477.282	1	0
477.623	1	-11
477.964	1	-3
478.305	1	1
478.645	1	10
478.986	1	1
479.327	1	-2
479.667	1	4
480.008	1	-2
480.349	1	1
480.690	1	-5
481.030	1	-2
481.371	1	1
481.712	1	-5
482.053	1	7
482.393	1	-1
482.734	1	2
483.075	1	-1
483.415	1	0
483.756	1	20
484.097	1	3
484.437	1	-3
484.778	1	2
485.119	1	6
485.459	1	10
485.800	1	5
486.141	1	-3
486.481	1	5
486.822	1	9
487.163	1	7
487.503	1	-4
487.844	1	5
488.185	1	3
488.525	1	12
488.866	1	13
489.207	1	0
489.547	1	-1
489.888	1	-4
490.228	1	11
490.569	1	20
490.910	1	8
491.250	1	1
491.591	1	-7
491.932	1	4
492.272	1	10
492.613	1	-4
492.953	1	-2
493.294	1	3
493.635	1	0
493.975	1	-3
494.316	1	4
494.656	1	-2
494.997	1	10
495.337	1	10
495.678	1	3
496.019	1	-4
496.359	1	0
496.700	1	0
497.040	1	5
497.381	1	3
497.721	1	3
498.062	1	-2
498.403	1	13
498.743	1	5
499.084	1	0
499.424	1	2
499.765	1	-4
500.105	1	5
500.446	1	2
500.786	1	-3
501.127	1	15
501.467	1	5
501.808	1	10
502.148	1	9
502.489	1	3
502.829	1	10
503.170	1	10
503.510	1	11
503.851	1	3
504.191	1	12
504.532	1	12
504.872	1	1
505.213	1	6
505.553	1	3
505.894	1	-3
506.234	1	15
506.575	1	7
506.915	1	5
507.256	1	9
507.596	1	11
507.936	1	0
508.277	1	9
508.617	1	-1
508.958	1	-6
509.298	1	2
509.639	1	7
509.979	1	6
510.319	1	11
510.660	1	-1
511.000	1	-4
511.341	1	4
511.681	1	16
512.022	1	-3
512.362	1	-2
512.702	1	7
513.043	1	6
513.383	1	-4
513.724	1	7
514.064	1	9
514.404	1	9
514.745	1	5
515.085	1	-2
515.425	1	5
515.766	1	2
516.106	1	3
516.447	1	13
516.787	1	19
517.127	1	10
517.468	1	5
517.808	1	2
518.148	1	9
518.489	1	1
518.829	1	11
519.169	1	6
519.510	1	14
519.850	1	16
520.190	1	6
520.531	1	12
520.871	1	16
521.211	1	10
521.552	1	16
521.892	1	1
522.232	1	4
522.573	1	3
522.913	1	14
523.253	1	11
523.593	1	-5
523.934	1	4
524.274	1	-2
524.614	1	7
524.955	1	0
525.295	1	15
525.635	1	11
525.975	1	7
526.316	1	12
526.656	1	8
526.996	1	9
527.337	1	5
527.677	1	19
528.017	1	6
528.357	1	8
528.698	1	2
529.038	1	9
529.378	1	13
529.718	1	9
530.058	1	11
530.399	1	21
530.739	1	4
531.079	1	17
531.419	1	18
531.760	1	11
532.100	1	4
532.440	1	13
532.780	1	2
533.120	1	15
533.461	1	13
533.801	1	16
534.141	1	7
534.481	1	-5
534.821	1	11
535.162	1	9
535.502	1	5
535.842	1	13
536.182	1	5
536.522	1	2
536.862	1	14
537.203	1	-6
537.543	1	14
537.883	1	3
538.223	1	7
538.563	1	16
538.903	1	11
539.243	1	10
539.584	1	9
539.924	1	23
540.264	1	7
540.604	1	8
540.944	1	7
541.284	1	11
541.624	1	14
541.964	1	19
542.305	1	22
542.645	1	10
542.985	1	7
543.325	1	10
543.665	1	9
544.005	1	16
544.345	1	12
544.685	1	6
545.025	1	7
545.365	1	6
545.705	1	10
546.045	1	9
546.386	1	17
546.726	1	2
547.066	1	17
547.406	1	14
547.746	1	-6
548.086	1	8
548.426	1	7
548.766	1	14
549.106	1	3
549.446	1	11
549.786	1	3
550.126	1	19
550.466	1	9
550.806	1	-6
551.146	1	10
551.486	1	6
551.826	1	10
552.166	1	16
552.506	1	18
552.846	1	7
553.186	1	12
553.526	1	5
553.866	1	14
554.206	1	22
554.546	1	7
554.886	1	15
555.226	1	7
555.566	1	5
555.906	1	23
556.246	1	5
556.586	1	5
556.926	1	21
557.266	1	6
557.606	1	14
557.946	1	24
558.286	1	12
558.626	1	17
558.966	1	8
559.306	1	0
559.646	1	11
559.986	1	-1
560.325	1	4
560.665	1	5
561.005	1	-2
561.345	1	6
561.685	1	11
562.025	1	8
562.365	1	8
562.705	1	0
563.045	1	16
563.385	1	0
563.725	1	7
564.064	1	4
564.404	1	11
564.744	1	14
565.084	1	4
565.424	1	7
565.764	1	-1
566.104	1	10
566.444	1	3
566.783	1	8
567.123	1	18
567.463	1	14
567.803	1	3
568.143	1	7
568.483	1	13
568.823	1	6
569.162	1	17
569.502	1	8
569.842	1	22
570.182	1	7
570.522	1	7
570.862	1	3
571.201	1	15
571.541	1	10
571.881	1	21
572.221	1	11
572.561	1	6
572.900	1	11
573.240	1	8
573.580	1	7
573.920	1	11
574.260	1	17
574.599	1	11
574.939	1	13
575.279	1	15
575.619	1	16
575.959	1	-8
576.298	1	21
576.638	1	4
576.978	1	9
577.318	1	9
577.657	1	4
577.997	1	10
578.337	1	20
578.677	1	22
579.016	1	12
579.356	1	-4
579.696	1	14
580.036	1	-2
580.375	1	9
580.715	1	6
581.055	1	12
581.394	1	10
581.734	1	2
582.074	1	8
582.414	1	14
582.753	1	0
583.093	1	4
583.433	1	5
583.772	1	16
584.112	1	8
584.452	1	13
584.791	1	9
585.131	1	11
585.471	1	16
585.811	1	17
586.150	1	4
586.490	1	16
586.830	1	10
587.169	1	3
587.509	1	15
587.849	1	5
588.188	1	15
588.528	1	8
588.867	1	25
589.207	1	13
589.547	1	8
589.886	1	6
590.226	1	13
590.566	1	11
590.905	1	4
591.245	1	1
591.585	1	7
591.924	1	3
592.264	1	12
592.603	1	11
592.943	1	12
593.283	1	4
593.622	1	7
593.962	1	6
594.301	1	14
594.641	1	0
594.981	1	7
595.320	1	11
595.660	1	5
595.999	1	-3
596.339	1	8
596.678	1	11
597.018	1	4
597.358	1	15
597.697	1	2
598.037	1	3
598.376	1	1
598.716	1	13
599.055	1	12
599.395	1	2
599.734	1	5
600.074	1	7
600.413	1	12
600.753	1	10
601.092	1	19
601.432	1	2
601.771	1	19
602.111	1	14
602.451	1	9
602.790	1	12
603.130	1	10
603.469	1	3
603.809	1	5
604.148	1	11
604.487	1	7
604.827	1	19
605.166	1	10
605.506	1	13
605.845	1	13
606.185	1	9
606.524	1	6
606.864	1	4
607.203	1	9
607.543	1	-1
607.882	1	13
608.222	1	6
608.561	1	10
608.901	1	14
609.240	1	10
609.579	1	16
609.919	1	18
610.258	1	12
610.598	1	15
610.937	1	13
611.277	1	9
611.616	1	2
611.955	1	6
612.295	1	2
612.634	1	17
612.974	1	-5
613.313	1	22
613.652	1	9
613.992	1	6
614.331	1	3
614.671	1	7
615.010	1	2
615.349	1	13
615.689	1	2
616.028	1	8
616.368	1	10
616.707	1	6
617.046	1	6
617.386	1	10
617.725	1	5
618.064	1	0
618.404	1	10
618.743	1	6
619.082	1	6
619.422	1	-10
619.761	1	10
620.100	1	16
620.440	1	6
620.779	1	-3
621.118	1	-1
621.458	1	11
621.797	1	-5
622.136	1	24
622.476	1	5
622.815	1	16
623.154	1	-5
623.494	1	23
623.833	1	10
624.172	1	12
624.511	1	1
624.851	1	6
625.190	1	-2
625.529	1	8
625.869	1	12
626.208	1	8
626.547	1	13
626.886	1	3
627.226	1	9
627.565	1	6
627.904	1	-2
628.243	1	8
628.583	1	7
628.922	1	10
629.261	1	15
629.600	1	16
629.940	1	8
630.279	1	-4
630.618	1	6
630.957	1	8
631.297	1	6
631.636	1	-3
631.975	1	13
632.314	1	2
632.653	1	0
632.993	1	6
633.332	1	4
633.671	1	-8
634.010	1	7
634.349	1	8
634.689	1	7
635.028	1	13
635.367	1	6
635.706	1	7
636.045	1	13
636.384	1	-7
636.724	1	11
637.063	1	1
637.402	1	9
637.741	1	1
638.080	1	-2
638.419	1	-2
638.759	1	0
639.098	1	11
639.437	1	9
639.776	1	6
640.115	1	-1
640.454	1	0
640.793	1	11
641.132	1	6
641.472	1	18
641.811	1	5
642.150	1	-3
642.489	1	8
642.828	1	-6
643.167	1	3
643.506	1	-3
643.845	1	11
644.184	1	6
644.524	1	5
644.863	1	-1
645.202	1	6
645.541	1	5
645.880	1	8
646.219	1	12
646.558	1	-8
646.897	1	-6
647.236	1	7
647.575	1	8
647.914	1	5
648.253	1	23
648.592	1	2
648.931	1	14
649.270	1	15
649.610	1	-7
649.949	1	1
650.288	1	10
650.627	1	3
650.966	1	6
651.305	1	6
651.644	1	16
651.983	1	9
652.322	1	11
652.661	1	-1
653.000	1	3
653.339	1	8
653.678	1	9
654.017	1	9
654.356	1	-1
654.695	1	5
655.034	1	5
655.373	1	9
655.712	1	7
656.051	1	0
656.390	1	2
656.729	1	10
657.068	1	0
657.406	1	7
657.745	1	2
658.084	1	2
658.423	1	18
658.762	1	7
659.101	1	9
659.440	1	2
659.779	1	0
660.118	1	7
660.457	1	9
660.796	1	-7
661.135	1	-10
661.474	1	1
661.813	1	10
662.152	1	9
662.491	1	2
662.829	1	-7
663.168	1	7
663.507	1	9
663.846	1	5
664.185	1	11
664.524	1	1
664.863	1	3
665.202	1	3
665.541	1	-5
665.879	1	2
666.218	1	-6
666.557	1	-2
666.896	1	-4
667.235	1	1
667.574	1	4
667.913	1	2
668.251	1	-1
668.590	1	6
668.929	1	-4
669.268	1	1
669.607	1	-3
669.946	1	6
670.285	1	5
670.623	1	4
670.962	1	6
671.301	1	3
671.640	1	4
671.979	1	8
672.317	1	10
672.656	1	4
672.995	1	16
673.334	1	6
673.673	1	9
674.011	1	7
674.350	1	6
674.689	1	2
675.028	1	8
675.367	1	10
675.705	1	11
676.044	1	4
676.383	1	5
676.722	1	3
677.060	1	-4
677.399	1	3
677.738	1	4
678.077	1	7
678.416	1	6
678.754	1	3
679.093	1	9
679.432	1	8
679.771	1	4
680.109	1	7
680.448	1	-1
680.787	1	-1
681.125	1	2
681.464	1	3
681.803	1	1
682.142	1	11
682.480	1	22
682.819	1	12
683.158	1	3
683.496	1	5
683.835	1	9
684.174	1	5
684.512	1	7
684.851	1	12
685.190	1	-2
685.529	1	-3
685.867	1	9
686.206	1	-6
686.545	1	-3
686.883	1	3
687.222	1	9
687.561	1	9
687.899	1	7
688.238	1	15
688.577	1	6
688.746	1	8