File: Data/GaN_200K_800ms/GaN_sample F_spot 12_UVVIS_200 K_200um_800 ms 2x2mm1_196.txt
340.368	1	3
340.710	1	-12
341.052	1	0
341.394	1	-3
341.737	1	9
342.079	1	-9
342.421	1	2
342.763	1	13
343.105	1	2
343.447	1	1
343.789	1	3
344.131	1	7
344.473	1	-10
344.815	1	1
345.157	1	-3
345.499	1	4
345.841	1	9
346.183	1	-3
346.526	1	-4
346.868	1	2
347.210	1	-7
347.552	1	5
347.894	1	2
348.236	1	4
348.578	1	6
348.920	1	-1
349.262	1	0
349.604	1	1
349.946	1	-6
350.288	1	15
350.630	1	2
350.972	1	6
351.314	1	9
351.656	1	2
351.998	1	13
352.340	1	8
352.682	1	9
353.024	1	8
353.366	1	11
353.708	1	8
354.050	1	-4
354.392	1	-5
354.734	1	7
355.076	1	13
355.418	1	-7
355.760	1	-6
356.102	1	10
356.444	1	9
356.785	1	7
357.127	1	1
357.469	1	10
357.811	1	4
358.153	1	7
358.495	1	2
358.837	1	-10
359.179	1	7
359.521	1	10
359.863	1	5
360.205	1	8
360.547	1	13
360.889	1	2
361.231	1	1
361.572	1	12
361.914	1	6
362.256	1	3
362.598	1	2
362.940	1	5
363.282	1	8
363.624	1	18
363.966	1	11
364.308	1	11
364.649	1	22
364.991	1	26
365.333	1	14
365.675	1	18
366.017	1	22
366.359	1	25
366.701	1	21
367.042	1	28
367.384	1	35
367.726	1	27
368.068	1	31
368.410	1	44
368.752	1	30
369.093	1	30
369.435	1	41
369.777	1	31
370.119	1	20
370.461	1	46
370.803	1	35
371.144	1	24
371.486	1	38
371.828	1	38
372.170	1	32
372.512	1	33
372.853	1	20
373.195	1	18
373.537	1	37
373.879	1	24
374.220	1	25
374.562	1	28
374.904	1	27
375.246	1	25
375.588	1	15
375.929	1	25
376.271	1	22
376.613	1	11
376.955	1	8
377.296	1	19
377.638	1	23
377.980	1	17
378.321	1	4
378.663	1	12
379.005	1	22
379.347	1	24
379.688	1	12
380.030	1	8
380.372	1	1
380.714	1	24
381.055	1	13
381.397	1	14
381.739	1	15
382.080	1	12
382.422	1	8
382.764	1	3
383.105	1	1
383.447	1	9
383.789	1	-4
384.130	1	5
384.472	1	-1
384.814	1	2
385.156	1	2
385.497	1	14
385.839	1	6
386.180	1	11
386.522	1	12
386.864	1	6
387.205	1	-5
387.547	1	0
387.889	1	0
388.230	1	14
388.572	1	1
388.914	1	11
389.255	1	-2
389.597	1	8
389.939	1	1
390.280	1	9
390.622	1	2
390.963	1	6
391.305	1	15
391.647	1	-3
391.988	1	2
392.330	1	0
392.671	1	-4
393.013	1	-2
393.355	1	4
393.696	1	2
394.038	1	6
394.379	1	11
394.721	1	0
395.062	1	2
395.404	1	-2
395.746	1	10
396.087	1	-5
396.429	1	-1
396.770	1	-2
397.112	1	3
397.453	1	7
397.795	1	1
398.136	1	-5
398.478	1	13
398.819	1	6
399.161	1	3
399.503	1	4
399.844	1	6
400.186	1	5
400.527	1	-1
400.869	1	7
401.210	1	7
401.552	1	-12
401.893	1	2
402.235	1	-2
402.576	1	-3
402.918	1	5
403.259	1	9
403.601	1	-4
403.942	1	11
404.284	1	11
404.625	1	8
404.967	1	15
405.308	1	-4
405.649	1	-1
405.991	1	-1
406.332	1	0
406.674	1	3
407.015	1	8
407.357	1	-6
407.698	1	14
408.040	1	-3
408.381	1	0
408.722	1	-6
409.064	1	-6
409.405	1	4
409.747	1	-4
410.088	1	1
410.430	1	4
410.771	1	-3
411.112	1	2
411.454	1	-5
411.795	1	-3
412.137	1	3
412.478	1	15
412.819	1	4
413.161	1	-3
413.502	1	-2
413.844	1	11
414.185	1	5
414.526	1	-3
414.868	1	5
415.209	1	6
415.550	1	-5
415.892	1	0
416.233	1	10
416.575	1	12
416.916	1	-6
417.257	1	3
417.599	1	-1
417.940	1	15
418.281	1	18
418.623	1	-6
418.964	1	-7
419.305	1	8
419.647	1	-4
419.988	1	-11
420.329	1	-8
420.671	1	6
421.012	1	5
421.353	1	-5
421.695	1	2
422.036	1	8
422.377	1	3
422.718	1	11
423.060	1	1
423.401	1	5
423.742	1	4
424.084	1	4
424.425	1	7
424.766	1	10
425.107	1	-12
425.449	1	0
425.790	1	-6
426.131	1	6
426.472	1	-1
426.814	1	-4
427.155	1	-1
427.496	1	2
427.837	1	1
428.179	1	-5
428.520	1	-4
428.861	1	-3
429.202	1	-1
429.544	1	5
429.885	1	-2
430.226	1	-13
430.567	1	4
430.909	1	8
431.250	1	4
431.591	1	0
431.932	1	-6
432.273	1	-6
432.615	1	0
432.956	1	1
433.297	1	1
433.638	1	-6
433.979	1	0
434.320	1	2
434.662	1	4
435.003	1	8
435.344	1	4
435.685	1	-1
436.026	1	9
436.368	1	10
436.709	1	-5
437.050	1	-5
437.391	1	15
437.732	1	-3
438.073	1	-2
438.414	1	-2
438.756	1	-9
439.097	1	-4
439.438	1	-6
439.779	1	3
440.120	1	-6
440.461	1	6
440.802	1	-9
441.143	1	8
441.485	1	-5
441.826	1	-2
442.167	1	0
442.508	1	-7
442.849	1	5
443.190	1	1
443.531	1	4
443.872	1	3
444.213	1	-3
444.554	1	8
444.895	1	-10
445.237	1	-11
445.578	1	0
445.919	1	-5
446.260	1	-1
446.601	1	8
446.942	1	2
447.283	1	-2
447.624	1	-3
447.965	1	-10
448.306	1	0
448.647	1	-5
448.988	1	-12
449.329	1	-1
449.670	1	9
450.011	1	12
450.352	1	-1
450.693	1	-2
451.034	1	-10
451.375	1	-4
451.716	1	-2
452.057	1	6
452.398	1	0
452.739	1	-1
453.080	1	-2
453.421	1	3
453.762	1	6
454.103	1	6
454.444	1	-7
454.785	1	-4
455.126	1	-3
455.467	1	7
455.808	1	-4
456.149	1	8
456.490	1	-5
456.831	1	14
457.172	1	-5
457.513	1	3
457.854	1	-3
458.195	1	-3
458.536	1	6
458.877	1	7
459.218	1	-1
459.559	1	1
459.899	1	4
460.240	1	1
460.581	1	13
460.922	1	7
461.263	1	-10
461.604	1	-3
461.945	1	3
462.286	1	-15
462.627	1	5
462.968	1	1
463.309	1	-17
463.649	1	3
463.990	1	3
464.331	1	-2
464.672	1	-2
465.013	1	1
465.354	1	-3
465.695	1	-4
466.036	1	-4
466.376	1	-6
466.717	1	0
467.058	1	6
467.399	1	5
467.740	1	-5
468.081	1	8
468.422	1	-4
468.762	1	-6
469.103	1	-9
469.444	1	-3
469.785	1	-8
470.126	1	-5
470.467	1	-6
470.807	1	12
471.148	1	-4
471.489	1	-11
471.830	1	-2
472.171	1	6
472.511	1	-2
472.852	1	-4
473.193	1	6
473.534	1	3
473.875	1	15
474.215	1	13
474.556	1	-4
474.897	1	4
475.238	1	6
475.578	1	0
475.919	1	-7
476.260	1	-12
476.601	1	5
476.942	1	4
477.282	1	-3
477.623	1	-7
477.964	1	-6
478.305	1	1
478.645	1	9
478.986	1	2
479.327	1	-4
479.667	1	1
480.008	1	-3
480.349	1	1
480.690	1	-3
481.030	1	-6
481.371	1	-3
481.712	1	2
482.053	1	3
482.393	1	-1
482.734	1	-3
483.075	1	-1
483.415	1	0
483.756	1	10
484.097	1	-5
484.437	1	-2
484.778	1	5
485.119	1	-1
485.459	1	15
485.800	1	-1
486.141	1	1
486.481	1	3
486.822	1	7
487.163	1	-8
487.503	1	-8
487.844	1	-4
488.185	1	3
488.525	1	0
488.866	1	-5
489.207	1	1
489.547	1	-5
489.888	1	-10
490.228	1	8
490.569	1	12
490.910	1	1
491.250	1	-9
491.591	1	-11
491.932	1	3
492.272	1	6
492.613	1	-1
492.953	1	1
493.294	1	-9
493.635	1	5
493.975	1	-2
494.316	1	19
494.656	1	-4
494.997	1	3
495.337	1	9
495.678	1	0
496.019	1	-7
496.359	1	-15
496.700	1	1
497.040	1	1
497.381	1	2
497.721	1	4
498.062	1	-4
498.403	1	6
498.743	1	1
499.084	1	-3
499.424	1	-1
499.765	1	0
500.105	1	9
500.446	1	-12
500.786	1	-3
501.127	1	4
501.467	1	-5
501.808	1	9
502.148	1	7
502.489	1	0
502.829	1	3
503.170	1	6
503.510	1	8
503.851	1	3
504.191	1	11
504.532	1	4
504.872	1	6
505.213	1	9
505.553	1	-6
505.894	1	-8
506.234	1	8
506.575	1	0
506.915	1	13
507.256	1	9
507.596	1	-4
507.936	1	-5
508.277	1	2
508.617	1	9
508.958	1	-2
509.298	1	-2
509.639	1	-5
509.979	1	-8
510.319	1	8
510.660	1	0
511.000	1	-4
511.341	1	2
511.681	1	3
512.022	1	-6
512.362	1	-6
512.702	1	-1
513.043	1	0
513.383	1	-7
513.724	1	-2
514.064	1	2
514.404	1	1
514.745	1	-8
515.085	1	-1
515.425	1	0
515.766	1	-1
516.106	1	7
516.447	1	16
516.787	1	8
517.127	1	-1
517.468	1	7
517.808	1	2
518.148	1	4
518.489	1	6
518.829	1	17
519.169	1	-1
519.510	1	-4
519.850	1	3
520.190	1	2
520.531	1	7
520.871	1	1
521.211	1	-16
521.552	1	11
521.892	1	1
522.232	1	3
522.573	1	7
522.913	1	4
523.253	1	0
523.593	1	-5
523.934	1	0
524.274	1	5
524.614	1	10
524.955	1	-10
525.295	1	2
525.635	1	-1
525.975	1	4
526.316	1	6
526.656	1	8
526.996	1	5
527.337	1	-4
527.677	1	12
528.017	1	-4
528.357	1	2
528.698	1	1
529.038	1	3
529.378	1	1
529.718	1	12
530.058	1	-6
530.399	1	3
530.739	1	4
531.079	1	9
531.419	1	5
531.760	1	0
532.100	1	4
532.440	1	-2
532.780	1	4
533.120	1	6
533.461	1	10
533.801	1	14
534.141	1	-9
534.481	1	-10
534.821	1	3
535.162	1	0
535.502	1	-9
535.842	1	5
536.182	1	-1
536.522	1	-1
536.862	1	5
537.203	1	-7
537.543	1	-3
537.883	1	5
538.223	1	2
538.563	1	9
538.903	1	1
539.243	1	-6
539.584	1	6
539.924	1	19
540.264	1	6
540.604	1	-3
540.944	1	-6
541.284	1	11
541.624	1	13
541.964	1	9
542.305	1	10
542.645	1	6
542.985	1	2
543.325	1	-2
543.665	1	18
544.005	1	7
544.345	1	2
544.685	1	2
545.025	1	1
545.365	1	10
545.705	1	7
546.045	1	0
546.386	1	2
546.726	1	-1
547.066	1	4
547.406	1	3
547.746	1	-7
548.086	1	5
548.426	1	4
548.766	1	4
549.106	1	-4
549.446	1	5
549.786	1	-4
550.126	1	11
550.466	1	0
550.806	1	-2
551.146	1	8
551.486	1	0
551.826	1	5
552.166	1	7
552.506	1	5
552.846	1	-2
553.186	1	10
553.526	1	-2
553.866	1	11
554.206	1	7
554.546	1	14
554.886	1	11
555.226	1	-6
555.566	1	3
555.906	1	8
556.246	1	12
556.586	1	4
556.926	1	5
557.266	1	0
557.606	1	4
557.946	1	15
558.286	1	4
558.626	1	8
558.966	1	3
559.306	1	-5
559.646	1	-5
559.986	1	0
560.325	1	-7
560.665	1	6
561.005	1	9
561.345	1	2
561.685	1	9
562.025	1	7
562.365	1	5
562.705	1	0
563.045	1	-3
563.385	1	3
563.725	1	15
564.064	1	5
564.404	1	-1
564.744	1	6
565.084	1	-4
565.424	1	6
565.764	1	-1
566.104	1	6
566.444	1	-7
566.783	1	0
567.123	1	3
567.463	1	2
567.803	1	-7
568.143	1	3
568.483	1	7
568.823	1	-1
569.162	1	9
569.502	1	6
569.842	1	3
570.182	1	11
570.522	1	-1
570.862	1	-2
571.201	1	9
571.541	1	5
571.881	1	16
572.221	1	7
572.561	1	0
572.900	1	-9
573.240	1	10
573.580	1	3
573.920	1	10
574.260	1	9
574.599	1	4
574.939	1	6
575.279	1	18
575.619	1	7
575.959	1	-5
576.298	1	12
576.638	1	-9
576.978	1	14
577.318	1	6
577.657	1	-6
577.997	1	-1
578.337	1	11
578.677	1	9
579.016	1	12
579.356	1	-10
579.696	1	3
580.036	1	3
580.375	1	11
580.715	1	4
581.055	1	-3
581.394	1	8
581.734	1	-7
582.074	1	2
582.414	1	5
582.753	1	-6
583.093	1	-4
583.433	1	8
583.772	1	14
584.112	1	-2
584.452	1	9
584.791	1	-6
585.131	1	3
585.471	1	14
585.811	1	12
586.150	1	-3
586.490	1	13
586.830	1	2
587.169	1	3
587.509	1	-1
587.849	1	3
588.188	1	3
588.528	1	11
588.867	1	4
589.207	1	7
589.547	1	7
589.886	1	5
590.226	1	6
590.566	1	11
590.905	1	0
591.245	1	3
591.585	1	11
591.924	1	3
592.264	1	-1
592.603	1	6
592.943	1	9
593.283	1	1
593.622	1	8
593.962	1	8
594.301	1	6
594.641	1	-4
594.981	1	-3
595.320	1	3
595.660	1	0
595.999	1	-5
596.339	1	8
596.678	1	-2
597.018	1	0
597.358	1	8
597.697	1	0
598.037	1	2
598.376	1	-1
598.716	1	7
599.055	1	10
599.395	1	5
599.734	1	5
600.074	1	3
600.413	1	12
600.753	1	4
601.092	1	7
601.432	1	-13
601.771	1	8
602.111	1	11
602.451	1	17
602.790	1	1
603.130	1	11
603.469	1	-4
603.809	1	3
604.148	1	0
604.487	1	3
604.827	1	5
605.166	1	7
605.506	1	7
605.845	1	2
606.185	1	14
606.524	1	2
606.864	1	4
607.203	1	2
607.543	1	6
607.882	1	6
608.222	1	5
608.561	1	2
608.901	1	2
609.240	1	-4
609.579	1	12
609.919	1	9
610.258	1	7
610.598	1	-1
610.937	1	1
611.277	1	3
611.616	1	9
611.955	1	-3
612.295	1	-5
612.634	1	-1
612.974	1	-3
613.313	1	4
613.652	1	6
613.992	1	3
614.331	1	-1
614.671	1	0
615.010	1	-5
615.349	1	10
615.689	1	9
616.028	1	-2
616.368	1	6
616.707	1	3
617.046	1	5
617.386	1	10
617.725	1	3
618.064	1	-8
618.404	1	3
618.743	1	1
619.082	1	7
619.422	1	-13
619.761	1	6
620.100	1	12
620.440	1	2
620.779	1	-5
621.118	1	-6
621.458	1	4
621.797	1	3
622.136	1	8
622.476	1	7
622.815	1	-5
623.154	1	-2
623.494	1	14
623.833	1	10
624.172	1	3
624.511	1	-7
624.851	1	-7
625.190	1	2
625.529	1	11
625.869	1	13
626.208	1	0
626.547	1	1
626.886	1	6
627.226	1	6
627.565	1	-1
627.904	1	0
628.243	1	10
628.583	1	1
628.922	1	4
629.261	1	6
629.600	1	9
629.940	1	3
630.279	1	-6
630.618	1	-1
630.957	1	4
631.297	1	6
631.636	1	-11
631.975	1	8
632.314	1	-3
632.653	1	7
632.993	1	5
633.332	1	-4
633.671	1	-4
634.010	1	0
634.349	1	14
634.689	1	7
635.028	1	19
635.367	1	6
635.706	1	0
636.045	1	7
636.384	1	-1
636.724	1	6
637.063	1	-4
637.402	1	7
637.741	1	6
638.080	1	9
638.419	1	5
638.759	1	3
639.098	1	11
639.437	1	1
639.776	1	-12
640.115	1	1
640.454	1	1
640.793	1	15
641.132	1	2
641.472	1	8
641.811	1	5
642.150	1	-9
642.489	1	6
642.828	1	-6
643.167	1	-2
643.506	1	-14
643.845	1	-2
644.184	1	3
644.524	1	7
644.863	1	-8
645.202	1	-3
645.541	1	9
645.880	1	-1
646.219	1	0
646.558	1	2
646.897	1	-6
647.236	1	5
647.575	1	4
647.914	1	1
648.253	1	8
648.592	1	-4
648.931	1	10
649.270	1	1
649.610	1	-2
649.949	1	1
650.288	1	5
650.627	1	-1
650.966	1	3
651.305	1	0
651.644	1	12
651.983	1	2
652.322	1	-4
652.661	1	-1
653.000	1	0
653.339	1	5
653.678	1	-2
654.017	1	5
654.356	1	4
654.695	1	-2
655.034	1	5
655.373	1	5
655.712	1	14
656.051	1	7
656.390	1	-4
656.729	1	5
657.068	1	8
657.406	1	6
657.745	1	5
658.084	1	1
658.423	1	3
658.762	1	2
659.101	1	7
659.440	1	2
659.779	1	4
660.118	1	0
660.457	1	-1
660.796	1	-6
661.135	1	-10
661.474	1	5
661.813	1	6
662.152	1	6
662.491	1	1
662.829	1	-5
663.168	1	6
663.507	1	0
663.846	1	-7
664.185	1	2
664.524	1	2
664.863	1	0
665.202	1	0
665.541	1	-7
665.879	1	-6
666.218	1	-3
666.557	1	5
666.896	1	-11
667.235	1	2
667.574	1	-5
667.913	1	3
668.251	1	-11
668.590	1	2
668.929	1	-12
669.268	1	-3
669.607	1	-5
669.946	1	7
670.285	1	7
670.623	1	2
670.962	1	1
671.301	1	-4
671.640	1	3
671.979	1	-10
672.317	1	10
672.656	1	3
672.995	1	-1
673.334	1	0
673.673	1	6
674.011	1	-1
674.350	1	6
674.689	1	0
675.028	1	3
675.367	1	5
675.705	1	6
676.044	1	0
676.383	1	0
676.722	1	5
677.060	1	0
677.399	1	-4
677.738	1	2
678.077	1	9
678.416	1	7
678.754	1	-4
679.093	1	3
679.432	1	-1
679.771	1	-3
680.109	1	5
680.448	1	5
680.787	1	3
681.125	1	-4
681.464	1	-2
681.803	1	8
682.142	1	15
682.480	1	10
682.819	1	1
683.158	1	-1
683.496	1	3
683.835	1	0
684.174	1	7
684.512	1	4
684.851	1	6
685.190	1	3
685.529	1	3
685.867	1	-2
686.206	1	-5
686.545	1	-7
686.883	1	3
687.222	1	2
687.561	1	8
687.899	1	-1
688.238	1	4
688.577	1	1
688.746	1	3