File: Data/GaN_200K_800ms/GaN_sample F_spot 12_UVVIS_200 K_200um_800 ms 2x2mm1_284.txt
340.368	1	3
340.710	1	-9
341.052	1	7
341.394	1	-9
341.737	1	5
342.079	1	-1
342.421	1	-5
342.763	1	1
343.105	1	0
343.447	1	-2
343.789	1	-5
344.131	1	1
344.473	1	5
344.815	1	3
345.157	1	-6
345.499	1	-3
345.841	1	-6
346.183	1	-1
346.526	1	-5
346.868	1	13
347.210	1	-17
347.552	1	-3
347.894	1	-1
348.236	1	12
348.578	1	5
348.920	1	-5
349.262	1	2
349.604	1	-3
349.946	1	-9
350.288	1	4
350.630	1	1
350.972	1	5
351.314	1	-1
351.656	1	12
351.998	1	1
352.340	1	1
352.682	1	1
353.024	1	-1
353.366	1	10
353.708	1	-1
354.050	1	2
354.392	1	-3
354.734	1	6
355.076	1	3
355.418	1	-5
355.760	1	-8
356.102	1	3
356.444	1	-2
356.785	1	14
357.127	1	4
357.469	1	1
357.811	1	-10
358.153	1	6
358.495	1	1
358.837	1	-6
359.179	1	4
359.521	1	2
359.863	1	5
360.205	1	-13
360.547	1	17
360.889	1	-4
361.231	1	-6
361.572	1	7
361.914	1	5
362.256	1	11
362.598	1	7
362.940	1	-3
363.282	1	5
363.624	1	9
363.966	1	8
364.308	1	7
364.649	1	23
364.991	1	4
365.333	1	13
365.675	1	0
366.017	1	3
366.359	1	5
366.701	1	7
367.042	1	20
367.384	1	28
367.726	1	13
368.068	1	15
368.410	1	20
368.752	1	15
369.093	1	0
369.435	1	23
369.777	1	10
370.119	1	14
370.461	1	31
370.803	1	17
371.144	1	17
371.486	1	24
371.828	1	15
372.170	1	21
372.512	1	12
372.853	1	22
373.195	1	12
373.537	1	10
373.879	1	8
374.220	1	29
374.562	1	20
374.904	1	19
375.246	1	12
375.588	1	15
375.929	1	19
376.271	1	15
376.613	1	3
376.955	1	4
377.296	1	2
377.638	1	5
377.980	1	9
378.321	1	3
378.663	1	-6
379.005	1	8
379.347	1	8
379.688	1	7
380.030	1	7
380.372	1	11
380.714	1	10
381.055	1	11
381.397	1	10
381.739	1	5
382.080	1	4
382.422	1	2
382.764	1	3
383.105	1	2
383.447	1	-9
383.789	1	2
384.130	1	0
384.472	1	0
384.814	1	1
385.156	1	-10
385.497	1	3
385.839	1	0
386.180	1	0
386.522	1	3
386.864	1	10
387.205	1	1
387.547	1	-12
387.889	1	5
388.230	1	9
388.572	1	-1
388.914	1	4
389.255	1	-4
389.597	1	-2
389.939	1	9
390.280	1	3
390.622	1	-3
390.963	1	11
391.305	1	4
391.647	1	0
391.988	1	4
392.330	1	5
392.671	1	-1
393.013	1	1
393.355	1	5
393.696	1	5
394.038	1	4
394.379	1	-1
394.721	1	-4
395.062	1	9
395.404	1	-2
395.746	1	7
396.087	1	-4
396.429	1	11
396.770	1	-9
397.112	1	9
397.453	1	11
397.795	1	0
398.136	1	-7
398.478	1	-7
398.819	1	5
399.161	1	10
399.503	1	-2
399.844	1	-2
400.186	1	-6
400.527	1	4
400.869	1	1
401.210	1	2
401.552	1	-8
401.893	1	3
402.235	1	-5
402.576	1	8
402.918	1	0
403.259	1	10
403.601	1	2
403.942	1	9
404.284	1	12
404.625	1	1
404.967	1	4
405.308	1	10
405.649	1	0
405.991	1	-3
406.332	1	2
406.674	1	-10
407.015	1	4
407.357	1	2
407.698	1	5
408.040	1	-3
408.381	1	4
408.722	1	-6
409.064	1	0
409.405	1	5
409.747	1	-2
410.088	1	1
410.430	1	10
410.771	1	-1
411.112	1	-1
411.454	1	10
411.795	1	-8
412.137	1	-5
412.478	1	16
412.819	1	0
413.161	1	-1
413.502	1	1
413.844	1	1
414.185	1	10
414.526	1	-2
414.868	1	4
415.209	1	2
415.550	1	-5
415.892	1	-1
416.233	1	14
416.575	1	13
416.916	1	0
417.257	1	-4
417.599	1	3
417.940	1	8
418.281	1	-3
418.623	1	-4
418.964	1	-8
419.305	1	2
419.647	1	-1
419.988	1	-3
420.329	1	-11
420.671	1	6
421.012	1	0
421.353	1	-6
421.695	1	-1
422.036	1	1
422.377	1	0
422.718	1	8
423.060	1	-11
423.401	1	5
423.742	1	-3
424.084	1	-1
424.425	1	6
424.766	1	5
425.107	1	-3
425.449	1	1
425.790	1	-5
426.131	1	-1
426.472	1	7
426.814	1	-2
427.155	1	-4
427.496	1	0
427.837	1	-6
428.179	1	-4
428.520	1	4
428.861	1	0
429.202	1	-2
429.544	1	-8
429.885	1	2
430.226	1	-5
430.567	1	3
430.909	1	0
431.250	1	-1
431.591	1	4
431.932	1	-2
432.273	1	-10
432.615	1	-10
432.956	1	0
433.297	1	0
433.638	1	2
433.979	1	-4
434.320	1	0
434.662	1	-2
435.003	1	-3
435.344	1	-3
435.685	1	-9
436.026	1	2
436.368	1	-2
436.709	1	3
437.050	1	1
437.391	1	11
437.732	1	-4
438.073	1	-1
438.414	1	-7
438.756	1	-8
439.097	1	-14
439.438	1	-3
439.779	1	-1
440.120	1	-10
440.461	1	1
440.802	1	-3
441.143	1	7
441.485	1	5
441.826	1	3
442.167	1	0
442.508	1	-4
442.849	1	4
443.190	1	-8
443.531	1	5
443.872	1	-4
444.213	1	-3
444.554	1	11
444.895	1	-2
445.237	1	-5
445.578	1	-9
445.919	1	-7
446.260	1	2
446.601	1	-7
446.942	1	1
447.283	1	-10
447.624	1	-3
447.965	1	-6
448.306	1	0
448.647	1	-15
448.988	1	-4
449.329	1	-2
449.670	1	5
450.011	1	1
450.352	1	5
450.693	1	-9
451.034	1	-2
451.375	1	-7
451.716	1	8
452.057	1	5
452.398	1	6
452.739	1	7
453.080	1	4
453.421	1	-4
453.762	1	4
454.103	1	-6
454.444	1	-7
454.785	1	0
455.126	1	-5
455.467	1	6
455.808	1	3
456.149	1	4
456.490	1	-9
456.831	1	11
457.172	1	-6
457.513	1	4
457.854	1	1
458.195	1	-8
458.536	1	8
458.877	1	-4
459.218	1	3
459.559	1	8
459.899	1	-2
460.240	1	-4
460.581	1	13
460.922	1	-4
461.263	1	-2
461.604	1	-1
461.945	1	2
462.286	1	4
462.627	1	8
462.968	1	8
463.309	1	-2
463.649	1	8
463.990	1	0
464.331	1	-5
464.672	1	2
465.013	1	-3
465.354	1	3
465.695	1	-6
466.036	1	4
466.376	1	-2
466.717	1	-4
467.058	1	1
467.399	1	4
467.740	1	0
468.081	1	-3
468.422	1	1
468.762	1	-12
469.103	1	-2
469.444	1	-9
469.785	1	-4
470.126	1	-7
470.467	1	-9
470.807	1	-4
471.148	1	0
471.489	1	4
471.830	1	-3
472.171	1	2
472.511	1	0
472.852	1	4
473.193	1	10
473.534	1	7
473.875	1	7
474.215	1	8
474.556	1	5
474.897	1	4
475.238	1	-5
475.578	1	-9
475.919	1	-3
476.260	1	-11
476.601	1	0
476.942	1	6
477.282	1	0
477.623	1	-9
477.964	1	-9
478.305	1	-7
478.645	1	12
478.986	1	2
479.327	1	-11
479.667	1	-5
480.008	1	-1
480.349	1	-10
480.690	1	0
481.030	1	-3
481.371	1	-1
481.712	1	5
482.053	1	-3
482.393	1	3
482.734	1	-4
483.075	1	5
483.415	1	3
483.756	1	8
484.097	1	6
484.437	1	-5
484.778	1	-2
485.119	1	-6
485.459	1	0
485.800	1	1
486.141	1	-3
486.481	1	-9
486.822	1	4
487.163	1	1
487.503	1	0
487.844	1	-2
488.185	1	3
488.525	1	5
488.866	1	6
489.207	1	1
489.547	1	-5
489.888	1	-8
490.228	1	0
490.569	1	8
490.910	1	4
491.250	1	-8
491.591	1	-1
491.932	1	-13
492.272	1	-1
492.613	1	5
492.953	1	-1
493.294	1	4
493.635	1	-6
493.975	1	-1
494.316	1	-4
494.656	1	-2
494.997	1	-12
495.337	1	8
495.678	1	0
496.019	1	-3
496.359	1	-12
496.700	1	-7
497.040	1	-3
497.381	1	-5
497.721	1	-1
498.062	1	4
498.403	1	4
498.743	1	6
499.084	1	0
499.424	1	1
499.765	1	1
500.105	1	-6
500.446	1	-5
500.786	1	-12
501.127	1	1
501.467	1	-7
501.808	1	7
502.148	1	4
502.489	1	0
502.829	1	6
503.170	1	15
503.510	1	11
503.851	1	-4
504.191	1	3
504.532	1	4
504.872	1	-4
505.213	1	2
505.553	1	-6
505.894	1	-5
506.234	1	3
506.575	1	-2
506.915	1	3
507.256	1	8
507.596	1	-1
507.936	1	1
508.277	1	-6
508.617	1	5
508.958	1	-2
509.298	1	1
509.639	1	-1
509.979	1	-6
510.319	1	4
510.660	1	4
511.000	1	0
511.341	1	0
511.681	1	4
512.022	1	-3
512.362	1	6
512.702	1	-11
513.043	1	15
513.383	1	-12
513.724	1	8
514.064	1	6
514.404	1	0
514.745	1	-2
515.085	1	6
515.425	1	5
515.766	1	-2
516.106	1	-1
516.447	1	5
516.787	1	-1
517.127	1	-11
517.468	1	2
517.808	1	-12
518.148	1	-2
518.489	1	-11
518.829	1	1
519.169	1	0
519.510	1	-2
519.850	1	7
520.190	1	2
520.531	1	7
520.871	1	0
521.211	1	-3
521.552	1	4
521.892	1	-5
522.232	1	6
522.573	1	-3
522.913	1	4
523.253	1	5
523.593	1	-5
523.934	1	5
524.274	1	9
524.614	1	-6
524.955	1	-7
525.295	1	1
525.635	1	1
525.975	1	2
526.316	1	13
526.656	1	6
526.996	1	9
527.337	1	3
527.677	1	11
528.017	1	-5
528.357	1	3
528.698	1	-1
529.038	1	-5
529.378	1	6
529.718	1	12
530.058	1	-1
530.399	1	5
530.739	1	-1
531.079	1	0
531.419	1	4
531.760	1	6
532.100	1	-2
532.440	1	1
532.780	1	-7
533.120	1	-2
533.461	1	2
533.801	1	6
534.141	1	-4
534.481	1	-15
534.821	1	10
535.162	1	1
535.502	1	-4
535.842	1	-2
536.182	1	-8
536.522	1	0
536.862	1	3
537.203	1	-5
537.543	1	-10
537.883	1	-8
538.223	1	5
538.563	1	10
538.903	1	-8
539.243	1	1
539.584	1	-4
539.924	1	7
540.264	1	1
540.604	1	14
540.944	1	-3
541.284	1	4
541.624	1	3
541.964	1	5
542.305	1	8
542.645	1	2
542.985	1	-1
543.325	1	-1
543.665	1	14
544.005	1	1
544.345	1	14
544.685	1	-3
545.025	1	-9
545.365	1	2
545.705	1	-2
546.045	1	-6
546.386	1	4
546.726	1	-8
547.066	1	3
547.406	1	3
547.746	1	-8
548.086	1	6
548.426	1	-6
548.766	1	10
549.106	1	3
549.446	1	-4
549.786	1	-2
550.126	1	9
550.466	1	0
550.806	1	-2
551.146	1	0
551.486	1	4
551.826	1	6
552.166	1	2
552.506	1	9
552.846	1	1
553.186	1	12
553.526	1	-6
553.866	1	-3
554.206	1	4
554.546	1	-2
554.886	1	8
555.226	1	-7
555.566	1	8
555.906	1	5
556.246	1	8
556.586	1	-1
556.926	1	5
557.266	1	3
557.606	1	-6
557.946	1	7
558.286	1	9
558.626	1	3
558.966	1	-3
559.306	1	-2
559.646	1	-1
559.986	1	-2
560.325	1	-9
560.665	1	-3
561.005	1	-3
561.345	1	-5
561.685	1	-1
562.025	1	-1
562.365	1	8
562.705	1	-2
563.045	1	-4
563.385	1	-4
563.725	1	-3
564.064	1	-6
564.404	1	-2
564.744	1	3
565.084	1	-3
565.424	1	6
565.764	1	-6
566.104	1	-2
566.444	1	-7
566.783	1	-3
567.123	1	1
567.463	1	4
567.803	1	-7
568.143	1	0
568.483	1	8
568.823	1	5
569.162	1	1
569.502	1	-1
569.842	1	6
570.182	1	2
570.522	1	-4
570.862	1	-4
571.201	1	13
571.541	1	11
571.881	1	12
572.221	1	5
572.561	1	2
572.900	1	0
573.240	1	5
573.580	1	4
573.920	1	12
574.260	1	11
574.599	1	-6
574.939	1	5
575.279	1	7
575.619	1	13
575.959	1	-4
576.298	1	6
576.638	1	-1
576.978	1	10
577.318	1	6
577.657	1	-5
577.997	1	-10
578.337	1	17
578.677	1	0
579.016	1	1
579.356	1	-3
579.696	1	3
580.036	1	1
580.375	1	10
580.715	1	7
581.055	1	1
581.394	1	4
581.734	1	-7
582.074	1	-5
582.414	1	3
582.753	1	2
583.093	1	-5
583.433	1	-8
583.772	1	3
584.112	1	4
584.452	1	2
584.791	1	1
585.131	1	9
585.471	1	5
585.811	1	8
586.150	1	0
586.490	1	6
586.830	1	-5
587.169	1	-4
587.509	1	-2
587.849	1	6
588.188	1	12
588.528	1	5
588.867	1	5
589.207	1	9
589.547	1	-4
589.886	1	-8
590.226	1	4
590.566	1	3
590.905	1	0
591.245	1	-6
591.585	1	5
591.924	1	7
592.264	1	-2
592.603	1	5
592.943	1	0
593.283	1	0
593.622	1	4
593.962	1	5
594.301	1	13
594.641	1	0
594.981	1	-3
595.320	1	10
595.660	1	-6
595.999	1	-9
596.339	1	13
596.678	1	-3
597.018	1	0
597.358	1	10
597.697	1	1
598.037	1	-4
598.376	1	4
598.716	1	11
599.055	1	9
599.395	1	7
599.734	1	8
600.074	1	4
600.413	1	14
600.753	1	4
601.092	1	6
601.432	1	-7
601.771	1	7
602.111	1	2
602.451	1	9
602.790	1	3
603.130	1	6
603.469	1	0
603.809	1	2
604.148	1	3
604.487	1	-6
604.827	1	-1
605.166	1	15
605.506	1	-4
605.845	1	2
606.185	1	8
606.524	1	-10
606.864	1	-5
607.203	1	-6
607.543	1	1
607.882	1	-2
608.222	1	2
608.561	1	2
608.901	1	2
609.240	1	2
609.579	1	7
609.919	1	6
610.258	1	6
610.598	1	6
610.937	1	-3
611.277	1	1
611.616	1	1
611.955	1	4
612.295	1	-8
612.634	1	-2
612.974	1	-6
613.313	1	8
613.652	1	-1
613.992	1	2
614.331	1	1
614.671	1	11
615.010	1	1
615.349	1	7
615.689	1	8
616.028	1	0
616.368	1	-1
616.707	1	1
617.046	1	3
617.386	1	-7
617.725	1	10
618.064	1	-7
618.404	1	-2
618.743	1	5
619.082	1	8
619.422	1	0
619.761	1	0
620.100	1	7
620.440	1	2
620.779	1	-4
621.118	1	2
621.458	1	4
621.797	1	8
622.136	1	10
622.476	1	17
622.815	1	12
623.154	1	3
623.494	1	9
623.833	1	8
624.172	1	-6
624.511	1	3
624.851	1	-3
625.190	1	2
625.529	1	5
625.869	1	12
626.208	1	-5
626.547	1	1
626.886	1	5
627.226	1	6
627.565	1	3
627.904	1	-8
628.243	1	4
628.583	1	6
628.922	1	4
629.261	1	10
629.600	1	2
629.940	1	-1
630.279	1	-10
630.618	1	6
630.957	1	-2
631.297	1	-1
631.636	1	-4
631.975	1	14
632.314	1	-7
632.653	1	4
632.993	1	-4
633.332	1	0
633.671	1	-11
634.010	1	-4
634.349	1	6
634.689	1	-5
635.028	1	9
635.367	1	-1
635.706	1	-3
636.045	1	9
636.384	1	1
636.724	1	3
637.063	1	-4
637.402	1	-3
637.741	1	3
638.080	1	-4
638.419	1	-8
638.759	1	-2
639.098	1	13
639.437	1	-2
639.776	1	-10
640.115	1	-3
640.454	1	-7
640.793	1	7
641.132	1	7
641.472	1	5
641.811	1	-2
642.150	1	-2
642.489	1	3
642.828	1	-11
643.167	1	-5
643.506	1	-7
643.845	1	-3
644.184	1	5
644.524	1	-2
644.863	1	-3
645.202	1	-2
645.541	1	-2
645.880	1	5
646.219	1	-2
646.558	1	-1
646.897	1	0
647.236	1	0
647.575	1	2
647.914	1	0
648.253	1	13
648.592	1	-7
648.931	1	8
649.270	1	8
649.610	1	-2
649.949	1	2
650.288	1	3
650.627	1	8
650.966	1	0
651.305	1	3
651.644	1	11
651.983	1	2
652.322	1	-1
652.661	1	-7
653.000	1	-7
653.339	1	6
653.678	1	2
654.017	1	0
654.356	1	-1
654.695	1	2
655.034	1	-2
655.373	1	5
655.712	1	-1
656.051	1	-3
656.390	1	-6
656.729	1	11
657.068	1	2
657.406	1	3
657.745	1	-8
658.084	1	0
658.423	1	11
658.762	1	-6
659.101	1	5
659.440	1	2
659.779	1	9
660.118	1	0
660.457	1	4
660.796	1	-13
661.135	1	-3
661.474	1	-7
661.813	1	13
662.152	1	-10
662.491	1	-6
662.829	1	-2
663.168	1	-1
663.507	1	10
663.846	1	-5
664.185	1	0
664.524	1	-8
664.863	1	-6
665.202	1	9
665.541	1	-5
665.879	1	4
666.218	1	-7
666.557	1	-6
666.896	1	0
667.235	1	-1
667.574	1	-1
667.913	1	3
668.251	1	-5
668.590	1	1
668.929	1	-8
669.268	1	-3
669.607	1	-10
669.946	1	2
670.285	1	1
670.623	1	-3
670.962	1	-4
671.301	1	4
671.640	1	-2
671.979	1	-8
672.317	1	1
672.656	1	0
672.995	1	5
673.334	1	8
673.673	1	4
674.011	1	4
674.350	1	0
674.689	1	1
675.028	1	3
675.367	1	4
675.705	1	7
676.044	1	0
676.383	1	-3
676.722	1	7
677.060	1	-2
677.399	1	0
677.738	1	7
678.077	1	6
678.416	1	-1
678.754	1	-2
679.093	1	0
679.432	1	0
679.771	1	6
680.109	1	8
680.448	1	1
680.787	1	-3
681.125	1	18
681.464	1	-2
681.803	1	-7
682.142	1	5
682.480	1	3
682.819	1	-3
683.158	1	0
683.496	1	1
683.835	1	-4
684.174	1	-3
684.512	1	13
684.851	1	6
685.190	1	1
685.529	1	-7
685.867	1	5
686.206	1	-6
686.545	1	-3
686.883	1	-15
687.222	1	4
687.561	1	12
687.899	1	8
688.238	1	9
688.577	1	-7
688.746	1	-2