File: Data/GaN_200K_800ms/GaN_sample F_spot 12_UVVIS_200 K_200um_800 ms 2x2mm1_233.txt
340.368	1	1
340.710	1	-12
341.052	1	7
341.394	1	-6
341.737	1	11
342.079	1	-6
342.421	1	-5
342.763	1	6
343.105	1	11
343.447	1	0
343.789	1	0
344.131	1	2
344.473	1	-2
344.815	1	-3
345.157	1	-2
345.499	1	-3
345.841	1	-3
346.183	1	-7
346.526	1	-5
346.868	1	1
347.210	1	-7
347.552	1	0
347.894	1	-3
348.236	1	4
348.578	1	-2
348.920	1	-8
349.262	1	2
349.604	1	-2
349.946	1	-3
350.288	1	4
350.630	1	0
350.972	1	0
351.314	1	13
351.656	1	5
351.998	1	-7
352.340	1	6
352.682	1	9
353.024	1	4
353.366	1	7
353.708	1	3
354.050	1	-12
354.392	1	1
354.734	1	-1
355.076	1	0
355.418	1	-11
355.760	1	5
356.102	1	15
356.444	1	13
356.785	1	9
357.127	1	0
357.469	1	4
357.811	1	-2
358.153	1	9
358.495	1	2
358.837	1	-9
359.179	1	6
359.521	1	11
359.863	1	5
360.205	1	0
360.547	1	2
360.889	1	6
361.231	1	5
361.572	1	9
361.914	1	9
362.256	1	5
362.598	1	4
362.940	1	9
363.282	1	15
363.624	1	15
363.966	1	12
364.308	1	4
364.649	1	8
364.991	1	9
365.333	1	15
365.675	1	10
366.017	1	20
366.359	1	19
366.701	1	19
367.042	1	21
367.384	1	28
367.726	1	21
368.068	1	24
368.410	1	42
368.752	1	21
369.093	1	24
369.435	1	28
369.777	1	18
370.119	1	27
370.461	1	44
370.803	1	31
371.144	1	23
371.486	1	29
371.828	1	34
372.170	1	23
372.512	1	11
372.853	1	26
373.195	1	16
373.537	1	25
373.879	1	19
374.220	1	27
374.562	1	29
374.904	1	14
375.246	1	16
375.588	1	22
375.929	1	18
376.271	1	27
376.613	1	10
376.955	1	5
377.296	1	7
377.638	1	9
377.980	1	11
378.321	1	-2
378.663	1	11
379.005	1	18
379.347	1	18
379.688	1	17
380.030	1	9
380.372	1	5
380.714	1	5
381.055	1	14
381.397	1	3
381.739	1	22
382.080	1	2
382.422	1	6
382.764	1	1
383.105	1	7
383.447	1	3
383.789	1	0
384.130	1	13
384.472	1	-6
384.814	1	4
385.156	1	-2
385.497	1	6
385.839	1	1
386.180	1	7
386.522	1	16
386.864	1	7
387.205	1	6
387.547	1	1
387.889	1	0
388.230	1	3
388.572	1	1
388.914	1	-1
389.255	1	1
389.597	1	8
389.939	1	1
390.280	1	10
390.622	1	-6
390.963	1	10
391.305	1	6
391.647	1	9
391.988	1	0
392.330	1	8
392.671	1	-9
393.013	1	-7
393.355	1	5
393.696	1	0
394.038	1	-1
394.379	1	2
394.721	1	-3
395.062	1	9
395.404	1	-3
395.746	1	5
396.087	1	-6
396.429	1	5
396.770	1	-1
397.112	1	14
397.453	1	11
397.795	1	-8
398.136	1	0
398.478	1	6
398.819	1	2
399.161	1	12
399.503	1	0
399.844	1	1
400.186	1	2
400.527	1	-4
400.869	1	-1
401.210	1	9
401.552	1	-2
401.893	1	8
402.235	1	0
402.576	1	-2
402.918	1	11
403.259	1	4
403.601	1	2
403.942	1	10
404.284	1	10
404.625	1	16
404.967	1	-1
405.308	1	-2
405.649	1	-3
405.991	1	-1
406.332	1	0
406.674	1	1
407.015	1	17
407.357	1	2
407.698	1	5
408.040	1	6
408.381	1	4
408.722	1	-13
409.064	1	-3
409.405	1	5
409.747	1	1
410.088	1	1
410.430	1	11
410.771	1	-7
411.112	1	-8
411.454	1	2
411.795	1	0
412.137	1	7
412.478	1	7
412.819	1	-7
413.161	1	2
413.502	1	5
413.844	1	14
414.185	1	7
414.526	1	3
414.868	1	3
415.209	1	3
415.550	1	-7
415.892	1	-4
416.233	1	4
416.575	1	4
416.916	1	-3
417.257	1	-2
417.599	1	2
417.940	1	7
418.281	1	8
418.623	1	-7
418.964	1	-9
419.305	1	-5
419.647	1	-3
419.988	1	2
420.329	1	-6
420.671	1	4
421.012	1	-1
421.353	1	-1
421.695	1	-5
422.036	1	4
422.377	1	-1
422.718	1	4
423.060	1	-6
423.401	1	-2
423.742	1	8
424.084	1	-5
424.425	1	10
424.766	1	-4
425.107	1	2
425.449	1	0
425.790	1	-12
426.131	1	-2
426.472	1	1
426.814	1	5
427.155	1	-4
427.496	1	0
427.837	1	-4
428.179	1	-2
428.520	1	7
428.861	1	-6
429.202	1	8
429.544	1	7
429.885	1	5
430.226	1	-14
430.567	1	-1
430.909	1	5
431.250	1	-2
431.591	1	11
431.932	1	-2
432.273	1	-5
432.615	1	-1
432.956	1	-2
433.297	1	-4
433.638	1	3
433.979	1	1
434.320	1	4
434.662	1	-10
435.003	1	9
435.344	1	-1
435.685	1	1
436.026	1	6
436.368	1	8
436.709	1	1
437.050	1	-3
437.391	1	6
437.732	1	3
438.073	1	3
438.414	1	-10
438.756	1	-1
439.097	1	-5
439.438	1	3
439.779	1	1
440.120	1	-5
440.461	1	-1
440.802	1	0
441.143	1	10
441.485	1	-5
441.826	1	-7
442.167	1	-3
442.508	1	1
442.849	1	18
443.190	1	2
443.531	1	11
443.872	1	-1
444.213	1	-3
444.554	1	14
444.895	1	7
445.237	1	-8
445.578	1	-8
445.919	1	-12
446.260	1	-4
446.601	1	-3
446.942	1	7
447.283	1	-1
447.624	1	-5
447.965	1	-6
448.306	1	7
448.647	1	-3
448.988	1	-4
449.329	1	1
449.670	1	5
450.011	1	-1
450.352	1	1
450.693	1	-6
451.034	1	-2
451.375	1	-2
451.716	1	0
452.057	1	8
452.398	1	-2
452.739	1	4
453.080	1	0
453.421	1	-5
453.762	1	-5
454.103	1	-3
454.444	1	-10
454.785	1	-7
455.126	1	-7
455.467	1	2
455.808	1	-2
456.149	1	4
456.490	1	-6
456.831	1	2
457.172	1	-2
457.513	1	10
457.854	1	1
458.195	1	-2
458.536	1	2
458.877	1	-2
459.218	1	5
459.559	1	3
459.899	1	1
460.240	1	3
460.581	1	16
460.922	1	3
461.263	1	-6
461.604	1	2
461.945	1	-1
462.286	1	-1
462.627	1	6
462.968	1	3
463.309	1	-9
463.649	1	-2
463.990	1	-1
464.331	1	0
464.672	1	7
465.013	1	-9
465.354	1	15
465.695	1	0
466.036	1	6
466.376	1	-2
466.717	1	-1
467.058	1	-10
467.399	1	5
467.740	1	2
468.081	1	1
468.422	1	-16
468.762	1	-9
469.103	1	-3
469.444	1	0
469.785	1	-10
470.126	1	-8
470.467	1	2
470.807	1	7
471.148	1	-3
471.489	1	-2
471.830	1	-4
472.171	1	4
472.511	1	-9
472.852	1	0
473.193	1	3
473.534	1	6
473.875	1	11
474.215	1	7
474.556	1	1
474.897	1	10
475.238	1	6
475.578	1	-1
475.919	1	4
476.260	1	2
476.601	1	-2
476.942	1	12
477.282	1	-5
477.623	1	-5
477.964	1	0
478.305	1	-11
478.645	1	8
478.986	1	9
479.327	1	-7
479.667	1	-3
480.008	1	-7
480.349	1	6
480.690	1	-1
481.030	1	-4
481.371	1	0
481.712	1	4
482.053	1	9
482.393	1	-9
482.734	1	-1
483.075	1	-9
483.415	1	-3
483.756	1	13
484.097	1	3
484.437	1	-4
484.778	1	7
485.119	1	-8
485.459	1	11
485.800	1	-4
486.141	1	-8
486.481	1	7
486.822	1	-1
487.163	1	-6
487.503	1	-6
487.844	1	3
488.185	1	3
488.525	1	4
488.866	1	3
489.207	1	-9
489.547	1	-1
489.888	1	-4
490.228	1	0
490.569	1	11
490.910	1	3
491.250	1	-13
491.591	1	-3
491.932	1	0
492.272	1	1
492.613	1	-5
492.953	1	-1
493.294	1	-2
493.635	1	-2
493.975	1	-5
494.316	1	-3
494.656	1	7
494.997	1	-2
495.337	1	2
495.678	1	-1
496.019	1	-6
496.359	1	-2
496.700	1	-4
497.040	1	-2
497.381	1	5
497.721	1	-8
498.062	1	-4
498.403	1	4
498.743	1	-2
499.084	1	3
499.424	1	5
499.765	1	-5
500.105	1	-5
500.446	1	-8
500.786	1	-7
501.127	1	-3
501.467	1	-5
501.808	1	8
502.148	1	0
502.489	1	-3
502.829	1	0
503.170	1	6
503.510	1	-3
503.851	1	11
504.191	1	11
504.532	1	6
504.872	1	6
505.213	1	9
505.553	1	-7
505.894	1	-6
506.234	1	2
506.575	1	8
506.915	1	5
507.256	1	7
507.596	1	2
507.936	1	0
508.277	1	2
508.617	1	-3
508.958	1	-2
509.298	1	14
509.639	1	1
509.979	1	3
510.319	1	-2
510.660	1	1
511.000	1	-10
511.341	1	1
511.681	1	4
512.022	1	-5
512.362	1	6
512.702	1	2
513.043	1	9
513.383	1	-12
513.724	1	2
514.064	1	10
514.404	1	-4
514.745	1	-8
515.085	1	-3
515.425	1	-7
515.766	1	3
516.106	1	-4
516.447	1	20
516.787	1	3
517.127	1	7
517.468	1	10
517.808	1	3
518.148	1	3
518.489	1	-8
518.829	1	8
519.169	1	-1
519.510	1	8
519.850	1	5
520.190	1	2
520.531	1	4
520.871	1	-5
521.211	1	-1
521.552	1	11
521.892	1	12
522.232	1	4
522.573	1	6
522.913	1	3
523.253	1	-5
523.593	1	2
523.934	1	-2
524.274	1	8
524.614	1	-2
524.955	1	-3
525.295	1	3
525.635	1	1
525.975	1	-2
526.316	1	10
526.656	1	0
526.996	1	2
527.337	1	9
527.677	1	4
528.017	1	0
528.357	1	-4
528.698	1	6
529.038	1	3
529.378	1	-2
529.718	1	5
530.058	1	0
530.399	1	4
530.739	1	3
531.079	1	6
531.419	1	4
531.760	1	9
532.100	1	-1
532.440	1	5
532.780	1	4
533.120	1	15
533.461	1	-1
533.801	1	11
534.141	1	-6
534.481	1	-8
534.821	1	13
535.162	1	3
535.502	1	4
535.842	1	11
536.182	1	3
536.522	1	1
536.862	1	14
537.203	1	-8
537.543	1	3
537.883	1	2
538.223	1	-1
538.563	1	5
538.903	1	-7
539.243	1	-3
539.584	1	7
539.924	1	12
540.264	1	0
540.604	1	12
540.944	1	1
541.284	1	11
541.624	1	5
541.964	1	8
542.305	1	8
542.645	1	6
542.985	1	4
543.325	1	6
543.665	1	11
544.005	1	2
544.345	1	6
544.685	1	4
545.025	1	4
545.365	1	0
545.705	1	-5
546.045	1	-2
546.386	1	8
546.726	1	-10
547.066	1	7
547.406	1	-2
547.746	1	-3
548.086	1	0
548.426	1	-2
548.766	1	8
549.106	1	0
549.446	1	11
549.786	1	-3
550.126	1	13
550.466	1	3
550.806	1	4
551.146	1	0
551.486	1	4
551.826	1	15
552.166	1	10
552.506	1	11
552.846	1	0
553.186	1	0
553.526	1	2
553.866	1	6
554.206	1	7
554.546	1	1
554.886	1	2
555.226	1	-6
555.566	1	7
555.906	1	6
556.246	1	4
556.586	1	-9
556.926	1	1
557.266	1	-8
557.606	1	1
557.946	1	6
558.286	1	1
558.626	1	9
558.966	1	4
559.306	1	6
559.646	1	0
559.986	1	-6
560.325	1	-1
560.665	1	-9
561.005	1	-1
561.345	1	0
561.685	1	2
562.025	1	0
562.365	1	3
562.705	1	2
563.045	1	-9
563.385	1	-7
563.725	1	2
564.064	1	3
564.404	1	18
564.744	1	1
565.084	1	-1
565.424	1	-7
565.764	1	-2
566.104	1	11
566.444	1	-2
566.783	1	-8
567.123	1	4
567.463	1	9
567.803	1	-5
568.143	1	9
568.483	1	1
568.823	1	6
569.162	1	2
569.502	1	-6
569.842	1	2
570.182	1	5
570.522	1	-14
570.862	1	0
571.201	1	8
571.541	1	18
571.881	1	13
572.221	1	-8
572.561	1	6
572.900	1	-4
573.240	1	-4
573.580	1	4
573.920	1	3
574.260	1	8
574.599	1	4
574.939	1	10
575.279	1	11
575.619	1	3
575.959	1	4
576.298	1	6
576.638	1	0
576.978	1	8
577.318	1	10
577.657	1	-10
577.997	1	-1
578.337	1	10
578.677	1	9
579.016	1	12
579.356	1	-2
579.696	1	5
580.036	1	3
580.375	1	8
580.715	1	10
581.055	1	-2
581.394	1	7
581.734	1	-4
582.074	1	-2
582.414	1	21
582.753	1	5
583.093	1	-2
583.433	1	1
583.772	1	7
584.112	1	-3
584.452	1	12
584.791	1	-5
585.131	1	5
585.471	1	5
585.811	1	4
586.150	1	-1
586.490	1	10
586.830	1	2
587.169	1	3
587.509	1	3
587.849	1	0
588.188	1	15
588.528	1	7
588.867	1	9
589.207	1	5
589.547	1	9
589.886	1	-3
590.226	1	9
590.566	1	-1
590.905	1	-4
591.245	1	4
591.585	1	5
591.924	1	1
592.264	1	9
592.603	1	3
592.943	1	4
593.283	1	0
593.622	1	-1
593.962	1	13
594.301	1	5
594.641	1	1
594.981	1	3
595.320	1	-6
595.660	1	-2
595.999	1	-5
596.339	1	6
596.678	1	0
597.018	1	-2
597.358	1	5
597.697	1	6
598.037	1	7
598.376	1	9
598.716	1	-4
599.055	1	11
599.395	1	-1
599.734	1	3
600.074	1	0
600.413	1	13
600.753	1	-1
601.092	1	9
601.432	1	-5
601.771	1	5
602.111	1	3
602.451	1	15
602.790	1	-3
603.130	1	-4
603.469	1	3
603.809	1	7
604.148	1	10
604.487	1	4
604.827	1	2
605.166	1	13
605.506	1	-7
605.845	1	0
606.185	1	9
606.524	1	1
606.864	1	3
607.203	1	-3
607.543	1	3
607.882	1	5
608.222	1	4
608.561	1	2
608.901	1	4
609.240	1	-7
609.579	1	3
609.919	1	6
610.258	1	1
610.598	1	0
610.937	1	3
611.277	1	1
611.616	1	4
611.955	1	9
612.295	1	1
612.634	1	1
612.974	1	-8
613.313	1	15
613.652	1	6
613.992	1	-4
614.331	1	-1
614.671	1	4
615.010	1	-8
615.349	1	5
615.689	1	15
616.028	1	-3
616.368	1	1
616.707	1	1
617.046	1	5
617.386	1	-1
617.725	1	1
618.064	1	-1
618.404	1	1
618.743	1	4
619.082	1	6
619.422	1	-8
619.761	1	10
620.100	1	3
620.440	1	7
620.779	1	-1
621.118	1	0
621.458	1	4
621.797	1	-2
622.136	1	8
622.476	1	5
622.815	1	16
623.154	1	6
623.494	1	7
623.833	1	12
624.172	1	5
624.511	1	-1
624.851	1	-9
625.190	1	5
625.529	1	-2
625.869	1	4
626.208	1	6
626.547	1	-1
626.886	1	10
627.226	1	14
627.565	1	2
627.904	1	2
628.243	1	6
628.583	1	4
628.922	1	1
629.261	1	1
629.600	1	2
629.940	1	0
630.279	1	-5
630.618	1	-8
630.957	1	-3
631.297	1	-9
631.636	1	-6
631.975	1	14
632.314	1	-2
632.653	1	2
632.993	1	-5
633.332	1	11
633.671	1	4
634.010	1	3
634.349	1	10
634.689	1	7
635.028	1	1
635.367	1	5
635.706	1	1
636.045	1	10
636.384	1	-1
636.724	1	5
637.063	1	-6
637.402	1	1
637.741	1	6
638.080	1	6
638.419	1	5
638.759	1	-6
639.098	1	-3
639.437	1	-2
639.776	1	-3
640.115	1	2
640.454	1	-6
640.793	1	6
641.132	1	4
641.472	1	5
641.811	1	-5
642.150	1	-6
642.489	1	2
642.828	1	-7
643.167	1	7
643.506	1	-12
643.845	1	5
644.184	1	1
644.524	1	-2
644.863	1	-6
645.202	1	2
645.541	1	7
645.880	1	3
646.219	1	2
646.558	1	-3
646.897	1	0
647.236	1	-4
647.575	1	6
647.914	1	0
648.253	1	10
648.592	1	-4
648.931	1	11
649.270	1	7
649.610	1	-1
649.949	1	-5
650.288	1	7
650.627	1	5
650.966	1	4
651.305	1	4
651.644	1	9
651.983	1	1
652.322	1	0
652.661	1	6
653.000	1	-1
653.339	1	2
653.678	1	0
654.017	1	-3
654.356	1	0
654.695	1	11
655.034	1	6
655.373	1	7
655.712	1	-6
656.051	1	8
656.390	1	8
656.729	1	9
657.068	1	-2
657.406	1	-1
657.745	1	-4
658.084	1	-3
658.423	1	11
658.762	1	-6
659.101	1	10
659.440	1	0
659.779	1	2
660.118	1	6
660.457	1	-4
660.796	1	-14
661.135	1	-14
661.474	1	-5
661.813	1	16
662.152	1	5
662.491	1	-3
662.829	1	-4
663.168	1	1
663.507	1	1
663.846	1	-9
664.185	1	5
664.524	1	3
664.863	1	4
665.202	1	3
665.541	1	-9
665.879	1	-12
666.218	1	-11
666.557	1	-4
666.896	1	1
667.235	1	11
667.574	1	1
667.913	1	6
668.251	1	-1
668.590	1	0
668.929	1	-13
669.268	1	-1
669.607	1	-2
669.946	1	3
670.285	1	11
670.623	1	-7
670.962	1	-4
671.301	1	-2
671.640	1	4
671.979	1	-9
672.317	1	6
672.656	1	0
672.995	1	9
673.334	1	-2
673.673	1	10
674.011	1	2
674.350	1	2
674.689	1	8
675.028	1	-4
675.367	1	4
675.705	1	9
676.044	1	4
676.383	1	1
676.722	1	2
677.060	1	-8
677.399	1	-13
677.738	1	5
678.077	1	-2
678.416	1	5
678.754	1	-3
679.093	1	10
679.432	1	-5
679.771	1	1
680.109	1	5
680.448	1	2
680.787	1	-6
681.125	1	-3
681.464	1	-7
681.803	1	7
682.142	1	4
682.480	1	11
682.819	1	-2
683.158	1	4
683.496	1	0
683.835	1	3
684.174	1	4
684.512	1	6
684.851	1	8
685.190	1	-4
685.529	1	-1
685.867	1	-4
686.206	1	-6
686.545	1	-13
686.883	1	3
687.222	1	-7
687.561	1	2
687.899	1	4
688.238	1	13
688.577	1	7
688.746	1	-2