File: Data/GaN_200K_800ms/GaN_sample F_spot 12_UVVIS_200 K_200um_800 ms 2x2mm1_266.txt
340.368	1	9
340.710	1	-6
341.052	1	6
341.394	1	-2
341.737	1	7
342.079	1	-1
342.421	1	2
342.763	1	9
343.105	1	3
343.447	1	-2
343.789	1	-5
344.131	1	-8
344.473	1	-2
344.815	1	-3
345.157	1	-1
345.499	1	-2
345.841	1	9
346.183	1	1
346.526	1	-8
346.868	1	1
347.210	1	2
347.552	1	-3
347.894	1	4
348.236	1	12
348.578	1	6
348.920	1	-2
349.262	1	-4
349.604	1	-4
349.946	1	-5
350.288	1	20
350.630	1	-2
350.972	1	5
351.314	1	4
351.656	1	10
351.998	1	0
352.340	1	6
352.682	1	7
353.024	1	4
353.366	1	14
353.708	1	9
354.050	1	-10
354.392	1	-4
354.734	1	6
355.076	1	-3
355.418	1	-8
355.760	1	3
356.102	1	11
356.444	1	11
356.785	1	12
357.127	1	2
357.469	1	4
357.811	1	3
358.153	1	3
358.495	1	6
358.837	1	-2
359.179	1	9
359.521	1	8
359.863	1	1
360.205	1	8
360.547	1	7
360.889	1	4
361.231	1	-3
361.572	1	16
361.914	1	-2
362.256	1	0
362.598	1	5
362.940	1	1
363.282	1	7
363.624	1	19
363.966	1	11
364.308	1	4
364.649	1	15
364.991	1	15
365.333	1	17
365.675	1	6
366.017	1	9
366.359	1	16
366.701	1	8
367.042	1	11
367.384	1	17
367.726	1	31
368.068	1	21
368.410	1	30
368.752	1	24
369.093	1	13
369.435	1	24
369.777	1	25
370.119	1	10
370.461	1	29
370.803	1	20
371.144	1	11
371.486	1	34
371.828	1	25
372.170	1	24
372.512	1	9
372.853	1	25
373.195	1	12
373.537	1	15
373.879	1	10
374.220	1	15
374.562	1	19
374.904	1	13
375.246	1	12
375.588	1	17
375.929	1	27
376.271	1	19
376.613	1	-1
376.955	1	4
377.296	1	8
377.638	1	8
377.980	1	15
378.321	1	-1
378.663	1	0
379.005	1	10
379.347	1	10
379.688	1	8
380.030	1	7
380.372	1	4
380.714	1	4
381.055	1	11
381.397	1	-2
381.739	1	8
382.080	1	7
382.422	1	-3
382.764	1	7
383.105	1	4
383.447	1	1
383.789	1	-3
384.130	1	-4
384.472	1	6
384.814	1	12
385.156	1	-3
385.497	1	3
385.839	1	3
386.180	1	7
386.522	1	8
386.864	1	14
387.205	1	-2
387.547	1	7
387.889	1	-2
388.230	1	9
388.572	1	-3
388.914	1	0
389.255	1	0
389.597	1	5
389.939	1	0
390.280	1	-3
390.622	1	3
390.963	1	15
391.305	1	9
391.647	1	4
391.988	1	8
392.330	1	8
392.671	1	9
393.013	1	5
393.355	1	4
393.696	1	6
394.038	1	8
394.379	1	-3
394.721	1	-5
395.062	1	5
395.404	1	-3
395.746	1	6
396.087	1	-1
396.429	1	12
396.770	1	-11
397.112	1	16
397.453	1	14
397.795	1	2
398.136	1	-4
398.478	1	9
398.819	1	9
399.161	1	13
399.503	1	7
399.844	1	-6
400.186	1	-10
400.527	1	-2
400.869	1	6
401.210	1	7
401.552	1	-9
401.893	1	-5
402.235	1	-7
402.576	1	3
402.918	1	16
403.259	1	-3
403.601	1	-3
403.942	1	18
404.284	1	7
404.625	1	5
404.967	1	-6
405.308	1	0
405.649	1	4
405.991	1	-9
406.332	1	1
406.674	1	-1
407.015	1	7
407.357	1	5
407.698	1	13
408.040	1	1
408.381	1	3
408.722	1	-8
409.064	1	3
409.405	1	12
409.747	1	-7
410.088	1	6
410.430	1	4
410.771	1	4
411.112	1	4
411.454	1	-4
411.795	1	0
412.137	1	-1
412.478	1	8
412.819	1	1
413.161	1	-12
413.502	1	-2
413.844	1	3
414.185	1	5
414.526	1	-3
414.868	1	2
415.209	1	-5
415.550	1	0
415.892	1	2
416.233	1	5
416.575	1	20
416.916	1	-4
417.257	1	-9
417.599	1	0
417.940	1	22
418.281	1	7
418.623	1	-9
418.964	1	-14
419.305	1	2
419.647	1	-4
419.988	1	-5
420.329	1	-5
420.671	1	6
421.012	1	7
421.353	1	8
421.695	1	-2
422.036	1	6
422.377	1	-5
422.718	1	3
423.060	1	-1
423.401	1	-3
423.742	1	3
424.084	1	6
424.425	1	-5
424.766	1	-7
425.107	1	1
425.449	1	6
425.790	1	-10
426.131	1	5
426.472	1	-2
426.814	1	-3
427.155	1	-9
427.496	1	-3
427.837	1	-7
428.179	1	-15
428.520	1	5
428.861	1	-5
429.202	1	0
429.544	1	-4
429.885	1	-4
430.226	1	-6
430.567	1	-4
430.909	1	2
431.250	1	-7
431.591	1	8
431.932	1	0
432.273	1	-2
432.615	1	-17
432.956	1	-6
433.297	1	8
433.638	1	-2
433.979	1	7
434.320	1	5
434.662	1	4
435.003	1	-2
435.344	1	-5
435.685	1	-9
436.026	1	10
436.368	1	1
436.709	1	1
437.050	1	-2
437.391	1	4
437.732	1	1
438.073	1	3
438.414	1	-7
438.756	1	2
439.097	1	-5
439.438	1	1
439.779	1	2
440.120	1	0
440.461	1	0
440.802	1	-4
441.143	1	12
441.485	1	0
441.826	1	-3
442.167	1	1
442.508	1	4
442.849	1	10
443.190	1	7
443.531	1	7
443.872	1	1
444.213	1	-3
444.554	1	13
444.895	1	0
445.237	1	-3
445.578	1	-9
445.919	1	-7
446.260	1	-3
446.601	1	-2
446.942	1	4
447.283	1	-11
447.624	1	0
447.965	1	-10
448.306	1	-1
448.647	1	-8
448.988	1	-11
449.329	1	-5
449.670	1	14
450.011	1	9
450.352	1	-6
450.693	1	3
451.034	1	-4
451.375	1	4
451.716	1	-1
452.057	1	-1
452.398	1	-4
452.739	1	-5
453.080	1	6
453.421	1	0
453.762	1	1
454.103	1	8
454.444	1	-6
454.785	1	2
455.126	1	-1
455.467	1	-1
455.808	1	-1
456.149	1	0
456.490	1	2
456.831	1	5
457.172	1	-6
457.513	1	3
457.854	1	3
458.195	1	-2
458.536	1	10
458.877	1	9
459.218	1	-7
459.559	1	6
459.899	1	0
460.240	1	10
460.581	1	16
460.922	1	-3
461.263	1	-7
461.604	1	-3
461.945	1	-7
462.286	1	-1
462.627	1	5
462.968	1	-3
463.309	1	-5
463.649	1	-6
463.990	1	-1
464.331	1	0
464.672	1	1
465.013	1	-4
465.354	1	0
465.695	1	-8
466.036	1	-15
466.376	1	-11
466.717	1	2
467.058	1	5
467.399	1	2
467.740	1	0
468.081	1	-1
468.422	1	-12
468.762	1	-13
469.103	1	-13
469.444	1	-6
469.785	1	-17
470.126	1	-4
470.467	1	1
470.807	1	4
471.148	1	5
471.489	1	-4
471.830	1	-2
472.171	1	6
472.511	1	-7
472.852	1	-7
473.193	1	6
473.534	1	6
473.875	1	9
474.215	1	12
474.556	1	-2
474.897	1	6
475.238	1	-3
475.578	1	-8
475.919	1	8
476.260	1	-5
476.601	1	1
476.942	1	11
477.282	1	-3
477.623	1	-15
477.964	1	-9
478.305	1	-11
478.645	1	6
478.986	1	10
479.327	1	-10
479.667	1	0
480.008	1	1
480.349	1	-3
480.690	1	-5
481.030	1	-4
481.371	1	9
481.712	1	-3
482.053	1	4
482.393	1	-7
482.734	1	-6
483.075	1	-2
483.415	1	-4
483.756	1	9
484.097	1	-4
484.437	1	-8
484.778	1	0
485.119	1	-3
485.459	1	9
485.800	1	0
486.141	1	3
486.481	1	-2
486.822	1	6
487.163	1	-6
487.503	1	11
487.844	1	-4
488.185	1	0
488.525	1	-3
488.866	1	-3
489.207	1	-2
489.547	1	-2
489.888	1	-7
490.228	1	3
490.569	1	14
490.910	1	5
491.250	1	-5
491.591	1	-8
491.932	1	5
492.272	1	1
492.613	1	0
492.953	1	0
493.294	1	5
493.635	1	3
493.975	1	-12
494.316	1	3
494.656	1	-4
494.997	1	-2
495.337	1	12
495.678	1	2
496.019	1	3
496.359	1	-3
496.700	1	-2
497.040	1	-7
497.381	1	-2
497.721	1	-4
498.062	1	8
498.403	1	6
498.743	1	-7
499.084	1	-7
499.424	1	-4
499.765	1	-5
500.105	1	1
500.446	1	-12
500.786	1	1
501.127	1	-5
501.467	1	-2
501.808	1	1
502.148	1	-2
502.489	1	7
502.829	1	-17
503.170	1	10
503.510	1	6
503.851	1	1
504.191	1	-1
504.532	1	7
504.872	1	4
505.213	1	9
505.553	1	-4
505.894	1	2
506.234	1	3
506.575	1	9
506.915	1	8
507.256	1	-4
507.596	1	-3
507.936	1	4
508.277	1	-6
508.617	1	1
508.958	1	-6
509.298	1	13
509.639	1	-5
509.979	1	-4
510.319	1	11
510.660	1	-8
511.000	1	-4
511.341	1	-5
511.681	1	5
512.022	1	-5
512.362	1	-8
512.702	1	-5
513.043	1	8
513.383	1	-9
513.724	1	7
514.064	1	12
514.404	1	2
514.745	1	-6
515.085	1	7
515.425	1	4
515.766	1	-2
516.106	1	0
516.447	1	16
516.787	1	-3
517.127	1	-3
517.468	1	-11
517.808	1	3
518.148	1	1
518.489	1	-4
518.829	1	5
519.169	1	3
519.510	1	10
519.850	1	4
520.190	1	3
520.531	1	4
520.871	1	4
521.211	1	-6
521.552	1	4
521.892	1	-7
522.232	1	-1
522.573	1	0
522.913	1	14
523.253	1	-1
523.593	1	-2
523.934	1	3
524.274	1	6
524.614	1	-1
524.955	1	-8
525.295	1	-4
525.635	1	2
525.975	1	0
526.316	1	13
526.656	1	5
526.996	1	5
527.337	1	3
527.677	1	11
528.017	1	-12
528.357	1	-1
528.698	1	1
529.038	1	-9
529.378	1	3
529.718	1	4
530.058	1	-1
530.399	1	0
530.739	1	0
531.079	1	4
531.419	1	4
531.760	1	1
532.100	1	-6
532.440	1	1
532.780	1	2
533.120	1	10
533.461	1	-1
533.801	1	9
534.141	1	-12
534.481	1	-12
534.821	1	10
535.162	1	3
535.502	1	2
535.842	1	-1
536.182	1	-6
536.522	1	-2
536.862	1	7
537.203	1	-3
537.543	1	-4
537.883	1	-4
538.223	1	2
538.563	1	2
538.903	1	-6
539.243	1	2
539.584	1	0
539.924	1	12
540.264	1	-3
540.604	1	5
540.944	1	-5
541.284	1	11
541.624	1	12
541.964	1	13
542.305	1	7
542.645	1	2
542.985	1	3
543.325	1	3
543.665	1	12
544.005	1	5
544.345	1	5
544.685	1	-1
545.025	1	7
545.365	1	-1
545.705	1	7
546.045	1	-5
546.386	1	0
546.726	1	-8
547.066	1	12
547.406	1	-1
547.746	1	-11
548.086	1	-3
548.426	1	-12
548.766	1	-3
549.106	1	2
549.446	1	8
549.786	1	-1
550.126	1	23
550.466	1	1
550.806	1	5
551.146	1	-1
551.486	1	3
551.826	1	7
552.166	1	4
552.506	1	9
552.846	1	-7
553.186	1	5
553.526	1	3
553.866	1	1
554.206	1	5
554.546	1	4
554.886	1	9
555.226	1	-3
555.566	1	13
555.906	1	10
556.246	1	5
556.586	1	-5
556.926	1	5
557.266	1	-3
557.606	1	6
557.946	1	4
558.286	1	5
558.626	1	9
558.966	1	-1
559.306	1	1
559.646	1	-2
559.986	1	2
560.325	1	-4
560.665	1	8
561.005	1	0
561.345	1	9
561.685	1	7
562.025	1	2
562.365	1	1
562.705	1	7
563.045	1	-3
563.385	1	-15
563.725	1	1
564.064	1	-5
564.404	1	-4
564.744	1	4
565.084	1	-7
565.424	1	0
565.764	1	0
566.104	1	0
566.444	1	-10
566.783	1	1
567.123	1	4
567.463	1	4
567.803	1	-14
568.143	1	3
568.483	1	5
568.823	1	0
569.162	1	13
569.502	1	0
569.842	1	5
570.182	1	-1
570.522	1	-5
570.862	1	-8
571.201	1	12
571.541	1	11
571.881	1	6
572.221	1	0
572.561	1	5
572.900	1	-10
573.240	1	-2
573.580	1	5
573.920	1	3
574.260	1	5
574.599	1	3
574.939	1	11
575.279	1	11
575.619	1	6
575.959	1	-6
576.298	1	10
576.638	1	-4
576.978	1	6
577.318	1	-4
577.657	1	-11
577.997	1	7
578.337	1	13
578.677	1	4
579.016	1	10
579.356	1	-5
579.696	1	6
580.036	1	-5
580.375	1	5
580.715	1	-2
581.055	1	-5
581.394	1	3
581.734	1	2
582.074	1	0
582.414	1	8
582.753	1	-2
583.093	1	7
583.433	1	5
583.772	1	7
584.112	1	1
584.452	1	7
584.791	1	-6
585.131	1	8
585.471	1	7
585.811	1	6
586.150	1	-6
586.490	1	2
586.830	1	4
587.169	1	-1
587.509	1	2
587.849	1	-2
588.188	1	22
588.528	1	-1
588.867	1	9
589.207	1	-4
589.547	1	-3
589.886	1	-3
590.226	1	11
590.566	1	-4
590.905	1	2
591.245	1	-3
591.585	1	14
591.924	1	5
592.264	1	3
592.603	1	-7
592.943	1	1
593.283	1	-6
593.622	1	-8
593.962	1	3
594.301	1	9
594.641	1	-2
594.981	1	-6
595.320	1	9
595.660	1	-1
595.999	1	-8
596.339	1	7
596.678	1	0
597.018	1	-9
597.358	1	0
597.697	1	-3
598.037	1	4
598.376	1	4
598.716	1	11
599.055	1	7
599.395	1	0
599.734	1	2
600.074	1	1
600.413	1	9
600.753	1	2
601.092	1	11
601.432	1	-10
601.771	1	3
602.111	1	-2
602.451	1	12
602.790	1	-3
603.130	1	4
603.469	1	-9
603.809	1	9
604.148	1	-1
604.487	1	1
604.827	1	5
605.166	1	14
605.506	1	4
605.845	1	9
606.185	1	10
606.524	1	1
606.864	1	-2
607.203	1	1
607.543	1	-8
607.882	1	7
608.222	1	9
608.561	1	6
608.901	1	10
609.240	1	-6
609.579	1	7
609.919	1	6
610.258	1	6
610.598	1	-4
610.937	1	-7
611.277	1	5
611.616	1	4
611.955	1	-4
612.295	1	-6
612.634	1	3
612.974	1	-10
613.313	1	14
613.652	1	-2
613.992	1	4
614.331	1	2
614.671	1	-2
615.010	1	-4
615.349	1	10
615.689	1	-4
616.028	1	-5
616.368	1	8
616.707	1	1
617.046	1	3
617.386	1	3
617.725	1	-3
618.064	1	-3
618.404	1	-10
618.743	1	-1
619.082	1	-2
619.422	1	-11
619.761	1	11
620.100	1	3
620.440	1	3
620.779	1	-2
621.118	1	-5
621.458	1	9
621.797	1	-11
622.136	1	14
622.476	1	4
622.815	1	11
623.154	1	10
623.494	1	6
623.833	1	-1
624.172	1	1
624.511	1	1
624.851	1	-8
625.190	1	8
625.529	1	-1
625.869	1	14
626.208	1	-2
626.547	1	4
626.886	1	5
627.226	1	3
627.565	1	7
627.904	1	-1
628.243	1	3
628.583	1	3
628.922	1	-4
629.261	1	-1
629.600	1	6
629.940	1	-1
630.279	1	1
630.618	1	-2
630.957	1	3
631.297	1	3
631.636	1	-6
631.975	1	10
632.314	1	0
632.653	1	7
632.993	1	-6
633.332	1	4
633.671	1	-3
634.010	1	-1
634.349	1	0
634.689	1	-1
635.028	1	-6
635.367	1	3
635.706	1	1
636.045	1	7
636.384	1	0
636.724	1	3
637.063	1	-7
637.402	1	4
637.741	1	0
638.080	1	-9
638.419	1	3
638.759	1	-10
639.098	1	13
639.437	1	4
639.776	1	-7
640.115	1	-4
640.454	1	-10
640.793	1	14
641.132	1	9
641.472	1	3
641.811	1	0
642.150	1	-5
642.489	1	15
642.828	1	-2
643.167	1	3
643.506	1	-14
643.845	1	-3
644.184	1	10
644.524	1	1
644.863	1	-6
645.202	1	5
645.541	1	9
645.880	1	1
646.219	1	0
646.558	1	-3
646.897	1	3
647.236	1	6
647.575	1	1
647.914	1	2
648.253	1	9
648.592	1	-3
648.931	1	9
649.270	1	-3
649.610	1	4
649.949	1	0
650.288	1	4
650.627	1	5
650.966	1	9
651.305	1	1
651.644	1	11
651.983	1	0
652.322	1	4
652.661	1	4
653.000	1	2
653.339	1	0
653.678	1	7
654.017	1	1
654.356	1	2
654.695	1	6
655.034	1	0
655.373	1	9
655.712	1	3
656.051	1	8
656.390	1	0
656.729	1	-12
657.068	1	2
657.406	1	8
657.745	1	-7
658.084	1	3
658.423	1	8
658.762	1	0
659.101	1	10
659.440	1	9
659.779	1	-3
660.118	1	2
660.457	1	0
660.796	1	-11
661.135	1	-3
661.474	1	-6
661.813	1	9
662.152	1	1
662.491	1	3
662.829	1	-4
663.168	1	7
663.507	1	7
663.846	1	3
664.185	1	1
664.524	1	-1
664.863	1	-1
665.202	1	-2
665.541	1	-7
665.879	1	-3
666.218	1	-8
666.557	1	-1
666.896	1	-2
667.235	1	5
667.574	1	-1
667.913	1	-6
668.251	1	3
668.590	1	0
668.929	1	-9
669.268	1	-6
669.607	1	-1
669.946	1	2
670.285	1	10
670.623	1	5
670.962	1	-1
671.301	1	1
671.640	1	7
671.979	1	-1
672.317	1	6
672.656	1	3
672.995	1	9
673.334	1	0
673.673	1	1
674.011	1	4
674.350	1	3
674.689	1	1
675.028	1	-3
675.367	1	-3
675.705	1	3
676.044	1	1
676.383	1	6
676.722	1	12
677.060	1	-6
677.399	1	-5
677.738	1	6
678.077	1	1
678.416	1	-4
678.754	1	-6
679.093	1	5
679.432	1	1
679.771	1	-4
680.109	1	0
680.448	1	2
680.787	1	-1
681.125	1	2
681.464	1	-2
681.803	1	-2
682.142	1	12
682.480	1	14
682.819	1	-2
683.158	1	-1
683.496	1	4
683.835	1	1
684.174	1	-5
684.512	1	4
684.851	1	6
685.190	1	-7
685.529	1	2
685.867	1	1
686.206	1	-7
686.545	1	-5
686.883	1	-3
687.222	1	9
687.561	1	7
687.899	1	5
688.238	1	10
688.577	1	-5
688.746	1	0