File: Data/GaN_200K_800ms/GaN_sample F_spot 12_UVVIS_200 K_200um_800 ms 2x2mm1_218.txt
340.368	1	7
340.710	1	-6
341.052	1	11
341.394	1	-6
341.737	1	4
342.079	1	3
342.421	1	0
342.763	1	5
343.105	1	9
343.447	1	-2
343.789	1	3
344.131	1	-2
344.473	1	-7
344.815	1	5
345.157	1	-7
345.499	1	12
345.841	1	-1
346.183	1	-5
346.526	1	-2
346.868	1	7
347.210	1	-12
347.552	1	-13
347.894	1	-7
348.236	1	11
348.578	1	7
348.920	1	0
349.262	1	2
349.604	1	3
349.946	1	-2
350.288	1	4
350.630	1	7
350.972	1	1
351.314	1	0
351.656	1	2
351.998	1	9
352.340	1	0
352.682	1	1
353.024	1	12
353.366	1	5
353.708	1	-1
354.050	1	-4
354.392	1	0
354.734	1	15
355.076	1	1
355.418	1	-6
355.760	1	-1
356.102	1	16
356.444	1	9
356.785	1	11
357.127	1	8
357.469	1	11
357.811	1	2
358.153	1	-2
358.495	1	4
358.837	1	0
359.179	1	1
359.521	1	13
359.863	1	4
360.205	1	9
360.547	1	4
360.889	1	7
361.231	1	0
361.572	1	2
361.914	1	6
362.256	1	14
362.598	1	0
362.940	1	4
363.282	1	4
363.624	1	9
363.966	1	9
364.308	1	14
364.649	1	24
364.991	1	11
365.333	1	10
365.675	1	5
366.017	1	17
366.359	1	27
366.701	1	24
367.042	1	17
367.384	1	33
367.726	1	27
368.068	1	25
368.410	1	21
368.752	1	17
369.093	1	15
369.435	1	34
369.777	1	33
370.119	1	32
370.461	1	35
370.803	1	19
371.144	1	22
371.486	1	30
371.828	1	32
372.170	1	21
372.512	1	19
372.853	1	22
373.195	1	19
373.537	1	24
373.879	1	19
374.220	1	34
374.562	1	28
374.904	1	12
375.246	1	20
375.588	1	15
375.929	1	16
376.271	1	21
376.613	1	11
376.955	1	12
377.296	1	4
377.638	1	14
377.980	1	10
378.321	1	0
378.663	1	-1
379.005	1	19
379.347	1	9
379.688	1	13
380.030	1	-1
380.372	1	10
380.714	1	3
381.055	1	13
381.397	1	4
381.739	1	4
382.080	1	8
382.422	1	12
382.764	1	5
383.105	1	4
383.447	1	1
383.789	1	3
384.130	1	2
384.472	1	8
384.814	1	2
385.156	1	-1
385.497	1	16
385.839	1	-2
386.180	1	6
386.522	1	9
386.864	1	8
387.205	1	-4
387.547	1	1
387.889	1	8
388.230	1	20
388.572	1	5
388.914	1	11
389.255	1	2
389.597	1	7
389.939	1	-5
390.280	1	4
390.622	1	-5
390.963	1	6
391.305	1	12
391.647	1	9
391.988	1	2
392.330	1	12
392.671	1	3
393.013	1	2
393.355	1	17
393.696	1	12
394.038	1	-6
394.379	1	5
394.721	1	-14
395.062	1	7
395.404	1	2
395.746	1	3
396.087	1	2
396.429	1	5
396.770	1	3
397.112	1	8
397.453	1	18
397.795	1	9
398.136	1	2
398.478	1	5
398.819	1	7
399.161	1	11
399.503	1	4
399.844	1	-3
400.186	1	-1
400.527	1	0
400.869	1	4
401.210	1	5
401.552	1	1
401.893	1	-4
402.235	1	9
402.576	1	2
402.918	1	5
403.259	1	9
403.601	1	1
403.942	1	7
404.284	1	6
404.625	1	16
404.967	1	6
405.308	1	0
405.649	1	4
405.991	1	-1
406.332	1	1
406.674	1	1
407.015	1	10
407.357	1	-2
407.698	1	16
408.040	1	-3
408.381	1	3
408.722	1	-16
409.064	1	-2
409.405	1	13
409.747	1	0
410.088	1	2
410.430	1	1
410.771	1	1
411.112	1	-14
411.454	1	-3
411.795	1	-5
412.137	1	4
412.478	1	11
412.819	1	-9
413.161	1	-5
413.502	1	5
413.844	1	8
414.185	1	5
414.526	1	-5
414.868	1	5
415.209	1	-1
415.550	1	-8
415.892	1	-1
416.233	1	3
416.575	1	7
416.916	1	-7
417.257	1	-10
417.599	1	7
417.940	1	10
418.281	1	3
418.623	1	-2
418.964	1	-7
419.305	1	4
419.647	1	-7
419.988	1	0
420.329	1	-10
420.671	1	-1
421.012	1	0
421.353	1	-3
421.695	1	-6
422.036	1	2
422.377	1	-3
422.718	1	5
423.060	1	-7
423.401	1	-7
423.742	1	8
424.084	1	0
424.425	1	10
424.766	1	3
425.107	1	1
425.449	1	7
425.790	1	-6
426.131	1	-5
426.472	1	2
426.814	1	9
427.155	1	1
427.496	1	-1
427.837	1	-5
428.179	1	-9
428.520	1	7
428.861	1	3
429.202	1	4
429.544	1	-1
429.885	1	3
430.226	1	-5
430.567	1	1
430.909	1	1
431.250	1	1
431.591	1	7
431.932	1	2
432.273	1	1
432.615	1	-7
432.956	1	-14
433.297	1	0
433.638	1	3
433.979	1	3
434.320	1	10
434.662	1	1
435.003	1	-2
435.344	1	3
435.685	1	2
436.026	1	-1
436.368	1	-2
436.709	1	-6
437.050	1	1
437.391	1	16
437.732	1	-7
438.073	1	-1
438.414	1	-7
438.756	1	-6
439.097	1	-4
439.438	1	-3
439.779	1	2
440.120	1	-4
440.461	1	4
440.802	1	-1
441.143	1	7
441.485	1	-2
441.826	1	-8
442.167	1	-7
442.508	1	-7
442.849	1	8
443.190	1	-12
443.531	1	10
443.872	1	1
444.213	1	1
444.554	1	12
444.895	1	-1
445.237	1	1
445.578	1	-17
445.919	1	-8
446.260	1	-9
446.601	1	1
446.942	1	5
447.283	1	-4
447.624	1	5
447.965	1	7
448.306	1	5
448.647	1	3
448.988	1	-2
449.329	1	7
449.670	1	12
450.011	1	1
450.352	1	0
450.693	1	-5
451.034	1	4
451.375	1	1
451.716	1	-1
452.057	1	-1
452.398	1	-5
452.739	1	-7
453.080	1	3
453.421	1	1
453.762	1	7
454.103	1	-3
454.444	1	2
454.785	1	-6
455.126	1	-14
455.467	1	2
455.808	1	1
456.149	1	10
456.490	1	3
456.831	1	3
457.172	1	-9
457.513	1	6
457.854	1	-1
458.195	1	-4
458.536	1	15
458.877	1	0
459.218	1	0
459.559	1	0
459.899	1	2
460.240	1	0
460.581	1	9
460.922	1	9
461.263	1	1
461.604	1	-1
461.945	1	5
462.286	1	7
462.627	1	5
462.968	1	6
463.309	1	-11
463.649	1	0
463.990	1	-6
464.331	1	2
464.672	1	0
465.013	1	-1
465.354	1	-2
465.695	1	-7
466.036	1	2
466.376	1	-6
466.717	1	-5
467.058	1	1
467.399	1	6
467.740	1	1
468.081	1	-4
468.422	1	-2
468.762	1	-9
469.103	1	-4
469.444	1	-12
469.785	1	-14
470.126	1	-7
470.467	1	1
470.807	1	1
471.148	1	3
471.489	1	1
471.830	1	9
472.171	1	7
472.511	1	-6
472.852	1	-3
473.193	1	2
473.534	1	5
473.875	1	23
474.215	1	10
474.556	1	-10
474.897	1	10
475.238	1	-3
475.578	1	-7
475.919	1	0
476.260	1	-2
476.601	1	7
476.942	1	8
477.282	1	5
477.623	1	-10
477.964	1	-2
478.305	1	-1
478.645	1	5
478.986	1	-4
479.327	1	-4
479.667	1	-4
480.008	1	1
480.349	1	1
480.690	1	7
481.030	1	-13
481.371	1	-5
481.712	1	3
482.053	1	4
482.393	1	1
482.734	1	2
483.075	1	-1
483.415	1	-1
483.756	1	11
484.097	1	3
484.437	1	-3
484.778	1	7
485.119	1	-5
485.459	1	10
485.800	1	5
486.141	1	-5
486.481	1	6
486.822	1	7
487.163	1	-1
487.503	1	2
487.844	1	-3
488.185	1	0
488.525	1	-2
488.866	1	7
489.207	1	-1
489.547	1	1
489.888	1	-8
490.228	1	0
490.569	1	11
490.910	1	11
491.250	1	-3
491.591	1	-3
491.932	1	4
492.272	1	8
492.613	1	3
492.953	1	1
493.294	1	1
493.635	1	-3
493.975	1	-1
494.316	1	4
494.656	1	-6
494.997	1	5
495.337	1	7
495.678	1	-4
496.019	1	-2
496.359	1	1
496.700	1	3
497.040	1	-2
497.381	1	-3
497.721	1	-3
498.062	1	3
498.403	1	5
498.743	1	4
499.084	1	-10
499.424	1	6
499.765	1	0
500.105	1	-6
500.446	1	-8
500.786	1	-5
501.127	1	0
501.467	1	-1
501.808	1	3
502.148	1	1
502.489	1	0
502.829	1	-9
503.170	1	4
503.510	1	2
503.851	1	-2
504.191	1	8
504.532	1	6
504.872	1	-5
505.213	1	3
505.553	1	-3
505.894	1	-13
506.234	1	11
506.575	1	5
506.915	1	-2
507.256	1	3
507.596	1	6
507.936	1	3
508.277	1	4
508.617	1	-3
508.958	1	-9
509.298	1	7
509.639	1	-4
509.979	1	-7
510.319	1	4
510.660	1	-2
511.000	1	-2
511.341	1	2
511.681	1	7
512.022	1	-5
512.362	1	-4
512.702	1	-1
513.043	1	4
513.383	1	-6
513.724	1	-10
514.064	1	2
514.404	1	3
514.745	1	-6
515.085	1	6
515.425	1	-11
515.766	1	-3
516.106	1	-10
516.447	1	14
516.787	1	9
517.127	1	3
517.468	1	2
517.808	1	2
518.148	1	11
518.489	1	0
518.829	1	1
519.169	1	2
519.510	1	5
519.850	1	8
520.190	1	-4
520.531	1	3
520.871	1	3
521.211	1	-2
521.552	1	14
521.892	1	7
522.232	1	0
522.573	1	3
522.913	1	12
523.253	1	12
523.593	1	7
523.934	1	-3
524.274	1	7
524.614	1	-3
524.955	1	-11
525.295	1	11
525.635	1	9
525.975	1	7
526.316	1	8
526.656	1	1
526.996	1	-1
527.337	1	4
527.677	1	5
528.017	1	-10
528.357	1	8
528.698	1	6
529.038	1	5
529.378	1	9
529.718	1	13
530.058	1	2
530.399	1	10
530.739	1	3
531.079	1	7
531.419	1	10
531.760	1	8
532.100	1	-6
532.440	1	6
532.780	1	-9
533.120	1	9
533.461	1	4
533.801	1	15
534.141	1	-10
534.481	1	-12
534.821	1	0
535.162	1	2
535.502	1	-8
535.842	1	10
536.182	1	-7
536.522	1	-5
536.862	1	6
537.203	1	-6
537.543	1	5
537.883	1	12
538.223	1	8
538.563	1	7
538.903	1	-10
539.243	1	5
539.584	1	2
539.924	1	10
540.264	1	3
540.604	1	1
540.944	1	-7
541.284	1	8
541.624	1	15
541.964	1	9
542.305	1	1
542.645	1	7
542.985	1	5
543.325	1	10
543.665	1	8
544.005	1	10
544.345	1	14
544.685	1	2
545.025	1	0
545.365	1	3
545.705	1	5
546.045	1	-4
546.386	1	15
546.726	1	-5
547.066	1	-1
547.406	1	10
547.746	1	-8
548.086	1	2
548.426	1	0
548.766	1	3
549.106	1	1
549.446	1	-2
549.786	1	-4
550.126	1	14
550.466	1	3
550.806	1	1
551.146	1	10
551.486	1	0
551.826	1	11
552.166	1	-3
552.506	1	11
552.846	1	10
553.186	1	14
553.526	1	8
553.866	1	1
554.206	1	8
554.546	1	3
554.886	1	4
555.226	1	-5
555.566	1	10
555.906	1	9
556.246	1	6
556.586	1	1
556.926	1	11
557.266	1	-7
557.606	1	0
557.946	1	7
558.286	1	6
558.626	1	6
558.966	1	4
559.306	1	2
559.646	1	2
559.986	1	0
560.325	1	-8
560.665	1	4
561.005	1	6
561.345	1	2
561.685	1	9
562.025	1	7
562.365	1	7
562.705	1	5
563.045	1	-5
563.385	1	-1
563.725	1	-3
564.064	1	-1
564.404	1	5
564.744	1	3
565.084	1	7
565.424	1	-1
565.764	1	5
566.104	1	1
566.444	1	-1
566.783	1	3
567.123	1	6
567.463	1	6
567.803	1	2
568.143	1	2
568.483	1	9
568.823	1	5
569.162	1	12
569.502	1	2
569.842	1	13
570.182	1	9
570.522	1	-10
570.862	1	3
571.201	1	7
571.541	1	15
571.881	1	17
572.221	1	4
572.561	1	-1
572.900	1	0
573.240	1	3
573.580	1	8
573.920	1	11
574.260	1	10
574.599	1	11
574.939	1	1
575.279	1	11
575.619	1	7
575.959	1	-11
576.298	1	15
576.638	1	-6
576.978	1	9
577.318	1	5
577.657	1	9
577.997	1	-3
578.337	1	15
578.677	1	14
579.016	1	9
579.356	1	-8
579.696	1	11
580.036	1	-6
580.375	1	-2
580.715	1	2
581.055	1	-1
581.394	1	4
581.734	1	5
582.074	1	-1
582.414	1	5
582.753	1	-2
583.093	1	2
583.433	1	3
583.772	1	13
584.112	1	0
584.452	1	10
584.791	1	-1
585.131	1	11
585.471	1	13
585.811	1	6
586.150	1	4
586.490	1	-5
586.830	1	7
587.169	1	-1
587.509	1	9
587.849	1	5
588.188	1	12
588.528	1	8
588.867	1	7
589.207	1	-1
589.547	1	6
589.886	1	1
590.226	1	5
590.566	1	1
590.905	1	-3
591.245	1	4
591.585	1	5
591.924	1	5
592.264	1	8
592.603	1	11
592.943	1	4
593.283	1	-1
593.622	1	5
593.962	1	10
594.301	1	10
594.641	1	-4
594.981	1	-5
595.320	1	-1
595.660	1	-1
595.999	1	4
596.339	1	11
596.678	1	-8
597.018	1	0
597.358	1	4
597.697	1	9
598.037	1	-2
598.376	1	11
598.716	1	17
599.055	1	3
599.395	1	5
599.734	1	4
600.074	1	0
600.413	1	13
600.753	1	4
601.092	1	17
601.432	1	-4
601.771	1	3
602.111	1	5
602.451	1	10
602.790	1	7
603.130	1	13
603.469	1	3
603.809	1	0
604.148	1	3
604.487	1	9
604.827	1	2
605.166	1	4
605.506	1	9
605.845	1	4
606.185	1	6
606.524	1	5
606.864	1	3
607.203	1	-1
607.543	1	1
607.882	1	12
608.222	1	9
608.561	1	12
608.901	1	13
609.240	1	-8
609.579	1	13
609.919	1	11
610.258	1	13
610.598	1	4
610.937	1	6
611.277	1	8
611.616	1	5
611.955	1	6
612.295	1	-1
612.634	1	7
612.974	1	-10
613.313	1	11
613.652	1	13
613.992	1	6
614.331	1	8
614.671	1	9
615.010	1	-9
615.349	1	7
615.689	1	12
616.028	1	-3
616.368	1	9
616.707	1	5
617.046	1	3
617.386	1	9
617.725	1	8
618.064	1	-6
618.404	1	-5
618.743	1	2
619.082	1	-1
619.422	1	-3
619.761	1	11
620.100	1	11
620.440	1	4
620.779	1	-11
621.118	1	-1
621.458	1	3
621.797	1	1
622.136	1	19
622.476	1	-3
622.815	1	14
623.154	1	5
623.494	1	13
623.833	1	8
624.172	1	7
624.511	1	3
624.851	1	-13
625.190	1	-1
625.529	1	4
625.869	1	8
626.208	1	-3
626.547	1	-2
626.886	1	7
627.226	1	4
627.565	1	4
627.904	1	5
628.243	1	0
628.583	1	-8
628.922	1	1
629.261	1	8
629.600	1	13
629.940	1	-5
630.279	1	-1
630.618	1	12
630.957	1	6
631.297	1	0
631.636	1	-12
631.975	1	11
632.314	1	1
632.653	1	2
632.993	1	-12
633.332	1	-1
633.671	1	-2
634.010	1	1
634.349	1	12
634.689	1	2
635.028	1	5
635.367	1	-5
635.706	1	2
636.045	1	4
636.384	1	3
636.724	1	-1
637.063	1	6
637.402	1	6
637.741	1	-2
638.080	1	-4
638.419	1	4
638.759	1	0
639.098	1	10
639.437	1	6
639.776	1	7
640.115	1	2
640.454	1	0
640.793	1	5
641.132	1	3
641.472	1	6
641.811	1	2
642.150	1	-3
642.489	1	0
642.828	1	8
643.167	1	0
643.506	1	-5
643.845	1	2
644.184	1	7
644.524	1	-9
644.863	1	-6
645.202	1	-3
645.541	1	0
645.880	1	15
646.219	1	4
646.558	1	1
646.897	1	6
647.236	1	4
647.575	1	12
647.914	1	-10
648.253	1	0
648.592	1	2
648.931	1	20
649.270	1	0
649.610	1	3
649.949	1	3
650.288	1	6
650.627	1	5
650.966	1	3
651.305	1	15
651.644	1	11
651.983	1	2
652.322	1	0
652.661	1	-3
653.000	1	8
653.339	1	7
653.678	1	0
654.017	1	2
654.356	1	-6
654.695	1	2
655.034	1	5
655.373	1	8
655.712	1	9
656.051	1	7
656.390	1	-5
656.729	1	8
657.068	1	6
657.406	1	4
657.745	1	0
658.084	1	3
658.423	1	1
658.762	1	-3
659.101	1	9
659.440	1	-1
659.779	1	7
660.118	1	3
660.457	1	5
660.796	1	-8
661.135	1	1
661.474	1	6
661.813	1	19
662.152	1	7
662.491	1	-4
662.829	1	-6
663.168	1	0
663.507	1	5
663.846	1	-1
664.185	1	4
664.524	1	6
664.863	1	-1
665.202	1	3
665.541	1	-9
665.879	1	-10
666.218	1	-8
666.557	1	3
666.896	1	-5
667.235	1	2
667.574	1	-2
667.913	1	4
668.251	1	-5
668.590	1	-1
668.929	1	-12
669.268	1	2
669.607	1	0
669.946	1	2
670.285	1	13
670.623	1	-2
670.962	1	-8
671.301	1	2
671.640	1	3
671.979	1	0
672.317	1	3
672.656	1	1
672.995	1	5
673.334	1	0
673.673	1	-1
674.011	1	-4
674.350	1	4
674.689	1	-8
675.028	1	0
675.367	1	8
675.705	1	5
676.044	1	2
676.383	1	6
676.722	1	-3
677.060	1	6
677.399	1	-4
677.738	1	8
678.077	1	5
678.416	1	1
678.754	1	-5
679.093	1	9
679.432	1	3
679.771	1	1
680.109	1	4
680.448	1	-2
680.787	1	-4
681.125	1	4
681.464	1	3
681.803	1	1
682.142	1	9
682.480	1	7
682.819	1	-2
683.158	1	-4
683.496	1	6
683.835	1	3
684.174	1	-4
684.512	1	-1
684.851	1	-5
685.190	1	7
685.529	1	2
685.867	1	8
686.206	1	-8
686.545	1	-7
686.883	1	3
687.222	1	4
687.561	1	9
687.899	1	-4
688.238	1	7
688.577	1	-8
688.746	1	5