File: Data/GaN_200K_800ms/GaN_sample F_spot 12_UVVIS_200 K_200um_800 ms 2x2mm1_232.txt
340.368	1	9
340.710	1	-4
341.052	1	12
341.394	1	-8
341.737	1	12
342.079	1	0
342.421	1	-6
342.763	1	-1
343.105	1	3
343.447	1	-4
343.789	1	-4
344.131	1	-9
344.473	1	-6
344.815	1	1
345.157	1	-10
345.499	1	6
345.841	1	1
346.183	1	-5
346.526	1	-6
346.868	1	4
347.210	1	-2
347.552	1	-2
347.894	1	1
348.236	1	2
348.578	1	-1
348.920	1	1
349.262	1	1
349.604	1	-4
349.946	1	0
350.288	1	7
350.630	1	8
350.972	1	-2
351.314	1	8
351.656	1	3
351.998	1	2
352.340	1	-5
352.682	1	8
353.024	1	5
353.366	1	4
353.708	1	9
354.050	1	-4
354.392	1	0
354.734	1	2
355.076	1	8
355.418	1	-8
355.760	1	-3
356.102	1	13
356.444	1	3
356.785	1	14
357.127	1	1
357.469	1	-1
357.811	1	5
358.153	1	6
358.495	1	4
358.837	1	-1
359.179	1	10
359.521	1	10
359.863	1	-3
360.205	1	2
360.547	1	7
360.889	1	1
361.231	1	0
361.572	1	10
361.914	1	7
362.256	1	12
362.598	1	2
362.940	1	10
363.282	1	5
363.624	1	4
363.966	1	-1
364.308	1	5
364.649	1	14
364.991	1	19
365.333	1	3
365.675	1	8
366.017	1	8
366.359	1	19
366.701	1	18
367.042	1	21
367.384	1	20
367.726	1	11
368.068	1	16
368.410	1	36
368.752	1	24
369.093	1	29
369.435	1	23
369.777	1	23
370.119	1	25
370.461	1	42
370.803	1	36
371.144	1	18
371.486	1	24
371.828	1	33
372.170	1	24
372.512	1	15
372.853	1	20
373.195	1	21
373.537	1	15
373.879	1	12
374.220	1	29
374.562	1	27
374.904	1	20
375.246	1	20
375.588	1	15
375.929	1	25
376.271	1	16
376.613	1	1
376.955	1	6
377.296	1	14
377.638	1	14
377.980	1	13
378.321	1	3
378.663	1	5
379.005	1	16
379.347	1	11
379.688	1	13
380.030	1	-3
380.372	1	2
380.714	1	9
381.055	1	17
381.397	1	9
381.739	1	14
382.080	1	10
382.422	1	10
382.764	1	5
383.105	1	5
383.447	1	5
383.789	1	-2
384.130	1	-2
384.472	1	5
384.814	1	-4
385.156	1	-7
385.497	1	-1
385.839	1	2
386.180	1	10
386.522	1	7
386.864	1	16
387.205	1	-5
387.547	1	0
387.889	1	-1
388.230	1	6
388.572	1	0
388.914	1	3
389.255	1	0
389.597	1	8
389.939	1	10
390.280	1	8
390.622	1	-3
390.963	1	10
391.305	1	9
391.647	1	3
391.988	1	6
392.330	1	6
392.671	1	2
393.013	1	-1
393.355	1	7
393.696	1	6
394.038	1	3
394.379	1	5
394.721	1	0
395.062	1	0
395.404	1	-1
395.746	1	11
396.087	1	2
396.429	1	2
396.770	1	-2
397.112	1	15
397.453	1	13
397.795	1	5
398.136	1	-3
398.478	1	7
398.819	1	6
399.161	1	8
399.503	1	9
399.844	1	7
400.186	1	-3
400.527	1	5
400.869	1	9
401.210	1	7
401.552	1	-9
401.893	1	0
402.235	1	-6
402.576	1	7
402.918	1	7
403.259	1	5
403.601	1	-2
403.942	1	13
404.284	1	5
404.625	1	5
404.967	1	7
405.308	1	10
405.649	1	5
405.991	1	-7
406.332	1	5
406.674	1	-3
407.015	1	2
407.357	1	-4
407.698	1	9
408.040	1	-6
408.381	1	10
408.722	1	-14
409.064	1	2
409.405	1	2
409.747	1	8
410.088	1	10
410.430	1	16
410.771	1	1
411.112	1	-1
411.454	1	-3
411.795	1	-4
412.137	1	12
412.478	1	5
412.819	1	1
413.161	1	-1
413.502	1	3
413.844	1	3
414.185	1	9
414.526	1	3
414.868	1	4
415.209	1	-10
415.550	1	-3
415.892	1	1
416.233	1	2
416.575	1	11
416.916	1	-4
417.257	1	3
417.599	1	7
417.940	1	2
418.281	1	7
418.623	1	-4
418.964	1	-11
419.305	1	-3
419.647	1	-3
419.988	1	3
420.329	1	-12
420.671	1	15
421.012	1	-3
421.353	1	4
421.695	1	2
422.036	1	-6
422.377	1	-5
422.718	1	4
423.060	1	-2
423.401	1	5
423.742	1	9
424.084	1	-6
424.425	1	-3
424.766	1	-3
425.107	1	-6
425.449	1	7
425.790	1	-6
426.131	1	5
426.472	1	0
426.814	1	5
427.155	1	-4
427.496	1	0
427.837	1	1
428.179	1	-3
428.520	1	3
428.861	1	-8
429.202	1	2
429.544	1	7
429.885	1	1
430.226	1	-6
430.567	1	-3
430.909	1	1
431.250	1	2
431.591	1	13
431.932	1	-3
432.273	1	11
432.615	1	-11
432.956	1	-10
433.297	1	-4
433.638	1	1
433.979	1	5
434.320	1	1
434.662	1	-2
435.003	1	3
435.344	1	5
435.685	1	3
436.026	1	7
436.368	1	-1
436.709	1	0
437.050	1	-1
437.391	1	14
437.732	1	7
438.073	1	4
438.414	1	-9
438.756	1	-7
439.097	1	-9
439.438	1	1
439.779	1	4
440.120	1	-2
440.461	1	2
440.802	1	-6
441.143	1	9
441.485	1	-1
441.826	1	4
442.167	1	-1
442.508	1	0
442.849	1	15
443.190	1	3
443.531	1	7
443.872	1	7
444.213	1	0
444.554	1	3
444.895	1	-6
445.237	1	0
445.578	1	-7
445.919	1	-2
446.260	1	1
446.601	1	4
446.942	1	1
447.283	1	8
447.624	1	1
447.965	1	-4
448.306	1	1
448.647	1	-5
448.988	1	-14
449.329	1	-1
449.670	1	13
450.011	1	5
450.352	1	-2
450.693	1	-10
451.034	1	-5
451.375	1	1
451.716	1	4
452.057	1	2
452.398	1	0
452.739	1	2
453.080	1	-3
453.421	1	4
453.762	1	-3
454.103	1	7
454.444	1	-9
454.785	1	-2
455.126	1	-4
455.467	1	5
455.808	1	3
456.149	1	4
456.490	1	3
456.831	1	10
457.172	1	-6
457.513	1	6
457.854	1	3
458.195	1	0
458.536	1	-2
458.877	1	4
459.218	1	-2
459.559	1	2
459.899	1	-7
460.240	1	1
460.581	1	12
460.922	1	4
461.263	1	-2
461.604	1	1
461.945	1	9
462.286	1	0
462.627	1	5
462.968	1	3
463.309	1	-5
463.649	1	10
463.990	1	-2
464.331	1	-3
464.672	1	0
465.013	1	-2
465.354	1	3
465.695	1	-2
466.036	1	-11
466.376	1	-3
466.717	1	-1
467.058	1	-4
467.399	1	2
467.740	1	-4
468.081	1	3
468.422	1	-1
468.762	1	-7
469.103	1	-4
469.444	1	-9
469.785	1	-20
470.126	1	-8
470.467	1	1
470.807	1	4
471.148	1	0
471.489	1	-6
471.830	1	0
472.171	1	-3
472.511	1	-2
472.852	1	-7
473.193	1	0
473.534	1	10
473.875	1	8
474.215	1	25
474.556	1	4
474.897	1	0
475.238	1	-7
475.578	1	2
475.919	1	0
476.260	1	-1
476.601	1	-2
476.942	1	8
477.282	1	3
477.623	1	-4
477.964	1	5
478.305	1	1
478.645	1	11
478.986	1	-1
479.327	1	-5
479.667	1	1
480.008	1	-12
480.349	1	-10
480.690	1	-1
481.030	1	-11
481.371	1	-3
481.712	1	-2
482.053	1	10
482.393	1	-1
482.734	1	0
483.075	1	-1
483.415	1	-2
483.756	1	6
484.097	1	1
484.437	1	-4
484.778	1	5
485.119	1	-5
485.459	1	10
485.800	1	0
486.141	1	0
486.481	1	-4
486.822	1	9
487.163	1	1
487.503	1	5
487.844	1	1
488.185	1	7
488.525	1	-4
488.866	1	4
489.207	1	2
489.547	1	-1
489.888	1	-5
490.228	1	12
490.569	1	15
490.910	1	6
491.250	1	-1
491.591	1	-1
491.932	1	-8
492.272	1	3
492.613	1	-9
492.953	1	0
493.294	1	1
493.635	1	-2
493.975	1	3
494.316	1	9
494.656	1	2
494.997	1	-2
495.337	1	4
495.678	1	-2
496.019	1	-4
496.359	1	1
496.700	1	13
497.040	1	2
497.381	1	2
497.721	1	-3
498.062	1	2
498.403	1	3
498.743	1	1
499.084	1	-3
499.424	1	1
499.765	1	3
500.105	1	4
500.446	1	-12
500.786	1	-3
501.127	1	0
501.467	1	-10
501.808	1	8
502.148	1	17
502.489	1	3
502.829	1	9
503.170	1	6
503.510	1	8
503.851	1	3
504.191	1	5
504.532	1	3
504.872	1	0
505.213	1	8
505.553	1	-6
505.894	1	-8
506.234	1	4
506.575	1	5
506.915	1	6
507.256	1	5
507.596	1	-1
507.936	1	6
508.277	1	-5
508.617	1	-2
508.958	1	-12
509.298	1	-1
509.639	1	-10
509.979	1	7
510.319	1	7
510.660	1	-3
511.000	1	-1
511.341	1	-1
511.681	1	5
512.022	1	-3
512.362	1	1
512.702	1	-9
513.043	1	2
513.383	1	-17
513.724	1	-2
514.064	1	6
514.404	1	8
514.745	1	-4
515.085	1	2
515.425	1	5
515.766	1	-12
516.106	1	1
516.447	1	13
516.787	1	3
517.127	1	-2
517.468	1	0
517.808	1	-8
518.148	1	6
518.489	1	3
518.829	1	6
519.169	1	1
519.510	1	2
519.850	1	6
520.190	1	-7
520.531	1	1
520.871	1	5
521.211	1	-8
521.552	1	4
521.892	1	9
522.232	1	3
522.573	1	1
522.913	1	4
523.253	1	2
523.593	1	3
523.934	1	1
524.274	1	-1
524.614	1	1
524.955	1	-3
525.295	1	-4
525.635	1	1
525.975	1	4
526.316	1	16
526.656	1	-4
526.996	1	1
527.337	1	-2
527.677	1	9
528.017	1	-12
528.357	1	11
528.698	1	0
529.038	1	6
529.378	1	8
529.718	1	8
530.058	1	-4
530.399	1	12
530.739	1	-2
531.079	1	9
531.419	1	4
531.760	1	4
532.100	1	3
532.440	1	0
532.780	1	-5
533.120	1	4
533.461	1	6
533.801	1	18
534.141	1	-11
534.481	1	-5
534.821	1	11
535.162	1	2
535.502	1	-2
535.842	1	6
536.182	1	-7
536.522	1	-12
536.862	1	9
537.203	1	-1
537.543	1	4
537.883	1	1
538.223	1	4
538.563	1	3
538.903	1	2
539.243	1	9
539.584	1	-6
539.924	1	13
540.264	1	-8
540.604	1	4
540.944	1	-2
541.284	1	4
541.624	1	7
541.964	1	12
542.305	1	8
542.645	1	-3
542.985	1	3
543.325	1	-2
543.665	1	11
544.005	1	7
544.345	1	14
544.685	1	-2
545.025	1	3
545.365	1	5
545.705	1	5
546.045	1	-4
546.386	1	5
546.726	1	-5
547.066	1	6
547.406	1	-4
547.746	1	-7
548.086	1	2
548.426	1	-1
548.766	1	5
549.106	1	2
549.446	1	2
549.786	1	-10
550.126	1	18
550.466	1	4
550.806	1	-4
551.146	1	5
551.486	1	-4
551.826	1	4
552.166	1	8
552.506	1	-1
552.846	1	16
553.186	1	0
553.526	1	1
553.866	1	10
554.206	1	7
554.546	1	1
554.886	1	5
555.226	1	-11
555.566	1	4
555.906	1	12
556.246	1	0
556.586	1	0
556.926	1	6
557.266	1	-8
557.606	1	7
557.946	1	8
558.286	1	-2
558.626	1	6
558.966	1	11
559.306	1	2
559.646	1	-9
559.986	1	-3
560.325	1	1
560.665	1	7
561.005	1	-2
561.345	1	-1
561.685	1	1
562.025	1	10
562.365	1	2
562.705	1	-3
563.045	1	2
563.385	1	-3
563.725	1	2
564.064	1	1
564.404	1	4
564.744	1	2
565.084	1	-1
565.424	1	-1
565.764	1	2
566.104	1	2
566.444	1	-3
566.783	1	1
567.123	1	8
567.463	1	11
567.803	1	-4
568.143	1	-4
568.483	1	2
568.823	1	-2
569.162	1	12
569.502	1	8
569.842	1	16
570.182	1	3
570.522	1	-3
570.862	1	1
571.201	1	9
571.541	1	12
571.881	1	8
572.221	1	-7
572.561	1	-5
572.900	1	-2
573.240	1	5
573.580	1	4
573.920	1	1
574.260	1	13
574.599	1	1
574.939	1	1
575.279	1	11
575.619	1	6
575.959	1	-11
576.298	1	8
576.638	1	-6
576.978	1	12
577.318	1	3
577.657	1	0
577.997	1	3
578.337	1	6
578.677	1	5
579.016	1	14
579.356	1	11
579.696	1	13
580.036	1	-10
580.375	1	0
580.715	1	0
581.055	1	6
581.394	1	0
581.734	1	-10
582.074	1	4
582.414	1	12
582.753	1	3
583.093	1	-2
583.433	1	-1
583.772	1	4
584.112	1	-5
584.452	1	2
584.791	1	-2
585.131	1	3
585.471	1	10
585.811	1	13
586.150	1	2
586.490	1	15
586.830	1	4
587.169	1	15
587.509	1	1
587.849	1	8
588.188	1	11
588.528	1	9
588.867	1	9
589.207	1	4
589.547	1	5
589.886	1	4
590.226	1	11
590.566	1	-2
590.905	1	2
591.245	1	-3
591.585	1	16
591.924	1	7
592.264	1	2
592.603	1	7
592.943	1	9
593.283	1	4
593.622	1	-8
593.962	1	5
594.301	1	4
594.641	1	-8
594.981	1	1
595.320	1	1
595.660	1	1
595.999	1	0
596.339	1	2
596.678	1	-1
597.018	1	-3
597.358	1	13
597.697	1	11
598.037	1	-3
598.376	1	2
598.716	1	5
599.055	1	7
599.395	1	3
599.734	1	-3
600.074	1	8
600.413	1	8
600.753	1	2
601.092	1	20
601.432	1	-4
601.771	1	4
602.111	1	-6
602.451	1	7
602.790	1	1
603.130	1	-4
603.469	1	-3
603.809	1	0
604.148	1	-3
604.487	1	3
604.827	1	11
605.166	1	12
605.506	1	2
605.845	1	2
606.185	1	13
606.524	1	1
606.864	1	2
607.203	1	4
607.543	1	-3
607.882	1	7
608.222	1	3
608.561	1	-1
608.901	1	8
609.240	1	-6
609.579	1	12
609.919	1	13
610.258	1	6
610.598	1	4
610.937	1	4
611.277	1	4
611.616	1	4
611.955	1	6
612.295	1	1
612.634	1	0
612.974	1	-7
613.313	1	7
613.652	1	11
613.992	1	-3
614.331	1	-7
614.671	1	7
615.010	1	-4
615.349	1	5
615.689	1	9
616.028	1	-1
616.368	1	8
616.707	1	-1
617.046	1	2
617.386	1	4
617.725	1	-8
618.064	1	-8
618.404	1	-2
618.743	1	11
619.082	1	-2
619.422	1	-7
619.761	1	7
620.100	1	10
620.440	1	-3
620.779	1	-1
621.118	1	4
621.458	1	6
621.797	1	-1
622.136	1	2
622.476	1	11
622.815	1	11
623.154	1	14
623.494	1	14
623.833	1	7
624.172	1	5
624.511	1	5
624.851	1	-3
625.190	1	3
625.529	1	2
625.869	1	6
626.208	1	7
626.547	1	-5
626.886	1	2
627.226	1	2
627.565	1	2
627.904	1	0
628.243	1	5
628.583	1	4
628.922	1	4
629.261	1	7
629.600	1	7
629.940	1	2
630.279	1	0
630.618	1	-4
630.957	1	-3
631.297	1	-3
631.636	1	-12
631.975	1	11
632.314	1	0
632.653	1	1
632.993	1	-5
633.332	1	-6
633.671	1	-6
634.010	1	7
634.349	1	7
634.689	1	6
635.028	1	11
635.367	1	-5
635.706	1	0
636.045	1	15
636.384	1	1
636.724	1	4
637.063	1	-3
637.402	1	5
637.741	1	-2
638.080	1	0
638.419	1	-1
638.759	1	-2
639.098	1	7
639.437	1	0
639.776	1	1
640.115	1	4
640.454	1	-10
640.793	1	16
641.132	1	11
641.472	1	1
641.811	1	-1
642.150	1	-7
642.489	1	13
642.828	1	-9
643.167	1	2
643.506	1	-4
643.845	1	0
644.184	1	1
644.524	1	5
644.863	1	0
645.202	1	-2
645.541	1	-7
645.880	1	1
646.219	1	-3
646.558	1	9
646.897	1	9
647.236	1	7
647.575	1	9
647.914	1	-3
648.253	1	7
648.592	1	0
648.931	1	3
649.270	1	0
649.610	1	0
649.949	1	2
650.288	1	13
650.627	1	-10
650.966	1	4
651.305	1	-1
651.644	1	15
651.983	1	0
652.322	1	-1
652.661	1	0
653.000	1	3
653.339	1	5
653.678	1	-2
654.017	1	-6
654.356	1	4
654.695	1	2
655.034	1	2
655.373	1	1
655.712	1	1
656.051	1	-7
656.390	1	4
656.729	1	12
657.068	1	8
657.406	1	-1
657.745	1	2
658.084	1	-4
658.423	1	14
658.762	1	-6
659.101	1	8
659.440	1	5
659.779	1	5
660.118	1	6
660.457	1	-1
660.796	1	-10
661.135	1	-4
661.474	1	0
661.813	1	10
662.152	1	9
662.491	1	-2
662.829	1	-2
663.168	1	5
663.507	1	10
663.846	1	2
664.185	1	1
664.524	1	6
664.863	1	-4
665.202	1	0
665.541	1	-4
665.879	1	-8
666.218	1	-2
666.557	1	0
666.896	1	-4
667.235	1	2
667.574	1	-9
667.913	1	2
668.251	1	-8
668.590	1	8
668.929	1	-2
669.268	1	1
669.607	1	4
669.946	1	0
670.285	1	10
670.623	1	-7
670.962	1	0
671.301	1	-1
671.640	1	14
671.979	1	2
672.317	1	4
672.656	1	8
672.995	1	5
673.334	1	-10
673.673	1	3
674.011	1	1
674.350	1	2
674.689	1	8
675.028	1	0
675.367	1	0
675.705	1	5
676.044	1	-4
676.383	1	-1
676.722	1	0
677.060	1	-1
677.399	1	-8
677.738	1	0
678.077	1	8
678.416	1	1
678.754	1	-1
679.093	1	11
679.432	1	-2
679.771	1	2
680.109	1	11
680.448	1	6
680.787	1	-4
681.125	1	11
681.464	1	1
681.803	1	-3
682.142	1	6
682.480	1	14
682.819	1	-3
683.158	1	-6
683.496	1	7
683.835	1	-1
684.174	1	1
684.512	1	11
684.851	1	8
685.190	1	-8
685.529	1	1
685.867	1	2
686.206	1	-2
686.545	1	-8
686.883	1	-1
687.222	1	3
687.561	1	0
687.899	1	-4
688.238	1	16
688.577	1	-6
688.746	1	2