File: Data/GaN_200K_800ms/GaN_sample F_spot 12_UVVIS_200 K_200um_800 ms 2x2mm1_191.txt
340.368	1	1
340.710	1	-9
341.052	1	2
341.394	1	-3
341.737	1	6
342.079	1	-5
342.421	1	-2
342.763	1	9
343.105	1	5
343.447	1	-12
343.789	1	-7
344.131	1	-5
344.473	1	-2
344.815	1	4
345.157	1	-8
345.499	1	-6
345.841	1	6
346.183	1	-1
346.526	1	-6
346.868	1	7
347.210	1	3
347.552	1	-7
347.894	1	3
348.236	1	10
348.578	1	-3
348.920	1	-4
349.262	1	-2
349.604	1	0
349.946	1	-4
350.288	1	13
350.630	1	0
350.972	1	1
351.314	1	-3
351.656	1	-1
351.998	1	12
352.340	1	-2
352.682	1	10
353.024	1	-1
353.366	1	11
353.708	1	-11
354.050	1	1
354.392	1	0
354.734	1	-4
355.076	1	-1
355.418	1	-7
355.760	1	3
356.102	1	7
356.444	1	7
356.785	1	11
357.127	1	10
357.469	1	9
357.811	1	10
358.153	1	15
358.495	1	2
358.837	1	1
359.179	1	6
359.521	1	11
359.863	1	-2
360.205	1	2
360.547	1	4
360.889	1	-4
361.231	1	9
361.572	1	12
361.914	1	10
362.256	1	4
362.598	1	5
362.940	1	4
363.282	1	18
363.624	1	14
363.966	1	11
364.308	1	5
364.649	1	12
364.991	1	13
365.333	1	18
365.675	1	19
366.017	1	21
366.359	1	32
366.701	1	33
367.042	1	36
367.384	1	39
367.726	1	24
368.068	1	23
368.410	1	40
368.752	1	29
369.093	1	30
369.435	1	39
369.777	1	42
370.119	1	35
370.461	1	47
370.803	1	32
371.144	1	34
371.486	1	37
371.828	1	41
372.170	1	40
372.512	1	17
372.853	1	23
373.195	1	29
373.537	1	31
373.879	1	16
374.220	1	29
374.562	1	34
374.904	1	21
375.246	1	16
375.588	1	22
375.929	1	23
376.271	1	27
376.613	1	9
376.955	1	9
377.296	1	15
377.638	1	20
377.980	1	13
378.321	1	10
378.663	1	3
379.005	1	19
379.347	1	3
379.688	1	13
380.030	1	5
380.372	1	2
380.714	1	14
381.055	1	13
381.397	1	11
381.739	1	10
382.080	1	13
382.422	1	5
382.764	1	-7
383.105	1	7
383.447	1	3
383.789	1	0
384.130	1	6
384.472	1	1
384.814	1	7
385.156	1	1
385.497	1	18
385.839	1	13
386.180	1	7
386.522	1	14
386.864	1	15
387.205	1	6
387.547	1	3
387.889	1	5
388.230	1	15
388.572	1	6
388.914	1	3
389.255	1	8
389.597	1	-2
389.939	1	3
390.280	1	-1
390.622	1	0
390.963	1	11
391.305	1	7
391.647	1	4
391.988	1	8
392.330	1	16
392.671	1	-2
393.013	1	3
393.355	1	6
393.696	1	4
394.038	1	7
394.379	1	0
394.721	1	3
395.062	1	4
395.404	1	2
395.746	1	13
396.087	1	-3
396.429	1	5
396.770	1	-5
397.112	1	3
397.453	1	21
397.795	1	-2
398.136	1	-3
398.478	1	5
398.819	1	2
399.161	1	8
399.503	1	-5
399.844	1	-2
400.186	1	3
400.527	1	-4
400.869	1	9
401.210	1	0
401.552	1	-14
401.893	1	-1
402.235	1	5
402.576	1	3
402.918	1	8
403.259	1	1
403.601	1	-4
403.942	1	17
404.284	1	11
404.625	1	5
404.967	1	5
405.308	1	-1
405.649	1	3
405.991	1	-3
406.332	1	5
406.674	1	-8
407.015	1	8
407.357	1	-2
407.698	1	7
408.040	1	-4
408.381	1	2
408.722	1	-17
409.064	1	3
409.405	1	1
409.747	1	4
410.088	1	-1
410.430	1	7
410.771	1	3
411.112	1	1
411.454	1	-8
411.795	1	-9
412.137	1	0
412.478	1	11
412.819	1	3
413.161	1	3
413.502	1	5
413.844	1	-2
414.185	1	8
414.526	1	-2
414.868	1	11
415.209	1	-10
415.550	1	-9
415.892	1	-7
416.233	1	6
416.575	1	9
416.916	1	-6
417.257	1	-1
417.599	1	2
417.940	1	10
418.281	1	5
418.623	1	0
418.964	1	-12
419.305	1	-4
419.647	1	-1
419.988	1	-4
420.329	1	-1
420.671	1	7
421.012	1	5
421.353	1	-4
421.695	1	-1
422.036	1	-5
422.377	1	2
422.718	1	0
423.060	1	-2
423.401	1	-1
423.742	1	0
424.084	1	-2
424.425	1	9
424.766	1	9
425.107	1	-1
425.449	1	9
425.790	1	-9
426.131	1	-2
426.472	1	1
426.814	1	3
427.155	1	1
427.496	1	0
427.837	1	-4
428.179	1	-10
428.520	1	7
428.861	1	-7
429.202	1	1
429.544	1	-6
429.885	1	4
430.226	1	-4
430.567	1	6
430.909	1	-5
431.250	1	9
431.591	1	6
431.932	1	-7
432.273	1	1
432.615	1	-6
432.956	1	-10
433.297	1	0
433.638	1	0
433.979	1	11
434.320	1	0
434.662	1	-6
435.003	1	3
435.344	1	-1
435.685	1	-1
436.026	1	1
436.368	1	13
436.709	1	2
437.050	1	-1
437.391	1	14
437.732	1	-5
438.073	1	-2
438.414	1	-15
438.756	1	-7
439.097	1	-5
439.438	1	1
439.779	1	-4
440.120	1	3
440.461	1	9
440.802	1	-6
441.143	1	16
441.485	1	3
441.826	1	9
442.167	1	-4
442.508	1	-9
442.849	1	15
443.190	1	4
443.531	1	9
443.872	1	6
444.213	1	0
444.554	1	-1
444.895	1	-8
445.237	1	-8
445.578	1	-5
445.919	1	-12
446.260	1	0
446.601	1	2
446.942	1	0
447.283	1	2
447.624	1	-9
447.965	1	2
448.306	1	-3
448.647	1	-4
448.988	1	-1
449.329	1	-1
449.670	1	13
450.011	1	9
450.352	1	-2
450.693	1	-11
451.034	1	6
451.375	1	-1
451.716	1	1
452.057	1	0
452.398	1	-1
452.739	1	-8
453.080	1	-7
453.421	1	3
453.762	1	-1
454.103	1	3
454.444	1	-5
454.785	1	-3
455.126	1	-4
455.467	1	-4
455.808	1	0
456.149	1	1
456.490	1	1
456.831	1	2
457.172	1	2
457.513	1	-3
457.854	1	4
458.195	1	-11
458.536	1	2
458.877	1	-2
459.218	1	-11
459.559	1	4
459.899	1	8
460.240	1	-1
460.581	1	12
460.922	1	-2
461.263	1	-8
461.604	1	2
461.945	1	0
462.286	1	0
462.627	1	12
462.968	1	4
463.309	1	-3
463.649	1	-2
463.990	1	-1
464.331	1	-2
464.672	1	-8
465.013	1	-4
465.354	1	7
465.695	1	-4
466.036	1	-4
466.376	1	-5
466.717	1	6
467.058	1	-2
467.399	1	14
467.740	1	-1
468.081	1	-2
468.422	1	2
468.762	1	-1
469.103	1	-5
469.444	1	5
469.785	1	-7
470.126	1	-7
470.467	1	1
470.807	1	6
471.148	1	12
471.489	1	8
471.830	1	7
472.171	1	3
472.511	1	-12
472.852	1	-1
473.193	1	9
473.534	1	-4
473.875	1	8
474.215	1	5
474.556	1	-3
474.897	1	5
475.238	1	-4
475.578	1	-4
475.919	1	2
476.260	1	-4
476.601	1	2
476.942	1	4
477.282	1	-2
477.623	1	-12
477.964	1	4
478.305	1	2
478.645	1	5
478.986	1	5
479.327	1	-10
479.667	1	9
480.008	1	4
480.349	1	-2
480.690	1	-3
481.030	1	0
481.371	1	0
481.712	1	2
482.053	1	-4
482.393	1	4
482.734	1	-7
483.075	1	-9
483.415	1	6
483.756	1	5
484.097	1	-2
484.437	1	-6
484.778	1	3
485.119	1	3
485.459	1	17
485.800	1	1
486.141	1	-5
486.481	1	1
486.822	1	11
487.163	1	2
487.503	1	8
487.844	1	-5
488.185	1	-3
488.525	1	-8
488.866	1	0
489.207	1	-10
489.547	1	-2
489.888	1	1
490.228	1	4
490.569	1	15
490.910	1	3
491.250	1	-6
491.591	1	-1
491.932	1	5
492.272	1	2
492.613	1	-2
492.953	1	0
493.294	1	-1
493.635	1	3
493.975	1	0
494.316	1	-3
494.656	1	1
494.997	1	1
495.337	1	15
495.678	1	8
496.019	1	-1
496.359	1	0
496.700	1	3
497.040	1	-9
497.381	1	1
497.721	1	-2
498.062	1	1
498.403	1	4
498.743	1	-5
499.084	1	-8
499.424	1	-1
499.765	1	11
500.105	1	3
500.446	1	-10
500.786	1	-7
501.127	1	0
501.467	1	-1
501.808	1	4
502.148	1	-2
502.489	1	7
502.829	1	-1
503.170	1	8
503.510	1	3
503.851	1	0
504.191	1	8
504.532	1	5
504.872	1	6
505.213	1	8
505.553	1	-8
505.894	1	0
506.234	1	8
506.575	1	2
506.915	1	14
507.256	1	11
507.596	1	-5
507.936	1	0
508.277	1	3
508.617	1	1
508.958	1	3
509.298	1	4
509.639	1	-3
509.979	1	-1
510.319	1	8
510.660	1	-1
511.000	1	-5
511.341	1	-8
511.681	1	-5
512.022	1	-1
512.362	1	3
512.702	1	4
513.043	1	13
513.383	1	-12
513.724	1	4
514.064	1	10
514.404	1	5
514.745	1	-5
515.085	1	-4
515.425	1	-3
515.766	1	-10
516.106	1	-6
516.447	1	0
516.787	1	8
517.127	1	0
517.468	1	2
517.808	1	2
518.148	1	4
518.489	1	-5
518.829	1	7
519.169	1	3
519.510	1	-3
519.850	1	5
520.190	1	-6
520.531	1	11
520.871	1	3
521.211	1	-8
521.552	1	3
521.892	1	-1
522.232	1	13
522.573	1	7
522.913	1	3
523.253	1	8
523.593	1	-2
523.934	1	-1
524.274	1	0
524.614	1	12
524.955	1	-5
525.295	1	9
525.635	1	0
525.975	1	8
526.316	1	15
526.656	1	5
526.996	1	9
527.337	1	0
527.677	1	4
528.017	1	-3
528.357	1	2
528.698	1	12
529.038	1	4
529.378	1	4
529.718	1	8
530.058	1	0
530.399	1	4
530.739	1	5
531.079	1	7
531.419	1	7
531.760	1	5
532.100	1	0
532.440	1	1
532.780	1	3
533.120	1	10
533.461	1	5
533.801	1	11
534.141	1	-13
534.481	1	-4
534.821	1	13
535.162	1	1
535.502	1	-1
535.842	1	3
536.182	1	-1
536.522	1	2
536.862	1	3
537.203	1	-2
537.543	1	1
537.883	1	6
538.223	1	1
538.563	1	3
538.903	1	-1
539.243	1	5
539.584	1	2
539.924	1	10
540.264	1	-2
540.604	1	6
540.944	1	2
541.284	1	8
541.624	1	10
541.964	1	6
542.305	1	7
542.645	1	6
542.985	1	3
543.325	1	3
543.665	1	0
544.005	1	14
544.345	1	5
544.685	1	5
545.025	1	4
545.365	1	2
545.705	1	2
546.045	1	-10
546.386	1	6
546.726	1	-7
547.066	1	9
547.406	1	4
547.746	1	-12
548.086	1	4
548.426	1	-2
548.766	1	2
549.106	1	3
549.446	1	5
549.786	1	-2
550.126	1	14
550.466	1	12
550.806	1	5
551.146	1	-2
551.486	1	-1
551.826	1	11
552.166	1	4
552.506	1	11
552.846	1	0
553.186	1	1
553.526	1	-6
553.866	1	11
554.206	1	12
554.546	1	6
554.886	1	9
555.226	1	0
555.566	1	11
555.906	1	4
556.246	1	1
556.586	1	4
556.926	1	1
557.266	1	-3
557.606	1	6
557.946	1	2
558.286	1	8
558.626	1	6
558.966	1	-1
559.306	1	4
559.646	1	-7
559.986	1	-6
560.325	1	-4
560.665	1	-3
561.005	1	-1
561.345	1	5
561.685	1	1
562.025	1	-1
562.365	1	2
562.705	1	-6
563.045	1	-5
563.385	1	-9
563.725	1	5
564.064	1	2
564.404	1	10
564.744	1	6
565.084	1	-3
565.424	1	11
565.764	1	-3
566.104	1	12
566.444	1	-2
566.783	1	-1
567.123	1	8
567.463	1	10
567.803	1	-4
568.143	1	3
568.483	1	9
568.823	1	9
569.162	1	8
569.502	1	1
569.842	1	7
570.182	1	5
570.522	1	-4
570.862	1	5
571.201	1	11
571.541	1	9
571.881	1	13
572.221	1	-2
572.561	1	-4
572.900	1	-2
573.240	1	7
573.580	1	-2
573.920	1	9
574.260	1	10
574.599	1	5
574.939	1	8
575.279	1	11
575.619	1	11
575.959	1	-5
576.298	1	18
576.638	1	-3
576.978	1	11
577.318	1	8
577.657	1	-6
577.997	1	2
578.337	1	13
578.677	1	14
579.016	1	13
579.356	1	1
579.696	1	6
580.036	1	6
580.375	1	6
580.715	1	0
581.055	1	5
581.394	1	1
581.734	1	-3
582.074	1	-2
582.414	1	9
582.753	1	-4
583.093	1	1
583.433	1	-1
583.772	1	8
584.112	1	-4
584.452	1	7
584.791	1	6
585.131	1	2
585.471	1	9
585.811	1	2
586.150	1	2
586.490	1	7
586.830	1	0
587.169	1	5
587.509	1	-4
587.849	1	11
588.188	1	19
588.528	1	-1
588.867	1	6
589.207	1	10
589.547	1	2
589.886	1	-9
590.226	1	12
590.566	1	2
590.905	1	13
591.245	1	-1
591.585	1	6
591.924	1	0
592.264	1	8
592.603	1	8
592.943	1	8
593.283	1	3
593.622	1	2
593.962	1	8
594.301	1	10
594.641	1	-1
594.981	1	7
595.320	1	6
595.660	1	0
595.999	1	-6
596.339	1	8
596.678	1	3
597.018	1	4
597.358	1	11
597.697	1	-4
598.037	1	-8
598.376	1	8
598.716	1	2
599.055	1	6
599.395	1	0
599.734	1	6
600.074	1	1
600.413	1	14
600.753	1	6
601.092	1	15
601.432	1	0
601.771	1	-3
602.111	1	-3
602.451	1	16
602.790	1	3
603.130	1	7
603.469	1	0
603.809	1	0
604.148	1	-1
604.487	1	-4
604.827	1	9
605.166	1	11
605.506	1	3
605.845	1	11
606.185	1	11
606.524	1	-5
606.864	1	-4
607.203	1	5
607.543	1	0
607.882	1	4
608.222	1	3
608.561	1	2
608.901	1	11
609.240	1	-1
609.579	1	11
609.919	1	17
610.258	1	1
610.598	1	-3
610.937	1	5
611.277	1	4
611.616	1	-5
611.955	1	6
612.295	1	0
612.634	1	-2
612.974	1	-9
613.313	1	4
613.652	1	0
613.992	1	-4
614.331	1	8
614.671	1	5
615.010	1	-9
615.349	1	10
615.689	1	11
616.028	1	-2
616.368	1	11
616.707	1	-2
617.046	1	5
617.386	1	8
617.725	1	6
618.064	1	-10
618.404	1	-6
618.743	1	5
619.082	1	0
619.422	1	-11
619.761	1	4
620.100	1	18
620.440	1	4
620.779	1	1
621.118	1	0
621.458	1	-4
621.797	1	4
622.136	1	11
622.476	1	12
622.815	1	10
623.154	1	6
623.494	1	10
623.833	1	10
624.172	1	0
624.511	1	0
624.851	1	-12
625.190	1	6
625.529	1	2
625.869	1	11
626.208	1	-1
626.547	1	0
626.886	1	-1
627.226	1	2
627.565	1	3
627.904	1	-6
628.243	1	10
628.583	1	4
628.922	1	6
629.261	1	3
629.600	1	7
629.940	1	8
630.279	1	-9
630.618	1	1
630.957	1	2
631.297	1	3
631.636	1	-4
631.975	1	10
632.314	1	4
632.653	1	3
632.993	1	-4
633.332	1	1
633.671	1	0
634.010	1	-2
634.349	1	7
634.689	1	-5
635.028	1	12
635.367	1	2
635.706	1	6
636.045	1	6
636.384	1	-5
636.724	1	4
637.063	1	3
637.402	1	2
637.741	1	-1
638.080	1	4
638.419	1	-4
638.759	1	14
639.098	1	3
639.437	1	1
639.776	1	-1
640.115	1	1
640.454	1	4
640.793	1	6
641.132	1	4
641.472	1	2
641.811	1	-1
642.150	1	2
642.489	1	-1
642.828	1	1
643.167	1	-4
643.506	1	-5
643.845	1	2
644.184	1	-4
644.524	1	0
644.863	1	-2
645.202	1	-1
645.541	1	-1
645.880	1	4
646.219	1	1
646.558	1	-2
646.897	1	5
647.236	1	1
647.575	1	2
647.914	1	1
648.253	1	8
648.592	1	0
648.931	1	9
649.270	1	4
649.610	1	3
649.949	1	-3
650.288	1	14
650.627	1	3
650.966	1	7
651.305	1	5
651.644	1	15
651.983	1	1
652.322	1	0
652.661	1	8
653.000	1	-7
653.339	1	6
653.678	1	-2
654.017	1	-4
654.356	1	0
654.695	1	1
655.034	1	10
655.373	1	1
655.712	1	1
656.051	1	2
656.390	1	-4
656.729	1	5
657.068	1	3
657.406	1	6
657.745	1	-2
658.084	1	7
658.423	1	-1
658.762	1	0
659.101	1	0
659.440	1	13
659.779	1	4
660.118	1	12
660.457	1	-3
660.796	1	2
661.135	1	-5
661.474	1	3
661.813	1	9
662.152	1	10
662.491	1	-5
662.829	1	-7
663.168	1	6
663.507	1	11
663.846	1	-1
664.185	1	7
664.524	1	-2
664.863	1	-9
665.202	1	1
665.541	1	-14
665.879	1	-7
666.218	1	-2
666.557	1	7
666.896	1	3
667.235	1	3
667.574	1	0
667.913	1	6
668.251	1	3
668.590	1	-3
668.929	1	-9
669.268	1	1
669.607	1	-1
669.946	1	0
670.285	1	1
670.623	1	-4
670.962	1	0
671.301	1	1
671.640	1	8
671.979	1	-4
672.317	1	8
672.656	1	-1
672.995	1	10
673.334	1	-7
673.673	1	3
674.011	1	-7
674.350	1	12
674.689	1	-4
675.028	1	-3
675.367	1	3
675.705	1	6
676.044	1	-7
676.383	1	0
676.722	1	4
677.060	1	-4
677.399	1	-1
677.738	1	10
678.077	1	7
678.416	1	4
678.754	1	-2
679.093	1	9
679.432	1	-6
679.771	1	4
680.109	1	7
680.448	1	-3
680.787	1	1
681.125	1	2
681.464	1	3
681.803	1	-4
682.142	1	8
682.480	1	20
682.819	1	3
683.158	1	-3
683.496	1	-1
683.835	1	4
684.174	1	4
684.512	1	9
684.851	1	9
685.190	1	12
685.529	1	0
685.867	1	4
686.206	1	-1
686.545	1	-7
686.883	1	4
687.222	1	4
687.561	1	5
687.899	1	6
688.238	1	-4
688.577	1	-1
688.746	1	0