File: Data/GaN_200K_800ms/GaN_sample F_spot 12_UVVIS_200 K_200um_800 ms 2x2mm1_329.txt
340.368	1	6
340.710	1	-15
341.052	1	4
341.394	1	-2
341.737	1	2
342.079	1	-3
342.421	1	-9
342.763	1	3
343.105	1	2
343.447	1	-7
343.789	1	4
344.131	1	0
344.473	1	-4
344.815	1	1
345.157	1	-9
345.499	1	-9
345.841	1	-3
346.183	1	-5
346.526	1	-4
346.868	1	4
347.210	1	-4
347.552	1	-7
347.894	1	-5
348.236	1	7
348.578	1	3
348.920	1	0
349.262	1	-14
349.604	1	3
349.946	1	-1
350.288	1	1
350.630	1	4
350.972	1	2
351.314	1	3
351.656	1	6
351.998	1	4
352.340	1	2
352.682	1	3
353.024	1	2
353.366	1	14
353.708	1	1
354.050	1	-7
354.392	1	-5
354.734	1	11
355.076	1	-4
355.418	1	-18
355.760	1	-6
356.102	1	0
356.444	1	7
356.785	1	6
357.127	1	2
357.469	1	0
357.811	1	0
358.153	1	11
358.495	1	1
358.837	1	1
359.179	1	6
359.521	1	4
359.863	1	5
360.205	1	-9
360.547	1	8
360.889	1	-6
361.231	1	-4
361.572	1	0
361.914	1	5
362.256	1	8
362.598	1	5
362.940	1	3
363.282	1	0
363.624	1	8
363.966	1	2
364.308	1	8
364.649	1	9
364.991	1	6
365.333	1	7
365.675	1	-5
366.017	1	13
366.359	1	9
366.701	1	10
367.042	1	13
367.384	1	7
367.726	1	13
368.068	1	15
368.410	1	29
368.752	1	9
369.093	1	4
369.435	1	10
369.777	1	4
370.119	1	11
370.461	1	28
370.803	1	19
371.144	1	17
371.486	1	27
371.828	1	17
372.170	1	12
372.512	1	1
372.853	1	4
373.195	1	5
373.537	1	6
373.879	1	9
374.220	1	25
374.562	1	20
374.904	1	9
375.246	1	11
375.588	1	7
375.929	1	7
376.271	1	9
376.613	1	14
376.955	1	3
377.296	1	3
377.638	1	5
377.980	1	1
378.321	1	-10
378.663	1	1
379.005	1	14
379.347	1	7
379.688	1	9
380.030	1	-5
380.372	1	3
380.714	1	4
381.055	1	9
381.397	1	7
381.739	1	3
382.080	1	10
382.422	1	2
382.764	1	-5
383.105	1	2
383.447	1	-1
383.789	1	-5
384.130	1	-8
384.472	1	0
384.814	1	-1
385.156	1	1
385.497	1	9
385.839	1	7
386.180	1	6
386.522	1	8
386.864	1	3
387.205	1	-3
387.547	1	-5
387.889	1	-7
388.230	1	10
388.572	1	0
388.914	1	-3
389.255	1	-3
389.597	1	-3
389.939	1	0
390.280	1	3
390.622	1	-2
390.963	1	11
391.305	1	1
391.647	1	0
391.988	1	9
392.330	1	3
392.671	1	-6
393.013	1	1
393.355	1	4
393.696	1	5
394.038	1	-1
394.379	1	1
394.721	1	-5
395.062	1	3
395.404	1	-5
395.746	1	-2
396.087	1	-6
396.429	1	5
396.770	1	0
397.112	1	1
397.453	1	9
397.795	1	0
398.136	1	-4
398.478	1	0
398.819	1	4
399.161	1	1
399.503	1	2
399.844	1	-12
400.186	1	-4
400.527	1	2
400.869	1	0
401.210	1	0
401.552	1	-7
401.893	1	0
402.235	1	-5
402.576	1	-6
402.918	1	8
403.259	1	1
403.601	1	-7
403.942	1	10
404.284	1	1
404.625	1	6
404.967	1	9
405.308	1	4
405.649	1	1
405.991	1	-2
406.332	1	9
406.674	1	-5
407.015	1	1
407.357	1	-5
407.698	1	0
408.040	1	-10
408.381	1	4
408.722	1	-11
409.064	1	5
409.405	1	11
409.747	1	-3
410.088	1	-5
410.430	1	6
410.771	1	-2
411.112	1	-2
411.454	1	2
411.795	1	4
412.137	1	2
412.478	1	14
412.819	1	-8
413.161	1	-1
413.502	1	-1
413.844	1	0
414.185	1	10
414.526	1	-5
414.868	1	7
415.209	1	7
415.550	1	-7
415.892	1	2
416.233	1	2
416.575	1	7
416.916	1	-11
417.257	1	0
417.599	1	-6
417.940	1	6
418.281	1	3
418.623	1	0
418.964	1	-16
419.305	1	-2
419.647	1	-3
419.988	1	-7
420.329	1	-11
420.671	1	12
421.012	1	2
421.353	1	-4
421.695	1	8
422.036	1	10
422.377	1	-5
422.718	1	13
423.060	1	-7
423.401	1	4
423.742	1	1
424.084	1	-5
424.425	1	0
424.766	1	-6
425.107	1	-7
425.449	1	9
425.790	1	-14
426.131	1	-1
426.472	1	-2
426.814	1	9
427.155	1	-6
427.496	1	-9
427.837	1	-5
428.179	1	0
428.520	1	1
428.861	1	-4
429.202	1	-8
429.544	1	3
429.885	1	10
430.226	1	1
430.567	1	-4
430.909	1	4
431.250	1	1
431.591	1	8
431.932	1	-6
432.273	1	-1
432.615	1	-14
432.956	1	-1
433.297	1	7
433.638	1	0
433.979	1	0
434.320	1	-1
434.662	1	-6
435.003	1	4
435.344	1	3
435.685	1	-4
436.026	1	-1
436.368	1	6
436.709	1	-1
437.050	1	-2
437.391	1	14
437.732	1	-10
438.073	1	8
438.414	1	-13
438.756	1	-1
439.097	1	-15
439.438	1	-9
439.779	1	-3
440.120	1	-6
440.461	1	1
440.802	1	0
441.143	1	15
441.485	1	5
441.826	1	1
442.167	1	0
442.508	1	-4
442.849	1	10
443.190	1	-1
443.531	1	8
443.872	1	11
444.213	1	6
444.554	1	14
444.895	1	-6
445.237	1	-4
445.578	1	-14
445.919	1	-2
446.260	1	1
446.601	1	-5
446.942	1	3
447.283	1	-9
447.624	1	-1
447.965	1	-9
448.306	1	-9
448.647	1	-10
448.988	1	-12
449.329	1	1
449.670	1	3
450.011	1	4
450.352	1	3
450.693	1	-11
451.034	1	-10
451.375	1	1
451.716	1	-2
452.057	1	6
452.398	1	-3
452.739	1	-1
453.080	1	6
453.421	1	3
453.762	1	0
454.103	1	-2
454.444	1	-6
454.785	1	8
455.126	1	-8
455.467	1	-3
455.808	1	-4
456.149	1	0
456.490	1	-1
456.831	1	-2
457.172	1	-12
457.513	1	1
457.854	1	0
458.195	1	3
458.536	1	0
458.877	1	-3
459.218	1	3
459.559	1	5
459.899	1	1
460.240	1	-2
460.581	1	7
460.922	1	-2
461.263	1	-5
461.604	1	-1
461.945	1	4
462.286	1	-7
462.627	1	-5
462.968	1	4
463.309	1	-3
463.649	1	0
463.990	1	-3
464.331	1	3
464.672	1	-4
465.013	1	-11
465.354	1	6
465.695	1	-2
466.036	1	-4
466.376	1	-4
466.717	1	3
467.058	1	-3
467.399	1	10
467.740	1	2
468.081	1	3
468.422	1	-3
468.762	1	-3
469.103	1	-3
469.444	1	-4
469.785	1	-19
470.126	1	-6
470.467	1	-4
470.807	1	4
471.148	1	6
471.489	1	0
471.830	1	0
472.171	1	-4
472.511	1	-2
472.852	1	-5
473.193	1	2
473.534	1	3
473.875	1	11
474.215	1	6
474.556	1	-4
474.897	1	2
475.238	1	0
475.578	1	2
475.919	1	-1
476.260	1	1
476.601	1	6
476.942	1	5
477.282	1	-1
477.623	1	-17
477.964	1	-5
478.305	1	-3
478.645	1	3
478.986	1	2
479.327	1	-11
479.667	1	9
480.008	1	-7
480.349	1	-3
480.690	1	6
481.030	1	-2
481.371	1	3
481.712	1	0
482.053	1	-3
482.393	1	2
482.734	1	-7
483.075	1	4
483.415	1	8
483.756	1	-8
484.097	1	-4
484.437	1	-7
484.778	1	1
485.119	1	-8
485.459	1	17
485.800	1	-2
486.141	1	5
486.481	1	2
486.822	1	6
487.163	1	-5
487.503	1	-5
487.844	1	9
488.185	1	1
488.525	1	0
488.866	1	1
489.207	1	1
489.547	1	-3
489.888	1	-1
490.228	1	-1
490.569	1	8
490.910	1	-11
491.250	1	-5
491.591	1	-11
491.932	1	0
492.272	1	-1
492.613	1	-3
492.953	1	0
493.294	1	2
493.635	1	3
493.975	1	-9
494.316	1	8
494.656	1	-4
494.997	1	6
495.337	1	12
495.678	1	10
496.019	1	-8
496.359	1	-5
496.700	1	-2
497.040	1	0
497.381	1	-3
497.721	1	-2
498.062	1	1
498.403	1	5
498.743	1	-2
499.084	1	-8
499.424	1	-3
499.765	1	-11
500.105	1	-2
500.446	1	-8
500.786	1	-5
501.127	1	-3
501.467	1	-8
501.808	1	8
502.148	1	2
502.489	1	5
502.829	1	-7
503.170	1	11
503.510	1	7
503.851	1	0
504.191	1	6
504.532	1	0
504.872	1	-5
505.213	1	6
505.553	1	-3
505.894	1	-4
506.234	1	15
506.575	1	5
506.915	1	3
507.256	1	2
507.596	1	4
507.936	1	10
508.277	1	-9
508.617	1	1
508.958	1	-1
509.298	1	8
509.639	1	-4
509.979	1	2
510.319	1	2
510.660	1	0
511.000	1	-6
511.341	1	-1
511.681	1	3
512.022	1	-9
512.362	1	-13
512.702	1	1
513.043	1	9
513.383	1	-8
513.724	1	-6
514.064	1	7
514.404	1	-3
514.745	1	-6
515.085	1	-4
515.425	1	-2
515.766	1	-6
516.106	1	-2
516.447	1	8
516.787	1	15
517.127	1	0
517.468	1	1
517.808	1	-3
518.148	1	7
518.489	1	0
518.829	1	9
519.169	1	-2
519.510	1	6
519.850	1	-5
520.190	1	2
520.531	1	1
520.871	1	9
521.211	1	-7
521.552	1	15
521.892	1	0
522.232	1	9
522.573	1	3
522.913	1	5
523.253	1	-7
523.593	1	-3
523.934	1	-5
524.274	1	-5
524.614	1	-7
524.955	1	-2
525.295	1	4
525.635	1	-1
525.975	1	1
526.316	1	8
526.656	1	-1
526.996	1	7
527.337	1	2
527.677	1	4
528.017	1	-11
528.357	1	-6
528.698	1	-7
529.038	1	2
529.378	1	7
529.718	1	8
530.058	1	4
530.399	1	0
530.739	1	10
531.079	1	15
531.419	1	6
531.760	1	-1
532.100	1	-4
532.440	1	-3
532.780	1	-5
533.120	1	3
533.461	1	5
533.801	1	9
534.141	1	-18
534.481	1	-11
534.821	1	3
535.162	1	-3
535.502	1	-1
535.842	1	12
536.182	1	4
536.522	1	-6
536.862	1	2
537.203	1	-2
537.543	1	-6
537.883	1	-2
538.223	1	5
538.563	1	3
538.903	1	-10
539.243	1	-1
539.584	1	3
539.924	1	1
540.264	1	-9
540.604	1	-6
540.944	1	-11
541.284	1	8
541.624	1	1
541.964	1	-2
542.305	1	-5
542.645	1	-1
542.985	1	-2
543.325	1	-8
543.665	1	4
544.005	1	7
544.345	1	-2
544.685	1	-2
545.025	1	2
545.365	1	-4
545.705	1	0
546.045	1	-9
546.386	1	3
546.726	1	-4
547.066	1	4
547.406	1	4
547.746	1	-9
548.086	1	3
548.426	1	-5
548.766	1	9
549.106	1	-7
549.446	1	1
549.786	1	-5
550.126	1	8
550.466	1	0
550.806	1	-8
551.146	1	2
551.486	1	-5
551.826	1	6
552.166	1	-1
552.506	1	7
552.846	1	-3
553.186	1	1
553.526	1	-1
553.866	1	2
554.206	1	7
554.546	1	3
554.886	1	7
555.226	1	0
555.566	1	11
555.906	1	4
556.246	1	-5
556.586	1	-4
556.926	1	1
557.266	1	1
557.606	1	4
557.946	1	17
558.286	1	12
558.626	1	11
558.966	1	6
559.306	1	4
559.646	1	7
559.986	1	-10
560.325	1	2
560.665	1	-2
561.005	1	-1
561.345	1	-4
561.685	1	-2
562.025	1	0
562.365	1	-5
562.705	1	4
563.045	1	2
563.385	1	-14
563.725	1	8
564.064	1	-1
564.404	1	6
564.744	1	7
565.084	1	-1
565.424	1	-5
565.764	1	-1
566.104	1	-1
566.444	1	-6
566.783	1	-10
567.123	1	7
567.463	1	1
567.803	1	-4
568.143	1	-4
568.483	1	6
568.823	1	-2
569.162	1	5
569.502	1	-2
569.842	1	3
570.182	1	5
570.522	1	-9
570.862	1	3
571.201	1	8
571.541	1	8
571.881	1	7
572.221	1	-8
572.561	1	0
572.900	1	-4
573.240	1	8
573.580	1	-1
573.920	1	4
574.260	1	12
574.599	1	1
574.939	1	3
575.279	1	3
575.619	1	4
575.959	1	-5
576.298	1	10
576.638	1	0
576.978	1	-1
577.318	1	7
577.657	1	0
577.997	1	-2
578.337	1	11
578.677	1	2
579.016	1	12
579.356	1	-3
579.696	1	12
580.036	1	1
580.375	1	4
580.715	1	5
581.055	1	6
581.394	1	4
581.734	1	-2
582.074	1	-7
582.414	1	2
582.753	1	1
583.093	1	1
583.433	1	-3
583.772	1	11
584.112	1	0
584.452	1	3
584.791	1	2
585.131	1	5
585.471	1	6
585.811	1	15
586.150	1	5
586.490	1	12
586.830	1	7
587.169	1	3
587.509	1	3
587.849	1	-4
588.188	1	3
588.528	1	6
588.867	1	-3
589.207	1	-4
589.547	1	2
589.886	1	-12
590.226	1	4
590.566	1	-1
590.905	1	4
591.245	1	-5
591.585	1	0
591.924	1	1
592.264	1	2
592.603	1	7
592.943	1	2
593.283	1	-5
593.622	1	-4
593.962	1	6
594.301	1	4
594.641	1	-5
594.981	1	-11
595.320	1	-3
595.660	1	2
595.999	1	-11
596.339	1	8
596.678	1	-9
597.018	1	4
597.358	1	5
597.697	1	-8
598.037	1	-2
598.376	1	5
598.716	1	5
599.055	1	10
599.395	1	9
599.734	1	-7
600.074	1	6
600.413	1	6
600.753	1	14
601.092	1	10
601.432	1	-11
601.771	1	7
602.111	1	0
602.451	1	14
602.790	1	-3
603.130	1	-1
603.469	1	0
603.809	1	-9
604.148	1	4
604.487	1	1
604.827	1	0
605.166	1	4
605.506	1	-10
605.845	1	-1
606.185	1	9
606.524	1	3
606.864	1	-2
607.203	1	-3
607.543	1	-3
607.882	1	6
608.222	1	4
608.561	1	2
608.901	1	4
609.240	1	-5
609.579	1	11
609.919	1	10
610.258	1	2
610.598	1	4
610.937	1	7
611.277	1	0
611.616	1	0
611.955	1	3
612.295	1	-8
612.634	1	-3
612.974	1	-10
613.313	1	5
613.652	1	7
613.992	1	-5
614.331	1	1
614.671	1	0
615.010	1	-4
615.349	1	6
615.689	1	7
616.028	1	-8
616.368	1	4
616.707	1	1
617.046	1	6
617.386	1	0
617.725	1	0
618.064	1	-5
618.404	1	-6
618.743	1	7
619.082	1	0
619.422	1	-10
619.761	1	-4
620.100	1	4
620.440	1	1
620.779	1	-5
621.118	1	-1
621.458	1	2
621.797	1	-1
622.136	1	9
622.476	1	-3
622.815	1	7
623.154	1	8
623.494	1	7
623.833	1	3
624.172	1	-5
624.511	1	-2
624.851	1	-15
625.190	1	3
625.529	1	3
625.869	1	-1
626.208	1	-4
626.547	1	6
626.886	1	5
627.226	1	9
627.565	1	3
627.904	1	0
628.243	1	0
628.583	1	-4
628.922	1	10
629.261	1	3
629.600	1	6
629.940	1	-6
630.279	1	0
630.618	1	0
630.957	1	3
631.297	1	1
631.636	1	-6
631.975	1	14
632.314	1	2
632.653	1	3
632.993	1	-2
633.332	1	-3
633.671	1	-2
634.010	1	-3
634.349	1	5
634.689	1	4
635.028	1	-2
635.367	1	-1
635.706	1	-2
636.045	1	5
636.384	1	-5
636.724	1	-6
637.063	1	-5
637.402	1	-1
637.741	1	-4
638.080	1	-3
638.419	1	-5
638.759	1	-9
639.098	1	7
639.437	1	-3
639.776	1	-5
640.115	1	-9
640.454	1	2
640.793	1	10
641.132	1	2
641.472	1	1
641.811	1	-2
642.150	1	-7
642.489	1	5
642.828	1	4
643.167	1	-2
643.506	1	-8
643.845	1	-1
644.184	1	8
644.524	1	-4
644.863	1	-8
645.202	1	-1
645.541	1	-3
645.880	1	1
646.219	1	1
646.558	1	7
646.897	1	8
647.236	1	-4
647.575	1	0
647.914	1	-3
648.253	1	9
648.592	1	-3
648.931	1	0
649.270	1	-5
649.610	1	-1
649.949	1	-1
650.288	1	3
650.627	1	1
650.966	1	4
651.305	1	3
651.644	1	6
651.983	1	-2
652.322	1	-2
652.661	1	-13
653.000	1	3
653.339	1	3
653.678	1	0
654.017	1	-1
654.356	1	-4
654.695	1	2
655.034	1	-1
655.373	1	11
655.712	1	-1
656.051	1	3
656.390	1	-11
656.729	1	9
657.068	1	-3
657.406	1	-1
657.745	1	-5
658.084	1	-7
658.423	1	-1
658.762	1	-1
659.101	1	7
659.440	1	-3
659.779	1	-1
660.118	1	6
660.457	1	-2
660.796	1	-3
661.135	1	-12
661.474	1	-7
661.813	1	9
662.152	1	1
662.491	1	0
662.829	1	-3
663.168	1	5
663.507	1	16
663.846	1	-4
664.185	1	5
664.524	1	3
664.863	1	0
665.202	1	0
665.541	1	-9
665.879	1	-7
666.218	1	-4
666.557	1	-12
666.896	1	-12
667.235	1	0
667.574	1	2
667.913	1	-6
668.251	1	-3
668.590	1	-5
668.929	1	-17
669.268	1	-2
669.607	1	-6
669.946	1	-2
670.285	1	1
670.623	1	-4
670.962	1	3
671.301	1	2
671.640	1	2
671.979	1	-1
672.317	1	1
672.656	1	-6
672.995	1	11
673.334	1	1
673.673	1	8
674.011	1	-7
674.350	1	1
674.689	1	1
675.028	1	0
675.367	1	1
675.705	1	7
676.044	1	0
676.383	1	-2
676.722	1	5
677.060	1	-3
677.399	1	-5
677.738	1	-8
678.077	1	2
678.416	1	3
678.754	1	-12
679.093	1	10
679.432	1	0
679.771	1	2
680.109	1	6
680.448	1	-3
680.787	1	-4
681.125	1	-1
681.464	1	-4
681.803	1	-2
682.142	1	10
682.480	1	18
682.819	1	-2
683.158	1	1
683.496	1	4
683.835	1	1
684.174	1	-10
684.512	1	8
684.851	1	4
685.190	1	-5
685.529	1	5
685.867	1	-6
686.206	1	-8
686.545	1	-2
686.883	1	-6
687.222	1	-2
687.561	1	-1
687.899	1	1
688.238	1	1
688.577	1	-2
688.746	1	-4