File: Data/GaN_200K_800ms/GaN_sample F_spot 12_UVVIS_200 K_200um_800 ms 2x2mm1_135.txt
340.368	1	6
340.710	1	-5
341.052	1	1
341.394	1	-5
341.737	1	9
342.079	1	0
342.421	1	14
342.763	1	13
343.105	1	3
343.447	1	-6
343.789	1	-1
344.131	1	0
344.473	1	3
344.815	1	2
345.157	1	-9
345.499	1	4
345.841	1	9
346.183	1	-7
346.526	1	-8
346.868	1	3
347.210	1	-4
347.552	1	0
347.894	1	11
348.236	1	13
348.578	1	4
348.920	1	3
349.262	1	0
349.604	1	4
349.946	1	-1
350.288	1	7
350.630	1	3
350.972	1	1
351.314	1	9
351.656	1	7
351.998	1	7
352.340	1	5
352.682	1	14
353.024	1	9
353.366	1	13
353.708	1	-2
354.050	1	1
354.392	1	7
354.734	1	13
355.076	1	7
355.418	1	-5
355.760	1	2
356.102	1	11
356.444	1	5
356.785	1	16
357.127	1	9
357.469	1	10
357.811	1	8
358.153	1	14
358.495	1	11
358.837	1	4
359.179	1	8
359.521	1	11
359.863	1	10
360.205	1	16
360.547	1	22
360.889	1	-1
361.231	1	10
361.572	1	23
361.914	1	8
362.256	1	11
362.598	1	4
362.940	1	15
363.282	1	24
363.624	1	27
363.966	1	29
364.308	1	27
364.649	1	35
364.991	1	27
365.333	1	27
365.675	1	26
366.017	1	41
366.359	1	43
366.701	1	47
367.042	1	39
367.384	1	55
367.726	1	49
368.068	1	55
368.410	1	63
368.752	1	55
369.093	1	67
369.435	1	62
369.777	1	58
370.119	1	58
370.461	1	72
370.803	1	64
371.144	1	50
371.486	1	59
371.828	1	63
372.170	1	57
372.512	1	55
372.853	1	56
373.195	1	35
373.537	1	34
373.879	1	37
374.220	1	47
374.562	1	51
374.904	1	39
375.246	1	34
375.588	1	28
375.929	1	31
376.271	1	39
376.613	1	32
376.955	1	19
377.296	1	25
377.638	1	25
377.980	1	22
378.321	1	33
378.663	1	18
379.005	1	23
379.347	1	10
379.688	1	27
380.030	1	8
380.372	1	26
380.714	1	14
381.055	1	23
381.397	1	15
381.739	1	23
382.080	1	7
382.422	1	15
382.764	1	5
383.105	1	15
383.447	1	18
383.789	1	10
384.130	1	15
384.472	1	14
384.814	1	12
385.156	1	5
385.497	1	22
385.839	1	13
386.180	1	18
386.522	1	17
386.864	1	9
387.205	1	7
387.547	1	3
387.889	1	6
388.230	1	16
388.572	1	8
388.914	1	4
389.255	1	11
389.597	1	13
389.939	1	10
390.280	1	-7
390.622	1	2
390.963	1	15
391.305	1	8
391.647	1	11
391.988	1	12
392.330	1	12
392.671	1	8
393.013	1	-7
393.355	1	11
393.696	1	10
394.038	1	16
394.379	1	4
394.721	1	11
395.062	1	5
395.404	1	7
395.746	1	18
396.087	1	2
396.429	1	11
396.770	1	6
397.112	1	7
397.453	1	20
397.795	1	-3
398.136	1	-12
398.478	1	6
398.819	1	2
399.161	1	14
399.503	1	0
399.844	1	5
400.186	1	-4
400.527	1	0
400.869	1	0
401.210	1	12
401.552	1	-3
401.893	1	3
402.235	1	-2
402.576	1	7
402.918	1	10
403.259	1	17
403.601	1	1
403.942	1	13
404.284	1	7
404.625	1	14
404.967	1	7
405.308	1	0
405.649	1	1
405.991	1	-7
406.332	1	2
406.674	1	1
407.015	1	4
407.357	1	-2
407.698	1	4
408.040	1	-5
408.381	1	8
408.722	1	3
409.064	1	1
409.405	1	-1
409.747	1	-1
410.088	1	7
410.430	1	5
410.771	1	0
411.112	1	-10
411.454	1	-4
411.795	1	-1
412.137	1	10
412.478	1	11
412.819	1	-2
413.161	1	9
413.502	1	7
413.844	1	6
414.185	1	6
414.526	1	-2
414.868	1	4
415.209	1	5
415.550	1	-4
415.892	1	5
416.233	1	8
416.575	1	19
416.916	1	-1
417.257	1	6
417.599	1	0
417.940	1	8
418.281	1	0
418.623	1	-2
418.964	1	-8
419.305	1	4
419.647	1	-4
419.988	1	0
420.329	1	-4
420.671	1	11
421.012	1	6
421.353	1	3
421.695	1	1
422.036	1	7
422.377	1	-1
422.718	1	8
423.060	1	-5
423.401	1	-1
423.742	1	8
424.084	1	4
424.425	1	11
424.766	1	-1
425.107	1	-3
425.449	1	7
425.790	1	-9
426.131	1	2
426.472	1	-7
426.814	1	6
427.155	1	-4
427.496	1	-2
427.837	1	-1
428.179	1	-1
428.520	1	-2
428.861	1	-7
429.202	1	3
429.544	1	-6
429.885	1	9
430.226	1	0
430.567	1	3
430.909	1	-2
431.250	1	4
431.591	1	7
431.932	1	-10
432.273	1	-2
432.615	1	-6
432.956	1	-5
433.297	1	9
433.638	1	-1
433.979	1	7
434.320	1	0
434.662	1	0
435.003	1	2
435.344	1	1
435.685	1	6
436.026	1	0
436.368	1	0
436.709	1	4
437.050	1	-4
437.391	1	16
437.732	1	-2
438.073	1	3
438.414	1	-3
438.756	1	2
439.097	1	-10
439.438	1	-4
439.779	1	-10
440.120	1	3
440.461	1	3
440.802	1	0
441.143	1	7
441.485	1	6
441.826	1	-4
442.167	1	3
442.508	1	-7
442.849	1	4
443.190	1	0
443.531	1	7
443.872	1	12
444.213	1	4
444.554	1	10
444.895	1	-4
445.237	1	3
445.578	1	1
445.919	1	-1
446.260	1	-8
446.601	1	1
446.942	1	6
447.283	1	2
447.624	1	-1
447.965	1	1
448.306	1	-5
448.647	1	-9
448.988	1	-5
449.329	1	1
449.670	1	12
450.011	1	10
450.352	1	-1
450.693	1	2
451.034	1	-8
451.375	1	-1
451.716	1	-2
452.057	1	1
452.398	1	13
452.739	1	8
453.080	1	-1
453.421	1	-6
453.762	1	9
454.103	1	-9
454.444	1	-2
454.785	1	6
455.126	1	-1
455.467	1	3
455.808	1	-6
456.149	1	-2
456.490	1	-1
456.831	1	8
457.172	1	-3
457.513	1	8
457.854	1	0
458.195	1	-9
458.536	1	6
458.877	1	4
459.218	1	5
459.559	1	3
459.899	1	2
460.240	1	2
460.581	1	19
460.922	1	4
461.263	1	-9
461.604	1	1
461.945	1	6
462.286	1	-2
462.627	1	9
462.968	1	11
463.309	1	-1
463.649	1	0
463.990	1	0
464.331	1	4
464.672	1	-1
465.013	1	-3
465.354	1	1
465.695	1	3
466.036	1	-6
466.376	1	-1
466.717	1	6
467.058	1	10
467.399	1	13
467.740	1	-7
468.081	1	9
468.422	1	-8
468.762	1	0
469.103	1	-4
469.444	1	-1
469.785	1	-16
470.126	1	-11
470.467	1	-4
470.807	1	11
471.148	1	3
471.489	1	0
471.830	1	6
472.171	1	8
472.511	1	-2
472.852	1	-8
473.193	1	14
473.534	1	2
473.875	1	5
474.215	1	7
474.556	1	-2
474.897	1	-1
475.238	1	1
475.578	1	-5
475.919	1	3
476.260	1	-4
476.601	1	1
476.942	1	6
477.282	1	-3
477.623	1	-17
477.964	1	1
478.305	1	0
478.645	1	11
478.986	1	-4
479.327	1	-3
479.667	1	2
480.008	1	-1
480.349	1	-4
480.690	1	-2
481.030	1	-6
481.371	1	-3
481.712	1	3
482.053	1	1
482.393	1	-5
482.734	1	-7
483.075	1	-2
483.415	1	0
483.756	1	2
484.097	1	-1
484.437	1	-9
484.778	1	-1
485.119	1	-1
485.459	1	15
485.800	1	4
486.141	1	-6
486.481	1	-1
486.822	1	8
487.163	1	5
487.503	1	-2
487.844	1	-1
488.185	1	7
488.525	1	4
488.866	1	8
489.207	1	2
489.547	1	-1
489.888	1	-1
490.228	1	7
490.569	1	10
490.910	1	2
491.250	1	4
491.591	1	-6
491.932	1	1
492.272	1	5
492.613	1	-3
492.953	1	-7
493.294	1	-2
493.635	1	0
493.975	1	-7
494.316	1	7
494.656	1	5
494.997	1	1
495.337	1	2
495.678	1	6
496.019	1	-3
496.359	1	10
496.700	1	1
497.040	1	1
497.381	1	5
497.721	1	-7
498.062	1	6
498.403	1	6
498.743	1	0
499.084	1	-5
499.424	1	9
499.765	1	5
500.105	1	0
500.446	1	-4
500.786	1	-7
501.127	1	8
501.467	1	-5
501.808	1	11
502.148	1	-2
502.489	1	-1
502.829	1	7
503.170	1	14
503.510	1	2
503.851	1	6
504.191	1	3
504.532	1	8
504.872	1	-3
505.213	1	11
505.553	1	-4
505.894	1	-1
506.234	1	11
506.575	1	6
506.915	1	1
507.256	1	11
507.596	1	3
507.936	1	4
508.277	1	-5
508.617	1	4
508.958	1	-8
509.298	1	5
509.639	1	4
509.979	1	1
510.319	1	9
510.660	1	-5
511.000	1	3
511.341	1	11
511.681	1	1
512.022	1	-4
512.362	1	-2
512.702	1	5
513.043	1	10
513.383	1	-2
513.724	1	6
514.064	1	7
514.404	1	-2
514.745	1	-3
515.085	1	7
515.425	1	-2
515.766	1	-11
516.106	1	-1
516.447	1	12
516.787	1	14
517.127	1	3
517.468	1	5
517.808	1	2
518.148	1	-2
518.489	1	-3
518.829	1	6
519.169	1	5
519.510	1	2
519.850	1	10
520.190	1	4
520.531	1	-1
520.871	1	5
521.211	1	1
521.552	1	13
521.892	1	1
522.232	1	6
522.573	1	2
522.913	1	14
523.253	1	4
523.593	1	2
523.934	1	-1
524.274	1	8
524.614	1	-1
524.955	1	3
525.295	1	6
525.635	1	9
525.975	1	6
526.316	1	12
526.656	1	5
526.996	1	11
527.337	1	0
527.677	1	4
528.017	1	-5
528.357	1	7
528.698	1	-3
529.038	1	2
529.378	1	0
529.718	1	10
530.058	1	11
530.399	1	13
530.739	1	11
531.079	1	10
531.419	1	12
531.760	1	-2
532.100	1	6
532.440	1	-5
532.780	1	8
533.120	1	11
533.461	1	10
533.801	1	13
534.141	1	-5
534.481	1	-3
534.821	1	20
535.162	1	2
535.502	1	-2
535.842	1	12
536.182	1	6
536.522	1	2
536.862	1	4
537.203	1	-4
537.543	1	7
537.883	1	-3
538.223	1	12
538.563	1	6
538.903	1	-6
539.243	1	2
539.584	1	-3
539.924	1	12
540.264	1	3
540.604	1	4
540.944	1	13
541.284	1	15
541.624	1	12
541.964	1	8
542.305	1	8
542.645	1	-1
542.985	1	15
543.325	1	5
543.665	1	12
544.005	1	22
544.345	1	12
544.685	1	5
545.025	1	5
545.365	1	-1
545.705	1	1
546.045	1	6
546.386	1	9
546.726	1	-6
547.066	1	1
547.406	1	11
547.746	1	-10
548.086	1	8
548.426	1	3
548.766	1	9
549.106	1	2
549.446	1	10
549.786	1	-2
550.126	1	13
550.466	1	3
550.806	1	-1
551.146	1	6
551.486	1	1
551.826	1	13
552.166	1	12
552.506	1	20
552.846	1	9
553.186	1	11
553.526	1	-2
553.866	1	9
554.206	1	10
554.546	1	9
554.886	1	9
555.226	1	-6
555.566	1	9
555.906	1	13
556.246	1	6
556.586	1	-7
556.926	1	8
557.266	1	-4
557.606	1	7
557.946	1	9
558.286	1	11
558.626	1	5
558.966	1	6
559.306	1	4
559.646	1	4
559.986	1	4
560.325	1	1
560.665	1	2
561.005	1	1
561.345	1	13
561.685	1	-3
562.025	1	7
562.365	1	9
562.705	1	4
563.045	1	-2
563.385	1	-11
563.725	1	-4
564.064	1	2
564.404	1	15
564.744	1	9
565.084	1	1
565.424	1	5
565.764	1	2
566.104	1	9
566.444	1	-1
566.783	1	2
567.123	1	10
567.463	1	13
567.803	1	-5
568.143	1	3
568.483	1	8
568.823	1	10
569.162	1	13
569.502	1	2
569.842	1	8
570.182	1	9
570.522	1	-5
570.862	1	2
571.201	1	16
571.541	1	15
571.881	1	7
572.221	1	1
572.561	1	2
572.900	1	4
573.240	1	10
573.580	1	3
573.920	1	9
574.260	1	10
574.599	1	6
574.939	1	10
575.279	1	17
575.619	1	5
575.959	1	-11
576.298	1	7
576.638	1	1
576.978	1	18
577.318	1	14
577.657	1	-2
577.997	1	10
578.337	1	14
578.677	1	20
579.016	1	20
579.356	1	-1
579.696	1	3
580.036	1	2
580.375	1	10
580.715	1	4
581.055	1	10
581.394	1	2
581.734	1	-11
582.074	1	2
582.414	1	12
582.753	1	-1
583.093	1	-1
583.433	1	1
583.772	1	3
584.112	1	8
584.452	1	11
584.791	1	4
585.131	1	14
585.471	1	11
585.811	1	10
586.150	1	5
586.490	1	8
586.830	1	-3
587.169	1	12
587.509	1	1
587.849	1	-1
588.188	1	17
588.528	1	12
588.867	1	4
589.207	1	5
589.547	1	3
589.886	1	-6
590.226	1	15
590.566	1	6
590.905	1	8
591.245	1	5
591.585	1	5
591.924	1	3
592.264	1	1
592.603	1	16
592.943	1	6
593.283	1	10
593.622	1	-2
593.962	1	3
594.301	1	6
594.641	1	0
594.981	1	3
595.320	1	10
595.660	1	8
595.999	1	0
596.339	1	4
596.678	1	-2
597.018	1	6
597.358	1	5
597.697	1	1
598.037	1	10
598.376	1	9
598.716	1	6
599.055	1	4
599.395	1	2
599.734	1	9
600.074	1	-4
600.413	1	10
600.753	1	4
601.092	1	16
601.432	1	-1
601.771	1	12
602.111	1	10
602.451	1	9
602.790	1	5
603.130	1	3
603.469	1	-1
603.809	1	2
604.148	1	7
604.487	1	5
604.827	1	12
605.166	1	3
605.506	1	7
605.845	1	4
606.185	1	6
606.524	1	1
606.864	1	5
607.203	1	2
607.543	1	1
607.882	1	10
608.222	1	5
608.561	1	13
608.901	1	4
609.240	1	-7
609.579	1	8
609.919	1	19
610.258	1	11
610.598	1	2
610.937	1	5
611.277	1	7
611.616	1	-6
611.955	1	5
612.295	1	7
612.634	1	-5
612.974	1	-14
613.313	1	15
613.652	1	1
613.992	1	2
614.331	1	2
614.671	1	4
615.010	1	-2
615.349	1	10
615.689	1	13
616.028	1	5
616.368	1	15
616.707	1	-3
617.046	1	7
617.386	1	11
617.725	1	5
618.064	1	2
618.404	1	-8
618.743	1	8
619.082	1	7
619.422	1	4
619.761	1	6
620.100	1	10
620.440	1	3
620.779	1	-6
621.118	1	6
621.458	1	3
621.797	1	5
622.136	1	16
622.476	1	9
622.815	1	13
623.154	1	1
623.494	1	14
623.833	1	-1
624.172	1	3
624.511	1	8
624.851	1	-1
625.190	1	8
625.529	1	9
625.869	1	11
626.208	1	9
626.547	1	9
626.886	1	10
627.226	1	8
627.565	1	5
627.904	1	-6
628.243	1	11
628.583	1	-2
628.922	1	0
629.261	1	7
629.600	1	8
629.940	1	-4
630.279	1	-5
630.618	1	-6
630.957	1	2
631.297	1	5
631.636	1	-2
631.975	1	14
632.314	1	6
632.653	1	11
632.993	1	-4
633.332	1	7
633.671	1	-1
634.010	1	3
634.349	1	6
634.689	1	4
635.028	1	6
635.367	1	3
635.706	1	1
636.045	1	12
636.384	1	0
636.724	1	4
637.063	1	10
637.402	1	9
637.741	1	5
638.080	1	-3
638.419	1	-3
638.759	1	2
639.098	1	13
639.437	1	3
639.776	1	0
640.115	1	3
640.454	1	-2
640.793	1	9
641.132	1	14
641.472	1	3
641.811	1	2
642.150	1	-10
642.489	1	15
642.828	1	4
643.167	1	-4
643.506	1	-4
643.845	1	5
644.184	1	6
644.524	1	1
644.863	1	-3
645.202	1	6
645.541	1	2
645.880	1	4
646.219	1	10
646.558	1	6
646.897	1	3
647.236	1	3
647.575	1	10
647.914	1	-8
648.253	1	3
648.592	1	-3
648.931	1	13
649.270	1	-1
649.610	1	7
649.949	1	-10
650.288	1	4
650.627	1	-5
650.966	1	4
651.305	1	-3
651.644	1	10
651.983	1	-4
652.322	1	-2
652.661	1	-4
653.000	1	6
653.339	1	7
653.678	1	15
654.017	1	-1
654.356	1	-1
654.695	1	11
655.034	1	8
655.373	1	12
655.712	1	-1
656.051	1	2
656.390	1	-4
656.729	1	2
657.068	1	2
657.406	1	9
657.745	1	-1
658.084	1	3
658.423	1	8
658.762	1	2
659.101	1	10
659.440	1	11
659.779	1	4
660.118	1	3
660.457	1	8
660.796	1	-2
661.135	1	-4
661.474	1	7
661.813	1	13
662.152	1	1
662.491	1	0
662.829	1	-5
663.168	1	5
663.507	1	13
663.846	1	-1
664.185	1	6
664.524	1	-3
664.863	1	2
665.202	1	9
665.541	1	-3
665.879	1	-9
666.218	1	-2
666.557	1	10
666.896	1	-5
667.235	1	9
667.574	1	-4
667.913	1	5
668.251	1	-3
668.590	1	12
668.929	1	-7
669.268	1	-4
669.607	1	-1
669.946	1	0
670.285	1	15
670.623	1	-4
670.962	1	-3
671.301	1	1
671.640	1	6
671.979	1	0
672.317	1	6
672.656	1	2
672.995	1	5
673.334	1	4
673.673	1	4
674.011	1	0
674.350	1	6
674.689	1	2
675.028	1	-2
675.367	1	-1
675.705	1	0
676.044	1	5
676.383	1	0
676.722	1	11
677.060	1	-2
677.399	1	-11
677.738	1	-1
678.077	1	12
678.416	1	9
678.754	1	-3
679.093	1	9
679.432	1	1
679.771	1	5
680.109	1	7
680.448	1	16
680.787	1	-2
681.125	1	8
681.464	1	5
681.803	1	-8
682.142	1	12
682.480	1	15
682.819	1	5
683.158	1	-6
683.496	1	8
683.835	1	-3
684.174	1	5
684.512	1	7
684.851	1	9
685.190	1	3
685.529	1	2
685.867	1	-5
686.206	1	-2
686.545	1	-1
686.883	1	6
687.222	1	7
687.561	1	3
687.899	1	3
688.238	1	6
688.577	1	1
688.746	1	-2