File: Data/GaN_200K_800ms/GaN_sample F_spot 12_UVVIS_200 K_200um_800 ms 2x2mm1_352.txt
340.368	1	-3
340.710	1	-6
341.052	1	8
341.394	1	-7
341.737	1	6
342.079	1	-9
342.421	1	-6
342.763	1	2
343.105	1	5
343.447	1	-5
343.789	1	2
344.131	1	-9
344.473	1	2
344.815	1	4
345.157	1	-9
345.499	1	6
345.841	1	3
346.183	1	-6
346.526	1	-13
346.868	1	2
347.210	1	-13
347.552	1	3
347.894	1	2
348.236	1	10
348.578	1	-6
348.920	1	-4
349.262	1	-2
349.604	1	6
349.946	1	-3
350.288	1	-1
350.630	1	-3
350.972	1	1
351.314	1	4
351.656	1	8
351.998	1	2
352.340	1	3
352.682	1	6
353.024	1	5
353.366	1	9
353.708	1	2
354.050	1	-5
354.392	1	-1
354.734	1	8
355.076	1	-4
355.418	1	-7
355.760	1	-1
356.102	1	9
356.444	1	-5
356.785	1	-1
357.127	1	-3
357.469	1	3
357.811	1	-3
358.153	1	6
358.495	1	-1
358.837	1	-10
359.179	1	10
359.521	1	1
359.863	1	1
360.205	1	6
360.547	1	1
360.889	1	5
361.231	1	0
361.572	1	-2
361.914	1	1
362.256	1	-1
362.598	1	1
362.940	1	8
363.282	1	3
363.624	1	12
363.966	1	9
364.308	1	14
364.649	1	5
364.991	1	9
365.333	1	6
365.675	1	2
366.017	1	9
366.359	1	1
366.701	1	7
367.042	1	15
367.384	1	23
367.726	1	8
368.068	1	12
368.410	1	18
368.752	1	12
369.093	1	6
369.435	1	15
369.777	1	2
370.119	1	2
370.461	1	22
370.803	1	6
371.144	1	7
371.486	1	22
371.828	1	13
372.170	1	10
372.512	1	6
372.853	1	10
373.195	1	2
373.537	1	10
373.879	1	7
374.220	1	19
374.562	1	15
374.904	1	10
375.246	1	14
375.588	1	5
375.929	1	15
376.271	1	11
376.613	1	-5
376.955	1	-1
377.296	1	1
377.638	1	13
377.980	1	6
378.321	1	-4
378.663	1	-3
379.005	1	10
379.347	1	10
379.688	1	1
380.030	1	1
380.372	1	-3
380.714	1	13
381.055	1	16
381.397	1	8
381.739	1	10
382.080	1	-3
382.422	1	1
382.764	1	1
383.105	1	-1
383.447	1	-2
383.789	1	2
384.130	1	3
384.472	1	0
384.814	1	5
385.156	1	-1
385.497	1	5
385.839	1	2
386.180	1	1
386.522	1	9
386.864	1	4
387.205	1	-3
387.547	1	-7
387.889	1	0
388.230	1	6
388.572	1	2
388.914	1	-5
389.255	1	-4
389.597	1	0
389.939	1	9
390.280	1	-3
390.622	1	1
390.963	1	14
391.305	1	8
391.647	1	-4
391.988	1	4
392.330	1	11
392.671	1	-2
393.013	1	-3
393.355	1	-3
393.696	1	1
394.038	1	4
394.379	1	3
394.721	1	-2
395.062	1	-2
395.404	1	-13
395.746	1	7
396.087	1	-1
396.429	1	9
396.770	1	-5
397.112	1	-4
397.453	1	8
397.795	1	6
398.136	1	-1
398.478	1	-6
398.819	1	-8
399.161	1	7
399.503	1	-4
399.844	1	3
400.186	1	-1
400.527	1	1
400.869	1	-7
401.210	1	6
401.552	1	-12
401.893	1	-3
402.235	1	-1
402.576	1	-1
402.918	1	12
403.259	1	9
403.601	1	-8
403.942	1	6
404.284	1	7
404.625	1	7
404.967	1	11
405.308	1	2
405.649	1	-2
405.991	1	-7
406.332	1	6
406.674	1	-5
407.015	1	4
407.357	1	-4
407.698	1	5
408.040	1	-13
408.381	1	4
408.722	1	-13
409.064	1	7
409.405	1	7
409.747	1	0
410.088	1	5
410.430	1	2
410.771	1	1
411.112	1	-9
411.454	1	-7
411.795	1	-6
412.137	1	0
412.478	1	13
412.819	1	11
413.161	1	-2
413.502	1	3
413.844	1	3
414.185	1	12
414.526	1	-7
414.868	1	-4
415.209	1	-6
415.550	1	-6
415.892	1	-2
416.233	1	6
416.575	1	6
416.916	1	-10
417.257	1	-4
417.599	1	-5
417.940	1	12
418.281	1	-4
418.623	1	-5
418.964	1	-13
419.305	1	-3
419.647	1	-5
419.988	1	1
420.329	1	-7
420.671	1	8
421.012	1	5
421.353	1	-9
421.695	1	-5
422.036	1	-3
422.377	1	-1
422.718	1	1
423.060	1	-4
423.401	1	-1
423.742	1	0
424.084	1	3
424.425	1	-1
424.766	1	-4
425.107	1	-1
425.449	1	-3
425.790	1	-9
426.131	1	2
426.472	1	10
426.814	1	6
427.155	1	-5
427.496	1	-4
427.837	1	-6
428.179	1	-5
428.520	1	6
428.861	1	-2
429.202	1	-3
429.544	1	-1
429.885	1	4
430.226	1	-2
430.567	1	-11
430.909	1	4
431.250	1	0
431.591	1	9
431.932	1	-2
432.273	1	-7
432.615	1	-14
432.956	1	-10
433.297	1	-3
433.638	1	-13
433.979	1	2
434.320	1	4
434.662	1	3
435.003	1	-2
435.344	1	1
435.685	1	-1
436.026	1	8
436.368	1	-4
436.709	1	0
437.050	1	-3
437.391	1	2
437.732	1	-8
438.073	1	-11
438.414	1	-5
438.756	1	-10
439.097	1	-7
439.438	1	-4
439.779	1	1
440.120	1	-5
440.461	1	-2
440.802	1	-5
441.143	1	11
441.485	1	5
441.826	1	0
442.167	1	1
442.508	1	-6
442.849	1	10
443.190	1	-4
443.531	1	13
443.872	1	5
444.213	1	5
444.554	1	18
444.895	1	-1
445.237	1	-8
445.578	1	-10
445.919	1	-13
446.260	1	-1
446.601	1	-2
446.942	1	1
447.283	1	0
447.624	1	3
447.965	1	-4
448.306	1	5
448.647	1	-8
448.988	1	-9
449.329	1	-10
449.670	1	4
450.011	1	6
450.352	1	-9
450.693	1	-6
451.034	1	-5
451.375	1	0
451.716	1	-1
452.057	1	3
452.398	1	-1
452.739	1	2
453.080	1	7
453.421	1	-8
453.762	1	1
454.103	1	-1
454.444	1	-9
454.785	1	-1
455.126	1	-2
455.467	1	1
455.808	1	7
456.149	1	10
456.490	1	8
456.831	1	6
457.172	1	-9
457.513	1	14
457.854	1	-2
458.195	1	-9
458.536	1	0
458.877	1	-4
459.218	1	-1
459.559	1	-5
459.899	1	-2
460.240	1	4
460.581	1	11
460.922	1	-3
461.263	1	-10
461.604	1	-8
461.945	1	2
462.286	1	-3
462.627	1	12
462.968	1	4
463.309	1	-9
463.649	1	-3
463.990	1	-6
464.331	1	-8
464.672	1	6
465.013	1	-9
465.354	1	-4
465.695	1	-8
466.036	1	3
466.376	1	-5
466.717	1	0
467.058	1	2
467.399	1	3
467.740	1	-5
468.081	1	11
468.422	1	-4
468.762	1	-9
469.103	1	-12
469.444	1	-12
469.785	1	-11
470.126	1	-9
470.467	1	-7
470.807	1	-7
471.148	1	-3
471.489	1	-3
471.830	1	-5
472.171	1	8
472.511	1	-1
472.852	1	-7
473.193	1	2
473.534	1	6
473.875	1	8
474.215	1	17
474.556	1	0
474.897	1	9
475.238	1	-8
475.578	1	-13
475.919	1	-6
476.260	1	-9
476.601	1	6
476.942	1	10
477.282	1	0
477.623	1	-10
477.964	1	-7
478.305	1	-2
478.645	1	7
478.986	1	2
479.327	1	-5
479.667	1	5
480.008	1	-9
480.349	1	-6
480.690	1	1
481.030	1	-3
481.371	1	1
481.712	1	-2
482.053	1	7
482.393	1	3
482.734	1	0
483.075	1	-1
483.415	1	-3
483.756	1	13
484.097	1	-5
484.437	1	-4
484.778	1	1
485.119	1	-4
485.459	1	11
485.800	1	0
486.141	1	-9
486.481	1	4
486.822	1	9
487.163	1	-1
487.503	1	2
487.844	1	-2
488.185	1	-1
488.525	1	1
488.866	1	3
489.207	1	-4
489.547	1	-6
489.888	1	-6
490.228	1	4
490.569	1	11
490.910	1	-2
491.250	1	1
491.591	1	-2
491.932	1	0
492.272	1	-2
492.613	1	-2
492.953	1	-5
493.294	1	4
493.635	1	-5
493.975	1	2
494.316	1	1
494.656	1	-6
494.997	1	-1
495.337	1	6
495.678	1	0
496.019	1	9
496.359	1	-11
496.700	1	-4
497.040	1	-8
497.381	1	-4
497.721	1	2
498.062	1	0
498.403	1	-4
498.743	1	-1
499.084	1	0
499.424	1	-6
499.765	1	-5
500.105	1	-13
500.446	1	-14
500.786	1	-9
501.127	1	2
501.467	1	0
501.808	1	3
502.148	1	1
502.489	1	2
502.829	1	2
503.170	1	2
503.510	1	3
503.851	1	2
504.191	1	-3
504.532	1	-1
504.872	1	5
505.213	1	4
505.553	1	-5
505.894	1	-9
506.234	1	3
506.575	1	0
506.915	1	2
507.256	1	1
507.596	1	-2
507.936	1	-3
508.277	1	0
508.617	1	-4
508.958	1	2
509.298	1	-3
509.639	1	-1
509.979	1	0
510.319	1	-2
510.660	1	1
511.000	1	-7
511.341	1	4
511.681	1	-1
512.022	1	-5
512.362	1	-14
512.702	1	3
513.043	1	1
513.383	1	-5
513.724	1	3
514.064	1	14
514.404	1	-3
514.745	1	0
515.085	1	-6
515.425	1	-9
515.766	1	-9
516.106	1	-5
516.447	1	19
516.787	1	-2
517.127	1	3
517.468	1	-2
517.808	1	-11
518.148	1	-2
518.489	1	-3
518.829	1	1
519.169	1	-1
519.510	1	0
519.850	1	-6
520.190	1	-7
520.531	1	2
520.871	1	-1
521.211	1	-14
521.552	1	7
521.892	1	3
522.232	1	4
522.573	1	-3
522.913	1	-2
523.253	1	4
523.593	1	-8
523.934	1	-6
524.274	1	2
524.614	1	-4
524.955	1	-3
525.295	1	6
525.635	1	1
525.975	1	0
526.316	1	16
526.656	1	-6
526.996	1	0
527.337	1	-5
527.677	1	5
528.017	1	-12
528.357	1	-5
528.698	1	1
529.038	1	-1
529.378	1	3
529.718	1	10
530.058	1	-7
530.399	1	5
530.739	1	5
531.079	1	8
531.419	1	11
531.760	1	8
532.100	1	-4
532.440	1	-1
532.780	1	-3
533.120	1	0
533.461	1	4
533.801	1	11
534.141	1	-8
534.481	1	-10
534.821	1	1
535.162	1	1
535.502	1	3
535.842	1	10
536.182	1	2
536.522	1	-3
536.862	1	-2
537.203	1	-3
537.543	1	-4
537.883	1	1
538.223	1	7
538.563	1	3
538.903	1	-8
539.243	1	-11
539.584	1	-3
539.924	1	5
540.264	1	-8
540.604	1	-2
540.944	1	-11
541.284	1	7
541.624	1	2
541.964	1	4
542.305	1	4
542.645	1	2
542.985	1	-4
543.325	1	0
543.665	1	6
544.005	1	3
544.345	1	-2
544.685	1	-4
545.025	1	2
545.365	1	5
545.705	1	6
546.045	1	-7
546.386	1	1
546.726	1	-8
547.066	1	-2
547.406	1	1
547.746	1	-6
548.086	1	-1
548.426	1	-2
548.766	1	5
549.106	1	-6
549.446	1	-2
549.786	1	-2
550.126	1	11
550.466	1	4
550.806	1	-1
551.146	1	3
551.486	1	0
551.826	1	6
552.166	1	1
552.506	1	-9
552.846	1	-2
553.186	1	6
553.526	1	-8
553.866	1	8
554.206	1	0
554.546	1	7
554.886	1	9
555.226	1	-12
555.566	1	4
555.906	1	6
556.246	1	1
556.586	1	3
556.926	1	6
557.266	1	-3
557.606	1	2
557.946	1	8
558.286	1	8
558.626	1	4
558.966	1	3
559.306	1	0
559.646	1	3
559.986	1	0
560.325	1	-1
560.665	1	-1
561.005	1	-1
561.345	1	-4
561.685	1	3
562.025	1	-1
562.365	1	2
562.705	1	-3
563.045	1	-3
563.385	1	-5
563.725	1	1
564.064	1	-6
564.404	1	8
564.744	1	3
565.084	1	2
565.424	1	-1
565.764	1	3
566.104	1	9
566.444	1	-10
566.783	1	0
567.123	1	4
567.463	1	1
567.803	1	4
568.143	1	-6
568.483	1	5
568.823	1	0
569.162	1	8
569.502	1	-6
569.842	1	5
570.182	1	-3
570.522	1	-12
570.862	1	-4
571.201	1	11
571.541	1	1
571.881	1	12
572.221	1	-4
572.561	1	-4
572.900	1	-3
573.240	1	2
573.580	1	0
573.920	1	-6
574.260	1	2
574.599	1	-2
574.939	1	-1
575.279	1	5
575.619	1	5
575.959	1	-3
576.298	1	16
576.638	1	-7
576.978	1	0
577.318	1	10
577.657	1	2
577.997	1	-3
578.337	1	8
578.677	1	2
579.016	1	8
579.356	1	-6
579.696	1	6
580.036	1	-2
580.375	1	2
580.715	1	1
581.055	1	-7
581.394	1	-4
581.734	1	-12
582.074	1	3
582.414	1	11
582.753	1	-3
583.093	1	-1
583.433	1	-10
583.772	1	10
584.112	1	2
584.452	1	1
584.791	1	0
585.131	1	-2
585.471	1	-2
585.811	1	2
586.150	1	3
586.490	1	8
586.830	1	-5
587.169	1	3
587.509	1	-6
587.849	1	-1
588.188	1	1
588.528	1	2
588.867	1	2
589.207	1	-1
589.547	1	-4
589.886	1	-2
590.226	1	11
590.566	1	-1
590.905	1	6
591.245	1	-6
591.585	1	2
591.924	1	4
592.264	1	9
592.603	1	-2
592.943	1	0
593.283	1	-3
593.622	1	1
593.962	1	8
594.301	1	8
594.641	1	-4
594.981	1	1
595.320	1	9
595.660	1	-3
595.999	1	-14
596.339	1	3
596.678	1	-11
597.018	1	-6
597.358	1	1
597.697	1	-5
598.037	1	3
598.376	1	6
598.716	1	12
599.055	1	4
599.395	1	4
599.734	1	2
600.074	1	-2
600.413	1	10
600.753	1	-2
601.092	1	6
601.432	1	0
601.771	1	3
602.111	1	1
602.451	1	4
602.790	1	6
603.130	1	-3
603.469	1	-9
603.809	1	7
604.148	1	3
604.487	1	-3
604.827	1	7
605.166	1	4
605.506	1	1
605.845	1	0
606.185	1	7
606.524	1	-5
606.864	1	1
607.203	1	-1
607.543	1	-11
607.882	1	4
608.222	1	1
608.561	1	-4
608.901	1	0
609.240	1	-3
609.579	1	8
609.919	1	7
610.258	1	7
610.598	1	7
610.937	1	4
611.277	1	-2
611.616	1	-6
611.955	1	1
612.295	1	-3
612.634	1	1
612.974	1	-15
613.313	1	11
613.652	1	1
613.992	1	3
614.331	1	-8
614.671	1	6
615.010	1	-14
615.349	1	5
615.689	1	7
616.028	1	-1
616.368	1	5
616.707	1	0
617.046	1	5
617.386	1	4
617.725	1	0
618.064	1	-5
618.404	1	-3
618.743	1	3
619.082	1	1
619.422	1	-10
619.761	1	5
620.100	1	6
620.440	1	-3
620.779	1	-7
621.118	1	-5
621.458	1	-4
621.797	1	-7
622.136	1	15
622.476	1	3
622.815	1	11
623.154	1	8
623.494	1	6
623.833	1	12
624.172	1	2
624.511	1	-9
624.851	1	-10
625.190	1	3
625.529	1	7
625.869	1	5
626.208	1	0
626.547	1	4
626.886	1	-4
627.226	1	2
627.565	1	-1
627.904	1	-7
628.243	1	4
628.583	1	2
628.922	1	-2
629.261	1	-1
629.600	1	9
629.940	1	-1
630.279	1	-7
630.618	1	-10
630.957	1	-2
631.297	1	-4
631.636	1	-2
631.975	1	9
632.314	1	0
632.653	1	1
632.993	1	-4
633.332	1	2
633.671	1	-3
634.010	1	-9
634.349	1	3
634.689	1	2
635.028	1	9
635.367	1	0
635.706	1	1
636.045	1	12
636.384	1	-1
636.724	1	-4
637.063	1	-17
637.402	1	-1
637.741	1	3
638.080	1	1
638.419	1	-9
638.759	1	-9
639.098	1	14
639.437	1	-1
639.776	1	-3
640.115	1	-5
640.454	1	-1
640.793	1	7
641.132	1	3
641.472	1	-2
641.811	1	2
642.150	1	-5
642.489	1	7
642.828	1	2
643.167	1	-4
643.506	1	-9
643.845	1	-7
644.184	1	1
644.524	1	-5
644.863	1	-14
645.202	1	2
645.541	1	-2
645.880	1	4
646.219	1	0
646.558	1	0
646.897	1	0
647.236	1	-3
647.575	1	-3
647.914	1	-12
648.253	1	9
648.592	1	-2
648.931	1	8
649.270	1	3
649.610	1	0
649.949	1	-5
650.288	1	9
650.627	1	-8
650.966	1	3
651.305	1	2
651.644	1	9
651.983	1	6
652.322	1	-4
652.661	1	-9
653.000	1	-2
653.339	1	0
653.678	1	3
654.017	1	2
654.356	1	-5
654.695	1	-2
655.034	1	12
655.373	1	7
655.712	1	1
656.051	1	1
656.390	1	-7
656.729	1	10
657.068	1	1
657.406	1	1
657.745	1	-9
658.084	1	6
658.423	1	1
658.762	1	2
659.101	1	9
659.440	1	0
659.779	1	2
660.118	1	2
660.457	1	4
660.796	1	-17
661.135	1	0
661.474	1	-9
661.813	1	6
662.152	1	3
662.491	1	-1
662.829	1	-3
663.168	1	-6
663.507	1	5
663.846	1	-1
664.185	1	-2
664.524	1	2
664.863	1	-11
665.202	1	1
665.541	1	-6
665.879	1	-3
666.218	1	1
666.557	1	-6
666.896	1	0
667.235	1	5
667.574	1	4
667.913	1	-3
668.251	1	-5
668.590	1	-2
668.929	1	-19
669.268	1	-1
669.607	1	1
669.946	1	2
670.285	1	1
670.623	1	-11
670.962	1	4
671.301	1	-4
671.640	1	0
671.979	1	-4
672.317	1	2
672.656	1	1
672.995	1	-1
673.334	1	-6
673.673	1	2
674.011	1	-3
674.350	1	0
674.689	1	11
675.028	1	-9
675.367	1	7
675.705	1	6
676.044	1	-5
676.383	1	6
676.722	1	3
677.060	1	-13
677.399	1	-7
677.738	1	3
678.077	1	1
678.416	1	6
678.754	1	-6
679.093	1	1
679.432	1	-6
679.771	1	-1
680.109	1	1
680.448	1	-8
680.787	1	-8
681.125	1	1
681.464	1	-2
681.803	1	-5
682.142	1	15
682.480	1	11
682.819	1	4
683.158	1	-4
683.496	1	6
683.835	1	-3
684.174	1	-6
684.512	1	2
684.851	1	5
685.190	1	-6
685.529	1	2
685.867	1	-4
686.206	1	-9
686.545	1	-9
686.883	1	3
687.222	1	9
687.561	1	7
687.899	1	4
688.238	1	6
688.577	1	-9
688.746	1	-3