File: Data/GaN_200K_800ms/GaN_sample F_spot 12_UVVIS_200 K_200um_800 ms 2x2mm1_531.txt
340.368	1	1
340.710	1	-6
341.052	1	12
341.394	1	-3
341.737	1	2
342.079	1	-9
342.421	1	-6
342.763	1	2
343.105	1	-8
343.447	1	-1
343.789	1	-5
344.131	1	-8
344.473	1	-2
344.815	1	-5
345.157	1	-2
345.499	1	7
345.841	1	1
346.183	1	-5
346.526	1	-8
346.868	1	-1
347.210	1	-13
347.552	1	-9
347.894	1	4
348.236	1	7
348.578	1	1
348.920	1	-4
349.262	1	0
349.604	1	1
349.946	1	-5
350.288	1	9
350.630	1	-1
350.972	1	6
351.314	1	0
351.656	1	-6
351.998	1	-8
352.340	1	0
352.682	1	-9
353.024	1	-1
353.366	1	7
353.708	1	1
354.050	1	-1
354.392	1	-7
354.734	1	-2
355.076	1	-1
355.418	1	-12
355.760	1	-5
356.102	1	6
356.444	1	-2
356.785	1	10
357.127	1	0
357.469	1	0
357.811	1	1
358.153	1	8
358.495	1	-5
358.837	1	1
359.179	1	-9
359.521	1	7
359.863	1	-5
360.205	1	-7
360.547	1	1
360.889	1	-7
361.231	1	-2
361.572	1	-9
361.914	1	3
362.256	1	0
362.598	1	-6
362.940	1	-3
363.282	1	0
363.624	1	4
363.966	1	-6
364.308	1	-5
364.649	1	-1
364.991	1	6
365.333	1	1
365.675	1	-7
366.017	1	1
366.359	1	9
366.701	1	8
367.042	1	5
367.384	1	4
367.726	1	7
368.068	1	13
368.410	1	14
368.752	1	3
369.093	1	-2
369.435	1	10
369.777	1	-3
370.119	1	0
370.461	1	18
370.803	1	12
371.144	1	-1
371.486	1	14
371.828	1	9
372.170	1	3
372.512	1	-9
372.853	1	9
373.195	1	4
373.537	1	-3
373.879	1	3
374.220	1	12
374.562	1	20
374.904	1	3
375.246	1	4
375.588	1	8
375.929	1	10
376.271	1	12
376.613	1	-3
376.955	1	-8
377.296	1	-5
377.638	1	4
377.980	1	8
378.321	1	-4
378.663	1	7
379.005	1	11
379.347	1	-6
379.688	1	1
380.030	1	-1
380.372	1	0
380.714	1	5
381.055	1	12
381.397	1	6
381.739	1	7
382.080	1	5
382.422	1	1
382.764	1	1
383.105	1	1
383.447	1	1
383.789	1	-6
384.130	1	2
384.472	1	3
384.814	1	0
385.156	1	-1
385.497	1	4
385.839	1	4
386.180	1	4
386.522	1	16
386.864	1	8
387.205	1	-4
387.547	1	-9
387.889	1	-8
388.230	1	12
388.572	1	-2
388.914	1	1
389.255	1	-6
389.597	1	-4
389.939	1	6
390.280	1	-1
390.622	1	3
390.963	1	7
391.305	1	-1
391.647	1	7
391.988	1	0
392.330	1	2
392.671	1	-3
393.013	1	3
393.355	1	2
393.696	1	10
394.038	1	5
394.379	1	3
394.721	1	-8
395.062	1	1
395.404	1	-3
395.746	1	11
396.087	1	0
396.429	1	9
396.770	1	-6
397.112	1	1
397.453	1	3
397.795	1	1
398.136	1	-12
398.478	1	-7
398.819	1	-2
399.161	1	10
399.503	1	-6
399.844	1	-2
400.186	1	0
400.527	1	-1
400.869	1	1
401.210	1	-5
401.552	1	-14
401.893	1	-5
402.235	1	-2
402.576	1	1
402.918	1	4
403.259	1	8
403.601	1	-8
403.942	1	10
404.284	1	9
404.625	1	-1
404.967	1	7
405.308	1	-4
405.649	1	0
405.991	1	-2
406.332	1	8
406.674	1	-12
407.015	1	7
407.357	1	-4
407.698	1	12
408.040	1	-1
408.381	1	4
408.722	1	-7
409.064	1	-6
409.405	1	8
409.747	1	1
410.088	1	1
410.430	1	9
410.771	1	2
411.112	1	-11
411.454	1	-11
411.795	1	-13
412.137	1	10
412.478	1	13
412.819	1	-5
413.161	1	-10
413.502	1	5
413.844	1	6
414.185	1	2
414.526	1	-1
414.868	1	3
415.209	1	5
415.550	1	-3
415.892	1	-4
416.233	1	2
416.575	1	7
416.916	1	-6
417.257	1	-1
417.599	1	1
417.940	1	7
418.281	1	-2
418.623	1	-6
418.964	1	-12
419.305	1	0
419.647	1	-4
419.988	1	-2
420.329	1	-6
420.671	1	-3
421.012	1	3
421.353	1	1
421.695	1	3
422.036	1	1
422.377	1	-2
422.718	1	0
423.060	1	-3
423.401	1	-8
423.742	1	-4
424.084	1	0
424.425	1	9
424.766	1	4
425.107	1	-6
425.449	1	6
425.790	1	-3
426.131	1	1
426.472	1	1
426.814	1	-2
427.155	1	-13
427.496	1	1
427.837	1	-8
428.179	1	-3
428.520	1	-2
428.861	1	-9
429.202	1	3
429.544	1	0
429.885	1	-4
430.226	1	-10
430.567	1	2
430.909	1	5
431.250	1	-4
431.591	1	2
431.932	1	-1
432.273	1	-7
432.615	1	-2
432.956	1	-17
433.297	1	1
433.638	1	2
433.979	1	8
434.320	1	10
434.662	1	-5
435.003	1	10
435.344	1	-1
435.685	1	-8
436.026	1	6
436.368	1	7
436.709	1	-12
437.050	1	-9
437.391	1	0
437.732	1	-7
438.073	1	-5
438.414	1	-6
438.756	1	-8
439.097	1	-2
439.438	1	-3
439.779	1	-1
440.120	1	5
440.461	1	4
440.802	1	-8
441.143	1	9
441.485	1	7
441.826	1	-3
442.167	1	-10
442.508	1	1
442.849	1	8
443.190	1	-1
443.531	1	4
443.872	1	8
444.213	1	5
444.554	1	11
444.895	1	-4
445.237	1	-13
445.578	1	-9
445.919	1	-5
446.260	1	-4
446.601	1	-7
446.942	1	-10
447.283	1	-6
447.624	1	-3
447.965	1	4
448.306	1	-7
448.647	1	-6
448.988	1	-9
449.329	1	-4
449.670	1	3
450.011	1	8
450.352	1	2
450.693	1	-4
451.034	1	-8
451.375	1	-7
451.716	1	-5
452.057	1	5
452.398	1	-3
452.739	1	-5
453.080	1	1
453.421	1	-3
453.762	1	3
454.103	1	-6
454.444	1	-4
454.785	1	-7
455.126	1	2
455.467	1	-9
455.808	1	1
456.149	1	-4
456.490	1	-4
456.831	1	9
457.172	1	-3
457.513	1	3
457.854	1	7
458.195	1	-1
458.536	1	7
458.877	1	-3
459.218	1	-5
459.559	1	-3
459.899	1	-3
460.240	1	1
460.581	1	5
460.922	1	-2
461.263	1	-3
461.604	1	-2
461.945	1	3
462.286	1	2
462.627	1	2
462.968	1	5
463.309	1	-12
463.649	1	-5
463.990	1	-2
464.331	1	-5
464.672	1	1
465.013	1	7
465.354	1	3
465.695	1	-9
466.036	1	1
466.376	1	-6
466.717	1	4
467.058	1	3
467.399	1	0
467.740	1	2
468.081	1	-2
468.422	1	-4
468.762	1	-4
469.103	1	2
469.444	1	-13
469.785	1	-15
470.126	1	-7
470.467	1	-2
470.807	1	2
471.148	1	-6
471.489	1	2
471.830	1	3
472.171	1	-1
472.511	1	-6
472.852	1	0
473.193	1	2
473.534	1	2
473.875	1	12
474.215	1	4
474.556	1	-5
474.897	1	4
475.238	1	11
475.578	1	-11
475.919	1	4
476.260	1	-6
476.601	1	5
476.942	1	4
477.282	1	-3
477.623	1	-17
477.964	1	-5
478.305	1	-5
478.645	1	3
478.986	1	1
479.327	1	-13
479.667	1	-3
480.008	1	-6
480.349	1	-7
480.690	1	5
481.030	1	-8
481.371	1	6
481.712	1	7
482.053	1	11
482.393	1	1
482.734	1	-9
483.075	1	2
483.415	1	5
483.756	1	13
484.097	1	-9
484.437	1	-17
484.778	1	-3
485.119	1	-4
485.459	1	16
485.800	1	-3
486.141	1	-3
486.481	1	8
486.822	1	-2
487.163	1	-6
487.503	1	0
487.844	1	-5
488.185	1	-4
488.525	1	6
488.866	1	-2
489.207	1	-6
489.547	1	-4
489.888	1	-9
490.228	1	4
490.569	1	14
490.910	1	-6
491.250	1	-5
491.591	1	-2
491.932	1	0
492.272	1	-1
492.613	1	-5
492.953	1	0
493.294	1	-7
493.635	1	-4
493.975	1	-3
494.316	1	3
494.656	1	3
494.997	1	-5
495.337	1	10
495.678	1	-4
496.019	1	-2
496.359	1	-2
496.700	1	-6
497.040	1	0
497.381	1	4
497.721	1	-2
498.062	1	-3
498.403	1	1
498.743	1	-2
499.084	1	-4
499.424	1	-2
499.765	1	-5
500.105	1	-3
500.446	1	-11
500.786	1	-12
501.127	1	-4
501.467	1	-11
501.808	1	0
502.148	1	-6
502.489	1	4
502.829	1	2
503.170	1	8
503.510	1	4
503.851	1	-7
504.191	1	10
504.532	1	13
504.872	1	-5
505.213	1	2
505.553	1	0
505.894	1	-2
506.234	1	7
506.575	1	-1
506.915	1	3
507.256	1	-6
507.596	1	-5
507.936	1	3
508.277	1	-7
508.617	1	-3
508.958	1	-5
509.298	1	2
509.639	1	-15
509.979	1	-10
510.319	1	3
510.660	1	-2
511.000	1	-4
511.341	1	2
511.681	1	6
512.022	1	-2
512.362	1	-2
512.702	1	-15
513.043	1	0
513.383	1	-7
513.724	1	-2
514.064	1	5
514.404	1	-9
514.745	1	-8
515.085	1	0
515.425	1	-1
515.766	1	-5
516.106	1	5
516.447	1	11
516.787	1	2
517.127	1	0
517.468	1	2
517.808	1	0
518.148	1	1
518.489	1	-3
518.829	1	7
519.169	1	-5
519.510	1	2
519.850	1	10
520.190	1	-6
520.531	1	6
520.871	1	3
521.211	1	-12
521.552	1	5
521.892	1	3
522.232	1	6
522.573	1	1
522.913	1	7
523.253	1	-5
523.593	1	-6
523.934	1	2
524.274	1	-2
524.614	1	1
524.955	1	-12
525.295	1	2
525.635	1	-2
525.975	1	-1
526.316	1	12
526.656	1	-5
526.996	1	0
527.337	1	-6
527.677	1	4
528.017	1	-13
528.357	1	-7
528.698	1	-4
529.038	1	2
529.378	1	-1
529.718	1	8
530.058	1	0
530.399	1	7
530.739	1	0
531.079	1	1
531.419	1	4
531.760	1	6
532.100	1	-4
532.440	1	0
532.780	1	0
533.120	1	0
533.461	1	11
533.801	1	15
534.141	1	-11
534.481	1	-10
534.821	1	4
535.162	1	1
535.502	1	-4
535.842	1	5
536.182	1	2
536.522	1	-8
536.862	1	10
537.203	1	-11
537.543	1	3
537.883	1	-2
538.223	1	10
538.563	1	12
538.903	1	-7
539.243	1	-10
539.584	1	-5
539.924	1	5
540.264	1	1
540.604	1	-1
540.944	1	-1
541.284	1	2
541.624	1	-1
541.964	1	5
542.305	1	1
542.645	1	3
542.985	1	1
543.325	1	2
543.665	1	5
544.005	1	8
544.345	1	0
544.685	1	5
545.025	1	-8
545.365	1	-8
545.705	1	-9
546.045	1	-2
546.386	1	-2
546.726	1	-6
547.066	1	7
547.406	1	1
547.746	1	-13
548.086	1	4
548.426	1	-5
548.766	1	-2
549.106	1	-6
549.446	1	8
549.786	1	-1
550.126	1	14
550.466	1	-3
550.806	1	-2
551.146	1	-4
551.486	1	-5
551.826	1	8
552.166	1	-4
552.506	1	2
552.846	1	3
553.186	1	4
553.526	1	-9
553.866	1	-6
554.206	1	6
554.546	1	-2
554.886	1	11
555.226	1	-8
555.566	1	-2
555.906	1	-1
556.246	1	-7
556.586	1	-4
556.926	1	2
557.266	1	-8
557.606	1	2
557.946	1	18
558.286	1	3
558.626	1	4
558.966	1	-5
559.306	1	3
559.646	1	1
559.986	1	-3
560.325	1	-1
560.665	1	-4
561.005	1	-9
561.345	1	4
561.685	1	-2
562.025	1	-6
562.365	1	6
562.705	1	-7
563.045	1	-7
563.385	1	-11
563.725	1	1
564.064	1	-7
564.404	1	10
564.744	1	2
565.084	1	6
565.424	1	1
565.764	1	0
566.104	1	-4
566.444	1	-6
566.783	1	-15
567.123	1	6
567.463	1	3
567.803	1	-4
568.143	1	-2
568.483	1	4
568.823	1	1
569.162	1	6
569.502	1	6
569.842	1	-1
570.182	1	2
570.522	1	-2
570.862	1	5
571.201	1	7
571.541	1	3
571.881	1	9
572.221	1	-1
572.561	1	-7
572.900	1	-2
573.240	1	6
573.580	1	1
573.920	1	4
574.260	1	11
574.599	1	-4
574.939	1	1
575.279	1	13
575.619	1	3
575.959	1	-1
576.298	1	13
576.638	1	-7
576.978	1	12
577.318	1	1
577.657	1	1
577.997	1	-13
578.337	1	5
578.677	1	-4
579.016	1	12
579.356	1	-1
579.696	1	10
580.036	1	-5
580.375	1	-5
580.715	1	1
581.055	1	-6
581.394	1	-3
581.734	1	-12
582.074	1	-2
582.414	1	5
582.753	1	-8
583.093	1	-12
583.433	1	-3
583.772	1	0
584.112	1	-3
584.452	1	3
584.791	1	-6
585.131	1	5
585.471	1	13
585.811	1	6
586.150	1	0
586.490	1	8
586.830	1	1
587.169	1	2
587.509	1	-5
587.849	1	8
588.188	1	5
588.528	1	-3
588.867	1	7
589.207	1	3
589.547	1	9
589.886	1	-6
590.226	1	9
590.566	1	-4
590.905	1	1
591.245	1	-12
591.585	1	-1
591.924	1	1
592.264	1	1
592.603	1	4
592.943	1	5
593.283	1	0
593.622	1	-5
593.962	1	1
594.301	1	9
594.641	1	1
594.981	1	-12
595.320	1	5
595.660	1	-1
595.999	1	-14
596.339	1	1
596.678	1	-5
597.018	1	-1
597.358	1	-4
597.697	1	1
598.037	1	-7
598.376	1	6
598.716	1	6
599.055	1	6
599.395	1	-13
599.734	1	-3
600.074	1	-5
600.413	1	7
600.753	1	3
601.092	1	9
601.432	1	-8
601.771	1	-6
602.111	1	-2
602.451	1	7
602.790	1	-3
603.130	1	2
603.469	1	-12
603.809	1	6
604.148	1	0
604.487	1	-3
604.827	1	1
605.166	1	3
605.506	1	3
605.845	1	-3
606.185	1	4
606.524	1	-1
606.864	1	1
607.203	1	-2
607.543	1	-3
607.882	1	2
608.222	1	-2
608.561	1	-5
608.901	1	2
609.240	1	-8
609.579	1	7
609.919	1	12
610.258	1	4
610.598	1	-2
610.937	1	-4
611.277	1	-2
611.616	1	3
611.955	1	-3
612.295	1	-14
612.634	1	0
612.974	1	-15
613.313	1	-1
613.652	1	0
613.992	1	-10
614.331	1	-7
614.671	1	-7
615.010	1	-3
615.349	1	7
615.689	1	5
616.028	1	-1
616.368	1	0
616.707	1	2
617.046	1	0
617.386	1	-6
617.725	1	-3
618.064	1	-8
618.404	1	-3
618.743	1	8
619.082	1	0
619.422	1	-7
619.761	1	11
620.100	1	-1
620.440	1	4
620.779	1	-14
621.118	1	-15
621.458	1	12
621.797	1	-2
622.136	1	10
622.476	1	6
622.815	1	7
623.154	1	5
623.494	1	13
623.833	1	0
624.172	1	-1
624.511	1	-6
624.851	1	-13
625.190	1	-4
625.529	1	7
625.869	1	3
626.208	1	-3
626.547	1	-1
626.886	1	6
627.226	1	-1
627.565	1	-3
627.904	1	-2
628.243	1	6
628.583	1	2
628.922	1	5
629.261	1	-1
629.600	1	16
629.940	1	-2
630.279	1	-7
630.618	1	-3
630.957	1	3
631.297	1	-4
631.636	1	-8
631.975	1	12
632.314	1	-4
632.653	1	2
632.993	1	-6
633.332	1	2
633.671	1	-1
634.010	1	-5
634.349	1	0
634.689	1	4
635.028	1	-4
635.367	1	-2
635.706	1	-1
636.045	1	13
636.384	1	-2
636.724	1	-4
637.063	1	-4
637.402	1	2
637.741	1	-4
638.080	1	-6
638.419	1	-14
638.759	1	-9
639.098	1	3
639.437	1	-5
639.776	1	-2
640.115	1	-7
640.454	1	-3
640.793	1	2
641.132	1	6
641.472	1	9
641.811	1	-3
642.150	1	-15
642.489	1	1
642.828	1	-6
643.167	1	-3
643.506	1	-9
643.845	1	-5
644.184	1	3
644.524	1	-6
644.863	1	-10
645.202	1	2
645.541	1	-3
645.880	1	3
646.219	1	-3
646.558	1	3
646.897	1	-4
647.236	1	0
647.575	1	-3
647.914	1	-1
648.253	1	8
648.592	1	-3
648.931	1	-3
649.270	1	1
649.610	1	-2
649.949	1	0
650.288	1	6
650.627	1	-1
650.966	1	-2
651.305	1	1
651.644	1	5
651.983	1	5
652.322	1	-7
652.661	1	-6
653.000	1	5
653.339	1	6
653.678	1	1
654.017	1	-1
654.356	1	-1
654.695	1	4
655.034	1	4
655.373	1	7
655.712	1	2
656.051	1	-1
656.390	1	-5
656.729	1	10
657.068	1	3
657.406	1	3
657.745	1	-7
658.084	1	-1
658.423	1	13
658.762	1	2
659.101	1	12
659.440	1	-4
659.779	1	-5
660.118	1	-6
660.457	1	0
660.796	1	-11
661.135	1	-1
661.474	1	0
661.813	1	5
662.152	1	4
662.491	1	-6
662.829	1	-11
663.168	1	0
663.507	1	5
663.846	1	-1
664.185	1	8
664.524	1	10
664.863	1	-4
665.202	1	-5
665.541	1	-18
665.879	1	-6
666.218	1	-1
666.557	1	-3
666.896	1	-10
667.235	1	5
667.574	1	-3
667.913	1	5
668.251	1	-8
668.590	1	2
668.929	1	-16
669.268	1	-7
669.607	1	-5
669.946	1	-5
670.285	1	5
670.623	1	-2
670.962	1	3
671.301	1	-7
671.640	1	1
671.979	1	-7
672.317	1	2
672.656	1	-6
672.995	1	9
673.334	1	0
673.673	1	-3
674.011	1	2
674.350	1	3
674.689	1	-1
675.028	1	-11
675.367	1	6
675.705	1	4
676.044	1	5
676.383	1	4
676.722	1	-1
677.060	1	-9
677.399	1	-7
677.738	1	3
678.077	1	11
678.416	1	7
678.754	1	-11
679.093	1	-2
679.432	1	-2
679.771	1	-1
680.109	1	10
680.448	1	-3
680.787	1	-1
681.125	1	7
681.464	1	2
681.803	1	2
682.142	1	7
682.480	1	8
682.819	1	-3
683.158	1	-7
683.496	1	-5
683.835	1	4
684.174	1	-6
684.512	1	-5
684.851	1	5
685.190	1	2
685.529	1	0
685.867	1	7
686.206	1	-7
686.545	1	-7
686.883	1	-13
687.222	1	10
687.561	1	0
687.899	1	4
688.238	1	2
688.577	1	7
688.746	1	-4