File: Data/GaN_200K_800ms/GaN_sample F_spot 12_UVVIS_200 K_200um_800 ms 2x2mm1_87.txt
340.368	1	3
340.710	1	-4
341.052	1	9
341.394	1	-7
341.737	1	18
342.079	1	-2
342.421	1	1
342.763	1	7
343.105	1	8
343.447	1	-3
343.789	1	0
344.131	1	0
344.473	1	7
344.815	1	6
345.157	1	0
345.499	1	6
345.841	1	-2
346.183	1	3
346.526	1	5
346.868	1	-1
347.210	1	-5
347.552	1	7
347.894	1	0
348.236	1	3
348.578	1	5
348.920	1	7
349.262	1	1
349.604	1	1
349.946	1	1
350.288	1	19
350.630	1	5
350.972	1	11
351.314	1	15
351.656	1	13
351.998	1	12
352.340	1	11
352.682	1	17
353.024	1	12
353.366	1	14
353.708	1	0
354.050	1	9
354.392	1	9
354.734	1	0
355.076	1	13
355.418	1	3
355.760	1	9
356.102	1	25
356.444	1	9
356.785	1	15
357.127	1	10
357.469	1	17
357.811	1	9
358.153	1	32
358.495	1	12
358.837	1	10
359.179	1	5
359.521	1	29
359.863	1	32
360.205	1	16
360.547	1	31
360.889	1	18
361.231	1	34
361.572	1	36
361.914	1	34
362.256	1	35
362.598	1	39
362.940	1	31
363.282	1	40
363.624	1	54
363.966	1	45
364.308	1	57
364.649	1	62
364.991	1	65
365.333	1	60
365.675	1	65
366.017	1	85
366.359	1	84
366.701	1	92
367.042	1	98
367.384	1	115
367.726	1	115
368.068	1	113
368.410	1	131
368.752	1	110
369.093	1	124
369.435	1	146
369.777	1	133
370.119	1	134
370.461	1	139
370.803	1	127
371.144	1	111
371.486	1	135
371.828	1	115
372.170	1	104
372.512	1	94
372.853	1	103
373.195	1	100
373.537	1	84
373.879	1	88
374.220	1	92
374.562	1	88
374.904	1	79
375.246	1	88
375.588	1	69
375.929	1	67
376.271	1	69
376.613	1	58
376.955	1	57
377.296	1	46
377.638	1	60
377.980	1	54
378.321	1	52
378.663	1	37
379.005	1	55
379.347	1	38
379.688	1	49
380.030	1	42
380.372	1	33
380.714	1	46
381.055	1	47
381.397	1	31
381.739	1	40
382.080	1	28
382.422	1	39
382.764	1	30
383.105	1	34
383.447	1	34
383.789	1	25
384.130	1	19
384.472	1	26
384.814	1	35
385.156	1	14
385.497	1	33
385.839	1	21
386.180	1	25
386.522	1	27
386.864	1	22
387.205	1	18
387.547	1	8
387.889	1	14
388.230	1	25
388.572	1	27
388.914	1	21
389.255	1	14
389.597	1	9
389.939	1	14
390.280	1	9
390.622	1	17
390.963	1	20
391.305	1	18
391.647	1	10
391.988	1	22
392.330	1	13
392.671	1	8
393.013	1	8
393.355	1	17
393.696	1	8
394.038	1	6
394.379	1	14
394.721	1	1
395.062	1	15
395.404	1	-1
395.746	1	16
396.087	1	10
396.429	1	8
396.770	1	0
397.112	1	13
397.453	1	10
397.795	1	4
398.136	1	-2
398.478	1	9
398.819	1	10
399.161	1	14
399.503	1	9
399.844	1	7
400.186	1	8
400.527	1	6
400.869	1	5
401.210	1	4
401.552	1	0
401.893	1	1
402.235	1	5
402.576	1	4
402.918	1	16
403.259	1	13
403.601	1	0
403.942	1	19
404.284	1	17
404.625	1	4
404.967	1	14
405.308	1	0
405.649	1	9
405.991	1	0
406.332	1	6
406.674	1	4
407.015	1	-1
407.357	1	7
407.698	1	10
408.040	1	8
408.381	1	6
408.722	1	-15
409.064	1	11
409.405	1	11
409.747	1	-6
410.088	1	4
410.430	1	14
410.771	1	2
411.112	1	7
411.454	1	3
411.795	1	-3
412.137	1	12
412.478	1	17
412.819	1	0
413.161	1	-2
413.502	1	4
413.844	1	4
414.185	1	16
414.526	1	0
414.868	1	6
415.209	1	4
415.550	1	-2
415.892	1	10
416.233	1	9
416.575	1	19
416.916	1	-9
417.257	1	4
417.599	1	17
417.940	1	16
418.281	1	-1
418.623	1	0
418.964	1	-5
419.305	1	5
419.647	1	2
419.988	1	-1
420.329	1	-10
420.671	1	15
421.012	1	8
421.353	1	-4
421.695	1	-2
422.036	1	1
422.377	1	-4
422.718	1	10
423.060	1	-5
423.401	1	8
423.742	1	7
424.084	1	8
424.425	1	2
424.766	1	3
425.107	1	-5
425.449	1	3
425.790	1	-2
426.131	1	-1
426.472	1	7
426.814	1	0
427.155	1	-7
427.496	1	-1
427.837	1	1
428.179	1	-8
428.520	1	2
428.861	1	-2
429.202	1	6
429.544	1	-2
429.885	1	2
430.226	1	-13
430.567	1	13
430.909	1	2
431.250	1	2
431.591	1	11
431.932	1	-3
432.273	1	1
432.615	1	-6
432.956	1	-4
433.297	1	3
433.638	1	-2
433.979	1	6
434.320	1	11
434.662	1	4
435.003	1	9
435.344	1	8
435.685	1	-1
436.026	1	8
436.368	1	9
436.709	1	11
437.050	1	7
437.391	1	6
437.732	1	-3
438.073	1	7
438.414	1	-2
438.756	1	-8
439.097	1	-6
439.438	1	0
439.779	1	9
440.120	1	-3
440.461	1	9
440.802	1	-4
441.143	1	10
441.485	1	9
441.826	1	6
442.167	1	5
442.508	1	-6
442.849	1	6
443.190	1	-1
443.531	1	13
443.872	1	12
444.213	1	6
444.554	1	9
444.895	1	0
445.237	1	-7
445.578	1	-2
445.919	1	-2
446.260	1	2
446.601	1	4
446.942	1	-1
447.283	1	2
447.624	1	0
447.965	1	3
448.306	1	4
448.647	1	-3
448.988	1	4
449.329	1	3
449.670	1	5
450.011	1	14
450.352	1	2
450.693	1	-1
451.034	1	-7
451.375	1	0
451.716	1	4
452.057	1	-4
452.398	1	-2
452.739	1	3
453.080	1	3
453.421	1	1
453.762	1	-3
454.103	1	4
454.444	1	-6
454.785	1	1
455.126	1	0
455.467	1	6
455.808	1	3
456.149	1	6
456.490	1	7
456.831	1	0
457.172	1	3
457.513	1	4
457.854	1	-2
458.195	1	2
458.536	1	8
458.877	1	8
459.218	1	4
459.559	1	9
459.899	1	0
460.240	1	8
460.581	1	15
460.922	1	4
461.263	1	1
461.604	1	-2
461.945	1	4
462.286	1	12
462.627	1	10
462.968	1	4
463.309	1	-9
463.649	1	5
463.990	1	1
464.331	1	2
464.672	1	2
465.013	1	-2
465.354	1	0
465.695	1	-2
466.036	1	-2
466.376	1	1
466.717	1	4
467.058	1	0
467.399	1	11
467.740	1	5
468.081	1	1
468.422	1	-1
468.762	1	3
469.103	1	4
469.444	1	-6
469.785	1	-17
470.126	1	3
470.467	1	-9
470.807	1	10
471.148	1	5
471.489	1	7
471.830	1	3
472.171	1	10
472.511	1	-3
472.852	1	1
473.193	1	12
473.534	1	14
473.875	1	14
474.215	1	15
474.556	1	6
474.897	1	7
475.238	1	4
475.578	1	-9
475.919	1	9
476.260	1	-6
476.601	1	0
476.942	1	8
477.282	1	2
477.623	1	2
477.964	1	-8
478.305	1	8
478.645	1	11
478.986	1	-11
479.327	1	-6
479.667	1	-8
480.008	1	3
480.349	1	5
480.690	1	4
481.030	1	-1
481.371	1	11
481.712	1	8
482.053	1	3
482.393	1	9
482.734	1	4
483.075	1	3
483.415	1	4
483.756	1	11
484.097	1	1
484.437	1	-10
484.778	1	12
485.119	1	-7
485.459	1	19
485.800	1	2
486.141	1	-1
486.481	1	3
486.822	1	8
487.163	1	4
487.503	1	0
487.844	1	-6
488.185	1	-1
488.525	1	6
488.866	1	2
489.207	1	-4
489.547	1	-6
489.888	1	1
490.228	1	6
490.569	1	16
490.910	1	4
491.250	1	-1
491.591	1	-4
491.932	1	-4
492.272	1	14
492.613	1	-4
492.953	1	-2
493.294	1	3
493.635	1	-2
493.975	1	0
494.316	1	8
494.656	1	15
494.997	1	-1
495.337	1	13
495.678	1	5
496.019	1	1
496.359	1	5
496.700	1	0
497.040	1	-5
497.381	1	5
497.721	1	2
498.062	1	-3
498.403	1	17
498.743	1	-5
499.084	1	3
499.424	1	4
499.765	1	3
500.105	1	11
500.446	1	0
500.786	1	8
501.127	1	3
501.467	1	-7
501.808	1	6
502.148	1	3
502.489	1	15
502.829	1	1
503.170	1	10
503.510	1	7
503.851	1	1
504.191	1	16
504.532	1	16
504.872	1	9
505.213	1	13
505.553	1	5
505.894	1	-10
506.234	1	15
506.575	1	7
506.915	1	9
507.256	1	9
507.596	1	12
507.936	1	11
508.277	1	8
508.617	1	7
508.958	1	4
509.298	1	10
509.639	1	4
509.979	1	7
510.319	1	18
510.660	1	9
511.000	1	8
511.341	1	8
511.681	1	6
512.022	1	3
512.362	1	1
512.702	1	6
513.043	1	15
513.383	1	-4
513.724	1	5
514.064	1	24
514.404	1	7
514.745	1	1
515.085	1	11
515.425	1	8
515.766	1	1
516.106	1	5
516.447	1	20
516.787	1	20
517.127	1	11
517.468	1	1
517.808	1	5
518.148	1	3
518.489	1	12
518.829	1	16
519.169	1	7
519.510	1	20
519.850	1	17
520.190	1	14
520.531	1	12
520.871	1	12
521.211	1	8
521.552	1	14
521.892	1	18
522.232	1	15
522.573	1	14
522.913	1	12
523.253	1	6
523.593	1	13
523.934	1	4
524.274	1	16
524.614	1	8
524.955	1	3
525.295	1	10
525.635	1	4
525.975	1	12
526.316	1	17
526.656	1	12
526.996	1	20
527.337	1	5
527.677	1	6
528.017	1	2
528.357	1	12
528.698	1	8
529.038	1	6
529.378	1	7
529.718	1	24
530.058	1	17
530.399	1	13
530.739	1	8
531.079	1	8
531.419	1	19
531.760	1	14
532.100	1	5
532.440	1	16
532.780	1	13
533.120	1	15
533.461	1	13
533.801	1	18
534.141	1	1
534.481	1	7
534.821	1	17
535.162	1	7
535.502	1	12
535.842	1	20
536.182	1	6
536.522	1	13
536.862	1	23
537.203	1	2
537.543	1	12
537.883	1	17
538.223	1	14
538.563	1	15
538.903	1	3
539.243	1	11
539.584	1	9
539.924	1	19
540.264	1	12
540.604	1	13
540.944	1	4
541.284	1	14
541.624	1	9
541.964	1	23
542.305	1	21
542.645	1	12
542.985	1	11
543.325	1	13
543.665	1	16
544.005	1	17
544.345	1	12
544.685	1	12
545.025	1	12
545.365	1	13
545.705	1	10
546.045	1	11
546.386	1	19
546.726	1	5
547.066	1	9
547.406	1	13
547.746	1	1
548.086	1	13
548.426	1	10
548.766	1	11
549.106	1	21
549.446	1	11
549.786	1	16
550.126	1	21
550.466	1	18
550.806	1	15
551.146	1	20
551.486	1	17
551.826	1	23
552.166	1	17
552.506	1	18
552.846	1	18
553.186	1	12
553.526	1	11
553.866	1	20
554.206	1	27
554.546	1	15
554.886	1	19
555.226	1	11
555.566	1	20
555.906	1	12
556.246	1	15
556.586	1	15
556.926	1	19
557.266	1	24
557.606	1	23
557.946	1	23
558.286	1	12
558.626	1	15
558.966	1	15
559.306	1	13
559.646	1	10
559.986	1	4
560.325	1	18
560.665	1	17
561.005	1	4
561.345	1	13
561.685	1	22
562.025	1	13
562.365	1	18
562.705	1	23
563.045	1	8
563.385	1	5
563.725	1	13
564.064	1	15
564.404	1	17
564.744	1	12
565.084	1	16
565.424	1	16
565.764	1	20
566.104	1	19
566.444	1	8
566.783	1	18
567.123	1	7
567.463	1	15
567.803	1	12
568.143	1	8
568.483	1	14
568.823	1	13
569.162	1	23
569.502	1	15
569.842	1	18
570.182	1	7
570.522	1	8
570.862	1	12
571.201	1	29
571.541	1	17
571.881	1	34
572.221	1	11
572.561	1	13
572.900	1	6
573.240	1	11
573.580	1	8
573.920	1	13
574.260	1	20
574.599	1	17
574.939	1	22
575.279	1	23
575.619	1	21
575.959	1	8
576.298	1	27
576.638	1	5
576.978	1	32
577.318	1	15
577.657	1	5
577.997	1	18
578.337	1	26
578.677	1	19
579.016	1	19
579.356	1	14
579.696	1	18
580.036	1	12
580.375	1	20
580.715	1	7
581.055	1	18
581.394	1	18
581.734	1	6
582.074	1	7
582.414	1	23
582.753	1	11
583.093	1	12
583.433	1	9
583.772	1	18
584.112	1	5
584.452	1	12
584.791	1	3
585.131	1	9
585.471	1	21
585.811	1	8
586.150	1	5
586.490	1	26
586.830	1	5
587.169	1	9
587.509	1	15
587.849	1	16
588.188	1	25
588.528	1	21
588.867	1	23
589.207	1	8
589.547	1	11
589.886	1	2
590.226	1	12
590.566	1	16
590.905	1	16
591.245	1	10
591.585	1	18
591.924	1	13
592.264	1	9
592.603	1	14
592.943	1	2
593.283	1	13
593.622	1	8
593.962	1	14
594.301	1	18
594.641	1	5
594.981	1	3
595.320	1	6
595.660	1	13
595.999	1	-2
596.339	1	12
596.678	1	10
597.018	1	1
597.358	1	12
597.697	1	9
598.037	1	6
598.376	1	15
598.716	1	14
599.055	1	11
599.395	1	14
599.734	1	12
600.074	1	8
600.413	1	17
600.753	1	7
601.092	1	23
601.432	1	12
601.771	1	24
602.111	1	4
602.451	1	20
602.790	1	11
603.130	1	14
603.469	1	2
603.809	1	16
604.148	1	9
604.487	1	6
604.827	1	12
605.166	1	12
605.506	1	10
605.845	1	15
606.185	1	10
606.524	1	12
606.864	1	12
607.203	1	6
607.543	1	3
607.882	1	10
608.222	1	19
608.561	1	10
608.901	1	14
609.240	1	5
609.579	1	16
609.919	1	20
610.258	1	17
610.598	1	16
610.937	1	12
611.277	1	7
611.616	1	8
611.955	1	13
612.295	1	5
612.634	1	6
612.974	1	-1
613.313	1	16
613.652	1	16
613.992	1	13
614.331	1	14
614.671	1	10
615.010	1	4
615.349	1	16
615.689	1	9
616.028	1	13
616.368	1	10
616.707	1	-1
617.046	1	5
617.386	1	11
617.725	1	11
618.064	1	0
618.404	1	14
618.743	1	20
619.082	1	16
619.422	1	-2
619.761	1	16
620.100	1	17
620.440	1	7
620.779	1	0
621.118	1	18
621.458	1	12
621.797	1	-1
622.136	1	11
622.476	1	10
622.815	1	20
623.154	1	16
623.494	1	21
623.833	1	9
624.172	1	4
624.511	1	10
624.851	1	0
625.190	1	2
625.529	1	14
625.869	1	13
626.208	1	11
626.547	1	10
626.886	1	14
627.226	1	7
627.565	1	10
627.904	1	9
628.243	1	16
628.583	1	5
628.922	1	12
629.261	1	6
629.600	1	22
629.940	1	23
630.279	1	6
630.618	1	0
630.957	1	6
631.297	1	13
631.636	1	-3
631.975	1	22
632.314	1	0
632.653	1	7
632.993	1	6
633.332	1	17
633.671	1	2
634.010	1	0
634.349	1	9
634.689	1	9
635.028	1	11
635.367	1	5
635.706	1	10
636.045	1	17
636.384	1	9
636.724	1	3
637.063	1	8
637.402	1	12
637.741	1	13
638.080	1	6
638.419	1	-2
638.759	1	3
639.098	1	16
639.437	1	13
639.776	1	12
640.115	1	9
640.454	1	1
640.793	1	14
641.132	1	15
641.472	1	12
641.811	1	6
642.150	1	0
642.489	1	10
642.828	1	8
643.167	1	-4
643.506	1	0
643.845	1	-1
644.184	1	12
644.524	1	6
644.863	1	-3
645.202	1	10
645.541	1	10
645.880	1	10
646.219	1	9
646.558	1	3
646.897	1	17
647.236	1	3
647.575	1	4
647.914	1	11
648.253	1	15
648.592	1	2
648.931	1	11
649.270	1	1
649.610	1	7
649.949	1	4
650.288	1	12
650.627	1	3
650.966	1	10
651.305	1	7
651.644	1	10
651.983	1	9
652.322	1	3
652.661	1	9
653.000	1	5
653.339	1	17
653.678	1	4
654.017	1	0
654.356	1	11
654.695	1	24
655.034	1	-1
655.373	1	24
655.712	1	1
656.051	1	8
656.390	1	-4
656.729	1	16
657.068	1	-1
657.406	1	12
657.745	1	4
658.084	1	10
658.423	1	16
658.762	1	-3
659.101	1	16
659.440	1	7
659.779	1	7
660.118	1	2
660.457	1	10
660.796	1	1
661.135	1	-2
661.474	1	9
661.813	1	24
662.152	1	12
662.491	1	3
662.829	1	-1
663.168	1	12
663.507	1	7
663.846	1	2
664.185	1	4
664.524	1	5
664.863	1	-6
665.202	1	10
665.541	1	-9
665.879	1	4
666.218	1	3
666.557	1	4
666.896	1	-4
667.235	1	11
667.574	1	-3
667.913	1	3
668.251	1	6
668.590	1	7
668.929	1	-7
669.268	1	9
669.607	1	5
669.946	1	11
670.285	1	13
670.623	1	9
670.962	1	1
671.301	1	6
671.640	1	7
671.979	1	-3
672.317	1	4
672.656	1	-5
672.995	1	17
673.334	1	-1
673.673	1	9
674.011	1	8
674.350	1	5
674.689	1	1
675.028	1	5
675.367	1	7
675.705	1	15
676.044	1	3
676.383	1	1
676.722	1	12
677.060	1	2
677.399	1	5
677.738	1	9
678.077	1	14
678.416	1	14
678.754	1	0
679.093	1	17
679.432	1	4
679.771	1	1
680.109	1	13
680.448	1	7
680.787	1	4
681.125	1	11
681.464	1	2
681.803	1	6
682.142	1	12
682.480	1	17
682.819	1	13
683.158	1	-4
683.496	1	8
683.835	1	12
684.174	1	2
684.512	1	10
684.851	1	3
685.190	1	1
685.529	1	4
685.867	1	0
686.206	1	2
686.545	1	5
686.883	1	3
687.222	1	8
687.561	1	12
687.899	1	9
688.238	1	13
688.577	1	5
688.746	1	2