File: Data/GaN_200K_800ms/GaN_sample F_spot 12_UVVIS_200 K_200um_800 ms 2x2mm1_157.txt
340.368	1	4
340.710	1	3
341.052	1	6
341.394	1	-9
341.737	1	12
342.079	1	1
342.421	1	-3
342.763	1	8
343.105	1	7
343.447	1	-8
343.789	1	6
344.131	1	-9
344.473	1	-7
344.815	1	-5
345.157	1	-8
345.499	1	1
345.841	1	11
346.183	1	-7
346.526	1	-4
346.868	1	-1
347.210	1	-3
347.552	1	-5
347.894	1	2
348.236	1	4
348.578	1	-5
348.920	1	-2
349.262	1	-4
349.604	1	-1
349.946	1	-3
350.288	1	13
350.630	1	3
350.972	1	10
351.314	1	0
351.656	1	3
351.998	1	3
352.340	1	6
352.682	1	3
353.024	1	6
353.366	1	8
353.708	1	12
354.050	1	8
354.392	1	-1
354.734	1	4
355.076	1	6
355.418	1	-5
355.760	1	-2
356.102	1	20
356.444	1	8
356.785	1	15
357.127	1	11
357.469	1	9
357.811	1	0
358.153	1	7
358.495	1	8
358.837	1	-3
359.179	1	12
359.521	1	14
359.863	1	5
360.205	1	15
360.547	1	12
360.889	1	2
361.231	1	6
361.572	1	16
361.914	1	15
362.256	1	18
362.598	1	6
362.940	1	16
363.282	1	16
363.624	1	21
363.966	1	21
364.308	1	13
364.649	1	25
364.991	1	26
365.333	1	27
365.675	1	24
366.017	1	37
366.359	1	28
366.701	1	30
367.042	1	36
367.384	1	46
367.726	1	45
368.068	1	56
368.410	1	49
368.752	1	39
369.093	1	41
369.435	1	51
369.777	1	37
370.119	1	44
370.461	1	64
370.803	1	55
371.144	1	40
371.486	1	49
371.828	1	46
372.170	1	39
372.512	1	39
372.853	1	36
373.195	1	30
373.537	1	39
373.879	1	26
374.220	1	45
374.562	1	45
374.904	1	27
375.246	1	23
375.588	1	25
375.929	1	40
376.271	1	35
376.613	1	22
376.955	1	17
377.296	1	16
377.638	1	21
377.980	1	21
378.321	1	17
378.663	1	23
379.005	1	31
379.347	1	19
379.688	1	12
380.030	1	16
380.372	1	12
380.714	1	19
381.055	1	15
381.397	1	16
381.739	1	15
382.080	1	24
382.422	1	12
382.764	1	12
383.105	1	5
383.447	1	3
383.789	1	10
384.130	1	9
384.472	1	3
384.814	1	11
385.156	1	2
385.497	1	15
385.839	1	0
386.180	1	10
386.522	1	16
386.864	1	8
387.205	1	6
387.547	1	9
387.889	1	12
388.230	1	13
388.572	1	-2
388.914	1	8
389.255	1	2
389.597	1	14
389.939	1	6
390.280	1	7
390.622	1	7
390.963	1	11
391.305	1	12
391.647	1	6
391.988	1	8
392.330	1	9
392.671	1	0
393.013	1	-1
393.355	1	18
393.696	1	1
394.038	1	9
394.379	1	0
394.721	1	-2
395.062	1	7
395.404	1	11
395.746	1	6
396.087	1	0
396.429	1	5
396.770	1	-5
397.112	1	13
397.453	1	17
397.795	1	-2
398.136	1	-9
398.478	1	7
398.819	1	6
399.161	1	7
399.503	1	3
399.844	1	4
400.186	1	0
400.527	1	1
400.869	1	6
401.210	1	5
401.552	1	-9
401.893	1	-4
402.235	1	-1
402.576	1	8
402.918	1	15
403.259	1	0
403.601	1	6
403.942	1	16
404.284	1	18
404.625	1	0
404.967	1	-1
405.308	1	4
405.649	1	-2
405.991	1	8
406.332	1	6
406.674	1	-8
407.015	1	8
407.357	1	5
407.698	1	14
408.040	1	-2
408.381	1	5
408.722	1	-12
409.064	1	1
409.405	1	14
409.747	1	-2
410.088	1	-3
410.430	1	2
410.771	1	-1
411.112	1	4
411.454	1	0
411.795	1	1
412.137	1	4
412.478	1	18
412.819	1	-5
413.161	1	-1
413.502	1	-3
413.844	1	5
414.185	1	5
414.526	1	0
414.868	1	3
415.209	1	1
415.550	1	-5
415.892	1	4
416.233	1	6
416.575	1	6
416.916	1	-2
417.257	1	6
417.599	1	3
417.940	1	15
418.281	1	-3
418.623	1	-2
418.964	1	-6
419.305	1	-5
419.647	1	-10
419.988	1	3
420.329	1	0
420.671	1	11
421.012	1	1
421.353	1	-1
421.695	1	1
422.036	1	3
422.377	1	-7
422.718	1	6
423.060	1	5
423.401	1	-2
423.742	1	3
424.084	1	-2
424.425	1	5
424.766	1	7
425.107	1	4
425.449	1	5
425.790	1	-11
426.131	1	2
426.472	1	7
426.814	1	3
427.155	1	-8
427.496	1	-2
427.837	1	-1
428.179	1	-7
428.520	1	2
428.861	1	-4
429.202	1	-2
429.544	1	-3
429.885	1	0
430.226	1	-8
430.567	1	1
430.909	1	5
431.250	1	7
431.591	1	11
431.932	1	-4
432.273	1	2
432.615	1	-9
432.956	1	0
433.297	1	4
433.638	1	1
433.979	1	3
434.320	1	7
434.662	1	-1
435.003	1	2
435.344	1	1
435.685	1	-5
436.026	1	14
436.368	1	1
436.709	1	6
437.050	1	2
437.391	1	4
437.732	1	-4
438.073	1	4
438.414	1	-3
438.756	1	-7
439.097	1	-4
439.438	1	-4
439.779	1	4
440.120	1	-1
440.461	1	-3
440.802	1	-2
441.143	1	5
441.485	1	-1
441.826	1	2
442.167	1	4
442.508	1	-15
442.849	1	7
443.190	1	6
443.531	1	12
443.872	1	3
444.213	1	-9
444.554	1	9
444.895	1	11
445.237	1	0
445.578	1	1
445.919	1	-10
446.260	1	-3
446.601	1	-5
446.942	1	3
447.283	1	3
447.624	1	2
447.965	1	3
448.306	1	1
448.647	1	-2
448.988	1	-7
449.329	1	2
449.670	1	9
450.011	1	6
450.352	1	-4
450.693	1	-7
451.034	1	-1
451.375	1	-5
451.716	1	6
452.057	1	7
452.398	1	0
452.739	1	0
453.080	1	3
453.421	1	2
453.762	1	4
454.103	1	-3
454.444	1	-6
454.785	1	3
455.126	1	-2
455.467	1	-3
455.808	1	4
456.149	1	-1
456.490	1	0
456.831	1	-1
457.172	1	3
457.513	1	8
457.854	1	3
458.195	1	-2
458.536	1	6
458.877	1	1
459.218	1	2
459.559	1	4
459.899	1	4
460.240	1	2
460.581	1	10
460.922	1	0
461.263	1	0
461.604	1	4
461.945	1	-2
462.286	1	-1
462.627	1	11
462.968	1	4
463.309	1	-7
463.649	1	-2
463.990	1	-9
464.331	1	-1
464.672	1	-1
465.013	1	0
465.354	1	-1
465.695	1	0
466.036	1	-5
466.376	1	7
466.717	1	-2
467.058	1	3
467.399	1	5
467.740	1	7
468.081	1	7
468.422	1	-6
468.762	1	-4
469.103	1	-3
469.444	1	-6
469.785	1	-8
470.126	1	-8
470.467	1	-1
470.807	1	6
471.148	1	4
471.489	1	-2
471.830	1	0
472.171	1	2
472.511	1	-11
472.852	1	0
473.193	1	5
473.534	1	9
473.875	1	17
474.215	1	8
474.556	1	0
474.897	1	0
475.238	1	0
475.578	1	-4
475.919	1	-1
476.260	1	4
476.601	1	0
476.942	1	15
477.282	1	1
477.623	1	-5
477.964	1	8
478.305	1	-5
478.645	1	8
478.986	1	-4
479.327	1	-3
479.667	1	0
480.008	1	-4
480.349	1	0
480.690	1	5
481.030	1	-1
481.371	1	7
481.712	1	6
482.053	1	1
482.393	1	-3
482.734	1	-5
483.075	1	2
483.415	1	5
483.756	1	15
484.097	1	1
484.437	1	0
484.778	1	4
485.119	1	0
485.459	1	20
485.800	1	4
486.141	1	-3
486.481	1	-8
486.822	1	4
487.163	1	-1
487.503	1	-3
487.844	1	-8
488.185	1	8
488.525	1	-1
488.866	1	2
489.207	1	3
489.547	1	0
489.888	1	-6
490.228	1	9
490.569	1	10
490.910	1	0
491.250	1	-4
491.591	1	4
491.932	1	6
492.272	1	3
492.613	1	4
492.953	1	-2
493.294	1	-4
493.635	1	2
493.975	1	2
494.316	1	10
494.656	1	13
494.997	1	-6
495.337	1	12
495.678	1	11
496.019	1	-2
496.359	1	-5
496.700	1	6
497.040	1	-5
497.381	1	3
497.721	1	4
498.062	1	6
498.403	1	9
498.743	1	-4
499.084	1	2
499.424	1	-5
499.765	1	6
500.105	1	-4
500.446	1	-11
500.786	1	-3
501.127	1	7
501.467	1	1
501.808	1	3
502.148	1	6
502.489	1	3
502.829	1	-2
503.170	1	1
503.510	1	-2
503.851	1	2
504.191	1	3
504.532	1	10
504.872	1	1
505.213	1	9
505.553	1	-4
505.894	1	0
506.234	1	9
506.575	1	12
506.915	1	7
507.256	1	8
507.596	1	7
507.936	1	-2
508.277	1	1
508.617	1	-4
508.958	1	2
509.298	1	4
509.639	1	-5
509.979	1	2
510.319	1	8
510.660	1	11
511.000	1	-4
511.341	1	6
511.681	1	7
512.022	1	-4
512.362	1	-7
512.702	1	-1
513.043	1	7
513.383	1	-3
513.724	1	15
514.064	1	9
514.404	1	0
514.745	1	0
515.085	1	5
515.425	1	1
515.766	1	-1
516.106	1	9
516.447	1	11
516.787	1	8
517.127	1	4
517.468	1	-7
517.808	1	-1
518.148	1	5
518.489	1	-2
518.829	1	8
519.169	1	0
519.510	1	-3
519.850	1	3
520.190	1	-2
520.531	1	5
520.871	1	0
521.211	1	-1
521.552	1	8
521.892	1	10
522.232	1	7
522.573	1	-2
522.913	1	4
523.253	1	3
523.593	1	3
523.934	1	5
524.274	1	3
524.614	1	8
524.955	1	2
525.295	1	8
525.635	1	6
525.975	1	11
526.316	1	14
526.656	1	2
526.996	1	7
527.337	1	3
527.677	1	11
528.017	1	-11
528.357	1	2
528.698	1	5
529.038	1	1
529.378	1	9
529.718	1	5
530.058	1	4
530.399	1	4
530.739	1	5
531.079	1	16
531.419	1	9
531.760	1	12
532.100	1	-3
532.440	1	5
532.780	1	1
533.120	1	9
533.461	1	10
533.801	1	14
534.141	1	-16
534.481	1	-3
534.821	1	6
535.162	1	15
535.502	1	1
535.842	1	4
536.182	1	-4
536.522	1	3
536.862	1	10
537.203	1	10
537.543	1	6
537.883	1	1
538.223	1	3
538.563	1	17
538.903	1	-6
539.243	1	-6
539.584	1	-1
539.924	1	7
540.264	1	0
540.604	1	0
540.944	1	0
541.284	1	10
541.624	1	11
541.964	1	13
542.305	1	8
542.645	1	1
542.985	1	6
543.325	1	2
543.665	1	12
544.005	1	8
544.345	1	7
544.685	1	3
545.025	1	2
545.365	1	-1
545.705	1	0
546.045	1	-3
546.386	1	11
546.726	1	4
547.066	1	8
547.406	1	3
547.746	1	-5
548.086	1	2
548.426	1	6
548.766	1	7
549.106	1	5
549.446	1	7
549.786	1	-2
550.126	1	12
550.466	1	7
550.806	1	3
551.146	1	-2
551.486	1	6
551.826	1	5
552.166	1	3
552.506	1	17
552.846	1	15
553.186	1	20
553.526	1	1
553.866	1	7
554.206	1	6
554.546	1	2
554.886	1	15
555.226	1	-4
555.566	1	8
555.906	1	5
556.246	1	4
556.586	1	0
556.926	1	7
557.266	1	5
557.606	1	5
557.946	1	14
558.286	1	5
558.626	1	9
558.966	1	11
559.306	1	2
559.646	1	2
559.986	1	0
560.325	1	6
560.665	1	2
561.005	1	5
561.345	1	9
561.685	1	3
562.025	1	7
562.365	1	18
562.705	1	-2
563.045	1	-2
563.385	1	-6
563.725	1	6
564.064	1	0
564.404	1	11
564.744	1	0
565.084	1	2
565.424	1	16
565.764	1	-1
566.104	1	16
566.444	1	-4
566.783	1	3
567.123	1	9
567.463	1	8
567.803	1	-5
568.143	1	-7
568.483	1	1
568.823	1	9
569.162	1	12
569.502	1	-2
569.842	1	16
570.182	1	12
570.522	1	-7
570.862	1	-2
571.201	1	13
571.541	1	0
571.881	1	10
572.221	1	-1
572.561	1	5
572.900	1	-4
573.240	1	9
573.580	1	7
573.920	1	10
574.260	1	14
574.599	1	-2
574.939	1	15
575.279	1	8
575.619	1	6
575.959	1	0
576.298	1	10
576.638	1	3
576.978	1	10
577.318	1	2
577.657	1	1
577.997	1	4
578.337	1	10
578.677	1	6
579.016	1	5
579.356	1	-10
579.696	1	2
580.036	1	1
580.375	1	1
580.715	1	2
581.055	1	3
581.394	1	9
581.734	1	-2
582.074	1	2
582.414	1	3
582.753	1	2
583.093	1	4
583.433	1	10
583.772	1	4
584.112	1	-3
584.452	1	9
584.791	1	0
585.131	1	14
585.471	1	13
585.811	1	9
586.150	1	-3
586.490	1	3
586.830	1	7
587.169	1	13
587.509	1	4
587.849	1	6
588.188	1	7
588.528	1	13
588.867	1	14
589.207	1	7
589.547	1	8
589.886	1	-5
590.226	1	6
590.566	1	1
590.905	1	9
591.245	1	2
591.585	1	9
591.924	1	7
592.264	1	3
592.603	1	10
592.943	1	7
593.283	1	6
593.622	1	4
593.962	1	10
594.301	1	0
594.641	1	0
594.981	1	0
595.320	1	9
595.660	1	6
595.999	1	-6
596.339	1	4
596.678	1	1
597.018	1	7
597.358	1	6
597.697	1	2
598.037	1	4
598.376	1	3
598.716	1	11
599.055	1	5
599.395	1	5
599.734	1	10
600.074	1	-2
600.413	1	14
600.753	1	6
601.092	1	19
601.432	1	-1
601.771	1	1
602.111	1	12
602.451	1	9
602.790	1	11
603.130	1	10
603.469	1	-5
603.809	1	-2
604.148	1	8
604.487	1	-3
604.827	1	6
605.166	1	2
605.506	1	11
605.845	1	4
606.185	1	5
606.524	1	5
606.864	1	1
607.203	1	0
607.543	1	14
607.882	1	14
608.222	1	6
608.561	1	9
608.901	1	14
609.240	1	2
609.579	1	11
609.919	1	8
610.258	1	18
610.598	1	4
610.937	1	2
611.277	1	-1
611.616	1	6
611.955	1	0
612.295	1	1
612.634	1	13
612.974	1	-13
613.313	1	18
613.652	1	2
613.992	1	3
614.331	1	10
614.671	1	5
615.010	1	-8
615.349	1	3
615.689	1	18
616.028	1	-7
616.368	1	11
616.707	1	1
617.046	1	8
617.386	1	1
617.725	1	-2
618.064	1	-1
618.404	1	13
618.743	1	-3
619.082	1	3
619.422	1	-7
619.761	1	13
620.100	1	6
620.440	1	9
620.779	1	-5
621.118	1	-1
621.458	1	3
621.797	1	-2
622.136	1	7
622.476	1	6
622.815	1	8
623.154	1	10
623.494	1	19
623.833	1	7
624.172	1	4
624.511	1	7
624.851	1	3
625.190	1	-2
625.529	1	-1
625.869	1	1
626.208	1	0
626.547	1	4
626.886	1	4
627.226	1	8
627.565	1	-5
627.904	1	-5
628.243	1	14
628.583	1	-1
628.922	1	7
629.261	1	9
629.600	1	8
629.940	1	8
630.279	1	2
630.618	1	8
630.957	1	4
631.297	1	11
631.636	1	1
631.975	1	9
632.314	1	3
632.653	1	0
632.993	1	-1
633.332	1	7
633.671	1	5
634.010	1	1
634.349	1	10
634.689	1	4
635.028	1	16
635.367	1	-6
635.706	1	7
636.045	1	15
636.384	1	2
636.724	1	5
637.063	1	11
637.402	1	10
637.741	1	12
638.080	1	3
638.419	1	1
638.759	1	-7
639.098	1	12
639.437	1	3
639.776	1	6
640.115	1	2
640.454	1	-1
640.793	1	11
641.132	1	9
641.472	1	13
641.811	1	-7
642.150	1	-8
642.489	1	7
642.828	1	-2
643.167	1	-6
643.506	1	-9
643.845	1	-2
644.184	1	5
644.524	1	1
644.863	1	-8
645.202	1	5
645.541	1	8
645.880	1	4
646.219	1	12
646.558	1	7
646.897	1	8
647.236	1	2
647.575	1	7
647.914	1	1
648.253	1	13
648.592	1	4
648.931	1	14
649.270	1	3
649.610	1	7
649.949	1	1
650.288	1	0
650.627	1	4
650.966	1	13
651.305	1	6
651.644	1	10
651.983	1	1
652.322	1	-1
652.661	1	0
653.000	1	5
653.339	1	3
653.678	1	-2
654.017	1	-2
654.356	1	-3
654.695	1	12
655.034	1	-5
655.373	1	8
655.712	1	9
656.051	1	3
656.390	1	2
656.729	1	9
657.068	1	2
657.406	1	7
657.745	1	-7
658.084	1	2
658.423	1	14
658.762	1	-2
659.101	1	4
659.440	1	-6
659.779	1	5
660.118	1	6
660.457	1	4
660.796	1	-17
661.135	1	3
661.474	1	2
661.813	1	17
662.152	1	-2
662.491	1	-5
662.829	1	-4
663.168	1	13
663.507	1	9
663.846	1	-12
664.185	1	0
664.524	1	0
664.863	1	-1
665.202	1	3
665.541	1	-10
665.879	1	-7
666.218	1	-6
666.557	1	-7
666.896	1	-7
667.235	1	5
667.574	1	-3
667.913	1	5
668.251	1	-15
668.590	1	4
668.929	1	-11
669.268	1	3
669.607	1	4
669.946	1	1
670.285	1	9
670.623	1	2
670.962	1	1
671.301	1	-5
671.640	1	5
671.979	1	-1
672.317	1	8
672.656	1	6
672.995	1	8
673.334	1	12
673.673	1	1
674.011	1	6
674.350	1	3
674.689	1	3
675.028	1	-5
675.367	1	4
675.705	1	8
676.044	1	4
676.383	1	1
676.722	1	6
677.060	1	-1
677.399	1	-3
677.738	1	-2
678.077	1	7
678.416	1	5
678.754	1	4
679.093	1	4
679.432	1	-6
679.771	1	6
680.109	1	13
680.448	1	3
680.787	1	2
681.125	1	10
681.464	1	1
681.803	1	-1
682.142	1	6
682.480	1	14
682.819	1	4
683.158	1	-5
683.496	1	1
683.835	1	6
684.174	1	-3
684.512	1	7
684.851	1	5
685.190	1	-3
685.529	1	8
685.867	1	-1
686.206	1	-16
686.545	1	-2
686.883	1	0
687.222	1	5
687.561	1	1
687.899	1	2
688.238	1	4
688.577	1	0
688.746	1	2