File: Data/GaN_200K_800ms/GaN_sample F_spot 12_UVVIS_200 K_200um_800 ms 2x2mm1_369.txt
340.368	1	6
340.710	1	-13
341.052	1	2
341.394	1	0
341.737	1	10
342.079	1	2
342.421	1	-10
342.763	1	5
343.105	1	7
343.447	1	-6
343.789	1	-7
344.131	1	5
344.473	1	-6
344.815	1	0
345.157	1	-1
345.499	1	-3
345.841	1	5
346.183	1	-4
346.526	1	0
346.868	1	-3
347.210	1	-3
347.552	1	-2
347.894	1	2
348.236	1	1
348.578	1	4
348.920	1	-7
349.262	1	-7
349.604	1	6
349.946	1	-3
350.288	1	8
350.630	1	10
350.972	1	-3
351.314	1	6
351.656	1	0
351.998	1	-2
352.340	1	-4
352.682	1	5
353.024	1	5
353.366	1	12
353.708	1	-3
354.050	1	-8
354.392	1	-8
354.734	1	4
355.076	1	-3
355.418	1	-3
355.760	1	-3
356.102	1	13
356.444	1	8
356.785	1	1
357.127	1	5
357.469	1	2
357.811	1	2
358.153	1	5
358.495	1	6
358.837	1	-4
359.179	1	9
359.521	1	2
359.863	1	2
360.205	1	-1
360.547	1	0
360.889	1	-7
361.231	1	-1
361.572	1	2
361.914	1	1
362.256	1	0
362.598	1	-5
362.940	1	2
363.282	1	8
363.624	1	8
363.966	1	-6
364.308	1	6
364.649	1	13
364.991	1	1
365.333	1	2
365.675	1	-2
366.017	1	9
366.359	1	7
366.701	1	11
367.042	1	8
367.384	1	18
367.726	1	10
368.068	1	8
368.410	1	18
368.752	1	2
369.093	1	12
369.435	1	11
369.777	1	19
370.119	1	3
370.461	1	28
370.803	1	8
371.144	1	12
371.486	1	16
371.828	1	16
372.170	1	18
372.512	1	8
372.853	1	17
373.195	1	11
373.537	1	12
373.879	1	5
374.220	1	12
374.562	1	7
374.904	1	3
375.246	1	18
375.588	1	8
375.929	1	9
376.271	1	7
376.613	1	2
376.955	1	8
377.296	1	2
377.638	1	4
377.980	1	9
378.321	1	-5
378.663	1	0
379.005	1	11
379.347	1	11
379.688	1	15
380.030	1	-10
380.372	1	9
380.714	1	8
381.055	1	13
381.397	1	-8
381.739	1	2
382.080	1	2
382.422	1	7
382.764	1	-7
383.105	1	0
383.447	1	1
383.789	1	-1
384.130	1	0
384.472	1	-3
384.814	1	-2
385.156	1	-3
385.497	1	5
385.839	1	0
386.180	1	7
386.522	1	15
386.864	1	3
387.205	1	0
387.547	1	-5
387.889	1	-2
388.230	1	5
388.572	1	0
388.914	1	-6
389.255	1	3
389.597	1	4
389.939	1	-4
390.280	1	-3
390.622	1	-4
390.963	1	10
391.305	1	-1
391.647	1	5
391.988	1	12
392.330	1	2
392.671	1	4
393.013	1	-3
393.355	1	1
393.696	1	-2
394.038	1	3
394.379	1	5
394.721	1	-11
395.062	1	1
395.404	1	-1
395.746	1	15
396.087	1	-2
396.429	1	-2
396.770	1	-4
397.112	1	6
397.453	1	9
397.795	1	-2
398.136	1	-18
398.478	1	4
398.819	1	0
399.161	1	15
399.503	1	-8
399.844	1	-6
400.186	1	-4
400.527	1	-1
400.869	1	5
401.210	1	-9
401.552	1	-8
401.893	1	-4
402.235	1	2
402.576	1	-2
402.918	1	3
403.259	1	5
403.601	1	-4
403.942	1	7
404.284	1	3
404.625	1	-1
404.967	1	4
405.308	1	14
405.649	1	3
405.991	1	-5
406.332	1	6
406.674	1	-4
407.015	1	4
407.357	1	-7
407.698	1	1
408.040	1	-6
408.381	1	7
408.722	1	-12
409.064	1	2
409.405	1	3
409.747	1	-5
410.088	1	-1
410.430	1	3
410.771	1	0
411.112	1	-1
411.454	1	-5
411.795	1	-5
412.137	1	11
412.478	1	11
412.819	1	-1
413.161	1	-5
413.502	1	-1
413.844	1	-2
414.185	1	-3
414.526	1	-5
414.868	1	0
415.209	1	-6
415.550	1	-5
415.892	1	-1
416.233	1	6
416.575	1	12
416.916	1	1
417.257	1	-8
417.599	1	6
417.940	1	17
418.281	1	8
418.623	1	-2
418.964	1	-8
419.305	1	4
419.647	1	-2
419.988	1	2
420.329	1	-5
420.671	1	10
421.012	1	1
421.353	1	-1
421.695	1	0
422.036	1	-2
422.377	1	-1
422.718	1	0
423.060	1	-8
423.401	1	4
423.742	1	-5
424.084	1	0
424.425	1	10
424.766	1	-3
425.107	1	0
425.449	1	-7
425.790	1	-12
426.131	1	5
426.472	1	4
426.814	1	1
427.155	1	-6
427.496	1	1
427.837	1	-10
428.179	1	-4
428.520	1	3
428.861	1	-4
429.202	1	-2
429.544	1	-5
429.885	1	-3
430.226	1	-3
430.567	1	-2
430.909	1	-8
431.250	1	-4
431.591	1	4
431.932	1	-6
432.273	1	-10
432.615	1	-8
432.956	1	-14
433.297	1	-6
433.638	1	4
433.979	1	1
434.320	1	9
434.662	1	3
435.003	1	7
435.344	1	0
435.685	1	4
436.026	1	5
436.368	1	1
436.709	1	-5
437.050	1	-4
437.391	1	4
437.732	1	-9
438.073	1	-4
438.414	1	-7
438.756	1	1
439.097	1	2
439.438	1	2
439.779	1	1
440.120	1	-4
440.461	1	1
440.802	1	-3
441.143	1	4
441.485	1	0
441.826	1	-2
442.167	1	0
442.508	1	-3
442.849	1	11
443.190	1	1
443.531	1	2
443.872	1	10
444.213	1	5
444.554	1	13
444.895	1	-7
445.237	1	-3
445.578	1	-6
445.919	1	-10
446.260	1	-8
446.601	1	-3
446.942	1	-2
447.283	1	-2
447.624	1	4
447.965	1	-4
448.306	1	-3
448.647	1	-1
448.988	1	-7
449.329	1	-3
449.670	1	5
450.011	1	-5
450.352	1	4
450.693	1	-7
451.034	1	-4
451.375	1	-2
451.716	1	1
452.057	1	-1
452.398	1	-5
452.739	1	-2
453.080	1	-3
453.421	1	1
453.762	1	4
454.103	1	-1
454.444	1	-13
454.785	1	-1
455.126	1	-3
455.467	1	-7
455.808	1	1
456.149	1	5
456.490	1	-6
456.831	1	2
457.172	1	-1
457.513	1	3
457.854	1	5
458.195	1	-4
458.536	1	1
458.877	1	2
459.218	1	1
459.559	1	9
459.899	1	-4
460.240	1	-5
460.581	1	15
460.922	1	-4
461.263	1	-1
461.604	1	-3
461.945	1	4
462.286	1	0
462.627	1	11
462.968	1	0
463.309	1	-6
463.649	1	-3
463.990	1	2
464.331	1	-5
464.672	1	-2
465.013	1	-2
465.354	1	-3
465.695	1	-1
466.036	1	-4
466.376	1	-13
466.717	1	1
467.058	1	-1
467.399	1	11
467.740	1	-1
468.081	1	-2
468.422	1	-2
468.762	1	-5
469.103	1	-8
469.444	1	-6
469.785	1	-6
470.126	1	-2
470.467	1	-3
470.807	1	-6
471.148	1	1
471.489	1	-3
471.830	1	-4
472.171	1	4
472.511	1	2
472.852	1	5
473.193	1	0
473.534	1	6
473.875	1	8
474.215	1	10
474.556	1	-1
474.897	1	1
475.238	1	-2
475.578	1	0
475.919	1	-4
476.260	1	-3
476.601	1	-12
476.942	1	6
477.282	1	-3
477.623	1	-11
477.964	1	4
478.305	1	4
478.645	1	4
478.986	1	1
479.327	1	-4
479.667	1	-6
480.008	1	0
480.349	1	-9
480.690	1	5
481.030	1	-11
481.371	1	2
481.712	1	7
482.053	1	-2
482.393	1	-3
482.734	1	-4
483.075	1	-9
483.415	1	0
483.756	1	8
484.097	1	-8
484.437	1	0
484.778	1	-7
485.119	1	-7
485.459	1	11
485.800	1	0
486.141	1	-1
486.481	1	-4
486.822	1	-1
487.163	1	2
487.503	1	-4
487.844	1	-6
488.185	1	5
488.525	1	-17
488.866	1	4
489.207	1	-6
489.547	1	-7
489.888	1	-7
490.228	1	4
490.569	1	14
490.910	1	0
491.250	1	-7
491.591	1	-4
491.932	1	-3
492.272	1	6
492.613	1	-5
492.953	1	3
493.294	1	-2
493.635	1	-7
493.975	1	1
494.316	1	8
494.656	1	-7
494.997	1	-3
495.337	1	7
495.678	1	-6
496.019	1	-4
496.359	1	-6
496.700	1	3
497.040	1	0
497.381	1	-1
497.721	1	-5
498.062	1	5
498.403	1	-2
498.743	1	-3
499.084	1	-1
499.424	1	1
499.765	1	0
500.105	1	2
500.446	1	-4
500.786	1	-9
501.127	1	0
501.467	1	-7
501.808	1	0
502.148	1	6
502.489	1	4
502.829	1	-1
503.170	1	5
503.510	1	12
503.851	1	-10
504.191	1	4
504.532	1	3
504.872	1	2
505.213	1	4
505.553	1	-10
505.894	1	-5
506.234	1	5
506.575	1	1
506.915	1	-6
507.256	1	3
507.596	1	5
507.936	1	-1
508.277	1	-1
508.617	1	3
508.958	1	-6
509.298	1	4
509.639	1	-3
509.979	1	-1
510.319	1	6
510.660	1	-9
511.000	1	1
511.341	1	0
511.681	1	9
512.022	1	-4
512.362	1	-8
512.702	1	1
513.043	1	3
513.383	1	-13
513.724	1	3
514.064	1	9
514.404	1	-7
514.745	1	1
515.085	1	0
515.425	1	-1
515.766	1	-11
516.106	1	1
516.447	1	11
516.787	1	2
517.127	1	0
517.468	1	-5
517.808	1	-4
518.148	1	1
518.489	1	0
518.829	1	5
519.169	1	-2
519.510	1	4
519.850	1	-2
520.190	1	-4
520.531	1	2
520.871	1	-4
521.211	1	-6
521.552	1	4
521.892	1	-1
522.232	1	-1
522.573	1	0
522.913	1	3
523.253	1	-5
523.593	1	-1
523.934	1	0
524.274	1	-8
524.614	1	-5
524.955	1	-4
525.295	1	-4
525.635	1	-3
525.975	1	-2
526.316	1	3
526.656	1	-6
526.996	1	4
527.337	1	-1
527.677	1	4
528.017	1	-1
528.357	1	-1
528.698	1	2
529.038	1	-5
529.378	1	15
529.718	1	1
530.058	1	-5
530.399	1	9
530.739	1	0
531.079	1	-2
531.419	1	-1
531.760	1	5
532.100	1	-2
532.440	1	0
532.780	1	-5
533.120	1	11
533.461	1	-1
533.801	1	10
534.141	1	-15
534.481	1	-5
534.821	1	-2
535.162	1	-5
535.502	1	-7
535.842	1	8
536.182	1	3
536.522	1	-4
536.862	1	3
537.203	1	-7
537.543	1	-6
537.883	1	-7
538.223	1	0
538.563	1	7
538.903	1	-4
539.243	1	0
539.584	1	-1
539.924	1	15
540.264	1	1
540.604	1	-4
540.944	1	-3
541.284	1	4
541.624	1	4
541.964	1	2
542.305	1	8
542.645	1	-7
542.985	1	5
543.325	1	-1
543.665	1	11
544.005	1	8
544.345	1	2
544.685	1	-3
545.025	1	7
545.365	1	-5
545.705	1	5
546.045	1	-5
546.386	1	4
546.726	1	-8
547.066	1	7
547.406	1	-2
547.746	1	-12
548.086	1	-7
548.426	1	-5
548.766	1	0
549.106	1	-5
549.446	1	2
549.786	1	-4
550.126	1	19
550.466	1	4
550.806	1	-3
551.146	1	-3
551.486	1	-5
551.826	1	5
552.166	1	-7
552.506	1	8
552.846	1	-7
553.186	1	7
553.526	1	-14
553.866	1	-2
554.206	1	15
554.546	1	2
554.886	1	-1
555.226	1	-9
555.566	1	0
555.906	1	1
556.246	1	4
556.586	1	0
556.926	1	1
557.266	1	-4
557.606	1	3
557.946	1	12
558.286	1	2
558.626	1	7
558.966	1	-3
559.306	1	-10
559.646	1	-3
559.986	1	0
560.325	1	-7
560.665	1	-4
561.005	1	-4
561.345	1	1
561.685	1	0
562.025	1	-6
562.365	1	3
562.705	1	-6
563.045	1	-2
563.385	1	-8
563.725	1	-2
564.064	1	4
564.404	1	9
564.744	1	7
565.084	1	1
565.424	1	2
565.764	1	0
566.104	1	1
566.444	1	-2
566.783	1	-6
567.123	1	7
567.463	1	7
567.803	1	-8
568.143	1	-3
568.483	1	-2
568.823	1	0
569.162	1	3
569.502	1	1
569.842	1	0
570.182	1	-3
570.522	1	-1
570.862	1	-1
571.201	1	2
571.541	1	9
571.881	1	10
572.221	1	-10
572.561	1	-3
572.900	1	-6
573.240	1	-3
573.580	1	5
573.920	1	3
574.260	1	9
574.599	1	-3
574.939	1	8
575.279	1	9
575.619	1	0
575.959	1	-10
576.298	1	13
576.638	1	1
576.978	1	5
577.318	1	9
577.657	1	-1
577.997	1	-5
578.337	1	15
578.677	1	3
579.016	1	7
579.356	1	-5
579.696	1	3
580.036	1	-4
580.375	1	5
580.715	1	-4
581.055	1	0
581.394	1	-4
581.734	1	-3
582.074	1	-1
582.414	1	4
582.753	1	-1
583.093	1	-4
583.433	1	-3
583.772	1	4
584.112	1	-2
584.452	1	-9
584.791	1	0
585.131	1	7
585.471	1	7
585.811	1	5
586.150	1	0
586.490	1	4
586.830	1	2
587.169	1	5
587.509	1	1
587.849	1	5
588.188	1	6
588.528	1	1
588.867	1	3
589.207	1	4
589.547	1	-2
589.886	1	1
590.226	1	-1
590.566	1	4
590.905	1	3
591.245	1	-14
591.585	1	9
591.924	1	-2
592.264	1	4
592.603	1	-1
592.943	1	-2
593.283	1	10
593.622	1	-3
593.962	1	6
594.301	1	0
594.641	1	-4
594.981	1	-9
595.320	1	-9
595.660	1	3
595.999	1	-2
596.339	1	6
596.678	1	-6
597.018	1	-3
597.358	1	7
597.697	1	5
598.037	1	-5
598.376	1	-3
598.716	1	2
599.055	1	2
599.395	1	-5
599.734	1	3
600.074	1	-4
600.413	1	9
600.753	1	2
601.092	1	6
601.432	1	-10
601.771	1	4
602.111	1	-1
602.451	1	1
602.790	1	3
603.130	1	4
603.469	1	-11
603.809	1	10
604.148	1	1
604.487	1	-1
604.827	1	5
605.166	1	4
605.506	1	-4
605.845	1	0
606.185	1	-1
606.524	1	-1
606.864	1	-4
607.203	1	-4
607.543	1	-2
607.882	1	-4
608.222	1	5
608.561	1	-4
608.901	1	1
609.240	1	-2
609.579	1	2
609.919	1	5
610.258	1	5
610.598	1	-7
610.937	1	-1
611.277	1	-2
611.616	1	5
611.955	1	-1
612.295	1	-5
612.634	1	-5
612.974	1	-9
613.313	1	11
613.652	1	4
613.992	1	-1
614.331	1	-10
614.671	1	3
615.010	1	-10
615.349	1	7
615.689	1	7
616.028	1	3
616.368	1	5
616.707	1	-1
617.046	1	-2
617.386	1	1
617.725	1	2
618.064	1	-3
618.404	1	6
618.743	1	5
619.082	1	-4
619.422	1	-12
619.761	1	0
620.100	1	4
620.440	1	1
620.779	1	-10
621.118	1	-4
621.458	1	-1
621.797	1	-5
622.136	1	8
622.476	1	1
622.815	1	-3
623.154	1	4
623.494	1	11
623.833	1	11
624.172	1	6
624.511	1	-8
624.851	1	-8
625.190	1	4
625.529	1	-1
625.869	1	13
626.208	1	-4
626.547	1	-4
626.886	1	1
627.226	1	5
627.565	1	-2
627.904	1	-4
628.243	1	9
628.583	1	5
628.922	1	2
629.261	1	8
629.600	1	18
629.940	1	-1
630.279	1	-11
630.618	1	1
630.957	1	3
631.297	1	-3
631.636	1	-9
631.975	1	10
632.314	1	-7
632.653	1	-8
632.993	1	-3
633.332	1	3
633.671	1	2
634.010	1	-10
634.349	1	8
634.689	1	-5
635.028	1	-1
635.367	1	1
635.706	1	9
636.045	1	10
636.384	1	-7
636.724	1	-4
637.063	1	-7
637.402	1	0
637.741	1	-2
638.080	1	0
638.419	1	-4
638.759	1	-2
639.098	1	0
639.437	1	6
639.776	1	-7
640.115	1	5
640.454	1	-2
640.793	1	4
641.132	1	0
641.472	1	-3
641.811	1	2
642.150	1	-9
642.489	1	-1
642.828	1	-10
643.167	1	3
643.506	1	-18
643.845	1	-2
644.184	1	3
644.524	1	-3
644.863	1	-7
645.202	1	1
645.541	1	7
645.880	1	8
646.219	1	1
646.558	1	-2
646.897	1	3
647.236	1	-5
647.575	1	0
647.914	1	-8
648.253	1	6
648.592	1	-8
648.931	1	12
649.270	1	-3
649.610	1	6
649.949	1	0
650.288	1	-2
650.627	1	8
650.966	1	-4
651.305	1	-6
651.644	1	9
651.983	1	6
652.322	1	1
652.661	1	-7
653.000	1	0
653.339	1	6
653.678	1	3
654.017	1	2
654.356	1	-5
654.695	1	3
655.034	1	-3
655.373	1	1
655.712	1	1
656.051	1	-2
656.390	1	-5
656.729	1	3
657.068	1	8
657.406	1	5
657.745	1	-4
658.084	1	1
658.423	1	5
658.762	1	-1
659.101	1	10
659.440	1	-1
659.779	1	7
660.118	1	6
660.457	1	3
660.796	1	-8
661.135	1	-9
661.474	1	-2
661.813	1	8
662.152	1	2
662.491	1	-6
662.829	1	-14
663.168	1	-1
663.507	1	5
663.846	1	-3
664.185	1	9
664.524	1	-3
664.863	1	-5
665.202	1	6
665.541	1	-17
665.879	1	-9
666.218	1	1
666.557	1	-3
666.896	1	-2
667.235	1	5
667.574	1	-1
667.913	1	-2
668.251	1	-6
668.590	1	2
668.929	1	-5
669.268	1	-3
669.607	1	-4
669.946	1	0
670.285	1	7
670.623	1	2
670.962	1	0
671.301	1	-3
671.640	1	-2
671.979	1	-5
672.317	1	9
672.656	1	-11
672.995	1	-3
673.334	1	-15
673.673	1	-5
674.011	1	0
674.350	1	-3
674.689	1	-9
675.028	1	0
675.367	1	8
675.705	1	2
676.044	1	4
676.383	1	-1
676.722	1	-3
677.060	1	-6
677.399	1	-9
677.738	1	1
678.077	1	12
678.416	1	-3
678.754	1	-9
679.093	1	1
679.432	1	-3
679.771	1	-2
680.109	1	8
680.448	1	2
680.787	1	-6
681.125	1	2
681.464	1	-3
681.803	1	-4
682.142	1	11
682.480	1	9
682.819	1	4
683.158	1	0
683.496	1	-9
683.835	1	0
684.174	1	-5
684.512	1	8
684.851	1	6
685.190	1	-1
685.529	1	3
685.867	1	-10
686.206	1	3
686.545	1	-5
686.883	1	1
687.222	1	3
687.561	1	3
687.899	1	-1
688.238	1	1
688.577	1	8
688.746	1	0