File: Data/GaN_200K_800ms/GaN_sample F_spot 12_UVVIS_200 K_200um_800 ms 2x2mm1_226.txt
340.368	1	4
340.710	1	-11
341.052	1	9
341.394	1	5
341.737	1	5
342.079	1	-1
342.421	1	5
342.763	1	-2
343.105	1	2
343.447	1	-8
343.789	1	0
344.131	1	-3
344.473	1	0
344.815	1	-7
345.157	1	-3
345.499	1	-6
345.841	1	9
346.183	1	0
346.526	1	-9
346.868	1	2
347.210	1	-8
347.552	1	-7
347.894	1	2
348.236	1	8
348.578	1	-3
348.920	1	2
349.262	1	-2
349.604	1	1
349.946	1	-1
350.288	1	16
350.630	1	1
350.972	1	0
351.314	1	4
351.656	1	8
351.998	1	6
352.340	1	5
352.682	1	9
353.024	1	6
353.366	1	17
353.708	1	0
354.050	1	-3
354.392	1	-4
354.734	1	7
355.076	1	5
355.418	1	-14
355.760	1	-3
356.102	1	17
356.444	1	8
356.785	1	10
357.127	1	2
357.469	1	2
357.811	1	-4
358.153	1	9
358.495	1	4
358.837	1	1
359.179	1	7
359.521	1	12
359.863	1	-2
360.205	1	4
360.547	1	8
360.889	1	7
361.231	1	8
361.572	1	14
361.914	1	9
362.256	1	17
362.598	1	2
362.940	1	7
363.282	1	5
363.624	1	18
363.966	1	3
364.308	1	4
364.649	1	16
364.991	1	10
365.333	1	11
365.675	1	3
366.017	1	22
366.359	1	13
366.701	1	11
367.042	1	19
367.384	1	28
367.726	1	12
368.068	1	30
368.410	1	31
368.752	1	27
369.093	1	29
369.435	1	45
369.777	1	24
370.119	1	32
370.461	1	40
370.803	1	34
371.144	1	28
371.486	1	35
371.828	1	34
372.170	1	25
372.512	1	14
372.853	1	24
373.195	1	15
373.537	1	31
373.879	1	16
374.220	1	32
374.562	1	19
374.904	1	27
375.246	1	18
375.588	1	12
375.929	1	18
376.271	1	15
376.613	1	17
376.955	1	10
377.296	1	8
377.638	1	21
377.980	1	18
378.321	1	-1
378.663	1	7
379.005	1	20
379.347	1	9
379.688	1	11
380.030	1	4
380.372	1	8
380.714	1	17
381.055	1	15
381.397	1	8
381.739	1	12
382.080	1	15
382.422	1	9
382.764	1	5
383.105	1	5
383.447	1	3
383.789	1	-2
384.130	1	5
384.472	1	9
384.814	1	2
385.156	1	-3
385.497	1	9
385.839	1	-3
386.180	1	12
386.522	1	9
386.864	1	7
387.205	1	-7
387.547	1	-2
387.889	1	5
388.230	1	13
388.572	1	-1
388.914	1	6
389.255	1	0
389.597	1	10
389.939	1	6
390.280	1	9
390.622	1	-4
390.963	1	7
391.305	1	14
391.647	1	4
391.988	1	7
392.330	1	18
392.671	1	4
393.013	1	4
393.355	1	6
393.696	1	-2
394.038	1	9
394.379	1	6
394.721	1	-3
395.062	1	1
395.404	1	1
395.746	1	7
396.087	1	3
396.429	1	11
396.770	1	-2
397.112	1	1
397.453	1	12
397.795	1	2
398.136	1	0
398.478	1	0
398.819	1	4
399.161	1	6
399.503	1	-2
399.844	1	-10
400.186	1	-5
400.527	1	-8
400.869	1	2
401.210	1	2
401.552	1	-5
401.893	1	-2
402.235	1	1
402.576	1	-3
402.918	1	11
403.259	1	4
403.601	1	-3
403.942	1	4
404.284	1	3
404.625	1	-3
404.967	1	1
405.308	1	2
405.649	1	6
405.991	1	1
406.332	1	10
406.674	1	3
407.015	1	13
407.357	1	1
407.698	1	11
408.040	1	-1
408.381	1	-2
408.722	1	-14
409.064	1	1
409.405	1	2
409.747	1	-3
410.088	1	4
410.430	1	5
410.771	1	2
411.112	1	4
411.454	1	-10
411.795	1	2
412.137	1	7
412.478	1	8
412.819	1	-3
413.161	1	1
413.502	1	3
413.844	1	-7
414.185	1	4
414.526	1	-1
414.868	1	5
415.209	1	5
415.550	1	-4
415.892	1	3
416.233	1	8
416.575	1	13
416.916	1	-4
417.257	1	-5
417.599	1	2
417.940	1	14
418.281	1	3
418.623	1	1
418.964	1	-14
419.305	1	3
419.647	1	1
419.988	1	-7
420.329	1	-7
420.671	1	-4
421.012	1	0
421.353	1	-3
421.695	1	0
422.036	1	-2
422.377	1	-1
422.718	1	10
423.060	1	-1
423.401	1	0
423.742	1	2
424.084	1	-1
424.425	1	4
424.766	1	1
425.107	1	-6
425.449	1	-5
425.790	1	-4
426.131	1	8
426.472	1	-2
426.814	1	3
427.155	1	-5
427.496	1	1
427.837	1	-4
428.179	1	-1
428.520	1	2
428.861	1	-7
429.202	1	1
429.544	1	1
429.885	1	9
430.226	1	-1
430.567	1	1
430.909	1	-1
431.250	1	-4
431.591	1	-2
431.932	1	-8
432.273	1	1
432.615	1	-13
432.956	1	1
433.297	1	-2
433.638	1	-2
433.979	1	-2
434.320	1	6
434.662	1	10
435.003	1	3
435.344	1	-3
435.685	1	-3
436.026	1	9
436.368	1	0
436.709	1	-8
437.050	1	-4
437.391	1	9
437.732	1	-7
438.073	1	-7
438.414	1	-9
438.756	1	-3
439.097	1	-6
439.438	1	-2
439.779	1	3
440.120	1	-2
440.461	1	0
440.802	1	-4
441.143	1	9
441.485	1	2
441.826	1	1
442.167	1	-5
442.508	1	2
442.849	1	6
443.190	1	4
443.531	1	4
443.872	1	10
444.213	1	6
444.554	1	13
444.895	1	-4
445.237	1	4
445.578	1	-6
445.919	1	-12
446.260	1	-4
446.601	1	-2
446.942	1	-2
447.283	1	-3
447.624	1	10
447.965	1	-1
448.306	1	2
448.647	1	2
448.988	1	2
449.329	1	-1
449.670	1	3
450.011	1	4
450.352	1	10
450.693	1	0
451.034	1	2
451.375	1	-6
451.716	1	-2
452.057	1	-2
452.398	1	-2
452.739	1	6
453.080	1	-4
453.421	1	1
453.762	1	1
454.103	1	0
454.444	1	-1
454.785	1	1
455.126	1	-5
455.467	1	1
455.808	1	7
456.149	1	9
456.490	1	-3
456.831	1	-1
457.172	1	-7
457.513	1	4
457.854	1	-2
458.195	1	-17
458.536	1	1
458.877	1	-5
459.218	1	0
459.559	1	5
459.899	1	-11
460.240	1	8
460.581	1	8
460.922	1	-1
461.263	1	-7
461.604	1	-4
461.945	1	-4
462.286	1	2
462.627	1	0
462.968	1	9
463.309	1	-15
463.649	1	-7
463.990	1	2
464.331	1	-2
464.672	1	-2
465.013	1	-3
465.354	1	3
465.695	1	8
466.036	1	0
466.376	1	-6
466.717	1	8
467.058	1	0
467.399	1	6
467.740	1	-6
468.081	1	5
468.422	1	-7
468.762	1	-5
469.103	1	-14
469.444	1	-9
469.785	1	-12
470.126	1	-5
470.467	1	-4
470.807	1	4
471.148	1	0
471.489	1	-1
471.830	1	-10
472.171	1	-7
472.511	1	-3
472.852	1	-4
473.193	1	4
473.534	1	2
473.875	1	14
474.215	1	17
474.556	1	-2
474.897	1	6
475.238	1	3
475.578	1	-5
475.919	1	4
476.260	1	4
476.601	1	6
476.942	1	15
477.282	1	-7
477.623	1	-7
477.964	1	-5
478.305	1	5
478.645	1	8
478.986	1	-3
479.327	1	-11
479.667	1	-2
480.008	1	-10
480.349	1	-1
480.690	1	7
481.030	1	-12
481.371	1	6
481.712	1	4
482.053	1	1
482.393	1	-8
482.734	1	-8
483.075	1	1
483.415	1	1
483.756	1	9
484.097	1	-1
484.437	1	-2
484.778	1	5
485.119	1	-5
485.459	1	17
485.800	1	-6
486.141	1	-6
486.481	1	1
486.822	1	4
487.163	1	-2
487.503	1	1
487.844	1	-8
488.185	1	10
488.525	1	0
488.866	1	5
489.207	1	0
489.547	1	1
489.888	1	-4
490.228	1	6
490.569	1	6
490.910	1	2
491.250	1	-10
491.591	1	-3
491.932	1	4
492.272	1	8
492.613	1	-6
492.953	1	5
493.294	1	-8
493.635	1	-9
493.975	1	-4
494.316	1	0
494.656	1	3
494.997	1	1
495.337	1	13
495.678	1	-3
496.019	1	-2
496.359	1	-1
496.700	1	-2
497.040	1	0
497.381	1	-2
497.721	1	7
498.062	1	3
498.403	1	5
498.743	1	-4
499.084	1	-3
499.424	1	-3
499.765	1	-1
500.105	1	8
500.446	1	-8
500.786	1	-10
501.127	1	-4
501.467	1	-9
501.808	1	-1
502.148	1	5
502.489	1	0
502.829	1	8
503.170	1	9
503.510	1	6
503.851	1	4
504.191	1	4
504.532	1	6
504.872	1	2
505.213	1	7
505.553	1	-5
505.894	1	0
506.234	1	8
506.575	1	4
506.915	1	1
507.256	1	12
507.596	1	6
507.936	1	3
508.277	1	4
508.617	1	-3
508.958	1	-9
509.298	1	-2
509.639	1	-3
509.979	1	8
510.319	1	4
510.660	1	3
511.000	1	-1
511.341	1	-3
511.681	1	1
512.022	1	-1
512.362	1	-5
512.702	1	-4
513.043	1	3
513.383	1	-4
513.724	1	-7
514.064	1	0
514.404	1	1
514.745	1	-6
515.085	1	-4
515.425	1	-3
515.766	1	-13
516.106	1	1
516.447	1	6
516.787	1	7
517.127	1	-2
517.468	1	0
517.808	1	-1
518.148	1	5
518.489	1	4
518.829	1	6
519.169	1	0
519.510	1	7
519.850	1	7
520.190	1	-5
520.531	1	1
520.871	1	3
521.211	1	-9
521.552	1	12
521.892	1	-1
522.232	1	10
522.573	1	5
522.913	1	0
523.253	1	-1
523.593	1	-1
523.934	1	-3
524.274	1	2
524.614	1	6
524.955	1	1
525.295	1	2
525.635	1	0
525.975	1	9
526.316	1	12
526.656	1	1
526.996	1	9
527.337	1	4
527.677	1	-3
528.017	1	-9
528.357	1	8
528.698	1	5
529.038	1	6
529.378	1	4
529.718	1	11
530.058	1	2
530.399	1	8
530.739	1	9
531.079	1	6
531.419	1	9
531.760	1	5
532.100	1	-8
532.440	1	5
532.780	1	-2
533.120	1	6
533.461	1	-3
533.801	1	15
534.141	1	-8
534.481	1	4
534.821	1	7
535.162	1	4
535.502	1	2
535.842	1	5
536.182	1	3
536.522	1	-3
536.862	1	9
537.203	1	-4
537.543	1	-1
537.883	1	-1
538.223	1	3
538.563	1	13
538.903	1	-9
539.243	1	1
539.584	1	6
539.924	1	4
540.264	1	-6
540.604	1	9
540.944	1	4
541.284	1	-5
541.624	1	7
541.964	1	4
542.305	1	9
542.645	1	-4
542.985	1	8
543.325	1	-1
543.665	1	3
544.005	1	6
544.345	1	7
544.685	1	-1
545.025	1	1
545.365	1	5
545.705	1	-9
546.045	1	-10
546.386	1	6
546.726	1	-6
547.066	1	9
547.406	1	4
547.746	1	-8
548.086	1	7
548.426	1	3
548.766	1	0
549.106	1	2
549.446	1	3
549.786	1	0
550.126	1	24
550.466	1	7
550.806	1	3
551.146	1	-2
551.486	1	4
551.826	1	3
552.166	1	7
552.506	1	9
552.846	1	7
553.186	1	4
553.526	1	-4
553.866	1	7
554.206	1	11
554.546	1	3
554.886	1	7
555.226	1	-2
555.566	1	6
555.906	1	4
556.246	1	6
556.586	1	5
556.926	1	7
557.266	1	-8
557.606	1	4
557.946	1	8
558.286	1	3
558.626	1	7
558.966	1	6
559.306	1	-6
559.646	1	1
559.986	1	2
560.325	1	-2
560.665	1	3
561.005	1	-6
561.345	1	5
561.685	1	2
562.025	1	4
562.365	1	1
562.705	1	1
563.045	1	-6
563.385	1	-8
563.725	1	2
564.064	1	2
564.404	1	11
564.744	1	10
565.084	1	-2
565.424	1	4
565.764	1	-2
566.104	1	-2
566.444	1	-9
566.783	1	-9
567.123	1	10
567.463	1	13
567.803	1	4
568.143	1	-1
568.483	1	4
568.823	1	0
569.162	1	4
569.502	1	9
569.842	1	5
570.182	1	-1
570.522	1	1
570.862	1	-5
571.201	1	13
571.541	1	3
571.881	1	18
572.221	1	-3
572.561	1	-1
572.900	1	-1
573.240	1	6
573.580	1	3
573.920	1	7
574.260	1	9
574.599	1	4
574.939	1	5
575.279	1	14
575.619	1	6
575.959	1	-6
576.298	1	14
576.638	1	-6
576.978	1	10
577.318	1	4
577.657	1	0
577.997	1	-10
578.337	1	10
578.677	1	4
579.016	1	11
579.356	1	0
579.696	1	8
580.036	1	0
580.375	1	9
580.715	1	3
581.055	1	2
581.394	1	4
581.734	1	-8
582.074	1	4
582.414	1	9
582.753	1	5
583.093	1	4
583.433	1	-1
583.772	1	12
584.112	1	0
584.452	1	2
584.791	1	-2
585.131	1	9
585.471	1	12
585.811	1	8
586.150	1	9
586.490	1	13
586.830	1	-5
587.169	1	2
587.509	1	3
587.849	1	6
588.188	1	10
588.528	1	10
588.867	1	2
589.207	1	1
589.547	1	1
589.886	1	4
590.226	1	15
590.566	1	-5
590.905	1	-2
591.245	1	-1
591.585	1	5
591.924	1	4
592.264	1	4
592.603	1	5
592.943	1	10
593.283	1	6
593.622	1	0
593.962	1	6
594.301	1	10
594.641	1	1
594.981	1	3
595.320	1	3
595.660	1	2
595.999	1	-11
596.339	1	8
596.678	1	-1
597.018	1	-3
597.358	1	6
597.697	1	-1
598.037	1	7
598.376	1	-2
598.716	1	4
599.055	1	9
599.395	1	-4
599.734	1	2
600.074	1	-4
600.413	1	11
600.753	1	2
601.092	1	23
601.432	1	1
601.771	1	0
602.111	1	4
602.451	1	9
602.790	1	9
603.130	1	6
603.469	1	-7
603.809	1	3
604.148	1	7
604.487	1	7
604.827	1	8
605.166	1	2
605.506	1	11
605.845	1	7
606.185	1	7
606.524	1	1
606.864	1	0
607.203	1	6
607.543	1	-1
607.882	1	9
608.222	1	0
608.561	1	-3
608.901	1	12
609.240	1	3
609.579	1	13
609.919	1	13
610.258	1	9
610.598	1	-6
610.937	1	5
611.277	1	-3
611.616	1	1
611.955	1	-4
612.295	1	-3
612.634	1	-1
612.974	1	-10
613.313	1	10
613.652	1	1
613.992	1	0
614.331	1	4
614.671	1	5
615.010	1	-9
615.349	1	5
615.689	1	11
616.028	1	3
616.368	1	10
616.707	1	-4
617.046	1	2
617.386	1	-3
617.725	1	3
618.064	1	-5
618.404	1	0
618.743	1	10
619.082	1	2
619.422	1	-5
619.761	1	14
620.100	1	1
620.440	1	2
620.779	1	-1
621.118	1	2
621.458	1	4
621.797	1	-2
622.136	1	14
622.476	1	-2
622.815	1	8
623.154	1	8
623.494	1	12
623.833	1	2
624.172	1	-6
624.511	1	1
624.851	1	-3
625.190	1	0
625.529	1	5
625.869	1	13
626.208	1	-4
626.547	1	4
626.886	1	3
627.226	1	5
627.565	1	0
627.904	1	-3
628.243	1	13
628.583	1	-5
628.922	1	-1
629.261	1	1
629.600	1	15
629.940	1	5
630.279	1	-10
630.618	1	-2
630.957	1	8
631.297	1	-1
631.636	1	-6
631.975	1	17
632.314	1	2
632.653	1	10
632.993	1	3
633.332	1	1
633.671	1	0
634.010	1	-5
634.349	1	6
634.689	1	-2
635.028	1	1
635.367	1	-3
635.706	1	1
636.045	1	8
636.384	1	1
636.724	1	8
637.063	1	-6
637.402	1	4
637.741	1	-3
638.080	1	1
638.419	1	3
638.759	1	-6
639.098	1	-1
639.437	1	6
639.776	1	1
640.115	1	1
640.454	1	-3
640.793	1	11
641.132	1	2
641.472	1	10
641.811	1	5
642.150	1	-13
642.489	1	5
642.828	1	-6
643.167	1	-8
643.506	1	-4
643.845	1	4
644.184	1	4
644.524	1	-6
644.863	1	-4
645.202	1	-5
645.541	1	0
645.880	1	2
646.219	1	-2
646.558	1	-3
646.897	1	1
647.236	1	-1
647.575	1	5
647.914	1	2
648.253	1	2
648.592	1	-4
648.931	1	9
649.270	1	-3
649.610	1	4
649.949	1	-8
650.288	1	10
650.627	1	0
650.966	1	4
651.305	1	6
651.644	1	16
651.983	1	-5
652.322	1	-9
652.661	1	-5
653.000	1	3
653.339	1	10
653.678	1	1
654.017	1	-3
654.356	1	2
654.695	1	6
655.034	1	6
655.373	1	5
655.712	1	4
656.051	1	8
656.390	1	-6
656.729	1	6
657.068	1	3
657.406	1	9
657.745	1	-6
658.084	1	4
658.423	1	7
658.762	1	-4
659.101	1	12
659.440	1	5
659.779	1	9
660.118	1	3
660.457	1	0
660.796	1	-5
661.135	1	-4
661.474	1	1
661.813	1	14
662.152	1	-1
662.491	1	-6
662.829	1	2
663.168	1	4
663.507	1	12
663.846	1	4
664.185	1	4
664.524	1	-5
664.863	1	-3
665.202	1	4
665.541	1	-7
665.879	1	-5
666.218	1	-6
666.557	1	-4
666.896	1	1
667.235	1	1
667.574	1	0
667.913	1	13
668.251	1	-7
668.590	1	2
668.929	1	-2
669.268	1	0
669.607	1	-3
669.946	1	12
670.285	1	-2
670.623	1	5
670.962	1	-5
671.301	1	12
671.640	1	-1
671.979	1	-1
672.317	1	11
672.656	1	4
672.995	1	1
673.334	1	0
673.673	1	4
674.011	1	-5
674.350	1	14
674.689	1	7
675.028	1	0
675.367	1	2
675.705	1	5
676.044	1	-6
676.383	1	4
676.722	1	1
677.060	1	-7
677.399	1	-6
677.738	1	4
678.077	1	4
678.416	1	-9
678.754	1	-2
679.093	1	4
679.432	1	-6
679.771	1	4
680.109	1	14
680.448	1	7
680.787	1	0
681.125	1	3
681.464	1	11
681.803	1	-6
682.142	1	9
682.480	1	10
682.819	1	0
683.158	1	4
683.496	1	3
683.835	1	-5
684.174	1	-9
684.512	1	10
684.851	1	5
685.190	1	-1
685.529	1	4
685.867	1	5
686.206	1	-6
686.545	1	-7
686.883	1	0
687.222	1	13
687.561	1	4
687.899	1	9
688.238	1	5
688.577	1	-5
688.746	1	0