File: Data/GaN_200K_800ms/GaN_sample F_spot 12_UVVIS_200 K_200um_800 ms 2x2mm1_156.txt
340.368	1	8
340.710	1	-7
341.052	1	5
341.394	1	-1
341.737	1	6
342.079	1	-3
342.421	1	-4
342.763	1	2
343.105	1	5
343.447	1	-4
343.789	1	-6
344.131	1	2
344.473	1	2
344.815	1	-6
345.157	1	3
345.499	1	11
345.841	1	-2
346.183	1	-4
346.526	1	-3
346.868	1	3
347.210	1	-5
347.552	1	-1
347.894	1	7
348.236	1	15
348.578	1	7
348.920	1	-2
349.262	1	2
349.604	1	5
349.946	1	-2
350.288	1	19
350.630	1	8
350.972	1	4
351.314	1	4
351.656	1	4
351.998	1	1
352.340	1	4
352.682	1	10
353.024	1	13
353.366	1	11
353.708	1	3
354.050	1	-6
354.392	1	-2
354.734	1	12
355.076	1	9
355.418	1	-4
355.760	1	0
356.102	1	13
356.444	1	12
356.785	1	14
357.127	1	13
357.469	1	5
357.811	1	6
358.153	1	18
358.495	1	18
358.837	1	0
359.179	1	11
359.521	1	14
359.863	1	1
360.205	1	8
360.547	1	12
360.889	1	3
361.231	1	17
361.572	1	14
361.914	1	23
362.256	1	17
362.598	1	14
362.940	1	16
363.282	1	15
363.624	1	21
363.966	1	19
364.308	1	23
364.649	1	20
364.991	1	18
365.333	1	19
365.675	1	29
366.017	1	28
366.359	1	36
366.701	1	36
367.042	1	43
367.384	1	37
367.726	1	38
368.068	1	40
368.410	1	62
368.752	1	45
369.093	1	50
369.435	1	50
369.777	1	40
370.119	1	47
370.461	1	63
370.803	1	51
371.144	1	41
371.486	1	55
371.828	1	48
372.170	1	53
372.512	1	38
372.853	1	46
373.195	1	34
373.537	1	32
373.879	1	39
374.220	1	51
374.562	1	36
374.904	1	25
375.246	1	30
375.588	1	34
375.929	1	34
376.271	1	33
376.613	1	28
376.955	1	22
377.296	1	19
377.638	1	22
377.980	1	27
378.321	1	23
378.663	1	15
379.005	1	34
379.347	1	25
379.688	1	13
380.030	1	6
380.372	1	14
380.714	1	12
381.055	1	27
381.397	1	17
381.739	1	19
382.080	1	12
382.422	1	8
382.764	1	11
383.105	1	12
383.447	1	14
383.789	1	4
384.130	1	8
384.472	1	2
384.814	1	6
385.156	1	11
385.497	1	7
385.839	1	8
386.180	1	6
386.522	1	19
386.864	1	16
387.205	1	11
387.547	1	7
387.889	1	0
388.230	1	12
388.572	1	-1
388.914	1	3
389.255	1	2
389.597	1	19
389.939	1	9
390.280	1	2
390.622	1	4
390.963	1	15
391.305	1	1
391.647	1	5
391.988	1	11
392.330	1	6
392.671	1	0
393.013	1	7
393.355	1	3
393.696	1	0
394.038	1	2
394.379	1	5
394.721	1	-4
395.062	1	10
395.404	1	-1
395.746	1	6
396.087	1	-1
396.429	1	2
396.770	1	6
397.112	1	9
397.453	1	15
397.795	1	2
398.136	1	-4
398.478	1	3
398.819	1	-3
399.161	1	13
399.503	1	-4
399.844	1	-2
400.186	1	-1
400.527	1	2
400.869	1	2
401.210	1	8
401.552	1	-5
401.893	1	1
402.235	1	7
402.576	1	-1
402.918	1	12
403.259	1	8
403.601	1	3
403.942	1	8
404.284	1	4
404.625	1	4
404.967	1	4
405.308	1	10
405.649	1	-8
405.991	1	-3
406.332	1	4
406.674	1	-6
407.015	1	3
407.357	1	-1
407.698	1	6
408.040	1	-5
408.381	1	5
408.722	1	-13
409.064	1	3
409.405	1	8
409.747	1	1
410.088	1	-1
410.430	1	12
410.771	1	13
411.112	1	3
411.454	1	-5
411.795	1	1
412.137	1	16
412.478	1	21
412.819	1	-8
413.161	1	-8
413.502	1	8
413.844	1	13
414.185	1	7
414.526	1	0
414.868	1	0
415.209	1	-3
415.550	1	-2
415.892	1	5
416.233	1	4
416.575	1	8
416.916	1	-8
417.257	1	-3
417.599	1	9
417.940	1	5
418.281	1	-4
418.623	1	-4
418.964	1	-9
419.305	1	-3
419.647	1	-9
419.988	1	2
420.329	1	-5
420.671	1	15
421.012	1	7
421.353	1	-3
421.695	1	-3
422.036	1	6
422.377	1	1
422.718	1	11
423.060	1	2
423.401	1	7
423.742	1	7
424.084	1	-2
424.425	1	4
424.766	1	2
425.107	1	-10
425.449	1	7
425.790	1	-6
426.131	1	3
426.472	1	2
426.814	1	2
427.155	1	-3
427.496	1	-3
427.837	1	1
428.179	1	4
428.520	1	0
428.861	1	-1
429.202	1	1
429.544	1	-2
429.885	1	7
430.226	1	-3
430.567	1	-6
430.909	1	3
431.250	1	5
431.591	1	1
431.932	1	-8
432.273	1	3
432.615	1	0
432.956	1	1
433.297	1	6
433.638	1	0
433.979	1	10
434.320	1	4
434.662	1	1
435.003	1	3
435.344	1	1
435.685	1	0
436.026	1	5
436.368	1	2
436.709	1	-1
437.050	1	-2
437.391	1	6
437.732	1	3
438.073	1	6
438.414	1	0
438.756	1	-3
439.097	1	0
439.438	1	-3
439.779	1	10
440.120	1	-10
440.461	1	-1
440.802	1	-10
441.143	1	11
441.485	1	6
441.826	1	1
442.167	1	8
442.508	1	-8
442.849	1	8
443.190	1	0
443.531	1	12
443.872	1	5
444.213	1	-2
444.554	1	4
444.895	1	-9
445.237	1	0
445.578	1	-4
445.919	1	-3
446.260	1	-3
446.601	1	-3
446.942	1	1
447.283	1	-4
447.624	1	-3
447.965	1	1
448.306	1	-1
448.647	1	-11
448.988	1	-4
449.329	1	7
449.670	1	3
450.011	1	7
450.352	1	4
450.693	1	3
451.034	1	-8
451.375	1	-3
451.716	1	6
452.057	1	-1
452.398	1	-5
452.739	1	0
453.080	1	11
453.421	1	5
453.762	1	4
454.103	1	3
454.444	1	-1
454.785	1	0
455.126	1	2
455.467	1	0
455.808	1	6
456.149	1	6
456.490	1	6
456.831	1	0
457.172	1	-1
457.513	1	6
457.854	1	7
458.195	1	-4
458.536	1	13
458.877	1	5
459.218	1	2
459.559	1	6
459.899	1	7
460.240	1	6
460.581	1	14
460.922	1	3
461.263	1	1
461.604	1	-4
461.945	1	8
462.286	1	2
462.627	1	2
462.968	1	2
463.309	1	-13
463.649	1	0
463.990	1	-6
464.331	1	1
464.672	1	0
465.013	1	-5
465.354	1	4
465.695	1	-3
466.036	1	-4
466.376	1	-3
466.717	1	7
467.058	1	-3
467.399	1	-2
467.740	1	4
468.081	1	0
468.422	1	1
468.762	1	-3
469.103	1	-3
469.444	1	-8
469.785	1	-3
470.126	1	4
470.467	1	-1
470.807	1	3
471.148	1	1
471.489	1	-2
471.830	1	0
472.171	1	9
472.511	1	-4
472.852	1	-4
473.193	1	7
473.534	1	8
473.875	1	10
474.215	1	11
474.556	1	1
474.897	1	3
475.238	1	0
475.578	1	-11
475.919	1	5
476.260	1	4
476.601	1	-2
476.942	1	7
477.282	1	2
477.623	1	-10
477.964	1	5
478.305	1	7
478.645	1	7
478.986	1	-3
479.327	1	-4
479.667	1	0
480.008	1	-3
480.349	1	-3
480.690	1	3
481.030	1	-10
481.371	1	-1
481.712	1	3
482.053	1	1
482.393	1	-3
482.734	1	-9
483.075	1	4
483.415	1	3
483.756	1	11
484.097	1	5
484.437	1	-1
484.778	1	8
485.119	1	3
485.459	1	15
485.800	1	-1
486.141	1	-6
486.481	1	-5
486.822	1	4
487.163	1	4
487.503	1	7
487.844	1	-1
488.185	1	7
488.525	1	-5
488.866	1	5
489.207	1	5
489.547	1	-1
489.888	1	-2
490.228	1	12
490.569	1	20
490.910	1	-2
491.250	1	7
491.591	1	-4
491.932	1	2
492.272	1	7
492.613	1	-3
492.953	1	-2
493.294	1	-6
493.635	1	6
493.975	1	-2
494.316	1	7
494.656	1	5
494.997	1	4
495.337	1	13
495.678	1	2
496.019	1	2
496.359	1	-7
496.700	1	6
497.040	1	-3
497.381	1	1
497.721	1	-1
498.062	1	-5
498.403	1	8
498.743	1	-3
499.084	1	-1
499.424	1	-4
499.765	1	1
500.105	1	13
500.446	1	-7
500.786	1	1
501.127	1	-3
501.467	1	0
501.808	1	-2
502.148	1	10
502.489	1	7
502.829	1	1
503.170	1	18
503.510	1	1
503.851	1	-2
504.191	1	2
504.532	1	7
504.872	1	0
505.213	1	3
505.553	1	-4
505.894	1	-2
506.234	1	11
506.575	1	10
506.915	1	6
507.256	1	5
507.596	1	11
507.936	1	4
508.277	1	-1
508.617	1	-1
508.958	1	1
509.298	1	2
509.639	1	-6
509.979	1	5
510.319	1	3
510.660	1	2
511.000	1	2
511.341	1	1
511.681	1	5
512.022	1	-7
512.362	1	-4
512.702	1	-7
513.043	1	7
513.383	1	-8
513.724	1	2
514.064	1	9
514.404	1	4
514.745	1	6
515.085	1	1
515.425	1	2
515.766	1	-8
516.106	1	0
516.447	1	10
516.787	1	1
517.127	1	0
517.468	1	-4
517.808	1	1
518.148	1	-3
518.489	1	6
518.829	1	-1
519.169	1	-2
519.510	1	2
519.850	1	6
520.190	1	7
520.531	1	-1
520.871	1	8
521.211	1	-1
521.552	1	18
521.892	1	0
522.232	1	4
522.573	1	5
522.913	1	5
523.253	1	2
523.593	1	-4
523.934	1	7
524.274	1	3
524.614	1	6
524.955	1	5
525.295	1	2
525.635	1	2
525.975	1	1
526.316	1	22
526.656	1	-8
526.996	1	13
527.337	1	-5
527.677	1	4
528.017	1	-4
528.357	1	1
528.698	1	5
529.038	1	5
529.378	1	14
529.718	1	14
530.058	1	-4
530.399	1	15
530.739	1	1
531.079	1	12
531.419	1	9
531.760	1	10
532.100	1	7
532.440	1	-3
532.780	1	5
533.120	1	5
533.461	1	9
533.801	1	25
534.141	1	-17
534.481	1	-5
534.821	1	14
535.162	1	2
535.502	1	-5
535.842	1	5
536.182	1	-2
536.522	1	-5
536.862	1	12
537.203	1	-7
537.543	1	7
537.883	1	6
538.223	1	4
538.563	1	10
538.903	1	-9
539.243	1	-3
539.584	1	7
539.924	1	9
540.264	1	7
540.604	1	4
540.944	1	5
541.284	1	16
541.624	1	6
541.964	1	9
542.305	1	14
542.645	1	0
542.985	1	7
543.325	1	5
543.665	1	2
544.005	1	16
544.345	1	7
544.685	1	0
545.025	1	-3
545.365	1	8
545.705	1	0
546.045	1	-7
546.386	1	19
546.726	1	6
547.066	1	2
547.406	1	11
547.746	1	-8
548.086	1	10
548.426	1	-2
548.766	1	2
549.106	1	-1
549.446	1	4
549.786	1	0
550.126	1	14
550.466	1	10
550.806	1	8
551.146	1	-4
551.486	1	6
551.826	1	10
552.166	1	2
552.506	1	17
552.846	1	2
553.186	1	9
553.526	1	-4
553.866	1	7
554.206	1	7
554.546	1	3
554.886	1	12
555.226	1	-8
555.566	1	5
555.906	1	8
556.246	1	7
556.586	1	4
556.926	1	17
557.266	1	4
557.606	1	10
557.946	1	7
558.286	1	2
558.626	1	18
558.966	1	12
559.306	1	-4
559.646	1	2
559.986	1	9
560.325	1	-3
560.665	1	8
561.005	1	2
561.345	1	1
561.685	1	-1
562.025	1	5
562.365	1	13
562.705	1	2
563.045	1	-7
563.385	1	0
563.725	1	-2
564.064	1	5
564.404	1	5
564.744	1	8
565.084	1	7
565.424	1	12
565.764	1	-2
566.104	1	-9
566.444	1	-4
566.783	1	-1
567.123	1	11
567.463	1	15
567.803	1	-4
568.143	1	2
568.483	1	11
568.823	1	9
569.162	1	11
569.502	1	1
569.842	1	16
570.182	1	9
570.522	1	-5
570.862	1	4
571.201	1	14
571.541	1	7
571.881	1	15
572.221	1	-3
572.561	1	-3
572.900	1	3
573.240	1	2
573.580	1	9
573.920	1	3
574.260	1	6
574.599	1	6
574.939	1	3
575.279	1	14
575.619	1	13
575.959	1	-4
576.298	1	7
576.638	1	-1
576.978	1	16
577.318	1	2
577.657	1	-1
577.997	1	4
578.337	1	9
578.677	1	8
579.016	1	22
579.356	1	-3
579.696	1	9
580.036	1	11
580.375	1	7
580.715	1	-1
581.055	1	3
581.394	1	6
581.734	1	-13
582.074	1	7
582.414	1	8
582.753	1	2
583.093	1	4
583.433	1	3
583.772	1	4
584.112	1	7
584.452	1	3
584.791	1	-2
585.131	1	12
585.471	1	8
585.811	1	20
586.150	1	5
586.490	1	11
586.830	1	0
587.169	1	10
587.509	1	4
587.849	1	3
588.188	1	12
588.528	1	3
588.867	1	8
589.207	1	3
589.547	1	2
589.886	1	-7
590.226	1	2
590.566	1	1
590.905	1	6
591.245	1	-4
591.585	1	11
591.924	1	5
592.264	1	6
592.603	1	5
592.943	1	5
593.283	1	-4
593.622	1	5
593.962	1	4
594.301	1	18
594.641	1	-14
594.981	1	2
595.320	1	7
595.660	1	4
595.999	1	-7
596.339	1	2
596.678	1	1
597.018	1	2
597.358	1	11
597.697	1	4
598.037	1	-6
598.376	1	5
598.716	1	10
599.055	1	17
599.395	1	-2
599.734	1	12
600.074	1	6
600.413	1	9
600.753	1	3
601.092	1	14
601.432	1	-5
601.771	1	11
602.111	1	-1
602.451	1	13
602.790	1	7
603.130	1	7
603.469	1	-3
603.809	1	1
604.148	1	4
604.487	1	-3
604.827	1	4
605.166	1	-3
605.506	1	6
605.845	1	2
606.185	1	6
606.524	1	13
606.864	1	6
607.203	1	8
607.543	1	-10
607.882	1	10
608.222	1	7
608.561	1	7
608.901	1	8
609.240	1	2
609.579	1	12
609.919	1	9
610.258	1	15
610.598	1	-4
610.937	1	-2
611.277	1	-4
611.616	1	2
611.955	1	5
612.295	1	0
612.634	1	4
612.974	1	-12
613.313	1	15
613.652	1	-2
613.992	1	-7
614.331	1	7
614.671	1	9
615.010	1	-6
615.349	1	4
615.689	1	8
616.028	1	4
616.368	1	9
616.707	1	8
617.046	1	-1
617.386	1	3
617.725	1	1
618.064	1	-5
618.404	1	4
618.743	1	2
619.082	1	9
619.422	1	-3
619.761	1	8
620.100	1	10
620.440	1	1
620.779	1	-1
621.118	1	7
621.458	1	8
621.797	1	-5
622.136	1	14
622.476	1	6
622.815	1	9
623.154	1	-1
623.494	1	14
623.833	1	4
624.172	1	-1
624.511	1	4
624.851	1	-11
625.190	1	6
625.529	1	-1
625.869	1	17
626.208	1	3
626.547	1	8
626.886	1	1
627.226	1	5
627.565	1	7
627.904	1	-1
628.243	1	6
628.583	1	-3
628.922	1	6
629.261	1	5
629.600	1	10
629.940	1	0
630.279	1	-5
630.618	1	1
630.957	1	2
631.297	1	0
631.636	1	-11
631.975	1	12
632.314	1	-4
632.653	1	6
632.993	1	5
633.332	1	-2
633.671	1	0
634.010	1	2
634.349	1	7
634.689	1	8
635.028	1	-2
635.367	1	-1
635.706	1	7
636.045	1	6
636.384	1	4
636.724	1	5
637.063	1	2
637.402	1	-6
637.741	1	0
638.080	1	3
638.419	1	0
638.759	1	-3
639.098	1	8
639.437	1	4
639.776	1	0
640.115	1	3
640.454	1	3
640.793	1	10
641.132	1	4
641.472	1	4
641.811	1	-2
642.150	1	-13
642.489	1	3
642.828	1	-1
643.167	1	-1
643.506	1	-7
643.845	1	5
644.184	1	6
644.524	1	-2
644.863	1	2
645.202	1	2
645.541	1	-2
645.880	1	11
646.219	1	8
646.558	1	5
646.897	1	4
647.236	1	4
647.575	1	8
647.914	1	2
648.253	1	8
648.592	1	-7
648.931	1	10
649.270	1	4
649.610	1	1
649.949	1	-8
650.288	1	8
650.627	1	1
650.966	1	8
651.305	1	-1
651.644	1	15
651.983	1	3
652.322	1	-5
652.661	1	7
653.000	1	7
653.339	1	12
653.678	1	-6
654.017	1	5
654.356	1	4
654.695	1	2
655.034	1	5
655.373	1	-1
655.712	1	7
656.051	1	3
656.390	1	0
656.729	1	3
657.068	1	2
657.406	1	9
657.745	1	-7
658.084	1	0
658.423	1	4
658.762	1	-2
659.101	1	20
659.440	1	8
659.779	1	4
660.118	1	0
660.457	1	5
660.796	1	-2
661.135	1	-5
661.474	1	-1
661.813	1	14
662.152	1	0
662.491	1	-3
662.829	1	3
663.168	1	-1
663.507	1	7
663.846	1	-12
664.185	1	8
664.524	1	0
664.863	1	2
665.202	1	4
665.541	1	-1
665.879	1	1
666.218	1	-6
666.557	1	2
666.896	1	7
667.235	1	10
667.574	1	-1
667.913	1	-1
668.251	1	-2
668.590	1	5
668.929	1	-2
669.268	1	2
669.607	1	7
669.946	1	2
670.285	1	6
670.623	1	-1
670.962	1	2
671.301	1	1
671.640	1	0
671.979	1	11
672.317	1	7
672.656	1	3
672.995	1	8
673.334	1	-3
673.673	1	10
674.011	1	5
674.350	1	3
674.689	1	11
675.028	1	-1
675.367	1	16
675.705	1	10
676.044	1	3
676.383	1	2
676.722	1	1
677.060	1	3
677.399	1	-3
677.738	1	7
678.077	1	3
678.416	1	6
678.754	1	-3
679.093	1	4
679.432	1	7
679.771	1	6
680.109	1	10
680.448	1	3
680.787	1	-3
681.125	1	-1
681.464	1	6
681.803	1	1
682.142	1	13
682.480	1	9
682.819	1	-1
683.158	1	2
683.496	1	7
683.835	1	10
684.174	1	-7
684.512	1	10
684.851	1	5
685.190	1	-4
685.529	1	0
685.867	1	1
686.206	1	-1
686.545	1	-5
686.883	1	2
687.222	1	4
687.561	1	15
687.899	1	2
688.238	1	4
688.577	1	2
688.746	1	3