File: Data/GaN_200K_800ms/GaN_sample F_spot 12_UVVIS_200 K_200um_800 ms 2x2mm1_503.txt
340.368	1	0
340.710	1	-3
341.052	1	7
341.394	1	-11
341.737	1	2
342.079	1	-10
342.421	1	-5
342.763	1	2
343.105	1	-6
343.447	1	-7
343.789	1	-6
344.131	1	-8
344.473	1	-3
344.815	1	-3
345.157	1	-1
345.499	1	-3
345.841	1	6
346.183	1	-6
346.526	1	-9
346.868	1	6
347.210	1	-16
347.552	1	-7
347.894	1	-2
348.236	1	13
348.578	1	-2
348.920	1	2
349.262	1	-3
349.604	1	5
349.946	1	-10
350.288	1	7
350.630	1	8
350.972	1	-2
351.314	1	3
351.656	1	5
351.998	1	4
352.340	1	1
352.682	1	2
353.024	1	-10
353.366	1	7
353.708	1	-3
354.050	1	-13
354.392	1	-5
354.734	1	4
355.076	1	-2
355.418	1	-13
355.760	1	-7
356.102	1	12
356.444	1	1
356.785	1	2
357.127	1	3
357.469	1	2
357.811	1	-4
358.153	1	12
358.495	1	4
358.837	1	-13
359.179	1	-7
359.521	1	11
359.863	1	3
360.205	1	-12
360.547	1	10
360.889	1	-4
361.231	1	-11
361.572	1	5
361.914	1	12
362.256	1	6
362.598	1	-8
362.940	1	1
363.282	1	6
363.624	1	15
363.966	1	-8
364.308	1	-4
364.649	1	7
364.991	1	7
365.333	1	4
365.675	1	0
366.017	1	-4
366.359	1	6
366.701	1	2
367.042	1	1
367.384	1	7
367.726	1	4
368.068	1	4
368.410	1	14
368.752	1	3
369.093	1	6
369.435	1	13
369.777	1	7
370.119	1	2
370.461	1	13
370.803	1	11
371.144	1	5
371.486	1	12
371.828	1	4
372.170	1	14
372.512	1	8
372.853	1	11
373.195	1	7
373.537	1	4
373.879	1	2
374.220	1	14
374.562	1	12
374.904	1	4
375.246	1	6
375.588	1	6
375.929	1	7
376.271	1	6
376.613	1	-2
376.955	1	5
377.296	1	-1
377.638	1	6
377.980	1	0
378.321	1	-7
378.663	1	0
379.005	1	8
379.347	1	0
379.688	1	6
380.030	1	6
380.372	1	3
380.714	1	3
381.055	1	0
381.397	1	-14
381.739	1	5
382.080	1	3
382.422	1	0
382.764	1	-3
383.105	1	-8
383.447	1	7
383.789	1	-7
384.130	1	5
384.472	1	1
384.814	1	-8
385.156	1	-12
385.497	1	6
385.839	1	1
386.180	1	3
386.522	1	8
386.864	1	0
387.205	1	-2
387.547	1	-7
387.889	1	-9
388.230	1	2
388.572	1	-6
388.914	1	0
389.255	1	-1
389.597	1	2
389.939	1	-2
390.280	1	-6
390.622	1	6
390.963	1	11
391.305	1	3
391.647	1	-9
391.988	1	2
392.330	1	7
392.671	1	-7
393.013	1	-1
393.355	1	-1
393.696	1	2
394.038	1	6
394.379	1	-2
394.721	1	-12
395.062	1	-3
395.404	1	-11
395.746	1	8
396.087	1	-5
396.429	1	-2
396.770	1	-2
397.112	1	9
397.453	1	1
397.795	1	-3
398.136	1	-8
398.478	1	4
398.819	1	-7
399.161	1	4
399.503	1	0
399.844	1	1
400.186	1	3
400.527	1	1
400.869	1	5
401.210	1	-1
401.552	1	-5
401.893	1	1
402.235	1	-2
402.576	1	-8
402.918	1	11
403.259	1	14
403.601	1	-5
403.942	1	3
404.284	1	3
404.625	1	0
404.967	1	7
405.308	1	7
405.649	1	-5
405.991	1	-10
406.332	1	-6
406.674	1	-10
407.015	1	8
407.357	1	0
407.698	1	8
408.040	1	1
408.381	1	-3
408.722	1	-18
409.064	1	-4
409.405	1	10
409.747	1	-11
410.088	1	-1
410.430	1	3
410.771	1	-3
411.112	1	-2
411.454	1	-2
411.795	1	-9
412.137	1	-1
412.478	1	16
412.819	1	-6
413.161	1	0
413.502	1	-2
413.844	1	2
414.185	1	2
414.526	1	-10
414.868	1	-8
415.209	1	-2
415.550	1	-1
415.892	1	-6
416.233	1	2
416.575	1	6
416.916	1	-5
417.257	1	-4
417.599	1	-5
417.940	1	1
418.281	1	5
418.623	1	-6
418.964	1	-6
419.305	1	-1
419.647	1	-10
419.988	1	-4
420.329	1	-13
420.671	1	1
421.012	1	-7
421.353	1	0
421.695	1	-3
422.036	1	0
422.377	1	-4
422.718	1	5
423.060	1	0
423.401	1	-1
423.742	1	0
424.084	1	1
424.425	1	8
424.766	1	-1
425.107	1	-5
425.449	1	-4
425.790	1	-8
426.131	1	-7
426.472	1	-2
426.814	1	7
427.155	1	-5
427.496	1	-9
427.837	1	-5
428.179	1	-12
428.520	1	-1
428.861	1	1
429.202	1	-6
429.544	1	-6
429.885	1	-2
430.226	1	-16
430.567	1	4
430.909	1	-1
431.250	1	-3
431.591	1	9
431.932	1	-8
432.273	1	-8
432.615	1	-11
432.956	1	-16
433.297	1	2
433.638	1	-2
433.979	1	6
434.320	1	-1
434.662	1	5
435.003	1	2
435.344	1	-3
435.685	1	-9
436.026	1	4
436.368	1	3
436.709	1	-2
437.050	1	-6
437.391	1	2
437.732	1	-12
438.073	1	-3
438.414	1	-13
438.756	1	0
439.097	1	-15
439.438	1	-7
439.779	1	1
440.120	1	4
440.461	1	-3
440.802	1	0
441.143	1	9
441.485	1	-5
441.826	1	0
442.167	1	3
442.508	1	-7
442.849	1	12
443.190	1	1
443.531	1	8
443.872	1	3
444.213	1	-5
444.554	1	14
444.895	1	-1
445.237	1	-5
445.578	1	-12
445.919	1	-6
446.260	1	-6
446.601	1	0
446.942	1	0
447.283	1	-6
447.624	1	-5
447.965	1	-4
448.306	1	0
448.647	1	-10
448.988	1	-5
449.329	1	1
449.670	1	5
450.011	1	-1
450.352	1	-9
450.693	1	-7
451.034	1	-21
451.375	1	-6
451.716	1	-1
452.057	1	-2
452.398	1	-7
452.739	1	-4
453.080	1	2
453.421	1	2
453.762	1	6
454.103	1	-3
454.444	1	-5
454.785	1	-13
455.126	1	-5
455.467	1	0
455.808	1	-4
456.149	1	8
456.490	1	-8
456.831	1	3
457.172	1	-3
457.513	1	-2
457.854	1	-4
458.195	1	-4
458.536	1	-2
458.877	1	6
459.218	1	-6
459.559	1	8
459.899	1	-10
460.240	1	7
460.581	1	10
460.922	1	0
461.263	1	-6
461.604	1	-8
461.945	1	-4
462.286	1	1
462.627	1	11
462.968	1	5
463.309	1	-17
463.649	1	-2
463.990	1	-2
464.331	1	-1
464.672	1	-5
465.013	1	0
465.354	1	2
465.695	1	-8
466.036	1	-9
466.376	1	-8
466.717	1	-4
467.058	1	2
467.399	1	5
467.740	1	2
468.081	1	4
468.422	1	-11
468.762	1	-8
469.103	1	-6
469.444	1	-5
469.785	1	-16
470.126	1	-15
470.467	1	-9
470.807	1	6
471.148	1	1
471.489	1	-1
471.830	1	-5
472.171	1	-2
472.511	1	-3
472.852	1	-4
473.193	1	4
473.534	1	5
473.875	1	11
474.215	1	10
474.556	1	-7
474.897	1	1
475.238	1	-2
475.578	1	-5
475.919	1	-1
476.260	1	-5
476.601	1	2
476.942	1	9
477.282	1	2
477.623	1	-8
477.964	1	2
478.305	1	2
478.645	1	5
478.986	1	-4
479.327	1	-11
479.667	1	-5
480.008	1	-4
480.349	1	0
480.690	1	2
481.030	1	-3
481.371	1	4
481.712	1	3
482.053	1	3
482.393	1	2
482.734	1	-10
483.075	1	-2
483.415	1	0
483.756	1	-1
484.097	1	-10
484.437	1	-3
484.778	1	-2
485.119	1	-6
485.459	1	11
485.800	1	2
486.141	1	-9
486.481	1	3
486.822	1	11
487.163	1	-10
487.503	1	-2
487.844	1	-1
488.185	1	2
488.525	1	8
488.866	1	1
489.207	1	4
489.547	1	-11
489.888	1	-7
490.228	1	-4
490.569	1	12
490.910	1	-9
491.250	1	-5
491.591	1	-6
491.932	1	6
492.272	1	4
492.613	1	-13
492.953	1	-4
493.294	1	-3
493.635	1	1
493.975	1	2
494.316	1	-8
494.656	1	-3
494.997	1	-8
495.337	1	8
495.678	1	-3
496.019	1	-11
496.359	1	-5
496.700	1	-5
497.040	1	-2
497.381	1	0
497.721	1	-3
498.062	1	-6
498.403	1	3
498.743	1	-8
499.084	1	1
499.424	1	2
499.765	1	-5
500.105	1	6
500.446	1	-10
500.786	1	-8
501.127	1	2
501.467	1	-8
501.808	1	5
502.148	1	5
502.489	1	7
502.829	1	0
503.170	1	11
503.510	1	8
503.851	1	0
504.191	1	10
504.532	1	2
504.872	1	-7
505.213	1	1
505.553	1	-5
505.894	1	-8
506.234	1	0
506.575	1	4
506.915	1	2
507.256	1	-7
507.596	1	-1
507.936	1	0
508.277	1	0
508.617	1	-1
508.958	1	-15
509.298	1	-5
509.639	1	-4
509.979	1	6
510.319	1	-2
510.660	1	-8
511.000	1	-9
511.341	1	-4
511.681	1	-6
512.022	1	1
512.362	1	-1
512.702	1	-7
513.043	1	4
513.383	1	-12
513.724	1	5
514.064	1	5
514.404	1	5
514.745	1	-4
515.085	1	-4
515.425	1	-10
515.766	1	-10
516.106	1	-1
516.447	1	8
516.787	1	3
517.127	1	-4
517.468	1	-2
517.808	1	-9
518.148	1	6
518.489	1	-4
518.829	1	-2
519.169	1	-4
519.510	1	-4
519.850	1	-3
520.190	1	-6
520.531	1	-4
520.871	1	-3
521.211	1	-20
521.552	1	9
521.892	1	-5
522.232	1	1
522.573	1	-13
522.913	1	3
523.253	1	-4
523.593	1	-5
523.934	1	-2
524.274	1	0
524.614	1	-7
524.955	1	-6
525.295	1	-4
525.635	1	-5
525.975	1	-8
526.316	1	10
526.656	1	-6
526.996	1	6
527.337	1	-2
527.677	1	2
528.017	1	-3
528.357	1	-4
528.698	1	2
529.038	1	-4
529.378	1	6
529.718	1	5
530.058	1	2
530.399	1	5
530.739	1	-3
531.079	1	2
531.419	1	2
531.760	1	0
532.100	1	-10
532.440	1	-1
532.780	1	-2
533.120	1	7
533.461	1	-1
533.801	1	13
534.141	1	-14
534.481	1	-5
534.821	1	2
535.162	1	-10
535.502	1	-5
535.842	1	-5
536.182	1	3
536.522	1	-10
536.862	1	11
537.203	1	-9
537.543	1	-4
537.883	1	-8
538.223	1	-3
538.563	1	5
538.903	1	-6
539.243	1	3
539.584	1	-5
539.924	1	1
540.264	1	-3
540.604	1	2
540.944	1	3
541.284	1	-4
541.624	1	7
541.964	1	8
542.305	1	7
542.645	1	-2
542.985	1	-4
543.325	1	-4
543.665	1	-1
544.005	1	9
544.345	1	-3
544.685	1	-6
545.025	1	-2
545.365	1	-2
545.705	1	2
546.045	1	-3
546.386	1	2
546.726	1	-3
547.066	1	0
547.406	1	-6
547.746	1	-12
548.086	1	-6
548.426	1	-10
548.766	1	1
549.106	1	-5
549.446	1	-1
549.786	1	-7
550.126	1	-1
550.466	1	-6
550.806	1	3
551.146	1	-1
551.486	1	0
551.826	1	11
552.166	1	12
552.506	1	11
552.846	1	6
553.186	1	-2
553.526	1	3
553.866	1	6
554.206	1	3
554.546	1	9
554.886	1	-2
555.226	1	-3
555.566	1	7
555.906	1	5
556.246	1	0
556.586	1	-8
556.926	1	1
557.266	1	-7
557.606	1	3
557.946	1	5
558.286	1	-2
558.626	1	5
558.966	1	-1
559.306	1	2
559.646	1	-5
559.986	1	-12
560.325	1	-3
560.665	1	-6
561.005	1	-6
561.345	1	-6
561.685	1	-1
562.025	1	-7
562.365	1	3
562.705	1	-8
563.045	1	-4
563.385	1	-13
563.725	1	-1
564.064	1	-5
564.404	1	11
564.744	1	7
565.084	1	-1
565.424	1	-4
565.764	1	-2
566.104	1	-4
566.444	1	-10
566.783	1	-7
567.123	1	4
567.463	1	-2
567.803	1	-7
568.143	1	-4
568.483	1	-2
568.823	1	-1
569.162	1	4
569.502	1	-9
569.842	1	-1
570.182	1	-1
570.522	1	-7
570.862	1	-5
571.201	1	-1
571.541	1	7
571.881	1	3
572.221	1	-10
572.561	1	1
572.900	1	-1
573.240	1	2
573.580	1	-5
573.920	1	0
574.260	1	8
574.599	1	2
574.939	1	5
575.279	1	3
575.619	1	7
575.959	1	-9
576.298	1	12
576.638	1	-10
576.978	1	9
577.318	1	8
577.657	1	3
577.997	1	-2
578.337	1	9
578.677	1	-4
579.016	1	8
579.356	1	1
579.696	1	-4
580.036	1	-6
580.375	1	0
580.715	1	-2
581.055	1	-2
581.394	1	-4
581.734	1	-11
582.074	1	-2
582.414	1	9
582.753	1	0
583.093	1	-2
583.433	1	-7
583.772	1	7
584.112	1	1
584.452	1	-1
584.791	1	-6
585.131	1	0
585.471	1	10
585.811	1	-1
586.150	1	0
586.490	1	4
586.830	1	-2
587.169	1	9
587.509	1	0
587.849	1	-2
588.188	1	8
588.528	1	-2
588.867	1	0
589.207	1	1
589.547	1	2
589.886	1	-5
590.226	1	5
590.566	1	-2
590.905	1	6
591.245	1	-2
591.585	1	-6
591.924	1	-4
592.264	1	4
592.603	1	2
592.943	1	-4
593.283	1	3
593.622	1	-3
593.962	1	1
594.301	1	-6
594.641	1	-3
594.981	1	-6
595.320	1	14
595.660	1	0
595.999	1	0
596.339	1	7
596.678	1	-10
597.018	1	-11
597.358	1	6
597.697	1	-1
598.037	1	-8
598.376	1	3
598.716	1	11
599.055	1	-6
599.395	1	-3
599.734	1	3
600.074	1	4
600.413	1	9
600.753	1	-4
601.092	1	8
601.432	1	-2
601.771	1	-3
602.111	1	5
602.451	1	5
602.790	1	-5
603.130	1	-5
603.469	1	-7
603.809	1	-7
604.148	1	3
604.487	1	-5
604.827	1	-1
605.166	1	3
605.506	1	3
605.845	1	-1
606.185	1	0
606.524	1	-9
606.864	1	-14
607.203	1	-4
607.543	1	-4
607.882	1	6
608.222	1	4
608.561	1	-5
608.901	1	0
609.240	1	-12
609.579	1	-1
609.919	1	6
610.258	1	5
610.598	1	-12
610.937	1	-8
611.277	1	1
611.616	1	0
611.955	1	0
612.295	1	-14
612.634	1	-4
612.974	1	-19
613.313	1	3
613.652	1	7
613.992	1	-5
614.331	1	5
614.671	1	-2
615.010	1	-6
615.349	1	4
615.689	1	5
616.028	1	-3
616.368	1	0
616.707	1	4
617.046	1	-1
617.386	1	4
617.725	1	-4
618.064	1	-3
618.404	1	-9
618.743	1	5
619.082	1	2
619.422	1	-11
619.761	1	-1
620.100	1	-6
620.440	1	2
620.779	1	-12
621.118	1	-5
621.458	1	-3
621.797	1	-4
622.136	1	11
622.476	1	2
622.815	1	10
623.154	1	7
623.494	1	7
623.833	1	5
624.172	1	1
624.511	1	5
624.851	1	-5
625.190	1	-5
625.529	1	3
625.869	1	13
626.208	1	3
626.547	1	0
626.886	1	7
627.226	1	5
627.565	1	-2
627.904	1	-2
628.243	1	2
628.583	1	1
628.922	1	12
629.261	1	2
629.600	1	12
629.940	1	2
630.279	1	-7
630.618	1	-3
630.957	1	-5
631.297	1	1
631.636	1	-13
631.975	1	9
632.314	1	4
632.653	1	-2
632.993	1	-2
633.332	1	0
633.671	1	-8
634.010	1	-4
634.349	1	1
634.689	1	-1
635.028	1	-1
635.367	1	-8
635.706	1	4
636.045	1	6
636.384	1	5
636.724	1	4
637.063	1	-6
637.402	1	-2
637.741	1	8
638.080	1	-10
638.419	1	-6
638.759	1	-5
639.098	1	1
639.437	1	-4
639.776	1	-9
640.115	1	-4
640.454	1	-7
640.793	1	13
641.132	1	5
641.472	1	8
641.811	1	-2
642.150	1	-13
642.489	1	-1
642.828	1	-6
643.167	1	-7
643.506	1	-10
643.845	1	-5
644.184	1	9
644.524	1	-7
644.863	1	-12
645.202	1	4
645.541	1	-4
645.880	1	3
646.219	1	1
646.558	1	1
646.897	1	0
647.236	1	-1
647.575	1	4
647.914	1	-1
648.253	1	7
648.592	1	-4
648.931	1	10
649.270	1	8
649.610	1	-3
649.949	1	2
650.288	1	6
650.627	1	-4
650.966	1	0
651.305	1	-3
651.644	1	8
651.983	1	4
652.322	1	-9
652.661	1	-6
653.000	1	-2
653.339	1	5
653.678	1	-10
654.017	1	-6
654.356	1	-2
654.695	1	-1
655.034	1	9
655.373	1	1
655.712	1	-1
656.051	1	-5
656.390	1	-2
656.729	1	6
657.068	1	-5
657.406	1	-4
657.745	1	-6
658.084	1	2
658.423	1	8
658.762	1	-7
659.101	1	-1
659.440	1	-7
659.779	1	-1
660.118	1	6
660.457	1	-3
660.796	1	-16
661.135	1	-7
661.474	1	-6
661.813	1	15
662.152	1	3
662.491	1	-7
662.829	1	-7
663.168	1	2
663.507	1	14
663.846	1	-10
664.185	1	4
664.524	1	-8
664.863	1	-3
665.202	1	-5
665.541	1	-18
665.879	1	-7
666.218	1	-13
666.557	1	-3
666.896	1	-15
667.235	1	2
667.574	1	7
667.913	1	0
668.251	1	-8
668.590	1	-11
668.929	1	-11
669.268	1	-1
669.607	1	-3
669.946	1	-5
670.285	1	10
670.623	1	-5
670.962	1	-1
671.301	1	7
671.640	1	2
671.979	1	-6
672.317	1	-2
672.656	1	1
672.995	1	8
673.334	1	-1
673.673	1	4
674.011	1	-4
674.350	1	8
674.689	1	1
675.028	1	1
675.367	1	2
675.705	1	11
676.044	1	-1
676.383	1	1
676.722	1	-6
677.060	1	-16
677.399	1	-5
677.738	1	9
678.077	1	2
678.416	1	-3
678.754	1	-6
679.093	1	6
679.432	1	-3
679.771	1	-7
680.109	1	6
680.448	1	-2
680.787	1	3
681.125	1	2
681.464	1	9
681.803	1	-3
682.142	1	8
682.480	1	11
682.819	1	9
683.158	1	-5
683.496	1	3
683.835	1	0
684.174	1	-10
684.512	1	-3
684.851	1	10
685.190	1	-7
685.529	1	-9
685.867	1	2
686.206	1	-4
686.545	1	-13
686.883	1	-5
687.222	1	-3
687.561	1	5
687.899	1	6
688.238	1	8
688.577	1	6
688.746	1	-3