File: Data/GaN_200K_800ms/GaN_sample F_spot 12_UVVIS_200 K_200um_800 ms 2x2mm1_538.txt
340.368	1	-3
340.710	1	-12
341.052	1	6
341.394	1	-3
341.737	1	5
342.079	1	1
342.421	1	-3
342.763	1	8
343.105	1	6
343.447	1	-9
343.789	1	-3
344.131	1	-7
344.473	1	-14
344.815	1	1
345.157	1	-10
345.499	1	3
345.841	1	10
346.183	1	-4
346.526	1	-5
346.868	1	7
347.210	1	-6
347.552	1	-6
347.894	1	-5
348.236	1	14
348.578	1	3
348.920	1	-3
349.262	1	-4
349.604	1	1
349.946	1	-11
350.288	1	5
350.630	1	1
350.972	1	-1
351.314	1	-1
351.656	1	9
351.998	1	3
352.340	1	3
352.682	1	8
353.024	1	6
353.366	1	8
353.708	1	5
354.050	1	-1
354.392	1	-4
354.734	1	8
355.076	1	3
355.418	1	-12
355.760	1	-9
356.102	1	6
356.444	1	2
356.785	1	2
357.127	1	-1
357.469	1	2
357.811	1	-4
358.153	1	5
358.495	1	-5
358.837	1	-9
359.179	1	-1
359.521	1	6
359.863	1	7
360.205	1	-6
360.547	1	4
360.889	1	-9
361.231	1	-6
361.572	1	6
361.914	1	1
362.256	1	3
362.598	1	-1
362.940	1	-4
363.282	1	10
363.624	1	7
363.966	1	2
364.308	1	4
364.649	1	0
364.991	1	-1
365.333	1	-6
365.675	1	-2
366.017	1	2
366.359	1	3
366.701	1	2
367.042	1	8
367.384	1	7
367.726	1	3
368.068	1	7
368.410	1	13
368.752	1	2
369.093	1	2
369.435	1	14
369.777	1	3
370.119	1	-5
370.461	1	15
370.803	1	8
371.144	1	7
371.486	1	9
371.828	1	-2
372.170	1	9
372.512	1	1
372.853	1	7
373.195	1	6
373.537	1	4
373.879	1	6
374.220	1	15
374.562	1	11
374.904	1	2
375.246	1	3
375.588	1	-7
375.929	1	1
376.271	1	10
376.613	1	-5
376.955	1	-6
377.296	1	2
377.638	1	2
377.980	1	1
378.321	1	-8
378.663	1	-1
379.005	1	8
379.347	1	5
379.688	1	9
380.030	1	1
380.372	1	2
380.714	1	10
381.055	1	9
381.397	1	-4
381.739	1	0
382.080	1	3
382.422	1	2
382.764	1	-6
383.105	1	-6
383.447	1	2
383.789	1	-4
384.130	1	7
384.472	1	-1
384.814	1	1
385.156	1	-7
385.497	1	5
385.839	1	-3
386.180	1	7
386.522	1	4
386.864	1	4
387.205	1	1
387.547	1	-8
387.889	1	-1
388.230	1	-2
388.572	1	-2
388.914	1	-1
389.255	1	-10
389.597	1	-3
389.939	1	3
390.280	1	7
390.622	1	-1
390.963	1	2
391.305	1	5
391.647	1	3
391.988	1	4
392.330	1	0
392.671	1	-2
393.013	1	-8
393.355	1	4
393.696	1	2
394.038	1	2
394.379	1	1
394.721	1	-7
395.062	1	6
395.404	1	-11
395.746	1	10
396.087	1	-6
396.429	1	4
396.770	1	1
397.112	1	5
397.453	1	3
397.795	1	1
398.136	1	-3
398.478	1	-1
398.819	1	5
399.161	1	7
399.503	1	6
399.844	1	3
400.186	1	-7
400.527	1	-4
400.869	1	-2
401.210	1	-1
401.552	1	-14
401.893	1	-3
402.235	1	-8
402.576	1	1
402.918	1	2
403.259	1	4
403.601	1	0
403.942	1	13
404.284	1	6
404.625	1	6
404.967	1	-6
405.308	1	13
405.649	1	-10
405.991	1	-7
406.332	1	5
406.674	1	-10
407.015	1	4
407.357	1	-8
407.698	1	6
408.040	1	-9
408.381	1	-14
408.722	1	-17
409.064	1	5
409.405	1	6
409.747	1	4
410.088	1	1
410.430	1	7
410.771	1	10
411.112	1	-1
411.454	1	-8
411.795	1	-4
412.137	1	1
412.478	1	7
412.819	1	6
413.161	1	8
413.502	1	-5
413.844	1	2
414.185	1	7
414.526	1	-6
414.868	1	-3
415.209	1	-7
415.550	1	-2
415.892	1	9
416.233	1	5
416.575	1	8
416.916	1	-11
417.257	1	2
417.599	1	7
417.940	1	4
418.281	1	6
418.623	1	-8
418.964	1	-10
419.305	1	2
419.647	1	-2
419.988	1	-3
420.329	1	-9
420.671	1	2
421.012	1	0
421.353	1	-11
421.695	1	1
422.036	1	-2
422.377	1	1
422.718	1	13
423.060	1	-4
423.401	1	-5
423.742	1	1
424.084	1	0
424.425	1	3
424.766	1	-6
425.107	1	-12
425.449	1	1
425.790	1	-18
426.131	1	-1
426.472	1	1
426.814	1	-2
427.155	1	-4
427.496	1	-6
427.837	1	-6
428.179	1	-8
428.520	1	2
428.861	1	-5
429.202	1	9
429.544	1	-2
429.885	1	-2
430.226	1	-10
430.567	1	-2
430.909	1	4
431.250	1	-4
431.591	1	0
431.932	1	0
432.273	1	3
432.615	1	-6
432.956	1	-13
433.297	1	-3
433.638	1	-11
433.979	1	2
434.320	1	1
434.662	1	1
435.003	1	0
435.344	1	1
435.685	1	-4
436.026	1	0
436.368	1	8
436.709	1	5
437.050	1	1
437.391	1	8
437.732	1	-7
438.073	1	6
438.414	1	-8
438.756	1	-7
439.097	1	-12
439.438	1	-4
439.779	1	-4
440.120	1	2
440.461	1	3
440.802	1	-5
441.143	1	4
441.485	1	4
441.826	1	-5
442.167	1	-2
442.508	1	-9
442.849	1	9
443.190	1	-5
443.531	1	0
443.872	1	1
444.213	1	5
444.554	1	2
444.895	1	6
445.237	1	-12
445.578	1	-8
445.919	1	-15
446.260	1	0
446.601	1	-9
446.942	1	1
447.283	1	-8
447.624	1	6
447.965	1	1
448.306	1	-5
448.647	1	-7
448.988	1	-7
449.329	1	-6
449.670	1	6
450.011	1	11
450.352	1	-5
450.693	1	-8
451.034	1	-15
451.375	1	2
451.716	1	0
452.057	1	1
452.398	1	0
452.739	1	6
453.080	1	-7
453.421	1	-2
453.762	1	-3
454.103	1	-5
454.444	1	-9
454.785	1	-1
455.126	1	-3
455.467	1	-8
455.808	1	-3
456.149	1	2
456.490	1	-2
456.831	1	2
457.172	1	-1
457.513	1	3
457.854	1	0
458.195	1	-2
458.536	1	7
458.877	1	3
459.218	1	0
459.559	1	13
459.899	1	-6
460.240	1	-4
460.581	1	10
460.922	1	0
461.263	1	-8
461.604	1	-2
461.945	1	3
462.286	1	0
462.627	1	6
462.968	1	-8
463.309	1	-5
463.649	1	2
463.990	1	-3
464.331	1	1
464.672	1	-8
465.013	1	2
465.354	1	-2
465.695	1	-6
466.036	1	-5
466.376	1	-11
466.717	1	-11
467.058	1	-3
467.399	1	0
467.740	1	1
468.081	1	-2
468.422	1	-5
468.762	1	-4
469.103	1	-12
469.444	1	-6
469.785	1	-10
470.126	1	-8
470.467	1	-6
470.807	1	-2
471.148	1	0
471.489	1	-5
471.830	1	-4
472.171	1	5
472.511	1	2
472.852	1	0
473.193	1	11
473.534	1	3
473.875	1	17
474.215	1	13
474.556	1	3
474.897	1	0
475.238	1	1
475.578	1	-8
475.919	1	-6
476.260	1	9
476.601	1	-4
476.942	1	3
477.282	1	-1
477.623	1	-12
477.964	1	3
478.305	1	-1
478.645	1	13
478.986	1	0
479.327	1	-9
479.667	1	2
480.008	1	2
480.349	1	-3
480.690	1	4
481.030	1	-5
481.371	1	-2
481.712	1	8
482.053	1	-8
482.393	1	-4
482.734	1	-9
483.075	1	-4
483.415	1	3
483.756	1	12
484.097	1	1
484.437	1	-2
484.778	1	3
485.119	1	6
485.459	1	13
485.800	1	4
486.141	1	-2
486.481	1	3
486.822	1	5
487.163	1	-7
487.503	1	-12
487.844	1	1
488.185	1	-1
488.525	1	0
488.866	1	0
489.207	1	-9
489.547	1	5
489.888	1	-8
490.228	1	2
490.569	1	10
490.910	1	5
491.250	1	-8
491.591	1	-7
491.932	1	-8
492.272	1	9
492.613	1	-4
492.953	1	-7
493.294	1	-4
493.635	1	-8
493.975	1	-3
494.316	1	-1
494.656	1	-3
494.997	1	0
495.337	1	2
495.678	1	1
496.019	1	-14
496.359	1	-11
496.700	1	2
497.040	1	-6
497.381	1	-16
497.721	1	-9
498.062	1	-11
498.403	1	-3
498.743	1	2
499.084	1	-7
499.424	1	2
499.765	1	-7
500.105	1	-6
500.446	1	-12
500.786	1	-11
501.127	1	2
501.467	1	-5
501.808	1	7
502.148	1	-1
502.489	1	-5
502.829	1	2
503.170	1	7
503.510	1	9
503.851	1	-10
504.191	1	12
504.532	1	-6
504.872	1	-2
505.213	1	8
505.553	1	-11
505.894	1	-5
506.234	1	12
506.575	1	6
506.915	1	1
507.256	1	0
507.596	1	-5
507.936	1	3
508.277	1	-3
508.617	1	5
508.958	1	-9
509.298	1	-5
509.639	1	-9
509.979	1	2
510.319	1	9
510.660	1	-6
511.000	1	0
511.341	1	-4
511.681	1	11
512.022	1	-7
512.362	1	-2
512.702	1	-5
513.043	1	8
513.383	1	-11
513.724	1	-4
514.064	1	7
514.404	1	-6
514.745	1	7
515.085	1	-2
515.425	1	-10
515.766	1	-17
516.106	1	8
516.447	1	9
516.787	1	0
517.127	1	-2
517.468	1	-6
517.808	1	-5
518.148	1	-4
518.489	1	4
518.829	1	4
519.169	1	0
519.510	1	3
519.850	1	1
520.190	1	-3
520.531	1	1
520.871	1	-1
521.211	1	-14
521.552	1	1
521.892	1	5
522.232	1	3
522.573	1	-4
522.913	1	4
523.253	1	4
523.593	1	0
523.934	1	-2
524.274	1	-2
524.614	1	-7
524.955	1	-9
525.295	1	3
525.635	1	-5
525.975	1	-8
526.316	1	11
526.656	1	-4
526.996	1	3
527.337	1	-5
527.677	1	-3
528.017	1	-10
528.357	1	5
528.698	1	4
529.038	1	3
529.378	1	7
529.718	1	1
530.058	1	-9
530.399	1	8
530.739	1	-3
531.079	1	3
531.419	1	-2
531.760	1	-5
532.100	1	-9
532.440	1	-10
532.780	1	-7
533.120	1	4
533.461	1	-4
533.801	1	9
534.141	1	-12
534.481	1	-13
534.821	1	9
535.162	1	-8
535.502	1	-4
535.842	1	5
536.182	1	-9
536.522	1	-1
536.862	1	-6
537.203	1	-1
537.543	1	-7
537.883	1	-1
538.223	1	4
538.563	1	8
538.903	1	-13
539.243	1	1
539.584	1	-7
539.924	1	5
540.264	1	-5
540.604	1	1
540.944	1	-1
541.284	1	8
541.624	1	8
541.964	1	2
542.305	1	2
542.645	1	-1
542.985	1	-1
543.325	1	2
543.665	1	13
544.005	1	11
544.345	1	2
544.685	1	0
545.025	1	-3
545.365	1	-2
545.705	1	2
546.045	1	-8
546.386	1	15
546.726	1	-14
547.066	1	-7
547.406	1	0
547.746	1	-9
548.086	1	-6
548.426	1	-8
548.766	1	-7
549.106	1	1
549.446	1	-6
549.786	1	-7
550.126	1	22
550.466	1	3
550.806	1	-6
551.146	1	-7
551.486	1	-6
551.826	1	2
552.166	1	0
552.506	1	7
552.846	1	-10
553.186	1	1
553.526	1	-11
553.866	1	-3
554.206	1	5
554.546	1	2
554.886	1	1
555.226	1	-11
555.566	1	-1
555.906	1	8
556.246	1	0
556.586	1	2
556.926	1	-3
557.266	1	-7
557.606	1	9
557.946	1	9
558.286	1	-3
558.626	1	7
558.966	1	-4
559.306	1	-2
559.646	1	0
559.986	1	-10
560.325	1	-8
560.665	1	-2
561.005	1	1
561.345	1	-6
561.685	1	-5
562.025	1	-1
562.365	1	16
562.705	1	0
563.045	1	-6
563.385	1	-10
563.725	1	-2
564.064	1	0
564.404	1	9
564.744	1	3
565.084	1	-5
565.424	1	2
565.764	1	7
566.104	1	-4
566.444	1	-9
566.783	1	-6
567.123	1	10
567.463	1	2
567.803	1	-10
568.143	1	2
568.483	1	5
568.823	1	6
569.162	1	-1
569.502	1	-2
569.842	1	3
570.182	1	-3
570.522	1	-10
570.862	1	-2
571.201	1	2
571.541	1	-9
571.881	1	14
572.221	1	-6
572.561	1	-4
572.900	1	-8
573.240	1	-3
573.580	1	2
573.920	1	1
574.260	1	4
574.599	1	-8
574.939	1	-3
575.279	1	7
575.619	1	8
575.959	1	-8
576.298	1	11
576.638	1	-7
576.978	1	5
577.318	1	10
577.657	1	-3
577.997	1	0
578.337	1	5
578.677	1	-1
579.016	1	0
579.356	1	-8
579.696	1	-1
580.036	1	2
580.375	1	8
580.715	1	4
581.055	1	-7
581.394	1	-7
581.734	1	-13
582.074	1	-4
582.414	1	7
582.753	1	-6
583.093	1	1
583.433	1	3
583.772	1	11
584.112	1	-5
584.452	1	3
584.791	1	2
585.131	1	-3
585.471	1	3
585.811	1	2
586.150	1	1
586.490	1	-4
586.830	1	0
587.169	1	5
587.509	1	-1
587.849	1	1
588.188	1	5
588.528	1	-5
588.867	1	7
589.207	1	1
589.547	1	-2
589.886	1	-11
590.226	1	-8
590.566	1	-7
590.905	1	-9
591.245	1	-6
591.585	1	0
591.924	1	-3
592.264	1	-5
592.603	1	5
592.943	1	7
593.283	1	4
593.622	1	-3
593.962	1	8
594.301	1	6
594.641	1	-3
594.981	1	-2
595.320	1	0
595.660	1	-3
595.999	1	-5
596.339	1	2
596.678	1	-6
597.018	1	-3
597.358	1	2
597.697	1	-1
598.037	1	-12
598.376	1	0
598.716	1	-1
599.055	1	7
599.395	1	-2
599.734	1	-1
600.074	1	-3
600.413	1	9
600.753	1	4
601.092	1	8
601.432	1	-5
601.771	1	7
602.111	1	2
602.451	1	-3
602.790	1	-11
603.130	1	2
603.469	1	2
603.809	1	-5
604.148	1	-5
604.487	1	-5
604.827	1	6
605.166	1	9
605.506	1	-2
605.845	1	-3
606.185	1	6
606.524	1	-7
606.864	1	-5
607.203	1	-11
607.543	1	-1
607.882	1	1
608.222	1	0
608.561	1	-3
608.901	1	8
609.240	1	-5
609.579	1	7
609.919	1	11
610.258	1	8
610.598	1	-4
610.937	1	4
611.277	1	-9
611.616	1	-3
611.955	1	-1
612.295	1	-5
612.634	1	2
612.974	1	-20
613.313	1	10
613.652	1	-7
613.992	1	-3
614.331	1	0
614.671	1	0
615.010	1	-1
615.349	1	5
615.689	1	-1
616.028	1	-5
616.368	1	-2
616.707	1	0
617.046	1	3
617.386	1	-5
617.725	1	-2
618.064	1	0
618.404	1	-1
618.743	1	2
619.082	1	1
619.422	1	-7
619.761	1	1
620.100	1	6
620.440	1	3
620.779	1	-10
621.118	1	1
621.458	1	5
621.797	1	-7
622.136	1	15
622.476	1	4
622.815	1	7
623.154	1	3
623.494	1	14
623.833	1	6
624.172	1	-2
624.511	1	-2
624.851	1	-12
625.190	1	-6
625.529	1	-4
625.869	1	12
626.208	1	3
626.547	1	3
626.886	1	4
627.226	1	2
627.565	1	-8
627.904	1	-8
628.243	1	6
628.583	1	0
628.922	1	0
629.261	1	-5
629.600	1	6
629.940	1	0
630.279	1	-3
630.618	1	-8
630.957	1	-3
631.297	1	-4
631.636	1	-10
631.975	1	19
632.314	1	-5
632.653	1	6
632.993	1	-3
633.332	1	0
633.671	1	-1
634.010	1	-12
634.349	1	4
634.689	1	2
635.028	1	4
635.367	1	-2
635.706	1	-4
636.045	1	4
636.384	1	0
636.724	1	2
637.063	1	-5
637.402	1	-8
637.741	1	-3
638.080	1	1
638.419	1	-11
638.759	1	-6
639.098	1	12
639.437	1	9
639.776	1	-3
640.115	1	-1
640.454	1	-5
640.793	1	5
641.132	1	14
641.472	1	3
641.811	1	1
642.150	1	-12
642.489	1	-3
642.828	1	-10
643.167	1	-8
643.506	1	-13
643.845	1	-4
644.184	1	1
644.524	1	-2
644.863	1	-9
645.202	1	2
645.541	1	-1
645.880	1	0
646.219	1	-1
646.558	1	-1
646.897	1	5
647.236	1	1
647.575	1	3
647.914	1	1
648.253	1	2
648.592	1	-6
648.931	1	11
649.270	1	-4
649.610	1	1
649.949	1	-5
650.288	1	6
650.627	1	-4
650.966	1	0
651.305	1	-3
651.644	1	11
651.983	1	0
652.322	1	-4
652.661	1	-6
653.000	1	7
653.339	1	6
653.678	1	-3
654.017	1	-10
654.356	1	-8
654.695	1	3
655.034	1	-5
655.373	1	13
655.712	1	1
656.051	1	4
656.390	1	3
656.729	1	8
657.068	1	-1
657.406	1	-3
657.745	1	-9
658.084	1	-3
658.423	1	1
658.762	1	2
659.101	1	11
659.440	1	-5
659.779	1	-7
660.118	1	-4
660.457	1	4
660.796	1	-7
661.135	1	0
661.474	1	-6
661.813	1	16
662.152	1	-2
662.491	1	-8
662.829	1	0
663.168	1	-4
663.507	1	7
663.846	1	-5
664.185	1	0
664.524	1	-3
664.863	1	-4
665.202	1	-2
665.541	1	-10
665.879	1	-10
666.218	1	-13
666.557	1	-7
666.896	1	-6
667.235	1	5
667.574	1	-11
667.913	1	2
668.251	1	-8
668.590	1	-1
668.929	1	-14
669.268	1	-4
669.607	1	0
669.946	1	-1
670.285	1	7
670.623	1	-7
670.962	1	-3
671.301	1	4
671.640	1	4
671.979	1	-2
672.317	1	3
672.656	1	4
672.995	1	4
673.334	1	4
673.673	1	-1
674.011	1	5
674.350	1	-2
674.689	1	-1
675.028	1	-8
675.367	1	2
675.705	1	10
676.044	1	-4
676.383	1	2
676.722	1	7
677.060	1	0
677.399	1	-9
677.738	1	4
678.077	1	2
678.416	1	0
678.754	1	-4
679.093	1	-3
679.432	1	-6
679.771	1	-1
680.109	1	5
680.448	1	2
680.787	1	-10
681.125	1	4
681.464	1	-3
681.803	1	-1
682.142	1	5
682.480	1	-6
682.819	1	-4
683.158	1	-4
683.496	1	8
683.835	1	-5
684.174	1	1
684.512	1	-10
684.851	1	0
685.190	1	-12
685.529	1	9
685.867	1	0
686.206	1	-11
686.545	1	-8
686.883	1	-2
687.222	1	3
687.561	1	0
687.899	1	-8
688.238	1	6
688.577	1	-3
688.746	1	-1