File: Data/GaN_200K_800ms/GaN_sample F_spot 12_UVVIS_200 K_200um_800 ms 2x2mm1_169.txt
340.368	1	5
340.710	1	-1
341.052	1	8
341.394	1	-9
341.737	1	10
342.079	1	-9
342.421	1	0
342.763	1	3
343.105	1	3
343.447	1	-6
343.789	1	5
344.131	1	-3
344.473	1	0
344.815	1	2
345.157	1	-8
345.499	1	-1
345.841	1	6
346.183	1	0
346.526	1	5
346.868	1	-1
347.210	1	-11
347.552	1	-1
347.894	1	-2
348.236	1	7
348.578	1	1
348.920	1	-3
349.262	1	0
349.604	1	0
349.946	1	-4
350.288	1	13
350.630	1	5
350.972	1	2
351.314	1	8
351.656	1	5
351.998	1	-4
352.340	1	5
352.682	1	2
353.024	1	7
353.366	1	16
353.708	1	6
354.050	1	-3
354.392	1	1
354.734	1	9
355.076	1	5
355.418	1	-4
355.760	1	3
356.102	1	16
356.444	1	4
356.785	1	13
357.127	1	2
357.469	1	4
357.811	1	6
358.153	1	12
358.495	1	6
358.837	1	4
359.179	1	6
359.521	1	8
359.863	1	12
360.205	1	0
360.547	1	16
360.889	1	13
361.231	1	2
361.572	1	13
361.914	1	12
362.256	1	14
362.598	1	6
362.940	1	15
363.282	1	17
363.624	1	23
363.966	1	9
364.308	1	16
364.649	1	24
364.991	1	25
365.333	1	23
365.675	1	24
366.017	1	24
366.359	1	23
366.701	1	34
367.042	1	36
367.384	1	39
367.726	1	41
368.068	1	40
368.410	1	49
368.752	1	38
369.093	1	33
369.435	1	46
369.777	1	35
370.119	1	37
370.461	1	48
370.803	1	38
371.144	1	36
371.486	1	44
371.828	1	48
372.170	1	41
372.512	1	30
372.853	1	30
373.195	1	32
373.537	1	35
373.879	1	30
374.220	1	40
374.562	1	41
374.904	1	28
375.246	1	26
375.588	1	26
375.929	1	16
376.271	1	36
376.613	1	21
376.955	1	11
377.296	1	17
377.638	1	15
377.980	1	21
378.321	1	11
378.663	1	1
379.005	1	21
379.347	1	13
379.688	1	15
380.030	1	14
380.372	1	17
380.714	1	16
381.055	1	17
381.397	1	5
381.739	1	22
382.080	1	19
382.422	1	14
382.764	1	7
383.105	1	6
383.447	1	11
383.789	1	5
384.130	1	7
384.472	1	14
384.814	1	-4
385.156	1	5
385.497	1	20
385.839	1	10
386.180	1	8
386.522	1	12
386.864	1	20
387.205	1	2
387.547	1	6
387.889	1	5
388.230	1	12
388.572	1	2
388.914	1	8
389.255	1	-5
389.597	1	8
389.939	1	0
390.280	1	15
390.622	1	2
390.963	1	15
391.305	1	5
391.647	1	11
391.988	1	9
392.330	1	11
392.671	1	2
393.013	1	4
393.355	1	15
393.696	1	6
394.038	1	7
394.379	1	15
394.721	1	-13
395.062	1	12
395.404	1	0
395.746	1	12
396.087	1	-7
396.429	1	2
396.770	1	-7
397.112	1	7
397.453	1	12
397.795	1	7
398.136	1	6
398.478	1	-4
398.819	1	7
399.161	1	10
399.503	1	-5
399.844	1	5
400.186	1	1
400.527	1	-4
400.869	1	-4
401.210	1	1
401.552	1	-3
401.893	1	5
402.235	1	1
402.576	1	-4
402.918	1	19
403.259	1	11
403.601	1	8
403.942	1	8
404.284	1	9
404.625	1	4
404.967	1	3
405.308	1	4
405.649	1	-3
405.991	1	-3
406.332	1	12
406.674	1	-9
407.015	1	10
407.357	1	-2
407.698	1	0
408.040	1	-7
408.381	1	5
408.722	1	-12
409.064	1	4
409.405	1	4
409.747	1	8
410.088	1	-4
410.430	1	11
410.771	1	6
411.112	1	2
411.454	1	0
411.795	1	-1
412.137	1	9
412.478	1	4
412.819	1	0
413.161	1	0
413.502	1	0
413.844	1	6
414.185	1	-2
414.526	1	-8
414.868	1	-4
415.209	1	-1
415.550	1	-2
415.892	1	10
416.233	1	7
416.575	1	2
416.916	1	-4
417.257	1	6
417.599	1	4
417.940	1	10
418.281	1	6
418.623	1	7
418.964	1	-8
419.305	1	-1
419.647	1	-8
419.988	1	0
420.329	1	-1
420.671	1	6
421.012	1	2
421.353	1	-2
421.695	1	-7
422.036	1	1
422.377	1	0
422.718	1	4
423.060	1	-1
423.401	1	-4
423.742	1	15
424.084	1	4
424.425	1	9
424.766	1	-3
425.107	1	-4
425.449	1	9
425.790	1	-4
426.131	1	2
426.472	1	1
426.814	1	-3
427.155	1	-3
427.496	1	-2
427.837	1	-4
428.179	1	-3
428.520	1	-4
428.861	1	1
429.202	1	-3
429.544	1	-4
429.885	1	-1
430.226	1	-8
430.567	1	-1
430.909	1	-8
431.250	1	1
431.591	1	-5
431.932	1	-5
432.273	1	-6
432.615	1	0
432.956	1	-6
433.297	1	5
433.638	1	0
433.979	1	5
434.320	1	5
434.662	1	5
435.003	1	1
435.344	1	3
435.685	1	-3
436.026	1	11
436.368	1	2
436.709	1	-5
437.050	1	-4
437.391	1	10
437.732	1	-1
438.073	1	-2
438.414	1	-7
438.756	1	4
439.097	1	-13
439.438	1	-7
439.779	1	-6
440.120	1	5
440.461	1	2
440.802	1	-4
441.143	1	10
441.485	1	8
441.826	1	8
442.167	1	0
442.508	1	-6
442.849	1	11
443.190	1	2
443.531	1	7
443.872	1	8
444.213	1	9
444.554	1	7
444.895	1	1
445.237	1	3
445.578	1	-11
445.919	1	-6
446.260	1	-5
446.601	1	-5
446.942	1	16
447.283	1	-3
447.624	1	-1
447.965	1	-2
448.306	1	0
448.647	1	-11
448.988	1	3
449.329	1	1
449.670	1	13
450.011	1	14
450.352	1	-1
450.693	1	2
451.034	1	-1
451.375	1	0
451.716	1	-1
452.057	1	4
452.398	1	9
452.739	1	6
453.080	1	8
453.421	1	-3
453.762	1	3
454.103	1	0
454.444	1	-5
454.785	1	-4
455.126	1	-7
455.467	1	1
455.808	1	-2
456.149	1	5
456.490	1	6
456.831	1	7
457.172	1	-11
457.513	1	7
457.854	1	9
458.195	1	-3
458.536	1	3
458.877	1	1
459.218	1	-8
459.559	1	4
459.899	1	-1
460.240	1	-2
460.581	1	13
460.922	1	4
461.263	1	-4
461.604	1	-5
461.945	1	-1
462.286	1	-3
462.627	1	2
462.968	1	6
463.309	1	-5
463.649	1	-2
463.990	1	-2
464.331	1	1
464.672	1	-3
465.013	1	-8
465.354	1	5
465.695	1	5
466.036	1	-6
466.376	1	3
466.717	1	2
467.058	1	1
467.399	1	7
467.740	1	-1
468.081	1	4
468.422	1	0
468.762	1	-8
469.103	1	-8
469.444	1	-6
469.785	1	-10
470.126	1	-14
470.467	1	-3
470.807	1	6
471.148	1	5
471.489	1	2
471.830	1	4
472.171	1	6
472.511	1	-8
472.852	1	-1
473.193	1	8
473.534	1	7
473.875	1	12
474.215	1	-1
474.556	1	-1
474.897	1	6
475.238	1	4
475.578	1	-10
475.919	1	-9
476.260	1	-6
476.601	1	-3
476.942	1	8
477.282	1	3
477.623	1	-11
477.964	1	2
478.305	1	3
478.645	1	6
478.986	1	10
479.327	1	-13
479.667	1	1
480.008	1	2
480.349	1	6
480.690	1	5
481.030	1	-6
481.371	1	10
481.712	1	6
482.053	1	8
482.393	1	-5
482.734	1	-1
483.075	1	3
483.415	1	5
483.756	1	11
484.097	1	-3
484.437	1	-2
484.778	1	6
485.119	1	0
485.459	1	12
485.800	1	5
486.141	1	-8
486.481	1	-2
486.822	1	11
487.163	1	9
487.503	1	4
487.844	1	-7
488.185	1	2
488.525	1	2
488.866	1	8
489.207	1	-5
489.547	1	-4
489.888	1	1
490.228	1	5
490.569	1	7
490.910	1	3
491.250	1	1
491.591	1	-6
491.932	1	3
492.272	1	0
492.613	1	3
492.953	1	-4
493.294	1	2
493.635	1	0
493.975	1	-6
494.316	1	3
494.656	1	9
494.997	1	-4
495.337	1	6
495.678	1	-1
496.019	1	-2
496.359	1	-6
496.700	1	0
497.040	1	-6
497.381	1	-3
497.721	1	-4
498.062	1	8
498.403	1	3
498.743	1	3
499.084	1	-5
499.424	1	3
499.765	1	2
500.105	1	3
500.446	1	-9
500.786	1	-13
501.127	1	1
501.467	1	1
501.808	1	4
502.148	1	0
502.489	1	0
502.829	1	-2
503.170	1	12
503.510	1	4
503.851	1	1
504.191	1	9
504.532	1	8
504.872	1	7
505.213	1	14
505.553	1	-13
505.894	1	-4
506.234	1	10
506.575	1	10
506.915	1	16
507.256	1	9
507.596	1	8
507.936	1	4
508.277	1	4
508.617	1	-8
508.958	1	-5
509.298	1	5
509.639	1	-9
509.979	1	14
510.319	1	4
510.660	1	2
511.000	1	-2
511.341	1	5
511.681	1	9
512.022	1	0
512.362	1	0
512.702	1	-2
513.043	1	3
513.383	1	-6
513.724	1	9
514.064	1	7
514.404	1	7
514.745	1	-5
515.085	1	1
515.425	1	-2
515.766	1	0
516.106	1	0
516.447	1	5
516.787	1	6
517.127	1	4
517.468	1	4
517.808	1	-9
518.148	1	0
518.489	1	-4
518.829	1	1
519.169	1	-3
519.510	1	11
519.850	1	5
520.190	1	3
520.531	1	5
520.871	1	6
521.211	1	-9
521.552	1	2
521.892	1	13
522.232	1	-2
522.573	1	9
522.913	1	3
523.253	1	7
523.593	1	-14
523.934	1	5
524.274	1	5
524.614	1	2
524.955	1	-4
525.295	1	5
525.635	1	4
525.975	1	8
526.316	1	15
526.656	1	4
526.996	1	3
527.337	1	-5
527.677	1	6
528.017	1	-5
528.357	1	3
528.698	1	8
529.038	1	8
529.378	1	14
529.718	1	1
530.058	1	2
530.399	1	9
530.739	1	4
531.079	1	19
531.419	1	9
531.760	1	9
532.100	1	1
532.440	1	11
532.780	1	-4
533.120	1	12
533.461	1	11
533.801	1	14
534.141	1	-5
534.481	1	7
534.821	1	4
535.162	1	6
535.502	1	-3
535.842	1	13
536.182	1	4
536.522	1	1
536.862	1	9
537.203	1	-4
537.543	1	4
537.883	1	4
538.223	1	7
538.563	1	-2
538.903	1	1
539.243	1	-6
539.584	1	1
539.924	1	7
540.264	1	3
540.604	1	4
540.944	1	-4
541.284	1	2
541.624	1	13
541.964	1	11
542.305	1	17
542.645	1	-1
542.985	1	0
543.325	1	3
543.665	1	14
544.005	1	11
544.345	1	1
544.685	1	-9
545.025	1	8
545.365	1	1
545.705	1	8
546.045	1	1
546.386	1	14
546.726	1	-4
547.066	1	8
547.406	1	11
547.746	1	-3
548.086	1	0
548.426	1	1
548.766	1	5
549.106	1	6
549.446	1	5
549.786	1	-1
550.126	1	21
550.466	1	3
550.806	1	4
551.146	1	12
551.486	1	7
551.826	1	6
552.166	1	3
552.506	1	12
552.846	1	15
553.186	1	5
553.526	1	5
553.866	1	5
554.206	1	7
554.546	1	8
554.886	1	8
555.226	1	2
555.566	1	10
555.906	1	5
556.246	1	5
556.586	1	4
556.926	1	7
557.266	1	-4
557.606	1	0
557.946	1	16
558.286	1	15
558.626	1	8
558.966	1	2
559.306	1	-2
559.646	1	7
559.986	1	-5
560.325	1	-1
560.665	1	2
561.005	1	3
561.345	1	7
561.685	1	4
562.025	1	1
562.365	1	13
562.705	1	8
563.045	1	1
563.385	1	2
563.725	1	6
564.064	1	1
564.404	1	10
564.744	1	5
565.084	1	8
565.424	1	10
565.764	1	3
566.104	1	2
566.444	1	-7
566.783	1	5
567.123	1	10
567.463	1	9
567.803	1	6
568.143	1	1
568.483	1	9
568.823	1	16
569.162	1	9
569.502	1	0
569.842	1	12
570.182	1	7
570.522	1	1
570.862	1	-3
571.201	1	18
571.541	1	16
571.881	1	19
572.221	1	0
572.561	1	0
572.900	1	6
573.240	1	8
573.580	1	2
573.920	1	-2
574.260	1	16
574.599	1	8
574.939	1	9
575.279	1	16
575.619	1	11
575.959	1	4
576.298	1	19
576.638	1	8
576.978	1	12
577.318	1	7
577.657	1	6
577.997	1	4
578.337	1	16
578.677	1	17
579.016	1	13
579.356	1	-1
579.696	1	3
580.036	1	3
580.375	1	0
580.715	1	9
581.055	1	5
581.394	1	4
581.734	1	-8
582.074	1	-1
582.414	1	13
582.753	1	2
583.093	1	7
583.433	1	2
583.772	1	14
584.112	1	0
584.452	1	-2
584.791	1	-7
585.131	1	11
585.471	1	16
585.811	1	9
586.150	1	7
586.490	1	10
586.830	1	-7
587.169	1	4
587.509	1	4
587.849	1	2
588.188	1	16
588.528	1	8
588.867	1	13
589.207	1	8
589.547	1	5
589.886	1	-12
590.226	1	11
590.566	1	1
590.905	1	3
591.245	1	-1
591.585	1	5
591.924	1	4
592.264	1	0
592.603	1	6
592.943	1	11
593.283	1	10
593.622	1	8
593.962	1	8
594.301	1	10
594.641	1	0
594.981	1	1
595.320	1	5
595.660	1	9
595.999	1	0
596.339	1	-2
596.678	1	-3
597.018	1	-5
597.358	1	15
597.697	1	3
598.037	1	11
598.376	1	3
598.716	1	17
599.055	1	11
599.395	1	2
599.734	1	8
600.074	1	6
600.413	1	13
600.753	1	3
601.092	1	14
601.432	1	-4
601.771	1	7
602.111	1	8
602.451	1	10
602.790	1	11
603.130	1	4
603.469	1	-2
603.809	1	11
604.148	1	10
604.487	1	-4
604.827	1	7
605.166	1	7
605.506	1	6
605.845	1	4
606.185	1	16
606.524	1	1
606.864	1	0
607.203	1	-5
607.543	1	1
607.882	1	2
608.222	1	9
608.561	1	6
608.901	1	11
609.240	1	-2
609.579	1	7
609.919	1	8
610.258	1	11
610.598	1	5
610.937	1	5
611.277	1	8
611.616	1	-1
611.955	1	7
612.295	1	9
612.634	1	2
612.974	1	-7
613.313	1	11
613.652	1	8
613.992	1	4
614.331	1	2
614.671	1	7
615.010	1	-11
615.349	1	5
615.689	1	17
616.028	1	-1
616.368	1	9
616.707	1	5
617.046	1	2
617.386	1	7
617.725	1	2
618.064	1	-5
618.404	1	5
618.743	1	3
619.082	1	9
619.422	1	-11
619.761	1	3
620.100	1	13
620.440	1	7
620.779	1	-3
621.118	1	10
621.458	1	2
621.797	1	0
622.136	1	16
622.476	1	17
622.815	1	10
623.154	1	7
623.494	1	14
623.833	1	2
624.172	1	5
624.511	1	-5
624.851	1	-7
625.190	1	5
625.529	1	0
625.869	1	6
626.208	1	4
626.547	1	8
626.886	1	8
627.226	1	14
627.565	1	11
627.904	1	-2
628.243	1	9
628.583	1	4
628.922	1	10
629.261	1	-6
629.600	1	4
629.940	1	2
630.279	1	-7
630.618	1	-1
630.957	1	-4
631.297	1	2
631.636	1	-7
631.975	1	16
632.314	1	9
632.653	1	4
632.993	1	-3
633.332	1	7
633.671	1	-3
634.010	1	6
634.349	1	12
634.689	1	2
635.028	1	9
635.367	1	3
635.706	1	11
636.045	1	14
636.384	1	2
636.724	1	3
637.063	1	8
637.402	1	2
637.741	1	3
638.080	1	-4
638.419	1	-3
638.759	1	-10
639.098	1	6
639.437	1	3
639.776	1	-3
640.115	1	3
640.454	1	0
640.793	1	21
641.132	1	15
641.472	1	9
641.811	1	11
642.150	1	0
642.489	1	12
642.828	1	-2
643.167	1	-1
643.506	1	-2
643.845	1	8
644.184	1	7
644.524	1	2
644.863	1	-5
645.202	1	5
645.541	1	0
645.880	1	13
646.219	1	8
646.558	1	-5
646.897	1	13
647.236	1	1
647.575	1	-4
647.914	1	-1
648.253	1	12
648.592	1	-1
648.931	1	13
649.270	1	3
649.610	1	5
649.949	1	-1
650.288	1	7
650.627	1	-2
650.966	1	2
651.305	1	5
651.644	1	3
651.983	1	4
652.322	1	1
652.661	1	10
653.000	1	-6
653.339	1	10
653.678	1	9
654.017	1	7
654.356	1	-3
654.695	1	10
655.034	1	-1
655.373	1	9
655.712	1	1
656.051	1	2
656.390	1	0
656.729	1	7
657.068	1	9
657.406	1	2
657.745	1	-5
658.084	1	8
658.423	1	9
658.762	1	-1
659.101	1	13
659.440	1	1
659.779	1	12
660.118	1	-1
660.457	1	1
660.796	1	-8
661.135	1	-3
661.474	1	4
661.813	1	6
662.152	1	10
662.491	1	-3
662.829	1	5
663.168	1	1
663.507	1	12
663.846	1	-1
664.185	1	5
664.524	1	1
664.863	1	-6
665.202	1	1
665.541	1	-13
665.879	1	-11
666.218	1	-1
666.557	1	7
666.896	1	3
667.235	1	8
667.574	1	1
667.913	1	5
668.251	1	-3
668.590	1	3
668.929	1	-3
669.268	1	-3
669.607	1	-1
669.946	1	-2
670.285	1	4
670.623	1	-3
670.962	1	0
671.301	1	9
671.640	1	6
671.979	1	-6
672.317	1	-6
672.656	1	4
672.995	1	11
673.334	1	-5
673.673	1	9
674.011	1	-3
674.350	1	0
674.689	1	1
675.028	1	10
675.367	1	2
675.705	1	13
676.044	1	-6
676.383	1	6
676.722	1	1
677.060	1	1
677.399	1	-7
677.738	1	2
678.077	1	18
678.416	1	3
678.754	1	4
679.093	1	6
679.432	1	-2
679.771	1	5
680.109	1	4
680.448	1	6
680.787	1	-2
681.125	1	4
681.464	1	-1
681.803	1	1
682.142	1	6
682.480	1	4
682.819	1	0
683.158	1	-3
683.496	1	-5
683.835	1	-7
684.174	1	-1
684.512	1	5
684.851	1	2
685.190	1	-9
685.529	1	1
685.867	1	1
686.206	1	-4
686.545	1	-4
686.883	1	-4
687.222	1	-2
687.561	1	2
687.899	1	4
688.238	1	6
688.577	1	-3
688.746	1	-1