File: Data/GaN_200K_800ms/GaN_sample F_spot 12_UVVIS_200 K_200um_800 ms 2x2mm1_366.txt
340.368	1	5
340.710	1	-8
341.052	1	5
341.394	1	0
341.737	1	0
342.079	1	-7
342.421	1	-1
342.763	1	6
343.105	1	-1
343.447	1	-17
343.789	1	-4
344.131	1	-5
344.473	1	-5
344.815	1	-3
345.157	1	-5
345.499	1	3
345.841	1	10
346.183	1	-8
346.526	1	-6
346.868	1	10
347.210	1	-7
347.552	1	-7
347.894	1	6
348.236	1	7
348.578	1	-9
348.920	1	-2
349.262	1	-5
349.604	1	-1
349.946	1	-2
350.288	1	0
350.630	1	-7
350.972	1	1
351.314	1	5
351.656	1	-4
351.998	1	6
352.340	1	1
352.682	1	2
353.024	1	3
353.366	1	11
353.708	1	-5
354.050	1	-7
354.392	1	-3
354.734	1	5
355.076	1	-6
355.418	1	-2
355.760	1	-3
356.102	1	5
356.444	1	3
356.785	1	8
357.127	1	-8
357.469	1	2
357.811	1	13
358.153	1	13
358.495	1	-1
358.837	1	-10
359.179	1	-6
359.521	1	12
359.863	1	1
360.205	1	-3
360.547	1	2
360.889	1	-5
361.231	1	-2
361.572	1	10
361.914	1	6
362.256	1	0
362.598	1	-4
362.940	1	-8
363.282	1	9
363.624	1	5
363.966	1	-3
364.308	1	6
364.649	1	6
364.991	1	8
365.333	1	-2
365.675	1	-2
366.017	1	4
366.359	1	-2
366.701	1	18
367.042	1	14
367.384	1	20
367.726	1	16
368.068	1	10
368.410	1	33
368.752	1	4
369.093	1	6
369.435	1	13
369.777	1	7
370.119	1	6
370.461	1	27
370.803	1	8
371.144	1	3
371.486	1	8
371.828	1	15
372.170	1	18
372.512	1	3
372.853	1	8
373.195	1	4
373.537	1	14
373.879	1	7
374.220	1	18
374.562	1	7
374.904	1	7
375.246	1	13
375.588	1	-5
375.929	1	12
376.271	1	24
376.613	1	9
376.955	1	1
377.296	1	1
377.638	1	10
377.980	1	11
378.321	1	-5
378.663	1	-5
379.005	1	3
379.347	1	5
379.688	1	1
380.030	1	-8
380.372	1	0
380.714	1	6
381.055	1	9
381.397	1	2
381.739	1	7
382.080	1	2
382.422	1	-2
382.764	1	1
383.105	1	-14
383.447	1	6
383.789	1	5
384.130	1	-11
384.472	1	5
384.814	1	5
385.156	1	-7
385.497	1	7
385.839	1	-1
386.180	1	6
386.522	1	-1
386.864	1	8
387.205	1	-8
387.547	1	1
387.889	1	-1
388.230	1	13
388.572	1	-6
388.914	1	-8
389.255	1	-9
389.597	1	-3
389.939	1	2
390.280	1	4
390.622	1	-6
390.963	1	16
391.305	1	2
391.647	1	-4
391.988	1	1
392.330	1	5
392.671	1	-12
393.013	1	-5
393.355	1	0
393.696	1	2
394.038	1	1
394.379	1	3
394.721	1	-4
395.062	1	4
395.404	1	3
395.746	1	2
396.087	1	-2
396.429	1	4
396.770	1	2
397.112	1	7
397.453	1	9
397.795	1	-6
398.136	1	-4
398.478	1	-4
398.819	1	-1
399.161	1	5
399.503	1	1
399.844	1	5
400.186	1	2
400.527	1	0
400.869	1	4
401.210	1	8
401.552	1	-6
401.893	1	8
402.235	1	-12
402.576	1	1
402.918	1	4
403.259	1	-2
403.601	1	-10
403.942	1	9
404.284	1	10
404.625	1	5
404.967	1	3
405.308	1	2
405.649	1	0
405.991	1	0
406.332	1	4
406.674	1	-6
407.015	1	-4
407.357	1	-6
407.698	1	7
408.040	1	3
408.381	1	9
408.722	1	-15
409.064	1	4
409.405	1	7
409.747	1	-4
410.088	1	1
410.430	1	9
410.771	1	10
411.112	1	2
411.454	1	-8
411.795	1	-5
412.137	1	2
412.478	1	2
412.819	1	2
413.161	1	-3
413.502	1	5
413.844	1	8
414.185	1	2
414.526	1	-4
414.868	1	2
415.209	1	-2
415.550	1	-11
415.892	1	-2
416.233	1	3
416.575	1	9
416.916	1	-7
417.257	1	0
417.599	1	4
417.940	1	0
418.281	1	6
418.623	1	-2
418.964	1	-18
419.305	1	-4
419.647	1	-6
419.988	1	-2
420.329	1	-3
420.671	1	6
421.012	1	5
421.353	1	-5
421.695	1	-8
422.036	1	-7
422.377	1	-4
422.718	1	-1
423.060	1	-7
423.401	1	5
423.742	1	9
424.084	1	4
424.425	1	-4
424.766	1	-6
425.107	1	-7
425.449	1	2
425.790	1	-14
426.131	1	3
426.472	1	-2
426.814	1	1
427.155	1	1
427.496	1	1
427.837	1	-7
428.179	1	-4
428.520	1	2
428.861	1	-3
429.202	1	5
429.544	1	4
429.885	1	-3
430.226	1	-8
430.567	1	-2
430.909	1	1
431.250	1	-6
431.591	1	9
431.932	1	-3
432.273	1	-3
432.615	1	-13
432.956	1	-8
433.297	1	-5
433.638	1	0
433.979	1	0
434.320	1	6
434.662	1	7
435.003	1	5
435.344	1	-6
435.685	1	-2
436.026	1	-1
436.368	1	1
436.709	1	-1
437.050	1	2
437.391	1	-1
437.732	1	-10
438.073	1	-4
438.414	1	-10
438.756	1	-1
439.097	1	-11
439.438	1	-3
439.779	1	2
440.120	1	3
440.461	1	-2
440.802	1	-6
441.143	1	-2
441.485	1	-6
441.826	1	-9
442.167	1	-2
442.508	1	-9
442.849	1	8
443.190	1	-4
443.531	1	7
443.872	1	6
444.213	1	2
444.554	1	11
444.895	1	-4
445.237	1	7
445.578	1	-4
445.919	1	-9
446.260	1	-6
446.601	1	-5
446.942	1	-8
447.283	1	-10
447.624	1	-3
447.965	1	8
448.306	1	0
448.647	1	-11
448.988	1	0
449.329	1	5
449.670	1	8
450.011	1	9
450.352	1	-1
450.693	1	0
451.034	1	-7
451.375	1	6
451.716	1	3
452.057	1	6
452.398	1	-7
452.739	1	0
453.080	1	-2
453.421	1	-9
453.762	1	3
454.103	1	-1
454.444	1	-16
454.785	1	-1
455.126	1	0
455.467	1	4
455.808	1	2
456.149	1	7
456.490	1	-10
456.831	1	7
457.172	1	-4
457.513	1	5
457.854	1	-7
458.195	1	-4
458.536	1	5
458.877	1	4
459.218	1	0
459.559	1	2
459.899	1	-5
460.240	1	5
460.581	1	13
460.922	1	14
461.263	1	-11
461.604	1	1
461.945	1	4
462.286	1	-3
462.627	1	5
462.968	1	7
463.309	1	-5
463.649	1	-2
463.990	1	-4
464.331	1	0
464.672	1	0
465.013	1	-2
465.354	1	-5
465.695	1	-4
466.036	1	-15
466.376	1	-7
466.717	1	-2
467.058	1	-8
467.399	1	10
467.740	1	-4
468.081	1	6
468.422	1	-8
468.762	1	-2
469.103	1	-5
469.444	1	-9
469.785	1	-16
470.126	1	-5
470.467	1	-3
470.807	1	0
471.148	1	-5
471.489	1	-9
471.830	1	-4
472.171	1	-4
472.511	1	-4
472.852	1	-3
473.193	1	0
473.534	1	9
473.875	1	3
474.215	1	3
474.556	1	4
474.897	1	-3
475.238	1	3
475.578	1	-5
475.919	1	3
476.260	1	-8
476.601	1	-5
476.942	1	15
477.282	1	2
477.623	1	-13
477.964	1	-6
478.305	1	-7
478.645	1	0
478.986	1	-3
479.327	1	-13
479.667	1	-10
480.008	1	-9
480.349	1	-8
480.690	1	0
481.030	1	-10
481.371	1	1
481.712	1	-6
482.053	1	1
482.393	1	1
482.734	1	-4
483.075	1	0
483.415	1	11
483.756	1	4
484.097	1	-5
484.437	1	3
484.778	1	3
485.119	1	2
485.459	1	14
485.800	1	0
486.141	1	1
486.481	1	0
486.822	1	11
487.163	1	1
487.503	1	-6
487.844	1	8
488.185	1	-2
488.525	1	-1
488.866	1	3
489.207	1	-8
489.547	1	-11
489.888	1	-8
490.228	1	-1
490.569	1	8
490.910	1	-2
491.250	1	-3
491.591	1	-6
491.932	1	-1
492.272	1	-1
492.613	1	-5
492.953	1	-4
493.294	1	1
493.635	1	7
493.975	1	-6
494.316	1	1
494.656	1	-2
494.997	1	1
495.337	1	10
495.678	1	-3
496.019	1	-4
496.359	1	-13
496.700	1	-5
497.040	1	-8
497.381	1	0
497.721	1	-6
498.062	1	2
498.403	1	-5
498.743	1	-2
499.084	1	-6
499.424	1	4
499.765	1	1
500.105	1	-13
500.446	1	-12
500.786	1	-8
501.127	1	-2
501.467	1	-8
501.808	1	3
502.148	1	4
502.489	1	4
502.829	1	-7
503.170	1	2
503.510	1	17
503.851	1	-1
504.191	1	-1
504.532	1	3
504.872	1	6
505.213	1	8
505.553	1	-11
505.894	1	-11
506.234	1	5
506.575	1	4
506.915	1	-2
507.256	1	-3
507.596	1	-4
507.936	1	6
508.277	1	-1
508.617	1	-7
508.958	1	-10
509.298	1	0
509.639	1	-3
509.979	1	-1
510.319	1	5
510.660	1	-10
511.000	1	-15
511.341	1	-5
511.681	1	-1
512.022	1	-18
512.362	1	-3
512.702	1	-2
513.043	1	8
513.383	1	-13
513.724	1	-2
514.064	1	6
514.404	1	1
514.745	1	-3
515.085	1	-5
515.425	1	-7
515.766	1	-9
516.106	1	1
516.447	1	10
516.787	1	-1
517.127	1	-5
517.468	1	-5
517.808	1	-2
518.148	1	0
518.489	1	-1
518.829	1	1
519.169	1	-1
519.510	1	4
519.850	1	4
520.190	1	-5
520.531	1	1
520.871	1	7
521.211	1	-7
521.552	1	2
521.892	1	1
522.232	1	5
522.573	1	-2
522.913	1	5
523.253	1	-3
523.593	1	2
523.934	1	-3
524.274	1	0
524.614	1	-1
524.955	1	-7
525.295	1	1
525.635	1	5
525.975	1	4
526.316	1	5
526.656	1	1
526.996	1	-8
527.337	1	-6
527.677	1	3
528.017	1	-11
528.357	1	-4
528.698	1	5
529.038	1	4
529.378	1	8
529.718	1	3
530.058	1	4
530.399	1	3
530.739	1	4
531.079	1	6
531.419	1	-1
531.760	1	12
532.100	1	-2
532.440	1	0
532.780	1	-6
533.120	1	-1
533.461	1	3
533.801	1	6
534.141	1	-4
534.481	1	-8
534.821	1	8
535.162	1	-7
535.502	1	-4
535.842	1	5
536.182	1	5
536.522	1	-5
536.862	1	-1
537.203	1	-10
537.543	1	-4
537.883	1	-1
538.223	1	-3
538.563	1	5
538.903	1	-16
539.243	1	-2
539.584	1	0
539.924	1	8
540.264	1	2
540.604	1	-1
540.944	1	-5
541.284	1	5
541.624	1	11
541.964	1	3
542.305	1	1
542.645	1	-2
542.985	1	1
543.325	1	-2
543.665	1	0
544.005	1	7
544.345	1	0
544.685	1	2
545.025	1	0
545.365	1	-2
545.705	1	2
546.045	1	-10
546.386	1	10
546.726	1	-3
547.066	1	-4
547.406	1	2
547.746	1	-12
548.086	1	-6
548.426	1	-2
548.766	1	-3
549.106	1	8
549.446	1	-7
549.786	1	-6
550.126	1	5
550.466	1	3
550.806	1	-5
551.146	1	3
551.486	1	2
551.826	1	-1
552.166	1	2
552.506	1	3
552.846	1	1
553.186	1	6
553.526	1	-6
553.866	1	-3
554.206	1	7
554.546	1	8
554.886	1	6
555.226	1	-14
555.566	1	6
555.906	1	2
556.246	1	3
556.586	1	-4
556.926	1	-4
557.266	1	2
557.606	1	7
557.946	1	-1
558.286	1	0
558.626	1	-2
558.966	1	-10
559.306	1	-6
559.646	1	-5
559.986	1	-3
560.325	1	-10
560.665	1	7
561.005	1	-11
561.345	1	-5
561.685	1	0
562.025	1	0
562.365	1	3
562.705	1	0
563.045	1	-14
563.385	1	-10
563.725	1	5
564.064	1	-2
564.404	1	6
564.744	1	-3
565.084	1	8
565.424	1	-5
565.764	1	-4
566.104	1	5
566.444	1	-7
566.783	1	-10
567.123	1	3
567.463	1	2
567.803	1	-7
568.143	1	4
568.483	1	3
568.823	1	1
569.162	1	1
569.502	1	-2
569.842	1	10
570.182	1	-6
570.522	1	-4
570.862	1	-1
571.201	1	6
571.541	1	11
571.881	1	15
572.221	1	-11
572.561	1	-7
572.900	1	-7
573.240	1	4
573.580	1	6
573.920	1	-1
574.260	1	8
574.599	1	0
574.939	1	-2
575.279	1	11
575.619	1	11
575.959	1	-16
576.298	1	15
576.638	1	-5
576.978	1	0
577.318	1	10
577.657	1	0
577.997	1	0
578.337	1	6
578.677	1	5
579.016	1	7
579.356	1	1
579.696	1	-1
580.036	1	-5
580.375	1	6
580.715	1	2
581.055	1	-5
581.394	1	0
581.734	1	-3
582.074	1	-1
582.414	1	4
582.753	1	-3
583.093	1	1
583.433	1	-3
583.772	1	9
584.112	1	-10
584.452	1	2
584.791	1	4
585.131	1	5
585.471	1	11
585.811	1	8
586.150	1	-6
586.490	1	10
586.830	1	0
587.169	1	1
587.509	1	-3
587.849	1	-5
588.188	1	7
588.528	1	1
588.867	1	2
589.207	1	8
589.547	1	-5
589.886	1	-3
590.226	1	2
590.566	1	-5
590.905	1	3
591.245	1	-2
591.585	1	4
591.924	1	0
592.264	1	4
592.603	1	5
592.943	1	6
593.283	1	-5
593.622	1	-2
593.962	1	5
594.301	1	5
594.641	1	-10
594.981	1	-7
595.320	1	0
595.660	1	7
595.999	1	-15
596.339	1	3
596.678	1	-11
597.018	1	-4
597.358	1	0
597.697	1	5
598.037	1	-5
598.376	1	-2
598.716	1	1
599.055	1	9
599.395	1	-6
599.734	1	-3
600.074	1	-3
600.413	1	4
600.753	1	3
601.092	1	6
601.432	1	4
601.771	1	5
602.111	1	1
602.451	1	7
602.790	1	-3
603.130	1	4
603.469	1	-11
603.809	1	1
604.148	1	2
604.487	1	-1
604.827	1	13
605.166	1	-1
605.506	1	8
605.845	1	6
606.185	1	-7
606.524	1	0
606.864	1	4
607.203	1	1
607.543	1	4
607.882	1	5
608.222	1	3
608.561	1	3
608.901	1	8
609.240	1	-5
609.579	1	6
609.919	1	7
610.258	1	3
610.598	1	-2
610.937	1	9
611.277	1	-4
611.616	1	-2
611.955	1	-9
612.295	1	-10
612.634	1	-3
612.974	1	-5
613.313	1	19
613.652	1	14
613.992	1	8
614.331	1	2
614.671	1	2
615.010	1	-13
615.349	1	5
615.689	1	11
616.028	1	-8
616.368	1	3
616.707	1	8
617.046	1	4
617.386	1	3
617.725	1	0
618.064	1	-11
618.404	1	-3
618.743	1	3
619.082	1	5
619.422	1	-7
619.761	1	8
620.100	1	12
620.440	1	0
620.779	1	-6
621.118	1	-1
621.458	1	1
621.797	1	-4
622.136	1	7
622.476	1	1
622.815	1	7
623.154	1	10
623.494	1	7
623.833	1	5
624.172	1	3
624.511	1	0
624.851	1	-11
625.190	1	4
625.529	1	-1
625.869	1	7
626.208	1	2
626.547	1	5
626.886	1	3
627.226	1	1
627.565	1	-4
627.904	1	-5
628.243	1	1
628.583	1	0
628.922	1	8
629.261	1	-1
629.600	1	6
629.940	1	1
630.279	1	0
630.618	1	-5
630.957	1	5
631.297	1	-4
631.636	1	-10
631.975	1	9
632.314	1	1
632.653	1	-2
632.993	1	-5
633.332	1	-5
633.671	1	-8
634.010	1	-2
634.349	1	7
634.689	1	2
635.028	1	5
635.367	1	2
635.706	1	9
636.045	1	0
636.384	1	-1
636.724	1	1
637.063	1	-4
637.402	1	-2
637.741	1	-5
638.080	1	-12
638.419	1	-4
638.759	1	7
639.098	1	3
639.437	1	2
639.776	1	1
640.115	1	0
640.454	1	-9
640.793	1	6
641.132	1	8
641.472	1	0
641.811	1	4
642.150	1	-7
642.489	1	6
642.828	1	-5
643.167	1	4
643.506	1	-11
643.845	1	1
644.184	1	8
644.524	1	-6
644.863	1	-2
645.202	1	7
645.541	1	4
645.880	1	7
646.219	1	6
646.558	1	-3
646.897	1	8
647.236	1	-5
647.575	1	4
647.914	1	1
648.253	1	14
648.592	1	-5
648.931	1	4
649.270	1	-3
649.610	1	-6
649.949	1	-4
650.288	1	1
650.627	1	0
650.966	1	7
651.305	1	-1
651.644	1	8
651.983	1	3
652.322	1	-3
652.661	1	-8
653.000	1	-4
653.339	1	7
653.678	1	-8
654.017	1	0
654.356	1	-11
654.695	1	-2
655.034	1	-2
655.373	1	4
655.712	1	5
656.051	1	2
656.390	1	3
656.729	1	18
657.068	1	1
657.406	1	2
657.745	1	-6
658.084	1	2
658.423	1	9
658.762	1	-3
659.101	1	13
659.440	1	-2
659.779	1	1
660.118	1	-6
660.457	1	8
660.796	1	-7
661.135	1	-7
661.474	1	-4
661.813	1	15
662.152	1	1
662.491	1	-3
662.829	1	-4
663.168	1	0
663.507	1	6
663.846	1	-6
664.185	1	0
664.524	1	6
664.863	1	-6
665.202	1	1
665.541	1	-21
665.879	1	-8
666.218	1	-1
666.557	1	-2
666.896	1	-8
667.235	1	0
667.574	1	2
667.913	1	2
668.251	1	-12
668.590	1	-7
668.929	1	-5
669.268	1	-1
669.607	1	-1
669.946	1	-7
670.285	1	7
670.623	1	0
670.962	1	-4
671.301	1	-6
671.640	1	7
671.979	1	-11
672.317	1	-2
672.656	1	-4
672.995	1	3
673.334	1	-7
673.673	1	4
674.011	1	-5
674.350	1	2
674.689	1	5
675.028	1	-3
675.367	1	5
675.705	1	0
676.044	1	-4
676.383	1	-1
676.722	1	4
677.060	1	-11
677.399	1	-7
677.738	1	9
678.077	1	-4
678.416	1	-3
678.754	1	-7
679.093	1	3
679.432	1	-4
679.771	1	-2
680.109	1	3
680.448	1	2
680.787	1	-6
681.125	1	-1
681.464	1	1
681.803	1	-2
682.142	1	8
682.480	1	16
682.819	1	-2
683.158	1	-3
683.496	1	11
683.835	1	-5
684.174	1	-5
684.512	1	1
684.851	1	-4
685.190	1	-8
685.529	1	0
685.867	1	-3
686.206	1	-11
686.545	1	-4
686.883	1	-5
687.222	1	15
687.561	1	2
687.899	1	0
688.238	1	5
688.577	1	7
688.746	1	-2