File: Data/GaN_200K_800ms/GaN_sample F_spot 12_UVVIS_200 K_200um_800 ms 2x2mm1_549.txt
340.368	1	14
340.710	1	-17
341.052	1	7
341.394	1	-6
341.737	1	0
342.079	1	-10
342.421	1	-4
342.763	1	0
343.105	1	1
343.447	1	-7
343.789	1	-2
344.131	1	-3
344.473	1	-6
344.815	1	-12
345.157	1	-6
345.499	1	-2
345.841	1	3
346.183	1	-8
346.526	1	-4
346.868	1	8
347.210	1	-13
347.552	1	-11
347.894	1	-8
348.236	1	1
348.578	1	0
348.920	1	-2
349.262	1	4
349.604	1	-6
349.946	1	-14
350.288	1	5
350.630	1	2
350.972	1	-2
351.314	1	-5
351.656	1	10
351.998	1	1
352.340	1	1
352.682	1	0
353.024	1	4
353.366	1	4
353.708	1	-8
354.050	1	-13
354.392	1	-1
354.734	1	7
355.076	1	2
355.418	1	-12
355.760	1	-8
356.102	1	5
356.444	1	3
356.785	1	3
357.127	1	-1
357.469	1	-1
357.811	1	-7
358.153	1	7
358.495	1	3
358.837	1	-11
359.179	1	-5
359.521	1	4
359.863	1	-2
360.205	1	1
360.547	1	-1
360.889	1	-3
361.231	1	-6
361.572	1	-4
361.914	1	-2
362.256	1	2
362.598	1	-15
362.940	1	-3
363.282	1	-5
363.624	1	9
363.966	1	-2
364.308	1	-10
364.649	1	6
364.991	1	0
365.333	1	-13
365.675	1	-7
366.017	1	-8
366.359	1	-3
366.701	1	-2
367.042	1	-3
367.384	1	-2
367.726	1	-4
368.068	1	0
368.410	1	0
368.752	1	-9
369.093	1	0
369.435	1	2
369.777	1	-9
370.119	1	1
370.461	1	5
370.803	1	-7
371.144	1	-13
371.486	1	-4
371.828	1	0
372.170	1	0
372.512	1	-10
372.853	1	-5
373.195	1	-6
373.537	1	-3
373.879	1	-17
374.220	1	3
374.562	1	6
374.904	1	-2
375.246	1	9
375.588	1	-8
375.929	1	-1
376.271	1	7
376.613	1	3
376.955	1	-2
377.296	1	-1
377.638	1	-3
377.980	1	1
378.321	1	-16
378.663	1	-9
379.005	1	-1
379.347	1	-5
379.688	1	-3
380.030	1	-7
380.372	1	-5
380.714	1	0
381.055	1	9
381.397	1	0
381.739	1	2
382.080	1	-2
382.422	1	-15
382.764	1	-1
383.105	1	-7
383.447	1	-7
383.789	1	-2
384.130	1	-5
384.472	1	-3
384.814	1	2
385.156	1	-7
385.497	1	0
385.839	1	-2
386.180	1	0
386.522	1	4
386.864	1	2
387.205	1	-4
387.547	1	-6
387.889	1	2
388.230	1	4
388.572	1	-9
388.914	1	2
389.255	1	-15
389.597	1	-4
389.939	1	0
390.280	1	0
390.622	1	-13
390.963	1	6
391.305	1	0
391.647	1	-7
391.988	1	5
392.330	1	1
392.671	1	2
393.013	1	-2
393.355	1	-6
393.696	1	-1
394.038	1	2
394.379	1	3
394.721	1	-14
395.062	1	6
395.404	1	-21
395.746	1	11
396.087	1	-5
396.429	1	-4
396.770	1	-7
397.112	1	5
397.453	1	7
397.795	1	0
398.136	1	-18
398.478	1	1
398.819	1	-5
399.161	1	8
399.503	1	-3
399.844	1	3
400.186	1	0
400.527	1	-4
400.869	1	0
401.210	1	3
401.552	1	-11
401.893	1	-13
402.235	1	-12
402.576	1	-8
402.918	1	10
403.259	1	2
403.601	1	-6
403.942	1	13
404.284	1	9
404.625	1	0
404.967	1	5
405.308	1	1
405.649	1	5
405.991	1	-3
406.332	1	0
406.674	1	2
407.015	1	2
407.357	1	-1
407.698	1	3
408.040	1	-7
408.381	1	-6
408.722	1	-21
409.064	1	1
409.405	1	7
409.747	1	-9
410.088	1	-7
410.430	1	-2
410.771	1	-6
411.112	1	-3
411.454	1	-11
411.795	1	0
412.137	1	0
412.478	1	11
412.819	1	3
413.161	1	-8
413.502	1	4
413.844	1	0
414.185	1	4
414.526	1	-6
414.868	1	-1
415.209	1	2
415.550	1	-9
415.892	1	-3
416.233	1	-8
416.575	1	12
416.916	1	-3
417.257	1	2
417.599	1	-3
417.940	1	2
418.281	1	0
418.623	1	-2
418.964	1	-18
419.305	1	-6
419.647	1	-11
419.988	1	-2
420.329	1	-18
420.671	1	7
421.012	1	-7
421.353	1	-4
421.695	1	-10
422.036	1	-1
422.377	1	-2
422.718	1	7
423.060	1	0
423.401	1	-1
423.742	1	-11
424.084	1	-9
424.425	1	5
424.766	1	-6
425.107	1	-8
425.449	1	-9
425.790	1	-13
426.131	1	-13
426.472	1	-6
426.814	1	6
427.155	1	-9
427.496	1	-8
427.837	1	-7
428.179	1	-3
428.520	1	6
428.861	1	-7
429.202	1	2
429.544	1	-3
429.885	1	2
430.226	1	-13
430.567	1	-2
430.909	1	5
431.250	1	-8
431.591	1	9
431.932	1	-8
432.273	1	-1
432.615	1	-3
432.956	1	-11
433.297	1	2
433.638	1	-7
433.979	1	3
434.320	1	5
434.662	1	5
435.003	1	9
435.344	1	-4
435.685	1	-2
436.026	1	3
436.368	1	0
436.709	1	-3
437.050	1	-9
437.391	1	-2
437.732	1	-16
438.073	1	5
438.414	1	-16
438.756	1	-15
439.097	1	-5
439.438	1	-3
439.779	1	-3
440.120	1	-1
440.461	1	-3
440.802	1	-2
441.143	1	-1
441.485	1	1
441.826	1	-7
442.167	1	-3
442.508	1	-12
442.849	1	-2
443.190	1	-9
443.531	1	1
443.872	1	6
444.213	1	-10
444.554	1	9
444.895	1	-9
445.237	1	-10
445.578	1	-12
445.919	1	-2
446.260	1	-3
446.601	1	-4
446.942	1	-1
447.283	1	-3
447.624	1	3
447.965	1	0
448.306	1	-8
448.647	1	-11
448.988	1	-7
449.329	1	-1
449.670	1	4
450.011	1	5
450.352	1	-11
450.693	1	-6
451.034	1	-9
451.375	1	-5
451.716	1	0
452.057	1	-4
452.398	1	0
452.739	1	3
453.080	1	-1
453.421	1	-6
453.762	1	3
454.103	1	-4
454.444	1	-5
454.785	1	-7
455.126	1	-2
455.467	1	-3
455.808	1	-5
456.149	1	1
456.490	1	1
456.831	1	2
457.172	1	-11
457.513	1	5
457.854	1	-3
458.195	1	-15
458.536	1	7
458.877	1	-7
459.218	1	-3
459.559	1	3
459.899	1	-2
460.240	1	-1
460.581	1	2
460.922	1	-2
461.263	1	-6
461.604	1	-2
461.945	1	-1
462.286	1	-4
462.627	1	11
462.968	1	-4
463.309	1	-1
463.649	1	-3
463.990	1	-12
464.331	1	-11
464.672	1	-3
465.013	1	-1
465.354	1	-2
465.695	1	-7
466.036	1	-7
466.376	1	-7
466.717	1	2
467.058	1	-9
467.399	1	-3
467.740	1	-2
468.081	1	-2
468.422	1	5
468.762	1	-12
469.103	1	-4
469.444	1	-8
469.785	1	-18
470.126	1	-7
470.467	1	-4
470.807	1	-3
471.148	1	-4
471.489	1	-4
471.830	1	1
472.171	1	-5
472.511	1	-7
472.852	1	-4
473.193	1	0
473.534	1	-1
473.875	1	9
474.215	1	-2
474.556	1	-6
474.897	1	4
475.238	1	-7
475.578	1	-14
475.919	1	-3
476.260	1	-1
476.601	1	4
476.942	1	5
477.282	1	2
477.623	1	-16
477.964	1	-2
478.305	1	-12
478.645	1	2
478.986	1	-5
479.327	1	-11
479.667	1	-8
480.008	1	-5
480.349	1	-4
480.690	1	2
481.030	1	-16
481.371	1	-14
481.712	1	-2
482.053	1	-1
482.393	1	1
482.734	1	-14
483.075	1	5
483.415	1	-7
483.756	1	-5
484.097	1	-10
484.437	1	-9
484.778	1	-3
485.119	1	-7
485.459	1	16
485.800	1	5
486.141	1	-5
486.481	1	-3
486.822	1	3
487.163	1	0
487.503	1	-4
487.844	1	-3
488.185	1	-4
488.525	1	-5
488.866	1	3
489.207	1	-5
489.547	1	-10
489.888	1	-10
490.228	1	4
490.569	1	11
490.910	1	-8
491.250	1	-10
491.591	1	-11
491.932	1	-6
492.272	1	3
492.613	1	-4
492.953	1	-2
493.294	1	-8
493.635	1	1
493.975	1	-10
494.316	1	-4
494.656	1	-10
494.997	1	1
495.337	1	2
495.678	1	-8
496.019	1	-8
496.359	1	-9
496.700	1	3
497.040	1	-1
497.381	1	-17
497.721	1	-8
498.062	1	1
498.403	1	4
498.743	1	1
499.084	1	-5
499.424	1	1
499.765	1	6
500.105	1	-6
500.446	1	-11
500.786	1	-10
501.127	1	-3
501.467	1	-9
501.808	1	3
502.148	1	-1
502.489	1	1
502.829	1	0
503.170	1	2
503.510	1	9
503.851	1	-6
504.191	1	1
504.532	1	-5
504.872	1	-3
505.213	1	10
505.553	1	-7
505.894	1	-13
506.234	1	7
506.575	1	2
506.915	1	-2
507.256	1	0
507.596	1	-3
507.936	1	0
508.277	1	-4
508.617	1	-4
508.958	1	-10
509.298	1	-2
509.639	1	-9
509.979	1	1
510.319	1	0
510.660	1	-2
511.000	1	-3
511.341	1	-4
511.681	1	4
512.022	1	-5
512.362	1	-13
512.702	1	-3
513.043	1	10
513.383	1	-13
513.724	1	-3
514.064	1	6
514.404	1	1
514.745	1	1
515.085	1	3
515.425	1	-6
515.766	1	-7
516.106	1	-4
516.447	1	5
516.787	1	-3
517.127	1	9
517.468	1	-5
517.808	1	-1
518.148	1	3
518.489	1	-2
518.829	1	12
519.169	1	-4
519.510	1	-2
519.850	1	-1
520.190	1	1
520.531	1	-1
520.871	1	-3
521.211	1	-11
521.552	1	3
521.892	1	0
522.232	1	-1
522.573	1	-3
522.913	1	-1
523.253	1	-1
523.593	1	1
523.934	1	-5
524.274	1	4
524.614	1	-1
524.955	1	-8
525.295	1	5
525.635	1	-12
525.975	1	-8
526.316	1	6
526.656	1	-2
526.996	1	-6
527.337	1	-9
527.677	1	-5
528.017	1	-3
528.357	1	1
528.698	1	-9
529.038	1	-6
529.378	1	3
529.718	1	11
530.058	1	-9
530.399	1	1
530.739	1	-1
531.079	1	-4
531.419	1	-2
531.760	1	3
532.100	1	2
532.440	1	9
532.780	1	-7
533.120	1	7
533.461	1	-9
533.801	1	20
534.141	1	-2
534.481	1	-8
534.821	1	5
535.162	1	1
535.502	1	-4
535.842	1	-4
536.182	1	-1
536.522	1	-8
536.862	1	3
537.203	1	-9
537.543	1	-9
537.883	1	-7
538.223	1	-2
538.563	1	-2
538.903	1	-9
539.243	1	-4
539.584	1	-7
539.924	1	5
540.264	1	-2
540.604	1	-2
540.944	1	-9
541.284	1	10
541.624	1	-4
541.964	1	1
542.305	1	1
542.645	1	4
542.985	1	10
543.325	1	-12
543.665	1	1
544.005	1	4
544.345	1	4
544.685	1	-2
545.025	1	-1
545.365	1	-3
545.705	1	-10
546.045	1	-10
546.386	1	7
546.726	1	-12
547.066	1	4
547.406	1	-1
547.746	1	-9
548.086	1	-1
548.426	1	-8
548.766	1	-4
549.106	1	-11
549.446	1	-4
549.786	1	-19
550.126	1	10
550.466	1	-7
550.806	1	-9
551.146	1	1
551.486	1	-11
551.826	1	-5
552.166	1	-8
552.506	1	-2
552.846	1	-6
553.186	1	-1
553.526	1	-17
553.866	1	-7
554.206	1	0
554.546	1	-3
554.886	1	0
555.226	1	-8
555.566	1	1
555.906	1	2
556.246	1	0
556.586	1	-8
556.926	1	2
557.266	1	-6
557.606	1	7
557.946	1	7
558.286	1	-2
558.626	1	4
558.966	1	-10
559.306	1	-8
559.646	1	-6
559.986	1	-1
560.325	1	-15
560.665	1	-3
561.005	1	-13
561.345	1	-2
561.685	1	-8
562.025	1	-12
562.365	1	0
562.705	1	-8
563.045	1	-10
563.385	1	-9
563.725	1	4
564.064	1	-4
564.404	1	-4
564.744	1	7
565.084	1	-7
565.424	1	-3
565.764	1	-9
566.104	1	-8
566.444	1	-5
566.783	1	-5
567.123	1	6
567.463	1	-1
567.803	1	-9
568.143	1	-2
568.483	1	1
568.823	1	-5
569.162	1	4
569.502	1	-10
569.842	1	-5
570.182	1	-6
570.522	1	-11
570.862	1	-7
571.201	1	4
571.541	1	2
571.881	1	3
572.221	1	-4
572.561	1	-11
572.900	1	-1
573.240	1	1
573.580	1	-6
573.920	1	-1
574.260	1	6
574.599	1	-3
574.939	1	-10
575.279	1	5
575.619	1	5
575.959	1	-13
576.298	1	1
576.638	1	-6
576.978	1	-2
577.318	1	1
577.657	1	-10
577.997	1	-7
578.337	1	11
578.677	1	6
579.016	1	3
579.356	1	4
579.696	1	2
580.036	1	-9
580.375	1	8
580.715	1	1
581.055	1	-3
581.394	1	-11
581.734	1	-10
582.074	1	-10
582.414	1	-1
582.753	1	-15
583.093	1	-2
583.433	1	2
583.772	1	6
584.112	1	-3
584.452	1	-5
584.791	1	-10
585.131	1	0
585.471	1	2
585.811	1	7
586.150	1	-5
586.490	1	-6
586.830	1	3
587.169	1	7
587.509	1	-9
587.849	1	-2
588.188	1	0
588.528	1	-7
588.867	1	-2
589.207	1	-9
589.547	1	-6
589.886	1	-6
590.226	1	0
590.566	1	-2
590.905	1	-12
591.245	1	-13
591.585	1	1
591.924	1	-3
592.264	1	9
592.603	1	1
592.943	1	-6
593.283	1	0
593.622	1	-12
593.962	1	0
594.301	1	0
594.641	1	-8
594.981	1	-15
595.320	1	0
595.660	1	-5
595.999	1	-10
596.339	1	0
596.678	1	-7
597.018	1	-8
597.358	1	2
597.697	1	-5
598.037	1	-2
598.376	1	0
598.716	1	-2
599.055	1	2
599.395	1	-6
599.734	1	-3
600.074	1	-1
600.413	1	-5
600.753	1	3
601.092	1	8
601.432	1	-7
601.771	1	8
602.111	1	3
602.451	1	5
602.790	1	-9
603.130	1	2
603.469	1	-9
603.809	1	-2
604.148	1	0
604.487	1	-4
604.827	1	-2
605.166	1	5
605.506	1	-8
605.845	1	3
606.185	1	9
606.524	1	-10
606.864	1	1
607.203	1	-11
607.543	1	-9
607.882	1	10
608.222	1	7
608.561	1	-5
608.901	1	-1
609.240	1	-6
609.579	1	0
609.919	1	6
610.258	1	-5
610.598	1	-14
610.937	1	-9
611.277	1	-10
611.616	1	-2
611.955	1	-1
612.295	1	-13
612.634	1	-8
612.974	1	-22
613.313	1	-1
613.652	1	-4
613.992	1	-10
614.331	1	-10
614.671	1	-1
615.010	1	-5
615.349	1	3
615.689	1	9
616.028	1	-8
616.368	1	-4
616.707	1	3
617.046	1	0
617.386	1	-6
617.725	1	-11
618.064	1	-5
618.404	1	-1
618.743	1	-3
619.082	1	-1
619.422	1	-14
619.761	1	-2
620.100	1	0
620.440	1	-2
620.779	1	-10
621.118	1	-3
621.458	1	4
621.797	1	-7
622.136	1	13
622.476	1	0
622.815	1	4
623.154	1	5
623.494	1	0
623.833	1	9
624.172	1	-4
624.511	1	0
624.851	1	-6
625.190	1	-1
625.529	1	-3
625.869	1	4
626.208	1	-4
626.547	1	-4
626.886	1	-3
627.226	1	6
627.565	1	2
627.904	1	-8
628.243	1	-5
628.583	1	-3
628.922	1	5
629.261	1	0
629.600	1	2
629.940	1	-9
630.279	1	-8
630.618	1	-4
630.957	1	-7
631.297	1	-2
631.636	1	-18
631.975	1	14
632.314	1	-1
632.653	1	-2
632.993	1	-3
633.332	1	-5
633.671	1	-10
634.010	1	-4
634.349	1	4
634.689	1	-1
635.028	1	-2
635.367	1	-5
635.706	1	1
636.045	1	6
636.384	1	0
636.724	1	5
637.063	1	-12
637.402	1	0
637.741	1	0
638.080	1	-8
638.419	1	-8
638.759	1	-11
639.098	1	4
639.437	1	0
639.776	1	-11
640.115	1	3
640.454	1	-6
640.793	1	4
641.132	1	1
641.472	1	5
641.811	1	-3
642.150	1	-11
642.489	1	-1
642.828	1	-3
643.167	1	-10
643.506	1	-11
643.845	1	-3
644.184	1	-5
644.524	1	-1
644.863	1	-10
645.202	1	-10
645.541	1	-3
645.880	1	5
646.219	1	-2
646.558	1	-4
646.897	1	-2
647.236	1	-2
647.575	1	3
647.914	1	-8
648.253	1	-3
648.592	1	5
648.931	1	10
649.270	1	-2
649.610	1	-7
649.949	1	1
650.288	1	-4
650.627	1	-4
650.966	1	-2
651.305	1	-2
651.644	1	12
651.983	1	-5
652.322	1	-16
652.661	1	-10
653.000	1	-3
653.339	1	8
653.678	1	5
654.017	1	-4
654.356	1	-8
654.695	1	-2
655.034	1	0
655.373	1	6
655.712	1	-5
656.051	1	-6
656.390	1	-13
656.729	1	-3
657.068	1	6
657.406	1	0
657.745	1	-4
658.084	1	-2
658.423	1	1
658.762	1	-5
659.101	1	4
659.440	1	-4
659.779	1	-2
660.118	1	7
660.457	1	-6
660.796	1	-17
661.135	1	-7
661.474	1	-11
661.813	1	14
662.152	1	4
662.491	1	-9
662.829	1	-2
663.168	1	-4
663.507	1	9
663.846	1	2
664.185	1	9
664.524	1	5
664.863	1	-6
665.202	1	8
665.541	1	-9
665.879	1	-9
666.218	1	-8
666.557	1	-4
666.896	1	-13
667.235	1	5
667.574	1	-7
667.913	1	-1
668.251	1	1
668.590	1	-4
668.929	1	-15
669.268	1	-2
669.607	1	-2
669.946	1	2
670.285	1	0
670.623	1	4
670.962	1	-3
671.301	1	-5
671.640	1	-5
671.979	1	-14
672.317	1	0
672.656	1	-10
672.995	1	3
673.334	1	-3
673.673	1	-1
674.011	1	-7
674.350	1	0
674.689	1	-11
675.028	1	3
675.367	1	-8
675.705	1	5
676.044	1	-5
676.383	1	1
676.722	1	0
677.060	1	-14
677.399	1	-4
677.738	1	-3
678.077	1	14
678.416	1	-2
678.754	1	-7
679.093	1	4
679.432	1	-8
679.771	1	-2
680.109	1	1
680.448	1	0
680.787	1	-6
681.125	1	-2
681.464	1	2
681.803	1	-4
682.142	1	5
682.480	1	-5
682.819	1	-1
683.158	1	4
683.496	1	0
683.835	1	-6
684.174	1	-13
684.512	1	0
684.851	1	3
685.190	1	-3
685.529	1	-1
685.867	1	-10
686.206	1	-5
686.545	1	4
686.883	1	-1
687.222	1	1
687.561	1	-1
687.899	1	-8
688.238	1	-3
688.577	1	-3
688.746	1	5