File: Data/GaN_200K_800ms/GaN_sample F_spot 12_UVVIS_200 K_200um_800 ms 2x2mm1_66.txt
340.368	1	4
340.710	1	0
341.052	1	15
341.394	1	-5
341.737	1	7
342.079	1	-5
342.421	1	-5
342.763	1	7
343.105	1	7
343.447	1	3
343.789	1	-2
344.131	1	4
344.473	1	7
344.815	1	-1
345.157	1	2
345.499	1	7
345.841	1	9
346.183	1	-5
346.526	1	-3
346.868	1	14
347.210	1	-4
347.552	1	4
347.894	1	5
348.236	1	17
348.578	1	4
348.920	1	0
349.262	1	10
349.604	1	14
349.946	1	0
350.288	1	12
350.630	1	13
350.972	1	13
351.314	1	8
351.656	1	11
351.998	1	6
352.340	1	6
352.682	1	17
353.024	1	11
353.366	1	28
353.708	1	23
354.050	1	3
354.392	1	9
354.734	1	17
355.076	1	14
355.418	1	7
355.760	1	15
356.102	1	34
356.444	1	19
356.785	1	14
357.127	1	23
357.469	1	26
357.811	1	11
358.153	1	18
358.495	1	26
358.837	1	24
359.179	1	25
359.521	1	38
359.863	1	34
360.205	1	34
360.547	1	43
360.889	1	38
361.231	1	35
361.572	1	51
361.914	1	53
362.256	1	57
362.598	1	56
362.940	1	69
363.282	1	65
363.624	1	82
363.966	1	82
364.308	1	81
364.649	1	111
364.991	1	120
365.333	1	114
365.675	1	110
366.017	1	145
366.359	1	150
366.701	1	152
367.042	1	173
367.384	1	197
367.726	1	207
368.068	1	210
368.410	1	218
368.752	1	222
369.093	1	212
369.435	1	228
369.777	1	202
370.119	1	221
370.461	1	243
370.803	1	229
371.144	1	204
371.486	1	204
371.828	1	200
372.170	1	201
372.512	1	168
372.853	1	177
373.195	1	166
373.537	1	155
373.879	1	145
374.220	1	161
374.562	1	146
374.904	1	119
375.246	1	131
375.588	1	123
375.929	1	110
376.271	1	128
376.613	1	98
376.955	1	88
377.296	1	89
377.638	1	88
377.980	1	93
378.321	1	74
378.663	1	73
379.005	1	90
379.347	1	81
379.688	1	74
380.030	1	66
380.372	1	59
380.714	1	59
381.055	1	55
381.397	1	54
381.739	1	51
382.080	1	49
382.422	1	57
382.764	1	37
383.105	1	41
383.447	1	53
383.789	1	34
384.130	1	43
384.472	1	32
384.814	1	32
385.156	1	29
385.497	1	45
385.839	1	38
386.180	1	43
386.522	1	37
386.864	1	39
387.205	1	27
387.547	1	22
387.889	1	36
388.230	1	32
388.572	1	25
388.914	1	19
389.255	1	23
389.597	1	32
389.939	1	20
390.280	1	23
390.622	1	18
390.963	1	31
391.305	1	21
391.647	1	16
391.988	1	16
392.330	1	31
392.671	1	11
393.013	1	18
393.355	1	32
393.696	1	26
394.038	1	10
394.379	1	9
394.721	1	4
395.062	1	17
395.404	1	10
395.746	1	21
396.087	1	6
396.429	1	26
396.770	1	4
397.112	1	15
397.453	1	24
397.795	1	15
398.136	1	10
398.478	1	17
398.819	1	19
399.161	1	9
399.503	1	12
399.844	1	20
400.186	1	12
400.527	1	2
400.869	1	13
401.210	1	9
401.552	1	7
401.893	1	8
402.235	1	1
402.576	1	6
402.918	1	10
403.259	1	20
403.601	1	14
403.942	1	16
404.284	1	9
404.625	1	6
404.967	1	5
405.308	1	9
405.649	1	1
405.991	1	2
406.332	1	10
406.674	1	0
407.015	1	9
407.357	1	2
407.698	1	11
408.040	1	-1
408.381	1	7
408.722	1	-11
409.064	1	20
409.405	1	8
409.747	1	4
410.088	1	5
410.430	1	7
410.771	1	10
411.112	1	-3
411.454	1	-3
411.795	1	2
412.137	1	7
412.478	1	24
412.819	1	2
413.161	1	3
413.502	1	-3
413.844	1	6
414.185	1	9
414.526	1	1
414.868	1	7
415.209	1	4
415.550	1	1
415.892	1	7
416.233	1	13
416.575	1	15
416.916	1	0
417.257	1	8
417.599	1	5
417.940	1	2
418.281	1	7
418.623	1	1
418.964	1	-6
419.305	1	8
419.647	1	4
419.988	1	-3
420.329	1	-4
420.671	1	17
421.012	1	6
421.353	1	0
421.695	1	-5
422.036	1	0
422.377	1	4
422.718	1	13
423.060	1	3
423.401	1	-1
423.742	1	-1
424.084	1	2
424.425	1	8
424.766	1	-5
425.107	1	1
425.449	1	5
425.790	1	-8
426.131	1	7
426.472	1	-4
426.814	1	2
427.155	1	-3
427.496	1	9
427.837	1	-10
428.179	1	-2
428.520	1	-1
428.861	1	2
429.202	1	3
429.544	1	3
429.885	1	5
430.226	1	-6
430.567	1	-2
430.909	1	8
431.250	1	-2
431.591	1	1
431.932	1	0
432.273	1	5
432.615	1	-9
432.956	1	0
433.297	1	3
433.638	1	-1
433.979	1	5
434.320	1	12
434.662	1	2
435.003	1	10
435.344	1	8
435.685	1	4
436.026	1	15
436.368	1	3
436.709	1	5
437.050	1	-3
437.391	1	5
437.732	1	-5
438.073	1	8
438.414	1	-7
438.756	1	-1
439.097	1	-3
439.438	1	4
439.779	1	2
440.120	1	13
440.461	1	3
440.802	1	5
441.143	1	11
441.485	1	8
441.826	1	-1
442.167	1	8
442.508	1	-2
442.849	1	10
443.190	1	3
443.531	1	4
443.872	1	8
444.213	1	14
444.554	1	14
444.895	1	1
445.237	1	0
445.578	1	-1
445.919	1	-15
446.260	1	-1
446.601	1	3
446.942	1	6
447.283	1	-3
447.624	1	5
447.965	1	3
448.306	1	7
448.647	1	-5
448.988	1	2
449.329	1	3
449.670	1	13
450.011	1	13
450.352	1	3
450.693	1	2
451.034	1	2
451.375	1	2
451.716	1	1
452.057	1	13
452.398	1	5
452.739	1	-4
453.080	1	5
453.421	1	4
453.762	1	1
454.103	1	1
454.444	1	-10
454.785	1	6
455.126	1	-3
455.467	1	10
455.808	1	4
456.149	1	9
456.490	1	11
456.831	1	9
457.172	1	-2
457.513	1	8
457.854	1	9
458.195	1	-1
458.536	1	5
458.877	1	3
459.218	1	6
459.559	1	7
459.899	1	10
460.240	1	3
460.581	1	11
460.922	1	10
461.263	1	-6
461.604	1	-3
461.945	1	7
462.286	1	9
462.627	1	14
462.968	1	7
463.309	1	0
463.649	1	1
463.990	1	1
464.331	1	-1
464.672	1	3
465.013	1	3
465.354	1	8
465.695	1	1
466.036	1	-2
466.376	1	1
466.717	1	8
467.058	1	9
467.399	1	14
467.740	1	8
468.081	1	3
468.422	1	3
468.762	1	-5
469.103	1	-2
469.444	1	-8
469.785	1	-1
470.126	1	-11
470.467	1	2
470.807	1	10
471.148	1	10
471.489	1	2
471.830	1	-4
472.171	1	4
472.511	1	-2
472.852	1	10
473.193	1	13
473.534	1	10
473.875	1	10
474.215	1	13
474.556	1	4
474.897	1	9
475.238	1	2
475.578	1	-12
475.919	1	2
476.260	1	2
476.601	1	5
476.942	1	15
477.282	1	-5
477.623	1	-7
477.964	1	6
478.305	1	0
478.645	1	13
478.986	1	0
479.327	1	-8
479.667	1	3
480.008	1	2
480.349	1	1
480.690	1	5
481.030	1	6
481.371	1	7
481.712	1	8
482.053	1	7
482.393	1	8
482.734	1	-1
483.075	1	0
483.415	1	8
483.756	1	6
484.097	1	6
484.437	1	-3
484.778	1	5
485.119	1	1
485.459	1	13
485.800	1	8
486.141	1	4
486.481	1	9
486.822	1	19
487.163	1	7
487.503	1	8
487.844	1	4
488.185	1	6
488.525	1	8
488.866	1	5
489.207	1	1
489.547	1	-1
489.888	1	3
490.228	1	21
490.569	1	18
490.910	1	10
491.250	1	4
491.591	1	4
491.932	1	4
492.272	1	0
492.613	1	-4
492.953	1	-3
493.294	1	-1
493.635	1	4
493.975	1	2
494.316	1	10
494.656	1	8
494.997	1	8
495.337	1	18
495.678	1	8
496.019	1	7
496.359	1	6
496.700	1	8
497.040	1	4
497.381	1	7
497.721	1	5
498.062	1	15
498.403	1	11
498.743	1	1
499.084	1	7
499.424	1	8
499.765	1	10
500.105	1	13
500.446	1	4
500.786	1	6
501.127	1	2
501.467	1	6
501.808	1	8
502.148	1	5
502.489	1	12
502.829	1	14
503.170	1	12
503.510	1	14
503.851	1	16
504.191	1	18
504.532	1	15
504.872	1	14
505.213	1	11
505.553	1	4
505.894	1	10
506.234	1	18
506.575	1	18
506.915	1	13
507.256	1	13
507.596	1	8
507.936	1	15
508.277	1	7
508.617	1	2
508.958	1	2
509.298	1	19
509.639	1	9
509.979	1	15
510.319	1	18
510.660	1	14
511.000	1	7
511.341	1	13
511.681	1	11
512.022	1	12
512.362	1	4
512.702	1	8
513.043	1	13
513.383	1	7
513.724	1	14
514.064	1	22
514.404	1	10
514.745	1	6
515.085	1	19
515.425	1	4
515.766	1	11
516.106	1	11
516.447	1	25
516.787	1	13
517.127	1	16
517.468	1	6
517.808	1	9
518.148	1	14
518.489	1	6
518.829	1	22
519.169	1	11
519.510	1	14
519.850	1	16
520.190	1	18
520.531	1	22
520.871	1	10
521.211	1	10
521.552	1	31
521.892	1	24
522.232	1	11
522.573	1	14
522.913	1	23
523.253	1	12
523.593	1	10
523.934	1	18
524.274	1	18
524.614	1	2
524.955	1	9
525.295	1	19
525.635	1	18
525.975	1	14
526.316	1	24
526.656	1	17
526.996	1	25
527.337	1	12
527.677	1	19
528.017	1	14
528.357	1	10
528.698	1	15
529.038	1	23
529.378	1	28
529.718	1	29
530.058	1	8
530.399	1	27
530.739	1	29
531.079	1	26
531.419	1	23
531.760	1	31
532.100	1	21
532.440	1	16
532.780	1	11
533.120	1	18
533.461	1	24
533.801	1	26
534.141	1	8
534.481	1	17
534.821	1	27
535.162	1	23
535.502	1	13
535.842	1	35
536.182	1	21
536.522	1	10
536.862	1	27
537.203	1	17
537.543	1	15
537.883	1	24
538.223	1	24
538.563	1	24
538.903	1	11
539.243	1	22
539.584	1	15
539.924	1	25
540.264	1	21
540.604	1	23
540.944	1	10
541.284	1	29
541.624	1	19
541.964	1	23
542.305	1	19
542.645	1	16
542.985	1	22
543.325	1	16
543.665	1	25
544.005	1	21
544.345	1	12
544.685	1	27
545.025	1	22
545.365	1	13
545.705	1	26
546.045	1	16
546.386	1	23
546.726	1	10
547.066	1	31
547.406	1	28
547.746	1	4
548.086	1	27
548.426	1	30
548.766	1	23
549.106	1	18
549.446	1	26
549.786	1	28
550.126	1	30
550.466	1	31
550.806	1	26
551.146	1	29
551.486	1	20
551.826	1	28
552.166	1	31
552.506	1	30
552.846	1	22
553.186	1	34
553.526	1	27
553.866	1	15
554.206	1	17
554.546	1	28
554.886	1	19
555.226	1	10
555.566	1	29
555.906	1	16
556.246	1	23
556.586	1	34
556.926	1	24
557.266	1	15
557.606	1	14
557.946	1	39
558.286	1	21
558.626	1	20
558.966	1	12
559.306	1	16
559.646	1	23
559.986	1	12
560.325	1	18
560.665	1	20
561.005	1	22
561.345	1	22
561.685	1	18
562.025	1	22
562.365	1	27
562.705	1	18
563.045	1	25
563.385	1	17
563.725	1	18
564.064	1	11
564.404	1	34
564.744	1	27
565.084	1	18
565.424	1	28
565.764	1	21
566.104	1	19
566.444	1	19
566.783	1	18
567.123	1	27
567.463	1	16
567.803	1	12
568.143	1	23
568.483	1	36
568.823	1	18
569.162	1	29
569.502	1	24
569.842	1	23
570.182	1	26
570.522	1	16
570.862	1	24
571.201	1	23
571.541	1	23
571.881	1	42
572.221	1	23
572.561	1	16
572.900	1	15
573.240	1	26
573.580	1	20
573.920	1	20
574.260	1	31
574.599	1	25
574.939	1	24
575.279	1	33
575.619	1	27
575.959	1	11
576.298	1	38
576.638	1	10
576.978	1	34
577.318	1	22
577.657	1	7
577.997	1	16
578.337	1	30
578.677	1	19
579.016	1	37
579.356	1	24
579.696	1	20
580.036	1	15
580.375	1	37
580.715	1	19
581.055	1	8
581.394	1	19
581.734	1	15
582.074	1	14
582.414	1	26
582.753	1	13
583.093	1	20
583.433	1	18
583.772	1	19
584.112	1	23
584.452	1	20
584.791	1	19
585.131	1	26
585.471	1	34
585.811	1	36
586.150	1	23
586.490	1	31
586.830	1	20
587.169	1	31
587.509	1	31
587.849	1	14
588.188	1	27
588.528	1	30
588.867	1	20
589.207	1	22
589.547	1	22
589.886	1	17
590.226	1	22
590.566	1	16
590.905	1	22
591.245	1	18
591.585	1	22
591.924	1	27
592.264	1	19
592.603	1	6
592.943	1	12
593.283	1	16
593.622	1	16
593.962	1	20
594.301	1	9
594.641	1	14
594.981	1	22
595.320	1	24
595.660	1	17
595.999	1	-1
596.339	1	16
596.678	1	17
597.018	1	6
597.358	1	20
597.697	1	20
598.037	1	17
598.376	1	23
598.716	1	24
599.055	1	17
599.395	1	16
599.734	1	17
600.074	1	18
600.413	1	17
600.753	1	9
601.092	1	24
601.432	1	15
601.771	1	19
602.111	1	10
602.451	1	22
602.790	1	15
603.130	1	14
603.469	1	16
603.809	1	30
604.148	1	15
604.487	1	14
604.827	1	30
605.166	1	22
605.506	1	11
605.845	1	20
606.185	1	23
606.524	1	7
606.864	1	13
607.203	1	8
607.543	1	15
607.882	1	26
608.222	1	29
608.561	1	18
608.901	1	22
609.240	1	3
609.579	1	21
609.919	1	23
610.258	1	21
610.598	1	7
610.937	1	18
611.277	1	14
611.616	1	14
611.955	1	19
612.295	1	16
612.634	1	6
612.974	1	6
613.313	1	15
613.652	1	13
613.992	1	11
614.331	1	14
614.671	1	21
615.010	1	4
615.349	1	16
615.689	1	23
616.028	1	15
616.368	1	17
616.707	1	10
617.046	1	7
617.386	1	18
617.725	1	14
618.064	1	10
618.404	1	13
618.743	1	7
619.082	1	10
619.422	1	0
619.761	1	14
620.100	1	12
620.440	1	10
620.779	1	11
621.118	1	9
621.458	1	12
621.797	1	11
622.136	1	20
622.476	1	18
622.815	1	13
623.154	1	22
623.494	1	23
623.833	1	17
624.172	1	12
624.511	1	22
624.851	1	7
625.190	1	15
625.529	1	11
625.869	1	25
626.208	1	6
626.547	1	16
626.886	1	8
627.226	1	7
627.565	1	9
627.904	1	12
628.243	1	17
628.583	1	12
628.922	1	11
629.261	1	13
629.600	1	21
629.940	1	10
630.279	1	2
630.618	1	7
630.957	1	13
631.297	1	9
631.636	1	3
631.975	1	32
632.314	1	10
632.653	1	17
632.993	1	12
633.332	1	12
633.671	1	-3
634.010	1	1
634.349	1	14
634.689	1	17
635.028	1	11
635.367	1	9
635.706	1	11
636.045	1	20
636.384	1	3
636.724	1	15
637.063	1	9
637.402	1	19
637.741	1	6
638.080	1	2
638.419	1	5
638.759	1	3
639.098	1	19
639.437	1	11
639.776	1	3
640.115	1	13
640.454	1	3
640.793	1	21
641.132	1	16
641.472	1	21
641.811	1	5
642.150	1	9
642.489	1	14
642.828	1	0
643.167	1	6
643.506	1	1
643.845	1	7
644.184	1	11
644.524	1	7
644.863	1	-6
645.202	1	11
645.541	1	14
645.880	1	5
646.219	1	8
646.558	1	0
646.897	1	5
647.236	1	12
647.575	1	10
647.914	1	7
648.253	1	13
648.592	1	7
648.931	1	17
649.270	1	-7
649.610	1	12
649.949	1	5
650.288	1	9
650.627	1	12
650.966	1	10
651.305	1	6
651.644	1	17
651.983	1	4
652.322	1	5
652.661	1	1
653.000	1	2
653.339	1	13
653.678	1	8
654.017	1	8
654.356	1	-3
654.695	1	9
655.034	1	6
655.373	1	16
655.712	1	4
656.051	1	4
656.390	1	1
656.729	1	18
657.068	1	13
657.406	1	13
657.745	1	6
658.084	1	22
658.423	1	12
658.762	1	7
659.101	1	13
659.440	1	6
659.779	1	8
660.118	1	4
660.457	1	11
660.796	1	-7
661.135	1	-2
661.474	1	4
661.813	1	18
662.152	1	8
662.491	1	2
662.829	1	3
663.168	1	13
663.507	1	16
663.846	1	8
664.185	1	9
664.524	1	11
664.863	1	7
665.202	1	12
665.541	1	-1
665.879	1	-1
666.218	1	6
666.557	1	9
666.896	1	1
667.235	1	2
667.574	1	7
667.913	1	6
668.251	1	-2
668.590	1	11
668.929	1	-1
669.268	1	2
669.607	1	-1
669.946	1	3
670.285	1	10
670.623	1	12
670.962	1	10
671.301	1	-2
671.640	1	8
671.979	1	5
672.317	1	12
672.656	1	4
672.995	1	12
673.334	1	9
673.673	1	6
674.011	1	7
674.350	1	14
674.689	1	3
675.028	1	16
675.367	1	14
675.705	1	10
676.044	1	8
676.383	1	11
676.722	1	9
677.060	1	-2
677.399	1	2
677.738	1	9
678.077	1	15
678.416	1	9
678.754	1	-2
679.093	1	10
679.432	1	3
679.771	1	7
680.109	1	14
680.448	1	-6
680.787	1	-6
681.125	1	14
681.464	1	16
681.803	1	0
682.142	1	5
682.480	1	11
682.819	1	19
683.158	1	11
683.496	1	16
683.835	1	8
684.174	1	12
684.512	1	13
684.851	1	22
685.190	1	8
685.529	1	12
685.867	1	3
686.206	1	2
686.545	1	2
686.883	1	4
687.222	1	16
687.561	1	14
687.899	1	10
688.238	1	20
688.577	1	9
688.746	1	5