File: Data/GaN_200K_800ms/GaN_sample F_spot 12_UVVIS_200 K_200um_800 ms 2x2mm1_42.txt
340.368	1	6
340.710	1	0
341.052	1	14
341.394	1	15
341.737	1	9
342.079	1	-7
342.421	1	6
342.763	1	3
343.105	1	10
343.447	1	0
343.789	1	5
344.131	1	10
344.473	1	-2
344.815	1	9
345.157	1	-4
345.499	1	14
345.841	1	12
346.183	1	-4
346.526	1	-3
346.868	1	11
347.210	1	-1
347.552	1	7
347.894	1	18
348.236	1	18
348.578	1	10
348.920	1	6
349.262	1	8
349.604	1	14
349.946	1	14
350.288	1	21
350.630	1	12
350.972	1	16
351.314	1	19
351.656	1	20
351.998	1	12
352.340	1	18
352.682	1	14
353.024	1	19
353.366	1	32
353.708	1	16
354.050	1	17
354.392	1	17
354.734	1	29
355.076	1	30
355.418	1	22
355.760	1	27
356.102	1	36
356.444	1	45
356.785	1	45
357.127	1	52
357.469	1	47
357.811	1	44
358.153	1	60
358.495	1	61
358.837	1	60
359.179	1	71
359.521	1	74
359.863	1	85
360.205	1	82
360.547	1	106
360.889	1	97
361.231	1	119
361.572	1	130
361.914	1	156
362.256	1	173
362.598	1	178
362.940	1	213
363.282	1	232
363.624	1	277
363.966	1	292
364.308	1	333
364.649	1	354
364.991	1	423
365.333	1	449
365.675	1	513
366.017	1	581
366.359	1	628
366.701	1	694
367.042	1	757
367.384	1	844
367.726	1	885
368.068	1	973
368.410	1	1002
368.752	1	1027
369.093	1	1068
369.435	1	1114
369.777	1	1097
370.119	1	1097
370.461	1	1107
370.803	1	1049
371.144	1	1009
371.486	1	974
371.828	1	917
372.170	1	861
372.512	1	785
372.853	1	762
373.195	1	698
373.537	1	694
373.879	1	658
374.220	1	602
374.562	1	591
374.904	1	558
375.246	1	527
375.588	1	484
375.929	1	473
376.271	1	442
376.613	1	403
376.955	1	392
377.296	1	376
377.638	1	357
377.980	1	341
378.321	1	306
378.663	1	283
379.005	1	296
379.347	1	265
379.688	1	238
380.030	1	233
380.372	1	224
380.714	1	229
381.055	1	209
381.397	1	196
381.739	1	179
382.080	1	162
382.422	1	160
382.764	1	147
383.105	1	146
383.447	1	136
383.789	1	126
384.130	1	126
384.472	1	123
384.814	1	131
385.156	1	117
385.497	1	115
385.839	1	118
386.180	1	110
386.522	1	105
386.864	1	102
387.205	1	101
387.547	1	95
387.889	1	99
388.230	1	82
388.572	1	81
388.914	1	72
389.255	1	85
389.597	1	88
389.939	1	73
390.280	1	64
390.622	1	79
390.963	1	67
391.305	1	58
391.647	1	65
391.988	1	63
392.330	1	65
392.671	1	52
393.013	1	61
393.355	1	42
393.696	1	52
394.038	1	46
394.379	1	53
394.721	1	34
395.062	1	43
395.404	1	38
395.746	1	31
396.087	1	35
396.429	1	44
396.770	1	35
397.112	1	50
397.453	1	48
397.795	1	39
398.136	1	25
398.478	1	39
398.819	1	32
399.161	1	40
399.503	1	34
399.844	1	38
400.186	1	25
400.527	1	29
400.869	1	22
401.210	1	31
401.552	1	13
401.893	1	32
402.235	1	19
402.576	1	14
402.918	1	41
403.259	1	32
403.601	1	9
403.942	1	34
404.284	1	26
404.625	1	27
404.967	1	29
405.308	1	27
405.649	1	16
405.991	1	18
406.332	1	30
406.674	1	6
407.015	1	19
407.357	1	7
407.698	1	25
408.040	1	17
408.381	1	26
408.722	1	4
409.064	1	8
409.405	1	13
409.747	1	17
410.088	1	22
410.430	1	17
410.771	1	18
411.112	1	5
411.454	1	8
411.795	1	13
412.137	1	17
412.478	1	29
412.819	1	9
413.161	1	9
413.502	1	19
413.844	1	17
414.185	1	18
414.526	1	6
414.868	1	13
415.209	1	6
415.550	1	10
415.892	1	6
416.233	1	19
416.575	1	19
416.916	1	7
417.257	1	13
417.599	1	16
417.940	1	16
418.281	1	15
418.623	1	10
418.964	1	8
419.305	1	12
419.647	1	10
419.988	1	12
420.329	1	7
420.671	1	13
421.012	1	21
421.353	1	10
421.695	1	3
422.036	1	12
422.377	1	1
422.718	1	20
423.060	1	4
423.401	1	12
423.742	1	13
424.084	1	14
424.425	1	17
424.766	1	4
425.107	1	12
425.449	1	8
425.790	1	1
426.131	1	8
426.472	1	8
426.814	1	11
427.155	1	3
427.496	1	-1
427.837	1	6
428.179	1	1
428.520	1	14
428.861	1	0
429.202	1	13
429.544	1	7
429.885	1	16
430.226	1	6
430.567	1	20
430.909	1	8
431.250	1	7
431.591	1	8
431.932	1	6
432.273	1	3
432.615	1	9
432.956	1	4
433.297	1	7
433.638	1	9
433.979	1	8
434.320	1	5
434.662	1	7
435.003	1	15
435.344	1	6
435.685	1	13
436.026	1	3
436.368	1	8
436.709	1	14
437.050	1	9
437.391	1	14
437.732	1	0
438.073	1	6
438.414	1	6
438.756	1	0
439.097	1	-2
439.438	1	1
439.779	1	5
440.120	1	10
440.461	1	15
440.802	1	5
441.143	1	17
441.485	1	4
441.826	1	6
442.167	1	16
442.508	1	3
442.849	1	21
443.190	1	8
443.531	1	22
443.872	1	15
444.213	1	11
444.554	1	19
444.895	1	-1
445.237	1	9
445.578	1	-4
445.919	1	4
446.260	1	7
446.601	1	6
446.942	1	11
447.283	1	-3
447.624	1	10
447.965	1	3
448.306	1	10
448.647	1	-7
448.988	1	3
449.329	1	-4
449.670	1	10
450.011	1	18
450.352	1	0
450.693	1	-1
451.034	1	0
451.375	1	-7
451.716	1	5
452.057	1	7
452.398	1	7
452.739	1	15
453.080	1	-2
453.421	1	8
453.762	1	14
454.103	1	4
454.444	1	-1
454.785	1	3
455.126	1	4
455.467	1	12
455.808	1	14
456.149	1	8
456.490	1	0
456.831	1	13
457.172	1	0
457.513	1	23
457.854	1	15
458.195	1	4
458.536	1	10
458.877	1	-1
459.218	1	2
459.559	1	10
459.899	1	1
460.240	1	18
460.581	1	19
460.922	1	6
461.263	1	3
461.604	1	9
461.945	1	10
462.286	1	7
462.627	1	20
462.968	1	6
463.309	1	-4
463.649	1	12
463.990	1	8
464.331	1	6
464.672	1	3
465.013	1	12
465.354	1	11
465.695	1	2
466.036	1	7
466.376	1	0
466.717	1	14
467.058	1	11
467.399	1	8
467.740	1	5
468.081	1	14
468.422	1	2
468.762	1	2
469.103	1	3
469.444	1	2
469.785	1	-4
470.126	1	4
470.467	1	3
470.807	1	13
471.148	1	8
471.489	1	11
471.830	1	6
472.171	1	17
472.511	1	8
472.852	1	6
473.193	1	21
473.534	1	18
473.875	1	23
474.215	1	15
474.556	1	13
474.897	1	13
475.238	1	9
475.578	1	1
475.919	1	11
476.260	1	1
476.601	1	9
476.942	1	21
477.282	1	6
477.623	1	2
477.964	1	8
478.305	1	8
478.645	1	18
478.986	1	15
479.327	1	8
479.667	1	18
480.008	1	-3
480.349	1	3
480.690	1	15
481.030	1	5
481.371	1	16
481.712	1	12
482.053	1	19
482.393	1	14
482.734	1	24
483.075	1	17
483.415	1	11
483.756	1	25
484.097	1	9
484.437	1	7
484.778	1	19
485.119	1	13
485.459	1	27
485.800	1	7
486.141	1	15
486.481	1	17
486.822	1	16
487.163	1	12
487.503	1	10
487.844	1	13
488.185	1	13
488.525	1	24
488.866	1	21
489.207	1	14
489.547	1	17
489.888	1	14
490.228	1	27
490.569	1	31
490.910	1	24
491.250	1	16
491.591	1	14
491.932	1	11
492.272	1	21
492.613	1	25
492.953	1	26
493.294	1	6
493.635	1	31
493.975	1	14
494.316	1	24
494.656	1	22
494.997	1	25
495.337	1	20
495.678	1	25
496.019	1	24
496.359	1	23
496.700	1	32
497.040	1	34
497.381	1	18
497.721	1	23
498.062	1	25
498.403	1	30
498.743	1	25
499.084	1	25
499.424	1	20
499.765	1	24
500.105	1	25
500.446	1	28
500.786	1	28
501.127	1	27
501.467	1	24
501.808	1	33
502.148	1	33
502.489	1	39
502.829	1	38
503.170	1	48
503.510	1	43
503.851	1	33
504.191	1	49
504.532	1	42
504.872	1	36
505.213	1	39
505.553	1	28
505.894	1	28
506.234	1	46
506.575	1	55
506.915	1	45
507.256	1	53
507.596	1	47
507.936	1	49
508.277	1	49
508.617	1	42
508.958	1	28
509.298	1	41
509.639	1	44
509.979	1	44
510.319	1	43
510.660	1	44
511.000	1	44
511.341	1	40
511.681	1	51
512.022	1	42
512.362	1	36
512.702	1	45
513.043	1	56
513.383	1	39
513.724	1	36
514.064	1	53
514.404	1	47
514.745	1	37
515.085	1	44
515.425	1	46
515.766	1	42
516.106	1	53
516.447	1	56
516.787	1	54
517.127	1	49
517.468	1	56
517.808	1	45
518.148	1	64
518.489	1	52
518.829	1	56
519.169	1	58
519.510	1	67
519.850	1	66
520.190	1	53
520.531	1	59
520.871	1	54
521.211	1	36
521.552	1	65
521.892	1	63
522.232	1	73
522.573	1	60
522.913	1	55
523.253	1	62
523.593	1	49
523.934	1	54
524.274	1	66
524.614	1	64
524.955	1	63
525.295	1	67
525.635	1	66
525.975	1	60
526.316	1	72
526.656	1	57
526.996	1	77
527.337	1	64
527.677	1	58
528.017	1	63
528.357	1	61
528.698	1	66
529.038	1	72
529.378	1	78
529.718	1	80
530.058	1	71
530.399	1	83
530.739	1	59
531.079	1	85
531.419	1	85
531.760	1	79
532.100	1	63
532.440	1	75
532.780	1	69
533.120	1	89
533.461	1	80
533.801	1	88
534.141	1	71
534.481	1	64
534.821	1	81
535.162	1	70
535.502	1	75
535.842	1	84
536.182	1	73
536.522	1	66
536.862	1	74
537.203	1	66
537.543	1	70
537.883	1	76
538.223	1	70
538.563	1	77
538.903	1	66
539.243	1	72
539.584	1	75
539.924	1	77
540.264	1	60
540.604	1	73
540.944	1	65
541.284	1	85
541.624	1	73
541.964	1	73
542.305	1	77
542.645	1	79
542.985	1	82
543.325	1	67
543.665	1	82
544.005	1	86
544.345	1	81
544.685	1	74
545.025	1	73
545.365	1	75
545.705	1	73
546.045	1	76
546.386	1	73
546.726	1	63
547.066	1	88
547.406	1	90
547.746	1	75
548.086	1	77
548.426	1	76
548.766	1	84
549.106	1	99
549.446	1	81
549.786	1	94
550.126	1	101
550.466	1	86
550.806	1	87
551.146	1	93
551.486	1	89
551.826	1	91
552.166	1	83
552.506	1	98
552.846	1	96
553.186	1	91
553.526	1	94
553.866	1	91
554.206	1	95
554.546	1	99
554.886	1	93
555.226	1	79
555.566	1	88
555.906	1	101
556.246	1	85
556.586	1	90
556.926	1	87
557.266	1	85
557.606	1	90
557.946	1	104
558.286	1	78
558.626	1	88
558.966	1	75
559.306	1	85
559.646	1	82
559.986	1	81
560.325	1	83
560.665	1	100
561.005	1	75
561.345	1	93
561.685	1	83
562.025	1	91
562.365	1	85
562.705	1	89
563.045	1	72
563.385	1	81
563.725	1	85
564.064	1	75
564.404	1	94
564.744	1	94
565.084	1	90
565.424	1	94
565.764	1	95
566.104	1	85
566.444	1	84
566.783	1	79
567.123	1	80
567.463	1	95
567.803	1	72
568.143	1	78
568.483	1	94
568.823	1	84
569.162	1	92
569.502	1	85
569.842	1	88
570.182	1	81
570.522	1	75
570.862	1	79
571.201	1	87
571.541	1	84
571.881	1	100
572.221	1	83
572.561	1	88
572.900	1	83
573.240	1	77
573.580	1	80
573.920	1	82
574.260	1	89
574.599	1	87
574.939	1	81
575.279	1	96
575.619	1	79
575.959	1	66
576.298	1	97
576.638	1	82
576.978	1	89
577.318	1	82
577.657	1	74
577.997	1	67
578.337	1	80
578.677	1	88
579.016	1	87
579.356	1	71
579.696	1	91
580.036	1	81
580.375	1	85
580.715	1	76
581.055	1	73
581.394	1	84
581.734	1	80
582.074	1	64
582.414	1	83
582.753	1	84
583.093	1	80
583.433	1	84
583.772	1	86
584.112	1	80
584.452	1	84
584.791	1	79
585.131	1	91
585.471	1	96
585.811	1	88
586.150	1	72
586.490	1	83
586.830	1	75
587.169	1	84
587.509	1	76
587.849	1	69
588.188	1	85
588.528	1	79
588.867	1	79
589.207	1	73
589.547	1	70
589.886	1	66
590.226	1	73
590.566	1	61
590.905	1	70
591.245	1	65
591.585	1	65
591.924	1	77
592.264	1	60
592.603	1	74
592.943	1	63
593.283	1	70
593.622	1	59
593.962	1	71
594.301	1	69
594.641	1	61
594.981	1	71
595.320	1	65
595.660	1	64
595.999	1	51
596.339	1	70
596.678	1	59
597.018	1	53
597.358	1	63
597.697	1	58
598.037	1	64
598.376	1	65
598.716	1	78
599.055	1	68
599.395	1	63
599.734	1	63
600.074	1	66
600.413	1	73
600.753	1	63
601.092	1	77
601.432	1	49
601.771	1	69
602.111	1	73
602.451	1	68
602.790	1	67
603.130	1	65
603.469	1	56
603.809	1	70
604.148	1	67
604.487	1	66
604.827	1	63
605.166	1	70
605.506	1	64
605.845	1	63
606.185	1	68
606.524	1	67
606.864	1	55
607.203	1	60
607.543	1	56
607.882	1	67
608.222	1	69
608.561	1	67
608.901	1	62
609.240	1	50
609.579	1	72
609.919	1	62
610.258	1	69
610.598	1	55
610.937	1	59
611.277	1	52
611.616	1	61
611.955	1	69
612.295	1	45
612.634	1	55
612.974	1	49
613.313	1	66
613.652	1	63
613.992	1	48
614.331	1	52
614.671	1	55
615.010	1	39
615.349	1	53
615.689	1	59
616.028	1	50
616.368	1	45
616.707	1	57
617.046	1	65
617.386	1	54
617.725	1	51
618.064	1	54
618.404	1	51
618.743	1	56
619.082	1	51
619.422	1	41
619.761	1	49
620.100	1	64
620.440	1	51
620.779	1	41
621.118	1	42
621.458	1	42
621.797	1	35
622.136	1	62
622.476	1	42
622.815	1	48
623.154	1	52
623.494	1	62
623.833	1	45
624.172	1	39
624.511	1	46
624.851	1	36
625.190	1	51
625.529	1	50
625.869	1	44
626.208	1	51
626.547	1	43
626.886	1	45
627.226	1	47
627.565	1	41
627.904	1	47
628.243	1	53
628.583	1	37
628.922	1	48
629.261	1	46
629.600	1	43
629.940	1	49
630.279	1	39
630.618	1	46
630.957	1	39
631.297	1	47
631.636	1	40
631.975	1	48
632.314	1	44
632.653	1	47
632.993	1	38
633.332	1	44
633.671	1	37
634.010	1	33
634.349	1	50
634.689	1	47
635.028	1	49
635.367	1	46
635.706	1	44
636.045	1	44
636.384	1	45
636.724	1	41
637.063	1	41
637.402	1	45
637.741	1	42
638.080	1	34
638.419	1	29
638.759	1	41
639.098	1	41
639.437	1	45
639.776	1	33
640.115	1	29
640.454	1	34
640.793	1	51
641.132	1	38
641.472	1	41
641.811	1	37
642.150	1	29
642.489	1	45
642.828	1	33
643.167	1	38
643.506	1	26
643.845	1	37
644.184	1	34
644.524	1	35
644.863	1	32
645.202	1	28
645.541	1	33
645.880	1	38
646.219	1	36
646.558	1	38
646.897	1	38
647.236	1	31
647.575	1	39
647.914	1	26
648.253	1	42
648.592	1	23
648.931	1	45
649.270	1	27
649.610	1	36
649.949	1	36
650.288	1	37
650.627	1	40
650.966	1	33
651.305	1	24
651.644	1	41
651.983	1	31
652.322	1	24
652.661	1	16
653.000	1	31
653.339	1	50
653.678	1	32
654.017	1	34
654.356	1	29
654.695	1	29
655.034	1	38
655.373	1	39
655.712	1	37
656.051	1	24
656.390	1	32
656.729	1	44
657.068	1	34
657.406	1	29
657.745	1	27
658.084	1	34
658.423	1	35
658.762	1	15
659.101	1	33
659.440	1	19
659.779	1	24
660.118	1	34
660.457	1	19
660.796	1	19
661.135	1	31
661.474	1	21
661.813	1	36
662.152	1	24
662.491	1	25
662.829	1	18
663.168	1	18
663.507	1	35
663.846	1	18
664.185	1	27
664.524	1	24
664.863	1	20
665.202	1	27
665.541	1	17
665.879	1	23
666.218	1	26
666.557	1	15
666.896	1	23
667.235	1	21
667.574	1	13
667.913	1	27
668.251	1	17
668.590	1	16
668.929	1	27
669.268	1	21
669.607	1	15
669.946	1	31
670.285	1	22
670.623	1	19
670.962	1	19
671.301	1	13
671.640	1	23
671.979	1	20
672.317	1	27
672.656	1	19
672.995	1	23
673.334	1	23
673.673	1	19
674.011	1	16
674.350	1	27
674.689	1	24
675.028	1	4
675.367	1	27
675.705	1	33
676.044	1	32
676.383	1	30
676.722	1	23
677.060	1	16
677.399	1	24
677.738	1	26
678.077	1	23
678.416	1	27
678.754	1	31
679.093	1	22
679.432	1	24
679.771	1	14
680.109	1	37
680.448	1	24
680.787	1	15
681.125	1	28
681.464	1	28
681.803	1	15
682.142	1	31
682.480	1	34
682.819	1	16
683.158	1	25
683.496	1	21
683.835	1	21
684.174	1	23
684.512	1	19
684.851	1	22
685.190	1	29
685.529	1	23
685.867	1	18
686.206	1	20
686.545	1	26
686.883	1	18
687.222	1	23
687.561	1	27
687.899	1	17
688.238	1	21
688.577	1	21
688.746	1	19