File: Data/GaN_200K_800ms/GaN_sample F_spot 12_UVVIS_200 K_200um_800 ms 2x2mm1_288.txt
340.368	1	-1
340.710	1	-2
341.052	1	2
341.394	1	-3
341.737	1	4
342.079	1	-4
342.421	1	2
342.763	1	3
343.105	1	8
343.447	1	-8
343.789	1	-4
344.131	1	-6
344.473	1	-5
344.815	1	-12
345.157	1	-13
345.499	1	1
345.841	1	3
346.183	1	-3
346.526	1	-3
346.868	1	6
347.210	1	-11
347.552	1	-5
347.894	1	-1
348.236	1	13
348.578	1	0
348.920	1	-1
349.262	1	-11
349.604	1	1
349.946	1	-3
350.288	1	13
350.630	1	13
350.972	1	1
351.314	1	-2
351.656	1	9
351.998	1	5
352.340	1	4
352.682	1	10
353.024	1	7
353.366	1	15
353.708	1	-2
354.050	1	-11
354.392	1	3
354.734	1	9
355.076	1	1
355.418	1	-16
355.760	1	-8
356.102	1	3
356.444	1	2
356.785	1	6
357.127	1	-4
357.469	1	4
357.811	1	6
358.153	1	3
358.495	1	8
358.837	1	-13
359.179	1	-8
359.521	1	20
359.863	1	4
360.205	1	-1
360.547	1	7
360.889	1	-5
361.231	1	-6
361.572	1	12
361.914	1	7
362.256	1	4
362.598	1	-4
362.940	1	0
363.282	1	5
363.624	1	13
363.966	1	4
364.308	1	0
364.649	1	8
364.991	1	0
365.333	1	8
365.675	1	5
366.017	1	15
366.359	1	12
366.701	1	12
367.042	1	19
367.384	1	17
367.726	1	7
368.068	1	19
368.410	1	34
368.752	1	7
369.093	1	12
369.435	1	19
369.777	1	13
370.119	1	10
370.461	1	35
370.803	1	21
371.144	1	10
371.486	1	23
371.828	1	14
372.170	1	17
372.512	1	5
372.853	1	22
373.195	1	5
373.537	1	15
373.879	1	6
374.220	1	22
374.562	1	19
374.904	1	7
375.246	1	12
375.588	1	7
375.929	1	14
376.271	1	12
376.613	1	6
376.955	1	-3
377.296	1	9
377.638	1	9
377.980	1	8
378.321	1	-6
378.663	1	4
379.005	1	12
379.347	1	10
379.688	1	9
380.030	1	3
380.372	1	11
380.714	1	11
381.055	1	7
381.397	1	9
381.739	1	13
382.080	1	4
382.422	1	-4
382.764	1	-3
383.105	1	-4
383.447	1	4
383.789	1	1
384.130	1	5
384.472	1	-4
384.814	1	1
385.156	1	-6
385.497	1	10
385.839	1	4
386.180	1	4
386.522	1	10
386.864	1	15
387.205	1	-2
387.547	1	-4
387.889	1	-4
388.230	1	13
388.572	1	-7
388.914	1	14
389.255	1	-14
389.597	1	14
389.939	1	0
390.280	1	4
390.622	1	1
390.963	1	13
391.305	1	3
391.647	1	2
391.988	1	8
392.330	1	9
392.671	1	-4
393.013	1	-1
393.355	1	9
393.696	1	6
394.038	1	7
394.379	1	-3
394.721	1	-5
395.062	1	4
395.404	1	-5
395.746	1	10
396.087	1	-2
396.429	1	5
396.770	1	-8
397.112	1	7
397.453	1	16
397.795	1	0
398.136	1	-4
398.478	1	-1
398.819	1	-2
399.161	1	12
399.503	1	-4
399.844	1	-1
400.186	1	-6
400.527	1	-5
400.869	1	-3
401.210	1	5
401.552	1	-6
401.893	1	-1
402.235	1	10
402.576	1	-4
402.918	1	6
403.259	1	3
403.601	1	1
403.942	1	0
404.284	1	8
404.625	1	2
404.967	1	7
405.308	1	7
405.649	1	-5
405.991	1	1
406.332	1	-2
406.674	1	5
407.015	1	0
407.357	1	-6
407.698	1	5
408.040	1	-5
408.381	1	4
408.722	1	-8
409.064	1	-1
409.405	1	8
409.747	1	-2
410.088	1	0
410.430	1	8
410.771	1	4
411.112	1	-7
411.454	1	-6
411.795	1	-1
412.137	1	-2
412.478	1	9
412.819	1	-3
413.161	1	-8
413.502	1	3
413.844	1	2
414.185	1	8
414.526	1	-5
414.868	1	2
415.209	1	4
415.550	1	-5
415.892	1	5
416.233	1	5
416.575	1	7
416.916	1	-1
417.257	1	4
417.599	1	3
417.940	1	6
418.281	1	2
418.623	1	-8
418.964	1	-10
419.305	1	-2
419.647	1	2
419.988	1	-4
420.329	1	-8
420.671	1	7
421.012	1	-1
421.353	1	2
421.695	1	-8
422.036	1	-2
422.377	1	-12
422.718	1	7
423.060	1	-9
423.401	1	5
423.742	1	1
424.084	1	-1
424.425	1	-1
424.766	1	-5
425.107	1	-4
425.449	1	5
425.790	1	-7
426.131	1	0
426.472	1	-2
426.814	1	5
427.155	1	-7
427.496	1	-5
427.837	1	-4
428.179	1	-16
428.520	1	-6
428.861	1	-5
429.202	1	-2
429.544	1	-3
429.885	1	4
430.226	1	-9
430.567	1	2
430.909	1	6
431.250	1	1
431.591	1	0
431.932	1	-2
432.273	1	2
432.615	1	-7
432.956	1	-7
433.297	1	5
433.638	1	-3
433.979	1	2
434.320	1	3
434.662	1	-1
435.003	1	2
435.344	1	-7
435.685	1	-2
436.026	1	7
436.368	1	5
436.709	1	2
437.050	1	1
437.391	1	14
437.732	1	-4
438.073	1	1
438.414	1	0
438.756	1	-7
439.097	1	-4
439.438	1	-3
439.779	1	-2
440.120	1	-5
440.461	1	2
440.802	1	2
441.143	1	10
441.485	1	1
441.826	1	2
442.167	1	0
442.508	1	-5
442.849	1	9
443.190	1	4
443.531	1	5
443.872	1	0
444.213	1	1
444.554	1	8
444.895	1	-8
445.237	1	-4
445.578	1	-12
445.919	1	-5
446.260	1	-2
446.601	1	-8
446.942	1	1
447.283	1	-6
447.624	1	-2
447.965	1	-3
448.306	1	0
448.647	1	-2
448.988	1	-2
449.329	1	-1
449.670	1	6
450.011	1	5
450.352	1	8
450.693	1	-6
451.034	1	-3
451.375	1	-3
451.716	1	1
452.057	1	2
452.398	1	-4
452.739	1	2
453.080	1	2
453.421	1	-8
453.762	1	0
454.103	1	-2
454.444	1	-2
454.785	1	-7
455.126	1	-10
455.467	1	3
455.808	1	3
456.149	1	8
456.490	1	1
456.831	1	7
457.172	1	-6
457.513	1	-1
457.854	1	-7
458.195	1	-2
458.536	1	2
458.877	1	4
459.218	1	-10
459.559	1	-2
459.899	1	-3
460.240	1	2
460.581	1	17
460.922	1	3
461.263	1	-2
461.604	1	-3
461.945	1	2
462.286	1	3
462.627	1	10
462.968	1	6
463.309	1	0
463.649	1	-1
463.990	1	0
464.331	1	-3
464.672	1	-4
465.013	1	2
465.354	1	-1
465.695	1	-9
466.036	1	-4
466.376	1	-10
466.717	1	-1
467.058	1	4
467.399	1	1
467.740	1	-2
468.081	1	3
468.422	1	-2
468.762	1	-6
469.103	1	-11
469.444	1	-7
469.785	1	-10
470.126	1	-3
470.467	1	0
470.807	1	0
471.148	1	8
471.489	1	0
471.830	1	2
472.171	1	-1
472.511	1	-6
472.852	1	-1
473.193	1	11
473.534	1	7
473.875	1	7
474.215	1	15
474.556	1	0
474.897	1	-1
475.238	1	4
475.578	1	-5
475.919	1	0
476.260	1	-1
476.601	1	1
476.942	1	3
477.282	1	0
477.623	1	-10
477.964	1	-8
478.305	1	0
478.645	1	5
478.986	1	-5
479.327	1	-12
479.667	1	1
480.008	1	-1
480.349	1	-5
480.690	1	3
481.030	1	-3
481.371	1	5
481.712	1	4
482.053	1	6
482.393	1	15
482.734	1	-5
483.075	1	1
483.415	1	6
483.756	1	2
484.097	1	-3
484.437	1	-5
484.778	1	1
485.119	1	-5
485.459	1	7
485.800	1	2
486.141	1	-5
486.481	1	-3
486.822	1	7
487.163	1	2
487.503	1	2
487.844	1	5
488.185	1	0
488.525	1	-6
488.866	1	1
489.207	1	4
489.547	1	-5
489.888	1	0
490.228	1	1
490.569	1	11
490.910	1	-7
491.250	1	-8
491.591	1	-12
491.932	1	-1
492.272	1	2
492.613	1	-12
492.953	1	-1
493.294	1	1
493.635	1	-3
493.975	1	-3
494.316	1	-2
494.656	1	-5
494.997	1	-7
495.337	1	-1
495.678	1	-6
496.019	1	-3
496.359	1	-17
496.700	1	-1
497.040	1	-2
497.381	1	-3
497.721	1	2
498.062	1	8
498.403	1	-4
498.743	1	-1
499.084	1	-6
499.424	1	6
499.765	1	-6
500.105	1	0
500.446	1	-10
500.786	1	-3
501.127	1	4
501.467	1	1
501.808	1	1
502.148	1	-1
502.489	1	2
502.829	1	1
503.170	1	6
503.510	1	0
503.851	1	-2
504.191	1	8
504.532	1	1
504.872	1	4
505.213	1	10
505.553	1	-6
505.894	1	-4
506.234	1	3
506.575	1	4
506.915	1	2
507.256	1	11
507.596	1	-2
507.936	1	3
508.277	1	-1
508.617	1	1
508.958	1	-10
509.298	1	0
509.639	1	-4
509.979	1	3
510.319	1	5
510.660	1	-7
511.000	1	3
511.341	1	6
511.681	1	7
512.022	1	-5
512.362	1	-1
512.702	1	-1
513.043	1	11
513.383	1	-6
513.724	1	-4
514.064	1	2
514.404	1	-7
514.745	1	-5
515.085	1	-4
515.425	1	-4
515.766	1	-13
516.106	1	-3
516.447	1	13
516.787	1	4
517.127	1	-1
517.468	1	-3
517.808	1	1
518.148	1	5
518.489	1	-6
518.829	1	-2
519.169	1	-4
519.510	1	8
519.850	1	10
520.190	1	-3
520.531	1	5
520.871	1	-1
521.211	1	-4
521.552	1	6
521.892	1	4
522.232	1	6
522.573	1	4
522.913	1	6
523.253	1	3
523.593	1	-5
523.934	1	-3
524.274	1	9
524.614	1	-1
524.955	1	-7
525.295	1	-1
525.635	1	-2
525.975	1	4
526.316	1	13
526.656	1	0
526.996	1	9
527.337	1	2
527.677	1	4
528.017	1	-9
528.357	1	-5
528.698	1	-2
529.038	1	3
529.378	1	6
529.718	1	7
530.058	1	1
530.399	1	10
530.739	1	3
531.079	1	9
531.419	1	4
531.760	1	3
532.100	1	-8
532.440	1	-4
532.780	1	-8
533.120	1	17
533.461	1	-4
533.801	1	13
534.141	1	-13
534.481	1	-4
534.821	1	7
535.162	1	-2
535.502	1	-4
535.842	1	8
536.182	1	-1
536.522	1	1
536.862	1	9
537.203	1	1
537.543	1	7
537.883	1	2
538.223	1	5
538.563	1	11
538.903	1	-4
539.243	1	-7
539.584	1	2
539.924	1	14
540.264	1	-3
540.604	1	-2
540.944	1	-2
541.284	1	12
541.624	1	0
541.964	1	9
542.305	1	7
542.645	1	4
542.985	1	1
543.325	1	-4
543.665	1	8
544.005	1	2
544.345	1	2
544.685	1	-5
545.025	1	-1
545.365	1	3
545.705	1	7
546.045	1	-6
546.386	1	7
546.726	1	-14
547.066	1	3
547.406	1	-3
547.746	1	-18
548.086	1	-1
548.426	1	6
548.766	1	-2
549.106	1	-7
549.446	1	-3
549.786	1	-4
550.126	1	12
550.466	1	-3
550.806	1	-4
551.146	1	-7
551.486	1	1
551.826	1	-4
552.166	1	-5
552.506	1	7
552.846	1	7
553.186	1	4
553.526	1	-2
553.866	1	2
554.206	1	10
554.546	1	0
554.886	1	3
555.226	1	-5
555.566	1	9
555.906	1	8
556.246	1	10
556.586	1	-1
556.926	1	3
557.266	1	6
557.606	1	7
557.946	1	-2
558.286	1	-3
558.626	1	-1
558.966	1	3
559.306	1	-5
559.646	1	-7
559.986	1	1
560.325	1	-7
560.665	1	-1
561.005	1	-3
561.345	1	5
561.685	1	0
562.025	1	8
562.365	1	1
562.705	1	0
563.045	1	-8
563.385	1	-13
563.725	1	9
564.064	1	-5
564.404	1	2
564.744	1	7
565.084	1	-2
565.424	1	-1
565.764	1	0
566.104	1	0
566.444	1	-2
566.783	1	-5
567.123	1	4
567.463	1	5
567.803	1	-1
568.143	1	-6
568.483	1	5
568.823	1	1
569.162	1	9
569.502	1	-7
569.842	1	8
570.182	1	-1
570.522	1	-8
570.862	1	-4
571.201	1	5
571.541	1	10
571.881	1	17
572.221	1	5
572.561	1	-5
572.900	1	-6
573.240	1	1
573.580	1	1
573.920	1	0
574.260	1	9
574.599	1	0
574.939	1	11
575.279	1	15
575.619	1	5
575.959	1	0
576.298	1	3
576.638	1	1
576.978	1	12
577.318	1	3
577.657	1	-5
577.997	1	-9
578.337	1	4
578.677	1	-2
579.016	1	8
579.356	1	-9
579.696	1	0
580.036	1	-3
580.375	1	5
580.715	1	9
581.055	1	0
581.394	1	-3
581.734	1	-1
582.074	1	-4
582.414	1	10
582.753	1	1
583.093	1	-7
583.433	1	-1
583.772	1	0
584.112	1	-7
584.452	1	2
584.791	1	-2
585.131	1	6
585.471	1	5
585.811	1	6
586.150	1	5
586.490	1	3
586.830	1	-8
587.169	1	12
587.509	1	-1
587.849	1	-3
588.188	1	17
588.528	1	1
588.867	1	2
589.207	1	7
589.547	1	3
589.886	1	-2
590.226	1	4
590.566	1	4
590.905	1	5
591.245	1	-3
591.585	1	10
591.924	1	1
592.264	1	9
592.603	1	5
592.943	1	4
593.283	1	-4
593.622	1	1
593.962	1	-1
594.301	1	7
594.641	1	-13
594.981	1	-4
595.320	1	2
595.660	1	1
595.999	1	-10
596.339	1	2
596.678	1	-1
597.018	1	-6
597.358	1	1
597.697	1	-5
598.037	1	-2
598.376	1	3
598.716	1	10
599.055	1	6
599.395	1	-6
599.734	1	-1
600.074	1	1
600.413	1	11
600.753	1	16
601.092	1	7
601.432	1	-7
601.771	1	3
602.111	1	6
602.451	1	6
602.790	1	1
603.130	1	2
603.469	1	-9
603.809	1	8
604.148	1	-4
604.487	1	-4
604.827	1	9
605.166	1	6
605.506	1	2
605.845	1	9
606.185	1	9
606.524	1	-6
606.864	1	2
607.203	1	1
607.543	1	2
607.882	1	8
608.222	1	5
608.561	1	4
608.901	1	-1
609.240	1	-7
609.579	1	14
609.919	1	11
610.258	1	5
610.598	1	-2
610.937	1	5
611.277	1	-1
611.616	1	-8
611.955	1	3
612.295	1	-5
612.634	1	2
612.974	1	-3
613.313	1	6
613.652	1	0
613.992	1	-3
614.331	1	1
614.671	1	6
615.010	1	1
615.349	1	-1
615.689	1	5
616.028	1	-3
616.368	1	1
616.707	1	0
617.046	1	2
617.386	1	6
617.725	1	1
618.064	1	-9
618.404	1	-2
618.743	1	3
619.082	1	-5
619.422	1	-5
619.761	1	1
620.100	1	5
620.440	1	0
620.779	1	-3
621.118	1	3
621.458	1	1
621.797	1	-6
622.136	1	11
622.476	1	1
622.815	1	12
623.154	1	4
623.494	1	5
623.833	1	3
624.172	1	-1
624.511	1	-5
624.851	1	-16
625.190	1	0
625.529	1	2
625.869	1	4
626.208	1	-1
626.547	1	4
626.886	1	5
627.226	1	4
627.565	1	-3
627.904	1	2
628.243	1	9
628.583	1	6
628.922	1	16
629.261	1	9
629.600	1	5
629.940	1	4
630.279	1	-3
630.618	1	2
630.957	1	0
631.297	1	-3
631.636	1	-8
631.975	1	17
632.314	1	-3
632.653	1	1
632.993	1	2
633.332	1	-7
633.671	1	-12
634.010	1	-13
634.349	1	9
634.689	1	-6
635.028	1	11
635.367	1	-5
635.706	1	6
636.045	1	1
636.384	1	-3
636.724	1	0
637.063	1	-5
637.402	1	-9
637.741	1	11
638.080	1	-6
638.419	1	-5
638.759	1	-3
639.098	1	1
639.437	1	5
639.776	1	2
640.115	1	-4
640.454	1	-8
640.793	1	5
641.132	1	3
641.472	1	9
641.811	1	-2
642.150	1	-7
642.489	1	-2
642.828	1	-6
643.167	1	-4
643.506	1	-4
643.845	1	3
644.184	1	-7
644.524	1	1
644.863	1	-11
645.202	1	1
645.541	1	4
645.880	1	5
646.219	1	-6
646.558	1	1
646.897	1	-3
647.236	1	-2
647.575	1	8
647.914	1	1
648.253	1	2
648.592	1	-2
648.931	1	5
649.270	1	-4
649.610	1	4
649.949	1	-3
650.288	1	3
650.627	1	-1
650.966	1	3
651.305	1	-4
651.644	1	7
651.983	1	9
652.322	1	-7
652.661	1	-1
653.000	1	-4
653.339	1	4
653.678	1	-2
654.017	1	2
654.356	1	-10
654.695	1	-4
655.034	1	8
655.373	1	-1
655.712	1	-2
656.051	1	7
656.390	1	-10
656.729	1	10
657.068	1	-4
657.406	1	7
657.745	1	-4
658.084	1	6
658.423	1	4
658.762	1	-7
659.101	1	-1
659.440	1	-7
659.779	1	-5
660.118	1	2
660.457	1	-1
660.796	1	-12
661.135	1	-4
661.474	1	-4
661.813	1	15
662.152	1	3
662.491	1	0
662.829	1	-10
663.168	1	0
663.507	1	8
663.846	1	2
664.185	1	2
664.524	1	-1
664.863	1	-10
665.202	1	7
665.541	1	-8
665.879	1	-4
666.218	1	-14
666.557	1	3
666.896	1	-6
667.235	1	5
667.574	1	-8
667.913	1	3
668.251	1	-6
668.590	1	-3
668.929	1	-7
669.268	1	4
669.607	1	-3
669.946	1	6
670.285	1	-3
670.623	1	-5
670.962	1	5
671.301	1	-7
671.640	1	2
671.979	1	-2
672.317	1	2
672.656	1	1
672.995	1	5
673.334	1	1
673.673	1	2
674.011	1	-2
674.350	1	1
674.689	1	-7
675.028	1	3
675.367	1	-1
675.705	1	15
676.044	1	3
676.383	1	6
676.722	1	-3
677.060	1	-1
677.399	1	-15
677.738	1	-3
678.077	1	5
678.416	1	9
678.754	1	0
679.093	1	6
679.432	1	-11
679.771	1	1
680.109	1	17
680.448	1	-2
680.787	1	-4
681.125	1	6
681.464	1	4
681.803	1	2
682.142	1	7
682.480	1	9
682.819	1	3
683.158	1	-12
683.496	1	10
683.835	1	-3
684.174	1	2
684.512	1	-7
684.851	1	-2
685.190	1	-4
685.529	1	1
685.867	1	2
686.206	1	0
686.545	1	-6
686.883	1	-6
687.222	1	0
687.561	1	8
687.899	1	-4
688.238	1	5
688.577	1	-1
688.746	1	6