File: Data/GaN_200K_800ms/GaN_sample F_spot 12_UVVIS_200 K_200um_800 ms 2x2mm1_99.txt
340.368	1	-2
340.710	1	1
341.052	1	8
341.394	1	-5
341.737	1	7
342.079	1	0
342.421	1	0
342.763	1	9
343.105	1	5
343.447	1	0
343.789	1	5
344.131	1	-1
344.473	1	3
344.815	1	0
345.157	1	-6
345.499	1	1
345.841	1	15
346.183	1	-3
346.526	1	1
346.868	1	13
347.210	1	-11
347.552	1	5
347.894	1	6
348.236	1	21
348.578	1	0
348.920	1	5
349.262	1	0
349.604	1	-1
349.946	1	-7
350.288	1	14
350.630	1	7
350.972	1	8
351.314	1	7
351.656	1	7
351.998	1	9
352.340	1	6
352.682	1	8
353.024	1	15
353.366	1	25
353.708	1	14
354.050	1	11
354.392	1	4
354.734	1	5
355.076	1	8
355.418	1	-5
355.760	1	6
356.102	1	13
356.444	1	14
356.785	1	11
357.127	1	15
357.469	1	15
357.811	1	7
358.153	1	17
358.495	1	18
358.837	1	2
359.179	1	13
359.521	1	23
359.863	1	21
360.205	1	10
360.547	1	22
360.889	1	25
361.231	1	20
361.572	1	31
361.914	1	28
362.256	1	39
362.598	1	24
362.940	1	25
363.282	1	36
363.624	1	50
363.966	1	35
364.308	1	32
364.649	1	57
364.991	1	47
365.333	1	59
365.675	1	50
366.017	1	64
366.359	1	66
366.701	1	67
367.042	1	77
367.384	1	80
367.726	1	89
368.068	1	106
368.410	1	97
368.752	1	86
369.093	1	87
369.435	1	94
369.777	1	93
370.119	1	86
370.461	1	107
370.803	1	114
371.144	1	91
371.486	1	95
371.828	1	97
372.170	1	93
372.512	1	83
372.853	1	75
373.195	1	70
373.537	1	65
373.879	1	59
374.220	1	78
374.562	1	73
374.904	1	57
375.246	1	64
375.588	1	65
375.929	1	60
376.271	1	64
376.613	1	40
376.955	1	41
377.296	1	45
377.638	1	50
377.980	1	43
378.321	1	42
378.663	1	35
379.005	1	49
379.347	1	40
379.688	1	35
380.030	1	29
380.372	1	27
380.714	1	47
381.055	1	41
381.397	1	28
381.739	1	36
382.080	1	26
382.422	1	35
382.764	1	27
383.105	1	18
383.447	1	16
383.789	1	13
384.130	1	19
384.472	1	25
384.814	1	5
385.156	1	3
385.497	1	26
385.839	1	21
386.180	1	19
386.522	1	31
386.864	1	14
387.205	1	16
387.547	1	10
387.889	1	18
388.230	1	19
388.572	1	4
388.914	1	13
389.255	1	2
389.597	1	18
389.939	1	14
390.280	1	12
390.622	1	12
390.963	1	19
391.305	1	12
391.647	1	14
391.988	1	14
392.330	1	11
392.671	1	11
393.013	1	8
393.355	1	16
393.696	1	6
394.038	1	9
394.379	1	3
394.721	1	3
395.062	1	14
395.404	1	2
395.746	1	17
396.087	1	6
396.429	1	1
396.770	1	0
397.112	1	18
397.453	1	10
397.795	1	1
398.136	1	5
398.478	1	5
398.819	1	11
399.161	1	18
399.503	1	7
399.844	1	6
400.186	1	7
400.527	1	-2
400.869	1	2
401.210	1	10
401.552	1	-1
401.893	1	0
402.235	1	3
402.576	1	4
402.918	1	10
403.259	1	4
403.601	1	-4
403.942	1	6
404.284	1	11
404.625	1	6
404.967	1	7
405.308	1	12
405.649	1	6
405.991	1	-6
406.332	1	10
406.674	1	6
407.015	1	11
407.357	1	-6
407.698	1	14
408.040	1	-7
408.381	1	5
408.722	1	-6
409.064	1	7
409.405	1	9
409.747	1	1
410.088	1	-1
410.430	1	8
410.771	1	12
411.112	1	-2
411.454	1	-6
411.795	1	0
412.137	1	10
412.478	1	15
412.819	1	-2
413.161	1	5
413.502	1	4
413.844	1	-2
414.185	1	8
414.526	1	-6
414.868	1	3
415.209	1	6
415.550	1	-5
415.892	1	0
416.233	1	11
416.575	1	12
416.916	1	-1
417.257	1	6
417.599	1	1
417.940	1	10
418.281	1	1
418.623	1	-2
418.964	1	-7
419.305	1	3
419.647	1	0
419.988	1	10
420.329	1	-2
420.671	1	10
421.012	1	-1
421.353	1	5
421.695	1	-4
422.036	1	8
422.377	1	-7
422.718	1	10
423.060	1	-1
423.401	1	2
423.742	1	2
424.084	1	-1
424.425	1	3
424.766	1	3
425.107	1	-5
425.449	1	1
425.790	1	-7
426.131	1	-4
426.472	1	4
426.814	1	-3
427.155	1	-1
427.496	1	4
427.837	1	6
428.179	1	-4
428.520	1	7
428.861	1	3
429.202	1	0
429.544	1	1
429.885	1	2
430.226	1	-6
430.567	1	-2
430.909	1	7
431.250	1	10
431.591	1	9
431.932	1	-6
432.273	1	0
432.615	1	5
432.956	1	-9
433.297	1	-2
433.638	1	3
433.979	1	6
434.320	1	8
434.662	1	-1
435.003	1	5
435.344	1	7
435.685	1	-2
436.026	1	5
436.368	1	2
436.709	1	-1
437.050	1	-2
437.391	1	12
437.732	1	4
438.073	1	9
438.414	1	-1
438.756	1	-5
439.097	1	-1
439.438	1	1
439.779	1	2
440.120	1	5
440.461	1	1
440.802	1	-7
441.143	1	4
441.485	1	6
441.826	1	2
442.167	1	12
442.508	1	-6
442.849	1	3
443.190	1	4
443.531	1	11
443.872	1	15
444.213	1	5
444.554	1	14
444.895	1	-2
445.237	1	3
445.578	1	1
445.919	1	-6
446.260	1	2
446.601	1	-1
446.942	1	7
447.283	1	-3
447.624	1	1
447.965	1	9
448.306	1	6
448.647	1	2
448.988	1	1
449.329	1	2
449.670	1	-2
450.011	1	13
450.352	1	4
450.693	1	-8
451.034	1	-3
451.375	1	8
451.716	1	10
452.057	1	8
452.398	1	-2
452.739	1	13
453.080	1	4
453.421	1	9
453.762	1	-6
454.103	1	3
454.444	1	-6
454.785	1	1
455.126	1	-6
455.467	1	4
455.808	1	4
456.149	1	17
456.490	1	9
456.831	1	2
457.172	1	-1
457.513	1	1
457.854	1	4
458.195	1	9
458.536	1	11
458.877	1	7
459.218	1	-7
459.559	1	4
459.899	1	6
460.240	1	8
460.581	1	10
460.922	1	0
461.263	1	0
461.604	1	-1
461.945	1	5
462.286	1	-4
462.627	1	0
462.968	1	8
463.309	1	-3
463.649	1	1
463.990	1	5
464.331	1	-8
464.672	1	-2
465.013	1	2
465.354	1	-6
465.695	1	-2
466.036	1	-2
466.376	1	-6
466.717	1	3
467.058	1	-1
467.399	1	17
467.740	1	-5
468.081	1	5
468.422	1	2
468.762	1	-8
469.103	1	-7
469.444	1	-9
469.785	1	2
470.126	1	-1
470.467	1	5
470.807	1	5
471.148	1	7
471.489	1	1
471.830	1	12
472.171	1	15
472.511	1	-8
472.852	1	4
473.193	1	8
473.534	1	11
473.875	1	16
474.215	1	8
474.556	1	3
474.897	1	11
475.238	1	1
475.578	1	-9
475.919	1	3
476.260	1	-5
476.601	1	-1
476.942	1	7
477.282	1	-9
477.623	1	-11
477.964	1	-8
478.305	1	-5
478.645	1	9
478.986	1	1
479.327	1	0
479.667	1	2
480.008	1	6
480.349	1	1
480.690	1	1
481.030	1	-6
481.371	1	3
481.712	1	0
482.053	1	0
482.393	1	3
482.734	1	-3
483.075	1	-1
483.415	1	-1
483.756	1	7
484.097	1	4
484.437	1	-8
484.778	1	6
485.119	1	5
485.459	1	14
485.800	1	-5
486.141	1	4
486.481	1	11
486.822	1	10
487.163	1	-1
487.503	1	10
487.844	1	7
488.185	1	6
488.525	1	1
488.866	1	2
489.207	1	-4
489.547	1	3
489.888	1	2
490.228	1	15
490.569	1	14
490.910	1	14
491.250	1	2
491.591	1	6
491.932	1	3
492.272	1	7
492.613	1	-9
492.953	1	2
493.294	1	2
493.635	1	6
493.975	1	-4
494.316	1	6
494.656	1	4
494.997	1	4
495.337	1	8
495.678	1	8
496.019	1	11
496.359	1	0
496.700	1	1
497.040	1	3
497.381	1	6
497.721	1	4
498.062	1	3
498.403	1	12
498.743	1	3
499.084	1	5
499.424	1	12
499.765	1	7
500.105	1	-2
500.446	1	-3
500.786	1	-6
501.127	1	5
501.467	1	-2
501.808	1	11
502.148	1	16
502.489	1	5
502.829	1	7
503.170	1	9
503.510	1	14
503.851	1	-2
504.191	1	13
504.532	1	7
504.872	1	0
505.213	1	11
505.553	1	2
505.894	1	-7
506.234	1	13
506.575	1	9
506.915	1	6
507.256	1	8
507.596	1	11
507.936	1	6
508.277	1	1
508.617	1	0
508.958	1	-5
509.298	1	14
509.639	1	4
509.979	1	-2
510.319	1	17
510.660	1	8
511.000	1	-6
511.341	1	13
511.681	1	13
512.022	1	3
512.362	1	6
512.702	1	5
513.043	1	17
513.383	1	-1
513.724	1	1
514.064	1	14
514.404	1	-5
514.745	1	7
515.085	1	9
515.425	1	3
515.766	1	-3
516.106	1	6
516.447	1	15
516.787	1	5
517.127	1	11
517.468	1	12
517.808	1	10
518.148	1	18
518.489	1	-1
518.829	1	7
519.169	1	9
519.510	1	8
519.850	1	11
520.190	1	5
520.531	1	15
520.871	1	8
521.211	1	4
521.552	1	12
521.892	1	9
522.232	1	3
522.573	1	5
522.913	1	5
523.253	1	12
523.593	1	9
523.934	1	5
524.274	1	14
524.614	1	12
524.955	1	3
525.295	1	11
525.635	1	7
525.975	1	12
526.316	1	22
526.656	1	9
526.996	1	8
527.337	1	5
527.677	1	12
528.017	1	0
528.357	1	8
528.698	1	10
529.038	1	12
529.378	1	17
529.718	1	22
530.058	1	7
530.399	1	17
530.739	1	11
531.079	1	21
531.419	1	14
531.760	1	9
532.100	1	14
532.440	1	9
532.780	1	10
533.120	1	10
533.461	1	29
533.801	1	23
534.141	1	9
534.481	1	2
534.821	1	13
535.162	1	15
535.502	1	-3
535.842	1	15
536.182	1	12
536.522	1	12
536.862	1	14
537.203	1	8
537.543	1	7
537.883	1	10
538.223	1	9
538.563	1	17
538.903	1	2
539.243	1	5
539.584	1	12
539.924	1	25
540.264	1	1
540.604	1	11
540.944	1	1
541.284	1	21
541.624	1	16
541.964	1	28
542.305	1	17
542.645	1	19
542.985	1	9
543.325	1	14
543.665	1	17
544.005	1	11
544.345	1	15
544.685	1	5
545.025	1	12
545.365	1	6
545.705	1	8
546.045	1	3
546.386	1	23
546.726	1	0
547.066	1	22
547.406	1	9
547.746	1	-1
548.086	1	10
548.426	1	8
548.766	1	13
549.106	1	18
549.446	1	10
549.786	1	8
550.126	1	25
550.466	1	12
550.806	1	-4
551.146	1	15
551.486	1	9
551.826	1	14
552.166	1	22
552.506	1	19
552.846	1	15
553.186	1	3
553.526	1	12
553.866	1	13
554.206	1	5
554.546	1	14
554.886	1	12
555.226	1	4
555.566	1	25
555.906	1	18
556.246	1	5
556.586	1	15
556.926	1	16
557.266	1	9
557.606	1	13
557.946	1	20
558.286	1	11
558.626	1	15
558.966	1	8
559.306	1	15
559.646	1	1
559.986	1	9
560.325	1	-6
560.665	1	11
561.005	1	2
561.345	1	12
561.685	1	14
562.025	1	16
562.365	1	9
562.705	1	10
563.045	1	12
563.385	1	4
563.725	1	20
564.064	1	7
564.404	1	14
564.744	1	10
565.084	1	13
565.424	1	9
565.764	1	11
566.104	1	10
566.444	1	0
566.783	1	9
567.123	1	14
567.463	1	13
567.803	1	0
568.143	1	8
568.483	1	20
568.823	1	20
569.162	1	11
569.502	1	6
569.842	1	12
570.182	1	16
570.522	1	0
570.862	1	17
571.201	1	20
571.541	1	18
571.881	1	14
572.221	1	10
572.561	1	13
572.900	1	11
573.240	1	10
573.580	1	13
573.920	1	21
574.260	1	14
574.599	1	19
574.939	1	6
575.279	1	23
575.619	1	21
575.959	1	4
576.298	1	21
576.638	1	2
576.978	1	18
577.318	1	16
577.657	1	16
577.997	1	3
578.337	1	21
578.677	1	17
579.016	1	21
579.356	1	12
579.696	1	14
580.036	1	17
580.375	1	18
580.715	1	7
581.055	1	11
581.394	1	9
581.734	1	10
582.074	1	6
582.414	1	11
582.753	1	6
583.093	1	2
583.433	1	9
583.772	1	15
584.112	1	5
584.452	1	10
584.791	1	4
585.131	1	11
585.471	1	19
585.811	1	5
586.150	1	11
586.490	1	15
586.830	1	6
587.169	1	12
587.509	1	9
587.849	1	8
588.188	1	14
588.528	1	11
588.867	1	10
589.207	1	8
589.547	1	7
589.886	1	8
590.226	1	10
590.566	1	10
590.905	1	11
591.245	1	5
591.585	1	22
591.924	1	14
592.264	1	9
592.603	1	20
592.943	1	10
593.283	1	11
593.622	1	8
593.962	1	7
594.301	1	12
594.641	1	8
594.981	1	4
595.320	1	14
595.660	1	12
595.999	1	-3
596.339	1	11
596.678	1	0
597.018	1	4
597.358	1	13
597.697	1	14
598.037	1	10
598.376	1	18
598.716	1	8
599.055	1	22
599.395	1	14
599.734	1	5
600.074	1	3
600.413	1	21
600.753	1	14
601.092	1	20
601.432	1	3
601.771	1	16
602.111	1	13
602.451	1	20
602.790	1	14
603.130	1	13
603.469	1	-1
603.809	1	13
604.148	1	10
604.487	1	8
604.827	1	16
605.166	1	10
605.506	1	22
605.845	1	12
606.185	1	22
606.524	1	1
606.864	1	2
607.203	1	4
607.543	1	13
607.882	1	16
608.222	1	16
608.561	1	4
608.901	1	23
609.240	1	13
609.579	1	19
609.919	1	25
610.258	1	16
610.598	1	8
610.937	1	14
611.277	1	15
611.616	1	7
611.955	1	6
612.295	1	10
612.634	1	-1
612.974	1	-1
613.313	1	3
613.652	1	14
613.992	1	-3
614.331	1	1
614.671	1	10
615.010	1	5
615.349	1	9
615.689	1	1
616.028	1	13
616.368	1	6
616.707	1	5
617.046	1	2
617.386	1	10
617.725	1	4
618.064	1	0
618.404	1	-1
618.743	1	23
619.082	1	9
619.422	1	3
619.761	1	11
620.100	1	9
620.440	1	8
620.779	1	-1
621.118	1	8
621.458	1	15
621.797	1	3
622.136	1	17
622.476	1	16
622.815	1	15
623.154	1	6
623.494	1	15
623.833	1	6
624.172	1	8
624.511	1	-1
624.851	1	-8
625.190	1	8
625.529	1	11
625.869	1	18
626.208	1	9
626.547	1	9
626.886	1	6
627.226	1	14
627.565	1	10
627.904	1	6
628.243	1	4
628.583	1	3
628.922	1	12
629.261	1	14
629.600	1	9
629.940	1	8
630.279	1	-4
630.618	1	5
630.957	1	9
631.297	1	5
631.636	1	-4
631.975	1	11
632.314	1	3
632.653	1	7
632.993	1	-4
633.332	1	2
633.671	1	7
634.010	1	1
634.349	1	6
634.689	1	6
635.028	1	10
635.367	1	2
635.706	1	9
636.045	1	20
636.384	1	-1
636.724	1	12
637.063	1	2
637.402	1	6
637.741	1	8
638.080	1	3
638.419	1	2
638.759	1	1
639.098	1	14
639.437	1	9
639.776	1	0
640.115	1	-4
640.454	1	-5
640.793	1	11
641.132	1	7
641.472	1	8
641.811	1	5
642.150	1	6
642.489	1	14
642.828	1	-5
643.167	1	6
643.506	1	-8
643.845	1	4
644.184	1	2
644.524	1	4
644.863	1	8
645.202	1	4
645.541	1	4
645.880	1	6
646.219	1	8
646.558	1	11
646.897	1	8
647.236	1	12
647.575	1	13
647.914	1	-1
648.253	1	16
648.592	1	-3
648.931	1	14
649.270	1	11
649.610	1	8
649.949	1	6
650.288	1	3
650.627	1	1
650.966	1	17
651.305	1	11
651.644	1	19
651.983	1	7
652.322	1	-3
652.661	1	7
653.000	1	5
653.339	1	12
653.678	1	8
654.017	1	14
654.356	1	3
654.695	1	8
655.034	1	-1
655.373	1	10
655.712	1	4
656.051	1	2
656.390	1	1
656.729	1	14
657.068	1	8
657.406	1	11
657.745	1	8
658.084	1	15
658.423	1	14
658.762	1	-2
659.101	1	15
659.440	1	6
659.779	1	5
660.118	1	5
660.457	1	8
660.796	1	-10
661.135	1	0
661.474	1	1
661.813	1	13
662.152	1	2
662.491	1	5
662.829	1	-2
663.168	1	7
663.507	1	11
663.846	1	6
664.185	1	6
664.524	1	-5
664.863	1	-5
665.202	1	11
665.541	1	-9
665.879	1	6
666.218	1	-3
666.557	1	-2
666.896	1	5
667.235	1	4
667.574	1	5
667.913	1	10
668.251	1	5
668.590	1	1
668.929	1	-6
669.268	1	9
669.607	1	-2
669.946	1	3
670.285	1	12
670.623	1	10
670.962	1	-2
671.301	1	3
671.640	1	3
671.979	1	2
672.317	1	6
672.656	1	-2
672.995	1	14
673.334	1	11
673.673	1	1
674.011	1	3
674.350	1	-1
674.689	1	5
675.028	1	3
675.367	1	8
675.705	1	10
676.044	1	-1
676.383	1	8
676.722	1	7
677.060	1	6
677.399	1	2
677.738	1	5
678.077	1	13
678.416	1	14
678.754	1	2
679.093	1	10
679.432	1	-2
679.771	1	-4
680.109	1	17
680.448	1	11
680.787	1	8
681.125	1	5
681.464	1	0
681.803	1	4
682.142	1	12
682.480	1	6
682.819	1	4
683.158	1	7
683.496	1	2
683.835	1	6
684.174	1	0
684.512	1	16
684.851	1	14
685.190	1	2
685.529	1	1
685.867	1	3
686.206	1	7
686.545	1	5
686.883	1	0
687.222	1	3
687.561	1	13
687.899	1	10
688.238	1	10
688.577	1	4
688.746	1	0