File: Data/GaN_200K_800ms/GaN_sample F_spot 12_UVVIS_200 K_200um_800 ms 2x2mm1_32.txt
340.368	1	-4
340.710	1	-7
341.052	1	3
341.394	1	0
341.737	1	-2
342.079	1	3
342.421	1	5
342.763	1	2
343.105	1	-2
343.447	1	-10
343.789	1	6
344.131	1	1
344.473	1	-9
344.815	1	4
345.157	1	1
345.499	1	5
345.841	1	8
346.183	1	-8
346.526	1	-9
346.868	1	7
347.210	1	-10
347.552	1	3
347.894	1	2
348.236	1	0
348.578	1	2
348.920	1	3
349.262	1	-3
349.604	1	0
349.946	1	-9
350.288	1	15
350.630	1	6
350.972	1	4
351.314	1	5
351.656	1	6
351.998	1	11
352.340	1	-3
352.682	1	2
353.024	1	0
353.366	1	13
353.708	1	4
354.050	1	-5
354.392	1	3
354.734	1	-4
355.076	1	2
355.418	1	-3
355.760	1	-6
356.102	1	2
356.444	1	-1
356.785	1	2
357.127	1	-4
357.469	1	1
357.811	1	6
358.153	1	7
358.495	1	0
358.837	1	-9
359.179	1	-4
359.521	1	4
359.863	1	-2
360.205	1	-5
360.547	1	5
360.889	1	-4
361.231	1	5
361.572	1	-1
361.914	1	12
362.256	1	0
362.598	1	-2
362.940	1	-8
363.282	1	3
363.624	1	8
363.966	1	8
364.308	1	-5
364.649	1	-5
364.991	1	-3
365.333	1	-11
365.675	1	-1
366.017	1	-5
366.359	1	3
366.701	1	-5
367.042	1	1
367.384	1	2
367.726	1	4
368.068	1	0
368.410	1	11
368.752	1	-4
369.093	1	-9
369.435	1	7
369.777	1	-5
370.119	1	2
370.461	1	18
370.803	1	8
371.144	1	-6
371.486	1	6
371.828	1	-2
372.170	1	5
372.512	1	1
372.853	1	9
373.195	1	-1
373.537	1	1
373.879	1	-3
374.220	1	17
374.562	1	16
374.904	1	3
375.246	1	9
375.588	1	6
375.929	1	2
376.271	1	8
376.613	1	-2
376.955	1	-2
377.296	1	-4
377.638	1	1
377.980	1	9
378.321	1	-5
378.663	1	-5
379.005	1	3
379.347	1	1
379.688	1	13
380.030	1	1
380.372	1	-2
380.714	1	4
381.055	1	13
381.397	1	-6
381.739	1	9
382.080	1	4
382.422	1	6
382.764	1	4
383.105	1	-3
383.447	1	-3
383.789	1	3
384.130	1	-1
384.472	1	-4
384.814	1	3
385.156	1	0
385.497	1	-3
385.839	1	-8
386.180	1	-1
386.522	1	7
386.864	1	14
387.205	1	-5
387.547	1	4
387.889	1	-2
388.230	1	16
388.572	1	-3
388.914	1	-1
389.255	1	-4
389.597	1	8
389.939	1	3
390.280	1	2
390.622	1	-8
390.963	1	8
391.305	1	14
391.647	1	2
391.988	1	5
392.330	1	4
392.671	1	-4
393.013	1	-2
393.355	1	2
393.696	1	6
394.038	1	-1
394.379	1	6
394.721	1	-2
395.062	1	-4
395.404	1	-1
395.746	1	10
396.087	1	-6
396.429	1	8
396.770	1	-8
397.112	1	10
397.453	1	9
397.795	1	7
398.136	1	-6
398.478	1	3
398.819	1	12
399.161	1	11
399.503	1	-4
399.844	1	1
400.186	1	-1
400.527	1	-6
400.869	1	1
401.210	1	3
401.552	1	-4
401.893	1	-3
402.235	1	2
402.576	1	4
402.918	1	8
403.259	1	15
403.601	1	-9
403.942	1	5
404.284	1	5
404.625	1	-2
404.967	1	5
405.308	1	-1
405.649	1	3
405.991	1	-1
406.332	1	12
406.674	1	-5
407.015	1	10
407.357	1	3
407.698	1	8
408.040	1	-4
408.381	1	9
408.722	1	-14
409.064	1	2
409.405	1	11
409.747	1	3
410.088	1	4
410.430	1	8
410.771	1	-2
411.112	1	2
411.454	1	-2
411.795	1	4
412.137	1	5
412.478	1	18
412.819	1	-9
413.161	1	-4
413.502	1	10
413.844	1	13
414.185	1	8
414.526	1	-6
414.868	1	1
415.209	1	7
415.550	1	-1
415.892	1	4
416.233	1	4
416.575	1	5
416.916	1	-5
417.257	1	11
417.599	1	5
417.940	1	15
418.281	1	-3
418.623	1	-4
418.964	1	-6
419.305	1	8
419.647	1	0
419.988	1	-1
420.329	1	-2
420.671	1	3
421.012	1	6
421.353	1	-3
421.695	1	-2
422.036	1	0
422.377	1	0
422.718	1	7
423.060	1	-1
423.401	1	0
423.742	1	2
424.084	1	5
424.425	1	1
424.766	1	5
425.107	1	-4
425.449	1	0
425.790	1	3
426.131	1	0
426.472	1	3
426.814	1	5
427.155	1	-5
427.496	1	-4
427.837	1	-11
428.179	1	0
428.520	1	5
428.861	1	1
429.202	1	6
429.544	1	-2
429.885	1	6
430.226	1	-5
430.567	1	6
430.909	1	2
431.250	1	-3
431.591	1	9
431.932	1	2
432.273	1	3
432.615	1	-8
432.956	1	-6
433.297	1	11
433.638	1	0
433.979	1	1
434.320	1	10
434.662	1	-4
435.003	1	4
435.344	1	2
435.685	1	-2
436.026	1	12
436.368	1	12
436.709	1	-8
437.050	1	1
437.391	1	6
437.732	1	-1
438.073	1	1
438.414	1	-7
438.756	1	-1
439.097	1	7
439.438	1	-5
439.779	1	4
440.120	1	-7
440.461	1	1
440.802	1	0
441.143	1	7
441.485	1	3
441.826	1	4
442.167	1	8
442.508	1	2
442.849	1	9
443.190	1	9
443.531	1	13
443.872	1	14
444.213	1	4
444.554	1	12
444.895	1	0
445.237	1	-5
445.578	1	-9
445.919	1	-5
446.260	1	-4
446.601	1	-1
446.942	1	1
447.283	1	-4
447.624	1	1
447.965	1	-2
448.306	1	-3
448.647	1	-5
448.988	1	0
449.329	1	2
449.670	1	5
450.011	1	6
450.352	1	4
450.693	1	6
451.034	1	-7
451.375	1	-1
451.716	1	-3
452.057	1	9
452.398	1	0
452.739	1	6
453.080	1	4
453.421	1	2
453.762	1	3
454.103	1	-1
454.444	1	-5
454.785	1	-1
455.126	1	0
455.467	1	4
455.808	1	1
456.149	1	7
456.490	1	-1
456.831	1	7
457.172	1	-3
457.513	1	5
457.854	1	1
458.195	1	-2
458.536	1	2
458.877	1	5
459.218	1	-5
459.559	1	5
459.899	1	7
460.240	1	-3
460.581	1	0
460.922	1	-4
461.263	1	-4
461.604	1	1
461.945	1	-3
462.286	1	12
462.627	1	1
462.968	1	2
463.309	1	-2
463.649	1	-3
463.990	1	-8
464.331	1	1
464.672	1	2
465.013	1	6
465.354	1	2
465.695	1	-4
466.036	1	-5
466.376	1	6
466.717	1	-3
467.058	1	0
467.399	1	-1
467.740	1	-2
468.081	1	8
468.422	1	-1
468.762	1	-5
469.103	1	-8
469.444	1	-6
469.785	1	-5
470.126	1	-11
470.467	1	-6
470.807	1	0
471.148	1	1
471.489	1	5
471.830	1	-1
472.171	1	-9
472.511	1	3
472.852	1	2
473.193	1	6
473.534	1	0
473.875	1	26
474.215	1	9
474.556	1	-5
474.897	1	9
475.238	1	1
475.578	1	-2
475.919	1	3
476.260	1	-1
476.601	1	3
476.942	1	6
477.282	1	-3
477.623	1	-10
477.964	1	-3
478.305	1	2
478.645	1	7
478.986	1	3
479.327	1	-11
479.667	1	9
480.008	1	6
480.349	1	-4
480.690	1	-2
481.030	1	-3
481.371	1	6
481.712	1	11
482.053	1	3
482.393	1	-9
482.734	1	-2
483.075	1	-4
483.415	1	0
483.756	1	6
484.097	1	-1
484.437	1	-9
484.778	1	1
485.119	1	-2
485.459	1	15
485.800	1	-2
486.141	1	-2
486.481	1	-2
486.822	1	4
487.163	1	3
487.503	1	5
487.844	1	-2
488.185	1	-3
488.525	1	2
488.866	1	3
489.207	1	1
489.547	1	1
489.888	1	-8
490.228	1	9
490.569	1	19
490.910	1	-1
491.250	1	-5
491.591	1	0
491.932	1	6
492.272	1	0
492.613	1	-4
492.953	1	-2
493.294	1	4
493.635	1	1
493.975	1	-5
494.316	1	7
494.656	1	-4
494.997	1	-4
495.337	1	15
495.678	1	-2
496.019	1	-7
496.359	1	0
496.700	1	9
497.040	1	-2
497.381	1	0
497.721	1	-3
498.062	1	2
498.403	1	-1
498.743	1	-3
499.084	1	5
499.424	1	2
499.765	1	0
500.105	1	5
500.446	1	-5
500.786	1	-6
501.127	1	5
501.467	1	-8
501.808	1	2
502.148	1	8
502.489	1	11
502.829	1	-3
503.170	1	6
503.510	1	9
503.851	1	0
504.191	1	9
504.532	1	1
504.872	1	4
505.213	1	11
505.553	1	-4
505.894	1	2
506.234	1	12
506.575	1	7
506.915	1	7
507.256	1	9
507.596	1	-3
507.936	1	3
508.277	1	-11
508.617	1	1
508.958	1	-13
509.298	1	-5
509.639	1	-7
509.979	1	-7
510.319	1	0
510.660	1	6
511.000	1	-4
511.341	1	2
511.681	1	-2
512.022	1	-2
512.362	1	-10
512.702	1	-11
513.043	1	9
513.383	1	-1
513.724	1	-5
514.064	1	11
514.404	1	1
514.745	1	-2
515.085	1	-2
515.425	1	-1
515.766	1	-3
516.106	1	2
516.447	1	12
516.787	1	4
517.127	1	-1
517.468	1	3
517.808	1	7
518.148	1	2
518.489	1	2
518.829	1	5
519.169	1	-6
519.510	1	-7
519.850	1	5
520.190	1	-6
520.531	1	-5
520.871	1	3
521.211	1	-3
521.552	1	10
521.892	1	-5
522.232	1	0
522.573	1	-2
522.913	1	2
523.253	1	7
523.593	1	6
523.934	1	-7
524.274	1	-3
524.614	1	1
524.955	1	-3
525.295	1	12
525.635	1	-2
525.975	1	1
526.316	1	8
526.656	1	3
526.996	1	9
527.337	1	-7
527.677	1	0
528.017	1	-4
528.357	1	1
528.698	1	7
529.038	1	-1
529.378	1	7
529.718	1	3
530.058	1	5
530.399	1	9
530.739	1	-3
531.079	1	-2
531.419	1	8
531.760	1	-1
532.100	1	-10
532.440	1	-8
532.780	1	-1
533.120	1	9
533.461	1	6
533.801	1	16
534.141	1	-13
534.481	1	0
534.821	1	2
535.162	1	3
535.502	1	-3
535.842	1	0
536.182	1	1
536.522	1	3
536.862	1	-1
537.203	1	-4
537.543	1	0
537.883	1	-12
538.223	1	6
538.563	1	8
538.903	1	-5
539.243	1	-1
539.584	1	-2
539.924	1	4
540.264	1	-4
540.604	1	2
540.944	1	-2
541.284	1	6
541.624	1	1
541.964	1	8
542.305	1	11
542.645	1	2
542.985	1	8
543.325	1	2
543.665	1	11
544.005	1	8
544.345	1	11
544.685	1	-1
545.025	1	-6
545.365	1	5
545.705	1	4
546.045	1	-7
546.386	1	7
546.726	1	-14
547.066	1	2
547.406	1	9
547.746	1	-8
548.086	1	4
548.426	1	-4
548.766	1	-4
549.106	1	-10
549.446	1	1
549.786	1	-5
550.126	1	6
550.466	1	2
550.806	1	-4
551.146	1	-1
551.486	1	-1
551.826	1	9
552.166	1	5
552.506	1	10
552.846	1	9
553.186	1	9
553.526	1	-4
553.866	1	4
554.206	1	6
554.546	1	2
554.886	1	7
555.226	1	-13
555.566	1	7
555.906	1	2
556.246	1	9
556.586	1	-6
556.926	1	-1
557.266	1	-7
557.606	1	4
557.946	1	7
558.286	1	-2
558.626	1	9
558.966	1	-1
559.306	1	1
559.646	1	-10
559.986	1	-5
560.325	1	-3
560.665	1	-5
561.005	1	-10
561.345	1	8
561.685	1	1
562.025	1	0
562.365	1	8
562.705	1	-11
563.045	1	-5
563.385	1	-10
563.725	1	-7
564.064	1	-3
564.404	1	-4
564.744	1	14
565.084	1	-4
565.424	1	4
565.764	1	0
566.104	1	4
566.444	1	-3
566.783	1	-8
567.123	1	-4
567.463	1	-1
567.803	1	0
568.143	1	-2
568.483	1	10
568.823	1	-5
569.162	1	3
569.502	1	-5
569.842	1	-4
570.182	1	6
570.522	1	-3
570.862	1	-3
571.201	1	8
571.541	1	5
571.881	1	8
572.221	1	-4
572.561	1	-7
572.900	1	-11
573.240	1	1
573.580	1	4
573.920	1	6
574.260	1	0
574.599	1	5
574.939	1	7
575.279	1	14
575.619	1	7
575.959	1	0
576.298	1	10
576.638	1	-3
576.978	1	3
577.318	1	3
577.657	1	-1
577.997	1	12
578.337	1	12
578.677	1	6
579.016	1	12
579.356	1	1
579.696	1	10
580.036	1	-8
580.375	1	6
580.715	1	-6
581.055	1	-1
581.394	1	-5
581.734	1	-6
582.074	1	-10
582.414	1	1
582.753	1	-3
583.093	1	-3
583.433	1	5
583.772	1	6
584.112	1	-3
584.452	1	4
584.791	1	-8
585.131	1	11
585.471	1	4
585.811	1	13
586.150	1	0
586.490	1	4
586.830	1	-8
587.169	1	4
587.509	1	-3
587.849	1	-3
588.188	1	17
588.528	1	9
588.867	1	2
589.207	1	5
589.547	1	-2
589.886	1	-2
590.226	1	6
590.566	1	-3
590.905	1	-4
591.245	1	0
591.585	1	9
591.924	1	-5
592.264	1	6
592.603	1	-5
592.943	1	7
593.283	1	-2
593.622	1	-1
593.962	1	3
594.301	1	6
594.641	1	-3
594.981	1	-8
595.320	1	6
595.660	1	5
595.999	1	-3
596.339	1	6
596.678	1	-2
597.018	1	-8
597.358	1	8
597.697	1	1
598.037	1	3
598.376	1	0
598.716	1	11
599.055	1	10
599.395	1	1
599.734	1	5
600.074	1	1
600.413	1	12
600.753	1	-3
601.092	1	12
601.432	1	-12
601.771	1	4
602.111	1	-3
602.451	1	9
602.790	1	2
603.130	1	9
603.469	1	-4
603.809	1	8
604.148	1	6
604.487	1	4
604.827	1	13
605.166	1	2
605.506	1	0
605.845	1	1
606.185	1	5
606.524	1	-2
606.864	1	-4
607.203	1	-5
607.543	1	12
607.882	1	3
608.222	1	2
608.561	1	4
608.901	1	2
609.240	1	1
609.579	1	3
609.919	1	5
610.258	1	14
610.598	1	2
610.937	1	-4
611.277	1	-3
611.616	1	-5
611.955	1	0
612.295	1	3
612.634	1	5
612.974	1	-3
613.313	1	12
613.652	1	3
613.992	1	4
614.331	1	-2
614.671	1	6
615.010	1	-10
615.349	1	5
615.689	1	11
616.028	1	2
616.368	1	0
616.707	1	-4
617.046	1	2
617.386	1	4
617.725	1	6
618.064	1	-5
618.404	1	-3
618.743	1	9
619.082	1	6
619.422	1	-3
619.761	1	1
620.100	1	2
620.440	1	3
620.779	1	-4
621.118	1	-2
621.458	1	11
621.797	1	-7
622.136	1	13
622.476	1	4
622.815	1	8
623.154	1	6
623.494	1	6
623.833	1	5
624.172	1	4
624.511	1	4
624.851	1	-7
625.190	1	2
625.529	1	4
625.869	1	5
626.208	1	-4
626.547	1	10
626.886	1	5
627.226	1	8
627.565	1	4
627.904	1	7
628.243	1	-1
628.583	1	-8
628.922	1	6
629.261	1	2
629.600	1	5
629.940	1	-4
630.279	1	-4
630.618	1	2
630.957	1	4
631.297	1	-3
631.636	1	-1
631.975	1	13
632.314	1	-4
632.653	1	6
632.993	1	3
633.332	1	0
633.671	1	7
634.010	1	-2
634.349	1	5
634.689	1	-4
635.028	1	13
635.367	1	0
635.706	1	-3
636.045	1	9
636.384	1	-4
636.724	1	6
637.063	1	5
637.402	1	4
637.741	1	-3
638.080	1	-6
638.419	1	-7
638.759	1	-2
639.098	1	10
639.437	1	7
639.776	1	-7
640.115	1	-1
640.454	1	-8
640.793	1	5
641.132	1	0
641.472	1	4
641.811	1	-4
642.150	1	0
642.489	1	7
642.828	1	-12
643.167	1	-5
643.506	1	-8
643.845	1	1
644.184	1	7
644.524	1	-2
644.863	1	-3
645.202	1	0
645.541	1	0
645.880	1	2
646.219	1	-8
646.558	1	0
646.897	1	-4
647.236	1	-4
647.575	1	-3
647.914	1	1
648.253	1	2
648.592	1	-6
648.931	1	8
649.270	1	-2
649.610	1	5
649.949	1	0
650.288	1	7
650.627	1	13
650.966	1	4
651.305	1	6
651.644	1	9
651.983	1	5
652.322	1	-6
652.661	1	-2
653.000	1	-1
653.339	1	12
653.678	1	-2
654.017	1	3
654.356	1	2
654.695	1	6
655.034	1	12
655.373	1	2
655.712	1	-1
656.051	1	4
656.390	1	-2
656.729	1	5
657.068	1	3
657.406	1	9
657.745	1	-3
658.084	1	1
658.423	1	8
658.762	1	-6
659.101	1	15
659.440	1	6
659.779	1	5
660.118	1	-1
660.457	1	2
660.796	1	-8
661.135	1	-5
661.474	1	0
661.813	1	14
662.152	1	0
662.491	1	-7
662.829	1	-6
663.168	1	-1
663.507	1	7
663.846	1	-2
664.185	1	4
664.524	1	0
664.863	1	-4
665.202	1	5
665.541	1	-12
665.879	1	-6
666.218	1	-1
666.557	1	-4
666.896	1	-2
667.235	1	-1
667.574	1	0
667.913	1	10
668.251	1	0
668.590	1	-8
668.929	1	-14
669.268	1	-1
669.607	1	2
669.946	1	-6
670.285	1	7
670.623	1	1
670.962	1	-6
671.301	1	1
671.640	1	-1
671.979	1	-7
672.317	1	7
672.656	1	-4
672.995	1	3
673.334	1	-1
673.673	1	15
674.011	1	-1
674.350	1	0
674.689	1	4
675.028	1	-7
675.367	1	4
675.705	1	6
676.044	1	0
676.383	1	9
676.722	1	6
677.060	1	-3
677.399	1	-2
677.738	1	4
678.077	1	5
678.416	1	2
678.754	1	-2
679.093	1	9
679.432	1	-7
679.771	1	3
680.109	1	15
680.448	1	0
680.787	1	-6
681.125	1	2
681.464	1	5
681.803	1	1
682.142	1	14
682.480	1	16
682.819	1	0
683.158	1	-2
683.496	1	-4
683.835	1	-1
684.174	1	-3
684.512	1	19
684.851	1	2
685.190	1	-2
685.529	1	-1
685.867	1	2
686.206	1	0
686.545	1	0
686.883	1	3
687.222	1	5
687.561	1	5
687.899	1	-9
688.238	1	9
688.577	1	0
688.746	1	2