File: Data/GaN_200K_800ms/GaN_sample F_spot 12_UVVIS_200 K_200um_800 ms 2x2mm1_110.txt
340.368	1	10
340.710	1	-1
341.052	1	6
341.394	1	-7
341.737	1	2
342.079	1	0
342.421	1	-3
342.763	1	3
343.105	1	7
343.447	1	-2
343.789	1	2
344.131	1	-4
344.473	1	-1
344.815	1	-12
345.157	1	-3
345.499	1	5
345.841	1	11
346.183	1	-3
346.526	1	-8
346.868	1	-1
347.210	1	-8
347.552	1	-2
347.894	1	1
348.236	1	6
348.578	1	11
348.920	1	5
349.262	1	4
349.604	1	6
349.946	1	6
350.288	1	13
350.630	1	11
350.972	1	7
351.314	1	7
351.656	1	17
351.998	1	13
352.340	1	7
352.682	1	6
353.024	1	12
353.366	1	14
353.708	1	13
354.050	1	1
354.392	1	-1
354.734	1	8
355.076	1	5
355.418	1	2
355.760	1	5
356.102	1	8
356.444	1	9
356.785	1	20
357.127	1	9
357.469	1	14
357.811	1	7
358.153	1	16
358.495	1	18
358.837	1	9
359.179	1	17
359.521	1	13
359.863	1	22
360.205	1	18
360.547	1	26
360.889	1	19
361.231	1	13
361.572	1	24
361.914	1	28
362.256	1	27
362.598	1	18
362.940	1	24
363.282	1	31
363.624	1	45
363.966	1	35
364.308	1	36
364.649	1	41
364.991	1	51
365.333	1	49
365.675	1	43
366.017	1	57
366.359	1	65
366.701	1	58
367.042	1	64
367.384	1	71
367.726	1	70
368.068	1	87
368.410	1	80
368.752	1	80
369.093	1	79
369.435	1	84
369.777	1	82
370.119	1	73
370.461	1	88
370.803	1	91
371.144	1	76
371.486	1	75
371.828	1	75
372.170	1	70
372.512	1	64
372.853	1	60
373.195	1	58
373.537	1	65
373.879	1	49
374.220	1	71
374.562	1	64
374.904	1	50
375.246	1	48
375.588	1	49
375.929	1	49
376.271	1	46
376.613	1	43
376.955	1	34
377.296	1	39
377.638	1	29
377.980	1	45
378.321	1	18
378.663	1	29
379.005	1	39
379.347	1	24
379.688	1	34
380.030	1	19
380.372	1	30
380.714	1	31
381.055	1	23
381.397	1	30
381.739	1	39
382.080	1	17
382.422	1	27
382.764	1	14
383.105	1	19
383.447	1	20
383.789	1	15
384.130	1	26
384.472	1	22
384.814	1	23
385.156	1	13
385.497	1	13
385.839	1	19
386.180	1	19
386.522	1	13
386.864	1	16
387.205	1	9
387.547	1	5
387.889	1	10
388.230	1	18
388.572	1	13
388.914	1	5
389.255	1	2
389.597	1	21
389.939	1	9
390.280	1	7
390.622	1	14
390.963	1	21
391.305	1	8
391.647	1	18
391.988	1	13
392.330	1	8
392.671	1	10
393.013	1	6
393.355	1	14
393.696	1	11
394.038	1	9
394.379	1	1
394.721	1	7
395.062	1	6
395.404	1	1
395.746	1	13
396.087	1	5
396.429	1	9
396.770	1	8
397.112	1	10
397.453	1	14
397.795	1	12
398.136	1	-4
398.478	1	-5
398.819	1	9
399.161	1	9
399.503	1	7
399.844	1	8
400.186	1	7
400.527	1	8
400.869	1	1
401.210	1	9
401.552	1	-6
401.893	1	2
402.235	1	10
402.576	1	4
402.918	1	12
403.259	1	4
403.601	1	7
403.942	1	7
404.284	1	8
404.625	1	9
404.967	1	4
405.308	1	-1
405.649	1	8
405.991	1	6
406.332	1	7
406.674	1	1
407.015	1	0
407.357	1	1
407.698	1	11
408.040	1	5
408.381	1	9
408.722	1	-7
409.064	1	8
409.405	1	8
409.747	1	-1
410.088	1	1
410.430	1	6
410.771	1	-2
411.112	1	1
411.454	1	0
411.795	1	-4
412.137	1	13
412.478	1	6
412.819	1	10
413.161	1	1
413.502	1	-2
413.844	1	4
414.185	1	6
414.526	1	13
414.868	1	5
415.209	1	3
415.550	1	8
415.892	1	7
416.233	1	8
416.575	1	11
416.916	1	-8
417.257	1	0
417.599	1	9
417.940	1	10
418.281	1	1
418.623	1	3
418.964	1	-13
419.305	1	5
419.647	1	4
419.988	1	4
420.329	1	-2
420.671	1	14
421.012	1	9
421.353	1	3
421.695	1	0
422.036	1	3
422.377	1	4
422.718	1	9
423.060	1	-9
423.401	1	-2
423.742	1	1
424.084	1	5
424.425	1	5
424.766	1	1
425.107	1	2
425.449	1	-1
425.790	1	-11
426.131	1	7
426.472	1	-2
426.814	1	-3
427.155	1	-6
427.496	1	-7
427.837	1	-3
428.179	1	-3
428.520	1	7
428.861	1	5
429.202	1	5
429.544	1	3
429.885	1	0
430.226	1	0
430.567	1	-5
430.909	1	7
431.250	1	4
431.591	1	13
431.932	1	-4
432.273	1	-2
432.615	1	-9
432.956	1	-7
433.297	1	6
433.638	1	7
433.979	1	1
434.320	1	3
434.662	1	5
435.003	1	12
435.344	1	8
435.685	1	-2
436.026	1	13
436.368	1	6
436.709	1	7
437.050	1	-7
437.391	1	5
437.732	1	-5
438.073	1	-1
438.414	1	-13
438.756	1	-11
439.097	1	-9
439.438	1	3
439.779	1	3
440.120	1	-2
440.461	1	3
440.802	1	-1
441.143	1	11
441.485	1	12
441.826	1	-3
442.167	1	5
442.508	1	0
442.849	1	14
443.190	1	1
443.531	1	16
443.872	1	3
444.213	1	4
444.554	1	17
444.895	1	3
445.237	1	2
445.578	1	0
445.919	1	-5
446.260	1	-6
446.601	1	-8
446.942	1	1
447.283	1	-3
447.624	1	0
447.965	1	-3
448.306	1	0
448.647	1	-7
448.988	1	7
449.329	1	2
449.670	1	8
450.011	1	15
450.352	1	-3
450.693	1	0
451.034	1	1
451.375	1	7
451.716	1	1
452.057	1	5
452.398	1	6
452.739	1	12
453.080	1	10
453.421	1	1
453.762	1	4
454.103	1	2
454.444	1	0
454.785	1	-2
455.126	1	-4
455.467	1	2
455.808	1	1
456.149	1	8
456.490	1	-4
456.831	1	13
457.172	1	-1
457.513	1	4
457.854	1	-2
458.195	1	0
458.536	1	6
458.877	1	1
459.218	1	4
459.559	1	10
459.899	1	11
460.240	1	11
460.581	1	15
460.922	1	0
461.263	1	-2
461.604	1	4
461.945	1	6
462.286	1	-1
462.627	1	9
462.968	1	10
463.309	1	-11
463.649	1	-1
463.990	1	-2
464.331	1	-5
464.672	1	-5
465.013	1	-2
465.354	1	-2
465.695	1	-3
466.036	1	-7
466.376	1	-1
466.717	1	-1
467.058	1	9
467.399	1	9
467.740	1	4
468.081	1	6
468.422	1	1
468.762	1	-3
469.103	1	-6
469.444	1	-7
469.785	1	-11
470.126	1	-4
470.467	1	-2
470.807	1	4
471.148	1	-2
471.489	1	1
471.830	1	7
472.171	1	21
472.511	1	-4
472.852	1	10
473.193	1	10
473.534	1	2
473.875	1	5
474.215	1	9
474.556	1	2
474.897	1	3
475.238	1	-2
475.578	1	-5
475.919	1	-5
476.260	1	-3
476.601	1	-2
476.942	1	3
477.282	1	4
477.623	1	-8
477.964	1	-4
478.305	1	-3
478.645	1	9
478.986	1	1
479.327	1	-7
479.667	1	-1
480.008	1	-5
480.349	1	6
480.690	1	1
481.030	1	0
481.371	1	-4
481.712	1	19
482.053	1	0
482.393	1	10
482.734	1	-5
483.075	1	7
483.415	1	9
483.756	1	11
484.097	1	-4
484.437	1	-1
484.778	1	0
485.119	1	-1
485.459	1	17
485.800	1	2
486.141	1	-3
486.481	1	9
486.822	1	12
487.163	1	6
487.503	1	0
487.844	1	8
488.185	1	14
488.525	1	5
488.866	1	0
489.207	1	8
489.547	1	-3
489.888	1	-6
490.228	1	7
490.569	1	13
490.910	1	7
491.250	1	-3
491.591	1	-6
491.932	1	5
492.272	1	-3
492.613	1	-3
492.953	1	6
493.294	1	-3
493.635	1	8
493.975	1	-3
494.316	1	5
494.656	1	4
494.997	1	6
495.337	1	18
495.678	1	6
496.019	1	-2
496.359	1	-2
496.700	1	7
497.040	1	-3
497.381	1	2
497.721	1	2
498.062	1	-1
498.403	1	8
498.743	1	-3
499.084	1	-3
499.424	1	4
499.765	1	5
500.105	1	1
500.446	1	-8
500.786	1	-3
501.127	1	5
501.467	1	3
501.808	1	9
502.148	1	2
502.489	1	4
502.829	1	5
503.170	1	14
503.510	1	5
503.851	1	0
504.191	1	11
504.532	1	8
504.872	1	0
505.213	1	12
505.553	1	1
505.894	1	0
506.234	1	16
506.575	1	8
506.915	1	5
507.256	1	6
507.596	1	9
507.936	1	9
508.277	1	7
508.617	1	10
508.958	1	-4
509.298	1	7
509.639	1	6
509.979	1	10
510.319	1	9
510.660	1	2
511.000	1	4
511.341	1	4
511.681	1	17
512.022	1	1
512.362	1	3
512.702	1	6
513.043	1	4
513.383	1	-6
513.724	1	3
514.064	1	20
514.404	1	-3
514.745	1	8
515.085	1	0
515.425	1	-3
515.766	1	-6
516.106	1	-3
516.447	1	9
516.787	1	12
517.127	1	0
517.468	1	-1
517.808	1	4
518.148	1	9
518.489	1	-3
518.829	1	4
519.169	1	-4
519.510	1	15
519.850	1	11
520.190	1	3
520.531	1	6
520.871	1	2
521.211	1	-1
521.552	1	13
521.892	1	8
522.232	1	7
522.573	1	1
522.913	1	10
523.253	1	14
523.593	1	-4
523.934	1	3
524.274	1	10
524.614	1	4
524.955	1	4
525.295	1	10
525.635	1	4
525.975	1	6
526.316	1	18
526.656	1	7
526.996	1	17
527.337	1	11
527.677	1	12
528.017	1	-6
528.357	1	4
528.698	1	6
529.038	1	6
529.378	1	12
529.718	1	19
530.058	1	7
530.399	1	7
530.739	1	9
531.079	1	9
531.419	1	10
531.760	1	9
532.100	1	0
532.440	1	15
532.780	1	2
533.120	1	15
533.461	1	3
533.801	1	18
534.141	1	-4
534.481	1	0
534.821	1	7
535.162	1	7
535.502	1	8
535.842	1	20
536.182	1	2
536.522	1	6
536.862	1	10
537.203	1	-5
537.543	1	12
537.883	1	6
538.223	1	6
538.563	1	16
538.903	1	-6
539.243	1	3
539.584	1	9
539.924	1	12
540.264	1	10
540.604	1	7
540.944	1	1
541.284	1	23
541.624	1	8
541.964	1	15
542.305	1	12
542.645	1	4
542.985	1	22
543.325	1	2
543.665	1	18
544.005	1	15
544.345	1	5
544.685	1	8
545.025	1	3
545.365	1	2
545.705	1	13
546.045	1	7
546.386	1	4
546.726	1	3
547.066	1	9
547.406	1	10
547.746	1	-1
548.086	1	9
548.426	1	5
548.766	1	8
549.106	1	10
549.446	1	2
549.786	1	3
550.126	1	18
550.466	1	2
550.806	1	13
551.146	1	4
551.486	1	0
551.826	1	3
552.166	1	17
552.506	1	17
552.846	1	8
553.186	1	14
553.526	1	4
553.866	1	15
554.206	1	15
554.546	1	12
554.886	1	0
555.226	1	-3
555.566	1	9
555.906	1	19
556.246	1	10
556.586	1	5
556.926	1	16
557.266	1	11
557.606	1	6
557.946	1	24
558.286	1	11
558.626	1	13
558.966	1	9
559.306	1	4
559.646	1	-2
559.986	1	1
560.325	1	8
560.665	1	11
561.005	1	-3
561.345	1	1
561.685	1	12
562.025	1	13
562.365	1	6
562.705	1	5
563.045	1	6
563.385	1	10
563.725	1	8
564.064	1	5
564.404	1	6
564.744	1	5
565.084	1	5
565.424	1	6
565.764	1	4
566.104	1	9
566.444	1	-3
566.783	1	11
567.123	1	15
567.463	1	11
567.803	1	-4
568.143	1	6
568.483	1	6
568.823	1	10
569.162	1	15
569.502	1	8
569.842	1	17
570.182	1	5
570.522	1	3
570.862	1	13
571.201	1	9
571.541	1	7
571.881	1	17
572.221	1	1
572.561	1	1
572.900	1	6
573.240	1	8
573.580	1	8
573.920	1	10
574.260	1	26
574.599	1	12
574.939	1	8
575.279	1	12
575.619	1	12
575.959	1	13
576.298	1	16
576.638	1	2
576.978	1	12
577.318	1	16
577.657	1	7
577.997	1	9
578.337	1	13
578.677	1	9
579.016	1	13
579.356	1	1
579.696	1	14
580.036	1	12
580.375	1	7
580.715	1	16
581.055	1	5
581.394	1	10
581.734	1	2
582.074	1	13
582.414	1	7
582.753	1	0
583.093	1	11
583.433	1	2
583.772	1	11
584.112	1	12
584.452	1	7
584.791	1	1
585.131	1	4
585.471	1	16
585.811	1	13
586.150	1	17
586.490	1	18
586.830	1	0
587.169	1	11
587.509	1	14
587.849	1	10
588.188	1	19
588.528	1	17
588.867	1	15
589.207	1	10
589.547	1	3
589.886	1	0
590.226	1	14
590.566	1	8
590.905	1	4
591.245	1	3
591.585	1	14
591.924	1	-2
592.264	1	9
592.603	1	5
592.943	1	7
593.283	1	5
593.622	1	9
593.962	1	10
594.301	1	12
594.641	1	-5
594.981	1	-11
595.320	1	16
595.660	1	12
595.999	1	6
596.339	1	7
596.678	1	6
597.018	1	6
597.358	1	9
597.697	1	6
598.037	1	10
598.376	1	14
598.716	1	16
599.055	1	19
599.395	1	11
599.734	1	8
600.074	1	5
600.413	1	11
600.753	1	5
601.092	1	17
601.432	1	3
601.771	1	11
602.111	1	16
602.451	1	8
602.790	1	5
603.130	1	8
603.469	1	-7
603.809	1	7
604.148	1	5
604.487	1	11
604.827	1	16
605.166	1	12
605.506	1	15
605.845	1	5
606.185	1	14
606.524	1	5
606.864	1	0
607.203	1	6
607.543	1	15
607.882	1	12
608.222	1	14
608.561	1	0
608.901	1	7
609.240	1	3
609.579	1	17
609.919	1	9
610.258	1	18
610.598	1	-1
610.937	1	6
611.277	1	3
611.616	1	17
611.955	1	12
612.295	1	5
612.634	1	12
612.974	1	-3
613.313	1	21
613.652	1	15
613.992	1	4
614.331	1	5
614.671	1	5
615.010	1	-4
615.349	1	10
615.689	1	14
616.028	1	3
616.368	1	16
616.707	1	14
617.046	1	12
617.386	1	12
617.725	1	3
618.064	1	1
618.404	1	9
618.743	1	9
619.082	1	-1
619.422	1	-3
619.761	1	10
620.100	1	19
620.440	1	4
620.779	1	0
621.118	1	7
621.458	1	2
621.797	1	0
622.136	1	12
622.476	1	7
622.815	1	7
623.154	1	16
623.494	1	7
623.833	1	7
624.172	1	6
624.511	1	9
624.851	1	-1
625.190	1	2
625.529	1	11
625.869	1	12
626.208	1	-2
626.547	1	6
626.886	1	14
627.226	1	7
627.565	1	13
627.904	1	3
628.243	1	10
628.583	1	7
628.922	1	1
629.261	1	9
629.600	1	10
629.940	1	8
630.279	1	1
630.618	1	3
630.957	1	6
631.297	1	3
631.636	1	-3
631.975	1	16
632.314	1	8
632.653	1	14
632.993	1	3
633.332	1	9
633.671	1	0
634.010	1	4
634.349	1	14
634.689	1	5
635.028	1	9
635.367	1	5
635.706	1	8
636.045	1	11
636.384	1	12
636.724	1	9
637.063	1	1
637.402	1	4
637.741	1	3
638.080	1	9
638.419	1	1
638.759	1	0
639.098	1	8
639.437	1	9
639.776	1	2
640.115	1	3
640.454	1	-3
640.793	1	8
641.132	1	9
641.472	1	11
641.811	1	10
642.150	1	-11
642.489	1	15
642.828	1	5
643.167	1	2
643.506	1	-8
643.845	1	4
644.184	1	4
644.524	1	-2
644.863	1	0
645.202	1	5
645.541	1	-3
645.880	1	3
646.219	1	-3
646.558	1	1
646.897	1	10
647.236	1	3
647.575	1	12
647.914	1	1
648.253	1	11
648.592	1	-2
648.931	1	8
649.270	1	11
649.610	1	6
649.949	1	2
650.288	1	7
650.627	1	3
650.966	1	9
651.305	1	8
651.644	1	16
651.983	1	0
652.322	1	3
652.661	1	7
653.000	1	-4
653.339	1	12
653.678	1	2
654.017	1	7
654.356	1	5
654.695	1	2
655.034	1	8
655.373	1	16
655.712	1	-4
656.051	1	-5
656.390	1	1
656.729	1	6
657.068	1	-2
657.406	1	9
657.745	1	1
658.084	1	4
658.423	1	11
658.762	1	6
659.101	1	12
659.440	1	14
659.779	1	5
660.118	1	5
660.457	1	12
660.796	1	3
661.135	1	-2
661.474	1	4
661.813	1	5
662.152	1	-4
662.491	1	-1
662.829	1	-1
663.168	1	6
663.507	1	16
663.846	1	-1
664.185	1	5
664.524	1	6
664.863	1	-2
665.202	1	12
665.541	1	-4
665.879	1	-8
666.218	1	-3
666.557	1	-1
666.896	1	3
667.235	1	-4
667.574	1	13
667.913	1	1
668.251	1	-6
668.590	1	2
668.929	1	-5
669.268	1	6
669.607	1	-3
669.946	1	-2
670.285	1	4
670.623	1	-2
670.962	1	6
671.301	1	1
671.640	1	9
671.979	1	2
672.317	1	12
672.656	1	-4
672.995	1	7
673.334	1	-2
673.673	1	-4
674.011	1	-1
674.350	1	7
674.689	1	8
675.028	1	-2
675.367	1	10
675.705	1	7
676.044	1	3
676.383	1	7
676.722	1	6
677.060	1	5
677.399	1	2
677.738	1	8
678.077	1	15
678.416	1	2
678.754	1	-5
679.093	1	9
679.432	1	-2
679.771	1	5
680.109	1	16
680.448	1	10
680.787	1	5
681.125	1	6
681.464	1	10
681.803	1	7
682.142	1	8
682.480	1	15
682.819	1	2
683.158	1	14
683.496	1	15
683.835	1	-1
684.174	1	1
684.512	1	-2
684.851	1	12
685.190	1	0
685.529	1	10
685.867	1	-3
686.206	1	6
686.545	1	-6
686.883	1	6
687.222	1	8
687.561	1	7
687.899	1	2
688.238	1	8
688.577	1	11
688.746	1	5