File: Data/GaN_200K_800ms/GaN_sample F_spot 12_UVVIS_200 K_200um_800 ms 2x2mm1_68.txt
340.368	1	9
340.710	1	-6
341.052	1	7
341.394	1	5
341.737	1	5
342.079	1	1
342.421	1	-3
342.763	1	5
343.105	1	14
343.447	1	3
343.789	1	1
344.131	1	7
344.473	1	3
344.815	1	5
345.157	1	7
345.499	1	6
345.841	1	1
346.183	1	0
346.526	1	-1
346.868	1	9
347.210	1	0
347.552	1	-8
347.894	1	0
348.236	1	14
348.578	1	4
348.920	1	-1
349.262	1	0
349.604	1	7
349.946	1	-2
350.288	1	17
350.630	1	10
350.972	1	10
351.314	1	9
351.656	1	19
351.998	1	8
352.340	1	16
352.682	1	22
353.024	1	7
353.366	1	16
353.708	1	13
354.050	1	8
354.392	1	8
354.734	1	17
355.076	1	7
355.418	1	4
355.760	1	8
356.102	1	23
356.444	1	24
356.785	1	27
357.127	1	22
357.469	1	16
357.811	1	25
358.153	1	39
358.495	1	26
358.837	1	28
359.179	1	29
359.521	1	40
359.863	1	31
360.205	1	31
360.547	1	39
360.889	1	35
361.231	1	48
361.572	1	53
361.914	1	49
362.256	1	58
362.598	1	55
362.940	1	57
363.282	1	65
363.624	1	78
363.966	1	77
364.308	1	84
364.649	1	92
364.991	1	109
365.333	1	107
365.675	1	107
366.017	1	128
366.359	1	140
366.701	1	155
367.042	1	152
367.384	1	171
367.726	1	193
368.068	1	195
368.410	1	209
368.752	1	214
369.093	1	203
369.435	1	210
369.777	1	221
370.119	1	220
370.461	1	226
370.803	1	214
371.144	1	187
371.486	1	199
371.828	1	188
372.170	1	169
372.512	1	158
372.853	1	163
373.195	1	160
373.537	1	142
373.879	1	130
374.220	1	144
374.562	1	140
374.904	1	125
375.246	1	123
375.588	1	108
375.929	1	117
376.271	1	117
376.613	1	81
376.955	1	92
377.296	1	85
377.638	1	87
377.980	1	86
378.321	1	64
378.663	1	68
379.005	1	90
379.347	1	64
379.688	1	69
380.030	1	59
380.372	1	65
380.714	1	64
381.055	1	58
381.397	1	59
381.739	1	59
382.080	1	47
382.422	1	53
382.764	1	32
383.105	1	42
383.447	1	43
383.789	1	37
384.130	1	45
384.472	1	38
384.814	1	23
385.156	1	32
385.497	1	39
385.839	1	30
386.180	1	38
386.522	1	38
386.864	1	35
387.205	1	24
387.547	1	22
387.889	1	33
388.230	1	40
388.572	1	24
388.914	1	19
389.255	1	16
389.597	1	29
389.939	1	32
390.280	1	18
390.622	1	14
390.963	1	17
391.305	1	19
391.647	1	29
391.988	1	19
392.330	1	17
392.671	1	10
393.013	1	18
393.355	1	20
393.696	1	15
394.038	1	5
394.379	1	21
394.721	1	11
395.062	1	16
395.404	1	9
395.746	1	11
396.087	1	6
396.429	1	17
396.770	1	6
397.112	1	11
397.453	1	25
397.795	1	8
398.136	1	8
398.478	1	14
398.819	1	12
399.161	1	11
399.503	1	15
399.844	1	15
400.186	1	2
400.527	1	1
400.869	1	8
401.210	1	12
401.552	1	1
401.893	1	8
402.235	1	7
402.576	1	14
402.918	1	20
403.259	1	20
403.601	1	1
403.942	1	18
404.284	1	9
404.625	1	15
404.967	1	7
405.308	1	15
405.649	1	-1
405.991	1	5
406.332	1	10
406.674	1	7
407.015	1	13
407.357	1	3
407.698	1	6
408.040	1	4
408.381	1	6
408.722	1	-12
409.064	1	4
409.405	1	13
409.747	1	2
410.088	1	9
410.430	1	15
410.771	1	6
411.112	1	-1
411.454	1	-3
411.795	1	1
412.137	1	8
412.478	1	20
412.819	1	-2
413.161	1	3
413.502	1	-4
413.844	1	14
414.185	1	11
414.526	1	8
414.868	1	4
415.209	1	2
415.550	1	3
415.892	1	10
416.233	1	0
416.575	1	7
416.916	1	-4
417.257	1	4
417.599	1	15
417.940	1	10
418.281	1	5
418.623	1	-3
418.964	1	4
419.305	1	10
419.647	1	-6
419.988	1	0
420.329	1	-4
420.671	1	11
421.012	1	5
421.353	1	4
421.695	1	-6
422.036	1	-1
422.377	1	4
422.718	1	9
423.060	1	8
423.401	1	12
423.742	1	8
424.084	1	6
424.425	1	8
424.766	1	1
425.107	1	-2
425.449	1	7
425.790	1	-4
426.131	1	4
426.472	1	10
426.814	1	11
427.155	1	2
427.496	1	1
427.837	1	1
428.179	1	-4
428.520	1	3
428.861	1	4
429.202	1	4
429.544	1	-2
429.885	1	1
430.226	1	-3
430.567	1	5
430.909	1	8
431.250	1	1
431.591	1	7
431.932	1	-2
432.273	1	-5
432.615	1	-4
432.956	1	-6
433.297	1	3
433.638	1	1
433.979	1	11
434.320	1	2
434.662	1	5
435.003	1	12
435.344	1	4
435.685	1	0
436.026	1	13
436.368	1	1
436.709	1	4
437.050	1	5
437.391	1	14
437.732	1	-9
438.073	1	8
438.414	1	-9
438.756	1	-3
439.097	1	-3
439.438	1	8
439.779	1	1
440.120	1	2
440.461	1	1
440.802	1	-6
441.143	1	11
441.485	1	7
441.826	1	-5
442.167	1	5
442.508	1	-1
442.849	1	15
443.190	1	5
443.531	1	8
443.872	1	9
444.213	1	2
444.554	1	14
444.895	1	1
445.237	1	-12
445.578	1	-8
445.919	1	-6
446.260	1	-4
446.601	1	2
446.942	1	-2
447.283	1	2
447.624	1	-1
447.965	1	6
448.306	1	4
448.647	1	-7
448.988	1	2
449.329	1	4
449.670	1	18
450.011	1	11
450.352	1	4
450.693	1	-6
451.034	1	4
451.375	1	8
451.716	1	11
452.057	1	3
452.398	1	5
452.739	1	9
453.080	1	3
453.421	1	2
453.762	1	3
454.103	1	4
454.444	1	-7
454.785	1	4
455.126	1	-4
455.467	1	4
455.808	1	4
456.149	1	11
456.490	1	2
456.831	1	11
457.172	1	-7
457.513	1	4
457.854	1	10
458.195	1	1
458.536	1	5
458.877	1	5
459.218	1	7
459.559	1	7
459.899	1	1
460.240	1	1
460.581	1	14
460.922	1	4
461.263	1	2
461.604	1	-1
461.945	1	0
462.286	1	6
462.627	1	6
462.968	1	10
463.309	1	-2
463.649	1	1
463.990	1	-2
464.331	1	6
464.672	1	-5
465.013	1	2
465.354	1	8
465.695	1	-7
466.036	1	-2
466.376	1	-4
466.717	1	6
467.058	1	-1
467.399	1	13
467.740	1	1
468.081	1	10
468.422	1	-2
468.762	1	-9
469.103	1	-2
469.444	1	1
469.785	1	-6
470.126	1	-8
470.467	1	-8
470.807	1	-5
471.148	1	10
471.489	1	0
471.830	1	7
472.171	1	3
472.511	1	-3
472.852	1	5
473.193	1	7
473.534	1	8
473.875	1	17
474.215	1	15
474.556	1	15
474.897	1	5
475.238	1	11
475.578	1	-8
475.919	1	9
476.260	1	3
476.601	1	5
476.942	1	5
477.282	1	3
477.623	1	-4
477.964	1	2
478.305	1	9
478.645	1	13
478.986	1	4
479.327	1	-2
479.667	1	4
480.008	1	9
480.349	1	1
480.690	1	3
481.030	1	-4
481.371	1	1
481.712	1	9
482.053	1	4
482.393	1	8
482.734	1	0
483.075	1	3
483.415	1	8
483.756	1	17
484.097	1	4
484.437	1	5
484.778	1	8
485.119	1	-1
485.459	1	15
485.800	1	5
486.141	1	1
486.481	1	5
486.822	1	7
487.163	1	7
487.503	1	11
487.844	1	16
488.185	1	10
488.525	1	13
488.866	1	12
489.207	1	2
489.547	1	2
489.888	1	0
490.228	1	13
490.569	1	17
490.910	1	9
491.250	1	4
491.591	1	2
491.932	1	8
492.272	1	11
492.613	1	-2
492.953	1	3
493.294	1	-7
493.635	1	0
493.975	1	13
494.316	1	10
494.656	1	12
494.997	1	6
495.337	1	13
495.678	1	11
496.019	1	7
496.359	1	5
496.700	1	10
497.040	1	6
497.381	1	9
497.721	1	4
498.062	1	11
498.403	1	13
498.743	1	2
499.084	1	10
499.424	1	8
499.765	1	5
500.105	1	4
500.446	1	-4
500.786	1	2
501.127	1	7
501.467	1	1
501.808	1	15
502.148	1	15
502.489	1	0
502.829	1	17
503.170	1	15
503.510	1	17
503.851	1	6
504.191	1	9
504.532	1	17
504.872	1	6
505.213	1	12
505.553	1	2
505.894	1	3
506.234	1	21
506.575	1	9
506.915	1	22
507.256	1	16
507.596	1	10
507.936	1	15
508.277	1	4
508.617	1	11
508.958	1	4
509.298	1	11
509.639	1	4
509.979	1	15
510.319	1	22
510.660	1	8
511.000	1	7
511.341	1	17
511.681	1	16
512.022	1	19
512.362	1	4
512.702	1	2
513.043	1	18
513.383	1	10
513.724	1	17
514.064	1	22
514.404	1	10
514.745	1	19
515.085	1	7
515.425	1	10
515.766	1	8
516.106	1	16
516.447	1	22
516.787	1	16
517.127	1	11
517.468	1	2
517.808	1	15
518.148	1	7
518.489	1	13
518.829	1	10
519.169	1	14
519.510	1	15
519.850	1	20
520.190	1	8
520.531	1	12
520.871	1	17
521.211	1	5
521.552	1	20
521.892	1	19
522.232	1	18
522.573	1	8
522.913	1	8
523.253	1	18
523.593	1	10
523.934	1	14
524.274	1	12
524.614	1	14
524.955	1	11
525.295	1	21
525.635	1	12
525.975	1	17
526.316	1	24
526.656	1	7
526.996	1	18
527.337	1	22
527.677	1	24
528.017	1	5
528.357	1	30
528.698	1	18
529.038	1	26
529.378	1	10
529.718	1	22
530.058	1	16
530.399	1	21
530.739	1	18
531.079	1	25
531.419	1	22
531.760	1	17
532.100	1	11
532.440	1	21
532.780	1	10
533.120	1	25
533.461	1	8
533.801	1	42
534.141	1	12
534.481	1	16
534.821	1	31
535.162	1	19
535.502	1	15
535.842	1	16
536.182	1	12
536.522	1	17
536.862	1	17
537.203	1	23
537.543	1	16
537.883	1	21
538.223	1	18
538.563	1	24
538.903	1	13
539.243	1	14
539.584	1	10
539.924	1	17
540.264	1	12
540.604	1	9
540.944	1	21
541.284	1	20
541.624	1	18
541.964	1	29
542.305	1	20
542.645	1	10
542.985	1	12
543.325	1	18
543.665	1	25
544.005	1	20
544.345	1	12
544.685	1	16
545.025	1	21
545.365	1	15
545.705	1	19
546.045	1	14
546.386	1	27
546.726	1	5
547.066	1	25
547.406	1	20
547.746	1	10
548.086	1	22
548.426	1	4
548.766	1	16
549.106	1	22
549.446	1	20
549.786	1	11
550.126	1	40
550.466	1	26
550.806	1	16
551.146	1	8
551.486	1	26
551.826	1	27
552.166	1	21
552.506	1	26
552.846	1	25
553.186	1	23
553.526	1	22
553.866	1	25
554.206	1	28
554.546	1	22
554.886	1	28
555.226	1	11
555.566	1	21
555.906	1	26
556.246	1	25
556.586	1	11
556.926	1	23
557.266	1	16
557.606	1	21
557.946	1	30
558.286	1	22
558.626	1	23
558.966	1	13
559.306	1	13
559.646	1	17
559.986	1	12
560.325	1	24
560.665	1	20
561.005	1	12
561.345	1	19
561.685	1	17
562.025	1	21
562.365	1	16
562.705	1	10
563.045	1	17
563.385	1	7
563.725	1	19
564.064	1	17
564.404	1	23
564.744	1	29
565.084	1	16
565.424	1	18
565.764	1	24
566.104	1	14
566.444	1	16
566.783	1	21
567.123	1	21
567.463	1	35
567.803	1	12
568.143	1	23
568.483	1	13
568.823	1	29
569.162	1	14
569.502	1	12
569.842	1	30
570.182	1	18
570.522	1	14
570.862	1	26
571.201	1	35
571.541	1	33
571.881	1	33
572.221	1	14
572.561	1	24
572.900	1	19
573.240	1	19
573.580	1	26
573.920	1	28
574.260	1	35
574.599	1	13
574.939	1	24
575.279	1	27
575.619	1	31
575.959	1	11
576.298	1	34
576.638	1	25
576.978	1	24
577.318	1	21
577.657	1	14
577.997	1	12
578.337	1	25
578.677	1	19
579.016	1	28
579.356	1	21
579.696	1	32
580.036	1	11
580.375	1	22
580.715	1	20
581.055	1	11
581.394	1	12
581.734	1	16
582.074	1	10
582.414	1	37
582.753	1	8
583.093	1	16
583.433	1	19
583.772	1	33
584.112	1	12
584.452	1	20
584.791	1	14
585.131	1	27
585.471	1	17
585.811	1	15
586.150	1	18
586.490	1	24
586.830	1	16
587.169	1	19
587.509	1	24
587.849	1	13
588.188	1	31
588.528	1	6
588.867	1	16
589.207	1	29
589.547	1	10
589.886	1	17
590.226	1	21
590.566	1	16
590.905	1	18
591.245	1	10
591.585	1	27
591.924	1	20
592.264	1	23
592.603	1	24
592.943	1	20
593.283	1	13
593.622	1	18
593.962	1	21
594.301	1	20
594.641	1	12
594.981	1	15
595.320	1	10
595.660	1	21
595.999	1	13
596.339	1	11
596.678	1	12
597.018	1	9
597.358	1	12
597.697	1	19
598.037	1	8
598.376	1	10
598.716	1	20
599.055	1	22
599.395	1	16
599.734	1	13
600.074	1	23
600.413	1	16
600.753	1	16
601.092	1	21
601.432	1	10
601.771	1	21
602.111	1	21
602.451	1	21
602.790	1	14
603.130	1	20
603.469	1	16
603.809	1	22
604.148	1	23
604.487	1	11
604.827	1	23
605.166	1	22
605.506	1	18
605.845	1	17
606.185	1	19
606.524	1	13
606.864	1	15
607.203	1	19
607.543	1	29
607.882	1	21
608.222	1	10
608.561	1	18
608.901	1	22
609.240	1	7
609.579	1	18
609.919	1	20
610.258	1	21
610.598	1	18
610.937	1	12
611.277	1	18
611.616	1	15
611.955	1	5
612.295	1	8
612.634	1	21
612.974	1	11
613.313	1	21
613.652	1	15
613.992	1	6
614.331	1	9
614.671	1	24
615.010	1	0
615.349	1	21
615.689	1	23
616.028	1	14
616.368	1	14
616.707	1	20
617.046	1	10
617.386	1	14
617.725	1	13
618.064	1	10
618.404	1	17
618.743	1	15
619.082	1	19
619.422	1	2
619.761	1	12
620.100	1	23
620.440	1	10
620.779	1	0
621.118	1	12
621.458	1	11
621.797	1	12
622.136	1	20
622.476	1	13
622.815	1	20
623.154	1	18
623.494	1	24
623.833	1	19
624.172	1	13
624.511	1	7
624.851	1	-1
625.190	1	15
625.529	1	12
625.869	1	19
626.208	1	5
626.547	1	12
626.886	1	5
627.226	1	8
627.565	1	17
627.904	1	12
628.243	1	16
628.583	1	3
628.922	1	10
629.261	1	21
629.600	1	23
629.940	1	10
630.279	1	-2
630.618	1	6
630.957	1	12
631.297	1	12
631.636	1	-7
631.975	1	21
632.314	1	15
632.653	1	5
632.993	1	7
633.332	1	9
633.671	1	2
634.010	1	9
634.349	1	18
634.689	1	14
635.028	1	13
635.367	1	5
635.706	1	13
636.045	1	10
636.384	1	8
636.724	1	17
637.063	1	6
637.402	1	6
637.741	1	13
638.080	1	9
638.419	1	4
638.759	1	9
639.098	1	17
639.437	1	15
639.776	1	10
640.115	1	9
640.454	1	8
640.793	1	22
641.132	1	9
641.472	1	10
641.811	1	10
642.150	1	1
642.489	1	12
642.828	1	0
643.167	1	7
643.506	1	6
643.845	1	7
644.184	1	16
644.524	1	-1
644.863	1	6
645.202	1	2
645.541	1	13
645.880	1	19
646.219	1	8
646.558	1	10
646.897	1	10
647.236	1	12
647.575	1	17
647.914	1	9
648.253	1	22
648.592	1	9
648.931	1	15
649.270	1	3
649.610	1	9
649.949	1	2
650.288	1	9
650.627	1	-2
650.966	1	9
651.305	1	10
651.644	1	18
651.983	1	16
652.322	1	11
652.661	1	6
653.000	1	14
653.339	1	24
653.678	1	7
654.017	1	7
654.356	1	8
654.695	1	8
655.034	1	10
655.373	1	15
655.712	1	14
656.051	1	7
656.390	1	6
656.729	1	25
657.068	1	5
657.406	1	15
657.745	1	-1
658.084	1	17
658.423	1	15
658.762	1	4
659.101	1	19
659.440	1	10
659.779	1	15
660.118	1	10
660.457	1	7
660.796	1	-7
661.135	1	7
661.474	1	12
661.813	1	17
662.152	1	6
662.491	1	6
662.829	1	-7
663.168	1	5
663.507	1	16
663.846	1	8
664.185	1	14
664.524	1	10
664.863	1	-4
665.202	1	7
665.541	1	-3
665.879	1	-2
666.218	1	3
666.557	1	2
666.896	1	-2
667.235	1	17
667.574	1	4
667.913	1	7
668.251	1	-3
668.590	1	119
668.929	1	15
669.268	1	13
669.607	1	10
669.946	1	3
670.285	1	14
670.623	1	7
670.962	1	7
671.301	1	0
671.640	1	11
671.979	1	-1
672.317	1	13
672.656	1	0
672.995	1	7
673.334	1	9
673.673	1	13
674.011	1	6
674.350	1	6
674.689	1	4
675.028	1	8
675.367	1	8
675.705	1	12
676.044	1	9
676.383	1	13
676.722	1	5
677.060	1	1
677.399	1	2
677.738	1	13
678.077	1	15
678.416	1	11
678.754	1	7
679.093	1	14
679.432	1	8
679.771	1	6
680.109	1	15
680.448	1	12
680.787	1	5
681.125	1	11
681.464	1	3
681.803	1	8
682.142	1	19
682.480	1	16
682.819	1	6
683.158	1	-1
683.496	1	21
683.835	1	1
684.174	1	6
684.512	1	16
684.851	1	17
685.190	1	-1
685.529	1	10
685.867	1	7
686.206	1	1
686.545	1	1
686.883	1	4
687.222	1	20
687.561	1	10
687.899	1	20
688.238	1	5
688.577	1	8
688.746	1	8