File: Data/GaN_200K_800ms/GaN_sample F_spot 12_UVVIS_200 K_200um_800 ms 2x2mm1_90.txt
340.368	1	11
340.710	1	-10
341.052	1	10
341.394	1	-1
341.737	1	4
342.079	1	-3
342.421	1	-2
342.763	1	17
343.105	1	3
343.447	1	-1
343.789	1	7
344.131	1	5
344.473	1	1
344.815	1	3
345.157	1	-1
345.499	1	-2
345.841	1	10
346.183	1	8
346.526	1	5
346.868	1	0
347.210	1	1
347.552	1	8
347.894	1	11
348.236	1	-1
348.578	1	-5
348.920	1	2
349.262	1	7
349.604	1	5
349.946	1	4
350.288	1	10
350.630	1	9
350.972	1	4
351.314	1	18
351.656	1	4
351.998	1	12
352.340	1	7
352.682	1	11
353.024	1	11
353.366	1	22
353.708	1	6
354.050	1	3
354.392	1	-7
354.734	1	13
355.076	1	23
355.418	1	5
355.760	1	1
356.102	1	24
356.444	1	2
356.785	1	11
357.127	1	10
357.469	1	12
357.811	1	13
358.153	1	16
358.495	1	23
358.837	1	9
359.179	1	27
359.521	1	27
359.863	1	16
360.205	1	17
360.547	1	27
360.889	1	32
361.231	1	10
361.572	1	44
361.914	1	32
362.256	1	41
362.598	1	32
362.940	1	37
363.282	1	42
363.624	1	48
363.966	1	53
364.308	1	51
364.649	1	54
364.991	1	65
365.333	1	63
365.675	1	62
366.017	1	72
366.359	1	83
366.701	1	88
367.042	1	101
367.384	1	110
367.726	1	107
368.068	1	112
368.410	1	116
368.752	1	114
369.093	1	100
369.435	1	116
369.777	1	99
370.119	1	117
370.461	1	125
370.803	1	113
371.144	1	108
371.486	1	119
371.828	1	113
372.170	1	100
372.512	1	89
372.853	1	97
373.195	1	88
373.537	1	86
373.879	1	77
374.220	1	88
374.562	1	82
374.904	1	73
375.246	1	65
375.588	1	70
375.929	1	58
376.271	1	68
376.613	1	62
376.955	1	56
377.296	1	50
377.638	1	52
377.980	1	54
378.321	1	48
378.663	1	43
379.005	1	51
379.347	1	43
379.688	1	40
380.030	1	41
380.372	1	33
380.714	1	34
381.055	1	29
381.397	1	33
381.739	1	40
382.080	1	28
382.422	1	27
382.764	1	26
383.105	1	17
383.447	1	31
383.789	1	15
384.130	1	31
384.472	1	23
384.814	1	29
385.156	1	24
385.497	1	30
385.839	1	21
386.180	1	16
386.522	1	19
386.864	1	26
387.205	1	7
387.547	1	10
387.889	1	10
388.230	1	17
388.572	1	17
388.914	1	16
389.255	1	7
389.597	1	19
389.939	1	13
390.280	1	8
390.622	1	7
390.963	1	29
391.305	1	21
391.647	1	4
391.988	1	14
392.330	1	14
392.671	1	8
393.013	1	15
393.355	1	10
393.696	1	16
394.038	1	9
394.379	1	13
394.721	1	3
395.062	1	3
395.404	1	3
395.746	1	9
396.087	1	0
396.429	1	4
396.770	1	1
397.112	1	12
397.453	1	16
397.795	1	14
398.136	1	-4
398.478	1	9
398.819	1	5
399.161	1	18
399.503	1	12
399.844	1	7
400.186	1	7
400.527	1	1
400.869	1	4
401.210	1	12
401.552	1	-1
401.893	1	-7
402.235	1	4
402.576	1	15
402.918	1	14
403.259	1	9
403.601	1	-5
403.942	1	26
404.284	1	15
404.625	1	9
404.967	1	6
405.308	1	8
405.649	1	3
405.991	1	-9
406.332	1	6
406.674	1	-3
407.015	1	4
407.357	1	-4
407.698	1	14
408.040	1	5
408.381	1	4
408.722	1	-7
409.064	1	6
409.405	1	14
409.747	1	4
410.088	1	10
410.430	1	14
410.771	1	2
411.112	1	1
411.454	1	-2
411.795	1	-12
412.137	1	7
412.478	1	21
412.819	1	1
413.161	1	6
413.502	1	8
413.844	1	9
414.185	1	-4
414.526	1	5
414.868	1	4
415.209	1	2
415.550	1	-3
415.892	1	2
416.233	1	2
416.575	1	23
416.916	1	-1
417.257	1	4
417.599	1	5
417.940	1	5
418.281	1	7
418.623	1	1
418.964	1	-5
419.305	1	9
419.647	1	-9
419.988	1	-3
420.329	1	-8
420.671	1	13
421.012	1	13
421.353	1	-1
421.695	1	2
422.036	1	0
422.377	1	0
422.718	1	3
423.060	1	2
423.401	1	5
423.742	1	8
424.084	1	-2
424.425	1	9
424.766	1	1
425.107	1	1
425.449	1	1
425.790	1	-5
426.131	1	1
426.472	1	7
426.814	1	-1
427.155	1	1
427.496	1	-7
427.837	1	-4
428.179	1	-12
428.520	1	8
428.861	1	9
429.202	1	4
429.544	1	-4
429.885	1	-1
430.226	1	0
430.567	1	12
430.909	1	1
431.250	1	-2
431.591	1	10
431.932	1	6
432.273	1	1
432.615	1	-2
432.956	1	-5
433.297	1	5
433.638	1	-4
433.979	1	11
434.320	1	12
434.662	1	-3
435.003	1	7
435.344	1	-1
435.685	1	7
436.026	1	7
436.368	1	8
436.709	1	-1
437.050	1	6
437.391	1	8
437.732	1	-13
438.073	1	-1
438.414	1	0
438.756	1	6
439.097	1	-3
439.438	1	0
439.779	1	0
440.120	1	-1
440.461	1	3
440.802	1	-5
441.143	1	13
441.485	1	0
441.826	1	1
442.167	1	7
442.508	1	-7
442.849	1	12
443.190	1	-3
443.531	1	4
443.872	1	10
444.213	1	0
444.554	1	17
444.895	1	-1
445.237	1	-9
445.578	1	-2
445.919	1	3
446.260	1	0
446.601	1	-4
446.942	1	-2
447.283	1	-5
447.624	1	7
447.965	1	8
448.306	1	3
448.647	1	-3
448.988	1	4
449.329	1	5
449.670	1	12
450.011	1	6
450.352	1	0
450.693	1	1
451.034	1	0
451.375	1	-6
451.716	1	-3
452.057	1	3
452.398	1	-4
452.739	1	-2
453.080	1	7
453.421	1	-2
453.762	1	5
454.103	1	-5
454.444	1	-8
454.785	1	0
455.126	1	-6
455.467	1	5
455.808	1	10
456.149	1	7
456.490	1	-1
456.831	1	2
457.172	1	-5
457.513	1	10
457.854	1	4
458.195	1	-3
458.536	1	4
458.877	1	13
459.218	1	-6
459.559	1	-2
459.899	1	4
460.240	1	3
460.581	1	20
460.922	1	3
461.263	1	-6
461.604	1	-1
461.945	1	2
462.286	1	2
462.627	1	8
462.968	1	2
463.309	1	-9
463.649	1	3
463.990	1	-7
464.331	1	-2
464.672	1	4
465.013	1	-5
465.354	1	11
465.695	1	0
466.036	1	11
466.376	1	-7
466.717	1	3
467.058	1	4
467.399	1	7
467.740	1	3
468.081	1	4
468.422	1	4
468.762	1	-6
469.103	1	-10
469.444	1	-2
469.785	1	-8
470.126	1	-12
470.467	1	-1
470.807	1	6
471.148	1	9
471.489	1	7
471.830	1	0
472.171	1	6
472.511	1	-2
472.852	1	6
473.193	1	13
473.534	1	11
473.875	1	17
474.215	1	16
474.556	1	1
474.897	1	15
475.238	1	5
475.578	1	-9
475.919	1	-4
476.260	1	-2
476.601	1	1
476.942	1	16
477.282	1	-4
477.623	1	-13
477.964	1	1
478.305	1	7
478.645	1	17
478.986	1	-1
479.327	1	-14
479.667	1	1
480.008	1	2
480.349	1	-2
480.690	1	7
481.030	1	-4
481.371	1	2
481.712	1	10
482.053	1	0
482.393	1	6
482.734	1	7
483.075	1	-5
483.415	1	0
483.756	1	11
484.097	1	10
484.437	1	0
484.778	1	8
485.119	1	-4
485.459	1	17
485.800	1	9
486.141	1	0
486.481	1	4
486.822	1	6
487.163	1	4
487.503	1	1
487.844	1	4
488.185	1	9
488.525	1	4
488.866	1	2
489.207	1	3
489.547	1	5
489.888	1	-2
490.228	1	6
490.569	1	15
490.910	1	2
491.250	1	1
491.591	1	1
491.932	1	2
492.272	1	11
492.613	1	-3
492.953	1	3
493.294	1	5
493.635	1	10
493.975	1	1
494.316	1	10
494.656	1	3
494.997	1	8
495.337	1	9
495.678	1	-1
496.019	1	7
496.359	1	-1
496.700	1	7
497.040	1	-1
497.381	1	4
497.721	1	2
498.062	1	-1
498.403	1	-1
498.743	1	2
499.084	1	3
499.424	1	4
499.765	1	-5
500.105	1	6
500.446	1	-6
500.786	1	-3
501.127	1	-7
501.467	1	1
501.808	1	5
502.148	1	2
502.489	1	16
502.829	1	12
503.170	1	14
503.510	1	11
503.851	1	1
504.191	1	15
504.532	1	9
504.872	1	-1
505.213	1	15
505.553	1	0
505.894	1	1
506.234	1	16
506.575	1	7
506.915	1	8
507.256	1	5
507.596	1	9
507.936	1	9
508.277	1	4
508.617	1	4
508.958	1	2
509.298	1	14
509.639	1	10
509.979	1	9
510.319	1	10
510.660	1	4
511.000	1	3
511.341	1	8
511.681	1	18
512.022	1	2
512.362	1	0
512.702	1	-4
513.043	1	12
513.383	1	-6
513.724	1	8
514.064	1	9
514.404	1	5
514.745	1	14
515.085	1	8
515.425	1	6
515.766	1	-10
516.106	1	4
516.447	1	12
516.787	1	11
517.127	1	2
517.468	1	9
517.808	1	-3
518.148	1	13
518.489	1	8
518.829	1	11
519.169	1	7
519.510	1	1
519.850	1	16
520.190	1	4
520.531	1	6
520.871	1	6
521.211	1	-4
521.552	1	16
521.892	1	8
522.232	1	11
522.573	1	5
522.913	1	12
523.253	1	3
523.593	1	9
523.934	1	10
524.274	1	7
524.614	1	5
524.955	1	-2
525.295	1	3
525.635	1	4
525.975	1	8
526.316	1	16
526.656	1	3
526.996	1	4
527.337	1	4
527.677	1	4
528.017	1	1
528.357	1	11
528.698	1	13
529.038	1	13
529.378	1	12
529.718	1	12
530.058	1	12
530.399	1	16
530.739	1	14
531.079	1	19
531.419	1	9
531.760	1	18
532.100	1	6
532.440	1	6
532.780	1	13
533.120	1	16
533.461	1	19
533.801	1	15
534.141	1	6
534.481	1	9
534.821	1	26
535.162	1	16
535.502	1	4
535.842	1	16
536.182	1	10
536.522	1	5
536.862	1	15
537.203	1	2
537.543	1	8
537.883	1	12
538.223	1	11
538.563	1	14
538.903	1	2
539.243	1	12
539.584	1	7
539.924	1	21
540.264	1	7
540.604	1	10
540.944	1	8
541.284	1	14
541.624	1	17
541.964	1	18
542.305	1	19
542.645	1	9
542.985	1	20
543.325	1	9
543.665	1	19
544.005	1	19
544.345	1	11
544.685	1	10
545.025	1	11
545.365	1	8
545.705	1	9
546.045	1	3
546.386	1	11
546.726	1	7
547.066	1	15
547.406	1	12
547.746	1	-4
548.086	1	14
548.426	1	5
548.766	1	11
549.106	1	10
549.446	1	5
549.786	1	9
550.126	1	15
550.466	1	16
550.806	1	10
551.146	1	18
551.486	1	6
551.826	1	13
552.166	1	12
552.506	1	22
552.846	1	7
553.186	1	22
553.526	1	15
553.866	1	18
554.206	1	13
554.546	1	18
554.886	1	12
555.226	1	4
555.566	1	27
555.906	1	16
556.246	1	13
556.586	1	12
556.926	1	9
557.266	1	9
557.606	1	16
557.946	1	26
558.286	1	12
558.626	1	14
558.966	1	8
559.306	1	5
559.646	1	12
559.986	1	10
560.325	1	3
560.665	1	9
561.005	1	-1
561.345	1	15
561.685	1	14
562.025	1	9
562.365	1	6
562.705	1	6
563.045	1	5
563.385	1	1
563.725	1	9
564.064	1	2
564.404	1	21
564.744	1	14
565.084	1	14
565.424	1	17
565.764	1	5
566.104	1	11
566.444	1	8
566.783	1	-3
567.123	1	18
567.463	1	17
567.803	1	1
568.143	1	21
568.483	1	16
568.823	1	15
569.162	1	15
569.502	1	11
569.842	1	23
570.182	1	9
570.522	1	1
570.862	1	5
571.201	1	19
571.541	1	16
571.881	1	25
572.221	1	12
572.561	1	1
572.900	1	3
573.240	1	13
573.580	1	13
573.920	1	21
574.260	1	16
574.599	1	19
574.939	1	8
575.279	1	22
575.619	1	11
575.959	1	7
576.298	1	14
576.638	1	5
576.978	1	12
577.318	1	25
577.657	1	6
577.997	1	8
578.337	1	23
578.677	1	16
579.016	1	14
579.356	1	4
579.696	1	6
580.036	1	4
580.375	1	10
580.715	1	14
581.055	1	11
581.394	1	14
581.734	1	4
582.074	1	9
582.414	1	20
582.753	1	5
583.093	1	12
583.433	1	11
583.772	1	15
584.112	1	11
584.452	1	18
584.791	1	9
585.131	1	18
585.471	1	22
585.811	1	21
586.150	1	7
586.490	1	21
586.830	1	17
587.169	1	12
587.509	1	9
587.849	1	18
588.188	1	20
588.528	1	14
588.867	1	15
589.207	1	12
589.547	1	17
589.886	1	5
590.226	1	23
590.566	1	-2
590.905	1	9
591.245	1	7
591.585	1	17
591.924	1	24
592.264	1	6
592.603	1	5
592.943	1	18
593.283	1	5
593.622	1	17
593.962	1	13
594.301	1	18
594.641	1	10
594.981	1	2
595.320	1	12
595.660	1	10
595.999	1	-5
596.339	1	17
596.678	1	1
597.018	1	13
597.358	1	15
597.697	1	5
598.037	1	6
598.376	1	5
598.716	1	17
599.055	1	10
599.395	1	16
599.734	1	5
600.074	1	2
600.413	1	19
600.753	1	9
601.092	1	18
601.432	1	0
601.771	1	8
602.111	1	17
602.451	1	17
602.790	1	7
603.130	1	20
603.469	1	2
603.809	1	6
604.148	1	24
604.487	1	3
604.827	1	1
605.166	1	17
605.506	1	14
605.845	1	12
606.185	1	19
606.524	1	5
606.864	1	2
607.203	1	5
607.543	1	10
607.882	1	13
608.222	1	12
608.561	1	7
608.901	1	12
609.240	1	9
609.579	1	0
609.919	1	20
610.258	1	17
610.598	1	11
610.937	1	10
611.277	1	6
611.616	1	13
611.955	1	7
612.295	1	2
612.634	1	8
612.974	1	-2
613.313	1	13
613.652	1	12
613.992	1	3
614.331	1	4
614.671	1	13
615.010	1	-1
615.349	1	16
615.689	1	16
616.028	1	5
616.368	1	12
616.707	1	4
617.046	1	1
617.386	1	8
617.725	1	11
618.064	1	6
618.404	1	6
618.743	1	1
619.082	1	3
619.422	1	2
619.761	1	19
620.100	1	9
620.440	1	13
620.779	1	-2
621.118	1	2
621.458	1	2
621.797	1	8
622.136	1	17
622.476	1	16
622.815	1	10
623.154	1	7
623.494	1	18
623.833	1	15
624.172	1	5
624.511	1	0
624.851	1	-6
625.190	1	10
625.529	1	3
625.869	1	6
626.208	1	7
626.547	1	2
626.886	1	7
627.226	1	3
627.565	1	13
627.904	1	-1
628.243	1	10
628.583	1	-4
628.922	1	8
629.261	1	14
629.600	1	9
629.940	1	11
630.279	1	4
630.618	1	9
630.957	1	4
631.297	1	2
631.636	1	-3
631.975	1	22
632.314	1	7
632.653	1	13
632.993	1	1
633.332	1	10
633.671	1	7
634.010	1	7
634.349	1	10
634.689	1	10
635.028	1	7
635.367	1	12
635.706	1	6
636.045	1	12
636.384	1	7
636.724	1	3
637.063	1	7
637.402	1	10
637.741	1	4
638.080	1	12
638.419	1	11
638.759	1	8
639.098	1	8
639.437	1	15
639.776	1	3
640.115	1	9
640.454	1	5
640.793	1	13
641.132	1	16
641.472	1	8
641.811	1	9
642.150	1	3
642.489	1	9
642.828	1	-3
643.167	1	-10
643.506	1	-6
643.845	1	2
644.184	1	10
644.524	1	-1
644.863	1	2
645.202	1	13
645.541	1	14
645.880	1	5
646.219	1	2
646.558	1	1
646.897	1	7
647.236	1	4
647.575	1	2
647.914	1	4
648.253	1	12
648.592	1	4
648.931	1	7
649.270	1	2
649.610	1	7
649.949	1	-5
650.288	1	10
650.627	1	5
650.966	1	6
651.305	1	-1
651.644	1	14
651.983	1	4
652.322	1	-2
652.661	1	8
653.000	1	7
653.339	1	13
653.678	1	0
654.017	1	3
654.356	1	3
654.695	1	1
655.034	1	0
655.373	1	6
655.712	1	13
656.051	1	-3
656.390	1	6
656.729	1	11
657.068	1	7
657.406	1	9
657.745	1	0
658.084	1	11
658.423	1	14
658.762	1	2
659.101	1	9
659.440	1	7
659.779	1	-2
660.118	1	11
660.457	1	3
660.796	1	-7
661.135	1	1
661.474	1	-1
661.813	1	11
662.152	1	7
662.491	1	3
662.829	1	2
663.168	1	3
663.507	1	20
663.846	1	-2
664.185	1	2
664.524	1	12
664.863	1	12
665.202	1	7
665.541	1	-10
665.879	1	-10
666.218	1	4
666.557	1	5
666.896	1	1
667.235	1	4
667.574	1	-5
667.913	1	4
668.251	1	-2
668.590	1	0
668.929	1	-6
669.268	1	4
669.607	1	-2
669.946	1	9
670.285	1	4
670.623	1	7
670.962	1	-2
671.301	1	14
671.640	1	-1
671.979	1	-5
672.317	1	5
672.656	1	-5
672.995	1	9
673.334	1	-3
673.673	1	3
674.011	1	2
674.350	1	7
674.689	1	8
675.028	1	0
675.367	1	8
675.705	1	6
676.044	1	-3
676.383	1	4
676.722	1	9
677.060	1	5
677.399	1	-5
677.738	1	-1
678.077	1	11
678.416	1	4
678.754	1	0
679.093	1	13
679.432	1	7
679.771	1	7
680.109	1	16
680.448	1	7
680.787	1	-2
681.125	1	11
681.464	1	0
681.803	1	-1
682.142	1	8
682.480	1	20
682.819	1	1
683.158	1	2
683.496	1	10
683.835	1	10
684.174	1	6
684.512	1	10
684.851	1	13
685.190	1	2
685.529	1	3
685.867	1	6
686.206	1	2
686.545	1	6
686.883	1	1
687.222	1	0
687.561	1	7
687.899	1	-1
688.238	1	4
688.577	1	1
688.746	1	7