File: Data/GaN_200K_800ms/GaN_sample F_spot 12_UVVIS_200 K_200um_800 ms 2x2mm1_404.txt
340.368	1	2
340.710	1	-19
341.052	1	-1
341.394	1	-6
341.737	1	4
342.079	1	-4
342.421	1	-4
342.763	1	1
343.105	1	7
343.447	1	-4
343.789	1	-10
344.131	1	-4
344.473	1	-7
344.815	1	-1
345.157	1	-8
345.499	1	-1
345.841	1	9
346.183	1	-5
346.526	1	-9
346.868	1	6
347.210	1	-5
347.552	1	-11
347.894	1	-1
348.236	1	4
348.578	1	1
348.920	1	-3
349.262	1	-8
349.604	1	6
349.946	1	-4
350.288	1	2
350.630	1	8
350.972	1	1
351.314	1	-3
351.656	1	-1
351.998	1	6
352.340	1	1
352.682	1	4
353.024	1	2
353.366	1	10
353.708	1	0
354.050	1	-1
354.392	1	-5
354.734	1	0
355.076	1	0
355.418	1	-15
355.760	1	-7
356.102	1	10
356.444	1	4
356.785	1	12
357.127	1	3
357.469	1	0
357.811	1	-2
358.153	1	-3
358.495	1	6
358.837	1	-3
359.179	1	-2
359.521	1	4
359.863	1	2
360.205	1	-3
360.547	1	7
360.889	1	1
361.231	1	4
361.572	1	7
361.914	1	1
362.256	1	6
362.598	1	-3
362.940	1	3
363.282	1	1
363.624	1	13
363.966	1	8
364.308	1	9
364.649	1	12
364.991	1	4
365.333	1	1
365.675	1	-3
366.017	1	8
366.359	1	8
366.701	1	0
367.042	1	11
367.384	1	18
367.726	1	1
368.068	1	8
368.410	1	18
368.752	1	12
369.093	1	13
369.435	1	20
369.777	1	9
370.119	1	9
370.461	1	23
370.803	1	-2
371.144	1	5
371.486	1	9
371.828	1	14
372.170	1	12
372.512	1	2
372.853	1	2
373.195	1	8
373.537	1	9
373.879	1	9
374.220	1	18
374.562	1	9
374.904	1	0
375.246	1	7
375.588	1	6
375.929	1	10
376.271	1	11
376.613	1	-1
376.955	1	-5
377.296	1	10
377.638	1	11
377.980	1	10
378.321	1	-4
378.663	1	0
379.005	1	12
379.347	1	12
379.688	1	2
380.030	1	-5
380.372	1	3
380.714	1	1
381.055	1	10
381.397	1	7
381.739	1	16
382.080	1	2
382.422	1	-3
382.764	1	-7
383.105	1	-2
383.447	1	-4
383.789	1	-3
384.130	1	0
384.472	1	-6
384.814	1	-2
385.156	1	-9
385.497	1	-1
385.839	1	4
386.180	1	-4
386.522	1	7
386.864	1	2
387.205	1	-2
387.547	1	0
387.889	1	3
388.230	1	11
388.572	1	0
388.914	1	-7
389.255	1	-6
389.597	1	8
389.939	1	7
390.280	1	0
390.622	1	-6
390.963	1	4
391.305	1	3
391.647	1	-2
391.988	1	0
392.330	1	12
392.671	1	-8
393.013	1	-2
393.355	1	0
393.696	1	1
394.038	1	7
394.379	1	0
394.721	1	-4
395.062	1	1
395.404	1	-9
395.746	1	2
396.087	1	-4
396.429	1	3
396.770	1	-1
397.112	1	12
397.453	1	12
397.795	1	3
398.136	1	-8
398.478	1	-1
398.819	1	-1
399.161	1	17
399.503	1	-4
399.844	1	0
400.186	1	3
400.527	1	-4
400.869	1	-2
401.210	1	0
401.552	1	-16
401.893	1	5
402.235	1	1
402.576	1	-5
402.918	1	7
403.259	1	8
403.601	1	-4
403.942	1	17
404.284	1	0
404.625	1	4
404.967	1	0
405.308	1	1
405.649	1	-6
405.991	1	-4
406.332	1	7
406.674	1	-2
407.015	1	1
407.357	1	-3
407.698	1	2
408.040	1	-3
408.381	1	-5
408.722	1	-16
409.064	1	-7
409.405	1	6
409.747	1	-3
410.088	1	5
410.430	1	11
410.771	1	4
411.112	1	-3
411.454	1	3
411.795	1	-1
412.137	1	1
412.478	1	9
412.819	1	-1
413.161	1	0
413.502	1	-8
413.844	1	5
414.185	1	0
414.526	1	1
414.868	1	4
415.209	1	-6
415.550	1	-6
415.892	1	3
416.233	1	8
416.575	1	12
416.916	1	-5
417.257	1	5
417.599	1	10
417.940	1	4
418.281	1	-6
418.623	1	-3
418.964	1	-14
419.305	1	0
419.647	1	-2
419.988	1	1
420.329	1	-6
420.671	1	5
421.012	1	2
421.353	1	-5
421.695	1	-3
422.036	1	4
422.377	1	-2
422.718	1	3
423.060	1	7
423.401	1	9
423.742	1	0
424.084	1	4
424.425	1	0
424.766	1	-4
425.107	1	-7
425.449	1	1
425.790	1	-4
426.131	1	2
426.472	1	-2
426.814	1	0
427.155	1	-7
427.496	1	-13
427.837	1	0
428.179	1	-5
428.520	1	8
428.861	1	-6
429.202	1	3
429.544	1	2
429.885	1	3
430.226	1	-6
430.567	1	-3
430.909	1	6
431.250	1	-7
431.591	1	4
431.932	1	-6
432.273	1	-5
432.615	1	-10
432.956	1	-4
433.297	1	2
433.638	1	-2
433.979	1	6
434.320	1	4
434.662	1	5
435.003	1	7
435.344	1	8
435.685	1	3
436.026	1	5
436.368	1	7
436.709	1	-2
437.050	1	-8
437.391	1	10
437.732	1	2
438.073	1	-6
438.414	1	-15
438.756	1	-10
439.097	1	-6
439.438	1	-4
439.779	1	-7
440.120	1	-4
440.461	1	-7
440.802	1	3
441.143	1	7
441.485	1	1
441.826	1	4
442.167	1	-7
442.508	1	-11
442.849	1	4
443.190	1	-1
443.531	1	-2
443.872	1	-2
444.213	1	0
444.554	1	6
444.895	1	-6
445.237	1	-3
445.578	1	-10
445.919	1	-11
446.260	1	1
446.601	1	-2
446.942	1	-4
447.283	1	3
447.624	1	-1
447.965	1	-2
448.306	1	6
448.647	1	-12
448.988	1	3
449.329	1	-4
449.670	1	1
450.011	1	4
450.352	1	-2
450.693	1	-7
451.034	1	0
451.375	1	-2
451.716	1	-4
452.057	1	0
452.398	1	0
452.739	1	4
453.080	1	-4
453.421	1	-12
453.762	1	6
454.103	1	-10
454.444	1	-12
454.785	1	-5
455.126	1	-3
455.467	1	-4
455.808	1	-1
456.149	1	5
456.490	1	-5
456.831	1	6
457.172	1	-4
457.513	1	-3
457.854	1	3
458.195	1	-7
458.536	1	-2
458.877	1	0
459.218	1	-1
459.559	1	3
459.899	1	4
460.240	1	2
460.581	1	12
460.922	1	-3
461.263	1	-2
461.604	1	-4
461.945	1	-6
462.286	1	4
462.627	1	5
462.968	1	-2
463.309	1	-10
463.649	1	-7
463.990	1	2
464.331	1	3
464.672	1	-3
465.013	1	-6
465.354	1	-2
465.695	1	-5
466.036	1	-7
466.376	1	-13
466.717	1	-7
467.058	1	-2
467.399	1	5
467.740	1	-4
468.081	1	7
468.422	1	-8
468.762	1	-6
469.103	1	-10
469.444	1	-4
469.785	1	-4
470.126	1	-9
470.467	1	-2
470.807	1	1
471.148	1	-2
471.489	1	-2
471.830	1	-10
472.171	1	7
472.511	1	-7
472.852	1	1
473.193	1	0
473.534	1	8
473.875	1	10
474.215	1	9
474.556	1	-5
474.897	1	7
475.238	1	3
475.578	1	-9
475.919	1	-2
476.260	1	-7
476.601	1	-3
476.942	1	8
477.282	1	-3
477.623	1	-4
477.964	1	-5
478.305	1	0
478.645	1	5
478.986	1	1
479.327	1	-10
479.667	1	-2
480.008	1	4
480.349	1	-13
480.690	1	-1
481.030	1	-13
481.371	1	0
481.712	1	1
482.053	1	-3
482.393	1	-3
482.734	1	-9
483.075	1	0
483.415	1	3
483.756	1	10
484.097	1	-2
484.437	1	-2
484.778	1	-5
485.119	1	-5
485.459	1	13
485.800	1	-7
486.141	1	-8
486.481	1	-6
486.822	1	-6
487.163	1	-2
487.503	1	2
487.844	1	-5
488.185	1	3
488.525	1	-4
488.866	1	2
489.207	1	3
489.547	1	1
489.888	1	-3
490.228	1	7
490.569	1	17
490.910	1	-2
491.250	1	-5
491.591	1	-2
491.932	1	6
492.272	1	4
492.613	1	1
492.953	1	-2
493.294	1	-5
493.635	1	-12
493.975	1	-10
494.316	1	2
494.656	1	-10
494.997	1	-19
495.337	1	3
495.678	1	-4
496.019	1	-5
496.359	1	-6
496.700	1	-2
497.040	1	-3
497.381	1	-6
497.721	1	-14
498.062	1	-1
498.403	1	-3
498.743	1	-2
499.084	1	-8
499.424	1	7
499.765	1	-7
500.105	1	-2
500.446	1	-8
500.786	1	-8
501.127	1	4
501.467	1	-4
501.808	1	13
502.148	1	-1
502.489	1	-2
502.829	1	0
503.170	1	14
503.510	1	8
503.851	1	-4
504.191	1	3
504.532	1	-4
504.872	1	-4
505.213	1	11
505.553	1	-13
505.894	1	-7
506.234	1	0
506.575	1	0
506.915	1	2
507.256	1	-4
507.596	1	3
507.936	1	12
508.277	1	3
508.617	1	-8
508.958	1	-1
509.298	1	4
509.639	1	-3
509.979	1	-5
510.319	1	0
510.660	1	-9
511.000	1	-4
511.341	1	2
511.681	1	5
512.022	1	-10
512.362	1	-7
512.702	1	-7
513.043	1	9
513.383	1	-9
513.724	1	-5
514.064	1	7
514.404	1	-3
514.745	1	-4
515.085	1	-4
515.425	1	-9
515.766	1	-14
516.106	1	-9
516.447	1	8
516.787	1	2
517.127	1	-3
517.468	1	8
517.808	1	-2
518.148	1	3
518.489	1	1
518.829	1	1
519.169	1	4
519.510	1	-6
519.850	1	-1
520.190	1	-9
520.531	1	7
520.871	1	-1
521.211	1	-16
521.552	1	10
521.892	1	-4
522.232	1	7
522.573	1	-3
522.913	1	6
523.253	1	0
523.593	1	-2
523.934	1	7
524.274	1	0
524.614	1	-2
524.955	1	-7
525.295	1	2
525.635	1	-10
525.975	1	-6
526.316	1	10
526.656	1	3
526.996	1	-1
527.337	1	-3
527.677	1	2
528.017	1	-8
528.357	1	1
528.698	1	4
529.038	1	-4
529.378	1	4
529.718	1	9
530.058	1	-4
530.399	1	10
530.739	1	6
531.079	1	9
531.419	1	-1
531.760	1	2
532.100	1	0
532.440	1	11
532.780	1	-3
533.120	1	17
533.461	1	2
533.801	1	12
534.141	1	-16
534.481	1	-4
534.821	1	3
535.162	1	3
535.502	1	-2
535.842	1	1
536.182	1	-8
536.522	1	-10
536.862	1	14
537.203	1	-12
537.543	1	-7
537.883	1	-2
538.223	1	-1
538.563	1	3
538.903	1	-4
539.243	1	0
539.584	1	3
539.924	1	9
540.264	1	-3
540.604	1	-2
540.944	1	-7
541.284	1	5
541.624	1	-4
541.964	1	9
542.305	1	12
542.645	1	2
542.985	1	6
543.325	1	-8
543.665	1	10
544.005	1	7
544.345	1	4
544.685	1	-6
545.025	1	-5
545.365	1	0
545.705	1	-6
546.045	1	-4
546.386	1	1
546.726	1	-8
547.066	1	-3
547.406	1	7
547.746	1	-12
548.086	1	0
548.426	1	2
548.766	1	0
549.106	1	-5
549.446	1	-1
549.786	1	-3
550.126	1	7
550.466	1	-1
550.806	1	-2
551.146	1	0
551.486	1	3
551.826	1	5
552.166	1	6
552.506	1	2
552.846	1	3
553.186	1	4
553.526	1	-5
553.866	1	-2
554.206	1	-3
554.546	1	0
554.886	1	9
555.226	1	-6
555.566	1	7
555.906	1	3
556.246	1	-1
556.586	1	-2
556.926	1	7
557.266	1	-9
557.606	1	8
557.946	1	7
558.286	1	3
558.626	1	-3
558.966	1	-2
559.306	1	-7
559.646	1	3
559.986	1	0
560.325	1	-3
560.665	1	-2
561.005	1	-9
561.345	1	1
561.685	1	0
562.025	1	1
562.365	1	9
562.705	1	-2
563.045	1	-5
563.385	1	-9
563.725	1	-9
564.064	1	2
564.404	1	-6
564.744	1	0
565.084	1	-5
565.424	1	-6
565.764	1	-1
566.104	1	-5
566.444	1	-10
566.783	1	-9
567.123	1	3
567.463	1	7
567.803	1	-5
568.143	1	1
568.483	1	7
568.823	1	3
569.162	1	4
569.502	1	1
569.842	1	3
570.182	1	-2
570.522	1	-7
570.862	1	-1
571.201	1	17
571.541	1	4
571.881	1	4
572.221	1	-3
572.561	1	-4
572.900	1	-8
573.240	1	0
573.580	1	0
573.920	1	-2
574.260	1	1
574.599	1	1
574.939	1	5
575.279	1	6
575.619	1	2
575.959	1	-5
576.298	1	10
576.638	1	-4
576.978	1	2
577.318	1	-3
577.657	1	-5
577.997	1	-5
578.337	1	6
578.677	1	4
579.016	1	9
579.356	1	-15
579.696	1	10
580.036	1	-5
580.375	1	12
580.715	1	-10
581.055	1	0
581.394	1	-8
581.734	1	-9
582.074	1	-6
582.414	1	10
582.753	1	5
583.093	1	-1
583.433	1	-1
583.772	1	10
584.112	1	-2
584.452	1	2
584.791	1	0
585.131	1	-3
585.471	1	10
585.811	1	7
586.150	1	0
586.490	1	9
586.830	1	-12
587.169	1	6
587.509	1	-7
587.849	1	-3
588.188	1	1
588.528	1	1
588.867	1	3
589.207	1	-1
589.547	1	2
589.886	1	-7
590.226	1	0
590.566	1	-4
590.905	1	-8
591.245	1	-4
591.585	1	1
591.924	1	1
592.264	1	4
592.603	1	-8
592.943	1	-5
593.283	1	3
593.622	1	-6
593.962	1	3
594.301	1	5
594.641	1	-12
594.981	1	-1
595.320	1	2
595.660	1	1
595.999	1	-13
596.339	1	1
596.678	1	-1
597.018	1	-4
597.358	1	-1
597.697	1	-3
598.037	1	0
598.376	1	6
598.716	1	9
599.055	1	2
599.395	1	-5
599.734	1	-3
600.074	1	-3
600.413	1	6
600.753	1	1
601.092	1	13
601.432	1	-13
601.771	1	-1
602.111	1	-1
602.451	1	1
602.790	1	2
603.130	1	-2
603.469	1	-11
603.809	1	0
604.148	1	1
604.487	1	0
604.827	1	5
605.166	1	1
605.506	1	5
605.845	1	5
606.185	1	5
606.524	1	0
606.864	1	-2
607.203	1	-8
607.543	1	-3
607.882	1	14
608.222	1	2
608.561	1	-2
608.901	1	2
609.240	1	-6
609.579	1	8
609.919	1	10
610.258	1	0
610.598	1	-9
610.937	1	3
611.277	1	-8
611.616	1	-2
611.955	1	4
612.295	1	-7
612.634	1	-9
612.974	1	-12
613.313	1	1
613.652	1	-4
613.992	1	3
614.331	1	-4
614.671	1	6
615.010	1	-2
615.349	1	15
615.689	1	5
616.028	1	-4
616.368	1	5
616.707	1	1
617.046	1	1
617.386	1	-1
617.725	1	2
618.064	1	-2
618.404	1	6
618.743	1	3
619.082	1	-1
619.422	1	-17
619.761	1	8
620.100	1	6
620.440	1	7
620.779	1	-4
621.118	1	-6
621.458	1	8
621.797	1	-3
622.136	1	10
622.476	1	0
622.815	1	2
623.154	1	11
623.494	1	10
623.833	1	7
624.172	1	-4
624.511	1	1
624.851	1	-11
625.190	1	6
625.529	1	10
625.869	1	10
626.208	1	-2
626.547	1	-3
626.886	1	5
627.226	1	2
627.565	1	0
627.904	1	-2
628.243	1	0
628.583	1	-4
628.922	1	5
629.261	1	6
629.600	1	6
629.940	1	0
630.279	1	-9
630.618	1	-1
630.957	1	0
631.297	1	3
631.636	1	-13
631.975	1	16
632.314	1	-6
632.653	1	0
632.993	1	-6
633.332	1	-5
633.671	1	0
634.010	1	-2
634.349	1	0
634.689	1	-3
635.028	1	7
635.367	1	0
635.706	1	1
636.045	1	13
636.384	1	-1
636.724	1	-2
637.063	1	-8
637.402	1	6
637.741	1	-2
638.080	1	-3
638.419	1	-11
638.759	1	-2
639.098	1	8
639.437	1	2
639.776	1	-7
640.115	1	-8
640.454	1	-4
640.793	1	7
641.132	1	7
641.472	1	-1
641.811	1	-6
642.150	1	-18
642.489	1	3
642.828	1	5
643.167	1	-5
643.506	1	-11
643.845	1	-7
644.184	1	5
644.524	1	-2
644.863	1	-13
645.202	1	-1
645.541	1	1
645.880	1	5
646.219	1	0
646.558	1	-1
646.897	1	1
647.236	1	-4
647.575	1	8
647.914	1	-3
648.253	1	2
648.592	1	-6
648.931	1	5
649.270	1	-6
649.610	1	1
649.949	1	-2
650.288	1	10
650.627	1	-2
650.966	1	9
651.305	1	1
651.644	1	12
651.983	1	4
652.322	1	-8
652.661	1	-8
653.000	1	-4
653.339	1	4
653.678	1	-9
654.017	1	-5
654.356	1	0
654.695	1	0
655.034	1	-2
655.373	1	4
655.712	1	0
656.051	1	0
656.390	1	-3
656.729	1	17
657.068	1	-3
657.406	1	0
657.745	1	-8
658.084	1	0
658.423	1	6
658.762	1	2
659.101	1	6
659.440	1	16
659.779	1	5
660.118	1	3
660.457	1	-8
660.796	1	-16
661.135	1	-1
661.474	1	6
661.813	1	2
662.152	1	-3
662.491	1	-9
662.829	1	-12
663.168	1	0
663.507	1	15
663.846	1	0
664.185	1	4
664.524	1	-5
664.863	1	-1
665.202	1	-1
665.541	1	-9
665.879	1	-6
666.218	1	-8
666.557	1	-2
666.896	1	-1
667.235	1	-1
667.574	1	-5
667.913	1	6
668.251	1	-4
668.590	1	2
668.929	1	-10
669.268	1	-3
669.607	1	-6
669.946	1	6
670.285	1	5
670.623	1	-7
670.962	1	-6
671.301	1	-1
671.640	1	0
671.979	1	-3
672.317	1	-3
672.656	1	1
672.995	1	10
673.334	1	5
673.673	1	4
674.011	1	-3
674.350	1	9
674.689	1	1
675.028	1	5
675.367	1	8
675.705	1	6
676.044	1	-6
676.383	1	0
676.722	1	2
677.060	1	-5
677.399	1	-1
677.738	1	0
678.077	1	6
678.416	1	-1
678.754	1	-3
679.093	1	6
679.432	1	-9
679.771	1	-6
680.109	1	7
680.448	1	-2
680.787	1	-1
681.125	1	5
681.464	1	-7
681.803	1	-2
682.142	1	9
682.480	1	7
682.819	1	2
683.158	1	-3
683.496	1	9
683.835	1	-1
684.174	1	-5
684.512	1	5
684.851	1	1
685.190	1	3
685.529	1	-5
685.867	1	1
686.206	1	-7
686.545	1	-5
686.883	1	-10
687.222	1	1
687.561	1	4
687.899	1	-1
688.238	1	0
688.577	1	3
688.746	1	-6