File: Data/GaN_200K_800ms/GaN_sample F_spot 12_UVVIS_200 K_200um_800 ms 2x2mm1_69.txt
340.368	1	3
340.710	1	-8
341.052	1	5
341.394	1	-1
341.737	1	6
342.079	1	3
342.421	1	-2
342.763	1	3
343.105	1	4
343.447	1	0
343.789	1	1
344.131	1	-5
344.473	1	4
344.815	1	-1
345.157	1	-7
345.499	1	3
345.841	1	5
346.183	1	-3
346.526	1	-1
346.868	1	14
347.210	1	-7
347.552	1	-5
347.894	1	8
348.236	1	11
348.578	1	-2
348.920	1	10
349.262	1	3
349.604	1	9
349.946	1	1
350.288	1	16
350.630	1	8
350.972	1	12
351.314	1	19
351.656	1	19
351.998	1	13
352.340	1	13
352.682	1	9
353.024	1	13
353.366	1	20
353.708	1	9
354.050	1	12
354.392	1	8
354.734	1	19
355.076	1	17
355.418	1	7
355.760	1	15
356.102	1	28
356.444	1	15
356.785	1	18
357.127	1	12
357.469	1	32
357.811	1	8
358.153	1	39
358.495	1	38
358.837	1	25
359.179	1	26
359.521	1	25
359.863	1	40
360.205	1	48
360.547	1	51
360.889	1	34
361.231	1	37
361.572	1	44
361.914	1	57
362.256	1	63
362.598	1	50
362.940	1	57
363.282	1	72
363.624	1	80
363.966	1	74
364.308	1	79
364.649	1	90
364.991	1	100
365.333	1	106
365.675	1	110
366.017	1	126
366.359	1	123
366.701	1	151
367.042	1	152
367.384	1	163
367.726	1	177
368.068	1	186
368.410	1	201
368.752	1	191
369.093	1	189
369.435	1	210
369.777	1	202
370.119	1	213
370.461	1	226
370.803	1	210
371.144	1	181
371.486	1	199
371.828	1	169
372.170	1	177
372.512	1	165
372.853	1	153
373.195	1	149
373.537	1	140
373.879	1	142
374.220	1	135
374.562	1	131
374.904	1	116
375.246	1	124
375.588	1	108
375.929	1	111
376.271	1	97
376.613	1	97
376.955	1	88
377.296	1	75
377.638	1	87
377.980	1	83
378.321	1	70
378.663	1	61
379.005	1	76
379.347	1	73
379.688	1	67
380.030	1	59
380.372	1	53
380.714	1	65
381.055	1	59
381.397	1	55
381.739	1	49
382.080	1	46
382.422	1	47
382.764	1	40
383.105	1	36
383.447	1	29
383.789	1	34
384.130	1	29
384.472	1	32
384.814	1	33
385.156	1	28
385.497	1	29
385.839	1	29
386.180	1	34
386.522	1	31
386.864	1	34
387.205	1	33
387.547	1	28
387.889	1	26
388.230	1	32
388.572	1	24
388.914	1	18
389.255	1	18
389.597	1	27
389.939	1	17
390.280	1	11
390.622	1	11
390.963	1	33
391.305	1	18
391.647	1	16
391.988	1	14
392.330	1	19
392.671	1	9
393.013	1	18
393.355	1	17
393.696	1	21
394.038	1	19
394.379	1	19
394.721	1	4
395.062	1	22
395.404	1	8
395.746	1	21
396.087	1	7
396.429	1	18
396.770	1	14
397.112	1	18
397.453	1	23
397.795	1	15
398.136	1	12
398.478	1	22
398.819	1	15
399.161	1	15
399.503	1	20
399.844	1	12
400.186	1	10
400.527	1	6
400.869	1	12
401.210	1	9
401.552	1	8
401.893	1	13
402.235	1	8
402.576	1	3
402.918	1	15
403.259	1	17
403.601	1	1
403.942	1	14
404.284	1	11
404.625	1	15
404.967	1	6
405.308	1	2
405.649	1	6
405.991	1	-4
406.332	1	12
406.674	1	-2
407.015	1	12
407.357	1	-4
407.698	1	21
408.040	1	6
408.381	1	12
408.722	1	-9
409.064	1	2
409.405	1	12
409.747	1	1
410.088	1	5
410.430	1	14
410.771	1	3
411.112	1	2
411.454	1	2
411.795	1	4
412.137	1	10
412.478	1	19
412.819	1	4
413.161	1	6
413.502	1	5
413.844	1	11
414.185	1	20
414.526	1	1
414.868	1	-1
415.209	1	8
415.550	1	-10
415.892	1	7
416.233	1	7
416.575	1	16
416.916	1	2
417.257	1	0
417.599	1	9
417.940	1	9
418.281	1	12
418.623	1	-1
418.964	1	1
419.305	1	15
419.647	1	2
419.988	1	3
420.329	1	2
420.671	1	19
421.012	1	11
421.353	1	8
421.695	1	-4
422.036	1	5
422.377	1	4
422.718	1	16
423.060	1	1
423.401	1	2
423.742	1	8
424.084	1	4
424.425	1	12
424.766	1	-5
425.107	1	-1
425.449	1	-4
425.790	1	-12
426.131	1	18
426.472	1	-1
426.814	1	5
427.155	1	-1
427.496	1	11
427.837	1	1
428.179	1	-12
428.520	1	0
428.861	1	6
429.202	1	5
429.544	1	1
429.885	1	-2
430.226	1	0
430.567	1	4
430.909	1	7
431.250	1	9
431.591	1	12
431.932	1	-1
432.273	1	-1
432.615	1	-5
432.956	1	-3
433.297	1	6
433.638	1	8
433.979	1	12
434.320	1	10
434.662	1	5
435.003	1	7
435.344	1	6
435.685	1	1
436.026	1	7
436.368	1	10
436.709	1	6
437.050	1	-5
437.391	1	13
437.732	1	-5
438.073	1	1
438.414	1	-5
438.756	1	1
439.097	1	-6
439.438	1	0
439.779	1	-5
440.120	1	7
440.461	1	1
440.802	1	1
441.143	1	3
441.485	1	4
441.826	1	-4
442.167	1	2
442.508	1	0
442.849	1	13
443.190	1	6
443.531	1	10
443.872	1	8
444.213	1	9
444.554	1	17
444.895	1	-3
445.237	1	6
445.578	1	-9
445.919	1	-4
446.260	1	-2
446.601	1	-2
446.942	1	1
447.283	1	4
447.624	1	-5
447.965	1	-4
448.306	1	4
448.647	1	-1
448.988	1	2
449.329	1	2
449.670	1	8
450.011	1	10
450.352	1	5
450.693	1	-5
451.034	1	-5
451.375	1	7
451.716	1	5
452.057	1	1
452.398	1	-3
452.739	1	4
453.080	1	-2
453.421	1	7
453.762	1	9
454.103	1	-4
454.444	1	1
454.785	1	2
455.126	1	0
455.467	1	11
455.808	1	5
456.149	1	10
456.490	1	2
456.831	1	13
457.172	1	-8
457.513	1	10
457.854	1	-3
458.195	1	1
458.536	1	7
458.877	1	1
459.218	1	4
459.559	1	8
459.899	1	-4
460.240	1	13
460.581	1	15
460.922	1	1
461.263	1	-3
461.604	1	0
461.945	1	3
462.286	1	8
462.627	1	7
462.968	1	4
463.309	1	0
463.649	1	5
463.990	1	0
464.331	1	2
464.672	1	4
465.013	1	3
465.354	1	5
465.695	1	-2
466.036	1	2
466.376	1	-2
466.717	1	3
467.058	1	-1
467.399	1	15
467.740	1	-4
468.081	1	1
468.422	1	-4
468.762	1	-5
469.103	1	-1
469.444	1	-1
469.785	1	-6
470.126	1	-7
470.467	1	-2
470.807	1	4
471.148	1	13
471.489	1	8
471.830	1	-3
472.171	1	11
472.511	1	0
472.852	1	5
473.193	1	8
473.534	1	5
473.875	1	20
474.215	1	10
474.556	1	10
474.897	1	0
475.238	1	7
475.578	1	3
475.919	1	0
476.260	1	-2
476.601	1	0
476.942	1	12
477.282	1	6
477.623	1	3
477.964	1	-5
478.305	1	6
478.645	1	10
478.986	1	7
479.327	1	-3
479.667	1	4
480.008	1	4
480.349	1	-4
480.690	1	2
481.030	1	3
481.371	1	12
481.712	1	8
482.053	1	0
482.393	1	7
482.734	1	-1
483.075	1	6
483.415	1	4
483.756	1	10
484.097	1	1
484.437	1	-3
484.778	1	10
485.119	1	-6
485.459	1	12
485.800	1	-5
486.141	1	9
486.481	1	11
486.822	1	11
487.163	1	2
487.503	1	6
487.844	1	10
488.185	1	3
488.525	1	6
488.866	1	12
489.207	1	8
489.547	1	10
489.888	1	4
490.228	1	9
490.569	1	18
490.910	1	-4
491.250	1	-2
491.591	1	2
491.932	1	3
492.272	1	13
492.613	1	-3
492.953	1	4
493.294	1	5
493.635	1	5
493.975	1	5
494.316	1	4
494.656	1	3
494.997	1	2
495.337	1	21
495.678	1	17
496.019	1	10
496.359	1	6
496.700	1	7
497.040	1	5
497.381	1	3
497.721	1	-2
498.062	1	6
498.403	1	14
498.743	1	9
499.084	1	8
499.424	1	5
499.765	1	-3
500.105	1	2
500.446	1	-3
500.786	1	6
501.127	1	9
501.467	1	-1
501.808	1	8
502.148	1	9
502.489	1	6
502.829	1	8
503.170	1	11
503.510	1	19
503.851	1	6
504.191	1	24
504.532	1	13
504.872	1	15
505.213	1	7
505.553	1	3
505.894	1	5
506.234	1	21
506.575	1	9
506.915	1	19
507.256	1	13
507.596	1	11
507.936	1	9
508.277	1	9
508.617	1	9
508.958	1	6
509.298	1	15
509.639	1	15
509.979	1	10
510.319	1	10
510.660	1	10
511.000	1	10
511.341	1	18
511.681	1	15
512.022	1	8
512.362	1	6
512.702	1	4
513.043	1	10
513.383	1	0
513.724	1	7
514.064	1	14
514.404	1	3
514.745	1	8
515.085	1	20
515.425	1	8
515.766	1	9
516.106	1	5
516.447	1	19
516.787	1	17
517.127	1	11
517.468	1	10
517.808	1	4
518.148	1	12
518.489	1	26
518.829	1	21
519.169	1	19
519.510	1	8
519.850	1	5
520.190	1	6
520.531	1	26
520.871	1	9
521.211	1	7
521.552	1	21
521.892	1	18
522.232	1	18
522.573	1	14
522.913	1	14
523.253	1	13
523.593	1	19
523.934	1	13
524.274	1	7
524.614	1	21
524.955	1	15
525.295	1	21
525.635	1	13
525.975	1	21
526.316	1	30
526.656	1	26
526.996	1	18
527.337	1	19
527.677	1	16
528.017	1	7
528.357	1	16
528.698	1	6
529.038	1	12
529.378	1	15
529.718	1	22
530.058	1	29
530.399	1	26
530.739	1	17
531.079	1	21
531.419	1	21
531.760	1	23
532.100	1	12
532.440	1	21
532.780	1	17
533.120	1	32
533.461	1	23
533.801	1	26
534.141	1	6
534.481	1	20
534.821	1	29
535.162	1	19
535.502	1	16
535.842	1	24
536.182	1	19
536.522	1	16
536.862	1	19
537.203	1	10
537.543	1	13
537.883	1	23
538.223	1	25
538.563	1	15
538.903	1	7
539.243	1	8
539.584	1	14
539.924	1	25
540.264	1	9
540.604	1	23
540.944	1	13
541.284	1	24
541.624	1	19
541.964	1	23
542.305	1	14
542.645	1	21
542.985	1	21
543.325	1	18
543.665	1	24
544.005	1	15
544.345	1	24
544.685	1	17
545.025	1	20
545.365	1	22
545.705	1	24
546.045	1	1
546.386	1	33
546.726	1	20
547.066	1	15
547.406	1	12
547.746	1	14
548.086	1	20
548.426	1	25
548.766	1	22
549.106	1	13
549.446	1	27
549.786	1	14
550.126	1	27
550.466	1	23
550.806	1	24
551.146	1	22
551.486	1	21
551.826	1	23
552.166	1	31
552.506	1	35
552.846	1	19
553.186	1	29
553.526	1	22
553.866	1	17
554.206	1	26
554.546	1	25
554.886	1	29
555.226	1	7
555.566	1	29
555.906	1	21
556.246	1	29
556.586	1	23
556.926	1	20
557.266	1	16
557.606	1	24
557.946	1	32
558.286	1	24
558.626	1	14
558.966	1	22
559.306	1	20
559.646	1	16
559.986	1	22
560.325	1	14
560.665	1	4
561.005	1	20
561.345	1	25
561.685	1	13
562.025	1	29
562.365	1	21
562.705	1	20
563.045	1	16
563.385	1	1
563.725	1	14
564.064	1	19
564.404	1	33
564.744	1	22
565.084	1	15
565.424	1	21
565.764	1	14
566.104	1	11
566.444	1	12
566.783	1	6
567.123	1	30
567.463	1	15
567.803	1	15
568.143	1	19
568.483	1	22
568.823	1	22
569.162	1	25
569.502	1	21
569.842	1	19
570.182	1	19
570.522	1	9
570.862	1	9
571.201	1	27
571.541	1	14
571.881	1	31
572.221	1	21
572.561	1	19
572.900	1	14
573.240	1	16
573.580	1	17
573.920	1	26
574.260	1	27
574.599	1	22
574.939	1	24
575.279	1	28
575.619	1	24
575.959	1	18
576.298	1	20
576.638	1	11
576.978	1	27
577.318	1	22
577.657	1	10
577.997	1	15
578.337	1	21
578.677	1	25
579.016	1	25
579.356	1	9
579.696	1	28
580.036	1	13
580.375	1	24
580.715	1	20
581.055	1	15
581.394	1	20
581.734	1	17
582.074	1	15
582.414	1	13
582.753	1	17
583.093	1	21
583.433	1	10
583.772	1	29
584.112	1	17
584.452	1	12
584.791	1	18
585.131	1	22
585.471	1	33
585.811	1	22
586.150	1	11
586.490	1	28
586.830	1	14
587.169	1	12
587.509	1	19
587.849	1	23
588.188	1	27
588.528	1	18
588.867	1	17
589.207	1	18
589.547	1	28
589.886	1	14
590.226	1	17
590.566	1	19
590.905	1	10
591.245	1	14
591.585	1	17
591.924	1	20
592.264	1	24
592.603	1	20
592.943	1	15
593.283	1	13
593.622	1	14
593.962	1	15
594.301	1	20
594.641	1	8
594.981	1	11
595.320	1	21
595.660	1	15
595.999	1	12
596.339	1	15
596.678	1	10
597.018	1	11
597.358	1	22
597.697	1	15
598.037	1	9
598.376	1	6
598.716	1	19
599.055	1	19
599.395	1	8
599.734	1	8
600.074	1	15
600.413	1	27
600.753	1	13
601.092	1	27
601.432	1	2
601.771	1	18
602.111	1	18
602.451	1	23
602.790	1	15
603.130	1	12
603.469	1	1
603.809	1	20
604.148	1	17
604.487	1	18
604.827	1	19
605.166	1	24
605.506	1	12
605.845	1	29
606.185	1	18
606.524	1	7
606.864	1	16
607.203	1	14
607.543	1	14
607.882	1	10
608.222	1	16
608.561	1	18
608.901	1	15
609.240	1	3
609.579	1	28
609.919	1	21
610.258	1	27
610.598	1	19
610.937	1	26
611.277	1	15
611.616	1	15
611.955	1	9
612.295	1	16
612.634	1	7
612.974	1	9
613.313	1	19
613.652	1	12
613.992	1	11
614.331	1	4
614.671	1	13
615.010	1	4
615.349	1	28
615.689	1	22
616.028	1	5
616.368	1	18
616.707	1	16
617.046	1	11
617.386	1	16
617.725	1	12
618.064	1	7
618.404	1	10
618.743	1	14
619.082	1	20
619.422	1	0
619.761	1	20
620.100	1	9
620.440	1	8
620.779	1	6
621.118	1	12
621.458	1	8
621.797	1	15
622.136	1	19
622.476	1	16
622.815	1	23
623.154	1	10
623.494	1	20
623.833	1	15
624.172	1	10
624.511	1	18
624.851	1	4
625.190	1	22
625.529	1	18
625.869	1	21
626.208	1	14
626.547	1	16
626.886	1	7
627.226	1	15
627.565	1	15
627.904	1	12
628.243	1	18
628.583	1	7
628.922	1	19
629.261	1	21
629.600	1	12
629.940	1	3
630.279	1	4
630.618	1	9
630.957	1	6
631.297	1	16
631.636	1	-2
631.975	1	19
632.314	1	13
632.653	1	10
632.993	1	9
633.332	1	1
633.671	1	8
634.010	1	3
634.349	1	16
634.689	1	7
635.028	1	8
635.367	1	13
635.706	1	9
636.045	1	26
636.384	1	12
636.724	1	9
637.063	1	11
637.402	1	13
637.741	1	14
638.080	1	-4
638.419	1	3
638.759	1	1
639.098	1	7
639.437	1	14
639.776	1	13
640.115	1	6
640.454	1	3
640.793	1	16
641.132	1	11
641.472	1	15
641.811	1	7
642.150	1	5
642.489	1	17
642.828	1	-3
643.167	1	0
643.506	1	-1
643.845	1	19
644.184	1	16
644.524	1	6
644.863	1	6
645.202	1	8
645.541	1	10
645.880	1	19
646.219	1	9
646.558	1	9
646.897	1	6
647.236	1	12
647.575	1	12
647.914	1	0
648.253	1	17
648.592	1	3
648.931	1	18
649.270	1	8
649.610	1	5
649.949	1	9
650.288	1	19
650.627	1	5
650.966	1	7
651.305	1	14
651.644	1	18
651.983	1	6
652.322	1	-5
652.661	1	6
653.000	1	10
653.339	1	11
653.678	1	9
654.017	1	4
654.356	1	9
654.695	1	14
655.034	1	5
655.373	1	7
655.712	1	9
656.051	1	7
656.390	1	3
656.729	1	7
657.068	1	7
657.406	1	7
657.745	1	2
658.084	1	13
658.423	1	17
658.762	1	1
659.101	1	17
659.440	1	9
659.779	1	5
660.118	1	12
660.457	1	-2
660.796	1	-1
661.135	1	4
661.474	1	8
661.813	1	12
662.152	1	12
662.491	1	3
662.829	1	9
663.168	1	8
663.507	1	10
663.846	1	0
664.185	1	14
664.524	1	12
664.863	1	4
665.202	1	10
665.541	1	2
665.879	1	0
666.218	1	5
666.557	1	6
666.896	1	-4
667.235	1	7
667.574	1	11
667.913	1	13
668.251	1	4
668.590	1	7
668.929	1	0
669.268	1	5
669.607	1	5
669.946	1	1
670.285	1	15
670.623	1	6
670.962	1	4
671.301	1	0
671.640	1	11
671.979	1	6
672.317	1	14
672.656	1	4
672.995	1	5
673.334	1	8
673.673	1	5
674.011	1	14
674.350	1	8
674.689	1	4
675.028	1	6
675.367	1	4
675.705	1	11
676.044	1	5
676.383	1	11
676.722	1	9
677.060	1	-1
677.399	1	9
677.738	1	15
678.077	1	12
678.416	1	10
678.754	1	4
679.093	1	15
679.432	1	1
679.771	1	12
680.109	1	14
680.448	1	11
680.787	1	8
681.125	1	13
681.464	1	9
681.803	1	10
682.142	1	12
682.480	1	16
682.819	1	5
683.158	1	0
683.496	1	14
683.835	1	3
684.174	1	11
684.512	1	7
684.851	1	18
685.190	1	2
685.529	1	-1
685.867	1	8
686.206	1	1
686.545	1	0
686.883	1	22
687.222	1	5
687.561	1	19
687.899	1	12
688.238	1	14
688.577	1	0
688.746	1	19