File: Data/GaN_200K_800ms/GaN_sample F_spot 12_UVVIS_200 K_200um_800 ms 2x2mm1_203.txt
340.368	1	10
340.710	1	-3
341.052	1	2
341.394	1	-1
341.737	1	2
342.079	1	0
342.421	1	0
342.763	1	1
343.105	1	3
343.447	1	-3
343.789	1	4
344.131	1	1
344.473	1	-6
344.815	1	-1
345.157	1	-9
345.499	1	5
345.841	1	8
346.183	1	-2
346.526	1	-2
346.868	1	4
347.210	1	-2
347.552	1	-1
347.894	1	-5
348.236	1	5
348.578	1	-2
348.920	1	-5
349.262	1	-2
349.604	1	1
349.946	1	2
350.288	1	13
350.630	1	3
350.972	1	0
351.314	1	-1
351.656	1	2
351.998	1	6
352.340	1	9
352.682	1	7
353.024	1	6
353.366	1	3
353.708	1	8
354.050	1	-1
354.392	1	-4
354.734	1	-3
355.076	1	-2
355.418	1	-7
355.760	1	-7
356.102	1	12
356.444	1	-3
356.785	1	12
357.127	1	-5
357.469	1	3
357.811	1	13
358.153	1	12
358.495	1	0
358.837	1	0
359.179	1	3
359.521	1	10
359.863	1	8
360.205	1	7
360.547	1	4
360.889	1	6
361.231	1	5
361.572	1	15
361.914	1	11
362.256	1	6
362.598	1	5
362.940	1	8
363.282	1	13
363.624	1	14
363.966	1	10
364.308	1	14
364.649	1	17
364.991	1	17
365.333	1	15
365.675	1	12
366.017	1	11
366.359	1	20
366.701	1	22
367.042	1	18
367.384	1	41
367.726	1	22
368.068	1	31
368.410	1	37
368.752	1	41
369.093	1	25
369.435	1	39
369.777	1	28
370.119	1	36
370.461	1	45
370.803	1	33
371.144	1	21
371.486	1	26
371.828	1	39
372.170	1	37
372.512	1	20
372.853	1	24
373.195	1	23
373.537	1	27
373.879	1	17
374.220	1	33
374.562	1	21
374.904	1	17
375.246	1	29
375.588	1	15
375.929	1	17
376.271	1	14
376.613	1	9
376.955	1	14
377.296	1	8
377.638	1	16
377.980	1	12
378.321	1	0
378.663	1	9
379.005	1	23
379.347	1	11
379.688	1	18
380.030	1	13
380.372	1	12
380.714	1	16
381.055	1	10
381.397	1	-6
381.739	1	6
382.080	1	9
382.422	1	6
382.764	1	9
383.105	1	1
383.447	1	9
383.789	1	10
384.130	1	-2
384.472	1	5
384.814	1	12
385.156	1	2
385.497	1	7
385.839	1	10
386.180	1	0
386.522	1	10
386.864	1	7
387.205	1	-1
387.547	1	-1
387.889	1	1
388.230	1	17
388.572	1	4
388.914	1	13
389.255	1	-3
389.597	1	2
389.939	1	0
390.280	1	5
390.622	1	-2
390.963	1	14
391.305	1	11
391.647	1	-1
391.988	1	11
392.330	1	12
392.671	1	5
393.013	1	3
393.355	1	8
393.696	1	7
394.038	1	5
394.379	1	9
394.721	1	-2
395.062	1	7
395.404	1	0
395.746	1	11
396.087	1	-4
396.429	1	1
396.770	1	-8
397.112	1	3
397.453	1	14
397.795	1	-3
398.136	1	0
398.478	1	-2
398.819	1	-2
399.161	1	14
399.503	1	12
399.844	1	-3
400.186	1	5
400.527	1	1
400.869	1	7
401.210	1	1
401.552	1	0
401.893	1	-5
402.235	1	12
402.576	1	-6
402.918	1	16
403.259	1	10
403.601	1	-11
403.942	1	9
404.284	1	2
404.625	1	0
404.967	1	13
405.308	1	5
405.649	1	-5
405.991	1	-3
406.332	1	7
406.674	1	3
407.015	1	2
407.357	1	-5
407.698	1	4
408.040	1	-2
408.381	1	6
408.722	1	-13
409.064	1	3
409.405	1	9
409.747	1	3
410.088	1	5
410.430	1	-3
410.771	1	7
411.112	1	-7
411.454	1	-6
411.795	1	-4
412.137	1	-6
412.478	1	13
412.819	1	-3
413.161	1	4
413.502	1	0
413.844	1	1
414.185	1	2
414.526	1	6
414.868	1	2
415.209	1	6
415.550	1	-8
415.892	1	-4
416.233	1	3
416.575	1	17
416.916	1	-2
417.257	1	-6
417.599	1	-5
417.940	1	7
418.281	1	13
418.623	1	-2
418.964	1	-11
419.305	1	6
419.647	1	-5
419.988	1	2
420.329	1	-7
420.671	1	-5
421.012	1	-1
421.353	1	-1
421.695	1	-4
422.036	1	1
422.377	1	-4
422.718	1	10
423.060	1	-1
423.401	1	3
423.742	1	6
424.084	1	1
424.425	1	5
424.766	1	-4
425.107	1	5
425.449	1	9
425.790	1	-9
426.131	1	5
426.472	1	2
426.814	1	1
427.155	1	-7
427.496	1	-4
427.837	1	1
428.179	1	-3
428.520	1	-5
428.861	1	2
429.202	1	4
429.544	1	-7
429.885	1	1
430.226	1	-17
430.567	1	7
430.909	1	-5
431.250	1	-14
431.591	1	10
431.932	1	-2
432.273	1	2
432.615	1	-2
432.956	1	-4
433.297	1	3
433.638	1	4
433.979	1	6
434.320	1	5
434.662	1	3
435.003	1	7
435.344	1	-3
435.685	1	-4
436.026	1	4
436.368	1	6
436.709	1	-4
437.050	1	0
437.391	1	8
437.732	1	-5
438.073	1	-2
438.414	1	-7
438.756	1	-1
439.097	1	-6
439.438	1	-2
439.779	1	-3
440.120	1	5
440.461	1	0
440.802	1	-2
441.143	1	10
441.485	1	2
441.826	1	3
442.167	1	2
442.508	1	-2
442.849	1	9
443.190	1	5
443.531	1	-3
443.872	1	-2
444.213	1	-3
444.554	1	9
444.895	1	-4
445.237	1	-7
445.578	1	-8
445.919	1	-9
446.260	1	-7
446.601	1	2
446.942	1	-2
447.283	1	4
447.624	1	-2
447.965	1	-2
448.306	1	3
448.647	1	-10
448.988	1	-8
449.329	1	4
449.670	1	4
450.011	1	2
450.352	1	-5
450.693	1	-5
451.034	1	-7
451.375	1	4
451.716	1	4
452.057	1	-5
452.398	1	-6
452.739	1	2
453.080	1	0
453.421	1	-4
453.762	1	0
454.103	1	1
454.444	1	-10
454.785	1	0
455.126	1	-8
455.467	1	1
455.808	1	-1
456.149	1	9
456.490	1	8
456.831	1	7
457.172	1	-8
457.513	1	3
457.854	1	1
458.195	1	-7
458.536	1	7
458.877	1	5
459.218	1	0
459.559	1	5
459.899	1	-2
460.240	1	3
460.581	1	16
460.922	1	-2
461.263	1	-8
461.604	1	-8
461.945	1	9
462.286	1	5
462.627	1	7
462.968	1	9
463.309	1	-5
463.649	1	-8
463.990	1	-1
464.331	1	-3
464.672	1	2
465.013	1	-5
465.354	1	7
465.695	1	-2
466.036	1	-3
466.376	1	-6
466.717	1	-3
467.058	1	-1
467.399	1	7
467.740	1	-4
468.081	1	8
468.422	1	-3
468.762	1	-10
469.103	1	-1
469.444	1	-3
469.785	1	-13
470.126	1	-5
470.467	1	9
470.807	1	10
471.148	1	-1
471.489	1	5
471.830	1	10
472.171	1	7
472.511	1	-6
472.852	1	-4
473.193	1	6
473.534	1	3
473.875	1	11
474.215	1	8
474.556	1	4
474.897	1	6
475.238	1	2
475.578	1	-8
475.919	1	7
476.260	1	4
476.601	1	0
476.942	1	13
477.282	1	-10
477.623	1	-9
477.964	1	-2
478.305	1	-2
478.645	1	8
478.986	1	-3
479.327	1	-1
479.667	1	-10
480.008	1	-8
480.349	1	-4
480.690	1	5
481.030	1	-1
481.371	1	1
481.712	1	1
482.053	1	0
482.393	1	0
482.734	1	-12
483.075	1	-4
483.415	1	4
483.756	1	12
484.097	1	4
484.437	1	-4
484.778	1	5
485.119	1	4
485.459	1	21
485.800	1	-4
486.141	1	-13
486.481	1	8
486.822	1	3
487.163	1	-2
487.503	1	1
487.844	1	4
488.185	1	0
488.525	1	1
488.866	1	7
489.207	1	3
489.547	1	-9
489.888	1	6
490.228	1	6
490.569	1	13
490.910	1	-2
491.250	1	-5
491.591	1	-10
491.932	1	1
492.272	1	-2
492.613	1	-5
492.953	1	-1
493.294	1	-6
493.635	1	-3
493.975	1	1
494.316	1	5
494.656	1	13
494.997	1	-4
495.337	1	13
495.678	1	1
496.019	1	7
496.359	1	-6
496.700	1	9
497.040	1	-6
497.381	1	7
497.721	1	-2
498.062	1	-1
498.403	1	8
498.743	1	1
499.084	1	-7
499.424	1	4
499.765	1	5
500.105	1	-9
500.446	1	-11
500.786	1	-7
501.127	1	-7
501.467	1	-2
501.808	1	3
502.148	1	8
502.489	1	3
502.829	1	-9
503.170	1	6
503.510	1	6
503.851	1	3
504.191	1	6
504.532	1	3
504.872	1	0
505.213	1	6
505.553	1	-1
505.894	1	0
506.234	1	7
506.575	1	6
506.915	1	1
507.256	1	-2
507.596	1	-1
507.936	1	7
508.277	1	1
508.617	1	8
508.958	1	-6
509.298	1	2
509.639	1	-7
509.979	1	1
510.319	1	10
510.660	1	-9
511.000	1	0
511.341	1	-1
511.681	1	8
512.022	1	-4
512.362	1	-7
512.702	1	5
513.043	1	15
513.383	1	-3
513.724	1	1
514.064	1	7
514.404	1	7
514.745	1	-3
515.085	1	3
515.425	1	-1
515.766	1	-12
516.106	1	9
516.447	1	9
516.787	1	6
517.127	1	2
517.468	1	2
517.808	1	3
518.148	1	4
518.489	1	-4
518.829	1	1
519.169	1	-1
519.510	1	4
519.850	1	8
520.190	1	3
520.531	1	2
520.871	1	8
521.211	1	-10
521.552	1	13
521.892	1	-1
522.232	1	10
522.573	1	2
522.913	1	1
523.253	1	-3
523.593	1	-4
523.934	1	-1
524.274	1	3
524.614	1	-1
524.955	1	-2
525.295	1	2
525.635	1	1
525.975	1	7
526.316	1	25
526.656	1	12
526.996	1	4
527.337	1	-2
527.677	1	15
528.017	1	-10
528.357	1	0
528.698	1	-1
529.038	1	3
529.378	1	4
529.718	1	10
530.058	1	3
530.399	1	12
530.739	1	-4
531.079	1	6
531.419	1	8
531.760	1	7
532.100	1	-3
532.440	1	-3
532.780	1	-2
533.120	1	7
533.461	1	11
533.801	1	13
534.141	1	-6
534.481	1	-1
534.821	1	2
535.162	1	5
535.502	1	-2
535.842	1	11
536.182	1	13
536.522	1	-11
536.862	1	-1
537.203	1	-3
537.543	1	7
537.883	1	3
538.223	1	6
538.563	1	7
538.903	1	-7
539.243	1	7
539.584	1	-5
539.924	1	10
540.264	1	7
540.604	1	-4
540.944	1	1
541.284	1	0
541.624	1	0
541.964	1	7
542.305	1	19
542.645	1	-2
542.985	1	0
543.325	1	-1
543.665	1	12
544.005	1	1
544.345	1	12
544.685	1	2
545.025	1	4
545.365	1	2
545.705	1	3
546.045	1	-5
546.386	1	7
546.726	1	-5
547.066	1	2
547.406	1	-1
547.746	1	-5
548.086	1	1
548.426	1	-9
548.766	1	10
549.106	1	6
549.446	1	1
549.786	1	-5
550.126	1	11
550.466	1	6
550.806	1	1
551.146	1	0
551.486	1	3
551.826	1	8
552.166	1	11
552.506	1	8
552.846	1	0
553.186	1	9
553.526	1	6
553.866	1	0
554.206	1	11
554.546	1	0
554.886	1	7
555.226	1	-10
555.566	1	4
555.906	1	8
556.246	1	0
556.586	1	6
556.926	1	5
557.266	1	-9
557.606	1	4
557.946	1	5
558.286	1	6
558.626	1	5
558.966	1	10
559.306	1	-6
559.646	1	-3
559.986	1	-6
560.325	1	-9
560.665	1	-8
561.005	1	-6
561.345	1	1
561.685	1	3
562.025	1	-6
562.365	1	6
562.705	1	0
563.045	1	-1
563.385	1	-9
563.725	1	2
564.064	1	1
564.404	1	8
564.744	1	2
565.084	1	-6
565.424	1	2
565.764	1	-2
566.104	1	13
566.444	1	-4
566.783	1	2
567.123	1	10
567.463	1	4
567.803	1	-1
568.143	1	13
568.483	1	7
568.823	1	15
569.162	1	11
569.502	1	-7
569.842	1	-1
570.182	1	3
570.522	1	-12
570.862	1	2
571.201	1	0
571.541	1	8
571.881	1	1
572.221	1	-5
572.561	1	-1
572.900	1	-1
573.240	1	-4
573.580	1	1
573.920	1	8
574.260	1	10
574.599	1	-2
574.939	1	-5
575.279	1	10
575.619	1	6
575.959	1	-3
576.298	1	9
576.638	1	-3
576.978	1	6
577.318	1	5
577.657	1	-6
577.997	1	2
578.337	1	11
578.677	1	7
579.016	1	7
579.356	1	1
579.696	1	6
580.036	1	2
580.375	1	6
580.715	1	2
581.055	1	5
581.394	1	2
581.734	1	0
582.074	1	-3
582.414	1	3
582.753	1	3
583.093	1	7
583.433	1	-5
583.772	1	9
584.112	1	-5
584.452	1	6
584.791	1	0
585.131	1	11
585.471	1	11
585.811	1	6
586.150	1	1
586.490	1	12
586.830	1	-6
587.169	1	8
587.509	1	-4
587.849	1	3
588.188	1	14
588.528	1	9
588.867	1	7
589.207	1	8
589.547	1	-1
589.886	1	-6
590.226	1	3
590.566	1	2
590.905	1	2
591.245	1	-3
591.585	1	-2
591.924	1	1
592.264	1	14
592.603	1	9
592.943	1	-4
593.283	1	-6
593.622	1	-1
593.962	1	14
594.301	1	11
594.641	1	-5
594.981	1	2
595.320	1	-3
595.660	1	5
595.999	1	2
596.339	1	3
596.678	1	-8
597.018	1	0
597.358	1	5
597.697	1	0
598.037	1	-2
598.376	1	0
598.716	1	10
599.055	1	8
599.395	1	-1
599.734	1	-3
600.074	1	0
600.413	1	8
600.753	1	0
601.092	1	8
601.432	1	-7
601.771	1	3
602.111	1	0
602.451	1	6
602.790	1	-2
603.130	1	5
603.469	1	-9
603.809	1	5
604.148	1	4
604.487	1	0
604.827	1	5
605.166	1	2
605.506	1	3
605.845	1	1
606.185	1	9
606.524	1	-5
606.864	1	-3
607.203	1	-2
607.543	1	-1
607.882	1	7
608.222	1	2
608.561	1	1
608.901	1	11
609.240	1	-7
609.579	1	4
609.919	1	7
610.258	1	10
610.598	1	1
610.937	1	14
611.277	1	1
611.616	1	6
611.955	1	-1
612.295	1	5
612.634	1	6
612.974	1	2
613.313	1	3
613.652	1	-1
613.992	1	-1
614.331	1	-1
614.671	1	11
615.010	1	-1
615.349	1	-1
615.689	1	10
616.028	1	0
616.368	1	12
616.707	1	1
617.046	1	10
617.386	1	0
617.725	1	4
618.064	1	-6
618.404	1	-4
618.743	1	0
619.082	1	-7
619.422	1	-5
619.761	1	-5
620.100	1	3
620.440	1	0
620.779	1	-1
621.118	1	0
621.458	1	2
621.797	1	-1
622.136	1	13
622.476	1	6
622.815	1	10
623.154	1	11
623.494	1	1
623.833	1	2
624.172	1	0
624.511	1	4
624.851	1	-14
625.190	1	6
625.529	1	-4
625.869	1	2
626.208	1	4
626.547	1	7
626.886	1	6
627.226	1	-1
627.565	1	3
627.904	1	-2
628.243	1	4
628.583	1	6
628.922	1	7
629.261	1	9
629.600	1	14
629.940	1	-4
630.279	1	0
630.618	1	4
630.957	1	0
631.297	1	-10
631.636	1	-6
631.975	1	17
632.314	1	-1
632.653	1	3
632.993	1	-3
633.332	1	-3
633.671	1	-4
634.010	1	-3
634.349	1	5
634.689	1	-5
635.028	1	3
635.367	1	1
635.706	1	1
636.045	1	6
636.384	1	-1
636.724	1	-4
637.063	1	-6
637.402	1	6
637.741	1	4
638.080	1	7
638.419	1	-2
638.759	1	-7
639.098	1	7
639.437	1	9
639.776	1	-6
640.115	1	1
640.454	1	1
640.793	1	8
641.132	1	7
641.472	1	-1
641.811	1	4
642.150	1	-7
642.489	1	5
642.828	1	-5
643.167	1	1
643.506	1	-10
643.845	1	-1
644.184	1	8
644.524	1	0
644.863	1	-5
645.202	1	4
645.541	1	0
645.880	1	3
646.219	1	2
646.558	1	1
646.897	1	-1
647.236	1	-2
647.575	1	9
647.914	1	-6
648.253	1	11
648.592	1	5
648.931	1	3
649.270	1	-2
649.610	1	-1
649.949	1	-2
650.288	1	1
650.627	1	-7
650.966	1	7
651.305	1	2
651.644	1	18
651.983	1	3
652.322	1	-2
652.661	1	-6
653.000	1	5
653.339	1	3
653.678	1	3
654.017	1	7
654.356	1	4
654.695	1	6
655.034	1	4
655.373	1	6
655.712	1	4
656.051	1	7
656.390	1	-13
656.729	1	5
657.068	1	12
657.406	1	8
657.745	1	-3
658.084	1	7
658.423	1	8
658.762	1	-2
659.101	1	2
659.440	1	5
659.779	1	7
660.118	1	0
660.457	1	9
660.796	1	-10
661.135	1	-3
661.474	1	3
661.813	1	14
662.152	1	3
662.491	1	-4
662.829	1	-7
663.168	1	-1
663.507	1	12
663.846	1	3
664.185	1	3
664.524	1	3
664.863	1	1
665.202	1	-7
665.541	1	-9
665.879	1	-4
666.218	1	-7
666.557	1	-4
666.896	1	0
667.235	1	5
667.574	1	1
667.913	1	3
668.251	1	-2
668.590	1	4
668.929	1	-6
669.268	1	-4
669.607	1	-6
669.946	1	1
670.285	1	-1
670.623	1	-1
670.962	1	-4
671.301	1	4
671.640	1	-2
671.979	1	2
672.317	1	7
672.656	1	-1
672.995	1	5
673.334	1	-11
673.673	1	-6
674.011	1	-2
674.350	1	2
674.689	1	2
675.028	1	-5
675.367	1	4
675.705	1	7
676.044	1	-5
676.383	1	-1
676.722	1	-3
677.060	1	1
677.399	1	-4
677.738	1	14
678.077	1	2
678.416	1	1
678.754	1	-10
679.093	1	8
679.432	1	4
679.771	1	-6
680.109	1	7
680.448	1	-5
680.787	1	-2
681.125	1	0
681.464	1	1
681.803	1	2
682.142	1	4
682.480	1	9
682.819	1	6
683.158	1	0
683.496	1	8
683.835	1	-2
684.174	1	-4
684.512	1	5
684.851	1	-2
685.190	1	0
685.529	1	3
685.867	1	2
686.206	1	-2
686.545	1	2
686.883	1	4
687.222	1	3
687.561	1	2
687.899	1	4
688.238	1	4
688.577	1	-2
688.746	1	4