File: Data/GaN_200K_800ms/GaN_sample F_spot 12_UVVIS_200 K_200um_800 ms 2x2mm1_332.txt
340.368	1	5
340.710	1	-18
341.052	1	2
341.394	1	-9
341.737	1	-3
342.079	1	-10
342.421	1	-7
342.763	1	7
343.105	1	-3
343.447	1	-7
343.789	1	-9
344.131	1	2
344.473	1	1
344.815	1	6
345.157	1	-4
345.499	1	1
345.841	1	9
346.183	1	-13
346.526	1	-10
346.868	1	4
347.210	1	-12
347.552	1	-2
347.894	1	5
348.236	1	6
348.578	1	0
348.920	1	-6
349.262	1	3
349.604	1	3
349.946	1	-5
350.288	1	10
350.630	1	4
350.972	1	5
351.314	1	9
351.656	1	2
351.998	1	3
352.340	1	2
352.682	1	2
353.024	1	4
353.366	1	10
353.708	1	2
354.050	1	-10
354.392	1	1
354.734	1	0
355.076	1	-4
355.418	1	-11
355.760	1	-6
356.102	1	12
356.444	1	4
356.785	1	3
357.127	1	8
357.469	1	0
357.811	1	3
358.153	1	-4
358.495	1	6
358.837	1	-4
359.179	1	2
359.521	1	7
359.863	1	-4
360.205	1	-3
360.547	1	2
360.889	1	2
361.231	1	-5
361.572	1	12
361.914	1	0
362.256	1	4
362.598	1	-2
362.940	1	1
363.282	1	7
363.624	1	17
363.966	1	-4
364.308	1	-2
364.649	1	12
364.991	1	1
365.333	1	4
365.675	1	-5
366.017	1	7
366.359	1	12
366.701	1	18
367.042	1	6
367.384	1	7
367.726	1	10
368.068	1	11
368.410	1	30
368.752	1	6
369.093	1	8
369.435	1	6
369.777	1	14
370.119	1	13
370.461	1	20
370.803	1	17
371.144	1	8
371.486	1	18
371.828	1	14
372.170	1	25
372.512	1	2
372.853	1	9
373.195	1	11
373.537	1	8
373.879	1	6
374.220	1	20
374.562	1	14
374.904	1	7
375.246	1	7
375.588	1	-1
375.929	1	6
376.271	1	15
376.613	1	2
376.955	1	3
377.296	1	1
377.638	1	7
377.980	1	10
378.321	1	-2
378.663	1	-2
379.005	1	12
379.347	1	8
379.688	1	17
380.030	1	1
380.372	1	9
380.714	1	11
381.055	1	18
381.397	1	1
381.739	1	3
382.080	1	0
382.422	1	3
382.764	1	-4
383.105	1	1
383.447	1	-8
383.789	1	0
384.130	1	0
384.472	1	6
384.814	1	1
385.156	1	-4
385.497	1	6
385.839	1	2
386.180	1	1
386.522	1	6
386.864	1	6
387.205	1	-2
387.547	1	-4
387.889	1	-8
388.230	1	11
388.572	1	-2
388.914	1	4
389.255	1	-2
389.597	1	8
389.939	1	6
390.280	1	3
390.622	1	-1
390.963	1	13
391.305	1	11
391.647	1	5
391.988	1	10
392.330	1	1
392.671	1	-3
393.013	1	-5
393.355	1	6
393.696	1	5
394.038	1	2
394.379	1	3
394.721	1	-4
395.062	1	1
395.404	1	1
395.746	1	3
396.087	1	3
396.429	1	1
396.770	1	-12
397.112	1	7
397.453	1	14
397.795	1	1
398.136	1	-9
398.478	1	7
398.819	1	-1
399.161	1	7
399.503	1	7
399.844	1	1
400.186	1	-5
400.527	1	-2
400.869	1	-3
401.210	1	1
401.552	1	-5
401.893	1	2
402.235	1	-6
402.576	1	-3
402.918	1	10
403.259	1	11
403.601	1	-11
403.942	1	10
404.284	1	9
404.625	1	10
404.967	1	5
405.308	1	2
405.649	1	-10
405.991	1	-1
406.332	1	10
406.674	1	-10
407.015	1	0
407.357	1	-7
407.698	1	6
408.040	1	-8
408.381	1	6
408.722	1	-12
409.064	1	0
409.405	1	-5
409.747	1	-1
410.088	1	6
410.430	1	2
410.771	1	-6
411.112	1	2
411.454	1	-7
411.795	1	-5
412.137	1	1
412.478	1	11
412.819	1	-9
413.161	1	1
413.502	1	-2
413.844	1	-1
414.185	1	6
414.526	1	-5
414.868	1	-3
415.209	1	-3
415.550	1	-4
415.892	1	0
416.233	1	2
416.575	1	5
416.916	1	-8
417.257	1	-6
417.599	1	11
417.940	1	10
418.281	1	1
418.623	1	0
418.964	1	-9
419.305	1	5
419.647	1	-7
419.988	1	8
420.329	1	-2
420.671	1	-1
421.012	1	-7
421.353	1	-6
421.695	1	-10
422.036	1	6
422.377	1	0
422.718	1	8
423.060	1	-2
423.401	1	6
423.742	1	1
424.084	1	-3
424.425	1	-5
424.766	1	-2
425.107	1	4
425.449	1	0
425.790	1	2
426.131	1	-4
426.472	1	-6
426.814	1	-2
427.155	1	1
427.496	1	6
427.837	1	0
428.179	1	-1
428.520	1	0
428.861	1	-2
429.202	1	-5
429.544	1	-6
429.885	1	1
430.226	1	-4
430.567	1	4
430.909	1	6
431.250	1	5
431.591	1	0
431.932	1	0
432.273	1	2
432.615	1	-5
432.956	1	-6
433.297	1	4
433.638	1	-4
433.979	1	-1
434.320	1	-5
434.662	1	-5
435.003	1	-3
435.344	1	3
435.685	1	-8
436.026	1	-3
436.368	1	4
436.709	1	2
437.050	1	-6
437.391	1	9
437.732	1	-10
438.073	1	5
438.414	1	-15
438.756	1	-4
439.097	1	-15
439.438	1	-5
439.779	1	0
440.120	1	-3
440.461	1	-1
440.802	1	-7
441.143	1	-3
441.485	1	3
441.826	1	-7
442.167	1	1
442.508	1	-10
442.849	1	4
443.190	1	0
443.531	1	6
443.872	1	3
444.213	1	5
444.554	1	9
444.895	1	0
445.237	1	2
445.578	1	-15
445.919	1	-9
446.260	1	-12
446.601	1	0
446.942	1	1
447.283	1	-8
447.624	1	7
447.965	1	2
448.306	1	7
448.647	1	-9
448.988	1	-4
449.329	1	-2
449.670	1	2
450.011	1	13
450.352	1	-3
450.693	1	-1
451.034	1	-15
451.375	1	2
451.716	1	6
452.057	1	-4
452.398	1	-3
452.739	1	2
453.080	1	0
453.421	1	-7
453.762	1	0
454.103	1	6
454.444	1	-17
454.785	1	2
455.126	1	-9
455.467	1	2
455.808	1	0
456.149	1	4
456.490	1	6
456.831	1	5
457.172	1	-5
457.513	1	5
457.854	1	-1
458.195	1	-9
458.536	1	12
458.877	1	-1
459.218	1	-6
459.559	1	-2
459.899	1	1
460.240	1	1
460.581	1	9
460.922	1	7
461.263	1	-5
461.604	1	-4
461.945	1	-4
462.286	1	5
462.627	1	14
462.968	1	-2
463.309	1	-17
463.649	1	1
463.990	1	-6
464.331	1	1
464.672	1	-1
465.013	1	1
465.354	1	-4
465.695	1	-5
466.036	1	10
466.376	1	-10
466.717	1	-4
467.058	1	-8
467.399	1	6
467.740	1	-5
468.081	1	-8
468.422	1	-13
468.762	1	-2
469.103	1	-4
469.444	1	-8
469.785	1	-15
470.126	1	-6
470.467	1	-6
470.807	1	3
471.148	1	-1
471.489	1	4
471.830	1	-8
472.171	1	8
472.511	1	-4
472.852	1	0
473.193	1	9
473.534	1	8
473.875	1	13
474.215	1	3
474.556	1	1
474.897	1	8
475.238	1	5
475.578	1	-8
475.919	1	-1
476.260	1	-9
476.601	1	4
476.942	1	8
477.282	1	-5
477.623	1	-11
477.964	1	-2
478.305	1	1
478.645	1	5
478.986	1	-5
479.327	1	-4
479.667	1	-3
480.008	1	1
480.349	1	-6
480.690	1	-7
481.030	1	-14
481.371	1	2
481.712	1	6
482.053	1	3
482.393	1	2
482.734	1	-6
483.075	1	1
483.415	1	2
483.756	1	6
484.097	1	0
484.437	1	-7
484.778	1	-2
485.119	1	1
485.459	1	13
485.800	1	2
486.141	1	-8
486.481	1	0
486.822	1	-2
487.163	1	2
487.503	1	0
487.844	1	3
488.185	1	-2
488.525	1	8
488.866	1	2
489.207	1	-5
489.547	1	-3
489.888	1	-7
490.228	1	14
490.569	1	9
490.910	1	11
491.250	1	-5
491.591	1	-1
491.932	1	8
492.272	1	2
492.613	1	-4
492.953	1	-6
493.294	1	-8
493.635	1	0
493.975	1	2
494.316	1	7
494.656	1	-2
494.997	1	2
495.337	1	2
495.678	1	-7
496.019	1	-4
496.359	1	-8
496.700	1	7
497.040	1	1
497.381	1	-3
497.721	1	-6
498.062	1	-8
498.403	1	-3
498.743	1	-3
499.084	1	-5
499.424	1	-1
499.765	1	-2
500.105	1	4
500.446	1	-14
500.786	1	-4
501.127	1	-5
501.467	1	2
501.808	1	1
502.148	1	-4
502.489	1	3
502.829	1	10
503.170	1	8
503.510	1	3
503.851	1	-7
504.191	1	12
504.532	1	7
504.872	1	1
505.213	1	6
505.553	1	1
505.894	1	1
506.234	1	7
506.575	1	5
506.915	1	-5
507.256	1	6
507.596	1	-1
507.936	1	-2
508.277	1	-7
508.617	1	3
508.958	1	0
509.298	1	1
509.639	1	-4
509.979	1	6
510.319	1	6
510.660	1	-4
511.000	1	-5
511.341	1	4
511.681	1	-1
512.022	1	0
512.362	1	-5
512.702	1	-2
513.043	1	6
513.383	1	-3
513.724	1	-1
514.064	1	14
514.404	1	0
514.745	1	-6
515.085	1	6
515.425	1	-6
515.766	1	-8
516.106	1	-2
516.447	1	6
516.787	1	0
517.127	1	-7
517.468	1	-8
517.808	1	-7
518.148	1	0
518.489	1	1
518.829	1	4
519.169	1	3
519.510	1	0
519.850	1	7
520.190	1	-1
520.531	1	0
520.871	1	3
521.211	1	-14
521.552	1	3
521.892	1	-1
522.232	1	8
522.573	1	-7
522.913	1	-1
523.253	1	1
523.593	1	-1
523.934	1	2
524.274	1	3
524.614	1	0
524.955	1	-7
525.295	1	3
525.635	1	-10
525.975	1	-1
526.316	1	4
526.656	1	-4
526.996	1	6
527.337	1	-1
527.677	1	4
528.017	1	-10
528.357	1	-2
528.698	1	1
529.038	1	-2
529.378	1	2
529.718	1	-1
530.058	1	-2
530.399	1	8
530.739	1	9
531.079	1	-3
531.419	1	-3
531.760	1	5
532.100	1	5
532.440	1	0
532.780	1	-9
533.120	1	11
533.461	1	-2
533.801	1	14
534.141	1	-11
534.481	1	-13
534.821	1	4
535.162	1	-1
535.502	1	2
535.842	1	2
536.182	1	1
536.522	1	3
536.862	1	5
537.203	1	-7
537.543	1	-4
537.883	1	-4
538.223	1	-2
538.563	1	-5
538.903	1	-7
539.243	1	2
539.584	1	6
539.924	1	13
540.264	1	-6
540.604	1	6
540.944	1	2
541.284	1	11
541.624	1	6
541.964	1	11
542.305	1	0
542.645	1	-3
542.985	1	-2
543.325	1	-5
543.665	1	10
544.005	1	10
544.345	1	-3
544.685	1	-7
545.025	1	5
545.365	1	4
545.705	1	1
546.045	1	-5
546.386	1	-3
546.726	1	-9
547.066	1	5
547.406	1	-3
547.746	1	-11
548.086	1	-4
548.426	1	-8
548.766	1	4
549.106	1	-5
549.446	1	-5
549.786	1	-4
550.126	1	9
550.466	1	-1
550.806	1	-5
551.146	1	0
551.486	1	7
551.826	1	1
552.166	1	8
552.506	1	8
552.846	1	3
553.186	1	6
553.526	1	4
553.866	1	-5
554.206	1	-3
554.546	1	4
554.886	1	2
555.226	1	-4
555.566	1	1
555.906	1	2
556.246	1	1
556.586	1	1
556.926	1	-6
557.266	1	-6
557.606	1	8
557.946	1	6
558.286	1	2
558.626	1	-3
558.966	1	3
559.306	1	-7
559.646	1	0
559.986	1	-6
560.325	1	-7
560.665	1	-6
561.005	1	4
561.345	1	-8
561.685	1	-3
562.025	1	-2
562.365	1	6
562.705	1	-1
563.045	1	-1
563.385	1	-17
563.725	1	0
564.064	1	1
564.404	1	0
564.744	1	0
565.084	1	-7
565.424	1	1
565.764	1	0
566.104	1	3
566.444	1	-7
566.783	1	2
567.123	1	13
567.463	1	-5
567.803	1	-7
568.143	1	-2
568.483	1	2
568.823	1	-2
569.162	1	7
569.502	1	-1
569.842	1	10
570.182	1	1
570.522	1	-10
570.862	1	-2
571.201	1	3
571.541	1	2
571.881	1	16
572.221	1	1
572.561	1	-4
572.900	1	-5
573.240	1	2
573.580	1	6
573.920	1	4
574.260	1	7
574.599	1	2
574.939	1	-1
575.279	1	11
575.619	1	7
575.959	1	-6
576.298	1	8
576.638	1	3
576.978	1	8
577.318	1	0
577.657	1	-11
577.997	1	-6
578.337	1	12
578.677	1	5
579.016	1	9
579.356	1	0
579.696	1	0
580.036	1	-2
580.375	1	2
580.715	1	0
581.055	1	2
581.394	1	1
581.734	1	-5
582.074	1	-6
582.414	1	3
582.753	1	-3
583.093	1	0
583.433	1	-6
583.772	1	2
584.112	1	3
584.452	1	14
584.791	1	-5
585.131	1	5
585.471	1	6
585.811	1	5
586.150	1	-2
586.490	1	7
586.830	1	5
587.169	1	-6
587.509	1	5
587.849	1	-3
588.188	1	-4
588.528	1	5
588.867	1	-3
589.207	1	9
589.547	1	-2
589.886	1	-5
590.226	1	2
590.566	1	-3
590.905	1	-4
591.245	1	1
591.585	1	-3
591.924	1	-6
592.264	1	6
592.603	1	11
592.943	1	2
593.283	1	-1
593.622	1	-5
593.962	1	0
594.301	1	10
594.641	1	-11
594.981	1	-5
595.320	1	-1
595.660	1	2
595.999	1	-2
596.339	1	2
596.678	1	-7
597.018	1	-3
597.358	1	6
597.697	1	1
598.037	1	-6
598.376	1	-1
598.716	1	4
599.055	1	9
599.395	1	7
599.734	1	1
600.074	1	-3
600.413	1	7
600.753	1	1
601.092	1	14
601.432	1	-6
601.771	1	6
602.111	1	3
602.451	1	5
602.790	1	0
603.130	1	6
603.469	1	-4
603.809	1	7
604.148	1	9
604.487	1	3
604.827	1	7
605.166	1	-5
605.506	1	-2
605.845	1	8
606.185	1	5
606.524	1	-2
606.864	1	-7
607.203	1	-6
607.543	1	6
607.882	1	0
608.222	1	3
608.561	1	6
608.901	1	-1
609.240	1	-4
609.579	1	2
609.919	1	6
610.258	1	2
610.598	1	2
610.937	1	-2
611.277	1	2
611.616	1	6
611.955	1	-1
612.295	1	3
612.634	1	-6
612.974	1	-8
613.313	1	7
613.652	1	-4
613.992	1	2
614.331	1	-4
614.671	1	7
615.010	1	-9
615.349	1	7
615.689	1	8
616.028	1	2
616.368	1	0
616.707	1	-2
617.046	1	-1
617.386	1	5
617.725	1	-4
618.064	1	-8
618.404	1	0
618.743	1	-3
619.082	1	6
619.422	1	-8
619.761	1	11
620.100	1	-1
620.440	1	6
620.779	1	-3
621.118	1	-2
621.458	1	-2
621.797	1	-10
622.136	1	6
622.476	1	1
622.815	1	10
623.154	1	9
623.494	1	12
623.833	1	0
624.172	1	-4
624.511	1	-1
624.851	1	-10
625.190	1	-3
625.529	1	-2
625.869	1	2
626.208	1	-3
626.547	1	6
626.886	1	1
627.226	1	0
627.565	1	-2
627.904	1	-6
628.243	1	4
628.583	1	-3
628.922	1	1
629.261	1	0
629.600	1	7
629.940	1	1
630.279	1	-3
630.618	1	-2
630.957	1	3
631.297	1	-3
631.636	1	-8
631.975	1	12
632.314	1	4
632.653	1	-1
632.993	1	0
633.332	1	4
633.671	1	-5
634.010	1	-1
634.349	1	8
634.689	1	4
635.028	1	1
635.367	1	-5
635.706	1	-2
636.045	1	10
636.384	1	-9
636.724	1	2
637.063	1	-14
637.402	1	0
637.741	1	-3
638.080	1	-1
638.419	1	1
638.759	1	-5
639.098	1	6
639.437	1	-4
639.776	1	-3
640.115	1	4
640.454	1	1
640.793	1	3
641.132	1	8
641.472	1	0
641.811	1	4
642.150	1	-2
642.489	1	0
642.828	1	-1
643.167	1	-6
643.506	1	-10
643.845	1	-3
644.184	1	-3
644.524	1	-10
644.863	1	-3
645.202	1	-3
645.541	1	0
645.880	1	1
646.219	1	4
646.558	1	-5
646.897	1	0
647.236	1	1
647.575	1	1
647.914	1	0
648.253	1	6
648.592	1	-14
648.931	1	8
649.270	1	-4
649.610	1	-3
649.949	1	0
650.288	1	9
650.627	1	-4
650.966	1	4
651.305	1	-8
651.644	1	10
651.983	1	-3
652.322	1	-5
652.661	1	0
653.000	1	-3
653.339	1	8
653.678	1	0
654.017	1	-4
654.356	1	-1
654.695	1	7
655.034	1	9
655.373	1	7
655.712	1	4
656.051	1	2
656.390	1	-8
656.729	1	12
657.068	1	-7
657.406	1	9
657.745	1	-5
658.084	1	-2
658.423	1	4
658.762	1	6
659.101	1	6
659.440	1	-4
659.779	1	6
660.118	1	5
660.457	1	-4
660.796	1	-21
661.135	1	-6
661.474	1	6
661.813	1	8
662.152	1	2
662.491	1	2
662.829	1	-3
663.168	1	3
663.507	1	14
663.846	1	1
664.185	1	4
664.524	1	-6
664.863	1	5
665.202	1	8
665.541	1	-6
665.879	1	1
666.218	1	-8
666.557	1	-2
666.896	1	2
667.235	1	1
667.574	1	4
667.913	1	-7
668.251	1	-7
668.590	1	1
668.929	1	-7
669.268	1	-2
669.607	1	4
669.946	1	3
670.285	1	2
670.623	1	-7
670.962	1	3
671.301	1	-3
671.640	1	2
671.979	1	-6
672.317	1	1
672.656	1	0
672.995	1	6
673.334	1	-3
673.673	1	5
674.011	1	3
674.350	1	8
674.689	1	3
675.028	1	-6
675.367	1	-1
675.705	1	7
676.044	1	3
676.383	1	5
676.722	1	4
677.060	1	2
677.399	1	0
677.738	1	-2
678.077	1	9
678.416	1	-7
678.754	1	-6
679.093	1	9
679.432	1	-8
679.771	1	5
680.109	1	2
680.448	1	10
680.787	1	-4
681.125	1	9
681.464	1	-1
681.803	1	0
682.142	1	14
682.480	1	10
682.819	1	-1
683.158	1	-3
683.496	1	1
683.835	1	0
684.174	1	6
684.512	1	8
684.851	1	4
685.190	1	-5
685.529	1	5
685.867	1	-2
686.206	1	0
686.545	1	-4
686.883	1	0
687.222	1	1
687.561	1	11
687.899	1	2
688.238	1	8
688.577	1	-7
688.746	1	0