File: Data/GaN_200K_800ms/GaN_sample F_spot 12_UVVIS_200 K_200um_800 ms 2x2mm1_84.txt
340.368	1	5
340.710	1	0
341.052	1	5
341.394	1	1
341.737	1	9
342.079	1	5
342.421	1	5
342.763	1	9
343.105	1	1
343.447	1	-1
343.789	1	5
344.131	1	-2
344.473	1	6
344.815	1	-7
345.157	1	3
345.499	1	8
345.841	1	2
346.183	1	1
346.526	1	-1
346.868	1	13
347.210	1	-4
347.552	1	-6
347.894	1	12
348.236	1	16
348.578	1	7
348.920	1	2
349.262	1	-1
349.604	1	10
349.946	1	4
350.288	1	12
350.630	1	3
350.972	1	5
351.314	1	12
351.656	1	13
351.998	1	17
352.340	1	11
352.682	1	7
353.024	1	19
353.366	1	22
353.708	1	13
354.050	1	6
354.392	1	2
354.734	1	6
355.076	1	14
355.418	1	4
355.760	1	13
356.102	1	24
356.444	1	9
356.785	1	20
357.127	1	13
357.469	1	21
357.811	1	3
358.153	1	24
358.495	1	19
358.837	1	17
359.179	1	27
359.521	1	19
359.863	1	26
360.205	1	25
360.547	1	24
360.889	1	29
361.231	1	31
361.572	1	32
361.914	1	42
362.256	1	45
362.598	1	29
362.940	1	37
363.282	1	49
363.624	1	57
363.966	1	61
364.308	1	63
364.649	1	61
364.991	1	78
365.333	1	68
365.675	1	72
366.017	1	90
366.359	1	84
366.701	1	101
367.042	1	108
367.384	1	114
367.726	1	116
368.068	1	130
368.410	1	125
368.752	1	125
369.093	1	137
369.435	1	149
369.777	1	132
370.119	1	137
370.461	1	149
370.803	1	137
371.144	1	123
371.486	1	128
371.828	1	125
372.170	1	125
372.512	1	105
372.853	1	98
373.195	1	97
373.537	1	101
373.879	1	87
374.220	1	108
374.562	1	103
374.904	1	89
375.246	1	84
375.588	1	80
375.929	1	75
376.271	1	73
376.613	1	65
376.955	1	51
377.296	1	55
377.638	1	61
377.980	1	56
378.321	1	44
378.663	1	51
379.005	1	70
379.347	1	48
379.688	1	45
380.030	1	49
380.372	1	41
380.714	1	47
381.055	1	45
381.397	1	28
381.739	1	38
382.080	1	30
382.422	1	34
382.764	1	34
383.105	1	30
383.447	1	32
383.789	1	30
384.130	1	30
384.472	1	25
384.814	1	19
385.156	1	37
385.497	1	22
385.839	1	20
386.180	1	18
386.522	1	30
386.864	1	26
387.205	1	19
387.547	1	18
387.889	1	19
388.230	1	28
388.572	1	12
388.914	1	20
389.255	1	13
389.597	1	21
389.939	1	15
390.280	1	17
390.622	1	8
390.963	1	16
391.305	1	19
391.647	1	14
391.988	1	28
392.330	1	27
392.671	1	13
393.013	1	12
393.355	1	21
393.696	1	13
394.038	1	24
394.379	1	11
394.721	1	3
395.062	1	8
395.404	1	8
395.746	1	18
396.087	1	5
396.429	1	7
396.770	1	5
397.112	1	16
397.453	1	23
397.795	1	15
398.136	1	0
398.478	1	16
398.819	1	11
399.161	1	21
399.503	1	0
399.844	1	3
400.186	1	9
400.527	1	9
400.869	1	1
401.210	1	9
401.552	1	5
401.893	1	12
402.235	1	9
402.576	1	7
402.918	1	20
403.259	1	6
403.601	1	11
403.942	1	12
404.284	1	14
404.625	1	9
404.967	1	7
405.308	1	1
405.649	1	8
405.991	1	3
406.332	1	10
406.674	1	1
407.015	1	18
407.357	1	3
407.698	1	9
408.040	1	4
408.381	1	4
408.722	1	-13
409.064	1	5
409.405	1	8
409.747	1	6
410.088	1	8
410.430	1	3
410.771	1	11
411.112	1	-4
411.454	1	-2
411.795	1	-5
412.137	1	5
412.478	1	17
412.819	1	8
413.161	1	3
413.502	1	3
413.844	1	0
414.185	1	6
414.526	1	0
414.868	1	11
415.209	1	5
415.550	1	-4
415.892	1	13
416.233	1	6
416.575	1	10
416.916	1	-4
417.257	1	7
417.599	1	1
417.940	1	7
418.281	1	11
418.623	1	-2
418.964	1	-9
419.305	1	4
419.647	1	0
419.988	1	7
420.329	1	3
420.671	1	15
421.012	1	8
421.353	1	-4
421.695	1	2
422.036	1	7
422.377	1	-5
422.718	1	16
423.060	1	3
423.401	1	9
423.742	1	1
424.084	1	-2
424.425	1	8
424.766	1	1
425.107	1	-6
425.449	1	-4
425.790	1	-5
426.131	1	-1
426.472	1	4
426.814	1	-4
427.155	1	-5
427.496	1	0
427.837	1	4
428.179	1	1
428.520	1	7
428.861	1	4
429.202	1	13
429.544	1	7
429.885	1	6
430.226	1	0
430.567	1	10
430.909	1	4
431.250	1	-14
431.591	1	12
431.932	1	-5
432.273	1	-2
432.615	1	-9
432.956	1	-9
433.297	1	3
433.638	1	0
433.979	1	14
434.320	1	7
434.662	1	3
435.003	1	9
435.344	1	-3
435.685	1	7
436.026	1	7
436.368	1	4
436.709	1	-3
437.050	1	8
437.391	1	20
437.732	1	3
438.073	1	0
438.414	1	-6
438.756	1	-5
439.097	1	-8
439.438	1	-5
439.779	1	3
440.120	1	5
440.461	1	10
440.802	1	-4
441.143	1	16
441.485	1	8
441.826	1	-2
442.167	1	2
442.508	1	-8
442.849	1	7
443.190	1	4
443.531	1	11
443.872	1	11
444.213	1	11
444.554	1	18
444.895	1	1
445.237	1	-2
445.578	1	-4
445.919	1	-9
446.260	1	-8
446.601	1	5
446.942	1	3
447.283	1	-8
447.624	1	6
447.965	1	-1
448.306	1	-2
448.647	1	-6
448.988	1	-4
449.329	1	-6
449.670	1	11
450.011	1	5
450.352	1	3
450.693	1	-7
451.034	1	-3
451.375	1	7
451.716	1	-1
452.057	1	5
452.398	1	-4
452.739	1	12
453.080	1	6
453.421	1	4
453.762	1	9
454.103	1	6
454.444	1	-9
454.785	1	0
455.126	1	5
455.467	1	-4
455.808	1	5
456.149	1	13
456.490	1	-1
456.831	1	2
457.172	1	3
457.513	1	7
457.854	1	6
458.195	1	5
458.536	1	1
458.877	1	2
459.218	1	3
459.559	1	11
459.899	1	3
460.240	1	4
460.581	1	21
460.922	1	-2
461.263	1	-2
461.604	1	-4
461.945	1	4
462.286	1	7
462.627	1	6
462.968	1	11
463.309	1	-4
463.649	1	4
463.990	1	-1
464.331	1	14
464.672	1	6
465.013	1	-2
465.354	1	11
465.695	1	1
466.036	1	11
466.376	1	3
466.717	1	4
467.058	1	-5
467.399	1	8
467.740	1	3
468.081	1	2
468.422	1	8
468.762	1	-6
469.103	1	-6
469.444	1	-1
469.785	1	-11
470.126	1	4
470.467	1	-5
470.807	1	6
471.148	1	9
471.489	1	3
471.830	1	4
472.171	1	7
472.511	1	0
472.852	1	0
473.193	1	7
473.534	1	1
473.875	1	10
474.215	1	16
474.556	1	-2
474.897	1	6
475.238	1	3
475.578	1	-3
475.919	1	7
476.260	1	10
476.601	1	9
476.942	1	11
477.282	1	-4
477.623	1	-10
477.964	1	-4
478.305	1	5
478.645	1	9
478.986	1	-5
479.327	1	-7
479.667	1	-1
480.008	1	-1
480.349	1	7
480.690	1	11
481.030	1	-12
481.371	1	7
481.712	1	-4
482.053	1	4
482.393	1	6
482.734	1	2
483.075	1	4
483.415	1	7
483.756	1	13
484.097	1	9
484.437	1	1
484.778	1	6
485.119	1	0
485.459	1	13
485.800	1	-1
486.141	1	2
486.481	1	6
486.822	1	9
487.163	1	5
487.503	1	4
487.844	1	7
488.185	1	10
488.525	1	-2
488.866	1	3
489.207	1	1
489.547	1	-3
489.888	1	8
490.228	1	16
490.569	1	15
490.910	1	0
491.250	1	-1
491.591	1	-3
491.932	1	9
492.272	1	1
492.613	1	-5
492.953	1	-3
493.294	1	8
493.635	1	0
493.975	1	8
494.316	1	11
494.656	1	4
494.997	1	2
495.337	1	8
495.678	1	4
496.019	1	0
496.359	1	10
496.700	1	4
497.040	1	-1
497.381	1	-7
497.721	1	4
498.062	1	14
498.403	1	2
498.743	1	-1
499.084	1	1
499.424	1	4
499.765	1	11
500.105	1	10
500.446	1	-2
500.786	1	-1
501.127	1	7
501.467	1	2
501.808	1	10
502.148	1	5
502.489	1	10
502.829	1	10
503.170	1	6
503.510	1	10
503.851	1	12
504.191	1	5
504.532	1	11
504.872	1	10
505.213	1	9
505.553	1	4
505.894	1	5
506.234	1	13
506.575	1	12
506.915	1	6
507.256	1	4
507.596	1	2
507.936	1	10
508.277	1	10
508.617	1	18
508.958	1	-5
509.298	1	7
509.639	1	1
509.979	1	3
510.319	1	5
510.660	1	4
511.000	1	-5
511.341	1	11
511.681	1	15
512.022	1	1
512.362	1	4
512.702	1	-2
513.043	1	17
513.383	1	0
513.724	1	12
514.064	1	17
514.404	1	5
514.745	1	11
515.085	1	8
515.425	1	10
515.766	1	3
516.106	1	3
516.447	1	12
516.787	1	20
517.127	1	12
517.468	1	-3
517.808	1	4
518.148	1	12
518.489	1	-4
518.829	1	11
519.169	1	6
519.510	1	16
519.850	1	13
520.190	1	12
520.531	1	15
520.871	1	12
521.211	1	-2
521.552	1	11
521.892	1	4
522.232	1	18
522.573	1	10
522.913	1	14
523.253	1	9
523.593	1	-1
523.934	1	8
524.274	1	11
524.614	1	18
524.955	1	17
525.295	1	9
525.635	1	4
525.975	1	10
526.316	1	19
526.656	1	22
526.996	1	6
527.337	1	3
527.677	1	18
528.017	1	6
528.357	1	5
528.698	1	7
529.038	1	14
529.378	1	15
529.718	1	14
530.058	1	4
530.399	1	18
530.739	1	6
531.079	1	18
531.419	1	19
531.760	1	10
532.100	1	8
532.440	1	7
532.780	1	19
533.120	1	22
533.461	1	16
533.801	1	21
534.141	1	-2
534.481	1	7
534.821	1	24
535.162	1	12
535.502	1	7
535.842	1	9
536.182	1	6
536.522	1	7
536.862	1	13
537.203	1	14
537.543	1	20
537.883	1	13
538.223	1	7
538.563	1	17
538.903	1	5
539.243	1	16
539.584	1	14
539.924	1	23
540.264	1	11
540.604	1	9
540.944	1	15
541.284	1	19
541.624	1	21
541.964	1	16
542.305	1	15
542.645	1	16
542.985	1	17
543.325	1	18
543.665	1	19
544.005	1	20
544.345	1	9
544.685	1	9
545.025	1	6
545.365	1	7
545.705	1	8
546.045	1	9
546.386	1	20
546.726	1	10
547.066	1	22
547.406	1	15
547.746	1	3
548.086	1	12
548.426	1	12
548.766	1	19
549.106	1	8
549.446	1	14
549.786	1	5
550.126	1	33
550.466	1	15
550.806	1	13
551.146	1	9
551.486	1	3
551.826	1	27
552.166	1	27
552.506	1	14
552.846	1	21
553.186	1	25
553.526	1	24
553.866	1	22
554.206	1	19
554.546	1	15
554.886	1	16
555.226	1	0
555.566	1	12
555.906	1	13
556.246	1	14
556.586	1	9
556.926	1	17
557.266	1	0
557.606	1	24
557.946	1	21
558.286	1	16
558.626	1	21
558.966	1	18
559.306	1	12
559.646	1	9
559.986	1	6
560.325	1	9
560.665	1	12
561.005	1	9
561.345	1	13
561.685	1	21
562.025	1	17
562.365	1	26
562.705	1	10
563.045	1	12
563.385	1	17
563.725	1	7
564.064	1	17
564.404	1	25
564.744	1	16
565.084	1	6
565.424	1	15
565.764	1	21
566.104	1	16
566.444	1	8
566.783	1	3
567.123	1	17
567.463	1	20
567.803	1	13
568.143	1	25
568.483	1	20
568.823	1	13
569.162	1	16
569.502	1	16
569.842	1	3
570.182	1	17
570.522	1	0
570.862	1	16
571.201	1	18
571.541	1	17
571.881	1	14
572.221	1	14
572.561	1	15
572.900	1	11
573.240	1	16
573.580	1	16
573.920	1	18
574.260	1	30
574.599	1	17
574.939	1	11
575.279	1	16
575.619	1	20
575.959	1	14
576.298	1	20
576.638	1	12
576.978	1	16
577.318	1	16
577.657	1	6
577.997	1	16
578.337	1	18
578.677	1	14
579.016	1	24
579.356	1	4
579.696	1	21
580.036	1	9
580.375	1	15
580.715	1	13
581.055	1	14
581.394	1	18
581.734	1	14
582.074	1	11
582.414	1	18
582.753	1	7
583.093	1	15
583.433	1	9
583.772	1	30
584.112	1	13
584.452	1	13
584.791	1	16
585.131	1	13
585.471	1	25
585.811	1	20
586.150	1	17
586.490	1	14
586.830	1	18
587.169	1	19
587.509	1	22
587.849	1	15
588.188	1	18
588.528	1	30
588.867	1	16
589.207	1	21
589.547	1	18
589.886	1	7
590.226	1	9
590.566	1	17
590.905	1	11
591.245	1	16
591.585	1	11
591.924	1	9
592.264	1	10
592.603	1	10
592.943	1	10
593.283	1	14
593.622	1	8
593.962	1	14
594.301	1	16
594.641	1	14
594.981	1	1
595.320	1	21
595.660	1	15
595.999	1	1
596.339	1	10
596.678	1	7
597.018	1	5
597.358	1	23
597.697	1	14
598.037	1	12
598.376	1	11
598.716	1	5
599.055	1	15
599.395	1	8
599.734	1	15
600.074	1	11
600.413	1	24
600.753	1	9
601.092	1	23
601.432	1	3
601.771	1	8
602.111	1	17
602.451	1	17
602.790	1	9
603.130	1	7
603.469	1	-2
603.809	1	15
604.148	1	23
604.487	1	7
604.827	1	20
605.166	1	14
605.506	1	11
605.845	1	14
606.185	1	17
606.524	1	11
606.864	1	11
607.203	1	1
607.543	1	15
607.882	1	19
608.222	1	12
608.561	1	15
608.901	1	19
609.240	1	3
609.579	1	23
609.919	1	22
610.258	1	19
610.598	1	1
610.937	1	17
611.277	1	16
611.616	1	8
611.955	1	14
612.295	1	8
612.634	1	15
612.974	1	3
613.313	1	12
613.652	1	9
613.992	1	12
614.331	1	11
614.671	1	14
615.010	1	2
615.349	1	21
615.689	1	14
616.028	1	15
616.368	1	9
616.707	1	9
617.046	1	6
617.386	1	13
617.725	1	8
618.064	1	9
618.404	1	2
618.743	1	12
619.082	1	8
619.422	1	-3
619.761	1	19
620.100	1	16
620.440	1	10
620.779	1	2
621.118	1	13
621.458	1	8
621.797	1	12
622.136	1	17
622.476	1	8
622.815	1	18
623.154	1	7
623.494	1	22
623.833	1	22
624.172	1	13
624.511	1	14
624.851	1	6
625.190	1	10
625.529	1	6
625.869	1	14
626.208	1	10
626.547	1	7
626.886	1	9
627.226	1	18
627.565	1	5
627.904	1	13
628.243	1	19
628.583	1	6
628.922	1	2
629.261	1	10
629.600	1	22
629.940	1	13
630.279	1	8
630.618	1	14
630.957	1	12
631.297	1	11
631.636	1	0
631.975	1	12
632.314	1	7
632.653	1	3
632.993	1	11
633.332	1	13
633.671	1	11
634.010	1	3
634.349	1	13
634.689	1	10
635.028	1	16
635.367	1	10
635.706	1	12
636.045	1	16
636.384	1	4
636.724	1	6
637.063	1	4
637.402	1	9
637.741	1	3
638.080	1	5
638.419	1	3
638.759	1	6
639.098	1	13
639.437	1	10
639.776	1	5
640.115	1	-5
640.454	1	1
640.793	1	9
641.132	1	7
641.472	1	5
641.811	1	2
642.150	1	4
642.489	1	11
642.828	1	-4
643.167	1	6
643.506	1	3
643.845	1	12
644.184	1	7
644.524	1	5
644.863	1	2
645.202	1	11
645.541	1	9
645.880	1	8
646.219	1	12
646.558	1	11
646.897	1	11
647.236	1	0
647.575	1	8
647.914	1	5
648.253	1	13
648.592	1	-2
648.931	1	4
649.270	1	11
649.610	1	2
649.949	1	0
650.288	1	23
650.627	1	-4
650.966	1	13
651.305	1	9
651.644	1	15
651.983	1	4
652.322	1	0
652.661	1	4
653.000	1	9
653.339	1	16
653.678	1	4
654.017	1	12
654.356	1	7
654.695	1	9
655.034	1	6
655.373	1	4
655.712	1	5
656.051	1	-2
656.390	1	6
656.729	1	10
657.068	1	22
657.406	1	14
657.745	1	8
658.084	1	4
658.423	1	14
658.762	1	0
659.101	1	19
659.440	1	15
659.779	1	8
660.118	1	2
660.457	1	6
660.796	1	-6
661.135	1	3
661.474	1	-1
661.813	1	17
662.152	1	5
662.491	1	-3
662.829	1	-5
663.168	1	6
663.507	1	13
663.846	1	5
664.185	1	14
664.524	1	9
664.863	1	-2
665.202	1	19
665.541	1	1
665.879	1	-1
666.218	1	0
666.557	1	0
666.896	1	5
667.235	1	8
667.574	1	7
667.913	1	6
668.251	1	2
668.590	1	8
668.929	1	-1
669.268	1	-3
669.607	1	11
669.946	1	8
670.285	1	9
670.623	1	1
670.962	1	17
671.301	1	-6
671.640	1	1
671.979	1	5
672.317	1	15
672.656	1	6
672.995	1	18
673.334	1	2
673.673	1	4
674.011	1	8
674.350	1	1
674.689	1	1
675.028	1	5
675.367	1	8
675.705	1	12
676.044	1	-1
676.383	1	5
676.722	1	1
677.060	1	2
677.399	1	-2
677.738	1	9
678.077	1	16
678.416	1	7
678.754	1	0
679.093	1	6
679.432	1	-2
679.771	1	3
680.109	1	11
680.448	1	6
680.787	1	5
681.125	1	3
681.464	1	-1
681.803	1	0
682.142	1	8
682.480	1	17
682.819	1	2
683.158	1	4
683.496	1	6
683.835	1	9
684.174	1	8
684.512	1	12
684.851	1	12
685.190	1	1
685.529	1	1
685.867	1	-2
686.206	1	4
686.545	1	2
686.883	1	6
687.222	1	11
687.561	1	6
687.899	1	3
688.238	1	12
688.577	1	3
688.746	1	-1