File: Data/GaN_200K_800ms/GaN_sample F_spot 12_UVVIS_200 K_200um_800 ms 2x2mm1_478.txt
340.368	1	7
340.710	1	-7
341.052	1	0
341.394	1	-10
341.737	1	-2
342.079	1	-4
342.421	1	-9
342.763	1	3
343.105	1	4
343.447	1	0
343.789	1	-2
344.131	1	-10
344.473	1	-11
344.815	1	-11
345.157	1	-1
345.499	1	3
345.841	1	12
346.183	1	-13
346.526	1	-2
346.868	1	4
347.210	1	-2
347.552	1	-5
347.894	1	3
348.236	1	7
348.578	1	1
348.920	1	-9
349.262	1	0
349.604	1	-2
349.946	1	-8
350.288	1	12
350.630	1	3
350.972	1	1
351.314	1	0
351.656	1	-4
351.998	1	5
352.340	1	0
352.682	1	2
353.024	1	1
353.366	1	10
353.708	1	3
354.050	1	-13
354.392	1	-3
354.734	1	2
355.076	1	-3
355.418	1	-11
355.760	1	0
356.102	1	6
356.444	1	0
356.785	1	8
357.127	1	-8
357.469	1	0
357.811	1	-7
358.153	1	7
358.495	1	0
358.837	1	-7
359.179	1	-3
359.521	1	-2
359.863	1	-2
360.205	1	-6
360.547	1	4
360.889	1	-10
361.231	1	-3
361.572	1	2
361.914	1	6
362.256	1	-3
362.598	1	-2
362.940	1	-4
363.282	1	0
363.624	1	9
363.966	1	-1
364.308	1	1
364.649	1	5
364.991	1	0
365.333	1	-2
365.675	1	0
366.017	1	-5
366.359	1	12
366.701	1	6
367.042	1	4
367.384	1	16
367.726	1	17
368.068	1	6
368.410	1	16
368.752	1	-3
369.093	1	3
369.435	1	17
369.777	1	-1
370.119	1	1
370.461	1	21
370.803	1	1
371.144	1	3
371.486	1	18
371.828	1	9
372.170	1	8
372.512	1	-3
372.853	1	8
373.195	1	2
373.537	1	-5
373.879	1	2
374.220	1	16
374.562	1	11
374.904	1	4
375.246	1	5
375.588	1	7
375.929	1	13
376.271	1	13
376.613	1	-5
376.955	1	-2
377.296	1	-2
377.638	1	-1
377.980	1	2
378.321	1	-8
378.663	1	2
379.005	1	7
379.347	1	12
379.688	1	5
380.030	1	-1
380.372	1	-6
380.714	1	3
381.055	1	7
381.397	1	-8
381.739	1	5
382.080	1	0
382.422	1	4
382.764	1	-5
383.105	1	-10
383.447	1	-6
383.789	1	-7
384.130	1	-6
384.472	1	-8
384.814	1	4
385.156	1	-8
385.497	1	3
385.839	1	1
386.180	1	8
386.522	1	3
386.864	1	11
387.205	1	1
387.547	1	-4
387.889	1	-4
388.230	1	6
388.572	1	-10
388.914	1	1
389.255	1	-3
389.597	1	6
389.939	1	5
390.280	1	2
390.622	1	-7
390.963	1	3
391.305	1	3
391.647	1	3
391.988	1	1
392.330	1	10
392.671	1	-6
393.013	1	-4
393.355	1	4
393.696	1	7
394.038	1	-3
394.379	1	6
394.721	1	-1
395.062	1	-5
395.404	1	-7
395.746	1	4
396.087	1	-7
396.429	1	-5
396.770	1	-11
397.112	1	-2
397.453	1	14
397.795	1	-6
398.136	1	-6
398.478	1	4
398.819	1	2
399.161	1	8
399.503	1	5
399.844	1	-3
400.186	1	7
400.527	1	-3
400.869	1	-5
401.210	1	-1
401.552	1	-12
401.893	1	2
402.235	1	-3
402.576	1	-3
402.918	1	5
403.259	1	0
403.601	1	-9
403.942	1	8
404.284	1	6
404.625	1	1
404.967	1	-6
405.308	1	8
405.649	1	2
405.991	1	-4
406.332	1	-1
406.674	1	-7
407.015	1	3
407.357	1	-4
407.698	1	3
408.040	1	-1
408.381	1	1
408.722	1	-20
409.064	1	-1
409.405	1	-1
409.747	1	3
410.088	1	-4
410.430	1	0
410.771	1	-7
411.112	1	-4
411.454	1	-6
411.795	1	-1
412.137	1	7
412.478	1	4
412.819	1	-1
413.161	1	-10
413.502	1	-7
413.844	1	0
414.185	1	-1
414.526	1	-1
414.868	1	-2
415.209	1	-6
415.550	1	-8
415.892	1	-2
416.233	1	8
416.575	1	2
416.916	1	-12
417.257	1	-3
417.599	1	-2
417.940	1	6
418.281	1	1
418.623	1	-8
418.964	1	-11
419.305	1	-3
419.647	1	-8
419.988	1	-4
420.329	1	-15
420.671	1	0
421.012	1	-6
421.353	1	-11
421.695	1	4
422.036	1	4
422.377	1	-8
422.718	1	7
423.060	1	0
423.401	1	-1
423.742	1	6
424.084	1	1
424.425	1	5
424.766	1	-5
425.107	1	0
425.449	1	-3
425.790	1	-9
426.131	1	2
426.472	1	-10
426.814	1	5
427.155	1	-2
427.496	1	-1
427.837	1	-5
428.179	1	-11
428.520	1	-2
428.861	1	-17
429.202	1	5
429.544	1	-5
429.885	1	7
430.226	1	-12
430.567	1	5
430.909	1	3
431.250	1	-6
431.591	1	5
431.932	1	-8
432.273	1	-3
432.615	1	-8
432.956	1	-5
433.297	1	4
433.638	1	-9
433.979	1	7
434.320	1	-3
434.662	1	-5
435.003	1	6
435.344	1	3
435.685	1	3
436.026	1	4
436.368	1	-1
436.709	1	-1
437.050	1	3
437.391	1	18
437.732	1	-3
438.073	1	-2
438.414	1	1
438.756	1	-14
439.097	1	-14
439.438	1	2
439.779	1	-1
440.120	1	-2
440.461	1	5
440.802	1	-7
441.143	1	4
441.485	1	2
441.826	1	-4
442.167	1	1
442.508	1	-6
442.849	1	8
443.190	1	6
443.531	1	17
443.872	1	0
444.213	1	-2
444.554	1	10
444.895	1	-1
445.237	1	-11
445.578	1	-8
445.919	1	-13
446.260	1	-6
446.601	1	-15
446.942	1	-3
447.283	1	-6
447.624	1	-6
447.965	1	5
448.306	1	-5
448.647	1	-3
448.988	1	-4
449.329	1	-4
449.670	1	4
450.011	1	9
450.352	1	-2
450.693	1	-3
451.034	1	-3
451.375	1	5
451.716	1	-2
452.057	1	1
452.398	1	1
452.739	1	2
453.080	1	3
453.421	1	-1
453.762	1	-7
454.103	1	-2
454.444	1	-2
454.785	1	-2
455.126	1	-9
455.467	1	-1
455.808	1	-3
456.149	1	-2
456.490	1	-4
456.831	1	-3
457.172	1	-6
457.513	1	4
457.854	1	-4
458.195	1	-4
458.536	1	-3
458.877	1	-1
459.218	1	-1
459.559	1	1
459.899	1	1
460.240	1	5
460.581	1	13
460.922	1	3
461.263	1	-1
461.604	1	-7
461.945	1	-7
462.286	1	3
462.627	1	7
462.968	1	5
463.309	1	-12
463.649	1	-10
463.990	1	-3
464.331	1	-5
464.672	1	-7
465.013	1	-4
465.354	1	1
465.695	1	-13
466.036	1	-11
466.376	1	-7
466.717	1	-7
467.058	1	0
467.399	1	6
467.740	1	-2
468.081	1	-4
468.422	1	-9
468.762	1	-13
469.103	1	0
469.444	1	-3
469.785	1	-13
470.126	1	-9
470.467	1	-4
470.807	1	1
471.148	1	8
471.489	1	-2
471.830	1	-3
472.171	1	6
472.511	1	-12
472.852	1	1
473.193	1	15
473.534	1	9
473.875	1	13
474.215	1	4
474.556	1	8
474.897	1	2
475.238	1	0
475.578	1	-12
475.919	1	-4
476.260	1	0
476.601	1	1
476.942	1	9
477.282	1	-14
477.623	1	-11
477.964	1	-3
478.305	1	-5
478.645	1	6
478.986	1	-1
479.327	1	-8
479.667	1	-6
480.008	1	3
480.349	1	3
480.690	1	0
481.030	1	-7
481.371	1	1
481.712	1	4
482.053	1	0
482.393	1	1
482.734	1	5
483.075	1	-5
483.415	1	4
483.756	1	-3
484.097	1	-6
484.437	1	0
484.778	1	1
485.119	1	-11
485.459	1	6
485.800	1	-6
486.141	1	2
486.481	1	-5
486.822	1	5
487.163	1	-10
487.503	1	2
487.844	1	-6
488.185	1	0
488.525	1	-2
488.866	1	9
489.207	1	-6
489.547	1	-3
489.888	1	-1
490.228	1	0
490.569	1	7
490.910	1	-5
491.250	1	-17
491.591	1	-10
491.932	1	0
492.272	1	4
492.613	1	-6
492.953	1	-1
493.294	1	-8
493.635	1	-5
493.975	1	-1
494.316	1	-17
494.656	1	-5
494.997	1	-4
495.337	1	1
495.678	1	-4
496.019	1	-5
496.359	1	0
496.700	1	-4
497.040	1	-6
497.381	1	-3
497.721	1	0
498.062	1	-4
498.403	1	-2
498.743	1	4
499.084	1	-7
499.424	1	-2
499.765	1	-10
500.105	1	6
500.446	1	-10
500.786	1	-11
501.127	1	2
501.467	1	-11
501.808	1	7
502.148	1	-1
502.489	1	-4
502.829	1	3
503.170	1	0
503.510	1	5
503.851	1	-6
504.191	1	9
504.532	1	0
504.872	1	-7
505.213	1	12
505.553	1	-3
505.894	1	-6
506.234	1	4
506.575	1	2
506.915	1	7
507.256	1	6
507.596	1	-4
507.936	1	8
508.277	1	-6
508.617	1	-9
508.958	1	-8
509.298	1	-4
509.639	1	-12
509.979	1	-12
510.319	1	13
510.660	1	-9
511.000	1	0
511.341	1	2
511.681	1	-2
512.022	1	-5
512.362	1	-3
512.702	1	-6
513.043	1	4
513.383	1	-12
513.724	1	8
514.064	1	1
514.404	1	-9
514.745	1	-9
515.085	1	5
515.425	1	3
515.766	1	-12
516.106	1	-2
516.447	1	5
516.787	1	-4
517.127	1	6
517.468	1	-3
517.808	1	-6
518.148	1	4
518.489	1	-5
518.829	1	0
519.169	1	-12
519.510	1	-6
519.850	1	6
520.190	1	0
520.531	1	3
520.871	1	1
521.211	1	-15
521.552	1	3
521.892	1	0
522.232	1	-5
522.573	1	2
522.913	1	-3
523.253	1	-4
523.593	1	-1
523.934	1	-1
524.274	1	-8
524.614	1	-1
524.955	1	-16
525.295	1	2
525.635	1	3
525.975	1	2
526.316	1	3
526.656	1	-5
526.996	1	6
527.337	1	-2
527.677	1	6
528.017	1	-12
528.357	1	1
528.698	1	6
529.038	1	3
529.378	1	3
529.718	1	6
530.058	1	-5
530.399	1	6
530.739	1	5
531.079	1	-2
531.419	1	-3
531.760	1	1
532.100	1	2
532.440	1	7
532.780	1	-1
533.120	1	5
533.461	1	3
533.801	1	14
534.141	1	-10
534.481	1	-4
534.821	1	8
535.162	1	-7
535.502	1	-15
535.842	1	2
536.182	1	-10
536.522	1	-5
536.862	1	4
537.203	1	1
537.543	1	1
537.883	1	-3
538.223	1	-4
538.563	1	3
538.903	1	-5
539.243	1	-3
539.584	1	-7
539.924	1	12
540.264	1	-3
540.604	1	3
540.944	1	-5
541.284	1	-1
541.624	1	8
541.964	1	4
542.305	1	3
542.645	1	1
542.985	1	7
543.325	1	-2
543.665	1	9
544.005	1	2
544.345	1	-2
544.685	1	0
545.025	1	-4
545.365	1	2
545.705	1	-3
546.045	1	-11
546.386	1	-7
546.726	1	-12
547.066	1	3
547.406	1	-6
547.746	1	-9
548.086	1	-3
548.426	1	-4
548.766	1	0
549.106	1	0
549.446	1	-9
549.786	1	-3
550.126	1	12
550.466	1	2
550.806	1	6
551.146	1	-7
551.486	1	1
551.826	1	0
552.166	1	7
552.506	1	-4
552.846	1	1
553.186	1	10
553.526	1	0
553.866	1	-4
554.206	1	4
554.546	1	4
554.886	1	4
555.226	1	-13
555.566	1	3
555.906	1	9
556.246	1	5
556.586	1	1
556.926	1	0
557.266	1	-9
557.606	1	3
557.946	1	14
558.286	1	-2
558.626	1	0
558.966	1	4
559.306	1	-6
559.646	1	1
559.986	1	-2
560.325	1	-5
560.665	1	4
561.005	1	-5
561.345	1	2
561.685	1	-4
562.025	1	-5
562.365	1	3
562.705	1	-7
563.045	1	-3
563.385	1	-14
563.725	1	-6
564.064	1	-8
564.404	1	1
564.744	1	4
565.084	1	-3
565.424	1	1
565.764	1	-5
566.104	1	1
566.444	1	-4
566.783	1	-10
567.123	1	2
567.463	1	8
567.803	1	0
568.143	1	-6
568.483	1	9
568.823	1	2
569.162	1	5
569.502	1	-3
569.842	1	2
570.182	1	0
570.522	1	-5
570.862	1	-3
571.201	1	6
571.541	1	4
571.881	1	8
572.221	1	-2
572.561	1	-5
572.900	1	-5
573.240	1	4
573.580	1	1
573.920	1	5
574.260	1	6
574.599	1	0
574.939	1	0
575.279	1	1
575.619	1	6
575.959	1	-18
576.298	1	9
576.638	1	-6
576.978	1	13
577.318	1	-5
577.657	1	-5
577.997	1	-3
578.337	1	12
578.677	1	14
579.016	1	4
579.356	1	-4
579.696	1	1
580.036	1	-4
580.375	1	-5
580.715	1	4
581.055	1	-3
581.394	1	3
581.734	1	-5
582.074	1	5
582.414	1	10
582.753	1	-4
583.093	1	-4
583.433	1	-5
583.772	1	13
584.112	1	-4
584.452	1	1
584.791	1	-2
585.131	1	3
585.471	1	3
585.811	1	3
586.150	1	-5
586.490	1	3
586.830	1	0
587.169	1	4
587.509	1	0
587.849	1	-3
588.188	1	7
588.528	1	8
588.867	1	3
589.207	1	-3
589.547	1	1
589.886	1	-14
590.226	1	2
590.566	1	0
590.905	1	-5
591.245	1	3
591.585	1	7
591.924	1	11
592.264	1	3
592.603	1	4
592.943	1	2
593.283	1	-1
593.622	1	0
593.962	1	4
594.301	1	4
594.641	1	-8
594.981	1	-4
595.320	1	3
595.660	1	-1
595.999	1	-12
596.339	1	4
596.678	1	-4
597.018	1	-3
597.358	1	2
597.697	1	7
598.037	1	-5
598.376	1	2
598.716	1	-3
599.055	1	3
599.395	1	0
599.734	1	-4
600.074	1	-6
600.413	1	14
600.753	1	5
601.092	1	10
601.432	1	-13
601.771	1	4
602.111	1	-2
602.451	1	14
602.790	1	6
603.130	1	7
603.469	1	-5
603.809	1	1
604.148	1	-3
604.487	1	1
604.827	1	1
605.166	1	4
605.506	1	4
605.845	1	-3
606.185	1	5
606.524	1	-9
606.864	1	-6
607.203	1	-3
607.543	1	-4
607.882	1	0
608.222	1	0
608.561	1	-2
608.901	1	5
609.240	1	-6
609.579	1	2
609.919	1	7
610.258	1	8
610.598	1	5
610.937	1	-6
611.277	1	3
611.616	1	3
611.955	1	-2
612.295	1	-5
612.634	1	-3
612.974	1	-12
613.313	1	0
613.652	1	-3
613.992	1	-5
614.331	1	4
614.671	1	-3
615.010	1	-5
615.349	1	6
615.689	1	8
616.028	1	-7
616.368	1	0
616.707	1	1
617.046	1	2
617.386	1	6
617.725	1	-2
618.064	1	-5
618.404	1	-5
618.743	1	1
619.082	1	-11
619.422	1	-9
619.761	1	2
620.100	1	5
620.440	1	-1
620.779	1	-10
621.118	1	-11
621.458	1	-2
621.797	1	-13
622.136	1	22
622.476	1	0
622.815	1	7
623.154	1	-2
623.494	1	10
623.833	1	4
624.172	1	-1
624.511	1	0
624.851	1	-10
625.190	1	-5
625.529	1	-6
625.869	1	11
626.208	1	-7
626.547	1	-6
626.886	1	7
627.226	1	13
627.565	1	-1
627.904	1	4
628.243	1	-1
628.583	1	0
628.922	1	6
629.261	1	8
629.600	1	8
629.940	1	-2
630.279	1	-9
630.618	1	-3
630.957	1	-4
631.297	1	3
631.636	1	-13
631.975	1	4
632.314	1	-2
632.653	1	5
632.993	1	-14
633.332	1	2
633.671	1	4
634.010	1	1
634.349	1	10
634.689	1	1
635.028	1	7
635.367	1	-1
635.706	1	0
636.045	1	13
636.384	1	5
636.724	1	3
637.063	1	-5
637.402	1	-5
637.741	1	3
638.080	1	-2
638.419	1	-1
638.759	1	-6
639.098	1	5
639.437	1	11
639.776	1	-5
640.115	1	7
640.454	1	-9
640.793	1	11
641.132	1	6
641.472	1	4
641.811	1	11
642.150	1	-7
642.489	1	5
642.828	1	-5
643.167	1	-4
643.506	1	-1
643.845	1	-1
644.184	1	3
644.524	1	-3
644.863	1	-10
645.202	1	5
645.541	1	-14
645.880	1	2
646.219	1	-1
646.558	1	4
646.897	1	-4
647.236	1	2
647.575	1	6
647.914	1	-6
648.253	1	11
648.592	1	-13
648.931	1	5
649.270	1	-3
649.610	1	2
649.949	1	2
650.288	1	0
650.627	1	-11
650.966	1	0
651.305	1	0
651.644	1	10
651.983	1	5
652.322	1	-6
652.661	1	-2
653.000	1	-9
653.339	1	-1
653.678	1	-5
654.017	1	3
654.356	1	-1
654.695	1	8
655.034	1	-1
655.373	1	0
655.712	1	9
656.051	1	0
656.390	1	-6
656.729	1	-4
657.068	1	-3
657.406	1	3
657.745	1	1
658.084	1	-2
658.423	1	1
658.762	1	-1
659.101	1	10
659.440	1	2
659.779	1	-1
660.118	1	-1
660.457	1	-2
660.796	1	-14
661.135	1	-4
661.474	1	1
661.813	1	6
662.152	1	0
662.491	1	-9
662.829	1	-6
663.168	1	1
663.507	1	8
663.846	1	-3
664.185	1	8
664.524	1	1
664.863	1	-8
665.202	1	-3
665.541	1	-9
665.879	1	-12
666.218	1	-10
666.557	1	0
666.896	1	-5
667.235	1	-4
667.574	1	-7
667.913	1	5
668.251	1	-6
668.590	1	1
668.929	1	-8
669.268	1	0
669.607	1	6
669.946	1	-2
670.285	1	-2
670.623	1	2
670.962	1	-3
671.301	1	-15
671.640	1	0
671.979	1	-4
672.317	1	3
672.656	1	-6
672.995	1	3
673.334	1	-2
673.673	1	-2
674.011	1	5
674.350	1	6
674.689	1	0
675.028	1	-2
675.367	1	-2
675.705	1	-1
676.044	1	2
676.383	1	-1
676.722	1	0
677.060	1	-4
677.399	1	-16
677.738	1	3
678.077	1	9
678.416	1	-2
678.754	1	-5
679.093	1	0
679.432	1	-10
679.771	1	-3
680.109	1	7
680.448	1	0
680.787	1	-11
681.125	1	7
681.464	1	5
681.803	1	-4
682.142	1	5
682.480	1	10
682.819	1	5
683.158	1	0
683.496	1	6
683.835	1	10
684.174	1	-8
684.512	1	6
684.851	1	0
685.190	1	-7
685.529	1	-3
685.867	1	0
686.206	1	-7
686.545	1	-7
686.883	1	-10
687.222	1	0
687.561	1	-6
687.899	1	-3
688.238	1	-3
688.577	1	2
688.746	1	3