File: Data/GaN_200K_800ms/GaN_sample F_spot 12_UVVIS_200 K_200um_800 ms 2x2mm1_410.txt
340.368	1	5
340.710	1	-9
341.052	1	9
341.394	1	-3
341.737	1	9
342.079	1	-6
342.421	1	-2
342.763	1	6
343.105	1	0
343.447	1	-6
343.789	1	1
344.131	1	7
344.473	1	1
344.815	1	0
345.157	1	-13
345.499	1	-5
345.841	1	8
346.183	1	-11
346.526	1	-12
346.868	1	7
347.210	1	-10
347.552	1	-1
347.894	1	-3
348.236	1	2
348.578	1	-3
348.920	1	1
349.262	1	-1
349.604	1	0
349.946	1	-8
350.288	1	5
350.630	1	1
350.972	1	-6
351.314	1	11
351.656	1	-2
351.998	1	5
352.340	1	7
352.682	1	-1
353.024	1	7
353.366	1	4
353.708	1	-2
354.050	1	-3
354.392	1	-16
354.734	1	-4
355.076	1	-1
355.418	1	-15
355.760	1	-7
356.102	1	6
356.444	1	12
356.785	1	-9
357.127	1	-1
357.469	1	-4
357.811	1	11
358.153	1	8
358.495	1	4
358.837	1	-13
359.179	1	-4
359.521	1	13
359.863	1	-4
360.205	1	0
360.547	1	-2
360.889	1	-4
361.231	1	-4
361.572	1	7
361.914	1	-3
362.256	1	-1
362.598	1	-5
362.940	1	3
363.282	1	2
363.624	1	6
363.966	1	-1
364.308	1	0
364.649	1	10
364.991	1	4
365.333	1	2
365.675	1	-6
366.017	1	1
366.359	1	5
366.701	1	13
367.042	1	0
367.384	1	15
367.726	1	0
368.068	1	12
368.410	1	23
368.752	1	0
369.093	1	-3
369.435	1	14
369.777	1	9
370.119	1	4
370.461	1	31
370.803	1	9
371.144	1	5
371.486	1	13
371.828	1	12
372.170	1	10
372.512	1	-2
372.853	1	9
373.195	1	8
373.537	1	3
373.879	1	7
374.220	1	12
374.562	1	10
374.904	1	5
375.246	1	10
375.588	1	4
375.929	1	18
376.271	1	6
376.613	1	-2
376.955	1	1
377.296	1	-2
377.638	1	3
377.980	1	11
378.321	1	-1
378.663	1	-3
379.005	1	9
379.347	1	7
379.688	1	-1
380.030	1	-4
380.372	1	7
380.714	1	12
381.055	1	9
381.397	1	-5
381.739	1	8
382.080	1	7
382.422	1	6
382.764	1	-7
383.105	1	-1
383.447	1	-2
383.789	1	6
384.130	1	5
384.472	1	-3
384.814	1	4
385.156	1	-9
385.497	1	5
385.839	1	2
386.180	1	-1
386.522	1	14
386.864	1	6
387.205	1	-7
387.547	1	-9
387.889	1	-10
388.230	1	7
388.572	1	5
388.914	1	-6
389.255	1	-7
389.597	1	11
389.939	1	0
390.280	1	3
390.622	1	-2
390.963	1	9
391.305	1	8
391.647	1	-2
391.988	1	6
392.330	1	7
392.671	1	-5
393.013	1	-8
393.355	1	8
393.696	1	6
394.038	1	4
394.379	1	-1
394.721	1	-4
395.062	1	2
395.404	1	-2
395.746	1	1
396.087	1	-5
396.429	1	1
396.770	1	-3
397.112	1	9
397.453	1	14
397.795	1	-4
398.136	1	-8
398.478	1	-5
398.819	1	0
399.161	1	17
399.503	1	2
399.844	1	2
400.186	1	-4
400.527	1	5
400.869	1	3
401.210	1	1
401.552	1	-7
401.893	1	-2
402.235	1	3
402.576	1	-2
402.918	1	4
403.259	1	9
403.601	1	9
403.942	1	3
404.284	1	11
404.625	1	4
404.967	1	3
405.308	1	3
405.649	1	1
405.991	1	-5
406.332	1	-3
406.674	1	-5
407.015	1	2
407.357	1	-6
407.698	1	6
408.040	1	-5
408.381	1	4
408.722	1	-16
409.064	1	4
409.405	1	8
409.747	1	-5
410.088	1	6
410.430	1	0
410.771	1	-2
411.112	1	4
411.454	1	-1
411.795	1	2
412.137	1	0
412.478	1	3
412.819	1	-1
413.161	1	-1
413.502	1	-6
413.844	1	2
414.185	1	2
414.526	1	-2
414.868	1	-11
415.209	1	-2
415.550	1	0
415.892	1	2
416.233	1	6
416.575	1	4
416.916	1	-7
417.257	1	-6
417.599	1	-2
417.940	1	16
418.281	1	1
418.623	1	-4
418.964	1	-19
419.305	1	-4
419.647	1	-11
419.988	1	-8
420.329	1	-6
420.671	1	-3
421.012	1	-1
421.353	1	-1
421.695	1	-4
422.036	1	-5
422.377	1	-5
422.718	1	14
423.060	1	-16
423.401	1	-2
423.742	1	-1
424.084	1	-2
424.425	1	8
424.766	1	-10
425.107	1	-1
425.449	1	-4
425.790	1	-16
426.131	1	2
426.472	1	6
426.814	1	8
427.155	1	-7
427.496	1	-5
427.837	1	-6
428.179	1	-7
428.520	1	-2
428.861	1	-6
429.202	1	0
429.544	1	-11
429.885	1	-1
430.226	1	-9
430.567	1	-4
430.909	1	-3
431.250	1	2
431.591	1	0
431.932	1	-11
432.273	1	-3
432.615	1	-10
432.956	1	-7
433.297	1	3
433.638	1	-6
433.979	1	4
434.320	1	4
434.662	1	2
435.003	1	6
435.344	1	9
435.685	1	-4
436.026	1	5
436.368	1	2
436.709	1	7
437.050	1	-9
437.391	1	7
437.732	1	-7
438.073	1	1
438.414	1	-6
438.756	1	-3
439.097	1	-6
439.438	1	-2
439.779	1	4
440.120	1	1
440.461	1	0
440.802	1	-11
441.143	1	12
441.485	1	-2
441.826	1	3
442.167	1	10
442.508	1	-17
442.849	1	5
443.190	1	3
443.531	1	6
443.872	1	4
444.213	1	-8
444.554	1	12
444.895	1	-7
445.237	1	-6
445.578	1	-5
445.919	1	-9
446.260	1	-1
446.601	1	-8
446.942	1	5
447.283	1	-12
447.624	1	2
447.965	1	-6
448.306	1	5
448.647	1	-8
448.988	1	-14
449.329	1	2
449.670	1	11
450.011	1	7
450.352	1	2
450.693	1	-7
451.034	1	-7
451.375	1	4
451.716	1	1
452.057	1	-2
452.398	1	-1
452.739	1	-1
453.080	1	1
453.421	1	1
453.762	1	6
454.103	1	-13
454.444	1	-11
454.785	1	-6
455.126	1	-6
455.467	1	3
455.808	1	-7
456.149	1	5
456.490	1	2
456.831	1	12
457.172	1	1
457.513	1	0
457.854	1	-2
458.195	1	-8
458.536	1	-7
458.877	1	-3
459.218	1	3
459.559	1	1
459.899	1	-4
460.240	1	-2
460.581	1	15
460.922	1	5
461.263	1	-4
461.604	1	-5
461.945	1	1
462.286	1	-2
462.627	1	7
462.968	1	4
463.309	1	-7
463.649	1	2
463.990	1	-5
464.331	1	3
464.672	1	-3
465.013	1	5
465.354	1	-2
465.695	1	-12
466.036	1	-3
466.376	1	-7
466.717	1	9
467.058	1	-5
467.399	1	5
467.740	1	-1
468.081	1	-5
468.422	1	-3
468.762	1	-10
469.103	1	1
469.444	1	-7
469.785	1	-7
470.126	1	-5
470.467	1	-4
470.807	1	8
471.148	1	6
471.489	1	-3
471.830	1	-4
472.171	1	-3
472.511	1	-3
472.852	1	0
473.193	1	3
473.534	1	6
473.875	1	17
474.215	1	7
474.556	1	4
474.897	1	1
475.238	1	2
475.578	1	-8
475.919	1	-1
476.260	1	-3
476.601	1	-10
476.942	1	6
477.282	1	-2
477.623	1	-6
477.964	1	-8
478.305	1	-7
478.645	1	9
478.986	1	-5
479.327	1	-5
479.667	1	-4
480.008	1	-3
480.349	1	-8
480.690	1	-4
481.030	1	-7
481.371	1	1
481.712	1	3
482.053	1	-1
482.393	1	-2
482.734	1	-2
483.075	1	0
483.415	1	-6
483.756	1	3
484.097	1	-7
484.437	1	-6
484.778	1	-4
485.119	1	-4
485.459	1	5
485.800	1	2
486.141	1	1
486.481	1	2
486.822	1	0
487.163	1	-3
487.503	1	3
487.844	1	6
488.185	1	4
488.525	1	-3
488.866	1	2
489.207	1	-10
489.547	1	-6
489.888	1	0
490.228	1	2
490.569	1	13
490.910	1	-2
491.250	1	1
491.591	1	-9
491.932	1	-3
492.272	1	0
492.613	1	6
492.953	1	-5
493.294	1	-6
493.635	1	2
493.975	1	-1
494.316	1	3
494.656	1	1
494.997	1	-4
495.337	1	7
495.678	1	0
496.019	1	4
496.359	1	1
496.700	1	2
497.040	1	3
497.381	1	-3
497.721	1	1
498.062	1	-5
498.403	1	0
498.743	1	-5
499.084	1	-2
499.424	1	-2
499.765	1	-9
500.105	1	-7
500.446	1	-11
500.786	1	0
501.127	1	-2
501.467	1	3
501.808	1	-2
502.148	1	1
502.489	1	-4
502.829	1	-3
503.170	1	1
503.510	1	10
503.851	1	-6
504.191	1	10
504.532	1	2
504.872	1	-2
505.213	1	4
505.553	1	-7
505.894	1	1
506.234	1	4
506.575	1	5
506.915	1	5
507.256	1	8
507.596	1	-2
507.936	1	-1
508.277	1	-4
508.617	1	5
508.958	1	-11
509.298	1	2
509.639	1	0
509.979	1	-14
510.319	1	1
510.660	1	1
511.000	1	-1
511.341	1	5
511.681	1	3
512.022	1	0
512.362	1	-5
512.702	1	-6
513.043	1	5
513.383	1	-13
513.724	1	-2
514.064	1	8
514.404	1	-12
514.745	1	3
515.085	1	-9
515.425	1	-8
515.766	1	-4
516.106	1	1
516.447	1	9
516.787	1	2
517.127	1	-6
517.468	1	5
517.808	1	-6
518.148	1	8
518.489	1	-3
518.829	1	7
519.169	1	0
519.510	1	4
519.850	1	5
520.190	1	3
520.531	1	-2
520.871	1	-1
521.211	1	-10
521.552	1	6
521.892	1	2
522.232	1	-5
522.573	1	0
522.913	1	-3
523.253	1	-5
523.593	1	-11
523.934	1	3
524.274	1	2
524.614	1	-11
524.955	1	-3
525.295	1	0
525.635	1	1
525.975	1	3
526.316	1	13
526.656	1	-2
526.996	1	2
527.337	1	-9
527.677	1	0
528.017	1	-13
528.357	1	-7
528.698	1	-4
529.038	1	0
529.378	1	8
529.718	1	3
530.058	1	-1
530.399	1	7
530.739	1	1
531.079	1	9
531.419	1	-1
531.760	1	3
532.100	1	-1
532.440	1	-6
532.780	1	-2
533.120	1	7
533.461	1	-7
533.801	1	12
534.141	1	-17
534.481	1	-9
534.821	1	0
535.162	1	1
535.502	1	-6
535.842	1	9
536.182	1	0
536.522	1	-9
536.862	1	0
537.203	1	-4
537.543	1	-5
537.883	1	-1
538.223	1	-1
538.563	1	2
538.903	1	-8
539.243	1	1
539.584	1	-2
539.924	1	11
540.264	1	-3
540.604	1	-1
540.944	1	4
541.284	1	8
541.624	1	3
541.964	1	6
542.305	1	-3
542.645	1	-4
542.985	1	-1
543.325	1	2
543.665	1	5
544.005	1	5
544.345	1	-5
544.685	1	-3
545.025	1	-6
545.365	1	-1
545.705	1	-7
546.045	1	-6
546.386	1	1
546.726	1	-4
547.066	1	-2
547.406	1	3
547.746	1	-9
548.086	1	8
548.426	1	1
548.766	1	5
549.106	1	8
549.446	1	-3
549.786	1	-9
550.126	1	5
550.466	1	4
550.806	1	-3
551.146	1	-4
551.486	1	-2
551.826	1	1
552.166	1	7
552.506	1	-3
552.846	1	-3
553.186	1	3
553.526	1	1
553.866	1	3
554.206	1	3
554.546	1	-1
554.886	1	0
555.226	1	-6
555.566	1	7
555.906	1	15
556.246	1	7
556.586	1	0
556.926	1	-1
557.266	1	-7
557.606	1	3
557.946	1	-1
558.286	1	5
558.626	1	5
558.966	1	4
559.306	1	-5
559.646	1	4
559.986	1	-2
560.325	1	2
560.665	1	-5
561.005	1	-2
561.345	1	1
561.685	1	5
562.025	1	0
562.365	1	-3
562.705	1	-6
563.045	1	-4
563.385	1	-11
563.725	1	-1
564.064	1	1
564.404	1	5
564.744	1	13
565.084	1	-5
565.424	1	1
565.764	1	-10
566.104	1	1
566.444	1	-16
566.783	1	-9
567.123	1	4
567.463	1	6
567.803	1	-5
568.143	1	1
568.483	1	0
568.823	1	1
569.162	1	1
569.502	1	2
569.842	1	10
570.182	1	-2
570.522	1	-12
570.862	1	-10
571.201	1	7
571.541	1	6
571.881	1	14
572.221	1	-1
572.561	1	-4
572.900	1	-3
573.240	1	6
573.580	1	6
573.920	1	2
574.260	1	11
574.599	1	0
574.939	1	5
575.279	1	5
575.619	1	8
575.959	1	-13
576.298	1	5
576.638	1	-8
576.978	1	10
577.318	1	8
577.657	1	-4
577.997	1	0
578.337	1	20
578.677	1	7
579.016	1	8
579.356	1	-2
579.696	1	4
580.036	1	0
580.375	1	0
580.715	1	-1
581.055	1	3
581.394	1	-1
581.734	1	-11
582.074	1	-10
582.414	1	10
582.753	1	-4
583.093	1	-7
583.433	1	-2
583.772	1	12
584.112	1	-3
584.452	1	2
584.791	1	-8
585.131	1	2
585.471	1	15
585.811	1	6
586.150	1	-1
586.490	1	9
586.830	1	2
587.169	1	3
587.509	1	1
587.849	1	1
588.188	1	0
588.528	1	3
588.867	1	3
589.207	1	0
589.547	1	-1
589.886	1	-10
590.226	1	6
590.566	1	0
590.905	1	-1
591.245	1	-8
591.585	1	0
591.924	1	-8
592.264	1	4
592.603	1	-3
592.943	1	3
593.283	1	-7
593.622	1	-5
593.962	1	2
594.301	1	5
594.641	1	-7
594.981	1	-6
595.320	1	-1
595.660	1	7
595.999	1	-13
596.339	1	5
596.678	1	-5
597.018	1	-12
597.358	1	6
597.697	1	-4
598.037	1	2
598.376	1	-2
598.716	1	0
599.055	1	5
599.395	1	-2
599.734	1	4
600.074	1	0
600.413	1	10
600.753	1	-2
601.092	1	12
601.432	1	-6
601.771	1	7
602.111	1	0
602.451	1	6
602.790	1	-3
603.130	1	1
603.469	1	0
603.809	1	4
604.148	1	4
604.487	1	-1
604.827	1	2
605.166	1	0
605.506	1	3
605.845	1	0
606.185	1	10
606.524	1	-6
606.864	1	-3
607.203	1	0
607.543	1	2
607.882	1	7
608.222	1	3
608.561	1	7
608.901	1	0
609.240	1	-1
609.579	1	4
609.919	1	4
610.258	1	7
610.598	1	0
610.937	1	-3
611.277	1	-5
611.616	1	-13
611.955	1	-2
612.295	1	-1
612.634	1	5
612.974	1	-22
613.313	1	10
613.652	1	6
613.992	1	1
614.331	1	2
614.671	1	3
615.010	1	-6
615.349	1	4
615.689	1	7
616.028	1	9
616.368	1	0
616.707	1	5
617.046	1	2
617.386	1	4
617.725	1	2
618.064	1	-4
618.404	1	3
618.743	1	1
619.082	1	1
619.422	1	-12
619.761	1	-1
620.100	1	3
620.440	1	-1
620.779	1	-11
621.118	1	-1
621.458	1	1
621.797	1	0
622.136	1	5
622.476	1	1
622.815	1	7
623.154	1	7
623.494	1	0
623.833	1	4
624.172	1	-5
624.511	1	-2
624.851	1	-13
625.190	1	-2
625.529	1	0
625.869	1	10
626.208	1	-5
626.547	1	-1
626.886	1	2
627.226	1	8
627.565	1	5
627.904	1	1
628.243	1	1
628.583	1	0
628.922	1	6
629.261	1	4
629.600	1	3
629.940	1	-5
630.279	1	-5
630.618	1	-4
630.957	1	3
631.297	1	-2
631.636	1	-7
631.975	1	9
632.314	1	1
632.653	1	1
632.993	1	-1
633.332	1	-1
633.671	1	-12
634.010	1	3
634.349	1	13
634.689	1	-3
635.028	1	1
635.367	1	1
635.706	1	-6
636.045	1	4
636.384	1	8
636.724	1	-1
637.063	1	-5
637.402	1	9
637.741	1	2
638.080	1	-4
638.419	1	2
638.759	1	-8
639.098	1	4
639.437	1	-7
639.776	1	-1
640.115	1	-3
640.454	1	-5
640.793	1	3
641.132	1	4
641.472	1	2
641.811	1	4
642.150	1	-7
642.489	1	8
642.828	1	-3
643.167	1	-3
643.506	1	-14
643.845	1	0
644.184	1	0
644.524	1	-7
644.863	1	-9
645.202	1	-6
645.541	1	0
645.880	1	5
646.219	1	-2
646.558	1	-8
646.897	1	-6
647.236	1	5
647.575	1	-2
647.914	1	-10
648.253	1	3
648.592	1	-4
648.931	1	-1
649.270	1	-1
649.610	1	-11
649.949	1	-1
650.288	1	-1
650.627	1	-2
650.966	1	1
651.305	1	-4
651.644	1	14
651.983	1	4
652.322	1	-2
652.661	1	-11
653.000	1	3
653.339	1	2
653.678	1	3
654.017	1	2
654.356	1	-5
654.695	1	5
655.034	1	4
655.373	1	11
655.712	1	1
656.051	1	2
656.390	1	-6
656.729	1	10
657.068	1	1
657.406	1	9
657.745	1	0
658.084	1	-4
658.423	1	5
658.762	1	-3
659.101	1	12
659.440	1	1
659.779	1	1
660.118	1	3
660.457	1	-11
660.796	1	-10
661.135	1	-2
661.474	1	-2
661.813	1	0
662.152	1	-1
662.491	1	-6
662.829	1	-4
663.168	1	1
663.507	1	7
663.846	1	-8
664.185	1	5
664.524	1	4
664.863	1	2
665.202	1	5
665.541	1	-6
665.879	1	-10
666.218	1	-6
666.557	1	0
666.896	1	4
667.235	1	-4
667.574	1	-3
667.913	1	-3
668.251	1	1
668.590	1	0
668.929	1	-4
669.268	1	-3
669.607	1	-6
669.946	1	3
670.285	1	8
670.623	1	-9
670.962	1	-3
671.301	1	-1
671.640	1	8
671.979	1	0
672.317	1	-3
672.656	1	-11
672.995	1	3
673.334	1	1
673.673	1	-1
674.011	1	2
674.350	1	-6
674.689	1	0
675.028	1	-2
675.367	1	-7
675.705	1	5
676.044	1	-6
676.383	1	-4
676.722	1	1
677.060	1	-1
677.399	1	-10
677.738	1	1
678.077	1	-4
678.416	1	6
678.754	1	-3
679.093	1	3
679.432	1	0
679.771	1	-6
680.109	1	10
680.448	1	1
680.787	1	-6
681.125	1	-2
681.464	1	2
681.803	1	3
682.142	1	0
682.480	1	6
682.819	1	-4
683.158	1	-9
683.496	1	6
683.835	1	1
684.174	1	1
684.512	1	5
684.851	1	8
685.190	1	-4
685.529	1	1
685.867	1	-6
686.206	1	-7
686.545	1	-7
686.883	1	-10
687.222	1	-1
687.561	1	5
687.899	1	-1
688.238	1	6
688.577	1	-4
688.746	1	-4