File: Data/GaN_200K_800ms/GaN_sample F_spot 12_UVVIS_200 K_200um_800 ms 2x2mm1_472.txt
340.368	1	5
340.710	1	-20
341.052	1	4
341.394	1	-6
341.737	1	-4
342.079	1	-5
342.421	1	-3
342.763	1	-5
343.105	1	2
343.447	1	-11
343.789	1	2
344.131	1	5
344.473	1	-6
344.815	1	-6
345.157	1	-3
345.499	1	3
345.841	1	3
346.183	1	-20
346.526	1	-9
346.868	1	3
347.210	1	-5
347.552	1	2
347.894	1	-10
348.236	1	12
348.578	1	-4
348.920	1	-1
349.262	1	0
349.604	1	5
349.946	1	-17
350.288	1	4
350.630	1	-7
350.972	1	-5
351.314	1	3
351.656	1	-1
351.998	1	2
352.340	1	2
352.682	1	6
353.024	1	3
353.366	1	13
353.708	1	1
354.050	1	-1
354.392	1	-6
354.734	1	10
355.076	1	-4
355.418	1	-14
355.760	1	-2
356.102	1	9
356.444	1	3
356.785	1	8
357.127	1	2
357.469	1	0
357.811	1	-5
358.153	1	6
358.495	1	3
358.837	1	-7
359.179	1	-9
359.521	1	-1
359.863	1	0
360.205	1	-6
360.547	1	3
360.889	1	-5
361.231	1	5
361.572	1	2
361.914	1	2
362.256	1	-2
362.598	1	-7
362.940	1	-6
363.282	1	6
363.624	1	8
363.966	1	4
364.308	1	1
364.649	1	3
364.991	1	10
365.333	1	-7
365.675	1	-2
366.017	1	4
366.359	1	3
366.701	1	4
367.042	1	7
367.384	1	8
367.726	1	-4
368.068	1	4
368.410	1	13
368.752	1	4
369.093	1	-6
369.435	1	9
369.777	1	8
370.119	1	1
370.461	1	16
370.803	1	12
371.144	1	-1
371.486	1	11
371.828	1	13
372.170	1	16
372.512	1	0
372.853	1	7
373.195	1	-4
373.537	1	12
373.879	1	3
374.220	1	11
374.562	1	14
374.904	1	10
375.246	1	12
375.588	1	7
375.929	1	8
376.271	1	10
376.613	1	-5
376.955	1	3
377.296	1	-2
377.638	1	2
377.980	1	0
378.321	1	-1
378.663	1	-5
379.005	1	2
379.347	1	0
379.688	1	0
380.030	1	-2
380.372	1	1
380.714	1	2
381.055	1	10
381.397	1	5
381.739	1	3
382.080	1	5
382.422	1	-5
382.764	1	-4
383.105	1	-1
383.447	1	0
383.789	1	-1
384.130	1	-4
384.472	1	0
384.814	1	6
385.156	1	-3
385.497	1	2
385.839	1	-3
386.180	1	-5
386.522	1	1
386.864	1	4
387.205	1	-9
387.547	1	2
387.889	1	2
388.230	1	-1
388.572	1	-7
388.914	1	-2
389.255	1	-5
389.597	1	2
389.939	1	-3
390.280	1	4
390.622	1	-8
390.963	1	6
391.305	1	7
391.647	1	0
391.988	1	5
392.330	1	-6
392.671	1	-1
393.013	1	-5
393.355	1	6
393.696	1	4
394.038	1	3
394.379	1	4
394.721	1	-12
395.062	1	2
395.404	1	-4
395.746	1	0
396.087	1	-2
396.429	1	-12
396.770	1	-6
397.112	1	9
397.453	1	6
397.795	1	-4
398.136	1	-6
398.478	1	3
398.819	1	1
399.161	1	8
399.503	1	3
399.844	1	-5
400.186	1	1
400.527	1	-4
400.869	1	0
401.210	1	6
401.552	1	-4
401.893	1	0
402.235	1	-4
402.576	1	-3
402.918	1	7
403.259	1	10
403.601	1	-5
403.942	1	10
404.284	1	9
404.625	1	2
404.967	1	7
405.308	1	6
405.649	1	-13
405.991	1	3
406.332	1	4
406.674	1	2
407.015	1	6
407.357	1	-9
407.698	1	8
408.040	1	-3
408.381	1	0
408.722	1	-15
409.064	1	6
409.405	1	9
409.747	1	1
410.088	1	3
410.430	1	8
410.771	1	-2
411.112	1	-1
411.454	1	-6
411.795	1	-4
412.137	1	1
412.478	1	3
412.819	1	-2
413.161	1	-1
413.502	1	5
413.844	1	-1
414.185	1	4
414.526	1	-6
414.868	1	5
415.209	1	-1
415.550	1	-4
415.892	1	-2
416.233	1	5
416.575	1	10
416.916	1	-3
417.257	1	4
417.599	1	3
417.940	1	3
418.281	1	-2
418.623	1	-5
418.964	1	-4
419.305	1	-4
419.647	1	-5
419.988	1	-4
420.329	1	-9
420.671	1	-1
421.012	1	2
421.353	1	-9
421.695	1	-4
422.036	1	-4
422.377	1	-9
422.718	1	11
423.060	1	-5
423.401	1	1
423.742	1	1
424.084	1	-1
424.425	1	6
424.766	1	-8
425.107	1	-10
425.449	1	2
425.790	1	-21
426.131	1	2
426.472	1	-8
426.814	1	-1
427.155	1	-3
427.496	1	-7
427.837	1	1
428.179	1	-9
428.520	1	-7
428.861	1	9
429.202	1	-6
429.544	1	-5
429.885	1	3
430.226	1	-7
430.567	1	3
430.909	1	-4
431.250	1	-8
431.591	1	13
431.932	1	-7
432.273	1	-4
432.615	1	-18
432.956	1	-1
433.297	1	4
433.638	1	-1
433.979	1	8
434.320	1	2
434.662	1	1
435.003	1	5
435.344	1	-1
435.685	1	-3
436.026	1	-4
436.368	1	4
436.709	1	-2
437.050	1	-3
437.391	1	14
437.732	1	-5
438.073	1	-1
438.414	1	-12
438.756	1	-8
439.097	1	-4
439.438	1	-4
439.779	1	-10
440.120	1	-12
440.461	1	-3
440.802	1	-6
441.143	1	9
441.485	1	4
441.826	1	-2
442.167	1	10
442.508	1	-11
442.849	1	4
443.190	1	1
443.531	1	5
443.872	1	6
444.213	1	-3
444.554	1	4
444.895	1	-10
445.237	1	-8
445.578	1	-15
445.919	1	-7
446.260	1	-9
446.601	1	-4
446.942	1	0
447.283	1	-4
447.624	1	1
447.965	1	3
448.306	1	2
448.647	1	4
448.988	1	-1
449.329	1	-7
449.670	1	-1
450.011	1	5
450.352	1	-2
450.693	1	-2
451.034	1	-2
451.375	1	-2
451.716	1	-9
452.057	1	0
452.398	1	6
452.739	1	0
453.080	1	2
453.421	1	-7
453.762	1	6
454.103	1	13
454.444	1	-9
454.785	1	3
455.126	1	-2
455.467	1	-6
455.808	1	5
456.149	1	2
456.490	1	-4
456.831	1	3
457.172	1	-7
457.513	1	5
457.854	1	4
458.195	1	0
458.536	1	-5
458.877	1	5
459.218	1	-5
459.559	1	4
459.899	1	2
460.240	1	8
460.581	1	7
460.922	1	4
461.263	1	-6
461.604	1	-3
461.945	1	1
462.286	1	0
462.627	1	-2
462.968	1	5
463.309	1	-5
463.649	1	-7
463.990	1	-1
464.331	1	-4
464.672	1	-1
465.013	1	-8
465.354	1	6
465.695	1	4
466.036	1	-12
466.376	1	-2
466.717	1	-3
467.058	1	2
467.399	1	7
467.740	1	1
468.081	1	2
468.422	1	-7
468.762	1	-4
469.103	1	-9
469.444	1	0
469.785	1	-25
470.126	1	-11
470.467	1	-2
470.807	1	5
471.148	1	-1
471.489	1	1
471.830	1	-6
472.171	1	5
472.511	1	-3
472.852	1	-17
473.193	1	7
473.534	1	5
473.875	1	7
474.215	1	9
474.556	1	-3
474.897	1	0
475.238	1	0
475.578	1	4
475.919	1	-5
476.260	1	-3
476.601	1	1
476.942	1	10
477.282	1	0
477.623	1	-11
477.964	1	-5
478.305	1	-5
478.645	1	10
478.986	1	-8
479.327	1	-21
479.667	1	-6
480.008	1	-9
480.349	1	-8
480.690	1	-1
481.030	1	-7
481.371	1	1
481.712	1	4
482.053	1	7
482.393	1	1
482.734	1	-8
483.075	1	-3
483.415	1	-6
483.756	1	4
484.097	1	-8
484.437	1	-5
484.778	1	7
485.119	1	-4
485.459	1	13
485.800	1	-10
486.141	1	-6
486.481	1	4
486.822	1	-1
487.163	1	-9
487.503	1	2
487.844	1	-1
488.185	1	2
488.525	1	6
488.866	1	9
489.207	1	2
489.547	1	-12
489.888	1	-2
490.228	1	1
490.569	1	4
490.910	1	-2
491.250	1	-4
491.591	1	-1
491.932	1	-6
492.272	1	-5
492.613	1	-5
492.953	1	-10
493.294	1	0
493.635	1	3
493.975	1	-7
494.316	1	7
494.656	1	2
494.997	1	-6
495.337	1	4
495.678	1	-4
496.019	1	-6
496.359	1	-5
496.700	1	3
497.040	1	-4
497.381	1	1
497.721	1	-1
498.062	1	1
498.403	1	1
498.743	1	-6
499.084	1	-5
499.424	1	-4
499.765	1	-8
500.105	1	-6
500.446	1	0
500.786	1	-14
501.127	1	-9
501.467	1	-3
501.808	1	2
502.148	1	8
502.489	1	0
502.829	1	8
503.170	1	-2
503.510	1	-2
503.851	1	-2
504.191	1	6
504.532	1	2
504.872	1	-5
505.213	1	6
505.553	1	-3
505.894	1	-10
506.234	1	7
506.575	1	4
506.915	1	3
507.256	1	-3
507.596	1	0
507.936	1	7
508.277	1	-2
508.617	1	-2
508.958	1	-14
509.298	1	-2
509.639	1	2
509.979	1	-5
510.319	1	1
510.660	1	-4
511.000	1	-4
511.341	1	8
511.681	1	5
512.022	1	-6
512.362	1	-4
512.702	1	-3
513.043	1	1
513.383	1	-9
513.724	1	-1
514.064	1	0
514.404	1	-3
514.745	1	1
515.085	1	-9
515.425	1	-10
515.766	1	-9
516.106	1	1
516.447	1	6
516.787	1	2
517.127	1	-3
517.468	1	-3
517.808	1	-12
518.148	1	1
518.489	1	1
518.829	1	-1
519.169	1	5
519.510	1	3
519.850	1	2
520.190	1	-7
520.531	1	1
520.871	1	2
521.211	1	-13
521.552	1	14
521.892	1	-2
522.232	1	7
522.573	1	-2
522.913	1	-4
523.253	1	1
523.593	1	-5
523.934	1	-5
524.274	1	6
524.614	1	-4
524.955	1	-16
525.295	1	-4
525.635	1	-2
525.975	1	2
526.316	1	7
526.656	1	-5
526.996	1	4
527.337	1	2
527.677	1	-1
528.017	1	-4
528.357	1	-7
528.698	1	5
529.038	1	2
529.378	1	11
529.718	1	3
530.058	1	-6
530.399	1	6
530.739	1	3
531.079	1	0
531.419	1	-1
531.760	1	4
532.100	1	-9
532.440	1	-2
532.780	1	-5
533.120	1	8
533.461	1	2
533.801	1	11
534.141	1	-8
534.481	1	-6
534.821	1	6
535.162	1	-2
535.502	1	-6
535.842	1	0
536.182	1	3
536.522	1	-4
536.862	1	3
537.203	1	-4
537.543	1	-2
537.883	1	-6
538.223	1	4
538.563	1	10
538.903	1	-5
539.243	1	0
539.584	1	1
539.924	1	6
540.264	1	-4
540.604	1	4
540.944	1	0
541.284	1	-2
541.624	1	-1
541.964	1	7
542.305	1	-1
542.645	1	-6
542.985	1	1
543.325	1	-8
543.665	1	2
544.005	1	3
544.345	1	5
544.685	1	3
545.025	1	6
545.365	1	-4
545.705	1	-8
546.045	1	-8
546.386	1	1
546.726	1	-5
547.066	1	13
547.406	1	-6
547.746	1	-17
548.086	1	-8
548.426	1	-11
548.766	1	3
549.106	1	-6
549.446	1	-3
549.786	1	-12
550.126	1	13
550.466	1	7
550.806	1	0
551.146	1	-2
551.486	1	1
551.826	1	2
552.166	1	1
552.506	1	1
552.846	1	1
553.186	1	7
553.526	1	-7
553.866	1	2
554.206	1	9
554.546	1	-3
554.886	1	5
555.226	1	-9
555.566	1	2
555.906	1	3
556.246	1	0
556.586	1	1
556.926	1	6
557.266	1	-6
557.606	1	-2
557.946	1	5
558.286	1	-3
558.626	1	6
558.966	1	-4
559.306	1	6
559.646	1	-8
559.986	1	-8
560.325	1	-7
560.665	1	4
561.005	1	-9
561.345	1	4
561.685	1	-6
562.025	1	-1
562.365	1	1
562.705	1	-9
563.045	1	-6
563.385	1	-16
563.725	1	0
564.064	1	-6
564.404	1	-2
564.744	1	-11
565.084	1	-3
565.424	1	-5
565.764	1	-4
566.104	1	-3
566.444	1	-8
566.783	1	-6
567.123	1	1
567.463	1	-2
567.803	1	-9
568.143	1	5
568.483	1	-5
568.823	1	-5
569.162	1	-2
569.502	1	-8
569.842	1	6
570.182	1	0
570.522	1	-10
570.862	1	-3
571.201	1	6
571.541	1	8
571.881	1	7
572.221	1	-13
572.561	1	-2
572.900	1	-6
573.240	1	4
573.580	1	4
573.920	1	3
574.260	1	1
574.599	1	4
574.939	1	0
575.279	1	5
575.619	1	2
575.959	1	-13
576.298	1	6
576.638	1	-5
576.978	1	8
577.318	1	7
577.657	1	-7
577.997	1	-1
578.337	1	2
578.677	1	3
579.016	1	-2
579.356	1	-11
579.696	1	2
580.036	1	-2
580.375	1	5
580.715	1	5
581.055	1	-4
581.394	1	4
581.734	1	0
582.074	1	-9
582.414	1	3
582.753	1	-3
583.093	1	-3
583.433	1	6
583.772	1	5
584.112	1	-9
584.452	1	1
584.791	1	-7
585.131	1	-1
585.471	1	0
585.811	1	-4
586.150	1	-3
586.490	1	-5
586.830	1	2
587.169	1	3
587.509	1	-8
587.849	1	7
588.188	1	8
588.528	1	5
588.867	1	5
589.207	1	-1
589.547	1	1
589.886	1	-6
590.226	1	-1
590.566	1	-5
590.905	1	4
591.245	1	-5
591.585	1	3
591.924	1	2
592.264	1	3
592.603	1	5
592.943	1	0
593.283	1	7
593.622	1	3
593.962	1	7
594.301	1	-6
594.641	1	-5
594.981	1	-8
595.320	1	-5
595.660	1	-6
595.999	1	-6
596.339	1	5
596.678	1	-1
597.018	1	-7
597.358	1	3
597.697	1	7
598.037	1	5
598.376	1	1
598.716	1	-2
599.055	1	4
599.395	1	-12
599.734	1	0
600.074	1	0
600.413	1	5
600.753	1	1
601.092	1	4
601.432	1	-8
601.771	1	3
602.111	1	-2
602.451	1	4
602.790	1	-4
603.130	1	11
603.469	1	-8
603.809	1	2
604.148	1	0
604.487	1	1
604.827	1	9
605.166	1	2
605.506	1	0
605.845	1	-2
606.185	1	2
606.524	1	-5
606.864	1	-2
607.203	1	-9
607.543	1	0
607.882	1	4
608.222	1	11
608.561	1	-3
608.901	1	-1
609.240	1	-6
609.579	1	13
609.919	1	7
610.258	1	1
610.598	1	-1
610.937	1	1
611.277	1	0
611.616	1	-1
611.955	1	2
612.295	1	0
612.634	1	5
612.974	1	-7
613.313	1	9
613.652	1	7
613.992	1	-7
614.331	1	-1
614.671	1	9
615.010	1	-14
615.349	1	11
615.689	1	5
616.028	1	-6
616.368	1	3
616.707	1	0
617.046	1	-2
617.386	1	3
617.725	1	-7
618.064	1	-9
618.404	1	2
618.743	1	8
619.082	1	2
619.422	1	-6
619.761	1	1
620.100	1	3
620.440	1	1
620.779	1	-7
621.118	1	-3
621.458	1	-1
621.797	1	-7
622.136	1	7
622.476	1	12
622.815	1	8
623.154	1	4
623.494	1	4
623.833	1	10
624.172	1	-9
624.511	1	-5
624.851	1	-7
625.190	1	4
625.529	1	5
625.869	1	5
626.208	1	-5
626.547	1	-6
626.886	1	4
627.226	1	-3
627.565	1	2
627.904	1	-2
628.243	1	5
628.583	1	-7
628.922	1	1
629.261	1	2
629.600	1	0
629.940	1	3
630.279	1	-12
630.618	1	-7
630.957	1	-10
631.297	1	4
631.636	1	-5
631.975	1	8
632.314	1	-3
632.653	1	-4
632.993	1	2
633.332	1	-1
633.671	1	-9
634.010	1	-1
634.349	1	14
634.689	1	-2
635.028	1	9
635.367	1	7
635.706	1	-1
636.045	1	12
636.384	1	-3
636.724	1	3
637.063	1	-9
637.402	1	1
637.741	1	-5
638.080	1	-5
638.419	1	-9
638.759	1	1
639.098	1	-1
639.437	1	3
639.776	1	2
640.115	1	-10
640.454	1	-4
640.793	1	0
641.132	1	5
641.472	1	-6
641.811	1	-2
642.150	1	-7
642.489	1	-1
642.828	1	-13
643.167	1	-3
643.506	1	-6
643.845	1	3
644.184	1	-4
644.524	1	-13
644.863	1	-2
645.202	1	-1
645.541	1	-9
645.880	1	0
646.219	1	1
646.558	1	-1
646.897	1	5
647.236	1	-5
647.575	1	-6
647.914	1	-10
648.253	1	17
648.592	1	-4
648.931	1	16
649.270	1	1
649.610	1	3
649.949	1	-11
650.288	1	-2
650.627	1	9
650.966	1	-7
651.305	1	0
651.644	1	8
651.983	1	-2
652.322	1	-2
652.661	1	4
653.000	1	0
653.339	1	10
653.678	1	7
654.017	1	5
654.356	1	-2
654.695	1	5
655.034	1	-2
655.373	1	5
655.712	1	3
656.051	1	3
656.390	1	6
656.729	1	7
657.068	1	0
657.406	1	2
657.745	1	-4
658.084	1	9
658.423	1	11
658.762	1	-3
659.101	1	12
659.440	1	3
659.779	1	5
660.118	1	-1
660.457	1	1
660.796	1	-15
661.135	1	-10
661.474	1	-1
661.813	1	10
662.152	1	-2
662.491	1	-6
662.829	1	3
663.168	1	-10
663.507	1	9
663.846	1	1
664.185	1	2
664.524	1	-2
664.863	1	-4
665.202	1	-1
665.541	1	-12
665.879	1	-7
666.218	1	-6
666.557	1	4
666.896	1	-11
667.235	1	3
667.574	1	-10
667.913	1	-1
668.251	1	-12
668.590	1	1
668.929	1	-11
669.268	1	0
669.607	1	6
669.946	1	3
670.285	1	5
670.623	1	-6
670.962	1	-7
671.301	1	-7
671.640	1	3
671.979	1	-3
672.317	1	-3
672.656	1	-3
672.995	1	10
673.334	1	-5
673.673	1	4
674.011	1	-2
674.350	1	4
674.689	1	1
675.028	1	-6
675.367	1	8
675.705	1	8
676.044	1	5
676.383	1	-1
676.722	1	5
677.060	1	-7
677.399	1	-3
677.738	1	7
678.077	1	3
678.416	1	-4
678.754	1	-10
679.093	1	6
679.432	1	3
679.771	1	-4
680.109	1	2
680.448	1	-9
680.787	1	-3
681.125	1	7
681.464	1	-2
681.803	1	-5
682.142	1	0
682.480	1	10
682.819	1	6
683.158	1	-4
683.496	1	-2
683.835	1	-1
684.174	1	-8
684.512	1	3
684.851	1	9
685.190	1	-5
685.529	1	0
685.867	1	-2
686.206	1	0
686.545	1	-7
686.883	1	-1
687.222	1	1
687.561	1	-4
687.899	1	-1
688.238	1	-4
688.577	1	-3
688.746	1	-1