File: Data/GaN_200K_800ms/GaN_sample F_spot 12_UVVIS_200 K_200um_800 ms 2x2mm1_194.txt
340.368	1	7
340.710	1	-8
341.052	1	9
341.394	1	5
341.737	1	6
342.079	1	3
342.421	1	1
342.763	1	5
343.105	1	10
343.447	1	-1
343.789	1	-6
344.131	1	6
344.473	1	-2
344.815	1	4
345.157	1	-1
345.499	1	-1
345.841	1	6
346.183	1	-2
346.526	1	-8
346.868	1	7
347.210	1	-12
347.552	1	-1
347.894	1	6
348.236	1	7
348.578	1	-5
348.920	1	4
349.262	1	5
349.604	1	9
349.946	1	0
350.288	1	2
350.630	1	7
350.972	1	11
351.314	1	6
351.656	1	5
351.998	1	-3
352.340	1	7
352.682	1	2
353.024	1	15
353.366	1	9
353.708	1	-3
354.050	1	-3
354.392	1	-2
354.734	1	12
355.076	1	5
355.418	1	-3
355.760	1	-2
356.102	1	12
356.444	1	7
356.785	1	11
357.127	1	-1
357.469	1	10
357.811	1	4
358.153	1	18
358.495	1	7
358.837	1	7
359.179	1	1
359.521	1	12
359.863	1	9
360.205	1	6
360.547	1	1
360.889	1	9
361.231	1	10
361.572	1	9
361.914	1	10
362.256	1	1
362.598	1	9
362.940	1	5
363.282	1	14
363.624	1	20
363.966	1	15
364.308	1	6
364.649	1	12
364.991	1	27
365.333	1	13
365.675	1	13
366.017	1	11
366.359	1	16
366.701	1	26
367.042	1	21
367.384	1	40
367.726	1	32
368.068	1	35
368.410	1	40
368.752	1	32
369.093	1	30
369.435	1	39
369.777	1	29
370.119	1	36
370.461	1	45
370.803	1	38
371.144	1	30
371.486	1	36
371.828	1	45
372.170	1	38
372.512	1	19
372.853	1	19
373.195	1	23
373.537	1	28
373.879	1	18
374.220	1	33
374.562	1	36
374.904	1	22
375.246	1	22
375.588	1	25
375.929	1	25
376.271	1	29
376.613	1	10
376.955	1	13
377.296	1	19
377.638	1	3
377.980	1	23
378.321	1	2
378.663	1	0
379.005	1	25
379.347	1	15
379.688	1	16
380.030	1	6
380.372	1	12
380.714	1	20
381.055	1	20
381.397	1	8
381.739	1	16
382.080	1	4
382.422	1	2
382.764	1	4
383.105	1	5
383.447	1	9
383.789	1	1
384.130	1	7
384.472	1	10
384.814	1	-1
385.156	1	-6
385.497	1	17
385.839	1	15
386.180	1	5
386.522	1	16
386.864	1	6
387.205	1	3
387.547	1	2
387.889	1	-2
388.230	1	18
388.572	1	7
388.914	1	3
389.255	1	4
389.597	1	9
389.939	1	12
390.280	1	-8
390.622	1	1
390.963	1	9
391.305	1	14
391.647	1	7
391.988	1	8
392.330	1	6
392.671	1	5
393.013	1	0
393.355	1	-1
393.696	1	1
394.038	1	2
394.379	1	8
394.721	1	-2
395.062	1	5
395.404	1	-6
395.746	1	5
396.087	1	-5
396.429	1	8
396.770	1	0
397.112	1	5
397.453	1	8
397.795	1	-4
398.136	1	4
398.478	1	0
398.819	1	5
399.161	1	4
399.503	1	4
399.844	1	3
400.186	1	-2
400.527	1	1
400.869	1	5
401.210	1	8
401.552	1	-18
401.893	1	-4
402.235	1	9
402.576	1	0
402.918	1	9
403.259	1	12
403.601	1	5
403.942	1	10
404.284	1	11
404.625	1	11
404.967	1	12
405.308	1	18
405.649	1	0
405.991	1	1
406.332	1	5
406.674	1	2
407.015	1	0
407.357	1	-6
407.698	1	11
408.040	1	-2
408.381	1	13
408.722	1	-13
409.064	1	1
409.405	1	8
409.747	1	6
410.088	1	-2
410.430	1	6
410.771	1	-1
411.112	1	-1
411.454	1	3
411.795	1	2
412.137	1	7
412.478	1	5
412.819	1	1
413.161	1	-5
413.502	1	3
413.844	1	1
414.185	1	-3
414.526	1	3
414.868	1	2
415.209	1	7
415.550	1	-6
415.892	1	9
416.233	1	7
416.575	1	18
416.916	1	1
417.257	1	-2
417.599	1	-8
417.940	1	1
418.281	1	6
418.623	1	4
418.964	1	-15
419.305	1	1
419.647	1	-5
419.988	1	3
420.329	1	1
420.671	1	17
421.012	1	0
421.353	1	-4
421.695	1	-4
422.036	1	-4
422.377	1	0
422.718	1	1
423.060	1	-11
423.401	1	-3
423.742	1	7
424.084	1	9
424.425	1	14
424.766	1	-1
425.107	1	-9
425.449	1	-7
425.790	1	-9
426.131	1	3
426.472	1	1
426.814	1	6
427.155	1	-4
427.496	1	3
427.837	1	0
428.179	1	-7
428.520	1	9
428.861	1	-1
429.202	1	0
429.544	1	2
429.885	1	-2
430.226	1	-7
430.567	1	-1
430.909	1	11
431.250	1	-3
431.591	1	6
431.932	1	-1
432.273	1	2
432.615	1	-14
432.956	1	-5
433.297	1	3
433.638	1	-7
433.979	1	9
434.320	1	7
434.662	1	1
435.003	1	2
435.344	1	6
435.685	1	-2
436.026	1	-1
436.368	1	-6
436.709	1	-3
437.050	1	-1
437.391	1	7
437.732	1	-4
438.073	1	1
438.414	1	-5
438.756	1	-4
439.097	1	-4
439.438	1	-4
439.779	1	2
440.120	1	-6
440.461	1	7
440.802	1	3
441.143	1	13
441.485	1	0
441.826	1	-6
442.167	1	7
442.508	1	-7
442.849	1	3
443.190	1	-1
443.531	1	7
443.872	1	9
444.213	1	-4
444.554	1	3
444.895	1	-12
445.237	1	-7
445.578	1	-9
445.919	1	-11
446.260	1	0
446.601	1	-3
446.942	1	-12
447.283	1	-2
447.624	1	2
447.965	1	3
448.306	1	4
448.647	1	-14
448.988	1	-2
449.329	1	2
449.670	1	13
450.011	1	0
450.352	1	-5
450.693	1	-6
451.034	1	-6
451.375	1	-5
451.716	1	-3
452.057	1	2
452.398	1	-3
452.739	1	4
453.080	1	-2
453.421	1	-2
453.762	1	2
454.103	1	-8
454.444	1	0
454.785	1	3
455.126	1	-7
455.467	1	3
455.808	1	0
456.149	1	0
456.490	1	8
456.831	1	6
457.172	1	6
457.513	1	5
457.854	1	5
458.195	1	-10
458.536	1	1
458.877	1	-2
459.218	1	7
459.559	1	3
459.899	1	-5
460.240	1	-2
460.581	1	14
460.922	1	-1
461.263	1	-11
461.604	1	2
461.945	1	4
462.286	1	4
462.627	1	5
462.968	1	5
463.309	1	-3
463.649	1	0
463.990	1	4
464.331	1	0
464.672	1	2
465.013	1	-3
465.354	1	3
465.695	1	-2
466.036	1	2
466.376	1	6
466.717	1	1
467.058	1	4
467.399	1	10
467.740	1	9
468.081	1	2
468.422	1	-2
468.762	1	-6
469.103	1	-3
469.444	1	-6
469.785	1	-16
470.126	1	-3
470.467	1	-1
470.807	1	4
471.148	1	2
471.489	1	-1
471.830	1	0
472.171	1	4
472.511	1	-2
472.852	1	4
473.193	1	6
473.534	1	11
473.875	1	6
474.215	1	7
474.556	1	3
474.897	1	9
475.238	1	5
475.578	1	-3
475.919	1	3
476.260	1	3
476.601	1	0
476.942	1	7
477.282	1	-1
477.623	1	-5
477.964	1	-3
478.305	1	-4
478.645	1	5
478.986	1	-5
479.327	1	-7
479.667	1	-3
480.008	1	-3
480.349	1	-2
480.690	1	-2
481.030	1	-10
481.371	1	2
481.712	1	2
482.053	1	2
482.393	1	4
482.734	1	-8
483.075	1	-1
483.415	1	6
483.756	1	15
484.097	1	3
484.437	1	-4
484.778	1	1
485.119	1	-5
485.459	1	15
485.800	1	-7
486.141	1	3
486.481	1	1
486.822	1	4
487.163	1	0
487.503	1	8
487.844	1	3
488.185	1	8
488.525	1	4
488.866	1	4
489.207	1	1
489.547	1	-5
489.888	1	-13
490.228	1	9
490.569	1	5
490.910	1	-1
491.250	1	7
491.591	1	-5
491.932	1	2
492.272	1	-4
492.613	1	-2
492.953	1	7
493.294	1	0
493.635	1	-13
493.975	1	-1
494.316	1	-2
494.656	1	3
494.997	1	5
495.337	1	15
495.678	1	5
496.019	1	-7
496.359	1	-4
496.700	1	4
497.040	1	-3
497.381	1	1
497.721	1	-2
498.062	1	-3
498.403	1	5
498.743	1	3
499.084	1	2
499.424	1	3
499.765	1	3
500.105	1	-9
500.446	1	-9
500.786	1	-7
501.127	1	3
501.467	1	-11
501.808	1	-7
502.148	1	1
502.489	1	8
502.829	1	0
503.170	1	13
503.510	1	4
503.851	1	0
504.191	1	1
504.532	1	9
504.872	1	-1
505.213	1	-4
505.553	1	-3
505.894	1	-2
506.234	1	10
506.575	1	8
506.915	1	6
507.256	1	5
507.596	1	4
507.936	1	0
508.277	1	8
508.617	1	-1
508.958	1	-12
509.298	1	0
509.639	1	1
509.979	1	-4
510.319	1	5
510.660	1	-5
511.000	1	-2
511.341	1	11
511.681	1	6
512.022	1	-5
512.362	1	-1
512.702	1	3
513.043	1	8
513.383	1	-3
513.724	1	14
514.064	1	9
514.404	1	-6
514.745	1	3
515.085	1	4
515.425	1	2
515.766	1	-10
516.106	1	-1
516.447	1	9
516.787	1	0
517.127	1	2
517.468	1	-1
517.808	1	8
518.148	1	10
518.489	1	2
518.829	1	11
519.169	1	-4
519.510	1	2
519.850	1	9
520.190	1	4
520.531	1	8
520.871	1	8
521.211	1	-8
521.552	1	5
521.892	1	9
522.232	1	9
522.573	1	2
522.913	1	-1
523.253	1	0
523.593	1	-3
523.934	1	4
524.274	1	5
524.614	1	-1
524.955	1	-2
525.295	1	-1
525.635	1	1
525.975	1	6
526.316	1	16
526.656	1	2
526.996	1	6
527.337	1	6
527.677	1	4
528.017	1	-14
528.357	1	6
528.698	1	1
529.038	1	8
529.378	1	9
529.718	1	6
530.058	1	3
530.399	1	15
530.739	1	10
531.079	1	11
531.419	1	0
531.760	1	4
532.100	1	0
532.440	1	2
532.780	1	-1
533.120	1	19
533.461	1	5
533.801	1	15
534.141	1	-11
534.481	1	-8
534.821	1	7
535.162	1	2
535.502	1	-5
535.842	1	8
536.182	1	-2
536.522	1	-3
536.862	1	2
537.203	1	-5
537.543	1	3
537.883	1	0
538.223	1	5
538.563	1	7
538.903	1	1
539.243	1	-5
539.584	1	2
539.924	1	7
540.264	1	-6
540.604	1	5
540.944	1	5
541.284	1	1
541.624	1	2
541.964	1	9
542.305	1	1
542.645	1	9
542.985	1	11
543.325	1	-4
543.665	1	5
544.005	1	6
544.345	1	6
544.685	1	-4
545.025	1	7
545.365	1	7
545.705	1	2
546.045	1	-9
546.386	1	16
546.726	1	4
547.066	1	10
547.406	1	1
547.746	1	-7
548.086	1	3
548.426	1	-4
548.766	1	14
549.106	1	-1
549.446	1	0
549.786	1	-1
550.126	1	15
550.466	1	3
550.806	1	-1
551.146	1	7
551.486	1	1
551.826	1	11
552.166	1	7
552.506	1	8
552.846	1	4
553.186	1	4
553.526	1	5
553.866	1	9
554.206	1	6
554.546	1	9
554.886	1	7
555.226	1	-1
555.566	1	19
555.906	1	13
556.246	1	11
556.586	1	8
556.926	1	9
557.266	1	-2
557.606	1	7
557.946	1	15
558.286	1	0
558.626	1	8
558.966	1	12
559.306	1	1
559.646	1	-2
559.986	1	-6
560.325	1	6
560.665	1	1
561.005	1	-2
561.345	1	1
561.685	1	6
562.025	1	6
562.365	1	4
562.705	1	6
563.045	1	-2
563.385	1	-1
563.725	1	5
564.064	1	7
564.404	1	13
564.744	1	13
565.084	1	-3
565.424	1	9
565.764	1	0
566.104	1	11
566.444	1	-5
566.783	1	-4
567.123	1	1
567.463	1	2
567.803	1	3
568.143	1	1
568.483	1	12
568.823	1	4
569.162	1	14
569.502	1	1
569.842	1	0
570.182	1	-2
570.522	1	-12
570.862	1	1
571.201	1	6
571.541	1	1
571.881	1	10
572.221	1	-6
572.561	1	6
572.900	1	-1
573.240	1	7
573.580	1	4
573.920	1	6
574.260	1	6
574.599	1	6
574.939	1	6
575.279	1	14
575.619	1	13
575.959	1	-4
576.298	1	13
576.638	1	0
576.978	1	10
577.318	1	8
577.657	1	2
577.997	1	-4
578.337	1	13
578.677	1	12
579.016	1	18
579.356	1	-2
579.696	1	15
580.036	1	-6
580.375	1	-1
580.715	1	9
581.055	1	2
581.394	1	3
581.734	1	-5
582.074	1	-4
582.414	1	13
582.753	1	-4
583.093	1	-2
583.433	1	1
583.772	1	16
584.112	1	-3
584.452	1	13
584.791	1	1
585.131	1	1
585.471	1	16
585.811	1	11
586.150	1	8
586.490	1	3
586.830	1	0
587.169	1	7
587.509	1	1
587.849	1	5
588.188	1	17
588.528	1	13
588.867	1	15
589.207	1	4
589.547	1	0
589.886	1	-6
590.226	1	6
590.566	1	1
590.905	1	0
591.245	1	0
591.585	1	16
591.924	1	9
592.264	1	8
592.603	1	-1
592.943	1	7
593.283	1	2
593.622	1	4
593.962	1	12
594.301	1	13
594.641	1	-9
594.981	1	-1
595.320	1	8
595.660	1	7
595.999	1	-7
596.339	1	1
596.678	1	1
597.018	1	14
597.358	1	3
597.697	1	-5
598.037	1	5
598.376	1	9
598.716	1	9
599.055	1	9
599.395	1	5
599.734	1	4
600.074	1	-1
600.413	1	19
600.753	1	7
601.092	1	10
601.432	1	-8
601.771	1	3
602.111	1	6
602.451	1	13
602.790	1	7
603.130	1	1
603.469	1	-11
603.809	1	0
604.148	1	5
604.487	1	8
604.827	1	5
605.166	1	9
605.506	1	3
605.845	1	4
606.185	1	12
606.524	1	-1
606.864	1	4
607.203	1	-2
607.543	1	1
607.882	1	12
608.222	1	12
608.561	1	6
608.901	1	2
609.240	1	-4
609.579	1	12
609.919	1	8
610.258	1	8
610.598	1	5
610.937	1	5
611.277	1	1
611.616	1	-5
611.955	1	4
612.295	1	2
612.634	1	-4
612.974	1	-5
613.313	1	13
613.652	1	4
613.992	1	2
614.331	1	2
614.671	1	10
615.010	1	-1
615.349	1	16
615.689	1	11
616.028	1	2
616.368	1	8
616.707	1	-1
617.046	1	6
617.386	1	-4
617.725	1	-2
618.064	1	1
618.404	1	2
618.743	1	7
619.082	1	5
619.422	1	3
619.761	1	11
620.100	1	10
620.440	1	-5
620.779	1	-2
621.118	1	0
621.458	1	7
621.797	1	2
622.136	1	12
622.476	1	5
622.815	1	8
623.154	1	2
623.494	1	7
623.833	1	23
624.172	1	-6
624.511	1	4
624.851	1	-10
625.190	1	2
625.529	1	2
625.869	1	7
626.208	1	9
626.547	1	5
626.886	1	5
627.226	1	3
627.565	1	10
627.904	1	2
628.243	1	10
628.583	1	6
628.922	1	3
629.261	1	3
629.600	1	3
629.940	1	4
630.279	1	-10
630.618	1	2
630.957	1	6
631.297	1	3
631.636	1	-2
631.975	1	11
632.314	1	-7
632.653	1	2
632.993	1	7
633.332	1	8
633.671	1	-8
634.010	1	3
634.349	1	11
634.689	1	4
635.028	1	-2
635.367	1	1
635.706	1	-3
636.045	1	9
636.384	1	3
636.724	1	-2
637.063	1	3
637.402	1	0
637.741	1	3
638.080	1	4
638.419	1	1
638.759	1	-3
639.098	1	4
639.437	1	6
639.776	1	2
640.115	1	6
640.454	1	1
640.793	1	6
641.132	1	4
641.472	1	1
641.811	1	3
642.150	1	-6
642.489	1	12
642.828	1	-6
643.167	1	-4
643.506	1	-5
643.845	1	1
644.184	1	8
644.524	1	-7
644.863	1	-5
645.202	1	8
645.541	1	2
645.880	1	5
646.219	1	5
646.558	1	-2
646.897	1	2
647.236	1	12
647.575	1	1
647.914	1	-3
648.253	1	9
648.592	1	-3
648.931	1	19
649.270	1	-2
649.610	1	-4
649.949	1	2
650.288	1	5
650.627	1	-5
650.966	1	-1
651.305	1	-5
651.644	1	12
651.983	1	-2
652.322	1	1
652.661	1	3
653.000	1	1
653.339	1	8
653.678	1	4
654.017	1	-8
654.356	1	-11
654.695	1	2
655.034	1	10
655.373	1	5
655.712	1	-1
656.051	1	-11
656.390	1	2
656.729	1	0
657.068	1	3
657.406	1	6
657.745	1	3
658.084	1	2
658.423	1	7
658.762	1	0
659.101	1	14
659.440	1	3
659.779	1	3
660.118	1	0
660.457	1	4
660.796	1	-8
661.135	1	5
661.474	1	-4
661.813	1	12
662.152	1	7
662.491	1	-1
662.829	1	-3
663.168	1	0
663.507	1	6
663.846	1	-5
664.185	1	6
664.524	1	2
664.863	1	1
665.202	1	-4
665.541	1	-12
665.879	1	-5
666.218	1	-9
666.557	1	6
666.896	1	-10
667.235	1	4
667.574	1	-2
667.913	1	6
668.251	1	-8
668.590	1	-7
668.929	1	-2
669.268	1	-10
669.607	1	-4
669.946	1	1
670.285	1	7
670.623	1	3
670.962	1	2
671.301	1	0
671.640	1	3
671.979	1	4
672.317	1	4
672.656	1	-1
672.995	1	5
673.334	1	-3
673.673	1	0
674.011	1	-9
674.350	1	5
674.689	1	-2
675.028	1	-2
675.367	1	2
675.705	1	16
676.044	1	5
676.383	1	10
676.722	1	-3
677.060	1	1
677.399	1	-1
677.738	1	3
678.077	1	7
678.416	1	2
678.754	1	0
679.093	1	-1
679.432	1	10
679.771	1	-1
680.109	1	14
680.448	1	4
680.787	1	2
681.125	1	6
681.464	1	1
681.803	1	-7
682.142	1	10
682.480	1	10
682.819	1	9
683.158	1	0
683.496	1	5
683.835	1	7
684.174	1	3
684.512	1	1
684.851	1	8
685.190	1	1
685.529	1	5
685.867	1	6
686.206	1	0
686.545	1	1
686.883	1	10
687.222	1	4
687.561	1	5
687.899	1	-4
688.238	1	2
688.577	1	7
688.746	1	-11