File: Data/GaN_200K_800ms/GaN_sample F_spot 12_UVVIS_200 K_200um_800 ms 2x2mm1_431.txt
340.368	1	8
340.710	1	0
341.052	1	5
341.394	1	-7
341.737	1	0
342.079	1	-11
342.421	1	-3
342.763	1	4
343.105	1	-7
343.447	1	-4
343.789	1	4
344.131	1	-13
344.473	1	2
344.815	1	4
345.157	1	-8
345.499	1	1
345.841	1	-1
346.183	1	-3
346.526	1	-2
346.868	1	-1
347.210	1	-10
347.552	1	-7
347.894	1	-1
348.236	1	7
348.578	1	-2
348.920	1	0
349.262	1	-11
349.604	1	1
349.946	1	-9
350.288	1	-1
350.630	1	1
350.972	1	-5
351.314	1	-3
351.656	1	2
351.998	1	7
352.340	1	-2
352.682	1	5
353.024	1	-1
353.366	1	5
353.708	1	4
354.050	1	-2
354.392	1	-10
354.734	1	7
355.076	1	-3
355.418	1	-10
355.760	1	-4
356.102	1	8
356.444	1	1
356.785	1	6
357.127	1	-16
357.469	1	-2
357.811	1	-8
358.153	1	1
358.495	1	4
358.837	1	-6
359.179	1	-2
359.521	1	5
359.863	1	2
360.205	1	4
360.547	1	-3
360.889	1	-2
361.231	1	-6
361.572	1	-1
361.914	1	4
362.256	1	1
362.598	1	-3
362.940	1	-5
363.282	1	8
363.624	1	14
363.966	1	0
364.308	1	4
364.649	1	8
364.991	1	10
365.333	1	3
365.675	1	6
366.017	1	3
366.359	1	1
366.701	1	8
367.042	1	5
367.384	1	6
367.726	1	0
368.068	1	14
368.410	1	14
368.752	1	3
369.093	1	0
369.435	1	19
369.777	1	3
370.119	1	4
370.461	1	21
370.803	1	8
371.144	1	3
371.486	1	9
371.828	1	15
372.170	1	8
372.512	1	-8
372.853	1	5
373.195	1	5
373.537	1	3
373.879	1	0
374.220	1	22
374.562	1	9
374.904	1	3
375.246	1	10
375.588	1	7
375.929	1	10
376.271	1	5
376.613	1	3
376.955	1	3
377.296	1	6
377.638	1	-2
377.980	1	2
378.321	1	-16
378.663	1	2
379.005	1	4
379.347	1	6
379.688	1	5
380.030	1	0
380.372	1	2
380.714	1	10
381.055	1	-4
381.397	1	7
381.739	1	12
382.080	1	1
382.422	1	1
382.764	1	-3
383.105	1	-14
383.447	1	1
383.789	1	-1
384.130	1	4
384.472	1	4
384.814	1	-9
385.156	1	-12
385.497	1	2
385.839	1	4
386.180	1	-2
386.522	1	4
386.864	1	2
387.205	1	1
387.547	1	2
387.889	1	-6
388.230	1	12
388.572	1	-13
388.914	1	4
389.255	1	-9
389.597	1	9
389.939	1	2
390.280	1	-6
390.622	1	-11
390.963	1	7
391.305	1	7
391.647	1	5
391.988	1	-1
392.330	1	3
392.671	1	3
393.013	1	0
393.355	1	7
393.696	1	6
394.038	1	-6
394.379	1	12
394.721	1	-5
395.062	1	-1
395.404	1	0
395.746	1	2
396.087	1	-1
396.429	1	3
396.770	1	-8
397.112	1	8
397.453	1	9
397.795	1	-10
398.136	1	0
398.478	1	8
398.819	1	-4
399.161	1	2
399.503	1	-1
399.844	1	-1
400.186	1	3
400.527	1	-10
400.869	1	-8
401.210	1	-8
401.552	1	-7
401.893	1	4
402.235	1	-8
402.576	1	-8
402.918	1	9
403.259	1	2
403.601	1	-3
403.942	1	7
404.284	1	12
404.625	1	6
404.967	1	8
405.308	1	3
405.649	1	2
405.991	1	-4
406.332	1	3
406.674	1	-7
407.015	1	3
407.357	1	-1
407.698	1	-6
408.040	1	-7
408.381	1	8
408.722	1	-13
409.064	1	3
409.405	1	2
409.747	1	-7
410.088	1	-11
410.430	1	1
410.771	1	-1
411.112	1	-5
411.454	1	-7
411.795	1	-5
412.137	1	-4
412.478	1	3
412.819	1	2
413.161	1	-8
413.502	1	-7
413.844	1	0
414.185	1	6
414.526	1	-2
414.868	1	2
415.209	1	-10
415.550	1	-7
415.892	1	0
416.233	1	7
416.575	1	15
416.916	1	0
417.257	1	-6
417.599	1	7
417.940	1	4
418.281	1	4
418.623	1	-6
418.964	1	-12
419.305	1	5
419.647	1	-6
419.988	1	2
420.329	1	-14
420.671	1	-5
421.012	1	-3
421.353	1	3
421.695	1	-2
422.036	1	-9
422.377	1	-3
422.718	1	8
423.060	1	-6
423.401	1	-4
423.742	1	-2
424.084	1	-6
424.425	1	0
424.766	1	-13
425.107	1	-11
425.449	1	-9
425.790	1	-8
426.131	1	3
426.472	1	-5
426.814	1	-1
427.155	1	-11
427.496	1	-3
427.837	1	-7
428.179	1	-7
428.520	1	4
428.861	1	-4
429.202	1	1
429.544	1	-7
429.885	1	-6
430.226	1	-8
430.567	1	-1
430.909	1	4
431.250	1	4
431.591	1	7
431.932	1	-2
432.273	1	-7
432.615	1	-5
432.956	1	1
433.297	1	2
433.638	1	-7
433.979	1	-3
434.320	1	0
434.662	1	0
435.003	1	8
435.344	1	2
435.685	1	-2
436.026	1	9
436.368	1	-1
436.709	1	5
437.050	1	4
437.391	1	8
437.732	1	-10
438.073	1	0
438.414	1	-11
438.756	1	-3
439.097	1	-10
439.438	1	5
439.779	1	-5
440.120	1	-5
440.461	1	2
440.802	1	0
441.143	1	8
441.485	1	6
441.826	1	-4
442.167	1	3
442.508	1	-4
442.849	1	1
443.190	1	4
443.531	1	1
443.872	1	10
444.213	1	2
444.554	1	6
444.895	1	-3
445.237	1	1
445.578	1	-5
445.919	1	-11
446.260	1	-7
446.601	1	3
446.942	1	-2
447.283	1	-10
447.624	1	3
447.965	1	5
448.306	1	-1
448.647	1	-7
448.988	1	1
449.329	1	5
449.670	1	9
450.011	1	1
450.352	1	-5
450.693	1	-6
451.034	1	-5
451.375	1	0
451.716	1	-1
452.057	1	5
452.398	1	-1
452.739	1	6
453.080	1	-6
453.421	1	-7
453.762	1	-5
454.103	1	-4
454.444	1	-7
454.785	1	-3
455.126	1	2
455.467	1	-4
455.808	1	1
456.149	1	0
456.490	1	-3
456.831	1	3
457.172	1	0
457.513	1	8
457.854	1	-7
458.195	1	-13
458.536	1	-1
458.877	1	-2
459.218	1	-7
459.559	1	4
459.899	1	-7
460.240	1	-7
460.581	1	9
460.922	1	3
461.263	1	-4
461.604	1	-5
461.945	1	-4
462.286	1	-4
462.627	1	-3
462.968	1	6
463.309	1	-2
463.649	1	-1
463.990	1	-6
464.331	1	-4
464.672	1	7
465.013	1	2
465.354	1	2
465.695	1	-4
466.036	1	-10
466.376	1	-11
466.717	1	7
467.058	1	-2
467.399	1	0
467.740	1	-2
468.081	1	6
468.422	1	-11
468.762	1	-9
469.103	1	-5
469.444	1	-10
469.785	1	-12
470.126	1	-11
470.467	1	-4
470.807	1	0
471.148	1	10
471.489	1	-7
471.830	1	-3
472.171	1	9
472.511	1	2
472.852	1	-3
473.193	1	8
473.534	1	4
473.875	1	5
474.215	1	6
474.556	1	-2
474.897	1	0
475.238	1	1
475.578	1	-12
475.919	1	-2
476.260	1	2
476.601	1	-4
476.942	1	-3
477.282	1	-4
477.623	1	-12
477.964	1	-6
478.305	1	-11
478.645	1	17
478.986	1	-5
479.327	1	-13
479.667	1	1
480.008	1	-2
480.349	1	0
480.690	1	1
481.030	1	-5
481.371	1	6
481.712	1	-4
482.053	1	-6
482.393	1	-6
482.734	1	-9
483.075	1	-10
483.415	1	-1
483.756	1	11
484.097	1	-4
484.437	1	-4
484.778	1	-1
485.119	1	-5
485.459	1	5
485.800	1	-7
486.141	1	-7
486.481	1	0
486.822	1	9
487.163	1	1
487.503	1	-5
487.844	1	-6
488.185	1	1
488.525	1	-4
488.866	1	6
489.207	1	0
489.547	1	-2
489.888	1	1
490.228	1	8
490.569	1	13
490.910	1	9
491.250	1	2
491.591	1	-7
491.932	1	-3
492.272	1	2
492.613	1	-2
492.953	1	-10
493.294	1	-7
493.635	1	-5
493.975	1	-13
494.316	1	1
494.656	1	-7
494.997	1	-5
495.337	1	5
495.678	1	-3
496.019	1	1
496.359	1	-11
496.700	1	1
497.040	1	1
497.381	1	-1
497.721	1	-1
498.062	1	-2
498.403	1	4
498.743	1	-8
499.084	1	-3
499.424	1	1
499.765	1	-1
500.105	1	2
500.446	1	-6
500.786	1	-1
501.127	1	2
501.467	1	0
501.808	1	-8
502.148	1	-2
502.489	1	2
502.829	1	-4
503.170	1	12
503.510	1	6
503.851	1	-8
504.191	1	2
504.532	1	3
504.872	1	1
505.213	1	5
505.553	1	-4
505.894	1	-9
506.234	1	0
506.575	1	8
506.915	1	-1
507.256	1	1
507.596	1	-2
507.936	1	3
508.277	1	0
508.617	1	5
508.958	1	-9
509.298	1	0
509.639	1	2
509.979	1	-4
510.319	1	2
510.660	1	-3
511.000	1	-4
511.341	1	0
511.681	1	12
512.022	1	-6
512.362	1	-2
512.702	1	-6
513.043	1	11
513.383	1	-14
513.724	1	3
514.064	1	2
514.404	1	3
514.745	1	-3
515.085	1	-7
515.425	1	-8
515.766	1	-5
516.106	1	-6
516.447	1	2
516.787	1	-2
517.127	1	-3
517.468	1	-1
517.808	1	-9
518.148	1	4
518.489	1	-6
518.829	1	-2
519.169	1	-4
519.510	1	-4
519.850	1	-1
520.190	1	-4
520.531	1	8
520.871	1	4
521.211	1	-8
521.552	1	9
521.892	1	3
522.232	1	1
522.573	1	-4
522.913	1	-5
523.253	1	-1
523.593	1	-3
523.934	1	8
524.274	1	-4
524.614	1	-3
524.955	1	-3
525.295	1	-4
525.635	1	0
525.975	1	0
526.316	1	13
526.656	1	-2
526.996	1	6
527.337	1	7
527.677	1	8
528.017	1	-13
528.357	1	0
528.698	1	2
529.038	1	2
529.378	1	6
529.718	1	3
530.058	1	1
530.399	1	9
530.739	1	5
531.079	1	3
531.419	1	4
531.760	1	6
532.100	1	-3
532.440	1	1
532.780	1	-2
533.120	1	4
533.461	1	-7
533.801	1	14
534.141	1	-6
534.481	1	-3
534.821	1	4
535.162	1	-2
535.502	1	6
535.842	1	5
536.182	1	-4
536.522	1	-6
536.862	1	7
537.203	1	-6
537.543	1	2
537.883	1	-2
538.223	1	-11
538.563	1	6
538.903	1	-8
539.243	1	-4
539.584	1	-2
539.924	1	1
540.264	1	-11
540.604	1	5
540.944	1	4
541.284	1	3
541.624	1	3
541.964	1	5
542.305	1	-1
542.645	1	-6
542.985	1	-4
543.325	1	-1
543.665	1	7
544.005	1	3
544.345	1	6
544.685	1	-9
545.025	1	-3
545.365	1	-9
545.705	1	-2
546.045	1	-10
546.386	1	6
546.726	1	-7
547.066	1	6
547.406	1	7
547.746	1	-5
548.086	1	-2
548.426	1	-6
548.766	1	2
549.106	1	2
549.446	1	10
549.786	1	-8
550.126	1	10
550.466	1	5
550.806	1	-4
551.146	1	-6
551.486	1	-4
551.826	1	3
552.166	1	-5
552.506	1	6
552.846	1	1
553.186	1	11
553.526	1	-4
553.866	1	8
554.206	1	3
554.546	1	7
554.886	1	3
555.226	1	-4
555.566	1	1
555.906	1	5
556.246	1	10
556.586	1	-4
556.926	1	-1
557.266	1	-6
557.606	1	12
557.946	1	10
558.286	1	2
558.626	1	-3
558.966	1	-3
559.306	1	-4
559.646	1	-4
559.986	1	-3
560.325	1	-8
560.665	1	0
561.005	1	-6
561.345	1	-2
561.685	1	1
562.025	1	4
562.365	1	4
562.705	1	6
563.045	1	-7
563.385	1	-7
563.725	1	-2
564.064	1	1
564.404	1	8
564.744	1	7
565.084	1	2
565.424	1	-1
565.764	1	-5
566.104	1	5
566.444	1	-7
566.783	1	-3
567.123	1	0
567.463	1	5
567.803	1	-8
568.143	1	1
568.483	1	6
568.823	1	5
569.162	1	2
569.502	1	-7
569.842	1	7
570.182	1	3
570.522	1	-12
570.862	1	-3
571.201	1	1
571.541	1	9
571.881	1	10
572.221	1	3
572.561	1	-5
572.900	1	-8
573.240	1	-6
573.580	1	5
573.920	1	6
574.260	1	6
574.599	1	5
574.939	1	0
575.279	1	2
575.619	1	3
575.959	1	-7
576.298	1	-5
576.638	1	-3
576.978	1	1
577.318	1	10
577.657	1	-3
577.997	1	-4
578.337	1	6
578.677	1	8
579.016	1	15
579.356	1	-9
579.696	1	-2
580.036	1	-9
580.375	1	4
580.715	1	7
581.055	1	3
581.394	1	2
581.734	1	-3
582.074	1	-5
582.414	1	5
582.753	1	-6
583.093	1	4
583.433	1	0
583.772	1	10
584.112	1	2
584.452	1	1
584.791	1	-2
585.131	1	-2
585.471	1	11
585.811	1	9
586.150	1	-2
586.490	1	4
586.830	1	3
587.169	1	5
587.509	1	-4
587.849	1	5
588.188	1	10
588.528	1	7
588.867	1	1
589.207	1	-12
589.547	1	1
589.886	1	-10
590.226	1	0
590.566	1	-7
590.905	1	-6
591.245	1	-4
591.585	1	6
591.924	1	1
592.264	1	-12
592.603	1	3
592.943	1	1
593.283	1	6
593.622	1	-8
593.962	1	3
594.301	1	8
594.641	1	0
594.981	1	-6
595.320	1	-4
595.660	1	-7
595.999	1	-10
596.339	1	7
596.678	1	-2
597.018	1	-6
597.358	1	4
597.697	1	-4
598.037	1	2
598.376	1	-5
598.716	1	7
599.055	1	9
599.395	1	3
599.734	1	0
600.074	1	-3
600.413	1	5
600.753	1	-5
601.092	1	10
601.432	1	-1
601.771	1	-3
602.111	1	-1
602.451	1	3
602.790	1	2
603.130	1	9
603.469	1	-6
603.809	1	-4
604.148	1	-3
604.487	1	-3
604.827	1	9
605.166	1	5
605.506	1	1
605.845	1	0
606.185	1	6
606.524	1	-8
606.864	1	-7
607.203	1	-7
607.543	1	2
607.882	1	8
608.222	1	5
608.561	1	1
608.901	1	8
609.240	1	4
609.579	1	-1
609.919	1	16
610.258	1	0
610.598	1	-5
610.937	1	10
611.277	1	-4
611.616	1	-7
611.955	1	-1
612.295	1	0
612.634	1	6
612.974	1	-16
613.313	1	6
613.652	1	1
613.992	1	-7
614.331	1	5
614.671	1	3
615.010	1	-5
615.349	1	2
615.689	1	16
616.028	1	0
616.368	1	3
616.707	1	4
617.046	1	0
617.386	1	-2
617.725	1	5
618.064	1	-7
618.404	1	-9
618.743	1	4
619.082	1	-2
619.422	1	-6
619.761	1	4
620.100	1	4
620.440	1	-4
620.779	1	-2
621.118	1	0
621.458	1	2
621.797	1	-4
622.136	1	5
622.476	1	-3
622.815	1	2
623.154	1	-6
623.494	1	12
623.833	1	7
624.172	1	0
624.511	1	-4
624.851	1	-5
625.190	1	0
625.529	1	-1
625.869	1	9
626.208	1	3
626.547	1	2
626.886	1	6
627.226	1	-5
627.565	1	4
627.904	1	5
628.243	1	8
628.583	1	2
628.922	1	-2
629.261	1	1
629.600	1	14
629.940	1	-3
630.279	1	-12
630.618	1	1
630.957	1	4
631.297	1	-2
631.636	1	-5
631.975	1	15
632.314	1	-6
632.653	1	2
632.993	1	-4
633.332	1	5
633.671	1	-5
634.010	1	-14
634.349	1	5
634.689	1	-1
635.028	1	-1
635.367	1	-5
635.706	1	-3
636.045	1	7
636.384	1	-1
636.724	1	5
637.063	1	-11
637.402	1	1
637.741	1	-5
638.080	1	-1
638.419	1	-5
638.759	1	-2
639.098	1	-2
639.437	1	-8
639.776	1	-10
640.115	1	0
640.454	1	-2
640.793	1	9
641.132	1	-1
641.472	1	-1
641.811	1	2
642.150	1	-15
642.489	1	8
642.828	1	-1
643.167	1	0
643.506	1	-8
643.845	1	-5
644.184	1	3
644.524	1	-14
644.863	1	-11
645.202	1	-4
645.541	1	2
645.880	1	5
646.219	1	4
646.558	1	0
646.897	1	7
647.236	1	2
647.575	1	10
647.914	1	-13
648.253	1	6
648.592	1	-1
648.931	1	11
649.270	1	-6
649.610	1	3
649.949	1	-3
650.288	1	1
650.627	1	2
650.966	1	-1
651.305	1	-11
651.644	1	10
651.983	1	-6
652.322	1	-8
652.661	1	-2
653.000	1	-2
653.339	1	6
653.678	1	3
654.017	1	-8
654.356	1	-7
654.695	1	3
655.034	1	2
655.373	1	2
655.712	1	-2
656.051	1	-8
656.390	1	-7
656.729	1	4
657.068	1	-3
657.406	1	-2
657.745	1	-4
658.084	1	-3
658.423	1	5
658.762	1	-5
659.101	1	4
659.440	1	-2
659.779	1	4
660.118	1	3
660.457	1	0
660.796	1	-5
661.135	1	-5
661.474	1	-7
661.813	1	7
662.152	1	3
662.491	1	-6
662.829	1	0
663.168	1	4
663.507	1	10
663.846	1	-2
664.185	1	-2
664.524	1	-5
664.863	1	-1
665.202	1	7
665.541	1	-10
665.879	1	-8
666.218	1	-3
666.557	1	-4
666.896	1	-10
667.235	1	4
667.574	1	-4
667.913	1	-5
668.251	1	-11
668.590	1	1
668.929	1	-14
669.268	1	-3
669.607	1	0
669.946	1	4
670.285	1	1
670.623	1	-1
670.962	1	-7
671.301	1	-12
671.640	1	2
671.979	1	-6
672.317	1	5
672.656	1	-1
672.995	1	9
673.334	1	-9
673.673	1	-3
674.011	1	-3
674.350	1	0
674.689	1	-8
675.028	1	-5
675.367	1	-7
675.705	1	2
676.044	1	-8
676.383	1	1
676.722	1	-3
677.060	1	-3
677.399	1	-6
677.738	1	9
678.077	1	12
678.416	1	1
678.754	1	-14
679.093	1	7
679.432	1	-3
679.771	1	3
680.109	1	8
680.448	1	3
680.787	1	-6
681.125	1	4
681.464	1	-1
681.803	1	-12
682.142	1	5
682.480	1	11
682.819	1	0
683.158	1	-9
683.496	1	3
683.835	1	6
684.174	1	-14
684.512	1	3
684.851	1	0
685.190	1	1
685.529	1	-6
685.867	1	8
686.206	1	-1
686.545	1	-6
686.883	1	-11
687.222	1	7
687.561	1	10
687.899	1	3
688.238	1	11
688.577	1	-6
688.746	1	-8