File: Data/GaN_200K_800ms/GaN_sample F_spot 12_UVVIS_200 K_200um_800 ms 2x2mm1_520.txt
340.368	1	10
340.710	1	-8
341.052	1	3
341.394	1	-3
341.737	1	4
342.079	1	-8
342.421	1	-6
342.763	1	8
343.105	1	4
343.447	1	-5
343.789	1	-3
344.131	1	-7
344.473	1	-2
344.815	1	-4
345.157	1	-5
345.499	1	0
345.841	1	8
346.183	1	-17
346.526	1	-6
346.868	1	5
347.210	1	-10
347.552	1	-6
347.894	1	-3
348.236	1	3
348.578	1	-4
348.920	1	1
349.262	1	2
349.604	1	3
349.946	1	-7
350.288	1	8
350.630	1	-3
350.972	1	2
351.314	1	5
351.656	1	3
351.998	1	0
352.340	1	4
352.682	1	11
353.024	1	8
353.366	1	0
353.708	1	-5
354.050	1	-5
354.392	1	-15
354.734	1	3
355.076	1	-6
355.418	1	-10
355.760	1	-9
356.102	1	9
356.444	1	6
356.785	1	11
357.127	1	0
357.469	1	1
357.811	1	3
358.153	1	3
358.495	1	5
358.837	1	-10
359.179	1	2
359.521	1	6
359.863	1	-1
360.205	1	-2
360.547	1	3
360.889	1	-4
361.231	1	-13
361.572	1	3
361.914	1	3
362.256	1	-3
362.598	1	-12
362.940	1	4
363.282	1	5
363.624	1	11
363.966	1	-1
364.308	1	-8
364.649	1	-1
364.991	1	8
365.333	1	-2
365.675	1	-12
366.017	1	3
366.359	1	-7
366.701	1	2
367.042	1	7
367.384	1	5
367.726	1	9
368.068	1	11
368.410	1	18
368.752	1	-2
369.093	1	0
369.435	1	11
369.777	1	14
370.119	1	4
370.461	1	17
370.803	1	10
371.144	1	0
371.486	1	2
371.828	1	12
372.170	1	10
372.512	1	-8
372.853	1	8
373.195	1	5
373.537	1	11
373.879	1	1
374.220	1	15
374.562	1	16
374.904	1	3
375.246	1	-2
375.588	1	-1
375.929	1	6
376.271	1	12
376.613	1	7
376.955	1	-3
377.296	1	-12
377.638	1	-3
377.980	1	-5
378.321	1	-10
378.663	1	-9
379.005	1	15
379.347	1	8
379.688	1	0
380.030	1	-6
380.372	1	3
380.714	1	7
381.055	1	14
381.397	1	-2
381.739	1	9
382.080	1	0
382.422	1	10
382.764	1	-7
383.105	1	-2
383.447	1	3
383.789	1	-2
384.130	1	-11
384.472	1	0
384.814	1	-7
385.156	1	-4
385.497	1	10
385.839	1	2
386.180	1	5
386.522	1	3
386.864	1	4
387.205	1	-13
387.547	1	2
387.889	1	-2
388.230	1	14
388.572	1	-9
388.914	1	-4
389.255	1	-10
389.597	1	-2
389.939	1	2
390.280	1	-12
390.622	1	3
390.963	1	2
391.305	1	4
391.647	1	-4
391.988	1	0
392.330	1	1
392.671	1	-7
393.013	1	2
393.355	1	9
393.696	1	-2
394.038	1	1
394.379	1	0
394.721	1	-3
395.062	1	-5
395.404	1	-6
395.746	1	0
396.087	1	1
396.429	1	2
396.770	1	-5
397.112	1	7
397.453	1	7
397.795	1	2
398.136	1	-6
398.478	1	-2
398.819	1	-4
399.161	1	10
399.503	1	7
399.844	1	-5
400.186	1	-5
400.527	1	-8
400.869	1	-1
401.210	1	-3
401.552	1	-16
401.893	1	-7
402.235	1	-3
402.576	1	-2
402.918	1	6
403.259	1	2
403.601	1	-2
403.942	1	9
404.284	1	10
404.625	1	-6
404.967	1	-5
405.308	1	2
405.649	1	-4
405.991	1	-8
406.332	1	2
406.674	1	-12
407.015	1	-4
407.357	1	-6
407.698	1	-4
408.040	1	-9
408.381	1	5
408.722	1	-13
409.064	1	0
409.405	1	6
409.747	1	-3
410.088	1	-3
410.430	1	8
410.771	1	-6
411.112	1	-5
411.454	1	-6
411.795	1	3
412.137	1	3
412.478	1	5
412.819	1	-2
413.161	1	-4
413.502	1	-4
413.844	1	3
414.185	1	3
414.526	1	-1
414.868	1	-6
415.209	1	5
415.550	1	-14
415.892	1	1
416.233	1	6
416.575	1	10
416.916	1	0
417.257	1	4
417.599	1	-4
417.940	1	6
418.281	1	1
418.623	1	-2
418.964	1	-5
419.305	1	7
419.647	1	-5
419.988	1	3
420.329	1	-6
420.671	1	2
421.012	1	5
421.353	1	-2
421.695	1	-1
422.036	1	-1
422.377	1	-2
422.718	1	3
423.060	1	0
423.401	1	-13
423.742	1	-4
424.084	1	0
424.425	1	2
424.766	1	-12
425.107	1	-5
425.449	1	-3
425.790	1	-9
426.131	1	1
426.472	1	-3
426.814	1	-1
427.155	1	-9
427.496	1	-11
427.837	1	1
428.179	1	-12
428.520	1	-2
428.861	1	-1
429.202	1	5
429.544	1	-6
429.885	1	1
430.226	1	-8
430.567	1	-3
430.909	1	3
431.250	1	-3
431.591	1	6
431.932	1	-8
432.273	1	-16
432.615	1	-8
432.956	1	-7
433.297	1	-3
433.638	1	-6
433.979	1	-4
434.320	1	-8
434.662	1	8
435.003	1	0
435.344	1	-5
435.685	1	-8
436.026	1	7
436.368	1	5
436.709	1	0
437.050	1	1
437.391	1	7
437.732	1	-7
438.073	1	6
438.414	1	-6
438.756	1	-8
439.097	1	-10
439.438	1	1
439.779	1	-7
440.120	1	-1
440.461	1	9
440.802	1	4
441.143	1	2
441.485	1	2
441.826	1	4
442.167	1	-2
442.508	1	-5
442.849	1	6
443.190	1	-1
443.531	1	6
443.872	1	2
444.213	1	-2
444.554	1	6
444.895	1	-13
445.237	1	-7
445.578	1	-15
445.919	1	-6
446.260	1	-8
446.601	1	-3
446.942	1	-4
447.283	1	-1
447.624	1	-3
447.965	1	-1
448.306	1	-2
448.647	1	-4
448.988	1	0
449.329	1	-3
449.670	1	3
450.011	1	6
450.352	1	-10
450.693	1	-3
451.034	1	-3
451.375	1	1
451.716	1	0
452.057	1	2
452.398	1	-3
452.739	1	0
453.080	1	-5
453.421	1	-1
453.762	1	6
454.103	1	0
454.444	1	-7
454.785	1	-6
455.126	1	-9
455.467	1	3
455.808	1	2
456.149	1	1
456.490	1	3
456.831	1	3
457.172	1	-6
457.513	1	3
457.854	1	-2
458.195	1	-9
458.536	1	5
458.877	1	-5
459.218	1	-3
459.559	1	4
459.899	1	0
460.240	1	5
460.581	1	7
460.922	1	-7
461.263	1	-4
461.604	1	-7
461.945	1	-1
462.286	1	1
462.627	1	2
462.968	1	3
463.309	1	-6
463.649	1	-6
463.990	1	2
464.331	1	2
464.672	1	0
465.013	1	-11
465.354	1	-4
465.695	1	-3
466.036	1	-11
466.376	1	-10
466.717	1	4
467.058	1	2
467.399	1	9
467.740	1	-1
468.081	1	9
468.422	1	-11
468.762	1	-2
469.103	1	-7
469.444	1	-8
469.785	1	-11
470.126	1	-15
470.467	1	-6
470.807	1	4
471.148	1	3
471.489	1	-1
471.830	1	-5
472.171	1	0
472.511	1	-10
472.852	1	-7
473.193	1	0
473.534	1	5
473.875	1	4
474.215	1	9
474.556	1	-3
474.897	1	7
475.238	1	-4
475.578	1	-5
475.919	1	-3
476.260	1	-7
476.601	1	-8
476.942	1	7
477.282	1	-5
477.623	1	-4
477.964	1	-10
478.305	1	4
478.645	1	9
478.986	1	-3
479.327	1	-11
479.667	1	-2
480.008	1	0
480.349	1	-11
480.690	1	4
481.030	1	-4
481.371	1	2
481.712	1	-5
482.053	1	-1
482.393	1	3
482.734	1	-5
483.075	1	-5
483.415	1	-5
483.756	1	2
484.097	1	-1
484.437	1	-3
484.778	1	-5
485.119	1	-3
485.459	1	14
485.800	1	7
486.141	1	-6
486.481	1	2
486.822	1	1
487.163	1	0
487.503	1	4
487.844	1	0
488.185	1	4
488.525	1	-1
488.866	1	-2
489.207	1	-5
489.547	1	-11
489.888	1	-1
490.228	1	3
490.569	1	15
490.910	1	8
491.250	1	-4
491.591	1	-3
491.932	1	-2
492.272	1	13
492.613	1	-4
492.953	1	-5
493.294	1	-3
493.635	1	0
493.975	1	2
494.316	1	0
494.656	1	-8
494.997	1	1
495.337	1	4
495.678	1	2
496.019	1	0
496.359	1	-2
496.700	1	-3
497.040	1	-3
497.381	1	-3
497.721	1	-4
498.062	1	1
498.403	1	-2
498.743	1	-7
499.084	1	-6
499.424	1	0
499.765	1	-6
500.105	1	3
500.446	1	-15
500.786	1	-5
501.127	1	6
501.467	1	0
501.808	1	-1
502.148	1	8
502.489	1	-3
502.829	1	-5
503.170	1	2
503.510	1	-2
503.851	1	-4
504.191	1	11
504.532	1	2
504.872	1	-1
505.213	1	-1
505.553	1	-10
505.894	1	-5
506.234	1	5
506.575	1	5
506.915	1	12
507.256	1	-5
507.596	1	5
507.936	1	-3
508.277	1	-1
508.617	1	-7
508.958	1	-8
509.298	1	-7
509.639	1	-6
509.979	1	0
510.319	1	-3
510.660	1	-5
511.000	1	-2
511.341	1	4
511.681	1	7
512.022	1	-7
512.362	1	4
512.702	1	-2
513.043	1	6
513.383	1	-4
513.724	1	-4
514.064	1	5
514.404	1	-3
514.745	1	-4
515.085	1	-3
515.425	1	-6
515.766	1	-16
516.106	1	0
516.447	1	0
516.787	1	5
517.127	1	0
517.468	1	-4
517.808	1	-1
518.148	1	4
518.489	1	-4
518.829	1	-6
519.169	1	-2
519.510	1	3
519.850	1	2
520.190	1	-2
520.531	1	-4
520.871	1	-3
521.211	1	-6
521.552	1	-1
521.892	1	2
522.232	1	1
522.573	1	-4
522.913	1	-1
523.253	1	1
523.593	1	-2
523.934	1	-2
524.274	1	4
524.614	1	-6
524.955	1	-3
525.295	1	2
525.635	1	3
525.975	1	-2
526.316	1	17
526.656	1	4
526.996	1	1
527.337	1	0
527.677	1	5
528.017	1	-5
528.357	1	2
528.698	1	-12
529.038	1	4
529.378	1	8
529.718	1	7
530.058	1	1
530.399	1	1
530.739	1	8
531.079	1	0
531.419	1	0
531.760	1	4
532.100	1	-5
532.440	1	-4
532.780	1	-3
533.120	1	5
533.461	1	3
533.801	1	4
534.141	1	-5
534.481	1	-10
534.821	1	7
535.162	1	0
535.502	1	-6
535.842	1	2
536.182	1	-3
536.522	1	-10
536.862	1	0
537.203	1	-4
537.543	1	-1
537.883	1	7
538.223	1	0
538.563	1	0
538.903	1	-11
539.243	1	-7
539.584	1	-2
539.924	1	1
540.264	1	-11
540.604	1	-2
540.944	1	-2
541.284	1	6
541.624	1	7
541.964	1	9
542.305	1	8
542.645	1	-2
542.985	1	-1
543.325	1	-2
543.665	1	14
544.005	1	4
544.345	1	0
544.685	1	0
545.025	1	2
545.365	1	-5
545.705	1	-3
546.045	1	-9
546.386	1	6
546.726	1	-9
547.066	1	3
547.406	1	-7
547.746	1	-16
548.086	1	-1
548.426	1	-11
548.766	1	3
549.106	1	-3
549.446	1	-2
549.786	1	-6
550.126	1	10
550.466	1	0
550.806	1	1
551.146	1	-8
551.486	1	-5
551.826	1	-6
552.166	1	-1
552.506	1	7
552.846	1	-5
553.186	1	-1
553.526	1	-10
553.866	1	-1
554.206	1	19
554.546	1	-2
554.886	1	0
555.226	1	-4
555.566	1	6
555.906	1	-5
556.246	1	-2
556.586	1	-5
556.926	1	4
557.266	1	2
557.606	1	4
557.946	1	6
558.286	1	10
558.626	1	2
558.966	1	3
559.306	1	-4
559.646	1	6
559.986	1	-6
560.325	1	-5
560.665	1	-7
561.005	1	-6
561.345	1	-3
561.685	1	-2
562.025	1	2
562.365	1	7
562.705	1	5
563.045	1	-11
563.385	1	-4
563.725	1	-9
564.064	1	-6
564.404	1	0
564.744	1	5
565.084	1	-4
565.424	1	2
565.764	1	10
566.104	1	-1
566.444	1	-10
566.783	1	-8
567.123	1	2
567.463	1	2
567.803	1	-12
568.143	1	5
568.483	1	4
568.823	1	-1
569.162	1	6
569.502	1	-9
569.842	1	3
570.182	1	5
570.522	1	-10
570.862	1	-4
571.201	1	11
571.541	1	9
571.881	1	9
572.221	1	-5
572.561	1	-4
572.900	1	-4
573.240	1	5
573.580	1	-2
573.920	1	-3
574.260	1	6
574.599	1	-4
574.939	1	0
575.279	1	12
575.619	1	4
575.959	1	-13
576.298	1	1
576.638	1	-6
576.978	1	5
577.318	1	8
577.657	1	-8
577.997	1	-1
578.337	1	10
578.677	1	0
579.016	1	5
579.356	1	-3
579.696	1	1
580.036	1	1
580.375	1	9
580.715	1	-1
581.055	1	-2
581.394	1	-8
581.734	1	-16
582.074	1	-11
582.414	1	8
582.753	1	-8
583.093	1	0
583.433	1	-2
583.772	1	10
584.112	1	2
584.452	1	5
584.791	1	-4
585.131	1	-3
585.471	1	5
585.811	1	3
586.150	1	-1
586.490	1	1
586.830	1	4
587.169	1	1
587.509	1	-5
587.849	1	3
588.188	1	9
588.528	1	9
588.867	1	5
589.207	1	-7
589.547	1	2
589.886	1	-11
590.226	1	4
590.566	1	-1
590.905	1	-3
591.245	1	-7
591.585	1	7
591.924	1	-5
592.264	1	8
592.603	1	-3
592.943	1	4
593.283	1	-8
593.622	1	0
593.962	1	3
594.301	1	7
594.641	1	-6
594.981	1	-5
595.320	1	0
595.660	1	0
595.999	1	-7
596.339	1	2
596.678	1	-7
597.018	1	-6
597.358	1	4
597.697	1	-2
598.037	1	-3
598.376	1	4
598.716	1	-1
599.055	1	-1
599.395	1	-9
599.734	1	6
600.074	1	-1
600.413	1	7
600.753	1	0
601.092	1	12
601.432	1	-3
601.771	1	0
602.111	1	1
602.451	1	13
602.790	1	-7
603.130	1	1
603.469	1	-7
603.809	1	7
604.148	1	4
604.487	1	-2
604.827	1	9
605.166	1	4
605.506	1	0
605.845	1	4
606.185	1	4
606.524	1	-12
606.864	1	-8
607.203	1	-4
607.543	1	-3
607.882	1	2
608.222	1	7
608.561	1	0
608.901	1	4
609.240	1	-7
609.579	1	-1
609.919	1	9
610.258	1	4
610.598	1	0
610.937	1	9
611.277	1	0
611.616	1	0
611.955	1	-2
612.295	1	-5
612.634	1	-4
612.974	1	-12
613.313	1	6
613.652	1	3
613.992	1	-3
614.331	1	-7
614.671	1	0
615.010	1	-12
615.349	1	2
615.689	1	6
616.028	1	-8
616.368	1	2
616.707	1	-4
617.046	1	-2
617.386	1	7
617.725	1	-7
618.064	1	-8
618.404	1	-1
618.743	1	1
619.082	1	-2
619.422	1	-8
619.761	1	-3
620.100	1	4
620.440	1	3
620.779	1	-17
621.118	1	-8
621.458	1	2
621.797	1	-6
622.136	1	12
622.476	1	9
622.815	1	6
623.154	1	3
623.494	1	4
623.833	1	5
624.172	1	-6
624.511	1	0
624.851	1	-6
625.190	1	-2
625.529	1	0
625.869	1	10
626.208	1	-5
626.547	1	2
626.886	1	0
627.226	1	2
627.565	1	1
627.904	1	-12
628.243	1	-4
628.583	1	-3
628.922	1	7
629.261	1	4
629.600	1	1
629.940	1	2
630.279	1	-5
630.618	1	-1
630.957	1	-12
631.297	1	8
631.636	1	-8
631.975	1	10
632.314	1	-2
632.653	1	-4
632.993	1	-2
633.332	1	0
633.671	1	0
634.010	1	-6
634.349	1	11
634.689	1	10
635.028	1	3
635.367	1	-5
635.706	1	1
636.045	1	4
636.384	1	1
636.724	1	-5
637.063	1	2
637.402	1	3
637.741	1	-1
638.080	1	5
638.419	1	-8
638.759	1	-3
639.098	1	5
639.437	1	9
639.776	1	-15
640.115	1	-7
640.454	1	-3
640.793	1	9
641.132	1	4
641.472	1	11
641.811	1	7
642.150	1	-12
642.489	1	14
642.828	1	-11
643.167	1	-6
643.506	1	-9
643.845	1	2
644.184	1	2
644.524	1	-4
644.863	1	0
645.202	1	-1
645.541	1	-9
645.880	1	-4
646.219	1	2
646.558	1	-2
646.897	1	-2
647.236	1	-2
647.575	1	4
647.914	1	-1
648.253	1	5
648.592	1	-6
648.931	1	5
649.270	1	2
649.610	1	5
649.949	1	1
650.288	1	6
650.627	1	6
650.966	1	-1
651.305	1	0
651.644	1	-4
651.983	1	-1
652.322	1	-6
652.661	1	4
653.000	1	0
653.339	1	7
653.678	1	4
654.017	1	-9
654.356	1	0
654.695	1	1
655.034	1	1
655.373	1	7
655.712	1	-1
656.051	1	-1
656.390	1	-2
656.729	1	5
657.068	1	-1
657.406	1	0
657.745	1	-2
658.084	1	-2
658.423	1	6
658.762	1	-7
659.101	1	3
659.440	1	4
659.779	1	1
660.118	1	-1
660.457	1	1
660.796	1	-15
661.135	1	-2
661.474	1	-5
661.813	1	10
662.152	1	2
662.491	1	-6
662.829	1	0
663.168	1	6
663.507	1	10
663.846	1	-8
664.185	1	9
664.524	1	9
664.863	1	-9
665.202	1	3
665.541	1	-11
665.879	1	-6
666.218	1	-16
666.557	1	4
666.896	1	-2
667.235	1	6
667.574	1	-7
667.913	1	8
668.251	1	-7
668.590	1	-2
668.929	1	-19
669.268	1	-2
669.607	1	1
669.946	1	-1
670.285	1	7
670.623	1	-2
670.962	1	-4
671.301	1	-2
671.640	1	0
671.979	1	1
672.317	1	5
672.656	1	-1
672.995	1	4
673.334	1	-8
673.673	1	-4
674.011	1	-6
674.350	1	-1
674.689	1	1
675.028	1	-5
675.367	1	-2
675.705	1	9
676.044	1	-4
676.383	1	1
676.722	1	6
677.060	1	-10
677.399	1	-15
677.738	1	5
678.077	1	2
678.416	1	-1
678.754	1	-6
679.093	1	8
679.432	1	-7
679.771	1	-2
680.109	1	0
680.448	1	-5
680.787	1	-6
681.125	1	2
681.464	1	6
681.803	1	7
682.142	1	1
682.480	1	8
682.819	1	-4
683.158	1	4
683.496	1	1
683.835	1	-5
684.174	1	-1
684.512	1	8
684.851	1	8
685.190	1	-4
685.529	1	-6
685.867	1	-4
686.206	1	-6
686.545	1	-6
686.883	1	-10
687.222	1	5
687.561	1	7
687.899	1	-3
688.238	1	1
688.577	1	-7
688.746	1	-11