File: Data/GaN_200K_800ms/GaN_sample F_spot 12_UVVIS_200 K_200um_800 ms 2x2mm1_449.txt
340.368	1	2
340.710	1	-13
341.052	1	11
341.394	1	-4
341.737	1	3
342.079	1	-8
342.421	1	-2
342.763	1	4
343.105	1	2
343.447	1	-7
343.789	1	4
344.131	1	-2
344.473	1	-3
344.815	1	-1
345.157	1	2
345.499	1	0
345.841	1	6
346.183	1	-7
346.526	1	-7
346.868	1	2
347.210	1	-10
347.552	1	-5
347.894	1	-8
348.236	1	5
348.578	1	-3
348.920	1	2
349.262	1	-9
349.604	1	2
349.946	1	-10
350.288	1	2
350.630	1	3
350.972	1	-5
351.314	1	2
351.656	1	5
351.998	1	-7
352.340	1	3
352.682	1	2
353.024	1	3
353.366	1	5
353.708	1	3
354.050	1	-13
354.392	1	-11
354.734	1	10
355.076	1	-2
355.418	1	-7
355.760	1	-3
356.102	1	8
356.444	1	-2
356.785	1	7
357.127	1	1
357.469	1	-2
357.811	1	4
358.153	1	-2
358.495	1	0
358.837	1	-11
359.179	1	0
359.521	1	3
359.863	1	-7
360.205	1	-1
360.547	1	8
360.889	1	-9
361.231	1	-3
361.572	1	7
361.914	1	11
362.256	1	3
362.598	1	-10
362.940	1	1
363.282	1	-2
363.624	1	8
363.966	1	-5
364.308	1	3
364.649	1	3
364.991	1	-3
365.333	1	-3
365.675	1	-1
366.017	1	-3
366.359	1	3
366.701	1	2
367.042	1	0
367.384	1	9
367.726	1	6
368.068	1	13
368.410	1	18
368.752	1	4
369.093	1	5
369.435	1	6
369.777	1	4
370.119	1	-1
370.461	1	23
370.803	1	2
371.144	1	2
371.486	1	10
371.828	1	10
372.170	1	15
372.512	1	2
372.853	1	16
373.195	1	13
373.537	1	13
373.879	1	-1
374.220	1	15
374.562	1	15
374.904	1	10
375.246	1	11
375.588	1	18
375.929	1	17
376.271	1	1
376.613	1	-3
376.955	1	-5
377.296	1	6
377.638	1	9
377.980	1	1
378.321	1	-4
378.663	1	2
379.005	1	15
379.347	1	3
379.688	1	5
380.030	1	-6
380.372	1	5
380.714	1	-5
381.055	1	17
381.397	1	13
381.739	1	9
382.080	1	-8
382.422	1	11
382.764	1	0
383.105	1	-7
383.447	1	-7
383.789	1	-3
384.130	1	5
384.472	1	-3
384.814	1	-3
385.156	1	-4
385.497	1	2
385.839	1	10
386.180	1	8
386.522	1	7
386.864	1	-1
387.205	1	-9
387.547	1	-6
387.889	1	0
388.230	1	5
388.572	1	-8
388.914	1	-3
389.255	1	-7
389.597	1	1
389.939	1	2
390.280	1	5
390.622	1	-1
390.963	1	8
391.305	1	9
391.647	1	-4
391.988	1	-2
392.330	1	4
392.671	1	-2
393.013	1	3
393.355	1	6
393.696	1	3
394.038	1	5
394.379	1	6
394.721	1	-1
395.062	1	1
395.404	1	-5
395.746	1	8
396.087	1	-15
396.429	1	0
396.770	1	-6
397.112	1	1
397.453	1	14
397.795	1	1
398.136	1	6
398.478	1	0
398.819	1	-2
399.161	1	2
399.503	1	8
399.844	1	0
400.186	1	13
400.527	1	-6
400.869	1	-1
401.210	1	5
401.552	1	-2
401.893	1	-9
402.235	1	-11
402.576	1	-6
402.918	1	4
403.259	1	6
403.601	1	-7
403.942	1	6
404.284	1	12
404.625	1	5
404.967	1	8
405.308	1	7
405.649	1	4
405.991	1	-10
406.332	1	0
406.674	1	-3
407.015	1	2
407.357	1	1
407.698	1	-1
408.040	1	0
408.381	1	-4
408.722	1	-19
409.064	1	0
409.405	1	5
409.747	1	3
410.088	1	-4
410.430	1	0
410.771	1	0
411.112	1	-1
411.454	1	-9
411.795	1	-2
412.137	1	6
412.478	1	9
412.819	1	4
413.161	1	-6
413.502	1	-2
413.844	1	-2
414.185	1	5
414.526	1	-3
414.868	1	-2
415.209	1	-4
415.550	1	-9
415.892	1	1
416.233	1	8
416.575	1	16
416.916	1	-2
417.257	1	-5
417.599	1	0
417.940	1	-1
418.281	1	0
418.623	1	-10
418.964	1	-12
419.305	1	5
419.647	1	-7
419.988	1	1
420.329	1	-6
420.671	1	2
421.012	1	0
421.353	1	-5
421.695	1	-5
422.036	1	4
422.377	1	-10
422.718	1	6
423.060	1	-7
423.401	1	4
423.742	1	2
424.084	1	-7
424.425	1	-1
424.766	1	-11
425.107	1	-7
425.449	1	4
425.790	1	-11
426.131	1	-4
426.472	1	-4
426.814	1	6
427.155	1	-8
427.496	1	1
427.837	1	-10
428.179	1	-11
428.520	1	4
428.861	1	-5
429.202	1	3
429.544	1	3
429.885	1	1
430.226	1	-12
430.567	1	-2
430.909	1	0
431.250	1	0
431.591	1	4
431.932	1	-5
432.273	1	-1
432.615	1	-5
432.956	1	-12
433.297	1	-1
433.638	1	-8
433.979	1	0
434.320	1	0
434.662	1	3
435.003	1	0
435.344	1	1
435.685	1	-12
436.026	1	9
436.368	1	3
436.709	1	-6
437.050	1	-6
437.391	1	7
437.732	1	-11
438.073	1	-12
438.414	1	-11
438.756	1	-11
439.097	1	-5
439.438	1	-4
439.779	1	-4
440.120	1	-7
440.461	1	-5
440.802	1	-5
441.143	1	7
441.485	1	2
441.826	1	-6
442.167	1	1
442.508	1	-5
442.849	1	7
443.190	1	1
443.531	1	-1
443.872	1	8
444.213	1	1
444.554	1	6
444.895	1	-6
445.237	1	-3
445.578	1	-16
445.919	1	-8
446.260	1	0
446.601	1	-12
446.942	1	-1
447.283	1	-8
447.624	1	-10
447.965	1	-6
448.306	1	-7
448.647	1	-8
448.988	1	-1
449.329	1	-3
449.670	1	8
450.011	1	2
450.352	1	0
450.693	1	4
451.034	1	-4
451.375	1	-4
451.716	1	-9
452.057	1	-2
452.398	1	-7
452.739	1	2
453.080	1	-1
453.421	1	1
453.762	1	-7
454.103	1	1
454.444	1	-11
454.785	1	-5
455.126	1	-6
455.467	1	0
455.808	1	-1
456.149	1	0
456.490	1	5
456.831	1	6
457.172	1	-4
457.513	1	11
457.854	1	-7
458.195	1	-9
458.536	1	9
458.877	1	-1
459.218	1	-2
459.559	1	-2
459.899	1	-1
460.240	1	-5
460.581	1	13
460.922	1	-4
461.263	1	-1
461.604	1	-6
461.945	1	1
462.286	1	-2
462.627	1	8
462.968	1	1
463.309	1	-8
463.649	1	2
463.990	1	-2
464.331	1	-4
464.672	1	-3
465.013	1	-2
465.354	1	6
465.695	1	-1
466.036	1	-7
466.376	1	-15
466.717	1	2
467.058	1	-1
467.399	1	2
467.740	1	2
468.081	1	-1
468.422	1	-8
468.762	1	-5
469.103	1	-6
469.444	1	-9
469.785	1	-15
470.126	1	-2
470.467	1	-9
470.807	1	-1
471.148	1	6
471.489	1	1
471.830	1	2
472.171	1	-5
472.511	1	2
472.852	1	-1
473.193	1	-1
473.534	1	4
473.875	1	13
474.215	1	-3
474.556	1	1
474.897	1	-2
475.238	1	0
475.578	1	-9
475.919	1	0
476.260	1	-5
476.601	1	2
476.942	1	5
477.282	1	-5
477.623	1	-9
477.964	1	-1
478.305	1	2
478.645	1	0
478.986	1	-7
479.327	1	-13
479.667	1	-1
480.008	1	-11
480.349	1	-5
480.690	1	4
481.030	1	-12
481.371	1	-1
481.712	1	1
482.053	1	-1
482.393	1	-1
482.734	1	-12
483.075	1	1
483.415	1	3
483.756	1	-5
484.097	1	-8
484.437	1	-9
484.778	1	-3
485.119	1	-3
485.459	1	10
485.800	1	-6
486.141	1	-3
486.481	1	-3
486.822	1	7
487.163	1	2
487.503	1	-4
487.844	1	-8
488.185	1	5
488.525	1	-5
488.866	1	0
489.207	1	-4
489.547	1	0
489.888	1	-1
490.228	1	4
490.569	1	11
490.910	1	-13
491.250	1	-6
491.591	1	-5
491.932	1	-4
492.272	1	1
492.613	1	-14
492.953	1	-16
493.294	1	-6
493.635	1	2
493.975	1	-3
494.316	1	4
494.656	1	4
494.997	1	4
495.337	1	6
495.678	1	3
496.019	1	-6
496.359	1	-3
496.700	1	1
497.040	1	-4
497.381	1	-2
497.721	1	5
498.062	1	-7
498.403	1	2
498.743	1	-1
499.084	1	-5
499.424	1	-10
499.765	1	-4
500.105	1	5
500.446	1	-9
500.786	1	-5
501.127	1	5
501.467	1	0
501.808	1	2
502.148	1	-1
502.489	1	-1
502.829	1	-11
503.170	1	3
503.510	1	1
503.851	1	3
504.191	1	4
504.532	1	0
504.872	1	-4
505.213	1	0
505.553	1	-10
505.894	1	-4
506.234	1	1
506.575	1	-5
506.915	1	1
507.256	1	-3
507.596	1	-1
507.936	1	6
508.277	1	1
508.617	1	-1
508.958	1	-13
509.298	1	-8
509.639	1	-2
509.979	1	-5
510.319	1	2
510.660	1	-3
511.000	1	0
511.341	1	2
511.681	1	0
512.022	1	-5
512.362	1	1
512.702	1	-4
513.043	1	-6
513.383	1	-5
513.724	1	-2
514.064	1	0
514.404	1	-1
514.745	1	-9
515.085	1	-1
515.425	1	3
515.766	1	-17
516.106	1	-1
516.447	1	9
516.787	1	6
517.127	1	4
517.468	1	-5
517.808	1	-7
518.148	1	2
518.489	1	-5
518.829	1	3
519.169	1	-1
519.510	1	2
519.850	1	0
520.190	1	-4
520.531	1	0
520.871	1	5
521.211	1	-10
521.552	1	2
521.892	1	0
522.232	1	3
522.573	1	4
522.913	1	7
523.253	1	2
523.593	1	-6
523.934	1	-2
524.274	1	-1
524.614	1	-1
524.955	1	-7
525.295	1	-1
525.635	1	0
525.975	1	-4
526.316	1	10
526.656	1	-8
526.996	1	2
527.337	1	-14
527.677	1	10
528.017	1	-10
528.357	1	2
528.698	1	3
529.038	1	1
529.378	1	2
529.718	1	2
530.058	1	-2
530.399	1	1
530.739	1	8
531.079	1	3
531.419	1	5
531.760	1	-16
532.100	1	-12
532.440	1	1
532.780	1	0
533.120	1	9
533.461	1	1
533.801	1	9
534.141	1	-11
534.481	1	-7
534.821	1	6
535.162	1	-2
535.502	1	-4
535.842	1	2
536.182	1	-2
536.522	1	-10
536.862	1	3
537.203	1	-4
537.543	1	-1
537.883	1	1
538.223	1	-6
538.563	1	7
538.903	1	-5
539.243	1	3
539.584	1	-12
539.924	1	3
540.264	1	-9
540.604	1	2
540.944	1	-2
541.284	1	5
541.624	1	5
541.964	1	12
542.305	1	0
542.645	1	5
542.985	1	0
543.325	1	-5
543.665	1	10
544.005	1	3
544.345	1	5
544.685	1	2
545.025	1	1
545.365	1	-4
545.705	1	-2
546.045	1	-9
546.386	1	13
546.726	1	-10
547.066	1	1
547.406	1	4
547.746	1	-11
548.086	1	-2
548.426	1	-6
548.766	1	-3
549.106	1	-1
549.446	1	0
549.786	1	0
550.126	1	5
550.466	1	1
550.806	1	-2
551.146	1	-1
551.486	1	-10
551.826	1	5
552.166	1	-6
552.506	1	5
552.846	1	-9
553.186	1	10
553.526	1	-1
553.866	1	0
554.206	1	6
554.546	1	1
554.886	1	5
555.226	1	-8
555.566	1	10
555.906	1	7
556.246	1	-4
556.586	1	-8
556.926	1	0
557.266	1	-11
557.606	1	1
557.946	1	3
558.286	1	-2
558.626	1	7
558.966	1	-1
559.306	1	0
559.646	1	-2
559.986	1	-1
560.325	1	-4
560.665	1	2
561.005	1	2
561.345	1	4
561.685	1	-7
562.025	1	-3
562.365	1	-3
562.705	1	-7
563.045	1	-3
563.385	1	-17
563.725	1	4
564.064	1	0
564.404	1	1
564.744	1	-1
565.084	1	-8
565.424	1	-1
565.764	1	-4
566.104	1	3
566.444	1	-3
566.783	1	1
567.123	1	14
567.463	1	6
567.803	1	-6
568.143	1	-4
568.483	1	-5
568.823	1	-7
569.162	1	2
569.502	1	-8
569.842	1	0
570.182	1	-3
570.522	1	-14
570.862	1	-1
571.201	1	3
571.541	1	7
571.881	1	3
572.221	1	-4
572.561	1	0
572.900	1	-3
573.240	1	6
573.580	1	-5
573.920	1	-5
574.260	1	4
574.599	1	6
574.939	1	4
575.279	1	12
575.619	1	0
575.959	1	-7
576.298	1	7
576.638	1	-8
576.978	1	8
577.318	1	7
577.657	1	-6
577.997	1	-6
578.337	1	7
578.677	1	0
579.016	1	12
579.356	1	-1
579.696	1	5
580.036	1	0
580.375	1	13
580.715	1	1
581.055	1	-4
581.394	1	-3
581.734	1	-4
582.074	1	-7
582.414	1	2
582.753	1	-7
583.093	1	-2
583.433	1	-4
583.772	1	4
584.112	1	-6
584.452	1	4
584.791	1	1
585.131	1	-6
585.471	1	2
585.811	1	1
586.150	1	-8
586.490	1	8
586.830	1	-10
587.169	1	6
587.509	1	-3
587.849	1	-9
588.188	1	3
588.528	1	-7
588.867	1	-2
589.207	1	-9
589.547	1	-2
589.886	1	-4
590.226	1	8
590.566	1	-3
590.905	1	-8
591.245	1	-4
591.585	1	-3
591.924	1	1
592.264	1	2
592.603	1	4
592.943	1	6
593.283	1	0
593.622	1	-2
593.962	1	0
594.301	1	8
594.641	1	-12
594.981	1	-10
595.320	1	2
595.660	1	-1
595.999	1	-10
596.339	1	-2
596.678	1	-4
597.018	1	-3
597.358	1	0
597.697	1	1
598.037	1	-1
598.376	1	6
598.716	1	10
599.055	1	0
599.395	1	-4
599.734	1	-3
600.074	1	-3
600.413	1	3
600.753	1	-1
601.092	1	12
601.432	1	-6
601.771	1	-3
602.111	1	11
602.451	1	2
602.790	1	-7
603.130	1	6
603.469	1	-5
603.809	1	1
604.148	1	8
604.487	1	3
604.827	1	7
605.166	1	-1
605.506	1	-2
605.845	1	-2
606.185	1	-6
606.524	1	4
606.864	1	-6
607.203	1	-7
607.543	1	-7
607.882	1	-5
608.222	1	3
608.561	1	2
608.901	1	1
609.240	1	2
609.579	1	-3
609.919	1	13
610.258	1	1
610.598	1	-5
610.937	1	-1
611.277	1	0
611.616	1	-10
611.955	1	-2
612.295	1	-10
612.634	1	4
612.974	1	-16
613.313	1	8
613.652	1	-4
613.992	1	-5
614.331	1	0
614.671	1	3
615.010	1	-9
615.349	1	8
615.689	1	3
616.028	1	-1
616.368	1	2
616.707	1	-2
617.046	1	3
617.386	1	11
617.725	1	-4
618.064	1	-4
618.404	1	-3
618.743	1	2
619.082	1	-1
619.422	1	-7
619.761	1	-2
620.100	1	1
620.440	1	1
620.779	1	-7
621.118	1	-2
621.458	1	2
621.797	1	-5
622.136	1	8
622.476	1	4
622.815	1	3
623.154	1	8
623.494	1	8
623.833	1	7
624.172	1	-1
624.511	1	-9
624.851	1	-9
625.190	1	-1
625.529	1	-5
625.869	1	6
626.208	1	4
626.547	1	4
626.886	1	6
627.226	1	9
627.565	1	4
627.904	1	-8
628.243	1	10
628.583	1	-2
628.922	1	3
629.261	1	4
629.600	1	3
629.940	1	4
630.279	1	-13
630.618	1	2
630.957	1	-3
631.297	1	-9
631.636	1	-18
631.975	1	13
632.314	1	-2
632.653	1	1
632.993	1	-12
633.332	1	3
633.671	1	0
634.010	1	-12
634.349	1	6
634.689	1	-3
635.028	1	7
635.367	1	2
635.706	1	-4
636.045	1	5
636.384	1	1
636.724	1	-2
637.063	1	-2
637.402	1	7
637.741	1	1
638.080	1	2
638.419	1	-2
638.759	1	3
639.098	1	7
639.437	1	1
639.776	1	-2
640.115	1	-1
640.454	1	-10
640.793	1	4
641.132	1	4
641.472	1	0
641.811	1	-4
642.150	1	-8
642.489	1	-1
642.828	1	-10
643.167	1	-2
643.506	1	-6
643.845	1	-3
644.184	1	9
644.524	1	2
644.863	1	-4
645.202	1	-4
645.541	1	1
645.880	1	-1
646.219	1	-4
646.558	1	4
646.897	1	-2
647.236	1	0
647.575	1	4
647.914	1	-4
648.253	1	-1
648.592	1	-6
648.931	1	6
649.270	1	-1
649.610	1	10
649.949	1	-7
650.288	1	-2
650.627	1	-3
650.966	1	-3
651.305	1	7
651.644	1	8
651.983	1	-11
652.322	1	-9
652.661	1	-3
653.000	1	-1
653.339	1	-1
653.678	1	-2
654.017	1	-5
654.356	1	-3
654.695	1	6
655.034	1	0
655.373	1	4
655.712	1	3
656.051	1	-2
656.390	1	-6
656.729	1	0
657.068	1	-3
657.406	1	1
657.745	1	-5
658.084	1	-1
658.423	1	6
658.762	1	-12
659.101	1	1
659.440	1	0
659.779	1	3
660.118	1	-9
660.457	1	-5
660.796	1	-11
661.135	1	-10
661.474	1	6
661.813	1	12
662.152	1	2
662.491	1	3
662.829	1	0
663.168	1	0
663.507	1	10
663.846	1	-7
664.185	1	5
664.524	1	-2
664.863	1	-1
665.202	1	2
665.541	1	-12
665.879	1	-4
666.218	1	-7
666.557	1	-2
666.896	1	-4
667.235	1	5
667.574	1	-5
667.913	1	6
668.251	1	-13
668.590	1	0
668.929	1	-5
669.268	1	-8
669.607	1	-9
669.946	1	-1
670.285	1	4
670.623	1	-5
670.962	1	-6
671.301	1	3
671.640	1	4
671.979	1	0
672.317	1	4
672.656	1	3
672.995	1	3
673.334	1	-1
673.673	1	-5
674.011	1	1
674.350	1	-3
674.689	1	-5
675.028	1	-2
675.367	1	7
675.705	1	6
676.044	1	-4
676.383	1	7
676.722	1	3
677.060	1	-9
677.399	1	-5
677.738	1	1
678.077	1	4
678.416	1	-2
678.754	1	-6
679.093	1	-3
679.432	1	-8
679.771	1	-3
680.109	1	10
680.448	1	1
680.787	1	-1
681.125	1	5
681.464	1	-5
681.803	1	1
682.142	1	4
682.480	1	17
682.819	1	2
683.158	1	1
683.496	1	2
683.835	1	1
684.174	1	-3
684.512	1	-3
684.851	1	2
685.190	1	0
685.529	1	-8
685.867	1	-7
686.206	1	-6
686.545	1	-2
686.883	1	-1
687.222	1	1
687.561	1	5
687.899	1	2
688.238	1	5
688.577	1	-11
688.746	1	-4