File: Data/GaN_200K_800ms/GaN_sample F_spot 12_UVVIS_200 K_200um_800 ms 2x2mm1_195.txt
340.368	1	3
340.710	1	-2
341.052	1	5
341.394	1	-8
341.737	1	8
342.079	1	1
342.421	1	3
342.763	1	-1
343.105	1	6
343.447	1	-4
343.789	1	2
344.131	1	-2
344.473	1	-4
344.815	1	-2
345.157	1	-6
345.499	1	4
345.841	1	1
346.183	1	-5
346.526	1	-9
346.868	1	8
347.210	1	-11
347.552	1	-9
347.894	1	8
348.236	1	1
348.578	1	9
348.920	1	0
349.262	1	-7
349.604	1	5
349.946	1	-6
350.288	1	7
350.630	1	8
350.972	1	1
351.314	1	0
351.656	1	2
351.998	1	13
352.340	1	11
352.682	1	1
353.024	1	6
353.366	1	8
353.708	1	2
354.050	1	-6
354.392	1	4
354.734	1	3
355.076	1	4
355.418	1	-10
355.760	1	2
356.102	1	17
356.444	1	2
356.785	1	7
357.127	1	2
357.469	1	8
357.811	1	3
358.153	1	17
358.495	1	4
358.837	1	-12
359.179	1	2
359.521	1	8
359.863	1	12
360.205	1	2
360.547	1	11
360.889	1	5
361.231	1	4
361.572	1	6
361.914	1	13
362.256	1	10
362.598	1	5
362.940	1	1
363.282	1	11
363.624	1	18
363.966	1	5
364.308	1	20
364.649	1	10
364.991	1	9
365.333	1	8
365.675	1	11
366.017	1	26
366.359	1	19
366.701	1	15
367.042	1	24
367.384	1	38
367.726	1	24
368.068	1	37
368.410	1	39
368.752	1	26
369.093	1	23
369.435	1	41
369.777	1	36
370.119	1	30
370.461	1	46
370.803	1	38
371.144	1	27
371.486	1	41
371.828	1	41
372.170	1	33
372.512	1	21
372.853	1	14
373.195	1	23
373.537	1	30
373.879	1	24
374.220	1	32
374.562	1	32
374.904	1	28
375.246	1	27
375.588	1	20
375.929	1	17
376.271	1	27
376.613	1	20
376.955	1	-2
377.296	1	13
377.638	1	12
377.980	1	14
378.321	1	4
378.663	1	14
379.005	1	17
379.347	1	7
379.688	1	7
380.030	1	8
380.372	1	8
380.714	1	14
381.055	1	8
381.397	1	20
381.739	1	11
382.080	1	4
382.422	1	15
382.764	1	6
383.105	1	10
383.447	1	10
383.789	1	2
384.130	1	2
384.472	1	14
384.814	1	3
385.156	1	2
385.497	1	8
385.839	1	12
386.180	1	15
386.522	1	20
386.864	1	8
387.205	1	-1
387.547	1	5
387.889	1	1
388.230	1	12
388.572	1	9
388.914	1	5
389.255	1	-2
389.597	1	10
389.939	1	7
390.280	1	7
390.622	1	3
390.963	1	14
391.305	1	9
391.647	1	-2
391.988	1	7
392.330	1	9
392.671	1	-1
393.013	1	1
393.355	1	14
393.696	1	6
394.038	1	15
394.379	1	2
394.721	1	6
395.062	1	2
395.404	1	-5
395.746	1	5
396.087	1	3
396.429	1	12
396.770	1	-3
397.112	1	7
397.453	1	7
397.795	1	2
398.136	1	-10
398.478	1	-1
398.819	1	7
399.161	1	13
399.503	1	1
399.844	1	-1
400.186	1	6
400.527	1	6
400.869	1	-2
401.210	1	0
401.552	1	-6
401.893	1	-2
402.235	1	1
402.576	1	4
402.918	1	11
403.259	1	8
403.601	1	-1
403.942	1	15
404.284	1	9
404.625	1	5
404.967	1	-1
405.308	1	13
405.649	1	4
405.991	1	-1
406.332	1	4
406.674	1	-6
407.015	1	10
407.357	1	2
407.698	1	6
408.040	1	-3
408.381	1	4
408.722	1	-15
409.064	1	-3
409.405	1	8
409.747	1	-1
410.088	1	0
410.430	1	9
410.771	1	7
411.112	1	7
411.454	1	5
411.795	1	-9
412.137	1	-2
412.478	1	9
412.819	1	5
413.161	1	0
413.502	1	7
413.844	1	0
414.185	1	7
414.526	1	4
414.868	1	-4
415.209	1	-4
415.550	1	-7
415.892	1	2
416.233	1	2
416.575	1	7
416.916	1	-5
417.257	1	-5
417.599	1	11
417.940	1	7
418.281	1	-4
418.623	1	-2
418.964	1	-10
419.305	1	1
419.647	1	-9
419.988	1	-3
420.329	1	-5
420.671	1	4
421.012	1	1
421.353	1	6
421.695	1	-1
422.036	1	11
422.377	1	-6
422.718	1	8
423.060	1	-10
423.401	1	-3
423.742	1	5
424.084	1	-1
424.425	1	3
424.766	1	-5
425.107	1	-4
425.449	1	-3
425.790	1	-8
426.131	1	2
426.472	1	-1
426.814	1	-2
427.155	1	-3
427.496	1	0
427.837	1	-1
428.179	1	-1
428.520	1	-3
428.861	1	0
429.202	1	-2
429.544	1	-8
429.885	1	-1
430.226	1	-9
430.567	1	-3
430.909	1	4
431.250	1	2
431.591	1	3
431.932	1	-5
432.273	1	0
432.615	1	-2
432.956	1	-6
433.297	1	4
433.638	1	1
433.979	1	10
434.320	1	12
434.662	1	4
435.003	1	-6
435.344	1	1
435.685	1	-2
436.026	1	2
436.368	1	6
436.709	1	8
437.050	1	6
437.391	1	13
437.732	1	-7
438.073	1	0
438.414	1	-16
438.756	1	-12
439.097	1	-3
439.438	1	11
439.779	1	6
440.120	1	-7
440.461	1	-2
440.802	1	2
441.143	1	20
441.485	1	9
441.826	1	-3
442.167	1	4
442.508	1	-5
442.849	1	4
443.190	1	1
443.531	1	12
443.872	1	12
444.213	1	9
444.554	1	20
444.895	1	-2
445.237	1	-2
445.578	1	-7
445.919	1	-1
446.260	1	-2
446.601	1	4
446.942	1	-2
447.283	1	-8
447.624	1	2
447.965	1	1
448.306	1	1
448.647	1	-4
448.988	1	1
449.329	1	0
449.670	1	7
450.011	1	6
450.352	1	-8
450.693	1	-4
451.034	1	-4
451.375	1	4
451.716	1	-5
452.057	1	-2
452.398	1	1
452.739	1	2
453.080	1	-4
453.421	1	-2
453.762	1	-4
454.103	1	2
454.444	1	-10
454.785	1	-8
455.126	1	-6
455.467	1	1
455.808	1	4
456.149	1	4
456.490	1	3
456.831	1	6
457.172	1	-4
457.513	1	15
457.854	1	0
458.195	1	-3
458.536	1	4
458.877	1	5
459.218	1	-4
459.559	1	1
459.899	1	1
460.240	1	-5
460.581	1	6
460.922	1	0
461.263	1	-5
461.604	1	-3
461.945	1	16
462.286	1	6
462.627	1	-3
462.968	1	6
463.309	1	-11
463.649	1	1
463.990	1	1
464.331	1	-5
464.672	1	-7
465.013	1	-1
465.354	1	-7
465.695	1	0
466.036	1	-9
466.376	1	1
466.717	1	5
467.058	1	-7
467.399	1	10
467.740	1	-4
468.081	1	3
468.422	1	-1
468.762	1	-6
469.103	1	1
469.444	1	-3
469.785	1	-7
470.126	1	-7
470.467	1	-6
470.807	1	2
471.148	1	-10
471.489	1	1
471.830	1	-6
472.171	1	3
472.511	1	-7
472.852	1	2
473.193	1	4
473.534	1	12
473.875	1	12
474.215	1	6
474.556	1	4
474.897	1	9
475.238	1	1
475.578	1	-2
475.919	1	0
476.260	1	4
476.601	1	3
476.942	1	7
477.282	1	-5
477.623	1	-6
477.964	1	-3
478.305	1	-3
478.645	1	6
478.986	1	2
479.327	1	-7
479.667	1	2
480.008	1	-1
480.349	1	-4
480.690	1	1
481.030	1	-5
481.371	1	2
481.712	1	4
482.053	1	5
482.393	1	-4
482.734	1	-8
483.075	1	-5
483.415	1	0
483.756	1	11
484.097	1	4
484.437	1	-10
484.778	1	4
485.119	1	-6
485.459	1	20
485.800	1	11
486.141	1	-4
486.481	1	-8
486.822	1	-2
487.163	1	-3
487.503	1	1
487.844	1	5
488.185	1	2
488.525	1	0
488.866	1	-2
489.207	1	-5
489.547	1	-5
489.888	1	0
490.228	1	-2
490.569	1	13
490.910	1	7
491.250	1	-9
491.591	1	1
491.932	1	-2
492.272	1	-1
492.613	1	-6
492.953	1	3
493.294	1	-7
493.635	1	0
493.975	1	-11
494.316	1	1
494.656	1	-5
494.997	1	4
495.337	1	12
495.678	1	6
496.019	1	1
496.359	1	0
496.700	1	-1
497.040	1	-4
497.381	1	-6
497.721	1	-6
498.062	1	2
498.403	1	5
498.743	1	-12
499.084	1	-4
499.424	1	7
499.765	1	-6
500.105	1	11
500.446	1	-4
500.786	1	-18
501.127	1	3
501.467	1	-11
501.808	1	7
502.148	1	10
502.489	1	2
502.829	1	6
503.170	1	9
503.510	1	7
503.851	1	0
504.191	1	11
504.532	1	1
504.872	1	3
505.213	1	6
505.553	1	-8
505.894	1	-7
506.234	1	9
506.575	1	6
506.915	1	7
507.256	1	-1
507.596	1	9
507.936	1	0
508.277	1	3
508.617	1	15
508.958	1	-8
509.298	1	3
509.639	1	4
509.979	1	-4
510.319	1	5
510.660	1	2
511.000	1	-2
511.341	1	-4
511.681	1	9
512.022	1	-3
512.362	1	0
512.702	1	-2
513.043	1	9
513.383	1	-8
513.724	1	-1
514.064	1	16
514.404	1	5
514.745	1	-4
515.085	1	-1
515.425	1	-4
515.766	1	-10
516.106	1	1
516.447	1	10
516.787	1	7
517.127	1	-4
517.468	1	-1
517.808	1	4
518.148	1	11
518.489	1	-1
518.829	1	-1
519.169	1	0
519.510	1	-1
519.850	1	13
520.190	1	3
520.531	1	5
520.871	1	-1
521.211	1	-4
521.552	1	14
521.892	1	11
522.232	1	6
522.573	1	4
522.913	1	-5
523.253	1	-3
523.593	1	8
523.934	1	-4
524.274	1	0
524.614	1	8
524.955	1	-2
525.295	1	2
525.635	1	1
525.975	1	11
526.316	1	3
526.656	1	2
526.996	1	5
527.337	1	-5
527.677	1	12
528.017	1	-4
528.357	1	9
528.698	1	-8
529.038	1	8
529.378	1	3
529.718	1	11
530.058	1	2
530.399	1	8
530.739	1	4
531.079	1	12
531.419	1	6
531.760	1	12
532.100	1	-3
532.440	1	-1
532.780	1	-1
533.120	1	8
533.461	1	3
533.801	1	15
534.141	1	-10
534.481	1	-4
534.821	1	1
535.162	1	-1
535.502	1	-2
535.842	1	4
536.182	1	2
536.522	1	-9
536.862	1	9
537.203	1	1
537.543	1	-3
537.883	1	-1
538.223	1	3
538.563	1	11
538.903	1	-1
539.243	1	7
539.584	1	6
539.924	1	7
540.264	1	-7
540.604	1	0
540.944	1	-5
541.284	1	6
541.624	1	4
541.964	1	11
542.305	1	6
542.645	1	-2
542.985	1	-2
543.325	1	3
543.665	1	8
544.005	1	17
544.345	1	13
544.685	1	-4
545.025	1	7
545.365	1	5
545.705	1	4
546.045	1	6
546.386	1	11
546.726	1	-2
547.066	1	5
547.406	1	5
547.746	1	-3
548.086	1	-2
548.426	1	1
548.766	1	9
549.106	1	-1
549.446	1	12
549.786	1	3
550.126	1	10
550.466	1	0
550.806	1	3
551.146	1	0
551.486	1	2
551.826	1	-2
552.166	1	8
552.506	1	13
552.846	1	11
553.186	1	1
553.526	1	-1
553.866	1	-4
554.206	1	6
554.546	1	10
554.886	1	12
555.226	1	-9
555.566	1	9
555.906	1	6
556.246	1	13
556.586	1	4
556.926	1	6
557.266	1	-12
557.606	1	5
557.946	1	7
558.286	1	3
558.626	1	6
558.966	1	2
559.306	1	-1
559.646	1	-3
559.986	1	-2
560.325	1	-3
560.665	1	1
561.005	1	2
561.345	1	2
561.685	1	2
562.025	1	1
562.365	1	12
562.705	1	0
563.045	1	-12
563.385	1	-8
563.725	1	-2
564.064	1	-2
564.404	1	0
564.744	1	6
565.084	1	-1
565.424	1	8
565.764	1	8
566.104	1	-1
566.444	1	-10
566.783	1	-4
567.123	1	-5
567.463	1	2
567.803	1	0
568.143	1	3
568.483	1	6
568.823	1	2
569.162	1	3
569.502	1	4
569.842	1	5
570.182	1	3
570.522	1	0
570.862	1	-3
571.201	1	13
571.541	1	5
571.881	1	10
572.221	1	-2
572.561	1	7
572.900	1	5
573.240	1	1
573.580	1	4
573.920	1	0
574.260	1	9
574.599	1	4
574.939	1	7
575.279	1	8
575.619	1	9
575.959	1	6
576.298	1	18
576.638	1	-1
576.978	1	5
577.318	1	6
577.657	1	-3
577.997	1	-1
578.337	1	16
578.677	1	4
579.016	1	9
579.356	1	0
579.696	1	12
580.036	1	-3
580.375	1	6
580.715	1	11
581.055	1	-1
581.394	1	1
581.734	1	-16
582.074	1	-3
582.414	1	3
582.753	1	6
583.093	1	-1
583.433	1	0
583.772	1	7
584.112	1	6
584.452	1	10
584.791	1	-3
585.131	1	13
585.471	1	11
585.811	1	8
586.150	1	8
586.490	1	3
586.830	1	5
587.169	1	7
587.509	1	-3
587.849	1	8
588.188	1	7
588.528	1	8
588.867	1	10
589.207	1	13
589.547	1	3
589.886	1	4
590.226	1	6
590.566	1	-6
590.905	1	-1
591.245	1	7
591.585	1	10
591.924	1	-13
592.264	1	-1
592.603	1	4
592.943	1	6
593.283	1	0
593.622	1	4
593.962	1	7
594.301	1	3
594.641	1	-1
594.981	1	-3
595.320	1	3
595.660	1	11
595.999	1	0
596.339	1	4
596.678	1	-11
597.018	1	-5
597.358	1	-1
597.697	1	5
598.037	1	0
598.376	1	5
598.716	1	7
599.055	1	12
599.395	1	-9
599.734	1	5
600.074	1	4
600.413	1	14
600.753	1	3
601.092	1	8
601.432	1	0
601.771	1	5
602.111	1	7
602.451	1	3
602.790	1	1
603.130	1	4
603.469	1	-6
603.809	1	7
604.148	1	5
604.487	1	3
604.827	1	5
605.166	1	5
605.506	1	12
605.845	1	9
606.185	1	9
606.524	1	-2
606.864	1	-3
607.203	1	-2
607.543	1	0
607.882	1	15
608.222	1	8
608.561	1	0
608.901	1	4
609.240	1	-9
609.579	1	6
609.919	1	7
610.258	1	15
610.598	1	4
610.937	1	14
611.277	1	8
611.616	1	-5
611.955	1	-2
612.295	1	5
612.634	1	3
612.974	1	-7
613.313	1	7
613.652	1	4
613.992	1	1
614.331	1	7
614.671	1	9
615.010	1	-3
615.349	1	6
615.689	1	7
616.028	1	1
616.368	1	5
616.707	1	4
617.046	1	4
617.386	1	-1
617.725	1	1
618.064	1	4
618.404	1	1
618.743	1	9
619.082	1	1
619.422	1	-6
619.761	1	4
620.100	1	7
620.440	1	2
620.779	1	-8
621.118	1	9
621.458	1	10
621.797	1	13
622.136	1	14
622.476	1	4
622.815	1	6
623.154	1	10
623.494	1	12
623.833	1	4
624.172	1	0
624.511	1	2
624.851	1	-9
625.190	1	0
625.529	1	0
625.869	1	13
626.208	1	-4
626.547	1	4
626.886	1	4
627.226	1	11
627.565	1	-3
627.904	1	1
628.243	1	-4
628.583	1	6
628.922	1	-2
629.261	1	3
629.600	1	13
629.940	1	8
630.279	1	-2
630.618	1	2
630.957	1	6
631.297	1	6
631.636	1	-8
631.975	1	14
632.314	1	2
632.653	1	-1
632.993	1	-2
633.332	1	1
633.671	1	-2
634.010	1	-7
634.349	1	5
634.689	1	4
635.028	1	9
635.367	1	11
635.706	1	14
636.045	1	12
636.384	1	1
636.724	1	5
637.063	1	-1
637.402	1	5
637.741	1	7
638.080	1	-5
638.419	1	2
638.759	1	-1
639.098	1	3
639.437	1	1
639.776	1	6
640.115	1	6
640.454	1	-1
640.793	1	9
641.132	1	12
641.472	1	7
641.811	1	-1
642.150	1	-7
642.489	1	7
642.828	1	-9
643.167	1	-3
643.506	1	-14
643.845	1	3
644.184	1	-2
644.524	1	2
644.863	1	-3
645.202	1	-2
645.541	1	0
645.880	1	2
646.219	1	7
646.558	1	1
646.897	1	6
647.236	1	6
647.575	1	5
647.914	1	-4
648.253	1	15
648.592	1	-4
648.931	1	-1
649.270	1	2
649.610	1	5
649.949	1	3
650.288	1	0
650.627	1	0
650.966	1	4
651.305	1	4
651.644	1	10
651.983	1	-1
652.322	1	-4
652.661	1	-2
653.000	1	1
653.339	1	0
653.678	1	4
654.017	1	-10
654.356	1	-8
654.695	1	12
655.034	1	2
655.373	1	6
655.712	1	-2
656.051	1	2
656.390	1	-10
656.729	1	13
657.068	1	9
657.406	1	3
657.745	1	-5
658.084	1	9
658.423	1	10
658.762	1	0
659.101	1	17
659.440	1	4
659.779	1	11
660.118	1	3
660.457	1	-1
660.796	1	-5
661.135	1	-2
661.474	1	-3
661.813	1	12
662.152	1	-2
662.491	1	-2
662.829	1	2
663.168	1	-8
663.507	1	-3
663.846	1	2
664.185	1	5
664.524	1	5
664.863	1	5
665.202	1	2
665.541	1	-16
665.879	1	-9
666.218	1	-4
666.557	1	2
666.896	1	-7
667.235	1	2
667.574	1	1
667.913	1	8
668.251	1	-3
668.590	1	4
668.929	1	-8
669.268	1	-8
669.607	1	1
669.946	1	10
670.285	1	5
670.623	1	-2
670.962	1	-5
671.301	1	-3
671.640	1	2
671.979	1	-4
672.317	1	5
672.656	1	-4
672.995	1	10
673.334	1	-2
673.673	1	7
674.011	1	-3
674.350	1	4
674.689	1	-3
675.028	1	1
675.367	1	11
675.705	1	8
676.044	1	-5
676.383	1	4
676.722	1	7
677.060	1	-5
677.399	1	-3
677.738	1	2
678.077	1	8
678.416	1	-3
678.754	1	-5
679.093	1	10
679.432	1	3
679.771	1	4
680.109	1	14
680.448	1	5
680.787	1	-4
681.125	1	5
681.464	1	3
681.803	1	-5
682.142	1	12
682.480	1	11
682.819	1	-6
683.158	1	1
683.496	1	10
683.835	1	5
684.174	1	-6
684.512	1	1
684.851	1	6
685.190	1	-3
685.529	1	-3
685.867	1	0
686.206	1	-1
686.545	1	2
686.883	1	-1
687.222	1	4
687.561	1	1
687.899	1	8
688.238	1	1
688.577	1	-1
688.746	1	5