File: Data/GaN_200K_800ms/GaN_sample F_spot 12_UVVIS_200 K_200um_800 ms 2x2mm1_417.txt
340.368	1	3
340.710	1	-10
341.052	1	6
341.394	1	-6
341.737	1	2
342.079	1	-3
342.421	1	1
342.763	1	6
343.105	1	-2
343.447	1	5
343.789	1	-3
344.131	1	-1
344.473	1	-11
344.815	1	-4
345.157	1	0
345.499	1	-4
345.841	1	-6
346.183	1	-6
346.526	1	-6
346.868	1	-1
347.210	1	-9
347.552	1	-3
347.894	1	-8
348.236	1	1
348.578	1	-2
348.920	1	-3
349.262	1	-1
349.604	1	2
349.946	1	-1
350.288	1	3
350.630	1	-6
350.972	1	0
351.314	1	2
351.656	1	9
351.998	1	-4
352.340	1	4
352.682	1	1
353.024	1	4
353.366	1	6
353.708	1	6
354.050	1	-10
354.392	1	-8
354.734	1	3
355.076	1	5
355.418	1	-12
355.760	1	-7
356.102	1	4
356.444	1	1
356.785	1	11
357.127	1	-9
357.469	1	2
357.811	1	-5
358.153	1	3
358.495	1	-3
358.837	1	-5
359.179	1	-1
359.521	1	8
359.863	1	3
360.205	1	-5
360.547	1	5
360.889	1	-4
361.231	1	-4
361.572	1	7
361.914	1	5
362.256	1	8
362.598	1	-7
362.940	1	-7
363.282	1	10
363.624	1	11
363.966	1	-2
364.308	1	0
364.649	1	-3
364.991	1	2
365.333	1	-8
365.675	1	-6
366.017	1	-1
366.359	1	11
366.701	1	0
367.042	1	7
367.384	1	6
367.726	1	18
368.068	1	10
368.410	1	16
368.752	1	11
369.093	1	3
369.435	1	9
369.777	1	12
370.119	1	5
370.461	1	20
370.803	1	5
371.144	1	7
371.486	1	17
371.828	1	13
372.170	1	11
372.512	1	3
372.853	1	7
373.195	1	7
373.537	1	6
373.879	1	3
374.220	1	13
374.562	1	10
374.904	1	3
375.246	1	11
375.588	1	11
375.929	1	9
376.271	1	8
376.613	1	-8
376.955	1	0
377.296	1	5
377.638	1	2
377.980	1	-1
378.321	1	-2
378.663	1	-2
379.005	1	10
379.347	1	4
379.688	1	9
380.030	1	5
380.372	1	9
380.714	1	12
381.055	1	12
381.397	1	-4
381.739	1	8
382.080	1	2
382.422	1	-3
382.764	1	-9
383.105	1	-6
383.447	1	3
383.789	1	-3
384.130	1	1
384.472	1	-2
384.814	1	-2
385.156	1	1
385.497	1	8
385.839	1	5
386.180	1	4
386.522	1	12
386.864	1	4
387.205	1	-8
387.547	1	-2
387.889	1	-1
388.230	1	7
388.572	1	5
388.914	1	1
389.255	1	-6
389.597	1	4
389.939	1	2
390.280	1	-2
390.622	1	-5
390.963	1	9
391.305	1	0
391.647	1	-1
391.988	1	1
392.330	1	5
392.671	1	-1
393.013	1	-8
393.355	1	1
393.696	1	7
394.038	1	0
394.379	1	0
394.721	1	-2
395.062	1	4
395.404	1	4
395.746	1	8
396.087	1	-6
396.429	1	1
396.770	1	-5
397.112	1	10
397.453	1	4
397.795	1	1
398.136	1	-6
398.478	1	-7
398.819	1	1
399.161	1	9
399.503	1	-3
399.844	1	-10
400.186	1	-2
400.527	1	-4
400.869	1	-4
401.210	1	3
401.552	1	-14
401.893	1	-1
402.235	1	-1
402.576	1	-4
402.918	1	13
403.259	1	7
403.601	1	1
403.942	1	3
404.284	1	11
404.625	1	-1
404.967	1	3
405.308	1	6
405.649	1	-4
405.991	1	-3
406.332	1	-1
406.674	1	-8
407.015	1	-1
407.357	1	-2
407.698	1	13
408.040	1	-1
408.381	1	0
408.722	1	-6
409.064	1	-7
409.405	1	4
409.747	1	-1
410.088	1	0
410.430	1	-4
410.771	1	8
411.112	1	-2
411.454	1	-15
411.795	1	-3
412.137	1	-3
412.478	1	6
412.819	1	-7
413.161	1	-1
413.502	1	-1
413.844	1	1
414.185	1	4
414.526	1	-4
414.868	1	4
415.209	1	3
415.550	1	-4
415.892	1	-1
416.233	1	7
416.575	1	4
416.916	1	-8
417.257	1	3
417.599	1	10
417.940	1	7
418.281	1	3
418.623	1	-3
418.964	1	-13
419.305	1	3
419.647	1	-10
419.988	1	3
420.329	1	-3
420.671	1	9
421.012	1	0
421.353	1	2
421.695	1	-21
422.036	1	-1
422.377	1	2
422.718	1	13
423.060	1	-11
423.401	1	10
423.742	1	1
424.084	1	-4
424.425	1	2
424.766	1	-5
425.107	1	-8
425.449	1	0
425.790	1	-11
426.131	1	0
426.472	1	-1
426.814	1	1
427.155	1	-6
427.496	1	4
427.837	1	-1
428.179	1	-7
428.520	1	-7
428.861	1	-3
429.202	1	-1
429.544	1	-1
429.885	1	-2
430.226	1	-12
430.567	1	-4
430.909	1	-1
431.250	1	-11
431.591	1	4
431.932	1	1
432.273	1	-6
432.615	1	-4
432.956	1	-6
433.297	1	-4
433.638	1	-3
433.979	1	4
434.320	1	0
434.662	1	-10
435.003	1	1
435.344	1	3
435.685	1	0
436.026	1	-3
436.368	1	8
436.709	1	-3
437.050	1	-5
437.391	1	14
437.732	1	2
438.073	1	-4
438.414	1	-5
438.756	1	-5
439.097	1	-4
439.438	1	-8
439.779	1	-5
440.120	1	1
440.461	1	1
440.802	1	-4
441.143	1	2
441.485	1	-3
441.826	1	-4
442.167	1	-9
442.508	1	-8
442.849	1	10
443.190	1	4
443.531	1	7
443.872	1	5
444.213	1	1
444.554	1	10
444.895	1	4
445.237	1	5
445.578	1	-10
445.919	1	-3
446.260	1	-3
446.601	1	-3
446.942	1	-5
447.283	1	-1
447.624	1	-1
447.965	1	4
448.306	1	-2
448.647	1	-7
448.988	1	0
449.329	1	3
449.670	1	9
450.011	1	9
450.352	1	0
450.693	1	-5
451.034	1	-12
451.375	1	-10
451.716	1	8
452.057	1	3
452.398	1	1
452.739	1	0
453.080	1	-2
453.421	1	5
453.762	1	6
454.103	1	2
454.444	1	-5
454.785	1	-3
455.126	1	-11
455.467	1	1
455.808	1	-16
456.149	1	2
456.490	1	-7
456.831	1	2
457.172	1	-3
457.513	1	8
457.854	1	-2
458.195	1	-4
458.536	1	11
458.877	1	1
459.218	1	4
459.559	1	3
459.899	1	-3
460.240	1	-2
460.581	1	4
460.922	1	-2
461.263	1	-7
461.604	1	-2
461.945	1	-11
462.286	1	0
462.627	1	-1
462.968	1	-3
463.309	1	-13
463.649	1	2
463.990	1	-5
464.331	1	2
464.672	1	4
465.013	1	-7
465.354	1	-3
465.695	1	-4
466.036	1	0
466.376	1	-11
466.717	1	5
467.058	1	0
467.399	1	6
467.740	1	-3
468.081	1	-4
468.422	1	-9
468.762	1	-7
469.103	1	-7
469.444	1	-5
469.785	1	-10
470.126	1	-14
470.467	1	0
470.807	1	-2
471.148	1	5
471.489	1	-2
471.830	1	-8
472.171	1	-4
472.511	1	-8
472.852	1	-3
473.193	1	8
473.534	1	5
473.875	1	14
474.215	1	6
474.556	1	-5
474.897	1	6
475.238	1	3
475.578	1	-7
475.919	1	0
476.260	1	3
476.601	1	-5
476.942	1	15
477.282	1	-8
477.623	1	-13
477.964	1	0
478.305	1	-3
478.645	1	9
478.986	1	0
479.327	1	-7
479.667	1	0
480.008	1	-3
480.349	1	-1
480.690	1	3
481.030	1	-14
481.371	1	6
481.712	1	0
482.053	1	8
482.393	1	-4
482.734	1	-9
483.075	1	-4
483.415	1	6
483.756	1	-2
484.097	1	1
484.437	1	-7
484.778	1	3
485.119	1	-13
485.459	1	11
485.800	1	-6
486.141	1	-4
486.481	1	2
486.822	1	8
487.163	1	-4
487.503	1	4
487.844	1	-1
488.185	1	1
488.525	1	0
488.866	1	-1
489.207	1	0
489.547	1	0
489.888	1	-2
490.228	1	5
490.569	1	9
490.910	1	-1
491.250	1	-9
491.591	1	-4
491.932	1	-6
492.272	1	-6
492.613	1	-6
492.953	1	-5
493.294	1	-1
493.635	1	-4
493.975	1	-9
494.316	1	-2
494.656	1	1
494.997	1	-3
495.337	1	11
495.678	1	-9
496.019	1	-4
496.359	1	-12
496.700	1	-1
497.040	1	-8
497.381	1	-4
497.721	1	-1
498.062	1	-6
498.403	1	7
498.743	1	-3
499.084	1	-4
499.424	1	3
499.765	1	-2
500.105	1	-5
500.446	1	-7
500.786	1	-10
501.127	1	2
501.467	1	-14
501.808	1	3
502.148	1	6
502.489	1	1
502.829	1	3
503.170	1	3
503.510	1	1
503.851	1	-2
504.191	1	0
504.532	1	3
504.872	1	3
505.213	1	3
505.553	1	-8
505.894	1	-11
506.234	1	-1
506.575	1	1
506.915	1	2
507.256	1	-4
507.596	1	1
507.936	1	3
508.277	1	-7
508.617	1	-1
508.958	1	-11
509.298	1	0
509.639	1	-2
509.979	1	-8
510.319	1	2
510.660	1	-14
511.000	1	-8
511.341	1	0
511.681	1	8
512.022	1	-4
512.362	1	-13
512.702	1	-3
513.043	1	1
513.383	1	-8
513.724	1	-3
514.064	1	2
514.404	1	-6
514.745	1	1
515.085	1	9
515.425	1	-4
515.766	1	-13
516.106	1	-6
516.447	1	3
516.787	1	-1
517.127	1	4
517.468	1	0
517.808	1	-4
518.148	1	-1
518.489	1	-11
518.829	1	6
519.169	1	0
519.510	1	5
519.850	1	3
520.190	1	1
520.531	1	15
520.871	1	-2
521.211	1	-15
521.552	1	2
521.892	1	4
522.232	1	-4
522.573	1	2
522.913	1	2
523.253	1	3
523.593	1	-5
523.934	1	-2
524.274	1	3
524.614	1	-7
524.955	1	-4
525.295	1	-1
525.635	1	2
525.975	1	3
526.316	1	2
526.656	1	0
526.996	1	8
527.337	1	-7
527.677	1	9
528.017	1	-6
528.357	1	-5
528.698	1	5
529.038	1	9
529.378	1	13
529.718	1	1
530.058	1	-4
530.399	1	0
530.739	1	-1
531.079	1	4
531.419	1	-3
531.760	1	-3
532.100	1	-1
532.440	1	-1
532.780	1	4
533.120	1	13
533.461	1	3
533.801	1	10
534.141	1	-13
534.481	1	-13
534.821	1	-7
535.162	1	-5
535.502	1	-5
535.842	1	10
536.182	1	-1
536.522	1	0
536.862	1	2
537.203	1	-6
537.543	1	3
537.883	1	-8
538.223	1	4
538.563	1	7
538.903	1	-5
539.243	1	-5
539.584	1	1
539.924	1	0
540.264	1	-7
540.604	1	-10
540.944	1	-10
541.284	1	7
541.624	1	13
541.964	1	6
542.305	1	2
542.645	1	0
542.985	1	3
543.325	1	0
543.665	1	13
544.005	1	3
544.345	1	5
544.685	1	-1
545.025	1	-2
545.365	1	1
545.705	1	-5
546.045	1	-6
546.386	1	-2
546.726	1	-8
547.066	1	4
547.406	1	5
547.746	1	-6
548.086	1	5
548.426	1	-3
548.766	1	8
549.106	1	-3
549.446	1	-13
549.786	1	-3
550.126	1	16
550.466	1	3
550.806	1	2
551.146	1	1
551.486	1	0
551.826	1	7
552.166	1	1
552.506	1	-1
552.846	1	-1
553.186	1	-3
553.526	1	-6
553.866	1	5
554.206	1	3
554.546	1	-1
554.886	1	6
555.226	1	-9
555.566	1	6
555.906	1	2
556.246	1	6
556.586	1	6
556.926	1	1
557.266	1	-7
557.606	1	7
557.946	1	5
558.286	1	0
558.626	1	0
558.966	1	-6
559.306	1	-6
559.646	1	-3
559.986	1	-4
560.325	1	-8
560.665	1	-5
561.005	1	-7
561.345	1	-3
561.685	1	1
562.025	1	4
562.365	1	-7
562.705	1	0
563.045	1	-8
563.385	1	-4
563.725	1	1
564.064	1	4
564.404	1	15
564.744	1	4
565.084	1	1
565.424	1	-1
565.764	1	-1
566.104	1	2
566.444	1	-5
566.783	1	-11
567.123	1	0
567.463	1	10
567.803	1	-10
568.143	1	2
568.483	1	8
568.823	1	-6
569.162	1	5
569.502	1	-6
569.842	1	1
570.182	1	-2
570.522	1	-11
570.862	1	-5
571.201	1	8
571.541	1	5
571.881	1	9
572.221	1	0
572.561	1	5
572.900	1	-7
573.240	1	3
573.580	1	-10
573.920	1	11
574.260	1	6
574.599	1	5
574.939	1	-1
575.279	1	10
575.619	1	12
575.959	1	-5
576.298	1	5
576.638	1	-1
576.978	1	9
577.318	1	2
577.657	1	-3
577.997	1	-4
578.337	1	17
578.677	1	6
579.016	1	7
579.356	1	-2
579.696	1	2
580.036	1	-1
580.375	1	5
580.715	1	-7
581.055	1	-5
581.394	1	1
581.734	1	-7
582.074	1	-3
582.414	1	4
582.753	1	-9
583.093	1	0
583.433	1	2
583.772	1	7
584.112	1	1
584.452	1	10
584.791	1	0
585.131	1	6
585.471	1	5
585.811	1	6
586.150	1	3
586.490	1	-2
586.830	1	-1
587.169	1	1
587.509	1	0
587.849	1	0
588.188	1	4
588.528	1	4
588.867	1	7
589.207	1	3
589.547	1	4
589.886	1	-7
590.226	1	6
590.566	1	-8
590.905	1	-1
591.245	1	-7
591.585	1	6
591.924	1	-4
592.264	1	0
592.603	1	-1
592.943	1	0
593.283	1	-7
593.622	1	2
593.962	1	6
594.301	1	1
594.641	1	-1
594.981	1	-11
595.320	1	8
595.660	1	3
595.999	1	-9
596.339	1	-1
596.678	1	3
597.018	1	-2
597.358	1	3
597.697	1	-6
598.037	1	-10
598.376	1	3
598.716	1	0
599.055	1	7
599.395	1	-3
599.734	1	4
600.074	1	6
600.413	1	4
600.753	1	1
601.092	1	13
601.432	1	-10
601.771	1	3
602.111	1	2
602.451	1	6
602.790	1	2
603.130	1	0
603.469	1	-8
603.809	1	-2
604.148	1	-2
604.487	1	-1
604.827	1	4
605.166	1	2
605.506	1	2
605.845	1	4
606.185	1	10
606.524	1	-4
606.864	1	-2
607.203	1	-2
607.543	1	-1
607.882	1	10
608.222	1	-2
608.561	1	-1
608.901	1	2
609.240	1	-7
609.579	1	3
609.919	1	4
610.258	1	5
610.598	1	1
610.937	1	4
611.277	1	-9
611.616	1	1
611.955	1	2
612.295	1	-15
612.634	1	-2
612.974	1	-9
613.313	1	3
613.652	1	-6
613.992	1	-10
614.331	1	0
614.671	1	4
615.010	1	-8
615.349	1	3
615.689	1	7
616.028	1	0
616.368	1	1
616.707	1	-2
617.046	1	1
617.386	1	2
617.725	1	-5
618.064	1	-11
618.404	1	-2
618.743	1	4
619.082	1	-4
619.422	1	-8
619.761	1	1
620.100	1	2
620.440	1	0
620.779	1	-6
621.118	1	-12
621.458	1	-3
621.797	1	-8
622.136	1	12
622.476	1	2
622.815	1	3
623.154	1	12
623.494	1	5
623.833	1	10
624.172	1	4
624.511	1	0
624.851	1	-5
625.190	1	-1
625.529	1	3
625.869	1	0
626.208	1	0
626.547	1	-2
626.886	1	2
627.226	1	1
627.565	1	2
627.904	1	-2
628.243	1	-4
628.583	1	1
628.922	1	3
629.261	1	6
629.600	1	9
629.940	1	-4
630.279	1	-2
630.618	1	-2
630.957	1	-1
631.297	1	1
631.636	1	-17
631.975	1	10
632.314	1	4
632.653	1	5
632.993	1	0
633.332	1	-5
633.671	1	-9
634.010	1	-3
634.349	1	12
634.689	1	-2
635.028	1	12
635.367	1	1
635.706	1	0
636.045	1	8
636.384	1	-7
636.724	1	-7
637.063	1	0
637.402	1	5
637.741	1	0
638.080	1	-4
638.419	1	0
638.759	1	1
639.098	1	4
639.437	1	4
639.776	1	-10
640.115	1	-1
640.454	1	1
640.793	1	14
641.132	1	-3
641.472	1	5
641.811	1	-8
642.150	1	-7
642.489	1	5
642.828	1	-12
643.167	1	-8
643.506	1	-6
643.845	1	1
644.184	1	-3
644.524	1	-8
644.863	1	-13
645.202	1	-4
645.541	1	0
645.880	1	0
646.219	1	5
646.558	1	-1
646.897	1	7
647.236	1	1
647.575	1	3
647.914	1	-6
648.253	1	1
648.592	1	-12
648.931	1	9
649.270	1	-4
649.610	1	-7
649.949	1	-8
650.288	1	2
650.627	1	-5
650.966	1	6
651.305	1	-2
651.644	1	8
651.983	1	5
652.322	1	-1
652.661	1	1
653.000	1	3
653.339	1	4
653.678	1	-7
654.017	1	-4
654.356	1	-5
654.695	1	7
655.034	1	3
655.373	1	6
655.712	1	-4
656.051	1	-6
656.390	1	-4
656.729	1	6
657.068	1	1
657.406	1	5
657.745	1	-9
658.084	1	-5
658.423	1	12
658.762	1	-7
659.101	1	16
659.440	1	1
659.779	1	-3
660.118	1	2
660.457	1	-1
660.796	1	-2
661.135	1	-8
661.474	1	-3
661.813	1	2
662.152	1	-4
662.491	1	-1
662.829	1	-8
663.168	1	-2
663.507	1	4
663.846	1	-10
664.185	1	-1
664.524	1	8
664.863	1	-4
665.202	1	0
665.541	1	-10
665.879	1	-11
666.218	1	-6
666.557	1	-3
666.896	1	-9
667.235	1	-2
667.574	1	-7
667.913	1	-8
668.251	1	-7
668.590	1	-1
668.929	1	-16
669.268	1	1
669.607	1	-9
669.946	1	-2
670.285	1	13
670.623	1	-8
670.962	1	-5
671.301	1	-3
671.640	1	-3
671.979	1	-5
672.317	1	10
672.656	1	0
672.995	1	5
673.334	1	-3
673.673	1	2
674.011	1	-8
674.350	1	-1
674.689	1	7
675.028	1	-6
675.367	1	6
675.705	1	1
676.044	1	0
676.383	1	0
676.722	1	1
677.060	1	-9
677.399	1	-9
677.738	1	-2
678.077	1	3
678.416	1	0
678.754	1	-6
679.093	1	9
679.432	1	-7
679.771	1	3
680.109	1	1
680.448	1	-1
680.787	1	-8
681.125	1	4
681.464	1	2
681.803	1	1
682.142	1	6
682.480	1	13
682.819	1	1
683.158	1	1
683.496	1	0
683.835	1	-5
684.174	1	-4
684.512	1	2
684.851	1	-4
685.190	1	-6
685.529	1	-4
685.867	1	-5
686.206	1	-6
686.545	1	-10
686.883	1	-5
687.222	1	0
687.561	1	8
687.899	1	0
688.238	1	5
688.577	1	-4
688.746	1	-1