File: Data/GaN_200K_800ms/GaN_sample F_spot 12_UVVIS_200 K_200um_800 ms 2x2mm1_433.txt
340.368	1	1
340.710	1	-10
341.052	1	5
341.394	1	-7
341.737	1	-2
342.079	1	-11
342.421	1	0
342.763	1	10
343.105	1	-2
343.447	1	-6
343.789	1	-3
344.131	1	-6
344.473	1	-16
344.815	1	0
345.157	1	2
345.499	1	-8
345.841	1	1
346.183	1	-9
346.526	1	-7
346.868	1	7
347.210	1	-12
347.552	1	-3
347.894	1	-8
348.236	1	7
348.578	1	-2
348.920	1	-8
349.262	1	-1
349.604	1	-6
349.946	1	-5
350.288	1	3
350.630	1	2
350.972	1	7
351.314	1	0
351.656	1	1
351.998	1	0
352.340	1	1
352.682	1	-3
353.024	1	-1
353.366	1	3
353.708	1	-5
354.050	1	-12
354.392	1	0
354.734	1	5
355.076	1	-4
355.418	1	-13
355.760	1	-4
356.102	1	11
356.444	1	1
356.785	1	8
357.127	1	-5
357.469	1	-4
357.811	1	-4
358.153	1	7
358.495	1	-1
358.837	1	-15
359.179	1	6
359.521	1	-1
359.863	1	-5
360.205	1	-8
360.547	1	-2
360.889	1	-3
361.231	1	1
361.572	1	10
361.914	1	11
362.256	1	0
362.598	1	-5
362.940	1	2
363.282	1	10
363.624	1	5
363.966	1	1
364.308	1	-1
364.649	1	6
364.991	1	-1
365.333	1	-2
365.675	1	-7
366.017	1	8
366.359	1	4
366.701	1	2
367.042	1	2
367.384	1	13
367.726	1	7
368.068	1	7
368.410	1	11
368.752	1	0
369.093	1	-3
369.435	1	13
369.777	1	12
370.119	1	7
370.461	1	16
370.803	1	9
371.144	1	14
371.486	1	7
371.828	1	10
372.170	1	8
372.512	1	-6
372.853	1	13
373.195	1	5
373.537	1	2
373.879	1	3
374.220	1	20
374.562	1	12
374.904	1	7
375.246	1	15
375.588	1	3
375.929	1	8
376.271	1	6
376.613	1	-9
376.955	1	-4
377.296	1	-11
377.638	1	-4
377.980	1	0
378.321	1	-5
378.663	1	-17
379.005	1	13
379.347	1	0
379.688	1	-1
380.030	1	-4
380.372	1	3
380.714	1	6
381.055	1	7
381.397	1	-1
381.739	1	5
382.080	1	3
382.422	1	-11
382.764	1	-3
383.105	1	0
383.447	1	-8
383.789	1	-3
384.130	1	-2
384.472	1	2
384.814	1	0
385.156	1	-3
385.497	1	2
385.839	1	-3
386.180	1	2
386.522	1	6
386.864	1	2
387.205	1	2
387.547	1	-3
387.889	1	2
388.230	1	9
388.572	1	0
388.914	1	-2
389.255	1	-2
389.597	1	3
389.939	1	0
390.280	1	6
390.622	1	-3
390.963	1	11
391.305	1	-3
391.647	1	-1
391.988	1	11
392.330	1	-2
392.671	1	-6
393.013	1	-5
393.355	1	-7
393.696	1	2
394.038	1	-5
394.379	1	4
394.721	1	-5
395.062	1	3
395.404	1	-3
395.746	1	5
396.087	1	-4
396.429	1	-5
396.770	1	-10
397.112	1	2
397.453	1	3
397.795	1	-2
398.136	1	-8
398.478	1	-3
398.819	1	7
399.161	1	10
399.503	1	0
399.844	1	1
400.186	1	-3
400.527	1	-6
400.869	1	6
401.210	1	0
401.552	1	-15
401.893	1	-5
402.235	1	-8
402.576	1	-10
402.918	1	6
403.259	1	1
403.601	1	-3
403.942	1	6
404.284	1	13
404.625	1	0
404.967	1	-6
405.308	1	-4
405.649	1	4
405.991	1	-4
406.332	1	-3
406.674	1	-8
407.015	1	9
407.357	1	-6
407.698	1	12
408.040	1	-10
408.381	1	6
408.722	1	-13
409.064	1	4
409.405	1	14
409.747	1	-3
410.088	1	-4
410.430	1	12
410.771	1	7
411.112	1	-3
411.454	1	-7
411.795	1	-6
412.137	1	5
412.478	1	19
412.819	1	0
413.161	1	-5
413.502	1	2
413.844	1	5
414.185	1	6
414.526	1	0
414.868	1	5
415.209	1	-7
415.550	1	-1
415.892	1	-10
416.233	1	9
416.575	1	10
416.916	1	-7
417.257	1	5
417.599	1	-2
417.940	1	7
418.281	1	-2
418.623	1	-8
418.964	1	-5
419.305	1	2
419.647	1	-7
419.988	1	-8
420.329	1	-6
420.671	1	-4
421.012	1	-3
421.353	1	-9
421.695	1	-4
422.036	1	4
422.377	1	-4
422.718	1	5
423.060	1	-1
423.401	1	9
423.742	1	1
424.084	1	3
424.425	1	0
424.766	1	-3
425.107	1	-6
425.449	1	-3
425.790	1	-11
426.131	1	1
426.472	1	1
426.814	1	3
427.155	1	-10
427.496	1	7
427.837	1	-3
428.179	1	-7
428.520	1	1
428.861	1	-4
429.202	1	1
429.544	1	0
429.885	1	2
430.226	1	-5
430.567	1	-6
430.909	1	-2
431.250	1	-2
431.591	1	2
431.932	1	-9
432.273	1	-8
432.615	1	-5
432.956	1	-13
433.297	1	3
433.638	1	-15
433.979	1	0
434.320	1	1
434.662	1	1
435.003	1	0
435.344	1	-3
435.685	1	-5
436.026	1	3
436.368	1	2
436.709	1	-2
437.050	1	-5
437.391	1	15
437.732	1	-10
438.073	1	0
438.414	1	-9
438.756	1	-2
439.097	1	-4
439.438	1	0
439.779	1	0
440.120	1	2
440.461	1	-1
440.802	1	-7
441.143	1	-2
441.485	1	-5
441.826	1	-5
442.167	1	1
442.508	1	-5
442.849	1	4
443.190	1	7
443.531	1	6
443.872	1	-1
444.213	1	4
444.554	1	13
444.895	1	-13
445.237	1	-14
445.578	1	-7
445.919	1	-11
446.260	1	-2
446.601	1	4
446.942	1	-1
447.283	1	-6
447.624	1	4
447.965	1	-3
448.306	1	3
448.647	1	-2
448.988	1	1
449.329	1	-4
449.670	1	9
450.011	1	2
450.352	1	-9
450.693	1	-4
451.034	1	-8
451.375	1	-2
451.716	1	6
452.057	1	4
452.398	1	-2
452.739	1	-3
453.080	1	2
453.421	1	2
453.762	1	-1
454.103	1	2
454.444	1	-9
454.785	1	-8
455.126	1	-4
455.467	1	1
455.808	1	0
456.149	1	4
456.490	1	-2
456.831	1	9
457.172	1	-14
457.513	1	-1
457.854	1	0
458.195	1	-7
458.536	1	-2
458.877	1	-8
459.218	1	2
459.559	1	3
459.899	1	3
460.240	1	8
460.581	1	13
460.922	1	1
461.263	1	-18
461.604	1	-3
461.945	1	2
462.286	1	2
462.627	1	6
462.968	1	-2
463.309	1	-4
463.649	1	10
463.990	1	-10
464.331	1	-7
464.672	1	1
465.013	1	-8
465.354	1	1
465.695	1	-5
466.036	1	-10
466.376	1	-9
466.717	1	-2
467.058	1	3
467.399	1	-4
467.740	1	-3
468.081	1	4
468.422	1	-1
468.762	1	-17
469.103	1	-4
469.444	1	-2
469.785	1	-14
470.126	1	-13
470.467	1	0
470.807	1	6
471.148	1	3
471.489	1	0
471.830	1	-7
472.171	1	0
472.511	1	-3
472.852	1	-1
473.193	1	5
473.534	1	4
473.875	1	8
474.215	1	9
474.556	1	3
474.897	1	-5
475.238	1	-4
475.578	1	-5
475.919	1	-4
476.260	1	4
476.601	1	-9
476.942	1	7
477.282	1	5
477.623	1	-12
477.964	1	-3
478.305	1	-4
478.645	1	4
478.986	1	-5
479.327	1	-5
479.667	1	-1
480.008	1	1
480.349	1	-13
480.690	1	3
481.030	1	-2
481.371	1	7
481.712	1	-1
482.053	1	1
482.393	1	-10
482.734	1	-6
483.075	1	-9
483.415	1	4
483.756	1	12
484.097	1	0
484.437	1	-8
484.778	1	-2
485.119	1	-8
485.459	1	13
485.800	1	-6
486.141	1	-8
486.481	1	1
486.822	1	6
487.163	1	-4
487.503	1	-1
487.844	1	2
488.185	1	-1
488.525	1	-3
488.866	1	8
489.207	1	-5
489.547	1	2
489.888	1	-15
490.228	1	0
490.569	1	7
490.910	1	-3
491.250	1	-3
491.591	1	-8
491.932	1	-7
492.272	1	-5
492.613	1	-5
492.953	1	-6
493.294	1	-1
493.635	1	1
493.975	1	-11
494.316	1	0
494.656	1	-4
494.997	1	-3
495.337	1	8
495.678	1	-3
496.019	1	-5
496.359	1	-7
496.700	1	-1
497.040	1	-8
497.381	1	-5
497.721	1	-8
498.062	1	-3
498.403	1	0
498.743	1	11
499.084	1	-11
499.424	1	-1
499.765	1	-4
500.105	1	-4
500.446	1	-6
500.786	1	-1
501.127	1	3
501.467	1	-9
501.808	1	5
502.148	1	6
502.489	1	9
502.829	1	-8
503.170	1	9
503.510	1	6
503.851	1	1
504.191	1	10
504.532	1	-3
504.872	1	1
505.213	1	4
505.553	1	-6
505.894	1	-1
506.234	1	5
506.575	1	11
506.915	1	-1
507.256	1	4
507.596	1	6
507.936	1	4
508.277	1	-1
508.617	1	3
508.958	1	-8
509.298	1	1
509.639	1	2
509.979	1	-4
510.319	1	3
510.660	1	4
511.000	1	-3
511.341	1	-1
511.681	1	7
512.022	1	-10
512.362	1	1
512.702	1	-4
513.043	1	9
513.383	1	-12
513.724	1	-4
514.064	1	10
514.404	1	-4
514.745	1	1
515.085	1	-5
515.425	1	-5
515.766	1	-6
516.106	1	-8
516.447	1	5
516.787	1	2
517.127	1	1
517.468	1	-1
517.808	1	-3
518.148	1	2
518.489	1	2
518.829	1	1
519.169	1	1
519.510	1	-2
519.850	1	8
520.190	1	-11
520.531	1	-5
520.871	1	1
521.211	1	-8
521.552	1	7
521.892	1	8
522.232	1	7
522.573	1	5
522.913	1	3
523.253	1	3
523.593	1	-4
523.934	1	-7
524.274	1	-2
524.614	1	2
524.955	1	-2
525.295	1	4
525.635	1	-1
525.975	1	-4
526.316	1	6
526.656	1	1
526.996	1	5
527.337	1	-10
527.677	1	2
528.017	1	-10
528.357	1	3
528.698	1	-1
529.038	1	1
529.378	1	1
529.718	1	11
530.058	1	-2
530.399	1	6
530.739	1	-7
531.079	1	6
531.419	1	0
531.760	1	-5
532.100	1	-13
532.440	1	-9
532.780	1	-5
533.120	1	9
533.461	1	6
533.801	1	16
534.141	1	-9
534.481	1	-8
534.821	1	-1
535.162	1	2
535.502	1	-8
535.842	1	-3
536.182	1	-2
536.522	1	-4
536.862	1	10
537.203	1	-7
537.543	1	-2
537.883	1	3
538.223	1	3
538.563	1	3
538.903	1	-7
539.243	1	-2
539.584	1	2
539.924	1	8
540.264	1	-6
540.604	1	-2
540.944	1	0
541.284	1	8
541.624	1	8
541.964	1	10
542.305	1	5
542.645	1	5
542.985	1	-4
543.325	1	-5
543.665	1	5
544.005	1	6
544.345	1	-1
544.685	1	-3
545.025	1	-6
545.365	1	1
545.705	1	-3
546.045	1	-2
546.386	1	-2
546.726	1	-7
547.066	1	1
547.406	1	2
547.746	1	-12
548.086	1	-3
548.426	1	-3
548.766	1	-6
549.106	1	0
549.446	1	-2
549.786	1	-7
550.126	1	-1
550.466	1	4
550.806	1	-2
551.146	1	-2
551.486	1	-4
551.826	1	-7
552.166	1	7
552.506	1	9
552.846	1	1
553.186	1	12
553.526	1	1
553.866	1	-1
554.206	1	10
554.546	1	-6
554.886	1	-1
555.226	1	-5
555.566	1	-3
555.906	1	3
556.246	1	3
556.586	1	-4
556.926	1	6
557.266	1	-7
557.606	1	-1
557.946	1	10
558.286	1	10
558.626	1	5
558.966	1	5
559.306	1	-5
559.646	1	3
559.986	1	0
560.325	1	-3
560.665	1	-1
561.005	1	2
561.345	1	7
561.685	1	-8
562.025	1	-6
562.365	1	2
562.705	1	-4
563.045	1	-8
563.385	1	-5
563.725	1	0
564.064	1	-3
564.404	1	3
564.744	1	-1
565.084	1	-5
565.424	1	4
565.764	1	-9
566.104	1	-5
566.444	1	-6
566.783	1	-8
567.123	1	7
567.463	1	7
567.803	1	-15
568.143	1	-8
568.483	1	3
568.823	1	1
569.162	1	7
569.502	1	0
569.842	1	4
570.182	1	1
570.522	1	-14
570.862	1	-2
571.201	1	2
571.541	1	1
571.881	1	16
572.221	1	-3
572.561	1	-3
572.900	1	-5
573.240	1	8
573.580	1	2
573.920	1	4
574.260	1	7
574.599	1	-6
574.939	1	-7
575.279	1	4
575.619	1	2
575.959	1	-11
576.298	1	2
576.638	1	-4
576.978	1	-1
577.318	1	13
577.657	1	-3
577.997	1	-4
578.337	1	0
578.677	1	11
579.016	1	6
579.356	1	-7
579.696	1	4
580.036	1	-7
580.375	1	1
580.715	1	-9
581.055	1	3
581.394	1	-2
581.734	1	0
582.074	1	-11
582.414	1	5
582.753	1	-4
583.093	1	-6
583.433	1	1
583.772	1	1
584.112	1	-4
584.452	1	0
584.791	1	-3
585.131	1	-1
585.471	1	5
585.811	1	1
586.150	1	-1
586.490	1	9
586.830	1	1
587.169	1	0
587.509	1	-10
587.849	1	1
588.188	1	4
588.528	1	2
588.867	1	7
589.207	1	3
589.547	1	-3
589.886	1	-10
590.226	1	9
590.566	1	5
590.905	1	-4
591.245	1	-6
591.585	1	-6
591.924	1	5
592.264	1	4
592.603	1	2
592.943	1	8
593.283	1	-4
593.622	1	-2
593.962	1	3
594.301	1	-1
594.641	1	-4
594.981	1	-7
595.320	1	6
595.660	1	4
595.999	1	-5
596.339	1	6
596.678	1	-6
597.018	1	-4
597.358	1	7
597.697	1	-4
598.037	1	-9
598.376	1	1
598.716	1	10
599.055	1	3
599.395	1	-3
599.734	1	3
600.074	1	-4
600.413	1	11
600.753	1	1
601.092	1	12
601.432	1	-10
601.771	1	1
602.111	1	8
602.451	1	12
602.790	1	-1
603.130	1	4
603.469	1	2
603.809	1	7
604.148	1	2
604.487	1	-3
604.827	1	9
605.166	1	-1
605.506	1	-3
605.845	1	3
606.185	1	-2
606.524	1	-1
606.864	1	-6
607.203	1	-4
607.543	1	-2
607.882	1	5
608.222	1	3
608.561	1	0
608.901	1	5
609.240	1	-4
609.579	1	4
609.919	1	4
610.258	1	9
610.598	1	1
610.937	1	-4
611.277	1	-4
611.616	1	-5
611.955	1	-3
612.295	1	-12
612.634	1	-1
612.974	1	-13
613.313	1	5
613.652	1	-5
613.992	1	-5
614.331	1	3
614.671	1	-5
615.010	1	-4
615.349	1	1
615.689	1	8
616.028	1	2
616.368	1	5
616.707	1	-1
617.046	1	0
617.386	1	-1
617.725	1	-5
618.064	1	-12
618.404	1	-5
618.743	1	1
619.082	1	5
619.422	1	-2
619.761	1	6
620.100	1	6
620.440	1	2
620.779	1	-13
621.118	1	-4
621.458	1	3
621.797	1	-10
622.136	1	12
622.476	1	2
622.815	1	10
623.154	1	1
623.494	1	7
623.833	1	7
624.172	1	0
624.511	1	-3
624.851	1	-7
625.190	1	-2
625.529	1	10
625.869	1	-2
626.208	1	-7
626.547	1	6
626.886	1	1
627.226	1	0
627.565	1	-4
627.904	1	-9
628.243	1	7
628.583	1	-8
628.922	1	8
629.261	1	-3
629.600	1	6
629.940	1	0
630.279	1	-11
630.618	1	-6
630.957	1	-4
631.297	1	-2
631.636	1	-12
631.975	1	9
632.314	1	-3
632.653	1	4
632.993	1	-4
633.332	1	-6
633.671	1	-4
634.010	1	4
634.349	1	7
634.689	1	0
635.028	1	5
635.367	1	-9
635.706	1	-1
636.045	1	7
636.384	1	-1
636.724	1	0
637.063	1	2
637.402	1	8
637.741	1	-4
638.080	1	-1
638.419	1	-10
638.759	1	-15
639.098	1	1
639.437	1	0
639.776	1	2
640.115	1	0
640.454	1	-9
640.793	1	9
641.132	1	6
641.472	1	2
641.811	1	0
642.150	1	-10
642.489	1	3
642.828	1	-2
643.167	1	-5
643.506	1	-3
643.845	1	6
644.184	1	-5
644.524	1	-1
644.863	1	-8
645.202	1	0
645.541	1	3
645.880	1	4
646.219	1	2
646.558	1	0
646.897	1	-3
647.236	1	-1
647.575	1	-4
647.914	1	-14
648.253	1	13
648.592	1	-6
648.931	1	10
649.270	1	-9
649.610	1	3
649.949	1	3
650.288	1	8
650.627	1	4
650.966	1	6
651.305	1	-1
651.644	1	3
651.983	1	-5
652.322	1	-1
652.661	1	-6
653.000	1	-1
653.339	1	5
653.678	1	3
654.017	1	-4
654.356	1	-5
654.695	1	-6
655.034	1	6
655.373	1	0
655.712	1	2
656.051	1	-1
656.390	1	-10
656.729	1	13
657.068	1	0
657.406	1	5
657.745	1	5
658.084	1	0
658.423	1	6
658.762	1	2
659.101	1	15
659.440	1	1
659.779	1	-5
660.118	1	5
660.457	1	-5
660.796	1	-10
661.135	1	-2
661.474	1	-12
661.813	1	10
662.152	1	2
662.491	1	-2
662.829	1	-9
663.168	1	3
663.507	1	5
663.846	1	-5
664.185	1	0
664.524	1	-6
664.863	1	-6
665.202	1	8
665.541	1	-4
665.879	1	-10
666.218	1	-2
666.557	1	3
666.896	1	-15
667.235	1	1
667.574	1	0
667.913	1	7
668.251	1	-5
668.590	1	-3
668.929	1	-13
669.268	1	-3
669.607	1	-1
669.946	1	2
670.285	1	9
670.623	1	-7
670.962	1	-9
671.301	1	-8
671.640	1	4
671.979	1	-10
672.317	1	-2
672.656	1	-11
672.995	1	3
673.334	1	-5
673.673	1	-4
674.011	1	4
674.350	1	4
674.689	1	-6
675.028	1	0
675.367	1	9
675.705	1	4
676.044	1	-4
676.383	1	4
676.722	1	13
677.060	1	-8
677.399	1	-3
677.738	1	-1
678.077	1	5
678.416	1	1
678.754	1	-5
679.093	1	-1
679.432	1	-2
679.771	1	-3
680.109	1	7
680.448	1	0
680.787	1	1
681.125	1	2
681.464	1	-5
681.803	1	-1
682.142	1	6
682.480	1	8
682.819	1	6
683.158	1	-11
683.496	1	4
683.835	1	-1
684.174	1	0
684.512	1	4
684.851	1	3
685.190	1	-1
685.529	1	0
685.867	1	-7
686.206	1	-2
686.545	1	-6
686.883	1	-1
687.222	1	-6
687.561	1	12
687.899	1	3
688.238	1	4
688.577	1	-11
688.746	1	-1