File: Data/GaN_200K_800ms/GaN_sample F_spot 12_UVVIS_200 K_200um_800 ms 2x2mm1_73.txt
340.368	1	8
340.710	1	-9
341.052	1	7
341.394	1	2
341.737	1	13
342.079	1	-6
342.421	1	1
342.763	1	7
343.105	1	8
343.447	1	-8
343.789	1	3
344.131	1	3
344.473	1	-2
344.815	1	3
345.157	1	-1
345.499	1	5
345.841	1	10
346.183	1	-1
346.526	1	-1
346.868	1	4
347.210	1	-11
347.552	1	-1
347.894	1	5
348.236	1	3
348.578	1	10
348.920	1	0
349.262	1	2
349.604	1	8
349.946	1	-6
350.288	1	24
350.630	1	12
350.972	1	9
351.314	1	14
351.656	1	11
351.998	1	15
352.340	1	17
352.682	1	9
353.024	1	9
353.366	1	21
353.708	1	8
354.050	1	2
354.392	1	-1
354.734	1	22
355.076	1	21
355.418	1	-9
355.760	1	6
356.102	1	23
356.444	1	21
356.785	1	27
357.127	1	16
357.469	1	28
357.811	1	15
358.153	1	24
358.495	1	14
358.837	1	17
359.179	1	23
359.521	1	26
359.863	1	22
360.205	1	27
360.547	1	35
360.889	1	26
361.231	1	30
361.572	1	46
361.914	1	48
362.256	1	51
362.598	1	50
362.940	1	43
363.282	1	58
363.624	1	70
363.966	1	71
364.308	1	70
364.649	1	85
364.991	1	92
365.333	1	98
365.675	1	102
366.017	1	119
366.359	1	133
366.701	1	138
367.042	1	136
367.384	1	149
367.726	1	152
368.068	1	185
368.410	1	176
368.752	1	170
369.093	1	190
369.435	1	182
369.777	1	178
370.119	1	178
370.461	1	177
370.803	1	185
371.144	1	170
371.486	1	161
371.828	1	164
372.170	1	153
372.512	1	147
372.853	1	141
373.195	1	131
373.537	1	125
373.879	1	121
374.220	1	122
374.562	1	122
374.904	1	100
375.246	1	95
375.588	1	101
375.929	1	106
376.271	1	97
376.613	1	76
376.955	1	69
377.296	1	75
377.638	1	78
377.980	1	80
378.321	1	62
378.663	1	66
379.005	1	67
379.347	1	65
379.688	1	62
380.030	1	53
380.372	1	61
380.714	1	49
381.055	1	51
381.397	1	42
381.739	1	51
382.080	1	46
382.422	1	44
382.764	1	38
383.105	1	32
383.447	1	34
383.789	1	25
384.130	1	35
384.472	1	29
384.814	1	27
385.156	1	23
385.497	1	37
385.839	1	32
386.180	1	33
386.522	1	25
386.864	1	38
387.205	1	29
387.547	1	24
387.889	1	18
388.230	1	23
388.572	1	17
388.914	1	27
389.255	1	13
389.597	1	25
389.939	1	29
390.280	1	21
390.622	1	9
390.963	1	23
391.305	1	22
391.647	1	19
391.988	1	24
392.330	1	21
392.671	1	14
393.013	1	12
393.355	1	19
393.696	1	18
394.038	1	19
394.379	1	8
394.721	1	2
395.062	1	18
395.404	1	14
395.746	1	16
396.087	1	-2
396.429	1	15
396.770	1	8
397.112	1	13
397.453	1	14
397.795	1	3
398.136	1	7
398.478	1	4
398.819	1	11
399.161	1	21
399.503	1	6
399.844	1	5
400.186	1	13
400.527	1	15
400.869	1	5
401.210	1	3
401.552	1	6
401.893	1	8
402.235	1	2
402.576	1	-2
402.918	1	14
403.259	1	14
403.601	1	10
403.942	1	13
404.284	1	10
404.625	1	11
404.967	1	-2
405.308	1	7
405.649	1	-2
405.991	1	3
406.332	1	9
406.674	1	8
407.015	1	6
407.357	1	7
407.698	1	10
408.040	1	4
408.381	1	3
408.722	1	-8
409.064	1	9
409.405	1	11
409.747	1	1
410.088	1	6
410.430	1	9
410.771	1	4
411.112	1	4
411.454	1	-3
411.795	1	8
412.137	1	14
412.478	1	20
412.819	1	4
413.161	1	6
413.502	1	2
413.844	1	5
414.185	1	14
414.526	1	4
414.868	1	3
415.209	1	13
415.550	1	1
415.892	1	-1
416.233	1	11
416.575	1	13
416.916	1	-2
417.257	1	3
417.599	1	11
417.940	1	5
418.281	1	7
418.623	1	4
418.964	1	-11
419.305	1	7
419.647	1	-6
419.988	1	-1
420.329	1	2
420.671	1	12
421.012	1	6
421.353	1	-1
421.695	1	-5
422.036	1	14
422.377	1	4
422.718	1	13
423.060	1	0
423.401	1	8
423.742	1	-1
424.084	1	3
424.425	1	9
424.766	1	-8
425.107	1	1
425.449	1	7
425.790	1	-13
426.131	1	-4
426.472	1	4
426.814	1	3
427.155	1	3
427.496	1	2
427.837	1	-6
428.179	1	1
428.520	1	3
428.861	1	6
429.202	1	6
429.544	1	-7
429.885	1	5
430.226	1	-8
430.567	1	-3
430.909	1	15
431.250	1	-5
431.591	1	9
431.932	1	7
432.273	1	-1
432.615	1	-4
432.956	1	-1
433.297	1	2
433.638	1	-1
433.979	1	2
434.320	1	5
434.662	1	8
435.003	1	15
435.344	1	1
435.685	1	6
436.026	1	6
436.368	1	2
436.709	1	-5
437.050	1	6
437.391	1	5
437.732	1	-2
438.073	1	-2
438.414	1	-4
438.756	1	-1
439.097	1	-7
439.438	1	-12
439.779	1	4
440.120	1	-3
440.461	1	7
440.802	1	-5
441.143	1	14
441.485	1	2
441.826	1	0
442.167	1	1
442.508	1	-5
442.849	1	12
443.190	1	1
443.531	1	13
443.872	1	6
444.213	1	4
444.554	1	15
444.895	1	-3
445.237	1	4
445.578	1	-3
445.919	1	-3
446.260	1	-1
446.601	1	-3
446.942	1	7
447.283	1	-4
447.624	1	4
447.965	1	0
448.306	1	12
448.647	1	-8
448.988	1	-4
449.329	1	4
449.670	1	11
450.011	1	11
450.352	1	6
450.693	1	-8
451.034	1	5
451.375	1	1
451.716	1	3
452.057	1	7
452.398	1	-7
452.739	1	4
453.080	1	0
453.421	1	1
453.762	1	3
454.103	1	3
454.444	1	-1
454.785	1	7
455.126	1	4
455.467	1	13
455.808	1	-3
456.149	1	5
456.490	1	4
456.831	1	8
457.172	1	-13
457.513	1	13
457.854	1	3
458.195	1	-3
458.536	1	3
458.877	1	-3
459.218	1	8
459.559	1	12
459.899	1	6
460.240	1	-4
460.581	1	16
460.922	1	4
461.263	1	-6
461.604	1	0
461.945	1	0
462.286	1	6
462.627	1	3
462.968	1	18
463.309	1	-2
463.649	1	3
463.990	1	-1
464.331	1	-4
464.672	1	3
465.013	1	-1
465.354	1	5
465.695	1	-3
466.036	1	-2
466.376	1	7
466.717	1	1
467.058	1	8
467.399	1	4
467.740	1	3
468.081	1	15
468.422	1	-3
468.762	1	0
469.103	1	-10
469.444	1	3
469.785	1	-8
470.126	1	4
470.467	1	-3
470.807	1	-4
471.148	1	5
471.489	1	1
471.830	1	6
472.171	1	9
472.511	1	-10
472.852	1	4
473.193	1	8
473.534	1	9
473.875	1	7
474.215	1	5
474.556	1	8
474.897	1	13
475.238	1	4
475.578	1	-12
475.919	1	0
476.260	1	2
476.601	1	4
476.942	1	9
477.282	1	-3
477.623	1	-12
477.964	1	13
478.305	1	6
478.645	1	7
478.986	1	-6
479.327	1	-1
479.667	1	-4
480.008	1	-4
480.349	1	10
480.690	1	4
481.030	1	-1
481.371	1	5
481.712	1	9
482.053	1	10
482.393	1	-1
482.734	1	-4
483.075	1	-6
483.415	1	9
483.756	1	10
484.097	1	-3
484.437	1	-4
484.778	1	8
485.119	1	-4
485.459	1	21
485.800	1	-3
486.141	1	-4
486.481	1	9
486.822	1	9
487.163	1	-2
487.503	1	1
487.844	1	3
488.185	1	6
488.525	1	3
488.866	1	1
489.207	1	2
489.547	1	7
489.888	1	10
490.228	1	14
490.569	1	15
490.910	1	3
491.250	1	0
491.591	1	13
491.932	1	7
492.272	1	6
492.613	1	9
492.953	1	8
493.294	1	4
493.635	1	10
493.975	1	3
494.316	1	12
494.656	1	1
494.997	1	7
495.337	1	19
495.678	1	17
496.019	1	2
496.359	1	10
496.700	1	12
497.040	1	0
497.381	1	3
497.721	1	3
498.062	1	6
498.403	1	13
498.743	1	2
499.084	1	-1
499.424	1	8
499.765	1	13
500.105	1	11
500.446	1	-5
500.786	1	-10
501.127	1	9
501.467	1	7
501.808	1	15
502.148	1	13
502.489	1	12
502.829	1	9
503.170	1	17
503.510	1	9
503.851	1	3
504.191	1	11
504.532	1	13
504.872	1	8
505.213	1	16
505.553	1	4
505.894	1	-3
506.234	1	16
506.575	1	6
506.915	1	16
507.256	1	11
507.596	1	16
507.936	1	7
508.277	1	4
508.617	1	8
508.958	1	2
509.298	1	18
509.639	1	6
509.979	1	6
510.319	1	7
510.660	1	6
511.000	1	11
511.341	1	6
511.681	1	6
512.022	1	5
512.362	1	3
512.702	1	15
513.043	1	12
513.383	1	3
513.724	1	16
514.064	1	18
514.404	1	7
514.745	1	9
515.085	1	5
515.425	1	3
515.766	1	-1
516.106	1	4
516.447	1	15
516.787	1	18
517.127	1	11
517.468	1	20
517.808	1	-1
518.148	1	17
518.489	1	1
518.829	1	12
519.169	1	10
519.510	1	18
519.850	1	8
520.190	1	14
520.531	1	11
520.871	1	17
521.211	1	-2
521.552	1	20
521.892	1	10
522.232	1	11
522.573	1	11
522.913	1	14
523.253	1	12
523.593	1	9
523.934	1	14
524.274	1	10
524.614	1	21
524.955	1	11
525.295	1	18
525.635	1	12
525.975	1	13
526.316	1	26
526.656	1	10
526.996	1	16
527.337	1	18
527.677	1	10
528.017	1	10
528.357	1	17
528.698	1	14
529.038	1	14
529.378	1	23
529.718	1	20
530.058	1	9
530.399	1	16
530.739	1	24
531.079	1	15
531.419	1	18
531.760	1	20
532.100	1	12
532.440	1	6
532.780	1	12
533.120	1	15
533.461	1	20
533.801	1	26
534.141	1	12
534.481	1	6
534.821	1	15
535.162	1	12
535.502	1	6
535.842	1	16
536.182	1	15
536.522	1	9
536.862	1	21
537.203	1	3
537.543	1	8
537.883	1	13
538.223	1	14
538.563	1	16
538.903	1	8
539.243	1	9
539.584	1	17
539.924	1	18
540.264	1	0
540.604	1	21
540.944	1	20
541.284	1	27
541.624	1	28
541.964	1	20
542.305	1	24
542.645	1	22
542.985	1	12
543.325	1	18
543.665	1	23
544.005	1	23
544.345	1	18
544.685	1	15
545.025	1	16
545.365	1	13
545.705	1	22
546.045	1	8
546.386	1	23
546.726	1	13
547.066	1	16
547.406	1	28
547.746	1	12
548.086	1	22
548.426	1	10
548.766	1	19
549.106	1	12
549.446	1	20
549.786	1	11
550.126	1	33
550.466	1	25
550.806	1	15
551.146	1	27
551.486	1	29
551.826	1	18
552.166	1	12
552.506	1	29
552.846	1	24
553.186	1	23
553.526	1	24
553.866	1	21
554.206	1	23
554.546	1	24
554.886	1	32
555.226	1	23
555.566	1	16
555.906	1	20
556.246	1	21
556.586	1	12
556.926	1	24
557.266	1	20
557.606	1	17
557.946	1	25
558.286	1	32
558.626	1	19
558.966	1	14
559.306	1	8
559.646	1	18
559.986	1	14
560.325	1	16
560.665	1	18
561.005	1	20
561.345	1	13
561.685	1	13
562.025	1	19
562.365	1	24
562.705	1	24
563.045	1	18
563.385	1	3
563.725	1	29
564.064	1	23
564.404	1	23
564.744	1	20
565.084	1	22
565.424	1	25
565.764	1	18
566.104	1	11
566.444	1	15
566.783	1	17
567.123	1	25
567.463	1	28
567.803	1	9
568.143	1	18
568.483	1	25
568.823	1	19
569.162	1	28
569.502	1	14
569.842	1	27
570.182	1	20
570.522	1	13
570.862	1	30
571.201	1	29
571.541	1	15
571.881	1	32
572.221	1	20
572.561	1	17
572.900	1	19
573.240	1	26
573.580	1	21
573.920	1	13
574.260	1	19
574.599	1	7
574.939	1	19
575.279	1	31
575.619	1	37
575.959	1	-2
576.298	1	30
576.638	1	9
576.978	1	31
577.318	1	25
577.657	1	17
577.997	1	11
578.337	1	25
578.677	1	24
579.016	1	40
579.356	1	17
579.696	1	22
580.036	1	15
580.375	1	24
580.715	1	15
581.055	1	17
581.394	1	9
581.734	1	5
582.074	1	12
582.414	1	23
582.753	1	14
583.093	1	15
583.433	1	17
583.772	1	10
584.112	1	17
584.452	1	13
584.791	1	8
585.131	1	26
585.471	1	19
585.811	1	13
586.150	1	29
586.490	1	18
586.830	1	23
587.169	1	12
587.509	1	12
587.849	1	14
588.188	1	32
588.528	1	19
588.867	1	20
589.207	1	16
589.547	1	22
589.886	1	-2
590.226	1	20
590.566	1	23
590.905	1	6
591.245	1	8
591.585	1	18
591.924	1	17
592.264	1	12
592.603	1	12
592.943	1	7
593.283	1	10
593.622	1	13
593.962	1	24
594.301	1	21
594.641	1	9
594.981	1	19
595.320	1	20
595.660	1	24
595.999	1	-3
596.339	1	9
596.678	1	6
597.018	1	3
597.358	1	22
597.697	1	9
598.037	1	17
598.376	1	17
598.716	1	25
599.055	1	23
599.395	1	17
599.734	1	22
600.074	1	11
600.413	1	25
600.753	1	19
601.092	1	28
601.432	1	8
601.771	1	15
602.111	1	17
602.451	1	19
602.790	1	12
603.130	1	19
603.469	1	10
603.809	1	6
604.148	1	20
604.487	1	10
604.827	1	22
605.166	1	17
605.506	1	12
605.845	1	15
606.185	1	20
606.524	1	9
606.864	1	11
607.203	1	9
607.543	1	20
607.882	1	22
608.222	1	15
608.561	1	17
608.901	1	16
609.240	1	10
609.579	1	25
609.919	1	12
610.258	1	22
610.598	1	17
610.937	1	11
611.277	1	12
611.616	1	8
611.955	1	22
612.295	1	3
612.634	1	9
612.974	1	5
613.313	1	18
613.652	1	22
613.992	1	8
614.331	1	13
614.671	1	17
615.010	1	15
615.349	1	14
615.689	1	7
616.028	1	12
616.368	1	13
616.707	1	0
617.046	1	12
617.386	1	15
617.725	1	5
618.064	1	5
618.404	1	11
618.743	1	13
619.082	1	12
619.422	1	3
619.761	1	11
620.100	1	26
620.440	1	2
620.779	1	5
621.118	1	8
621.458	1	9
621.797	1	11
622.136	1	18
622.476	1	15
622.815	1	10
623.154	1	17
623.494	1	21
623.833	1	16
624.172	1	9
624.511	1	3
624.851	1	-2
625.190	1	8
625.529	1	4
625.869	1	16
626.208	1	5
626.547	1	10
626.886	1	11
627.226	1	16
627.565	1	15
627.904	1	6
628.243	1	23
628.583	1	7
628.922	1	14
629.261	1	20
629.600	1	19
629.940	1	17
630.279	1	1
630.618	1	6
630.957	1	12
631.297	1	14
631.636	1	6
631.975	1	19
632.314	1	9
632.653	1	10
632.993	1	11
633.332	1	9
633.671	1	6
634.010	1	3
634.349	1	21
634.689	1	10
635.028	1	10
635.367	1	9
635.706	1	13
636.045	1	25
636.384	1	10
636.724	1	13
637.063	1	1
637.402	1	3
637.741	1	18
638.080	1	12
638.419	1	2
638.759	1	1
639.098	1	13
639.437	1	5
639.776	1	7
640.115	1	3
640.454	1	6
640.793	1	18
641.132	1	10
641.472	1	16
641.811	1	-1
642.150	1	0
642.489	1	6
642.828	1	-9
643.167	1	5
643.506	1	-2
643.845	1	8
644.184	1	3
644.524	1	0
644.863	1	-2
645.202	1	12
645.541	1	5
645.880	1	12
646.219	1	9
646.558	1	11
646.897	1	10
647.236	1	9
647.575	1	8
647.914	1	6
648.253	1	13
648.592	1	1
648.931	1	17
649.270	1	9
649.610	1	10
649.949	1	9
650.288	1	12
650.627	1	4
650.966	1	14
651.305	1	10
651.644	1	19
651.983	1	10
652.322	1	10
652.661	1	3
653.000	1	8
653.339	1	10
653.678	1	14
654.017	1	2
654.356	1	-6
654.695	1	7
655.034	1	3
655.373	1	10
655.712	1	9
656.051	1	12
656.390	1	2
656.729	1	19
657.068	1	10
657.406	1	12
657.745	1	3
658.084	1	13
658.423	1	12
658.762	1	8
659.101	1	9
659.440	1	1
659.779	1	10
660.118	1	8
660.457	1	5
660.796	1	-2
661.135	1	1
661.474	1	6
661.813	1	20
662.152	1	10
662.491	1	-2
662.829	1	9
663.168	1	13
663.507	1	15
663.846	1	2
664.185	1	15
664.524	1	3
664.863	1	0
665.202	1	14
665.541	1	1
665.879	1	-3
666.218	1	4
666.557	1	0
666.896	1	3
667.235	1	3
667.574	1	4
667.913	1	8
668.251	1	12
668.590	1	4
668.929	1	-6
669.268	1	1
669.607	1	-7
669.946	1	9
670.285	1	15
670.623	1	0
670.962	1	9
671.301	1	-2
671.640	1	9
671.979	1	3
672.317	1	13
672.656	1	3
672.995	1	12
673.334	1	0
673.673	1	11
674.011	1	8
674.350	1	7
674.689	1	7
675.028	1	6
675.367	1	15
675.705	1	12
676.044	1	8
676.383	1	12
676.722	1	12
677.060	1	11
677.399	1	-3
677.738	1	11
678.077	1	5
678.416	1	7
678.754	1	7
679.093	1	13
679.432	1	5
679.771	1	7
680.109	1	12
680.448	1	9
680.787	1	3
681.125	1	9
681.464	1	6
681.803	1	0
682.142	1	18
682.480	1	12
682.819	1	2
683.158	1	2
683.496	1	6
683.835	1	9
684.174	1	6
684.512	1	16
684.851	1	12
685.190	1	3
685.529	1	12
685.867	1	3
686.206	1	-2
686.545	1	1
686.883	1	8
687.222	1	10
687.561	1	8
687.899	1	0
688.238	1	8
688.577	1	3
688.746	1	9