File: Data/GaN_200K_800ms/GaN_sample F_spot 12_UVVIS_200 K_200um_800 ms 2x2mm1_317.txt
340.368	1	8
340.710	1	3
341.052	1	5
341.394	1	-9
341.737	1	7
342.079	1	-1
342.421	1	-2
342.763	1	1
343.105	1	4
343.447	1	-8
343.789	1	-14
344.131	1	4
344.473	1	2
344.815	1	-2
345.157	1	-2
345.499	1	-3
345.841	1	3
346.183	1	0
346.526	1	-6
346.868	1	1
347.210	1	-13
347.552	1	-3
347.894	1	0
348.236	1	6
348.578	1	1
348.920	1	-4
349.262	1	1
349.604	1	-2
349.946	1	1
350.288	1	5
350.630	1	3
350.972	1	0
351.314	1	4
351.656	1	3
351.998	1	8
352.340	1	10
352.682	1	-4
353.024	1	2
353.366	1	11
353.708	1	-3
354.050	1	-7
354.392	1	-11
354.734	1	3
355.076	1	-3
355.418	1	-2
355.760	1	0
356.102	1	12
356.444	1	5
356.785	1	8
357.127	1	0
357.469	1	-2
357.811	1	-6
358.153	1	11
358.495	1	-5
358.837	1	4
359.179	1	1
359.521	1	5
359.863	1	-6
360.205	1	-5
360.547	1	-2
360.889	1	-9
361.231	1	-7
361.572	1	8
361.914	1	3
362.256	1	9
362.598	1	4
362.940	1	5
363.282	1	4
363.624	1	9
363.966	1	10
364.308	1	3
364.649	1	11
364.991	1	5
365.333	1	2
365.675	1	2
366.017	1	8
366.359	1	3
366.701	1	13
367.042	1	6
367.384	1	28
367.726	1	11
368.068	1	19
368.410	1	26
368.752	1	12
369.093	1	7
369.435	1	20
369.777	1	10
370.119	1	13
370.461	1	24
370.803	1	18
371.144	1	15
371.486	1	16
371.828	1	18
372.170	1	26
372.512	1	13
372.853	1	7
373.195	1	14
373.537	1	10
373.879	1	9
374.220	1	21
374.562	1	21
374.904	1	13
375.246	1	16
375.588	1	4
375.929	1	16
376.271	1	13
376.613	1	4
376.955	1	-1
377.296	1	0
377.638	1	12
377.980	1	10
378.321	1	-1
378.663	1	2
379.005	1	12
379.347	1	5
379.688	1	5
380.030	1	3
380.372	1	5
380.714	1	15
381.055	1	13
381.397	1	-2
381.739	1	12
382.080	1	11
382.422	1	1
382.764	1	-4
383.105	1	2
383.447	1	-1
383.789	1	-5
384.130	1	-4
384.472	1	-15
384.814	1	6
385.156	1	-4
385.497	1	10
385.839	1	-1
386.180	1	7
386.522	1	13
386.864	1	1
387.205	1	2
387.547	1	-10
387.889	1	5
388.230	1	5
388.572	1	-4
388.914	1	-2
389.255	1	-10
389.597	1	9
389.939	1	4
390.280	1	2
390.622	1	-2
390.963	1	5
391.305	1	1
391.647	1	11
391.988	1	-1
392.330	1	4
392.671	1	-6
393.013	1	-1
393.355	1	11
393.696	1	-7
394.038	1	7
394.379	1	10
394.721	1	-4
395.062	1	8
395.404	1	-1
395.746	1	6
396.087	1	-1
396.429	1	10
396.770	1	-4
397.112	1	4
397.453	1	16
397.795	1	-2
398.136	1	-6
398.478	1	7
398.819	1	2
399.161	1	6
399.503	1	0
399.844	1	0
400.186	1	5
400.527	1	4
400.869	1	-5
401.210	1	0
401.552	1	-5
401.893	1	-1
402.235	1	-7
402.576	1	-2
402.918	1	15
403.259	1	-3
403.601	1	-3
403.942	1	10
404.284	1	3
404.625	1	11
404.967	1	-4
405.308	1	6
405.649	1	-6
405.991	1	-4
406.332	1	7
406.674	1	0
407.015	1	8
407.357	1	1
407.698	1	0
408.040	1	2
408.381	1	1
408.722	1	-12
409.064	1	-1
409.405	1	9
409.747	1	-1
410.088	1	-1
410.430	1	6
410.771	1	4
411.112	1	-6
411.454	1	-6
411.795	1	-4
412.137	1	8
412.478	1	7
412.819	1	-9
413.161	1	0
413.502	1	-2
413.844	1	7
414.185	1	-1
414.526	1	-9
414.868	1	4
415.209	1	-2
415.550	1	-10
415.892	1	-3
416.233	1	-1
416.575	1	16
416.916	1	-13
417.257	1	-2
417.599	1	6
417.940	1	4
418.281	1	5
418.623	1	-2
418.964	1	-18
419.305	1	-2
419.647	1	-2
419.988	1	-1
420.329	1	-6
420.671	1	3
421.012	1	-4
421.353	1	-1
421.695	1	-4
422.036	1	-3
422.377	1	-4
422.718	1	3
423.060	1	-5
423.401	1	-2
423.742	1	1
424.084	1	0
424.425	1	1
424.766	1	-6
425.107	1	-5
425.449	1	1
425.790	1	-11
426.131	1	2
426.472	1	-7
426.814	1	5
427.155	1	-5
427.496	1	-8
427.837	1	0
428.179	1	0
428.520	1	-3
428.861	1	-9
429.202	1	2
429.544	1	-1
429.885	1	2
430.226	1	-5
430.567	1	-9
430.909	1	-5
431.250	1	-5
431.591	1	-4
431.932	1	-8
432.273	1	-8
432.615	1	-12
432.956	1	-16
433.297	1	5
433.638	1	1
433.979	1	1
434.320	1	4
434.662	1	-3
435.003	1	0
435.344	1	-7
435.685	1	-2
436.026	1	4
436.368	1	7
436.709	1	-8
437.050	1	1
437.391	1	8
437.732	1	-5
438.073	1	11
438.414	1	-5
438.756	1	1
439.097	1	-1
439.438	1	-5
439.779	1	-1
440.120	1	1
440.461	1	-2
440.802	1	-5
441.143	1	7
441.485	1	1
441.826	1	-1
442.167	1	2
442.508	1	-7
442.849	1	2
443.190	1	7
443.531	1	5
443.872	1	8
444.213	1	2
444.554	1	6
444.895	1	-2
445.237	1	-3
445.578	1	-8
445.919	1	-6
446.260	1	4
446.601	1	3
446.942	1	5
447.283	1	-6
447.624	1	1
447.965	1	-2
448.306	1	9
448.647	1	-15
448.988	1	-4
449.329	1	-2
449.670	1	12
450.011	1	9
450.352	1	-4
450.693	1	0
451.034	1	-9
451.375	1	-1
451.716	1	-5
452.057	1	3
452.398	1	1
452.739	1	5
453.080	1	-3
453.421	1	4
453.762	1	3
454.103	1	-8
454.444	1	-8
454.785	1	-8
455.126	1	-15
455.467	1	0
455.808	1	5
456.149	1	2
456.490	1	-5
456.831	1	2
457.172	1	-1
457.513	1	7
457.854	1	4
458.195	1	-5
458.536	1	7
458.877	1	-11
459.218	1	-1
459.559	1	4
459.899	1	7
460.240	1	-4
460.581	1	12
460.922	1	1
461.263	1	-13
461.604	1	1
461.945	1	2
462.286	1	-1
462.627	1	4
462.968	1	2
463.309	1	-8
463.649	1	3
463.990	1	5
464.331	1	0
464.672	1	-3
465.013	1	-3
465.354	1	0
465.695	1	1
466.036	1	-3
466.376	1	-5
466.717	1	0
467.058	1	2
467.399	1	22
467.740	1	3
468.081	1	0
468.422	1	-5
468.762	1	2
469.103	1	-6
469.444	1	-9
469.785	1	-13
470.126	1	-9
470.467	1	-2
470.807	1	-3
471.148	1	-2
471.489	1	-1
471.830	1	4
472.171	1	3
472.511	1	-2
472.852	1	-3
473.193	1	6
473.534	1	1
473.875	1	7
474.215	1	8
474.556	1	2
474.897	1	4
475.238	1	-4
475.578	1	-3
475.919	1	-5
476.260	1	1
476.601	1	6
476.942	1	9
477.282	1	3
477.623	1	-3
477.964	1	-9
478.305	1	-1
478.645	1	8
478.986	1	-3
479.327	1	-9
479.667	1	-7
480.008	1	9
480.349	1	-4
480.690	1	2
481.030	1	-5
481.371	1	5
481.712	1	7
482.053	1	9
482.393	1	-4
482.734	1	-12
483.075	1	-6
483.415	1	6
483.756	1	10
484.097	1	0
484.437	1	-3
484.778	1	-3
485.119	1	-2
485.459	1	6
485.800	1	10
486.141	1	-7
486.481	1	-1
486.822	1	7
487.163	1	-4
487.503	1	-4
487.844	1	-2
488.185	1	-3
488.525	1	-4
488.866	1	4
489.207	1	-6
489.547	1	-5
489.888	1	1
490.228	1	-3
490.569	1	15
490.910	1	1
491.250	1	-8
491.591	1	-7
491.932	1	3
492.272	1	1
492.613	1	-3
492.953	1	-4
493.294	1	-7
493.635	1	4
493.975	1	3
494.316	1	6
494.656	1	8
494.997	1	-4
495.337	1	4
495.678	1	9
496.019	1	-4
496.359	1	-7
496.700	1	4
497.040	1	-1
497.381	1	-5
497.721	1	2
498.062	1	-5
498.403	1	5
498.743	1	-1
499.084	1	-4
499.424	1	-1
499.765	1	1
500.105	1	-1
500.446	1	-13
500.786	1	-8
501.127	1	-5
501.467	1	-13
501.808	1	2
502.148	1	3
502.489	1	5
502.829	1	-4
503.170	1	7
503.510	1	3
503.851	1	-1
504.191	1	7
504.532	1	7
504.872	1	0
505.213	1	3
505.553	1	-8
505.894	1	-2
506.234	1	5
506.575	1	5
506.915	1	1
507.256	1	-4
507.596	1	-2
507.936	1	-1
508.277	1	-1
508.617	1	4
508.958	1	-8
509.298	1	3
509.639	1	-2
509.979	1	-3
510.319	1	0
510.660	1	0
511.000	1	-6
511.341	1	-1
511.681	1	2
512.022	1	-12
512.362	1	-8
512.702	1	-6
513.043	1	12
513.383	1	-10
513.724	1	1
514.064	1	5
514.404	1	1
514.745	1	-1
515.085	1	-9
515.425	1	-3
515.766	1	-8
516.106	1	-10
516.447	1	12
516.787	1	5
517.127	1	-3
517.468	1	-5
517.808	1	-8
518.148	1	6
518.489	1	-13
518.829	1	3
519.169	1	-6
519.510	1	-4
519.850	1	8
520.190	1	-1
520.531	1	4
520.871	1	6
521.211	1	0
521.552	1	4
521.892	1	-3
522.232	1	-2
522.573	1	1
522.913	1	7
523.253	1	2
523.593	1	0
523.934	1	9
524.274	1	1
524.614	1	-10
524.955	1	-7
525.295	1	4
525.635	1	1
525.975	1	4
526.316	1	3
526.656	1	-3
526.996	1	7
527.337	1	-1
527.677	1	-10
528.017	1	-16
528.357	1	-7
528.698	1	7
529.038	1	-9
529.378	1	-2
529.718	1	15
530.058	1	0
530.399	1	13
530.739	1	3
531.079	1	-1
531.419	1	-1
531.760	1	2
532.100	1	5
532.440	1	0
532.780	1	-3
533.120	1	8
533.461	1	-3
533.801	1	7
534.141	1	-10
534.481	1	-6
534.821	1	4
535.162	1	-3
535.502	1	-8
535.842	1	5
536.182	1	-6
536.522	1	-10
536.862	1	1
537.203	1	-3
537.543	1	-8
537.883	1	-1
538.223	1	1
538.563	1	8
538.903	1	-3
539.243	1	4
539.584	1	2
539.924	1	15
540.264	1	2
540.604	1	-7
540.944	1	5
541.284	1	7
541.624	1	5
541.964	1	16
542.305	1	6
542.645	1	-5
542.985	1	2
543.325	1	-2
543.665	1	11
544.005	1	5
544.345	1	10
544.685	1	-4
545.025	1	-6
545.365	1	7
545.705	1	9
546.045	1	-8
546.386	1	-4
546.726	1	-4
547.066	1	-8
547.406	1	11
547.746	1	-8
548.086	1	-1
548.426	1	-7
548.766	1	2
549.106	1	1
549.446	1	-2
549.786	1	-2
550.126	1	14
550.466	1	7
550.806	1	-7
551.146	1	-1
551.486	1	4
551.826	1	10
552.166	1	1
552.506	1	6
552.846	1	-5
553.186	1	5
553.526	1	2
553.866	1	1
554.206	1	6
554.546	1	10
554.886	1	4
555.226	1	-6
555.566	1	-1
555.906	1	5
556.246	1	2
556.586	1	2
556.926	1	11
557.266	1	-4
557.606	1	0
557.946	1	8
558.286	1	3
558.626	1	-6
558.966	1	-1
559.306	1	4
559.646	1	-4
559.986	1	-3
560.325	1	-10
560.665	1	-2
561.005	1	-10
561.345	1	-1
561.685	1	-5
562.025	1	6
562.365	1	-4
562.705	1	0
563.045	1	-1
563.385	1	-14
563.725	1	1
564.064	1	0
564.404	1	7
564.744	1	-9
565.084	1	-3
565.424	1	9
565.764	1	-1
566.104	1	1
566.444	1	-5
566.783	1	-1
567.123	1	9
567.463	1	1
567.803	1	-1
568.143	1	-3
568.483	1	8
568.823	1	-4
569.162	1	4
569.502	1	3
569.842	1	6
570.182	1	10
570.522	1	-11
570.862	1	-2
571.201	1	7
571.541	1	6
571.881	1	16
572.221	1	-7
572.561	1	-2
572.900	1	0
573.240	1	-4
573.580	1	0
573.920	1	9
574.260	1	11
574.599	1	-2
574.939	1	-1
575.279	1	3
575.619	1	2
575.959	1	-2
576.298	1	12
576.638	1	1
576.978	1	7
577.318	1	11
577.657	1	-3
577.997	1	-11
578.337	1	6
578.677	1	4
579.016	1	15
579.356	1	-8
579.696	1	9
580.036	1	3
580.375	1	5
580.715	1	-5
581.055	1	-1
581.394	1	2
581.734	1	-10
582.074	1	-1
582.414	1	-5
582.753	1	0
583.093	1	-7
583.433	1	1
583.772	1	7
584.112	1	3
584.452	1	2
584.791	1	-2
585.131	1	4
585.471	1	1
585.811	1	13
586.150	1	-6
586.490	1	6
586.830	1	1
587.169	1	6
587.509	1	2
587.849	1	0
588.188	1	11
588.528	1	-3
588.867	1	10
589.207	1	-3
589.547	1	-1
589.886	1	1
590.226	1	10
590.566	1	3
590.905	1	-1
591.245	1	7
591.585	1	3
591.924	1	6
592.264	1	6
592.603	1	10
592.943	1	0
593.283	1	7
593.622	1	-6
593.962	1	7
594.301	1	-1
594.641	1	-2
594.981	1	-6
595.320	1	5
595.660	1	4
595.999	1	-5
596.339	1	3
596.678	1	-7
597.018	1	-1
597.358	1	-1
597.697	1	0
598.037	1	1
598.376	1	-10
598.716	1	10
599.055	1	7
599.395	1	-1
599.734	1	0
600.074	1	0
600.413	1	6
600.753	1	3
601.092	1	12
601.432	1	4
601.771	1	10
602.111	1	1
602.451	1	5
602.790	1	-5
603.130	1	5
603.469	1	-7
603.809	1	11
604.148	1	0
604.487	1	-1
604.827	1	5
605.166	1	6
605.506	1	6
605.845	1	8
606.185	1	2
606.524	1	-11
606.864	1	3
607.203	1	-7
607.543	1	-6
607.882	1	-2
608.222	1	-2
608.561	1	3
608.901	1	11
609.240	1	-2
609.579	1	5
609.919	1	11
610.258	1	4
610.598	1	0
610.937	1	0
611.277	1	6
611.616	1	-6
611.955	1	-3
612.295	1	3
612.634	1	3
612.974	1	-10
613.313	1	16
613.652	1	3
613.992	1	-4
614.331	1	-3
614.671	1	-5
615.010	1	2
615.349	1	0
615.689	1	5
616.028	1	-3
616.368	1	4
616.707	1	-1
617.046	1	5
617.386	1	-4
617.725	1	-2
618.064	1	1
618.404	1	3
618.743	1	6
619.082	1	2
619.422	1	-1
619.761	1	6
620.100	1	8
620.440	1	4
620.779	1	-13
621.118	1	4
621.458	1	1
621.797	1	2
622.136	1	10
622.476	1	-1
622.815	1	12
623.154	1	6
623.494	1	13
623.833	1	-1
624.172	1	-13
624.511	1	8
624.851	1	-6
625.190	1	-4
625.529	1	8
625.869	1	-7
626.208	1	-5
626.547	1	6
626.886	1	3
627.226	1	10
627.565	1	-8
627.904	1	1
628.243	1	6
628.583	1	1
628.922	1	8
629.261	1	4
629.600	1	0
629.940	1	3
630.279	1	-7
630.618	1	-13
630.957	1	-10
631.297	1	-3
631.636	1	-12
631.975	1	3
632.314	1	4
632.653	1	-2
632.993	1	4
633.332	1	5
633.671	1	-8
634.010	1	-6
634.349	1	8
634.689	1	-7
635.028	1	12
635.367	1	4
635.706	1	6
636.045	1	16
636.384	1	1
636.724	1	3
637.063	1	-2
637.402	1	10
637.741	1	2
638.080	1	-2
638.419	1	-9
638.759	1	-6
639.098	1	2
639.437	1	0
639.776	1	-3
640.115	1	-5
640.454	1	-1
640.793	1	11
641.132	1	4
641.472	1	-1
641.811	1	-3
642.150	1	-7
642.489	1	8
642.828	1	-3
643.167	1	-6
643.506	1	-3
643.845	1	-1
644.184	1	2
644.524	1	-5
644.863	1	-6
645.202	1	-2
645.541	1	7
645.880	1	0
646.219	1	1
646.558	1	0
646.897	1	-1
647.236	1	-4
647.575	1	-3
647.914	1	0
648.253	1	8
648.592	1	-3
648.931	1	17
649.270	1	6
649.610	1	-4
649.949	1	2
650.288	1	5
650.627	1	-2
650.966	1	3
651.305	1	7
651.644	1	2
651.983	1	2
652.322	1	-2
652.661	1	-10
653.000	1	-6
653.339	1	4
653.678	1	3
654.017	1	-6
654.356	1	0
654.695	1	4
655.034	1	7
655.373	1	8
655.712	1	-1
656.051	1	3
656.390	1	-8
656.729	1	6
657.068	1	6
657.406	1	2
657.745	1	-1
658.084	1	4
658.423	1	4
658.762	1	-6
659.101	1	5
659.440	1	-1
659.779	1	1
660.118	1	3
660.457	1	1
660.796	1	-7
661.135	1	-11
661.474	1	5
661.813	1	4
662.152	1	4
662.491	1	-1
662.829	1	-12
663.168	1	2
663.507	1	1
663.846	1	0
664.185	1	-5
664.524	1	-4
664.863	1	-2
665.202	1	6
665.541	1	-6
665.879	1	-4
666.218	1	-2
666.557	1	0
666.896	1	-7
667.235	1	7
667.574	1	3
667.913	1	-3
668.251	1	1
668.590	1	-4
668.929	1	-11
669.268	1	-8
669.607	1	1
669.946	1	8
670.285	1	10
670.623	1	4
670.962	1	-4
671.301	1	-6
671.640	1	6
671.979	1	-1
672.317	1	0
672.656	1	2
672.995	1	2
673.334	1	-4
673.673	1	3
674.011	1	-4
674.350	1	2
674.689	1	-8
675.028	1	-1
675.367	1	-6
675.705	1	4
676.044	1	-3
676.383	1	1
676.722	1	1
677.060	1	-5
677.399	1	-10
677.738	1	4
678.077	1	7
678.416	1	1
678.754	1	2
679.093	1	2
679.432	1	7
679.771	1	4
680.109	1	7
680.448	1	3
680.787	1	-8
681.125	1	5
681.464	1	-1
681.803	1	4
682.142	1	8
682.480	1	4
682.819	1	-6
683.158	1	1
683.496	1	-1
683.835	1	8
684.174	1	-4
684.512	1	1
684.851	1	3
685.190	1	-2
685.529	1	0
685.867	1	-1
686.206	1	-3
686.545	1	-5
686.883	1	0
687.222	1	12
687.561	1	-3
687.899	1	0
688.238	1	6
688.577	1	-1
688.746	1	-10