File: Data/GaN_200K_800ms/GaN_sample F_spot 12_UVVIS_200 K_200um_800 ms 2x2mm1_147.txt
340.368	1	3
340.710	1	-4
341.052	1	7
341.394	1	-1
341.737	1	8
342.079	1	3
342.421	1	5
342.763	1	6
343.105	1	1
343.447	1	1
343.789	1	5
344.131	1	1
344.473	1	0
344.815	1	0
345.157	1	-3
345.499	1	-3
345.841	1	10
346.183	1	-3
346.526	1	-9
346.868	1	11
347.210	1	-3
347.552	1	-7
347.894	1	-1
348.236	1	14
348.578	1	2
348.920	1	2
349.262	1	1
349.604	1	8
349.946	1	-4
350.288	1	1
350.630	1	1
350.972	1	0
351.314	1	1
351.656	1	16
351.998	1	19
352.340	1	3
352.682	1	3
353.024	1	10
353.366	1	23
353.708	1	5
354.050	1	-7
354.392	1	0
354.734	1	9
355.076	1	3
355.418	1	1
355.760	1	0
356.102	1	14
356.444	1	14
356.785	1	13
357.127	1	5
357.469	1	-1
357.811	1	4
358.153	1	16
358.495	1	8
358.837	1	8
359.179	1	3
359.521	1	15
359.863	1	13
360.205	1	5
360.547	1	11
360.889	1	7
361.231	1	5
361.572	1	14
361.914	1	8
362.256	1	17
362.598	1	6
362.940	1	15
363.282	1	12
363.624	1	24
363.966	1	13
364.308	1	28
364.649	1	25
364.991	1	27
365.333	1	26
365.675	1	29
366.017	1	30
366.359	1	36
366.701	1	40
367.042	1	51
367.384	1	44
367.726	1	45
368.068	1	46
368.410	1	58
368.752	1	41
369.093	1	42
369.435	1	61
369.777	1	48
370.119	1	47
370.461	1	67
370.803	1	47
371.144	1	51
371.486	1	55
371.828	1	55
372.170	1	51
372.512	1	41
372.853	1	39
373.195	1	39
373.537	1	39
373.879	1	32
374.220	1	43
374.562	1	43
374.904	1	27
375.246	1	38
375.588	1	26
375.929	1	36
376.271	1	44
376.613	1	26
376.955	1	18
377.296	1	25
377.638	1	25
377.980	1	28
378.321	1	23
378.663	1	23
379.005	1	31
379.347	1	29
379.688	1	20
380.030	1	20
380.372	1	7
380.714	1	17
381.055	1	17
381.397	1	14
381.739	1	14
382.080	1	20
382.422	1	17
382.764	1	8
383.105	1	8
383.447	1	13
383.789	1	7
384.130	1	8
384.472	1	9
384.814	1	19
385.156	1	9
385.497	1	18
385.839	1	3
386.180	1	15
386.522	1	12
386.864	1	20
387.205	1	5
387.547	1	3
387.889	1	2
388.230	1	12
388.572	1	2
388.914	1	4
389.255	1	7
389.597	1	11
389.939	1	8
390.280	1	4
390.622	1	8
390.963	1	22
391.305	1	15
391.647	1	0
391.988	1	18
392.330	1	4
392.671	1	-3
393.013	1	-3
393.355	1	15
393.696	1	3
394.038	1	-1
394.379	1	8
394.721	1	0
395.062	1	6
395.404	1	3
395.746	1	19
396.087	1	-5
396.429	1	11
396.770	1	1
397.112	1	9
397.453	1	5
397.795	1	2
398.136	1	-1
398.478	1	7
398.819	1	6
399.161	1	10
399.503	1	-5
399.844	1	3
400.186	1	7
400.527	1	2
400.869	1	7
401.210	1	10
401.552	1	-3
401.893	1	-3
402.235	1	0
402.576	1	4
402.918	1	10
403.259	1	5
403.601	1	1
403.942	1	15
404.284	1	5
404.625	1	6
404.967	1	9
405.308	1	2
405.649	1	-4
405.991	1	-4
406.332	1	7
406.674	1	-1
407.015	1	10
407.357	1	-5
407.698	1	7
408.040	1	-2
408.381	1	-2
408.722	1	0
409.064	1	3
409.405	1	6
409.747	1	5
410.088	1	6
410.430	1	4
410.771	1	9
411.112	1	-4
411.454	1	-4
411.795	1	-6
412.137	1	7
412.478	1	9
412.819	1	-9
413.161	1	8
413.502	1	2
413.844	1	-1
414.185	1	7
414.526	1	3
414.868	1	1
415.209	1	9
415.550	1	1
415.892	1	2
416.233	1	11
416.575	1	15
416.916	1	-5
417.257	1	-3
417.599	1	3
417.940	1	16
418.281	1	1
418.623	1	1
418.964	1	-12
419.305	1	2
419.647	1	4
419.988	1	5
420.329	1	-5
420.671	1	10
421.012	1	3
421.353	1	-2
421.695	1	1
422.036	1	1
422.377	1	-1
422.718	1	5
423.060	1	10
423.401	1	7
423.742	1	13
424.084	1	4
424.425	1	3
424.766	1	-4
425.107	1	-2
425.449	1	4
425.790	1	-9
426.131	1	7
426.472	1	4
426.814	1	1
427.155	1	-4
427.496	1	-3
427.837	1	-1
428.179	1	-12
428.520	1	5
428.861	1	-6
429.202	1	-1
429.544	1	6
429.885	1	6
430.226	1	-12
430.567	1	4
430.909	1	4
431.250	1	6
431.591	1	10
431.932	1	-8
432.273	1	0
432.615	1	0
432.956	1	-3
433.297	1	2
433.638	1	2
433.979	1	8
434.320	1	11
434.662	1	7
435.003	1	7
435.344	1	4
435.685	1	-2
436.026	1	-2
436.368	1	-3
436.709	1	-5
437.050	1	1
437.391	1	12
437.732	1	-4
438.073	1	-3
438.414	1	-10
438.756	1	5
439.097	1	-4
439.438	1	1
439.779	1	-2
440.120	1	0
440.461	1	-2
440.802	1	0
441.143	1	6
441.485	1	-2
441.826	1	2
442.167	1	4
442.508	1	-5
442.849	1	9
443.190	1	-9
443.531	1	5
443.872	1	9
444.213	1	1
444.554	1	6
444.895	1	-7
445.237	1	-5
445.578	1	-6
445.919	1	-13
446.260	1	3
446.601	1	-5
446.942	1	6
447.283	1	-1
447.624	1	5
447.965	1	0
448.306	1	-3
448.647	1	1
448.988	1	-2
449.329	1	6
449.670	1	5
450.011	1	9
450.352	1	-5
450.693	1	-9
451.034	1	-9
451.375	1	-5
451.716	1	-3
452.057	1	4
452.398	1	-3
452.739	1	-1
453.080	1	-3
453.421	1	-7
453.762	1	-4
454.103	1	-3
454.444	1	-5
454.785	1	-6
455.126	1	-1
455.467	1	7
455.808	1	0
456.149	1	-2
456.490	1	-7
456.831	1	1
457.172	1	-3
457.513	1	1
457.854	1	4
458.195	1	-3
458.536	1	10
458.877	1	-3
459.218	1	-2
459.559	1	5
459.899	1	2
460.240	1	2
460.581	1	13
460.922	1	7
461.263	1	-6
461.604	1	0
461.945	1	2
462.286	1	1
462.627	1	13
462.968	1	4
463.309	1	-11
463.649	1	3
463.990	1	0
464.331	1	-2
464.672	1	0
465.013	1	0
465.354	1	8
465.695	1	3
466.036	1	-8
466.376	1	3
466.717	1	5
467.058	1	-11
467.399	1	-7
467.740	1	-4
468.081	1	2
468.422	1	-9
468.762	1	-9
469.103	1	-12
469.444	1	-11
469.785	1	-11
470.126	1	-6
470.467	1	-4
470.807	1	7
471.148	1	3
471.489	1	5
471.830	1	-1
472.171	1	5
472.511	1	-6
472.852	1	9
473.193	1	15
473.534	1	11
473.875	1	10
474.215	1	10
474.556	1	-1
474.897	1	14
475.238	1	2
475.578	1	-5
475.919	1	1
476.260	1	2
476.601	1	0
476.942	1	12
477.282	1	-6
477.623	1	-15
477.964	1	5
478.305	1	1
478.645	1	8
478.986	1	-5
479.327	1	-6
479.667	1	-2
480.008	1	3
480.349	1	2
480.690	1	-3
481.030	1	-8
481.371	1	7
481.712	1	-2
482.053	1	-6
482.393	1	0
482.734	1	6
483.075	1	-1
483.415	1	7
483.756	1	6
484.097	1	5
484.437	1	0
484.778	1	2
485.119	1	-2
485.459	1	11
485.800	1	-1
486.141	1	-3
486.481	1	-7
486.822	1	2
487.163	1	-2
487.503	1	-2
487.844	1	-1
488.185	1	6
488.525	1	-6
488.866	1	7
489.207	1	-2
489.547	1	0
489.888	1	-2
490.228	1	7
490.569	1	6
490.910	1	2
491.250	1	-5
491.591	1	0
491.932	1	-1
492.272	1	0
492.613	1	-5
492.953	1	-1
493.294	1	1
493.635	1	8
493.975	1	7
494.316	1	10
494.656	1	-11
494.997	1	-1
495.337	1	9
495.678	1	4
496.019	1	2
496.359	1	-7
496.700	1	1
497.040	1	-2
497.381	1	-1
497.721	1	1
498.062	1	-3
498.403	1	6
498.743	1	1
499.084	1	2
499.424	1	9
499.765	1	1
500.105	1	3
500.446	1	-7
500.786	1	-16
501.127	1	-1
501.467	1	-4
501.808	1	7
502.148	1	12
502.489	1	3
502.829	1	0
503.170	1	9
503.510	1	-4
503.851	1	-6
504.191	1	3
504.532	1	8
504.872	1	1
505.213	1	14
505.553	1	-10
505.894	1	-2
506.234	1	11
506.575	1	6
506.915	1	10
507.256	1	4
507.596	1	14
507.936	1	-2
508.277	1	4
508.617	1	2
508.958	1	-5
509.298	1	7
509.639	1	3
509.979	1	10
510.319	1	13
510.660	1	-10
511.000	1	-6
511.341	1	8
511.681	1	6
512.022	1	4
512.362	1	-2
512.702	1	-3
513.043	1	7
513.383	1	-4
513.724	1	-2
514.064	1	7
514.404	1	-7
514.745	1	-5
515.085	1	-3
515.425	1	1
515.766	1	-5
516.106	1	6
516.447	1	7
516.787	1	10
517.127	1	8
517.468	1	-3
517.808	1	2
518.148	1	6
518.489	1	3
518.829	1	12
519.169	1	3
519.510	1	7
519.850	1	10
520.190	1	-5
520.531	1	3
520.871	1	7
521.211	1	-2
521.552	1	5
521.892	1	5
522.232	1	5
522.573	1	2
522.913	1	15
523.253	1	12
523.593	1	3
523.934	1	-2
524.274	1	0
524.614	1	1
524.955	1	2
525.295	1	7
525.635	1	12
525.975	1	6
526.316	1	20
526.656	1	7
526.996	1	8
527.337	1	5
527.677	1	10
528.017	1	-2
528.357	1	4
528.698	1	5
529.038	1	2
529.378	1	5
529.718	1	8
530.058	1	7
530.399	1	11
530.739	1	-7
531.079	1	8
531.419	1	10
531.760	1	11
532.100	1	-1
532.440	1	6
532.780	1	7
533.120	1	13
533.461	1	6
533.801	1	20
534.141	1	-7
534.481	1	3
534.821	1	9
535.162	1	4
535.502	1	-3
535.842	1	9
536.182	1	0
536.522	1	10
536.862	1	9
537.203	1	-8
537.543	1	2
537.883	1	3
538.223	1	7
538.563	1	11
538.903	1	3
539.243	1	5
539.584	1	1
539.924	1	8
540.264	1	-4
540.604	1	-5
540.944	1	-1
541.284	1	15
541.624	1	6
541.964	1	4
542.305	1	11
542.645	1	3
542.985	1	11
543.325	1	3
543.665	1	15
544.005	1	12
544.345	1	7
544.685	1	2
545.025	1	16
545.365	1	4
545.705	1	4
546.045	1	-1
546.386	1	10
546.726	1	-9
547.066	1	3
547.406	1	12
547.746	1	-6
548.086	1	7
548.426	1	-2
548.766	1	4
549.106	1	5
549.446	1	1
549.786	1	-2
550.126	1	9
550.466	1	8
550.806	1	-3
551.146	1	5
551.486	1	6
551.826	1	4
552.166	1	6
552.506	1	14
552.846	1	4
553.186	1	11
553.526	1	7
553.866	1	4
554.206	1	13
554.546	1	10
554.886	1	14
555.226	1	-8
555.566	1	13
555.906	1	8
556.246	1	5
556.586	1	13
556.926	1	5
557.266	1	1
557.606	1	12
557.946	1	18
558.286	1	8
558.626	1	12
558.966	1	8
559.306	1	3
559.646	1	7
559.986	1	-2
560.325	1	-5
560.665	1	13
561.005	1	0
561.345	1	-3
561.685	1	5
562.025	1	13
562.365	1	15
562.705	1	6
563.045	1	12
563.385	1	1
563.725	1	7
564.064	1	-3
564.404	1	9
564.744	1	-2
565.084	1	6
565.424	1	8
565.764	1	9
566.104	1	2
566.444	1	-2
566.783	1	7
567.123	1	6
567.463	1	15
567.803	1	-5
568.143	1	9
568.483	1	8
568.823	1	10
569.162	1	6
569.502	1	8
569.842	1	11
570.182	1	11
570.522	1	1
570.862	1	4
571.201	1	15
571.541	1	17
571.881	1	8
572.221	1	-4
572.561	1	0
572.900	1	-8
573.240	1	11
573.580	1	7
573.920	1	7
574.260	1	14
574.599	1	4
574.939	1	8
575.279	1	19
575.619	1	14
575.959	1	-1
576.298	1	8
576.638	1	-1
576.978	1	9
577.318	1	8
577.657	1	6
577.997	1	4
578.337	1	9
578.677	1	14
579.016	1	16
579.356	1	-6
579.696	1	8
580.036	1	0
580.375	1	10
580.715	1	1
581.055	1	-1
581.394	1	3
581.734	1	-2
582.074	1	-5
582.414	1	14
582.753	1	3
583.093	1	3
583.433	1	-1
583.772	1	14
584.112	1	7
584.452	1	12
584.791	1	4
585.131	1	7
585.471	1	13
585.811	1	1
586.150	1	-2
586.490	1	10
586.830	1	5
587.169	1	0
587.509	1	2
587.849	1	13
588.188	1	18
588.528	1	8
588.867	1	17
589.207	1	0
589.547	1	7
589.886	1	4
590.226	1	8
590.566	1	2
590.905	1	3
591.245	1	2
591.585	1	10
591.924	1	1
592.264	1	6
592.603	1	19
592.943	1	6
593.283	1	8
593.622	1	3
593.962	1	5
594.301	1	11
594.641	1	3
594.981	1	-4
595.320	1	-4
595.660	1	4
595.999	1	0
596.339	1	17
596.678	1	3
597.018	1	-8
597.358	1	-1
597.697	1	5
598.037	1	3
598.376	1	11
598.716	1	9
599.055	1	11
599.395	1	1
599.734	1	3
600.074	1	10
600.413	1	8
600.753	1	0
601.092	1	18
601.432	1	0
601.771	1	5
602.111	1	9
602.451	1	8
602.790	1	6
603.130	1	3
603.469	1	-6
603.809	1	14
604.148	1	14
604.487	1	-1
604.827	1	8
605.166	1	12
605.506	1	4
605.845	1	-2
606.185	1	14
606.524	1	-9
606.864	1	7
607.203	1	-3
607.543	1	-10
607.882	1	8
608.222	1	9
608.561	1	6
608.901	1	-3
609.240	1	8
609.579	1	7
609.919	1	19
610.258	1	14
610.598	1	8
610.937	1	2
611.277	1	6
611.616	1	-1
611.955	1	-1
612.295	1	9
612.634	1	2
612.974	1	-9
613.313	1	15
613.652	1	8
613.992	1	5
614.331	1	-1
614.671	1	10
615.010	1	0
615.349	1	5
615.689	1	7
616.028	1	7
616.368	1	8
616.707	1	0
617.046	1	-2
617.386	1	10
617.725	1	5
618.064	1	4
618.404	1	-1
618.743	1	5
619.082	1	3
619.422	1	-8
619.761	1	10
620.100	1	15
620.440	1	2
620.779	1	-3
621.118	1	-3
621.458	1	4
621.797	1	-5
622.136	1	17
622.476	1	18
622.815	1	5
623.154	1	13
623.494	1	11
623.833	1	10
624.172	1	2
624.511	1	3
624.851	1	-11
625.190	1	3
625.529	1	10
625.869	1	7
626.208	1	3
626.547	1	1
626.886	1	7
627.226	1	8
627.565	1	-3
627.904	1	6
628.243	1	6
628.583	1	0
628.922	1	4
629.261	1	15
629.600	1	9
629.940	1	7
630.279	1	2
630.618	1	1
630.957	1	5
631.297	1	2
631.636	1	-9
631.975	1	14
632.314	1	12
632.653	1	7
632.993	1	-2
633.332	1	-2
633.671	1	-6
634.010	1	-7
634.349	1	12
634.689	1	7
635.028	1	6
635.367	1	7
635.706	1	3
636.045	1	11
636.384	1	14
636.724	1	6
637.063	1	-2
637.402	1	6
637.741	1	5
638.080	1	-5
638.419	1	-3
638.759	1	2
639.098	1	14
639.437	1	5
639.776	1	4
640.115	1	3
640.454	1	-7
640.793	1	7
641.132	1	8
641.472	1	-8
641.811	1	10
642.150	1	-7
642.489	1	9
642.828	1	2
643.167	1	5
643.506	1	-17
643.845	1	3
644.184	1	0
644.524	1	1
644.863	1	-6
645.202	1	7
645.541	1	-1
645.880	1	3
646.219	1	9
646.558	1	0
646.897	1	7
647.236	1	6
647.575	1	5
647.914	1	-5
648.253	1	7
648.592	1	4
648.931	1	5
649.270	1	-10
649.610	1	3
649.949	1	0
650.288	1	5
650.627	1	-6
650.966	1	9
651.305	1	14
651.644	1	17
651.983	1	2
652.322	1	0
652.661	1	6
653.000	1	-4
653.339	1	9
653.678	1	9
654.017	1	2
654.356	1	-8
654.695	1	11
655.034	1	6
655.373	1	9
655.712	1	8
656.051	1	4
656.390	1	4
656.729	1	11
657.068	1	3
657.406	1	7
657.745	1	-1
658.084	1	1
658.423	1	1
658.762	1	-5
659.101	1	8
659.440	1	7
659.779	1	0
660.118	1	3
660.457	1	10
660.796	1	-5
661.135	1	2
661.474	1	-2
661.813	1	19
662.152	1	3
662.491	1	9
662.829	1	-5
663.168	1	1
663.507	1	7
663.846	1	4
664.185	1	1
664.524	1	7
664.863	1	-10
665.202	1	6
665.541	1	-5
665.879	1	-9
666.218	1	2
666.557	1	3
666.896	1	-5
667.235	1	5
667.574	1	0
667.913	1	7
668.251	1	3
668.590	1	-2
668.929	1	-8
669.268	1	6
669.607	1	-5
669.946	1	2
670.285	1	4
670.623	1	-4
670.962	1	-3
671.301	1	2
671.640	1	2
671.979	1	2
672.317	1	3
672.656	1	-2
672.995	1	8
673.334	1	-5
673.673	1	4
674.011	1	7
674.350	1	6
674.689	1	11
675.028	1	2
675.367	1	14
675.705	1	2
676.044	1	5
676.383	1	5
676.722	1	2
677.060	1	-1
677.399	1	-5
677.738	1	13
678.077	1	1
678.416	1	8
678.754	1	3
679.093	1	4
679.432	1	12
679.771	1	4
680.109	1	13
680.448	1	4
680.787	1	1
681.125	1	9
681.464	1	0
681.803	1	5
682.142	1	9
682.480	1	11
682.819	1	7
683.158	1	-5
683.496	1	12
683.835	1	6
684.174	1	0
684.512	1	9
684.851	1	2
685.190	1	5
685.529	1	-1
685.867	1	2
686.206	1	-5
686.545	1	-12
686.883	1	-3
687.222	1	10
687.561	1	10
687.899	1	6
688.238	1	3
688.577	1	1
688.746	1	-4