File: Data/GaN_200K_800ms/GaN_sample F_spot 12_UVVIS_200 K_200um_800 ms 2x2mm1_184.txt
340.368	1	1
340.710	1	-12
341.052	1	7
341.394	1	-1
341.737	1	2
342.079	1	3
342.421	1	-3
342.763	1	3
343.105	1	1
343.447	1	-12
343.789	1	1
344.131	1	-2
344.473	1	-1
344.815	1	-6
345.157	1	-2
345.499	1	0
345.841	1	11
346.183	1	0
346.526	1	-5
346.868	1	6
347.210	1	-12
347.552	1	-9
347.894	1	6
348.236	1	5
348.578	1	-4
348.920	1	4
349.262	1	-12
349.604	1	5
349.946	1	-6
350.288	1	12
350.630	1	-2
350.972	1	5
351.314	1	4
351.656	1	4
351.998	1	7
352.340	1	7
352.682	1	11
353.024	1	15
353.366	1	14
353.708	1	5
354.050	1	0
354.392	1	0
354.734	1	3
355.076	1	3
355.418	1	-12
355.760	1	-1
356.102	1	11
356.444	1	4
356.785	1	1
357.127	1	4
357.469	1	1
357.811	1	4
358.153	1	6
358.495	1	2
358.837	1	-5
359.179	1	9
359.521	1	6
359.863	1	-5
360.205	1	-2
360.547	1	22
360.889	1	6
361.231	1	2
361.572	1	8
361.914	1	7
362.256	1	10
362.598	1	4
362.940	1	4
363.282	1	17
363.624	1	26
363.966	1	16
364.308	1	15
364.649	1	20
364.991	1	26
365.333	1	17
365.675	1	16
366.017	1	29
366.359	1	26
366.701	1	22
367.042	1	34
367.384	1	29
367.726	1	41
368.068	1	35
368.410	1	47
368.752	1	36
369.093	1	33
369.435	1	39
369.777	1	35
370.119	1	33
370.461	1	49
370.803	1	35
371.144	1	27
371.486	1	40
371.828	1	35
372.170	1	38
372.512	1	34
372.853	1	30
373.195	1	19
373.537	1	40
373.879	1	29
374.220	1	33
374.562	1	39
374.904	1	21
375.246	1	31
375.588	1	21
375.929	1	27
376.271	1	20
376.613	1	14
376.955	1	9
377.296	1	18
377.638	1	17
377.980	1	19
378.321	1	5
378.663	1	11
379.005	1	17
379.347	1	9
379.688	1	11
380.030	1	9
380.372	1	13
380.714	1	12
381.055	1	16
381.397	1	0
381.739	1	5
382.080	1	11
382.422	1	7
382.764	1	8
383.105	1	5
383.447	1	5
383.789	1	-4
384.130	1	10
384.472	1	4
384.814	1	10
385.156	1	2
385.497	1	6
385.839	1	3
386.180	1	-4
386.522	1	13
386.864	1	0
387.205	1	-8
387.547	1	5
387.889	1	2
388.230	1	15
388.572	1	5
388.914	1	14
389.255	1	4
389.597	1	10
389.939	1	-5
390.280	1	11
390.622	1	9
390.963	1	11
391.305	1	3
391.647	1	5
391.988	1	5
392.330	1	7
392.671	1	-5
393.013	1	1
393.355	1	6
393.696	1	0
394.038	1	3
394.379	1	0
394.721	1	1
395.062	1	9
395.404	1	-1
395.746	1	7
396.087	1	1
396.429	1	6
396.770	1	5
397.112	1	14
397.453	1	10
397.795	1	9
398.136	1	1
398.478	1	7
398.819	1	2
399.161	1	6
399.503	1	2
399.844	1	6
400.186	1	6
400.527	1	-4
400.869	1	-3
401.210	1	6
401.552	1	-1
401.893	1	3
402.235	1	4
402.576	1	3
402.918	1	1
403.259	1	1
403.601	1	-2
403.942	1	5
404.284	1	13
404.625	1	2
404.967	1	-1
405.308	1	5
405.649	1	-4
405.991	1	3
406.332	1	8
406.674	1	3
407.015	1	13
407.357	1	0
407.698	1	6
408.040	1	-6
408.381	1	-3
408.722	1	-4
409.064	1	4
409.405	1	-2
409.747	1	1
410.088	1	-3
410.430	1	-5
410.771	1	2
411.112	1	-4
411.454	1	-5
411.795	1	-14
412.137	1	7
412.478	1	18
412.819	1	-2
413.161	1	-5
413.502	1	3
413.844	1	5
414.185	1	6
414.526	1	-1
414.868	1	3
415.209	1	-1
415.550	1	-3
415.892	1	-9
416.233	1	5
416.575	1	8
416.916	1	-11
417.257	1	-5
417.599	1	0
417.940	1	3
418.281	1	0
418.623	1	-2
418.964	1	-12
419.305	1	0
419.647	1	5
419.988	1	2
420.329	1	-2
420.671	1	4
421.012	1	7
421.353	1	4
421.695	1	-6
422.036	1	1
422.377	1	-1
422.718	1	8
423.060	1	-4
423.401	1	-5
423.742	1	2
424.084	1	3
424.425	1	4
424.766	1	-1
425.107	1	-5
425.449	1	6
425.790	1	-7
426.131	1	-3
426.472	1	-1
426.814	1	6
427.155	1	-3
427.496	1	-3
427.837	1	-7
428.179	1	1
428.520	1	-1
428.861	1	3
429.202	1	0
429.544	1	-1
429.885	1	4
430.226	1	-10
430.567	1	11
430.909	1	-1
431.250	1	-4
431.591	1	9
431.932	1	-15
432.273	1	0
432.615	1	-7
432.956	1	-1
433.297	1	7
433.638	1	2
433.979	1	4
434.320	1	7
434.662	1	0
435.003	1	1
435.344	1	1
435.685	1	2
436.026	1	13
436.368	1	3
436.709	1	-5
437.050	1	-3
437.391	1	8
437.732	1	-6
438.073	1	5
438.414	1	-4
438.756	1	-1
439.097	1	-9
439.438	1	-4
439.779	1	-6
440.120	1	-3
440.461	1	3
440.802	1	-2
441.143	1	5
441.485	1	1
441.826	1	-2
442.167	1	1
442.508	1	-10
442.849	1	7
443.190	1	-7
443.531	1	7
443.872	1	4
444.213	1	6
444.554	1	6
444.895	1	-8
445.237	1	-3
445.578	1	-10
445.919	1	-12
446.260	1	-2
446.601	1	-3
446.942	1	4
447.283	1	-8
447.624	1	3
447.965	1	-3
448.306	1	-1
448.647	1	-8
448.988	1	-12
449.329	1	-7
449.670	1	5
450.011	1	5
450.352	1	-5
450.693	1	-15
451.034	1	-5
451.375	1	-2
451.716	1	-3
452.057	1	3
452.398	1	-3
452.739	1	-2
453.080	1	0
453.421	1	-7
453.762	1	2
454.103	1	2
454.444	1	-11
454.785	1	1
455.126	1	-10
455.467	1	-3
455.808	1	0
456.149	1	9
456.490	1	-1
456.831	1	5
457.172	1	-3
457.513	1	4
457.854	1	2
458.195	1	-5
458.536	1	8
458.877	1	0
459.218	1	7
459.559	1	-1
459.899	1	2
460.240	1	-7
460.581	1	12
460.922	1	-2
461.263	1	-5
461.604	1	6
461.945	1	3
462.286	1	2
462.627	1	0
462.968	1	3
463.309	1	-2
463.649	1	-4
463.990	1	-9
464.331	1	-9
464.672	1	1
465.013	1	0
465.354	1	2
465.695	1	-7
466.036	1	-6
466.376	1	-1
466.717	1	5
467.058	1	-2
467.399	1	2
467.740	1	1
468.081	1	5
468.422	1	-5
468.762	1	-8
469.103	1	0
469.444	1	-11
469.785	1	-9
470.126	1	-4
470.467	1	-9
470.807	1	-5
471.148	1	-2
471.489	1	-3
471.830	1	0
472.171	1	0
472.511	1	-5
472.852	1	-5
473.193	1	4
473.534	1	2
473.875	1	9
474.215	1	10
474.556	1	-3
474.897	1	7
475.238	1	-2
475.578	1	-3
475.919	1	-3
476.260	1	-3
476.601	1	5
476.942	1	10
477.282	1	10
477.623	1	-6
477.964	1	-6
478.305	1	-7
478.645	1	7
478.986	1	-5
479.327	1	-5
479.667	1	0
480.008	1	-9
480.349	1	-3
480.690	1	2
481.030	1	-2
481.371	1	3
481.712	1	1
482.053	1	1
482.393	1	7
482.734	1	-1
483.075	1	0
483.415	1	-2
483.756	1	4
484.097	1	0
484.437	1	-5
484.778	1	2
485.119	1	-1
485.459	1	11
485.800	1	-1
486.141	1	-6
486.481	1	5
486.822	1	5
487.163	1	-1
487.503	1	3
487.844	1	0
488.185	1	1
488.525	1	-6
488.866	1	1
489.207	1	2
489.547	1	-5
489.888	1	-9
490.228	1	11
490.569	1	16
490.910	1	-6
491.250	1	-2
491.591	1	-8
491.932	1	-1
492.272	1	3
492.613	1	-3
492.953	1	0
493.294	1	-7
493.635	1	-10
493.975	1	0
494.316	1	0
494.656	1	-8
494.997	1	-1
495.337	1	10
495.678	1	3
496.019	1	-6
496.359	1	0
496.700	1	4
497.040	1	-14
497.381	1	-5
497.721	1	13
498.062	1	2
498.403	1	-2
498.743	1	3
499.084	1	-5
499.424	1	5
499.765	1	5
500.105	1	-7
500.446	1	-11
500.786	1	-6
501.127	1	7
501.467	1	3
501.808	1	9
502.148	1	3
502.489	1	10
502.829	1	1
503.170	1	12
503.510	1	8
503.851	1	1
504.191	1	11
504.532	1	-2
504.872	1	-1
505.213	1	4
505.553	1	-1
505.894	1	-4
506.234	1	10
506.575	1	5
506.915	1	8
507.256	1	3
507.596	1	13
507.936	1	-1
508.277	1	-1
508.617	1	3
508.958	1	-3
509.298	1	4
509.639	1	1
509.979	1	3
510.319	1	7
510.660	1	-4
511.000	1	-2
511.341	1	7
511.681	1	4
512.022	1	-3
512.362	1	-1
512.702	1	5
513.043	1	0
513.383	1	-8
513.724	1	3
514.064	1	7
514.404	1	-4
514.745	1	-9
515.085	1	-4
515.425	1	-1
515.766	1	-7
516.106	1	3
516.447	1	10
516.787	1	6
517.127	1	-3
517.468	1	-2
517.808	1	-1
518.148	1	1
518.489	1	2
518.829	1	6
519.169	1	6
519.510	1	3
519.850	1	10
520.190	1	5
520.531	1	3
520.871	1	6
521.211	1	-9
521.552	1	7
521.892	1	5
522.232	1	5
522.573	1	-6
522.913	1	3
523.253	1	-1
523.593	1	1
523.934	1	0
524.274	1	8
524.614	1	-4
524.955	1	-7
525.295	1	10
525.635	1	3
525.975	1	4
526.316	1	9
526.656	1	2
526.996	1	4
527.337	1	4
527.677	1	9
528.017	1	-10
528.357	1	3
528.698	1	5
529.038	1	-2
529.378	1	7
529.718	1	10
530.058	1	-6
530.399	1	8
530.739	1	9
531.079	1	13
531.419	1	4
531.760	1	0
532.100	1	4
532.440	1	-1
532.780	1	-9
533.120	1	8
533.461	1	5
533.801	1	16
534.141	1	-5
534.481	1	-1
534.821	1	12
535.162	1	4
535.502	1	-7
535.842	1	6
536.182	1	4
536.522	1	-6
536.862	1	4
537.203	1	-7
537.543	1	-8
537.883	1	-2
538.223	1	3
538.563	1	3
538.903	1	2
539.243	1	11
539.584	1	-2
539.924	1	15
540.264	1	-9
540.604	1	2
540.944	1	4
541.284	1	8
541.624	1	7
541.964	1	1
542.305	1	2
542.645	1	1
542.985	1	4
543.325	1	9
543.665	1	11
544.005	1	9
544.345	1	7
544.685	1	5
545.025	1	4
545.365	1	1
545.705	1	4
546.045	1	-7
546.386	1	16
546.726	1	-7
547.066	1	10
547.406	1	-2
547.746	1	3
548.086	1	7
548.426	1	8
548.766	1	3
549.106	1	-3
549.446	1	5
549.786	1	-3
550.126	1	11
550.466	1	7
550.806	1	1
551.146	1	-3
551.486	1	1
551.826	1	1
552.166	1	0
552.506	1	7
552.846	1	-2
553.186	1	10
553.526	1	-2
553.866	1	4
554.206	1	8
554.546	1	-4
554.886	1	-1
555.226	1	-9
555.566	1	7
555.906	1	12
556.246	1	-1
556.586	1	6
556.926	1	8
557.266	1	3
557.606	1	1
557.946	1	12
558.286	1	3
558.626	1	7
558.966	1	2
559.306	1	0
559.646	1	-11
559.986	1	0
560.325	1	-2
560.665	1	3
561.005	1	8
561.345	1	0
561.685	1	2
562.025	1	-3
562.365	1	6
562.705	1	-1
563.045	1	-6
563.385	1	-11
563.725	1	3
564.064	1	7
564.404	1	11
564.744	1	0
565.084	1	-6
565.424	1	8
565.764	1	-2
566.104	1	3
566.444	1	-6
566.783	1	0
567.123	1	6
567.463	1	8
567.803	1	-4
568.143	1	-4
568.483	1	2
568.823	1	5
569.162	1	8
569.502	1	3
569.842	1	11
570.182	1	9
570.522	1	-12
570.862	1	-7
571.201	1	8
571.541	1	2
571.881	1	6
572.221	1	-2
572.561	1	1
572.900	1	-1
573.240	1	-3
573.580	1	1
573.920	1	6
574.260	1	5
574.599	1	5
574.939	1	7
575.279	1	10
575.619	1	19
575.959	1	-4
576.298	1	10
576.638	1	-4
576.978	1	14
577.318	1	5
577.657	1	0
577.997	1	4
578.337	1	10
578.677	1	6
579.016	1	8
579.356	1	-4
579.696	1	1
580.036	1	0
580.375	1	-1
580.715	1	0
581.055	1	5
581.394	1	-3
581.734	1	-8
582.074	1	-2
582.414	1	4
582.753	1	0
583.093	1	4
583.433	1	-1
583.772	1	7
584.112	1	2
584.452	1	6
584.791	1	-3
585.131	1	7
585.471	1	11
585.811	1	3
586.150	1	8
586.490	1	11
586.830	1	6
587.169	1	10
587.509	1	-5
587.849	1	-2
588.188	1	10
588.528	1	7
588.867	1	9
589.207	1	11
589.547	1	6
589.886	1	-1
590.226	1	7
590.566	1	1
590.905	1	-8
591.245	1	2
591.585	1	4
591.924	1	6
592.264	1	8
592.603	1	2
592.943	1	-2
593.283	1	3
593.622	1	9
593.962	1	7
594.301	1	2
594.641	1	5
594.981	1	-8
595.320	1	0
595.660	1	8
595.999	1	-12
596.339	1	10
596.678	1	-1
597.018	1	-12
597.358	1	4
597.697	1	0
598.037	1	-4
598.376	1	14
598.716	1	10
599.055	1	4
599.395	1	2
599.734	1	-5
600.074	1	4
600.413	1	9
600.753	1	8
601.092	1	15
601.432	1	-1
601.771	1	0
602.111	1	13
602.451	1	12
602.790	1	3
603.130	1	0
603.469	1	-9
603.809	1	8
604.148	1	5
604.487	1	4
604.827	1	7
605.166	1	7
605.506	1	4
605.845	1	1
606.185	1	10
606.524	1	-5
606.864	1	-3
607.203	1	7
607.543	1	-1
607.882	1	14
608.222	1	5
608.561	1	8
608.901	1	2
609.240	1	-2
609.579	1	5
609.919	1	9
610.258	1	7
610.598	1	2
610.937	1	1
611.277	1	-3
611.616	1	6
611.955	1	0
612.295	1	-5
612.634	1	3
612.974	1	-5
613.313	1	8
613.652	1	6
613.992	1	-7
614.331	1	4
614.671	1	1
615.010	1	4
615.349	1	13
615.689	1	17
616.028	1	6
616.368	1	6
616.707	1	-3
617.046	1	4
617.386	1	-3
617.725	1	-2
618.064	1	-2
618.404	1	-7
618.743	1	3
619.082	1	0
619.422	1	2
619.761	1	5
620.100	1	9
620.440	1	4
620.779	1	-8
621.118	1	-2
621.458	1	-1
621.797	1	8
622.136	1	23
622.476	1	1
622.815	1	12
623.154	1	5
623.494	1	16
623.833	1	-1
624.172	1	2
624.511	1	1
624.851	1	-6
625.190	1	-1
625.529	1	-8
625.869	1	5
626.208	1	3
626.547	1	4
626.886	1	2
627.226	1	2
627.565	1	4
627.904	1	-2
628.243	1	7
628.583	1	1
628.922	1	5
629.261	1	5
629.600	1	3
629.940	1	3
630.279	1	3
630.618	1	-6
630.957	1	1
631.297	1	-3
631.636	1	-5
631.975	1	12
632.314	1	-10
632.653	1	6
632.993	1	-5
633.332	1	5
633.671	1	-5
634.010	1	0
634.349	1	11
634.689	1	6
635.028	1	-4
635.367	1	13
635.706	1	9
636.045	1	5
636.384	1	-3
636.724	1	5
637.063	1	-3
637.402	1	5
637.741	1	2
638.080	1	2
638.419	1	1
638.759	1	1
639.098	1	3
639.437	1	1
639.776	1	1
640.115	1	4
640.454	1	-4
640.793	1	7
641.132	1	15
641.472	1	9
641.811	1	10
642.150	1	-9
642.489	1	2
642.828	1	-9
643.167	1	-8
643.506	1	-10
643.845	1	8
644.184	1	-4
644.524	1	3
644.863	1	-8
645.202	1	-2
645.541	1	0
645.880	1	8
646.219	1	2
646.558	1	-2
646.897	1	0
647.236	1	3
647.575	1	2
647.914	1	0
648.253	1	10
648.592	1	-2
648.931	1	12
649.270	1	-1
649.610	1	5
649.949	1	9
650.288	1	-1
650.627	1	-1
650.966	1	12
651.305	1	-2
651.644	1	10
651.983	1	0
652.322	1	1
652.661	1	-4
653.000	1	6
653.339	1	0
653.678	1	-4
654.017	1	4
654.356	1	2
654.695	1	11
655.034	1	8
655.373	1	6
655.712	1	11
656.051	1	7
656.390	1	-1
656.729	1	6
657.068	1	7
657.406	1	8
657.745	1	-1
658.084	1	2
658.423	1	13
658.762	1	-3
659.101	1	12
659.440	1	5
659.779	1	8
660.118	1	8
660.457	1	3
660.796	1	-9
661.135	1	-2
661.474	1	-4
661.813	1	10
662.152	1	13
662.491	1	1
662.829	1	-7
663.168	1	4
663.507	1	7
663.846	1	-5
664.185	1	-1
664.524	1	2
664.863	1	-13
665.202	1	9
665.541	1	-5
665.879	1	-7
666.218	1	-4
666.557	1	-2
666.896	1	-5
667.235	1	6
667.574	1	-8
667.913	1	2
668.251	1	-2
668.590	1	-4
668.929	1	-4
669.268	1	-7
669.607	1	-3
669.946	1	6
670.285	1	7
670.623	1	-8
670.962	1	-2
671.301	1	1
671.640	1	3
671.979	1	-9
672.317	1	3
672.656	1	-6
672.995	1	9
673.334	1	1
673.673	1	4
674.011	1	1
674.350	1	5
674.689	1	4
675.028	1	2
675.367	1	0
675.705	1	12
676.044	1	-4
676.383	1	3
676.722	1	0
677.060	1	2
677.399	1	-3
677.738	1	8
678.077	1	2
678.416	1	4
678.754	1	1
679.093	1	5
679.432	1	-1
679.771	1	6
680.109	1	13
680.448	1	-1
680.787	1	5
681.125	1	2
681.464	1	-2
681.803	1	4
682.142	1	13
682.480	1	11
682.819	1	-6
683.158	1	1
683.496	1	3
683.835	1	-5
684.174	1	-12
684.512	1	1
684.851	1	8
685.190	1	-5
685.529	1	1
685.867	1	-1
686.206	1	-7
686.545	1	-8
686.883	1	7
687.222	1	10
687.561	1	2
687.899	1	2
688.238	1	8
688.577	1	2
688.746	1	-5