File: Data/GaN_200K_800ms/GaN_sample F_spot 12_UVVIS_200 K_200um_800 ms 2x2mm1_44.txt
340.368	1	10
340.710	1	-10
341.052	1	17
341.394	1	-2
341.737	1	9
342.079	1	-2
342.421	1	10
342.763	1	12
343.105	1	13
343.447	1	1
343.789	1	4
344.131	1	10
344.473	1	7
344.815	1	5
345.157	1	-3
345.499	1	3
345.841	1	9
346.183	1	6
346.526	1	4
346.868	1	10
347.210	1	-9
347.552	1	3
347.894	1	8
348.236	1	12
348.578	1	7
348.920	1	5
349.262	1	7
349.604	1	17
349.946	1	4
350.288	1	13
350.630	1	19
350.972	1	7
351.314	1	17
351.656	1	18
351.998	1	12
352.340	1	15
352.682	1	23
353.024	1	16
353.366	1	23
353.708	1	17
354.050	1	14
354.392	1	16
354.734	1	33
355.076	1	29
355.418	1	12
355.760	1	24
356.102	1	41
356.444	1	31
356.785	1	41
357.127	1	33
357.469	1	35
357.811	1	52
358.153	1	55
358.495	1	49
358.837	1	52
359.179	1	56
359.521	1	77
359.863	1	77
360.205	1	70
360.547	1	85
360.889	1	92
361.231	1	103
361.572	1	121
361.914	1	123
362.256	1	146
362.598	1	154
362.940	1	182
363.282	1	194
363.624	1	226
363.966	1	241
364.308	1	260
364.649	1	307
364.991	1	345
365.333	1	370
365.675	1	404
366.017	1	461
366.359	1	517
366.701	1	568
367.042	1	601
367.384	1	665
367.726	1	697
368.068	1	730
368.410	1	793
368.752	1	800
369.093	1	828
369.435	1	870
369.777	1	865
370.119	1	837
370.461	1	844
370.803	1	818
371.144	1	771
371.486	1	750
371.828	1	735
372.170	1	669
372.512	1	636
372.853	1	582
373.195	1	574
373.537	1	526
373.879	1	512
374.220	1	494
374.562	1	478
374.904	1	443
375.246	1	419
375.588	1	380
375.929	1	373
376.271	1	365
376.613	1	341
376.955	1	303
377.296	1	294
377.638	1	291
377.980	1	277
378.321	1	244
378.663	1	237
379.005	1	229
379.347	1	212
379.688	1	205
380.030	1	194
380.372	1	189
380.714	1	181
381.055	1	178
381.397	1	139
381.739	1	159
382.080	1	130
382.422	1	131
382.764	1	117
383.105	1	113
383.447	1	119
383.789	1	111
384.130	1	109
384.472	1	109
384.814	1	112
385.156	1	99
385.497	1	100
385.839	1	91
386.180	1	91
386.522	1	97
386.864	1	93
387.205	1	77
387.547	1	72
387.889	1	67
388.230	1	73
388.572	1	61
388.914	1	68
389.255	1	59
389.597	1	60
389.939	1	56
390.280	1	62
390.622	1	40
390.963	1	56
391.305	1	45
391.647	1	44
391.988	1	62
392.330	1	48
392.671	1	41
393.013	1	40
393.355	1	48
393.696	1	50
394.038	1	43
394.379	1	35
394.721	1	36
395.062	1	34
395.404	1	28
395.746	1	39
396.087	1	29
396.429	1	37
396.770	1	22
397.112	1	39
397.453	1	32
397.795	1	29
398.136	1	17
398.478	1	35
398.819	1	31
399.161	1	43
399.503	1	23
399.844	1	38
400.186	1	21
400.527	1	33
400.869	1	31
401.210	1	14
401.552	1	7
401.893	1	21
402.235	1	19
402.576	1	12
402.918	1	27
403.259	1	17
403.601	1	19
403.942	1	31
404.284	1	24
404.625	1	15
404.967	1	21
405.308	1	22
405.649	1	15
405.991	1	12
406.332	1	17
406.674	1	14
407.015	1	23
407.357	1	23
407.698	1	13
408.040	1	11
408.381	1	18
408.722	1	-3
409.064	1	14
409.405	1	15
409.747	1	15
410.088	1	5
410.430	1	20
410.771	1	19
411.112	1	17
411.454	1	8
411.795	1	11
412.137	1	14
412.478	1	24
412.819	1	9
413.161	1	11
413.502	1	11
413.844	1	3
414.185	1	20
414.526	1	10
414.868	1	11
415.209	1	8
415.550	1	-3
415.892	1	1
416.233	1	13
416.575	1	21
416.916	1	4
417.257	1	8
417.599	1	15
417.940	1	15
418.281	1	14
418.623	1	1
418.964	1	1
419.305	1	13
419.647	1	12
419.988	1	9
420.329	1	-4
420.671	1	23
421.012	1	9
421.353	1	8
421.695	1	3
422.036	1	10
422.377	1	8
422.718	1	21
423.060	1	-1
423.401	1	8
423.742	1	14
424.084	1	8
424.425	1	18
424.766	1	-4
425.107	1	4
425.449	1	5
425.790	1	2
426.131	1	11
426.472	1	12
426.814	1	4
427.155	1	1
427.496	1	2
427.837	1	9
428.179	1	-2
428.520	1	8
428.861	1	2
429.202	1	2
429.544	1	1
429.885	1	13
430.226	1	1
430.567	1	7
430.909	1	5
431.250	1	12
431.591	1	16
431.932	1	4
432.273	1	4
432.615	1	-1
432.956	1	-4
433.297	1	15
433.638	1	6
433.979	1	9
434.320	1	10
434.662	1	3
435.003	1	7
435.344	1	6
435.685	1	2
436.026	1	12
436.368	1	9
436.709	1	-3
437.050	1	11
437.391	1	12
437.732	1	-6
438.073	1	8
438.414	1	10
438.756	1	-6
439.097	1	4
439.438	1	6
439.779	1	2
440.120	1	1
440.461	1	4
440.802	1	6
441.143	1	22
441.485	1	4
441.826	1	11
442.167	1	9
442.508	1	1
442.849	1	18
443.190	1	12
443.531	1	10
443.872	1	16
444.213	1	10
444.554	1	19
444.895	1	4
445.237	1	3
445.578	1	2
445.919	1	4
446.260	1	-1
446.601	1	7
446.942	1	5
447.283	1	4
447.624	1	5
447.965	1	4
448.306	1	4
448.647	1	-3
448.988	1	7
449.329	1	2
449.670	1	10
450.011	1	6
450.352	1	7
450.693	1	4
451.034	1	6
451.375	1	0
451.716	1	2
452.057	1	8
452.398	1	6
452.739	1	16
453.080	1	2
453.421	1	2
453.762	1	11
454.103	1	-1
454.444	1	-3
454.785	1	2
455.126	1	4
455.467	1	-2
455.808	1	0
456.149	1	14
456.490	1	7
456.831	1	6
457.172	1	-2
457.513	1	13
457.854	1	9
458.195	1	4
458.536	1	8
458.877	1	9
459.218	1	0
459.559	1	4
459.899	1	11
460.240	1	5
460.581	1	19
460.922	1	13
461.263	1	1
461.604	1	5
461.945	1	10
462.286	1	6
462.627	1	12
462.968	1	12
463.309	1	3
463.649	1	1
463.990	1	7
464.331	1	4
464.672	1	17
465.013	1	7
465.354	1	7
465.695	1	4
466.036	1	3
466.376	1	2
466.717	1	7
467.058	1	4
467.399	1	10
467.740	1	12
468.081	1	8
468.422	1	7
468.762	1	-3
469.103	1	3
469.444	1	-1
469.785	1	-5
470.126	1	-1
470.467	1	0
470.807	1	7
471.148	1	8
471.489	1	0
471.830	1	-1
472.171	1	12
472.511	1	0
472.852	1	0
473.193	1	17
473.534	1	15
473.875	1	17
474.215	1	19
474.556	1	11
474.897	1	11
475.238	1	-5
475.578	1	6
475.919	1	2
476.260	1	6
476.601	1	16
476.942	1	19
477.282	1	5
477.623	1	2
477.964	1	-2
478.305	1	9
478.645	1	20
478.986	1	8
479.327	1	3
479.667	1	9
480.008	1	5
480.349	1	4
480.690	1	8
481.030	1	4
481.371	1	6
481.712	1	15
482.053	1	6
482.393	1	9
482.734	1	6
483.075	1	10
483.415	1	7
483.756	1	20
484.097	1	14
484.437	1	4
484.778	1	11
485.119	1	7
485.459	1	21
485.800	1	4
486.141	1	2
486.481	1	12
486.822	1	17
487.163	1	10
487.503	1	17
487.844	1	6
488.185	1	20
488.525	1	18
488.866	1	25
489.207	1	13
489.547	1	12
489.888	1	21
490.228	1	17
490.569	1	22
490.910	1	18
491.250	1	17
491.591	1	25
491.932	1	22
492.272	1	23
492.613	1	9
492.953	1	19
493.294	1	11
493.635	1	16
493.975	1	24
494.316	1	18
494.656	1	13
494.997	1	16
495.337	1	25
495.678	1	23
496.019	1	12
496.359	1	19
496.700	1	23
497.040	1	11
497.381	1	17
497.721	1	17
498.062	1	25
498.403	1	35
498.743	1	17
499.084	1	15
499.424	1	27
499.765	1	28
500.105	1	20
500.446	1	10
500.786	1	16
501.127	1	25
501.467	1	12
501.808	1	36
502.148	1	31
502.489	1	21
502.829	1	22
503.170	1	33
503.510	1	25
503.851	1	22
504.191	1	38
504.532	1	34
504.872	1	30
505.213	1	43
505.553	1	20
505.894	1	30
506.234	1	38
506.575	1	44
506.915	1	43
507.256	1	42
507.596	1	43
507.936	1	36
508.277	1	40
508.617	1	31
508.958	1	28
509.298	1	33
509.639	1	27
509.979	1	37
510.319	1	43
510.660	1	32
511.000	1	24
511.341	1	33
511.681	1	46
512.022	1	35
512.362	1	33
512.702	1	33
513.043	1	40
513.383	1	27
513.724	1	40
514.064	1	47
514.404	1	33
514.745	1	42
515.085	1	37
515.425	1	38
515.766	1	41
516.106	1	42
516.447	1	45
516.787	1	48
517.127	1	42
517.468	1	47
517.808	1	44
518.148	1	46
518.489	1	48
518.829	1	53
519.169	1	52
519.510	1	49
519.850	1	45
520.190	1	47
520.531	1	53
520.871	1	47
521.211	1	43
521.552	1	58
521.892	1	48
522.232	1	46
522.573	1	51
522.913	1	53
523.253	1	45
523.593	1	49
523.934	1	51
524.274	1	52
524.614	1	44
524.955	1	43
525.295	1	43
525.635	1	58
525.975	1	52
526.316	1	57
526.656	1	47
526.996	1	62
527.337	1	43
527.677	1	54
528.017	1	46
528.357	1	68
528.698	1	50
529.038	1	57
529.378	1	55
529.718	1	59
530.058	1	49
530.399	1	67
530.739	1	57
531.079	1	53
531.419	1	62
531.760	1	59
532.100	1	53
532.440	1	47
532.780	1	56
533.120	1	67
533.461	1	64
533.801	1	79
534.141	1	60
534.481	1	47
534.821	1	57
535.162	1	55
535.502	1	39
535.842	1	69
536.182	1	56
536.522	1	60
536.862	1	56
537.203	1	52
537.543	1	66
537.883	1	56
538.223	1	54
538.563	1	56
538.903	1	46
539.243	1	50
539.584	1	63
539.924	1	64
540.264	1	55
540.604	1	61
540.944	1	45
541.284	1	61
541.624	1	51
541.964	1	61
542.305	1	67
542.645	1	58
542.985	1	65
543.325	1	55
543.665	1	67
544.005	1	63
544.345	1	65
544.685	1	66
545.025	1	58
545.365	1	52
545.705	1	56
546.045	1	53
546.386	1	59
546.726	1	54
547.066	1	69
547.406	1	64
547.746	1	50
548.086	1	51
548.426	1	62
548.766	1	63
549.106	1	69
549.446	1	59
549.786	1	62
550.126	1	88
550.466	1	76
550.806	1	69
551.146	1	69
551.486	1	75
551.826	1	69
552.166	1	74
552.506	1	79
552.846	1	78
553.186	1	73
553.526	1	68
553.866	1	71
554.206	1	74
554.546	1	66
554.886	1	75
555.226	1	50
555.566	1	78
555.906	1	74
556.246	1	65
556.586	1	65
556.926	1	77
557.266	1	64
557.606	1	72
557.946	1	81
558.286	1	71
558.626	1	66
558.966	1	70
559.306	1	59
559.646	1	54
559.986	1	56
560.325	1	51
560.665	1	55
561.005	1	59
561.345	1	64
561.685	1	60
562.025	1	66
562.365	1	67
562.705	1	61
563.045	1	70
563.385	1	42
563.725	1	73
564.064	1	75
564.404	1	77
564.744	1	67
565.084	1	65
565.424	1	66
565.764	1	57
566.104	1	63
566.444	1	65
566.783	1	58
567.123	1	65
567.463	1	64
567.803	1	61
568.143	1	56
568.483	1	69
568.823	1	58
569.162	1	65
569.502	1	64
569.842	1	67
570.182	1	61
570.522	1	53
570.862	1	68
571.201	1	67
571.541	1	58
571.881	1	74
572.221	1	62
572.561	1	71
572.900	1	49
573.240	1	64
573.580	1	58
573.920	1	68
574.260	1	74
574.599	1	59
574.939	1	61
575.279	1	63
575.619	1	77
575.959	1	47
576.298	1	71
576.638	1	61
576.978	1	70
577.318	1	70
577.657	1	52
577.997	1	58
578.337	1	74
578.677	1	60
579.016	1	76
579.356	1	50
579.696	1	70
580.036	1	61
580.375	1	53
580.715	1	60
581.055	1	44
581.394	1	53
581.734	1	58
582.074	1	51
582.414	1	67
582.753	1	58
583.093	1	66
583.433	1	63
583.772	1	65
584.112	1	63
584.452	1	54
584.791	1	54
585.131	1	68
585.471	1	69
585.811	1	58
586.150	1	65
586.490	1	63
586.830	1	59
587.169	1	58
587.509	1	65
587.849	1	55
588.188	1	74
588.528	1	68
588.867	1	75
589.207	1	59
589.547	1	56
589.886	1	50
590.226	1	66
590.566	1	49
590.905	1	65
591.245	1	47
591.585	1	58
591.924	1	48
592.264	1	51
592.603	1	48
592.943	1	57
593.283	1	58
593.622	1	51
593.962	1	53
594.301	1	50
594.641	1	52
594.981	1	51
595.320	1	51
595.660	1	49
595.999	1	44
596.339	1	48
596.678	1	45
597.018	1	39
597.358	1	49
597.697	1	44
598.037	1	41
598.376	1	51
598.716	1	54
599.055	1	61
599.395	1	46
599.734	1	37
600.074	1	58
600.413	1	49
600.753	1	52
601.092	1	60
601.432	1	36
601.771	1	49
602.111	1	51
602.451	1	51
602.790	1	50
603.130	1	59
603.469	1	45
603.809	1	47
604.148	1	52
604.487	1	49
604.827	1	60
605.166	1	58
605.506	1	48
605.845	1	54
606.185	1	46
606.524	1	48
606.864	1	55
607.203	1	49
607.543	1	52
607.882	1	62
608.222	1	64
608.561	1	59
608.901	1	54
609.240	1	39
609.579	1	51
609.919	1	52
610.258	1	58
610.598	1	42
610.937	1	48
611.277	1	39
611.616	1	51
611.955	1	47
612.295	1	46
612.634	1	45
612.974	1	22
613.313	1	51
613.652	1	45
613.992	1	35
614.331	1	46
614.671	1	50
615.010	1	39
615.349	1	56
615.689	1	44
616.028	1	43
616.368	1	39
616.707	1	38
617.046	1	44
617.386	1	32
617.725	1	39
618.064	1	23
618.404	1	40
618.743	1	52
619.082	1	41
619.422	1	34
619.761	1	39
620.100	1	35
620.440	1	44
620.779	1	33
621.118	1	31
621.458	1	40
621.797	1	32
622.136	1	46
622.476	1	44
622.815	1	46
623.154	1	39
623.494	1	47
623.833	1	39
624.172	1	46
624.511	1	29
624.851	1	27
625.190	1	27
625.529	1	30
625.869	1	45
626.208	1	47
626.547	1	26
626.886	1	39
627.226	1	36
627.565	1	39
627.904	1	24
628.243	1	35
628.583	1	33
628.922	1	42
629.261	1	44
629.600	1	38
629.940	1	39
630.279	1	22
630.618	1	28
630.957	1	35
631.297	1	28
631.636	1	23
631.975	1	43
632.314	1	31
632.653	1	28
632.993	1	29
633.332	1	30
633.671	1	23
634.010	1	30
634.349	1	34
634.689	1	37
635.028	1	35
635.367	1	33
635.706	1	25
636.045	1	40
636.384	1	30
636.724	1	31
637.063	1	34
637.402	1	36
637.741	1	26
638.080	1	28
638.419	1	26
638.759	1	16
639.098	1	32
639.437	1	42
639.776	1	30
640.115	1	25
640.454	1	13
640.793	1	37
641.132	1	33
641.472	1	29
641.811	1	17
642.150	1	20
642.489	1	27
642.828	1	28
643.167	1	33
643.506	1	16
643.845	1	28
644.184	1	30
644.524	1	26
644.863	1	19
645.202	1	25
645.541	1	35
645.880	1	33
646.219	1	35
646.558	1	33
646.897	1	27
647.236	1	25
647.575	1	34
647.914	1	21
648.253	1	34
648.592	1	23
648.931	1	33
649.270	1	32
649.610	1	24
649.949	1	23
650.288	1	26
650.627	1	19
650.966	1	29
651.305	1	24
651.644	1	25
651.983	1	22
652.322	1	23
652.661	1	28
653.000	1	15
653.339	1	31
653.678	1	24
654.017	1	24
654.356	1	24
654.695	1	27
655.034	1	27
655.373	1	29
655.712	1	32
656.051	1	24
656.390	1	17
656.729	1	38
657.068	1	22
657.406	1	13
657.745	1	19
658.084	1	19
658.423	1	23
658.762	1	14
659.101	1	21
659.440	1	18
659.779	1	22
660.118	1	25
660.457	1	17
660.796	1	2
661.135	1	7
661.474	1	10
661.813	1	31
662.152	1	20
662.491	1	9
662.829	1	12
663.168	1	12
663.507	1	29
663.846	1	1
664.185	1	18
664.524	1	14
664.863	1	20
665.202	1	22
665.541	1	-6
665.879	1	9
666.218	1	19
666.557	1	10
666.896	1	13
667.235	1	20
667.574	1	14
667.913	1	17
668.251	1	9
668.590	1	14
668.929	1	8
669.268	1	22
669.607	1	11
669.946	1	8
670.285	1	16
670.623	1	16
670.962	1	19
671.301	1	10
671.640	1	20
671.979	1	13
672.317	1	23
672.656	1	15
672.995	1	20
673.334	1	17
673.673	1	18
674.011	1	20
674.350	1	16
674.689	1	11
675.028	1	18
675.367	1	17
675.705	1	22
676.044	1	17
676.383	1	7
676.722	1	14
677.060	1	12
677.399	1	13
677.738	1	23
678.077	1	13
678.416	1	12
678.754	1	12
679.093	1	27
679.432	1	17
679.771	1	21
680.109	1	19
680.448	1	17
680.787	1	19
681.125	1	26
681.464	1	14
681.803	1	14
682.142	1	27
682.480	1	31
682.819	1	17
683.158	1	17
683.496	1	18
683.835	1	21
684.174	1	18
684.512	1	30
684.851	1	23
685.190	1	18
685.529	1	24
685.867	1	13
686.206	1	22
686.545	1	9
686.883	1	5
687.222	1	28
687.561	1	24
687.899	1	25
688.238	1	29
688.577	1	16
688.746	1	20