File: Data/GaN_200K_800ms/GaN_sample F_spot 12_UVVIS_200 K_200um_800 ms 2x2mm1_28.txt
340.368	1	1
340.710	1	-9
341.052	1	14
341.394	1	1
341.737	1	7
342.079	1	-1
342.421	1	-2
342.763	1	12
343.105	1	4
343.447	1	0
343.789	1	-4
344.131	1	2
344.473	1	4
344.815	1	0
345.157	1	-10
345.499	1	-3
345.841	1	14
346.183	1	-8
346.526	1	-5
346.868	1	-6
347.210	1	-15
347.552	1	-6
347.894	1	7
348.236	1	17
348.578	1	3
348.920	1	6
349.262	1	-5
349.604	1	-1
349.946	1	5
350.288	1	5
350.630	1	4
350.972	1	2
351.314	1	9
351.656	1	15
351.998	1	-2
352.340	1	7
352.682	1	4
353.024	1	10
353.366	1	7
353.708	1	10
354.050	1	-9
354.392	1	-4
354.734	1	8
355.076	1	-3
355.418	1	-6
355.760	1	-4
356.102	1	7
356.444	1	6
356.785	1	10
357.127	1	0
357.469	1	1
357.811	1	-5
358.153	1	1
358.495	1	3
358.837	1	-14
359.179	1	0
359.521	1	0
359.863	1	2
360.205	1	-4
360.547	1	-3
360.889	1	-4
361.231	1	5
361.572	1	5
361.914	1	-1
362.256	1	-2
362.598	1	-5
362.940	1	3
363.282	1	8
363.624	1	-4
363.966	1	1
364.308	1	0
364.649	1	6
364.991	1	0
365.333	1	-4
365.675	1	-2
366.017	1	3
366.359	1	0
366.701	1	-3
367.042	1	7
367.384	1	0
367.726	1	0
368.068	1	8
368.410	1	8
368.752	1	-5
369.093	1	-7
369.435	1	-4
369.777	1	-2
370.119	1	4
370.461	1	22
370.803	1	3
371.144	1	-4
371.486	1	10
371.828	1	9
372.170	1	1
372.512	1	-9
372.853	1	6
373.195	1	-6
373.537	1	11
373.879	1	1
374.220	1	7
374.562	1	15
374.904	1	0
375.246	1	-4
375.588	1	6
375.929	1	-4
376.271	1	4
376.613	1	1
376.955	1	-4
377.296	1	1
377.638	1	-5
377.980	1	1
378.321	1	-9
378.663	1	-4
379.005	1	3
379.347	1	4
379.688	1	8
380.030	1	-1
380.372	1	1
380.714	1	-4
381.055	1	11
381.397	1	-15
381.739	1	12
382.080	1	-1
382.422	1	5
382.764	1	-7
383.105	1	1
383.447	1	0
383.789	1	-12
384.130	1	-9
384.472	1	-4
384.814	1	1
385.156	1	-11
385.497	1	5
385.839	1	-4
386.180	1	1
386.522	1	2
386.864	1	3
387.205	1	0
387.547	1	-4
387.889	1	-4
388.230	1	0
388.572	1	-1
388.914	1	6
389.255	1	-5
389.597	1	2
389.939	1	7
390.280	1	9
390.622	1	-2
390.963	1	7
391.305	1	0
391.647	1	11
391.988	1	2
392.330	1	7
392.671	1	-2
393.013	1	-6
393.355	1	4
393.696	1	-5
394.038	1	2
394.379	1	0
394.721	1	5
395.062	1	10
395.404	1	-3
395.746	1	0
396.087	1	-3
396.429	1	3
396.770	1	-4
397.112	1	13
397.453	1	14
397.795	1	7
398.136	1	-6
398.478	1	4
398.819	1	2
399.161	1	7
399.503	1	-3
399.844	1	1
400.186	1	-1
400.527	1	2
400.869	1	5
401.210	1	0
401.552	1	-3
401.893	1	2
402.235	1	11
402.576	1	-4
402.918	1	5
403.259	1	8
403.601	1	10
403.942	1	14
404.284	1	1
404.625	1	0
404.967	1	-7
405.308	1	5
405.649	1	-1
405.991	1	-2
406.332	1	4
406.674	1	-6
407.015	1	12
407.357	1	0
407.698	1	9
408.040	1	-3
408.381	1	2
408.722	1	-16
409.064	1	5
409.405	1	5
409.747	1	4
410.088	1	7
410.430	1	8
410.771	1	-1
411.112	1	-9
411.454	1	3
411.795	1	0
412.137	1	2
412.478	1	16
412.819	1	-4
413.161	1	1
413.502	1	2
413.844	1	6
414.185	1	11
414.526	1	-5
414.868	1	3
415.209	1	0
415.550	1	3
415.892	1	4
416.233	1	6
416.575	1	18
416.916	1	-4
417.257	1	1
417.599	1	6
417.940	1	9
418.281	1	-1
418.623	1	3
418.964	1	-4
419.305	1	7
419.647	1	-3
419.988	1	-4
420.329	1	-4
420.671	1	10
421.012	1	2
421.353	1	0
421.695	1	-10
422.036	1	2
422.377	1	0
422.718	1	2
423.060	1	-8
423.401	1	0
423.742	1	-1
424.084	1	14
424.425	1	2
424.766	1	-2
425.107	1	-7
425.449	1	2
425.790	1	-14
426.131	1	3
426.472	1	9
426.814	1	4
427.155	1	-2
427.496	1	1
427.837	1	-5
428.179	1	-11
428.520	1	3
428.861	1	-5
429.202	1	3
429.544	1	1
429.885	1	9
430.226	1	-7
430.567	1	-3
430.909	1	-3
431.250	1	-5
431.591	1	-2
431.932	1	1
432.273	1	-2
432.615	1	-2
432.956	1	-7
433.297	1	5
433.638	1	-5
433.979	1	-3
434.320	1	6
434.662	1	5
435.003	1	6
435.344	1	3
435.685	1	0
436.026	1	0
436.368	1	7
436.709	1	-3
437.050	1	-7
437.391	1	7
437.732	1	-5
438.073	1	4
438.414	1	-4
438.756	1	7
439.097	1	-2
439.438	1	-2
439.779	1	2
440.120	1	-2
440.461	1	4
440.802	1	1
441.143	1	5
441.485	1	3
441.826	1	-7
442.167	1	-2
442.508	1	-1
442.849	1	8
443.190	1	-1
443.531	1	2
443.872	1	1
444.213	1	4
444.554	1	9
444.895	1	-6
445.237	1	2
445.578	1	-6
445.919	1	-4
446.260	1	1
446.601	1	5
446.942	1	-5
447.283	1	-2
447.624	1	1
447.965	1	-3
448.306	1	1
448.647	1	-6
448.988	1	1
449.329	1	-1
449.670	1	19
450.011	1	11
450.352	1	-6
450.693	1	-2
451.034	1	-11
451.375	1	7
451.716	1	-6
452.057	1	-4
452.398	1	-1
452.739	1	0
453.080	1	4
453.421	1	-4
453.762	1	3
454.103	1	-2
454.444	1	-12
454.785	1	-2
455.126	1	-6
455.467	1	7
455.808	1	-5
456.149	1	8
456.490	1	2
456.831	1	-4
457.172	1	-1
457.513	1	10
457.854	1	6
458.195	1	-3
458.536	1	6
458.877	1	2
459.218	1	3
459.559	1	7
459.899	1	2
460.240	1	-1
460.581	1	13
460.922	1	1
461.263	1	-8
461.604	1	1
461.945	1	1
462.286	1	7
462.627	1	8
462.968	1	-6
463.309	1	-6
463.649	1	0
463.990	1	-5
464.331	1	-7
464.672	1	-4
465.013	1	-1
465.354	1	9
465.695	1	-3
466.036	1	3
466.376	1	2
466.717	1	2
467.058	1	-2
467.399	1	0
467.740	1	-1
468.081	1	3
468.422	1	-5
468.762	1	-9
469.103	1	-5
469.444	1	-2
469.785	1	-5
470.126	1	-2
470.467	1	4
470.807	1	3
471.148	1	7
471.489	1	-3
471.830	1	1
472.171	1	4
472.511	1	-2
472.852	1	1
473.193	1	0
473.534	1	10
473.875	1	8
474.215	1	7
474.556	1	6
474.897	1	10
475.238	1	-3
475.578	1	-1
475.919	1	-7
476.260	1	-2
476.601	1	0
476.942	1	4
477.282	1	-10
477.623	1	-7
477.964	1	0
478.305	1	-4
478.645	1	7
478.986	1	10
479.327	1	-6
479.667	1	5
480.008	1	-13
480.349	1	14
480.690	1	4
481.030	1	0
481.371	1	13
481.712	1	2
482.053	1	1
482.393	1	6
482.734	1	-1
483.075	1	2
483.415	1	1
483.756	1	4
484.097	1	2
484.437	1	-8
484.778	1	1
485.119	1	1
485.459	1	14
485.800	1	1
486.141	1	2
486.481	1	2
486.822	1	7
487.163	1	1
487.503	1	5
487.844	1	1
488.185	1	-3
488.525	1	-4
488.866	1	-1
489.207	1	2
489.547	1	4
489.888	1	-6
490.228	1	2
490.569	1	10
490.910	1	5
491.250	1	-2
491.591	1	-4
491.932	1	-4
492.272	1	-4
492.613	1	0
492.953	1	-7
493.294	1	-9
493.635	1	-3
493.975	1	-1
494.316	1	3
494.656	1	1
494.997	1	-3
495.337	1	2
495.678	1	7
496.019	1	0
496.359	1	-1
496.700	1	4
497.040	1	-2
497.381	1	-6
497.721	1	-6
498.062	1	1
498.403	1	4
498.743	1	-5
499.084	1	-9
499.424	1	-2
499.765	1	-1
500.105	1	-2
500.446	1	-2
500.786	1	-5
501.127	1	2
501.467	1	2
501.808	1	2
502.148	1	6
502.489	1	-2
502.829	1	0
503.170	1	3
503.510	1	14
503.851	1	0
504.191	1	9
504.532	1	8
504.872	1	-4
505.213	1	6
505.553	1	-7
505.894	1	-11
506.234	1	11
506.575	1	2
506.915	1	8
507.256	1	7
507.596	1	11
507.936	1	-5
508.277	1	-7
508.617	1	-2
508.958	1	-13
509.298	1	-2
509.639	1	-5
509.979	1	-8
510.319	1	5
510.660	1	-4
511.000	1	0
511.341	1	-3
511.681	1	1
512.022	1	0
512.362	1	2
512.702	1	-1
513.043	1	17
513.383	1	-7
513.724	1	10
514.064	1	13
514.404	1	1
514.745	1	2
515.085	1	-2
515.425	1	-6
515.766	1	-9
516.106	1	1
516.447	1	6
516.787	1	6
517.127	1	-4
517.468	1	4
517.808	1	2
518.148	1	12
518.489	1	-1
518.829	1	7
519.169	1	-3
519.510	1	7
519.850	1	0
520.190	1	3
520.531	1	13
520.871	1	-3
521.211	1	-9
521.552	1	5
521.892	1	2
522.232	1	1
522.573	1	-1
522.913	1	5
523.253	1	2
523.593	1	1
523.934	1	1
524.274	1	3
524.614	1	3
524.955	1	-8
525.295	1	2
525.635	1	-7
525.975	1	5
526.316	1	12
526.656	1	9
526.996	1	3
527.337	1	-1
527.677	1	6
528.017	1	-8
528.357	1	-3
528.698	1	2
529.038	1	0
529.378	1	9
529.718	1	12
530.058	1	-6
530.399	1	10
530.739	1	1
531.079	1	13
531.419	1	3
531.760	1	8
532.100	1	-2
532.440	1	3
532.780	1	-2
533.120	1	4
533.461	1	-1
533.801	1	13
534.141	1	-7
534.481	1	-3
534.821	1	3
535.162	1	-1
535.502	1	-7
535.842	1	9
536.182	1	-1
536.522	1	-13
536.862	1	1
537.203	1	-12
537.543	1	-1
537.883	1	-4
538.223	1	3
538.563	1	7
538.903	1	-4
539.243	1	-2
539.584	1	-2
539.924	1	6
540.264	1	-3
540.604	1	3
540.944	1	4
541.284	1	10
541.624	1	6
541.964	1	11
542.305	1	9
542.645	1	-1
542.985	1	9
543.325	1	-3
543.665	1	8
544.005	1	-4
544.345	1	9
544.685	1	7
545.025	1	-3
545.365	1	-2
545.705	1	0
546.045	1	-3
546.386	1	8
546.726	1	-6
547.066	1	5
547.406	1	3
547.746	1	-15
548.086	1	1
548.426	1	-3
548.766	1	-2
549.106	1	-2
549.446	1	3
549.786	1	-1
550.126	1	14
550.466	1	1
550.806	1	-5
551.146	1	4
551.486	1	3
551.826	1	-2
552.166	1	1
552.506	1	2
552.846	1	-9
553.186	1	3
553.526	1	-10
553.866	1	-3
554.206	1	5
554.546	1	6
554.886	1	3
555.226	1	-6
555.566	1	3
555.906	1	10
556.246	1	-1
556.586	1	-2
556.926	1	14
557.266	1	1
557.606	1	12
557.946	1	14
558.286	1	10
558.626	1	-3
558.966	1	4
559.306	1	1
559.646	1	-11
559.986	1	-8
560.325	1	-1
560.665	1	-5
561.005	1	-1
561.345	1	-5
561.685	1	4
562.025	1	-2
562.365	1	2
562.705	1	-1
563.045	1	-5
563.385	1	-4
563.725	1	6
564.064	1	2
564.404	1	6
564.744	1	4
565.084	1	5
565.424	1	7
565.764	1	-1
566.104	1	-1
566.444	1	-2
566.783	1	5
567.123	1	-2
567.463	1	9
567.803	1	-9
568.143	1	1
568.483	1	0
568.823	1	-1
569.162	1	2
569.502	1	-2
569.842	1	10
570.182	1	-4
570.522	1	-15
570.862	1	-2
571.201	1	11
571.541	1	6
571.881	1	9
572.221	1	-2
572.561	1	2
572.900	1	-2
573.240	1	-2
573.580	1	-1
573.920	1	-3
574.260	1	2
574.599	1	-5
574.939	1	2
575.279	1	7
575.619	1	14
575.959	1	-4
576.298	1	5
576.638	1	0
576.978	1	8
577.318	1	10
577.657	1	-10
577.997	1	1
578.337	1	11
578.677	1	5
579.016	1	10
579.356	1	-9
579.696	1	-1
580.036	1	0
580.375	1	9
580.715	1	0
581.055	1	-1
581.394	1	-6
581.734	1	-7
582.074	1	-6
582.414	1	7
582.753	1	-9
583.093	1	-8
583.433	1	1
583.772	1	11
584.112	1	4
584.452	1	1
584.791	1	-9
585.131	1	-1
585.471	1	5
585.811	1	-1
586.150	1	-5
586.490	1	7
586.830	1	2
587.169	1	9
587.509	1	5
587.849	1	10
588.188	1	10
588.528	1	3
588.867	1	7
589.207	1	2
589.547	1	0
589.886	1	0
590.226	1	11
590.566	1	-4
590.905	1	10
591.245	1	-4
591.585	1	-4
591.924	1	1
592.264	1	5
592.603	1	8
592.943	1	2
593.283	1	-2
593.622	1	1
593.962	1	2
594.301	1	3
594.641	1	1
594.981	1	-10
595.320	1	-2
595.660	1	-5
595.999	1	-12
596.339	1	10
596.678	1	-8
597.018	1	-5
597.358	1	4
597.697	1	-3
598.037	1	0
598.376	1	-7
598.716	1	1
599.055	1	1
599.395	1	3
599.734	1	4
600.074	1	-14
600.413	1	16
600.753	1	-1
601.092	1	13
601.432	1	1
601.771	1	7
602.111	1	5
602.451	1	9
602.790	1	9
603.130	1	8
603.469	1	-4
603.809	1	0
604.148	1	-2
604.487	1	4
604.827	1	4
605.166	1	11
605.506	1	0
605.845	1	6
606.185	1	7
606.524	1	-3
606.864	1	-3
607.203	1	-8
607.543	1	-1
607.882	1	4
608.222	1	7
608.561	1	4
608.901	1	6
609.240	1	-5
609.579	1	3
609.919	1	9
610.258	1	14
610.598	1	4
610.937	1	4
611.277	1	4
611.616	1	9
611.955	1	3
612.295	1	-4
612.634	1	7
612.974	1	-3
613.313	1	-3
613.652	1	8
613.992	1	-14
614.331	1	0
614.671	1	10
615.010	1	-5
615.349	1	9
615.689	1	2
616.028	1	-8
616.368	1	10
616.707	1	8
617.046	1	3
617.386	1	2
617.725	1	1
618.064	1	3
618.404	1	2
618.743	1	10
619.082	1	4
619.422	1	-1
619.761	1	0
620.100	1	15
620.440	1	-2
620.779	1	-7
621.118	1	4
621.458	1	0
621.797	1	-10
622.136	1	9
622.476	1	16
622.815	1	8
623.154	1	-3
623.494	1	7
623.833	1	8
624.172	1	-2
624.511	1	-5
624.851	1	-10
625.190	1	-1
625.529	1	2
625.869	1	1
626.208	1	5
626.547	1	0
626.886	1	3
627.226	1	-5
627.565	1	8
627.904	1	0
628.243	1	2
628.583	1	-2
628.922	1	6
629.261	1	5
629.600	1	7
629.940	1	-3
630.279	1	-6
630.618	1	11
630.957	1	-2
631.297	1	-3
631.636	1	-16
631.975	1	7
632.314	1	2
632.653	1	3
632.993	1	-5
633.332	1	-3
633.671	1	-1
634.010	1	8
634.349	1	6
634.689	1	-1
635.028	1	6
635.367	1	-1
635.706	1	-4
636.045	1	16
636.384	1	2
636.724	1	-4
637.063	1	-1
637.402	1	5
637.741	1	10
638.080	1	-5
638.419	1	7
638.759	1	-5
639.098	1	6
639.437	1	7
639.776	1	-4
640.115	1	2
640.454	1	4
640.793	1	13
641.132	1	7
641.472	1	0
641.811	1	1
642.150	1	-11
642.489	1	8
642.828	1	-7
643.167	1	1
643.506	1	-9
643.845	1	6
644.184	1	5
644.524	1	-7
644.863	1	-1
645.202	1	2
645.541	1	5
645.880	1	1
646.219	1	12
646.558	1	1
646.897	1	7
647.236	1	5
647.575	1	5
647.914	1	1
648.253	1	15
648.592	1	-4
648.931	1	8
649.270	1	1
649.610	1	6
649.949	1	3
650.288	1	10
650.627	1	0
650.966	1	-1
651.305	1	-2
651.644	1	12
651.983	1	12
652.322	1	-8
652.661	1	-4
653.000	1	3
653.339	1	9
653.678	1	7
654.017	1	0
654.356	1	4
654.695	1	10
655.034	1	5
655.373	1	13
655.712	1	-1
656.051	1	3
656.390	1	0
656.729	1	9
657.068	1	10
657.406	1	8
657.745	1	-4
658.084	1	1
658.423	1	11
658.762	1	0
659.101	1	8
659.440	1	4
659.779	1	-1
660.118	1	-2
660.457	1	8
660.796	1	-5
661.135	1	-2
661.474	1	5
661.813	1	10
662.152	1	4
662.491	1	-3
662.829	1	-4
663.168	1	4
663.507	1	7
663.846	1	5
664.185	1	6
664.524	1	-5
664.863	1	0
665.202	1	5
665.541	1	-6
665.879	1	-3
666.218	1	-6
666.557	1	0
666.896	1	0
667.235	1	8
667.574	1	4
667.913	1	0
668.251	1	-3
668.590	1	-1
668.929	1	-8
669.268	1	1
669.607	1	0
669.946	1	-2
670.285	1	3
670.623	1	-1
670.962	1	0
671.301	1	6
671.640	1	4
671.979	1	-6
672.317	1	1
672.656	1	8
672.995	1	5
673.334	1	0
673.673	1	9
674.011	1	-3
674.350	1	8
674.689	1	3
675.028	1	10
675.367	1	11
675.705	1	3
676.044	1	-9
676.383	1	1
676.722	1	7
677.060	1	-1
677.399	1	-4
677.738	1	6
678.077	1	10
678.416	1	12
678.754	1	-6
679.093	1	6
679.432	1	-2
679.771	1	1
680.109	1	10
680.448	1	1
680.787	1	0
681.125	1	8
681.464	1	0
681.803	1	8
682.142	1	12
682.480	1	2
682.819	1	3
683.158	1	3
683.496	1	5
683.835	1	4
684.174	1	6
684.512	1	4
684.851	1	13
685.190	1	-5
685.529	1	7
685.867	1	4
686.206	1	0
686.545	1	-5
686.883	1	5
687.222	1	-2
687.561	1	6
687.899	1	-3
688.238	1	7
688.577	1	7
688.746	1	2