File: Data/GaN_200K_800ms/GaN_sample F_spot 12_UVVIS_200 K_200um_800 ms 2x2mm1_70.txt
340.368	1	9
340.710	1	0
341.052	1	12
341.394	1	-1
341.737	1	10
342.079	1	10
342.421	1	6
342.763	1	6
343.105	1	5
343.447	1	-12
343.789	1	0
344.131	1	-3
344.473	1	3
344.815	1	3
345.157	1	5
345.499	1	8
345.841	1	6
346.183	1	-5
346.526	1	-3
346.868	1	9
347.210	1	-5
347.552	1	1
347.894	1	-1
348.236	1	21
348.578	1	3
348.920	1	-1
349.262	1	11
349.604	1	9
349.946	1	8
350.288	1	10
350.630	1	7
350.972	1	7
351.314	1	4
351.656	1	20
351.998	1	13
352.340	1	9
352.682	1	12
353.024	1	6
353.366	1	15
353.708	1	15
354.050	1	3
354.392	1	4
354.734	1	19
355.076	1	18
355.418	1	4
355.760	1	8
356.102	1	21
356.444	1	14
356.785	1	32
357.127	1	20
357.469	1	20
357.811	1	25
358.153	1	29
358.495	1	27
358.837	1	21
359.179	1	40
359.521	1	39
359.863	1	28
360.205	1	29
360.547	1	31
360.889	1	36
361.231	1	33
361.572	1	61
361.914	1	56
362.256	1	52
362.598	1	45
362.940	1	50
363.282	1	55
363.624	1	81
363.966	1	75
364.308	1	81
364.649	1	80
364.991	1	95
365.333	1	97
365.675	1	100
366.017	1	127
366.359	1	141
366.701	1	142
367.042	1	160
367.384	1	181
367.726	1	170
368.068	1	189
368.410	1	208
368.752	1	183
369.093	1	192
369.435	1	200
369.777	1	205
370.119	1	200
370.461	1	210
370.803	1	193
371.144	1	176
371.486	1	180
371.828	1	178
372.170	1	161
372.512	1	157
372.853	1	153
373.195	1	144
373.537	1	131
373.879	1	144
374.220	1	142
374.562	1	128
374.904	1	116
375.246	1	115
375.588	1	91
375.929	1	115
376.271	1	105
376.613	1	83
376.955	1	80
377.296	1	84
377.638	1	86
377.980	1	84
378.321	1	68
378.663	1	75
379.005	1	77
379.347	1	68
379.688	1	64
380.030	1	50
380.372	1	49
380.714	1	63
381.055	1	60
381.397	1	54
381.739	1	49
382.080	1	51
382.422	1	56
382.764	1	39
383.105	1	41
383.447	1	39
383.789	1	40
384.130	1	34
384.472	1	41
384.814	1	33
385.156	1	31
385.497	1	40
385.839	1	41
386.180	1	30
386.522	1	35
386.864	1	31
387.205	1	24
387.547	1	25
387.889	1	25
388.230	1	35
388.572	1	15
388.914	1	20
389.255	1	24
389.597	1	26
389.939	1	20
390.280	1	28
390.622	1	22
390.963	1	28
391.305	1	26
391.647	1	29
391.988	1	18
392.330	1	32
392.671	1	17
393.013	1	10
393.355	1	32
393.696	1	18
394.038	1	19
394.379	1	21
394.721	1	-2
395.062	1	15
395.404	1	9
395.746	1	16
396.087	1	2
396.429	1	18
396.770	1	9
397.112	1	19
397.453	1	19
397.795	1	17
398.136	1	3
398.478	1	12
398.819	1	13
399.161	1	17
399.503	1	4
399.844	1	13
400.186	1	12
400.527	1	7
400.869	1	7
401.210	1	6
401.552	1	6
401.893	1	15
402.235	1	7
402.576	1	7
402.918	1	9
403.259	1	15
403.601	1	-1
403.942	1	18
404.284	1	11
404.625	1	14
404.967	1	15
405.308	1	4
405.649	1	7
405.991	1	4
406.332	1	13
406.674	1	1
407.015	1	12
407.357	1	13
407.698	1	13
408.040	1	2
408.381	1	2
408.722	1	-7
409.064	1	12
409.405	1	8
409.747	1	6
410.088	1	1
410.430	1	7
410.771	1	10
411.112	1	8
411.454	1	2
411.795	1	7
412.137	1	6
412.478	1	12
412.819	1	2
413.161	1	4
413.502	1	6
413.844	1	4
414.185	1	11
414.526	1	-4
414.868	1	5
415.209	1	-1
415.550	1	-1
415.892	1	-4
416.233	1	3
416.575	1	12
416.916	1	5
417.257	1	0
417.599	1	5
417.940	1	13
418.281	1	5
418.623	1	1
418.964	1	-2
419.305	1	18
419.647	1	2
419.988	1	8
420.329	1	-7
420.671	1	3
421.012	1	3
421.353	1	1
421.695	1	4
422.036	1	4
422.377	1	7
422.718	1	4
423.060	1	-6
423.401	1	-9
423.742	1	2
424.084	1	2
424.425	1	10
424.766	1	2
425.107	1	-4
425.449	1	0
425.790	1	-2
426.131	1	3
426.472	1	12
426.814	1	-4
427.155	1	2
427.496	1	5
427.837	1	5
428.179	1	-7
428.520	1	4
428.861	1	-8
429.202	1	-1
429.544	1	0
429.885	1	14
430.226	1	-2
430.567	1	7
430.909	1	-1
431.250	1	3
431.591	1	10
431.932	1	3
432.273	1	-5
432.615	1	-3
432.956	1	-7
433.297	1	7
433.638	1	-3
433.979	1	5
434.320	1	6
434.662	1	10
435.003	1	6
435.344	1	5
435.685	1	3
436.026	1	8
436.368	1	-3
436.709	1	1
437.050	1	0
437.391	1	13
437.732	1	-3
438.073	1	5
438.414	1	-3
438.756	1	1
439.097	1	4
439.438	1	-5
439.779	1	0
440.120	1	3
440.461	1	4
440.802	1	2
441.143	1	19
441.485	1	6
441.826	1	10
442.167	1	8
442.508	1	0
442.849	1	5
443.190	1	2
443.531	1	15
443.872	1	9
444.213	1	7
444.554	1	12
444.895	1	-1
445.237	1	-5
445.578	1	-6
445.919	1	-4
446.260	1	-12
446.601	1	10
446.942	1	0
447.283	1	0
447.624	1	5
447.965	1	-4
448.306	1	0
448.647	1	-8
448.988	1	1
449.329	1	7
449.670	1	-1
450.011	1	5
450.352	1	-2
450.693	1	-9
451.034	1	-2
451.375	1	3
451.716	1	1
452.057	1	6
452.398	1	1
452.739	1	4
453.080	1	-4
453.421	1	2
453.762	1	3
454.103	1	0
454.444	1	9
454.785	1	-1
455.126	1	1
455.467	1	-1
455.808	1	14
456.149	1	11
456.490	1	2
456.831	1	5
457.172	1	1
457.513	1	2
457.854	1	12
458.195	1	-1
458.536	1	2
458.877	1	1
459.218	1	6
459.559	1	2
459.899	1	2
460.240	1	6
460.581	1	15
460.922	1	3
461.263	1	-10
461.604	1	-9
461.945	1	8
462.286	1	12
462.627	1	4
462.968	1	6
463.309	1	5
463.649	1	-1
463.990	1	3
464.331	1	5
464.672	1	1
465.013	1	1
465.354	1	1
465.695	1	5
466.036	1	-2
466.376	1	4
466.717	1	1
467.058	1	-2
467.399	1	4
467.740	1	-3
468.081	1	10
468.422	1	-2
468.762	1	-2
469.103	1	-4
469.444	1	-4
469.785	1	-6
470.126	1	-5
470.467	1	1
470.807	1	6
471.148	1	3
471.489	1	6
471.830	1	2
472.171	1	5
472.511	1	-13
472.852	1	4
473.193	1	11
473.534	1	12
473.875	1	14
474.215	1	8
474.556	1	3
474.897	1	6
475.238	1	13
475.578	1	-6
475.919	1	2
476.260	1	-2
476.601	1	5
476.942	1	10
477.282	1	6
477.623	1	-4
477.964	1	2
478.305	1	4
478.645	1	5
478.986	1	7
479.327	1	-7
479.667	1	5
480.008	1	1
480.349	1	2
480.690	1	6
481.030	1	-4
481.371	1	12
481.712	1	2
482.053	1	5
482.393	1	5
482.734	1	-1
483.075	1	0
483.415	1	-1
483.756	1	16
484.097	1	11
484.437	1	4
484.778	1	15
485.119	1	1
485.459	1	14
485.800	1	5
486.141	1	3
486.481	1	3
486.822	1	12
487.163	1	0
487.503	1	4
487.844	1	4
488.185	1	9
488.525	1	8
488.866	1	8
489.207	1	2
489.547	1	-1
489.888	1	5
490.228	1	10
490.569	1	19
490.910	1	8
491.250	1	-1
491.591	1	2
491.932	1	5
492.272	1	5
492.613	1	6
492.953	1	2
493.294	1	3
493.635	1	5
493.975	1	0
494.316	1	8
494.656	1	7
494.997	1	12
495.337	1	4
495.678	1	3
496.019	1	2
496.359	1	-2
496.700	1	8
497.040	1	2
497.381	1	6
497.721	1	2
498.062	1	9
498.403	1	8
498.743	1	2
499.084	1	4
499.424	1	9
499.765	1	8
500.105	1	3
500.446	1	1
500.786	1	-8
501.127	1	4
501.467	1	-4
501.808	1	13
502.148	1	7
502.489	1	11
502.829	1	12
503.170	1	19
503.510	1	12
503.851	1	10
504.191	1	13
504.532	1	13
504.872	1	8
505.213	1	18
505.553	1	5
505.894	1	4
506.234	1	14
506.575	1	14
506.915	1	16
507.256	1	16
507.596	1	17
507.936	1	17
508.277	1	7
508.617	1	4
508.958	1	-3
509.298	1	12
509.639	1	-2
509.979	1	3
510.319	1	13
510.660	1	8
511.000	1	-3
511.341	1	18
511.681	1	16
512.022	1	18
512.362	1	10
512.702	1	7
513.043	1	22
513.383	1	8
513.724	1	16
514.064	1	16
514.404	1	11
514.745	1	11
515.085	1	4
515.425	1	12
515.766	1	5
516.106	1	19
516.447	1	20
516.787	1	17
517.127	1	11
517.468	1	7
517.808	1	12
518.148	1	23
518.489	1	15
518.829	1	19
519.169	1	9
519.510	1	21
519.850	1	13
520.190	1	10
520.531	1	15
520.871	1	3
521.211	1	1
521.552	1	18
521.892	1	16
522.232	1	18
522.573	1	16
522.913	1	10
523.253	1	16
523.593	1	8
523.934	1	11
524.274	1	21
524.614	1	11
524.955	1	7
525.295	1	12
525.635	1	17
525.975	1	16
526.316	1	15
526.656	1	11
526.996	1	15
527.337	1	10
527.677	1	19
528.017	1	1
528.357	1	16
528.698	1	13
529.038	1	15
529.378	1	21
529.718	1	25
530.058	1	20
530.399	1	30
530.739	1	8
531.079	1	15
531.419	1	28
531.760	1	18
532.100	1	9
532.440	1	16
532.780	1	8
533.120	1	27
533.461	1	21
533.801	1	29
534.141	1	4
534.481	1	14
534.821	1	20
535.162	1	19
535.502	1	15
535.842	1	24
536.182	1	16
536.522	1	12
536.862	1	15
537.203	1	15
537.543	1	24
537.883	1	20
538.223	1	19
538.563	1	27
538.903	1	9
539.243	1	13
539.584	1	10
539.924	1	26
540.264	1	7
540.604	1	15
540.944	1	10
541.284	1	17
541.624	1	24
541.964	1	21
542.305	1	27
542.645	1	15
542.985	1	17
543.325	1	20
543.665	1	27
544.005	1	18
544.345	1	13
544.685	1	17
545.025	1	23
545.365	1	22
545.705	1	15
546.045	1	7
546.386	1	23
546.726	1	16
547.066	1	17
547.406	1	21
547.746	1	15
548.086	1	6
548.426	1	17
548.766	1	32
549.106	1	12
549.446	1	15
549.786	1	19
550.126	1	32
550.466	1	26
550.806	1	23
551.146	1	15
551.486	1	17
551.826	1	22
552.166	1	20
552.506	1	37
552.846	1	18
553.186	1	31
553.526	1	17
553.866	1	22
554.206	1	20
554.546	1	19
554.886	1	24
555.226	1	14
555.566	1	20
555.906	1	28
556.246	1	21
556.586	1	13
556.926	1	11
557.266	1	15
557.606	1	8
557.946	1	28
558.286	1	17
558.626	1	25
558.966	1	19
559.306	1	9
559.646	1	18
559.986	1	11
560.325	1	5
560.665	1	21
561.005	1	16
561.345	1	14
561.685	1	23
562.025	1	15
562.365	1	12
562.705	1	17
563.045	1	13
563.385	1	3
563.725	1	18
564.064	1	27
564.404	1	21
564.744	1	20
565.084	1	26
565.424	1	16
565.764	1	10
566.104	1	12
566.444	1	20
566.783	1	9
567.123	1	18
567.463	1	29
567.803	1	9
568.143	1	7
568.483	1	32
568.823	1	25
569.162	1	28
569.502	1	30
569.842	1	31
570.182	1	24
570.522	1	16
570.862	1	17
571.201	1	19
571.541	1	33
571.881	1	24
572.221	1	13
572.561	1	21
572.900	1	13
573.240	1	18
573.580	1	19
573.920	1	26
574.260	1	30
574.599	1	15
574.939	1	24
575.279	1	33
575.619	1	29
575.959	1	13
576.298	1	35
576.638	1	14
576.978	1	28
577.318	1	24
577.657	1	10
577.997	1	20
578.337	1	26
578.677	1	19
579.016	1	39
579.356	1	7
579.696	1	16
580.036	1	10
580.375	1	18
580.715	1	26
581.055	1	17
581.394	1	12
581.734	1	11
582.074	1	21
582.414	1	25
582.753	1	10
583.093	1	25
583.433	1	15
583.772	1	22
584.112	1	12
584.452	1	25
584.791	1	12
585.131	1	27
585.471	1	23
585.811	1	21
586.150	1	21
586.490	1	29
586.830	1	5
587.169	1	26
587.509	1	20
587.849	1	12
588.188	1	25
588.528	1	25
588.867	1	27
589.207	1	10
589.547	1	26
589.886	1	9
590.226	1	18
590.566	1	27
590.905	1	11
591.245	1	2
591.585	1	29
591.924	1	20
592.264	1	19
592.603	1	25
592.943	1	5
593.283	1	25
593.622	1	15
593.962	1	26
594.301	1	19
594.641	1	9
594.981	1	0
595.320	1	9
595.660	1	12
595.999	1	7
596.339	1	20
596.678	1	10
597.018	1	12
597.358	1	16
597.697	1	23
598.037	1	19
598.376	1	17
598.716	1	21
599.055	1	14
599.395	1	18
599.734	1	17
600.074	1	8
600.413	1	23
600.753	1	18
601.092	1	26
601.432	1	11
601.771	1	20
602.111	1	23
602.451	1	19
602.790	1	7
603.130	1	18
603.469	1	-3
603.809	1	19
604.148	1	9
604.487	1	5
604.827	1	15
605.166	1	28
605.506	1	8
605.845	1	19
606.185	1	15
606.524	1	11
606.864	1	13
607.203	1	12
607.543	1	21
607.882	1	24
608.222	1	23
608.561	1	19
608.901	1	7
609.240	1	10
609.579	1	27
609.919	1	15
610.258	1	13
610.598	1	17
610.937	1	17
611.277	1	9
611.616	1	4
611.955	1	15
612.295	1	18
612.634	1	11
612.974	1	-4
613.313	1	19
613.652	1	16
613.992	1	7
614.331	1	12
614.671	1	13
615.010	1	4
615.349	1	23
615.689	1	21
616.028	1	16
616.368	1	19
616.707	1	14
617.046	1	12
617.386	1	12
617.725	1	17
618.064	1	10
618.404	1	8
618.743	1	12
619.082	1	16
619.422	1	3
619.761	1	11
620.100	1	23
620.440	1	16
620.779	1	10
621.118	1	1
621.458	1	13
621.797	1	7
622.136	1	27
622.476	1	14
622.815	1	24
623.154	1	15
623.494	1	22
623.833	1	17
624.172	1	7
624.511	1	15
624.851	1	-2
625.190	1	8
625.529	1	16
625.869	1	12
626.208	1	9
626.547	1	6
626.886	1	17
627.226	1	16
627.565	1	13
627.904	1	7
628.243	1	10
628.583	1	5
628.922	1	17
629.261	1	11
629.600	1	16
629.940	1	8
630.279	1	4
630.618	1	14
630.957	1	5
631.297	1	13
631.636	1	-5
631.975	1	24
632.314	1	6
632.653	1	15
632.993	1	1
633.332	1	14
633.671	1	10
634.010	1	0
634.349	1	16
634.689	1	11
635.028	1	11
635.367	1	7
635.706	1	5
636.045	1	17
636.384	1	5
636.724	1	3
637.063	1	4
637.402	1	15
637.741	1	11
638.080	1	7
638.419	1	7
638.759	1	-4
639.098	1	15
639.437	1	8
639.776	1	4
640.115	1	7
640.454	1	16
640.793	1	17
641.132	1	21
641.472	1	9
641.811	1	1
642.150	1	0
642.489	1	10
642.828	1	6
643.167	1	7
643.506	1	-1
643.845	1	8
644.184	1	8
644.524	1	-1
644.863	1	8
645.202	1	9
645.541	1	7
645.880	1	15
646.219	1	5
646.558	1	8
646.897	1	14
647.236	1	11
647.575	1	13
647.914	1	9
648.253	1	10
648.592	1	6
648.931	1	17
649.270	1	4
649.610	1	10
649.949	1	9
650.288	1	13
650.627	1	1
650.966	1	15
651.305	1	11
651.644	1	21
651.983	1	8
652.322	1	9
652.661	1	6
653.000	1	8
653.339	1	15
653.678	1	13
654.017	1	1
654.356	1	4
654.695	1	8
655.034	1	11
655.373	1	13
655.712	1	17
656.051	1	10
656.390	1	6
656.729	1	9
657.068	1	7
657.406	1	8
657.745	1	5
658.084	1	3
658.423	1	6
658.762	1	1
659.101	1	18
659.440	1	6
659.779	1	7
660.118	1	7
660.457	1	9
660.796	1	-4
661.135	1	0
661.474	1	13
661.813	1	19
662.152	1	7
662.491	1	16
662.829	1	0
663.168	1	11
663.507	1	12
663.846	1	3
664.185	1	3
664.524	1	9
664.863	1	6
665.202	1	9
665.541	1	-2
665.879	1	2
666.218	1	3
666.557	1	7
666.896	1	11
667.235	1	11
667.574	1	10
667.913	1	13
668.251	1	1
668.590	1	8
668.929	1	-6
669.268	1	3
669.607	1	-4
669.946	1	14
670.285	1	11
670.623	1	5
670.962	1	7
671.301	1	3
671.640	1	15
671.979	1	4
672.317	1	16
672.656	1	2
672.995	1	9
673.334	1	-3
673.673	1	1
674.011	1	8
674.350	1	6
674.689	1	4
675.028	1	-2
675.367	1	14
675.705	1	10
676.044	1	3
676.383	1	11
676.722	1	5
677.060	1	6
677.399	1	-1
677.738	1	3
678.077	1	5
678.416	1	11
678.754	1	5
679.093	1	10
679.432	1	7
679.771	1	3
680.109	1	13
680.448	1	5
680.787	1	-2
681.125	1	10
681.464	1	11
681.803	1	5
682.142	1	13
682.480	1	12
682.819	1	5
683.158	1	11
683.496	1	18
683.835	1	4
684.174	1	9
684.512	1	8
684.851	1	11
685.190	1	9
685.529	1	6
685.867	1	4
686.206	1	10
686.545	1	1
686.883	1	10
687.222	1	16
687.561	1	14
687.899	1	15
688.238	1	22
688.577	1	8
688.746	1	2