File: Data/GaN_200K_800ms/GaN_sample F_spot 12_UVVIS_200 K_200um_800 ms 2x2mm1_190.txt
340.368	1	-1
340.710	1	-5
341.052	1	9
341.394	1	3
341.737	1	4
342.079	1	-6
342.421	1	-7
342.763	1	10
343.105	1	-1
343.447	1	-8
343.789	1	-2
344.131	1	-6
344.473	1	-6
344.815	1	3
345.157	1	-11
345.499	1	-2
345.841	1	12
346.183	1	2
346.526	1	-4
346.868	1	7
347.210	1	-9
347.552	1	-7
347.894	1	-2
348.236	1	9
348.578	1	6
348.920	1	4
349.262	1	-1
349.604	1	2
349.946	1	-4
350.288	1	11
350.630	1	2
350.972	1	1
351.314	1	5
351.656	1	6
351.998	1	-1
352.340	1	5
352.682	1	6
353.024	1	3
353.366	1	6
353.708	1	2
354.050	1	6
354.392	1	-3
354.734	1	11
355.076	1	6
355.418	1	-5
355.760	1	1
356.102	1	16
356.444	1	12
356.785	1	9
357.127	1	-1
357.469	1	5
357.811	1	10
358.153	1	6
358.495	1	9
358.837	1	-1
359.179	1	9
359.521	1	5
359.863	1	7
360.205	1	2
360.547	1	11
360.889	1	0
361.231	1	5
361.572	1	17
361.914	1	12
362.256	1	3
362.598	1	3
362.940	1	6
363.282	1	17
363.624	1	13
363.966	1	13
364.308	1	12
364.649	1	14
364.991	1	12
365.333	1	12
365.675	1	15
366.017	1	28
366.359	1	20
366.701	1	20
367.042	1	23
367.384	1	31
367.726	1	31
368.068	1	29
368.410	1	41
368.752	1	25
369.093	1	36
369.435	1	42
369.777	1	31
370.119	1	34
370.461	1	44
370.803	1	32
371.144	1	24
371.486	1	47
371.828	1	31
372.170	1	37
372.512	1	25
372.853	1	34
373.195	1	26
373.537	1	22
373.879	1	32
374.220	1	38
374.562	1	40
374.904	1	14
375.246	1	23
375.588	1	17
375.929	1	28
376.271	1	17
376.613	1	18
376.955	1	12
377.296	1	13
377.638	1	20
377.980	1	20
378.321	1	9
378.663	1	9
379.005	1	22
379.347	1	17
379.688	1	9
380.030	1	5
380.372	1	16
380.714	1	12
381.055	1	13
381.397	1	5
381.739	1	12
382.080	1	9
382.422	1	9
382.764	1	5
383.105	1	6
383.447	1	8
383.789	1	7
384.130	1	7
384.472	1	4
384.814	1	12
385.156	1	9
385.497	1	14
385.839	1	6
386.180	1	13
386.522	1	9
386.864	1	5
387.205	1	1
387.547	1	-6
387.889	1	7
388.230	1	7
388.572	1	3
388.914	1	7
389.255	1	-2
389.597	1	3
389.939	1	7
390.280	1	1
390.622	1	2
390.963	1	7
391.305	1	1
391.647	1	5
391.988	1	6
392.330	1	10
392.671	1	4
393.013	1	0
393.355	1	14
393.696	1	15
394.038	1	5
394.379	1	6
394.721	1	-2
395.062	1	9
395.404	1	-9
395.746	1	19
396.087	1	4
396.429	1	4
396.770	1	-5
397.112	1	19
397.453	1	10
397.795	1	3
398.136	1	-6
398.478	1	2
398.819	1	1
399.161	1	17
399.503	1	8
399.844	1	-3
400.186	1	1
400.527	1	-2
400.869	1	0
401.210	1	9
401.552	1	-5
401.893	1	2
402.235	1	-4
402.576	1	-2
402.918	1	9
403.259	1	7
403.601	1	-2
403.942	1	2
404.284	1	7
404.625	1	8
404.967	1	1
405.308	1	2
405.649	1	-3
405.991	1	-1
406.332	1	12
406.674	1	-3
407.015	1	8
407.357	1	-4
407.698	1	5
408.040	1	-3
408.381	1	0
408.722	1	-11
409.064	1	-2
409.405	1	8
409.747	1	3
410.088	1	5
410.430	1	11
410.771	1	2
411.112	1	-4
411.454	1	0
411.795	1	-3
412.137	1	11
412.478	1	8
412.819	1	-4
413.161	1	-5
413.502	1	2
413.844	1	1
414.185	1	2
414.526	1	1
414.868	1	5
415.209	1	0
415.550	1	-2
415.892	1	2
416.233	1	9
416.575	1	15
416.916	1	1
417.257	1	7
417.599	1	3
417.940	1	10
418.281	1	6
418.623	1	1
418.964	1	-5
419.305	1	11
419.647	1	-2
419.988	1	4
420.329	1	-6
420.671	1	6
421.012	1	6
421.353	1	1
421.695	1	1
422.036	1	-7
422.377	1	-1
422.718	1	3
423.060	1	1
423.401	1	0
423.742	1	0
424.084	1	0
424.425	1	2
424.766	1	0
425.107	1	-14
425.449	1	-1
425.790	1	-1
426.131	1	7
426.472	1	-8
426.814	1	6
427.155	1	-4
427.496	1	3
427.837	1	-6
428.179	1	0
428.520	1	-6
428.861	1	1
429.202	1	7
429.544	1	-3
429.885	1	1
430.226	1	-8
430.567	1	-2
430.909	1	9
431.250	1	1
431.591	1	7
431.932	1	-1
432.273	1	-3
432.615	1	-3
432.956	1	-4
433.297	1	3
433.638	1	0
433.979	1	2
434.320	1	0
434.662	1	-3
435.003	1	2
435.344	1	1
435.685	1	0
436.026	1	-3
436.368	1	0
436.709	1	-2
437.050	1	-11
437.391	1	12
437.732	1	-9
438.073	1	2
438.414	1	-8
438.756	1	-4
439.097	1	-12
439.438	1	-5
439.779	1	-3
440.120	1	6
440.461	1	1
440.802	1	-4
441.143	1	6
441.485	1	6
441.826	1	-4
442.167	1	5
442.508	1	4
442.849	1	7
443.190	1	7
443.531	1	4
443.872	1	11
444.213	1	12
444.554	1	4
444.895	1	-5
445.237	1	-8
445.578	1	-2
445.919	1	-2
446.260	1	-7
446.601	1	-5
446.942	1	6
447.283	1	-8
447.624	1	-7
447.965	1	-6
448.306	1	2
448.647	1	-9
448.988	1	2
449.329	1	6
449.670	1	0
450.011	1	13
450.352	1	-2
450.693	1	-6
451.034	1	-2
451.375	1	-2
451.716	1	0
452.057	1	2
452.398	1	-3
452.739	1	1
453.080	1	-2
453.421	1	-3
453.762	1	4
454.103	1	-1
454.444	1	-4
454.785	1	0
455.126	1	6
455.467	1	-4
455.808	1	-3
456.149	1	-3
456.490	1	3
456.831	1	11
457.172	1	1
457.513	1	0
457.854	1	2
458.195	1	-2
458.536	1	10
458.877	1	-2
459.218	1	-4
459.559	1	-4
459.899	1	-6
460.240	1	6
460.581	1	9
460.922	1	5
461.263	1	-6
461.604	1	-4
461.945	1	-1
462.286	1	4
462.627	1	2
462.968	1	-2
463.309	1	-7
463.649	1	2
463.990	1	-4
464.331	1	-4
464.672	1	2
465.013	1	1
465.354	1	6
465.695	1	-1
466.036	1	-7
466.376	1	-1
466.717	1	3
467.058	1	0
467.399	1	2
467.740	1	-2
468.081	1	1
468.422	1	-3
468.762	1	-10
469.103	1	-8
469.444	1	1
469.785	1	-11
470.126	1	-8
470.467	1	-4
470.807	1	0
471.148	1	3
471.489	1	3
471.830	1	-1
472.171	1	1
472.511	1	-3
472.852	1	-1
473.193	1	2
473.534	1	-3
473.875	1	6
474.215	1	7
474.556	1	0
474.897	1	5
475.238	1	-4
475.578	1	-5
475.919	1	-1
476.260	1	8
476.601	1	2
476.942	1	13
477.282	1	0
477.623	1	-8
477.964	1	-2
478.305	1	-6
478.645	1	12
478.986	1	-2
479.327	1	-13
479.667	1	-2
480.008	1	-9
480.349	1	-6
480.690	1	-2
481.030	1	-8
481.371	1	1
481.712	1	5
482.053	1	5
482.393	1	9
482.734	1	-6
483.075	1	-4
483.415	1	5
483.756	1	13
484.097	1	3
484.437	1	-8
484.778	1	3
485.119	1	-7
485.459	1	11
485.800	1	9
486.141	1	1
486.481	1	-10
486.822	1	-1
487.163	1	5
487.503	1	8
487.844	1	1
488.185	1	-6
488.525	1	7
488.866	1	3
489.207	1	4
489.547	1	1
489.888	1	-7
490.228	1	-4
490.569	1	12
490.910	1	-1
491.250	1	5
491.591	1	-4
491.932	1	7
492.272	1	-2
492.613	1	-9
492.953	1	3
493.294	1	0
493.635	1	-3
493.975	1	-4
494.316	1	2
494.656	1	0
494.997	1	-4
495.337	1	11
495.678	1	1
496.019	1	-4
496.359	1	6
496.700	1	3
497.040	1	3
497.381	1	-1
497.721	1	-4
498.062	1	8
498.403	1	5
498.743	1	-6
499.084	1	-1
499.424	1	5
499.765	1	-5
500.105	1	-2
500.446	1	-7
500.786	1	-10
501.127	1	0
501.467	1	-4
501.808	1	9
502.148	1	6
502.489	1	0
502.829	1	0
503.170	1	5
503.510	1	7
503.851	1	4
504.191	1	9
504.532	1	3
504.872	1	4
505.213	1	2
505.553	1	-5
505.894	1	0
506.234	1	9
506.575	1	3
506.915	1	10
507.256	1	-4
507.596	1	1
507.936	1	5
508.277	1	2
508.617	1	7
508.958	1	-7
509.298	1	-4
509.639	1	-5
509.979	1	3
510.319	1	3
510.660	1	-2
511.000	1	9
511.341	1	0
511.681	1	5
512.022	1	-6
512.362	1	-3
512.702	1	-6
513.043	1	1
513.383	1	-3
513.724	1	-1
514.064	1	13
514.404	1	6
514.745	1	0
515.085	1	-4
515.425	1	4
515.766	1	-6
516.106	1	0
516.447	1	14
516.787	1	9
517.127	1	-5
517.468	1	-2
517.808	1	2
518.148	1	2
518.489	1	-2
518.829	1	1
519.169	1	2
519.510	1	5
519.850	1	6
520.190	1	0
520.531	1	3
520.871	1	9
521.211	1	-6
521.552	1	8
521.892	1	4
522.232	1	5
522.573	1	0
522.913	1	7
523.253	1	-2
523.593	1	1
523.934	1	-2
524.274	1	-3
524.614	1	-1
524.955	1	0
525.295	1	7
525.635	1	4
525.975	1	6
526.316	1	18
526.656	1	3
526.996	1	14
527.337	1	2
527.677	1	7
528.017	1	-3
528.357	1	10
528.698	1	7
529.038	1	1
529.378	1	13
529.718	1	7
530.058	1	4
530.399	1	2
530.739	1	8
531.079	1	8
531.419	1	7
531.760	1	10
532.100	1	1
532.440	1	-3
532.780	1	-1
533.120	1	5
533.461	1	2
533.801	1	14
534.141	1	-4
534.481	1	-7
534.821	1	9
535.162	1	0
535.502	1	0
535.842	1	12
536.182	1	4
536.522	1	-3
536.862	1	7
537.203	1	-3
537.543	1	-1
537.883	1	-3
538.223	1	-2
538.563	1	5
538.903	1	-4
539.243	1	1
539.584	1	1
539.924	1	14
540.264	1	3
540.604	1	6
540.944	1	-1
541.284	1	6
541.624	1	4
541.964	1	7
542.305	1	7
542.645	1	1
542.985	1	1
543.325	1	3
543.665	1	13
544.005	1	10
544.345	1	6
544.685	1	4
545.025	1	4
545.365	1	1
545.705	1	5
546.045	1	-10
546.386	1	3
546.726	1	0
547.066	1	-1
547.406	1	6
547.746	1	-11
548.086	1	-1
548.426	1	-3
548.766	1	0
549.106	1	1
549.446	1	0
549.786	1	-3
550.126	1	12
550.466	1	7
550.806	1	0
551.146	1	3
551.486	1	-2
551.826	1	12
552.166	1	9
552.506	1	8
552.846	1	2
553.186	1	8
553.526	1	-5
553.866	1	-1
554.206	1	5
554.546	1	12
554.886	1	3
555.226	1	1
555.566	1	-1
555.906	1	14
556.246	1	-5
556.586	1	-1
556.926	1	6
557.266	1	4
557.606	1	10
557.946	1	10
558.286	1	9
558.626	1	10
558.966	1	4
559.306	1	7
559.646	1	-1
559.986	1	1
560.325	1	-5
560.665	1	5
561.005	1	1
561.345	1	-2
561.685	1	-1
562.025	1	-5
562.365	1	13
562.705	1	3
563.045	1	-7
563.385	1	-8
563.725	1	1
564.064	1	-5
564.404	1	3
564.744	1	3
565.084	1	2
565.424	1	-1
565.764	1	-4
566.104	1	3
566.444	1	2
566.783	1	2
567.123	1	5
567.463	1	-1
567.803	1	3
568.143	1	4
568.483	1	9
568.823	1	2
569.162	1	6
569.502	1	6
569.842	1	12
570.182	1	5
570.522	1	-1
570.862	1	-3
571.201	1	12
571.541	1	8
571.881	1	13
572.221	1	-1
572.561	1	-2
572.900	1	4
573.240	1	11
573.580	1	7
573.920	1	10
574.260	1	10
574.599	1	12
574.939	1	8
575.279	1	17
575.619	1	13
575.959	1	-3
576.298	1	11
576.638	1	-3
576.978	1	10
577.318	1	10
577.657	1	-4
577.997	1	-4
578.337	1	15
578.677	1	6
579.016	1	4
579.356	1	-2
579.696	1	9
580.036	1	-3
580.375	1	9
580.715	1	2
581.055	1	2
581.394	1	3
581.734	1	-1
582.074	1	-2
582.414	1	15
582.753	1	0
583.093	1	4
583.433	1	-3
583.772	1	2
584.112	1	0
584.452	1	4
584.791	1	4
585.131	1	12
585.471	1	3
585.811	1	0
586.150	1	3
586.490	1	18
586.830	1	5
587.169	1	11
587.509	1	0
587.849	1	3
588.188	1	15
588.528	1	7
588.867	1	6
589.207	1	1
589.547	1	0
589.886	1	-1
590.226	1	14
590.566	1	-4
590.905	1	1
591.245	1	2
591.585	1	8
591.924	1	7
592.264	1	10
592.603	1	4
592.943	1	5
593.283	1	2
593.622	1	3
593.962	1	3
594.301	1	4
594.641	1	-1
594.981	1	-1
595.320	1	3
595.660	1	3
595.999	1	-1
596.339	1	4
596.678	1	-7
597.018	1	-3
597.358	1	6
597.697	1	8
598.037	1	1
598.376	1	5
598.716	1	-1
599.055	1	1
599.395	1	2
599.734	1	-3
600.074	1	-1
600.413	1	8
600.753	1	9
601.092	1	20
601.432	1	3
601.771	1	6
602.111	1	9
602.451	1	8
602.790	1	6
603.130	1	6
603.469	1	-1
603.809	1	4
604.148	1	6
604.487	1	0
604.827	1	10
605.166	1	5
605.506	1	4
605.845	1	4
606.185	1	6
606.524	1	-1
606.864	1	-5
607.203	1	-1
607.543	1	-3
607.882	1	7
608.222	1	11
608.561	1	-4
608.901	1	4
609.240	1	-11
609.579	1	12
609.919	1	7
610.258	1	14
610.598	1	-6
610.937	1	14
611.277	1	-1
611.616	1	-4
611.955	1	12
612.295	1	-3
612.634	1	-2
612.974	1	-10
613.313	1	10
613.652	1	7
613.992	1	-3
614.331	1	-4
614.671	1	10
615.010	1	-2
615.349	1	8
615.689	1	6
616.028	1	2
616.368	1	11
616.707	1	1
617.046	1	-5
617.386	1	4
617.725	1	2
618.064	1	-6
618.404	1	-4
618.743	1	5
619.082	1	1
619.422	1	-11
619.761	1	5
620.100	1	8
620.440	1	-2
620.779	1	-1
621.118	1	-5
621.458	1	1
621.797	1	3
622.136	1	10
622.476	1	5
622.815	1	8
623.154	1	3
623.494	1	20
623.833	1	7
624.172	1	3
624.511	1	4
624.851	1	4
625.190	1	11
625.529	1	1
625.869	1	9
626.208	1	1
626.547	1	3
626.886	1	8
627.226	1	11
627.565	1	-2
627.904	1	-1
628.243	1	10
628.583	1	-2
628.922	1	2
629.261	1	0
629.600	1	9
629.940	1	2
630.279	1	-2
630.618	1	-2
630.957	1	-1
631.297	1	2
631.636	1	-6
631.975	1	17
632.314	1	-4
632.653	1	4
632.993	1	5
633.332	1	-2
633.671	1	-8
634.010	1	-2
634.349	1	15
634.689	1	4
635.028	1	2
635.367	1	7
635.706	1	-2
636.045	1	3
636.384	1	-1
636.724	1	5
637.063	1	-5
637.402	1	6
637.741	1	2
638.080	1	-2
638.419	1	-6
638.759	1	-9
639.098	1	7
639.437	1	-1
639.776	1	1
640.115	1	1
640.454	1	-8
640.793	1	8
641.132	1	14
641.472	1	6
641.811	1	10
642.150	1	1
642.489	1	7
642.828	1	-12
643.167	1	-5
643.506	1	-8
643.845	1	-5
644.184	1	0
644.524	1	-8
644.863	1	-6
645.202	1	7
645.541	1	-4
645.880	1	6
646.219	1	1
646.558	1	-3
646.897	1	7
647.236	1	0
647.575	1	4
647.914	1	-1
648.253	1	11
648.592	1	-3
648.931	1	9
649.270	1	2
649.610	1	4
649.949	1	-5
650.288	1	3
650.627	1	4
650.966	1	4
651.305	1	4
651.644	1	15
651.983	1	4
652.322	1	-6
652.661	1	7
653.000	1	-3
653.339	1	6
653.678	1	0
654.017	1	-3
654.356	1	-2
654.695	1	9
655.034	1	7
655.373	1	12
655.712	1	-1
656.051	1	6
656.390	1	-1
656.729	1	8
657.068	1	0
657.406	1	8
657.745	1	-11
658.084	1	4
658.423	1	13
658.762	1	-5
659.101	1	15
659.440	1	7
659.779	1	5
660.118	1	-3
660.457	1	0
660.796	1	-13
661.135	1	-6
661.474	1	-2
661.813	1	14
662.152	1	5
662.491	1	-4
662.829	1	-2
663.168	1	-3
663.507	1	10
663.846	1	0
664.185	1	6
664.524	1	-4
664.863	1	-5
665.202	1	7
665.541	1	-5
665.879	1	-3
666.218	1	-9
666.557	1	-8
666.896	1	-1
667.235	1	7
667.574	1	-6
667.913	1	-3
668.251	1	-2
668.590	1	1
668.929	1	-3
669.268	1	-3
669.607	1	2
669.946	1	4
670.285	1	0
670.623	1	-3
670.962	1	9
671.301	1	-3
671.640	1	7
671.979	1	-1
672.317	1	7
672.656	1	-6
672.995	1	4
673.334	1	-5
673.673	1	-1
674.011	1	3
674.350	1	-4
674.689	1	-3
675.028	1	2
675.367	1	3
675.705	1	12
676.044	1	-3
676.383	1	1
676.722	1	-2
677.060	1	-1
677.399	1	-3
677.738	1	-2
678.077	1	0
678.416	1	-3
678.754	1	-8
679.093	1	3
679.432	1	-3
679.771	1	-3
680.109	1	5
680.448	1	-9
680.787	1	-2
681.125	1	4
681.464	1	-4
681.803	1	2
682.142	1	18
682.480	1	6
682.819	1	1
683.158	1	-3
683.496	1	2
683.835	1	-2
684.174	1	-4
684.512	1	11
684.851	1	3
685.190	1	-5
685.529	1	2
685.867	1	3
686.206	1	-1
686.545	1	-6
686.883	1	-4
687.222	1	2
687.561	1	6
687.899	1	5
688.238	1	12
688.577	1	-6
688.746	1	-1