File: Data/GaN_200K_800ms/GaN_sample F_spot 12_UVVIS_200 K_200um_800 ms 2x2mm1_31.txt
340.368	1	10
340.710	1	-5
341.052	1	15
341.394	1	3
341.737	1	12
342.079	1	-8
342.421	1	-4
342.763	1	5
343.105	1	2
343.447	1	-2
343.789	1	-5
344.131	1	-8
344.473	1	-1
344.815	1	0
345.157	1	-1
345.499	1	4
345.841	1	4
346.183	1	-6
346.526	1	-4
346.868	1	6
347.210	1	-4
347.552	1	3
347.894	1	13
348.236	1	10
348.578	1	6
348.920	1	-4
349.262	1	1
349.604	1	-2
349.946	1	-4
350.288	1	5
350.630	1	0
350.972	1	2
351.314	1	5
351.656	1	5
351.998	1	1
352.340	1	7
352.682	1	12
353.024	1	10
353.366	1	6
353.708	1	1
354.050	1	-12
354.392	1	-5
354.734	1	0
355.076	1	8
355.418	1	-10
355.760	1	1
356.102	1	7
356.444	1	6
356.785	1	5
357.127	1	3
357.469	1	-1
357.811	1	2
358.153	1	1
358.495	1	1
358.837	1	-15
359.179	1	8
359.521	1	6
359.863	1	0
360.205	1	1
360.547	1	6
360.889	1	-11
361.231	1	-7
361.572	1	14
361.914	1	4
362.256	1	-2
362.598	1	-4
362.940	1	1
363.282	1	7
363.624	1	13
363.966	1	0
364.308	1	-3
364.649	1	2
364.991	1	1
365.333	1	-8
365.675	1	-14
366.017	1	-6
366.359	1	8
366.701	1	-8
367.042	1	-4
367.384	1	0
367.726	1	8
368.068	1	3
368.410	1	11
368.752	1	-2
369.093	1	-4
369.435	1	-6
369.777	1	-3
370.119	1	-5
370.461	1	12
370.803	1	3
371.144	1	1
371.486	1	0
371.828	1	0
372.170	1	9
372.512	1	-7
372.853	1	6
373.195	1	-9
373.537	1	5
373.879	1	-4
374.220	1	9
374.562	1	6
374.904	1	-12
375.246	1	5
375.588	1	2
375.929	1	2
376.271	1	9
376.613	1	3
376.955	1	-1
377.296	1	-7
377.638	1	-7
377.980	1	8
378.321	1	-6
378.663	1	3
379.005	1	3
379.347	1	3
379.688	1	9
380.030	1	3
380.372	1	3
380.714	1	6
381.055	1	10
381.397	1	1
381.739	1	7
382.080	1	-3
382.422	1	4
382.764	1	-2
383.105	1	-2
383.447	1	-1
383.789	1	-7
384.130	1	-1
384.472	1	3
384.814	1	-3
385.156	1	-7
385.497	1	8
385.839	1	6
386.180	1	3
386.522	1	12
386.864	1	1
387.205	1	-11
387.547	1	-10
387.889	1	-2
388.230	1	5
388.572	1	-3
388.914	1	4
389.255	1	-7
389.597	1	8
389.939	1	5
390.280	1	3
390.622	1	-3
390.963	1	12
391.305	1	5
391.647	1	-2
391.988	1	1
392.330	1	9
392.671	1	3
393.013	1	1
393.355	1	5
393.696	1	7
394.038	1	0
394.379	1	2
394.721	1	-5
395.062	1	0
395.404	1	-2
395.746	1	6
396.087	1	-2
396.429	1	9
396.770	1	-8
397.112	1	-1
397.453	1	5
397.795	1	6
398.136	1	-5
398.478	1	8
398.819	1	-1
399.161	1	12
399.503	1	3
399.844	1	-2
400.186	1	2
400.527	1	-5
400.869	1	-3
401.210	1	9
401.552	1	1
401.893	1	-1
402.235	1	-3
402.576	1	-3
402.918	1	11
403.259	1	7
403.601	1	-2
403.942	1	9
404.284	1	10
404.625	1	11
404.967	1	2
405.308	1	2
405.649	1	-2
405.991	1	-11
406.332	1	-2
406.674	1	-1
407.015	1	5
407.357	1	9
407.698	1	10
408.040	1	-7
408.381	1	-4
408.722	1	-11
409.064	1	-4
409.405	1	9
409.747	1	-2
410.088	1	1
410.430	1	12
410.771	1	11
411.112	1	-2
411.454	1	1
411.795	1	-6
412.137	1	6
412.478	1	13
412.819	1	-5
413.161	1	-6
413.502	1	5
413.844	1	4
414.185	1	6
414.526	1	7
414.868	1	3
415.209	1	0
415.550	1	4
415.892	1	2
416.233	1	3
416.575	1	19
416.916	1	-7
417.257	1	0
417.599	1	12
417.940	1	10
418.281	1	0
418.623	1	-6
418.964	1	-12
419.305	1	0
419.647	1	-1
419.988	1	1
420.329	1	-8
420.671	1	4
421.012	1	9
421.353	1	-8
421.695	1	5
422.036	1	6
422.377	1	-5
422.718	1	7
423.060	1	-1
423.401	1	0
423.742	1	-1
424.084	1	-2
424.425	1	-3
424.766	1	-4
425.107	1	-8
425.449	1	3
425.790	1	-9
426.131	1	0
426.472	1	-5
426.814	1	6
427.155	1	-6
427.496	1	-3
427.837	1	-2
428.179	1	-2
428.520	1	5
428.861	1	4
429.202	1	1
429.544	1	-7
429.885	1	3
430.226	1	-4
430.567	1	3
430.909	1	-5
431.250	1	4
431.591	1	0
431.932	1	2
432.273	1	-2
432.615	1	-9
432.956	1	-8
433.297	1	9
433.638	1	-4
433.979	1	11
434.320	1	2
434.662	1	2
435.003	1	9
435.344	1	3
435.685	1	-4
436.026	1	6
436.368	1	2
436.709	1	2
437.050	1	-11
437.391	1	12
437.732	1	-5
438.073	1	0
438.414	1	-9
438.756	1	-6
439.097	1	-7
439.438	1	-1
439.779	1	10
440.120	1	5
440.461	1	7
440.802	1	-8
441.143	1	10
441.485	1	0
441.826	1	-5
442.167	1	2
442.508	1	-5
442.849	1	4
443.190	1	-5
443.531	1	8
443.872	1	11
444.213	1	7
444.554	1	7
444.895	1	-6
445.237	1	-8
445.578	1	4
445.919	1	-4
446.260	1	-2
446.601	1	-1
446.942	1	0
447.283	1	5
447.624	1	4
447.965	1	5
448.306	1	1
448.647	1	-5
448.988	1	-5
449.329	1	-4
449.670	1	16
450.011	1	7
450.352	1	8
450.693	1	-2
451.034	1	0
451.375	1	5
451.716	1	6
452.057	1	14
452.398	1	2
452.739	1	6
453.080	1	-1
453.421	1	2
453.762	1	5
454.103	1	-7
454.444	1	-4
454.785	1	-10
455.126	1	-8
455.467	1	0
455.808	1	-1
456.149	1	0
456.490	1	0
456.831	1	3
457.172	1	2
457.513	1	7
457.854	1	2
458.195	1	-13
458.536	1	5
458.877	1	5
459.218	1	2
459.559	1	6
459.899	1	4
460.240	1	1
460.581	1	20
460.922	1	3
461.263	1	-2
461.604	1	-2
461.945	1	-4
462.286	1	1
462.627	1	5
462.968	1	0
463.309	1	-6
463.649	1	-1
463.990	1	-2
464.331	1	-2
464.672	1	0
465.013	1	11
465.354	1	5
465.695	1	-1
466.036	1	-7
466.376	1	-1
466.717	1	-4
467.058	1	-3
467.399	1	8
467.740	1	2
468.081	1	11
468.422	1	-2
468.762	1	-10
469.103	1	-1
469.444	1	-9
469.785	1	-6
470.126	1	-4
470.467	1	0
470.807	1	1
471.148	1	-1
471.489	1	-1
471.830	1	2
472.171	1	6
472.511	1	-3
472.852	1	-2
473.193	1	0
473.534	1	12
473.875	1	12
474.215	1	10
474.556	1	-5
474.897	1	7
475.238	1	7
475.578	1	-9
475.919	1	-3
476.260	1	-1
476.601	1	-4
476.942	1	10
477.282	1	0
477.623	1	-8
477.964	1	-6
478.305	1	-7
478.645	1	9
478.986	1	-2
479.327	1	-6
479.667	1	0
480.008	1	0
480.349	1	-2
480.690	1	2
481.030	1	-6
481.371	1	0
481.712	1	3
482.053	1	7
482.393	1	-4
482.734	1	-9
483.075	1	-2
483.415	1	1
483.756	1	6
484.097	1	-8
484.437	1	2
484.778	1	8
485.119	1	-5
485.459	1	17
485.800	1	-7
486.141	1	4
486.481	1	2
486.822	1	4
487.163	1	9
487.503	1	9
487.844	1	-4
488.185	1	2
488.525	1	0
488.866	1	6
489.207	1	0
489.547	1	3
489.888	1	-6
490.228	1	4
490.569	1	15
490.910	1	3
491.250	1	1
491.591	1	-9
491.932	1	-1
492.272	1	8
492.613	1	-3
492.953	1	-7
493.294	1	-6
493.635	1	10
493.975	1	-7
494.316	1	2
494.656	1	-2
494.997	1	-7
495.337	1	10
495.678	1	-1
496.019	1	-4
496.359	1	1
496.700	1	-5
497.040	1	-4
497.381	1	0
497.721	1	-1
498.062	1	-7
498.403	1	5
498.743	1	1
499.084	1	3
499.424	1	0
499.765	1	1
500.105	1	5
500.446	1	-9
500.786	1	-9
501.127	1	7
501.467	1	-4
501.808	1	15
502.148	1	3
502.489	1	1
502.829	1	4
503.170	1	10
503.510	1	8
503.851	1	8
504.191	1	8
504.532	1	9
504.872	1	4
505.213	1	7
505.553	1	3
505.894	1	-9
506.234	1	6
506.575	1	6
506.915	1	8
507.256	1	1
507.596	1	0
507.936	1	3
508.277	1	2
508.617	1	9
508.958	1	-11
509.298	1	12
509.639	1	1
509.979	1	-1
510.319	1	5
510.660	1	1
511.000	1	-4
511.341	1	8
511.681	1	-3
512.022	1	-8
512.362	1	-2
512.702	1	-6
513.043	1	7
513.383	1	-13
513.724	1	6
514.064	1	6
514.404	1	-6
514.745	1	-7
515.085	1	1
515.425	1	-1
515.766	1	-3
516.106	1	-4
516.447	1	15
516.787	1	6
517.127	1	-4
517.468	1	2
517.808	1	1
518.148	1	5
518.489	1	-2
518.829	1	6
519.169	1	2
519.510	1	-3
519.850	1	11
520.190	1	-3
520.531	1	5
520.871	1	0
521.211	1	-7
521.552	1	12
521.892	1	7
522.232	1	2
522.573	1	-2
522.913	1	6
523.253	1	-2
523.593	1	0
523.934	1	-3
524.274	1	0
524.614	1	7
524.955	1	-2
525.295	1	7
525.635	1	-3
525.975	1	2
526.316	1	11
526.656	1	1
526.996	1	4
527.337	1	3
527.677	1	0
528.017	1	-7
528.357	1	-6
528.698	1	3
529.038	1	-1
529.378	1	6
529.718	1	5
530.058	1	8
530.399	1	3
530.739	1	3
531.079	1	4
531.419	1	3
531.760	1	4
532.100	1	1
532.440	1	-1
532.780	1	-4
533.120	1	3
533.461	1	1
533.801	1	13
534.141	1	-12
534.481	1	0
534.821	1	0
535.162	1	-4
535.502	1	-14
535.842	1	0
536.182	1	2
536.522	1	-3
536.862	1	5
537.203	1	-3
537.543	1	-7
537.883	1	-3
538.223	1	4
538.563	1	6
538.903	1	-12
539.243	1	-1
539.584	1	-8
539.924	1	14
540.264	1	-8
540.604	1	5
540.944	1	-2
541.284	1	4
541.624	1	3
541.964	1	7
542.305	1	1
542.645	1	3
542.985	1	0
543.325	1	0
543.665	1	15
544.005	1	4
544.345	1	7
544.685	1	-12
545.025	1	-2
545.365	1	-1
545.705	1	1
546.045	1	-5
546.386	1	9
546.726	1	-5
547.066	1	2
547.406	1	9
547.746	1	-16
548.086	1	2
548.426	1	-11
548.766	1	4
549.106	1	-6
549.446	1	6
549.786	1	2
550.126	1	7
550.466	1	3
550.806	1	-1
551.146	1	-4
551.486	1	8
551.826	1	4
552.166	1	-1
552.506	1	2
552.846	1	-2
553.186	1	2
553.526	1	-5
553.866	1	2
554.206	1	11
554.546	1	-8
554.886	1	8
555.226	1	-11
555.566	1	6
555.906	1	1
556.246	1	7
556.586	1	0
556.926	1	3
557.266	1	-7
557.606	1	-1
557.946	1	10
558.286	1	7
558.626	1	10
558.966	1	4
559.306	1	-9
559.646	1	-10
559.986	1	-6
560.325	1	-5
560.665	1	1
561.005	1	1
561.345	1	-2
561.685	1	0
562.025	1	5
562.365	1	0
562.705	1	-4
563.045	1	-3
563.385	1	-25
563.725	1	0
564.064	1	2
564.404	1	2
564.744	1	-2
565.084	1	-8
565.424	1	0
565.764	1	0
566.104	1	2
566.444	1	-9
566.783	1	4
567.123	1	8
567.463	1	7
567.803	1	-2
568.143	1	-2
568.483	1	7
568.823	1	11
569.162	1	8
569.502	1	-4
569.842	1	5
570.182	1	15
570.522	1	-6
570.862	1	-3
571.201	1	7
571.541	1	3
571.881	1	5
572.221	1	-9
572.561	1	-3
572.900	1	-1
573.240	1	7
573.580	1	3
573.920	1	5
574.260	1	-1
574.599	1	1
574.939	1	-8
575.279	1	15
575.619	1	16
575.959	1	-10
576.298	1	10
576.638	1	0
576.978	1	9
577.318	1	6
577.657	1	2
577.997	1	-13
578.337	1	12
578.677	1	2
579.016	1	9
579.356	1	4
579.696	1	5
580.036	1	-7
580.375	1	0
580.715	1	-2
581.055	1	1
581.394	1	-2
581.734	1	-7
582.074	1	2
582.414	1	9
582.753	1	-1
583.093	1	-5
583.433	1	3
583.772	1	8
584.112	1	-1
584.452	1	3
584.791	1	-8
585.131	1	4
585.471	1	6
585.811	1	6
586.150	1	1
586.490	1	1
586.830	1	-1
587.169	1	0
587.509	1	5
587.849	1	1
588.188	1	8
588.528	1	12
588.867	1	7
589.207	1	5
589.547	1	6
589.886	1	-12
590.226	1	2
590.566	1	-5
590.905	1	-2
591.245	1	-7
591.585	1	-1
591.924	1	3
592.264	1	6
592.603	1	-4
592.943	1	4
593.283	1	-1
593.622	1	-13
593.962	1	1
594.301	1	6
594.641	1	-6
594.981	1	-3
595.320	1	4
595.660	1	-1
595.999	1	-7
596.339	1	2
596.678	1	-6
597.018	1	-6
597.358	1	-2
597.697	1	3
598.037	1	6
598.376	1	8
598.716	1	7
599.055	1	7
599.395	1	-5
599.734	1	3
600.074	1	2
600.413	1	9
600.753	1	0
601.092	1	10
601.432	1	3
601.771	1	-5
602.111	1	-2
602.451	1	8
602.790	1	7
603.130	1	4
603.469	1	-2
603.809	1	6
604.148	1	3
604.487	1	3
604.827	1	11
605.166	1	2
605.506	1	6
605.845	1	9
606.185	1	8
606.524	1	1
606.864	1	5
607.203	1	-3
607.543	1	5
607.882	1	3
608.222	1	-10
608.561	1	-3
608.901	1	-1
609.240	1	-5
609.579	1	4
609.919	1	11
610.258	1	8
610.598	1	1
610.937	1	0
611.277	1	13
611.616	1	-5
611.955	1	-1
612.295	1	1
612.634	1	-4
612.974	1	-4
613.313	1	6
613.652	1	12
613.992	1	-6
614.331	1	7
614.671	1	1
615.010	1	2
615.349	1	2
615.689	1	1
616.028	1	0
616.368	1	5
616.707	1	-4
617.046	1	-4
617.386	1	12
617.725	1	-4
618.064	1	-5
618.404	1	4
618.743	1	5
619.082	1	1
619.422	1	-12
619.761	1	7
620.100	1	4
620.440	1	2
620.779	1	-7
621.118	1	-2
621.458	1	1
621.797	1	-7
622.136	1	12
622.476	1	7
622.815	1	10
623.154	1	9
623.494	1	13
623.833	1	7
624.172	1	-4
624.511	1	-3
624.851	1	-8
625.190	1	2
625.529	1	4
625.869	1	12
626.208	1	4
626.547	1	6
626.886	1	9
627.226	1	4
627.565	1	10
627.904	1	-5
628.243	1	19
628.583	1	1
628.922	1	1
629.261	1	6
629.600	1	3
629.940	1	-2
630.279	1	-2
630.618	1	1
630.957	1	2
631.297	1	-1
631.636	1	-7
631.975	1	16
632.314	1	1
632.653	1	4
632.993	1	0
633.332	1	-7
633.671	1	-2
634.010	1	-2
634.349	1	7
634.689	1	-1
635.028	1	11
635.367	1	-2
635.706	1	0
636.045	1	9
636.384	1	0
636.724	1	1
637.063	1	0
637.402	1	1
637.741	1	0
638.080	1	-1
638.419	1	-5
638.759	1	-7
639.098	1	5
639.437	1	-3
639.776	1	-9
640.115	1	3
640.454	1	-8
640.793	1	13
641.132	1	5
641.472	1	2
641.811	1	1
642.150	1	-4
642.489	1	0
642.828	1	-11
643.167	1	-3
643.506	1	-9
643.845	1	6
644.184	1	4
644.524	1	-4
644.863	1	-9
645.202	1	10
645.541	1	6
645.880	1	8
646.219	1	4
646.558	1	0
646.897	1	-11
647.236	1	1
647.575	1	4
647.914	1	-5
648.253	1	19
648.592	1	-2
648.931	1	13
649.270	1	-5
649.610	1	-3
649.949	1	-6
650.288	1	3
650.627	1	2
650.966	1	4
651.305	1	0
651.644	1	11
651.983	1	8
652.322	1	-1
652.661	1	-5
653.000	1	2
653.339	1	8
653.678	1	1
654.017	1	0
654.356	1	2
654.695	1	5
655.034	1	-3
655.373	1	8
655.712	1	5
656.051	1	3
656.390	1	-4
656.729	1	9
657.068	1	3
657.406	1	-5
657.745	1	-1
658.084	1	-3
658.423	1	15
658.762	1	0
659.101	1	11
659.440	1	-1
659.779	1	3
660.118	1	6
660.457	1	-2
660.796	1	-9
661.135	1	-11
661.474	1	-3
661.813	1	8
662.152	1	3
662.491	1	-4
662.829	1	-5
663.168	1	8
663.507	1	7
663.846	1	-1
664.185	1	0
664.524	1	0
664.863	1	8
665.202	1	-2
665.541	1	-11
665.879	1	-4
666.218	1	4
666.557	1	-3
666.896	1	-2
667.235	1	3
667.574	1	-1
667.913	1	7
668.251	1	-7
668.590	1	3
668.929	1	-5
669.268	1	6
669.607	1	-3
669.946	1	5
670.285	1	12
670.623	1	2
670.962	1	8
671.301	1	-10
671.640	1	3
671.979	1	-2
672.317	1	13
672.656	1	-1
672.995	1	8
673.334	1	1
673.673	1	0
674.011	1	0
674.350	1	7
674.689	1	1
675.028	1	-4
675.367	1	6
675.705	1	7
676.044	1	-2
676.383	1	8
676.722	1	5
677.060	1	1
677.399	1	0
677.738	1	5
678.077	1	9
678.416	1	-8
678.754	1	0
679.093	1	4
679.432	1	-1
679.771	1	2
680.109	1	11
680.448	1	1
680.787	1	-2
681.125	1	7
681.464	1	-6
681.803	1	1
682.142	1	8
682.480	1	14
682.819	1	-1
683.158	1	-9
683.496	1	3
683.835	1	10
684.174	1	8
684.512	1	-5
684.851	1	5
685.190	1	0
685.529	1	7
685.867	1	2
686.206	1	-11
686.545	1	-5
686.883	1	-3
687.222	1	6
687.561	1	2
687.899	1	0
688.238	1	4
688.577	1	-1
688.746	1	-2