File: Data/GaN_200K_800ms/GaN_sample F_spot 12_UVVIS_200 K_200um_800 ms 2x2mm1_17.txt
340.368	1	3
340.710	1	-8
341.052	1	6
341.394	1	-1
341.737	1	5
342.079	1	-5
342.421	1	1
342.763	1	7
343.105	1	0
343.447	1	-3
343.789	1	7
344.131	1	1
344.473	1	-4
344.815	1	-2
345.157	1	-1
345.499	1	-3
345.841	1	7
346.183	1	-10
346.526	1	-2
346.868	1	7
347.210	1	-13
347.552	1	-2
347.894	1	0
348.236	1	-2
348.578	1	3
348.920	1	-3
349.262	1	-1
349.604	1	5
349.946	1	-6
350.288	1	6
350.630	1	3
350.972	1	4
351.314	1	8
351.656	1	1
351.998	1	6
352.340	1	8
352.682	1	-1
353.024	1	-3
353.366	1	12
353.708	1	7
354.050	1	-11
354.392	1	-6
354.734	1	7
355.076	1	1
355.418	1	-7
355.760	1	-7
356.102	1	12
356.444	1	-1
356.785	1	14
357.127	1	0
357.469	1	-5
357.811	1	2
358.153	1	8
358.495	1	4
358.837	1	-4
359.179	1	-2
359.521	1	-2
359.863	1	1
360.205	1	-4
360.547	1	8
360.889	1	-2
361.231	1	-3
361.572	1	12
361.914	1	3
362.256	1	2
362.598	1	-8
362.940	1	-2
363.282	1	3
363.624	1	7
363.966	1	1
364.308	1	1
364.649	1	7
364.991	1	-1
365.333	1	-4
365.675	1	-2
366.017	1	-1
366.359	1	-2
366.701	1	1
367.042	1	3
367.384	1	-3
367.726	1	6
368.068	1	1
368.410	1	11
368.752	1	-4
369.093	1	1
369.435	1	9
369.777	1	8
370.119	1	-3
370.461	1	7
370.803	1	4
371.144	1	-4
371.486	1	7
371.828	1	3
372.170	1	0
372.512	1	-6
372.853	1	-3
373.195	1	4
373.537	1	8
373.879	1	-3
374.220	1	6
374.562	1	4
374.904	1	-7
375.246	1	7
375.588	1	-2
375.929	1	3
376.271	1	7
376.613	1	-2
376.955	1	-4
377.296	1	-17
377.638	1	-3
377.980	1	-6
378.321	1	-7
378.663	1	-4
379.005	1	14
379.347	1	6
379.688	1	0
380.030	1	0
380.372	1	-3
380.714	1	15
381.055	1	11
381.397	1	-3
381.739	1	4
382.080	1	-4
382.422	1	-2
382.764	1	-5
383.105	1	-4
383.447	1	-4
383.789	1	2
384.130	1	5
384.472	1	-5
384.814	1	0
385.156	1	0
385.497	1	0
385.839	1	2
386.180	1	8
386.522	1	11
386.864	1	8
387.205	1	-2
387.547	1	-6
387.889	1	-3
388.230	1	7
388.572	1	-7
388.914	1	9
389.255	1	-8
389.597	1	10
389.939	1	4
390.280	1	1
390.622	1	5
390.963	1	4
391.305	1	9
391.647	1	7
391.988	1	9
392.330	1	5
392.671	1	-13
393.013	1	0
393.355	1	9
393.696	1	4
394.038	1	3
394.379	1	8
394.721	1	-1
395.062	1	9
395.404	1	-8
395.746	1	6
396.087	1	-1
396.429	1	7
396.770	1	1
397.112	1	10
397.453	1	8
397.795	1	-1
398.136	1	-4
398.478	1	10
398.819	1	9
399.161	1	11
399.503	1	1
399.844	1	10
400.186	1	8
400.527	1	-6
400.869	1	-1
401.210	1	-8
401.552	1	-3
401.893	1	-2
402.235	1	5
402.576	1	2
402.918	1	1
403.259	1	6
403.601	1	-2
403.942	1	7
404.284	1	5
404.625	1	6
404.967	1	4
405.308	1	8
405.649	1	7
405.991	1	3
406.332	1	-7
406.674	1	2
407.015	1	4
407.357	1	2
407.698	1	9
408.040	1	-12
408.381	1	9
408.722	1	-17
409.064	1	0
409.405	1	8
409.747	1	-5
410.088	1	5
410.430	1	12
410.771	1	9
411.112	1	-2
411.454	1	-9
411.795	1	2
412.137	1	8
412.478	1	8
412.819	1	1
413.161	1	-4
413.502	1	2
413.844	1	12
414.185	1	6
414.526	1	-6
414.868	1	4
415.209	1	2
415.550	1	-5
415.892	1	-4
416.233	1	6
416.575	1	10
416.916	1	-6
417.257	1	-8
417.599	1	4
417.940	1	5
418.281	1	10
418.623	1	1
418.964	1	-5
419.305	1	9
419.647	1	-3
419.988	1	-7
420.329	1	-8
420.671	1	5
421.012	1	7
421.353	1	0
421.695	1	-5
422.036	1	10
422.377	1	-2
422.718	1	4
423.060	1	-8
423.401	1	-3
423.742	1	-2
424.084	1	3
424.425	1	4
424.766	1	8
425.107	1	-7
425.449	1	1
425.790	1	-7
426.131	1	6
426.472	1	-1
426.814	1	6
427.155	1	-9
427.496	1	7
427.837	1	5
428.179	1	-9
428.520	1	1
428.861	1	-11
429.202	1	6
429.544	1	13
429.885	1	6
430.226	1	-7
430.567	1	4
430.909	1	13
431.250	1	6
431.591	1	3
431.932	1	2
432.273	1	7
432.615	1	-8
432.956	1	-11
433.297	1	0
433.638	1	-3
433.979	1	8
434.320	1	10
434.662	1	6
435.003	1	-1
435.344	1	5
435.685	1	3
436.026	1	6
436.368	1	8
436.709	1	3
437.050	1	5
437.391	1	11
437.732	1	0
438.073	1	-1
438.414	1	-2
438.756	1	-5
439.097	1	-11
439.438	1	0
439.779	1	1
440.120	1	-2
440.461	1	0
440.802	1	-2
441.143	1	6
441.485	1	8
441.826	1	3
442.167	1	3
442.508	1	2
442.849	1	8
443.190	1	4
443.531	1	9
443.872	1	2
444.213	1	5
444.554	1	9
444.895	1	2
445.237	1	0
445.578	1	-4
445.919	1	2
446.260	1	0
446.601	1	-3
446.942	1	9
447.283	1	-3
447.624	1	-1
447.965	1	-3
448.306	1	-3
448.647	1	-7
448.988	1	1
449.329	1	4
449.670	1	13
450.011	1	15
450.352	1	4
450.693	1	-3
451.034	1	-7
451.375	1	3
451.716	1	-2
452.057	1	4
452.398	1	0
452.739	1	4
453.080	1	16
453.421	1	-2
453.762	1	-4
454.103	1	2
454.444	1	-8
454.785	1	-6
455.126	1	-4
455.467	1	1
455.808	1	0
456.149	1	5
456.490	1	0
456.831	1	6
457.172	1	-8
457.513	1	1
457.854	1	2
458.195	1	-2
458.536	1	4
458.877	1	8
459.218	1	0
459.559	1	8
459.899	1	-3
460.240	1	3
460.581	1	19
460.922	1	2
461.263	1	0
461.604	1	0
461.945	1	2
462.286	1	8
462.627	1	9
462.968	1	6
463.309	1	-6
463.649	1	6
463.990	1	-4
464.331	1	-5
464.672	1	2
465.013	1	-2
465.354	1	3
465.695	1	-6
466.036	1	3
466.376	1	-6
466.717	1	-2
467.058	1	-2
467.399	1	9
467.740	1	3
468.081	1	6
468.422	1	1
468.762	1	-7
469.103	1	-1
469.444	1	-2
469.785	1	-10
470.126	1	0
470.467	1	-1
470.807	1	-1
471.148	1	-4
471.489	1	-3
471.830	1	4
472.171	1	3
472.511	1	-7
472.852	1	-6
473.193	1	-1
473.534	1	11
473.875	1	12
474.215	1	10
474.556	1	1
474.897	1	-1
475.238	1	8
475.578	1	-10
475.919	1	0
476.260	1	0
476.601	1	5
476.942	1	8
477.282	1	-4
477.623	1	-5
477.964	1	-4
478.305	1	6
478.645	1	8
478.986	1	-2
479.327	1	-5
479.667	1	-2
480.008	1	6
480.349	1	-3
480.690	1	1
481.030	1	-9
481.371	1	9
481.712	1	-3
482.053	1	10
482.393	1	3
482.734	1	-10
483.075	1	4
483.415	1	4
483.756	1	9
484.097	1	0
484.437	1	0
484.778	1	13
485.119	1	-3
485.459	1	12
485.800	1	1
486.141	1	1
486.481	1	6
486.822	1	6
487.163	1	4
487.503	1	0
487.844	1	3
488.185	1	-1
488.525	1	-8
488.866	1	-3
489.207	1	0
489.547	1	-6
489.888	1	3
490.228	1	11
490.569	1	17
490.910	1	6
491.250	1	-2
491.591	1	3
491.932	1	-2
492.272	1	1
492.613	1	-7
492.953	1	-6
493.294	1	-3
493.635	1	3
493.975	1	-6
494.316	1	4
494.656	1	10
494.997	1	-1
495.337	1	16
495.678	1	-4
496.019	1	0
496.359	1	-7
496.700	1	15
497.040	1	-7
497.381	1	6
497.721	1	-7
498.062	1	2
498.403	1	1
498.743	1	-5
499.084	1	0
499.424	1	-1
499.765	1	-4
500.105	1	6
500.446	1	-1
500.786	1	-5
501.127	1	-3
501.467	1	2
501.808	1	7
502.148	1	4
502.489	1	6
502.829	1	4
503.170	1	16
503.510	1	10
503.851	1	2
504.191	1	16
504.532	1	8
504.872	1	2
505.213	1	6
505.553	1	-6
505.894	1	-5
506.234	1	7
506.575	1	10
506.915	1	6
507.256	1	-1
507.596	1	2
507.936	1	10
508.277	1	3
508.617	1	1
508.958	1	-3
509.298	1	9
509.639	1	-4
509.979	1	4
510.319	1	6
510.660	1	3
511.000	1	-9
511.341	1	5
511.681	1	5
512.022	1	-6
512.362	1	-6
512.702	1	-10
513.043	1	13
513.383	1	-6
513.724	1	4
514.064	1	13
514.404	1	-6
514.745	1	-2
515.085	1	-3
515.425	1	-3
515.766	1	-2
516.106	1	-11
516.447	1	6
516.787	1	9
517.127	1	2
517.468	1	-2
517.808	1	2
518.148	1	4
518.489	1	-8
518.829	1	7
519.169	1	0
519.510	1	1
519.850	1	-3
520.190	1	-5
520.531	1	-1
520.871	1	9
521.211	1	-10
521.552	1	4
521.892	1	1
522.232	1	8
522.573	1	2
522.913	1	5
523.253	1	-2
523.593	1	-5
523.934	1	2
524.274	1	3
524.614	1	5
524.955	1	-4
525.295	1	-2
525.635	1	-2
525.975	1	-1
526.316	1	4
526.656	1	-2
526.996	1	0
527.337	1	-5
527.677	1	10
528.017	1	-11
528.357	1	0
528.698	1	-3
529.038	1	7
529.378	1	3
529.718	1	10
530.058	1	-5
530.399	1	8
530.739	1	3
531.079	1	4
531.419	1	4
531.760	1	-2
532.100	1	4
532.440	1	-7
532.780	1	-5
533.120	1	-2
533.461	1	-1
533.801	1	18
534.141	1	-7
534.481	1	-11
534.821	1	4
535.162	1	-1
535.502	1	0
535.842	1	5
536.182	1	1
536.522	1	-4
536.862	1	3
537.203	1	-1
537.543	1	6
537.883	1	0
538.223	1	-2
538.563	1	2
538.903	1	-5
539.243	1	6
539.584	1	8
539.924	1	9
540.264	1	-5
540.604	1	3
540.944	1	0
541.284	1	6
541.624	1	4
541.964	1	8
542.305	1	3
542.645	1	2
542.985	1	7
543.325	1	3
543.665	1	7
544.005	1	5
544.345	1	0
544.685	1	3
545.025	1	-2
545.365	1	-2
545.705	1	7
546.045	1	0
546.386	1	-2
546.726	1	-6
547.066	1	7
547.406	1	-4
547.746	1	-12
548.086	1	2
548.426	1	-3
548.766	1	2
549.106	1	6
549.446	1	1
549.786	1	-5
550.126	1	3
550.466	1	-3
550.806	1	-1
551.146	1	-6
551.486	1	2
551.826	1	9
552.166	1	11
552.506	1	4
552.846	1	-2
553.186	1	-3
553.526	1	2
553.866	1	5
554.206	1	6
554.546	1	-2
554.886	1	-3
555.226	1	-2
555.566	1	2
555.906	1	6
556.246	1	2
556.586	1	-12
556.926	1	5
557.266	1	1
557.606	1	9
557.946	1	2
558.286	1	-2
558.626	1	5
558.966	1	-3
559.306	1	-1
559.646	1	-5
559.986	1	2
560.325	1	3
560.665	1	4
561.005	1	2
561.345	1	1
561.685	1	-3
562.025	1	-3
562.365	1	11
562.705	1	-5
563.045	1	3
563.385	1	-3
563.725	1	-2
564.064	1	-3
564.404	1	13
564.744	1	6
565.084	1	3
565.424	1	5
565.764	1	-2
566.104	1	2
566.444	1	-4
566.783	1	-10
567.123	1	6
567.463	1	6
567.803	1	-10
568.143	1	4
568.483	1	3
568.823	1	1
569.162	1	3
569.502	1	4
569.842	1	4
570.182	1	-5
570.522	1	-10
570.862	1	0
571.201	1	11
571.541	1	9
571.881	1	7
572.221	1	4
572.561	1	-4
572.900	1	-5
573.240	1	-4
573.580	1	0
573.920	1	1
574.260	1	6
574.599	1	-2
574.939	1	5
575.279	1	5
575.619	1	9
575.959	1	-7
576.298	1	2
576.638	1	-6
576.978	1	11
577.318	1	4
577.657	1	1
577.997	1	-4
578.337	1	3
578.677	1	9
579.016	1	12
579.356	1	-6
579.696	1	1
580.036	1	-5
580.375	1	4
580.715	1	3
581.055	1	-5
581.394	1	-8
581.734	1	-5
582.074	1	-7
582.414	1	8
582.753	1	2
583.093	1	-3
583.433	1	0
583.772	1	0
584.112	1	-1
584.452	1	-2
584.791	1	0
585.131	1	11
585.471	1	11
585.811	1	10
586.150	1	-2
586.490	1	3
586.830	1	10
587.169	1	9
587.509	1	-6
587.849	1	7
588.188	1	4
588.528	1	7
588.867	1	3
589.207	1	3
589.547	1	-3
589.886	1	-11
590.226	1	3
590.566	1	-6
590.905	1	3
591.245	1	-8
591.585	1	5
591.924	1	5
592.264	1	-6
592.603	1	-2
592.943	1	2
593.283	1	1
593.622	1	2
593.962	1	5
594.301	1	7
594.641	1	3
594.981	1	-3
595.320	1	7
595.660	1	-7
595.999	1	-5
596.339	1	4
596.678	1	-5
597.018	1	-8
597.358	1	-2
597.697	1	2
598.037	1	0
598.376	1	-3
598.716	1	9
599.055	1	2
599.395	1	2
599.734	1	-5
600.074	1	1
600.413	1	4
600.753	1	-1
601.092	1	22
601.432	1	-6
601.771	1	2
602.111	1	2
602.451	1	4
602.790	1	3
603.130	1	13
603.469	1	-17
603.809	1	-4
604.148	1	3
604.487	1	6
604.827	1	7
605.166	1	4
605.506	1	-4
605.845	1	-1
606.185	1	10
606.524	1	-1
606.864	1	1
607.203	1	-5
607.543	1	-4
607.882	1	-4
608.222	1	9
608.561	1	-1
608.901	1	1
609.240	1	-6
609.579	1	12
609.919	1	9
610.258	1	7
610.598	1	-5
610.937	1	-2
611.277	1	6
611.616	1	6
611.955	1	4
612.295	1	-13
612.634	1	-4
612.974	1	-13
613.313	1	8
613.652	1	7
613.992	1	-7
614.331	1	13
614.671	1	2
615.010	1	-2
615.349	1	10
615.689	1	3
616.028	1	9
616.368	1	1
616.707	1	4
617.046	1	2
617.386	1	3
617.725	1	1
618.064	1	-8
618.404	1	-3
618.743	1	-4
619.082	1	0
619.422	1	-6
619.761	1	1
620.100	1	4
620.440	1	3
620.779	1	-4
621.118	1	-3
621.458	1	6
621.797	1	-1
622.136	1	12
622.476	1	6
622.815	1	6
623.154	1	10
623.494	1	12
623.833	1	4
624.172	1	-4
624.511	1	-5
624.851	1	-12
625.190	1	2
625.529	1	3
625.869	1	8
626.208	1	7
626.547	1	8
626.886	1	4
627.226	1	1
627.565	1	10
627.904	1	0
628.243	1	3
628.583	1	5
628.922	1	-2
629.261	1	-4
629.600	1	-4
629.940	1	-2
630.279	1	-11
630.618	1	1
630.957	1	5
631.297	1	-2
631.636	1	-4
631.975	1	12
632.314	1	2
632.653	1	6
632.993	1	-4
633.332	1	-2
633.671	1	1
634.010	1	0
634.349	1	5
634.689	1	-5
635.028	1	5
635.367	1	0
635.706	1	2
636.045	1	13
636.384	1	2
636.724	1	2
637.063	1	-1
637.402	1	6
637.741	1	5
638.080	1	-1
638.419	1	2
638.759	1	-6
639.098	1	-3
639.437	1	0
639.776	1	-2
640.115	1	-1
640.454	1	-1
640.793	1	13
641.132	1	-5
641.472	1	-1
641.811	1	-10
642.150	1	-6
642.489	1	9
642.828	1	-4
643.167	1	3
643.506	1	-11
643.845	1	6
644.184	1	-4
644.524	1	-1
644.863	1	-6
645.202	1	0
645.541	1	5
645.880	1	0
646.219	1	-1
646.558	1	-4
646.897	1	-1
647.236	1	5
647.575	1	-2
647.914	1	-8
648.253	1	13
648.592	1	0
648.931	1	12
649.270	1	-3
649.610	1	7
649.949	1	-1
650.288	1	12
650.627	1	-1
650.966	1	9
651.305	1	9
651.644	1	19
651.983	1	0
652.322	1	-6
652.661	1	-7
653.000	1	-4
653.339	1	7
653.678	1	0
654.017	1	11
654.356	1	-7
654.695	1	7
655.034	1	1
655.373	1	4
655.712	1	1
656.051	1	1
656.390	1	-2
656.729	1	3
657.068	1	-1
657.406	1	0
657.745	1	-5
658.084	1	5
658.423	1	6
658.762	1	-3
659.101	1	9
659.440	1	-3
659.779	1	7
660.118	1	11
660.457	1	-2
660.796	1	-10
661.135	1	-8
661.474	1	-12
661.813	1	9
662.152	1	-4
662.491	1	2
662.829	1	-7
663.168	1	7
663.507	1	15
663.846	1	-2
664.185	1	7
664.524	1	6
664.863	1	-1
665.202	1	-1
665.541	1	-10
665.879	1	-8
666.218	1	-7
666.557	1	-5
666.896	1	-3
667.235	1	0
667.574	1	-1
667.913	1	1
668.251	1	-8
668.590	1	1
668.929	1	-8
669.268	1	0
669.607	1	2
669.946	1	-5
670.285	1	8
670.623	1	-2
670.962	1	1
671.301	1	-1
671.640	1	8
671.979	1	-8
672.317	1	2
672.656	1	-3
672.995	1	8
673.334	1	-1
673.673	1	-1
674.011	1	4
674.350	1	1
674.689	1	-1
675.028	1	-7
675.367	1	2
675.705	1	7
676.044	1	-5
676.383	1	0
676.722	1	8
677.060	1	0
677.399	1	-10
677.738	1	-3
678.077	1	4
678.416	1	-5
678.754	1	-3
679.093	1	5
679.432	1	10
679.771	1	2
680.109	1	8
680.448	1	5
680.787	1	-5
681.125	1	10
681.464	1	7
681.803	1	-9
682.142	1	17
682.480	1	10
682.819	1	1
683.158	1	-1
683.496	1	1
683.835	1	2
684.174	1	0
684.512	1	7
684.851	1	7
685.190	1	-8
685.529	1	2
685.867	1	-4
686.206	1	-12
686.545	1	-6
686.883	1	2
687.222	1	2
687.561	1	-3
687.899	1	-1
688.238	1	2
688.577	1	2
688.746	1	-6