File: Data/GaN_200K_800ms/GaN_sample F_spot 12_UVVIS_200 K_200um_800 ms 2x2mm1_318.txt
340.368	1	6
340.710	1	-8
341.052	1	8
341.394	1	-7
341.737	1	7
342.079	1	-14
342.421	1	-8
342.763	1	14
343.105	1	3
343.447	1	-9
343.789	1	2
344.131	1	2
344.473	1	-3
344.815	1	2
345.157	1	-11
345.499	1	-1
345.841	1	8
346.183	1	-1
346.526	1	-3
346.868	1	6
347.210	1	-2
347.552	1	0
347.894	1	3
348.236	1	7
348.578	1	1
348.920	1	1
349.262	1	2
349.604	1	0
349.946	1	-7
350.288	1	-5
350.630	1	2
350.972	1	0
351.314	1	4
351.656	1	9
351.998	1	9
352.340	1	5
352.682	1	4
353.024	1	2
353.366	1	8
353.708	1	3
354.050	1	-2
354.392	1	-4
354.734	1	6
355.076	1	-2
355.418	1	-5
355.760	1	-1
356.102	1	1
356.444	1	-5
356.785	1	4
357.127	1	-3
357.469	1	-4
357.811	1	1
358.153	1	5
358.495	1	0
358.837	1	-13
359.179	1	7
359.521	1	5
359.863	1	-1
360.205	1	2
360.547	1	15
360.889	1	1
361.231	1	0
361.572	1	0
361.914	1	4
362.256	1	2
362.598	1	4
362.940	1	-4
363.282	1	8
363.624	1	9
363.966	1	11
364.308	1	6
364.649	1	3
364.991	1	8
365.333	1	3
365.675	1	1
366.017	1	6
366.359	1	4
366.701	1	-2
367.042	1	12
367.384	1	13
367.726	1	17
368.068	1	24
368.410	1	27
368.752	1	8
369.093	1	13
369.435	1	24
369.777	1	14
370.119	1	11
370.461	1	29
370.803	1	10
371.144	1	11
371.486	1	20
371.828	1	10
372.170	1	16
372.512	1	16
372.853	1	11
373.195	1	10
373.537	1	6
373.879	1	8
374.220	1	31
374.562	1	13
374.904	1	2
375.246	1	13
375.588	1	6
375.929	1	21
376.271	1	20
376.613	1	3
376.955	1	5
377.296	1	5
377.638	1	6
377.980	1	4
378.321	1	2
378.663	1	6
379.005	1	18
379.347	1	6
379.688	1	0
380.030	1	-3
380.372	1	-1
380.714	1	6
381.055	1	12
381.397	1	2
381.739	1	4
382.080	1	6
382.422	1	-1
382.764	1	-11
383.105	1	3
383.447	1	7
383.789	1	-1
384.130	1	1
384.472	1	0
384.814	1	0
385.156	1	0
385.497	1	4
385.839	1	-2
386.180	1	5
386.522	1	9
386.864	1	4
387.205	1	-4
387.547	1	-8
387.889	1	2
388.230	1	11
388.572	1	9
388.914	1	8
389.255	1	-5
389.597	1	4
389.939	1	0
390.280	1	1
390.622	1	-2
390.963	1	12
391.305	1	4
391.647	1	6
391.988	1	9
392.330	1	4
392.671	1	-5
393.013	1	1
393.355	1	2
393.696	1	4
394.038	1	8
394.379	1	6
394.721	1	-1
395.062	1	2
395.404	1	-1
395.746	1	7
396.087	1	-9
396.429	1	6
396.770	1	-9
397.112	1	5
397.453	1	4
397.795	1	5
398.136	1	-17
398.478	1	1
398.819	1	5
399.161	1	9
399.503	1	1
399.844	1	5
400.186	1	5
400.527	1	4
400.869	1	0
401.210	1	-3
401.552	1	-10
401.893	1	-8
402.235	1	2
402.576	1	-3
402.918	1	-4
403.259	1	10
403.601	1	-6
403.942	1	6
404.284	1	-2
404.625	1	2
404.967	1	0
405.308	1	0
405.649	1	0
405.991	1	-4
406.332	1	4
406.674	1	1
407.015	1	8
407.357	1	-4
407.698	1	9
408.040	1	-3
408.381	1	10
408.722	1	-16
409.064	1	-5
409.405	1	-1
409.747	1	-14
410.088	1	4
410.430	1	3
410.771	1	1
411.112	1	-4
411.454	1	-6
411.795	1	-2
412.137	1	6
412.478	1	13
412.819	1	-5
413.161	1	-2
413.502	1	-4
413.844	1	9
414.185	1	8
414.526	1	-9
414.868	1	3
415.209	1	-8
415.550	1	-1
415.892	1	6
416.233	1	15
416.575	1	11
416.916	1	-3
417.257	1	-2
417.599	1	-1
417.940	1	3
418.281	1	3
418.623	1	-2
418.964	1	-9
419.305	1	3
419.647	1	-2
419.988	1	2
420.329	1	-10
420.671	1	3
421.012	1	3
421.353	1	-6
421.695	1	-12
422.036	1	4
422.377	1	0
422.718	1	3
423.060	1	-8
423.401	1	5
423.742	1	3
424.084	1	3
424.425	1	0
424.766	1	-4
425.107	1	-6
425.449	1	-2
425.790	1	-2
426.131	1	-1
426.472	1	3
426.814	1	0
427.155	1	-13
427.496	1	-9
427.837	1	3
428.179	1	-3
428.520	1	-5
428.861	1	-2
429.202	1	-1
429.544	1	-5
429.885	1	-3
430.226	1	-6
430.567	1	-2
430.909	1	5
431.250	1	-4
431.591	1	2
431.932	1	-9
432.273	1	1
432.615	1	-4
432.956	1	-7
433.297	1	3
433.638	1	-5
433.979	1	0
434.320	1	7
434.662	1	-2
435.003	1	4
435.344	1	0
435.685	1	0
436.026	1	6
436.368	1	5
436.709	1	7
437.050	1	-6
437.391	1	11
437.732	1	-13
438.073	1	1
438.414	1	-4
438.756	1	-7
439.097	1	-7
439.438	1	1
439.779	1	-5
440.120	1	-1
440.461	1	-7
440.802	1	2
441.143	1	6
441.485	1	2
441.826	1	3
442.167	1	2
442.508	1	-8
442.849	1	14
443.190	1	7
443.531	1	9
443.872	1	16
444.213	1	0
444.554	1	5
444.895	1	-5
445.237	1	-3
445.578	1	-10
445.919	1	2
446.260	1	-1
446.601	1	-2
446.942	1	0
447.283	1	-1
447.624	1	-1
447.965	1	-3
448.306	1	0
448.647	1	-5
448.988	1	-3
449.329	1	-6
449.670	1	12
450.011	1	9
450.352	1	-6
450.693	1	-1
451.034	1	1
451.375	1	5
451.716	1	-3
452.057	1	5
452.398	1	1
452.739	1	8
453.080	1	-3
453.421	1	3
453.762	1	3
454.103	1	-4
454.444	1	-7
454.785	1	-4
455.126	1	0
455.467	1	-3
455.808	1	0
456.149	1	9
456.490	1	3
456.831	1	-3
457.172	1	-2
457.513	1	1
457.854	1	6
458.195	1	-5
458.536	1	2
458.877	1	3
459.218	1	-4
459.559	1	0
459.899	1	-1
460.240	1	2
460.581	1	8
460.922	1	-4
461.263	1	0
461.604	1	-1
461.945	1	5
462.286	1	2
462.627	1	9
462.968	1	1
463.309	1	-1
463.649	1	3
463.990	1	-3
464.331	1	-1
464.672	1	1
465.013	1	-6
465.354	1	6
465.695	1	-5
466.036	1	0
466.376	1	-5
466.717	1	6
467.058	1	-2
467.399	1	15
467.740	1	1
468.081	1	1
468.422	1	-9
468.762	1	-7
469.103	1	-9
469.444	1	-2
469.785	1	-10
470.126	1	-3
470.467	1	5
470.807	1	6
471.148	1	-4
471.489	1	-1
471.830	1	-8
472.171	1	5
472.511	1	0
472.852	1	1
473.193	1	4
473.534	1	7
473.875	1	6
474.215	1	9
474.556	1	-4
474.897	1	-2
475.238	1	-2
475.578	1	-9
475.919	1	-4
476.260	1	1
476.601	1	1
476.942	1	10
477.282	1	2
477.623	1	-5
477.964	1	-2
478.305	1	3
478.645	1	8
478.986	1	-2
479.327	1	-8
479.667	1	0
480.008	1	-5
480.349	1	-8
480.690	1	0
481.030	1	1
481.371	1	2
481.712	1	0
482.053	1	2
482.393	1	-4
482.734	1	-1
483.075	1	-3
483.415	1	-4
483.756	1	1
484.097	1	0
484.437	1	5
484.778	1	15
485.119	1	3
485.459	1	8
485.800	1	-5
486.141	1	3
486.481	1	-9
486.822	1	6
487.163	1	-5
487.503	1	3
487.844	1	4
488.185	1	-3
488.525	1	1
488.866	1	1
489.207	1	-6
489.547	1	-9
489.888	1	0
490.228	1	2
490.569	1	7
490.910	1	2
491.250	1	-11
491.591	1	0
491.932	1	-2
492.272	1	5
492.613	1	-8
492.953	1	2
493.294	1	-5
493.635	1	5
493.975	1	4
494.316	1	5
494.656	1	0
494.997	1	0
495.337	1	6
495.678	1	-7
496.019	1	-12
496.359	1	-4
496.700	1	0
497.040	1	6
497.381	1	0
497.721	1	-3
498.062	1	2
498.403	1	5
498.743	1	5
499.084	1	0
499.424	1	-1
499.765	1	1
500.105	1	1
500.446	1	-13
500.786	1	-10
501.127	1	1
501.467	1	-11
501.808	1	3
502.148	1	10
502.489	1	2
502.829	1	3
503.170	1	9
503.510	1	2
503.851	1	-3
504.191	1	6
504.532	1	-6
504.872	1	1
505.213	1	5
505.553	1	-2
505.894	1	-10
506.234	1	7
506.575	1	-3
506.915	1	7
507.256	1	6
507.596	1	2
507.936	1	0
508.277	1	-5
508.617	1	-2
508.958	1	-5
509.298	1	10
509.639	1	0
509.979	1	-2
510.319	1	9
510.660	1	4
511.000	1	-5
511.341	1	1
511.681	1	-1
512.022	1	-9
512.362	1	-1
512.702	1	-3
513.043	1	2
513.383	1	-12
513.724	1	7
514.064	1	19
514.404	1	5
514.745	1	-2
515.085	1	-12
515.425	1	-4
515.766	1	-6
516.106	1	4
516.447	1	13
516.787	1	9
517.127	1	-3
517.468	1	7
517.808	1	2
518.148	1	1
518.489	1	-8
518.829	1	2
519.169	1	0
519.510	1	10
519.850	1	2
520.190	1	-1
520.531	1	0
520.871	1	-1
521.211	1	-14
521.552	1	4
521.892	1	0
522.232	1	0
522.573	1	-6
522.913	1	2
523.253	1	9
523.593	1	-4
523.934	1	-1
524.274	1	-2
524.614	1	8
524.955	1	-6
525.295	1	6
525.635	1	-3
525.975	1	-1
526.316	1	9
526.656	1	-5
526.996	1	8
527.337	1	-2
527.677	1	10
528.017	1	-5
528.357	1	7
528.698	1	-1
529.038	1	2
529.378	1	7
529.718	1	10
530.058	1	7
530.399	1	4
530.739	1	5
531.079	1	8
531.419	1	-1
531.760	1	10
532.100	1	2
532.440	1	-2
532.780	1	-2
533.120	1	11
533.461	1	3
533.801	1	7
534.141	1	-5
534.481	1	1
534.821	1	2
535.162	1	-3
535.502	1	-5
535.842	1	1
536.182	1	-7
536.522	1	-2
536.862	1	4
537.203	1	-2
537.543	1	-8
537.883	1	-1
538.223	1	0
538.563	1	10
538.903	1	-8
539.243	1	-1
539.584	1	-8
539.924	1	11
540.264	1	-4
540.604	1	3
540.944	1	0
541.284	1	10
541.624	1	13
541.964	1	5
542.305	1	4
542.645	1	4
542.985	1	5
543.325	1	7
543.665	1	13
544.005	1	0
544.345	1	10
544.685	1	4
545.025	1	-1
545.365	1	3
545.705	1	0
546.045	1	-3
546.386	1	13
546.726	1	-2
547.066	1	-2
547.406	1	1
547.746	1	-11
548.086	1	2
548.426	1	-3
548.766	1	0
549.106	1	1
549.446	1	-6
549.786	1	-3
550.126	1	13
550.466	1	-1
550.806	1	-4
551.146	1	7
551.486	1	-6
551.826	1	3
552.166	1	-4
552.506	1	0
552.846	1	-5
553.186	1	6
553.526	1	-4
553.866	1	-1
554.206	1	6
554.546	1	3
554.886	1	12
555.226	1	-8
555.566	1	-1
555.906	1	-4
556.246	1	3
556.586	1	-1
556.926	1	4
557.266	1	-6
557.606	1	7
557.946	1	11
558.286	1	0
558.626	1	0
558.966	1	-6
559.306	1	-3
559.646	1	-6
559.986	1	-2
560.325	1	-2
560.665	1	-4
561.005	1	-4
561.345	1	2
561.685	1	-3
562.025	1	7
562.365	1	7
562.705	1	1
563.045	1	1
563.385	1	-10
563.725	1	0
564.064	1	4
564.404	1	5
564.744	1	6
565.084	1	2
565.424	1	2
565.764	1	1
566.104	1	1
566.444	1	-5
566.783	1	-12
567.123	1	-5
567.463	1	5
567.803	1	-2
568.143	1	3
568.483	1	5
568.823	1	-1
569.162	1	6
569.502	1	-1
569.842	1	15
570.182	1	-10
570.522	1	-4
570.862	1	-4
571.201	1	11
571.541	1	10
571.881	1	14
572.221	1	-2
572.561	1	-7
572.900	1	-3
573.240	1	-1
573.580	1	-1
573.920	1	-2
574.260	1	6
574.599	1	1
574.939	1	3
575.279	1	8
575.619	1	7
575.959	1	-6
576.298	1	10
576.638	1	-3
576.978	1	6
577.318	1	5
577.657	1	-4
577.997	1	0
578.337	1	10
578.677	1	6
579.016	1	4
579.356	1	0
579.696	1	-1
580.036	1	-4
580.375	1	5
580.715	1	-5
581.055	1	-10
581.394	1	8
581.734	1	-15
582.074	1	-2
582.414	1	10
582.753	1	-3
583.093	1	0
583.433	1	-1
583.772	1	11
584.112	1	-4
584.452	1	6
584.791	1	3
585.131	1	2
585.471	1	7
585.811	1	5
586.150	1	2
586.490	1	5
586.830	1	-3
587.169	1	11
587.509	1	-3
587.849	1	5
588.188	1	12
588.528	1	0
588.867	1	3
589.207	1	4
589.547	1	2
589.886	1	-2
590.226	1	5
590.566	1	9
590.905	1	2
591.245	1	-1
591.585	1	-2
591.924	1	12
592.264	1	7
592.603	1	-5
592.943	1	-1
593.283	1	-2
593.622	1	-4
593.962	1	12
594.301	1	8
594.641	1	-6
594.981	1	-7
595.320	1	6
595.660	1	-5
595.999	1	-6
596.339	1	6
596.678	1	-17
597.018	1	-3
597.358	1	6
597.697	1	1
598.037	1	1
598.376	1	8
598.716	1	11
599.055	1	4
599.395	1	-2
599.734	1	7
600.074	1	-4
600.413	1	3
600.753	1	-1
601.092	1	15
601.432	1	-7
601.771	1	3
602.111	1	-5
602.451	1	11
602.790	1	5
603.130	1	2
603.469	1	-15
603.809	1	7
604.148	1	3
604.487	1	0
604.827	1	5
605.166	1	9
605.506	1	1
605.845	1	7
606.185	1	1
606.524	1	-8
606.864	1	-4
607.203	1	6
607.543	1	-8
607.882	1	-1
608.222	1	5
608.561	1	1
608.901	1	-3
609.240	1	-5
609.579	1	11
609.919	1	8
610.258	1	-3
610.598	1	-5
610.937	1	3
611.277	1	4
611.616	1	2
611.955	1	-2
612.295	1	-7
612.634	1	1
612.974	1	-6
613.313	1	10
613.652	1	9
613.992	1	-1
614.331	1	0
614.671	1	14
615.010	1	-5
615.349	1	6
615.689	1	7
616.028	1	-6
616.368	1	5
616.707	1	0
617.046	1	1
617.386	1	1
617.725	1	4
618.064	1	-4
618.404	1	1
618.743	1	3
619.082	1	0
619.422	1	-4
619.761	1	2
620.100	1	6
620.440	1	1
620.779	1	-5
621.118	1	-10
621.458	1	2
621.797	1	-2
622.136	1	12
622.476	1	4
622.815	1	16
623.154	1	1
623.494	1	17
623.833	1	3
624.172	1	-5
624.511	1	-5
624.851	1	-8
625.190	1	-1
625.529	1	-5
625.869	1	6
626.208	1	0
626.547	1	1
626.886	1	5
627.226	1	-6
627.565	1	1
627.904	1	-1
628.243	1	-1
628.583	1	-3
628.922	1	2
629.261	1	5
629.600	1	0
629.940	1	-1
630.279	1	-8
630.618	1	-7
630.957	1	-4
631.297	1	0
631.636	1	-5
631.975	1	10
632.314	1	-2
632.653	1	-1
632.993	1	-4
633.332	1	-3
633.671	1	-8
634.010	1	-8
634.349	1	13
634.689	1	2
635.028	1	0
635.367	1	4
635.706	1	2
636.045	1	2
636.384	1	3
636.724	1	5
637.063	1	-3
637.402	1	7
637.741	1	0
638.080	1	-7
638.419	1	-9
638.759	1	-8
639.098	1	5
639.437	1	-2
639.776	1	-1
640.115	1	-2
640.454	1	-3
640.793	1	6
641.132	1	12
641.472	1	6
641.811	1	-11
642.150	1	-8
642.489	1	8
642.828	1	-7
643.167	1	-11
643.506	1	-20
643.845	1	3
644.184	1	3
644.524	1	2
644.863	1	-8
645.202	1	1
645.541	1	3
645.880	1	2
646.219	1	5
646.558	1	-8
646.897	1	-3
647.236	1	-3
647.575	1	10
647.914	1	-3
648.253	1	0
648.592	1	-8
648.931	1	7
649.270	1	6
649.610	1	0
649.949	1	-3
650.288	1	1
650.627	1	1
650.966	1	0
651.305	1	-6
651.644	1	11
651.983	1	-3
652.322	1	-4
652.661	1	3
653.000	1	-1
653.339	1	9
653.678	1	2
654.017	1	4
654.356	1	-7
654.695	1	8
655.034	1	-5
655.373	1	3
655.712	1	-3
656.051	1	3
656.390	1	-6
656.729	1	-4
657.068	1	-2
657.406	1	2
657.745	1	0
658.084	1	4
658.423	1	2
658.762	1	-3
659.101	1	4
659.440	1	8
659.779	1	2
660.118	1	7
660.457	1	-4
660.796	1	-5
661.135	1	-3
661.474	1	-4
661.813	1	13
662.152	1	-4
662.491	1	-3
662.829	1	-8
663.168	1	2
663.507	1	5
663.846	1	-9
664.185	1	-2
664.524	1	0
664.863	1	-9
665.202	1	-6
665.541	1	-10
665.879	1	-4
666.218	1	-10
666.557	1	-3
666.896	1	-6
667.235	1	0
667.574	1	-2
667.913	1	1
668.251	1	-6
668.590	1	3
668.929	1	-12
669.268	1	4
669.607	1	-4
669.946	1	-4
670.285	1	2
670.623	1	3
670.962	1	-5
671.301	1	6
671.640	1	2
671.979	1	1
672.317	1	-1
672.656	1	1
672.995	1	-1
673.334	1	-2
673.673	1	2
674.011	1	-3
674.350	1	1
674.689	1	-1
675.028	1	-4
675.367	1	14
675.705	1	7
676.044	1	-7
676.383	1	-1
676.722	1	5
677.060	1	-7
677.399	1	-4
677.738	1	-2
678.077	1	-3
678.416	1	2
678.754	1	2
679.093	1	1
679.432	1	-1
679.771	1	1
680.109	1	3
680.448	1	1
680.787	1	-1
681.125	1	8
681.464	1	-6
681.803	1	-4
682.142	1	8
682.480	1	3
682.819	1	-3
683.158	1	-4
683.496	1	0
683.835	1	1
684.174	1	3
684.512	1	-3
684.851	1	2
685.190	1	-1
685.529	1	-10
685.867	1	-1
686.206	1	0
686.545	1	-9
686.883	1	3
687.222	1	8
687.561	1	-4
687.899	1	0
688.238	1	2
688.577	1	-1
688.746	1	1