File: Data/GaN_200K_800ms/GaN_sample F_spot 12_UVVIS_200 K_200um_800 ms 2x2mm1_96.txt
340.368	1	4
340.710	1	-8
341.052	1	11
341.394	1	1
341.737	1	8
342.079	1	-2
342.421	1	-1
342.763	1	4
343.105	1	10
343.447	1	6
343.789	1	7
344.131	1	2
344.473	1	-4
344.815	1	7
345.157	1	-1
345.499	1	2
345.841	1	7
346.183	1	-10
346.526	1	3
346.868	1	12
347.210	1	-9
347.552	1	0
347.894	1	4
348.236	1	12
348.578	1	3
348.920	1	6
349.262	1	1
349.604	1	-2
349.946	1	-4
350.288	1	20
350.630	1	9
350.972	1	12
351.314	1	10
351.656	1	10
351.998	1	5
352.340	1	5
352.682	1	19
353.024	1	12
353.366	1	13
353.708	1	2
354.050	1	-1
354.392	1	6
354.734	1	14
355.076	1	13
355.418	1	-1
355.760	1	11
356.102	1	19
356.444	1	5
356.785	1	15
357.127	1	12
357.469	1	20
357.811	1	14
358.153	1	21
358.495	1	13
358.837	1	5
359.179	1	16
359.521	1	23
359.863	1	16
360.205	1	8
360.547	1	21
360.889	1	11
361.231	1	13
361.572	1	42
361.914	1	39
362.256	1	37
362.598	1	27
362.940	1	24
363.282	1	39
363.624	1	47
363.966	1	46
364.308	1	45
364.649	1	47
364.991	1	55
365.333	1	64
365.675	1	56
366.017	1	64
366.359	1	69
366.701	1	81
367.042	1	78
367.384	1	89
367.726	1	97
368.068	1	92
368.410	1	117
368.752	1	99
369.093	1	99
369.435	1	101
369.777	1	100
370.119	1	101
370.461	1	111
370.803	1	108
371.144	1	97
371.486	1	100
371.828	1	94
372.170	1	98
372.512	1	83
372.853	1	84
373.195	1	80
373.537	1	72
373.879	1	71
374.220	1	82
374.562	1	82
374.904	1	56
375.246	1	70
375.588	1	60
375.929	1	58
376.271	1	61
376.613	1	53
376.955	1	37
377.296	1	43
377.638	1	46
377.980	1	46
378.321	1	39
378.663	1	46
379.005	1	52
379.347	1	37
379.688	1	34
380.030	1	35
380.372	1	38
380.714	1	33
381.055	1	40
381.397	1	31
381.739	1	40
382.080	1	20
382.422	1	27
382.764	1	34
383.105	1	26
383.447	1	17
383.789	1	21
384.130	1	25
384.472	1	23
384.814	1	28
385.156	1	20
385.497	1	30
385.839	1	19
386.180	1	21
386.522	1	35
386.864	1	13
387.205	1	10
387.547	1	14
387.889	1	12
388.230	1	19
388.572	1	11
388.914	1	4
389.255	1	5
389.597	1	9
389.939	1	9
390.280	1	13
390.622	1	13
390.963	1	23
391.305	1	21
391.647	1	11
391.988	1	23
392.330	1	19
392.671	1	11
393.013	1	6
393.355	1	6
393.696	1	3
394.038	1	11
394.379	1	6
394.721	1	1
395.062	1	2
395.404	1	0
395.746	1	18
396.087	1	12
396.429	1	14
396.770	1	1
397.112	1	9
397.453	1	13
397.795	1	7
398.136	1	1
398.478	1	9
398.819	1	11
399.161	1	13
399.503	1	0
399.844	1	2
400.186	1	9
400.527	1	6
400.869	1	8
401.210	1	2
401.552	1	1
401.893	1	14
402.235	1	4
402.576	1	-4
402.918	1	12
403.259	1	8
403.601	1	-1
403.942	1	14
404.284	1	7
404.625	1	3
404.967	1	7
405.308	1	9
405.649	1	2
405.991	1	10
406.332	1	11
406.674	1	1
407.015	1	15
407.357	1	6
407.698	1	13
408.040	1	1
408.381	1	5
408.722	1	-6
409.064	1	12
409.405	1	19
409.747	1	3
410.088	1	8
410.430	1	18
410.771	1	2
411.112	1	5
411.454	1	3
411.795	1	3
412.137	1	8
412.478	1	18
412.819	1	0
413.161	1	1
413.502	1	9
413.844	1	13
414.185	1	10
414.526	1	8
414.868	1	-2
415.209	1	1
415.550	1	-1
415.892	1	8
416.233	1	9
416.575	1	12
416.916	1	-2
417.257	1	8
417.599	1	9
417.940	1	6
418.281	1	1
418.623	1	-2
418.964	1	-5
419.305	1	5
419.647	1	0
419.988	1	4
420.329	1	-1
420.671	1	9
421.012	1	6
421.353	1	1
421.695	1	-2
422.036	1	6
422.377	1	3
422.718	1	12
423.060	1	2
423.401	1	10
423.742	1	1
424.084	1	-1
424.425	1	11
424.766	1	2
425.107	1	1
425.449	1	9
425.790	1	-7
426.131	1	-4
426.472	1	4
426.814	1	4
427.155	1	-10
427.496	1	0
427.837	1	-2
428.179	1	-1
428.520	1	9
428.861	1	0
429.202	1	0
429.544	1	4
429.885	1	6
430.226	1	-5
430.567	1	2
430.909	1	3
431.250	1	-4
431.591	1	6
431.932	1	4
432.273	1	-1
432.615	1	-6
432.956	1	1
433.297	1	10
433.638	1	5
433.979	1	6
434.320	1	3
434.662	1	7
435.003	1	17
435.344	1	-2
435.685	1	4
436.026	1	10
436.368	1	9
436.709	1	3
437.050	1	6
437.391	1	7
437.732	1	0
438.073	1	0
438.414	1	-2
438.756	1	2
439.097	1	-2
439.438	1	-2
439.779	1	-1
440.120	1	-6
440.461	1	6
440.802	1	-8
441.143	1	13
441.485	1	11
441.826	1	4
442.167	1	-3
442.508	1	-6
442.849	1	7
443.190	1	5
443.531	1	16
443.872	1	8
444.213	1	-2
444.554	1	17
444.895	1	3
445.237	1	5
445.578	1	-12
445.919	1	-3
446.260	1	-5
446.601	1	4
446.942	1	3
447.283	1	-3
447.624	1	3
447.965	1	2
448.306	1	7
448.647	1	-5
448.988	1	0
449.329	1	0
449.670	1	5
450.011	1	4
450.352	1	-4
450.693	1	-5
451.034	1	-4
451.375	1	4
451.716	1	3
452.057	1	4
452.398	1	1
452.739	1	4
453.080	1	2
453.421	1	3
453.762	1	-5
454.103	1	-7
454.444	1	-14
454.785	1	3
455.126	1	-6
455.467	1	2
455.808	1	2
456.149	1	4
456.490	1	1
456.831	1	6
457.172	1	-5
457.513	1	3
457.854	1	6
458.195	1	-2
458.536	1	6
458.877	1	3
459.218	1	2
459.559	1	3
459.899	1	5
460.240	1	5
460.581	1	14
460.922	1	6
461.263	1	-9
461.604	1	4
461.945	1	-5
462.286	1	7
462.627	1	12
462.968	1	8
463.309	1	3
463.649	1	12
463.990	1	5
464.331	1	0
464.672	1	4
465.013	1	-4
465.354	1	6
465.695	1	-2
466.036	1	-11
466.376	1	-1
466.717	1	-3
467.058	1	-2
467.399	1	8
467.740	1	0
468.081	1	5
468.422	1	-2
468.762	1	-9
469.103	1	-6
469.444	1	-11
469.785	1	0
470.126	1	-2
470.467	1	-4
470.807	1	-1
471.148	1	-1
471.489	1	-2
471.830	1	7
472.171	1	1
472.511	1	-5
472.852	1	5
473.193	1	2
473.534	1	5
473.875	1	18
474.215	1	13
474.556	1	-4
474.897	1	0
475.238	1	-7
475.578	1	-5
475.919	1	-8
476.260	1	0
476.601	1	5
476.942	1	17
477.282	1	0
477.623	1	-5
477.964	1	1
478.305	1	3
478.645	1	10
478.986	1	0
479.327	1	2
479.667	1	5
480.008	1	2
480.349	1	-9
480.690	1	10
481.030	1	5
481.371	1	11
481.712	1	11
482.053	1	6
482.393	1	2
482.734	1	6
483.075	1	7
483.415	1	-1
483.756	1	5
484.097	1	-1
484.437	1	-4
484.778	1	9
485.119	1	1
485.459	1	7
485.800	1	-5
486.141	1	-5
486.481	1	-2
486.822	1	14
487.163	1	9
487.503	1	16
487.844	1	-4
488.185	1	-1
488.525	1	2
488.866	1	5
489.207	1	9
489.547	1	0
489.888	1	-1
490.228	1	6
490.569	1	8
490.910	1	3
491.250	1	14
491.591	1	-9
491.932	1	8
492.272	1	7
492.613	1	3
492.953	1	0
493.294	1	7
493.635	1	-4
493.975	1	-1
494.316	1	6
494.656	1	4
494.997	1	-4
495.337	1	11
495.678	1	0
496.019	1	-8
496.359	1	4
496.700	1	2
497.040	1	0
497.381	1	-10
497.721	1	3
498.062	1	2
498.403	1	8
498.743	1	2
499.084	1	4
499.424	1	5
499.765	1	-2
500.105	1	14
500.446	1	-8
500.786	1	-2
501.127	1	2
501.467	1	6
501.808	1	10
502.148	1	4
502.489	1	0
502.829	1	3
503.170	1	18
503.510	1	5
503.851	1	6
504.191	1	17
504.532	1	5
504.872	1	7
505.213	1	12
505.553	1	-2
505.894	1	-8
506.234	1	15
506.575	1	14
506.915	1	3
507.256	1	8
507.596	1	5
507.936	1	5
508.277	1	9
508.617	1	6
508.958	1	-1
509.298	1	7
509.639	1	8
509.979	1	7
510.319	1	13
510.660	1	8
511.000	1	0
511.341	1	17
511.681	1	16
512.022	1	3
512.362	1	1
512.702	1	8
513.043	1	9
513.383	1	-5
513.724	1	-5
514.064	1	18
514.404	1	4
514.745	1	5
515.085	1	8
515.425	1	1
515.766	1	-8
516.106	1	4
516.447	1	20
516.787	1	13
517.127	1	6
517.468	1	7
517.808	1	10
518.148	1	11
518.489	1	5
518.829	1	15
519.169	1	-8
519.510	1	2
519.850	1	18
520.190	1	15
520.531	1	12
520.871	1	10
521.211	1	-7
521.552	1	13
521.892	1	7
522.232	1	11
522.573	1	11
522.913	1	7
523.253	1	6
523.593	1	6
523.934	1	14
524.274	1	8
524.614	1	6
524.955	1	0
525.295	1	14
525.635	1	14
525.975	1	11
526.316	1	21
526.656	1	0
526.996	1	6
527.337	1	4
527.677	1	11
528.017	1	0
528.357	1	10
528.698	1	15
529.038	1	11
529.378	1	17
529.718	1	23
530.058	1	16
530.399	1	13
530.739	1	7
531.079	1	11
531.419	1	14
531.760	1	16
532.100	1	6
532.440	1	9
532.780	1	5
533.120	1	20
533.461	1	10
533.801	1	39
534.141	1	-1
534.481	1	1
534.821	1	16
535.162	1	16
535.502	1	-1
535.842	1	23
536.182	1	3
536.522	1	4
536.862	1	15
537.203	1	10
537.543	1	10
537.883	1	16
538.223	1	7
538.563	1	18
538.903	1	10
539.243	1	10
539.584	1	10
539.924	1	21
540.264	1	5
540.604	1	12
540.944	1	8
541.284	1	17
541.624	1	19
541.964	1	23
542.305	1	14
542.645	1	15
542.985	1	19
543.325	1	24
543.665	1	20
544.005	1	8
544.345	1	21
544.685	1	10
545.025	1	9
545.365	1	13
545.705	1	13
546.045	1	0
546.386	1	11
546.726	1	11
547.066	1	12
547.406	1	10
547.746	1	11
548.086	1	15
548.426	1	6
548.766	1	19
549.106	1	14
549.446	1	3
549.786	1	10
550.126	1	25
550.466	1	20
550.806	1	18
551.146	1	20
551.486	1	5
551.826	1	23
552.166	1	21
552.506	1	21
552.846	1	7
553.186	1	21
553.526	1	10
553.866	1	18
554.206	1	13
554.546	1	20
554.886	1	10
555.226	1	10
555.566	1	22
555.906	1	15
556.246	1	25
556.586	1	13
556.926	1	16
557.266	1	1
557.606	1	15
557.946	1	18
558.286	1	22
558.626	1	19
558.966	1	10
559.306	1	8
559.646	1	7
559.986	1	13
560.325	1	7
560.665	1	14
561.005	1	7
561.345	1	17
561.685	1	17
562.025	1	12
562.365	1	15
562.705	1	8
563.045	1	6
563.385	1	5
563.725	1	16
564.064	1	6
564.404	1	16
564.744	1	14
565.084	1	14
565.424	1	13
565.764	1	7
566.104	1	13
566.444	1	11
566.783	1	11
567.123	1	8
567.463	1	17
567.803	1	15
568.143	1	17
568.483	1	20
568.823	1	22
569.162	1	22
569.502	1	11
569.842	1	23
570.182	1	12
570.522	1	-2
570.862	1	14
571.201	1	14
571.541	1	14
571.881	1	24
572.221	1	6
572.561	1	6
572.900	1	13
573.240	1	21
573.580	1	10
573.920	1	13
574.260	1	25
574.599	1	6
574.939	1	9
575.279	1	25
575.619	1	16
575.959	1	7
576.298	1	22
576.638	1	6
576.978	1	15
577.318	1	18
577.657	1	1
577.997	1	3
578.337	1	21
578.677	1	12
579.016	1	23
579.356	1	13
579.696	1	19
580.036	1	14
580.375	1	13
580.715	1	12
581.055	1	8
581.394	1	16
581.734	1	12
582.074	1	12
582.414	1	25
582.753	1	8
583.093	1	1
583.433	1	12
583.772	1	17
584.112	1	21
584.452	1	12
584.791	1	4
585.131	1	6
585.471	1	19
585.811	1	17
586.150	1	6
586.490	1	13
586.830	1	9
587.169	1	12
587.509	1	10
587.849	1	10
588.188	1	21
588.528	1	21
588.867	1	19
589.207	1	5
589.547	1	19
589.886	1	3
590.226	1	25
590.566	1	15
590.905	1	14
591.245	1	3
591.585	1	19
591.924	1	7
592.264	1	10
592.603	1	3
592.943	1	12
593.283	1	9
593.622	1	7
593.962	1	11
594.301	1	20
594.641	1	7
594.981	1	5
595.320	1	15
595.660	1	15
595.999	1	1
596.339	1	10
596.678	1	2
597.018	1	9
597.358	1	9
597.697	1	15
598.037	1	7
598.376	1	15
598.716	1	19
599.055	1	19
599.395	1	11
599.734	1	11
600.074	1	10
600.413	1	13
600.753	1	15
601.092	1	17
601.432	1	15
601.771	1	19
602.111	1	13
602.451	1	19
602.790	1	22
603.130	1	12
603.469	1	1
603.809	1	19
604.148	1	19
604.487	1	7
604.827	1	20
605.166	1	14
605.506	1	17
605.845	1	18
606.185	1	17
606.524	1	16
606.864	1	1
607.203	1	2
607.543	1	6
607.882	1	18
608.222	1	17
608.561	1	11
608.901	1	11
609.240	1	3
609.579	1	22
609.919	1	26
610.258	1	18
610.598	1	8
610.937	1	18
611.277	1	8
611.616	1	11
611.955	1	4
612.295	1	4
612.634	1	2
612.974	1	-1
613.313	1	13
613.652	1	20
613.992	1	19
614.331	1	2
614.671	1	16
615.010	1	-2
615.349	1	4
615.689	1	14
616.028	1	13
616.368	1	10
616.707	1	8
617.046	1	11
617.386	1	11
617.725	1	12
618.064	1	4
618.404	1	11
618.743	1	7
619.082	1	11
619.422	1	0
619.761	1	9
620.100	1	21
620.440	1	3
620.779	1	-2
621.118	1	9
621.458	1	10
621.797	1	11
622.136	1	11
622.476	1	12
622.815	1	28
623.154	1	11
623.494	1	21
623.833	1	17
624.172	1	6
624.511	1	3
624.851	1	4
625.190	1	7
625.529	1	11
625.869	1	8
626.208	1	16
626.547	1	16
626.886	1	11
627.226	1	10
627.565	1	10
627.904	1	-2
628.243	1	19
628.583	1	11
628.922	1	11
629.261	1	9
629.600	1	12
629.940	1	9
630.279	1	11
630.618	1	4
630.957	1	4
631.297	1	10
631.636	1	7
631.975	1	28
632.314	1	7
632.653	1	12
632.993	1	5
633.332	1	12
633.671	1	0
634.010	1	-2
634.349	1	11
634.689	1	8
635.028	1	13
635.367	1	0
635.706	1	9
636.045	1	18
636.384	1	2
636.724	1	11
637.063	1	6
637.402	1	8
637.741	1	5
638.080	1	8
638.419	1	1
638.759	1	-2
639.098	1	21
639.437	1	7
639.776	1	6
640.115	1	-8
640.454	1	1
640.793	1	7
641.132	1	18
641.472	1	5
641.811	1	10
642.150	1	-2
642.489	1	9
642.828	1	9
643.167	1	4
643.506	1	1
643.845	1	3
644.184	1	7
644.524	1	-3
644.863	1	1
645.202	1	13
645.541	1	4
645.880	1	8
646.219	1	12
646.558	1	7
646.897	1	11
647.236	1	2
647.575	1	7
647.914	1	10
648.253	1	8
648.592	1	-1
648.931	1	12
649.270	1	14
649.610	1	-1
649.949	1	6
650.288	1	6
650.627	1	10
650.966	1	4
651.305	1	11
651.644	1	13
651.983	1	8
652.322	1	4
652.661	1	2
653.000	1	4
653.339	1	8
653.678	1	10
654.017	1	9
654.356	1	-5
654.695	1	9
655.034	1	6
655.373	1	7
655.712	1	13
656.051	1	-3
656.390	1	4
656.729	1	15
657.068	1	10
657.406	1	8
657.745	1	0
658.084	1	10
658.423	1	9
658.762	1	-5
659.101	1	13
659.440	1	-1
659.779	1	10
660.118	1	12
660.457	1	5
660.796	1	2
661.135	1	-1
661.474	1	8
661.813	1	14
662.152	1	3
662.491	1	-4
662.829	1	1
663.168	1	5
663.507	1	14
663.846	1	-1
664.185	1	5
664.524	1	5
664.863	1	4
665.202	1	9
665.541	1	0
665.879	1	-5
666.218	1	-2
666.557	1	3
666.896	1	8
667.235	1	10
667.574	1	2
667.913	1	12
668.251	1	4
668.590	1	2
668.929	1	-3
669.268	1	6
669.607	1	-3
669.946	1	2
670.285	1	10
670.623	1	9
670.962	1	5
671.301	1	3
671.640	1	14
671.979	1	1
672.317	1	17
672.656	1	5
672.995	1	9
673.334	1	2
673.673	1	6
674.011	1	7
674.350	1	16
674.689	1	5
675.028	1	4
675.367	1	4
675.705	1	3
676.044	1	3
676.383	1	-4
676.722	1	6
677.060	1	-5
677.399	1	-1
677.738	1	8
678.077	1	9
678.416	1	3
678.754	1	2
679.093	1	17
679.432	1	1
679.771	1	1
680.109	1	18
680.448	1	5
680.787	1	3
681.125	1	4
681.464	1	10
681.803	1	7
682.142	1	11
682.480	1	7
682.819	1	2
683.158	1	5
683.496	1	14
683.835	1	7
684.174	1	-3
684.512	1	13
684.851	1	8
685.190	1	11
685.529	1	-2
685.867	1	6
686.206	1	-4
686.545	1	-4
686.883	1	3
687.222	1	1
687.561	1	11
687.899	1	9
688.238	1	11
688.577	1	-2
688.746	1	7