File: Data/GaN_200K_800ms/GaN_sample F_spot 12_UVVIS_200 K_200um_800 ms 2x2mm1_353.txt
340.368	1	-4
340.710	1	-12
341.052	1	5
341.394	1	-5
341.737	1	3
342.079	1	-3
342.421	1	0
342.763	1	8
343.105	1	-1
343.447	1	2
343.789	1	1
344.131	1	1
344.473	1	-8
344.815	1	-8
345.157	1	-6
345.499	1	-1
345.841	1	-5
346.183	1	-2
346.526	1	-5
346.868	1	11
347.210	1	-17
347.552	1	-2
347.894	1	1
348.236	1	7
348.578	1	3
348.920	1	-2
349.262	1	-3
349.604	1	-3
349.946	1	-11
350.288	1	14
350.630	1	8
350.972	1	-1
351.314	1	-2
351.656	1	6
351.998	1	-1
352.340	1	5
352.682	1	9
353.024	1	-4
353.366	1	14
353.708	1	-2
354.050	1	-7
354.392	1	-8
354.734	1	7
355.076	1	3
355.418	1	-5
355.760	1	-11
356.102	1	9
356.444	1	-2
356.785	1	10
357.127	1	0
357.469	1	2
357.811	1	-2
358.153	1	8
358.495	1	4
358.837	1	-14
359.179	1	3
359.521	1	11
359.863	1	-4
360.205	1	-7
360.547	1	2
360.889	1	0
361.231	1	4
361.572	1	4
361.914	1	5
362.256	1	0
362.598	1	-4
362.940	1	2
363.282	1	6
363.624	1	16
363.966	1	5
364.308	1	2
364.649	1	2
364.991	1	0
365.333	1	5
365.675	1	3
366.017	1	15
366.359	1	9
366.701	1	8
367.042	1	7
367.384	1	16
367.726	1	7
368.068	1	17
368.410	1	21
368.752	1	10
369.093	1	5
369.435	1	18
369.777	1	4
370.119	1	14
370.461	1	21
370.803	1	9
371.144	1	10
371.486	1	17
371.828	1	17
372.170	1	15
372.512	1	7
372.853	1	12
373.195	1	2
373.537	1	14
373.879	1	10
374.220	1	18
374.562	1	5
374.904	1	7
375.246	1	13
375.588	1	7
375.929	1	9
376.271	1	10
376.613	1	1
376.955	1	3
377.296	1	7
377.638	1	8
377.980	1	2
378.321	1	2
378.663	1	2
379.005	1	6
379.347	1	5
379.688	1	9
380.030	1	3
380.372	1	0
380.714	1	14
381.055	1	7
381.397	1	-3
381.739	1	6
382.080	1	3
382.422	1	3
382.764	1	-6
383.105	1	-3
383.447	1	0
383.789	1	1
384.130	1	2
384.472	1	1
384.814	1	-4
385.156	1	-6
385.497	1	-9
385.839	1	-1
386.180	1	-1
386.522	1	-4
386.864	1	-1
387.205	1	1
387.547	1	-9
387.889	1	2
388.230	1	0
388.572	1	-6
388.914	1	1
389.255	1	-8
389.597	1	11
389.939	1	1
390.280	1	0
390.622	1	-4
390.963	1	7
391.305	1	7
391.647	1	-6
391.988	1	8
392.330	1	10
392.671	1	-9
393.013	1	-9
393.355	1	-1
393.696	1	4
394.038	1	3
394.379	1	7
394.721	1	6
395.062	1	6
395.404	1	-10
395.746	1	2
396.087	1	-9
396.429	1	6
396.770	1	-8
397.112	1	15
397.453	1	9
397.795	1	4
398.136	1	-11
398.478	1	3
398.819	1	-1
399.161	1	5
399.503	1	-4
399.844	1	-4
400.186	1	-8
400.527	1	2
400.869	1	-1
401.210	1	4
401.552	1	-9
401.893	1	2
402.235	1	-4
402.576	1	-9
402.918	1	5
403.259	1	9
403.601	1	-2
403.942	1	11
404.284	1	6
404.625	1	7
404.967	1	6
405.308	1	5
405.649	1	-6
405.991	1	-3
406.332	1	3
406.674	1	-6
407.015	1	4
407.357	1	-5
407.698	1	11
408.040	1	-5
408.381	1	8
408.722	1	-13
409.064	1	7
409.405	1	6
409.747	1	-1
410.088	1	3
410.430	1	3
410.771	1	-4
411.112	1	-3
411.454	1	0
411.795	1	-11
412.137	1	7
412.478	1	7
412.819	1	-9
413.161	1	5
413.502	1	0
413.844	1	7
414.185	1	0
414.526	1	1
414.868	1	4
415.209	1	-7
415.550	1	-5
415.892	1	8
416.233	1	9
416.575	1	1
416.916	1	-3
417.257	1	-1
417.599	1	-1
417.940	1	7
418.281	1	4
418.623	1	-1
418.964	1	-7
419.305	1	1
419.647	1	1
419.988	1	5
420.329	1	-8
420.671	1	-3
421.012	1	2
421.353	1	-2
421.695	1	-10
422.036	1	4
422.377	1	-7
422.718	1	11
423.060	1	-5
423.401	1	-7
423.742	1	-4
424.084	1	-1
424.425	1	1
424.766	1	7
425.107	1	-1
425.449	1	1
425.790	1	-18
426.131	1	-6
426.472	1	3
426.814	1	-3
427.155	1	-10
427.496	1	-8
427.837	1	-3
428.179	1	-8
428.520	1	1
428.861	1	-7
429.202	1	2
429.544	1	-5
429.885	1	-3
430.226	1	-10
430.567	1	1
430.909	1	-2
431.250	1	-3
431.591	1	6
431.932	1	-8
432.273	1	0
432.615	1	-13
432.956	1	-10
433.297	1	8
433.638	1	-7
433.979	1	7
434.320	1	3
434.662	1	0
435.003	1	4
435.344	1	-4
435.685	1	1
436.026	1	3
436.368	1	6
436.709	1	4
437.050	1	3
437.391	1	3
437.732	1	-3
438.073	1	7
438.414	1	-6
438.756	1	-13
439.097	1	-8
439.438	1	-2
439.779	1	-9
440.120	1	2
440.461	1	6
440.802	1	-2
441.143	1	7
441.485	1	1
441.826	1	-1
442.167	1	1
442.508	1	0
442.849	1	11
443.190	1	-1
443.531	1	16
443.872	1	13
444.213	1	-3
444.554	1	7
444.895	1	2
445.237	1	-14
445.578	1	-6
445.919	1	-10
446.260	1	-6
446.601	1	-6
446.942	1	0
447.283	1	-3
447.624	1	-2
447.965	1	-6
448.306	1	-4
448.647	1	-11
448.988	1	0
449.329	1	-3
449.670	1	11
450.011	1	-5
450.352	1	3
450.693	1	-11
451.034	1	-13
451.375	1	8
451.716	1	0
452.057	1	3
452.398	1	-5
452.739	1	0
453.080	1	5
453.421	1	5
453.762	1	7
454.103	1	-4
454.444	1	-2
454.785	1	-2
455.126	1	-2
455.467	1	-6
455.808	1	-3
456.149	1	-3
456.490	1	-4
456.831	1	4
457.172	1	-4
457.513	1	3
457.854	1	5
458.195	1	-3
458.536	1	2
458.877	1	0
459.218	1	-5
459.559	1	2
459.899	1	-7
460.240	1	4
460.581	1	9
460.922	1	6
461.263	1	-2
461.604	1	-2
461.945	1	-4
462.286	1	0
462.627	1	6
462.968	1	0
463.309	1	-12
463.649	1	-6
463.990	1	2
464.331	1	-1
464.672	1	-5
465.013	1	-5
465.354	1	6
465.695	1	-8
466.036	1	-5
466.376	1	-3
466.717	1	-1
467.058	1	-1
467.399	1	3
467.740	1	-6
468.081	1	6
468.422	1	-6
468.762	1	-9
469.103	1	-6
469.444	1	-9
469.785	1	-9
470.126	1	-11
470.467	1	-6
470.807	1	3
471.148	1	-3
471.489	1	-3
471.830	1	-8
472.171	1	7
472.511	1	1
472.852	1	-6
473.193	1	0
473.534	1	3
473.875	1	9
474.215	1	2
474.556	1	2
474.897	1	9
475.238	1	2
475.578	1	-12
475.919	1	-8
476.260	1	-6
476.601	1	-4
476.942	1	14
477.282	1	10
477.623	1	-16
477.964	1	-10
478.305	1	-5
478.645	1	14
478.986	1	-7
479.327	1	-5
479.667	1	-1
480.008	1	-6
480.349	1	-2
480.690	1	1
481.030	1	-3
481.371	1	4
481.712	1	-3
482.053	1	-3
482.393	1	-4
482.734	1	1
483.075	1	1
483.415	1	1
483.756	1	2
484.097	1	-5
484.437	1	2
484.778	1	2
485.119	1	-4
485.459	1	14
485.800	1	-11
486.141	1	-1
486.481	1	1
486.822	1	-1
487.163	1	5
487.503	1	-3
487.844	1	-2
488.185	1	0
488.525	1	6
488.866	1	-3
489.207	1	-1
489.547	1	2
489.888	1	-8
490.228	1	5
490.569	1	12
490.910	1	3
491.250	1	-5
491.591	1	-10
491.932	1	-8
492.272	1	1
492.613	1	-8
492.953	1	-8
493.294	1	1
493.635	1	-2
493.975	1	-6
494.316	1	4
494.656	1	1
494.997	1	-10
495.337	1	7
495.678	1	-3
496.019	1	6
496.359	1	5
496.700	1	-11
497.040	1	-8
497.381	1	-6
497.721	1	-4
498.062	1	-9
498.403	1	8
498.743	1	-4
499.084	1	-1
499.424	1	7
499.765	1	-6
500.105	1	-6
500.446	1	-7
500.786	1	-5
501.127	1	3
501.467	1	-11
501.808	1	1
502.148	1	8
502.489	1	1
502.829	1	-5
503.170	1	3
503.510	1	3
503.851	1	-12
504.191	1	9
504.532	1	-3
504.872	1	5
505.213	1	4
505.553	1	-5
505.894	1	-3
506.234	1	-2
506.575	1	3
506.915	1	4
507.256	1	3
507.596	1	0
507.936	1	4
508.277	1	3
508.617	1	3
508.958	1	-16
509.298	1	-4
509.639	1	2
509.979	1	-4
510.319	1	5
510.660	1	0
511.000	1	11
511.341	1	1
511.681	1	1
512.022	1	-6
512.362	1	-4
512.702	1	-7
513.043	1	9
513.383	1	-10
513.724	1	1
514.064	1	6
514.404	1	-6
514.745	1	-3
515.085	1	-2
515.425	1	1
515.766	1	-7
516.106	1	4
516.447	1	10
516.787	1	7
517.127	1	-7
517.468	1	-7
517.808	1	0
518.148	1	0
518.489	1	-2
518.829	1	4
519.169	1	-2
519.510	1	-1
519.850	1	-4
520.190	1	-2
520.531	1	5
520.871	1	1
521.211	1	-13
521.552	1	4
521.892	1	3
522.232	1	5
522.573	1	-10
522.913	1	-1
523.253	1	1
523.593	1	-2
523.934	1	1
524.274	1	6
524.614	1	-4
524.955	1	-11
525.295	1	-2
525.635	1	-2
525.975	1	1
526.316	1	3
526.656	1	4
526.996	1	10
527.337	1	-1
527.677	1	6
528.017	1	-12
528.357	1	1
528.698	1	-2
529.038	1	0
529.378	1	1
529.718	1	7
530.058	1	0
530.399	1	-5
530.739	1	9
531.079	1	9
531.419	1	0
531.760	1	11
532.100	1	-1
532.440	1	-2
532.780	1	-3
533.120	1	12
533.461	1	-3
533.801	1	14
534.141	1	-7
534.481	1	-14
534.821	1	5
535.162	1	1
535.502	1	-4
535.842	1	4
536.182	1	-1
536.522	1	-7
536.862	1	0
537.203	1	-4
537.543	1	-5
537.883	1	-1
538.223	1	0
538.563	1	-4
538.903	1	-7
539.243	1	4
539.584	1	-1
539.924	1	3
540.264	1	-5
540.604	1	0
540.944	1	-5
541.284	1	8
541.624	1	2
541.964	1	2
542.305	1	2
542.645	1	-2
542.985	1	0
543.325	1	0
543.665	1	6
544.005	1	-2
544.345	1	4
544.685	1	0
545.025	1	8
545.365	1	-4
545.705	1	5
546.045	1	-7
546.386	1	9
546.726	1	-7
547.066	1	6
547.406	1	3
547.746	1	-20
548.086	1	7
548.426	1	-2
548.766	1	1
549.106	1	-6
549.446	1	5
549.786	1	-6
550.126	1	4
550.466	1	-3
550.806	1	0
551.146	1	-5
551.486	1	-2
551.826	1	1
552.166	1	-1
552.506	1	-4
552.846	1	1
553.186	1	8
553.526	1	1
553.866	1	5
554.206	1	5
554.546	1	1
554.886	1	1
555.226	1	-15
555.566	1	7
555.906	1	7
556.246	1	3
556.586	1	2
556.926	1	0
557.266	1	-5
557.606	1	4
557.946	1	14
558.286	1	8
558.626	1	6
558.966	1	1
559.306	1	-5
559.646	1	-5
559.986	1	0
560.325	1	2
560.665	1	-6
561.005	1	-9
561.345	1	-3
561.685	1	4
562.025	1	3
562.365	1	12
562.705	1	-1
563.045	1	-14
563.385	1	-10
563.725	1	0
564.064	1	-4
564.404	1	4
564.744	1	-1
565.084	1	-5
565.424	1	3
565.764	1	-7
566.104	1	0
566.444	1	-1
566.783	1	-4
567.123	1	1
567.463	1	7
567.803	1	-7
568.143	1	-5
568.483	1	1
568.823	1	5
569.162	1	11
569.502	1	-8
569.842	1	6
570.182	1	-1
570.522	1	-4
570.862	1	-7
571.201	1	8
571.541	1	11
571.881	1	5
572.221	1	-10
572.561	1	-7
572.900	1	-2
573.240	1	2
573.580	1	7
573.920	1	7
574.260	1	14
574.599	1	1
574.939	1	4
575.279	1	5
575.619	1	6
575.959	1	-4
576.298	1	8
576.638	1	-2
576.978	1	-4
577.318	1	3
577.657	1	-11
577.997	1	-8
578.337	1	12
578.677	1	7
579.016	1	6
579.356	1	-1
579.696	1	6
580.036	1	-2
580.375	1	-3
580.715	1	6
581.055	1	-5
581.394	1	-6
581.734	1	-7
582.074	1	1
582.414	1	8
582.753	1	0
583.093	1	1
583.433	1	-5
583.772	1	8
584.112	1	3
584.452	1	-4
584.791	1	-2
585.131	1	13
585.471	1	14
585.811	1	2
586.150	1	-2
586.490	1	5
586.830	1	-5
587.169	1	4
587.509	1	-5
587.849	1	6
588.188	1	0
588.528	1	5
588.867	1	0
589.207	1	4
589.547	1	-5
589.886	1	-4
590.226	1	6
590.566	1	7
590.905	1	3
591.245	1	0
591.585	1	4
591.924	1	-4
592.264	1	1
592.603	1	0
592.943	1	-4
593.283	1	4
593.622	1	-4
593.962	1	10
594.301	1	3
594.641	1	0
594.981	1	-7
595.320	1	4
595.660	1	-6
595.999	1	5
596.339	1	6
596.678	1	-6
597.018	1	-11
597.358	1	6
597.697	1	-6
598.037	1	-1
598.376	1	8
598.716	1	0
599.055	1	6
599.395	1	-11
599.734	1	6
600.074	1	1
600.413	1	8
600.753	1	2
601.092	1	9
601.432	1	-1
601.771	1	6
602.111	1	1
602.451	1	-2
602.790	1	-2
603.130	1	4
603.469	1	-8
603.809	1	3
604.148	1	-1
604.487	1	-5
604.827	1	7
605.166	1	-3
605.506	1	6
605.845	1	-3
606.185	1	17
606.524	1	-5
606.864	1	-4
607.203	1	-2
607.543	1	2
607.882	1	-5
608.222	1	2
608.561	1	1
608.901	1	-6
609.240	1	-3
609.579	1	-1
609.919	1	7
610.258	1	13
610.598	1	-4
610.937	1	-3
611.277	1	-3
611.616	1	-2
611.955	1	1
612.295	1	-11
612.634	1	-5
612.974	1	-5
613.313	1	7
613.652	1	-1
613.992	1	6
614.331	1	-2
614.671	1	-2
615.010	1	0
615.349	1	11
615.689	1	9
616.028	1	-2
616.368	1	4
616.707	1	-9
617.046	1	0
617.386	1	4
617.725	1	-5
618.064	1	-5
618.404	1	-4
618.743	1	5
619.082	1	4
619.422	1	-10
619.761	1	6
620.100	1	0
620.440	1	0
620.779	1	-1
621.118	1	2
621.458	1	-2
621.797	1	-1
622.136	1	13
622.476	1	-1
622.815	1	9
623.154	1	0
623.494	1	8
623.833	1	-3
624.172	1	2
624.511	1	3
624.851	1	-3
625.190	1	-2
625.529	1	5
625.869	1	6
626.208	1	-12
626.547	1	2
626.886	1	2
627.226	1	8
627.565	1	11
627.904	1	6
628.243	1	3
628.583	1	-4
628.922	1	2
629.261	1	10
629.600	1	13
629.940	1	10
630.279	1	-6
630.618	1	-5
630.957	1	-8
631.297	1	-5
631.636	1	-18
631.975	1	9
632.314	1	0
632.653	1	3
632.993	1	-1
633.332	1	-4
633.671	1	-9
634.010	1	-8
634.349	1	11
634.689	1	-6
635.028	1	0
635.367	1	2
635.706	1	-2
636.045	1	4
636.384	1	-2
636.724	1	-5
637.063	1	1
637.402	1	1
637.741	1	1
638.080	1	6
638.419	1	1
638.759	1	-4
639.098	1	7
639.437	1	3
639.776	1	4
640.115	1	-9
640.454	1	-7
640.793	1	11
641.132	1	3
641.472	1	6
641.811	1	-1
642.150	1	-2
642.489	1	19
642.828	1	-9
643.167	1	0
643.506	1	-8
643.845	1	0
644.184	1	5
644.524	1	-10
644.863	1	0
645.202	1	-2
645.541	1	2
645.880	1	-1
646.219	1	-6
646.558	1	3
646.897	1	5
647.236	1	4
647.575	1	2
647.914	1	-4
648.253	1	12
648.592	1	-3
648.931	1	4
649.270	1	4
649.610	1	3
649.949	1	-3
650.288	1	4
650.627	1	1
650.966	1	3
651.305	1	-4
651.644	1	11
651.983	1	7
652.322	1	-8
652.661	1	0
653.000	1	-6
653.339	1	10
653.678	1	3
654.017	1	-7
654.356	1	-1
654.695	1	-3
655.034	1	-10
655.373	1	8
655.712	1	-2
656.051	1	-1
656.390	1	-1
656.729	1	4
657.068	1	2
657.406	1	-1
657.745	1	3
658.084	1	-3
658.423	1	3
658.762	1	-10
659.101	1	4
659.440	1	3
659.779	1	3
660.118	1	-7
660.457	1	-1
660.796	1	-3
661.135	1	-4
661.474	1	-3
661.813	1	10
662.152	1	3
662.491	1	-3
662.829	1	-2
663.168	1	0
663.507	1	7
663.846	1	-1
664.185	1	3
664.524	1	4
664.863	1	-3
665.202	1	0
665.541	1	-18
665.879	1	-5
666.218	1	-18
666.557	1	1
666.896	1	-4
667.235	1	2
667.574	1	-6
667.913	1	0
668.251	1	-3
668.590	1	-1
668.929	1	-4
669.268	1	-4
669.607	1	-16
669.946	1	-6
670.285	1	8
670.623	1	0
670.962	1	7
671.301	1	3
671.640	1	0
671.979	1	1
672.317	1	5
672.656	1	0
672.995	1	2
673.334	1	-3
673.673	1	7
674.011	1	4
674.350	1	3
674.689	1	-10
675.028	1	-9
675.367	1	-8
675.705	1	0
676.044	1	3
676.383	1	0
676.722	1	3
677.060	1	-7
677.399	1	4
677.738	1	-6
678.077	1	4
678.416	1	-4
678.754	1	-6
679.093	1	1
679.432	1	2
679.771	1	-2
680.109	1	2
680.448	1	0
680.787	1	-1
681.125	1	6
681.464	1	-3
681.803	1	-2
682.142	1	6
682.480	1	11
682.819	1	3
683.158	1	9
683.496	1	3
683.835	1	3
684.174	1	0
684.512	1	5
684.851	1	-1
685.190	1	-6
685.529	1	-5
685.867	1	1
686.206	1	-1
686.545	1	-7
686.883	1	-3
687.222	1	6
687.561	1	7
687.899	1	3
688.238	1	1
688.577	1	1
688.746	1	3