File: Data/GaN_200K_800ms/GaN_sample F_spot 12_UVVIS_200 K_200um_800 ms 2x2mm1_451.txt
340.368	1	3
340.710	1	-7
341.052	1	11
341.394	1	-7
341.737	1	0
342.079	1	-10
342.421	1	-1
342.763	1	-2
343.105	1	-4
343.447	1	2
343.789	1	-3
344.131	1	-12
344.473	1	-8
344.815	1	0
345.157	1	-7
345.499	1	-2
345.841	1	8
346.183	1	-8
346.526	1	-2
346.868	1	5
347.210	1	-10
347.552	1	4
347.894	1	-1
348.236	1	2
348.578	1	-1
348.920	1	-8
349.262	1	-6
349.604	1	-4
349.946	1	-8
350.288	1	7
350.630	1	-4
350.972	1	-1
351.314	1	4
351.656	1	2
351.998	1	5
352.340	1	-3
352.682	1	-3
353.024	1	4
353.366	1	10
353.708	1	1
354.050	1	-7
354.392	1	-5
354.734	1	1
355.076	1	2
355.418	1	-9
355.760	1	-12
356.102	1	14
356.444	1	0
356.785	1	0
357.127	1	6
357.469	1	-6
357.811	1	-6
358.153	1	9
358.495	1	5
358.837	1	-3
359.179	1	-1
359.521	1	10
359.863	1	-2
360.205	1	-1
360.547	1	3
360.889	1	-11
361.231	1	-3
361.572	1	4
361.914	1	5
362.256	1	1
362.598	1	-8
362.940	1	1
363.282	1	0
363.624	1	19
363.966	1	3
364.308	1	-1
364.649	1	2
364.991	1	-1
365.333	1	2
365.675	1	1
366.017	1	6
366.359	1	2
366.701	1	11
367.042	1	-1
367.384	1	10
367.726	1	1
368.068	1	3
368.410	1	19
368.752	1	3
369.093	1	7
369.435	1	12
369.777	1	2
370.119	1	9
370.461	1	16
370.803	1	13
371.144	1	5
371.486	1	13
371.828	1	5
372.170	1	18
372.512	1	-5
372.853	1	8
373.195	1	-2
373.537	1	9
373.879	1	1
374.220	1	14
374.562	1	17
374.904	1	-1
375.246	1	3
375.588	1	1
375.929	1	8
376.271	1	9
376.613	1	-7
376.955	1	5
377.296	1	1
377.638	1	0
377.980	1	8
378.321	1	3
378.663	1	-2
379.005	1	7
379.347	1	0
379.688	1	9
380.030	1	6
380.372	1	-2
380.714	1	-1
381.055	1	17
381.397	1	-3
381.739	1	6
382.080	1	-3
382.422	1	-4
382.764	1	-1
383.105	1	-10
383.447	1	-10
383.789	1	-3
384.130	1	-2
384.472	1	-1
384.814	1	2
385.156	1	-1
385.497	1	-4
385.839	1	2
386.180	1	5
386.522	1	5
386.864	1	4
387.205	1	-1
387.547	1	-4
387.889	1	2
388.230	1	13
388.572	1	-10
388.914	1	4
389.255	1	-5
389.597	1	2
389.939	1	3
390.280	1	-9
390.622	1	5
390.963	1	16
391.305	1	2
391.647	1	3
391.988	1	2
392.330	1	10
392.671	1	-1
393.013	1	-1
393.355	1	-4
393.696	1	-1
394.038	1	0
394.379	1	-3
394.721	1	-12
395.062	1	-1
395.404	1	-2
395.746	1	2
396.087	1	-2
396.429	1	3
396.770	1	-6
397.112	1	13
397.453	1	10
397.795	1	1
398.136	1	-5
398.478	1	7
398.819	1	2
399.161	1	11
399.503	1	8
399.844	1	-12
400.186	1	-6
400.527	1	-4
400.869	1	1
401.210	1	-7
401.552	1	-12
401.893	1	3
402.235	1	-2
402.576	1	1
402.918	1	-1
403.259	1	-5
403.601	1	-5
403.942	1	13
404.284	1	8
404.625	1	8
404.967	1	6
405.308	1	1
405.649	1	3
405.991	1	-7
406.332	1	11
406.674	1	-7
407.015	1	2
407.357	1	-7
407.698	1	10
408.040	1	-7
408.381	1	-1
408.722	1	-14
409.064	1	-8
409.405	1	1
409.747	1	-14
410.088	1	-3
410.430	1	-9
410.771	1	-3
411.112	1	5
411.454	1	-1
411.795	1	-12
412.137	1	3
412.478	1	3
412.819	1	2
413.161	1	-5
413.502	1	-2
413.844	1	-9
414.185	1	3
414.526	1	-3
414.868	1	-3
415.209	1	-9
415.550	1	-10
415.892	1	-7
416.233	1	1
416.575	1	6
416.916	1	-8
417.257	1	3
417.599	1	6
417.940	1	10
418.281	1	-1
418.623	1	-11
418.964	1	-15
419.305	1	-5
419.647	1	0
419.988	1	2
420.329	1	-12
420.671	1	9
421.012	1	5
421.353	1	0
421.695	1	-5
422.036	1	3
422.377	1	-3
422.718	1	4
423.060	1	-6
423.401	1	-1
423.742	1	-1
424.084	1	-5
424.425	1	10
424.766	1	-4
425.107	1	-6
425.449	1	-3
425.790	1	-11
426.131	1	3
426.472	1	3
426.814	1	3
427.155	1	-11
427.496	1	-6
427.837	1	-4
428.179	1	-5
428.520	1	4
428.861	1	-3
429.202	1	-1
429.544	1	0
429.885	1	3
430.226	1	-9
430.567	1	6
430.909	1	0
431.250	1	-1
431.591	1	1
431.932	1	-4
432.273	1	-13
432.615	1	-8
432.956	1	-7
433.297	1	3
433.638	1	-1
433.979	1	-1
434.320	1	-2
434.662	1	-8
435.003	1	5
435.344	1	4
435.685	1	-4
436.026	1	9
436.368	1	2
436.709	1	-8
437.050	1	-3
437.391	1	6
437.732	1	-8
438.073	1	2
438.414	1	-12
438.756	1	-17
439.097	1	-15
439.438	1	-4
439.779	1	-4
440.120	1	-4
440.461	1	6
440.802	1	-3
441.143	1	0
441.485	1	0
441.826	1	-5
442.167	1	-1
442.508	1	-13
442.849	1	12
443.190	1	-3
443.531	1	6
443.872	1	1
444.213	1	-1
444.554	1	7
444.895	1	-3
445.237	1	-2
445.578	1	-14
445.919	1	-6
446.260	1	-13
446.601	1	-4
446.942	1	-3
447.283	1	-1
447.624	1	6
447.965	1	0
448.306	1	-7
448.647	1	-5
448.988	1	0
449.329	1	3
449.670	1	7
450.011	1	3
450.352	1	-8
450.693	1	0
451.034	1	-5
451.375	1	2
451.716	1	-4
452.057	1	1
452.398	1	4
452.739	1	2
453.080	1	-6
453.421	1	-3
453.762	1	0
454.103	1	-5
454.444	1	0
454.785	1	0
455.126	1	-6
455.467	1	0
455.808	1	1
456.149	1	0
456.490	1	-3
456.831	1	8
457.172	1	-9
457.513	1	4
457.854	1	-3
458.195	1	-3
458.536	1	-2
458.877	1	-2
459.218	1	-5
459.559	1	5
459.899	1	-6
460.240	1	4
460.581	1	17
460.922	1	-5
461.263	1	-6
461.604	1	-6
461.945	1	-2
462.286	1	0
462.627	1	8
462.968	1	3
463.309	1	-12
463.649	1	-7
463.990	1	1
464.331	1	-2
464.672	1	-3
465.013	1	-1
465.354	1	-4
465.695	1	-2
466.036	1	-1
466.376	1	-5
466.717	1	-8
467.058	1	-4
467.399	1	-1
467.740	1	3
468.081	1	4
468.422	1	-5
468.762	1	-2
469.103	1	2
469.444	1	3
469.785	1	-7
470.126	1	-10
470.467	1	-7
470.807	1	-8
471.148	1	-3
471.489	1	1
471.830	1	-2
472.171	1	-2
472.511	1	-6
472.852	1	-3
473.193	1	6
473.534	1	-1
473.875	1	12
474.215	1	11
474.556	1	-2
474.897	1	8
475.238	1	7
475.578	1	-2
475.919	1	-1
476.260	1	2
476.601	1	-3
476.942	1	-2
477.282	1	-3
477.623	1	-6
477.964	1	-3
478.305	1	-5
478.645	1	3
478.986	1	-5
479.327	1	-8
479.667	1	-1
480.008	1	-3
480.349	1	-6
480.690	1	5
481.030	1	-10
481.371	1	4
481.712	1	6
482.053	1	4
482.393	1	-4
482.734	1	-10
483.075	1	-2
483.415	1	1
483.756	1	1
484.097	1	-8
484.437	1	-6
484.778	1	1
485.119	1	-5
485.459	1	16
485.800	1	0
486.141	1	-5
486.481	1	3
486.822	1	2
487.163	1	2
487.503	1	-4
487.844	1	7
488.185	1	-7
488.525	1	-1
488.866	1	-8
489.207	1	-5
489.547	1	-15
489.888	1	-8
490.228	1	7
490.569	1	9
490.910	1	-5
491.250	1	-4
491.591	1	-4
491.932	1	0
492.272	1	-5
492.613	1	-2
492.953	1	-7
493.294	1	-5
493.635	1	0
493.975	1	1
494.316	1	2
494.656	1	-11
494.997	1	-3
495.337	1	9
495.678	1	-11
496.019	1	-1
496.359	1	-8
496.700	1	3
497.040	1	0
497.381	1	-5
497.721	1	0
498.062	1	4
498.403	1	7
498.743	1	-4
499.084	1	3
499.424	1	-9
499.765	1	-3
500.105	1	3
500.446	1	-12
500.786	1	-5
501.127	1	-3
501.467	1	-8
501.808	1	-4
502.148	1	4
502.489	1	-6
502.829	1	-8
503.170	1	10
503.510	1	-4
503.851	1	-4
504.191	1	7
504.532	1	-6
504.872	1	-5
505.213	1	9
505.553	1	-9
505.894	1	-5
506.234	1	0
506.575	1	2
506.915	1	1
507.256	1	3
507.596	1	8
507.936	1	3
508.277	1	1
508.617	1	-5
508.958	1	-7
509.298	1	1
509.639	1	-3
509.979	1	-4
510.319	1	1
510.660	1	6
511.000	1	-4
511.341	1	-3
511.681	1	0
512.022	1	-11
512.362	1	-5
512.702	1	-5
513.043	1	10
513.383	1	-16
513.724	1	2
514.064	1	0
514.404	1	-2
514.745	1	0
515.085	1	-8
515.425	1	-6
515.766	1	-12
516.106	1	-4
516.447	1	4
516.787	1	5
517.127	1	-12
517.468	1	0
517.808	1	-3
518.148	1	-4
518.489	1	5
518.829	1	7
519.169	1	-2
519.510	1	1
519.850	1	5
520.190	1	-1
520.531	1	0
520.871	1	3
521.211	1	-13
521.552	1	3
521.892	1	-4
522.232	1	-3
522.573	1	-2
522.913	1	0
523.253	1	6
523.593	1	-6
523.934	1	5
524.274	1	-3
524.614	1	4
524.955	1	-10
525.295	1	0
525.635	1	-8
525.975	1	3
526.316	1	6
526.656	1	-5
526.996	1	10
527.337	1	1
527.677	1	5
528.017	1	-11
528.357	1	3
528.698	1	7
529.038	1	-3
529.378	1	2
529.718	1	0
530.058	1	-4
530.399	1	6
530.739	1	7
531.079	1	4
531.419	1	5
531.760	1	4
532.100	1	-4
532.440	1	-5
532.780	1	-5
533.120	1	4
533.461	1	3
533.801	1	13
534.141	1	-10
534.481	1	-8
534.821	1	-5
535.162	1	-7
535.502	1	-7
535.842	1	-2
536.182	1	-3
536.522	1	0
536.862	1	2
537.203	1	-11
537.543	1	0
537.883	1	-6
538.223	1	5
538.563	1	6
538.903	1	0
539.243	1	-5
539.584	1	-4
539.924	1	6
540.264	1	-10
540.604	1	1
540.944	1	-2
541.284	1	12
541.624	1	11
541.964	1	5
542.305	1	-2
542.645	1	-2
542.985	1	2
543.325	1	-2
543.665	1	0
544.005	1	11
544.345	1	7
544.685	1	-5
545.025	1	-6
545.365	1	-7
545.705	1	-6
546.045	1	-10
546.386	1	7
546.726	1	-9
547.066	1	0
547.406	1	4
547.746	1	-3
548.086	1	-1
548.426	1	-4
548.766	1	2
549.106	1	-4
549.446	1	2
549.786	1	2
550.126	1	4
550.466	1	7
550.806	1	-1
551.146	1	7
551.486	1	-4
551.826	1	-1
552.166	1	4
552.506	1	-3
552.846	1	0
553.186	1	-1
553.526	1	-2
553.866	1	2
554.206	1	3
554.546	1	8
554.886	1	-7
555.226	1	-10
555.566	1	6
555.906	1	11
556.246	1	-2
556.586	1	1
556.926	1	2
557.266	1	-3
557.606	1	-1
557.946	1	5
558.286	1	8
558.626	1	4
558.966	1	5
559.306	1	-2
559.646	1	-6
559.986	1	-5
560.325	1	-5
560.665	1	-1
561.005	1	-3
561.345	1	1
561.685	1	7
562.025	1	-5
562.365	1	-2
562.705	1	-3
563.045	1	-10
563.385	1	-16
563.725	1	-2
564.064	1	-9
564.404	1	0
564.744	1	3
565.084	1	4
565.424	1	2
565.764	1	-1
566.104	1	-7
566.444	1	0
566.783	1	-10
567.123	1	2
567.463	1	8
567.803	1	-7
568.143	1	1
568.483	1	1
568.823	1	4
569.162	1	13
569.502	1	-7
569.842	1	0
570.182	1	2
570.522	1	-11
570.862	1	-7
571.201	1	10
571.541	1	7
571.881	1	13
572.221	1	-3
572.561	1	5
572.900	1	3
573.240	1	-8
573.580	1	3
573.920	1	3
574.260	1	13
574.599	1	-6
574.939	1	-2
575.279	1	8
575.619	1	12
575.959	1	-11
576.298	1	8
576.638	1	-15
576.978	1	9
577.318	1	10
577.657	1	-1
577.997	1	-5
578.337	1	6
578.677	1	6
579.016	1	8
579.356	1	-7
579.696	1	7
580.036	1	-7
580.375	1	-7
580.715	1	-2
581.055	1	-8
581.394	1	1
581.734	1	-11
582.074	1	4
582.414	1	6
582.753	1	2
583.093	1	-5
583.433	1	4
583.772	1	1
584.112	1	0
584.452	1	5
584.791	1	-11
585.131	1	4
585.471	1	-1
585.811	1	5
586.150	1	-2
586.490	1	1
586.830	1	-3
587.169	1	6
587.509	1	-9
587.849	1	-6
588.188	1	5
588.528	1	-3
588.867	1	4
589.207	1	4
589.547	1	-1
589.886	1	-7
590.226	1	2
590.566	1	-5
590.905	1	7
591.245	1	-7
591.585	1	5
591.924	1	3
592.264	1	-2
592.603	1	6
592.943	1	-2
593.283	1	4
593.622	1	-2
593.962	1	1
594.301	1	-4
594.641	1	4
594.981	1	-9
595.320	1	-2
595.660	1	-4
595.999	1	-9
596.339	1	6
596.678	1	-1
597.018	1	-1
597.358	1	0
597.697	1	0
598.037	1	-5
598.376	1	-1
598.716	1	4
599.055	1	0
599.395	1	-9
599.734	1	0
600.074	1	-4
600.413	1	9
600.753	1	-5
601.092	1	7
601.432	1	-6
601.771	1	-4
602.111	1	5
602.451	1	15
602.790	1	-8
603.130	1	2
603.469	1	-10
603.809	1	5
604.148	1	6
604.487	1	-6
604.827	1	-1
605.166	1	8
605.506	1	3
605.845	1	0
606.185	1	1
606.524	1	1
606.864	1	-3
607.203	1	3
607.543	1	0
607.882	1	3
608.222	1	7
608.561	1	-7
608.901	1	2
609.240	1	-7
609.579	1	10
609.919	1	7
610.258	1	0
610.598	1	4
610.937	1	-5
611.277	1	8
611.616	1	-7
611.955	1	10
612.295	1	-7
612.634	1	-4
612.974	1	-8
613.313	1	7
613.652	1	5
613.992	1	-2
614.331	1	-3
614.671	1	6
615.010	1	-2
615.349	1	7
615.689	1	4
616.028	1	0
616.368	1	6
616.707	1	-1
617.046	1	9
617.386	1	4
617.725	1	-8
618.064	1	-14
618.404	1	-2
618.743	1	5
619.082	1	-2
619.422	1	-7
619.761	1	-1
620.100	1	10
620.440	1	-7
620.779	1	-8
621.118	1	2
621.458	1	-4
621.797	1	-2
622.136	1	13
622.476	1	8
622.815	1	5
623.154	1	5
623.494	1	2
623.833	1	4
624.172	1	-2
624.511	1	-2
624.851	1	-9
625.190	1	-5
625.529	1	0
625.869	1	6
626.208	1	5
626.547	1	3
626.886	1	-2
627.226	1	3
627.565	1	-1
627.904	1	6
628.243	1	4
628.583	1	-3
628.922	1	8
629.261	1	0
629.600	1	3
629.940	1	-5
630.279	1	-4
630.618	1	1
630.957	1	-3
631.297	1	-3
631.636	1	-5
631.975	1	6
632.314	1	-7
632.653	1	-8
632.993	1	-10
633.332	1	2
633.671	1	-5
634.010	1	-4
634.349	1	4
634.689	1	2
635.028	1	-1
635.367	1	0
635.706	1	5
636.045	1	15
636.384	1	2
636.724	1	1
637.063	1	3
637.402	1	-4
637.741	1	8
638.080	1	-5
638.419	1	-7
638.759	1	-7
639.098	1	5
639.437	1	5
639.776	1	-4
640.115	1	-5
640.454	1	-9
640.793	1	11
641.132	1	5
641.472	1	2
641.811	1	-3
642.150	1	-9
642.489	1	1
642.828	1	-6
643.167	1	0
643.506	1	-15
643.845	1	-2
644.184	1	2
644.524	1	0
644.863	1	-4
645.202	1	1
645.541	1	-4
645.880	1	-3
646.219	1	-5
646.558	1	-2
646.897	1	11
647.236	1	5
647.575	1	2
647.914	1	-1
648.253	1	4
648.592	1	-8
648.931	1	1
649.270	1	4
649.610	1	0
649.949	1	-3
650.288	1	3
650.627	1	0
650.966	1	0
651.305	1	8
651.644	1	4
651.983	1	0
652.322	1	-6
652.661	1	-5
653.000	1	-3
653.339	1	12
653.678	1	2
654.017	1	-2
654.356	1	1
654.695	1	-3
655.034	1	-3
655.373	1	1
655.712	1	3
656.051	1	0
656.390	1	-3
656.729	1	7
657.068	1	6
657.406	1	12
657.745	1	-3
658.084	1	-5
658.423	1	8
658.762	1	-8
659.101	1	5
659.440	1	-4
659.779	1	9
660.118	1	-6
660.457	1	0
660.796	1	-7
661.135	1	-4
661.474	1	-8
661.813	1	9
662.152	1	7
662.491	1	-8
662.829	1	-5
663.168	1	0
663.507	1	6
663.846	1	-3
664.185	1	-4
664.524	1	3
664.863	1	-6
665.202	1	7
665.541	1	-12
665.879	1	-2
666.218	1	-7
666.557	1	-2
666.896	1	-13
667.235	1	2
667.574	1	-11
667.913	1	-2
668.251	1	-8
668.590	1	-5
668.929	1	-13
669.268	1	-8
669.607	1	-3
669.946	1	-4
670.285	1	3
670.623	1	-6
670.962	1	4
671.301	1	-8
671.640	1	7
671.979	1	-5
672.317	1	2
672.656	1	2
672.995	1	4
673.334	1	-1
673.673	1	0
674.011	1	-3
674.350	1	-2
674.689	1	7
675.028	1	-5
675.367	1	5
675.705	1	5
676.044	1	3
676.383	1	-6
676.722	1	-6
677.060	1	-2
677.399	1	-13
677.738	1	-8
678.077	1	7
678.416	1	2
678.754	1	-11
679.093	1	-5
679.432	1	-2
679.771	1	0
680.109	1	3
680.448	1	3
680.787	1	-7
681.125	1	6
681.464	1	3
681.803	1	-5
682.142	1	9
682.480	1	4
682.819	1	-1
683.158	1	0
683.496	1	8
683.835	1	-3
684.174	1	-9
684.512	1	5
684.851	1	3
685.190	1	-8
685.529	1	-8
685.867	1	-3
686.206	1	-3
686.545	1	0
686.883	1	-7
687.222	1	1
687.561	1	8
687.899	1	-1
688.238	1	6
688.577	1	-2
688.746	1	-6