File: Data/GaN_200K_800ms/GaN_sample F_spot 12_UVVIS_200 K_200um_800 ms 2x2mm1_212.txt
340.368	1	1
340.710	1	-8
341.052	1	10
341.394	1	-11
341.737	1	4
342.079	1	-9
342.421	1	-1
342.763	1	-1
343.105	1	3
343.447	1	-10
343.789	1	6
344.131	1	-5
344.473	1	3
344.815	1	-1
345.157	1	-5
345.499	1	-1
345.841	1	8
346.183	1	-4
346.526	1	-5
346.868	1	6
347.210	1	-11
347.552	1	-2
347.894	1	-1
348.236	1	3
348.578	1	-4
348.920	1	-1
349.262	1	0
349.604	1	-5
349.946	1	-6
350.288	1	5
350.630	1	2
350.972	1	-2
351.314	1	0
351.656	1	3
351.998	1	-1
352.340	1	9
352.682	1	6
353.024	1	8
353.366	1	10
353.708	1	3
354.050	1	-2
354.392	1	-8
354.734	1	6
355.076	1	10
355.418	1	-5
355.760	1	-13
356.102	1	12
356.444	1	-6
356.785	1	17
357.127	1	5
357.469	1	11
357.811	1	5
358.153	1	9
358.495	1	9
358.837	1	-1
359.179	1	2
359.521	1	14
359.863	1	9
360.205	1	-4
360.547	1	12
360.889	1	3
361.231	1	5
361.572	1	12
361.914	1	9
362.256	1	10
362.598	1	7
362.940	1	12
363.282	1	19
363.624	1	14
363.966	1	0
364.308	1	11
364.649	1	17
364.991	1	15
365.333	1	11
365.675	1	7
366.017	1	8
366.359	1	26
366.701	1	28
367.042	1	30
367.384	1	20
367.726	1	28
368.068	1	23
368.410	1	37
368.752	1	23
369.093	1	32
369.435	1	39
369.777	1	21
370.119	1	22
370.461	1	38
370.803	1	36
371.144	1	14
371.486	1	37
371.828	1	30
372.170	1	27
372.512	1	20
372.853	1	17
373.195	1	22
373.537	1	28
373.879	1	9
374.220	1	31
374.562	1	30
374.904	1	22
375.246	1	22
375.588	1	20
375.929	1	17
376.271	1	19
376.613	1	5
376.955	1	13
377.296	1	11
377.638	1	11
377.980	1	10
378.321	1	0
378.663	1	0
379.005	1	21
379.347	1	8
379.688	1	10
380.030	1	2
380.372	1	10
380.714	1	12
381.055	1	16
381.397	1	10
381.739	1	11
382.080	1	17
382.422	1	14
382.764	1	8
383.105	1	-5
383.447	1	-2
383.789	1	-3
384.130	1	6
384.472	1	4
384.814	1	13
385.156	1	-2
385.497	1	4
385.839	1	8
386.180	1	4
386.522	1	9
386.864	1	2
387.205	1	3
387.547	1	3
387.889	1	-2
388.230	1	22
388.572	1	5
388.914	1	5
389.255	1	5
389.597	1	0
389.939	1	2
390.280	1	2
390.622	1	0
390.963	1	5
391.305	1	11
391.647	1	-5
391.988	1	5
392.330	1	11
392.671	1	-2
393.013	1	0
393.355	1	10
393.696	1	4
394.038	1	7
394.379	1	4
394.721	1	-3
395.062	1	5
395.404	1	0
395.746	1	16
396.087	1	3
396.429	1	-2
396.770	1	-1
397.112	1	1
397.453	1	14
397.795	1	5
398.136	1	-7
398.478	1	3
398.819	1	5
399.161	1	9
399.503	1	5
399.844	1	1
400.186	1	9
400.527	1	-6
400.869	1	-4
401.210	1	8
401.552	1	-10
401.893	1	7
402.235	1	3
402.576	1	8
402.918	1	0
403.259	1	8
403.601	1	-1
403.942	1	11
404.284	1	3
404.625	1	2
404.967	1	-2
405.308	1	-2
405.649	1	-3
405.991	1	2
406.332	1	0
406.674	1	10
407.015	1	5
407.357	1	3
407.698	1	10
408.040	1	1
408.381	1	10
408.722	1	-13
409.064	1	4
409.405	1	7
409.747	1	1
410.088	1	0
410.430	1	12
410.771	1	0
411.112	1	7
411.454	1	-3
411.795	1	-7
412.137	1	1
412.478	1	12
412.819	1	-4
413.161	1	3
413.502	1	-10
413.844	1	-3
414.185	1	6
414.526	1	-2
414.868	1	4
415.209	1	3
415.550	1	-6
415.892	1	-4
416.233	1	7
416.575	1	0
416.916	1	-4
417.257	1	-5
417.599	1	5
417.940	1	15
418.281	1	6
418.623	1	-7
418.964	1	-16
419.305	1	5
419.647	1	-3
419.988	1	8
420.329	1	-10
420.671	1	9
421.012	1	2
421.353	1	-1
421.695	1	-3
422.036	1	0
422.377	1	-3
422.718	1	11
423.060	1	-4
423.401	1	-1
423.742	1	-2
424.084	1	-8
424.425	1	6
424.766	1	-6
425.107	1	4
425.449	1	2
425.790	1	-10
426.131	1	-4
426.472	1	-3
426.814	1	-2
427.155	1	-8
427.496	1	5
427.837	1	2
428.179	1	-7
428.520	1	2
428.861	1	-4
429.202	1	0
429.544	1	5
429.885	1	0
430.226	1	-4
430.567	1	-1
430.909	1	-7
431.250	1	5
431.591	1	2
431.932	1	-9
432.273	1	5
432.615	1	-11
432.956	1	-7
433.297	1	-6
433.638	1	-1
433.979	1	2
434.320	1	9
434.662	1	-2
435.003	1	7
435.344	1	10
435.685	1	0
436.026	1	1
436.368	1	1
436.709	1	4
437.050	1	2
437.391	1	9
437.732	1	-6
438.073	1	-15
438.414	1	-10
438.756	1	-12
439.097	1	-1
439.438	1	-7
439.779	1	-1
440.120	1	-3
440.461	1	1
440.802	1	-7
441.143	1	4
441.485	1	-1
441.826	1	-4
442.167	1	-7
442.508	1	-14
442.849	1	9
443.190	1	0
443.531	1	10
443.872	1	8
444.213	1	-4
444.554	1	4
444.895	1	-1
445.237	1	-6
445.578	1	-10
445.919	1	-8
446.260	1	-9
446.601	1	-11
446.942	1	-3
447.283	1	-3
447.624	1	-1
447.965	1	-2
448.306	1	-2
448.647	1	2
448.988	1	-6
449.329	1	-2
449.670	1	5
450.011	1	8
450.352	1	2
450.693	1	-7
451.034	1	1
451.375	1	-1
451.716	1	-2
452.057	1	3
452.398	1	1
452.739	1	-2
453.080	1	1
453.421	1	-3
453.762	1	4
454.103	1	-2
454.444	1	-8
454.785	1	3
455.126	1	-13
455.467	1	5
455.808	1	2
456.149	1	6
456.490	1	-1
456.831	1	0
457.172	1	1
457.513	1	-5
457.854	1	4
458.195	1	-1
458.536	1	4
458.877	1	4
459.218	1	2
459.559	1	2
459.899	1	-3
460.240	1	1
460.581	1	15
460.922	1	4
461.263	1	-1
461.604	1	1
461.945	1	-3
462.286	1	5
462.627	1	13
462.968	1	5
463.309	1	-5
463.649	1	-3
463.990	1	2
464.331	1	-9
464.672	1	-8
465.013	1	-2
465.354	1	8
465.695	1	-2
466.036	1	-3
466.376	1	-7
466.717	1	5
467.058	1	-4
467.399	1	9
467.740	1	0
468.081	1	-2
468.422	1	-4
468.762	1	-3
469.103	1	-5
469.444	1	-4
469.785	1	-10
470.126	1	-12
470.467	1	-4
470.807	1	3
471.148	1	2
471.489	1	4
471.830	1	-1
472.171	1	6
472.511	1	-7
472.852	1	2
473.193	1	5
473.534	1	5
473.875	1	4
474.215	1	10
474.556	1	8
474.897	1	4
475.238	1	-2
475.578	1	-13
475.919	1	1
476.260	1	-7
476.601	1	0
476.942	1	1
477.282	1	0
477.623	1	-4
477.964	1	-2
478.305	1	5
478.645	1	9
478.986	1	-5
479.327	1	-10
479.667	1	7
480.008	1	2
480.349	1	3
480.690	1	-6
481.030	1	-15
481.371	1	2
481.712	1	13
482.053	1	3
482.393	1	-2
482.734	1	-6
483.075	1	1
483.415	1	1
483.756	1	10
484.097	1	2
484.437	1	-7
484.778	1	-1
485.119	1	0
485.459	1	16
485.800	1	-1
486.141	1	-4
486.481	1	0
486.822	1	3
487.163	1	1
487.503	1	4
487.844	1	-5
488.185	1	2
488.525	1	2
488.866	1	2
489.207	1	-8
489.547	1	-3
489.888	1	5
490.228	1	-5
490.569	1	16
490.910	1	1
491.250	1	-6
491.591	1	-6
491.932	1	-1
492.272	1	3
492.613	1	-1
492.953	1	0
493.294	1	-1
493.635	1	-2
493.975	1	0
494.316	1	6
494.656	1	-3
494.997	1	-6
495.337	1	12
495.678	1	0
496.019	1	-3
496.359	1	-3
496.700	1	-5
497.040	1	-4
497.381	1	-1
497.721	1	-7
498.062	1	7
498.403	1	0
498.743	1	-1
499.084	1	-2
499.424	1	3
499.765	1	2
500.105	1	5
500.446	1	-14
500.786	1	-9
501.127	1	4
501.467	1	-2
501.808	1	-3
502.148	1	-3
502.489	1	4
502.829	1	4
503.170	1	7
503.510	1	13
503.851	1	-4
504.191	1	9
504.532	1	6
504.872	1	-3
505.213	1	7
505.553	1	-10
505.894	1	-9
506.234	1	8
506.575	1	5
506.915	1	10
507.256	1	10
507.596	1	-2
507.936	1	3
508.277	1	-3
508.617	1	-3
508.958	1	3
509.298	1	2
509.639	1	-1
509.979	1	6
510.319	1	6
510.660	1	0
511.000	1	1
511.341	1	1
511.681	1	2
512.022	1	-5
512.362	1	-2
512.702	1	-4
513.043	1	11
513.383	1	-6
513.724	1	11
514.064	1	11
514.404	1	1
514.745	1	-7
515.085	1	6
515.425	1	-9
515.766	1	-7
516.106	1	-3
516.447	1	9
516.787	1	1
517.127	1	0
517.468	1	3
517.808	1	0
518.148	1	3
518.489	1	0
518.829	1	6
519.169	1	-2
519.510	1	6
519.850	1	8
520.190	1	4
520.531	1	0
520.871	1	13
521.211	1	-5
521.552	1	9
521.892	1	2
522.232	1	1
522.573	1	9
522.913	1	3
523.253	1	7
523.593	1	-3
523.934	1	1
524.274	1	7
524.614	1	1
524.955	1	-1
525.295	1	5
525.635	1	6
525.975	1	5
526.316	1	14
526.656	1	-2
526.996	1	5
527.337	1	-3
527.677	1	5
528.017	1	-7
528.357	1	1
528.698	1	2
529.038	1	3
529.378	1	8
529.718	1	-6
530.058	1	3
530.399	1	11
530.739	1	-1
531.079	1	2
531.419	1	5
531.760	1	11
532.100	1	-5
532.440	1	2
532.780	1	-7
533.120	1	16
533.461	1	2
533.801	1	21
534.141	1	-4
534.481	1	-1
534.821	1	7
535.162	1	0
535.502	1	1
535.842	1	16
536.182	1	5
536.522	1	-3
536.862	1	6
537.203	1	-3
537.543	1	2
537.883	1	1
538.223	1	2
538.563	1	4
538.903	1	3
539.243	1	8
539.584	1	-1
539.924	1	9
540.264	1	-4
540.604	1	3
540.944	1	-1
541.284	1	8
541.624	1	14
541.964	1	6
542.305	1	13
542.645	1	11
542.985	1	6
543.325	1	11
543.665	1	13
544.005	1	10
544.345	1	18
544.685	1	0
545.025	1	5
545.365	1	2
545.705	1	6
546.045	1	-1
546.386	1	14
546.726	1	-7
547.066	1	2
547.406	1	5
547.746	1	-2
548.086	1	7
548.426	1	6
548.766	1	3
549.106	1	7
549.446	1	6
549.786	1	-6
550.126	1	13
550.466	1	17
550.806	1	-5
551.146	1	6
551.486	1	16
551.826	1	1
552.166	1	4
552.506	1	12
552.846	1	5
553.186	1	16
553.526	1	3
553.866	1	7
554.206	1	7
554.546	1	2
554.886	1	8
555.226	1	1
555.566	1	13
555.906	1	8
556.246	1	14
556.586	1	7
556.926	1	3
557.266	1	0
557.606	1	10
557.946	1	15
558.286	1	4
558.626	1	10
558.966	1	-12
559.306	1	-1
559.646	1	-3
559.986	1	12
560.325	1	-7
560.665	1	8
561.005	1	-5
561.345	1	3
561.685	1	8
562.025	1	-7
562.365	1	4
562.705	1	-1
563.045	1	4
563.385	1	-2
563.725	1	1
564.064	1	3
564.404	1	14
564.744	1	12
565.084	1	-2
565.424	1	9
565.764	1	-2
566.104	1	8
566.444	1	-1
566.783	1	0
567.123	1	7
567.463	1	10
567.803	1	-8
568.143	1	4
568.483	1	13
568.823	1	0
569.162	1	0
569.502	1	3
569.842	1	6
570.182	1	5
570.522	1	7
570.862	1	0
571.201	1	12
571.541	1	4
571.881	1	14
572.221	1	2
572.561	1	14
572.900	1	1
573.240	1	9
573.580	1	5
573.920	1	-6
574.260	1	13
574.599	1	12
574.939	1	4
575.279	1	19
575.619	1	13
575.959	1	-3
576.298	1	16
576.638	1	-7
576.978	1	2
577.318	1	12
577.657	1	-2
577.997	1	-9
578.337	1	16
578.677	1	10
579.016	1	9
579.356	1	6
579.696	1	15
580.036	1	3
580.375	1	6
580.715	1	2
581.055	1	11
581.394	1	1
581.734	1	-3
582.074	1	1
582.414	1	6
582.753	1	-4
583.093	1	5
583.433	1	4
583.772	1	6
584.112	1	-2
584.452	1	8
584.791	1	2
585.131	1	16
585.471	1	15
585.811	1	9
586.150	1	7
586.490	1	5
586.830	1	-2
587.169	1	9
587.509	1	-1
587.849	1	3
588.188	1	14
588.528	1	7
588.867	1	8
589.207	1	6
589.547	1	13
589.886	1	-3
590.226	1	7
590.566	1	10
590.905	1	-3
591.245	1	2
591.585	1	10
591.924	1	5
592.264	1	7
592.603	1	4
592.943	1	9
593.283	1	-1
593.622	1	4
593.962	1	13
594.301	1	12
594.641	1	-4
594.981	1	6
595.320	1	11
595.660	1	6
595.999	1	-7
596.339	1	11
596.678	1	-1
597.018	1	0
597.358	1	1
597.697	1	8
598.037	1	0
598.376	1	2
598.716	1	13
599.055	1	11
599.395	1	-2
599.734	1	-1
600.074	1	1
600.413	1	6
600.753	1	18
601.092	1	14
601.432	1	-5
601.771	1	5
602.111	1	2
602.451	1	10
602.790	1	8
603.130	1	2
603.469	1	-4
603.809	1	1
604.148	1	7
604.487	1	0
604.827	1	6
605.166	1	6
605.506	1	4
605.845	1	2
606.185	1	5
606.524	1	-6
606.864	1	7
607.203	1	-5
607.543	1	7
607.882	1	7
608.222	1	9
608.561	1	7
608.901	1	3
609.240	1	1
609.579	1	6
609.919	1	14
610.258	1	4
610.598	1	9
610.937	1	6
611.277	1	0
611.616	1	4
611.955	1	4
612.295	1	-5
612.634	1	5
612.974	1	-8
613.313	1	7
613.652	1	-2
613.992	1	2
614.331	1	2
614.671	1	7
615.010	1	4
615.349	1	9
615.689	1	15
616.028	1	0
616.368	1	4
616.707	1	6
617.046	1	0
617.386	1	7
617.725	1	-3
618.064	1	-4
618.404	1	2
618.743	1	9
619.082	1	6
619.422	1	-6
619.761	1	11
620.100	1	7
620.440	1	1
620.779	1	-2
621.118	1	1
621.458	1	2
621.797	1	-2
622.136	1	17
622.476	1	-2
622.815	1	7
623.154	1	14
623.494	1	13
623.833	1	7
624.172	1	-3
624.511	1	0
624.851	1	-3
625.190	1	6
625.529	1	2
625.869	1	15
626.208	1	0
626.547	1	5
626.886	1	6
627.226	1	6
627.565	1	6
627.904	1	-11
628.243	1	9
628.583	1	-4
628.922	1	6
629.261	1	0
629.600	1	13
629.940	1	3
630.279	1	-2
630.618	1	1
630.957	1	3
631.297	1	3
631.636	1	-6
631.975	1	11
632.314	1	-7
632.653	1	7
632.993	1	0
633.332	1	5
633.671	1	-7
634.010	1	-6
634.349	1	6
634.689	1	6
635.028	1	2
635.367	1	5
635.706	1	-4
636.045	1	7
636.384	1	6
636.724	1	4
637.063	1	-4
637.402	1	3
637.741	1	7
638.080	1	3
638.419	1	14
638.759	1	-5
639.098	1	8
639.437	1	3
639.776	1	-1
640.115	1	1
640.454	1	-3
640.793	1	15
641.132	1	7
641.472	1	8
641.811	1	2
642.150	1	-8
642.489	1	9
642.828	1	-7
643.167	1	-5
643.506	1	-6
643.845	1	2
644.184	1	10
644.524	1	-1
644.863	1	-8
645.202	1	-2
645.541	1	9
645.880	1	6
646.219	1	3
646.558	1	-2
646.897	1	4
647.236	1	-1
647.575	1	7
647.914	1	-6
648.253	1	13
648.592	1	2
648.931	1	9
649.270	1	-1
649.610	1	-3
649.949	1	0
650.288	1	11
650.627	1	-1
650.966	1	0
651.305	1	0
651.644	1	11
651.983	1	1
652.322	1	-3
652.661	1	-3
653.000	1	7
653.339	1	10
653.678	1	-7
654.017	1	-2
654.356	1	-11
654.695	1	1
655.034	1	1
655.373	1	8
655.712	1	2
656.051	1	2
656.390	1	0
656.729	1	11
657.068	1	4
657.406	1	13
657.745	1	-3
658.084	1	9
658.423	1	14
658.762	1	-3
659.101	1	5
659.440	1	3
659.779	1	3
660.118	1	5
660.457	1	-7
660.796	1	-7
661.135	1	-1
661.474	1	2
661.813	1	3
662.152	1	9
662.491	1	-7
662.829	1	2
663.168	1	2
663.507	1	2
663.846	1	-9
664.185	1	1
664.524	1	3
664.863	1	7
665.202	1	3
665.541	1	-9
665.879	1	1
666.218	1	-1
666.557	1	-1
666.896	1	-3
667.235	1	6
667.574	1	-6
667.913	1	1
668.251	1	-1
668.590	1	2
668.929	1	-12
669.268	1	5
669.607	1	-6
669.946	1	-1
670.285	1	7
670.623	1	-4
670.962	1	9
671.301	1	-12
671.640	1	3
671.979	1	-5
672.317	1	13
672.656	1	5
672.995	1	7
673.334	1	5
673.673	1	5
674.011	1	1
674.350	1	2
674.689	1	2
675.028	1	-2
675.367	1	4
675.705	1	5
676.044	1	0
676.383	1	13
676.722	1	1
677.060	1	-7
677.399	1	-8
677.738	1	9
678.077	1	9
678.416	1	-3
678.754	1	6
679.093	1	6
679.432	1	-6
679.771	1	4
680.109	1	6
680.448	1	-3
680.787	1	-7
681.125	1	8
681.464	1	-6
681.803	1	4
682.142	1	14
682.480	1	15
682.819	1	0
683.158	1	-1
683.496	1	4
683.835	1	3
684.174	1	-3
684.512	1	4
684.851	1	10
685.190	1	-6
685.529	1	5
685.867	1	0
686.206	1	-5
686.545	1	0
686.883	1	2
687.222	1	9
687.561	1	10
687.899	1	-5
688.238	1	2
688.577	1	5
688.746	1	1