File: Data/GaN_200K_800ms/GaN_sample F_spot 12_UVVIS_200 K_200um_800 ms 2x2mm1_294.txt
340.368	1	-2
340.710	1	-5
341.052	1	6
341.394	1	-8
341.737	1	7
342.079	1	-6
342.421	1	-1
342.763	1	5
343.105	1	3
343.447	1	-4
343.789	1	-2
344.131	1	3
344.473	1	3
344.815	1	-6
345.157	1	-7
345.499	1	-4
345.841	1	3
346.183	1	1
346.526	1	-5
346.868	1	1
347.210	1	-11
347.552	1	-10
347.894	1	0
348.236	1	7
348.578	1	-2
348.920	1	-2
349.262	1	4
349.604	1	5
349.946	1	-3
350.288	1	14
350.630	1	2
350.972	1	1
351.314	1	7
351.656	1	2
351.998	1	-1
352.340	1	2
352.682	1	3
353.024	1	8
353.366	1	12
353.708	1	-6
354.050	1	-4
354.392	1	-2
354.734	1	1
355.076	1	0
355.418	1	-4
355.760	1	-6
356.102	1	14
356.444	1	3
356.785	1	12
357.127	1	5
357.469	1	2
357.811	1	2
358.153	1	11
358.495	1	7
358.837	1	-1
359.179	1	-1
359.521	1	2
359.863	1	-1
360.205	1	-6
360.547	1	9
360.889	1	-6
361.231	1	3
361.572	1	4
361.914	1	10
362.256	1	5
362.598	1	-6
362.940	1	6
363.282	1	-4
363.624	1	10
363.966	1	4
364.308	1	1
364.649	1	15
364.991	1	6
365.333	1	0
365.675	1	5
366.017	1	14
366.359	1	12
366.701	1	9
367.042	1	16
367.384	1	28
367.726	1	21
368.068	1	15
368.410	1	21
368.752	1	4
369.093	1	12
369.435	1	24
369.777	1	13
370.119	1	13
370.461	1	21
370.803	1	14
371.144	1	7
371.486	1	23
371.828	1	19
372.170	1	17
372.512	1	9
372.853	1	18
373.195	1	9
373.537	1	15
373.879	1	6
374.220	1	29
374.562	1	18
374.904	1	12
375.246	1	10
375.588	1	9
375.929	1	16
376.271	1	18
376.613	1	2
376.955	1	2
377.296	1	-1
377.638	1	3
377.980	1	13
378.321	1	-3
378.663	1	-4
379.005	1	15
379.347	1	8
379.688	1	4
380.030	1	2
380.372	1	5
380.714	1	5
381.055	1	7
381.397	1	-1
381.739	1	8
382.080	1	7
382.422	1	-1
382.764	1	-1
383.105	1	-2
383.447	1	1
383.789	1	-7
384.130	1	-4
384.472	1	-5
384.814	1	-2
385.156	1	-2
385.497	1	6
385.839	1	1
386.180	1	6
386.522	1	7
386.864	1	11
387.205	1	-1
387.547	1	-8
387.889	1	1
388.230	1	5
388.572	1	-4
388.914	1	8
389.255	1	-6
389.597	1	9
389.939	1	5
390.280	1	4
390.622	1	8
390.963	1	8
391.305	1	-2
391.647	1	1
391.988	1	8
392.330	1	11
392.671	1	6
393.013	1	-7
393.355	1	-2
393.696	1	4
394.038	1	6
394.379	1	5
394.721	1	-2
395.062	1	0
395.404	1	-10
395.746	1	7
396.087	1	-4
396.429	1	3
396.770	1	-2
397.112	1	8
397.453	1	13
397.795	1	9
398.136	1	-2
398.478	1	1
398.819	1	-3
399.161	1	12
399.503	1	-1
399.844	1	-2
400.186	1	-1
400.527	1	-1
400.869	1	1
401.210	1	3
401.552	1	-15
401.893	1	0
402.235	1	-4
402.576	1	0
402.918	1	4
403.259	1	7
403.601	1	-9
403.942	1	9
404.284	1	10
404.625	1	3
404.967	1	-1
405.308	1	0
405.649	1	1
405.991	1	-8
406.332	1	-2
406.674	1	-7
407.015	1	6
407.357	1	-4
407.698	1	10
408.040	1	-5
408.381	1	4
408.722	1	-16
409.064	1	2
409.405	1	6
409.747	1	4
410.088	1	1
410.430	1	8
410.771	1	2
411.112	1	-10
411.454	1	-10
411.795	1	-5
412.137	1	2
412.478	1	3
412.819	1	-8
413.161	1	-9
413.502	1	-3
413.844	1	-2
414.185	1	7
414.526	1	1
414.868	1	0
415.209	1	-7
415.550	1	-7
415.892	1	0
416.233	1	4
416.575	1	16
416.916	1	-3
417.257	1	-1
417.599	1	6
417.940	1	4
418.281	1	1
418.623	1	-8
418.964	1	-11
419.305	1	-6
419.647	1	-2
419.988	1	-1
420.329	1	-9
420.671	1	-1
421.012	1	-5
421.353	1	-3
421.695	1	1
422.036	1	-2
422.377	1	-1
422.718	1	7
423.060	1	-6
423.401	1	-9
423.742	1	6
424.084	1	1
424.425	1	9
424.766	1	-5
425.107	1	1
425.449	1	-3
425.790	1	-4
426.131	1	7
426.472	1	3
426.814	1	2
427.155	1	-9
427.496	1	-1
427.837	1	-2
428.179	1	-6
428.520	1	-7
428.861	1	-5
429.202	1	-1
429.544	1	-2
429.885	1	-1
430.226	1	-8
430.567	1	-1
430.909	1	1
431.250	1	-6
431.591	1	8
431.932	1	-5
432.273	1	-6
432.615	1	-5
432.956	1	-15
433.297	1	-3
433.638	1	-4
433.979	1	-5
434.320	1	-2
434.662	1	-2
435.003	1	-3
435.344	1	6
435.685	1	-2
436.026	1	8
436.368	1	5
436.709	1	3
437.050	1	1
437.391	1	20
437.732	1	-6
438.073	1	-5
438.414	1	-13
438.756	1	-5
439.097	1	-10
439.438	1	4
439.779	1	-2
440.120	1	-2
440.461	1	9
440.802	1	-1
441.143	1	-2
441.485	1	1
441.826	1	-7
442.167	1	3
442.508	1	-8
442.849	1	7
443.190	1	-1
443.531	1	2
443.872	1	5
444.213	1	-6
444.554	1	9
444.895	1	-8
445.237	1	-3
445.578	1	-6
445.919	1	-7
446.260	1	-10
446.601	1	-2
446.942	1	-3
447.283	1	-5
447.624	1	0
447.965	1	-9
448.306	1	4
448.647	1	-8
448.988	1	-1
449.329	1	4
449.670	1	12
450.011	1	0
450.352	1	3
450.693	1	-10
451.034	1	-6
451.375	1	-2
451.716	1	-4
452.057	1	3
452.398	1	-5
452.739	1	4
453.080	1	-4
453.421	1	2
453.762	1	-1
454.103	1	-6
454.444	1	-9
454.785	1	-2
455.126	1	-7
455.467	1	-5
455.808	1	-4
456.149	1	0
456.490	1	-2
456.831	1	-4
457.172	1	-6
457.513	1	8
457.854	1	-3
458.195	1	5
458.536	1	2
458.877	1	-3
459.218	1	3
459.559	1	8
459.899	1	-2
460.240	1	-2
460.581	1	12
460.922	1	8
461.263	1	-9
461.604	1	-2
461.945	1	3
462.286	1	2
462.627	1	4
462.968	1	7
463.309	1	-7
463.649	1	3
463.990	1	-3
464.331	1	-2
464.672	1	0
465.013	1	-4
465.354	1	3
465.695	1	-3
466.036	1	-14
466.376	1	-5
466.717	1	3
467.058	1	3
467.399	1	5
467.740	1	-3
468.081	1	0
468.422	1	-10
468.762	1	-6
469.103	1	-8
469.444	1	-10
469.785	1	-13
470.126	1	-5
470.467	1	-5
470.807	1	0
471.148	1	3
471.489	1	-7
471.830	1	-6
472.171	1	5
472.511	1	1
472.852	1	-11
473.193	1	5
473.534	1	13
473.875	1	11
474.215	1	9
474.556	1	4
474.897	1	1
475.238	1	-5
475.578	1	8
475.919	1	-8
476.260	1	-1
476.601	1	0
476.942	1	13
477.282	1	-5
477.623	1	-10
477.964	1	-3
478.305	1	-4
478.645	1	-1
478.986	1	6
479.327	1	-13
479.667	1	6
480.008	1	-7
480.349	1	-7
480.690	1	3
481.030	1	-4
481.371	1	3
481.712	1	6
482.053	1	-1
482.393	1	4
482.734	1	-6
483.075	1	-2
483.415	1	-1
483.756	1	4
484.097	1	1
484.437	1	-4
484.778	1	1
485.119	1	-5
485.459	1	16
485.800	1	-8
486.141	1	3
486.481	1	1
486.822	1	3
487.163	1	3
487.503	1	-5
487.844	1	1
488.185	1	-2
488.525	1	-3
488.866	1	0
489.207	1	-3
489.547	1	0
489.888	1	-11
490.228	1	1
490.569	1	10
490.910	1	-8
491.250	1	4
491.591	1	-7
491.932	1	-3
492.272	1	-1
492.613	1	-9
492.953	1	-12
493.294	1	-8
493.635	1	-2
493.975	1	0
494.316	1	-3
494.656	1	1
494.997	1	-1
495.337	1	6
495.678	1	11
496.019	1	-1
496.359	1	-10
496.700	1	-5
497.040	1	0
497.381	1	1
497.721	1	-2
498.062	1	2
498.403	1	-3
498.743	1	-11
499.084	1	-15
499.424	1	-9
499.765	1	0
500.105	1	2
500.446	1	-13
500.786	1	-2
501.127	1	5
501.467	1	-5
501.808	1	8
502.148	1	1
502.489	1	3
502.829	1	-7
503.170	1	10
503.510	1	1
503.851	1	-5
504.191	1	1
504.532	1	0
504.872	1	8
505.213	1	3
505.553	1	-6
505.894	1	-5
506.234	1	3
506.575	1	0
506.915	1	4
507.256	1	0
507.596	1	-4
507.936	1	8
508.277	1	-1
508.617	1	5
508.958	1	-11
509.298	1	5
509.639	1	2
509.979	1	6
510.319	1	9
510.660	1	-7
511.000	1	3
511.341	1	-2
511.681	1	12
512.022	1	-9
512.362	1	-7
512.702	1	-5
513.043	1	10
513.383	1	-18
513.724	1	9
514.064	1	6
514.404	1	-9
514.745	1	-5
515.085	1	-1
515.425	1	0
515.766	1	-7
516.106	1	-5
516.447	1	0
516.787	1	4
517.127	1	1
517.468	1	-4
517.808	1	-2
518.148	1	10
518.489	1	1
518.829	1	1
519.169	1	2
519.510	1	2
519.850	1	9
520.190	1	-2
520.531	1	0
520.871	1	2
521.211	1	-7
521.552	1	9
521.892	1	3
522.232	1	0
522.573	1	-1
522.913	1	-3
523.253	1	-2
523.593	1	4
523.934	1	4
524.274	1	-4
524.614	1	-5
524.955	1	-2
525.295	1	3
525.635	1	-3
525.975	1	2
526.316	1	7
526.656	1	-3
526.996	1	0
527.337	1	-3
527.677	1	4
528.017	1	-9
528.357	1	5
528.698	1	1
529.038	1	8
529.378	1	4
529.718	1	5
530.058	1	12
530.399	1	4
530.739	1	-1
531.079	1	9
531.419	1	0
531.760	1	-4
532.100	1	2
532.440	1	4
532.780	1	3
533.120	1	9
533.461	1	-1
533.801	1	12
534.141	1	-6
534.481	1	-8
534.821	1	16
535.162	1	4
535.502	1	-11
535.842	1	0
536.182	1	2
536.522	1	2
536.862	1	5
537.203	1	-2
537.543	1	-1
537.883	1	1
538.223	1	3
538.563	1	8
538.903	1	-7
539.243	1	-9
539.584	1	2
539.924	1	11
540.264	1	-6
540.604	1	-4
540.944	1	-4
541.284	1	-1
541.624	1	3
541.964	1	6
542.305	1	7
542.645	1	6
542.985	1	-1
543.325	1	1
543.665	1	11
544.005	1	2
544.345	1	2
544.685	1	-5
545.025	1	7
545.365	1	0
545.705	1	-6
546.045	1	-7
546.386	1	7
546.726	1	-3
547.066	1	17
547.406	1	8
547.746	1	-9
548.086	1	2
548.426	1	2
548.766	1	5
549.106	1	-7
549.446	1	1
549.786	1	-11
550.126	1	13
550.466	1	0
550.806	1	0
551.146	1	-5
551.486	1	-4
551.826	1	3
552.166	1	8
552.506	1	0
552.846	1	0
553.186	1	6
553.526	1	-8
553.866	1	3
554.206	1	7
554.546	1	9
554.886	1	5
555.226	1	4
555.566	1	11
555.906	1	6
556.246	1	1
556.586	1	1
556.926	1	5
557.266	1	-6
557.606	1	-1
557.946	1	14
558.286	1	5
558.626	1	-3
558.966	1	-6
559.306	1	-5
559.646	1	-1
559.986	1	-2
560.325	1	-5
560.665	1	-1
561.005	1	-3
561.345	1	1
561.685	1	0
562.025	1	1
562.365	1	-2
562.705	1	3
563.045	1	-3
563.385	1	-4
563.725	1	0
564.064	1	0
564.404	1	2
564.744	1	8
565.084	1	3
565.424	1	4
565.764	1	-3
566.104	1	4
566.444	1	-5
566.783	1	-9
567.123	1	5
567.463	1	4
567.803	1	-6
568.143	1	2
568.483	1	9
568.823	1	1
569.162	1	0
569.502	1	4
569.842	1	1
570.182	1	0
570.522	1	-6
570.862	1	0
571.201	1	19
571.541	1	4
571.881	1	16
572.221	1	-1
572.561	1	0
572.900	1	-3
573.240	1	-2
573.580	1	4
573.920	1	-1
574.260	1	9
574.599	1	6
574.939	1	1
575.279	1	14
575.619	1	7
575.959	1	-11
576.298	1	7
576.638	1	-7
576.978	1	6
577.318	1	5
577.657	1	-13
577.997	1	-6
578.337	1	11
578.677	1	2
579.016	1	11
579.356	1	-2
579.696	1	-5
580.036	1	-1
580.375	1	8
580.715	1	-2
581.055	1	-3
581.394	1	-2
581.734	1	-13
582.074	1	-10
582.414	1	3
582.753	1	-3
583.093	1	0
583.433	1	-2
583.772	1	7
584.112	1	0
584.452	1	2
584.791	1	-3
585.131	1	3
585.471	1	5
585.811	1	12
586.150	1	4
586.490	1	1
586.830	1	1
587.169	1	1
587.509	1	-6
587.849	1	5
588.188	1	11
588.528	1	11
588.867	1	6
589.207	1	-5
589.547	1	8
589.886	1	-2
590.226	1	4
590.566	1	-5
590.905	1	-1
591.245	1	1
591.585	1	10
591.924	1	7
592.264	1	3
592.603	1	-5
592.943	1	4
593.283	1	1
593.622	1	5
593.962	1	3
594.301	1	4
594.641	1	-10
594.981	1	-8
595.320	1	2
595.660	1	5
595.999	1	-4
596.339	1	2
596.678	1	-1
597.018	1	7
597.358	1	6
597.697	1	0
598.037	1	0
598.376	1	-2
598.716	1	5
599.055	1	5
599.395	1	-1
599.734	1	0
600.074	1	-2
600.413	1	15
600.753	1	10
601.092	1	16
601.432	1	-5
601.771	1	1
602.111	1	9
602.451	1	7
602.790	1	1
603.130	1	4
603.469	1	-5
603.809	1	-4
604.148	1	5
604.487	1	2
604.827	1	12
605.166	1	5
605.506	1	-6
605.845	1	2
606.185	1	8
606.524	1	-6
606.864	1	-1
607.203	1	-8
607.543	1	-1
607.882	1	8
608.222	1	-4
608.561	1	5
608.901	1	0
609.240	1	-5
609.579	1	-4
609.919	1	9
610.258	1	8
610.598	1	5
610.937	1	3
611.277	1	6
611.616	1	-6
611.955	1	-1
612.295	1	-9
612.634	1	-8
612.974	1	-8
613.313	1	6
613.652	1	4
613.992	1	-4
614.331	1	-4
614.671	1	3
615.010	1	-8
615.349	1	7
615.689	1	10
616.028	1	-7
616.368	1	5
616.707	1	4
617.046	1	4
617.386	1	2
617.725	1	-3
618.064	1	-5
618.404	1	-5
618.743	1	-3
619.082	1	1
619.422	1	-11
619.761	1	3
620.100	1	9
620.440	1	3
620.779	1	-3
621.118	1	5
621.458	1	-1
621.797	1	1
622.136	1	18
622.476	1	-4
622.815	1	-1
623.154	1	4
623.494	1	-4
623.833	1	11
624.172	1	-14
624.511	1	-4
624.851	1	-7
625.190	1	5
625.529	1	-1
625.869	1	7
626.208	1	1
626.547	1	8
626.886	1	11
627.226	1	3
627.565	1	-5
627.904	1	-6
628.243	1	2
628.583	1	-7
628.922	1	8
629.261	1	7
629.600	1	3
629.940	1	7
630.279	1	-6
630.618	1	3
630.957	1	-7
631.297	1	1
631.636	1	-8
631.975	1	13
632.314	1	1
632.653	1	-3
632.993	1	-6
633.332	1	4
633.671	1	-3
634.010	1	-9
634.349	1	5
634.689	1	7
635.028	1	6
635.367	1	-1
635.706	1	0
636.045	1	7
636.384	1	-5
636.724	1	7
637.063	1	-5
637.402	1	1
637.741	1	8
638.080	1	-2
638.419	1	2
638.759	1	-10
639.098	1	14
639.437	1	0
639.776	1	0
640.115	1	-4
640.454	1	-6
640.793	1	8
641.132	1	11
641.472	1	1
641.811	1	-7
642.150	1	-8
642.489	1	-6
642.828	1	6
643.167	1	-6
643.506	1	-7
643.845	1	2
644.184	1	6
644.524	1	-1
644.863	1	-4
645.202	1	-3
645.541	1	-2
645.880	1	4
646.219	1	0
646.558	1	0
646.897	1	-2
647.236	1	-1
647.575	1	-2
647.914	1	1
648.253	1	3
648.592	1	-1
648.931	1	16
649.270	1	3
649.610	1	3
649.949	1	-3
650.288	1	-4
650.627	1	-1
650.966	1	1
651.305	1	2
651.644	1	3
651.983	1	1
652.322	1	0
652.661	1	3
653.000	1	0
653.339	1	7
653.678	1	-4
654.017	1	-8
654.356	1	-3
654.695	1	6
655.034	1	6
655.373	1	7
655.712	1	2
656.051	1	0
656.390	1	-9
656.729	1	3
657.068	1	-1
657.406	1	9
657.745	1	-4
658.084	1	0
658.423	1	3
658.762	1	-2
659.101	1	4
659.440	1	15
659.779	1	1
660.118	1	3
660.457	1	-4
660.796	1	-11
661.135	1	-7
661.474	1	3
661.813	1	1
662.152	1	4
662.491	1	1
662.829	1	-3
663.168	1	0
663.507	1	5
663.846	1	3
664.185	1	4
664.524	1	8
664.863	1	1
665.202	1	-4
665.541	1	-9
665.879	1	-2
666.218	1	8
666.557	1	-4
666.896	1	2
667.235	1	2
667.574	1	4
667.913	1	-2
668.251	1	-3
668.590	1	-9
668.929	1	-13
669.268	1	-2
669.607	1	-10
669.946	1	-1
670.285	1	8
670.623	1	4
670.962	1	-1
671.301	1	-8
671.640	1	0
671.979	1	-2
672.317	1	5
672.656	1	-4
672.995	1	1
673.334	1	3
673.673	1	-1
674.011	1	5
674.350	1	-3
674.689	1	1
675.028	1	7
675.367	1	16
675.705	1	6
676.044	1	0
676.383	1	2
676.722	1	5
677.060	1	-7
677.399	1	-6
677.738	1	7
678.077	1	1
678.416	1	4
678.754	1	-5
679.093	1	7
679.432	1	1
679.771	1	9
680.109	1	9
680.448	1	-1
680.787	1	-7
681.125	1	10
681.464	1	-5
681.803	1	1
682.142	1	11
682.480	1	12
682.819	1	8
683.158	1	3
683.496	1	4
683.835	1	2
684.174	1	-7
684.512	1	2
684.851	1	3
685.190	1	-2
685.529	1	3
685.867	1	-11
686.206	1	-6
686.545	1	-1
686.883	1	3
687.222	1	1
687.561	1	-1
687.899	1	-4
688.238	1	1
688.577	1	-7
688.746	1	-6