File: Data/GaN_200K_800ms/GaN_sample F_spot 12_UVVIS_200 K_200um_800 ms 2x2mm1_202.txt
340.368	1	6
340.710	1	-6
341.052	1	8
341.394	1	-9
341.737	1	9
342.079	1	0
342.421	1	2
342.763	1	6
343.105	1	-1
343.447	1	1
343.789	1	-6
344.131	1	-10
344.473	1	-13
344.815	1	-6
345.157	1	-2
345.499	1	0
345.841	1	4
346.183	1	-8
346.526	1	0
346.868	1	-1
347.210	1	-1
347.552	1	-1
347.894	1	-1
348.236	1	4
348.578	1	-1
348.920	1	-1
349.262	1	-3
349.604	1	-1
349.946	1	-11
350.288	1	6
350.630	1	12
350.972	1	7
351.314	1	5
351.656	1	6
351.998	1	6
352.340	1	0
352.682	1	5
353.024	1	5
353.366	1	11
353.708	1	6
354.050	1	-6
354.392	1	-7
354.734	1	11
355.076	1	-1
355.418	1	-8
355.760	1	-1
356.102	1	7
356.444	1	3
356.785	1	6
357.127	1	3
357.469	1	7
357.811	1	1
358.153	1	11
358.495	1	5
358.837	1	0
359.179	1	1
359.521	1	15
359.863	1	-1
360.205	1	2
360.547	1	7
360.889	1	5
361.231	1	0
361.572	1	7
361.914	1	14
362.256	1	16
362.598	1	-2
362.940	1	4
363.282	1	21
363.624	1	19
363.966	1	10
364.308	1	19
364.649	1	21
364.991	1	21
365.333	1	16
365.675	1	12
366.017	1	18
366.359	1	19
366.701	1	26
367.042	1	19
367.384	1	21
367.726	1	28
368.068	1	27
368.410	1	44
368.752	1	35
369.093	1	32
369.435	1	35
369.777	1	24
370.119	1	25
370.461	1	46
370.803	1	36
371.144	1	25
371.486	1	37
371.828	1	39
372.170	1	28
372.512	1	28
372.853	1	31
373.195	1	34
373.537	1	26
373.879	1	25
374.220	1	35
374.562	1	25
374.904	1	18
375.246	1	29
375.588	1	26
375.929	1	28
376.271	1	20
376.613	1	21
376.955	1	2
377.296	1	9
377.638	1	12
377.980	1	12
378.321	1	0
378.663	1	9
379.005	1	17
379.347	1	17
379.688	1	16
380.030	1	9
380.372	1	19
380.714	1	8
381.055	1	12
381.397	1	18
381.739	1	15
382.080	1	6
382.422	1	6
382.764	1	4
383.105	1	5
383.447	1	-1
383.789	1	8
384.130	1	14
384.472	1	14
384.814	1	9
385.156	1	5
385.497	1	15
385.839	1	12
386.180	1	10
386.522	1	7
386.864	1	10
387.205	1	7
387.547	1	-3
387.889	1	5
388.230	1	11
388.572	1	1
388.914	1	10
389.255	1	-4
389.597	1	0
389.939	1	12
390.280	1	3
390.622	1	3
390.963	1	14
391.305	1	12
391.647	1	4
391.988	1	2
392.330	1	8
392.671	1	6
393.013	1	-3
393.355	1	7
393.696	1	7
394.038	1	-2
394.379	1	8
394.721	1	5
395.062	1	6
395.404	1	-7
395.746	1	7
396.087	1	-5
396.429	1	5
396.770	1	-7
397.112	1	1
397.453	1	3
397.795	1	-5
398.136	1	0
398.478	1	-2
398.819	1	-6
399.161	1	15
399.503	1	12
399.844	1	2
400.186	1	0
400.527	1	9
400.869	1	1
401.210	1	8
401.552	1	-3
401.893	1	11
402.235	1	6
402.576	1	2
402.918	1	2
403.259	1	1
403.601	1	2
403.942	1	5
404.284	1	9
404.625	1	14
404.967	1	0
405.308	1	4
405.649	1	7
405.991	1	-2
406.332	1	4
406.674	1	-2
407.015	1	2
407.357	1	-2
407.698	1	10
408.040	1	2
408.381	1	3
408.722	1	-11
409.064	1	2
409.405	1	5
409.747	1	0
410.088	1	-6
410.430	1	-1
410.771	1	6
411.112	1	2
411.454	1	3
411.795	1	2
412.137	1	-1
412.478	1	4
412.819	1	-5
413.161	1	-6
413.502	1	8
413.844	1	-1
414.185	1	6
414.526	1	-10
414.868	1	4
415.209	1	0
415.550	1	-12
415.892	1	2
416.233	1	7
416.575	1	9
416.916	1	6
417.257	1	-4
417.599	1	11
417.940	1	16
418.281	1	-4
418.623	1	-4
418.964	1	-5
419.305	1	4
419.647	1	-4
419.988	1	2
420.329	1	-4
420.671	1	5
421.012	1	5
421.353	1	-9
421.695	1	4
422.036	1	-3
422.377	1	-8
422.718	1	1
423.060	1	-2
423.401	1	1
423.742	1	1
424.084	1	-8
424.425	1	5
424.766	1	-3
425.107	1	-3
425.449	1	5
425.790	1	-6
426.131	1	-4
426.472	1	-4
426.814	1	2
427.155	1	-5
427.496	1	-2
427.837	1	2
428.179	1	-3
428.520	1	4
428.861	1	0
429.202	1	7
429.544	1	-5
429.885	1	1
430.226	1	3
430.567	1	-2
430.909	1	3
431.250	1	-7
431.591	1	13
431.932	1	-12
432.273	1	-5
432.615	1	-2
432.956	1	-2
433.297	1	7
433.638	1	-2
433.979	1	9
434.320	1	1
434.662	1	2
435.003	1	6
435.344	1	-8
435.685	1	3
436.026	1	4
436.368	1	7
436.709	1	-8
437.050	1	0
437.391	1	16
437.732	1	-14
438.073	1	-2
438.414	1	-12
438.756	1	-3
439.097	1	-1
439.438	1	-7
439.779	1	-3
440.120	1	1
440.461	1	2
440.802	1	-2
441.143	1	7
441.485	1	-1
441.826	1	-1
442.167	1	-9
442.508	1	-3
442.849	1	6
443.190	1	6
443.531	1	7
443.872	1	2
444.213	1	-1
444.554	1	13
444.895	1	-1
445.237	1	-6
445.578	1	-7
445.919	1	-6
446.260	1	-1
446.601	1	-2
446.942	1	-2
447.283	1	-8
447.624	1	-3
447.965	1	-2
448.306	1	-5
448.647	1	-4
448.988	1	-2
449.329	1	-3
449.670	1	12
450.011	1	2
450.352	1	-3
450.693	1	-3
451.034	1	-3
451.375	1	1
451.716	1	1
452.057	1	5
452.398	1	-2
452.739	1	14
453.080	1	-10
453.421	1	1
453.762	1	-1
454.103	1	3
454.444	1	-13
454.785	1	-2
455.126	1	0
455.467	1	0
455.808	1	5
456.149	1	4
456.490	1	4
456.831	1	3
457.172	1	-1
457.513	1	12
457.854	1	5
458.195	1	-3
458.536	1	6
458.877	1	10
459.218	1	2
459.559	1	6
459.899	1	5
460.240	1	2
460.581	1	13
460.922	1	4
461.263	1	-10
461.604	1	0
461.945	1	-5
462.286	1	7
462.627	1	11
462.968	1	1
463.309	1	-2
463.649	1	-4
463.990	1	2
464.331	1	3
464.672	1	1
465.013	1	3
465.354	1	-5
465.695	1	2
466.036	1	2
466.376	1	-3
466.717	1	3
467.058	1	5
467.399	1	2
467.740	1	4
468.081	1	6
468.422	1	-1
468.762	1	-9
469.103	1	-8
469.444	1	-8
469.785	1	-7
470.126	1	-5
470.467	1	-10
470.807	1	5
471.148	1	1
471.489	1	1
471.830	1	-7
472.171	1	-1
472.511	1	-7
472.852	1	-6
473.193	1	9
473.534	1	6
473.875	1	15
474.215	1	3
474.556	1	-7
474.897	1	6
475.238	1	6
475.578	1	-10
475.919	1	-2
476.260	1	2
476.601	1	1
476.942	1	12
477.282	1	-9
477.623	1	-12
477.964	1	-2
478.305	1	-4
478.645	1	13
478.986	1	-3
479.327	1	-11
479.667	1	-2
480.008	1	-7
480.349	1	2
480.690	1	8
481.030	1	-1
481.371	1	-2
481.712	1	-7
482.053	1	1
482.393	1	-4
482.734	1	-11
483.075	1	-6
483.415	1	0
483.756	1	1
484.097	1	2
484.437	1	-3
484.778	1	4
485.119	1	2
485.459	1	9
485.800	1	8
486.141	1	-10
486.481	1	8
486.822	1	10
487.163	1	5
487.503	1	-2
487.844	1	0
488.185	1	8
488.525	1	0
488.866	1	1
489.207	1	5
489.547	1	-6
489.888	1	-8
490.228	1	6
490.569	1	5
490.910	1	-4
491.250	1	-2
491.591	1	-13
491.932	1	0
492.272	1	3
492.613	1	4
492.953	1	-12
493.294	1	5
493.635	1	10
493.975	1	-1
494.316	1	13
494.656	1	-3
494.997	1	-2
495.337	1	9
495.678	1	7
496.019	1	1
496.359	1	-3
496.700	1	-2
497.040	1	-1
497.381	1	-4
497.721	1	-2
498.062	1	-5
498.403	1	3
498.743	1	1
499.084	1	-5
499.424	1	-1
499.765	1	-2
500.105	1	-6
500.446	1	-8
500.786	1	-12
501.127	1	6
501.467	1	-8
501.808	1	0
502.148	1	6
502.489	1	6
502.829	1	2
503.170	1	3
503.510	1	3
503.851	1	-4
504.191	1	9
504.532	1	12
504.872	1	-5
505.213	1	3
505.553	1	-6
505.894	1	-8
506.234	1	12
506.575	1	7
506.915	1	10
507.256	1	-5
507.596	1	3
507.936	1	5
508.277	1	3
508.617	1	-1
508.958	1	-8
509.298	1	8
509.639	1	-6
509.979	1	12
510.319	1	4
510.660	1	-8
511.000	1	0
511.341	1	8
511.681	1	3
512.022	1	-3
512.362	1	-4
512.702	1	4
513.043	1	11
513.383	1	-12
513.724	1	9
514.064	1	6
514.404	1	5
514.745	1	-2
515.085	1	3
515.425	1	-1
515.766	1	-10
516.106	1	-7
516.447	1	20
516.787	1	2
517.127	1	2
517.468	1	4
517.808	1	-9
518.148	1	5
518.489	1	-2
518.829	1	8
519.169	1	-3
519.510	1	-1
519.850	1	5
520.190	1	0
520.531	1	1
520.871	1	3
521.211	1	-14
521.552	1	13
521.892	1	-2
522.232	1	4
522.573	1	4
522.913	1	9
523.253	1	-3
523.593	1	-6
523.934	1	5
524.274	1	-1
524.614	1	2
524.955	1	-2
525.295	1	8
525.635	1	2
525.975	1	2
526.316	1	8
526.656	1	0
526.996	1	0
527.337	1	-7
527.677	1	-5
528.017	1	-13
528.357	1	8
528.698	1	5
529.038	1	3
529.378	1	7
529.718	1	16
530.058	1	1
530.399	1	3
530.739	1	1
531.079	1	7
531.419	1	-1
531.760	1	8
532.100	1	2
532.440	1	4
532.780	1	-3
533.120	1	12
533.461	1	6
533.801	1	21
534.141	1	-9
534.481	1	2
534.821	1	10
535.162	1	1
535.502	1	-4
535.842	1	10
536.182	1	8
536.522	1	-2
536.862	1	10
537.203	1	-5
537.543	1	-1
537.883	1	2
538.223	1	1
538.563	1	7
538.903	1	-8
539.243	1	-2
539.584	1	-7
539.924	1	16
540.264	1	-4
540.604	1	-1
540.944	1	2
541.284	1	6
541.624	1	10
541.964	1	7
542.305	1	6
542.645	1	1
542.985	1	6
543.325	1	3
543.665	1	6
544.005	1	13
544.345	1	-1
544.685	1	-5
545.025	1	-3
545.365	1	13
545.705	1	5
546.045	1	-9
546.386	1	11
546.726	1	-1
547.066	1	-4
547.406	1	11
547.746	1	-11
548.086	1	8
548.426	1	-5
548.766	1	6
549.106	1	-1
549.446	1	1
549.786	1	1
550.126	1	18
550.466	1	3
550.806	1	6
551.146	1	0
551.486	1	0
551.826	1	2
552.166	1	3
552.506	1	20
552.846	1	2
553.186	1	14
553.526	1	4
553.866	1	1
554.206	1	7
554.546	1	4
554.886	1	16
555.226	1	0
555.566	1	5
555.906	1	10
556.246	1	5
556.586	1	3
556.926	1	8
557.266	1	-5
557.606	1	0
557.946	1	11
558.286	1	11
558.626	1	22
558.966	1	-1
559.306	1	-8
559.646	1	-11
559.986	1	-7
560.325	1	-6
560.665	1	9
561.005	1	-2
561.345	1	0
561.685	1	2
562.025	1	-1
562.365	1	6
562.705	1	-7
563.045	1	-1
563.385	1	-8
563.725	1	2
564.064	1	-1
564.404	1	9
564.744	1	6
565.084	1	0
565.424	1	-3
565.764	1	-1
566.104	1	5
566.444	1	-6
566.783	1	2
567.123	1	6
567.463	1	5
567.803	1	-6
568.143	1	1
568.483	1	5
568.823	1	7
569.162	1	7
569.502	1	0
569.842	1	8
570.182	1	10
570.522	1	-5
570.862	1	6
571.201	1	10
571.541	1	2
571.881	1	7
572.221	1	4
572.561	1	4
572.900	1	-2
573.240	1	-1
573.580	1	7
573.920	1	0
574.260	1	10
574.599	1	-1
574.939	1	7
575.279	1	13
575.619	1	8
575.959	1	1
576.298	1	11
576.638	1	3
576.978	1	1
577.318	1	6
577.657	1	-4
577.997	1	5
578.337	1	3
578.677	1	13
579.016	1	10
579.356	1	-6
579.696	1	13
580.036	1	-2
580.375	1	12
580.715	1	3
581.055	1	-3
581.394	1	2
581.734	1	-7
582.074	1	-6
582.414	1	10
582.753	1	-1
583.093	1	-2
583.433	1	-3
583.772	1	3
584.112	1	-5
584.452	1	2
584.791	1	-1
585.131	1	1
585.471	1	8
585.811	1	11
586.150	1	-1
586.490	1	18
586.830	1	3
587.169	1	7
587.509	1	1
587.849	1	10
588.188	1	4
588.528	1	11
588.867	1	1
589.207	1	5
589.547	1	-8
589.886	1	0
590.226	1	-1
590.566	1	-5
590.905	1	6
591.245	1	-1
591.585	1	21
591.924	1	10
592.264	1	6
592.603	1	10
592.943	1	2
593.283	1	11
593.622	1	6
593.962	1	10
594.301	1	8
594.641	1	-3
594.981	1	0
595.320	1	3
595.660	1	-2
595.999	1	-8
596.339	1	14
596.678	1	-4
597.018	1	6
597.358	1	3
597.697	1	9
598.037	1	1
598.376	1	3
598.716	1	1
599.055	1	3
599.395	1	-2
599.734	1	1
600.074	1	-3
600.413	1	13
600.753	1	5
601.092	1	12
601.432	1	-1
601.771	1	16
602.111	1	8
602.451	1	7
602.790	1	5
603.130	1	5
603.469	1	-2
603.809	1	2
604.148	1	1
604.487	1	-3
604.827	1	1
605.166	1	1
605.506	1	3
605.845	1	-1
606.185	1	6
606.524	1	2
606.864	1	3
607.203	1	-2
607.543	1	0
607.882	1	14
608.222	1	5
608.561	1	7
608.901	1	2
609.240	1	-2
609.579	1	16
609.919	1	6
610.258	1	7
610.598	1	10
610.937	1	8
611.277	1	-8
611.616	1	6
611.955	1	-1
612.295	1	-1
612.634	1	4
612.974	1	-15
613.313	1	6
613.652	1	4
613.992	1	6
614.331	1	3
614.671	1	13
615.010	1	-1
615.349	1	16
615.689	1	8
616.028	1	-5
616.368	1	0
616.707	1	-4
617.046	1	6
617.386	1	2
617.725	1	5
618.064	1	3
618.404	1	1
618.743	1	0
619.082	1	10
619.422	1	-8
619.761	1	2
620.100	1	7
620.440	1	0
620.779	1	-10
621.118	1	-7
621.458	1	-1
621.797	1	-11
622.136	1	11
622.476	1	4
622.815	1	1
623.154	1	9
623.494	1	13
623.833	1	4
624.172	1	3
624.511	1	6
624.851	1	-6
625.190	1	2
625.529	1	6
625.869	1	9
626.208	1	-1
626.547	1	4
626.886	1	-6
627.226	1	0
627.565	1	-3
627.904	1	-1
628.243	1	0
628.583	1	-2
628.922	1	3
629.261	1	7
629.600	1	3
629.940	1	-4
630.279	1	-5
630.618	1	-1
630.957	1	-6
631.297	1	-2
631.636	1	-7
631.975	1	13
632.314	1	-2
632.653	1	-1
632.993	1	-3
633.332	1	-1
633.671	1	0
634.010	1	-8
634.349	1	9
634.689	1	-1
635.028	1	11
635.367	1	4
635.706	1	0
636.045	1	2
636.384	1	-5
636.724	1	5
637.063	1	-3
637.402	1	2
637.741	1	0
638.080	1	2
638.419	1	-6
638.759	1	3
639.098	1	5
639.437	1	7
639.776	1	-1
640.115	1	-4
640.454	1	-5
640.793	1	8
641.132	1	3
641.472	1	-3
641.811	1	-4
642.150	1	-5
642.489	1	13
642.828	1	-1
643.167	1	-8
643.506	1	-4
643.845	1	-1
644.184	1	1
644.524	1	1
644.863	1	-16
645.202	1	-3
645.541	1	6
645.880	1	6
646.219	1	7
646.558	1	1
646.897	1	-1
647.236	1	1
647.575	1	7
647.914	1	-6
648.253	1	11
648.592	1	0
648.931	1	10
649.270	1	4
649.610	1	0
649.949	1	-4
650.288	1	3
650.627	1	-2
650.966	1	3
651.305	1	-6
651.644	1	14
651.983	1	6
652.322	1	-5
652.661	1	0
653.000	1	-3
653.339	1	3
653.678	1	7
654.017	1	-2
654.356	1	0
654.695	1	-2
655.034	1	1
655.373	1	6
655.712	1	-5
656.051	1	1
656.390	1	-9
656.729	1	10
657.068	1	4
657.406	1	5
657.745	1	2
658.084	1	8
658.423	1	7
658.762	1	-5
659.101	1	14
659.440	1	0
659.779	1	-4
660.118	1	-1
660.457	1	-1
660.796	1	-7
661.135	1	1
661.474	1	-4
661.813	1	18
662.152	1	5
662.491	1	0
662.829	1	-8
663.168	1	-3
663.507	1	6
663.846	1	1
664.185	1	5
664.524	1	6
664.863	1	-2
665.202	1	6
665.541	1	-7
665.879	1	-6
666.218	1	-1
666.557	1	-5
666.896	1	3
667.235	1	6
667.574	1	9
667.913	1	3
668.251	1	-4
668.590	1	11
668.929	1	-4
669.268	1	-3
669.607	1	8
669.946	1	1
670.285	1	7
670.623	1	-5
670.962	1	-4
671.301	1	-7
671.640	1	1
671.979	1	-10
672.317	1	7
672.656	1	-1
672.995	1	2
673.334	1	6
673.673	1	6
674.011	1	-8
674.350	1	-4
674.689	1	3
675.028	1	-3
675.367	1	-1
675.705	1	0
676.044	1	1
676.383	1	1
676.722	1	5
677.060	1	3
677.399	1	-9
677.738	1	-7
678.077	1	6
678.416	1	3
678.754	1	-4
679.093	1	9
679.432	1	-1
679.771	1	-4
680.109	1	7
680.448	1	4
680.787	1	-6
681.125	1	11
681.464	1	-6
681.803	1	1
682.142	1	8
682.480	1	11
682.819	1	2
683.158	1	-3
683.496	1	9
683.835	1	5
684.174	1	-1
684.512	1	9
684.851	1	5
685.190	1	-5
685.529	1	-1
685.867	1	2
686.206	1	-6
686.545	1	-2
686.883	1	4
687.222	1	7
687.561	1	3
687.899	1	4
688.238	1	-3
688.577	1	10
688.746	1	3