File: Data/GaN_200K_800ms/GaN_sample F_spot 12_UVVIS_200 K_200um_800 ms 2x2mm1_53.txt
340.368	1	6
340.710	1	1
341.052	1	7
341.394	1	-1
341.737	1	10
342.079	1	0
342.421	1	4
342.763	1	5
343.105	1	0
343.447	1	-5
343.789	1	6
344.131	1	1
344.473	1	4
344.815	1	6
345.157	1	5
345.499	1	9
345.841	1	7
346.183	1	1
346.526	1	2
346.868	1	9
347.210	1	-1
347.552	1	1
347.894	1	11
348.236	1	11
348.578	1	5
348.920	1	-1
349.262	1	11
349.604	1	12
349.946	1	3
350.288	1	20
350.630	1	17
350.972	1	3
351.314	1	13
351.656	1	13
351.998	1	19
352.340	1	11
352.682	1	16
353.024	1	11
353.366	1	18
353.708	1	21
354.050	1	5
354.392	1	12
354.734	1	20
355.076	1	20
355.418	1	5
355.760	1	22
356.102	1	38
356.444	1	29
356.785	1	33
357.127	1	29
357.469	1	30
357.811	1	38
358.153	1	37
358.495	1	37
358.837	1	36
359.179	1	36
359.521	1	51
359.863	1	57
360.205	1	45
360.547	1	59
360.889	1	58
361.231	1	68
361.572	1	82
361.914	1	77
362.256	1	95
362.598	1	99
362.940	1	96
363.282	1	118
363.624	1	137
363.966	1	125
364.308	1	164
364.649	1	182
364.991	1	173
365.333	1	209
365.675	1	229
366.017	1	258
366.359	1	267
366.701	1	281
367.042	1	321
367.384	1	339
367.726	1	364
368.068	1	366
368.410	1	421
368.752	1	401
369.093	1	414
369.435	1	414
369.777	1	402
370.119	1	414
370.461	1	421
370.803	1	411
371.144	1	376
371.486	1	373
371.828	1	357
372.170	1	339
372.512	1	322
372.853	1	308
373.195	1	293
373.537	1	285
373.879	1	268
374.220	1	263
374.562	1	239
374.904	1	240
375.246	1	226
375.588	1	210
375.929	1	205
376.271	1	191
376.613	1	173
376.955	1	158
377.296	1	155
377.638	1	143
377.980	1	150
378.321	1	131
378.663	1	128
379.005	1	129
379.347	1	119
379.688	1	113
380.030	1	104
380.372	1	107
380.714	1	96
381.055	1	93
381.397	1	82
381.739	1	98
382.080	1	82
382.422	1	79
382.764	1	71
383.105	1	64
383.447	1	67
383.789	1	67
384.130	1	65
384.472	1	60
384.814	1	64
385.156	1	47
385.497	1	57
385.839	1	59
386.180	1	63
386.522	1	66
386.864	1	54
387.205	1	46
387.547	1	49
387.889	1	44
388.230	1	43
388.572	1	33
388.914	1	34
389.255	1	30
389.597	1	42
389.939	1	34
390.280	1	38
390.622	1	34
390.963	1	38
391.305	1	35
391.647	1	33
391.988	1	33
392.330	1	42
392.671	1	34
393.013	1	30
393.355	1	36
393.696	1	33
394.038	1	30
394.379	1	26
394.721	1	19
395.062	1	12
395.404	1	19
395.746	1	27
396.087	1	21
396.429	1	35
396.770	1	19
397.112	1	22
397.453	1	37
397.795	1	17
398.136	1	5
398.478	1	12
398.819	1	20
399.161	1	34
399.503	1	15
399.844	1	10
400.186	1	22
400.527	1	11
400.869	1	10
401.210	1	16
401.552	1	-1
401.893	1	11
402.235	1	4
402.576	1	19
402.918	1	15
403.259	1	20
403.601	1	13
403.942	1	16
404.284	1	15
404.625	1	21
404.967	1	13
405.308	1	11
405.649	1	5
405.991	1	0
406.332	1	6
406.674	1	0
407.015	1	14
407.357	1	12
407.698	1	13
408.040	1	8
408.381	1	13
408.722	1	-3
409.064	1	7
409.405	1	10
409.747	1	6
410.088	1	9
410.430	1	14
410.771	1	4
411.112	1	1
411.454	1	3
411.795	1	5
412.137	1	12
412.478	1	15
412.819	1	6
413.161	1	8
413.502	1	8
413.844	1	7
414.185	1	6
414.526	1	8
414.868	1	8
415.209	1	-4
415.550	1	4
415.892	1	-1
416.233	1	10
416.575	1	11
416.916	1	3
417.257	1	5
417.599	1	11
417.940	1	21
418.281	1	11
418.623	1	4
418.964	1	-5
419.305	1	4
419.647	1	10
419.988	1	1
420.329	1	0
420.671	1	7
421.012	1	4
421.353	1	9
421.695	1	5
422.036	1	7
422.377	1	1
422.718	1	18
423.060	1	-2
423.401	1	3
423.742	1	4
424.084	1	3
424.425	1	12
424.766	1	8
425.107	1	2
425.449	1	3
425.790	1	-9
426.131	1	4
426.472	1	9
426.814	1	8
427.155	1	2
427.496	1	-5
427.837	1	-6
428.179	1	-1
428.520	1	1
428.861	1	4
429.202	1	8
429.544	1	0
429.885	1	9
430.226	1	-2
430.567	1	1
430.909	1	8
431.250	1	4
431.591	1	7
431.932	1	-1
432.273	1	-4
432.615	1	-3
432.956	1	-5
433.297	1	12
433.638	1	6
433.979	1	7
434.320	1	8
434.662	1	2
435.003	1	8
435.344	1	12
435.685	1	-3
436.026	1	3
436.368	1	14
436.709	1	-1
437.050	1	2
437.391	1	18
437.732	1	-2
438.073	1	8
438.414	1	-7
438.756	1	-2
439.097	1	-2
439.438	1	10
439.779	1	7
440.120	1	1
440.461	1	2
440.802	1	2
441.143	1	19
441.485	1	12
441.826	1	-3
442.167	1	0
442.508	1	-3
442.849	1	3
443.190	1	6
443.531	1	10
443.872	1	23
444.213	1	10
444.554	1	11
444.895	1	-4
445.237	1	6
445.578	1	-8
445.919	1	-6
446.260	1	-8
446.601	1	10
446.942	1	12
447.283	1	6
447.624	1	6
447.965	1	2
448.306	1	7
448.647	1	-7
448.988	1	9
449.329	1	8
449.670	1	17
450.011	1	12
450.352	1	9
450.693	1	1
451.034	1	-10
451.375	1	4
451.716	1	3
452.057	1	0
452.398	1	13
452.739	1	7
453.080	1	10
453.421	1	0
453.762	1	14
454.103	1	-8
454.444	1	-8
454.785	1	-3
455.126	1	5
455.467	1	7
455.808	1	3
456.149	1	13
456.490	1	6
456.831	1	6
457.172	1	-1
457.513	1	9
457.854	1	10
458.195	1	-2
458.536	1	7
458.877	1	5
459.218	1	7
459.559	1	15
459.899	1	-8
460.240	1	3
460.581	1	21
460.922	1	9
461.263	1	1
461.604	1	-6
461.945	1	4
462.286	1	10
462.627	1	19
462.968	1	9
463.309	1	-3
463.649	1	0
463.990	1	1
464.331	1	2
464.672	1	8
465.013	1	2
465.354	1	7
465.695	1	-1
466.036	1	0
466.376	1	3
466.717	1	2
467.058	1	-3
467.399	1	2
467.740	1	5
468.081	1	3
468.422	1	6
468.762	1	0
469.103	1	1
469.444	1	-1
469.785	1	-5
470.126	1	0
470.467	1	0
470.807	1	6
471.148	1	7
471.489	1	5
471.830	1	5
472.171	1	6
472.511	1	-6
472.852	1	8
473.193	1	11
473.534	1	8
473.875	1	9
474.215	1	17
474.556	1	8
474.897	1	7
475.238	1	9
475.578	1	2
475.919	1	6
476.260	1	1
476.601	1	9
476.942	1	10
477.282	1	-3
477.623	1	-5
477.964	1	6
478.305	1	4
478.645	1	14
478.986	1	6
479.327	1	-8
479.667	1	9
480.008	1	0
480.349	1	-3
480.690	1	6
481.030	1	2
481.371	1	16
481.712	1	12
482.053	1	11
482.393	1	14
482.734	1	8
483.075	1	6
483.415	1	10
483.756	1	8
484.097	1	9
484.437	1	3
484.778	1	6
485.119	1	6
485.459	1	16
485.800	1	12
486.141	1	5
486.481	1	4
486.822	1	14
487.163	1	9
487.503	1	11
487.844	1	8
488.185	1	8
488.525	1	9
488.866	1	12
489.207	1	13
489.547	1	8
489.888	1	-1
490.228	1	14
490.569	1	23
490.910	1	6
491.250	1	10
491.591	1	7
491.932	1	15
492.272	1	9
492.613	1	10
492.953	1	9
493.294	1	4
493.635	1	12
493.975	1	11
494.316	1	15
494.656	1	9
494.997	1	8
495.337	1	14
495.678	1	12
496.019	1	6
496.359	1	15
496.700	1	11
497.040	1	1
497.381	1	8
497.721	1	5
498.062	1	18
498.403	1	13
498.743	1	10
499.084	1	8
499.424	1	13
499.765	1	12
500.105	1	16
500.446	1	6
500.786	1	4
501.127	1	13
501.467	1	0
501.808	1	20
502.148	1	18
502.489	1	18
502.829	1	13
503.170	1	26
503.510	1	19
503.851	1	14
504.191	1	15
504.532	1	19
504.872	1	17
505.213	1	28
505.553	1	7
505.894	1	7
506.234	1	25
506.575	1	27
506.915	1	14
507.256	1	16
507.596	1	29
507.936	1	23
508.277	1	11
508.617	1	5
508.958	1	12
509.298	1	24
509.639	1	19
509.979	1	26
510.319	1	31
510.660	1	15
511.000	1	22
511.341	1	14
511.681	1	24
512.022	1	10
512.362	1	21
512.702	1	13
513.043	1	19
513.383	1	21
513.724	1	18
514.064	1	20
514.404	1	22
514.745	1	26
515.085	1	15
515.425	1	22
515.766	1	22
516.106	1	18
516.447	1	35
516.787	1	23
517.127	1	18
517.468	1	31
517.808	1	22
518.148	1	21
518.489	1	17
518.829	1	30
519.169	1	28
519.510	1	24
519.850	1	26
520.190	1	13
520.531	1	20
520.871	1	26
521.211	1	19
521.552	1	30
521.892	1	28
522.232	1	34
522.573	1	22
522.913	1	32
523.253	1	28
523.593	1	28
523.934	1	23
524.274	1	25
524.614	1	29
524.955	1	26
525.295	1	31
525.635	1	24
525.975	1	33
526.316	1	33
526.656	1	29
526.996	1	30
527.337	1	28
527.677	1	36
528.017	1	25
528.357	1	26
528.698	1	27
529.038	1	36
529.378	1	29
529.718	1	45
530.058	1	29
530.399	1	36
530.739	1	24
531.079	1	36
531.419	1	41
531.760	1	32
532.100	1	33
532.440	1	37
532.780	1	30
533.120	1	46
533.461	1	34
533.801	1	50
534.141	1	24
534.481	1	39
534.821	1	38
535.162	1	36
535.502	1	26
535.842	1	45
536.182	1	28
536.522	1	32
536.862	1	38
537.203	1	25
537.543	1	27
537.883	1	35
538.223	1	33
538.563	1	41
538.903	1	23
539.243	1	39
539.584	1	31
539.924	1	38
540.264	1	29
540.604	1	27
540.944	1	24
541.284	1	28
541.624	1	37
541.964	1	44
542.305	1	40
542.645	1	31
542.985	1	28
543.325	1	38
543.665	1	41
544.005	1	37
544.345	1	38
544.685	1	30
545.025	1	37
545.365	1	37
545.705	1	35
546.045	1	30
546.386	1	35
546.726	1	26
547.066	1	35
547.406	1	33
547.746	1	24
548.086	1	34
548.426	1	40
548.766	1	37
549.106	1	29
549.446	1	32
549.786	1	35
550.126	1	45
550.466	1	47
550.806	1	35
551.146	1	40
551.486	1	37
551.826	1	38
552.166	1	44
552.506	1	45
552.846	1	34
553.186	1	48
553.526	1	36
553.866	1	37
554.206	1	37
554.546	1	45
554.886	1	42
555.226	1	23
555.566	1	38
555.906	1	41
556.246	1	32
556.586	1	28
556.926	1	29
557.266	1	33
557.606	1	42
557.946	1	48
558.286	1	38
558.626	1	36
558.966	1	40
559.306	1	24
559.646	1	30
559.986	1	26
560.325	1	34
560.665	1	28
561.005	1	23
561.345	1	33
561.685	1	34
562.025	1	31
562.365	1	33
562.705	1	30
563.045	1	22
563.385	1	21
563.725	1	35
564.064	1	40
564.404	1	31
564.744	1	46
565.084	1	40
565.424	1	33
565.764	1	31
566.104	1	34
566.444	1	35
566.783	1	34
567.123	1	33
567.463	1	46
567.803	1	40
568.143	1	36
568.483	1	44
568.823	1	28
569.162	1	34
569.502	1	34
569.842	1	37
570.182	1	35
570.522	1	13
570.862	1	36
571.201	1	45
571.541	1	35
571.881	1	45
572.221	1	34
572.561	1	30
572.900	1	26
573.240	1	31
573.580	1	39
573.920	1	35
574.260	1	41
574.599	1	26
574.939	1	36
575.279	1	46
575.619	1	44
575.959	1	27
576.298	1	42
576.638	1	37
576.978	1	44
577.318	1	33
577.657	1	27
577.997	1	31
578.337	1	44
578.677	1	37
579.016	1	38
579.356	1	21
579.696	1	42
580.036	1	29
580.375	1	31
580.715	1	29
581.055	1	23
581.394	1	44
581.734	1	27
582.074	1	30
582.414	1	42
582.753	1	23
583.093	1	26
583.433	1	36
583.772	1	35
584.112	1	27
584.452	1	32
584.791	1	36
585.131	1	39
585.471	1	44
585.811	1	41
586.150	1	22
586.490	1	40
586.830	1	38
587.169	1	38
587.509	1	30
587.849	1	37
588.188	1	45
588.528	1	36
588.867	1	40
589.207	1	39
589.547	1	40
589.886	1	24
590.226	1	30
590.566	1	26
590.905	1	37
591.245	1	34
591.585	1	30
591.924	1	25
592.264	1	25
592.603	1	31
592.943	1	24
593.283	1	25
593.622	1	30
593.962	1	23
594.301	1	29
594.641	1	26
594.981	1	8
595.320	1	31
595.660	1	30
595.999	1	21
596.339	1	31
596.678	1	20
597.018	1	22
597.358	1	34
597.697	1	33
598.037	1	26
598.376	1	24
598.716	1	29
599.055	1	24
599.395	1	36
599.734	1	30
600.074	1	33
600.413	1	29
600.753	1	37
601.092	1	44
601.432	1	18
601.771	1	21
602.111	1	24
602.451	1	39
602.790	1	35
603.130	1	29
603.469	1	24
603.809	1	29
604.148	1	25
604.487	1	35
604.827	1	38
605.166	1	31
605.506	1	29
605.845	1	25
606.185	1	30
606.524	1	26
606.864	1	21
607.203	1	22
607.543	1	28
607.882	1	37
608.222	1	26
608.561	1	32
608.901	1	24
609.240	1	22
609.579	1	31
609.919	1	37
610.258	1	35
610.598	1	15
610.937	1	29
611.277	1	21
611.616	1	19
611.955	1	22
612.295	1	16
612.634	1	26
612.974	1	12
613.313	1	36
613.652	1	23
613.992	1	24
614.331	1	16
614.671	1	26
615.010	1	17
615.349	1	26
615.689	1	27
616.028	1	17
616.368	1	24
616.707	1	12
617.046	1	19
617.386	1	23
617.725	1	16
618.064	1	11
618.404	1	13
618.743	1	21
619.082	1	15
619.422	1	20
619.761	1	20
620.100	1	29
620.440	1	23
620.779	1	10
621.118	1	19
621.458	1	16
621.797	1	13
622.136	1	30
622.476	1	22
622.815	1	18
623.154	1	19
623.494	1	23
623.833	1	29
624.172	1	13
624.511	1	21
624.851	1	3
625.190	1	17
625.529	1	17
625.869	1	20
626.208	1	18
626.547	1	19
626.886	1	24
627.226	1	22
627.565	1	17
627.904	1	14
628.243	1	20
628.583	1	24
628.922	1	19
629.261	1	6
629.600	1	31
629.940	1	16
630.279	1	12
630.618	1	14
630.957	1	12
631.297	1	11
631.636	1	8
631.975	1	27
632.314	1	10
632.653	1	18
632.993	1	10
633.332	1	15
633.671	1	8
634.010	1	14
634.349	1	25
634.689	1	18
635.028	1	23
635.367	1	16
635.706	1	13
636.045	1	26
636.384	1	23
636.724	1	17
637.063	1	12
637.402	1	15
637.741	1	11
638.080	1	3
638.419	1	13
638.759	1	14
639.098	1	24
639.437	1	25
639.776	1	5
640.115	1	8
640.454	1	5
640.793	1	21
641.132	1	13
641.472	1	10
641.811	1	20
642.150	1	4
642.489	1	16
642.828	1	13
643.167	1	10
643.506	1	2
643.845	1	16
644.184	1	18
644.524	1	9
644.863	1	0
645.202	1	13
645.541	1	10
645.880	1	18
646.219	1	14
646.558	1	7
646.897	1	15
647.236	1	20
647.575	1	17
647.914	1	9
648.253	1	23
648.592	1	6
648.931	1	18
649.270	1	12
649.610	1	16
649.949	1	10
650.288	1	19
650.627	1	15
650.966	1	16
651.305	1	4
651.644	1	21
651.983	1	13
652.322	1	7
652.661	1	12
653.000	1	5
653.339	1	19
653.678	1	19
654.017	1	13
654.356	1	14
654.695	1	14
655.034	1	14
655.373	1	14
655.712	1	9
656.051	1	12
656.390	1	9
656.729	1	22
657.068	1	12
657.406	1	11
657.745	1	1
658.084	1	10
658.423	1	18
658.762	1	13
659.101	1	22
659.440	1	1
659.779	1	7
660.118	1	11
660.457	1	10
660.796	1	1
661.135	1	2
661.474	1	8
661.813	1	21
662.152	1	5
662.491	1	8
662.829	1	4
663.168	1	10
663.507	1	14
663.846	1	12
664.185	1	11
664.524	1	12
664.863	1	3
665.202	1	12
665.541	1	1
665.879	1	9
666.218	1	-3
666.557	1	8
666.896	1	-4
667.235	1	17
667.574	1	9
667.913	1	10
668.251	1	11
668.590	1	7
668.929	1	2
669.268	1	-4
669.607	1	7
669.946	1	15
670.285	1	15
670.623	1	1
670.962	1	4
671.301	1	11
671.640	1	13
671.979	1	-1
672.317	1	14
672.656	1	7
672.995	1	19
673.334	1	7
673.673	1	9
674.011	1	11
674.350	1	6
674.689	1	12
675.028	1	6
675.367	1	17
675.705	1	13
676.044	1	15
676.383	1	8
676.722	1	10
677.060	1	14
677.399	1	3
677.738	1	15
678.077	1	13
678.416	1	9
678.754	1	6
679.093	1	10
679.432	1	10
679.771	1	8
680.109	1	16
680.448	1	10
680.787	1	6
681.125	1	15
681.464	1	13
681.803	1	7
682.142	1	12
682.480	1	19
682.819	1	13
683.158	1	11
683.496	1	17
683.835	1	13
684.174	1	0
684.512	1	21
684.851	1	8
685.190	1	9
685.529	1	23
685.867	1	5
686.206	1	11
686.545	1	8
686.883	1	7
687.222	1	15
687.561	1	10
687.899	1	15
688.238	1	11
688.577	1	7
688.746	1	13