File: Data/GaN_200K_800ms/GaN_sample F_spot 12_UVVIS_200 K_200um_800 ms 2x2mm1_126.txt
340.368	1	5
340.710	1	-3
341.052	1	0
341.394	1	-6
341.737	1	17
342.079	1	0
342.421	1	-1
342.763	1	0
343.105	1	8
343.447	1	-7
343.789	1	8
344.131	1	0
344.473	1	3
344.815	1	2
345.157	1	1
345.499	1	1
345.841	1	16
346.183	1	4
346.526	1	-2
346.868	1	11
347.210	1	-7
347.552	1	-1
347.894	1	8
348.236	1	9
348.578	1	7
348.920	1	2
349.262	1	-10
349.604	1	7
349.946	1	-5
350.288	1	12
350.630	1	4
350.972	1	3
351.314	1	5
351.656	1	12
351.998	1	3
352.340	1	14
352.682	1	13
353.024	1	8
353.366	1	20
353.708	1	5
354.050	1	2
354.392	1	4
354.734	1	8
355.076	1	4
355.418	1	-7
355.760	1	-4
356.102	1	11
356.444	1	8
356.785	1	15
357.127	1	12
357.469	1	2
357.811	1	10
358.153	1	8
358.495	1	10
358.837	1	5
359.179	1	6
359.521	1	25
359.863	1	4
360.205	1	7
360.547	1	25
360.889	1	20
361.231	1	9
361.572	1	17
361.914	1	22
362.256	1	21
362.598	1	20
362.940	1	5
363.282	1	20
363.624	1	23
363.966	1	29
364.308	1	26
364.649	1	41
364.991	1	39
365.333	1	36
365.675	1	30
366.017	1	40
366.359	1	45
366.701	1	55
367.042	1	49
367.384	1	60
367.726	1	51
368.068	1	59
368.410	1	79
368.752	1	57
369.093	1	55
369.435	1	65
369.777	1	63
370.119	1	64
370.461	1	85
370.803	1	73
371.144	1	65
371.486	1	58
371.828	1	69
372.170	1	67
372.512	1	53
372.853	1	57
373.195	1	44
373.537	1	53
373.879	1	52
374.220	1	52
374.562	1	57
374.904	1	41
375.246	1	46
375.588	1	36
375.929	1	42
376.271	1	38
376.613	1	27
376.955	1	29
377.296	1	36
377.638	1	37
377.980	1	29
378.321	1	20
378.663	1	35
379.005	1	32
379.347	1	25
379.688	1	26
380.030	1	25
380.372	1	22
380.714	1	31
381.055	1	22
381.397	1	17
381.739	1	31
382.080	1	25
382.422	1	17
382.764	1	14
383.105	1	14
383.447	1	9
383.789	1	11
384.130	1	4
384.472	1	11
384.814	1	18
385.156	1	6
385.497	1	16
385.839	1	8
386.180	1	16
386.522	1	15
386.864	1	14
387.205	1	5
387.547	1	7
387.889	1	10
388.230	1	17
388.572	1	-6
388.914	1	7
389.255	1	1
389.597	1	7
389.939	1	6
390.280	1	11
390.622	1	1
390.963	1	11
391.305	1	13
391.647	1	4
391.988	1	12
392.330	1	10
392.671	1	-1
393.013	1	2
393.355	1	8
393.696	1	12
394.038	1	6
394.379	1	10
394.721	1	-5
395.062	1	4
395.404	1	8
395.746	1	16
396.087	1	1
396.429	1	15
396.770	1	4
397.112	1	15
397.453	1	13
397.795	1	-2
398.136	1	3
398.478	1	1
398.819	1	8
399.161	1	12
399.503	1	2
399.844	1	-1
400.186	1	1
400.527	1	5
400.869	1	8
401.210	1	5
401.552	1	-6
401.893	1	-1
402.235	1	4
402.576	1	-2
402.918	1	4
403.259	1	11
403.601	1	-1
403.942	1	16
404.284	1	14
404.625	1	7
404.967	1	5
405.308	1	7
405.649	1	2
405.991	1	4
406.332	1	8
406.674	1	0
407.015	1	4
407.357	1	1
407.698	1	7
408.040	1	4
408.381	1	11
408.722	1	-5
409.064	1	3
409.405	1	9
409.747	1	-1
410.088	1	1
410.430	1	8
410.771	1	5
411.112	1	-1
411.454	1	-6
411.795	1	-1
412.137	1	4
412.478	1	18
412.819	1	5
413.161	1	-5
413.502	1	0
413.844	1	-1
414.185	1	5
414.526	1	3
414.868	1	10
415.209	1	-10
415.550	1	-3
415.892	1	10
416.233	1	1
416.575	1	7
416.916	1	0
417.257	1	-6
417.599	1	8
417.940	1	10
418.281	1	12
418.623	1	-1
418.964	1	-10
419.305	1	-6
419.647	1	3
419.988	1	2
420.329	1	-3
420.671	1	12
421.012	1	-1
421.353	1	-5
421.695	1	-3
422.036	1	0
422.377	1	-2
422.718	1	7
423.060	1	2
423.401	1	2
423.742	1	4
424.084	1	5
424.425	1	7
424.766	1	0
425.107	1	4
425.449	1	-1
425.790	1	-10
426.131	1	-9
426.472	1	7
426.814	1	7
427.155	1	-8
427.496	1	5
427.837	1	-7
428.179	1	-8
428.520	1	6
428.861	1	1
429.202	1	4
429.544	1	-3
429.885	1	1
430.226	1	-2
430.567	1	8
430.909	1	10
431.250	1	-6
431.591	1	5
431.932	1	-2
432.273	1	3
432.615	1	-6
432.956	1	-1
433.297	1	7
433.638	1	2
433.979	1	10
434.320	1	10
434.662	1	9
435.003	1	5
435.344	1	1
435.685	1	5
436.026	1	10
436.368	1	7
436.709	1	-2
437.050	1	-1
437.391	1	11
437.732	1	4
438.073	1	4
438.414	1	-4
438.756	1	-6
439.097	1	-1
439.438	1	-4
439.779	1	2
440.120	1	8
440.461	1	5
440.802	1	0
441.143	1	11
441.485	1	3
441.826	1	4
442.167	1	-7
442.508	1	-9
442.849	1	10
443.190	1	10
443.531	1	4
443.872	1	10
444.213	1	1
444.554	1	10
444.895	1	-4
445.237	1	0
445.578	1	-6
445.919	1	-1
446.260	1	-1
446.601	1	1
446.942	1	2
447.283	1	-7
447.624	1	6
447.965	1	-4
448.306	1	5
448.647	1	-6
448.988	1	-2
449.329	1	4
449.670	1	5
450.011	1	7
450.352	1	1
450.693	1	-12
451.034	1	-6
451.375	1	-3
451.716	1	4
452.057	1	5
452.398	1	-1
452.739	1	6
453.080	1	2
453.421	1	6
453.762	1	3
454.103	1	0
454.444	1	-4
454.785	1	-2
455.126	1	-4
455.467	1	2
455.808	1	-1
456.149	1	10
456.490	1	5
456.831	1	7
457.172	1	-5
457.513	1	-3
457.854	1	4
458.195	1	0
458.536	1	11
458.877	1	-2
459.218	1	-2
459.559	1	2
459.899	1	4
460.240	1	7
460.581	1	12
460.922	1	-3
461.263	1	-5
461.604	1	4
461.945	1	6
462.286	1	1
462.627	1	8
462.968	1	5
463.309	1	-7
463.649	1	0
463.990	1	1
464.331	1	-3
464.672	1	0
465.013	1	-1
465.354	1	7
465.695	1	-2
466.036	1	-5
466.376	1	3
466.717	1	8
467.058	1	-1
467.399	1	9
467.740	1	-6
468.081	1	6
468.422	1	-2
468.762	1	-12
469.103	1	-2
469.444	1	-5
469.785	1	-18
470.126	1	-6
470.467	1	-8
470.807	1	3
471.148	1	0
471.489	1	1
471.830	1	-1
472.171	1	0
472.511	1	-3
472.852	1	-3
473.193	1	3
473.534	1	8
473.875	1	11
474.215	1	7
474.556	1	1
474.897	1	0
475.238	1	6
475.578	1	-4
475.919	1	3
476.260	1	0
476.601	1	-1
476.942	1	6
477.282	1	-1
477.623	1	-3
477.964	1	0
478.305	1	9
478.645	1	9
478.986	1	-3
479.327	1	-5
479.667	1	2
480.008	1	2
480.349	1	-4
480.690	1	4
481.030	1	-4
481.371	1	6
481.712	1	3
482.053	1	2
482.393	1	5
482.734	1	4
483.075	1	-1
483.415	1	0
483.756	1	4
484.097	1	-5
484.437	1	-5
484.778	1	9
485.119	1	2
485.459	1	14
485.800	1	4
486.141	1	-1
486.481	1	9
486.822	1	7
487.163	1	-11
487.503	1	2
487.844	1	7
488.185	1	-2
488.525	1	1
488.866	1	5
489.207	1	1
489.547	1	-7
489.888	1	-2
490.228	1	5
490.569	1	17
490.910	1	1
491.250	1	2
491.591	1	2
491.932	1	6
492.272	1	0
492.613	1	-8
492.953	1	-1
493.294	1	3
493.635	1	12
493.975	1	-5
494.316	1	11
494.656	1	7
494.997	1	-7
495.337	1	0
495.678	1	1
496.019	1	0
496.359	1	-2
496.700	1	8
497.040	1	-11
497.381	1	0
497.721	1	3
498.062	1	5
498.403	1	18
498.743	1	2
499.084	1	-4
499.424	1	6
499.765	1	1
500.105	1	4
500.446	1	-12
500.786	1	8
501.127	1	4
501.467	1	-3
501.808	1	3
502.148	1	13
502.489	1	9
502.829	1	0
503.170	1	12
503.510	1	3
503.851	1	2
504.191	1	14
504.532	1	11
504.872	1	10
505.213	1	9
505.553	1	-4
505.894	1	4
506.234	1	14
506.575	1	4
506.915	1	9
507.256	1	4
507.596	1	8
507.936	1	5
508.277	1	-1
508.617	1	3
508.958	1	-3
509.298	1	3
509.639	1	1
509.979	1	-1
510.319	1	8
510.660	1	11
511.000	1	-2
511.341	1	5
511.681	1	4
512.022	1	6
512.362	1	-9
512.702	1	7
513.043	1	-4
513.383	1	-7
513.724	1	12
514.064	1	16
514.404	1	0
514.745	1	-5
515.085	1	2
515.425	1	-4
515.766	1	-5
516.106	1	1
516.447	1	19
516.787	1	8
517.127	1	4
517.468	1	2
517.808	1	4
518.148	1	8
518.489	1	9
518.829	1	10
519.169	1	0
519.510	1	10
519.850	1	9
520.190	1	-3
520.531	1	7
520.871	1	1
521.211	1	-5
521.552	1	1
521.892	1	9
522.232	1	5
522.573	1	4
522.913	1	13
523.253	1	8
523.593	1	2
523.934	1	0
524.274	1	4
524.614	1	5
524.955	1	1
525.295	1	7
525.635	1	3
525.975	1	10
526.316	1	17
526.656	1	5
526.996	1	8
527.337	1	3
527.677	1	9
528.017	1	5
528.357	1	12
528.698	1	4
529.038	1	16
529.378	1	5
529.718	1	11
530.058	1	12
530.399	1	7
530.739	1	11
531.079	1	8
531.419	1	11
531.760	1	11
532.100	1	3
532.440	1	15
532.780	1	3
533.120	1	12
533.461	1	-1
533.801	1	13
534.141	1	-2
534.481	1	-1
534.821	1	5
535.162	1	8
535.502	1	1
535.842	1	10
536.182	1	3
536.522	1	-2
536.862	1	2
537.203	1	3
537.543	1	4
537.883	1	5
538.223	1	13
538.563	1	7
538.903	1	2
539.243	1	6
539.584	1	12
539.924	1	11
540.264	1	-2
540.604	1	8
540.944	1	3
541.284	1	13
541.624	1	5
541.964	1	11
542.305	1	9
542.645	1	1
542.985	1	0
543.325	1	-4
543.665	1	16
544.005	1	10
544.345	1	13
544.685	1	10
545.025	1	11
545.365	1	0
545.705	1	1
546.045	1	5
546.386	1	10
546.726	1	0
547.066	1	14
547.406	1	6
547.746	1	-5
548.086	1	8
548.426	1	3
548.766	1	11
549.106	1	7
549.446	1	7
549.786	1	4
550.126	1	14
550.466	1	4
550.806	1	5
551.146	1	5
551.486	1	4
551.826	1	17
552.166	1	2
552.506	1	17
552.846	1	8
553.186	1	10
553.526	1	2
553.866	1	4
554.206	1	7
554.546	1	12
554.886	1	8
555.226	1	-3
555.566	1	12
555.906	1	9
556.246	1	20
556.586	1	11
556.926	1	16
557.266	1	8
557.606	1	11
557.946	1	21
558.286	1	0
558.626	1	8
558.966	1	0
559.306	1	-2
559.646	1	5
559.986	1	8
560.325	1	4
560.665	1	9
561.005	1	4
561.345	1	5
561.685	1	4
562.025	1	1
562.365	1	10
562.705	1	2
563.045	1	1
563.385	1	-7
563.725	1	1
564.064	1	7
564.404	1	9
564.744	1	11
565.084	1	8
565.424	1	3
565.764	1	-1
566.104	1	1
566.444	1	5
566.783	1	4
567.123	1	9
567.463	1	7
567.803	1	-2
568.143	1	0
568.483	1	10
568.823	1	3
569.162	1	15
569.502	1	3
569.842	1	5
570.182	1	7
570.522	1	-3
570.862	1	2
571.201	1	10
571.541	1	17
571.881	1	11
572.221	1	3
572.561	1	8
572.900	1	0
573.240	1	6
573.580	1	13
573.920	1	6
574.260	1	18
574.599	1	11
574.939	1	10
575.279	1	19
575.619	1	12
575.959	1	0
576.298	1	11
576.638	1	4
576.978	1	11
577.318	1	13
577.657	1	4
577.997	1	1
578.337	1	20
578.677	1	13
579.016	1	15
579.356	1	-1
579.696	1	18
580.036	1	1
580.375	1	9
580.715	1	13
581.055	1	16
581.394	1	4
581.734	1	-7
582.074	1	0
582.414	1	6
582.753	1	8
583.093	1	8
583.433	1	1
583.772	1	10
584.112	1	3
584.452	1	16
584.791	1	2
585.131	1	10
585.471	1	7
585.811	1	13
586.150	1	5
586.490	1	15
586.830	1	-3
587.169	1	19
587.509	1	1
587.849	1	7
588.188	1	15
588.528	1	5
588.867	1	13
589.207	1	10
589.547	1	4
589.886	1	-5
590.226	1	15
590.566	1	6
590.905	1	4
591.245	1	6
591.585	1	10
591.924	1	-7
592.264	1	15
592.603	1	9
592.943	1	2
593.283	1	1
593.622	1	9
593.962	1	16
594.301	1	15
594.641	1	1
594.981	1	0
595.320	1	6
595.660	1	8
595.999	1	4
596.339	1	5
596.678	1	2
597.018	1	-1
597.358	1	8
597.697	1	5
598.037	1	4
598.376	1	14
598.716	1	5
599.055	1	5
599.395	1	7
599.734	1	3
600.074	1	6
600.413	1	12
600.753	1	7
601.092	1	14
601.432	1	0
601.771	1	14
602.111	1	4
602.451	1	22
602.790	1	7
603.130	1	10
603.469	1	-6
603.809	1	2
604.148	1	12
604.487	1	0
604.827	1	14
605.166	1	16
605.506	1	5
605.845	1	0
606.185	1	14
606.524	1	2
606.864	1	9
607.203	1	-3
607.543	1	9
607.882	1	11
608.222	1	13
608.561	1	15
608.901	1	0
609.240	1	-5
609.579	1	19
609.919	1	8
610.258	1	12
610.598	1	0
610.937	1	5
611.277	1	-7
611.616	1	11
611.955	1	-4
612.295	1	-2
612.634	1	6
612.974	1	-1
613.313	1	13
613.652	1	5
613.992	1	1
614.331	1	-3
614.671	1	7
615.010	1	-1
615.349	1	13
615.689	1	11
616.028	1	7
616.368	1	4
616.707	1	2
617.046	1	17
617.386	1	-1
617.725	1	5
618.064	1	0
618.404	1	-2
618.743	1	8
619.082	1	5
619.422	1	6
619.761	1	6
620.100	1	11
620.440	1	2
620.779	1	-9
621.118	1	10
621.458	1	9
621.797	1	-2
622.136	1	5
622.476	1	16
622.815	1	15
623.154	1	6
623.494	1	9
623.833	1	12
624.172	1	7
624.511	1	2
624.851	1	-6
625.190	1	7
625.529	1	4
625.869	1	5
626.208	1	-2
626.547	1	5
626.886	1	0
627.226	1	12
627.565	1	2
627.904	1	-4
628.243	1	10
628.583	1	0
628.922	1	5
629.261	1	10
629.600	1	15
629.940	1	-7
630.279	1	-4
630.618	1	5
630.957	1	3
631.297	1	3
631.636	1	-6
631.975	1	14
632.314	1	5
632.653	1	-2
632.993	1	5
633.332	1	5
633.671	1	2
634.010	1	-1
634.349	1	7
634.689	1	13
635.028	1	4
635.367	1	3
635.706	1	5
636.045	1	15
636.384	1	5
636.724	1	10
637.063	1	2
637.402	1	9
637.741	1	4
638.080	1	3
638.419	1	3
638.759	1	3
639.098	1	7
639.437	1	5
639.776	1	4
640.115	1	3
640.454	1	6
640.793	1	13
641.132	1	6
641.472	1	4
641.811	1	-3
642.150	1	-4
642.489	1	3
642.828	1	1
643.167	1	-8
643.506	1	-4
643.845	1	5
644.184	1	8
644.524	1	-3
644.863	1	-4
645.202	1	6
645.541	1	9
645.880	1	9
646.219	1	5
646.558	1	-3
646.897	1	4
647.236	1	2
647.575	1	5
647.914	1	1
648.253	1	12
648.592	1	1
648.931	1	16
649.270	1	3
649.610	1	6
649.949	1	7
650.288	1	6
650.627	1	1
650.966	1	8
651.305	1	3
651.644	1	14
651.983	1	9
652.322	1	-7
652.661	1	-1
653.000	1	7
653.339	1	8
653.678	1	-1
654.017	1	-7
654.356	1	-1
654.695	1	11
655.034	1	0
655.373	1	16
655.712	1	8
656.051	1	8
656.390	1	-2
656.729	1	10
657.068	1	7
657.406	1	8
657.745	1	-3
658.084	1	9
658.423	1	5
658.762	1	-3
659.101	1	11
659.440	1	-6
659.779	1	6
660.118	1	2
660.457	1	7
660.796	1	-11
661.135	1	-5
661.474	1	-5
661.813	1	9
662.152	1	3
662.491	1	-5
662.829	1	-6
663.168	1	7
663.507	1	4
663.846	1	-6
664.185	1	5
664.524	1	2
664.863	1	-4
665.202	1	10
665.541	1	-13
665.879	1	1
666.218	1	-2
666.557	1	5
666.896	1	2
667.235	1	3
667.574	1	-1
667.913	1	8
668.251	1	3
668.590	1	8
668.929	1	-3
669.268	1	3
669.607	1	3
669.946	1	7
670.285	1	19
670.623	1	-1
670.962	1	5
671.301	1	-6
671.640	1	5
671.979	1	5
672.317	1	5
672.656	1	1
672.995	1	9
673.334	1	5
673.673	1	13
674.011	1	4
674.350	1	4
674.689	1	0
675.028	1	-1
675.367	1	9
675.705	1	5
676.044	1	11
676.383	1	1
676.722	1	6
677.060	1	-4
677.399	1	4
677.738	1	5
678.077	1	12
678.416	1	7
678.754	1	3
679.093	1	7
679.432	1	-1
679.771	1	17
680.109	1	15
680.448	1	10
680.787	1	3
681.125	1	2
681.464	1	2
681.803	1	-3
682.142	1	7
682.480	1	19
682.819	1	-1
683.158	1	2
683.496	1	1
683.835	1	0
684.174	1	0
684.512	1	4
684.851	1	12
685.190	1	5
685.529	1	6
685.867	1	5
686.206	1	-5
686.545	1	-2
686.883	1	5
687.222	1	6
687.561	1	5
687.899	1	0
688.238	1	8
688.577	1	1
688.746	1	6