File: Data/GaN_200K_800ms/GaN_sample F_spot 12_UVVIS_200 K_200um_800 ms 2x2mm1_91.txt
340.368	1	3
340.710	1	-1
341.052	1	6
341.394	1	3
341.737	1	15
342.079	1	-2
342.421	1	-2
342.763	1	2
343.105	1	0
343.447	1	-4
343.789	1	5
344.131	1	5
344.473	1	-2
344.815	1	0
345.157	1	-3
345.499	1	0
345.841	1	15
346.183	1	-5
346.526	1	9
346.868	1	2
347.210	1	-6
347.552	1	0
347.894	1	-1
348.236	1	11
348.578	1	4
348.920	1	4
349.262	1	2
349.604	1	4
349.946	1	1
350.288	1	9
350.630	1	4
350.972	1	11
351.314	1	12
351.656	1	15
351.998	1	6
352.340	1	8
352.682	1	10
353.024	1	11
353.366	1	18
353.708	1	14
354.050	1	1
354.392	1	7
354.734	1	10
355.076	1	10
355.418	1	-5
355.760	1	0
356.102	1	17
356.444	1	11
356.785	1	20
357.127	1	14
357.469	1	12
357.811	1	17
358.153	1	18
358.495	1	17
358.837	1	9
359.179	1	20
359.521	1	22
359.863	1	24
360.205	1	23
360.547	1	26
360.889	1	21
361.231	1	23
361.572	1	31
361.914	1	30
362.256	1	34
362.598	1	25
362.940	1	38
363.282	1	34
363.624	1	53
363.966	1	47
364.308	1	54
364.649	1	61
364.991	1	62
365.333	1	72
365.675	1	59
366.017	1	77
366.359	1	66
366.701	1	93
367.042	1	86
367.384	1	88
367.726	1	104
368.068	1	112
368.410	1	127
368.752	1	108
369.093	1	100
369.435	1	123
369.777	1	116
370.119	1	107
370.461	1	128
370.803	1	111
371.144	1	106
371.486	1	115
371.828	1	96
372.170	1	110
372.512	1	84
372.853	1	88
373.195	1	85
373.537	1	86
373.879	1	78
374.220	1	86
374.562	1	71
374.904	1	65
375.246	1	62
375.588	1	74
375.929	1	67
376.271	1	70
376.613	1	49
376.955	1	50
377.296	1	47
377.638	1	50
377.980	1	55
378.321	1	36
378.663	1	46
379.005	1	58
379.347	1	49
379.688	1	42
380.030	1	29
380.372	1	36
380.714	1	39
381.055	1	39
381.397	1	33
381.739	1	40
382.080	1	38
382.422	1	36
382.764	1	27
383.105	1	29
383.447	1	31
383.789	1	17
384.130	1	24
384.472	1	19
384.814	1	28
385.156	1	23
385.497	1	17
385.839	1	20
386.180	1	25
386.522	1	27
386.864	1	22
387.205	1	16
387.547	1	10
387.889	1	15
388.230	1	22
388.572	1	15
388.914	1	13
389.255	1	-1
389.597	1	17
389.939	1	12
390.280	1	10
390.622	1	4
390.963	1	22
391.305	1	18
391.647	1	12
391.988	1	13
392.330	1	16
392.671	1	5
393.013	1	16
393.355	1	12
393.696	1	8
394.038	1	11
394.379	1	7
394.721	1	6
395.062	1	8
395.404	1	6
395.746	1	20
396.087	1	7
396.429	1	3
396.770	1	10
397.112	1	17
397.453	1	14
397.795	1	2
398.136	1	4
398.478	1	12
398.819	1	3
399.161	1	15
399.503	1	6
399.844	1	12
400.186	1	12
400.527	1	3
400.869	1	7
401.210	1	8
401.552	1	-2
401.893	1	9
402.235	1	3
402.576	1	5
402.918	1	5
403.259	1	13
403.601	1	0
403.942	1	15
404.284	1	10
404.625	1	8
404.967	1	5
405.308	1	16
405.649	1	4
405.991	1	12
406.332	1	9
406.674	1	-3
407.015	1	13
407.357	1	-3
407.698	1	6
408.040	1	-3
408.381	1	6
408.722	1	-12
409.064	1	6
409.405	1	8
409.747	1	9
410.088	1	1
410.430	1	4
410.771	1	5
411.112	1	4
411.454	1	3
411.795	1	1
412.137	1	13
412.478	1	10
412.819	1	6
413.161	1	4
413.502	1	15
413.844	1	5
414.185	1	1
414.526	1	2
414.868	1	-2
415.209	1	-4
415.550	1	-4
415.892	1	-4
416.233	1	8
416.575	1	14
416.916	1	0
417.257	1	-11
417.599	1	5
417.940	1	7
418.281	1	12
418.623	1	-1
418.964	1	-8
419.305	1	6
419.647	1	1
419.988	1	5
420.329	1	4
420.671	1	15
421.012	1	7
421.353	1	3
421.695	1	4
422.036	1	9
422.377	1	1
422.718	1	3
423.060	1	-2
423.401	1	6
423.742	1	3
424.084	1	0
424.425	1	4
424.766	1	9
425.107	1	5
425.449	1	-4
425.790	1	-9
426.131	1	-7
426.472	1	-3
426.814	1	6
427.155	1	3
427.496	1	1
427.837	1	-11
428.179	1	-6
428.520	1	6
428.861	1	-7
429.202	1	9
429.544	1	7
429.885	1	5
430.226	1	-5
430.567	1	16
430.909	1	4
431.250	1	4
431.591	1	2
431.932	1	-9
432.273	1	4
432.615	1	-3
432.956	1	-2
433.297	1	7
433.638	1	-4
433.979	1	17
434.320	1	-1
434.662	1	-2
435.003	1	4
435.344	1	2
435.685	1	1
436.026	1	7
436.368	1	9
436.709	1	-4
437.050	1	-2
437.391	1	13
437.732	1	0
438.073	1	0
438.414	1	0
438.756	1	-6
439.097	1	-4
439.438	1	-5
439.779	1	1
440.120	1	0
440.461	1	-1
440.802	1	4
441.143	1	5
441.485	1	5
441.826	1	5
442.167	1	3
442.508	1	-3
442.849	1	14
443.190	1	4
443.531	1	16
443.872	1	13
444.213	1	-4
444.554	1	18
444.895	1	4
445.237	1	0
445.578	1	-6
445.919	1	-6
446.260	1	-7
446.601	1	-3
446.942	1	-4
447.283	1	-3
447.624	1	1
447.965	1	-2
448.306	1	0
448.647	1	-6
448.988	1	2
449.329	1	-1
449.670	1	12
450.011	1	11
450.352	1	5
450.693	1	-6
451.034	1	-17
451.375	1	1
451.716	1	3
452.057	1	5
452.398	1	10
452.739	1	2
453.080	1	5
453.421	1	2
453.762	1	4
454.103	1	-1
454.444	1	-2
454.785	1	-3
455.126	1	-4
455.467	1	-5
455.808	1	-1
456.149	1	5
456.490	1	4
456.831	1	7
457.172	1	-4
457.513	1	14
457.854	1	1
458.195	1	-4
458.536	1	3
458.877	1	6
459.218	1	5
459.559	1	5
459.899	1	6
460.240	1	6
460.581	1	10
460.922	1	6
461.263	1	-1
461.604	1	-8
461.945	1	7
462.286	1	5
462.627	1	9
462.968	1	1
463.309	1	-12
463.649	1	0
463.990	1	4
464.331	1	4
464.672	1	-5
465.013	1	0
465.354	1	10
465.695	1	0
466.036	1	3
466.376	1	-6
466.717	1	-4
467.058	1	6
467.399	1	-1
467.740	1	2
468.081	1	-1
468.422	1	1
468.762	1	-4
469.103	1	2
469.444	1	1
469.785	1	-8
470.126	1	-9
470.467	1	2
470.807	1	-4
471.148	1	7
471.489	1	-3
471.830	1	0
472.171	1	6
472.511	1	-1
472.852	1	-1
473.193	1	8
473.534	1	10
473.875	1	16
474.215	1	17
474.556	1	0
474.897	1	7
475.238	1	0
475.578	1	-4
475.919	1	-3
476.260	1	-1
476.601	1	-1
476.942	1	17
477.282	1	2
477.623	1	-10
477.964	1	6
478.305	1	4
478.645	1	8
478.986	1	-3
479.327	1	-4
479.667	1	3
480.008	1	5
480.349	1	6
480.690	1	-4
481.030	1	0
481.371	1	5
481.712	1	9
482.053	1	4
482.393	1	11
482.734	1	-2
483.075	1	0
483.415	1	1
483.756	1	9
484.097	1	5
484.437	1	-3
484.778	1	4
485.119	1	-4
485.459	1	17
485.800	1	1
486.141	1	-3
486.481	1	-4
486.822	1	10
487.163	1	11
487.503	1	0
487.844	1	0
488.185	1	-1
488.525	1	1
488.866	1	8
489.207	1	11
489.547	1	0
489.888	1	-2
490.228	1	11
490.569	1	24
490.910	1	5
491.250	1	2
491.591	1	-4
491.932	1	9
492.272	1	3
492.613	1	-6
492.953	1	2
493.294	1	0
493.635	1	-1
493.975	1	4
494.316	1	15
494.656	1	2
494.997	1	5
495.337	1	9
495.678	1	12
496.019	1	8
496.359	1	-10
496.700	1	4
497.040	1	1
497.381	1	3
497.721	1	5
498.062	1	4
498.403	1	6
498.743	1	2
499.084	1	0
499.424	1	4
499.765	1	2
500.105	1	3
500.446	1	-7
500.786	1	-1
501.127	1	4
501.467	1	-1
501.808	1	11
502.148	1	9
502.489	1	4
502.829	1	8
503.170	1	8
503.510	1	12
503.851	1	3
504.191	1	8
504.532	1	13
504.872	1	3
505.213	1	17
505.553	1	2
505.894	1	0
506.234	1	9
506.575	1	14
506.915	1	17
507.256	1	11
507.596	1	11
507.936	1	15
508.277	1	4
508.617	1	-4
508.958	1	-4
509.298	1	-1
509.639	1	0
509.979	1	-2
510.319	1	15
510.660	1	7
511.000	1	-5
511.341	1	0
511.681	1	5
512.022	1	1
512.362	1	5
512.702	1	4
513.043	1	15
513.383	1	0
513.724	1	9
514.064	1	12
514.404	1	9
514.745	1	6
515.085	1	4
515.425	1	8
515.766	1	-4
516.106	1	-1
516.447	1	15
516.787	1	12
517.127	1	9
517.468	1	5
517.808	1	-2
518.148	1	14
518.489	1	-3
518.829	1	14
519.169	1	20
519.510	1	10
519.850	1	13
520.190	1	10
520.531	1	10
520.871	1	20
521.211	1	-5
521.552	1	21
521.892	1	11
522.232	1	14
522.573	1	7
522.913	1	9
523.253	1	16
523.593	1	10
523.934	1	-1
524.274	1	12
524.614	1	10
524.955	1	10
525.295	1	11
525.635	1	14
525.975	1	13
526.316	1	14
526.656	1	12
526.996	1	14
527.337	1	13
527.677	1	15
528.017	1	-5
528.357	1	9
528.698	1	12
529.038	1	12
529.378	1	17
529.718	1	13
530.058	1	14
530.399	1	12
530.739	1	12
531.079	1	22
531.419	1	5
531.760	1	12
532.100	1	13
532.440	1	2
532.780	1	8
533.120	1	23
533.461	1	14
533.801	1	27
534.141	1	2
534.481	1	-3
534.821	1	11
535.162	1	12
535.502	1	3
535.842	1	16
536.182	1	3
536.522	1	5
536.862	1	18
537.203	1	4
537.543	1	7
537.883	1	7
538.223	1	5
538.563	1	16
538.903	1	5
539.243	1	4
539.584	1	10
539.924	1	15
540.264	1	3
540.604	1	15
540.944	1	7
541.284	1	15
541.624	1	13
541.964	1	22
542.305	1	14
542.645	1	20
542.985	1	9
543.325	1	13
543.665	1	15
544.005	1	16
544.345	1	10
544.685	1	15
545.025	1	11
545.365	1	3
545.705	1	9
546.045	1	6
546.386	1	23
546.726	1	10
547.066	1	11
547.406	1	15
547.746	1	9
548.086	1	6
548.426	1	7
548.766	1	11
549.106	1	19
549.446	1	6
549.786	1	12
550.126	1	28
550.466	1	22
550.806	1	23
551.146	1	8
551.486	1	13
551.826	1	20
552.166	1	10
552.506	1	16
552.846	1	12
553.186	1	16
553.526	1	5
553.866	1	10
554.206	1	19
554.546	1	19
554.886	1	20
555.226	1	8
555.566	1	15
555.906	1	21
556.246	1	13
556.586	1	15
556.926	1	24
557.266	1	8
557.606	1	16
557.946	1	17
558.286	1	1
558.626	1	19
558.966	1	14
559.306	1	19
559.646	1	4
559.986	1	13
560.325	1	3
560.665	1	11
561.005	1	15
561.345	1	15
561.685	1	18
562.025	1	10
562.365	1	14
562.705	1	-3
563.045	1	6
563.385	1	7
563.725	1	15
564.064	1	7
564.404	1	7
564.744	1	9
565.084	1	17
565.424	1	12
565.764	1	16
566.104	1	9
566.444	1	11
566.783	1	8
567.123	1	12
567.463	1	23
567.803	1	9
568.143	1	12
568.483	1	17
568.823	1	9
569.162	1	22
569.502	1	8
569.842	1	16
570.182	1	11
570.522	1	4
570.862	1	8
571.201	1	21
571.541	1	28
571.881	1	20
572.221	1	5
572.561	1	16
572.900	1	7
573.240	1	11
573.580	1	24
573.920	1	20
574.260	1	15
574.599	1	25
574.939	1	12
575.279	1	19
575.619	1	20
575.959	1	6
576.298	1	22
576.638	1	5
576.978	1	13
577.318	1	9
577.657	1	12
577.997	1	7
578.337	1	21
578.677	1	11
579.016	1	19
579.356	1	4
579.696	1	18
580.036	1	-3
580.375	1	13
580.715	1	10
581.055	1	5
581.394	1	11
581.734	1	6
582.074	1	6
582.414	1	24
582.753	1	11
583.093	1	7
583.433	1	19
583.772	1	16
584.112	1	18
584.452	1	17
584.791	1	5
585.131	1	11
585.471	1	13
585.811	1	21
586.150	1	5
586.490	1	15
586.830	1	17
587.169	1	22
587.509	1	10
587.849	1	15
588.188	1	27
588.528	1	18
588.867	1	14
589.207	1	12
589.547	1	16
589.886	1	6
590.226	1	20
590.566	1	8
590.905	1	8
591.245	1	8
591.585	1	11
591.924	1	6
592.264	1	22
592.603	1	6
592.943	1	20
593.283	1	13
593.622	1	7
593.962	1	13
594.301	1	9
594.641	1	5
594.981	1	0
595.320	1	6
595.660	1	-1
595.999	1	3
596.339	1	14
596.678	1	5
597.018	1	4
597.358	1	14
597.697	1	10
598.037	1	10
598.376	1	9
598.716	1	10
599.055	1	22
599.395	1	13
599.734	1	11
600.074	1	16
600.413	1	17
600.753	1	8
601.092	1	9
601.432	1	4
601.771	1	8
602.111	1	8
602.451	1	22
602.790	1	12
603.130	1	9
603.469	1	5
603.809	1	16
604.148	1	11
604.487	1	10
604.827	1	20
605.166	1	26
605.506	1	11
605.845	1	1
606.185	1	15
606.524	1	11
606.864	1	13
607.203	1	7
607.543	1	3
607.882	1	18
608.222	1	18
608.561	1	21
608.901	1	18
609.240	1	13
609.579	1	25
609.919	1	20
610.258	1	11
610.598	1	10
610.937	1	9
611.277	1	9
611.616	1	13
611.955	1	16
612.295	1	7
612.634	1	8
612.974	1	-8
613.313	1	21
613.652	1	11
613.992	1	3
614.331	1	10
614.671	1	16
615.010	1	-1
615.349	1	8
615.689	1	20
616.028	1	4
616.368	1	11
616.707	1	5
617.046	1	13
617.386	1	7
617.725	1	7
618.064	1	12
618.404	1	12
618.743	1	10
619.082	1	13
619.422	1	-2
619.761	1	15
620.100	1	18
620.440	1	6
620.779	1	-2
621.118	1	10
621.458	1	7
621.797	1	7
622.136	1	22
622.476	1	18
622.815	1	16
623.154	1	10
623.494	1	12
623.833	1	23
624.172	1	9
624.511	1	2
624.851	1	3
625.190	1	7
625.529	1	13
625.869	1	11
626.208	1	0
626.547	1	16
626.886	1	8
627.226	1	10
627.565	1	-1
627.904	1	6
628.243	1	11
628.583	1	10
628.922	1	1
629.261	1	12
629.600	1	24
629.940	1	10
630.279	1	1
630.618	1	-2
630.957	1	4
631.297	1	13
631.636	1	-3
631.975	1	19
632.314	1	6
632.653	1	12
632.993	1	6
633.332	1	13
633.671	1	1
634.010	1	0
634.349	1	9
634.689	1	8
635.028	1	10
635.367	1	6
635.706	1	9
636.045	1	16
636.384	1	11
636.724	1	6
637.063	1	5
637.402	1	10
637.741	1	5
638.080	1	4
638.419	1	3
638.759	1	1
639.098	1	14
639.437	1	15
639.776	1	6
640.115	1	-2
640.454	1	-4
640.793	1	12
641.132	1	15
641.472	1	9
641.811	1	0
642.150	1	-5
642.489	1	8
642.828	1	-1
643.167	1	4
643.506	1	-3
643.845	1	11
644.184	1	13
644.524	1	6
644.863	1	-5
645.202	1	3
645.541	1	4
645.880	1	11
646.219	1	15
646.558	1	1
646.897	1	16
647.236	1	4
647.575	1	5
647.914	1	3
648.253	1	14
648.592	1	2
648.931	1	16
649.270	1	2
649.610	1	6
649.949	1	5
650.288	1	6
650.627	1	7
650.966	1	7
651.305	1	8
651.644	1	20
651.983	1	11
652.322	1	2
652.661	1	0
653.000	1	1
653.339	1	12
653.678	1	10
654.017	1	7
654.356	1	2
654.695	1	11
655.034	1	9
655.373	1	13
655.712	1	11
656.051	1	4
656.390	1	0
656.729	1	17
657.068	1	12
657.406	1	10
657.745	1	9
658.084	1	9
658.423	1	10
658.762	1	7
659.101	1	14
659.440	1	5
659.779	1	10
660.118	1	6
660.457	1	7
660.796	1	-5
661.135	1	0
661.474	1	-1
661.813	1	21
662.152	1	1
662.491	1	2
662.829	1	-1
663.168	1	11
663.507	1	12
663.846	1	2
664.185	1	6
664.524	1	8
664.863	1	2
665.202	1	3
665.541	1	2
665.879	1	-11
666.218	1	0
666.557	1	6
666.896	1	-6
667.235	1	3
667.574	1	7
667.913	1	8
668.251	1	-9
668.590	1	13
668.929	1	-7
669.268	1	6
669.607	1	0
669.946	1	5
670.285	1	6
670.623	1	2
670.962	1	14
671.301	1	6
671.640	1	9
671.979	1	5
672.317	1	11
672.656	1	5
672.995	1	9
673.334	1	1
673.673	1	1
674.011	1	-2
674.350	1	5
674.689	1	3
675.028	1	9
675.367	1	9
675.705	1	10
676.044	1	3
676.383	1	17
676.722	1	10
677.060	1	4
677.399	1	-1
677.738	1	9
678.077	1	22
678.416	1	0
678.754	1	10
679.093	1	10
679.432	1	-2
679.771	1	7
680.109	1	8
680.448	1	10
680.787	1	7
681.125	1	5
681.464	1	3
681.803	1	4
682.142	1	3
682.480	1	14
682.819	1	8
683.158	1	8
683.496	1	1
683.835	1	6
684.174	1	6
684.512	1	13
684.851	1	6
685.190	1	-2
685.529	1	12
685.867	1	1
686.206	1	8
686.545	1	-7
686.883	1	0
687.222	1	13
687.561	1	8
687.899	1	9
688.238	1	4
688.577	1	-5
688.746	1	3