File: Data/GaN_200K_800ms/GaN_sample F_spot 12_UVVIS_200 K_200um_800 ms 2x2mm1_138.txt
340.368	1	3
340.710	1	-10
341.052	1	8
341.394	1	0
341.737	1	14
342.079	1	-8
342.421	1	-4
342.763	1	12
343.105	1	7
343.447	1	-3
343.789	1	6
344.131	1	-10
344.473	1	-3
344.815	1	0
345.157	1	-2
345.499	1	-4
345.841	1	7
346.183	1	-2
346.526	1	-1
346.868	1	6
347.210	1	-3
347.552	1	-5
347.894	1	-1
348.236	1	8
348.578	1	-2
348.920	1	-3
349.262	1	-2
349.604	1	7
349.946	1	1
350.288	1	14
350.630	1	6
350.972	1	-7
351.314	1	8
351.656	1	8
351.998	1	10
352.340	1	0
352.682	1	7
353.024	1	3
353.366	1	15
353.708	1	7
354.050	1	1
354.392	1	-4
354.734	1	13
355.076	1	6
355.418	1	0
355.760	1	-3
356.102	1	13
356.444	1	13
356.785	1	11
357.127	1	0
357.469	1	12
357.811	1	8
358.153	1	7
358.495	1	14
358.837	1	3
359.179	1	11
359.521	1	17
359.863	1	13
360.205	1	8
360.547	1	14
360.889	1	-2
361.231	1	17
361.572	1	20
361.914	1	18
362.256	1	22
362.598	1	14
362.940	1	22
363.282	1	20
363.624	1	24
363.966	1	19
364.308	1	24
364.649	1	39
364.991	1	23
365.333	1	44
365.675	1	31
366.017	1	37
366.359	1	43
366.701	1	35
367.042	1	45
367.384	1	61
367.726	1	55
368.068	1	56
368.410	1	58
368.752	1	38
369.093	1	54
369.435	1	66
369.777	1	50
370.119	1	52
370.461	1	66
370.803	1	62
371.144	1	47
371.486	1	49
371.828	1	46
372.170	1	53
372.512	1	41
372.853	1	48
373.195	1	44
373.537	1	43
373.879	1	27
374.220	1	51
374.562	1	48
374.904	1	31
375.246	1	33
375.588	1	35
375.929	1	35
376.271	1	41
376.613	1	31
376.955	1	24
377.296	1	24
377.638	1	28
377.980	1	33
378.321	1	26
378.663	1	25
379.005	1	17
379.347	1	31
379.688	1	13
380.030	1	13
380.372	1	21
380.714	1	25
381.055	1	29
381.397	1	25
381.739	1	22
382.080	1	17
382.422	1	15
382.764	1	10
383.105	1	2
383.447	1	3
383.789	1	12
384.130	1	15
384.472	1	6
384.814	1	12
385.156	1	6
385.497	1	11
385.839	1	3
386.180	1	13
386.522	1	11
386.864	1	17
387.205	1	6
387.547	1	4
387.889	1	-4
388.230	1	19
388.572	1	2
388.914	1	7
389.255	1	4
389.597	1	12
389.939	1	17
390.280	1	13
390.622	1	11
390.963	1	9
391.305	1	3
391.647	1	1
391.988	1	16
392.330	1	7
392.671	1	1
393.013	1	0
393.355	1	11
393.696	1	17
394.038	1	0
394.379	1	5
394.721	1	3
395.062	1	6
395.404	1	-4
395.746	1	16
396.087	1	-2
396.429	1	1
396.770	1	-7
397.112	1	9
397.453	1	9
397.795	1	8
398.136	1	-6
398.478	1	-1
398.819	1	3
399.161	1	11
399.503	1	10
399.844	1	6
400.186	1	4
400.527	1	4
400.869	1	-1
401.210	1	2
401.552	1	-5
401.893	1	7
402.235	1	13
402.576	1	2
402.918	1	4
403.259	1	6
403.601	1	6
403.942	1	5
404.284	1	13
404.625	1	6
404.967	1	8
405.308	1	3
405.649	1	3
405.991	1	8
406.332	1	1
406.674	1	-5
407.015	1	-4
407.357	1	1
407.698	1	-4
408.040	1	0
408.381	1	9
408.722	1	-20
409.064	1	3
409.405	1	4
409.747	1	0
410.088	1	-1
410.430	1	10
410.771	1	8
411.112	1	1
411.454	1	-7
411.795	1	-4
412.137	1	11
412.478	1	10
412.819	1	2
413.161	1	-4
413.502	1	7
413.844	1	6
414.185	1	4
414.526	1	3
414.868	1	3
415.209	1	4
415.550	1	-1
415.892	1	10
416.233	1	7
416.575	1	12
416.916	1	-1
417.257	1	2
417.599	1	11
417.940	1	10
418.281	1	0
418.623	1	-1
418.964	1	-8
419.305	1	-1
419.647	1	-2
419.988	1	0
420.329	1	-7
420.671	1	8
421.012	1	-1
421.353	1	3
421.695	1	-2
422.036	1	9
422.377	1	1
422.718	1	15
423.060	1	-12
423.401	1	0
423.742	1	4
424.084	1	7
424.425	1	3
424.766	1	2
425.107	1	-1
425.449	1	-5
425.790	1	-4
426.131	1	-6
426.472	1	2
426.814	1	4
427.155	1	1
427.496	1	1
427.837	1	-3
428.179	1	-8
428.520	1	0
428.861	1	0
429.202	1	11
429.544	1	1
429.885	1	0
430.226	1	-7
430.567	1	-1
430.909	1	1
431.250	1	5
431.591	1	2
431.932	1	0
432.273	1	3
432.615	1	-5
432.956	1	-8
433.297	1	3
433.638	1	-7
433.979	1	14
434.320	1	2
434.662	1	7
435.003	1	3
435.344	1	-1
435.685	1	6
436.026	1	9
436.368	1	1
436.709	1	3
437.050	1	-1
437.391	1	12
437.732	1	-6
438.073	1	-1
438.414	1	-6
438.756	1	2
439.097	1	1
439.438	1	-1
439.779	1	6
440.120	1	0
440.461	1	-2
440.802	1	-2
441.143	1	12
441.485	1	5
441.826	1	2
442.167	1	1
442.508	1	-4
442.849	1	11
443.190	1	4
443.531	1	9
443.872	1	11
444.213	1	9
444.554	1	16
444.895	1	4
445.237	1	-4
445.578	1	0
445.919	1	-7
446.260	1	-1
446.601	1	-10
446.942	1	-1
447.283	1	1
447.624	1	2
447.965	1	1
448.306	1	1
448.647	1	-5
448.988	1	2
449.329	1	9
449.670	1	13
450.011	1	8
450.352	1	4
450.693	1	-7
451.034	1	3
451.375	1	1
451.716	1	-2
452.057	1	-6
452.398	1	6
452.739	1	5
453.080	1	-1
453.421	1	5
453.762	1	-2
454.103	1	11
454.444	1	-11
454.785	1	-5
455.126	1	-4
455.467	1	-3
455.808	1	1
456.149	1	1
456.490	1	9
456.831	1	4
457.172	1	1
457.513	1	4
457.854	1	0
458.195	1	0
458.536	1	-2
458.877	1	-4
459.218	1	-2
459.559	1	7
459.899	1	-9
460.240	1	2
460.581	1	14
460.922	1	1
461.263	1	8
461.604	1	2
461.945	1	-1
462.286	1	-1
462.627	1	16
462.968	1	7
463.309	1	-4
463.649	1	-4
463.990	1	0
464.331	1	-6
464.672	1	4
465.013	1	0
465.354	1	7
465.695	1	-4
466.036	1	0
466.376	1	-1
466.717	1	3
467.058	1	-10
467.399	1	5
467.740	1	-6
468.081	1	6
468.422	1	-2
468.762	1	-1
469.103	1	2
469.444	1	2
469.785	1	-12
470.126	1	-8
470.467	1	1
470.807	1	-2
471.148	1	4
471.489	1	8
471.830	1	0
472.171	1	4
472.511	1	0
472.852	1	1
473.193	1	6
473.534	1	8
473.875	1	14
474.215	1	9
474.556	1	-3
474.897	1	-3
475.238	1	1
475.578	1	-10
475.919	1	-3
476.260	1	-1
476.601	1	4
476.942	1	4
477.282	1	-8
477.623	1	-8
477.964	1	1
478.305	1	-1
478.645	1	11
478.986	1	0
479.327	1	-1
479.667	1	0
480.008	1	-11
480.349	1	2
480.690	1	2
481.030	1	-2
481.371	1	5
481.712	1	5
482.053	1	8
482.393	1	-2
482.734	1	0
483.075	1	2
483.415	1	5
483.756	1	3
484.097	1	1
484.437	1	-5
484.778	1	11
485.119	1	0
485.459	1	19
485.800	1	-6
486.141	1	-5
486.481	1	11
486.822	1	1
487.163	1	1
487.503	1	-2
487.844	1	5
488.185	1	9
488.525	1	3
488.866	1	6
489.207	1	-4
489.547	1	0
489.888	1	1
490.228	1	10
490.569	1	10
490.910	1	7
491.250	1	-4
491.591	1	3
491.932	1	1
492.272	1	3
492.613	1	-6
492.953	1	-3
493.294	1	-8
493.635	1	-4
493.975	1	-8
494.316	1	4
494.656	1	1
494.997	1	2
495.337	1	5
495.678	1	-2
496.019	1	5
496.359	1	3
496.700	1	0
497.040	1	0
497.381	1	-2
497.721	1	-2
498.062	1	-5
498.403	1	3
498.743	1	4
499.084	1	-7
499.424	1	9
499.765	1	-1
500.105	1	4
500.446	1	-5
500.786	1	0
501.127	1	3
501.467	1	-1
501.808	1	8
502.148	1	12
502.489	1	9
502.829	1	4
503.170	1	11
503.510	1	2
503.851	1	13
504.191	1	10
504.532	1	0
504.872	1	6
505.213	1	11
505.553	1	7
505.894	1	-12
506.234	1	18
506.575	1	9
506.915	1	12
507.256	1	2
507.596	1	0
507.936	1	0
508.277	1	-8
508.617	1	-5
508.958	1	-3
509.298	1	5
509.639	1	2
509.979	1	10
510.319	1	7
510.660	1	3
511.000	1	0
511.341	1	7
511.681	1	-3
512.022	1	-2
512.362	1	-2
512.702	1	-2
513.043	1	8
513.383	1	-2
513.724	1	3
514.064	1	16
514.404	1	6
514.745	1	-1
515.085	1	-5
515.425	1	-1
515.766	1	-5
516.106	1	11
516.447	1	18
516.787	1	3
517.127	1	5
517.468	1	2
517.808	1	-2
518.148	1	1
518.489	1	-1
518.829	1	5
519.169	1	2
519.510	1	4
519.850	1	21
520.190	1	6
520.531	1	2
520.871	1	5
521.211	1	1
521.552	1	10
521.892	1	-4
522.232	1	6
522.573	1	1
522.913	1	11
523.253	1	3
523.593	1	2
523.934	1	5
524.274	1	6
524.614	1	4
524.955	1	-2
525.295	1	10
525.635	1	7
525.975	1	-2
526.316	1	10
526.656	1	-3
526.996	1	11
527.337	1	1
527.677	1	12
528.017	1	-5
528.357	1	1
528.698	1	-5
529.038	1	4
529.378	1	13
529.718	1	7
530.058	1	8
530.399	1	14
530.739	1	10
531.079	1	15
531.419	1	3
531.760	1	2
532.100	1	-5
532.440	1	-3
532.780	1	4
533.120	1	9
533.461	1	0
533.801	1	4
534.141	1	-5
534.481	1	-2
534.821	1	18
535.162	1	10
535.502	1	-1
535.842	1	0
536.182	1	3
536.522	1	-2
536.862	1	16
537.203	1	-3
537.543	1	3
537.883	1	4
538.223	1	5
538.563	1	11
538.903	1	3
539.243	1	2
539.584	1	4
539.924	1	9
540.264	1	0
540.604	1	8
540.944	1	3
541.284	1	11
541.624	1	15
541.964	1	15
542.305	1	15
542.645	1	12
542.985	1	9
543.325	1	7
543.665	1	9
544.005	1	17
544.345	1	10
544.685	1	1
545.025	1	2
545.365	1	5
545.705	1	11
546.045	1	1
546.386	1	15
546.726	1	-2
547.066	1	7
547.406	1	2
547.746	1	5
548.086	1	6
548.426	1	8
548.766	1	9
549.106	1	9
549.446	1	8
549.786	1	-3
550.126	1	9
550.466	1	8
550.806	1	10
551.146	1	-2
551.486	1	4
551.826	1	11
552.166	1	-2
552.506	1	10
552.846	1	0
553.186	1	13
553.526	1	8
553.866	1	3
554.206	1	6
554.546	1	6
554.886	1	14
555.226	1	-8
555.566	1	2
555.906	1	11
556.246	1	5
556.586	1	0
556.926	1	11
557.266	1	1
557.606	1	12
557.946	1	14
558.286	1	6
558.626	1	18
558.966	1	15
559.306	1	2
559.646	1	7
559.986	1	-1
560.325	1	-3
560.665	1	5
561.005	1	3
561.345	1	7
561.685	1	3
562.025	1	10
562.365	1	9
562.705	1	11
563.045	1	1
563.385	1	0
563.725	1	9
564.064	1	2
564.404	1	-1
564.744	1	10
565.084	1	3
565.424	1	3
565.764	1	0
566.104	1	7
566.444	1	3
566.783	1	-1
567.123	1	14
567.463	1	-1
567.803	1	-4
568.143	1	2
568.483	1	10
568.823	1	6
569.162	1	12
569.502	1	7
569.842	1	9
570.182	1	-1
570.522	1	0
570.862	1	5
571.201	1	28
571.541	1	6
571.881	1	16
572.221	1	8
572.561	1	1
572.900	1	4
573.240	1	7
573.580	1	8
573.920	1	24
574.260	1	13
574.599	1	4
574.939	1	12
575.279	1	17
575.619	1	13
575.959	1	1
576.298	1	4
576.638	1	2
576.978	1	11
577.318	1	18
577.657	1	-3
577.997	1	5
578.337	1	17
578.677	1	0
579.016	1	17
579.356	1	-2
579.696	1	11
580.036	1	-6
580.375	1	10
580.715	1	2
581.055	1	5
581.394	1	0
581.734	1	-6
582.074	1	4
582.414	1	19
582.753	1	-2
583.093	1	3
583.433	1	3
583.772	1	13
584.112	1	5
584.452	1	6
584.791	1	-1
585.131	1	2
585.471	1	14
585.811	1	7
586.150	1	2
586.490	1	17
586.830	1	6
587.169	1	9
587.509	1	6
587.849	1	7
588.188	1	12
588.528	1	10
588.867	1	3
589.207	1	3
589.547	1	1
589.886	1	4
590.226	1	8
590.566	1	-2
590.905	1	-5
591.245	1	2
591.585	1	7
591.924	1	12
592.264	1	4
592.603	1	13
592.943	1	5
593.283	1	6
593.622	1	11
593.962	1	10
594.301	1	12
594.641	1	-2
594.981	1	0
595.320	1	11
595.660	1	8
595.999	1	-3
596.339	1	9
596.678	1	0
597.018	1	2
597.358	1	6
597.697	1	0
598.037	1	9
598.376	1	8
598.716	1	7
599.055	1	7
599.395	1	11
599.734	1	-1
600.074	1	8
600.413	1	3
600.753	1	9
601.092	1	16
601.432	1	-7
601.771	1	0
602.111	1	3
602.451	1	17
602.790	1	3
603.130	1	10
603.469	1	2
603.809	1	7
604.148	1	8
604.487	1	2
604.827	1	9
605.166	1	6
605.506	1	2
605.845	1	1
606.185	1	10
606.524	1	14
606.864	1	-2
607.203	1	2
607.543	1	9
607.882	1	8
608.222	1	11
608.561	1	6
608.901	1	5
609.240	1	7
609.579	1	9
609.919	1	4
610.258	1	9
610.598	1	2
610.937	1	1
611.277	1	8
611.616	1	-6
611.955	1	5
612.295	1	-1
612.634	1	-2
612.974	1	-11
613.313	1	10
613.652	1	0
613.992	1	-5
614.331	1	8
614.671	1	9
615.010	1	-8
615.349	1	14
615.689	1	14
616.028	1	4
616.368	1	9
616.707	1	4
617.046	1	9
617.386	1	8
617.725	1	3
618.064	1	-3
618.404	1	-1
618.743	1	12
619.082	1	-1
619.422	1	-5
619.761	1	-3
620.100	1	6
620.440	1	1
620.779	1	1
621.118	1	4
621.458	1	9
621.797	1	1
622.136	1	5
622.476	1	3
622.815	1	7
623.154	1	2
623.494	1	14
623.833	1	15
624.172	1	-4
624.511	1	-3
624.851	1	-8
625.190	1	12
625.529	1	-2
625.869	1	9
626.208	1	9
626.547	1	-4
626.886	1	6
627.226	1	1
627.565	1	1
627.904	1	8
628.243	1	3
628.583	1	7
628.922	1	4
629.261	1	6
629.600	1	14
629.940	1	1
630.279	1	-8
630.618	1	-4
630.957	1	2
631.297	1	11
631.636	1	-5
631.975	1	20
632.314	1	2
632.653	1	4
632.993	1	13
633.332	1	5
633.671	1	-1
634.010	1	1
634.349	1	6
634.689	1	8
635.028	1	2
635.367	1	4
635.706	1	13
636.045	1	10
636.384	1	-3
636.724	1	4
637.063	1	-7
637.402	1	10
637.741	1	3
638.080	1	-6
638.419	1	0
638.759	1	-5
639.098	1	8
639.437	1	4
639.776	1	-4
640.115	1	-1
640.454	1	-6
640.793	1	7
641.132	1	8
641.472	1	-1
641.811	1	0
642.150	1	-4
642.489	1	6
642.828	1	-1
643.167	1	-7
643.506	1	-5
643.845	1	3
644.184	1	4
644.524	1	1
644.863	1	-2
645.202	1	9
645.541	1	11
645.880	1	4
646.219	1	1
646.558	1	8
646.897	1	1
647.236	1	9
647.575	1	7
647.914	1	0
648.253	1	12
648.592	1	0
648.931	1	10
649.270	1	2
649.610	1	10
649.949	1	-3
650.288	1	11
650.627	1	4
650.966	1	12
651.305	1	-1
651.644	1	12
651.983	1	-2
652.322	1	-7
652.661	1	4
653.000	1	3
653.339	1	9
653.678	1	-4
654.017	1	3
654.356	1	3
654.695	1	-3
655.034	1	3
655.373	1	6
655.712	1	9
656.051	1	0
656.390	1	1
656.729	1	11
657.068	1	3
657.406	1	9
657.745	1	4
658.084	1	13
658.423	1	5
658.762	1	-2
659.101	1	16
659.440	1	-10
659.779	1	2
660.118	1	1
660.457	1	5
660.796	1	-9
661.135	1	4
661.474	1	3
661.813	1	13
662.152	1	0
662.491	1	4
662.829	1	-6
663.168	1	-1
663.507	1	8
663.846	1	-5
664.185	1	0
664.524	1	-1
664.863	1	-6
665.202	1	2
665.541	1	-9
665.879	1	-8
666.218	1	3
666.557	1	-3
666.896	1	-9
667.235	1	4
667.574	1	3
667.913	1	14
668.251	1	1
668.590	1	-8
668.929	1	-18
669.268	1	-9
669.607	1	-4
669.946	1	4
670.285	1	12
670.623	1	-4
670.962	1	6
671.301	1	5
671.640	1	2
671.979	1	-6
672.317	1	1
672.656	1	3
672.995	1	2
673.334	1	-7
673.673	1	2
674.011	1	-1
674.350	1	-5
674.689	1	4
675.028	1	-1
675.367	1	16
675.705	1	15
676.044	1	-4
676.383	1	-5
676.722	1	1
677.060	1	1
677.399	1	0
677.738	1	5
678.077	1	6
678.416	1	9
678.754	1	-4
679.093	1	7
679.432	1	-1
679.771	1	3
680.109	1	13
680.448	1	0
680.787	1	-4
681.125	1	4
681.464	1	3
681.803	1	-1
682.142	1	5
682.480	1	22
682.819	1	6
683.158	1	3
683.496	1	2
683.835	1	3
684.174	1	0
684.512	1	8
684.851	1	-1
685.190	1	3
685.529	1	0
685.867	1	8
686.206	1	-1
686.545	1	-4
686.883	1	-2
687.222	1	9
687.561	1	-1
687.899	1	8
688.238	1	1
688.577	1	3
688.746	1	-5