File: Data/GaN_200K_800ms/GaN_sample F_spot 12_UVVIS_200 K_200um_800 ms 2x2mm1_517.txt
340.368	1	5
340.710	1	-12
341.052	1	2
341.394	1	-1
341.737	1	12
342.079	1	-9
342.421	1	2
342.763	1	3
343.105	1	0
343.447	1	-7
343.789	1	1
344.131	1	-1
344.473	1	-7
344.815	1	1
345.157	1	-2
345.499	1	8
345.841	1	7
346.183	1	-11
346.526	1	-3
346.868	1	-8
347.210	1	-3
347.552	1	-1
347.894	1	-7
348.236	1	1
348.578	1	0
348.920	1	-5
349.262	1	-2
349.604	1	-3
349.946	1	-9
350.288	1	6
350.630	1	-2
350.972	1	-1
351.314	1	3
351.656	1	5
351.998	1	3
352.340	1	-7
352.682	1	3
353.024	1	6
353.366	1	4
353.708	1	-7
354.050	1	-17
354.392	1	-4
354.734	1	4
355.076	1	-5
355.418	1	-7
355.760	1	-9
356.102	1	7
356.444	1	10
356.785	1	9
357.127	1	-2
357.469	1	-1
357.811	1	-4
358.153	1	3
358.495	1	3
358.837	1	-2
359.179	1	-1
359.521	1	5
359.863	1	5
360.205	1	-7
360.547	1	-2
360.889	1	-5
361.231	1	0
361.572	1	5
361.914	1	5
362.256	1	-6
362.598	1	-12
362.940	1	-9
363.282	1	4
363.624	1	-3
363.966	1	-4
364.308	1	5
364.649	1	11
364.991	1	11
365.333	1	-3
365.675	1	3
366.017	1	10
366.359	1	3
366.701	1	-3
367.042	1	0
367.384	1	14
367.726	1	-1
368.068	1	11
368.410	1	14
368.752	1	-7
369.093	1	3
369.435	1	10
369.777	1	6
370.119	1	-3
370.461	1	17
370.803	1	19
371.144	1	8
371.486	1	11
371.828	1	15
372.170	1	11
372.512	1	0
372.853	1	1
373.195	1	0
373.537	1	6
373.879	1	-2
374.220	1	15
374.562	1	9
374.904	1	5
375.246	1	3
375.588	1	9
375.929	1	11
376.271	1	2
376.613	1	3
376.955	1	-5
377.296	1	-1
377.638	1	-2
377.980	1	8
378.321	1	-9
378.663	1	-6
379.005	1	0
379.347	1	-2
379.688	1	4
380.030	1	-2
380.372	1	8
380.714	1	0
381.055	1	1
381.397	1	-6
381.739	1	9
382.080	1	0
382.422	1	4
382.764	1	-5
383.105	1	-11
383.447	1	-1
383.789	1	0
384.130	1	3
384.472	1	-8
384.814	1	3
385.156	1	-6
385.497	1	5
385.839	1	4
386.180	1	-6
386.522	1	9
386.864	1	6
387.205	1	0
387.547	1	-2
387.889	1	0
388.230	1	3
388.572	1	2
388.914	1	1
389.255	1	-5
389.597	1	1
389.939	1	-9
390.280	1	-2
390.622	1	-12
390.963	1	0
391.305	1	2
391.647	1	-5
391.988	1	5
392.330	1	4
392.671	1	-8
393.013	1	-5
393.355	1	6
393.696	1	-1
394.038	1	2
394.379	1	2
394.721	1	-6
395.062	1	0
395.404	1	-13
395.746	1	5
396.087	1	-10
396.429	1	-1
396.770	1	1
397.112	1	11
397.453	1	4
397.795	1	-3
398.136	1	0
398.478	1	1
398.819	1	3
399.161	1	4
399.503	1	5
399.844	1	1
400.186	1	2
400.527	1	-5
400.869	1	-7
401.210	1	1
401.552	1	-9
401.893	1	-13
402.235	1	6
402.576	1	-1
402.918	1	4
403.259	1	2
403.601	1	6
403.942	1	8
404.284	1	12
404.625	1	-4
404.967	1	-2
405.308	1	2
405.649	1	-4
405.991	1	-8
406.332	1	8
406.674	1	-10
407.015	1	3
407.357	1	-10
407.698	1	9
408.040	1	-1
408.381	1	6
408.722	1	-17
409.064	1	2
409.405	1	6
409.747	1	1
410.088	1	1
410.430	1	3
410.771	1	5
411.112	1	6
411.454	1	-2
411.795	1	-8
412.137	1	2
412.478	1	9
412.819	1	-8
413.161	1	-6
413.502	1	-2
413.844	1	4
414.185	1	-2
414.526	1	-5
414.868	1	-7
415.209	1	-3
415.550	1	-5
415.892	1	2
416.233	1	0
416.575	1	6
416.916	1	0
417.257	1	-1
417.599	1	0
417.940	1	-1
418.281	1	9
418.623	1	-3
418.964	1	-7
419.305	1	12
419.647	1	-6
419.988	1	4
420.329	1	-3
420.671	1	3
421.012	1	0
421.353	1	-7
421.695	1	-1
422.036	1	3
422.377	1	0
422.718	1	-3
423.060	1	-6
423.401	1	2
423.742	1	5
424.084	1	6
424.425	1	3
424.766	1	-2
425.107	1	-4
425.449	1	-8
425.790	1	-9
426.131	1	1
426.472	1	2
426.814	1	-3
427.155	1	-2
427.496	1	-3
427.837	1	-3
428.179	1	-4
428.520	1	-5
428.861	1	-4
429.202	1	0
429.544	1	-4
429.885	1	-3
430.226	1	1
430.567	1	3
430.909	1	-2
431.250	1	-3
431.591	1	7
431.932	1	-6
432.273	1	-3
432.615	1	-12
432.956	1	-12
433.297	1	2
433.638	1	-11
433.979	1	-4
434.320	1	-2
434.662	1	0
435.003	1	5
435.344	1	-3
435.685	1	-6
436.026	1	5
436.368	1	5
436.709	1	1
437.050	1	-1
437.391	1	3
437.732	1	-10
438.073	1	-1
438.414	1	-1
438.756	1	-8
439.097	1	-17
439.438	1	-4
439.779	1	-9
440.120	1	-1
440.461	1	-1
440.802	1	-8
441.143	1	8
441.485	1	4
441.826	1	-8
442.167	1	-1
442.508	1	-10
442.849	1	3
443.190	1	-6
443.531	1	6
443.872	1	4
444.213	1	8
444.554	1	5
444.895	1	-2
445.237	1	-8
445.578	1	-5
445.919	1	-5
446.260	1	-2
446.601	1	-4
446.942	1	0
447.283	1	-8
447.624	1	0
447.965	1	4
448.306	1	-1
448.647	1	-8
448.988	1	-5
449.329	1	1
449.670	1	5
450.011	1	8
450.352	1	-1
450.693	1	-10
451.034	1	-7
451.375	1	-5
451.716	1	-7
452.057	1	-2
452.398	1	-2
452.739	1	2
453.080	1	-6
453.421	1	-6
453.762	1	1
454.103	1	3
454.444	1	-14
454.785	1	-6
455.126	1	-4
455.467	1	-7
455.808	1	-1
456.149	1	-5
456.490	1	2
456.831	1	5
457.172	1	-4
457.513	1	-1
457.854	1	-1
458.195	1	0
458.536	1	5
458.877	1	-2
459.218	1	1
459.559	1	9
459.899	1	4
460.240	1	-4
460.581	1	11
460.922	1	-1
461.263	1	-1
461.604	1	-13
461.945	1	-5
462.286	1	-1
462.627	1	4
462.968	1	7
463.309	1	-1
463.649	1	-2
463.990	1	-12
464.331	1	-2
464.672	1	6
465.013	1	-5
465.354	1	1
465.695	1	-1
466.036	1	0
466.376	1	-13
466.717	1	2
467.058	1	0
467.399	1	6
467.740	1	-1
468.081	1	3
468.422	1	2
468.762	1	-3
469.103	1	-7
469.444	1	-14
469.785	1	-13
470.126	1	-15
470.467	1	-5
470.807	1	-5
471.148	1	5
471.489	1	1
471.830	1	-1
472.171	1	0
472.511	1	-8
472.852	1	0
473.193	1	3
473.534	1	11
473.875	1	13
474.215	1	9
474.556	1	-6
474.897	1	4
475.238	1	-7
475.578	1	-5
475.919	1	0
476.260	1	1
476.601	1	4
476.942	1	8
477.282	1	3
477.623	1	-12
477.964	1	-11
478.305	1	-6
478.645	1	5
478.986	1	1
479.327	1	-9
479.667	1	2
480.008	1	-4
480.349	1	-1
480.690	1	-12
481.030	1	-10
481.371	1	5
481.712	1	2
482.053	1	-2
482.393	1	6
482.734	1	-12
483.075	1	-10
483.415	1	-1
483.756	1	4
484.097	1	-1
484.437	1	-3
484.778	1	-1
485.119	1	-4
485.459	1	9
485.800	1	-2
486.141	1	-12
486.481	1	-10
486.822	1	4
487.163	1	12
487.503	1	-4
487.844	1	-2
488.185	1	3
488.525	1	2
488.866	1	1
489.207	1	-2
489.547	1	-1
489.888	1	-4
490.228	1	-5
490.569	1	7
490.910	1	4
491.250	1	-2
491.591	1	-11
491.932	1	-10
492.272	1	7
492.613	1	-6
492.953	1	-3
493.294	1	-3
493.635	1	-6
493.975	1	3
494.316	1	-5
494.656	1	8
494.997	1	-6
495.337	1	9
495.678	1	1
496.019	1	-5
496.359	1	-1
496.700	1	2
497.040	1	1
497.381	1	-1
497.721	1	-5
498.062	1	-2
498.403	1	-2
498.743	1	-9
499.084	1	1
499.424	1	-5
499.765	1	0
500.105	1	1
500.446	1	-11
500.786	1	-14
501.127	1	-2
501.467	1	-7
501.808	1	3
502.148	1	1
502.489	1	5
502.829	1	1
503.170	1	7
503.510	1	14
503.851	1	-8
504.191	1	4
504.532	1	-4
504.872	1	-4
505.213	1	3
505.553	1	-11
505.894	1	-13
506.234	1	6
506.575	1	-3
506.915	1	2
507.256	1	6
507.596	1	6
507.936	1	-4
508.277	1	4
508.617	1	1
508.958	1	-6
509.298	1	-3
509.639	1	0
509.979	1	-1
510.319	1	0
510.660	1	-3
511.000	1	-8
511.341	1	-3
511.681	1	5
512.022	1	-14
512.362	1	-11
512.702	1	-5
513.043	1	-3
513.383	1	-3
513.724	1	2
514.064	1	6
514.404	1	-6
514.745	1	-2
515.085	1	-3
515.425	1	-6
515.766	1	-8
516.106	1	6
516.447	1	11
516.787	1	2
517.127	1	-6
517.468	1	0
517.808	1	-11
518.148	1	-3
518.489	1	-1
518.829	1	2
519.169	1	-6
519.510	1	8
519.850	1	3
520.190	1	2
520.531	1	10
520.871	1	0
521.211	1	-5
521.552	1	-2
521.892	1	-2
522.232	1	3
522.573	1	5
522.913	1	0
523.253	1	-7
523.593	1	0
523.934	1	-5
524.274	1	4
524.614	1	-1
524.955	1	-10
525.295	1	-2
525.635	1	6
525.975	1	-8
526.316	1	12
526.656	1	-6
526.996	1	3
527.337	1	-4
527.677	1	-3
528.017	1	-10
528.357	1	-1
528.698	1	5
529.038	1	4
529.378	1	4
529.718	1	4
530.058	1	-4
530.399	1	2
530.739	1	-2
531.079	1	-3
531.419	1	-2
531.760	1	0
532.100	1	-9
532.440	1	-2
532.780	1	1
533.120	1	-4
533.461	1	-1
533.801	1	13
534.141	1	-14
534.481	1	-13
534.821	1	9
535.162	1	-4
535.502	1	-4
535.842	1	8
536.182	1	-10
536.522	1	-8
536.862	1	4
537.203	1	-8
537.543	1	-2
537.883	1	0
538.223	1	1
538.563	1	14
538.903	1	-7
539.243	1	-8
539.584	1	-2
539.924	1	9
540.264	1	0
540.604	1	4
540.944	1	1
541.284	1	3
541.624	1	7
541.964	1	4
542.305	1	18
542.645	1	5
542.985	1	2
543.325	1	1
543.665	1	11
544.005	1	6
544.345	1	2
544.685	1	11
545.025	1	3
545.365	1	-3
545.705	1	2
546.045	1	-10
546.386	1	2
546.726	1	-6
547.066	1	-2
547.406	1	-3
547.746	1	-9
548.086	1	0
548.426	1	-7
548.766	1	-8
549.106	1	0
549.446	1	-5
549.786	1	4
550.126	1	0
550.466	1	3
550.806	1	-5
551.146	1	0
551.486	1	1
551.826	1	-2
552.166	1	-3
552.506	1	-3
552.846	1	-1
553.186	1	13
553.526	1	-10
553.866	1	-3
554.206	1	1
554.546	1	5
554.886	1	4
555.226	1	-16
555.566	1	-1
555.906	1	2
556.246	1	-1
556.586	1	9
556.926	1	-6
557.266	1	-2
557.606	1	0
557.946	1	-4
558.286	1	4
558.626	1	7
558.966	1	1
559.306	1	-2
559.646	1	-1
559.986	1	-8
560.325	1	-10
560.665	1	4
561.005	1	-13
561.345	1	2
561.685	1	7
562.025	1	-5
562.365	1	-3
562.705	1	-4
563.045	1	-4
563.385	1	-9
563.725	1	0
564.064	1	1
564.404	1	3
564.744	1	4
565.084	1	-6
565.424	1	7
565.764	1	-1
566.104	1	3
566.444	1	0
566.783	1	-4
567.123	1	4
567.463	1	-3
567.803	1	-10
568.143	1	-1
568.483	1	-3
568.823	1	1
569.162	1	-2
569.502	1	-9
569.842	1	7
570.182	1	9
570.522	1	-8
570.862	1	-6
571.201	1	7
571.541	1	9
571.881	1	10
572.221	1	-2
572.561	1	-2
572.900	1	-7
573.240	1	1
573.580	1	0
573.920	1	2
574.260	1	9
574.599	1	-4
574.939	1	0
575.279	1	10
575.619	1	11
575.959	1	-13
576.298	1	11
576.638	1	-10
576.978	1	12
577.318	1	11
577.657	1	-8
577.997	1	-8
578.337	1	4
578.677	1	3
579.016	1	-1
579.356	1	-5
579.696	1	16
580.036	1	-2
580.375	1	3
580.715	1	-2
581.055	1	-4
581.394	1	-9
581.734	1	-14
582.074	1	-4
582.414	1	1
582.753	1	-7
583.093	1	-2
583.433	1	-7
583.772	1	1
584.112	1	8
584.452	1	-2
584.791	1	-1
585.131	1	-3
585.471	1	13
585.811	1	11
586.150	1	-11
586.490	1	-3
586.830	1	-2
587.169	1	5
587.509	1	1
587.849	1	0
588.188	1	0
588.528	1	-1
588.867	1	2
589.207	1	-6
589.547	1	1
589.886	1	-7
590.226	1	0
590.566	1	-2
590.905	1	-3
591.245	1	-8
591.585	1	7
591.924	1	3
592.264	1	2
592.603	1	0
592.943	1	5
593.283	1	7
593.622	1	2
593.962	1	-6
594.301	1	-6
594.641	1	-3
594.981	1	-13
595.320	1	-8
595.660	1	-4
595.999	1	-9
596.339	1	5
596.678	1	3
597.018	1	-2
597.358	1	1
597.697	1	-2
598.037	1	-1
598.376	1	-3
598.716	1	0
599.055	1	7
599.395	1	-4
599.734	1	6
600.074	1	-1
600.413	1	3
600.753	1	-4
601.092	1	4
601.432	1	-13
601.771	1	1
602.111	1	-3
602.451	1	6
602.790	1	-5
603.130	1	2
603.469	1	-7
603.809	1	1
604.148	1	11
604.487	1	-1
604.827	1	-7
605.166	1	1
605.506	1	-4
605.845	1	2
606.185	1	3
606.524	1	-6
606.864	1	-7
607.203	1	-8
607.543	1	-1
607.882	1	-2
608.222	1	4
608.561	1	7
608.901	1	0
609.240	1	0
609.579	1	4
609.919	1	12
610.258	1	5
610.598	1	-2
610.937	1	-2
611.277	1	-2
611.616	1	-5
611.955	1	-5
612.295	1	-6
612.634	1	1
612.974	1	-19
613.313	1	7
613.652	1	1
613.992	1	-2
614.331	1	1
614.671	1	4
615.010	1	-3
615.349	1	-3
615.689	1	8
616.028	1	-9
616.368	1	8
616.707	1	-6
617.046	1	4
617.386	1	-3
617.725	1	-3
618.064	1	-4
618.404	1	-1
618.743	1	1
619.082	1	-6
619.422	1	-9
619.761	1	4
620.100	1	-7
620.440	1	-1
620.779	1	-5
621.118	1	-6
621.458	1	-2
621.797	1	-2
622.136	1	6
622.476	1	-6
622.815	1	0
623.154	1	2
623.494	1	9
623.833	1	-3
624.172	1	5
624.511	1	-6
624.851	1	-8
625.190	1	-5
625.529	1	4
625.869	1	6
626.208	1	2
626.547	1	0
626.886	1	6
627.226	1	4
627.565	1	4
627.904	1	-7
628.243	1	2
628.583	1	-6
628.922	1	0
629.261	1	2
629.600	1	8
629.940	1	-2
630.279	1	-3
630.618	1	-1
630.957	1	-1
631.297	1	-6
631.636	1	-11
631.975	1	8
632.314	1	2
632.653	1	3
632.993	1	-2
633.332	1	-5
633.671	1	-5
634.010	1	-8
634.349	1	0
634.689	1	-3
635.028	1	-3
635.367	1	3
635.706	1	1
636.045	1	14
636.384	1	-2
636.724	1	-6
637.063	1	-11
637.402	1	3
637.741	1	-3
638.080	1	-6
638.419	1	1
638.759	1	-6
639.098	1	4
639.437	1	6
639.776	1	-1
640.115	1	-11
640.454	1	-4
640.793	1	8
641.132	1	3
641.472	1	-2
641.811	1	-6
642.150	1	-3
642.489	1	8
642.828	1	-4
643.167	1	-13
643.506	1	-17
643.845	1	-6
644.184	1	5
644.524	1	-7
644.863	1	-9
645.202	1	7
645.541	1	4
645.880	1	-1
646.219	1	-6
646.558	1	1
646.897	1	3
647.236	1	-10
647.575	1	0
647.914	1	-3
648.253	1	1
648.592	1	-13
648.931	1	1
649.270	1	-4
649.610	1	-1
649.949	1	-1
650.288	1	7
650.627	1	5
650.966	1	6
651.305	1	-6
651.644	1	12
651.983	1	1
652.322	1	-3
652.661	1	-7
653.000	1	-3
653.339	1	-3
653.678	1	0
654.017	1	-1
654.356	1	-6
654.695	1	0
655.034	1	-5
655.373	1	4
655.712	1	0
656.051	1	4
656.390	1	-7
656.729	1	2
657.068	1	-1
657.406	1	-1
657.745	1	-9
658.084	1	-3
658.423	1	10
658.762	1	-7
659.101	1	8
659.440	1	-2
659.779	1	-3
660.118	1	-1
660.457	1	-3
660.796	1	-12
661.135	1	-14
661.474	1	-7
661.813	1	6
662.152	1	3
662.491	1	-7
662.829	1	-10
663.168	1	-11
663.507	1	9
663.846	1	-3
664.185	1	-3
664.524	1	10
664.863	1	-15
665.202	1	-1
665.541	1	-17
665.879	1	-11
666.218	1	-9
666.557	1	-7
666.896	1	-12
667.235	1	5
667.574	1	-2
667.913	1	1
668.251	1	-9
668.590	1	0
668.929	1	-13
669.268	1	1
669.607	1	-3
669.946	1	-5
670.285	1	0
670.623	1	-7
670.962	1	-2
671.301	1	-4
671.640	1	6
671.979	1	-3
672.317	1	-4
672.656	1	2
672.995	1	-4
673.334	1	-9
673.673	1	1
674.011	1	-4
674.350	1	-4
674.689	1	-4
675.028	1	-2
675.367	1	1
675.705	1	-1
676.044	1	1
676.383	1	-1
676.722	1	-3
677.060	1	-7
677.399	1	-11
677.738	1	3
678.077	1	1
678.416	1	3
678.754	1	1
679.093	1	7
679.432	1	-2
679.771	1	-3
680.109	1	4
680.448	1	5
680.787	1	-8
681.125	1	10
681.464	1	7
681.803	1	-1
682.142	1	-1
682.480	1	8
682.819	1	-2
683.158	1	-2
683.496	1	4
683.835	1	-7
684.174	1	-2
684.512	1	-2
684.851	1	-1
685.190	1	-6
685.529	1	2
685.867	1	1
686.206	1	-3
686.545	1	-3
686.883	1	-6
687.222	1	8
687.561	1	0
687.899	1	3
688.238	1	2
688.577	1	3
688.746	1	0