File: Data/GaN_200K_800ms/GaN_sample F_spot 12_UVVIS_200 K_200um_800 ms 2x2mm1_205.txt
340.368	1	5
340.710	1	-5
341.052	1	5
341.394	1	-7
341.737	1	7
342.079	1	2
342.421	1	-2
342.763	1	4
343.105	1	4
343.447	1	2
343.789	1	-5
344.131	1	-2
344.473	1	-2
344.815	1	-8
345.157	1	2
345.499	1	-1
345.841	1	10
346.183	1	-9
346.526	1	-3
346.868	1	3
347.210	1	-6
347.552	1	4
347.894	1	1
348.236	1	12
348.578	1	4
348.920	1	-5
349.262	1	-3
349.604	1	2
349.946	1	-11
350.288	1	5
350.630	1	4
350.972	1	-6
351.314	1	-6
351.656	1	6
351.998	1	4
352.340	1	6
352.682	1	5
353.024	1	4
353.366	1	15
353.708	1	-5
354.050	1	-4
354.392	1	1
354.734	1	4
355.076	1	2
355.418	1	-8
355.760	1	6
356.102	1	8
356.444	1	3
356.785	1	0
357.127	1	-1
357.469	1	11
357.811	1	8
358.153	1	4
358.495	1	2
358.837	1	-3
359.179	1	0
359.521	1	6
359.863	1	10
360.205	1	5
360.547	1	10
360.889	1	5
361.231	1	-4
361.572	1	8
361.914	1	1
362.256	1	6
362.598	1	-1
362.940	1	12
363.282	1	10
363.624	1	20
363.966	1	4
364.308	1	9
364.649	1	10
364.991	1	16
365.333	1	11
365.675	1	17
366.017	1	25
366.359	1	7
366.701	1	25
367.042	1	21
367.384	1	31
367.726	1	30
368.068	1	33
368.410	1	38
368.752	1	21
369.093	1	24
369.435	1	35
369.777	1	33
370.119	1	41
370.461	1	38
370.803	1	29
371.144	1	26
371.486	1	36
371.828	1	28
372.170	1	32
372.512	1	17
372.853	1	29
373.195	1	26
373.537	1	29
373.879	1	23
374.220	1	30
374.562	1	28
374.904	1	14
375.246	1	21
375.588	1	14
375.929	1	29
376.271	1	18
376.613	1	12
376.955	1	7
377.296	1	15
377.638	1	10
377.980	1	15
378.321	1	9
378.663	1	7
379.005	1	16
379.347	1	16
379.688	1	11
380.030	1	1
380.372	1	6
380.714	1	9
381.055	1	16
381.397	1	5
381.739	1	18
382.080	1	4
382.422	1	8
382.764	1	2
383.105	1	11
383.447	1	6
383.789	1	6
384.130	1	8
384.472	1	6
384.814	1	1
385.156	1	2
385.497	1	5
385.839	1	-5
386.180	1	10
386.522	1	6
386.864	1	15
387.205	1	1
387.547	1	-1
387.889	1	10
388.230	1	13
388.572	1	0
388.914	1	7
389.255	1	2
389.597	1	9
389.939	1	9
390.280	1	8
390.622	1	-1
390.963	1	15
391.305	1	5
391.647	1	2
391.988	1	11
392.330	1	7
392.671	1	-5
393.013	1	0
393.355	1	7
393.696	1	0
394.038	1	5
394.379	1	4
394.721	1	-1
395.062	1	11
395.404	1	2
395.746	1	11
396.087	1	-10
396.429	1	13
396.770	1	-5
397.112	1	0
397.453	1	11
397.795	1	-5
398.136	1	1
398.478	1	7
398.819	1	-2
399.161	1	5
399.503	1	10
399.844	1	0
400.186	1	5
400.527	1	4
400.869	1	-2
401.210	1	-6
401.552	1	-9
401.893	1	3
402.235	1	-6
402.576	1	-1
402.918	1	14
403.259	1	5
403.601	1	3
403.942	1	14
404.284	1	3
404.625	1	2
404.967	1	9
405.308	1	4
405.649	1	-3
405.991	1	-10
406.332	1	-1
406.674	1	-3
407.015	1	17
407.357	1	-1
407.698	1	9
408.040	1	-9
408.381	1	5
408.722	1	-15
409.064	1	1
409.405	1	9
409.747	1	-1
410.088	1	-2
410.430	1	9
410.771	1	-4
411.112	1	-1
411.454	1	-2
411.795	1	-4
412.137	1	7
412.478	1	12
412.819	1	-3
413.161	1	-3
413.502	1	0
413.844	1	7
414.185	1	6
414.526	1	6
414.868	1	3
415.209	1	4
415.550	1	-4
415.892	1	-4
416.233	1	10
416.575	1	27
416.916	1	7
417.257	1	0
417.599	1	2
417.940	1	12
418.281	1	12
418.623	1	-4
418.964	1	-12
419.305	1	6
419.647	1	3
419.988	1	2
420.329	1	-2
420.671	1	10
421.012	1	8
421.353	1	10
421.695	1	4
422.036	1	-1
422.377	1	-4
422.718	1	2
423.060	1	-7
423.401	1	-4
423.742	1	17
424.084	1	-8
424.425	1	1
424.766	1	0
425.107	1	-9
425.449	1	6
425.790	1	-15
426.131	1	2
426.472	1	-2
426.814	1	9
427.155	1	-8
427.496	1	-5
427.837	1	2
428.179	1	3
428.520	1	7
428.861	1	-2
429.202	1	-1
429.544	1	-4
429.885	1	3
430.226	1	-10
430.567	1	-2
430.909	1	4
431.250	1	2
431.591	1	7
431.932	1	-4
432.273	1	-4
432.615	1	-4
432.956	1	-6
433.297	1	7
433.638	1	1
433.979	1	12
434.320	1	8
434.662	1	0
435.003	1	6
435.344	1	2
435.685	1	6
436.026	1	4
436.368	1	4
436.709	1	1
437.050	1	0
437.391	1	7
437.732	1	-8
438.073	1	4
438.414	1	-4
438.756	1	-8
439.097	1	-12
439.438	1	-5
439.779	1	3
440.120	1	0
440.461	1	-5
440.802	1	-2
441.143	1	7
441.485	1	5
441.826	1	-10
442.167	1	1
442.508	1	-7
442.849	1	8
443.190	1	1
443.531	1	3
443.872	1	9
444.213	1	1
444.554	1	5
444.895	1	-4
445.237	1	-1
445.578	1	-13
445.919	1	-13
446.260	1	0
446.601	1	-6
446.942	1	-4
447.283	1	-10
447.624	1	-5
447.965	1	-7
448.306	1	-4
448.647	1	-5
448.988	1	-3
449.329	1	2
449.670	1	1
450.011	1	14
450.352	1	-5
450.693	1	-1
451.034	1	-16
451.375	1	7
451.716	1	4
452.057	1	-2
452.398	1	-2
452.739	1	9
453.080	1	-1
453.421	1	-4
453.762	1	-3
454.103	1	3
454.444	1	-7
454.785	1	0
455.126	1	2
455.467	1	0
455.808	1	-1
456.149	1	1
456.490	1	7
456.831	1	11
457.172	1	1
457.513	1	11
457.854	1	6
458.195	1	0
458.536	1	7
458.877	1	-4
459.218	1	7
459.559	1	2
459.899	1	-3
460.240	1	1
460.581	1	22
460.922	1	1
461.263	1	-3
461.604	1	-14
461.945	1	-2
462.286	1	-3
462.627	1	6
462.968	1	4
463.309	1	-10
463.649	1	-3
463.990	1	-8
464.331	1	0
464.672	1	0
465.013	1	-3
465.354	1	-2
465.695	1	-12
466.036	1	1
466.376	1	-5
466.717	1	4
467.058	1	2
467.399	1	3
467.740	1	3
468.081	1	2
468.422	1	-6
468.762	1	-3
469.103	1	-4
469.444	1	-11
469.785	1	-10
470.126	1	-16
470.467	1	-3
470.807	1	5
471.148	1	2
471.489	1	-5
471.830	1	-3
472.171	1	0
472.511	1	-3
472.852	1	-1
473.193	1	5
473.534	1	12
473.875	1	16
474.215	1	9
474.556	1	-4
474.897	1	6
475.238	1	-6
475.578	1	-14
475.919	1	5
476.260	1	-6
476.601	1	1
476.942	1	13
477.282	1	-2
477.623	1	-9
477.964	1	-4
478.305	1	-5
478.645	1	22
478.986	1	-2
479.327	1	-9
479.667	1	7
480.008	1	-2
480.349	1	-11
480.690	1	0
481.030	1	-3
481.371	1	0
481.712	1	5
482.053	1	2
482.393	1	6
482.734	1	-7
483.075	1	-4
483.415	1	4
483.756	1	8
484.097	1	1
484.437	1	-6
484.778	1	7
485.119	1	2
485.459	1	10
485.800	1	-1
486.141	1	-8
486.481	1	-2
486.822	1	0
487.163	1	-8
487.503	1	2
487.844	1	-3
488.185	1	-1
488.525	1	-4
488.866	1	7
489.207	1	-4
489.547	1	-4
489.888	1	-3
490.228	1	0
490.569	1	11
490.910	1	-3
491.250	1	-4
491.591	1	-6
491.932	1	-2
492.272	1	5
492.613	1	-5
492.953	1	-6
493.294	1	-4
493.635	1	1
493.975	1	-5
494.316	1	6
494.656	1	-5
494.997	1	-2
495.337	1	3
495.678	1	0
496.019	1	2
496.359	1	-3
496.700	1	5
497.040	1	5
497.381	1	-3
497.721	1	-2
498.062	1	7
498.403	1	2
498.743	1	0
499.084	1	-2
499.424	1	7
499.765	1	-2
500.105	1	6
500.446	1	-8
500.786	1	-9
501.127	1	-2
501.467	1	-3
501.808	1	3
502.148	1	7
502.489	1	5
502.829	1	1
503.170	1	15
503.510	1	9
503.851	1	-2
504.191	1	13
504.532	1	0
504.872	1	-3
505.213	1	9
505.553	1	-5
505.894	1	-10
506.234	1	9
506.575	1	3
506.915	1	12
507.256	1	13
507.596	1	8
507.936	1	-2
508.277	1	3
508.617	1	3
508.958	1	-6
509.298	1	9
509.639	1	-2
509.979	1	-1
510.319	1	8
510.660	1	2
511.000	1	-3
511.341	1	-5
511.681	1	11
512.022	1	-1
512.362	1	-6
512.702	1	-2
513.043	1	10
513.383	1	-7
513.724	1	8
514.064	1	8
514.404	1	9
514.745	1	-4
515.085	1	9
515.425	1	1
515.766	1	4
516.106	1	10
516.447	1	18
516.787	1	7
517.127	1	2
517.468	1	1
517.808	1	-1
518.148	1	7
518.489	1	-4
518.829	1	11
519.169	1	5
519.510	1	2
519.850	1	0
520.190	1	7
520.531	1	8
520.871	1	9
521.211	1	-8
521.552	1	6
521.892	1	6
522.232	1	4
522.573	1	5
522.913	1	10
523.253	1	6
523.593	1	4
523.934	1	5
524.274	1	-2
524.614	1	3
524.955	1	2
525.295	1	7
525.635	1	7
525.975	1	7
526.316	1	8
526.656	1	3
526.996	1	14
527.337	1	-7
527.677	1	7
528.017	1	-9
528.357	1	1
528.698	1	5
529.038	1	8
529.378	1	14
529.718	1	4
530.058	1	9
530.399	1	6
530.739	1	6
531.079	1	0
531.419	1	4
531.760	1	3
532.100	1	-2
532.440	1	8
532.780	1	2
533.120	1	11
533.461	1	6
533.801	1	12
534.141	1	-10
534.481	1	-7
534.821	1	7
535.162	1	1
535.502	1	-10
535.842	1	10
536.182	1	0
536.522	1	1
536.862	1	4
537.203	1	-1
537.543	1	2
537.883	1	5
538.223	1	2
538.563	1	12
538.903	1	3
539.243	1	4
539.584	1	3
539.924	1	9
540.264	1	-2
540.604	1	2
540.944	1	-5
541.284	1	10
541.624	1	3
541.964	1	8
542.305	1	5
542.645	1	6
542.985	1	6
543.325	1	-1
543.665	1	9
544.005	1	18
544.345	1	5
544.685	1	8
545.025	1	1
545.365	1	-2
545.705	1	2
546.045	1	7
546.386	1	3
546.726	1	-6
547.066	1	8
547.406	1	4
547.746	1	-10
548.086	1	9
548.426	1	-4
548.766	1	2
549.106	1	7
549.446	1	11
549.786	1	2
550.126	1	17
550.466	1	6
550.806	1	-4
551.146	1	3
551.486	1	8
551.826	1	10
552.166	1	10
552.506	1	8
552.846	1	4
553.186	1	8
553.526	1	6
553.866	1	9
554.206	1	18
554.546	1	10
554.886	1	8
555.226	1	2
555.566	1	8
555.906	1	0
556.246	1	-4
556.586	1	2
556.926	1	9
557.266	1	4
557.606	1	0
557.946	1	10
558.286	1	10
558.626	1	4
558.966	1	7
559.306	1	3
559.646	1	-5
559.986	1	1
560.325	1	2
560.665	1	0
561.005	1	1
561.345	1	6
561.685	1	3
562.025	1	3
562.365	1	10
562.705	1	-6
563.045	1	5
563.385	1	-2
563.725	1	5
564.064	1	4
564.404	1	10
564.744	1	14
565.084	1	8
565.424	1	5
565.764	1	5
566.104	1	0
566.444	1	8
566.783	1	7
567.123	1	4
567.463	1	14
567.803	1	2
568.143	1	-8
568.483	1	15
568.823	1	6
569.162	1	3
569.502	1	3
569.842	1	12
570.182	1	3
570.522	1	-4
570.862	1	1
571.201	1	14
571.541	1	9
571.881	1	8
572.221	1	-3
572.561	1	-1
572.900	1	7
573.240	1	8
573.580	1	6
573.920	1	2
574.260	1	11
574.599	1	0
574.939	1	8
575.279	1	14
575.619	1	4
575.959	1	-7
576.298	1	17
576.638	1	13
576.978	1	11
577.318	1	9
577.657	1	2
577.997	1	-1
578.337	1	8
578.677	1	8
579.016	1	12
579.356	1	3
579.696	1	17
580.036	1	0
580.375	1	11
580.715	1	5
581.055	1	5
581.394	1	-1
581.734	1	-3
582.074	1	-4
582.414	1	12
582.753	1	3
583.093	1	10
583.433	1	-1
583.772	1	9
584.112	1	1
584.452	1	12
584.791	1	8
585.131	1	10
585.471	1	8
585.811	1	9
586.150	1	-1
586.490	1	8
586.830	1	7
587.169	1	3
587.509	1	-7
587.849	1	-1
588.188	1	9
588.528	1	7
588.867	1	7
589.207	1	11
589.547	1	0
589.886	1	-1
590.226	1	6
590.566	1	1
590.905	1	3
591.245	1	10
591.585	1	5
591.924	1	5
592.264	1	10
592.603	1	9
592.943	1	10
593.283	1	1
593.622	1	2
593.962	1	9
594.301	1	13
594.641	1	1
594.981	1	1
595.320	1	7
595.660	1	9
595.999	1	2
596.339	1	5
596.678	1	-2
597.018	1	0
597.358	1	3
597.697	1	8
598.037	1	3
598.376	1	9
598.716	1	3
599.055	1	1
599.395	1	-2
599.734	1	6
600.074	1	3
600.413	1	6
600.753	1	-4
601.092	1	10
601.432	1	3
601.771	1	-2
602.111	1	0
602.451	1	5
602.790	1	3
603.130	1	10
603.469	1	-7
603.809	1	9
604.148	1	5
604.487	1	3
604.827	1	11
605.166	1	-1
605.506	1	6
605.845	1	-2
606.185	1	10
606.524	1	10
606.864	1	-4
607.203	1	6
607.543	1	-2
607.882	1	8
608.222	1	6
608.561	1	8
608.901	1	12
609.240	1	-2
609.579	1	0
609.919	1	9
610.258	1	11
610.598	1	0
610.937	1	-1
611.277	1	6
611.616	1	-2
611.955	1	13
612.295	1	2
612.634	1	11
612.974	1	-7
613.313	1	4
613.652	1	-2
613.992	1	10
614.331	1	11
614.671	1	-2
615.010	1	-2
615.349	1	9
615.689	1	12
616.028	1	0
616.368	1	-2
616.707	1	-8
617.046	1	-5
617.386	1	7
617.725	1	1
618.064	1	0
618.404	1	-3
618.743	1	10
619.082	1	6
619.422	1	-8
619.761	1	8
620.100	1	7
620.440	1	5
620.779	1	1
621.118	1	4
621.458	1	0
621.797	1	-12
622.136	1	11
622.476	1	0
622.815	1	11
623.154	1	2
623.494	1	19
623.833	1	11
624.172	1	1
624.511	1	3
624.851	1	-8
625.190	1	-2
625.529	1	7
625.869	1	9
626.208	1	1
626.547	1	7
626.886	1	9
627.226	1	13
627.565	1	-4
627.904	1	0
628.243	1	8
628.583	1	-1
628.922	1	7
629.261	1	5
629.600	1	4
629.940	1	0
630.279	1	-3
630.618	1	2
630.957	1	0
631.297	1	2
631.636	1	-8
631.975	1	13
632.314	1	-7
632.653	1	-4
632.993	1	-4
633.332	1	-12
633.671	1	-6
634.010	1	-6
634.349	1	9
634.689	1	0
635.028	1	3
635.367	1	4
635.706	1	-3
636.045	1	7
636.384	1	3
636.724	1	3
637.063	1	2
637.402	1	-5
637.741	1	2
638.080	1	-4
638.419	1	1
638.759	1	0
639.098	1	2
639.437	1	5
639.776	1	-2
640.115	1	2
640.454	1	-1
640.793	1	13
641.132	1	5
641.472	1	2
641.811	1	-2
642.150	1	-6
642.489	1	9
642.828	1	-6
643.167	1	-6
643.506	1	-6
643.845	1	5
644.184	1	4
644.524	1	5
644.863	1	-7
645.202	1	3
645.541	1	6
645.880	1	6
646.219	1	5
646.558	1	-8
646.897	1	-3
647.236	1	-3
647.575	1	1
647.914	1	3
648.253	1	16
648.592	1	-3
648.931	1	4
649.270	1	-2
649.610	1	2
649.949	1	-3
650.288	1	5
650.627	1	9
650.966	1	4
651.305	1	5
651.644	1	7
651.983	1	0
652.322	1	-6
652.661	1	1
653.000	1	-3
653.339	1	4
653.678	1	2
654.017	1	0
654.356	1	4
654.695	1	9
655.034	1	8
655.373	1	9
655.712	1	16
656.051	1	4
656.390	1	-5
656.729	1	13
657.068	1	4
657.406	1	7
657.745	1	0
658.084	1	5
658.423	1	6
658.762	1	-3
659.101	1	5
659.440	1	5
659.779	1	0
660.118	1	9
660.457	1	-1
660.796	1	-2
661.135	1	2
661.474	1	8
661.813	1	2
662.152	1	5
662.491	1	-5
662.829	1	-8
663.168	1	10
663.507	1	7
663.846	1	-1
664.185	1	4
664.524	1	6
664.863	1	0
665.202	1	-3
665.541	1	-11
665.879	1	-10
666.218	1	0
666.557	1	0
666.896	1	-9
667.235	1	7
667.574	1	0
667.913	1	3
668.251	1	-3
668.590	1	-3
668.929	1	-13
669.268	1	1
669.607	1	2
669.946	1	10
670.285	1	0
670.623	1	0
670.962	1	12
671.301	1	1
671.640	1	4
671.979	1	-2
672.317	1	6
672.656	1	-2
672.995	1	10
673.334	1	-2
673.673	1	4
674.011	1	-3
674.350	1	7
674.689	1	-1
675.028	1	-3
675.367	1	3
675.705	1	8
676.044	1	5
676.383	1	4
676.722	1	7
677.060	1	-4
677.399	1	-3
677.738	1	11
678.077	1	9
678.416	1	1
678.754	1	0
679.093	1	11
679.432	1	-4
679.771	1	2
680.109	1	14
680.448	1	-4
680.787	1	-7
681.125	1	2
681.464	1	6
681.803	1	2
682.142	1	5
682.480	1	14
682.819	1	1
683.158	1	1
683.496	1	-1
683.835	1	-5
684.174	1	-7
684.512	1	17
684.851	1	9
685.190	1	-1
685.529	1	-6
685.867	1	4
686.206	1	5
686.545	1	-10
686.883	1	6
687.222	1	8
687.561	1	5
687.899	1	1
688.238	1	14
688.577	1	3
688.746	1	-2