File: Data/GaN_200K_800ms/GaN_sample F_spot 12_UVVIS_200 K_200um_800 ms 2x2mm1_382.txt
340.368	1	-2
340.710	1	-9
341.052	1	9
341.394	1	-4
341.737	1	-4
342.079	1	2
342.421	1	1
342.763	1	0
343.105	1	5
343.447	1	-11
343.789	1	0
344.131	1	1
344.473	1	-4
344.815	1	-2
345.157	1	0
345.499	1	2
345.841	1	8
346.183	1	-5
346.526	1	-9
346.868	1	12
347.210	1	-12
347.552	1	-2
347.894	1	-1
348.236	1	3
348.578	1	-4
348.920	1	-6
349.262	1	-5
349.604	1	0
349.946	1	-5
350.288	1	4
350.630	1	1
350.972	1	-2
351.314	1	3
351.656	1	1
351.998	1	-6
352.340	1	-1
352.682	1	0
353.024	1	9
353.366	1	18
353.708	1	-4
354.050	1	-2
354.392	1	-8
354.734	1	7
355.076	1	5
355.418	1	-11
355.760	1	-7
356.102	1	14
356.444	1	5
356.785	1	-3
357.127	1	-6
357.469	1	-2
357.811	1	2
358.153	1	4
358.495	1	-6
358.837	1	-19
359.179	1	1
359.521	1	6
359.863	1	1
360.205	1	-12
360.547	1	8
360.889	1	-1
361.231	1	-4
361.572	1	2
361.914	1	9
362.256	1	6
362.598	1	-5
362.940	1	-5
363.282	1	4
363.624	1	4
363.966	1	7
364.308	1	0
364.649	1	4
364.991	1	5
365.333	1	-4
365.675	1	-7
366.017	1	10
366.359	1	5
366.701	1	0
367.042	1	11
367.384	1	9
367.726	1	7
368.068	1	7
368.410	1	20
368.752	1	5
369.093	1	2
369.435	1	7
369.777	1	4
370.119	1	11
370.461	1	11
370.803	1	21
371.144	1	7
371.486	1	21
371.828	1	7
372.170	1	23
372.512	1	2
372.853	1	2
373.195	1	5
373.537	1	4
373.879	1	10
374.220	1	16
374.562	1	16
374.904	1	5
375.246	1	15
375.588	1	11
375.929	1	8
376.271	1	13
376.613	1	6
376.955	1	0
377.296	1	2
377.638	1	10
377.980	1	3
378.321	1	-7
378.663	1	-6
379.005	1	11
379.347	1	5
379.688	1	4
380.030	1	-1
380.372	1	7
380.714	1	6
381.055	1	14
381.397	1	3
381.739	1	5
382.080	1	3
382.422	1	7
382.764	1	-7
383.105	1	1
383.447	1	5
383.789	1	2
384.130	1	-1
384.472	1	-8
384.814	1	3
385.156	1	-2
385.497	1	4
385.839	1	-2
386.180	1	-2
386.522	1	4
386.864	1	1
387.205	1	0
387.547	1	-3
387.889	1	-7
388.230	1	7
388.572	1	2
388.914	1	-1
389.255	1	-3
389.597	1	3
389.939	1	-3
390.280	1	-7
390.622	1	-2
390.963	1	7
391.305	1	8
391.647	1	1
391.988	1	10
392.330	1	11
392.671	1	-3
393.013	1	1
393.355	1	1
393.696	1	7
394.038	1	4
394.379	1	2
394.721	1	-9
395.062	1	5
395.404	1	-6
395.746	1	5
396.087	1	-1
396.429	1	1
396.770	1	-2
397.112	1	2
397.453	1	3
397.795	1	-5
398.136	1	-13
398.478	1	-3
398.819	1	3
399.161	1	13
399.503	1	2
399.844	1	-2
400.186	1	4
400.527	1	-1
400.869	1	3
401.210	1	-6
401.552	1	-8
401.893	1	3
402.235	1	-5
402.576	1	-8
402.918	1	5
403.259	1	3
403.601	1	-10
403.942	1	15
404.284	1	5
404.625	1	2
404.967	1	-4
405.308	1	6
405.649	1	-4
405.991	1	-8
406.332	1	2
406.674	1	-9
407.015	1	3
407.357	1	-3
407.698	1	8
408.040	1	0
408.381	1	2
408.722	1	-16
409.064	1	2
409.405	1	5
409.747	1	-6
410.088	1	-1
410.430	1	5
410.771	1	1
411.112	1	-4
411.454	1	-3
411.795	1	-1
412.137	1	-2
412.478	1	7
412.819	1	-7
413.161	1	-6
413.502	1	-4
413.844	1	-2
414.185	1	-4
414.526	1	-6
414.868	1	9
415.209	1	3
415.550	1	-2
415.892	1	2
416.233	1	-1
416.575	1	9
416.916	1	-10
417.257	1	-4
417.599	1	-4
417.940	1	5
418.281	1	8
418.623	1	7
418.964	1	-8
419.305	1	-3
419.647	1	0
419.988	1	4
420.329	1	-1
420.671	1	-1
421.012	1	-4
421.353	1	-4
421.695	1	3
422.036	1	-6
422.377	1	-11
422.718	1	8
423.060	1	-10
423.401	1	4
423.742	1	1
424.084	1	3
424.425	1	2
424.766	1	-7
425.107	1	-2
425.449	1	6
425.790	1	-10
426.131	1	-1
426.472	1	-4
426.814	1	5
427.155	1	-4
427.496	1	-4
427.837	1	-11
428.179	1	-5
428.520	1	-2
428.861	1	-3
429.202	1	-6
429.544	1	0
429.885	1	2
430.226	1	-17
430.567	1	1
430.909	1	1
431.250	1	-5
431.591	1	2
431.932	1	-6
432.273	1	-2
432.615	1	-7
432.956	1	-9
433.297	1	-3
433.638	1	-7
433.979	1	6
434.320	1	-1
434.662	1	6
435.003	1	0
435.344	1	5
435.685	1	0
436.026	1	-2
436.368	1	2
436.709	1	0
437.050	1	-1
437.391	1	5
437.732	1	-9
438.073	1	-2
438.414	1	-5
438.756	1	-10
439.097	1	-9
439.438	1	-5
439.779	1	-3
440.120	1	-11
440.461	1	6
440.802	1	-7
441.143	1	2
441.485	1	-7
441.826	1	-1
442.167	1	3
442.508	1	-11
442.849	1	3
443.190	1	1
443.531	1	11
443.872	1	16
444.213	1	-3
444.554	1	4
444.895	1	-6
445.237	1	-4
445.578	1	-4
445.919	1	-15
446.260	1	-11
446.601	1	-2
446.942	1	0
447.283	1	-11
447.624	1	-8
447.965	1	6
448.306	1	2
448.647	1	-3
448.988	1	-5
449.329	1	-6
449.670	1	7
450.011	1	-3
450.352	1	1
450.693	1	-12
451.034	1	-1
451.375	1	-2
451.716	1	0
452.057	1	2
452.398	1	1
452.739	1	0
453.080	1	-5
453.421	1	4
453.762	1	4
454.103	1	-5
454.444	1	-7
454.785	1	-12
455.126	1	-15
455.467	1	-1
455.808	1	4
456.149	1	0
456.490	1	5
456.831	1	-5
457.172	1	-7
457.513	1	6
457.854	1	4
458.195	1	-2
458.536	1	13
458.877	1	0
459.218	1	-3
459.559	1	7
459.899	1	5
460.240	1	-3
460.581	1	11
460.922	1	8
461.263	1	-7
461.604	1	-9
461.945	1	9
462.286	1	-5
462.627	1	0
462.968	1	1
463.309	1	-9
463.649	1	0
463.990	1	-1
464.331	1	-8
464.672	1	-1
465.013	1	2
465.354	1	-3
465.695	1	-7
466.036	1	-2
466.376	1	0
466.717	1	0
467.058	1	0
467.399	1	5
467.740	1	7
468.081	1	-2
468.422	1	1
468.762	1	-11
469.103	1	-4
469.444	1	-15
469.785	1	-14
470.126	1	-13
470.467	1	-6
470.807	1	-3
471.148	1	-2
471.489	1	1
471.830	1	-2
472.171	1	8
472.511	1	-11
472.852	1	-3
473.193	1	3
473.534	1	8
473.875	1	14
474.215	1	12
474.556	1	3
474.897	1	4
475.238	1	-3
475.578	1	-10
475.919	1	-6
476.260	1	1
476.601	1	2
476.942	1	12
477.282	1	0
477.623	1	-14
477.964	1	1
478.305	1	1
478.645	1	4
478.986	1	1
479.327	1	-16
479.667	1	1
480.008	1	-2
480.349	1	-15
480.690	1	7
481.030	1	1
481.371	1	2
481.712	1	-2
482.053	1	0
482.393	1	-7
482.734	1	-4
483.075	1	1
483.415	1	-3
483.756	1	4
484.097	1	-3
484.437	1	2
484.778	1	5
485.119	1	-12
485.459	1	5
485.800	1	-10
486.141	1	-2
486.481	1	0
486.822	1	10
487.163	1	2
487.503	1	2
487.844	1	-1
488.185	1	8
488.525	1	0
488.866	1	-3
489.207	1	-1
489.547	1	-7
489.888	1	4
490.228	1	-5
490.569	1	13
490.910	1	-1
491.250	1	-5
491.591	1	-6
491.932	1	0
492.272	1	1
492.613	1	-5
492.953	1	0
493.294	1	-11
493.635	1	0
493.975	1	-8
494.316	1	-4
494.656	1	1
494.997	1	-8
495.337	1	9
495.678	1	-9
496.019	1	0
496.359	1	-4
496.700	1	1
497.040	1	-5
497.381	1	-6
497.721	1	1
498.062	1	-2
498.403	1	4
498.743	1	-4
499.084	1	-11
499.424	1	1
499.765	1	-11
500.105	1	0
500.446	1	-13
500.786	1	-5
501.127	1	-2
501.467	1	-5
501.808	1	-3
502.148	1	1
502.489	1	4
502.829	1	-13
503.170	1	6
503.510	1	0
503.851	1	4
504.191	1	3
504.532	1	0
504.872	1	-2
505.213	1	0
505.553	1	-11
505.894	1	-3
506.234	1	6
506.575	1	2
506.915	1	1
507.256	1	-2
507.596	1	4
507.936	1	-4
508.277	1	-1
508.617	1	-5
508.958	1	-10
509.298	1	3
509.639	1	-6
509.979	1	-7
510.319	1	4
510.660	1	-9
511.000	1	-14
511.341	1	0
511.681	1	7
512.022	1	-6
512.362	1	-11
512.702	1	-2
513.043	1	8
513.383	1	-3
513.724	1	-3
514.064	1	2
514.404	1	-1
514.745	1	4
515.085	1	-3
515.425	1	-1
515.766	1	-6
516.106	1	7
516.447	1	11
516.787	1	3
517.127	1	6
517.468	1	4
517.808	1	-8
518.148	1	-6
518.489	1	-1
518.829	1	6
519.169	1	-3
519.510	1	1
519.850	1	7
520.190	1	-1
520.531	1	4
520.871	1	2
521.211	1	-9
521.552	1	5
521.892	1	9
522.232	1	1
522.573	1	-3
522.913	1	1
523.253	1	-7
523.593	1	-7
523.934	1	1
524.274	1	-1
524.614	1	1
524.955	1	-9
525.295	1	1
525.635	1	4
525.975	1	2
526.316	1	16
526.656	1	-6
526.996	1	5
527.337	1	-5
527.677	1	5
528.017	1	-5
528.357	1	8
528.698	1	-3
529.038	1	3
529.378	1	6
529.718	1	8
530.058	1	1
530.399	1	5
530.739	1	-1
531.079	1	7
531.419	1	4
531.760	1	-1
532.100	1	-4
532.440	1	-3
532.780	1	-10
533.120	1	10
533.461	1	-5
533.801	1	2
534.141	1	-15
534.481	1	-5
534.821	1	-3
535.162	1	-1
535.502	1	-4
535.842	1	4
536.182	1	2
536.522	1	-7
536.862	1	2
537.203	1	-2
537.543	1	3
537.883	1	-4
538.223	1	-4
538.563	1	0
538.903	1	-8
539.243	1	-7
539.584	1	-6
539.924	1	8
540.264	1	-5
540.604	1	4
540.944	1	-5
541.284	1	1
541.624	1	3
541.964	1	3
542.305	1	6
542.645	1	4
542.985	1	0
543.325	1	0
543.665	1	7
544.005	1	8
544.345	1	4
544.685	1	-3
545.025	1	-12
545.365	1	-1
545.705	1	-8
546.045	1	6
546.386	1	3
546.726	1	-6
547.066	1	-2
547.406	1	6
547.746	1	-7
548.086	1	-6
548.426	1	-4
548.766	1	-4
549.106	1	-10
549.446	1	-5
549.786	1	-9
550.126	1	6
550.466	1	6
550.806	1	-2
551.146	1	0
551.486	1	-4
551.826	1	-4
552.166	1	8
552.506	1	1
552.846	1	5
553.186	1	9
553.526	1	-2
553.866	1	1
554.206	1	1
554.546	1	6
554.886	1	0
555.226	1	-8
555.566	1	1
555.906	1	9
556.246	1	0
556.586	1	2
556.926	1	7
557.266	1	-10
557.606	1	0
557.946	1	13
558.286	1	2
558.626	1	5
558.966	1	0
559.306	1	-6
559.646	1	-5
559.986	1	-1
560.325	1	-11
560.665	1	-3
561.005	1	-7
561.345	1	4
561.685	1	-4
562.025	1	-7
562.365	1	-1
562.705	1	0
563.045	1	-2
563.385	1	-8
563.725	1	-10
564.064	1	0
564.404	1	1
564.744	1	2
565.084	1	2
565.424	1	4
565.764	1	-9
566.104	1	9
566.444	1	-7
566.783	1	1
567.123	1	4
567.463	1	3
567.803	1	7
568.143	1	3
568.483	1	10
568.823	1	-1
569.162	1	3
569.502	1	0
569.842	1	5
570.182	1	4
570.522	1	-9
570.862	1	0
571.201	1	1
571.541	1	-7
571.881	1	7
572.221	1	-9
572.561	1	-12
572.900	1	-12
573.240	1	0
573.580	1	-9
573.920	1	8
574.260	1	6
574.599	1	0
574.939	1	0
575.279	1	12
575.619	1	5
575.959	1	-6
576.298	1	12
576.638	1	-6
576.978	1	5
577.318	1	2
577.657	1	-5
577.997	1	-5
578.337	1	6
578.677	1	1
579.016	1	9
579.356	1	-3
579.696	1	9
580.036	1	-5
580.375	1	-1
580.715	1	6
581.055	1	-5
581.394	1	-4
581.734	1	-4
582.074	1	-6
582.414	1	11
582.753	1	-15
583.093	1	-2
583.433	1	-1
583.772	1	12
584.112	1	-7
584.452	1	-3
584.791	1	-4
585.131	1	5
585.471	1	11
585.811	1	-1
586.150	1	2
586.490	1	9
586.830	1	1
587.169	1	2
587.509	1	-4
587.849	1	3
588.188	1	4
588.528	1	8
588.867	1	9
589.207	1	10
589.547	1	3
589.886	1	3
590.226	1	3
590.566	1	-3
590.905	1	-5
591.245	1	-5
591.585	1	7
591.924	1	-5
592.264	1	4
592.603	1	10
592.943	1	-3
593.283	1	-1
593.622	1	1
593.962	1	-1
594.301	1	1
594.641	1	-2
594.981	1	-14
595.320	1	5
595.660	1	-3
595.999	1	-7
596.339	1	-1
596.678	1	-2
597.018	1	-7
597.358	1	7
597.697	1	-3
598.037	1	2
598.376	1	1
598.716	1	1
599.055	1	4
599.395	1	-9
599.734	1	-1
600.074	1	3
600.413	1	4
600.753	1	2
601.092	1	5
601.432	1	-14
601.771	1	3
602.111	1	2
602.451	1	5
602.790	1	-1
603.130	1	6
603.469	1	-6
603.809	1	-3
604.148	1	4
604.487	1	3
604.827	1	-1
605.166	1	5
605.506	1	-5
605.845	1	-4
606.185	1	3
606.524	1	-8
606.864	1	3
607.203	1	1
607.543	1	-2
607.882	1	12
608.222	1	1
608.561	1	0
608.901	1	1
609.240	1	4
609.579	1	6
609.919	1	5
610.258	1	10
610.598	1	-6
610.937	1	-1
611.277	1	2
611.616	1	1
611.955	1	-3
612.295	1	-1
612.634	1	-4
612.974	1	-11
613.313	1	7
613.652	1	2
613.992	1	-1
614.331	1	0
614.671	1	0
615.010	1	-4
615.349	1	11
615.689	1	3
616.028	1	7
616.368	1	7
616.707	1	9
617.046	1	-7
617.386	1	3
617.725	1	-5
618.064	1	-3
618.404	1	1
618.743	1	13
619.082	1	-4
619.422	1	-6
619.761	1	3
620.100	1	-1
620.440	1	6
620.779	1	-5
621.118	1	-6
621.458	1	9
621.797	1	-2
622.136	1	4
622.476	1	-2
622.815	1	10
623.154	1	1
623.494	1	16
623.833	1	6
624.172	1	-1
624.511	1	-2
624.851	1	-4
625.190	1	-6
625.529	1	6
625.869	1	2
626.208	1	-3
626.547	1	-7
626.886	1	-5
627.226	1	7
627.565	1	1
627.904	1	3
628.243	1	10
628.583	1	-1
628.922	1	6
629.261	1	-1
629.600	1	8
629.940	1	-7
630.279	1	-10
630.618	1	-10
630.957	1	-6
631.297	1	-1
631.636	1	-21
631.975	1	8
632.314	1	-1
632.653	1	-4
632.993	1	-8
633.332	1	4
633.671	1	-6
634.010	1	2
634.349	1	3
634.689	1	7
635.028	1	8
635.367	1	0
635.706	1	9
636.045	1	9
636.384	1	-10
636.724	1	-5
637.063	1	1
637.402	1	-1
637.741	1	5
638.080	1	-8
638.419	1	-12
638.759	1	-9
639.098	1	4
639.437	1	3
639.776	1	-7
640.115	1	-1
640.454	1	-7
640.793	1	8
641.132	1	9
641.472	1	9
641.811	1	-3
642.150	1	-9
642.489	1	5
642.828	1	-10
643.167	1	4
643.506	1	-9
643.845	1	-9
644.184	1	1
644.524	1	-11
644.863	1	-7
645.202	1	0
645.541	1	-5
645.880	1	3
646.219	1	0
646.558	1	1
646.897	1	1
647.236	1	-4
647.575	1	0
647.914	1	-2
648.253	1	10
648.592	1	-7
648.931	1	6
649.270	1	3
649.610	1	2
649.949	1	-9
650.288	1	0
650.627	1	-5
650.966	1	3
651.305	1	9
651.644	1	15
651.983	1	-3
652.322	1	-6
652.661	1	-8
653.000	1	2
653.339	1	3
653.678	1	-5
654.017	1	-5
654.356	1	-3
654.695	1	2
655.034	1	4
655.373	1	2
655.712	1	3
656.051	1	5
656.390	1	-10
656.729	1	4
657.068	1	3
657.406	1	4
657.745	1	-2
658.084	1	1
658.423	1	7
658.762	1	-3
659.101	1	8
659.440	1	0
659.779	1	-2
660.118	1	-4
660.457	1	-1
660.796	1	-8
661.135	1	-2
661.474	1	-7
661.813	1	10
662.152	1	3
662.491	1	-3
662.829	1	2
663.168	1	3
663.507	1	5
663.846	1	-3
664.185	1	10
664.524	1	-6
664.863	1	-5
665.202	1	5
665.541	1	-6
665.879	1	-8
666.218	1	-7
666.557	1	5
666.896	1	-1
667.235	1	2
667.574	1	-3
667.913	1	8
668.251	1	-7
668.590	1	4
668.929	1	-13
669.268	1	-5
669.607	1	-9
669.946	1	-4
670.285	1	8
670.623	1	-8
670.962	1	-7
671.301	1	-6
671.640	1	3
671.979	1	-11
672.317	1	9
672.656	1	-1
672.995	1	3
673.334	1	0
673.673	1	3
674.011	1	1
674.350	1	2
674.689	1	-8
675.028	1	-5
675.367	1	-4
675.705	1	0
676.044	1	-2
676.383	1	-7
676.722	1	0
677.060	1	-11
677.399	1	-6
677.738	1	0
678.077	1	1
678.416	1	-2
678.754	1	-1
679.093	1	11
679.432	1	-1
679.771	1	-5
680.109	1	8
680.448	1	-4
680.787	1	-5
681.125	1	3
681.464	1	0
681.803	1	-3
682.142	1	5
682.480	1	9
682.819	1	0
683.158	1	1
683.496	1	0
683.835	1	5
684.174	1	-3
684.512	1	5
684.851	1	-2
685.190	1	-2
685.529	1	-1
685.867	1	0
686.206	1	-12
686.545	1	0
686.883	1	-4
687.222	1	7
687.561	1	3
687.899	1	2
688.238	1	1
688.577	1	-2
688.746	1	-2