File: Data/GaN_200K_800ms/GaN_sample F_spot 12_UVVIS_200 K_200um_800 ms 2x2mm1_128.txt
340.368	1	4
340.710	1	-11
341.052	1	5
341.394	1	-1
341.737	1	-4
342.079	1	-3
342.421	1	1
342.763	1	2
343.105	1	6
343.447	1	-2
343.789	1	2
344.131	1	-4
344.473	1	-9
344.815	1	2
345.157	1	11
345.499	1	2
345.841	1	13
346.183	1	-2
346.526	1	-3
346.868	1	9
347.210	1	-7
347.552	1	2
347.894	1	9
348.236	1	9
348.578	1	6
348.920	1	-3
349.262	1	4
349.604	1	5
349.946	1	0
350.288	1	10
350.630	1	6
350.972	1	7
351.314	1	14
351.656	1	7
351.998	1	17
352.340	1	4
352.682	1	8
353.024	1	9
353.366	1	14
353.708	1	-3
354.050	1	-3
354.392	1	-1
354.734	1	1
355.076	1	6
355.418	1	-7
355.760	1	1
356.102	1	22
356.444	1	15
356.785	1	10
357.127	1	4
357.469	1	9
357.811	1	-1
358.153	1	10
358.495	1	16
358.837	1	4
359.179	1	4
359.521	1	19
359.863	1	11
360.205	1	8
360.547	1	18
360.889	1	7
361.231	1	14
361.572	1	17
361.914	1	13
362.256	1	15
362.598	1	4
362.940	1	20
363.282	1	18
363.624	1	36
363.966	1	24
364.308	1	25
364.649	1	28
364.991	1	37
365.333	1	30
365.675	1	30
366.017	1	48
366.359	1	43
366.701	1	50
367.042	1	49
367.384	1	45
367.726	1	64
368.068	1	64
368.410	1	69
368.752	1	56
369.093	1	59
369.435	1	75
369.777	1	61
370.119	1	59
370.461	1	82
370.803	1	66
371.144	1	58
371.486	1	66
371.828	1	56
372.170	1	56
372.512	1	57
372.853	1	51
373.195	1	45
373.537	1	51
373.879	1	44
374.220	1	56
374.562	1	44
374.904	1	44
375.246	1	52
375.588	1	50
375.929	1	37
376.271	1	44
376.613	1	30
376.955	1	32
377.296	1	29
377.638	1	34
377.980	1	35
378.321	1	21
378.663	1	31
379.005	1	31
379.347	1	33
379.688	1	17
380.030	1	15
380.372	1	29
380.714	1	25
381.055	1	22
381.397	1	25
381.739	1	23
382.080	1	20
382.422	1	24
382.764	1	10
383.105	1	9
383.447	1	11
383.789	1	12
384.130	1	10
384.472	1	18
384.814	1	7
385.156	1	6
385.497	1	12
385.839	1	8
386.180	1	10
386.522	1	13
386.864	1	15
387.205	1	6
387.547	1	14
387.889	1	13
388.230	1	23
388.572	1	12
388.914	1	10
389.255	1	6
389.597	1	12
389.939	1	17
390.280	1	4
390.622	1	-1
390.963	1	25
391.305	1	10
391.647	1	14
391.988	1	11
392.330	1	12
392.671	1	4
393.013	1	1
393.355	1	12
393.696	1	19
394.038	1	9
394.379	1	7
394.721	1	-5
395.062	1	7
395.404	1	0
395.746	1	20
396.087	1	1
396.429	1	6
396.770	1	-2
397.112	1	10
397.453	1	13
397.795	1	5
398.136	1	-2
398.478	1	4
398.819	1	9
399.161	1	15
399.503	1	8
399.844	1	3
400.186	1	8
400.527	1	2
400.869	1	3
401.210	1	0
401.552	1	-4
401.893	1	2
402.235	1	0
402.576	1	3
402.918	1	10
403.259	1	6
403.601	1	-7
403.942	1	15
404.284	1	18
404.625	1	0
404.967	1	7
405.308	1	2
405.649	1	4
405.991	1	5
406.332	1	3
406.674	1	7
407.015	1	12
407.357	1	3
407.698	1	8
408.040	1	2
408.381	1	4
408.722	1	-9
409.064	1	5
409.405	1	4
409.747	1	6
410.088	1	-6
410.430	1	4
410.771	1	2
411.112	1	0
411.454	1	-1
411.795	1	5
412.137	1	7
412.478	1	13
412.819	1	3
413.161	1	10
413.502	1	4
413.844	1	8
414.185	1	7
414.526	1	0
414.868	1	5
415.209	1	0
415.550	1	0
415.892	1	-8
416.233	1	9
416.575	1	11
416.916	1	-7
417.257	1	-2
417.599	1	4
417.940	1	12
418.281	1	7
418.623	1	-1
418.964	1	-7
419.305	1	3
419.647	1	0
419.988	1	10
420.329	1	-10
420.671	1	9
421.012	1	-1
421.353	1	-8
421.695	1	3
422.036	1	8
422.377	1	0
422.718	1	15
423.060	1	0
423.401	1	5
423.742	1	3
424.084	1	-3
424.425	1	6
424.766	1	0
425.107	1	-2
425.449	1	5
425.790	1	-5
426.131	1	0
426.472	1	1
426.814	1	13
427.155	1	-6
427.496	1	2
427.837	1	-8
428.179	1	-5
428.520	1	11
428.861	1	5
429.202	1	9
429.544	1	4
429.885	1	11
430.226	1	-2
430.567	1	1
430.909	1	1
431.250	1	-2
431.591	1	7
431.932	1	0
432.273	1	-4
432.615	1	-7
432.956	1	-8
433.297	1	4
433.638	1	-5
433.979	1	0
434.320	1	12
434.662	1	-2
435.003	1	2
435.344	1	0
435.685	1	6
436.026	1	5
436.368	1	-2
436.709	1	-5
437.050	1	0
437.391	1	21
437.732	1	2
438.073	1	2
438.414	1	-7
438.756	1	-2
439.097	1	-7
439.438	1	4
439.779	1	2
440.120	1	-3
440.461	1	6
440.802	1	-2
441.143	1	17
441.485	1	7
441.826	1	-3
442.167	1	8
442.508	1	-3
442.849	1	8
443.190	1	11
443.531	1	8
443.872	1	1
444.213	1	9
444.554	1	16
444.895	1	3
445.237	1	-8
445.578	1	-11
445.919	1	-11
446.260	1	-4
446.601	1	4
446.942	1	2
447.283	1	-4
447.624	1	8
447.965	1	2
448.306	1	12
448.647	1	-4
448.988	1	-1
449.329	1	-2
449.670	1	4
450.011	1	13
450.352	1	2
450.693	1	-4
451.034	1	5
451.375	1	2
451.716	1	6
452.057	1	0
452.398	1	-6
452.739	1	3
453.080	1	-7
453.421	1	-1
453.762	1	5
454.103	1	7
454.444	1	-7
454.785	1	-5
455.126	1	-6
455.467	1	7
455.808	1	12
456.149	1	7
456.490	1	-6
456.831	1	12
457.172	1	-2
457.513	1	15
457.854	1	-1
458.195	1	-5
458.536	1	5
458.877	1	3
459.218	1	5
459.559	1	2
459.899	1	-4
460.240	1	-1
460.581	1	10
460.922	1	4
461.263	1	-4
461.604	1	-3
461.945	1	2
462.286	1	8
462.627	1	6
462.968	1	6
463.309	1	-4
463.649	1	1
463.990	1	4
464.331	1	-5
464.672	1	5
465.013	1	1
465.354	1	6
465.695	1	-5
466.036	1	-12
466.376	1	-7
466.717	1	-2
467.058	1	9
467.399	1	10
467.740	1	2
468.081	1	11
468.422	1	2
468.762	1	-13
469.103	1	-1
469.444	1	-9
469.785	1	-5
470.126	1	1
470.467	1	7
470.807	1	8
471.148	1	6
471.489	1	-4
471.830	1	0
472.171	1	5
472.511	1	-6
472.852	1	4
473.193	1	11
473.534	1	7
473.875	1	14
474.215	1	3
474.556	1	0
474.897	1	5
475.238	1	0
475.578	1	0
475.919	1	7
476.260	1	5
476.601	1	-4
476.942	1	12
477.282	1	-9
477.623	1	-5
477.964	1	-3
478.305	1	5
478.645	1	8
478.986	1	-1
479.327	1	-10
479.667	1	6
480.008	1	1
480.349	1	-6
480.690	1	8
481.030	1	-6
481.371	1	11
481.712	1	6
482.053	1	1
482.393	1	0
482.734	1	-2
483.075	1	2
483.415	1	2
483.756	1	9
484.097	1	5
484.437	1	-10
484.778	1	10
485.119	1	-3
485.459	1	9
485.800	1	8
486.141	1	-1
486.481	1	3
486.822	1	9
487.163	1	7
487.503	1	-6
487.844	1	-2
488.185	1	0
488.525	1	0
488.866	1	-6
489.207	1	-8
489.547	1	-3
489.888	1	-1
490.228	1	10
490.569	1	12
490.910	1	-1
491.250	1	-1
491.591	1	-7
491.932	1	-1
492.272	1	7
492.613	1	-4
492.953	1	-1
493.294	1	-2
493.635	1	7
493.975	1	4
494.316	1	-1
494.656	1	9
494.997	1	5
495.337	1	13
495.678	1	-4
496.019	1	5
496.359	1	-10
496.700	1	-3
497.040	1	-3
497.381	1	0
497.721	1	8
498.062	1	4
498.403	1	4
498.743	1	-1
499.084	1	6
499.424	1	0
499.765	1	1
500.105	1	2
500.446	1	-6
500.786	1	-7
501.127	1	12
501.467	1	-3
501.808	1	7
502.148	1	5
502.489	1	14
502.829	1	3
503.170	1	10
503.510	1	8
503.851	1	1
504.191	1	7
504.532	1	9
504.872	1	-2
505.213	1	10
505.553	1	0
505.894	1	-6
506.234	1	9
506.575	1	7
506.915	1	6
507.256	1	13
507.596	1	-4
507.936	1	6
508.277	1	8
508.617	1	8
508.958	1	2
509.298	1	1
509.639	1	-1
509.979	1	4
510.319	1	12
510.660	1	3
511.000	1	-3
511.341	1	0
511.681	1	9
512.022	1	-4
512.362	1	0
512.702	1	7
513.043	1	11
513.383	1	-8
513.724	1	12
514.064	1	11
514.404	1	11
514.745	1	3
515.085	1	-2
515.425	1	1
515.766	1	0
516.106	1	5
516.447	1	14
516.787	1	4
517.127	1	12
517.468	1	-1
517.808	1	-2
518.148	1	1
518.489	1	2
518.829	1	12
519.169	1	4
519.510	1	9
519.850	1	17
520.190	1	-2
520.531	1	7
520.871	1	9
521.211	1	0
521.552	1	14
521.892	1	6
522.232	1	9
522.573	1	7
522.913	1	2
523.253	1	10
523.593	1	6
523.934	1	10
524.274	1	15
524.614	1	-3
524.955	1	-3
525.295	1	4
525.635	1	9
525.975	1	-4
526.316	1	12
526.656	1	8
526.996	1	5
527.337	1	1
527.677	1	11
528.017	1	1
528.357	1	2
528.698	1	10
529.038	1	5
529.378	1	4
529.718	1	20
530.058	1	12
530.399	1	14
530.739	1	7
531.079	1	8
531.419	1	10
531.760	1	7
532.100	1	7
532.440	1	7
532.780	1	1
533.120	1	6
533.461	1	8
533.801	1	23
534.141	1	-7
534.481	1	-1
534.821	1	4
535.162	1	-1
535.502	1	-6
535.842	1	6
536.182	1	-1
536.522	1	1
536.862	1	18
537.203	1	-6
537.543	1	-3
537.883	1	2
538.223	1	2
538.563	1	17
538.903	1	4
539.243	1	5
539.584	1	7
539.924	1	16
540.264	1	2
540.604	1	10
540.944	1	7
541.284	1	16
541.624	1	5
541.964	1	11
542.305	1	0
542.645	1	10
542.985	1	7
543.325	1	4
543.665	1	6
544.005	1	10
544.345	1	10
544.685	1	11
545.025	1	7
545.365	1	11
545.705	1	5
546.045	1	0
546.386	1	12
546.726	1	-2
547.066	1	7
547.406	1	9
547.746	1	-9
548.086	1	7
548.426	1	5
548.766	1	-1
549.106	1	12
549.446	1	5
549.786	1	0
550.126	1	17
550.466	1	5
550.806	1	0
551.146	1	3
551.486	1	13
551.826	1	4
552.166	1	11
552.506	1	13
552.846	1	6
553.186	1	6
553.526	1	6
553.866	1	0
554.206	1	8
554.546	1	3
554.886	1	5
555.226	1	10
555.566	1	8
555.906	1	10
556.246	1	8
556.586	1	14
556.926	1	14
557.266	1	11
557.606	1	9
557.946	1	14
558.286	1	2
558.626	1	3
558.966	1	2
559.306	1	3
559.646	1	4
559.986	1	0
560.325	1	-3
560.665	1	1
561.005	1	3
561.345	1	5
561.685	1	9
562.025	1	8
562.365	1	11
562.705	1	-1
563.045	1	1
563.385	1	-5
563.725	1	5
564.064	1	10
564.404	1	12
564.744	1	3
565.084	1	4
565.424	1	4
565.764	1	2
566.104	1	6
566.444	1	-10
566.783	1	2
567.123	1	10
567.463	1	10
567.803	1	2
568.143	1	3
568.483	1	0
568.823	1	6
569.162	1	10
569.502	1	0
569.842	1	9
570.182	1	7
570.522	1	-6
570.862	1	2
571.201	1	6
571.541	1	7
571.881	1	16
572.221	1	9
572.561	1	6
572.900	1	5
573.240	1	7
573.580	1	7
573.920	1	20
574.260	1	10
574.599	1	8
574.939	1	8
575.279	1	10
575.619	1	10
575.959	1	-4
576.298	1	9
576.638	1	-6
576.978	1	17
577.318	1	18
577.657	1	-5
577.997	1	4
578.337	1	17
578.677	1	8
579.016	1	19
579.356	1	-1
579.696	1	7
580.036	1	3
580.375	1	13
580.715	1	9
581.055	1	17
581.394	1	8
581.734	1	-1
582.074	1	6
582.414	1	11
582.753	1	-4
583.093	1	-1
583.433	1	8
583.772	1	9
584.112	1	-3
584.452	1	4
584.791	1	2
585.131	1	6
585.471	1	16
585.811	1	5
586.150	1	6
586.490	1	5
586.830	1	4
587.169	1	13
587.509	1	10
587.849	1	-1
588.188	1	19
588.528	1	0
588.867	1	12
589.207	1	4
589.547	1	7
589.886	1	3
590.226	1	5
590.566	1	2
590.905	1	-6
591.245	1	-7
591.585	1	9
591.924	1	1
592.264	1	8
592.603	1	5
592.943	1	9
593.283	1	15
593.622	1	-5
593.962	1	0
594.301	1	9
594.641	1	7
594.981	1	1
595.320	1	7
595.660	1	5
595.999	1	-1
596.339	1	6
596.678	1	2
597.018	1	-2
597.358	1	13
597.697	1	3
598.037	1	7
598.376	1	15
598.716	1	11
599.055	1	12
599.395	1	9
599.734	1	1
600.074	1	7
600.413	1	17
600.753	1	5
601.092	1	13
601.432	1	-5
601.771	1	7
602.111	1	7
602.451	1	5
602.790	1	8
603.130	1	9
603.469	1	2
603.809	1	10
604.148	1	-1
604.487	1	11
604.827	1	4
605.166	1	6
605.506	1	6
605.845	1	5
606.185	1	9
606.524	1	5
606.864	1	3
607.203	1	8
607.543	1	8
607.882	1	5
608.222	1	13
608.561	1	10
608.901	1	0
609.240	1	0
609.579	1	15
609.919	1	17
610.258	1	10
610.598	1	1
610.937	1	-5
611.277	1	11
611.616	1	4
611.955	1	4
612.295	1	3
612.634	1	8
612.974	1	-15
613.313	1	13
613.652	1	13
613.992	1	0
614.331	1	1
614.671	1	14
615.010	1	4
615.349	1	13
615.689	1	12
616.028	1	5
616.368	1	1
616.707	1	3
617.046	1	1
617.386	1	6
617.725	1	7
618.064	1	5
618.404	1	7
618.743	1	10
619.082	1	-2
619.422	1	-10
619.761	1	10
620.100	1	7
620.440	1	4
620.779	1	-4
621.118	1	9
621.458	1	-2
621.797	1	5
622.136	1	9
622.476	1	5
622.815	1	4
623.154	1	6
623.494	1	20
623.833	1	10
624.172	1	1
624.511	1	4
624.851	1	0
625.190	1	-7
625.529	1	-1
625.869	1	6
626.208	1	-1
626.547	1	5
626.886	1	8
627.226	1	2
627.565	1	3
627.904	1	-3
628.243	1	2
628.583	1	-3
628.922	1	1
629.261	1	8
629.600	1	20
629.940	1	5
630.279	1	-2
630.618	1	2
630.957	1	6
631.297	1	-2
631.636	1	-9
631.975	1	19
632.314	1	-3
632.653	1	2
632.993	1	0
633.332	1	5
633.671	1	-5
634.010	1	-1
634.349	1	8
634.689	1	1
635.028	1	13
635.367	1	0
635.706	1	6
636.045	1	14
636.384	1	-9
636.724	1	6
637.063	1	-1
637.402	1	1
637.741	1	11
638.080	1	1
638.419	1	3
638.759	1	5
639.098	1	8
639.437	1	0
639.776	1	6
640.115	1	0
640.454	1	-1
640.793	1	9
641.132	1	2
641.472	1	16
641.811	1	8
642.150	1	-1
642.489	1	7
642.828	1	-1
643.167	1	-2
643.506	1	-4
643.845	1	-3
644.184	1	-5
644.524	1	7
644.863	1	0
645.202	1	2
645.541	1	6
645.880	1	5
646.219	1	5
646.558	1	4
646.897	1	7
647.236	1	9
647.575	1	1
647.914	1	3
648.253	1	7
648.592	1	-2
648.931	1	9
649.270	1	6
649.610	1	0
649.949	1	-6
650.288	1	4
650.627	1	-2
650.966	1	-1
651.305	1	3
651.644	1	10
651.983	1	2
652.322	1	1
652.661	1	4
653.000	1	-4
653.339	1	8
653.678	1	-7
654.017	1	-1
654.356	1	0
654.695	1	2
655.034	1	13
655.373	1	9
655.712	1	11
656.051	1	7
656.390	1	0
656.729	1	13
657.068	1	12
657.406	1	3
657.745	1	-1
658.084	1	7
658.423	1	9
658.762	1	3
659.101	1	3
659.440	1	8
659.779	1	5
660.118	1	11
660.457	1	8
660.796	1	-11
661.135	1	9
661.474	1	-3
661.813	1	6
662.152	1	2
662.491	1	-2
662.829	1	-1
663.168	1	2
663.507	1	12
663.846	1	-2
664.185	1	5
664.524	1	3
664.863	1	0
665.202	1	7
665.541	1	-10
665.879	1	3
666.218	1	-7
666.557	1	-6
666.896	1	-5
667.235	1	5
667.574	1	4
667.913	1	2
668.251	1	-2
668.590	1	-8
668.929	1	-15
669.268	1	-5
669.607	1	-2
669.946	1	3
670.285	1	-3
670.623	1	-1
670.962	1	6
671.301	1	7
671.640	1	3
671.979	1	-4
672.317	1	3
672.656	1	2
672.995	1	6
673.334	1	1
673.673	1	0
674.011	1	-3
674.350	1	-4
674.689	1	3
675.028	1	3
675.367	1	14
675.705	1	6
676.044	1	5
676.383	1	4
676.722	1	11
677.060	1	-1
677.399	1	-3
677.738	1	4
678.077	1	12
678.416	1	7
678.754	1	0
679.093	1	10
679.432	1	-3
679.771	1	0
680.109	1	7
680.448	1	10
680.787	1	0
681.125	1	8
681.464	1	5
681.803	1	1
682.142	1	13
682.480	1	19
682.819	1	5
683.158	1	2
683.496	1	8
683.835	1	3
684.174	1	5
684.512	1	6
684.851	1	2
685.190	1	2
685.529	1	0
685.867	1	4
686.206	1	-2
686.545	1	-1
686.883	1	-4
687.222	1	6
687.561	1	9
687.899	1	-1
688.238	1	11
688.577	1	5
688.746	1	13