File: Data/GaN_200K_800ms/GaN_sample F_spot 12_UVVIS_200 K_200um_800 ms 2x2mm1_27.txt
340.368	1	8
340.710	1	-6
341.052	1	2
341.394	1	1
341.737	1	4
342.079	1	-5
342.421	1	-3
342.763	1	2
343.105	1	4
343.447	1	-10
343.789	1	-11
344.131	1	4
344.473	1	0
344.815	1	3
345.157	1	-2
345.499	1	11
345.841	1	-1
346.183	1	-3
346.526	1	-1
346.868	1	1
347.210	1	-8
347.552	1	-1
347.894	1	-1
348.236	1	7
348.578	1	2
348.920	1	-6
349.262	1	-4
349.604	1	1
349.946	1	1
350.288	1	2
350.630	1	-2
350.972	1	-2
351.314	1	6
351.656	1	10
351.998	1	10
352.340	1	5
352.682	1	2
353.024	1	-3
353.366	1	13
353.708	1	2
354.050	1	-5
354.392	1	8
354.734	1	6
355.076	1	9
355.418	1	-4
355.760	1	-7
356.102	1	3
356.444	1	4
356.785	1	9
357.127	1	-7
357.469	1	-4
357.811	1	-2
358.153	1	4
358.495	1	4
358.837	1	-6
359.179	1	-1
359.521	1	11
359.863	1	3
360.205	1	6
360.547	1	2
360.889	1	-8
361.231	1	-7
361.572	1	3
361.914	1	7
362.256	1	-1
362.598	1	-1
362.940	1	-2
363.282	1	8
363.624	1	9
363.966	1	1
364.308	1	2
364.649	1	4
364.991	1	4
365.333	1	6
365.675	1	-10
366.017	1	3
366.359	1	-6
366.701	1	3
367.042	1	8
367.384	1	6
367.726	1	-3
368.068	1	3
368.410	1	13
368.752	1	-8
369.093	1	3
369.435	1	3
369.777	1	-2
370.119	1	-5
370.461	1	17
370.803	1	-4
371.144	1	-9
371.486	1	6
371.828	1	1
372.170	1	6
372.512	1	-3
372.853	1	9
373.195	1	-6
373.537	1	8
373.879	1	3
374.220	1	14
374.562	1	3
374.904	1	1
375.246	1	7
375.588	1	7
375.929	1	3
376.271	1	9
376.613	1	1
376.955	1	-10
377.296	1	-4
377.638	1	-4
377.980	1	8
378.321	1	-3
378.663	1	-1
379.005	1	12
379.347	1	5
379.688	1	10
380.030	1	7
380.372	1	2
380.714	1	4
381.055	1	7
381.397	1	2
381.739	1	7
382.080	1	5
382.422	1	-1
382.764	1	-4
383.105	1	-4
383.447	1	4
383.789	1	-7
384.130	1	-6
384.472	1	-9
384.814	1	10
385.156	1	6
385.497	1	2
385.839	1	0
386.180	1	3
386.522	1	5
386.864	1	0
387.205	1	-2
387.547	1	-9
387.889	1	-3
388.230	1	10
388.572	1	0
388.914	1	-1
389.255	1	-2
389.597	1	7
389.939	1	1
390.280	1	3
390.622	1	-9
390.963	1	-1
391.305	1	13
391.647	1	-4
391.988	1	9
392.330	1	11
392.671	1	2
393.013	1	0
393.355	1	2
393.696	1	5
394.038	1	7
394.379	1	7
394.721	1	0
395.062	1	3
395.404	1	-12
395.746	1	8
396.087	1	5
396.429	1	6
396.770	1	3
397.112	1	8
397.453	1	14
397.795	1	11
398.136	1	-2
398.478	1	6
398.819	1	1
399.161	1	8
399.503	1	7
399.844	1	-2
400.186	1	-5
400.527	1	-5
400.869	1	-2
401.210	1	8
401.552	1	-9
401.893	1	-1
402.235	1	-1
402.576	1	4
402.918	1	10
403.259	1	9
403.601	1	5
403.942	1	15
404.284	1	7
404.625	1	4
404.967	1	4
405.308	1	6
405.649	1	0
405.991	1	3
406.332	1	4
406.674	1	1
407.015	1	8
407.357	1	-2
407.698	1	5
408.040	1	-5
408.381	1	7
408.722	1	-13
409.064	1	4
409.405	1	2
409.747	1	-3
410.088	1	9
410.430	1	10
410.771	1	-4
411.112	1	5
411.454	1	-2
411.795	1	-2
412.137	1	10
412.478	1	18
412.819	1	2
413.161	1	-10
413.502	1	1
413.844	1	8
414.185	1	12
414.526	1	-6
414.868	1	8
415.209	1	-5
415.550	1	-1
415.892	1	1
416.233	1	14
416.575	1	8
416.916	1	-2
417.257	1	-1
417.599	1	4
417.940	1	12
418.281	1	10
418.623	1	0
418.964	1	-17
419.305	1	6
419.647	1	1
419.988	1	1
420.329	1	1
420.671	1	13
421.012	1	4
421.353	1	-2
421.695	1	3
422.036	1	5
422.377	1	2
422.718	1	5
423.060	1	3
423.401	1	0
423.742	1	-3
424.084	1	3
424.425	1	-2
424.766	1	1
425.107	1	1
425.449	1	0
425.790	1	-5
426.131	1	4
426.472	1	4
426.814	1	-4
427.155	1	-2
427.496	1	1
427.837	1	-4
428.179	1	-3
428.520	1	6
428.861	1	-3
429.202	1	-1
429.544	1	3
429.885	1	4
430.226	1	-3
430.567	1	14
430.909	1	2
431.250	1	0
431.591	1	5
431.932	1	-8
432.273	1	0
432.615	1	-7
432.956	1	-2
433.297	1	1
433.638	1	1
433.979	1	0
434.320	1	6
434.662	1	5
435.003	1	0
435.344	1	5
435.685	1	2
436.026	1	10
436.368	1	3
436.709	1	2
437.050	1	2
437.391	1	9
437.732	1	-4
438.073	1	4
438.414	1	-5
438.756	1	-8
439.097	1	-12
439.438	1	-2
439.779	1	-2
440.120	1	-2
440.461	1	4
440.802	1	-3
441.143	1	6
441.485	1	2
441.826	1	2
442.167	1	8
442.508	1	-2
442.849	1	9
443.190	1	-4
443.531	1	8
443.872	1	4
444.213	1	14
444.554	1	6
444.895	1	-2
445.237	1	1
445.578	1	-6
445.919	1	-4
446.260	1	-8
446.601	1	0
446.942	1	3
447.283	1	4
447.624	1	2
447.965	1	-9
448.306	1	0
448.647	1	-8
448.988	1	-7
449.329	1	-4
449.670	1	5
450.011	1	8
450.352	1	-7
450.693	1	-2
451.034	1	-4
451.375	1	8
451.716	1	-4
452.057	1	6
452.398	1	-2
452.739	1	7
453.080	1	0
453.421	1	-4
453.762	1	7
454.103	1	2
454.444	1	-15
454.785	1	0
455.126	1	-6
455.467	1	7
455.808	1	-7
456.149	1	-3
456.490	1	6
456.831	1	5
457.172	1	-1
457.513	1	7
457.854	1	1
458.195	1	2
458.536	1	5
458.877	1	1
459.218	1	10
459.559	1	10
459.899	1	6
460.240	1	-1
460.581	1	21
460.922	1	6
461.263	1	-3
461.604	1	1
461.945	1	0
462.286	1	-11
462.627	1	7
462.968	1	5
463.309	1	0
463.649	1	6
463.990	1	2
464.331	1	-4
464.672	1	8
465.013	1	-1
465.354	1	-1
465.695	1	1
466.036	1	6
466.376	1	-1
466.717	1	4
467.058	1	2
467.399	1	4
467.740	1	-1
468.081	1	2
468.422	1	-1
468.762	1	1
469.103	1	-6
469.444	1	-9
469.785	1	-2
470.126	1	-9
470.467	1	6
470.807	1	0
471.148	1	5
471.489	1	3
471.830	1	-2
472.171	1	1
472.511	1	3
472.852	1	-6
473.193	1	8
473.534	1	8
473.875	1	15
474.215	1	1
474.556	1	-3
474.897	1	4
475.238	1	0
475.578	1	-10
475.919	1	-1
476.260	1	2
476.601	1	9
476.942	1	5
477.282	1	1
477.623	1	-2
477.964	1	-10
478.305	1	-1
478.645	1	6
478.986	1	4
479.327	1	-7
479.667	1	-4
480.008	1	-3
480.349	1	-2
480.690	1	-3
481.030	1	-7
481.371	1	0
481.712	1	2
482.053	1	11
482.393	1	3
482.734	1	-11
483.075	1	1
483.415	1	5
483.756	1	18
484.097	1	-2
484.437	1	-9
484.778	1	2
485.119	1	-5
485.459	1	15
485.800	1	8
486.141	1	-1
486.481	1	1
486.822	1	9
487.163	1	8
487.503	1	-4
487.844	1	8
488.185	1	8
488.525	1	-1
488.866	1	-2
489.207	1	-2
489.547	1	3
489.888	1	4
490.228	1	8
490.569	1	18
490.910	1	-4
491.250	1	-1
491.591	1	-8
491.932	1	-3
492.272	1	3
492.613	1	-16
492.953	1	-3
493.294	1	-1
493.635	1	-3
493.975	1	-6
494.316	1	4
494.656	1	-3
494.997	1	6
495.337	1	9
495.678	1	5
496.019	1	0
496.359	1	-8
496.700	1	3
497.040	1	4
497.381	1	-1
497.721	1	-11
498.062	1	-11
498.403	1	0
498.743	1	-1
499.084	1	-2
499.424	1	6
499.765	1	-1
500.105	1	1
500.446	1	-5
500.786	1	-1
501.127	1	1
501.467	1	-4
501.808	1	6
502.148	1	3
502.489	1	3
502.829	1	1
503.170	1	2
503.510	1	0
503.851	1	-5
504.191	1	8
504.532	1	-1
504.872	1	-4
505.213	1	5
505.553	1	2
505.894	1	-3
506.234	1	2
506.575	1	1
506.915	1	6
507.256	1	1
507.596	1	-1
507.936	1	6
508.277	1	-9
508.617	1	3
508.958	1	-3
509.298	1	4
509.639	1	-5
509.979	1	1
510.319	1	3
510.660	1	-6
511.000	1	4
511.341	1	1
511.681	1	6
512.022	1	-8
512.362	1	-1
512.702	1	-8
513.043	1	4
513.383	1	-12
513.724	1	0
514.064	1	14
514.404	1	0
514.745	1	-2
515.085	1	-4
515.425	1	8
515.766	1	-4
516.106	1	-3
516.447	1	12
516.787	1	2
517.127	1	2
517.468	1	4
517.808	1	6
518.148	1	1
518.489	1	3
518.829	1	2
519.169	1	7
519.510	1	2
519.850	1	7
520.190	1	-8
520.531	1	-5
520.871	1	2
521.211	1	-7
521.552	1	1
521.892	1	6
522.232	1	0
522.573	1	4
522.913	1	8
523.253	1	-3
523.593	1	6
523.934	1	-9
524.274	1	-10
524.614	1	-4
524.955	1	-5
525.295	1	-2
525.635	1	-8
525.975	1	-4
526.316	1	4
526.656	1	-2
526.996	1	3
527.337	1	-7
527.677	1	-5
528.017	1	-17
528.357	1	-2
528.698	1	-3
529.038	1	10
529.378	1	4
529.718	1	6
530.058	1	2
530.399	1	12
530.739	1	1
531.079	1	3
531.419	1	-4
531.760	1	0
532.100	1	3
532.440	1	-3
532.780	1	-3
533.120	1	2
533.461	1	1
533.801	1	13
534.141	1	-7
534.481	1	-7
534.821	1	6
535.162	1	-2
535.502	1	-12
535.842	1	10
536.182	1	-4
536.522	1	-4
536.862	1	7
537.203	1	-7
537.543	1	6
537.883	1	-2
538.223	1	0
538.563	1	8
538.903	1	-3
539.243	1	6
539.584	1	-8
539.924	1	11
540.264	1	-6
540.604	1	3
540.944	1	0
541.284	1	3
541.624	1	12
541.964	1	13
542.305	1	3
542.645	1	5
542.985	1	1
543.325	1	4
543.665	1	9
544.005	1	9
544.345	1	5
544.685	1	-8
545.025	1	1
545.365	1	-3
545.705	1	8
546.045	1	-3
546.386	1	0
546.726	1	-3
547.066	1	5
547.406	1	5
547.746	1	-14
548.086	1	4
548.426	1	-9
548.766	1	-1
549.106	1	3
549.446	1	-3
549.786	1	-6
550.126	1	1
550.466	1	-1
550.806	1	-6
551.146	1	-1
551.486	1	-1
551.826	1	4
552.166	1	-5
552.506	1	15
552.846	1	-6
553.186	1	6
553.526	1	1
553.866	1	7
554.206	1	-2
554.546	1	2
554.886	1	0
555.226	1	-5
555.566	1	5
555.906	1	8
556.246	1	4
556.586	1	-7
556.926	1	8
557.266	1	-1
557.606	1	6
557.946	1	12
558.286	1	-1
558.626	1	15
558.966	1	3
559.306	1	-1
559.646	1	-10
559.986	1	-6
560.325	1	-3
560.665	1	2
561.005	1	-11
561.345	1	2
561.685	1	0
562.025	1	8
562.365	1	5
562.705	1	0
563.045	1	-4
563.385	1	-17
563.725	1	4
564.064	1	11
564.404	1	-4
564.744	1	3
565.084	1	4
565.424	1	9
565.764	1	8
566.104	1	4
566.444	1	-10
566.783	1	1
567.123	1	6
567.463	1	7
567.803	1	-8
568.143	1	1
568.483	1	4
568.823	1	2
569.162	1	6
569.502	1	2
569.842	1	4
570.182	1	-1
570.522	1	-13
570.862	1	-4
571.201	1	9
571.541	1	5
571.881	1	15
572.221	1	-1
572.561	1	-2
572.900	1	0
573.240	1	10
573.580	1	2
573.920	1	-1
574.260	1	10
574.599	1	-1
574.939	1	4
575.279	1	2
575.619	1	14
575.959	1	-2
576.298	1	8
576.638	1	-3
576.978	1	6
577.318	1	3
577.657	1	4
577.997	1	-3
578.337	1	13
578.677	1	6
579.016	1	15
579.356	1	-9
579.696	1	7
580.036	1	5
580.375	1	10
580.715	1	4
581.055	1	-3
581.394	1	-1
581.734	1	-11
582.074	1	-2
582.414	1	5
582.753	1	1
583.093	1	0
583.433	1	-2
583.772	1	2
584.112	1	-7
584.452	1	0
584.791	1	-9
585.131	1	8
585.471	1	14
585.811	1	1
586.150	1	5
586.490	1	5
586.830	1	3
587.169	1	3
587.509	1	-6
587.849	1	0
588.188	1	4
588.528	1	7
588.867	1	3
589.207	1	2
589.547	1	-4
589.886	1	-4
590.226	1	9
590.566	1	12
590.905	1	-5
591.245	1	0
591.585	1	8
591.924	1	5
592.264	1	5
592.603	1	8
592.943	1	-1
593.283	1	3
593.622	1	6
593.962	1	4
594.301	1	-4
594.641	1	-4
594.981	1	-1
595.320	1	4
595.660	1	-2
595.999	1	-1
596.339	1	5
596.678	1	-6
597.018	1	-5
597.358	1	5
597.697	1	-2
598.037	1	2
598.376	1	3
598.716	1	4
599.055	1	10
599.395	1	4
599.734	1	2
600.074	1	1
600.413	1	6
600.753	1	7
601.092	1	10
601.432	1	-8
601.771	1	11
602.111	1	7
602.451	1	5
602.790	1	9
603.130	1	5
603.469	1	-5
603.809	1	8
604.148	1	8
604.487	1	-3
604.827	1	9
605.166	1	0
605.506	1	3
605.845	1	-4
606.185	1	6
606.524	1	-3
606.864	1	-3
607.203	1	2
607.543	1	2
607.882	1	5
608.222	1	9
608.561	1	-4
608.901	1	1
609.240	1	-2
609.579	1	0
609.919	1	6
610.258	1	2
610.598	1	-8
610.937	1	-5
611.277	1	-3
611.616	1	4
611.955	1	-4
612.295	1	1
612.634	1	3
612.974	1	-8
613.313	1	2
613.652	1	4
613.992	1	-1
614.331	1	2
614.671	1	4
615.010	1	3
615.349	1	6
615.689	1	15
616.028	1	-6
616.368	1	6
616.707	1	-2
617.046	1	7
617.386	1	4
617.725	1	0
618.064	1	0
618.404	1	-3
618.743	1	8
619.082	1	3
619.422	1	-11
619.761	1	3
620.100	1	13
620.440	1	5
620.779	1	-3
621.118	1	0
621.458	1	-2
621.797	1	4
622.136	1	9
622.476	1	9
622.815	1	6
623.154	1	12
623.494	1	16
623.833	1	6
624.172	1	5
624.511	1	-1
624.851	1	-2
625.190	1	5
625.529	1	-3
625.869	1	11
626.208	1	4
626.547	1	0
626.886	1	12
627.226	1	1
627.565	1	3
627.904	1	2
628.243	1	3
628.583	1	2
628.922	1	4
629.261	1	1
629.600	1	6
629.940	1	4
630.279	1	2
630.618	1	-2
630.957	1	3
631.297	1	-8
631.636	1	-8
631.975	1	12
632.314	1	2
632.653	1	-4
632.993	1	2
633.332	1	0
633.671	1	-3
634.010	1	-3
634.349	1	13
634.689	1	6
635.028	1	-2
635.367	1	5
635.706	1	1
636.045	1	12
636.384	1	-4
636.724	1	2
637.063	1	-9
637.402	1	-3
637.741	1	8
638.080	1	4
638.419	1	-1
638.759	1	-11
639.098	1	4
639.437	1	5
639.776	1	-1
640.115	1	3
640.454	1	0
640.793	1	11
641.132	1	-1
641.472	1	2
641.811	1	-2
642.150	1	-9
642.489	1	9
642.828	1	4
643.167	1	-7
643.506	1	-8
643.845	1	-4
644.184	1	-2
644.524	1	0
644.863	1	-11
645.202	1	-3
645.541	1	7
645.880	1	4
646.219	1	1
646.558	1	-6
646.897	1	5
647.236	1	6
647.575	1	1
647.914	1	-4
648.253	1	12
648.592	1	-2
648.931	1	12
649.270	1	9
649.610	1	-2
649.949	1	-1
650.288	1	2
650.627	1	5
650.966	1	3
651.305	1	8
651.644	1	5
651.983	1	7
652.322	1	-3
652.661	1	1
653.000	1	1
653.339	1	9
653.678	1	3
654.017	1	6
654.356	1	2
654.695	1	10
655.034	1	5
655.373	1	12
655.712	1	3
656.051	1	5
656.390	1	-7
656.729	1	7
657.068	1	0
657.406	1	7
657.745	1	2
658.084	1	-2
658.423	1	7
658.762	1	-2
659.101	1	14
659.440	1	9
659.779	1	1
660.118	1	1
660.457	1	10
660.796	1	-12
661.135	1	4
661.474	1	-1
661.813	1	6
662.152	1	7
662.491	1	-1
662.829	1	-7
663.168	1	0
663.507	1	10
663.846	1	-7
664.185	1	8
664.524	1	9
664.863	1	-2
665.202	1	-1
665.541	1	-10
665.879	1	-1
666.218	1	-5
666.557	1	-6
666.896	1	-2
667.235	1	4
667.574	1	3
667.913	1	-5
668.251	1	-4
668.590	1	-2
668.929	1	-10
669.268	1	-4
669.607	1	0
669.946	1	0
670.285	1	5
670.623	1	-2
670.962	1	2
671.301	1	0
671.640	1	-1
671.979	1	1
672.317	1	2
672.656	1	3
672.995	1	8
673.334	1	-4
673.673	1	3
674.011	1	1
674.350	1	6
674.689	1	1
675.028	1	1
675.367	1	7
675.705	1	13
676.044	1	8
676.383	1	8
676.722	1	12
677.060	1	-5
677.399	1	-3
677.738	1	5
678.077	1	11
678.416	1	4
678.754	1	-5
679.093	1	12
679.432	1	3
679.771	1	-1
680.109	1	9
680.448	1	9
680.787	1	-7
681.125	1	1
681.464	1	6
681.803	1	-3
682.142	1	13
682.480	1	17
682.819	1	2
683.158	1	-5
683.496	1	4
683.835	1	5
684.174	1	-5
684.512	1	7
684.851	1	0
685.190	1	-2
685.529	1	1
685.867	1	-5
686.206	1	-7
686.545	1	-7
686.883	1	4
687.222	1	10
687.561	1	0
687.899	1	5
688.238	1	7
688.577	1	4
688.746	1	-1