File: Data/GaN_200K_800ms/GaN_sample F_spot 12_UVVIS_200 K_200um_800 ms 2x2mm1_296.txt
340.368	1	0
340.710	1	1
341.052	1	3
341.394	1	-10
341.737	1	3
342.079	1	-13
342.421	1	-6
342.763	1	4
343.105	1	4
343.447	1	1
343.789	1	-2
344.131	1	-7
344.473	1	0
344.815	1	-9
345.157	1	-12
345.499	1	4
345.841	1	1
346.183	1	1
346.526	1	-6
346.868	1	4
347.210	1	-4
347.552	1	-2
347.894	1	1
348.236	1	5
348.578	1	-3
348.920	1	-1
349.262	1	-7
349.604	1	-2
349.946	1	-8
350.288	1	9
350.630	1	2
350.972	1	3
351.314	1	4
351.656	1	2
351.998	1	-1
352.340	1	-1
352.682	1	8
353.024	1	10
353.366	1	9
353.708	1	6
354.050	1	-7
354.392	1	-6
354.734	1	-3
355.076	1	-1
355.418	1	-11
355.760	1	-7
356.102	1	12
356.444	1	4
356.785	1	8
357.127	1	0
357.469	1	5
357.811	1	-6
358.153	1	8
358.495	1	5
358.837	1	-9
359.179	1	4
359.521	1	7
359.863	1	3
360.205	1	6
360.547	1	15
360.889	1	-1
361.231	1	-4
361.572	1	18
361.914	1	9
362.256	1	2
362.598	1	-10
362.940	1	-5
363.282	1	13
363.624	1	16
363.966	1	2
364.308	1	7
364.649	1	16
364.991	1	11
365.333	1	15
365.675	1	5
366.017	1	17
366.359	1	17
366.701	1	8
367.042	1	18
367.384	1	10
367.726	1	16
368.068	1	17
368.410	1	22
368.752	1	10
369.093	1	5
369.435	1	23
369.777	1	12
370.119	1	10
370.461	1	24
370.803	1	17
371.144	1	2
371.486	1	21
371.828	1	23
372.170	1	32
372.512	1	4
372.853	1	15
373.195	1	11
373.537	1	11
373.879	1	4
374.220	1	25
374.562	1	24
374.904	1	13
375.246	1	6
375.588	1	15
375.929	1	9
376.271	1	17
376.613	1	4
376.955	1	4
377.296	1	-4
377.638	1	7
377.980	1	15
378.321	1	-9
378.663	1	5
379.005	1	8
379.347	1	11
379.688	1	14
380.030	1	10
380.372	1	2
380.714	1	7
381.055	1	13
381.397	1	6
381.739	1	9
382.080	1	6
382.422	1	8
382.764	1	-2
383.105	1	7
383.447	1	5
383.789	1	3
384.130	1	-3
384.472	1	-1
384.814	1	-4
385.156	1	-1
385.497	1	9
385.839	1	0
386.180	1	-2
386.522	1	15
386.864	1	14
387.205	1	-5
387.547	1	-3
387.889	1	-4
388.230	1	11
388.572	1	-9
388.914	1	5
389.255	1	-5
389.597	1	11
389.939	1	8
390.280	1	-3
390.622	1	-7
390.963	1	0
391.305	1	9
391.647	1	0
391.988	1	7
392.330	1	4
392.671	1	1
393.013	1	2
393.355	1	4
393.696	1	10
394.038	1	1
394.379	1	-1
394.721	1	-7
395.062	1	-3
395.404	1	1
395.746	1	9
396.087	1	2
396.429	1	6
396.770	1	-11
397.112	1	4
397.453	1	12
397.795	1	-5
398.136	1	-10
398.478	1	2
398.819	1	4
399.161	1	14
399.503	1	-1
399.844	1	0
400.186	1	1
400.527	1	-10
400.869	1	-9
401.210	1	0
401.552	1	-7
401.893	1	-1
402.235	1	1
402.576	1	0
402.918	1	6
403.259	1	3
403.601	1	-2
403.942	1	11
404.284	1	9
404.625	1	5
404.967	1	-2
405.308	1	8
405.649	1	-4
405.991	1	-10
406.332	1	2
406.674	1	-8
407.015	1	1
407.357	1	-7
407.698	1	5
408.040	1	-2
408.381	1	3
408.722	1	-15
409.064	1	3
409.405	1	12
409.747	1	5
410.088	1	11
410.430	1	6
410.771	1	2
411.112	1	-1
411.454	1	-7
411.795	1	-3
412.137	1	10
412.478	1	12
412.819	1	4
413.161	1	-12
413.502	1	-1
413.844	1	5
414.185	1	3
414.526	1	0
414.868	1	-1
415.209	1	5
415.550	1	-8
415.892	1	9
416.233	1	5
416.575	1	6
416.916	1	-2
417.257	1	-4
417.599	1	3
417.940	1	5
418.281	1	3
418.623	1	-4
418.964	1	-11
419.305	1	-2
419.647	1	-8
419.988	1	-1
420.329	1	-1
420.671	1	6
421.012	1	4
421.353	1	2
421.695	1	-1
422.036	1	6
422.377	1	-8
422.718	1	2
423.060	1	-14
423.401	1	0
423.742	1	1
424.084	1	1
424.425	1	0
424.766	1	-1
425.107	1	-4
425.449	1	10
425.790	1	-6
426.131	1	3
426.472	1	-4
426.814	1	-5
427.155	1	-9
427.496	1	-4
427.837	1	-8
428.179	1	-10
428.520	1	1
428.861	1	4
429.202	1	0
429.544	1	-2
429.885	1	8
430.226	1	-2
430.567	1	2
430.909	1	-1
431.250	1	1
431.591	1	2
431.932	1	-6
432.273	1	1
432.615	1	-7
432.956	1	-3
433.297	1	6
433.638	1	2
433.979	1	1
434.320	1	7
434.662	1	-1
435.003	1	6
435.344	1	2
435.685	1	8
436.026	1	8
436.368	1	9
436.709	1	-2
437.050	1	-6
437.391	1	12
437.732	1	-10
438.073	1	-1
438.414	1	-7
438.756	1	2
439.097	1	-5
439.438	1	1
439.779	1	-7
440.120	1	2
440.461	1	5
440.802	1	-7
441.143	1	9
441.485	1	1
441.826	1	5
442.167	1	4
442.508	1	-4
442.849	1	11
443.190	1	3
443.531	1	1
443.872	1	4
444.213	1	-6
444.554	1	13
444.895	1	-9
445.237	1	-8
445.578	1	-10
445.919	1	-7
446.260	1	-5
446.601	1	2
446.942	1	0
447.283	1	5
447.624	1	-3
447.965	1	-3
448.306	1	4
448.647	1	-14
448.988	1	3
449.329	1	-1
449.670	1	10
450.011	1	0
450.352	1	-9
450.693	1	-3
451.034	1	4
451.375	1	-2
451.716	1	-1
452.057	1	9
452.398	1	-4
452.739	1	2
453.080	1	-1
453.421	1	-2
453.762	1	-2
454.103	1	-3
454.444	1	-3
454.785	1	0
455.126	1	-10
455.467	1	1
455.808	1	1
456.149	1	3
456.490	1	1
456.831	1	6
457.172	1	-9
457.513	1	5
457.854	1	5
458.195	1	-8
458.536	1	-6
458.877	1	-2
459.218	1	2
459.559	1	3
459.899	1	7
460.240	1	3
460.581	1	11
460.922	1	10
461.263	1	-10
461.604	1	3
461.945	1	-6
462.286	1	7
462.627	1	8
462.968	1	3
463.309	1	0
463.649	1	-11
463.990	1	1
464.331	1	-8
464.672	1	-5
465.013	1	-3
465.354	1	7
465.695	1	-11
466.036	1	-9
466.376	1	-6
466.717	1	0
467.058	1	-5
467.399	1	-2
467.740	1	4
468.081	1	5
468.422	1	3
468.762	1	-5
469.103	1	-11
469.444	1	0
469.785	1	-3
470.126	1	-7
470.467	1	-6
470.807	1	-1
471.148	1	2
471.489	1	-4
471.830	1	6
472.171	1	6
472.511	1	-6
472.852	1	-3
473.193	1	2
473.534	1	5
473.875	1	6
474.215	1	7
474.556	1	-2
474.897	1	4
475.238	1	4
475.578	1	-1
475.919	1	0
476.260	1	-1
476.601	1	-3
476.942	1	6
477.282	1	2
477.623	1	-5
477.964	1	5
478.305	1	4
478.645	1	8
478.986	1	-6
479.327	1	-13
479.667	1	-2
480.008	1	-10
480.349	1	-8
480.690	1	-1
481.030	1	-8
481.371	1	5
481.712	1	5
482.053	1	2
482.393	1	7
482.734	1	-5
483.075	1	-4
483.415	1	-3
483.756	1	6
484.097	1	0
484.437	1	-8
484.778	1	-5
485.119	1	-8
485.459	1	9
485.800	1	-2
486.141	1	-8
486.481	1	-7
486.822	1	4
487.163	1	-4
487.503	1	5
487.844	1	-1
488.185	1	-7
488.525	1	-2
488.866	1	-1
489.207	1	3
489.547	1	4
489.888	1	-1
490.228	1	4
490.569	1	11
490.910	1	3
491.250	1	-4
491.591	1	-10
491.932	1	-1
492.272	1	5
492.613	1	1
492.953	1	-4
493.294	1	-7
493.635	1	4
493.975	1	-2
494.316	1	6
494.656	1	-8
494.997	1	-4
495.337	1	7
495.678	1	-1
496.019	1	-6
496.359	1	-4
496.700	1	5
497.040	1	1
497.381	1	-3
497.721	1	-5
498.062	1	1
498.403	1	-2
498.743	1	2
499.084	1	-4
499.424	1	6
499.765	1	2
500.105	1	0
500.446	1	-15
500.786	1	-4
501.127	1	-6
501.467	1	-11
501.808	1	3
502.148	1	10
502.489	1	6
502.829	1	-2
503.170	1	6
503.510	1	9
503.851	1	-6
504.191	1	6
504.532	1	0
504.872	1	2
505.213	1	9
505.553	1	1
505.894	1	-5
506.234	1	7
506.575	1	4
506.915	1	2
507.256	1	3
507.596	1	1
507.936	1	-2
508.277	1	-3
508.617	1	2
508.958	1	-5
509.298	1	-3
509.639	1	-1
509.979	1	-9
510.319	1	3
510.660	1	2
511.000	1	-7
511.341	1	-2
511.681	1	2
512.022	1	0
512.362	1	-15
512.702	1	2
513.043	1	12
513.383	1	-7
513.724	1	-1
514.064	1	11
514.404	1	4
514.745	1	0
515.085	1	-4
515.425	1	-1
515.766	1	-5
516.106	1	-5
516.447	1	10
516.787	1	-1
517.127	1	6
517.468	1	-5
517.808	1	-3
518.148	1	2
518.489	1	-3
518.829	1	7
519.169	1	6
519.510	1	-1
519.850	1	7
520.190	1	-3
520.531	1	3
520.871	1	7
521.211	1	-5
521.552	1	8
521.892	1	8
522.232	1	3
522.573	1	-2
522.913	1	2
523.253	1	1
523.593	1	3
523.934	1	-4
524.274	1	-2
524.614	1	4
524.955	1	-14
525.295	1	-1
525.635	1	-4
525.975	1	6
526.316	1	6
526.656	1	-3
526.996	1	5
527.337	1	-2
527.677	1	3
528.017	1	-13
528.357	1	4
528.698	1	6
529.038	1	1
529.378	1	9
529.718	1	12
530.058	1	2
530.399	1	10
530.739	1	4
531.079	1	6
531.419	1	2
531.760	1	6
532.100	1	1
532.440	1	-2
532.780	1	-8
533.120	1	11
533.461	1	4
533.801	1	4
534.141	1	-15
534.481	1	-13
534.821	1	0
535.162	1	1
535.502	1	-6
535.842	1	8
536.182	1	3
536.522	1	-9
536.862	1	5
537.203	1	-6
537.543	1	1
537.883	1	-2
538.223	1	-3
538.563	1	6
538.903	1	-3
539.243	1	1
539.584	1	0
539.924	1	6
540.264	1	-9
540.604	1	6
540.944	1	-4
541.284	1	6
541.624	1	-1
541.964	1	9
542.305	1	12
542.645	1	3
542.985	1	6
543.325	1	-7
543.665	1	2
544.005	1	3
544.345	1	6
544.685	1	-4
545.025	1	-7
545.365	1	1
545.705	1	2
546.045	1	3
546.386	1	13
546.726	1	-7
547.066	1	6
547.406	1	-1
547.746	1	-9
548.086	1	7
548.426	1	-11
548.766	1	5
549.106	1	3
549.446	1	2
549.786	1	-2
550.126	1	11
550.466	1	1
550.806	1	-1
551.146	1	-1
551.486	1	8
551.826	1	6
552.166	1	-7
552.506	1	4
552.846	1	0
553.186	1	7
553.526	1	-1
553.866	1	1
554.206	1	10
554.546	1	5
554.886	1	8
555.226	1	-16
555.566	1	4
555.906	1	9
556.246	1	1
556.586	1	3
556.926	1	2
557.266	1	-6
557.606	1	4
557.946	1	5
558.286	1	-2
558.626	1	-1
558.966	1	6
559.306	1	-2
559.646	1	-5
559.986	1	2
560.325	1	2
560.665	1	0
561.005	1	5
561.345	1	1
561.685	1	0
562.025	1	0
562.365	1	-1
562.705	1	5
563.045	1	-2
563.385	1	-9
563.725	1	-2
564.064	1	-3
564.404	1	1
564.744	1	3
565.084	1	-4
565.424	1	2
565.764	1	-2
566.104	1	-5
566.444	1	-9
566.783	1	-4
567.123	1	9
567.463	1	-3
567.803	1	-11
568.143	1	1
568.483	1	4
568.823	1	-3
569.162	1	5
569.502	1	3
569.842	1	-1
570.182	1	3
570.522	1	-12
570.862	1	-6
571.201	1	6
571.541	1	0
571.881	1	12
572.221	1	2
572.561	1	-5
572.900	1	-10
573.240	1	3
573.580	1	5
573.920	1	6
574.260	1	9
574.599	1	-1
574.939	1	10
575.279	1	13
575.619	1	7
575.959	1	-5
576.298	1	11
576.638	1	2
576.978	1	3
577.318	1	1
577.657	1	-2
577.997	1	-10
578.337	1	2
578.677	1	3
579.016	1	12
579.356	1	-6
579.696	1	6
580.036	1	-5
580.375	1	13
580.715	1	5
581.055	1	-7
581.394	1	4
581.734	1	-5
582.074	1	6
582.414	1	11
582.753	1	6
583.093	1	0
583.433	1	-4
583.772	1	12
584.112	1	2
584.452	1	6
584.791	1	-7
585.131	1	9
585.471	1	5
585.811	1	9
586.150	1	-8
586.490	1	2
586.830	1	6
587.169	1	9
587.509	1	0
587.849	1	-5
588.188	1	2
588.528	1	0
588.867	1	2
589.207	1	10
589.547	1	-7
589.886	1	-2
590.226	1	9
590.566	1	-12
590.905	1	-1
591.245	1	2
591.585	1	4
591.924	1	-1
592.264	1	12
592.603	1	5
592.943	1	3
593.283	1	5
593.622	1	4
593.962	1	3
594.301	1	1
594.641	1	-7
594.981	1	-9
595.320	1	9
595.660	1	-3
595.999	1	-9
596.339	1	1
596.678	1	-5
597.018	1	-5
597.358	1	6
597.697	1	-5
598.037	1	-4
598.376	1	1
598.716	1	-2
599.055	1	4
599.395	1	-6
599.734	1	4
600.074	1	-1
600.413	1	11
600.753	1	1
601.092	1	13
601.432	1	-9
601.771	1	-2
602.111	1	8
602.451	1	3
602.790	1	-3
603.130	1	7
603.469	1	-3
603.809	1	6
604.148	1	1
604.487	1	4
604.827	1	9
605.166	1	8
605.506	1	1
605.845	1	1
606.185	1	4
606.524	1	-8
606.864	1	2
607.203	1	5
607.543	1	-7
607.882	1	-3
608.222	1	11
608.561	1	7
608.901	1	1
609.240	1	-8
609.579	1	6
609.919	1	15
610.258	1	10
610.598	1	0
610.937	1	1
611.277	1	-1
611.616	1	1
611.955	1	3
612.295	1	-10
612.634	1	-2
612.974	1	-11
613.313	1	-2
613.652	1	4
613.992	1	-1
614.331	1	-1
614.671	1	9
615.010	1	-7
615.349	1	6
615.689	1	5
616.028	1	-5
616.368	1	5
616.707	1	1
617.046	1	2
617.386	1	1
617.725	1	-2
618.064	1	-10
618.404	1	-2
618.743	1	3
619.082	1	-6
619.422	1	1
619.761	1	3
620.100	1	4
620.440	1	5
620.779	1	-8
621.118	1	-6
621.458	1	-3
621.797	1	5
622.136	1	10
622.476	1	3
622.815	1	14
623.154	1	6
623.494	1	6
623.833	1	10
624.172	1	-4
624.511	1	-3
624.851	1	-11
625.190	1	-1
625.529	1	4
625.869	1	12
626.208	1	0
626.547	1	6
626.886	1	8
627.226	1	0
627.565	1	0
627.904	1	-1
628.243	1	5
628.583	1	1
628.922	1	5
629.261	1	2
629.600	1	7
629.940	1	5
630.279	1	-11
630.618	1	-2
630.957	1	-2
631.297	1	1
631.636	1	-9
631.975	1	8
632.314	1	3
632.653	1	-1
632.993	1	-4
633.332	1	4
633.671	1	-4
634.010	1	-6
634.349	1	0
634.689	1	-2
635.028	1	0
635.367	1	3
635.706	1	5
636.045	1	21
636.384	1	2
636.724	1	1
637.063	1	-2
637.402	1	4
637.741	1	-2
638.080	1	1
638.419	1	-3
638.759	1	-3
639.098	1	7
639.437	1	-1
639.776	1	2
640.115	1	-3
640.454	1	1
640.793	1	8
641.132	1	4
641.472	1	-4
641.811	1	-2
642.150	1	-12
642.489	1	9
642.828	1	-9
643.167	1	-3
643.506	1	-11
643.845	1	-1
644.184	1	1
644.524	1	-3
644.863	1	-14
645.202	1	0
645.541	1	-4
645.880	1	-1
646.219	1	3
646.558	1	-3
646.897	1	6
647.236	1	-1
647.575	1	5
647.914	1	-5
648.253	1	2
648.592	1	-2
648.931	1	4
649.270	1	1
649.610	1	3
649.949	1	0
650.288	1	1
650.627	1	1
650.966	1	3
651.305	1	-3
651.644	1	8
651.983	1	-1
652.322	1	-3
652.661	1	-6
653.000	1	-3
653.339	1	5
653.678	1	-3
654.017	1	0
654.356	1	-2
654.695	1	-4
655.034	1	4
655.373	1	5
655.712	1	1
656.051	1	-2
656.390	1	-6
656.729	1	9
657.068	1	10
657.406	1	3
657.745	1	7
658.084	1	-1
658.423	1	14
658.762	1	-8
659.101	1	5
659.440	1	0
659.779	1	0
660.118	1	8
660.457	1	1
660.796	1	-17
661.135	1	1
661.474	1	-7
661.813	1	9
662.152	1	3
662.491	1	4
662.829	1	-8
663.168	1	1
663.507	1	15
663.846	1	2
664.185	1	3
664.524	1	-2
664.863	1	-1
665.202	1	4
665.541	1	-3
665.879	1	-20
666.218	1	-3
666.557	1	2
666.896	1	7
667.235	1	2
667.574	1	-2
667.913	1	3
668.251	1	-5
668.590	1	0
668.929	1	-11
669.268	1	3
669.607	1	-4
669.946	1	0
670.285	1	-3
670.623	1	0
670.962	1	1
671.301	1	-10
671.640	1	0
671.979	1	-3
672.317	1	0
672.656	1	1
672.995	1	9
673.334	1	1
673.673	1	8
674.011	1	-4
674.350	1	1
674.689	1	1
675.028	1	0
675.367	1	5
675.705	1	-5
676.044	1	0
676.383	1	0
676.722	1	-2
677.060	1	-8
677.399	1	-7
677.738	1	9
678.077	1	6
678.416	1	2
678.754	1	-4
679.093	1	4
679.432	1	4
679.771	1	-3
680.109	1	5
680.448	1	2
680.787	1	7
681.125	1	7
681.464	1	-2
681.803	1	-4
682.142	1	7
682.480	1	10
682.819	1	7
683.158	1	0
683.496	1	-3
683.835	1	-6
684.174	1	-3
684.512	1	0
684.851	1	2
685.190	1	0
685.529	1	-4
685.867	1	0
686.206	1	1
686.545	1	-10
686.883	1	-8
687.222	1	-1
687.561	1	6
687.899	1	-1
688.238	1	8
688.577	1	0
688.746	1	-4