File: Data/GaN_200K_800ms/GaN_sample F_spot 12_UVVIS_200 K_200um_800 ms 2x2mm1_26.txt
340.368	1	10
340.710	1	-12
341.052	1	5
341.394	1	13
341.737	1	12
342.079	1	-7
342.421	1	6
342.763	1	4
343.105	1	3
343.447	1	-10
343.789	1	12
344.131	1	1
344.473	1	7
344.815	1	1
345.157	1	-3
345.499	1	-4
345.841	1	10
346.183	1	-5
346.526	1	-3
346.868	1	7
347.210	1	-4
347.552	1	-10
347.894	1	7
348.236	1	9
348.578	1	-5
348.920	1	1
349.262	1	-3
349.604	1	2
349.946	1	4
350.288	1	9
350.630	1	9
350.972	1	-10
351.314	1	3
351.656	1	5
351.998	1	12
352.340	1	2
352.682	1	2
353.024	1	8
353.366	1	11
353.708	1	5
354.050	1	-5
354.392	1	-2
354.734	1	6
355.076	1	-2
355.418	1	-9
355.760	1	6
356.102	1	11
356.444	1	-1
356.785	1	10
357.127	1	8
357.469	1	8
357.811	1	-8
358.153	1	2
358.495	1	-1
358.837	1	-2
359.179	1	4
359.521	1	0
359.863	1	7
360.205	1	-6
360.547	1	9
360.889	1	1
361.231	1	1
361.572	1	9
361.914	1	5
362.256	1	8
362.598	1	-6
362.940	1	2
363.282	1	4
363.624	1	7
363.966	1	0
364.308	1	5
364.649	1	9
364.991	1	7
365.333	1	2
365.675	1	2
366.017	1	4
366.359	1	9
366.701	1	1
367.042	1	-1
367.384	1	2
367.726	1	3
368.068	1	1
368.410	1	0
368.752	1	-5
369.093	1	-1
369.435	1	5
369.777	1	-9
370.119	1	-8
370.461	1	6
370.803	1	-1
371.144	1	-2
371.486	1	1
371.828	1	3
372.170	1	7
372.512	1	-3
372.853	1	2
373.195	1	-1
373.537	1	0
373.879	1	0
374.220	1	2
374.562	1	1
374.904	1	2
375.246	1	3
375.588	1	-1
375.929	1	1
376.271	1	3
376.613	1	3
376.955	1	-6
377.296	1	-4
377.638	1	3
377.980	1	-8
378.321	1	-8
378.663	1	2
379.005	1	-3
379.347	1	-2
379.688	1	1
380.030	1	1
380.372	1	1
380.714	1	5
381.055	1	-1
381.397	1	0
381.739	1	9
382.080	1	0
382.422	1	0
382.764	1	-3
383.105	1	-7
383.447	1	3
383.789	1	5
384.130	1	-4
384.472	1	-4
384.814	1	5
385.156	1	-8
385.497	1	1
385.839	1	8
386.180	1	-2
386.522	1	8
386.864	1	8
387.205	1	-3
387.547	1	-2
387.889	1	2
388.230	1	0
388.572	1	-6
388.914	1	-2
389.255	1	-5
389.597	1	7
389.939	1	-4
390.280	1	-5
390.622	1	-2
390.963	1	12
391.305	1	7
391.647	1	-3
391.988	1	11
392.330	1	7
392.671	1	-10
393.013	1	-4
393.355	1	4
393.696	1	3
394.038	1	2
394.379	1	-5
394.721	1	-9
395.062	1	7
395.404	1	-3
395.746	1	4
396.087	1	-3
396.429	1	9
396.770	1	-4
397.112	1	7
397.453	1	2
397.795	1	2
398.136	1	-4
398.478	1	6
398.819	1	17
399.161	1	1
399.503	1	-2
399.844	1	4
400.186	1	1
400.527	1	-2
400.869	1	1
401.210	1	-1
401.552	1	-9
401.893	1	0
402.235	1	-3
402.576	1	0
402.918	1	3
403.259	1	13
403.601	1	3
403.942	1	9
404.284	1	9
404.625	1	-1
404.967	1	8
405.308	1	0
405.649	1	3
405.991	1	-4
406.332	1	4
406.674	1	-2
407.015	1	8
407.357	1	-3
407.698	1	8
408.040	1	7
408.381	1	3
408.722	1	-5
409.064	1	5
409.405	1	4
409.747	1	8
410.088	1	6
410.430	1	13
410.771	1	3
411.112	1	0
411.454	1	2
411.795	1	-8
412.137	1	11
412.478	1	10
412.819	1	-4
413.161	1	-10
413.502	1	5
413.844	1	7
414.185	1	4
414.526	1	3
414.868	1	-10
415.209	1	4
415.550	1	-2
415.892	1	7
416.233	1	2
416.575	1	15
416.916	1	-6
417.257	1	-2
417.599	1	2
417.940	1	14
418.281	1	-3
418.623	1	1
418.964	1	-5
419.305	1	7
419.647	1	-4
419.988	1	-1
420.329	1	-5
420.671	1	8
421.012	1	7
421.353	1	-1
421.695	1	-1
422.036	1	2
422.377	1	-1
422.718	1	-2
423.060	1	2
423.401	1	0
423.742	1	0
424.084	1	0
424.425	1	4
424.766	1	3
425.107	1	-2
425.449	1	7
425.790	1	-10
426.131	1	4
426.472	1	5
426.814	1	10
427.155	1	-13
427.496	1	-5
427.837	1	-7
428.179	1	0
428.520	1	3
428.861	1	-7
429.202	1	-5
429.544	1	-4
429.885	1	12
430.226	1	-6
430.567	1	1
430.909	1	5
431.250	1	-7
431.591	1	1
431.932	1	4
432.273	1	0
432.615	1	-16
432.956	1	-7
433.297	1	3
433.638	1	7
433.979	1	-4
434.320	1	-2
434.662	1	2
435.003	1	-2
435.344	1	1
435.685	1	-2
436.026	1	11
436.368	1	5
436.709	1	1
437.050	1	2
437.391	1	6
437.732	1	4
438.073	1	5
438.414	1	0
438.756	1	-1
439.097	1	-5
439.438	1	1
439.779	1	5
440.120	1	5
440.461	1	2
440.802	1	-1
441.143	1	1
441.485	1	3
441.826	1	11
442.167	1	6
442.508	1	-1
442.849	1	10
443.190	1	-2
443.531	1	10
443.872	1	10
444.213	1	5
444.554	1	12
444.895	1	0
445.237	1	-15
445.578	1	-3
445.919	1	-6
446.260	1	-6
446.601	1	3
446.942	1	0
447.283	1	-3
447.624	1	-1
447.965	1	-4
448.306	1	-2
448.647	1	-15
448.988	1	7
449.329	1	-3
449.670	1	13
450.011	1	5
450.352	1	-5
450.693	1	-11
451.034	1	-7
451.375	1	2
451.716	1	1
452.057	1	-1
452.398	1	-7
452.739	1	4
453.080	1	2
453.421	1	0
453.762	1	2
454.103	1	-1
454.444	1	0
454.785	1	0
455.126	1	3
455.467	1	-2
455.808	1	-3
456.149	1	4
456.490	1	-6
456.831	1	13
457.172	1	-7
457.513	1	9
457.854	1	3
458.195	1	0
458.536	1	2
458.877	1	9
459.218	1	-5
459.559	1	2
459.899	1	3
460.240	1	-1
460.581	1	14
460.922	1	5
461.263	1	-3
461.604	1	-13
461.945	1	-1
462.286	1	4
462.627	1	0
462.968	1	5
463.309	1	-7
463.649	1	7
463.990	1	-2
464.331	1	0
464.672	1	-3
465.013	1	2
465.354	1	4
465.695	1	4
466.036	1	-10
466.376	1	-5
466.717	1	4
467.058	1	0
467.399	1	8
467.740	1	-2
468.081	1	3
468.422	1	-2
468.762	1	-3
469.103	1	1
469.444	1	-9
469.785	1	-8
470.126	1	0
470.467	1	-9
470.807	1	0
471.148	1	0
471.489	1	3
471.830	1	3
472.171	1	5
472.511	1	-15
472.852	1	-3
473.193	1	9
473.534	1	13
473.875	1	12
474.215	1	9
474.556	1	2
474.897	1	6
475.238	1	-2
475.578	1	-1
475.919	1	1
476.260	1	7
476.601	1	7
476.942	1	12
477.282	1	2
477.623	1	-6
477.964	1	-1
478.305	1	-7
478.645	1	13
478.986	1	-2
479.327	1	-8
479.667	1	3
480.008	1	-10
480.349	1	-4
480.690	1	-2
481.030	1	-5
481.371	1	3
481.712	1	3
482.053	1	4
482.393	1	6
482.734	1	2
483.075	1	-2
483.415	1	-1
483.756	1	8
484.097	1	6
484.437	1	1
484.778	1	-2
485.119	1	0
485.459	1	12
485.800	1	-4
486.141	1	-6
486.481	1	6
486.822	1	10
487.163	1	-4
487.503	1	5
487.844	1	-4
488.185	1	6
488.525	1	-5
488.866	1	-1
489.207	1	3
489.547	1	-9
489.888	1	2
490.228	1	12
490.569	1	6
490.910	1	-3
491.250	1	-10
491.591	1	-2
491.932	1	8
492.272	1	-2
492.613	1	2
492.953	1	1
493.294	1	-6
493.635	1	2
493.975	1	0
494.316	1	9
494.656	1	-2
494.997	1	2
495.337	1	4
495.678	1	-1
496.019	1	-1
496.359	1	-12
496.700	1	-1
497.040	1	2
497.381	1	-1
497.721	1	-3
498.062	1	5
498.403	1	-1
498.743	1	1
499.084	1	0
499.424	1	1
499.765	1	-8
500.105	1	-10
500.446	1	-7
500.786	1	-7
501.127	1	1
501.467	1	-16
501.808	1	8
502.148	1	-2
502.489	1	-3
502.829	1	1
503.170	1	10
503.510	1	2
503.851	1	-1
504.191	1	8
504.532	1	1
504.872	1	-2
505.213	1	7
505.553	1	-2
505.894	1	-8
506.234	1	11
506.575	1	6
506.915	1	8
507.256	1	6
507.596	1	4
507.936	1	3
508.277	1	5
508.617	1	-2
508.958	1	-2
509.298	1	6
509.639	1	2
509.979	1	6
510.319	1	6
510.660	1	2
511.000	1	-4
511.341	1	3
511.681	1	8
512.022	1	-7
512.362	1	-7
512.702	1	0
513.043	1	9
513.383	1	-4
513.724	1	8
514.064	1	8
514.404	1	-3
514.745	1	0
515.085	1	4
515.425	1	7
515.766	1	-14
516.106	1	-1
516.447	1	15
516.787	1	-2
517.127	1	4
517.468	1	2
517.808	1	0
518.148	1	-2
518.489	1	-6
518.829	1	11
519.169	1	-6
519.510	1	5
519.850	1	4
520.190	1	-5
520.531	1	10
520.871	1	8
521.211	1	-10
521.552	1	13
521.892	1	1
522.232	1	4
522.573	1	0
522.913	1	0
523.253	1	-5
523.593	1	8
523.934	1	-2
524.274	1	5
524.614	1	-12
524.955	1	-4
525.295	1	7
525.635	1	-4
525.975	1	7
526.316	1	17
526.656	1	-7
526.996	1	10
527.337	1	-2
527.677	1	0
528.017	1	-7
528.357	1	-7
528.698	1	-3
529.038	1	3
529.378	1	11
529.718	1	7
530.058	1	2
530.399	1	13
530.739	1	-4
531.079	1	10
531.419	1	9
531.760	1	-1
532.100	1	0
532.440	1	8
532.780	1	-3
533.120	1	1
533.461	1	4
533.801	1	15
534.141	1	-14
534.481	1	-4
534.821	1	7
535.162	1	-3
535.502	1	-2
535.842	1	1
536.182	1	-9
536.522	1	-1
536.862	1	6
537.203	1	-3
537.543	1	3
537.883	1	-1
538.223	1	7
538.563	1	-2
538.903	1	-7
539.243	1	-10
539.584	1	-2
539.924	1	13
540.264	1	0
540.604	1	3
540.944	1	-2
541.284	1	7
541.624	1	9
541.964	1	5
542.305	1	11
542.645	1	-3
542.985	1	3
543.325	1	-2
543.665	1	10
544.005	1	9
544.345	1	11
544.685	1	1
545.025	1	1
545.365	1	2
545.705	1	-3
546.045	1	6
546.386	1	2
546.726	1	-10
547.066	1	7
547.406	1	3
547.746	1	-8
548.086	1	-3
548.426	1	-9
548.766	1	6
549.106	1	0
549.446	1	0
549.786	1	-1
550.126	1	12
550.466	1	-1
550.806	1	-7
551.146	1	3
551.486	1	-4
551.826	1	4
552.166	1	4
552.506	1	1
552.846	1	-4
553.186	1	8
553.526	1	-5
553.866	1	-2
554.206	1	-2
554.546	1	11
554.886	1	13
555.226	1	-11
555.566	1	8
555.906	1	7
556.246	1	4
556.586	1	-1
556.926	1	6
557.266	1	-4
557.606	1	5
557.946	1	6
558.286	1	2
558.626	1	4
558.966	1	5
559.306	1	-5
559.646	1	1
559.986	1	-2
560.325	1	1
560.665	1	-5
561.005	1	-3
561.345	1	7
561.685	1	-7
562.025	1	-13
562.365	1	8
562.705	1	-5
563.045	1	1
563.385	1	-9
563.725	1	0
564.064	1	0
564.404	1	11
564.744	1	1
565.084	1	-2
565.424	1	5
565.764	1	-15
566.104	1	5
566.444	1	-7
566.783	1	-2
567.123	1	8
567.463	1	-1
567.803	1	-13
568.143	1	-3
568.483	1	-7
568.823	1	9
569.162	1	15
569.502	1	-6
569.842	1	8
570.182	1	4
570.522	1	-12
570.862	1	-1
571.201	1	8
571.541	1	3
571.881	1	12
572.221	1	-1
572.561	1	0
572.900	1	-5
573.240	1	5
573.580	1	0
573.920	1	4
574.260	1	-1
574.599	1	0
574.939	1	3
575.279	1	17
575.619	1	5
575.959	1	-7
576.298	1	13
576.638	1	-12
576.978	1	8
577.318	1	7
577.657	1	7
577.997	1	-7
578.337	1	7
578.677	1	8
579.016	1	1
579.356	1	-4
579.696	1	-4
580.036	1	1
580.375	1	2
580.715	1	1
581.055	1	4
581.394	1	-6
581.734	1	-13
582.074	1	-6
582.414	1	9
582.753	1	-4
583.093	1	-3
583.433	1	-5
583.772	1	2
584.112	1	-2
584.452	1	5
584.791	1	-13
585.131	1	1
585.471	1	7
585.811	1	6
586.150	1	-3
586.490	1	-7
586.830	1	2
587.169	1	0
587.509	1	-1
587.849	1	2
588.188	1	6
588.528	1	3
588.867	1	6
589.207	1	5
589.547	1	3
589.886	1	-4
590.226	1	5
590.566	1	-1
590.905	1	-3
591.245	1	-1
591.585	1	9
591.924	1	2
592.264	1	6
592.603	1	1
592.943	1	4
593.283	1	-5
593.622	1	0
593.962	1	-8
594.301	1	4
594.641	1	2
594.981	1	-7
595.320	1	7
595.660	1	-1
595.999	1	-5
596.339	1	3
596.678	1	-7
597.018	1	-3
597.358	1	3
597.697	1	5
598.037	1	3
598.376	1	-2
598.716	1	6
599.055	1	3
599.395	1	9
599.734	1	17
600.074	1	2
600.413	1	12
600.753	1	6
601.092	1	4
601.432	1	-4
601.771	1	4
602.111	1	4
602.451	1	6
602.790	1	-4
603.130	1	-6
603.469	1	-4
603.809	1	5
604.148	1	5
604.487	1	6
604.827	1	6
605.166	1	7
605.506	1	13
605.845	1	-7
606.185	1	10
606.524	1	2
606.864	1	-2
607.203	1	3
607.543	1	-9
607.882	1	8
608.222	1	6
608.561	1	-2
608.901	1	1
609.240	1	-9
609.579	1	7
609.919	1	4
610.258	1	4
610.598	1	2
610.937	1	10
611.277	1	6
611.616	1	-3
611.955	1	-4
612.295	1	-8
612.634	1	7
612.974	1	-6
613.313	1	2
613.652	1	7
613.992	1	3
614.331	1	7
614.671	1	3
615.010	1	-6
615.349	1	10
615.689	1	3
616.028	1	3
616.368	1	-2
616.707	1	0
617.046	1	3
617.386	1	6
617.725	1	1
618.064	1	0
618.404	1	1
618.743	1	1
619.082	1	-2
619.422	1	-10
619.761	1	4
620.100	1	2
620.440	1	4
620.779	1	-8
621.118	1	-5
621.458	1	13
621.797	1	2
622.136	1	4
622.476	1	9
622.815	1	7
623.154	1	1
623.494	1	16
623.833	1	9
624.172	1	-8
624.511	1	3
624.851	1	-4
625.190	1	1
625.529	1	1
625.869	1	11
626.208	1	0
626.547	1	-3
626.886	1	8
627.226	1	1
627.565	1	6
627.904	1	-1
628.243	1	11
628.583	1	5
628.922	1	0
629.261	1	1
629.600	1	10
629.940	1	1
630.279	1	-6
630.618	1	4
630.957	1	4
631.297	1	3
631.636	1	-1
631.975	1	4
632.314	1	-1
632.653	1	2
632.993	1	1
633.332	1	8
633.671	1	4
634.010	1	2
634.349	1	7
634.689	1	2
635.028	1	6
635.367	1	10
635.706	1	-3
636.045	1	13
636.384	1	1
636.724	1	-7
637.063	1	1
637.402	1	1
637.741	1	6
638.080	1	-4
638.419	1	-9
638.759	1	-3
639.098	1	6
639.437	1	7
639.776	1	3
640.115	1	0
640.454	1	-6
640.793	1	3
641.132	1	1
641.472	1	3
641.811	1	2
642.150	1	-8
642.489	1	-1
642.828	1	-6
643.167	1	-2
643.506	1	-5
643.845	1	-7
644.184	1	4
644.524	1	2
644.863	1	2
645.202	1	-3
645.541	1	11
645.880	1	2
646.219	1	9
646.558	1	9
646.897	1	10
647.236	1	-5
647.575	1	3
647.914	1	-8
648.253	1	4
648.592	1	0
648.931	1	7
649.270	1	1
649.610	1	-1
649.949	1	2
650.288	1	5
650.627	1	-9
650.966	1	7
651.305	1	-4
651.644	1	6
651.983	1	7
652.322	1	7
652.661	1	2
653.000	1	6
653.339	1	9
653.678	1	2
654.017	1	5
654.356	1	1
654.695	1	5
655.034	1	7
655.373	1	9
655.712	1	0
656.051	1	-2
656.390	1	-1
656.729	1	2
657.068	1	6
657.406	1	0
657.745	1	-1
658.084	1	-1
658.423	1	8
658.762	1	1
659.101	1	10
659.440	1	-2
659.779	1	-5
660.118	1	7
660.457	1	6
660.796	1	-1
661.135	1	0
661.474	1	5
661.813	1	9
662.152	1	-4
662.491	1	-5
662.829	1	-5
663.168	1	7
663.507	1	10
663.846	1	3
664.185	1	8
664.524	1	8
664.863	1	-3
665.202	1	-1
665.541	1	-8
665.879	1	-10
666.218	1	-4
666.557	1	8
666.896	1	1
667.235	1	4
667.574	1	-3
667.913	1	3
668.251	1	-9
668.590	1	12
668.929	1	-4
669.268	1	1
669.607	1	0
669.946	1	3
670.285	1	9
670.623	1	2
670.962	1	4
671.301	1	2
671.640	1	13
671.979	1	-5
672.317	1	6
672.656	1	11
672.995	1	6
673.334	1	0
673.673	1	3
674.011	1	2
674.350	1	5
674.689	1	-5
675.028	1	-1
675.367	1	8
675.705	1	13
676.044	1	-1
676.383	1	10
676.722	1	6
677.060	1	2
677.399	1	-5
677.738	1	8
678.077	1	2
678.416	1	5
678.754	1	-2
679.093	1	13
679.432	1	4
679.771	1	8
680.109	1	18
680.448	1	-3
680.787	1	6
681.125	1	1
681.464	1	2
681.803	1	8
682.142	1	8
682.480	1	12
682.819	1	3
683.158	1	1
683.496	1	-2
683.835	1	1
684.174	1	-5
684.512	1	10
684.851	1	6
685.190	1	-1
685.529	1	-2
685.867	1	0
686.206	1	-5
686.545	1	-13
686.883	1	1
687.222	1	1
687.561	1	1
687.899	1	3
688.238	1	1
688.577	1	-2
688.746	1	0