File: Data/GaN_200K_800ms/GaN_sample F_spot 12_UVVIS_200 K_200um_800 ms 2x2mm1_415.txt
340.368	1	-2
340.710	1	-5
341.052	1	7
341.394	1	-13
341.737	1	-6
342.079	1	-11
342.421	1	-3
342.763	1	1
343.105	1	4
343.447	1	-5
343.789	1	7
344.131	1	-5
344.473	1	-3
344.815	1	-1
345.157	1	-8
345.499	1	2
345.841	1	1
346.183	1	0
346.526	1	-10
346.868	1	-1
347.210	1	-9
347.552	1	-8
347.894	1	-1
348.236	1	5
348.578	1	-3
348.920	1	-7
349.262	1	-2
349.604	1	2
349.946	1	-7
350.288	1	5
350.630	1	-2
350.972	1	1
351.314	1	-1
351.656	1	5
351.998	1	7
352.340	1	-4
352.682	1	5
353.024	1	10
353.366	1	10
353.708	1	0
354.050	1	-7
354.392	1	-11
354.734	1	-1
355.076	1	6
355.418	1	-12
355.760	1	-5
356.102	1	8
356.444	1	9
356.785	1	7
357.127	1	-5
357.469	1	3
357.811	1	-1
358.153	1	0
358.495	1	0
358.837	1	-10
359.179	1	0
359.521	1	-4
359.863	1	-6
360.205	1	-5
360.547	1	1
360.889	1	-9
361.231	1	-2
361.572	1	9
361.914	1	4
362.256	1	2
362.598	1	-7
362.940	1	0
363.282	1	10
363.624	1	11
363.966	1	-3
364.308	1	-5
364.649	1	9
364.991	1	7
365.333	1	-1
365.675	1	-5
366.017	1	7
366.359	1	6
366.701	1	11
367.042	1	10
367.384	1	12
367.726	1	10
368.068	1	9
368.410	1	12
368.752	1	4
369.093	1	6
369.435	1	14
369.777	1	10
370.119	1	-5
370.461	1	20
370.803	1	10
371.144	1	5
371.486	1	21
371.828	1	11
372.170	1	12
372.512	1	-7
372.853	1	12
373.195	1	2
373.537	1	9
373.879	1	-2
374.220	1	16
374.562	1	13
374.904	1	5
375.246	1	12
375.588	1	5
375.929	1	7
376.271	1	12
376.613	1	-1
376.955	1	-4
377.296	1	-9
377.638	1	12
377.980	1	2
378.321	1	-1
378.663	1	-1
379.005	1	11
379.347	1	1
379.688	1	7
380.030	1	-1
380.372	1	3
380.714	1	7
381.055	1	6
381.397	1	3
381.739	1	3
382.080	1	0
382.422	1	17
382.764	1	3
383.105	1	1
383.447	1	1
383.789	1	-7
384.130	1	4
384.472	1	3
384.814	1	5
385.156	1	-1
385.497	1	2
385.839	1	-4
386.180	1	-2
386.522	1	2
386.864	1	11
387.205	1	-9
387.547	1	3
387.889	1	-5
388.230	1	12
388.572	1	1
388.914	1	-5
389.255	1	11
389.597	1	-1
389.939	1	6
390.280	1	-4
390.622	1	1
390.963	1	16
391.305	1	6
391.647	1	-3
391.988	1	5
392.330	1	-3
392.671	1	-7
393.013	1	0
393.355	1	-5
393.696	1	3
394.038	1	-9
394.379	1	-2
394.721	1	-3
395.062	1	1
395.404	1	-5
395.746	1	12
396.087	1	-3
396.429	1	1
396.770	1	-3
397.112	1	3
397.453	1	9
397.795	1	3
398.136	1	-5
398.478	1	7
398.819	1	3
399.161	1	11
399.503	1	-2
399.844	1	-3
400.186	1	-2
400.527	1	1
400.869	1	8
401.210	1	-2
401.552	1	-5
401.893	1	0
402.235	1	-11
402.576	1	-3
402.918	1	5
403.259	1	1
403.601	1	-4
403.942	1	8
404.284	1	0
404.625	1	9
404.967	1	-1
405.308	1	1
405.649	1	11
405.991	1	2
406.332	1	6
406.674	1	-12
407.015	1	6
407.357	1	1
407.698	1	11
408.040	1	-7
408.381	1	4
408.722	1	-20
409.064	1	2
409.405	1	8
409.747	1	-8
410.088	1	0
410.430	1	8
410.771	1	3
411.112	1	-4
411.454	1	-3
411.795	1	-10
412.137	1	4
412.478	1	5
412.819	1	-13
413.161	1	-3
413.502	1	-2
413.844	1	2
414.185	1	-2
414.526	1	4
414.868	1	-3
415.209	1	3
415.550	1	-6
415.892	1	-3
416.233	1	6
416.575	1	11
416.916	1	-5
417.257	1	-8
417.599	1	2
417.940	1	18
418.281	1	7
418.623	1	-5
418.964	1	-13
419.305	1	-1
419.647	1	-4
419.988	1	0
420.329	1	-9
420.671	1	4
421.012	1	0
421.353	1	-3
421.695	1	-3
422.036	1	-1
422.377	1	-8
422.718	1	5
423.060	1	1
423.401	1	-2
423.742	1	-2
424.084	1	1
424.425	1	8
424.766	1	-4
425.107	1	-3
425.449	1	-2
425.790	1	-10
426.131	1	-3
426.472	1	5
426.814	1	-5
427.155	1	-15
427.496	1	-1
427.837	1	2
428.179	1	-8
428.520	1	6
428.861	1	2
429.202	1	9
429.544	1	2
429.885	1	0
430.226	1	-10
430.567	1	4
430.909	1	5
431.250	1	-2
431.591	1	15
431.932	1	-3
432.273	1	0
432.615	1	-10
432.956	1	-5
433.297	1	4
433.638	1	-1
433.979	1	8
434.320	1	1
434.662	1	0
435.003	1	7
435.344	1	6
435.685	1	-5
436.026	1	-2
436.368	1	11
436.709	1	6
437.050	1	-5
437.391	1	6
437.732	1	-4
438.073	1	4
438.414	1	-15
438.756	1	-9
439.097	1	-11
439.438	1	-13
439.779	1	-3
440.120	1	0
440.461	1	-2
440.802	1	-11
441.143	1	-1
441.485	1	-2
441.826	1	-6
442.167	1	9
442.508	1	-8
442.849	1	10
443.190	1	1
443.531	1	5
443.872	1	1
444.213	1	-1
444.554	1	5
444.895	1	-8
445.237	1	-3
445.578	1	-11
445.919	1	-9
446.260	1	-1
446.601	1	-5
446.942	1	3
447.283	1	-4
447.624	1	5
447.965	1	2
448.306	1	3
448.647	1	-14
448.988	1	-2
449.329	1	-2
449.670	1	6
450.011	1	4
450.352	1	-5
450.693	1	-3
451.034	1	-1
451.375	1	0
451.716	1	3
452.057	1	6
452.398	1	-4
452.739	1	2
453.080	1	-4
453.421	1	6
453.762	1	0
454.103	1	0
454.444	1	2
454.785	1	-7
455.126	1	-11
455.467	1	-8
455.808	1	-9
456.149	1	1
456.490	1	5
456.831	1	-2
457.172	1	-6
457.513	1	2
457.854	1	-3
458.195	1	-10
458.536	1	0
458.877	1	-1
459.218	1	4
459.559	1	4
459.899	1	-3
460.240	1	-2
460.581	1	7
460.922	1	4
461.263	1	-3
461.604	1	1
461.945	1	-8
462.286	1	-4
462.627	1	10
462.968	1	7
463.309	1	-7
463.649	1	0
463.990	1	-10
464.331	1	0
464.672	1	8
465.013	1	-2
465.354	1	4
465.695	1	0
466.036	1	-3
466.376	1	-4
466.717	1	-4
467.058	1	-2
467.399	1	2
467.740	1	7
468.081	1	-2
468.422	1	-5
468.762	1	-10
469.103	1	-7
469.444	1	-10
469.785	1	-11
470.126	1	-2
470.467	1	-8
470.807	1	-5
471.148	1	3
471.489	1	1
471.830	1	-18
472.171	1	7
472.511	1	-15
472.852	1	-1
473.193	1	1
473.534	1	10
473.875	1	16
474.215	1	15
474.556	1	-2
474.897	1	5
475.238	1	-3
475.578	1	-7
475.919	1	-3
476.260	1	-2
476.601	1	-2
476.942	1	1
477.282	1	-9
477.623	1	-16
477.964	1	-6
478.305	1	1
478.645	1	11
478.986	1	-3
479.327	1	-13
479.667	1	3
480.008	1	-6
480.349	1	-3
480.690	1	2
481.030	1	-2
481.371	1	-8
481.712	1	6
482.053	1	0
482.393	1	2
482.734	1	-6
483.075	1	4
483.415	1	-3
483.756	1	2
484.097	1	-2
484.437	1	-14
484.778	1	10
485.119	1	-2
485.459	1	13
485.800	1	-1
486.141	1	2
486.481	1	-3
486.822	1	-2
487.163	1	-4
487.503	1	2
487.844	1	-4
488.185	1	4
488.525	1	4
488.866	1	1
489.207	1	6
489.547	1	-4
489.888	1	-12
490.228	1	-1
490.569	1	7
490.910	1	-1
491.250	1	-7
491.591	1	-11
491.932	1	-1
492.272	1	-3
492.613	1	-5
492.953	1	-1
493.294	1	-3
493.635	1	-3
493.975	1	-1
494.316	1	3
494.656	1	-3
494.997	1	-7
495.337	1	3
495.678	1	0
496.019	1	2
496.359	1	-2
496.700	1	-6
497.040	1	-1
497.381	1	-2
497.721	1	-8
498.062	1	-6
498.403	1	3
498.743	1	-2
499.084	1	-2
499.424	1	-4
499.765	1	-5
500.105	1	-5
500.446	1	-6
500.786	1	-9
501.127	1	-4
501.467	1	-8
501.808	1	-5
502.148	1	9
502.489	1	-1
502.829	1	-2
503.170	1	-5
503.510	1	4
503.851	1	1
504.191	1	10
504.532	1	-1
504.872	1	2
505.213	1	16
505.553	1	-9
505.894	1	-7
506.234	1	7
506.575	1	-2
506.915	1	6
507.256	1	2
507.596	1	-1
507.936	1	-1
508.277	1	-2
508.617	1	1
508.958	1	0
509.298	1	6
509.639	1	-3
509.979	1	-3
510.319	1	2
510.660	1	3
511.000	1	-10
511.341	1	0
511.681	1	3
512.022	1	-8
512.362	1	-13
512.702	1	-3
513.043	1	3
513.383	1	-8
513.724	1	6
514.064	1	17
514.404	1	-5
514.745	1	5
515.085	1	-1
515.425	1	-13
515.766	1	-9
516.106	1	-3
516.447	1	8
516.787	1	6
517.127	1	-3
517.468	1	-5
517.808	1	-7
518.148	1	3
518.489	1	-3
518.829	1	9
519.169	1	7
519.510	1	5
519.850	1	-1
520.190	1	-1
520.531	1	-1
520.871	1	3
521.211	1	-13
521.552	1	8
521.892	1	2
522.232	1	1
522.573	1	-6
522.913	1	-10
523.253	1	6
523.593	1	-2
523.934	1	1
524.274	1	3
524.614	1	0
524.955	1	-15
525.295	1	-2
525.635	1	-3
525.975	1	3
526.316	1	13
526.656	1	-5
526.996	1	1
527.337	1	-7
527.677	1	0
528.017	1	-3
528.357	1	-2
528.698	1	5
529.038	1	-5
529.378	1	11
529.718	1	4
530.058	1	4
530.399	1	2
530.739	1	0
531.079	1	-1
531.419	1	-5
531.760	1	4
532.100	1	-3
532.440	1	-2
532.780	1	-5
533.120	1	8
533.461	1	-3
533.801	1	10
534.141	1	-10
534.481	1	-10
534.821	1	3
535.162	1	1
535.502	1	-11
535.842	1	13
536.182	1	0
536.522	1	-4
536.862	1	4
537.203	1	-7
537.543	1	4
537.883	1	0
538.223	1	3
538.563	1	9
538.903	1	-9
539.243	1	-8
539.584	1	-4
539.924	1	14
540.264	1	0
540.604	1	3
540.944	1	-4
541.284	1	7
541.624	1	0
541.964	1	6
542.305	1	3
542.645	1	4
542.985	1	-3
543.325	1	2
543.665	1	9
544.005	1	9
544.345	1	4
544.685	1	0
545.025	1	-1
545.365	1	-2
545.705	1	-9
546.045	1	-3
546.386	1	5
546.726	1	-13
547.066	1	5
547.406	1	-2
547.746	1	-11
548.086	1	-5
548.426	1	0
548.766	1	-3
549.106	1	-8
549.446	1	-7
549.786	1	-7
550.126	1	10
550.466	1	-6
550.806	1	-2
551.146	1	-2
551.486	1	-7
551.826	1	1
552.166	1	-2
552.506	1	5
552.846	1	-13
553.186	1	8
553.526	1	1
553.866	1	4
554.206	1	12
554.546	1	-7
554.886	1	5
555.226	1	-14
555.566	1	4
555.906	1	4
556.246	1	8
556.586	1	-10
556.926	1	9
557.266	1	-1
557.606	1	3
557.946	1	9
558.286	1	5
558.626	1	3
558.966	1	-2
559.306	1	-6
559.646	1	-2
559.986	1	-8
560.325	1	-3
560.665	1	-6
561.005	1	-5
561.345	1	3
561.685	1	-1
562.025	1	-4
562.365	1	-2
562.705	1	0
563.045	1	-10
563.385	1	-13
563.725	1	-2
564.064	1	8
564.404	1	5
564.744	1	-1
565.084	1	-3
565.424	1	-3
565.764	1	2
566.104	1	-1
566.444	1	-10
566.783	1	-3
567.123	1	6
567.463	1	3
567.803	1	-6
568.143	1	1
568.483	1	0
568.823	1	-9
569.162	1	9
569.502	1	3
569.842	1	8
570.182	1	2
570.522	1	-8
570.862	1	1
571.201	1	8
571.541	1	5
571.881	1	0
572.221	1	-6
572.561	1	-8
572.900	1	-2
573.240	1	-1
573.580	1	6
573.920	1	6
574.260	1	11
574.599	1	3
574.939	1	-5
575.279	1	12
575.619	1	0
575.959	1	1
576.298	1	10
576.638	1	-10
576.978	1	-4
577.318	1	1
577.657	1	-5
577.997	1	-6
578.337	1	8
578.677	1	-4
579.016	1	5
579.356	1	-5
579.696	1	14
580.036	1	-10
580.375	1	2
580.715	1	-1
581.055	1	0
581.394	1	-6
581.734	1	-12
582.074	1	-5
582.414	1	3
582.753	1	-6
583.093	1	3
583.433	1	-6
583.772	1	3
584.112	1	8
584.452	1	3
584.791	1	-6
585.131	1	0
585.471	1	5
585.811	1	6
586.150	1	-7
586.490	1	10
586.830	1	-2
587.169	1	12
587.509	1	0
587.849	1	-7
588.188	1	5
588.528	1	8
588.867	1	6
589.207	1	8
589.547	1	-5
589.886	1	-5
590.226	1	6
590.566	1	1
590.905	1	-6
591.245	1	-6
591.585	1	2
591.924	1	0
592.264	1	4
592.603	1	0
592.943	1	2
593.283	1	-1
593.622	1	1
593.962	1	0
594.301	1	9
594.641	1	-7
594.981	1	-7
595.320	1	3
595.660	1	-8
595.999	1	-5
596.339	1	1
596.678	1	-9
597.018	1	-13
597.358	1	9
597.697	1	-6
598.037	1	-5
598.376	1	3
598.716	1	3
599.055	1	2
599.395	1	-4
599.734	1	2
600.074	1	3
600.413	1	6
600.753	1	2
601.092	1	14
601.432	1	-9
601.771	1	0
602.111	1	3
602.451	1	2
602.790	1	-14
603.130	1	8
603.469	1	-5
603.809	1	15
604.148	1	-2
604.487	1	0
604.827	1	4
605.166	1	-1
605.506	1	-4
605.845	1	3
606.185	1	0
606.524	1	-3
606.864	1	-7
607.203	1	-1
607.543	1	-6
607.882	1	6
608.222	1	-2
608.561	1	-1
608.901	1	7
609.240	1	-1
609.579	1	7
609.919	1	11
610.258	1	12
610.598	1	-9
610.937	1	-4
611.277	1	3
611.616	1	-6
611.955	1	-10
612.295	1	-5
612.634	1	-9
612.974	1	-10
613.313	1	-2
613.652	1	1
613.992	1	-5
614.331	1	4
614.671	1	3
615.010	1	-1
615.349	1	-1
615.689	1	9
616.028	1	1
616.368	1	-1
616.707	1	4
617.046	1	-6
617.386	1	-4
617.725	1	1
618.064	1	4
618.404	1	6
618.743	1	6
619.082	1	-4
619.422	1	-8
619.761	1	5
620.100	1	4
620.440	1	2
620.779	1	-5
621.118	1	-4
621.458	1	2
621.797	1	-14
622.136	1	16
622.476	1	7
622.815	1	10
623.154	1	3
623.494	1	4
623.833	1	10
624.172	1	-3
624.511	1	-6
624.851	1	0
625.190	1	-7
625.529	1	5
625.869	1	3
626.208	1	-4
626.547	1	-7
626.886	1	4
627.226	1	-6
627.565	1	-3
627.904	1	-5
628.243	1	12
628.583	1	1
628.922	1	6
629.261	1	-1
629.600	1	9
629.940	1	2
630.279	1	-11
630.618	1	-6
630.957	1	-4
631.297	1	6
631.636	1	-7
631.975	1	13
632.314	1	-5
632.653	1	1
632.993	1	-4
633.332	1	3
633.671	1	-2
634.010	1	-7
634.349	1	1
634.689	1	-2
635.028	1	4
635.367	1	6
635.706	1	-3
636.045	1	6
636.384	1	-5
636.724	1	1
637.063	1	-11
637.402	1	3
637.741	1	-1
638.080	1	2
638.419	1	-2
638.759	1	-4
639.098	1	-2
639.437	1	-2
639.776	1	-3
640.115	1	-9
640.454	1	-1
640.793	1	3
641.132	1	-1
641.472	1	0
641.811	1	-9
642.150	1	-13
642.489	1	-6
642.828	1	-10
643.167	1	-13
643.506	1	-6
643.845	1	-4
644.184	1	0
644.524	1	-6
644.863	1	-1
645.202	1	3
645.541	1	0
645.880	1	3
646.219	1	1
646.558	1	5
646.897	1	-3
647.236	1	5
647.575	1	4
647.914	1	-13
648.253	1	4
648.592	1	-1
648.931	1	12
649.270	1	1
649.610	1	3
649.949	1	-1
650.288	1	-2
650.627	1	3
650.966	1	-3
651.305	1	0
651.644	1	2
651.983	1	1
652.322	1	-5
652.661	1	-9
653.000	1	-5
653.339	1	5
653.678	1	-2
654.017	1	2
654.356	1	-3
654.695	1	9
655.034	1	0
655.373	1	9
655.712	1	-3
656.051	1	-1
656.390	1	-1
656.729	1	8
657.068	1	4
657.406	1	12
657.745	1	-3
658.084	1	-1
658.423	1	3
658.762	1	-6
659.101	1	6
659.440	1	3
659.779	1	2
660.118	1	6
660.457	1	-3
660.796	1	-7
661.135	1	-4
661.474	1	0
661.813	1	15
662.152	1	2
662.491	1	2
662.829	1	-6
663.168	1	5
663.507	1	6
663.846	1	-8
664.185	1	2
664.524	1	2
664.863	1	-3
665.202	1	-1
665.541	1	-11
665.879	1	-5
666.218	1	0
666.557	1	-9
666.896	1	-6
667.235	1	10
667.574	1	0
667.913	1	8
668.251	1	-1
668.590	1	3
668.929	1	-12
669.268	1	2
669.607	1	-4
669.946	1	-2
670.285	1	7
670.623	1	-2
670.962	1	0
671.301	1	-1
671.640	1	3
671.979	1	-13
672.317	1	0
672.656	1	-6
672.995	1	1
673.334	1	-7
673.673	1	8
674.011	1	-3
674.350	1	2
674.689	1	9
675.028	1	7
675.367	1	2
675.705	1	4
676.044	1	-10
676.383	1	1
676.722	1	-1
677.060	1	-13
677.399	1	-10
677.738	1	7
678.077	1	3
678.416	1	6
678.754	1	2
679.093	1	3
679.432	1	-4
679.771	1	-2
680.109	1	9
680.448	1	4
680.787	1	-1
681.125	1	-5
681.464	1	-1
681.803	1	4
682.142	1	7
682.480	1	13
682.819	1	-8
683.158	1	-5
683.496	1	-5
683.835	1	-1
684.174	1	-7
684.512	1	4
684.851	1	6
685.190	1	-5
685.529	1	2
685.867	1	0
686.206	1	-2
686.545	1	-7
686.883	1	0
687.222	1	-4
687.561	1	0
687.899	1	2
688.238	1	2
688.577	1	-7
688.746	1	-2