File: Data/GaN_200K_800ms/GaN_sample F_spot 12_UVVIS_200 K_200um_800 ms 2x2mm1_59.txt
340.368	1	5
340.710	1	2
341.052	1	11
341.394	1	9
341.737	1	6
342.079	1	-2
342.421	1	6
342.763	1	14
343.105	1	13
343.447	1	-4
343.789	1	-3
344.131	1	-4
344.473	1	14
344.815	1	2
345.157	1	2
345.499	1	8
345.841	1	13
346.183	1	-1
346.526	1	2
346.868	1	4
347.210	1	0
347.552	1	-11
347.894	1	1
348.236	1	15
348.578	1	8
348.920	1	1
349.262	1	-2
349.604	1	6
349.946	1	8
350.288	1	18
350.630	1	9
350.972	1	4
351.314	1	11
351.656	1	17
351.998	1	15
352.340	1	14
352.682	1	10
353.024	1	20
353.366	1	23
353.708	1	13
354.050	1	3
354.392	1	10
354.734	1	14
355.076	1	16
355.418	1	5
355.760	1	10
356.102	1	16
356.444	1	22
356.785	1	27
357.127	1	26
357.469	1	23
357.811	1	27
358.153	1	37
358.495	1	28
358.837	1	30
359.179	1	32
359.521	1	45
359.863	1	34
360.205	1	36
360.547	1	48
360.889	1	49
361.231	1	43
361.572	1	64
361.914	1	60
362.256	1	77
362.598	1	79
362.940	1	80
363.282	1	95
363.624	1	98
363.966	1	114
364.308	1	110
364.649	1	140
364.991	1	144
365.333	1	148
365.675	1	175
366.017	1	177
366.359	1	201
366.701	1	220
367.042	1	231
367.384	1	236
367.726	1	261
368.068	1	284
368.410	1	280
368.752	1	287
369.093	1	297
369.435	1	302
369.777	1	303
370.119	1	295
370.461	1	310
370.803	1	304
371.144	1	280
371.486	1	269
371.828	1	278
372.170	1	264
372.512	1	225
372.853	1	227
373.195	1	206
373.537	1	213
373.879	1	187
374.220	1	186
374.562	1	196
374.904	1	177
375.246	1	176
375.588	1	164
375.929	1	149
376.271	1	137
376.613	1	130
376.955	1	119
377.296	1	119
377.638	1	119
377.980	1	102
378.321	1	89
378.663	1	89
379.005	1	110
379.347	1	85
379.688	1	95
380.030	1	78
380.372	1	79
380.714	1	78
381.055	1	71
381.397	1	68
381.739	1	68
382.080	1	70
382.422	1	61
382.764	1	64
383.105	1	50
383.447	1	45
383.789	1	54
384.130	1	51
384.472	1	47
384.814	1	39
385.156	1	43
385.497	1	53
385.839	1	50
386.180	1	58
386.522	1	50
386.864	1	44
387.205	1	35
387.547	1	33
387.889	1	28
388.230	1	41
388.572	1	26
388.914	1	31
389.255	1	25
389.597	1	33
389.939	1	30
390.280	1	31
390.622	1	27
390.963	1	46
391.305	1	25
391.647	1	30
391.988	1	39
392.330	1	21
392.671	1	8
393.013	1	21
393.355	1	19
393.696	1	30
394.038	1	32
394.379	1	17
394.721	1	10
395.062	1	7
395.404	1	4
395.746	1	22
396.087	1	16
396.429	1	18
396.770	1	5
397.112	1	26
397.453	1	28
397.795	1	15
398.136	1	4
398.478	1	18
398.819	1	13
399.161	1	22
399.503	1	14
399.844	1	11
400.186	1	14
400.527	1	3
400.869	1	6
401.210	1	14
401.552	1	6
401.893	1	11
402.235	1	11
402.576	1	-2
402.918	1	15
403.259	1	17
403.601	1	7
403.942	1	14
404.284	1	11
404.625	1	12
404.967	1	10
405.308	1	10
405.649	1	10
405.991	1	-2
406.332	1	5
406.674	1	7
407.015	1	13
407.357	1	-1
407.698	1	18
408.040	1	12
408.381	1	16
408.722	1	6
409.064	1	5
409.405	1	17
409.747	1	2
410.088	1	9
410.430	1	15
410.771	1	5
411.112	1	4
411.454	1	2
411.795	1	1
412.137	1	17
412.478	1	18
412.819	1	-5
413.161	1	-4
413.502	1	12
413.844	1	4
414.185	1	0
414.526	1	-1
414.868	1	10
415.209	1	11
415.550	1	-2
415.892	1	8
416.233	1	8
416.575	1	19
416.916	1	7
417.257	1	4
417.599	1	6
417.940	1	17
418.281	1	2
418.623	1	0
418.964	1	-7
419.305	1	5
419.647	1	1
419.988	1	7
420.329	1	-2
420.671	1	15
421.012	1	-1
421.353	1	2
421.695	1	9
422.036	1	10
422.377	1	7
422.718	1	19
423.060	1	1
423.401	1	2
423.742	1	12
424.084	1	10
424.425	1	16
424.766	1	1
425.107	1	-5
425.449	1	5
425.790	1	1
426.131	1	6
426.472	1	6
426.814	1	9
427.155	1	4
427.496	1	-6
427.837	1	6
428.179	1	-9
428.520	1	4
428.861	1	-6
429.202	1	2
429.544	1	4
429.885	1	8
430.226	1	-4
430.567	1	7
430.909	1	3
431.250	1	-2
431.591	1	18
431.932	1	-1
432.273	1	6
432.615	1	-12
432.956	1	-5
433.297	1	12
433.638	1	9
433.979	1	12
434.320	1	10
434.662	1	5
435.003	1	4
435.344	1	9
435.685	1	0
436.026	1	8
436.368	1	13
436.709	1	5
437.050	1	-5
437.391	1	8
437.732	1	-4
438.073	1	-3
438.414	1	-4
438.756	1	1
439.097	1	-7
439.438	1	-4
439.779	1	2
440.120	1	1
440.461	1	10
440.802	1	-1
441.143	1	9
441.485	1	2
441.826	1	5
442.167	1	12
442.508	1	2
442.849	1	20
443.190	1	8
443.531	1	11
443.872	1	7
444.213	1	1
444.554	1	10
444.895	1	4
445.237	1	-3
445.578	1	-5
445.919	1	-1
446.260	1	-4
446.601	1	5
446.942	1	1
447.283	1	-8
447.624	1	4
447.965	1	5
448.306	1	9
448.647	1	-2
448.988	1	-3
449.329	1	-5
449.670	1	13
450.011	1	12
450.352	1	2
450.693	1	2
451.034	1	-3
451.375	1	7
451.716	1	5
452.057	1	13
452.398	1	8
452.739	1	8
453.080	1	-1
453.421	1	-1
453.762	1	3
454.103	1	7
454.444	1	-9
454.785	1	1
455.126	1	-4
455.467	1	5
455.808	1	5
456.149	1	12
456.490	1	-1
456.831	1	5
457.172	1	3
457.513	1	3
457.854	1	-4
458.195	1	0
458.536	1	12
458.877	1	8
459.218	1	-1
459.559	1	16
459.899	1	3
460.240	1	10
460.581	1	21
460.922	1	5
461.263	1	0
461.604	1	0
461.945	1	13
462.286	1	4
462.627	1	6
462.968	1	3
463.309	1	-2
463.649	1	-4
463.990	1	0
464.331	1	2
464.672	1	-1
465.013	1	-6
465.354	1	2
465.695	1	7
466.036	1	0
466.376	1	-6
466.717	1	0
467.058	1	0
467.399	1	7
467.740	1	6
468.081	1	7
468.422	1	3
468.762	1	3
469.103	1	-7
469.444	1	1
469.785	1	-4
470.126	1	-7
470.467	1	-1
470.807	1	9
471.148	1	8
471.489	1	2
471.830	1	-1
472.171	1	7
472.511	1	-8
472.852	1	3
473.193	1	8
473.534	1	13
473.875	1	22
474.215	1	9
474.556	1	2
474.897	1	14
475.238	1	5
475.578	1	-7
475.919	1	6
476.260	1	-5
476.601	1	0
476.942	1	11
477.282	1	2
477.623	1	-4
477.964	1	-2
478.305	1	6
478.645	1	11
478.986	1	-6
479.327	1	-2
479.667	1	4
480.008	1	5
480.349	1	-6
480.690	1	-9
481.030	1	-6
481.371	1	7
481.712	1	8
482.053	1	8
482.393	1	8
482.734	1	-2
483.075	1	2
483.415	1	2
483.756	1	3
484.097	1	4
484.437	1	4
484.778	1	12
485.119	1	1
485.459	1	19
485.800	1	-1
486.141	1	3
486.481	1	14
486.822	1	10
487.163	1	13
487.503	1	2
487.844	1	3
488.185	1	6
488.525	1	4
488.866	1	3
489.207	1	0
489.547	1	1
489.888	1	12
490.228	1	15
490.569	1	14
490.910	1	7
491.250	1	-1
491.591	1	-1
491.932	1	10
492.272	1	10
492.613	1	3
492.953	1	8
493.294	1	3
493.635	1	4
493.975	1	6
494.316	1	5
494.656	1	8
494.997	1	5
495.337	1	12
495.678	1	12
496.019	1	5
496.359	1	6
496.700	1	13
497.040	1	11
497.381	1	6
497.721	1	6
498.062	1	14
498.403	1	16
498.743	1	6
499.084	1	8
499.424	1	10
499.765	1	9
500.105	1	13
500.446	1	5
500.786	1	16
501.127	1	8
501.467	1	6
501.808	1	24
502.148	1	13
502.489	1	14
502.829	1	13
503.170	1	17
503.510	1	16
503.851	1	12
504.191	1	16
504.532	1	17
504.872	1	0
505.213	1	19
505.553	1	7
505.894	1	12
506.234	1	15
506.575	1	17
506.915	1	20
507.256	1	17
507.596	1	11
507.936	1	17
508.277	1	19
508.617	1	14
508.958	1	9
509.298	1	12
509.639	1	-1
509.979	1	12
510.319	1	15
510.660	1	12
511.000	1	13
511.341	1	14
511.681	1	16
512.022	1	5
512.362	1	16
512.702	1	-3
513.043	1	23
513.383	1	4
513.724	1	17
514.064	1	22
514.404	1	17
514.745	1	6
515.085	1	13
515.425	1	10
515.766	1	16
516.106	1	15
516.447	1	22
516.787	1	20
517.127	1	11
517.468	1	14
517.808	1	15
518.148	1	24
518.489	1	17
518.829	1	25
519.169	1	11
519.510	1	18
519.850	1	22
520.190	1	10
520.531	1	20
520.871	1	21
521.211	1	-1
521.552	1	25
521.892	1	16
522.232	1	17
522.573	1	21
522.913	1	24
523.253	1	21
523.593	1	13
523.934	1	21
524.274	1	17
524.614	1	15
524.955	1	19
525.295	1	34
525.635	1	19
525.975	1	25
526.316	1	25
526.656	1	12
526.996	1	31
527.337	1	12
527.677	1	21
528.017	1	18
528.357	1	18
528.698	1	23
529.038	1	20
529.378	1	26
529.718	1	31
530.058	1	20
530.399	1	33
530.739	1	27
531.079	1	27
531.419	1	37
531.760	1	40
532.100	1	27
532.440	1	32
532.780	1	19
533.120	1	28
533.461	1	36
533.801	1	33
534.141	1	14
534.481	1	31
534.821	1	20
535.162	1	21
535.502	1	23
535.842	1	27
536.182	1	18
536.522	1	22
536.862	1	33
537.203	1	15
537.543	1	20
537.883	1	26
538.223	1	21
538.563	1	29
538.903	1	17
539.243	1	15
539.584	1	14
539.924	1	34
540.264	1	23
540.604	1	22
540.944	1	22
541.284	1	30
541.624	1	26
541.964	1	37
542.305	1	33
542.645	1	27
542.985	1	30
543.325	1	27
543.665	1	40
544.005	1	32
544.345	1	22
544.685	1	24
545.025	1	10
545.365	1	14
545.705	1	40
546.045	1	23
546.386	1	26
546.726	1	18
547.066	1	33
547.406	1	23
547.746	1	14
548.086	1	35
548.426	1	11
548.766	1	34
549.106	1	27
549.446	1	32
549.786	1	25
550.126	1	41
550.466	1	38
550.806	1	26
551.146	1	29
551.486	1	32
551.826	1	30
552.166	1	36
552.506	1	26
552.846	1	30
553.186	1	40
553.526	1	24
553.866	1	22
554.206	1	39
554.546	1	32
554.886	1	26
555.226	1	16
555.566	1	37
555.906	1	35
556.246	1	33
556.586	1	24
556.926	1	33
557.266	1	25
557.606	1	29
557.946	1	30
558.286	1	30
558.626	1	29
558.966	1	23
559.306	1	21
559.646	1	30
559.986	1	27
560.325	1	27
560.665	1	31
561.005	1	31
561.345	1	25
561.685	1	26
562.025	1	34
562.365	1	31
562.705	1	23
563.045	1	25
563.385	1	20
563.725	1	30
564.064	1	23
564.404	1	32
564.744	1	34
565.084	1	26
565.424	1	26
565.764	1	22
566.104	1	21
566.444	1	20
566.783	1	25
567.123	1	25
567.463	1	36
567.803	1	22
568.143	1	23
568.483	1	38
568.823	1	31
569.162	1	42
569.502	1	26
569.842	1	34
570.182	1	26
570.522	1	18
570.862	1	28
571.201	1	30
571.541	1	26
571.881	1	45
572.221	1	26
572.561	1	22
572.900	1	13
573.240	1	22
573.580	1	27
573.920	1	34
574.260	1	28
574.599	1	34
574.939	1	29
575.279	1	38
575.619	1	27
575.959	1	10
576.298	1	36
576.638	1	8
576.978	1	31
577.318	1	28
577.657	1	18
577.997	1	21
578.337	1	37
578.677	1	26
579.016	1	37
579.356	1	17
579.696	1	26
580.036	1	18
580.375	1	41
580.715	1	18
581.055	1	25
581.394	1	26
581.734	1	23
582.074	1	18
582.414	1	29
582.753	1	31
583.093	1	31
583.433	1	22
583.772	1	28
584.112	1	19
584.452	1	31
584.791	1	32
585.131	1	30
585.471	1	33
585.811	1	30
586.150	1	25
586.490	1	37
586.830	1	26
587.169	1	24
587.509	1	24
587.849	1	31
588.188	1	33
588.528	1	28
588.867	1	22
589.207	1	22
589.547	1	22
589.886	1	14
590.226	1	23
590.566	1	24
590.905	1	30
591.245	1	19
591.585	1	29
591.924	1	19
592.264	1	32
592.603	1	32
592.943	1	24
593.283	1	33
593.622	1	18
593.962	1	21
594.301	1	22
594.641	1	14
594.981	1	14
595.320	1	25
595.660	1	15
595.999	1	12
596.339	1	18
596.678	1	15
597.018	1	9
597.358	1	32
597.697	1	22
598.037	1	0
598.376	1	18
598.716	1	27
599.055	1	25
599.395	1	16
599.734	1	19
600.074	1	16
600.413	1	25
600.753	1	28
601.092	1	32
601.432	1	15
601.771	1	25
602.111	1	28
602.451	1	25
602.790	1	22
603.130	1	29
603.469	1	9
603.809	1	18
604.148	1	16
604.487	1	17
604.827	1	27
605.166	1	20
605.506	1	15
605.845	1	21
606.185	1	29
606.524	1	30
606.864	1	19
607.203	1	12
607.543	1	16
607.882	1	29
608.222	1	23
608.561	1	24
608.901	1	18
609.240	1	12
609.579	1	32
609.919	1	25
610.258	1	28
610.598	1	14
610.937	1	14
611.277	1	19
611.616	1	10
611.955	1	22
612.295	1	14
612.634	1	19
612.974	1	12
613.313	1	26
613.652	1	18
613.992	1	19
614.331	1	17
614.671	1	20
615.010	1	9
615.349	1	13
615.689	1	19
616.028	1	9
616.368	1	21
616.707	1	19
617.046	1	16
617.386	1	21
617.725	1	4
618.064	1	0
618.404	1	16
618.743	1	19
619.082	1	19
619.422	1	1
619.761	1	20
620.100	1	22
620.440	1	11
620.779	1	8
621.118	1	17
621.458	1	17
621.797	1	16
622.136	1	29
622.476	1	9
622.815	1	18
623.154	1	30
623.494	1	18
623.833	1	25
624.172	1	15
624.511	1	14
624.851	1	5
625.190	1	12
625.529	1	11
625.869	1	21
626.208	1	14
626.547	1	18
626.886	1	4
627.226	1	11
627.565	1	9
627.904	1	6
628.243	1	24
628.583	1	15
628.922	1	13
629.261	1	16
629.600	1	15
629.940	1	11
630.279	1	7
630.618	1	15
630.957	1	18
631.297	1	17
631.636	1	4
631.975	1	22
632.314	1	16
632.653	1	19
632.993	1	8
633.332	1	2
633.671	1	5
634.010	1	6
634.349	1	18
634.689	1	16
635.028	1	20
635.367	1	9
635.706	1	8
636.045	1	24
636.384	1	8
636.724	1	16
637.063	1	8
637.402	1	22
637.741	1	17
638.080	1	8
638.419	1	10
638.759	1	4
639.098	1	11
639.437	1	11
639.776	1	10
640.115	1	7
640.454	1	6
640.793	1	22
641.132	1	21
641.472	1	17
641.811	1	5
642.150	1	1
642.489	1	14
642.828	1	16
643.167	1	7
643.506	1	6
643.845	1	14
644.184	1	16
644.524	1	11
644.863	1	10
645.202	1	13
645.541	1	13
645.880	1	21
646.219	1	3
646.558	1	11
646.897	1	9
647.236	1	9
647.575	1	18
647.914	1	7
648.253	1	18
648.592	1	-3
648.931	1	23
649.270	1	16
649.610	1	4
649.949	1	8
650.288	1	12
650.627	1	10
650.966	1	14
651.305	1	8
651.644	1	17
651.983	1	7
652.322	1	13
652.661	1	14
653.000	1	11
653.339	1	9
653.678	1	13
654.017	1	8
654.356	1	2
654.695	1	8
655.034	1	6
655.373	1	17
655.712	1	10
656.051	1	4
656.390	1	8
656.729	1	17
657.068	1	19
657.406	1	13
657.745	1	8
658.084	1	22
658.423	1	13
658.762	1	8
659.101	1	20
659.440	1	10
659.779	1	16
660.118	1	9
660.457	1	13
660.796	1	5
661.135	1	-4
661.474	1	6
661.813	1	20
662.152	1	5
662.491	1	1
662.829	1	-1
663.168	1	4
663.507	1	15
663.846	1	9
664.185	1	7
664.524	1	2
664.863	1	-2
665.202	1	10
665.541	1	9
665.879	1	9
666.218	1	0
666.557	1	9
666.896	1	5
667.235	1	6
667.574	1	11
667.913	1	14
668.251	1	6
668.590	1	-1
668.929	1	2
669.268	1	14
669.607	1	10
669.946	1	3
670.285	1	21
670.623	1	7
670.962	1	6
671.301	1	7
671.640	1	11
671.979	1	-1
672.317	1	9
672.656	1	11
672.995	1	13
673.334	1	6
673.673	1	10
674.011	1	5
674.350	1	14
674.689	1	4
675.028	1	6
675.367	1	9
675.705	1	13
676.044	1	3
676.383	1	11
676.722	1	7
677.060	1	6
677.399	1	4
677.738	1	10
678.077	1	6
678.416	1	3
678.754	1	2
679.093	1	12
679.432	1	4
679.771	1	6
680.109	1	19
680.448	1	9
680.787	1	3
681.125	1	17
681.464	1	9
681.803	1	14
682.142	1	17
682.480	1	19
682.819	1	8
683.158	1	8
683.496	1	15
683.835	1	8
684.174	1	2
684.512	1	11
684.851	1	10
685.190	1	8
685.529	1	9
685.867	1	16
686.206	1	4
686.545	1	7
686.883	1	4
687.222	1	9
687.561	1	23
687.899	1	5
688.238	1	13
688.577	1	14
688.746	1	7