File: Data/GaN_200K_800ms/GaN_sample F_spot 12_UVVIS_200 K_200um_800 ms 2x2mm1_335.txt
340.368	1	9
340.710	1	-7
341.052	1	0
341.394	1	-4
341.737	1	2
342.079	1	-9
342.421	1	4
342.763	1	1
343.105	1	-4
343.447	1	-10
343.789	1	1
344.131	1	-1
344.473	1	-9
344.815	1	-3
345.157	1	-10
345.499	1	4
345.841	1	8
346.183	1	-4
346.526	1	-2
346.868	1	9
347.210	1	-10
347.552	1	-11
347.894	1	3
348.236	1	11
348.578	1	-3
348.920	1	-6
349.262	1	-3
349.604	1	8
349.946	1	-9
350.288	1	10
350.630	1	-4
350.972	1	3
351.314	1	0
351.656	1	2
351.998	1	-4
352.340	1	6
352.682	1	1
353.024	1	-1
353.366	1	10
353.708	1	-5
354.050	1	-2
354.392	1	-3
354.734	1	-2
355.076	1	4
355.418	1	-15
355.760	1	-1
356.102	1	10
356.444	1	11
356.785	1	-2
357.127	1	-2
357.469	1	6
357.811	1	3
358.153	1	10
358.495	1	0
358.837	1	-13
359.179	1	1
359.521	1	11
359.863	1	-1
360.205	1	-2
360.547	1	5
360.889	1	-2
361.231	1	2
361.572	1	15
361.914	1	6
362.256	1	0
362.598	1	-6
362.940	1	2
363.282	1	9
363.624	1	11
363.966	1	10
364.308	1	-8
364.649	1	5
364.991	1	14
365.333	1	1
365.675	1	-4
366.017	1	7
366.359	1	10
366.701	1	8
367.042	1	15
367.384	1	14
367.726	1	7
368.068	1	14
368.410	1	21
368.752	1	10
369.093	1	5
369.435	1	23
369.777	1	12
370.119	1	11
370.461	1	23
370.803	1	10
371.144	1	9
371.486	1	15
371.828	1	26
372.170	1	10
372.512	1	8
372.853	1	14
373.195	1	14
373.537	1	4
373.879	1	11
374.220	1	25
374.562	1	15
374.904	1	12
375.246	1	10
375.588	1	-2
375.929	1	17
376.271	1	5
376.613	1	10
376.955	1	-1
377.296	1	-2
377.638	1	6
377.980	1	12
378.321	1	-6
378.663	1	-6
379.005	1	4
379.347	1	5
379.688	1	13
380.030	1	-3
380.372	1	14
380.714	1	3
381.055	1	15
381.397	1	2
381.739	1	5
382.080	1	8
382.422	1	6
382.764	1	-6
383.105	1	-3
383.447	1	-7
383.789	1	-4
384.130	1	4
384.472	1	3
384.814	1	-3
385.156	1	-1
385.497	1	4
385.839	1	-2
386.180	1	1
386.522	1	-5
386.864	1	8
387.205	1	-12
387.547	1	-2
387.889	1	1
388.230	1	5
388.572	1	-1
388.914	1	-8
389.255	1	-5
389.597	1	6
389.939	1	6
390.280	1	0
390.622	1	5
390.963	1	6
391.305	1	1
391.647	1	-6
391.988	1	-7
392.330	1	2
392.671	1	-8
393.013	1	-7
393.355	1	3
393.696	1	0
394.038	1	3
394.379	1	4
394.721	1	-9
395.062	1	6
395.404	1	-2
395.746	1	4
396.087	1	-5
396.429	1	4
396.770	1	-4
397.112	1	8
397.453	1	13
397.795	1	2
398.136	1	-6
398.478	1	1
398.819	1	2
399.161	1	16
399.503	1	6
399.844	1	0
400.186	1	7
400.527	1	-4
400.869	1	4
401.210	1	1
401.552	1	-6
401.893	1	8
402.235	1	-3
402.576	1	-5
402.918	1	4
403.259	1	9
403.601	1	-3
403.942	1	12
404.284	1	3
404.625	1	6
404.967	1	1
405.308	1	3
405.649	1	-6
405.991	1	-9
406.332	1	8
406.674	1	-7
407.015	1	15
407.357	1	1
407.698	1	6
408.040	1	-6
408.381	1	1
408.722	1	-13
409.064	1	1
409.405	1	10
409.747	1	-9
410.088	1	4
410.430	1	7
410.771	1	-10
411.112	1	1
411.454	1	1
411.795	1	-6
412.137	1	2
412.478	1	11
412.819	1	-4
413.161	1	4
413.502	1	-5
413.844	1	4
414.185	1	6
414.526	1	-5
414.868	1	-2
415.209	1	-2
415.550	1	-4
415.892	1	-4
416.233	1	2
416.575	1	13
416.916	1	-9
417.257	1	6
417.599	1	0
417.940	1	3
418.281	1	-3
418.623	1	-8
418.964	1	-12
419.305	1	4
419.647	1	-7
419.988	1	1
420.329	1	-7
420.671	1	3
421.012	1	-10
421.353	1	-11
421.695	1	-5
422.036	1	2
422.377	1	-1
422.718	1	5
423.060	1	-7
423.401	1	7
423.742	1	2
424.084	1	-1
424.425	1	-1
424.766	1	6
425.107	1	-11
425.449	1	4
425.790	1	-11
426.131	1	0
426.472	1	-1
426.814	1	7
427.155	1	-5
427.496	1	-3
427.837	1	-7
428.179	1	-5
428.520	1	1
428.861	1	-3
429.202	1	-5
429.544	1	-4
429.885	1	-4
430.226	1	-6
430.567	1	3
430.909	1	-3
431.250	1	-8
431.591	1	2
431.932	1	-6
432.273	1	-7
432.615	1	-9
432.956	1	-4
433.297	1	5
433.638	1	-7
433.979	1	2
434.320	1	5
434.662	1	-1
435.003	1	-1
435.344	1	-1
435.685	1	-3
436.026	1	7
436.368	1	0
436.709	1	-10
437.050	1	5
437.391	1	4
437.732	1	-8
438.073	1	5
438.414	1	-2
438.756	1	-3
439.097	1	-3
439.438	1	-2
439.779	1	-2
440.120	1	-3
440.461	1	4
440.802	1	-9
441.143	1	6
441.485	1	-3
441.826	1	3
442.167	1	-7
442.508	1	-5
442.849	1	11
443.190	1	1
443.531	1	5
443.872	1	-1
444.213	1	0
444.554	1	11
444.895	1	-5
445.237	1	-8
445.578	1	-13
445.919	1	-1
446.260	1	-4
446.601	1	6
446.942	1	-3
447.283	1	-10
447.624	1	-4
447.965	1	4
448.306	1	-4
448.647	1	-14
448.988	1	-2
449.329	1	-14
449.670	1	10
450.011	1	14
450.352	1	1
450.693	1	-8
451.034	1	-5
451.375	1	2
451.716	1	-3
452.057	1	4
452.398	1	-8
452.739	1	1
453.080	1	-2
453.421	1	5
453.762	1	-2
454.103	1	-6
454.444	1	-14
454.785	1	-2
455.126	1	-8
455.467	1	6
455.808	1	7
456.149	1	13
456.490	1	1
456.831	1	1
457.172	1	-13
457.513	1	6
457.854	1	-8
458.195	1	-9
458.536	1	1
458.877	1	3
459.218	1	-12
459.559	1	11
459.899	1	-5
460.240	1	0
460.581	1	4
460.922	1	-4
461.263	1	-7
461.604	1	7
461.945	1	5
462.286	1	-6
462.627	1	8
462.968	1	0
463.309	1	-5
463.649	1	-7
463.990	1	0
464.331	1	-8
464.672	1	0
465.013	1	-6
465.354	1	-5
465.695	1	-3
466.036	1	-11
466.376	1	-9
466.717	1	5
467.058	1	-2
467.399	1	0
467.740	1	-6
468.081	1	-1
468.422	1	-12
468.762	1	-14
469.103	1	-3
469.444	1	4
469.785	1	-13
470.126	1	-9
470.467	1	-3
470.807	1	3
471.148	1	1
471.489	1	9
471.830	1	-2
472.171	1	-3
472.511	1	-6
472.852	1	6
473.193	1	3
473.534	1	10
473.875	1	5
474.215	1	9
474.556	1	2
474.897	1	8
475.238	1	5
475.578	1	-6
475.919	1	3
476.260	1	3
476.601	1	0
476.942	1	13
477.282	1	-4
477.623	1	-15
477.964	1	2
478.305	1	-2
478.645	1	13
478.986	1	-2
479.327	1	-7
479.667	1	-3
480.008	1	-5
480.349	1	-3
480.690	1	-2
481.030	1	-2
481.371	1	-3
481.712	1	-5
482.053	1	-3
482.393	1	-5
482.734	1	-5
483.075	1	-2
483.415	1	1
483.756	1	3
484.097	1	-3
484.437	1	0
484.778	1	11
485.119	1	-5
485.459	1	14
485.800	1	-6
486.141	1	-7
486.481	1	3
486.822	1	8
487.163	1	-4
487.503	1	0
487.844	1	-3
488.185	1	-4
488.525	1	-6
488.866	1	5
489.207	1	-2
489.547	1	-6
489.888	1	-6
490.228	1	5
490.569	1	10
490.910	1	-4
491.250	1	-3
491.591	1	-2
491.932	1	3
492.272	1	0
492.613	1	-2
492.953	1	-3
493.294	1	1
493.635	1	-6
493.975	1	-10
494.316	1	9
494.656	1	4
494.997	1	-9
495.337	1	3
495.678	1	-11
496.019	1	-4
496.359	1	0
496.700	1	1
497.040	1	-2
497.381	1	2
497.721	1	-1
498.062	1	1
498.403	1	0
498.743	1	-4
499.084	1	2
499.424	1	-10
499.765	1	4
500.105	1	-4
500.446	1	-8
500.786	1	-13
501.127	1	-5
501.467	1	-10
501.808	1	4
502.148	1	1
502.489	1	-3
502.829	1	-3
503.170	1	4
503.510	1	7
503.851	1	0
504.191	1	-2
504.532	1	1
504.872	1	-4
505.213	1	7
505.553	1	-11
505.894	1	-9
506.234	1	-3
506.575	1	4
506.915	1	2
507.256	1	6
507.596	1	-5
507.936	1	-2
508.277	1	2
508.617	1	1
508.958	1	-10
509.298	1	6
509.639	1	-7
509.979	1	-3
510.319	1	1
510.660	1	4
511.000	1	-7
511.341	1	-6
511.681	1	7
512.022	1	-8
512.362	1	-7
512.702	1	0
513.043	1	13
513.383	1	-7
513.724	1	5
514.064	1	4
514.404	1	-2
514.745	1	-8
515.085	1	2
515.425	1	-10
515.766	1	-8
516.106	1	5
516.447	1	13
516.787	1	9
517.127	1	-6
517.468	1	-11
517.808	1	2
518.148	1	5
518.489	1	3
518.829	1	9
519.169	1	6
519.510	1	-10
519.850	1	6
520.190	1	-5
520.531	1	-8
520.871	1	-2
521.211	1	-13
521.552	1	3
521.892	1	10
522.232	1	3
522.573	1	0
522.913	1	-1
523.253	1	-6
523.593	1	-5
523.934	1	3
524.274	1	0
524.614	1	-11
524.955	1	-9
525.295	1	-3
525.635	1	-1
525.975	1	2
526.316	1	10
526.656	1	-5
526.996	1	-3
527.337	1	5
527.677	1	7
528.017	1	-5
528.357	1	8
528.698	1	1
529.038	1	2
529.378	1	6
529.718	1	6
530.058	1	-10
530.399	1	14
530.739	1	6
531.079	1	6
531.419	1	9
531.760	1	-7
532.100	1	2
532.440	1	4
532.780	1	-8
533.120	1	15
533.461	1	5
533.801	1	6
534.141	1	-12
534.481	1	0
534.821	1	5
535.162	1	-9
535.502	1	2
535.842	1	4
536.182	1	3
536.522	1	-12
536.862	1	7
537.203	1	-7
537.543	1	-1
537.883	1	-4
538.223	1	5
538.563	1	3
538.903	1	-4
539.243	1	-1
539.584	1	0
539.924	1	9
540.264	1	-5
540.604	1	2
540.944	1	-5
541.284	1	7
541.624	1	3
541.964	1	7
542.305	1	2
542.645	1	6
542.985	1	-2
543.325	1	-7
543.665	1	7
544.005	1	4
544.345	1	9
544.685	1	1
545.025	1	-3
545.365	1	9
545.705	1	-4
546.045	1	-7
546.386	1	6
546.726	1	-4
547.066	1	3
547.406	1	6
547.746	1	-14
548.086	1	3
548.426	1	1
548.766	1	3
549.106	1	-8
549.446	1	-8
549.786	1	0
550.126	1	12
550.466	1	-8
550.806	1	-6
551.146	1	0
551.486	1	7
551.826	1	9
552.166	1	-1
552.506	1	4
552.846	1	-3
553.186	1	7
553.526	1	-2
553.866	1	3
554.206	1	2
554.546	1	2
554.886	1	10
555.226	1	7
555.566	1	0
555.906	1	0
556.246	1	4
556.586	1	2
556.926	1	0
557.266	1	-12
557.606	1	10
557.946	1	9
558.286	1	9
558.626	1	11
558.966	1	3
559.306	1	-5
559.646	1	4
559.986	1	-11
560.325	1	-6
560.665	1	-9
561.005	1	-2
561.345	1	-3
561.685	1	0
562.025	1	1
562.365	1	0
562.705	1	-9
563.045	1	-4
563.385	1	-11
563.725	1	1
564.064	1	-3
564.404	1	1
564.744	1	1
565.084	1	5
565.424	1	-4
565.764	1	-7
566.104	1	3
566.444	1	-13
566.783	1	-6
567.123	1	11
567.463	1	-5
567.803	1	-4
568.143	1	-9
568.483	1	6
568.823	1	0
569.162	1	7
569.502	1	6
569.842	1	-2
570.182	1	6
570.522	1	-12
570.862	1	-12
571.201	1	7
571.541	1	-1
571.881	1	10
572.221	1	-9
572.561	1	0
572.900	1	-6
573.240	1	5
573.580	1	1
573.920	1	5
574.260	1	12
574.599	1	-1
574.939	1	7
575.279	1	-1
575.619	1	10
575.959	1	-6
576.298	1	8
576.638	1	-8
576.978	1	10
577.318	1	9
577.657	1	-7
577.997	1	-6
578.337	1	1
578.677	1	8
579.016	1	7
579.356	1	-1
579.696	1	-4
580.036	1	-7
580.375	1	4
580.715	1	0
581.055	1	4
581.394	1	-2
581.734	1	-4
582.074	1	-5
582.414	1	5
582.753	1	3
583.093	1	-5
583.433	1	-6
583.772	1	4
584.112	1	0
584.452	1	5
584.791	1	-4
585.131	1	8
585.471	1	5
585.811	1	-2
586.150	1	2
586.490	1	5
586.830	1	-3
587.169	1	3
587.509	1	-4
587.849	1	2
588.188	1	7
588.528	1	-1
588.867	1	9
589.207	1	5
589.547	1	7
589.886	1	-16
590.226	1	2
590.566	1	-2
590.905	1	0
591.245	1	-4
591.585	1	-3
591.924	1	8
592.264	1	-3
592.603	1	5
592.943	1	-5
593.283	1	-6
593.622	1	-6
593.962	1	2
594.301	1	5
594.641	1	-8
594.981	1	4
595.320	1	1
595.660	1	6
595.999	1	-6
596.339	1	3
596.678	1	-9
597.018	1	-5
597.358	1	8
597.697	1	-1
598.037	1	-9
598.376	1	0
598.716	1	-1
599.055	1	5
599.395	1	-8
599.734	1	6
600.074	1	-10
600.413	1	14
600.753	1	-5
601.092	1	8
601.432	1	-5
601.771	1	2
602.111	1	3
602.451	1	4
602.790	1	1
603.130	1	2
603.469	1	-1
603.809	1	0
604.148	1	-2
604.487	1	-2
604.827	1	1
605.166	1	-1
605.506	1	2
605.845	1	2
606.185	1	2
606.524	1	-1
606.864	1	-3
607.203	1	-9
607.543	1	-6
607.882	1	4
608.222	1	9
608.561	1	-2
608.901	1	1
609.240	1	-2
609.579	1	7
609.919	1	8
610.258	1	6
610.598	1	-4
610.937	1	3
611.277	1	-3
611.616	1	-1
611.955	1	-7
612.295	1	-6
612.634	1	-3
612.974	1	-7
613.313	1	5
613.652	1	-3
613.992	1	5
614.331	1	2
614.671	1	6
615.010	1	0
615.349	1	14
615.689	1	15
616.028	1	-3
616.368	1	0
616.707	1	-6
617.046	1	4
617.386	1	-2
617.725	1	-5
618.064	1	-5
618.404	1	-8
618.743	1	6
619.082	1	-2
619.422	1	-11
619.761	1	6
620.100	1	7
620.440	1	6
620.779	1	-4
621.118	1	-4
621.458	1	11
621.797	1	-7
622.136	1	16
622.476	1	4
622.815	1	1
623.154	1	0
623.494	1	2
623.833	1	2
624.172	1	-2
624.511	1	-3
624.851	1	-7
625.190	1	0
625.529	1	-1
625.869	1	13
626.208	1	-6
626.547	1	4
626.886	1	4
627.226	1	-5
627.565	1	3
627.904	1	9
628.243	1	3
628.583	1	-4
628.922	1	8
629.261	1	13
629.600	1	4
629.940	1	5
630.279	1	-7
630.618	1	2
630.957	1	4
631.297	1	6
631.636	1	-3
631.975	1	17
632.314	1	-6
632.653	1	-2
632.993	1	0
633.332	1	4
633.671	1	2
634.010	1	-9
634.349	1	7
634.689	1	8
635.028	1	6
635.367	1	-6
635.706	1	5
636.045	1	4
636.384	1	7
636.724	1	4
637.063	1	-1
637.402	1	3
637.741	1	0
638.080	1	-14
638.419	1	-1
638.759	1	-8
639.098	1	3
639.437	1	0
639.776	1	1
640.115	1	-4
640.454	1	0
640.793	1	12
641.132	1	4
641.472	1	-4
641.811	1	-1
642.150	1	-12
642.489	1	-4
642.828	1	-4
643.167	1	-6
643.506	1	-9
643.845	1	1
644.184	1	3
644.524	1	-6
644.863	1	-2
645.202	1	-4
645.541	1	7
645.880	1	6
646.219	1	9
646.558	1	-3
646.897	1	-3
647.236	1	-1
647.575	1	4
647.914	1	0
648.253	1	10
648.592	1	-1
648.931	1	7
649.270	1	3
649.610	1	-7
649.949	1	-10
650.288	1	7
650.627	1	-7
650.966	1	3
651.305	1	-3
651.644	1	15
651.983	1	2
652.322	1	-2
652.661	1	-5
653.000	1	-7
653.339	1	1
653.678	1	5
654.017	1	-3
654.356	1	-3
654.695	1	-1
655.034	1	11
655.373	1	14
655.712	1	3
656.051	1	-1
656.390	1	-8
656.729	1	13
657.068	1	6
657.406	1	5
657.745	1	-6
658.084	1	4
658.423	1	5
658.762	1	-1
659.101	1	3
659.440	1	1
659.779	1	-5
660.118	1	0
660.457	1	-5
660.796	1	-13
661.135	1	-5
661.474	1	-5
661.813	1	14
662.152	1	7
662.491	1	-5
662.829	1	-3
663.168	1	-7
663.507	1	10
663.846	1	-8
664.185	1	10
664.524	1	3
664.863	1	-5
665.202	1	-2
665.541	1	-13
665.879	1	-1
666.218	1	-4
666.557	1	-4
666.896	1	-11
667.235	1	5
667.574	1	-6
667.913	1	3
668.251	1	-11
668.590	1	2
668.929	1	-5
669.268	1	-7
669.607	1	1
669.946	1	-4
670.285	1	4
670.623	1	-9
670.962	1	-6
671.301	1	-8
671.640	1	5
671.979	1	-4
672.317	1	-4
672.656	1	-2
672.995	1	4
673.334	1	-5
673.673	1	5
674.011	1	1
674.350	1	-5
674.689	1	-3
675.028	1	-1
675.367	1	-1
675.705	1	6
676.044	1	5
676.383	1	-10
676.722	1	6
677.060	1	-5
677.399	1	-8
677.738	1	-4
678.077	1	7
678.416	1	2
678.754	1	-9
679.093	1	-3
679.432	1	2
679.771	1	-8
680.109	1	10
680.448	1	1
680.787	1	-11
681.125	1	2
681.464	1	-11
681.803	1	3
682.142	1	14
682.480	1	5
682.819	1	0
683.158	1	-2
683.496	1	0
683.835	1	0
684.174	1	-4
684.512	1	7
684.851	1	-4
685.190	1	1
685.529	1	0
685.867	1	-8
686.206	1	-2
686.545	1	-6
686.883	1	-6
687.222	1	1
687.561	1	11
687.899	1	9
688.238	1	5
688.577	1	1
688.746	1	2