File: Data/GaN_200K_800ms/GaN_sample F_spot 12_UVVIS_200 K_200um_800 ms 2x2mm1_145.txt
340.368	1	7
340.710	1	-11
341.052	1	6
341.394	1	-1
341.737	1	5
342.079	1	-1
342.421	1	1
342.763	1	0
343.105	1	5
343.447	1	-12
343.789	1	-7
344.131	1	1
344.473	1	1
344.815	1	-2
345.157	1	-7
345.499	1	-5
345.841	1	-2
346.183	1	-7
346.526	1	0
346.868	1	8
347.210	1	-14
347.552	1	-1
347.894	1	10
348.236	1	10
348.578	1	4
348.920	1	-3
349.262	1	3
349.604	1	-2
349.946	1	-2
350.288	1	4
350.630	1	4
350.972	1	0
351.314	1	8
351.656	1	5
351.998	1	3
352.340	1	5
352.682	1	9
353.024	1	10
353.366	1	14
353.708	1	3
354.050	1	-8
354.392	1	-2
354.734	1	15
355.076	1	12
355.418	1	0
355.760	1	-2
356.102	1	17
356.444	1	11
356.785	1	6
357.127	1	6
357.469	1	13
357.811	1	5
358.153	1	11
358.495	1	9
358.837	1	4
359.179	1	6
359.521	1	21
359.863	1	15
360.205	1	10
360.547	1	20
360.889	1	7
361.231	1	3
361.572	1	9
361.914	1	15
362.256	1	19
362.598	1	6
362.940	1	16
363.282	1	17
363.624	1	24
363.966	1	29
364.308	1	11
364.649	1	34
364.991	1	23
365.333	1	22
365.675	1	16
366.017	1	29
366.359	1	35
366.701	1	44
367.042	1	41
367.384	1	60
367.726	1	51
368.068	1	47
368.410	1	68
368.752	1	45
369.093	1	46
369.435	1	58
369.777	1	43
370.119	1	50
370.461	1	50
370.803	1	60
371.144	1	47
371.486	1	55
371.828	1	54
372.170	1	49
372.512	1	34
372.853	1	47
373.195	1	38
373.537	1	32
373.879	1	35
374.220	1	51
374.562	1	48
374.904	1	29
375.246	1	37
375.588	1	39
375.929	1	34
376.271	1	40
376.613	1	25
376.955	1	24
377.296	1	29
377.638	1	34
377.980	1	26
378.321	1	12
378.663	1	15
379.005	1	24
379.347	1	20
379.688	1	22
380.030	1	15
380.372	1	25
380.714	1	27
381.055	1	22
381.397	1	15
381.739	1	19
382.080	1	14
382.422	1	13
382.764	1	13
383.105	1	14
383.447	1	10
383.789	1	3
384.130	1	13
384.472	1	11
384.814	1	17
385.156	1	2
385.497	1	14
385.839	1	11
386.180	1	9
386.522	1	14
386.864	1	17
387.205	1	1
387.547	1	-1
387.889	1	4
388.230	1	15
388.572	1	2
388.914	1	8
389.255	1	-8
389.597	1	10
389.939	1	9
390.280	1	12
390.622	1	0
390.963	1	22
391.305	1	7
391.647	1	8
391.988	1	19
392.330	1	1
392.671	1	-1
393.013	1	4
393.355	1	10
393.696	1	11
394.038	1	10
394.379	1	10
394.721	1	3
395.062	1	0
395.404	1	3
395.746	1	13
396.087	1	1
396.429	1	11
396.770	1	1
397.112	1	2
397.453	1	11
397.795	1	3
398.136	1	-1
398.478	1	10
398.819	1	4
399.161	1	12
399.503	1	4
399.844	1	-6
400.186	1	-1
400.527	1	4
400.869	1	8
401.210	1	4
401.552	1	0
401.893	1	3
402.235	1	2
402.576	1	2
402.918	1	7
403.259	1	5
403.601	1	2
403.942	1	15
404.284	1	15
404.625	1	5
404.967	1	6
405.308	1	4
405.649	1	2
405.991	1	6
406.332	1	-5
406.674	1	-6
407.015	1	6
407.357	1	0
407.698	1	10
408.040	1	-1
408.381	1	-2
408.722	1	-7
409.064	1	-1
409.405	1	3
409.747	1	3
410.088	1	4
410.430	1	11
410.771	1	-4
411.112	1	-5
411.454	1	-2
411.795	1	-10
412.137	1	3
412.478	1	17
412.819	1	6
413.161	1	1
413.502	1	12
413.844	1	-4
414.185	1	3
414.526	1	2
414.868	1	-4
415.209	1	2
415.550	1	-6
415.892	1	-1
416.233	1	5
416.575	1	16
416.916	1	-8
417.257	1	3
417.599	1	4
417.940	1	7
418.281	1	1
418.623	1	5
418.964	1	-13
419.305	1	11
419.647	1	-2
419.988	1	2
420.329	1	-13
420.671	1	4
421.012	1	-6
421.353	1	1
421.695	1	4
422.036	1	8
422.377	1	-1
422.718	1	6
423.060	1	-7
423.401	1	5
423.742	1	2
424.084	1	-3
424.425	1	4
424.766	1	-3
425.107	1	0
425.449	1	1
425.790	1	-9
426.131	1	1
426.472	1	2
426.814	1	2
427.155	1	-4
427.496	1	4
427.837	1	-7
428.179	1	-6
428.520	1	-4
428.861	1	5
429.202	1	0
429.544	1	-4
429.885	1	-1
430.226	1	-16
430.567	1	6
430.909	1	1
431.250	1	4
431.591	1	10
431.932	1	-1
432.273	1	-5
432.615	1	-10
432.956	1	-8
433.297	1	-2
433.638	1	-3
433.979	1	2
434.320	1	5
434.662	1	1
435.003	1	5
435.344	1	3
435.685	1	-10
436.026	1	7
436.368	1	4
436.709	1	-2
437.050	1	-2
437.391	1	11
437.732	1	-8
438.073	1	1
438.414	1	-5
438.756	1	-11
439.097	1	-6
439.438	1	3
439.779	1	2
440.120	1	0
440.461	1	4
440.802	1	-5
441.143	1	5
441.485	1	4
441.826	1	-2
442.167	1	4
442.508	1	-2
442.849	1	10
443.190	1	0
443.531	1	8
443.872	1	9
444.213	1	3
444.554	1	5
444.895	1	-1
445.237	1	-7
445.578	1	-7
445.919	1	-12
446.260	1	1
446.601	1	-9
446.942	1	1
447.283	1	-4
447.624	1	0
447.965	1	1
448.306	1	2
448.647	1	-3
448.988	1	-1
449.329	1	-1
449.670	1	15
450.011	1	10
450.352	1	-4
450.693	1	3
451.034	1	-2
451.375	1	-2
451.716	1	10
452.057	1	-7
452.398	1	2
452.739	1	1
453.080	1	0
453.421	1	6
453.762	1	3
454.103	1	-4
454.444	1	-5
454.785	1	-7
455.126	1	2
455.467	1	7
455.808	1	1
456.149	1	4
456.490	1	7
456.831	1	7
457.172	1	0
457.513	1	-3
457.854	1	5
458.195	1	-2
458.536	1	11
458.877	1	0
459.218	1	1
459.559	1	1
459.899	1	5
460.240	1	-4
460.581	1	8
460.922	1	3
461.263	1	-13
461.604	1	-7
461.945	1	-7
462.286	1	4
462.627	1	13
462.968	1	2
463.309	1	0
463.649	1	5
463.990	1	0
464.331	1	3
464.672	1	6
465.013	1	-1
465.354	1	4
465.695	1	-7
466.036	1	0
466.376	1	-5
466.717	1	9
467.058	1	0
467.399	1	-3
467.740	1	-1
468.081	1	9
468.422	1	-8
468.762	1	-12
469.103	1	-2
469.444	1	-10
469.785	1	-11
470.126	1	-10
470.467	1	1
470.807	1	-4
471.148	1	3
471.489	1	4
471.830	1	5
472.171	1	12
472.511	1	-3
472.852	1	-2
473.193	1	8
473.534	1	6
473.875	1	7
474.215	1	9
474.556	1	-2
474.897	1	11
475.238	1	8
475.578	1	1
475.919	1	-4
476.260	1	10
476.601	1	3
476.942	1	6
477.282	1	-1
477.623	1	-13
477.964	1	-5
478.305	1	1
478.645	1	4
478.986	1	-1
479.327	1	-2
479.667	1	12
480.008	1	3
480.349	1	-3
480.690	1	-1
481.030	1	0
481.371	1	5
481.712	1	0
482.053	1	10
482.393	1	-5
482.734	1	2
483.075	1	-3
483.415	1	2
483.756	1	11
484.097	1	0
484.437	1	-9
484.778	1	2
485.119	1	-8
485.459	1	12
485.800	1	1
486.141	1	5
486.481	1	4
486.822	1	7
487.163	1	2
487.503	1	6
487.844	1	1
488.185	1	7
488.525	1	2
488.866	1	5
489.207	1	-1
489.547	1	-2
489.888	1	3
490.228	1	2
490.569	1	7
490.910	1	0
491.250	1	-9
491.591	1	-1
491.932	1	1
492.272	1	12
492.613	1	-3
492.953	1	-7
493.294	1	-9
493.635	1	2
493.975	1	-3
494.316	1	4
494.656	1	1
494.997	1	-11
495.337	1	15
495.678	1	3
496.019	1	8
496.359	1	-6
496.700	1	8
497.040	1	2
497.381	1	8
497.721	1	1
498.062	1	-1
498.403	1	5
498.743	1	-6
499.084	1	-5
499.424	1	-4
499.765	1	2
500.105	1	-9
500.446	1	-7
500.786	1	-3
501.127	1	8
501.467	1	-9
501.808	1	9
502.148	1	15
502.489	1	8
502.829	1	6
503.170	1	6
503.510	1	7
503.851	1	3
504.191	1	9
504.532	1	6
504.872	1	-7
505.213	1	4
505.553	1	1
505.894	1	-7
506.234	1	9
506.575	1	8
506.915	1	0
507.256	1	0
507.596	1	-8
507.936	1	2
508.277	1	4
508.617	1	1
508.958	1	-11
509.298	1	9
509.639	1	-5
509.979	1	1
510.319	1	0
510.660	1	-7
511.000	1	-5
511.341	1	8
511.681	1	11
512.022	1	2
512.362	1	0
512.702	1	3
513.043	1	7
513.383	1	-5
513.724	1	5
514.064	1	16
514.404	1	-7
514.745	1	0
515.085	1	-2
515.425	1	3
515.766	1	-7
516.106	1	1
516.447	1	15
516.787	1	8
517.127	1	3
517.468	1	7
517.808	1	10
518.148	1	5
518.489	1	-3
518.829	1	17
519.169	1	-3
519.510	1	4
519.850	1	9
520.190	1	4
520.531	1	1
520.871	1	-1
521.211	1	-8
521.552	1	11
521.892	1	4
522.232	1	10
522.573	1	1
522.913	1	7
523.253	1	0
523.593	1	-10
523.934	1	0
524.274	1	2
524.614	1	2
524.955	1	-6
525.295	1	8
525.635	1	-1
525.975	1	-5
526.316	1	13
526.656	1	-2
526.996	1	-1
527.337	1	3
527.677	1	3
528.017	1	-5
528.357	1	8
528.698	1	8
529.038	1	2
529.378	1	7
529.718	1	13
530.058	1	5
530.399	1	18
530.739	1	5
531.079	1	14
531.419	1	7
531.760	1	3
532.100	1	1
532.440	1	11
532.780	1	0
533.120	1	15
533.461	1	3
533.801	1	16
534.141	1	-9
534.481	1	-7
534.821	1	12
535.162	1	-5
535.502	1	7
535.842	1	11
536.182	1	1
536.522	1	-2
536.862	1	11
537.203	1	-5
537.543	1	5
537.883	1	2
538.223	1	6
538.563	1	15
538.903	1	-3
539.243	1	0
539.584	1	5
539.924	1	14
540.264	1	-5
540.604	1	5
540.944	1	1
541.284	1	17
541.624	1	2
541.964	1	16
542.305	1	11
542.645	1	0
542.985	1	4
543.325	1	4
543.665	1	14
544.005	1	15
544.345	1	8
544.685	1	0
545.025	1	8
545.365	1	14
545.705	1	1
546.045	1	0
546.386	1	4
546.726	1	2
547.066	1	12
547.406	1	10
547.746	1	-4
548.086	1	2
548.426	1	1
548.766	1	9
549.106	1	-3
549.446	1	6
549.786	1	7
550.126	1	16
550.466	1	14
550.806	1	4
551.146	1	8
551.486	1	3
551.826	1	9
552.166	1	14
552.506	1	7
552.846	1	11
553.186	1	6
553.526	1	5
553.866	1	1
554.206	1	7
554.546	1	11
554.886	1	6
555.226	1	-2
555.566	1	6
555.906	1	15
556.246	1	5
556.586	1	10
556.926	1	9
557.266	1	-8
557.606	1	1
557.946	1	23
558.286	1	12
558.626	1	11
558.966	1	-4
559.306	1	2
559.646	1	10
559.986	1	-1
560.325	1	4
560.665	1	5
561.005	1	1
561.345	1	2
561.685	1	10
562.025	1	2
562.365	1	13
562.705	1	-3
563.045	1	3
563.385	1	-5
563.725	1	1
564.064	1	5
564.404	1	11
564.744	1	13
565.084	1	4
565.424	1	1
565.764	1	1
566.104	1	3
566.444	1	-5
566.783	1	-3
567.123	1	7
567.463	1	9
567.803	1	5
568.143	1	6
568.483	1	3
568.823	1	-3
569.162	1	16
569.502	1	6
569.842	1	7
570.182	1	9
570.522	1	-1
570.862	1	3
571.201	1	9
571.541	1	15
571.881	1	22
572.221	1	1
572.561	1	0
572.900	1	2
573.240	1	5
573.580	1	7
573.920	1	1
574.260	1	9
574.599	1	-3
574.939	1	8
575.279	1	18
575.619	1	12
575.959	1	-7
576.298	1	9
576.638	1	2
576.978	1	4
577.318	1	15
577.657	1	-5
577.997	1	0
578.337	1	9
578.677	1	12
579.016	1	12
579.356	1	4
579.696	1	18
580.036	1	5
580.375	1	13
580.715	1	5
581.055	1	3
581.394	1	6
581.734	1	-7
582.074	1	2
582.414	1	1
582.753	1	2
583.093	1	-3
583.433	1	6
583.772	1	18
584.112	1	4
584.452	1	13
584.791	1	-5
585.131	1	10
585.471	1	9
585.811	1	5
586.150	1	-4
586.490	1	9
586.830	1	8
587.169	1	2
587.509	1	8
587.849	1	3
588.188	1	14
588.528	1	4
588.867	1	16
589.207	1	15
589.547	1	-2
589.886	1	-1
590.226	1	2
590.566	1	5
590.905	1	10
591.245	1	3
591.585	1	8
591.924	1	2
592.264	1	-5
592.603	1	12
592.943	1	5
593.283	1	6
593.622	1	4
593.962	1	6
594.301	1	14
594.641	1	-4
594.981	1	5
595.320	1	14
595.660	1	7
595.999	1	0
596.339	1	11
596.678	1	-5
597.018	1	-4
597.358	1	8
597.697	1	3
598.037	1	-2
598.376	1	10
598.716	1	12
599.055	1	9
599.395	1	7
599.734	1	2
600.074	1	6
600.413	1	10
600.753	1	5
601.092	1	12
601.432	1	-11
601.771	1	11
602.111	1	12
602.451	1	12
602.790	1	3
603.130	1	8
603.469	1	-1
603.809	1	-4
604.148	1	7
604.487	1	2
604.827	1	12
605.166	1	7
605.506	1	7
605.845	1	13
606.185	1	5
606.524	1	5
606.864	1	-3
607.203	1	4
607.543	1	8
607.882	1	9
608.222	1	5
608.561	1	1
608.901	1	11
609.240	1	0
609.579	1	20
609.919	1	13
610.258	1	11
610.598	1	14
610.937	1	-2
611.277	1	0
611.616	1	10
611.955	1	9
612.295	1	1
612.634	1	3
612.974	1	-1
613.313	1	7
613.652	1	12
613.992	1	2
614.331	1	3
614.671	1	7
615.010	1	-4
615.349	1	14
615.689	1	8
616.028	1	8
616.368	1	1
616.707	1	9
617.046	1	7
617.386	1	10
617.725	1	1
618.064	1	-2
618.404	1	-2
618.743	1	-1
619.082	1	1
619.422	1	-2
619.761	1	7
620.100	1	12
620.440	1	4
620.779	1	-4
621.118	1	-1
621.458	1	5
621.797	1	5
622.136	1	10
622.476	1	3
622.815	1	15
623.154	1	3
623.494	1	11
623.833	1	6
624.172	1	3
624.511	1	-2
624.851	1	-9
625.190	1	8
625.529	1	2
625.869	1	15
626.208	1	2
626.547	1	1
626.886	1	4
627.226	1	6
627.565	1	-3
627.904	1	-4
628.243	1	7
628.583	1	5
628.922	1	6
629.261	1	5
629.600	1	6
629.940	1	3
630.279	1	-7
630.618	1	5
630.957	1	4
631.297	1	1
631.636	1	-10
631.975	1	13
632.314	1	4
632.653	1	-4
632.993	1	3
633.332	1	-5
633.671	1	-1
634.010	1	-2
634.349	1	9
634.689	1	5
635.028	1	9
635.367	1	-3
635.706	1	5
636.045	1	8
636.384	1	2
636.724	1	7
637.063	1	-8
637.402	1	12
637.741	1	0
638.080	1	0
638.419	1	-7
638.759	1	-5
639.098	1	13
639.437	1	11
639.776	1	-3
640.115	1	-1
640.454	1	-3
640.793	1	14
641.132	1	6
641.472	1	7
641.811	1	3
642.150	1	-3
642.489	1	7
642.828	1	-1
643.167	1	0
643.506	1	-12
643.845	1	3
644.184	1	2
644.524	1	-2
644.863	1	-3
645.202	1	-3
645.541	1	2
645.880	1	0
646.219	1	-2
646.558	1	1
646.897	1	3
647.236	1	3
647.575	1	9
647.914	1	1
648.253	1	9
648.592	1	-1
648.931	1	14
649.270	1	2
649.610	1	-4
649.949	1	0
650.288	1	3
650.627	1	1
650.966	1	10
651.305	1	3
651.644	1	16
651.983	1	2
652.322	1	-2
652.661	1	9
653.000	1	-5
653.339	1	-2
653.678	1	0
654.017	1	2
654.356	1	3
654.695	1	9
655.034	1	10
655.373	1	4
655.712	1	3
656.051	1	9
656.390	1	11
656.729	1	12
657.068	1	5
657.406	1	14
657.745	1	-9
658.084	1	5
658.423	1	8
658.762	1	0
659.101	1	2
659.440	1	-7
659.779	1	3
660.118	1	10
660.457	1	7
660.796	1	-4
661.135	1	-4
661.474	1	-1
661.813	1	6
662.152	1	6
662.491	1	0
662.829	1	-8
663.168	1	9
663.507	1	7
663.846	1	5
664.185	1	6
664.524	1	-1
664.863	1	8
665.202	1	2
665.541	1	-7
665.879	1	-8
666.218	1	-7
666.557	1	3
666.896	1	-5
667.235	1	6
667.574	1	-2
667.913	1	7
668.251	1	1
668.590	1	1
668.929	1	-10
669.268	1	2
669.607	1	-2
669.946	1	0
670.285	1	12
670.623	1	-1
670.962	1	17
671.301	1	0
671.640	1	10
671.979	1	-1
672.317	1	1
672.656	1	-3
672.995	1	8
673.334	1	3
673.673	1	2
674.011	1	2
674.350	1	7
674.689	1	2
675.028	1	-4
675.367	1	7
675.705	1	3
676.044	1	3
676.383	1	-2
676.722	1	-2
677.060	1	-1
677.399	1	-6
677.738	1	10
678.077	1	3
678.416	1	3
678.754	1	-4
679.093	1	-1
679.432	1	-3
679.771	1	0
680.109	1	12
680.448	1	3
680.787	1	-3
681.125	1	0
681.464	1	-9
681.803	1	4
682.142	1	10
682.480	1	27
682.819	1	1
683.158	1	-1
683.496	1	1
683.835	1	2
684.174	1	-1
684.512	1	4
684.851	1	8
685.190	1	-1
685.529	1	3
685.867	1	-4
686.206	1	0
686.545	1	1
686.883	1	-11
687.222	1	15
687.561	1	1
687.899	1	5
688.238	1	6
688.577	1	5
688.746	1	3