File: Data/GaN_200K_800ms/GaN_sample F_spot 12_UVVIS_200 K_200um_800 ms 2x2mm1_466.txt
340.368	1	-2
340.710	1	0
341.052	1	8
341.394	1	-4
341.737	1	5
342.079	1	-2
342.421	1	-9
342.763	1	-1
343.105	1	9
343.447	1	-12
343.789	1	-8
344.131	1	-3
344.473	1	-9
344.815	1	-10
345.157	1	-11
345.499	1	1
345.841	1	6
346.183	1	-4
346.526	1	-1
346.868	1	3
347.210	1	-11
347.552	1	-2
347.894	1	5
348.236	1	2
348.578	1	-4
348.920	1	-2
349.262	1	-3
349.604	1	3
349.946	1	-7
350.288	1	7
350.630	1	-5
350.972	1	2
351.314	1	7
351.656	1	6
351.998	1	-1
352.340	1	4
352.682	1	-3
353.024	1	-1
353.366	1	15
353.708	1	-1
354.050	1	-5
354.392	1	-9
354.734	1	-8
355.076	1	-4
355.418	1	-9
355.760	1	-6
356.102	1	5
356.444	1	4
356.785	1	1
357.127	1	-1
357.469	1	-1
357.811	1	-3
358.153	1	11
358.495	1	-6
358.837	1	-6
359.179	1	-5
359.521	1	6
359.863	1	4
360.205	1	-4
360.547	1	6
360.889	1	-1
361.231	1	-8
361.572	1	11
361.914	1	1
362.256	1	3
362.598	1	-4
362.940	1	3
363.282	1	3
363.624	1	3
363.966	1	0
364.308	1	-1
364.649	1	8
364.991	1	2
365.333	1	-3
365.675	1	3
366.017	1	4
366.359	1	3
366.701	1	6
367.042	1	-4
367.384	1	10
367.726	1	7
368.068	1	3
368.410	1	18
368.752	1	1
369.093	1	0
369.435	1	15
369.777	1	5
370.119	1	8
370.461	1	23
370.803	1	4
371.144	1	10
371.486	1	15
371.828	1	15
372.170	1	16
372.512	1	2
372.853	1	12
373.195	1	-3
373.537	1	15
373.879	1	3
374.220	1	20
374.562	1	12
374.904	1	10
375.246	1	13
375.588	1	1
375.929	1	7
376.271	1	3
376.613	1	9
376.955	1	-4
377.296	1	1
377.638	1	6
377.980	1	6
378.321	1	-15
378.663	1	5
379.005	1	3
379.347	1	4
379.688	1	-5
380.030	1	4
380.372	1	4
380.714	1	7
381.055	1	5
381.397	1	2
381.739	1	-2
382.080	1	7
382.422	1	-6
382.764	1	-10
383.105	1	-1
383.447	1	0
383.789	1	-6
384.130	1	2
384.472	1	5
384.814	1	-4
385.156	1	-4
385.497	1	5
385.839	1	-8
386.180	1	-2
386.522	1	5
386.864	1	1
387.205	1	-12
387.547	1	-7
387.889	1	-9
388.230	1	7
388.572	1	-8
388.914	1	-1
389.255	1	-6
389.597	1	6
389.939	1	-4
390.280	1	2
390.622	1	-7
390.963	1	5
391.305	1	3
391.647	1	-2
391.988	1	2
392.330	1	6
392.671	1	-1
393.013	1	-3
393.355	1	4
393.696	1	-1
394.038	1	1
394.379	1	-3
394.721	1	-1
395.062	1	6
395.404	1	-5
395.746	1	5
396.087	1	-3
396.429	1	-1
396.770	1	2
397.112	1	9
397.453	1	4
397.795	1	0
398.136	1	-13
398.478	1	-7
398.819	1	3
399.161	1	5
399.503	1	1
399.844	1	-5
400.186	1	-5
400.527	1	-5
400.869	1	-10
401.210	1	-1
401.552	1	-10
401.893	1	1
402.235	1	0
402.576	1	-1
402.918	1	2
403.259	1	1
403.601	1	-2
403.942	1	12
404.284	1	-1
404.625	1	-8
404.967	1	11
405.308	1	1
405.649	1	-2
405.991	1	-9
406.332	1	5
406.674	1	-2
407.015	1	-1
407.357	1	-3
407.698	1	9
408.040	1	-4
408.381	1	-4
408.722	1	-7
409.064	1	4
409.405	1	4
409.747	1	0
410.088	1	-1
410.430	1	16
410.771	1	0
411.112	1	-2
411.454	1	-1
411.795	1	-9
412.137	1	9
412.478	1	9
412.819	1	-4
413.161	1	-10
413.502	1	-6
413.844	1	2
414.185	1	-6
414.526	1	-3
414.868	1	-7
415.209	1	-4
415.550	1	-1
415.892	1	-5
416.233	1	0
416.575	1	6
416.916	1	-9
417.257	1	-1
417.599	1	3
417.940	1	7
418.281	1	-1
418.623	1	-4
418.964	1	-11
419.305	1	7
419.647	1	-17
419.988	1	2
420.329	1	-8
420.671	1	8
421.012	1	-2
421.353	1	1
421.695	1	-4
422.036	1	1
422.377	1	-8
422.718	1	16
423.060	1	-9
423.401	1	-9
423.742	1	5
424.084	1	-3
424.425	1	8
424.766	1	-5
425.107	1	-13
425.449	1	-6
425.790	1	-16
426.131	1	-2
426.472	1	-8
426.814	1	0
427.155	1	-4
427.496	1	-7
427.837	1	-1
428.179	1	-9
428.520	1	4
428.861	1	2
429.202	1	5
429.544	1	5
429.885	1	-6
430.226	1	-15
430.567	1	-3
430.909	1	0
431.250	1	4
431.591	1	-2
431.932	1	-10
432.273	1	-10
432.615	1	-14
432.956	1	-7
433.297	1	2
433.638	1	3
433.979	1	6
434.320	1	-5
434.662	1	1
435.003	1	2
435.344	1	3
435.685	1	0
436.026	1	6
436.368	1	-4
436.709	1	-2
437.050	1	-5
437.391	1	3
437.732	1	-5
438.073	1	-2
438.414	1	-7
438.756	1	-7
439.097	1	-3
439.438	1	-5
439.779	1	5
440.120	1	-6
440.461	1	4
440.802	1	0
441.143	1	1
441.485	1	1
441.826	1	4
442.167	1	5
442.508	1	-8
442.849	1	10
443.190	1	1
443.531	1	8
443.872	1	7
444.213	1	-4
444.554	1	1
444.895	1	-6
445.237	1	-12
445.578	1	-8
445.919	1	-2
446.260	1	-10
446.601	1	-4
446.942	1	4
447.283	1	-10
447.624	1	-6
447.965	1	-7
448.306	1	-5
448.647	1	-17
448.988	1	-6
449.329	1	-8
449.670	1	8
450.011	1	5
450.352	1	-2
450.693	1	-14
451.034	1	-14
451.375	1	5
451.716	1	-4
452.057	1	-2
452.398	1	-1
452.739	1	0
453.080	1	5
453.421	1	-9
453.762	1	0
454.103	1	-12
454.444	1	-8
454.785	1	-2
455.126	1	1
455.467	1	-3
455.808	1	1
456.149	1	3
456.490	1	-5
456.831	1	6
457.172	1	-4
457.513	1	1
457.854	1	0
458.195	1	-14
458.536	1	-6
458.877	1	0
459.218	1	-2
459.559	1	3
459.899	1	1
460.240	1	3
460.581	1	7
460.922	1	-1
461.263	1	-4
461.604	1	-11
461.945	1	-6
462.286	1	-1
462.627	1	4
462.968	1	10
463.309	1	-7
463.649	1	-2
463.990	1	-7
464.331	1	-4
464.672	1	-1
465.013	1	-7
465.354	1	0
465.695	1	-10
466.036	1	-6
466.376	1	-10
466.717	1	-3
467.058	1	-5
467.399	1	2
467.740	1	4
468.081	1	1
468.422	1	1
468.762	1	-6
469.103	1	-5
469.444	1	-9
469.785	1	-14
470.126	1	-3
470.467	1	-2
470.807	1	-1
471.148	1	3
471.489	1	-2
471.830	1	2
472.171	1	4
472.511	1	-5
472.852	1	-4
473.193	1	4
473.534	1	5
473.875	1	5
474.215	1	7
474.556	1	3
474.897	1	5
475.238	1	0
475.578	1	-9
475.919	1	-11
476.260	1	-5
476.601	1	0
476.942	1	-4
477.282	1	-12
477.623	1	-6
477.964	1	4
478.305	1	3
478.645	1	12
478.986	1	0
479.327	1	-4
479.667	1	-4
480.008	1	10
480.349	1	-7
480.690	1	-4
481.030	1	-8
481.371	1	-7
481.712	1	-1
482.053	1	-7
482.393	1	-11
482.734	1	-3
483.075	1	-2
483.415	1	2
483.756	1	6
484.097	1	-3
484.437	1	-2
484.778	1	-1
485.119	1	-2
485.459	1	10
485.800	1	4
486.141	1	-4
486.481	1	-3
486.822	1	-8
487.163	1	2
487.503	1	-2
487.844	1	-4
488.185	1	0
488.525	1	-7
488.866	1	4
489.207	1	4
489.547	1	-1
489.888	1	-1
490.228	1	12
490.569	1	13
490.910	1	0
491.250	1	-10
491.591	1	-4
491.932	1	0
492.272	1	-2
492.613	1	2
492.953	1	-9
493.294	1	-5
493.635	1	-3
493.975	1	-3
494.316	1	9
494.656	1	-2
494.997	1	-9
495.337	1	3
495.678	1	6
496.019	1	-9
496.359	1	-2
496.700	1	-2
497.040	1	-12
497.381	1	-4
497.721	1	6
498.062	1	-2
498.403	1	6
498.743	1	0
499.084	1	-1
499.424	1	9
499.765	1	1
500.105	1	-4
500.446	1	-14
500.786	1	2
501.127	1	2
501.467	1	-6
501.808	1	2
502.148	1	3
502.489	1	2
502.829	1	-1
503.170	1	8
503.510	1	1
503.851	1	-5
504.191	1	3
504.532	1	5
504.872	1	1
505.213	1	6
505.553	1	-8
505.894	1	-6
506.234	1	12
506.575	1	6
506.915	1	5
507.256	1	1
507.596	1	-5
507.936	1	1
508.277	1	-9
508.617	1	-5
508.958	1	-4
509.298	1	-4
509.639	1	-7
509.979	1	-1
510.319	1	8
510.660	1	-5
511.000	1	-10
511.341	1	9
511.681	1	3
512.022	1	-4
512.362	1	-4
512.702	1	-3
513.043	1	4
513.383	1	-10
513.724	1	4
514.064	1	15
514.404	1	-8
514.745	1	-13
515.085	1	-6
515.425	1	-4
515.766	1	-9
516.106	1	3
516.447	1	4
516.787	1	4
517.127	1	-2
517.468	1	-1
517.808	1	1
518.148	1	2
518.489	1	-6
518.829	1	4
519.169	1	-1
519.510	1	3
519.850	1	4
520.190	1	-3
520.531	1	7
520.871	1	3
521.211	1	-11
521.552	1	9
521.892	1	5
522.232	1	0
522.573	1	2
522.913	1	-6
523.253	1	6
523.593	1	-6
523.934	1	-10
524.274	1	-6
524.614	1	0
524.955	1	0
525.295	1	-5
525.635	1	-1
525.975	1	-3
526.316	1	8
526.656	1	1
526.996	1	5
527.337	1	-2
527.677	1	4
528.017	1	-4
528.357	1	0
528.698	1	6
529.038	1	0
529.378	1	5
529.718	1	5
530.058	1	4
530.399	1	9
530.739	1	-3
531.079	1	4
531.419	1	0
531.760	1	4
532.100	1	-6
532.440	1	-3
532.780	1	-9
533.120	1	-2
533.461	1	-1
533.801	1	12
534.141	1	-12
534.481	1	-9
534.821	1	-2
535.162	1	-3
535.502	1	-6
535.842	1	1
536.182	1	5
536.522	1	-2
536.862	1	3
537.203	1	-4
537.543	1	-8
537.883	1	-6
538.223	1	-4
538.563	1	1
538.903	1	-8
539.243	1	-2
539.584	1	-2
539.924	1	16
540.264	1	-5
540.604	1	8
540.944	1	-6
541.284	1	4
541.624	1	-1
541.964	1	0
542.305	1	3
542.645	1	4
542.985	1	2
543.325	1	8
543.665	1	1
544.005	1	-2
544.345	1	9
544.685	1	-9
545.025	1	1
545.365	1	-4
545.705	1	-2
546.045	1	1
546.386	1	3
546.726	1	-14
547.066	1	-9
547.406	1	4
547.746	1	-7
548.086	1	-2
548.426	1	-7
548.766	1	2
549.106	1	-1
549.446	1	7
549.786	1	-9
550.126	1	5
550.466	1	9
550.806	1	0
551.146	1	1
551.486	1	-5
551.826	1	3
552.166	1	-5
552.506	1	9
552.846	1	-1
553.186	1	7
553.526	1	0
553.866	1	6
554.206	1	7
554.546	1	2
554.886	1	-2
555.226	1	-8
555.566	1	9
555.906	1	-2
556.246	1	-2
556.586	1	3
556.926	1	4
557.266	1	-9
557.606	1	3
557.946	1	11
558.286	1	-6
558.626	1	2
558.966	1	-6
559.306	1	2
559.646	1	-6
559.986	1	-8
560.325	1	-4
560.665	1	-4
561.005	1	-8
561.345	1	-1
561.685	1	4
562.025	1	-1
562.365	1	2
562.705	1	-12
563.045	1	2
563.385	1	-9
563.725	1	9
564.064	1	-10
564.404	1	2
564.744	1	0
565.084	1	-3
565.424	1	3
565.764	1	-1
566.104	1	-1
566.444	1	-9
566.783	1	-4
567.123	1	8
567.463	1	4
567.803	1	-14
568.143	1	1
568.483	1	5
568.823	1	1
569.162	1	11
569.502	1	-13
569.842	1	-10
570.182	1	-3
570.522	1	-12
570.862	1	-3
571.201	1	10
571.541	1	1
571.881	1	8
572.221	1	-9
572.561	1	-4
572.900	1	-10
573.240	1	4
573.580	1	7
573.920	1	6
574.260	1	11
574.599	1	4
574.939	1	2
575.279	1	6
575.619	1	4
575.959	1	-10
576.298	1	-1
576.638	1	-9
576.978	1	-2
577.318	1	-1
577.657	1	-5
577.997	1	-7
578.337	1	2
578.677	1	0
579.016	1	4
579.356	1	-8
579.696	1	-1
580.036	1	-5
580.375	1	4
580.715	1	-7
581.055	1	-8
581.394	1	0
581.734	1	-6
582.074	1	-3
582.414	1	5
582.753	1	-9
583.093	1	-7
583.433	1	-4
583.772	1	-2
584.112	1	-4
584.452	1	5
584.791	1	-5
585.131	1	5
585.471	1	8
585.811	1	13
586.150	1	4
586.490	1	5
586.830	1	2
587.169	1	1
587.509	1	-2
587.849	1	-5
588.188	1	10
588.528	1	-2
588.867	1	5
589.207	1	-4
589.547	1	-4
589.886	1	-10
590.226	1	10
590.566	1	-3
590.905	1	-8
591.245	1	-3
591.585	1	5
591.924	1	3
592.264	1	5
592.603	1	1
592.943	1	-7
593.283	1	-4
593.622	1	-4
593.962	1	-5
594.301	1	6
594.641	1	0
594.981	1	-10
595.320	1	7
595.660	1	1
595.999	1	-14
596.339	1	13
596.678	1	-1
597.018	1	-3
597.358	1	11
597.697	1	6
598.037	1	-1
598.376	1	-3
598.716	1	3
599.055	1	-3
599.395	1	-8
599.734	1	5
600.074	1	-3
600.413	1	12
600.753	1	2
601.092	1	6
601.432	1	-8
601.771	1	0
602.111	1	-4
602.451	1	0
602.790	1	2
603.130	1	8
603.469	1	-15
603.809	1	-3
604.148	1	-4
604.487	1	-4
604.827	1	-2
605.166	1	16
605.506	1	0
605.845	1	-7
606.185	1	5
606.524	1	-5
606.864	1	0
607.203	1	-1
607.543	1	-2
607.882	1	-6
608.222	1	2
608.561	1	6
608.901	1	0
609.240	1	-2
609.579	1	4
609.919	1	14
610.258	1	4
610.598	1	-6
610.937	1	4
611.277	1	-3
611.616	1	0
611.955	1	7
612.295	1	-3
612.634	1	-7
612.974	1	-4
613.313	1	-1
613.652	1	11
613.992	1	-8
614.331	1	-3
614.671	1	9
615.010	1	-7
615.349	1	4
615.689	1	10
616.028	1	2
616.368	1	-4
616.707	1	-4
617.046	1	0
617.386	1	1
617.725	1	0
618.064	1	-4
618.404	1	-6
618.743	1	2
619.082	1	-4
619.422	1	-4
619.761	1	1
620.100	1	6
620.440	1	6
620.779	1	-11
621.118	1	4
621.458	1	0
621.797	1	-7
622.136	1	5
622.476	1	5
622.815	1	7
623.154	1	4
623.494	1	1
623.833	1	0
624.172	1	1
624.511	1	-4
624.851	1	-13
625.190	1	-2
625.529	1	1
625.869	1	5
626.208	1	-6
626.547	1	7
626.886	1	9
627.226	1	-8
627.565	1	6
627.904	1	0
628.243	1	3
628.583	1	-2
628.922	1	-3
629.261	1	0
629.600	1	7
629.940	1	10
630.279	1	-8
630.618	1	1
630.957	1	0
631.297	1	1
631.636	1	-7
631.975	1	16
632.314	1	-4
632.653	1	1
632.993	1	-8
633.332	1	2
633.671	1	-4
634.010	1	-9
634.349	1	7
634.689	1	4
635.028	1	11
635.367	1	6
635.706	1	3
636.045	1	10
636.384	1	1
636.724	1	-8
637.063	1	1
637.402	1	-1
637.741	1	3
638.080	1	-8
638.419	1	-10
638.759	1	-11
639.098	1	3
639.437	1	-4
639.776	1	-5
640.115	1	2
640.454	1	1
640.793	1	9
641.132	1	8
641.472	1	5
641.811	1	-2
642.150	1	-12
642.489	1	10
642.828	1	-8
643.167	1	-11
643.506	1	-10
643.845	1	-7
644.184	1	-6
644.524	1	-7
644.863	1	-8
645.202	1	1
645.541	1	1
645.880	1	-2
646.219	1	-4
646.558	1	9
646.897	1	3
647.236	1	6
647.575	1	9
647.914	1	3
648.253	1	15
648.592	1	-1
648.931	1	8
649.270	1	-11
649.610	1	-6
649.949	1	-2
650.288	1	8
650.627	1	0
650.966	1	1
651.305	1	1
651.644	1	6
651.983	1	3
652.322	1	-9
652.661	1	0
653.000	1	-5
653.339	1	2
653.678	1	1
654.017	1	-4
654.356	1	-10
654.695	1	4
655.034	1	-1
655.373	1	10
655.712	1	0
656.051	1	-8
656.390	1	-8
656.729	1	5
657.068	1	-7
657.406	1	8
657.745	1	-8
658.084	1	2
658.423	1	8
658.762	1	-10
659.101	1	9
659.440	1	-5
659.779	1	-3
660.118	1	0
660.457	1	2
660.796	1	-11
661.135	1	0
661.474	1	-4
661.813	1	20
662.152	1	1
662.491	1	-3
662.829	1	-3
663.168	1	-6
663.507	1	-1
663.846	1	-11
664.185	1	2
664.524	1	6
664.863	1	1
665.202	1	-4
665.541	1	-5
665.879	1	-8
666.218	1	-4
666.557	1	-4
666.896	1	-7
667.235	1	-6
667.574	1	2
667.913	1	6
668.251	1	-10
668.590	1	-9
668.929	1	-9
669.268	1	3
669.607	1	-11
669.946	1	-7
670.285	1	4
670.623	1	1
670.962	1	-1
671.301	1	-2
671.640	1	4
671.979	1	-13
672.317	1	0
672.656	1	3
672.995	1	8
673.334	1	-4
673.673	1	-3
674.011	1	6
674.350	1	-2
674.689	1	2
675.028	1	-11
675.367	1	-1
675.705	1	-3
676.044	1	1
676.383	1	-1
676.722	1	3
677.060	1	-3
677.399	1	-3
677.738	1	-1
678.077	1	2
678.416	1	12
678.754	1	-6
679.093	1	4
679.432	1	-1
679.771	1	-3
680.109	1	7
680.448	1	1
680.787	1	-3
681.125	1	2
681.464	1	1
681.803	1	-11
682.142	1	7
682.480	1	5
682.819	1	-1
683.158	1	-2
683.496	1	10
683.835	1	1
684.174	1	4
684.512	1	5
684.851	1	10
685.190	1	-3
685.529	1	-3
685.867	1	-10
686.206	1	-6
686.545	1	-6
686.883	1	-3
687.222	1	2
687.561	1	7
687.899	1	3
688.238	1	5
688.577	1	-4
688.746	1	3