File: Data/GaN_200K_800ms/GaN_sample F_spot 12_UVVIS_200 K_200um_800 ms 2x2mm1_197.txt
340.368	1	8
340.710	1	-13
341.052	1	2
341.394	1	0
341.737	1	1
342.079	1	-2
342.421	1	1
342.763	1	5
343.105	1	-2
343.447	1	-8
343.789	1	-2
344.131	1	-3
344.473	1	-4
344.815	1	-1
345.157	1	-5
345.499	1	-2
345.841	1	4
346.183	1	-6
346.526	1	-2
346.868	1	3
347.210	1	-7
347.552	1	-2
347.894	1	-1
348.236	1	8
348.578	1	1
348.920	1	-2
349.262	1	6
349.604	1	-8
349.946	1	0
350.288	1	7
350.630	1	4
350.972	1	0
351.314	1	1
351.656	1	3
351.998	1	4
352.340	1	1
352.682	1	14
353.024	1	5
353.366	1	14
353.708	1	10
354.050	1	-3
354.392	1	-3
354.734	1	11
355.076	1	-1
355.418	1	-6
355.760	1	4
356.102	1	12
356.444	1	1
356.785	1	9
357.127	1	0
357.469	1	10
357.811	1	8
358.153	1	13
358.495	1	3
358.837	1	-1
359.179	1	3
359.521	1	4
359.863	1	0
360.205	1	-6
360.547	1	13
360.889	1	6
361.231	1	-3
361.572	1	4
361.914	1	10
362.256	1	18
362.598	1	4
362.940	1	8
363.282	1	10
363.624	1	22
363.966	1	4
364.308	1	11
364.649	1	19
364.991	1	16
365.333	1	18
365.675	1	17
366.017	1	24
366.359	1	19
366.701	1	21
367.042	1	26
367.384	1	22
367.726	1	26
368.068	1	39
368.410	1	43
368.752	1	31
369.093	1	28
369.435	1	35
369.777	1	33
370.119	1	38
370.461	1	47
370.803	1	42
371.144	1	24
371.486	1	27
371.828	1	37
372.170	1	32
372.512	1	28
372.853	1	20
373.195	1	28
373.537	1	26
373.879	1	32
374.220	1	28
374.562	1	34
374.904	1	18
375.246	1	17
375.588	1	20
375.929	1	25
376.271	1	27
376.613	1	14
376.955	1	5
377.296	1	10
377.638	1	17
377.980	1	14
378.321	1	5
378.663	1	2
379.005	1	17
379.347	1	8
379.688	1	13
380.030	1	17
380.372	1	16
380.714	1	10
381.055	1	22
381.397	1	14
381.739	1	16
382.080	1	21
382.422	1	15
382.764	1	8
383.105	1	2
383.447	1	10
383.789	1	1
384.130	1	-2
384.472	1	3
384.814	1	12
385.156	1	1
385.497	1	13
385.839	1	6
386.180	1	9
386.522	1	5
386.864	1	14
387.205	1	6
387.547	1	9
387.889	1	4
388.230	1	5
388.572	1	1
388.914	1	5
389.255	1	-2
389.597	1	4
389.939	1	9
390.280	1	3
390.622	1	4
390.963	1	5
391.305	1	6
391.647	1	4
391.988	1	10
392.330	1	11
392.671	1	-5
393.013	1	-4
393.355	1	8
393.696	1	14
394.038	1	-1
394.379	1	1
394.721	1	-2
395.062	1	4
395.404	1	2
395.746	1	11
396.087	1	-7
396.429	1	1
396.770	1	-5
397.112	1	2
397.453	1	4
397.795	1	2
398.136	1	-3
398.478	1	6
398.819	1	8
399.161	1	13
399.503	1	0
399.844	1	4
400.186	1	2
400.527	1	-8
400.869	1	0
401.210	1	9
401.552	1	-4
401.893	1	8
402.235	1	-3
402.576	1	2
402.918	1	6
403.259	1	12
403.601	1	4
403.942	1	12
404.284	1	6
404.625	1	-3
404.967	1	6
405.308	1	4
405.649	1	1
405.991	1	-5
406.332	1	0
406.674	1	2
407.015	1	10
407.357	1	-5
407.698	1	14
408.040	1	2
408.381	1	3
408.722	1	-11
409.064	1	-3
409.405	1	8
409.747	1	9
410.088	1	1
410.430	1	6
410.771	1	5
411.112	1	1
411.454	1	7
411.795	1	-5
412.137	1	7
412.478	1	10
412.819	1	-7
413.161	1	-2
413.502	1	8
413.844	1	6
414.185	1	2
414.526	1	-5
414.868	1	8
415.209	1	-2
415.550	1	-7
415.892	1	2
416.233	1	6
416.575	1	5
416.916	1	1
417.257	1	0
417.599	1	0
417.940	1	9
418.281	1	4
418.623	1	-4
418.964	1	-10
419.305	1	3
419.647	1	-5
419.988	1	2
420.329	1	-7
420.671	1	6
421.012	1	-1
421.353	1	-2
421.695	1	-7
422.036	1	4
422.377	1	-7
422.718	1	4
423.060	1	-6
423.401	1	-2
423.742	1	2
424.084	1	-2
424.425	1	1
424.766	1	-3
425.107	1	-1
425.449	1	5
425.790	1	-11
426.131	1	-10
426.472	1	5
426.814	1	1
427.155	1	-7
427.496	1	-2
427.837	1	-5
428.179	1	-10
428.520	1	2
428.861	1	-7
429.202	1	6
429.544	1	-2
429.885	1	10
430.226	1	-4
430.567	1	0
430.909	1	3
431.250	1	-5
431.591	1	10
431.932	1	-6
432.273	1	-3
432.615	1	-9
432.956	1	-7
433.297	1	-3
433.638	1	2
433.979	1	5
434.320	1	5
434.662	1	-5
435.003	1	8
435.344	1	-2
435.685	1	2
436.026	1	1
436.368	1	6
436.709	1	-2
437.050	1	4
437.391	1	7
437.732	1	-5
438.073	1	2
438.414	1	-10
438.756	1	-7
439.097	1	-4
439.438	1	1
439.779	1	7
440.120	1	-2
440.461	1	2
440.802	1	-8
441.143	1	15
441.485	1	0
441.826	1	-1
442.167	1	0
442.508	1	-15
442.849	1	7
443.190	1	6
443.531	1	14
443.872	1	3
444.213	1	1
444.554	1	12
444.895	1	2
445.237	1	-7
445.578	1	-3
445.919	1	-4
446.260	1	-8
446.601	1	-1
446.942	1	-4
447.283	1	-1
447.624	1	0
447.965	1	5
448.306	1	11
448.647	1	-1
448.988	1	11
449.329	1	-3
449.670	1	16
450.011	1	6
450.352	1	-1
450.693	1	-13
451.034	1	2
451.375	1	7
451.716	1	-1
452.057	1	3
452.398	1	1
452.739	1	4
453.080	1	0
453.421	1	-3
453.762	1	2
454.103	1	-6
454.444	1	-17
454.785	1	6
455.126	1	1
455.467	1	4
455.808	1	-1
456.149	1	4
456.490	1	0
456.831	1	8
457.172	1	-10
457.513	1	9
457.854	1	3
458.195	1	-3
458.536	1	6
458.877	1	3
459.218	1	2
459.559	1	7
459.899	1	1
460.240	1	3
460.581	1	10
460.922	1	2
461.263	1	-3
461.604	1	0
461.945	1	4
462.286	1	5
462.627	1	9
462.968	1	-4
463.309	1	-1
463.649	1	-2
463.990	1	-5
464.331	1	5
464.672	1	2
465.013	1	-7
465.354	1	8
465.695	1	0
466.036	1	-4
466.376	1	-10
466.717	1	1
467.058	1	-7
467.399	1	9
467.740	1	7
468.081	1	5
468.422	1	0
468.762	1	-8
469.103	1	-7
469.444	1	-9
469.785	1	-17
470.126	1	2
470.467	1	-1
470.807	1	1
471.148	1	-3
471.489	1	-2
471.830	1	3
472.171	1	7
472.511	1	-11
472.852	1	-5
473.193	1	3
473.534	1	5
473.875	1	5
474.215	1	8
474.556	1	5
474.897	1	3
475.238	1	0
475.578	1	-5
475.919	1	-1
476.260	1	-4
476.601	1	0
476.942	1	11
477.282	1	-3
477.623	1	0
477.964	1	-8
478.305	1	6
478.645	1	1
478.986	1	-6
479.327	1	-8
479.667	1	-2
480.008	1	-8
480.349	1	0
480.690	1	5
481.030	1	2
481.371	1	-1
481.712	1	4
482.053	1	7
482.393	1	-3
482.734	1	-7
483.075	1	-4
483.415	1	-5
483.756	1	7
484.097	1	0
484.437	1	-9
484.778	1	-1
485.119	1	-10
485.459	1	17
485.800	1	1
486.141	1	-3
486.481	1	4
486.822	1	8
487.163	1	12
487.503	1	-3
487.844	1	1
488.185	1	6
488.525	1	-3
488.866	1	4
489.207	1	1
489.547	1	6
489.888	1	-7
490.228	1	1
490.569	1	10
490.910	1	-1
491.250	1	4
491.591	1	-3
491.932	1	-5
492.272	1	4
492.613	1	2
492.953	1	0
493.294	1	-12
493.635	1	-5
493.975	1	-9
494.316	1	0
494.656	1	-6
494.997	1	-8
495.337	1	0
495.678	1	-4
496.019	1	3
496.359	1	-2
496.700	1	-7
497.040	1	2
497.381	1	-3
497.721	1	-6
498.062	1	5
498.403	1	8
498.743	1	-6
499.084	1	-4
499.424	1	-5
499.765	1	-2
500.105	1	2
500.446	1	-11
500.786	1	-8
501.127	1	-3
501.467	1	-2
501.808	1	4
502.148	1	5
502.489	1	-4
502.829	1	-3
503.170	1	8
503.510	1	9
503.851	1	1
504.191	1	13
504.532	1	10
504.872	1	1
505.213	1	-2
505.553	1	-6
505.894	1	-5
506.234	1	5
506.575	1	4
506.915	1	8
507.256	1	7
507.596	1	5
507.936	1	1
508.277	1	-5
508.617	1	7
508.958	1	-12
509.298	1	4
509.639	1	-3
509.979	1	5
510.319	1	6
510.660	1	-7
511.000	1	2
511.341	1	0
511.681	1	9
512.022	1	-11
512.362	1	-8
512.702	1	-1
513.043	1	9
513.383	1	-1
513.724	1	-5
514.064	1	11
514.404	1	-6
514.745	1	-4
515.085	1	3
515.425	1	-2
515.766	1	0
516.106	1	-3
516.447	1	19
516.787	1	-1
517.127	1	11
517.468	1	3
517.808	1	5
518.148	1	12
518.489	1	2
518.829	1	5
519.169	1	-6
519.510	1	3
519.850	1	8
520.190	1	1
520.531	1	-1
520.871	1	4
521.211	1	-10
521.552	1	1
521.892	1	4
522.232	1	2
522.573	1	5
522.913	1	4
523.253	1	3
523.593	1	6
523.934	1	1
524.274	1	2
524.614	1	2
524.955	1	-8
525.295	1	7
525.635	1	8
525.975	1	1
526.316	1	8
526.656	1	-7
526.996	1	12
527.337	1	1
527.677	1	7
528.017	1	-1
528.357	1	1
528.698	1	-1
529.038	1	0
529.378	1	3
529.718	1	3
530.058	1	8
530.399	1	1
530.739	1	5
531.079	1	1
531.419	1	6
531.760	1	-1
532.100	1	-3
532.440	1	2
532.780	1	1
533.120	1	9
533.461	1	-4
533.801	1	20
534.141	1	-9
534.481	1	-3
534.821	1	11
535.162	1	0
535.502	1	-3
535.842	1	10
536.182	1	3
536.522	1	-2
536.862	1	10
537.203	1	5
537.543	1	5
537.883	1	4
538.223	1	2
538.563	1	12
538.903	1	-12
539.243	1	-2
539.584	1	0
539.924	1	23
540.264	1	5
540.604	1	7
540.944	1	-11
541.284	1	8
541.624	1	10
541.964	1	8
542.305	1	9
542.645	1	-2
542.985	1	5
543.325	1	9
543.665	1	10
544.005	1	2
544.345	1	9
544.685	1	-4
545.025	1	5
545.365	1	-2
545.705	1	9
546.045	1	-2
546.386	1	7
546.726	1	-3
547.066	1	4
547.406	1	3
547.746	1	-9
548.086	1	0
548.426	1	2
548.766	1	-6
549.106	1	6
549.446	1	-4
549.786	1	9
550.126	1	16
550.466	1	9
550.806	1	-1
551.146	1	5
551.486	1	-3
551.826	1	5
552.166	1	10
552.506	1	11
552.846	1	5
553.186	1	1
553.526	1	1
553.866	1	1
554.206	1	9
554.546	1	7
554.886	1	4
555.226	1	-10
555.566	1	1
555.906	1	12
556.246	1	0
556.586	1	-2
556.926	1	3
557.266	1	0
557.606	1	3
557.946	1	8
558.286	1	5
558.626	1	6
558.966	1	-3
559.306	1	-1
559.646	1	10
559.986	1	0
560.325	1	-2
560.665	1	9
561.005	1	-3
561.345	1	0
561.685	1	4
562.025	1	1
562.365	1	4
562.705	1	-1
563.045	1	-3
563.385	1	-7
563.725	1	1
564.064	1	-11
564.404	1	6
564.744	1	2
565.084	1	2
565.424	1	5
565.764	1	-7
566.104	1	1
566.444	1	-10
566.783	1	0
567.123	1	2
567.463	1	7
567.803	1	5
568.143	1	5
568.483	1	3
568.823	1	7
569.162	1	8
569.502	1	3
569.842	1	13
570.182	1	6
570.522	1	-13
570.862	1	-10
571.201	1	7
571.541	1	9
571.881	1	9
572.221	1	-7
572.561	1	-4
572.900	1	0
573.240	1	4
573.580	1	4
573.920	1	11
574.260	1	7
574.599	1	-4
574.939	1	-3
575.279	1	-2
575.619	1	10
575.959	1	-4
576.298	1	11
576.638	1	-13
576.978	1	9
577.318	1	12
577.657	1	5
577.997	1	-5
578.337	1	10
578.677	1	6
579.016	1	12
579.356	1	-9
579.696	1	4
580.036	1	6
580.375	1	11
580.715	1	10
581.055	1	0
581.394	1	3
581.734	1	-7
582.074	1	-8
582.414	1	15
582.753	1	-7
583.093	1	3
583.433	1	0
583.772	1	14
584.112	1	-2
584.452	1	2
584.791	1	-2
585.131	1	2
585.471	1	10
585.811	1	16
586.150	1	-4
586.490	1	14
586.830	1	2
587.169	1	4
587.509	1	0
587.849	1	5
588.188	1	17
588.528	1	4
588.867	1	6
589.207	1	13
589.547	1	9
589.886	1	-9
590.226	1	1
590.566	1	-8
590.905	1	0
591.245	1	4
591.585	1	7
591.924	1	0
592.264	1	5
592.603	1	-3
592.943	1	-2
593.283	1	7
593.622	1	7
593.962	1	-3
594.301	1	2
594.641	1	-2
594.981	1	4
595.320	1	10
595.660	1	6
595.999	1	-9
596.339	1	7
596.678	1	-11
597.018	1	-4
597.358	1	-1
597.697	1	6
598.037	1	4
598.376	1	3
598.716	1	6
599.055	1	7
599.395	1	1
599.734	1	9
600.074	1	6
600.413	1	15
600.753	1	1
601.092	1	14
601.432	1	2
601.771	1	5
602.111	1	6
602.451	1	7
602.790	1	3
603.130	1	4
603.469	1	1
603.809	1	7
604.148	1	3
604.487	1	2
604.827	1	1
605.166	1	6
605.506	1	3
605.845	1	12
606.185	1	9
606.524	1	0
606.864	1	1
607.203	1	-8
607.543	1	3
607.882	1	5
608.222	1	-1
608.561	1	3
608.901	1	4
609.240	1	1
609.579	1	6
609.919	1	7
610.258	1	13
610.598	1	-4
610.937	1	2
611.277	1	-5
611.616	1	-1
611.955	1	6
612.295	1	-8
612.634	1	-3
612.974	1	-6
613.313	1	12
613.652	1	11
613.992	1	2
614.331	1	-2
614.671	1	0
615.010	1	-11
615.349	1	5
615.689	1	1
616.028	1	-12
616.368	1	-4
616.707	1	3
617.046	1	5
617.386	1	2
617.725	1	-1
618.064	1	-10
618.404	1	4
618.743	1	-1
619.082	1	8
619.422	1	-6
619.761	1	5
620.100	1	9
620.440	1	8
620.779	1	-5
621.118	1	-4
621.458	1	7
621.797	1	-5
622.136	1	11
622.476	1	-5
622.815	1	2
623.154	1	7
623.494	1	12
623.833	1	9
624.172	1	-1
624.511	1	6
624.851	1	-3
625.190	1	0
625.529	1	6
625.869	1	2
626.208	1	-1
626.547	1	1
626.886	1	5
627.226	1	1
627.565	1	-1
627.904	1	-1
628.243	1	5
628.583	1	-6
628.922	1	2
629.261	1	9
629.600	1	5
629.940	1	6
630.279	1	-2
630.618	1	-3
630.957	1	2
631.297	1	15
631.636	1	-6
631.975	1	6
632.314	1	-7
632.653	1	-2
632.993	1	-5
633.332	1	0
633.671	1	-14
634.010	1	1
634.349	1	13
634.689	1	7
635.028	1	6
635.367	1	4
635.706	1	-1
636.045	1	8
636.384	1	-3
636.724	1	-2
637.063	1	-8
637.402	1	-5
637.741	1	-6
638.080	1	4
638.419	1	4
638.759	1	-3
639.098	1	-4
639.437	1	7
639.776	1	1
640.115	1	4
640.454	1	-3
640.793	1	12
641.132	1	7
641.472	1	-3
641.811	1	6
642.150	1	-8
642.489	1	-2
642.828	1	-7
643.167	1	2
643.506	1	-4
643.845	1	1
644.184	1	0
644.524	1	4
644.863	1	-6
645.202	1	9
645.541	1	4
645.880	1	4
646.219	1	2
646.558	1	-3
646.897	1	8
647.236	1	6
647.575	1	7
647.914	1	-6
648.253	1	7
648.592	1	-2
648.931	1	4
649.270	1	4
649.610	1	1
649.949	1	2
650.288	1	7
650.627	1	2
650.966	1	-3
651.305	1	5
651.644	1	10
651.983	1	6
652.322	1	-12
652.661	1	8
653.000	1	0
653.339	1	18
653.678	1	0
654.017	1	4
654.356	1	4
654.695	1	2
655.034	1	2
655.373	1	4
655.712	1	-4
656.051	1	1
656.390	1	-5
656.729	1	12
657.068	1	4
657.406	1	8
657.745	1	-3
658.084	1	13
658.423	1	9
658.762	1	-3
659.101	1	11
659.440	1	-5
659.779	1	-5
660.118	1	1
660.457	1	-5
660.796	1	-11
661.135	1	-7
661.474	1	6
661.813	1	14
662.152	1	8
662.491	1	-5
662.829	1	-4
663.168	1	-3
663.507	1	17
663.846	1	-4
664.185	1	4
664.524	1	-3
664.863	1	-11
665.202	1	-4
665.541	1	-7
665.879	1	-2
666.218	1	-8
666.557	1	-10
666.896	1	-7
667.235	1	4
667.574	1	1
667.913	1	1
668.251	1	0
668.590	1	6
668.929	1	-14
669.268	1	3
669.607	1	6
669.946	1	-1
670.285	1	9
670.623	1	1
670.962	1	-6
671.301	1	-5
671.640	1	6
671.979	1	-9
672.317	1	2
672.656	1	0
672.995	1	4
673.334	1	3
673.673	1	8
674.011	1	2
674.350	1	11
674.689	1	7
675.028	1	-4
675.367	1	0
675.705	1	7
676.044	1	4
676.383	1	4
676.722	1	3
677.060	1	-4
677.399	1	-2
677.738	1	21
678.077	1	3
678.416	1	-1
678.754	1	-3
679.093	1	-3
679.432	1	-1
679.771	1	5
680.109	1	12
680.448	1	-3
680.787	1	-5
681.125	1	-1
681.464	1	3
681.803	1	0
682.142	1	10
682.480	1	11
682.819	1	10
683.158	1	5
683.496	1	2
683.835	1	-1
684.174	1	-1
684.512	1	6
684.851	1	-2
685.190	1	-3
685.529	1	0
685.867	1	2
686.206	1	-8
686.545	1	0
686.883	1	4
687.222	1	3
687.561	1	1
687.899	1	1
688.238	1	15
688.577	1	11
688.746	1	6