File: Data/GaN_200K_800ms/GaN_sample F_spot 12_UVVIS_200 K_200um_800 ms 2x2mm1_115.txt
340.368	1	9
340.710	1	-11
341.052	1	11
341.394	1	6
341.737	1	6
342.079	1	-2
342.421	1	-4
342.763	1	13
343.105	1	8
343.447	1	7
343.789	1	-5
344.131	1	4
344.473	1	2
344.815	1	6
345.157	1	-4
345.499	1	1
345.841	1	10
346.183	1	-1
346.526	1	-5
346.868	1	13
347.210	1	4
347.552	1	3
347.894	1	3
348.236	1	11
348.578	1	2
348.920	1	-8
349.262	1	-5
349.604	1	5
349.946	1	3
350.288	1	13
350.630	1	-1
350.972	1	-1
351.314	1	6
351.656	1	13
351.998	1	10
352.340	1	12
352.682	1	4
353.024	1	3
353.366	1	17
353.708	1	7
354.050	1	0
354.392	1	-9
354.734	1	5
355.076	1	8
355.418	1	-2
355.760	1	1
356.102	1	18
356.444	1	9
356.785	1	15
357.127	1	5
357.469	1	14
357.811	1	5
358.153	1	19
358.495	1	18
358.837	1	10
359.179	1	10
359.521	1	15
359.863	1	11
360.205	1	19
360.547	1	20
360.889	1	12
361.231	1	11
361.572	1	28
361.914	1	19
362.256	1	28
362.598	1	17
362.940	1	23
363.282	1	28
363.624	1	36
363.966	1	27
364.308	1	35
364.649	1	29
364.991	1	42
365.333	1	40
365.675	1	38
366.017	1	56
366.359	1	55
366.701	1	62
367.042	1	60
367.384	1	59
367.726	1	61
368.068	1	78
368.410	1	87
368.752	1	77
369.093	1	84
369.435	1	81
369.777	1	74
370.119	1	83
370.461	1	85
370.803	1	77
371.144	1	66
371.486	1	80
371.828	1	75
372.170	1	67
372.512	1	67
372.853	1	72
373.195	1	57
373.537	1	54
373.879	1	59
374.220	1	69
374.562	1	50
374.904	1	42
375.246	1	47
375.588	1	53
375.929	1	45
376.271	1	41
376.613	1	34
376.955	1	29
377.296	1	33
377.638	1	38
377.980	1	30
378.321	1	29
378.663	1	16
379.005	1	45
379.347	1	32
379.688	1	38
380.030	1	18
380.372	1	28
380.714	1	25
381.055	1	33
381.397	1	27
381.739	1	27
382.080	1	22
382.422	1	28
382.764	1	13
383.105	1	13
383.447	1	24
383.789	1	18
384.130	1	11
384.472	1	19
384.814	1	18
385.156	1	15
385.497	1	28
385.839	1	10
386.180	1	12
386.522	1	18
386.864	1	22
387.205	1	4
387.547	1	-1
387.889	1	0
388.230	1	14
388.572	1	2
388.914	1	15
389.255	1	4
389.597	1	11
389.939	1	7
390.280	1	13
390.622	1	14
390.963	1	18
391.305	1	14
391.647	1	12
391.988	1	20
392.330	1	13
392.671	1	12
393.013	1	12
393.355	1	15
393.696	1	7
394.038	1	13
394.379	1	7
394.721	1	-2
395.062	1	7
395.404	1	-8
395.746	1	11
396.087	1	3
396.429	1	2
396.770	1	1
397.112	1	15
397.453	1	10
397.795	1	-1
398.136	1	2
398.478	1	11
398.819	1	7
399.161	1	17
399.503	1	12
399.844	1	-3
400.186	1	-1
400.527	1	3
400.869	1	5
401.210	1	4
401.552	1	-2
401.893	1	1
402.235	1	10
402.576	1	2
402.918	1	11
403.259	1	14
403.601	1	0
403.942	1	9
404.284	1	9
404.625	1	5
404.967	1	1
405.308	1	1
405.649	1	4
405.991	1	1
406.332	1	13
406.674	1	8
407.015	1	10
407.357	1	-7
407.698	1	9
408.040	1	-6
408.381	1	6
408.722	1	-11
409.064	1	9
409.405	1	5
409.747	1	6
410.088	1	4
410.430	1	5
410.771	1	7
411.112	1	-4
411.454	1	4
411.795	1	7
412.137	1	3
412.478	1	10
412.819	1	2
413.161	1	-2
413.502	1	-4
413.844	1	5
414.185	1	6
414.526	1	2
414.868	1	11
415.209	1	-3
415.550	1	0
415.892	1	9
416.233	1	12
416.575	1	16
416.916	1	-5
417.257	1	0
417.599	1	-1
417.940	1	11
418.281	1	13
418.623	1	2
418.964	1	-8
419.305	1	9
419.647	1	-1
419.988	1	-2
420.329	1	-4
420.671	1	10
421.012	1	4
421.353	1	3
421.695	1	-5
422.036	1	1
422.377	1	1
422.718	1	5
423.060	1	-2
423.401	1	0
423.742	1	7
424.084	1	4
424.425	1	6
424.766	1	-3
425.107	1	2
425.449	1	2
425.790	1	-10
426.131	1	-3
426.472	1	4
426.814	1	8
427.155	1	4
427.496	1	10
427.837	1	-8
428.179	1	4
428.520	1	-2
428.861	1	1
429.202	1	6
429.544	1	7
429.885	1	-3
430.226	1	-8
430.567	1	-4
430.909	1	5
431.250	1	9
431.591	1	10
431.932	1	-4
432.273	1	-3
432.615	1	-8
432.956	1	-4
433.297	1	10
433.638	1	-1
433.979	1	7
434.320	1	7
434.662	1	5
435.003	1	7
435.344	1	-4
435.685	1	7
436.026	1	0
436.368	1	3
436.709	1	4
437.050	1	0
437.391	1	17
437.732	1	-9
438.073	1	5
438.414	1	-6
438.756	1	-6
439.097	1	-5
439.438	1	-7
439.779	1	11
440.120	1	2
440.461	1	5
440.802	1	-1
441.143	1	8
441.485	1	5
441.826	1	7
442.167	1	8
442.508	1	-6
442.849	1	2
443.190	1	-6
443.531	1	1
443.872	1	18
444.213	1	5
444.554	1	15
444.895	1	-3
445.237	1	-4
445.578	1	-7
445.919	1	-8
446.260	1	1
446.601	1	-2
446.942	1	1
447.283	1	-8
447.624	1	1
447.965	1	6
448.306	1	6
448.647	1	-5
448.988	1	3
449.329	1	7
449.670	1	11
450.011	1	13
450.352	1	-1
450.693	1	-9
451.034	1	0
451.375	1	4
451.716	1	-3
452.057	1	-1
452.398	1	0
452.739	1	0
453.080	1	2
453.421	1	-2
453.762	1	-2
454.103	1	2
454.444	1	-8
454.785	1	-9
455.126	1	-10
455.467	1	9
455.808	1	10
456.149	1	0
456.490	1	-2
456.831	1	8
457.172	1	-6
457.513	1	10
457.854	1	0
458.195	1	-11
458.536	1	7
458.877	1	2
459.218	1	3
459.559	1	4
459.899	1	10
460.240	1	4
460.581	1	14
460.922	1	5
461.263	1	-8
461.604	1	-8
461.945	1	8
462.286	1	5
462.627	1	7
462.968	1	5
463.309	1	-10
463.649	1	-5
463.990	1	-3
464.331	1	-6
464.672	1	1
465.013	1	2
465.354	1	-7
465.695	1	-2
466.036	1	3
466.376	1	-2
466.717	1	3
467.058	1	-5
467.399	1	8
467.740	1	10
468.081	1	7
468.422	1	-1
468.762	1	-10
469.103	1	-5
469.444	1	-14
469.785	1	-11
470.126	1	0
470.467	1	-2
470.807	1	3
471.148	1	1
471.489	1	-6
471.830	1	-2
472.171	1	12
472.511	1	-6
472.852	1	-2
473.193	1	11
473.534	1	12
473.875	1	14
474.215	1	13
474.556	1	1
474.897	1	3
475.238	1	1
475.578	1	6
475.919	1	-3
476.260	1	0
476.601	1	12
476.942	1	10
477.282	1	-1
477.623	1	-8
477.964	1	-2
478.305	1	-2
478.645	1	7
478.986	1	-4
479.327	1	-7
479.667	1	-4
480.008	1	-3
480.349	1	-7
480.690	1	5
481.030	1	-12
481.371	1	5
481.712	1	-5
482.053	1	5
482.393	1	0
482.734	1	5
483.075	1	4
483.415	1	-4
483.756	1	13
484.097	1	0
484.437	1	0
484.778	1	14
485.119	1	-3
485.459	1	15
485.800	1	-1
486.141	1	0
486.481	1	10
486.822	1	11
487.163	1	-3
487.503	1	6
487.844	1	5
488.185	1	6
488.525	1	6
488.866	1	6
489.207	1	5
489.547	1	10
489.888	1	3
490.228	1	4
490.569	1	15
490.910	1	3
491.250	1	-9
491.591	1	-1
491.932	1	-1
492.272	1	4
492.613	1	6
492.953	1	-4
493.294	1	7
493.635	1	9
493.975	1	4
494.316	1	5
494.656	1	2
494.997	1	2
495.337	1	12
495.678	1	5
496.019	1	-4
496.359	1	-1
496.700	1	7
497.040	1	0
497.381	1	4
497.721	1	-1
498.062	1	-1
498.403	1	0
498.743	1	3
499.084	1	-1
499.424	1	4
499.765	1	0
500.105	1	3
500.446	1	-10
500.786	1	-2
501.127	1	14
501.467	1	-2
501.808	1	7
502.148	1	4
502.489	1	7
502.829	1	8
503.170	1	11
503.510	1	2
503.851	1	4
504.191	1	8
504.532	1	0
504.872	1	1
505.213	1	17
505.553	1	2
505.894	1	-4
506.234	1	10
506.575	1	4
506.915	1	12
507.256	1	10
507.596	1	-7
507.936	1	11
508.277	1	2
508.617	1	7
508.958	1	0
509.298	1	7
509.639	1	-2
509.979	1	-9
510.319	1	11
510.660	1	3
511.000	1	1
511.341	1	-1
511.681	1	20
512.022	1	-5
512.362	1	3
512.702	1	4
513.043	1	17
513.383	1	1
513.724	1	6
514.064	1	9
514.404	1	13
514.745	1	2
515.085	1	2
515.425	1	-1
515.766	1	4
516.106	1	6
516.447	1	15
516.787	1	11
517.127	1	13
517.468	1	10
517.808	1	11
518.148	1	13
518.489	1	3
518.829	1	12
519.169	1	4
519.510	1	4
519.850	1	6
520.190	1	4
520.531	1	7
520.871	1	13
521.211	1	1
521.552	1	10
521.892	1	6
522.232	1	14
522.573	1	5
522.913	1	3
523.253	1	12
523.593	1	3
523.934	1	6
524.274	1	12
524.614	1	2
524.955	1	5
525.295	1	1
525.635	1	0
525.975	1	9
526.316	1	12
526.656	1	16
526.996	1	5
527.337	1	2
527.677	1	8
528.017	1	-5
528.357	1	4
528.698	1	7
529.038	1	22
529.378	1	8
529.718	1	14
530.058	1	2
530.399	1	11
530.739	1	3
531.079	1	20
531.419	1	4
531.760	1	13
532.100	1	10
532.440	1	8
532.780	1	0
533.120	1	10
533.461	1	2
533.801	1	27
534.141	1	-5
534.481	1	0
534.821	1	9
535.162	1	11
535.502	1	0
535.842	1	14
536.182	1	12
536.522	1	8
536.862	1	18
537.203	1	9
537.543	1	21
537.883	1	6
538.223	1	11
538.563	1	15
538.903	1	0
539.243	1	16
539.584	1	5
539.924	1	20
540.264	1	9
540.604	1	12
540.944	1	14
541.284	1	22
541.624	1	6
541.964	1	22
542.305	1	15
542.645	1	11
542.985	1	12
543.325	1	6
543.665	1	20
544.005	1	15
544.345	1	13
544.685	1	14
545.025	1	12
545.365	1	14
545.705	1	10
546.045	1	8
546.386	1	9
546.726	1	7
547.066	1	8
547.406	1	18
547.746	1	-1
548.086	1	2
548.426	1	-2
548.766	1	5
549.106	1	11
549.446	1	17
549.786	1	16
550.126	1	22
550.466	1	8
550.806	1	8
551.146	1	7
551.486	1	11
551.826	1	16
552.166	1	10
552.506	1	17
552.846	1	14
553.186	1	13
553.526	1	7
553.866	1	14
554.206	1	32
554.546	1	16
554.886	1	15
555.226	1	6
555.566	1	23
555.906	1	18
556.246	1	16
556.586	1	4
556.926	1	13
557.266	1	10
557.606	1	19
557.946	1	25
558.286	1	11
558.626	1	17
558.966	1	13
559.306	1	3
559.646	1	14
559.986	1	2
560.325	1	4
560.665	1	6
561.005	1	-3
561.345	1	9
561.685	1	10
562.025	1	4
562.365	1	10
562.705	1	10
563.045	1	4
563.385	1	-1
563.725	1	11
564.064	1	8
564.404	1	10
564.744	1	11
565.084	1	14
565.424	1	17
565.764	1	9
566.104	1	0
566.444	1	4
566.783	1	2
567.123	1	20
567.463	1	12
567.803	1	6
568.143	1	4
568.483	1	10
568.823	1	12
569.162	1	14
569.502	1	14
569.842	1	15
570.182	1	9
570.522	1	-4
570.862	1	11
571.201	1	19
571.541	1	16
571.881	1	24
572.221	1	1
572.561	1	12
572.900	1	-1
573.240	1	11
573.580	1	2
573.920	1	19
574.260	1	15
574.599	1	17
574.939	1	12
575.279	1	27
575.619	1	13
575.959	1	9
576.298	1	17
576.638	1	10
576.978	1	20
577.318	1	14
577.657	1	5
577.997	1	10
578.337	1	22
578.677	1	13
579.016	1	15
579.356	1	1
579.696	1	15
580.036	1	6
580.375	1	10
580.715	1	7
581.055	1	-1
581.394	1	0
581.734	1	8
582.074	1	9
582.414	1	19
582.753	1	18
583.093	1	7
583.433	1	12
583.772	1	18
584.112	1	6
584.452	1	16
584.791	1	6
585.131	1	14
585.471	1	19
585.811	1	17
586.150	1	13
586.490	1	21
586.830	1	6
587.169	1	18
587.509	1	8
587.849	1	10
588.188	1	13
588.528	1	11
588.867	1	10
589.207	1	14
589.547	1	12
589.886	1	2
590.226	1	10
590.566	1	2
590.905	1	13
591.245	1	14
591.585	1	11
591.924	1	7
592.264	1	14
592.603	1	10
592.943	1	6
593.283	1	8
593.622	1	6
593.962	1	9
594.301	1	9
594.641	1	4
594.981	1	2
595.320	1	15
595.660	1	15
595.999	1	1
596.339	1	13
596.678	1	5
597.018	1	3
597.358	1	8
597.697	1	14
598.037	1	9
598.376	1	10
598.716	1	14
599.055	1	6
599.395	1	6
599.734	1	13
600.074	1	6
600.413	1	7
600.753	1	7
601.092	1	22
601.432	1	3
601.771	1	11
602.111	1	12
602.451	1	15
602.790	1	5
603.130	1	9
603.469	1	10
603.809	1	11
604.148	1	12
604.487	1	19
604.827	1	19
605.166	1	24
605.506	1	20
605.845	1	9
606.185	1	21
606.524	1	8
606.864	1	6
607.203	1	8
607.543	1	8
607.882	1	12
608.222	1	9
608.561	1	10
608.901	1	12
609.240	1	6
609.579	1	10
609.919	1	19
610.258	1	9
610.598	1	4
610.937	1	4
611.277	1	10
611.616	1	2
611.955	1	0
612.295	1	9
612.634	1	10
612.974	1	-1
613.313	1	14
613.652	1	9
613.992	1	5
614.331	1	5
614.671	1	11
615.010	1	7
615.349	1	24
615.689	1	16
616.028	1	8
616.368	1	12
616.707	1	6
617.046	1	13
617.386	1	8
617.725	1	-1
618.064	1	-3
618.404	1	10
618.743	1	11
619.082	1	12
619.422	1	1
619.761	1	10
620.100	1	10
620.440	1	5
620.779	1	0
621.118	1	6
621.458	1	14
621.797	1	13
622.136	1	21
622.476	1	11
622.815	1	12
623.154	1	13
623.494	1	14
623.833	1	14
624.172	1	6
624.511	1	7
624.851	1	-9
625.190	1	7
625.529	1	12
625.869	1	7
626.208	1	7
626.547	1	11
626.886	1	13
627.226	1	8
627.565	1	5
627.904	1	-1
628.243	1	3
628.583	1	4
628.922	1	12
629.261	1	16
629.600	1	13
629.940	1	5
630.279	1	-1
630.618	1	1
630.957	1	7
631.297	1	5
631.636	1	-4
631.975	1	16
632.314	1	2
632.653	1	9
632.993	1	0
633.332	1	5
633.671	1	-2
634.010	1	1
634.349	1	17
634.689	1	3
635.028	1	7
635.367	1	6
635.706	1	12
636.045	1	13
636.384	1	-1
636.724	1	18
637.063	1	-1
637.402	1	13
637.741	1	8
638.080	1	13
638.419	1	0
638.759	1	3
639.098	1	12
639.437	1	4
639.776	1	-3
640.115	1	0
640.454	1	0
640.793	1	15
641.132	1	7
641.472	1	19
641.811	1	-2
642.150	1	-4
642.489	1	9
642.828	1	2
643.167	1	1
643.506	1	0
643.845	1	2
644.184	1	17
644.524	1	5
644.863	1	3
645.202	1	6
645.541	1	12
645.880	1	12
646.219	1	5
646.558	1	3
646.897	1	8
647.236	1	6
647.575	1	2
647.914	1	7
648.253	1	16
648.592	1	7
648.931	1	6
649.270	1	8
649.610	1	5
649.949	1	-2
650.288	1	0
650.627	1	0
650.966	1	11
651.305	1	5
651.644	1	9
651.983	1	10
652.322	1	-1
652.661	1	7
653.000	1	0
653.339	1	11
653.678	1	8
654.017	1	8
654.356	1	-4
654.695	1	14
655.034	1	18
655.373	1	12
655.712	1	3
656.051	1	10
656.390	1	-12
656.729	1	16
657.068	1	12
657.406	1	7
657.745	1	-1
658.084	1	5
658.423	1	12
658.762	1	5
659.101	1	12
659.440	1	9
659.779	1	5
660.118	1	8
660.457	1	4
660.796	1	2
661.135	1	-3
661.474	1	1
661.813	1	15
662.152	1	4
662.491	1	2
662.829	1	-7
663.168	1	2
663.507	1	20
663.846	1	2
664.185	1	10
664.524	1	3
664.863	1	3
665.202	1	14
665.541	1	-12
665.879	1	-6
666.218	1	5
666.557	1	5
666.896	1	-7
667.235	1	5
667.574	1	4
667.913	1	8
668.251	1	-4
668.590	1	4
668.929	1	-13
669.268	1	5
669.607	1	-4
669.946	1	7
670.285	1	8
670.623	1	10
670.962	1	3
671.301	1	4
671.640	1	14
671.979	1	-1
672.317	1	7
672.656	1	8
672.995	1	7
673.334	1	-7
673.673	1	13
674.011	1	8
674.350	1	7
674.689	1	5
675.028	1	0
675.367	1	10
675.705	1	8
676.044	1	3
676.383	1	2
676.722	1	12
677.060	1	3
677.399	1	4
677.738	1	3
678.077	1	8
678.416	1	9
678.754	1	1
679.093	1	19
679.432	1	1
679.771	1	5
680.109	1	15
680.448	1	4
680.787	1	5
681.125	1	8
681.464	1	5
681.803	1	0
682.142	1	13
682.480	1	12
682.819	1	11
683.158	1	6
683.496	1	10
683.835	1	8
684.174	1	7
684.512	1	15
684.851	1	4
685.190	1	2
685.529	1	-2
685.867	1	9
686.206	1	-3
686.545	1	-2
686.883	1	2
687.222	1	16
687.561	1	10
687.899	1	8
688.238	1	9
688.577	1	3
688.746	1	7