File: Data/GaN_200K_800ms/GaN_sample F_spot 12_UVVIS_200 K_200um_800 ms 2x2mm1_267.txt
340.368	1	-1
340.710	1	-11
341.052	1	4
341.394	1	-4
341.737	1	0
342.079	1	-9
342.421	1	-6
342.763	1	-1
343.105	1	8
343.447	1	-5
343.789	1	-1
344.131	1	-10
344.473	1	-6
344.815	1	-2
345.157	1	-6
345.499	1	6
345.841	1	4
346.183	1	-8
346.526	1	-1
346.868	1	10
347.210	1	-10
347.552	1	-2
347.894	1	5
348.236	1	9
348.578	1	-3
348.920	1	3
349.262	1	-7
349.604	1	-4
349.946	1	-12
350.288	1	10
350.630	1	4
350.972	1	3
351.314	1	7
351.656	1	9
351.998	1	3
352.340	1	3
352.682	1	9
353.024	1	0
353.366	1	8
353.708	1	-3
354.050	1	-8
354.392	1	-7
354.734	1	4
355.076	1	5
355.418	1	-14
355.760	1	-3
356.102	1	11
356.444	1	3
356.785	1	0
357.127	1	5
357.469	1	6
357.811	1	4
358.153	1	7
358.495	1	5
358.837	1	2
359.179	1	1
359.521	1	10
359.863	1	-4
360.205	1	4
360.547	1	1
360.889	1	7
361.231	1	-3
361.572	1	10
361.914	1	9
362.256	1	13
362.598	1	5
362.940	1	3
363.282	1	15
363.624	1	8
363.966	1	11
364.308	1	6
364.649	1	10
364.991	1	10
365.333	1	11
365.675	1	11
366.017	1	16
366.359	1	9
366.701	1	10
367.042	1	18
367.384	1	10
367.726	1	26
368.068	1	23
368.410	1	31
368.752	1	8
369.093	1	15
369.435	1	25
369.777	1	8
370.119	1	19
370.461	1	23
370.803	1	15
371.144	1	19
371.486	1	34
371.828	1	11
372.170	1	22
372.512	1	6
372.853	1	12
373.195	1	16
373.537	1	15
373.879	1	5
374.220	1	16
374.562	1	15
374.904	1	13
375.246	1	16
375.588	1	14
375.929	1	11
376.271	1	14
376.613	1	4
376.955	1	2
377.296	1	7
377.638	1	15
377.980	1	8
378.321	1	0
378.663	1	0
379.005	1	12
379.347	1	4
379.688	1	14
380.030	1	-4
380.372	1	14
380.714	1	14
381.055	1	10
381.397	1	5
381.739	1	11
382.080	1	10
382.422	1	13
382.764	1	6
383.105	1	-5
383.447	1	0
383.789	1	10
384.130	1	6
384.472	1	-2
384.814	1	1
385.156	1	-5
385.497	1	5
385.839	1	1
386.180	1	4
386.522	1	11
386.864	1	7
387.205	1	1
387.547	1	1
387.889	1	2
388.230	1	19
388.572	1	-2
388.914	1	0
389.255	1	1
389.597	1	6
389.939	1	5
390.280	1	-2
390.622	1	0
390.963	1	12
391.305	1	7
391.647	1	6
391.988	1	11
392.330	1	4
392.671	1	3
393.013	1	0
393.355	1	6
393.696	1	4
394.038	1	4
394.379	1	1
394.721	1	4
395.062	1	2
395.404	1	-1
395.746	1	6
396.087	1	-4
396.429	1	4
396.770	1	-8
397.112	1	10
397.453	1	15
397.795	1	1
398.136	1	-6
398.478	1	1
398.819	1	-2
399.161	1	4
399.503	1	4
399.844	1	3
400.186	1	5
400.527	1	-1
400.869	1	-1
401.210	1	-1
401.552	1	-7
401.893	1	4
402.235	1	-1
402.576	1	-2
402.918	1	4
403.259	1	-3
403.601	1	-7
403.942	1	8
404.284	1	4
404.625	1	8
404.967	1	7
405.308	1	8
405.649	1	9
405.991	1	-9
406.332	1	-1
406.674	1	-7
407.015	1	6
407.357	1	-1
407.698	1	1
408.040	1	-7
408.381	1	-1
408.722	1	-13
409.064	1	1
409.405	1	9
409.747	1	-1
410.088	1	-2
410.430	1	11
410.771	1	5
411.112	1	0
411.454	1	1
411.795	1	-7
412.137	1	3
412.478	1	7
412.819	1	2
413.161	1	-8
413.502	1	3
413.844	1	2
414.185	1	6
414.526	1	-5
414.868	1	1
415.209	1	-3
415.550	1	-9
415.892	1	7
416.233	1	4
416.575	1	15
416.916	1	-9
417.257	1	2
417.599	1	8
417.940	1	11
418.281	1	-4
418.623	1	-7
418.964	1	-8
419.305	1	7
419.647	1	-3
419.988	1	0
420.329	1	-10
420.671	1	-2
421.012	1	6
421.353	1	-4
421.695	1	-8
422.036	1	-4
422.377	1	1
422.718	1	8
423.060	1	-8
423.401	1	-7
423.742	1	3
424.084	1	5
424.425	1	3
424.766	1	0
425.107	1	2
425.449	1	-2
425.790	1	-6
426.131	1	-5
426.472	1	-4
426.814	1	0
427.155	1	-1
427.496	1	-6
427.837	1	4
428.179	1	-11
428.520	1	3
428.861	1	-6
429.202	1	9
429.544	1	-8
429.885	1	7
430.226	1	-5
430.567	1	2
430.909	1	-1
431.250	1	-5
431.591	1	10
431.932	1	-1
432.273	1	-12
432.615	1	-13
432.956	1	-8
433.297	1	0
433.638	1	0
433.979	1	1
434.320	1	5
434.662	1	-6
435.003	1	2
435.344	1	4
435.685	1	0
436.026	1	-2
436.368	1	6
436.709	1	4
437.050	1	-4
437.391	1	6
437.732	1	-12
438.073	1	0
438.414	1	-1
438.756	1	-3
439.097	1	-5
439.438	1	-4
439.779	1	5
440.120	1	-2
440.461	1	3
440.802	1	-5
441.143	1	-5
441.485	1	3
441.826	1	-4
442.167	1	2
442.508	1	3
442.849	1	8
443.190	1	-6
443.531	1	1
443.872	1	5
444.213	1	6
444.554	1	7
444.895	1	-3
445.237	1	-9
445.578	1	-9
445.919	1	-3
446.260	1	-3
446.601	1	-3
446.942	1	-1
447.283	1	-8
447.624	1	1
447.965	1	-7
448.306	1	8
448.647	1	-6
448.988	1	-13
449.329	1	2
449.670	1	12
450.011	1	11
450.352	1	4
450.693	1	-12
451.034	1	-3
451.375	1	-5
451.716	1	0
452.057	1	3
452.398	1	0
452.739	1	-1
453.080	1	-2
453.421	1	-3
453.762	1	0
454.103	1	4
454.444	1	-10
454.785	1	4
455.126	1	-4
455.467	1	-1
455.808	1	2
456.149	1	2
456.490	1	1
456.831	1	11
457.172	1	-6
457.513	1	5
457.854	1	-3
458.195	1	-1
458.536	1	11
458.877	1	-2
459.218	1	4
459.559	1	9
459.899	1	7
460.240	1	5
460.581	1	8
460.922	1	6
461.263	1	-7
461.604	1	-4
461.945	1	-1
462.286	1	0
462.627	1	8
462.968	1	1
463.309	1	-2
463.649	1	0
463.990	1	-5
464.331	1	-3
464.672	1	-2
465.013	1	-8
465.354	1	-7
465.695	1	0
466.036	1	1
466.376	1	-1
466.717	1	3
467.058	1	-1
467.399	1	14
467.740	1	6
468.081	1	0
468.422	1	0
468.762	1	-3
469.103	1	-4
469.444	1	2
469.785	1	-14
470.126	1	-7
470.467	1	-3
470.807	1	-6
471.148	1	9
471.489	1	-8
471.830	1	-8
472.171	1	-4
472.511	1	-6
472.852	1	5
473.193	1	6
473.534	1	6
473.875	1	13
474.215	1	3
474.556	1	4
474.897	1	5
475.238	1	-3
475.578	1	-5
475.919	1	-6
476.260	1	-7
476.601	1	-4
476.942	1	5
477.282	1	0
477.623	1	-15
477.964	1	2
478.305	1	-4
478.645	1	12
478.986	1	1
479.327	1	-6
479.667	1	-1
480.008	1	-9
480.349	1	-6
480.690	1	1
481.030	1	-5
481.371	1	-4
481.712	1	9
482.053	1	4
482.393	1	-4
482.734	1	-9
483.075	1	-3
483.415	1	-1
483.756	1	8
484.097	1	-5
484.437	1	-6
484.778	1	10
485.119	1	-10
485.459	1	7
485.800	1	-11
486.141	1	-3
486.481	1	-5
486.822	1	2
487.163	1	0
487.503	1	-4
487.844	1	3
488.185	1	3
488.525	1	-2
488.866	1	2
489.207	1	-3
489.547	1	-3
489.888	1	-6
490.228	1	3
490.569	1	4
490.910	1	1
491.250	1	-3
491.591	1	-8
491.932	1	5
492.272	1	9
492.613	1	4
492.953	1	-5
493.294	1	-10
493.635	1	-1
493.975	1	-3
494.316	1	0
494.656	1	-2
494.997	1	-3
495.337	1	14
495.678	1	4
496.019	1	-1
496.359	1	1
496.700	1	2
497.040	1	-7
497.381	1	-7
497.721	1	-5
498.062	1	11
498.403	1	5
498.743	1	4
499.084	1	-6
499.424	1	5
499.765	1	-2
500.105	1	-5
500.446	1	-8
500.786	1	-9
501.127	1	3
501.467	1	-4
501.808	1	10
502.148	1	1
502.489	1	-2
502.829	1	2
503.170	1	-2
503.510	1	7
503.851	1	0
504.191	1	12
504.532	1	4
504.872	1	3
505.213	1	10
505.553	1	0
505.894	1	-10
506.234	1	4
506.575	1	9
506.915	1	8
507.256	1	2
507.596	1	0
507.936	1	6
508.277	1	1
508.617	1	-2
508.958	1	-5
509.298	1	6
509.639	1	-4
509.979	1	6
510.319	1	7
510.660	1	-6
511.000	1	-9
511.341	1	-2
511.681	1	-3
512.022	1	-8
512.362	1	-8
512.702	1	-4
513.043	1	11
513.383	1	-11
513.724	1	4
514.064	1	12
514.404	1	3
514.745	1	7
515.085	1	2
515.425	1	-5
515.766	1	-9
516.106	1	-4
516.447	1	9
516.787	1	6
517.127	1	-1
517.468	1	0
517.808	1	6
518.148	1	8
518.489	1	-2
518.829	1	6
519.169	1	-2
519.510	1	-3
519.850	1	1
520.190	1	-10
520.531	1	2
520.871	1	-1
521.211	1	-9
521.552	1	7
521.892	1	9
522.232	1	5
522.573	1	2
522.913	1	1
523.253	1	3
523.593	1	-9
523.934	1	2
524.274	1	-6
524.614	1	1
524.955	1	-2
525.295	1	8
525.635	1	-1
525.975	1	2
526.316	1	10
526.656	1	-5
526.996	1	6
527.337	1	-7
527.677	1	10
528.017	1	-14
528.357	1	4
528.698	1	8
529.038	1	0
529.378	1	5
529.718	1	4
530.058	1	0
530.399	1	0
530.739	1	6
531.079	1	10
531.419	1	8
531.760	1	5
532.100	1	1
532.440	1	4
532.780	1	7
533.120	1	14
533.461	1	-1
533.801	1	18
534.141	1	-17
534.481	1	-7
534.821	1	3
535.162	1	-3
535.502	1	2
535.842	1	1
536.182	1	4
536.522	1	0
536.862	1	17
537.203	1	-8
537.543	1	-8
537.883	1	-3
538.223	1	-8
538.563	1	15
538.903	1	-12
539.243	1	-4
539.584	1	2
539.924	1	5
540.264	1	-6
540.604	1	-8
540.944	1	-3
541.284	1	9
541.624	1	4
541.964	1	10
542.305	1	1
542.645	1	0
542.985	1	4
543.325	1	8
543.665	1	9
544.005	1	8
544.345	1	2
544.685	1	-3
545.025	1	0
545.365	1	-4
545.705	1	3
546.045	1	-6
546.386	1	8
546.726	1	-11
547.066	1	5
547.406	1	-5
547.746	1	-6
548.086	1	10
548.426	1	-3
548.766	1	1
549.106	1	1
549.446	1	1
549.786	1	-6
550.126	1	12
550.466	1	0
550.806	1	-3
551.146	1	2
551.486	1	5
551.826	1	10
552.166	1	6
552.506	1	11
552.846	1	2
553.186	1	11
553.526	1	-1
553.866	1	2
554.206	1	7
554.546	1	4
554.886	1	8
555.226	1	-8
555.566	1	3
555.906	1	8
556.246	1	6
556.586	1	5
556.926	1	10
557.266	1	-10
557.606	1	1
557.946	1	15
558.286	1	6
558.626	1	12
558.966	1	2
559.306	1	-6
559.646	1	1
559.986	1	-1
560.325	1	-3
560.665	1	4
561.005	1	-4
561.345	1	0
561.685	1	9
562.025	1	2
562.365	1	-1
562.705	1	-7
563.045	1	0
563.385	1	-10
563.725	1	0
564.064	1	2
564.404	1	4
564.744	1	4
565.084	1	4
565.424	1	11
565.764	1	2
566.104	1	2
566.444	1	-18
566.783	1	-2
567.123	1	6
567.463	1	3
567.803	1	-3
568.143	1	-2
568.483	1	-5
568.823	1	1
569.162	1	7
569.502	1	-4
569.842	1	4
570.182	1	5
570.522	1	-9
570.862	1	-5
571.201	1	8
571.541	1	1
571.881	1	4
572.221	1	-8
572.561	1	-3
572.900	1	-6
573.240	1	-2
573.580	1	-1
573.920	1	4
574.260	1	15
574.599	1	3
574.939	1	-3
575.279	1	8
575.619	1	2
575.959	1	-2
576.298	1	15
576.638	1	1
576.978	1	8
577.318	1	11
577.657	1	-6
577.997	1	-6
578.337	1	4
578.677	1	13
579.016	1	5
579.356	1	1
579.696	1	10
580.036	1	-4
580.375	1	5
580.715	1	0
581.055	1	-8
581.394	1	-3
581.734	1	-5
582.074	1	-3
582.414	1	6
582.753	1	2
583.093	1	3
583.433	1	4
583.772	1	2
584.112	1	0
584.452	1	4
584.791	1	-3
585.131	1	1
585.471	1	6
585.811	1	7
586.150	1	-8
586.490	1	7
586.830	1	-4
587.169	1	5
587.509	1	5
587.849	1	-3
588.188	1	9
588.528	1	14
588.867	1	0
589.207	1	1
589.547	1	0
589.886	1	-7
590.226	1	2
590.566	1	-2
590.905	1	9
591.245	1	-1
591.585	1	9
591.924	1	8
592.264	1	6
592.603	1	5
592.943	1	-3
593.283	1	7
593.622	1	-1
593.962	1	10
594.301	1	8
594.641	1	-7
594.981	1	-4
595.320	1	4
595.660	1	-6
595.999	1	-5
596.339	1	4
596.678	1	-3
597.018	1	1
597.358	1	-2
597.697	1	6
598.037	1	0
598.376	1	2
598.716	1	12
599.055	1	6
599.395	1	-4
599.734	1	5
600.074	1	0
600.413	1	13
600.753	1	4
601.092	1	4
601.432	1	-12
601.771	1	2
602.111	1	9
602.451	1	1
602.790	1	-4
603.130	1	7
603.469	1	-3
603.809	1	5
604.148	1	5
604.487	1	-6
604.827	1	15
605.166	1	0
605.506	1	2
605.845	1	3
606.185	1	10
606.524	1	7
606.864	1	-3
607.203	1	-1
607.543	1	-1
607.882	1	1
608.222	1	11
608.561	1	-2
608.901	1	6
609.240	1	-4
609.579	1	0
609.919	1	12
610.258	1	15
610.598	1	-4
610.937	1	2
611.277	1	0
611.616	1	5
611.955	1	6
612.295	1	0
612.634	1	-10
612.974	1	-14
613.313	1	-1
613.652	1	4
613.992	1	3
614.331	1	3
614.671	1	7
615.010	1	-7
615.349	1	12
615.689	1	7
616.028	1	7
616.368	1	5
616.707	1	-3
617.046	1	7
617.386	1	1
617.725	1	5
618.064	1	-10
618.404	1	-4
618.743	1	-1
619.082	1	-5
619.422	1	-15
619.761	1	4
620.100	1	8
620.440	1	5
620.779	1	-3
621.118	1	-1
621.458	1	3
621.797	1	-5
622.136	1	11
622.476	1	1
622.815	1	4
623.154	1	1
623.494	1	15
623.833	1	-4
624.172	1	1
624.511	1	0
624.851	1	-3
625.190	1	2
625.529	1	4
625.869	1	8
626.208	1	-3
626.547	1	5
626.886	1	2
627.226	1	6
627.565	1	-4
627.904	1	-4
628.243	1	0
628.583	1	-3
628.922	1	15
629.261	1	5
629.600	1	12
629.940	1	4
630.279	1	-10
630.618	1	4
630.957	1	2
631.297	1	2
631.636	1	-9
631.975	1	23
632.314	1	1
632.653	1	-1
632.993	1	-4
633.332	1	7
633.671	1	-2
634.010	1	-10
634.349	1	1
634.689	1	0
635.028	1	9
635.367	1	-1
635.706	1	4
636.045	1	13
636.384	1	-4
636.724	1	11
637.063	1	2
637.402	1	4
637.741	1	0
638.080	1	2
638.419	1	-9
638.759	1	-1
639.098	1	3
639.437	1	8
639.776	1	-3
640.115	1	0
640.454	1	-1
640.793	1	9
641.132	1	13
641.472	1	8
641.811	1	-3
642.150	1	-5
642.489	1	-2
642.828	1	-2
643.167	1	-4
643.506	1	-12
643.845	1	1
644.184	1	-1
644.524	1	-1
644.863	1	-2
645.202	1	-2
645.541	1	1
645.880	1	-2
646.219	1	-1
646.558	1	2
646.897	1	3
647.236	1	5
647.575	1	0
647.914	1	-5
648.253	1	8
648.592	1	-5
648.931	1	7
649.270	1	-4
649.610	1	-5
649.949	1	4
650.288	1	0
650.627	1	-10
650.966	1	0
651.305	1	-4
651.644	1	12
651.983	1	5
652.322	1	-2
652.661	1	-9
653.000	1	-3
653.339	1	8
653.678	1	7
654.017	1	1
654.356	1	-2
654.695	1	-1
655.034	1	3
655.373	1	8
655.712	1	-1
656.051	1	5
656.390	1	-11
656.729	1	9
657.068	1	-5
657.406	1	4
657.745	1	-8
658.084	1	-4
658.423	1	5
658.762	1	0
659.101	1	5
659.440	1	-3
659.779	1	1
660.118	1	7
660.457	1	-3
660.796	1	-7
661.135	1	-8
661.474	1	5
661.813	1	5
662.152	1	7
662.491	1	-3
662.829	1	-3
663.168	1	-2
663.507	1	8
663.846	1	-1
664.185	1	-4
664.524	1	-2
664.863	1	-3
665.202	1	8
665.541	1	-7
665.879	1	-11
666.218	1	-3
666.557	1	-5
666.896	1	7
667.235	1	5
667.574	1	-2
667.913	1	-5
668.251	1	-8
668.590	1	-4
668.929	1	-13
669.268	1	-6
669.607	1	2
669.946	1	-3
670.285	1	5
670.623	1	0
670.962	1	4
671.301	1	-2
671.640	1	-1
671.979	1	0
672.317	1	13
672.656	1	10
672.995	1	10
673.334	1	-3
673.673	1	7
674.011	1	0
674.350	1	3
674.689	1	2
675.028	1	-1
675.367	1	8
675.705	1	11
676.044	1	2
676.383	1	0
676.722	1	2
677.060	1	-5
677.399	1	-5
677.738	1	4
678.077	1	3
678.416	1	-1
678.754	1	-4
679.093	1	2
679.432	1	-4
679.771	1	8
680.109	1	12
680.448	1	0
680.787	1	-4
681.125	1	6
681.464	1	1
681.803	1	-7
682.142	1	4
682.480	1	12
682.819	1	-1
683.158	1	-8
683.496	1	-1
683.835	1	4
684.174	1	3
684.512	1	-5
684.851	1	0
685.190	1	4
685.529	1	-10
685.867	1	-3
686.206	1	-10
686.545	1	-3
686.883	1	0
687.222	1	1
687.561	1	6
687.899	1	0
688.238	1	12
688.577	1	-14
688.746	1	4