File: Data/GaN_200K_800ms/GaN_sample F_spot 12_UVVIS_200 K_200um_800 ms 2x2mm1_85.txt
340.368	1	5
340.710	1	-3
341.052	1	16
341.394	1	-9
341.737	1	12
342.079	1	-8
342.421	1	1
342.763	1	10
343.105	1	5
343.447	1	-4
343.789	1	8
344.131	1	-3
344.473	1	-3
344.815	1	7
345.157	1	6
345.499	1	8
345.841	1	9
346.183	1	-4
346.526	1	-3
346.868	1	10
347.210	1	-6
347.552	1	-5
347.894	1	6
348.236	1	5
348.578	1	8
348.920	1	-4
349.262	1	-4
349.604	1	2
349.946	1	-5
350.288	1	11
350.630	1	8
350.972	1	0
351.314	1	12
351.656	1	10
351.998	1	10
352.340	1	15
352.682	1	6
353.024	1	3
353.366	1	22
353.708	1	11
354.050	1	4
354.392	1	6
354.734	1	10
355.076	1	14
355.418	1	5
355.760	1	18
356.102	1	20
356.444	1	12
356.785	1	10
357.127	1	9
357.469	1	18
357.811	1	14
358.153	1	23
358.495	1	20
358.837	1	7
359.179	1	12
359.521	1	33
359.863	1	21
360.205	1	18
360.547	1	32
360.889	1	24
361.231	1	24
361.572	1	41
361.914	1	38
362.256	1	30
362.598	1	41
362.940	1	36
363.282	1	46
363.624	1	55
363.966	1	45
364.308	1	53
364.649	1	66
364.991	1	59
365.333	1	74
365.675	1	60
366.017	1	85
366.359	1	86
366.701	1	97
367.042	1	96
367.384	1	109
367.726	1	112
368.068	1	117
368.410	1	136
368.752	1	126
369.093	1	127
369.435	1	130
369.777	1	128
370.119	1	143
370.461	1	129
370.803	1	122
371.144	1	118
371.486	1	120
371.828	1	120
372.170	1	118
372.512	1	100
372.853	1	100
373.195	1	85
373.537	1	87
373.879	1	88
374.220	1	98
374.562	1	86
374.904	1	86
375.246	1	86
375.588	1	65
375.929	1	74
376.271	1	64
376.613	1	60
376.955	1	55
377.296	1	55
377.638	1	54
377.980	1	59
378.321	1	54
378.663	1	51
379.005	1	56
379.347	1	46
379.688	1	53
380.030	1	36
380.372	1	44
380.714	1	48
381.055	1	50
381.397	1	32
381.739	1	49
382.080	1	37
382.422	1	38
382.764	1	32
383.105	1	19
383.447	1	35
383.789	1	38
384.130	1	25
384.472	1	12
384.814	1	30
385.156	1	16
385.497	1	21
385.839	1	20
386.180	1	32
386.522	1	26
386.864	1	16
387.205	1	28
387.547	1	17
387.889	1	16
388.230	1	17
388.572	1	14
388.914	1	19
389.255	1	15
389.597	1	12
389.939	1	9
390.280	1	13
390.622	1	10
390.963	1	25
391.305	1	15
391.647	1	22
391.988	1	12
392.330	1	20
392.671	1	16
393.013	1	6
393.355	1	15
393.696	1	9
394.038	1	6
394.379	1	5
394.721	1	-2
395.062	1	5
395.404	1	7
395.746	1	4
396.087	1	2
396.429	1	6
396.770	1	-3
397.112	1	16
397.453	1	22
397.795	1	15
398.136	1	3
398.478	1	12
398.819	1	6
399.161	1	19
399.503	1	15
399.844	1	9
400.186	1	14
400.527	1	3
400.869	1	9
401.210	1	-3
401.552	1	8
401.893	1	5
402.235	1	1
402.576	1	5
402.918	1	12
403.259	1	17
403.601	1	5
403.942	1	14
404.284	1	7
404.625	1	6
404.967	1	14
405.308	1	11
405.649	1	11
405.991	1	3
406.332	1	15
406.674	1	0
407.015	1	14
407.357	1	4
407.698	1	17
408.040	1	-3
408.381	1	10
408.722	1	-8
409.064	1	16
409.405	1	14
409.747	1	-1
410.088	1	2
410.430	1	11
410.771	1	-1
411.112	1	2
411.454	1	0
411.795	1	-9
412.137	1	8
412.478	1	8
412.819	1	7
413.161	1	1
413.502	1	-4
413.844	1	2
414.185	1	9
414.526	1	4
414.868	1	6
415.209	1	8
415.550	1	-1
415.892	1	-2
416.233	1	12
416.575	1	16
416.916	1	2
417.257	1	6
417.599	1	2
417.940	1	2
418.281	1	10
418.623	1	3
418.964	1	-8
419.305	1	3
419.647	1	3
419.988	1	1
420.329	1	8
420.671	1	3
421.012	1	17
421.353	1	5
421.695	1	1
422.036	1	7
422.377	1	-1
422.718	1	17
423.060	1	-1
423.401	1	5
423.742	1	-1
424.084	1	-2
424.425	1	7
424.766	1	1
425.107	1	-7
425.449	1	3
425.790	1	-11
426.131	1	3
426.472	1	0
426.814	1	7
427.155	1	0
427.496	1	-8
427.837	1	4
428.179	1	1
428.520	1	0
428.861	1	-3
429.202	1	-1
429.544	1	3
429.885	1	-2
430.226	1	-5
430.567	1	8
430.909	1	3
431.250	1	-2
431.591	1	7
431.932	1	-4
432.273	1	3
432.615	1	-12
432.956	1	-4
433.297	1	-5
433.638	1	2
433.979	1	11
434.320	1	6
434.662	1	9
435.003	1	6
435.344	1	2
435.685	1	8
436.026	1	15
436.368	1	13
436.709	1	-8
437.050	1	-4
437.391	1	14
437.732	1	0
438.073	1	6
438.414	1	-2
438.756	1	-3
439.097	1	2
439.438	1	-12
439.779	1	-3
440.120	1	7
440.461	1	5
440.802	1	0
441.143	1	5
441.485	1	4
441.826	1	5
442.167	1	0
442.508	1	-1
442.849	1	11
443.190	1	9
443.531	1	9
443.872	1	9
444.213	1	8
444.554	1	15
444.895	1	3
445.237	1	-5
445.578	1	-10
445.919	1	-5
446.260	1	-2
446.601	1	-3
446.942	1	2
447.283	1	-5
447.624	1	0
447.965	1	-2
448.306	1	9
448.647	1	-3
448.988	1	0
449.329	1	3
449.670	1	11
450.011	1	7
450.352	1	3
450.693	1	-1
451.034	1	-4
451.375	1	3
451.716	1	8
452.057	1	6
452.398	1	-7
452.739	1	13
453.080	1	2
453.421	1	-2
453.762	1	1
454.103	1	1
454.444	1	-5
454.785	1	-1
455.126	1	-9
455.467	1	0
455.808	1	-4
456.149	1	6
456.490	1	3
456.831	1	3
457.172	1	-1
457.513	1	4
457.854	1	-9
458.195	1	-3
458.536	1	12
458.877	1	3
459.218	1	5
459.559	1	16
459.899	1	8
460.240	1	7
460.581	1	15
460.922	1	6
461.263	1	2
461.604	1	-2
461.945	1	4
462.286	1	3
462.627	1	10
462.968	1	12
463.309	1	-5
463.649	1	8
463.990	1	4
464.331	1	3
464.672	1	0
465.013	1	5
465.354	1	3
465.695	1	6
466.036	1	9
466.376	1	4
466.717	1	-1
467.058	1	8
467.399	1	7
467.740	1	6
468.081	1	0
468.422	1	-8
468.762	1	0
469.103	1	3
469.444	1	-9
469.785	1	-5
470.126	1	-7
470.467	1	-3
470.807	1	4
471.148	1	4
471.489	1	4
471.830	1	-4
472.171	1	10
472.511	1	-6
472.852	1	-6
473.193	1	13
473.534	1	13
473.875	1	13
474.215	1	13
474.556	1	7
474.897	1	-3
475.238	1	3
475.578	1	-10
475.919	1	0
476.260	1	6
476.601	1	6
476.942	1	8
477.282	1	-4
477.623	1	-7
477.964	1	2
478.305	1	10
478.645	1	11
478.986	1	4
479.327	1	-8
479.667	1	6
480.008	1	1
480.349	1	-1
480.690	1	-1
481.030	1	-2
481.371	1	11
481.712	1	4
482.053	1	3
482.393	1	-1
482.734	1	-2
483.075	1	-4
483.415	1	9
483.756	1	6
484.097	1	2
484.437	1	2
484.778	1	4
485.119	1	0
485.459	1	19
485.800	1	2
486.141	1	2
486.481	1	4
486.822	1	8
487.163	1	7
487.503	1	6
487.844	1	3
488.185	1	-2
488.525	1	0
488.866	1	4
489.207	1	2
489.547	1	2
489.888	1	1
490.228	1	17
490.569	1	19
490.910	1	3
491.250	1	0
491.591	1	-5
491.932	1	2
492.272	1	9
492.613	1	2
492.953	1	2
493.294	1	-2
493.635	1	8
493.975	1	3
494.316	1	7
494.656	1	4
494.997	1	3
495.337	1	9
495.678	1	9
496.019	1	3
496.359	1	2
496.700	1	2
497.040	1	5
497.381	1	6
497.721	1	1
498.062	1	2
498.403	1	6
498.743	1	1
499.084	1	5
499.424	1	5
499.765	1	0
500.105	1	0
500.446	1	-7
500.786	1	-3
501.127	1	7
501.467	1	-1
501.808	1	13
502.148	1	12
502.489	1	9
502.829	1	9
503.170	1	13
503.510	1	15
503.851	1	-3
504.191	1	16
504.532	1	11
504.872	1	-3
505.213	1	11
505.553	1	1
505.894	1	2
506.234	1	15
506.575	1	15
506.915	1	6
507.256	1	11
507.596	1	15
507.936	1	10
508.277	1	3
508.617	1	8
508.958	1	4
509.298	1	2
509.639	1	2
509.979	1	-2
510.319	1	8
510.660	1	4
511.000	1	0
511.341	1	7
511.681	1	10
512.022	1	-5
512.362	1	1
512.702	1	6
513.043	1	11
513.383	1	6
513.724	1	17
514.064	1	22
514.404	1	12
514.745	1	6
515.085	1	9
515.425	1	6
515.766	1	-2
516.106	1	6
516.447	1	25
516.787	1	11
517.127	1	2
517.468	1	3
517.808	1	2
518.148	1	-2
518.489	1	-5
518.829	1	8
519.169	1	10
519.510	1	7
519.850	1	14
520.190	1	7
520.531	1	15
520.871	1	14
521.211	1	-3
521.552	1	18
521.892	1	12
522.232	1	4
522.573	1	12
522.913	1	11
523.253	1	5
523.593	1	3
523.934	1	5
524.274	1	5
524.614	1	14
524.955	1	-1
525.295	1	14
525.635	1	-3
525.975	1	14
526.316	1	22
526.656	1	5
526.996	1	13
527.337	1	4
527.677	1	3
528.017	1	-7
528.357	1	10
528.698	1	8
529.038	1	13
529.378	1	13
529.718	1	17
530.058	1	10
530.399	1	14
530.739	1	11
531.079	1	15
531.419	1	18
531.760	1	10
532.100	1	6
532.440	1	0
532.780	1	10
533.120	1	21
533.461	1	20
533.801	1	23
534.141	1	-3
534.481	1	2
534.821	1	16
535.162	1	5
535.502	1	9
535.842	1	17
536.182	1	7
536.522	1	3
536.862	1	25
537.203	1	7
537.543	1	13
537.883	1	11
538.223	1	8
538.563	1	19
538.903	1	7
539.243	1	6
539.584	1	8
539.924	1	30
540.264	1	2
540.604	1	7
540.944	1	1
541.284	1	16
541.624	1	21
541.964	1	19
542.305	1	15
542.645	1	18
542.985	1	11
543.325	1	12
543.665	1	24
544.005	1	11
544.345	1	3
544.685	1	19
545.025	1	15
545.365	1	11
545.705	1	8
546.045	1	3
546.386	1	19
546.726	1	9
547.066	1	9
547.406	1	18
547.746	1	-4
548.086	1	14
548.426	1	8
548.766	1	17
549.106	1	10
549.446	1	12
549.786	1	11
550.126	1	23
550.466	1	15
550.806	1	10
551.146	1	14
551.486	1	11
551.826	1	18
552.166	1	13
552.506	1	20
552.846	1	16
553.186	1	12
553.526	1	11
553.866	1	19
554.206	1	17
554.546	1	12
554.886	1	11
555.226	1	-3
555.566	1	17
555.906	1	17
556.246	1	18
556.586	1	13
556.926	1	10
557.266	1	18
557.606	1	24
557.946	1	20
558.286	1	5
558.626	1	17
558.966	1	17
559.306	1	13
559.646	1	7
559.986	1	13
560.325	1	9
560.665	1	6
561.005	1	5
561.345	1	12
561.685	1	17
562.025	1	19
562.365	1	9
562.705	1	18
563.045	1	1
563.385	1	-4
563.725	1	14
564.064	1	21
564.404	1	6
564.744	1	10
565.084	1	7
565.424	1	14
565.764	1	11
566.104	1	13
566.444	1	9
566.783	1	15
567.123	1	26
567.463	1	18
567.803	1	2
568.143	1	18
568.483	1	13
568.823	1	15
569.162	1	15
569.502	1	4
569.842	1	16
570.182	1	13
570.522	1	0
570.862	1	8
571.201	1	20
571.541	1	16
571.881	1	26
572.221	1	9
572.561	1	6
572.900	1	3
573.240	1	18
573.580	1	8
573.920	1	14
574.260	1	15
574.599	1	12
574.939	1	8
575.279	1	19
575.619	1	17
575.959	1	7
576.298	1	24
576.638	1	5
576.978	1	25
577.318	1	15
577.657	1	8
577.997	1	5
578.337	1	20
578.677	1	5
579.016	1	19
579.356	1	7
579.696	1	17
580.036	1	1
580.375	1	17
580.715	1	13
581.055	1	13
581.394	1	9
581.734	1	4
582.074	1	9
582.414	1	20
582.753	1	9
583.093	1	1
583.433	1	6
583.772	1	23
584.112	1	0
584.452	1	2
584.791	1	2
585.131	1	11
585.471	1	15
585.811	1	6
586.150	1	9
586.490	1	12
586.830	1	7
587.169	1	12
587.509	1	11
587.849	1	10
588.188	1	21
588.528	1	13
588.867	1	12
589.207	1	14
589.547	1	8
589.886	1	3
590.226	1	8
590.566	1	6
590.905	1	3
591.245	1	6
591.585	1	15
591.924	1	16
592.264	1	17
592.603	1	18
592.943	1	11
593.283	1	11
593.622	1	10
593.962	1	12
594.301	1	15
594.641	1	5
594.981	1	10
595.320	1	8
595.660	1	5
595.999	1	2
596.339	1	12
596.678	1	1
597.018	1	0
597.358	1	8
597.697	1	11
598.037	1	9
598.376	1	15
598.716	1	17
599.055	1	21
599.395	1	10
599.734	1	12
600.074	1	10
600.413	1	10
600.753	1	17
601.092	1	20
601.432	1	2
601.771	1	10
602.111	1	9
602.451	1	15
602.790	1	4
603.130	1	14
603.469	1	9
603.809	1	15
604.148	1	12
604.487	1	7
604.827	1	17
605.166	1	7
605.506	1	2
605.845	1	7
606.185	1	14
606.524	1	8
606.864	1	8
607.203	1	1
607.543	1	8
607.882	1	14
608.222	1	8
608.561	1	4
608.901	1	14
609.240	1	3
609.579	1	10
609.919	1	12
610.258	1	15
610.598	1	0
610.937	1	6
611.277	1	9
611.616	1	2
611.955	1	10
612.295	1	9
612.634	1	13
612.974	1	1
613.313	1	19
613.652	1	13
613.992	1	10
614.331	1	2
614.671	1	12
615.010	1	-1
615.349	1	14
615.689	1	20
616.028	1	9
616.368	1	14
616.707	1	9
617.046	1	11
617.386	1	14
617.725	1	12
618.064	1	2
618.404	1	5
618.743	1	12
619.082	1	14
619.422	1	2
619.761	1	11
620.100	1	10
620.440	1	12
620.779	1	13
621.118	1	11
621.458	1	6
621.797	1	4
622.136	1	27
622.476	1	5
622.815	1	18
623.154	1	16
623.494	1	17
623.833	1	8
624.172	1	-2
624.511	1	5
624.851	1	-8
625.190	1	7
625.529	1	5
625.869	1	15
626.208	1	11
626.547	1	5
626.886	1	12
627.226	1	15
627.565	1	7
627.904	1	0
628.243	1	12
628.583	1	-2
628.922	1	10
629.261	1	8
629.600	1	17
629.940	1	8
630.279	1	-3
630.618	1	6
630.957	1	11
631.297	1	12
631.636	1	0
631.975	1	16
632.314	1	7
632.653	1	0
632.993	1	4
633.332	1	6
633.671	1	-3
634.010	1	7
634.349	1	18
634.689	1	12
635.028	1	10
635.367	1	0
635.706	1	13
636.045	1	17
636.384	1	9
636.724	1	6
637.063	1	5
637.402	1	10
637.741	1	8
638.080	1	9
638.419	1	-1
638.759	1	4
639.098	1	7
639.437	1	9
639.776	1	7
640.115	1	-1
640.454	1	-3
640.793	1	12
641.132	1	14
641.472	1	13
641.811	1	9
642.150	1	-5
642.489	1	10
642.828	1	7
643.167	1	5
643.506	1	-4
643.845	1	6
644.184	1	0
644.524	1	4
644.863	1	3
645.202	1	-1
645.541	1	1
645.880	1	2
646.219	1	6
646.558	1	-2
646.897	1	7
647.236	1	3
647.575	1	7
647.914	1	-3
648.253	1	7
648.592	1	3
648.931	1	18
649.270	1	3
649.610	1	-1
649.949	1	-3
650.288	1	10
650.627	1	0
650.966	1	12
651.305	1	2
651.644	1	10
651.983	1	5
652.322	1	3
652.661	1	5
653.000	1	-5
653.339	1	15
653.678	1	8
654.017	1	-1
654.356	1	4
654.695	1	13
655.034	1	5
655.373	1	14
655.712	1	10
656.051	1	-4
656.390	1	10
656.729	1	8
657.068	1	5
657.406	1	9
657.745	1	6
658.084	1	10
658.423	1	12
658.762	1	11
659.101	1	11
659.440	1	9
659.779	1	4
660.118	1	8
660.457	1	8
660.796	1	-9
661.135	1	-1
661.474	1	0
661.813	1	12
662.152	1	15
662.491	1	11
662.829	1	-4
663.168	1	7
663.507	1	15
663.846	1	-9
664.185	1	13
664.524	1	13
664.863	1	-2
665.202	1	9
665.541	1	-11
665.879	1	7
666.218	1	-3
666.557	1	6
666.896	1	-4
667.235	1	1
667.574	1	6
667.913	1	8
668.251	1	-5
668.590	1	0
668.929	1	-5
669.268	1	9
669.607	1	-3
669.946	1	3
670.285	1	3
670.623	1	2
670.962	1	4
671.301	1	-2
671.640	1	3
671.979	1	-5
672.317	1	8
672.656	1	9
672.995	1	14
673.334	1	5
673.673	1	7
674.011	1	-1
674.350	1	11
674.689	1	1
675.028	1	1
675.367	1	5
675.705	1	2
676.044	1	5
676.383	1	8
676.722	1	5
677.060	1	0
677.399	1	1
677.738	1	9
678.077	1	3
678.416	1	9
678.754	1	4
679.093	1	4
679.432	1	5
679.771	1	-3
680.109	1	10
680.448	1	9
680.787	1	6
681.125	1	13
681.464	1	-2
681.803	1	-2
682.142	1	5
682.480	1	12
682.819	1	10
683.158	1	7
683.496	1	-2
683.835	1	11
684.174	1	-7
684.512	1	13
684.851	1	12
685.190	1	0
685.529	1	3
685.867	1	4
686.206	1	-4
686.545	1	-7
686.883	1	5
687.222	1	0
687.561	1	13
687.899	1	2
688.238	1	2
688.577	1	6
688.746	1	9