File: Data/GaN_200K_800ms/GaN_sample F_spot 12_UVVIS_200 K_200um_800 ms 2x2mm1_297.txt
340.368	1	4
340.710	1	-4
341.052	1	4
341.394	1	0
341.737	1	7
342.079	1	-7
342.421	1	-3
342.763	1	0
343.105	1	2
343.447	1	0
343.789	1	-1
344.131	1	-5
344.473	1	0
344.815	1	-10
345.157	1	-6
345.499	1	1
345.841	1	8
346.183	1	-5
346.526	1	-1
346.868	1	12
347.210	1	-16
347.552	1	0
347.894	1	1
348.236	1	1
348.578	1	-2
348.920	1	-2
349.262	1	-9
349.604	1	4
349.946	1	-9
350.288	1	10
350.630	1	6
350.972	1	0
351.314	1	7
351.656	1	-4
351.998	1	9
352.340	1	8
352.682	1	7
353.024	1	2
353.366	1	12
353.708	1	-3
354.050	1	-1
354.392	1	-11
354.734	1	6
355.076	1	-2
355.418	1	-8
355.760	1	-9
356.102	1	4
356.444	1	3
356.785	1	1
357.127	1	3
357.469	1	-1
357.811	1	3
358.153	1	6
358.495	1	1
358.837	1	-3
359.179	1	6
359.521	1	0
359.863	1	3
360.205	1	0
360.547	1	0
360.889	1	1
361.231	1	-6
361.572	1	5
361.914	1	7
362.256	1	5
362.598	1	6
362.940	1	1
363.282	1	9
363.624	1	10
363.966	1	3
364.308	1	9
364.649	1	7
364.991	1	5
365.333	1	4
365.675	1	-2
366.017	1	12
366.359	1	22
366.701	1	3
367.042	1	12
367.384	1	16
367.726	1	14
368.068	1	16
368.410	1	32
368.752	1	9
369.093	1	6
369.435	1	27
369.777	1	21
370.119	1	15
370.461	1	31
370.803	1	25
371.144	1	8
371.486	1	21
371.828	1	24
372.170	1	30
372.512	1	14
372.853	1	10
373.195	1	11
373.537	1	15
373.879	1	6
374.220	1	24
374.562	1	21
374.904	1	13
375.246	1	13
375.588	1	2
375.929	1	10
376.271	1	25
376.613	1	9
376.955	1	6
377.296	1	14
377.638	1	7
377.980	1	14
378.321	1	-8
378.663	1	1
379.005	1	14
379.347	1	5
379.688	1	8
380.030	1	2
380.372	1	3
380.714	1	7
381.055	1	14
381.397	1	-2
381.739	1	13
382.080	1	1
382.422	1	-3
382.764	1	-4
383.105	1	-11
383.447	1	-4
383.789	1	-3
384.130	1	0
384.472	1	-6
384.814	1	0
385.156	1	-4
385.497	1	-3
385.839	1	2
386.180	1	-2
386.522	1	5
386.864	1	8
387.205	1	-4
387.547	1	5
387.889	1	-2
388.230	1	17
388.572	1	3
388.914	1	3
389.255	1	-3
389.597	1	3
389.939	1	-4
390.280	1	3
390.622	1	-3
390.963	1	7
391.305	1	-10
391.647	1	5
391.988	1	4
392.330	1	4
392.671	1	4
393.013	1	-3
393.355	1	11
393.696	1	9
394.038	1	8
394.379	1	4
394.721	1	-3
395.062	1	14
395.404	1	0
395.746	1	8
396.087	1	-11
396.429	1	4
396.770	1	-2
397.112	1	8
397.453	1	8
397.795	1	-11
398.136	1	-7
398.478	1	5
398.819	1	0
399.161	1	14
399.503	1	-2
399.844	1	5
400.186	1	5
400.527	1	0
400.869	1	-6
401.210	1	2
401.552	1	-6
401.893	1	-4
402.235	1	-7
402.576	1	-5
402.918	1	4
403.259	1	10
403.601	1	2
403.942	1	9
404.284	1	2
404.625	1	10
404.967	1	2
405.308	1	4
405.649	1	5
405.991	1	-5
406.332	1	7
406.674	1	-4
407.015	1	1
407.357	1	-2
407.698	1	1
408.040	1	2
408.381	1	1
408.722	1	-5
409.064	1	3
409.405	1	-3
409.747	1	-5
410.088	1	0
410.430	1	8
410.771	1	1
411.112	1	-3
411.454	1	-7
411.795	1	-2
412.137	1	-2
412.478	1	11
412.819	1	-1
413.161	1	1
413.502	1	2
413.844	1	-7
414.185	1	3
414.526	1	2
414.868	1	-4
415.209	1	7
415.550	1	-6
415.892	1	-3
416.233	1	4
416.575	1	13
416.916	1	1
417.257	1	4
417.599	1	-2
417.940	1	9
418.281	1	1
418.623	1	2
418.964	1	-12
419.305	1	1
419.647	1	-2
419.988	1	-5
420.329	1	-7
420.671	1	6
421.012	1	3
421.353	1	-4
421.695	1	-3
422.036	1	0
422.377	1	1
422.718	1	10
423.060	1	-8
423.401	1	0
423.742	1	-2
424.084	1	-2
424.425	1	7
424.766	1	-5
425.107	1	-1
425.449	1	1
425.790	1	-11
426.131	1	1
426.472	1	4
426.814	1	7
427.155	1	-11
427.496	1	-5
427.837	1	-5
428.179	1	-4
428.520	1	2
428.861	1	-1
429.202	1	1
429.544	1	-5
429.885	1	0
430.226	1	-16
430.567	1	2
430.909	1	-2
431.250	1	-3
431.591	1	0
431.932	1	-4
432.273	1	4
432.615	1	-9
432.956	1	-4
433.297	1	0
433.638	1	-1
433.979	1	10
434.320	1	1
434.662	1	-5
435.003	1	2
435.344	1	2
435.685	1	-3
436.026	1	9
436.368	1	11
436.709	1	-1
437.050	1	-6
437.391	1	3
437.732	1	-11
438.073	1	2
438.414	1	-4
438.756	1	-11
439.097	1	-7
439.438	1	-8
439.779	1	1
440.120	1	-5
440.461	1	0
440.802	1	-2
441.143	1	9
441.485	1	1
441.826	1	-1
442.167	1	-4
442.508	1	-9
442.849	1	7
443.190	1	-2
443.531	1	5
443.872	1	1
444.213	1	-2
444.554	1	10
444.895	1	-5
445.237	1	-11
445.578	1	-11
445.919	1	-4
446.260	1	-8
446.601	1	-5
446.942	1	-8
447.283	1	-3
447.624	1	8
447.965	1	5
448.306	1	2
448.647	1	-1
448.988	1	1
449.329	1	-2
449.670	1	2
450.011	1	6
450.352	1	-7
450.693	1	-5
451.034	1	-6
451.375	1	1
451.716	1	1
452.057	1	-2
452.398	1	-4
452.739	1	1
453.080	1	1
453.421	1	5
453.762	1	-4
454.103	1	-4
454.444	1	-12
454.785	1	0
455.126	1	-6
455.467	1	3
455.808	1	0
456.149	1	1
456.490	1	1
456.831	1	10
457.172	1	-4
457.513	1	4
457.854	1	-1
458.195	1	4
458.536	1	5
458.877	1	-6
459.218	1	1
459.559	1	1
459.899	1	-5
460.240	1	2
460.581	1	8
460.922	1	-2
461.263	1	-2
461.604	1	-4
461.945	1	-13
462.286	1	-9
462.627	1	2
462.968	1	1
463.309	1	-7
463.649	1	-9
463.990	1	2
464.331	1	2
464.672	1	-4
465.013	1	-2
465.354	1	-3
465.695	1	-5
466.036	1	-5
466.376	1	-5
466.717	1	0
467.058	1	0
467.399	1	-1
467.740	1	5
468.081	1	9
468.422	1	-7
468.762	1	-9
469.103	1	-4
469.444	1	-6
469.785	1	-12
470.126	1	-5
470.467	1	-2
470.807	1	5
471.148	1	1
471.489	1	-2
471.830	1	-3
472.171	1	6
472.511	1	-11
472.852	1	10
473.193	1	6
473.534	1	5
473.875	1	7
474.215	1	8
474.556	1	-1
474.897	1	9
475.238	1	-2
475.578	1	-2
475.919	1	-9
476.260	1	0
476.601	1	-5
476.942	1	3
477.282	1	-9
477.623	1	-14
477.964	1	0
478.305	1	-6
478.645	1	8
478.986	1	-2
479.327	1	-3
479.667	1	-14
480.008	1	-8
480.349	1	-4
480.690	1	-1
481.030	1	-8
481.371	1	5
481.712	1	4
482.053	1	4
482.393	1	6
482.734	1	-7
483.075	1	-2
483.415	1	1
483.756	1	10
484.097	1	-5
484.437	1	-1
484.778	1	6
485.119	1	-4
485.459	1	17
485.800	1	1
486.141	1	-11
486.481	1	-10
486.822	1	-4
487.163	1	0
487.503	1	-1
487.844	1	2
488.185	1	-4
488.525	1	9
488.866	1	6
489.207	1	-7
489.547	1	1
489.888	1	-6
490.228	1	0
490.569	1	11
490.910	1	4
491.250	1	-7
491.591	1	-3
491.932	1	4
492.272	1	3
492.613	1	-4
492.953	1	-5
493.294	1	0
493.635	1	0
493.975	1	-3
494.316	1	5
494.656	1	9
494.997	1	3
495.337	1	5
495.678	1	-7
496.019	1	0
496.359	1	-17
496.700	1	4
497.040	1	1
497.381	1	-3
497.721	1	-7
498.062	1	-9
498.403	1	1
498.743	1	-6
499.084	1	-8
499.424	1	-1
499.765	1	-9
500.105	1	-11
500.446	1	-6
500.786	1	-14
501.127	1	-5
501.467	1	-10
501.808	1	-1
502.148	1	1
502.489	1	9
502.829	1	-1
503.170	1	5
503.510	1	9
503.851	1	-5
504.191	1	17
504.532	1	0
504.872	1	1
505.213	1	7
505.553	1	-7
505.894	1	-3
506.234	1	10
506.575	1	-1
506.915	1	12
507.256	1	6
507.596	1	6
507.936	1	0
508.277	1	-3
508.617	1	3
508.958	1	-12
509.298	1	10
509.639	1	-6
509.979	1	-12
510.319	1	5
510.660	1	-6
511.000	1	-11
511.341	1	0
511.681	1	7
512.022	1	0
512.362	1	-7
512.702	1	2
513.043	1	5
513.383	1	-7
513.724	1	1
514.064	1	7
514.404	1	-11
514.745	1	-8
515.085	1	-2
515.425	1	-7
515.766	1	-8
516.106	1	-9
516.447	1	1
516.787	1	0
517.127	1	-10
517.468	1	-2
517.808	1	-6
518.148	1	0
518.489	1	-9
518.829	1	7
519.169	1	-6
519.510	1	-6
519.850	1	6
520.190	1	-6
520.531	1	5
520.871	1	0
521.211	1	-5
521.552	1	11
521.892	1	1
522.232	1	5
522.573	1	-8
522.913	1	-3
523.253	1	4
523.593	1	-8
523.934	1	-10
524.274	1	-2
524.614	1	0
524.955	1	-1
525.295	1	5
525.635	1	-2
525.975	1	2
526.316	1	14
526.656	1	8
526.996	1	1
527.337	1	0
527.677	1	-3
528.017	1	-2
528.357	1	2
528.698	1	0
529.038	1	-4
529.378	1	1
529.718	1	11
530.058	1	-1
530.399	1	14
530.739	1	0
531.079	1	1
531.419	1	7
531.760	1	4
532.100	1	1
532.440	1	-1
532.780	1	-7
533.120	1	11
533.461	1	-3
533.801	1	15
534.141	1	-9
534.481	1	-5
534.821	1	2
535.162	1	5
535.502	1	-11
535.842	1	14
536.182	1	3
536.522	1	0
536.862	1	10
537.203	1	2
537.543	1	-2
537.883	1	-5
538.223	1	0
538.563	1	0
538.903	1	-8
539.243	1	-1
539.584	1	-11
539.924	1	7
540.264	1	0
540.604	1	8
540.944	1	-4
541.284	1	9
541.624	1	5
541.964	1	4
542.305	1	2
542.645	1	6
542.985	1	4
543.325	1	9
543.665	1	10
544.005	1	5
544.345	1	4
544.685	1	-8
545.025	1	-3
545.365	1	-2
545.705	1	-6
546.045	1	-1
546.386	1	-5
546.726	1	-6
547.066	1	-3
547.406	1	5
547.746	1	-12
548.086	1	-6
548.426	1	-8
548.766	1	-3
549.106	1	0
549.446	1	4
549.786	1	-3
550.126	1	16
550.466	1	7
550.806	1	2
551.146	1	5
551.486	1	-2
551.826	1	-1
552.166	1	-3
552.506	1	10
552.846	1	3
553.186	1	0
553.526	1	-7
553.866	1	6
554.206	1	-2
554.546	1	-1
554.886	1	10
555.226	1	-1
555.566	1	0
555.906	1	-2
556.246	1	4
556.586	1	0
556.926	1	9
557.266	1	0
557.606	1	2
557.946	1	15
558.286	1	3
558.626	1	-4
558.966	1	0
559.306	1	-4
559.646	1	-5
559.986	1	-4
560.325	1	-1
560.665	1	3
561.005	1	-5
561.345	1	7
561.685	1	2
562.025	1	8
562.365	1	9
562.705	1	-5
563.045	1	-2
563.385	1	-3
563.725	1	3
564.064	1	-6
564.404	1	-2
564.744	1	6
565.084	1	7
565.424	1	0
565.764	1	2
566.104	1	7
566.444	1	-4
566.783	1	-3
567.123	1	4
567.463	1	8
567.803	1	-11
568.143	1	-10
568.483	1	-2
568.823	1	0
569.162	1	3
569.502	1	8
569.842	1	2
570.182	1	2
570.522	1	-11
570.862	1	5
571.201	1	5
571.541	1	3
571.881	1	6
572.221	1	4
572.561	1	5
572.900	1	-2
573.240	1	2
573.580	1	-3
573.920	1	2
574.260	1	19
574.599	1	-3
574.939	1	5
575.279	1	8
575.619	1	9
575.959	1	-13
576.298	1	6
576.638	1	-6
576.978	1	3
577.318	1	3
577.657	1	-6
577.997	1	-2
578.337	1	7
578.677	1	12
579.016	1	12
579.356	1	-2
579.696	1	-1
580.036	1	2
580.375	1	-3
580.715	1	-1
581.055	1	1
581.394	1	0
581.734	1	-11
582.074	1	-5
582.414	1	8
582.753	1	-1
583.093	1	-7
583.433	1	1
583.772	1	4
584.112	1	-2
584.452	1	-1
584.791	1	4
585.131	1	4
585.471	1	7
585.811	1	1
586.150	1	7
586.490	1	-4
586.830	1	5
587.169	1	2
587.509	1	2
587.849	1	1
588.188	1	11
588.528	1	4
588.867	1	6
589.207	1	5
589.547	1	-2
589.886	1	-2
590.226	1	7
590.566	1	-2
590.905	1	6
591.245	1	-3
591.585	1	6
591.924	1	-2
592.264	1	0
592.603	1	13
592.943	1	0
593.283	1	4
593.622	1	3
593.962	1	1
594.301	1	4
594.641	1	-3
594.981	1	-12
595.320	1	-2
595.660	1	-2
595.999	1	-8
596.339	1	4
596.678	1	-3
597.018	1	-6
597.358	1	5
597.697	1	4
598.037	1	1
598.376	1	8
598.716	1	8
599.055	1	12
599.395	1	-1
599.734	1	-1
600.074	1	0
600.413	1	4
600.753	1	2
601.092	1	5
601.432	1	-15
601.771	1	5
602.111	1	-3
602.451	1	9
602.790	1	-4
603.130	1	-8
603.469	1	-6
603.809	1	-1
604.148	1	7
604.487	1	0
604.827	1	1
605.166	1	9
605.506	1	8
605.845	1	7
606.185	1	-2
606.524	1	5
606.864	1	1
607.203	1	-2
607.543	1	4
607.882	1	5
608.222	1	0
608.561	1	6
608.901	1	3
609.240	1	-9
609.579	1	7
609.919	1	9
610.258	1	5
610.598	1	-12
610.937	1	-3
611.277	1	-3
611.616	1	4
611.955	1	9
612.295	1	-8
612.634	1	-1
612.974	1	-10
613.313	1	5
613.652	1	0
613.992	1	3
614.331	1	-10
614.671	1	8
615.010	1	-11
615.349	1	17
615.689	1	-2
616.028	1	4
616.368	1	-4
616.707	1	-5
617.046	1	9
617.386	1	-4
617.725	1	1
618.064	1	-10
618.404	1	-2
618.743	1	-2
619.082	1	0
619.422	1	-3
619.761	1	1
620.100	1	10
620.440	1	1
620.779	1	-5
621.118	1	1
621.458	1	3
621.797	1	-2
622.136	1	2
622.476	1	-1
622.815	1	4
623.154	1	5
623.494	1	12
623.833	1	9
624.172	1	-10
624.511	1	2
624.851	1	-8
625.190	1	1
625.529	1	2
625.869	1	4
626.208	1	-2
626.547	1	0
626.886	1	5
627.226	1	5
627.565	1	-2
627.904	1	-1
628.243	1	0
628.583	1	13
628.922	1	3
629.261	1	7
629.600	1	4
629.940	1	6
630.279	1	2
630.618	1	3
630.957	1	8
631.297	1	0
631.636	1	-9
631.975	1	16
632.314	1	3
632.653	1	5
632.993	1	-6
633.332	1	-3
633.671	1	-13
634.010	1	-1
634.349	1	9
634.689	1	4
635.028	1	3
635.367	1	5
635.706	1	3
636.045	1	17
636.384	1	-2
636.724	1	1
637.063	1	-5
637.402	1	5
637.741	1	-2
638.080	1	-3
638.419	1	-8
638.759	1	-9
639.098	1	7
639.437	1	4
639.776	1	1
640.115	1	-5
640.454	1	2
640.793	1	8
641.132	1	8
641.472	1	1
641.811	1	-5
642.150	1	-8
642.489	1	12
642.828	1	-4
643.167	1	-11
643.506	1	-3
643.845	1	-3
644.184	1	2
644.524	1	-2
644.863	1	-8
645.202	1	-1
645.541	1	8
645.880	1	6
646.219	1	0
646.558	1	-5
646.897	1	0
647.236	1	0
647.575	1	3
647.914	1	-6
648.253	1	5
648.592	1	-4
648.931	1	5
649.270	1	2
649.610	1	-2
649.949	1	7
650.288	1	4
650.627	1	1
650.966	1	2
651.305	1	-6
651.644	1	9
651.983	1	-2
652.322	1	-9
652.661	1	-6
653.000	1	-8
653.339	1	13
653.678	1	0
654.017	1	-2
654.356	1	1
654.695	1	-1
655.034	1	2
655.373	1	7
655.712	1	3
656.051	1	0
656.390	1	1
656.729	1	2
657.068	1	8
657.406	1	4
657.745	1	1
658.084	1	6
658.423	1	6
658.762	1	-6
659.101	1	8
659.440	1	3
659.779	1	0
660.118	1	-4
660.457	1	5
660.796	1	-4
661.135	1	-5
661.474	1	-2
661.813	1	13
662.152	1	-3
662.491	1	-4
662.829	1	-2
663.168	1	0
663.507	1	7
663.846	1	-4
664.185	1	-3
664.524	1	1
664.863	1	0
665.202	1	10
665.541	1	-10
665.879	1	-7
666.218	1	-3
666.557	1	-5
666.896	1	-6
667.235	1	8
667.574	1	8
667.913	1	6
668.251	1	-1
668.590	1	1
668.929	1	-13
669.268	1	1
669.607	1	0
669.946	1	-1
670.285	1	2
670.623	1	-7
670.962	1	0
671.301	1	13
671.640	1	3
671.979	1	-9
672.317	1	4
672.656	1	2
672.995	1	9
673.334	1	3
673.673	1	-3
674.011	1	-8
674.350	1	11
674.689	1	4
675.028	1	-3
675.367	1	-1
675.705	1	5
676.044	1	-5
676.383	1	3
676.722	1	4
677.060	1	-1
677.399	1	-9
677.738	1	1
678.077	1	7
678.416	1	4
678.754	1	-6
679.093	1	5
679.432	1	-7
679.771	1	-2
680.109	1	3
680.448	1	1
680.787	1	1
681.125	1	8
681.464	1	1
681.803	1	-4
682.142	1	8
682.480	1	13
682.819	1	2
683.158	1	-6
683.496	1	4
683.835	1	-1
684.174	1	-3
684.512	1	6
684.851	1	7
685.190	1	-4
685.529	1	-2
685.867	1	0
686.206	1	-10
686.545	1	-8
686.883	1	2
687.222	1	-1
687.561	1	4
687.899	1	4
688.238	1	8
688.577	1	-4
688.746	1	-5