File: Data/GaN_200K_800ms/GaN_sample F_spot 12_UVVIS_200 K_200um_800 ms 2x2mm1_131.txt
340.368	1	4
340.710	1	1
341.052	1	11
341.394	1	7
341.737	1	4
342.079	1	-7
342.421	1	-3
342.763	1	4
343.105	1	1
343.447	1	-1
343.789	1	-9
344.131	1	-10
344.473	1	-3
344.815	1	4
345.157	1	-11
345.499	1	0
345.841	1	7
346.183	1	-2
346.526	1	-9
346.868	1	7
347.210	1	-9
347.552	1	1
347.894	1	2
348.236	1	9
348.578	1	10
348.920	1	3
349.262	1	-3
349.604	1	7
349.946	1	-4
350.288	1	10
350.630	1	1
350.972	1	11
351.314	1	0
351.656	1	-2
351.998	1	17
352.340	1	5
352.682	1	3
353.024	1	13
353.366	1	11
353.708	1	5
354.050	1	3
354.392	1	3
354.734	1	11
355.076	1	7
355.418	1	-14
355.760	1	8
356.102	1	13
356.444	1	13
356.785	1	14
357.127	1	1
357.469	1	5
357.811	1	8
358.153	1	11
358.495	1	6
358.837	1	2
359.179	1	6
359.521	1	13
359.863	1	4
360.205	1	15
360.547	1	13
360.889	1	11
361.231	1	5
361.572	1	14
361.914	1	17
362.256	1	19
362.598	1	1
362.940	1	16
363.282	1	35
363.624	1	35
363.966	1	30
364.308	1	25
364.649	1	35
364.991	1	34
365.333	1	37
365.675	1	37
366.017	1	42
366.359	1	41
366.701	1	44
367.042	1	45
367.384	1	54
367.726	1	51
368.068	1	54
368.410	1	72
368.752	1	61
369.093	1	55
369.435	1	52
369.777	1	58
370.119	1	59
370.461	1	82
370.803	1	62
371.144	1	54
371.486	1	64
371.828	1	64
372.170	1	59
372.512	1	50
372.853	1	47
373.195	1	41
373.537	1	48
373.879	1	42
374.220	1	57
374.562	1	52
374.904	1	52
375.246	1	36
375.588	1	38
375.929	1	40
376.271	1	45
376.613	1	31
376.955	1	33
377.296	1	35
377.638	1	24
377.980	1	26
378.321	1	19
378.663	1	23
379.005	1	35
379.347	1	25
379.688	1	35
380.030	1	19
380.372	1	25
380.714	1	27
381.055	1	23
381.397	1	23
381.739	1	27
382.080	1	13
382.422	1	22
382.764	1	12
383.105	1	9
383.447	1	1
383.789	1	11
384.130	1	14
384.472	1	13
384.814	1	16
385.156	1	-1
385.497	1	19
385.839	1	7
386.180	1	8
386.522	1	18
386.864	1	19
387.205	1	9
387.547	1	2
387.889	1	2
388.230	1	20
388.572	1	13
388.914	1	10
389.255	1	5
389.597	1	11
389.939	1	10
390.280	1	6
390.622	1	3
390.963	1	22
391.305	1	14
391.647	1	7
391.988	1	11
392.330	1	17
392.671	1	5
393.013	1	4
393.355	1	10
393.696	1	16
394.038	1	10
394.379	1	11
394.721	1	-2
395.062	1	10
395.404	1	-6
395.746	1	5
396.087	1	2
396.429	1	4
396.770	1	11
397.112	1	14
397.453	1	22
397.795	1	5
398.136	1	1
398.478	1	7
398.819	1	9
399.161	1	21
399.503	1	8
399.844	1	-1
400.186	1	0
400.527	1	6
400.869	1	1
401.210	1	4
401.552	1	-7
401.893	1	-1
402.235	1	3
402.576	1	2
402.918	1	10
403.259	1	5
403.601	1	-11
403.942	1	19
404.284	1	8
404.625	1	6
404.967	1	4
405.308	1	3
405.649	1	-5
405.991	1	0
406.332	1	7
406.674	1	3
407.015	1	6
407.357	1	5
407.698	1	6
408.040	1	-2
408.381	1	9
408.722	1	-17
409.064	1	2
409.405	1	12
409.747	1	5
410.088	1	5
410.430	1	9
410.771	1	4
411.112	1	6
411.454	1	-10
411.795	1	-8
412.137	1	6
412.478	1	14
412.819	1	1
413.161	1	4
413.502	1	9
413.844	1	-1
414.185	1	7
414.526	1	-1
414.868	1	1
415.209	1	-5
415.550	1	-8
415.892	1	0
416.233	1	4
416.575	1	7
416.916	1	-4
417.257	1	2
417.599	1	3
417.940	1	10
418.281	1	5
418.623	1	0
418.964	1	-11
419.305	1	3
419.647	1	-1
419.988	1	0
420.329	1	-2
420.671	1	8
421.012	1	2
421.353	1	0
421.695	1	-1
422.036	1	3
422.377	1	1
422.718	1	2
423.060	1	-3
423.401	1	-5
423.742	1	11
424.084	1	7
424.425	1	5
424.766	1	-6
425.107	1	-4
425.449	1	6
425.790	1	-2
426.131	1	-1
426.472	1	11
426.814	1	-1
427.155	1	-10
427.496	1	-3
427.837	1	9
428.179	1	-3
428.520	1	4
428.861	1	3
429.202	1	-3
429.544	1	0
429.885	1	4
430.226	1	-5
430.567	1	2
430.909	1	0
431.250	1	-6
431.591	1	8
431.932	1	3
432.273	1	-3
432.615	1	-4
432.956	1	-4
433.297	1	11
433.638	1	-1
433.979	1	14
434.320	1	1
434.662	1	2
435.003	1	4
435.344	1	3
435.685	1	-3
436.026	1	11
436.368	1	10
436.709	1	2
437.050	1	-3
437.391	1	5
437.732	1	-3
438.073	1	-3
438.414	1	-9
438.756	1	-2
439.097	1	-5
439.438	1	-2
439.779	1	1
440.120	1	-4
440.461	1	4
440.802	1	-4
441.143	1	10
441.485	1	7
441.826	1	8
442.167	1	-5
442.508	1	-7
442.849	1	6
443.190	1	3
443.531	1	12
443.872	1	11
444.213	1	-6
444.554	1	17
444.895	1	-2
445.237	1	-2
445.578	1	-2
445.919	1	-5
446.260	1	1
446.601	1	2
446.942	1	1
447.283	1	-7
447.624	1	-4
447.965	1	1
448.306	1	0
448.647	1	3
448.988	1	-4
449.329	1	0
449.670	1	8
450.011	1	6
450.352	1	1
450.693	1	-4
451.034	1	0
451.375	1	0
451.716	1	0
452.057	1	-1
452.398	1	-4
452.739	1	4
453.080	1	8
453.421	1	2
453.762	1	-1
454.103	1	-5
454.444	1	-14
454.785	1	-1
455.126	1	-6
455.467	1	2
455.808	1	7
456.149	1	7
456.490	1	4
456.831	1	13
457.172	1	-3
457.513	1	10
457.854	1	3
458.195	1	-5
458.536	1	3
458.877	1	-3
459.218	1	-1
459.559	1	-4
459.899	1	0
460.240	1	0
460.581	1	13
460.922	1	4
461.263	1	-8
461.604	1	-6
461.945	1	-2
462.286	1	9
462.627	1	7
462.968	1	7
463.309	1	-12
463.649	1	1
463.990	1	-1
464.331	1	0
464.672	1	11
465.013	1	2
465.354	1	4
465.695	1	-14
466.036	1	-4
466.376	1	-7
466.717	1	5
467.058	1	-1
467.399	1	4
467.740	1	5
468.081	1	5
468.422	1	4
468.762	1	0
469.103	1	-5
469.444	1	0
469.785	1	-8
470.126	1	-4
470.467	1	-2
470.807	1	7
471.148	1	-3
471.489	1	8
471.830	1	2
472.171	1	-1
472.511	1	6
472.852	1	2
473.193	1	3
473.534	1	10
473.875	1	12
474.215	1	11
474.556	1	2
474.897	1	8
475.238	1	5
475.578	1	-12
475.919	1	1
476.260	1	-1
476.601	1	5
476.942	1	17
477.282	1	-2
477.623	1	-5
477.964	1	3
478.305	1	-3
478.645	1	9
478.986	1	1
479.327	1	-13
479.667	1	3
480.008	1	0
480.349	1	1
480.690	1	5
481.030	1	1
481.371	1	8
481.712	1	12
482.053	1	-5
482.393	1	4
482.734	1	-2
483.075	1	1
483.415	1	10
483.756	1	16
484.097	1	3
484.437	1	-4
484.778	1	7
485.119	1	-4
485.459	1	3
485.800	1	0
486.141	1	0
486.481	1	3
486.822	1	4
487.163	1	-7
487.503	1	6
487.844	1	1
488.185	1	-2
488.525	1	2
488.866	1	1
489.207	1	3
489.547	1	-5
489.888	1	-2
490.228	1	9
490.569	1	21
490.910	1	5
491.250	1	-5
491.591	1	-6
491.932	1	6
492.272	1	2
492.613	1	-4
492.953	1	5
493.294	1	-3
493.635	1	-1
493.975	1	-8
494.316	1	9
494.656	1	2
494.997	1	-1
495.337	1	12
495.678	1	6
496.019	1	-1
496.359	1	6
496.700	1	7
497.040	1	-1
497.381	1	5
497.721	1	8
498.062	1	2
498.403	1	-2
498.743	1	-1
499.084	1	-7
499.424	1	-4
499.765	1	6
500.105	1	4
500.446	1	-1
500.786	1	-4
501.127	1	3
501.467	1	-3
501.808	1	4
502.148	1	6
502.489	1	-1
502.829	1	5
503.170	1	0
503.510	1	1
503.851	1	9
504.191	1	10
504.532	1	8
504.872	1	3
505.213	1	8
505.553	1	-14
505.894	1	9
506.234	1	1
506.575	1	7
506.915	1	3
507.256	1	6
507.596	1	3
507.936	1	11
508.277	1	4
508.617	1	-2
508.958	1	-6
509.298	1	6
509.639	1	-8
509.979	1	-1
510.319	1	12
510.660	1	6
511.000	1	5
511.341	1	2
511.681	1	7
512.022	1	-10
512.362	1	2
512.702	1	3
513.043	1	14
513.383	1	-9
513.724	1	-3
514.064	1	12
514.404	1	0
514.745	1	-2
515.085	1	1
515.425	1	-1
515.766	1	-4
516.106	1	4
516.447	1	10
516.787	1	13
517.127	1	3
517.468	1	4
517.808	1	5
518.148	1	4
518.489	1	0
518.829	1	11
519.169	1	2
519.510	1	10
519.850	1	10
520.190	1	4
520.531	1	10
520.871	1	5
521.211	1	-5
521.552	1	12
521.892	1	8
522.232	1	6
522.573	1	-6
522.913	1	7
523.253	1	5
523.593	1	7
523.934	1	12
524.274	1	-1
524.614	1	11
524.955	1	-8
525.295	1	4
525.635	1	-2
525.975	1	13
526.316	1	17
526.656	1	1
526.996	1	10
527.337	1	6
527.677	1	8
528.017	1	-2
528.357	1	-1
528.698	1	6
529.038	1	14
529.378	1	14
529.718	1	8
530.058	1	15
530.399	1	6
530.739	1	1
531.079	1	8
531.419	1	7
531.760	1	17
532.100	1	0
532.440	1	10
532.780	1	14
533.120	1	13
533.461	1	5
533.801	1	15
534.141	1	-10
534.481	1	2
534.821	1	11
535.162	1	3
535.502	1	5
535.842	1	4
536.182	1	-3
536.522	1	-3
536.862	1	6
537.203	1	-1
537.543	1	9
537.883	1	4
538.223	1	7
538.563	1	16
538.903	1	-6
539.243	1	3
539.584	1	-6
539.924	1	10
540.264	1	3
540.604	1	3
540.944	1	7
541.284	1	12
541.624	1	15
541.964	1	14
542.305	1	8
542.645	1	2
542.985	1	4
543.325	1	17
543.665	1	17
544.005	1	19
544.345	1	11
544.685	1	-4
545.025	1	11
545.365	1	5
545.705	1	6
546.045	1	-1
546.386	1	15
546.726	1	-2
547.066	1	10
547.406	1	4
547.746	1	-2
548.086	1	4
548.426	1	0
548.766	1	1
549.106	1	9
549.446	1	4
549.786	1	1
550.126	1	15
550.466	1	18
550.806	1	6
551.146	1	3
551.486	1	-4
551.826	1	7
552.166	1	10
552.506	1	16
552.846	1	3
553.186	1	12
553.526	1	10
553.866	1	11
554.206	1	9
554.546	1	8
554.886	1	1
555.226	1	-1
555.566	1	5
555.906	1	-3
556.246	1	10
556.586	1	1
556.926	1	7
557.266	1	-2
557.606	1	6
557.946	1	4
558.286	1	12
558.626	1	10
558.966	1	11
559.306	1	1
559.646	1	-2
559.986	1	-2
560.325	1	-2
560.665	1	-2
561.005	1	-3
561.345	1	5
561.685	1	18
562.025	1	9
562.365	1	11
562.705	1	3
563.045	1	2
563.385	1	1
563.725	1	6
564.064	1	8
564.404	1	6
564.744	1	20
565.084	1	3
565.424	1	8
565.764	1	8
566.104	1	8
566.444	1	4
566.783	1	4
567.123	1	3
567.463	1	5
567.803	1	-2
568.143	1	7
568.483	1	9
568.823	1	4
569.162	1	10
569.502	1	5
569.842	1	2
570.182	1	10
570.522	1	-5
570.862	1	3
571.201	1	14
571.541	1	12
571.881	1	21
572.221	1	-10
572.561	1	3
572.900	1	-8
573.240	1	7
573.580	1	11
573.920	1	9
574.260	1	16
574.599	1	6
574.939	1	5
575.279	1	16
575.619	1	18
575.959	1	-6
576.298	1	10
576.638	1	0
576.978	1	5
577.318	1	8
577.657	1	0
577.997	1	1
578.337	1	8
578.677	1	7
579.016	1	12
579.356	1	2
579.696	1	9
580.036	1	8
580.375	1	14
580.715	1	12
581.055	1	5
581.394	1	1
581.734	1	1
582.074	1	1
582.414	1	12
582.753	1	5
583.093	1	13
583.433	1	-1
583.772	1	7
584.112	1	7
584.452	1	14
584.791	1	3
585.131	1	5
585.471	1	11
585.811	1	12
586.150	1	15
586.490	1	14
586.830	1	1
587.169	1	12
587.509	1	6
587.849	1	8
588.188	1	9
588.528	1	9
588.867	1	8
589.207	1	5
589.547	1	4
589.886	1	0
590.226	1	12
590.566	1	11
590.905	1	0
591.245	1	4
591.585	1	13
591.924	1	6
592.264	1	4
592.603	1	8
592.943	1	7
593.283	1	2
593.622	1	3
593.962	1	10
594.301	1	12
594.641	1	0
594.981	1	-7
595.320	1	8
595.660	1	12
595.999	1	0
596.339	1	4
596.678	1	-1
597.018	1	3
597.358	1	11
597.697	1	0
598.037	1	5
598.376	1	8
598.716	1	13
599.055	1	4
599.395	1	5
599.734	1	5
600.074	1	8
600.413	1	11
600.753	1	3
601.092	1	14
601.432	1	7
601.771	1	3
602.111	1	13
602.451	1	14
602.790	1	8
603.130	1	8
603.469	1	1
603.809	1	12
604.148	1	4
604.487	1	5
604.827	1	18
605.166	1	14
605.506	1	5
605.845	1	5
606.185	1	18
606.524	1	10
606.864	1	8
607.203	1	7
607.543	1	4
607.882	1	4
608.222	1	6
608.561	1	0
608.901	1	-2
609.240	1	0
609.579	1	9
609.919	1	12
610.258	1	7
610.598	1	2
610.937	1	1
611.277	1	-8
611.616	1	-4
611.955	1	1
612.295	1	-1
612.634	1	5
612.974	1	-3
613.313	1	9
613.652	1	7
613.992	1	4
614.331	1	7
614.671	1	10
615.010	1	-8
615.349	1	12
615.689	1	12
616.028	1	3
616.368	1	1
616.707	1	2
617.046	1	5
617.386	1	10
617.725	1	-1
618.064	1	2
618.404	1	4
618.743	1	4
619.082	1	-3
619.422	1	0
619.761	1	11
620.100	1	7
620.440	1	10
620.779	1	0
621.118	1	8
621.458	1	1
621.797	1	5
622.136	1	14
622.476	1	9
622.815	1	6
623.154	1	10
623.494	1	11
623.833	1	6
624.172	1	6
624.511	1	-3
624.851	1	-3
625.190	1	5
625.529	1	6
625.869	1	12
626.208	1	0
626.547	1	5
626.886	1	5
627.226	1	7
627.565	1	-4
627.904	1	-2
628.243	1	6
628.583	1	2
628.922	1	11
629.261	1	7
629.600	1	14
629.940	1	-1
630.279	1	-5
630.618	1	3
630.957	1	-5
631.297	1	-4
631.636	1	-7
631.975	1	12
632.314	1	0
632.653	1	1
632.993	1	-5
633.332	1	2
633.671	1	-6
634.010	1	0
634.349	1	16
634.689	1	9
635.028	1	9
635.367	1	2
635.706	1	4
636.045	1	14
636.384	1	4
636.724	1	5
637.063	1	0
637.402	1	12
637.741	1	11
638.080	1	6
638.419	1	-2
638.759	1	-7
639.098	1	7
639.437	1	10
639.776	1	10
640.115	1	-9
640.454	1	4
640.793	1	5
641.132	1	-1
641.472	1	4
641.811	1	2
642.150	1	1
642.489	1	10
642.828	1	1
643.167	1	-1
643.506	1	3
643.845	1	5
644.184	1	8
644.524	1	0
644.863	1	2
645.202	1	-4
645.541	1	3
645.880	1	4
646.219	1	7
646.558	1	3
646.897	1	-2
647.236	1	-1
647.575	1	5
647.914	1	-9
648.253	1	12
648.592	1	-2
648.931	1	15
649.270	1	3
649.610	1	5
649.949	1	-2
650.288	1	8
650.627	1	6
650.966	1	6
651.305	1	2
651.644	1	17
651.983	1	4
652.322	1	0
652.661	1	-1
653.000	1	-3
653.339	1	10
653.678	1	3
654.017	1	7
654.356	1	-1
654.695	1	7
655.034	1	13
655.373	1	11
655.712	1	3
656.051	1	2
656.390	1	-9
656.729	1	13
657.068	1	-2
657.406	1	11
657.745	1	4
658.084	1	7
658.423	1	5
658.762	1	2
659.101	1	6
659.440	1	4
659.779	1	8
660.118	1	5
660.457	1	10
660.796	1	-3
661.135	1	1
661.474	1	5
661.813	1	16
662.152	1	0
662.491	1	-1
662.829	1	-9
663.168	1	2
663.507	1	10
663.846	1	0
664.185	1	-1
664.524	1	9
664.863	1	-8
665.202	1	20
665.541	1	-6
665.879	1	-5
666.218	1	-8
666.557	1	-1
666.896	1	0
667.235	1	12
667.574	1	4
667.913	1	9
668.251	1	4
668.590	1	7
668.929	1	0
669.268	1	5
669.607	1	-6
669.946	1	4
670.285	1	11
670.623	1	5
670.962	1	2
671.301	1	10
671.640	1	10
671.979	1	-4
672.317	1	9
672.656	1	9
672.995	1	6
673.334	1	-7
673.673	1	6
674.011	1	-1
674.350	1	4
674.689	1	1
675.028	1	3
675.367	1	8
675.705	1	6
676.044	1	11
676.383	1	1
676.722	1	8
677.060	1	3
677.399	1	0
677.738	1	0
678.077	1	11
678.416	1	1
678.754	1	-4
679.093	1	10
679.432	1	7
679.771	1	-3
680.109	1	6
680.448	1	12
680.787	1	-3
681.125	1	12
681.464	1	6
681.803	1	3
682.142	1	1
682.480	1	17
682.819	1	1
683.158	1	3
683.496	1	9
683.835	1	10
684.174	1	5
684.512	1	16
684.851	1	-2
685.190	1	2
685.529	1	-6
685.867	1	-5
686.206	1	-4
686.545	1	-3
686.883	1	4
687.222	1	4
687.561	1	12
687.899	1	11
688.238	1	15
688.577	1	1
688.746	1	2