File: Data/GaN_200K_800ms/GaN_sample F_spot 12_UVVIS_200 K_200um_800 ms 2x2mm1_285.txt
340.368	1	6
340.710	1	-4
341.052	1	10
341.394	1	0
341.737	1	11
342.079	1	0
342.421	1	-4
342.763	1	0
343.105	1	2
343.447	1	-8
343.789	1	-3
344.131	1	1
344.473	1	1
344.815	1	1
345.157	1	-7
345.499	1	-9
345.841	1	7
346.183	1	-3
346.526	1	-1
346.868	1	8
347.210	1	-9
347.552	1	0
347.894	1	3
348.236	1	8
348.578	1	1
348.920	1	2
349.262	1	-5
349.604	1	-2
349.946	1	-16
350.288	1	9
350.630	1	1
350.972	1	1
351.314	1	5
351.656	1	7
351.998	1	3
352.340	1	5
352.682	1	7
353.024	1	3
353.366	1	17
353.708	1	3
354.050	1	-3
354.392	1	-10
354.734	1	9
355.076	1	2
355.418	1	-12
355.760	1	-2
356.102	1	11
356.444	1	4
356.785	1	10
357.127	1	5
357.469	1	0
357.811	1	7
358.153	1	9
358.495	1	1
358.837	1	-1
359.179	1	2
359.521	1	11
359.863	1	5
360.205	1	6
360.547	1	0
360.889	1	0
361.231	1	1
361.572	1	10
361.914	1	6
362.256	1	-3
362.598	1	10
362.940	1	5
363.282	1	12
363.624	1	13
363.966	1	8
364.308	1	4
364.649	1	11
364.991	1	4
365.333	1	5
365.675	1	10
366.017	1	9
366.359	1	12
366.701	1	4
367.042	1	22
367.384	1	17
367.726	1	6
368.068	1	24
368.410	1	22
368.752	1	22
369.093	1	15
369.435	1	14
369.777	1	25
370.119	1	15
370.461	1	20
370.803	1	14
371.144	1	3
371.486	1	25
371.828	1	22
372.170	1	18
372.512	1	5
372.853	1	15
373.195	1	12
373.537	1	10
373.879	1	4
374.220	1	22
374.562	1	22
374.904	1	8
375.246	1	15
375.588	1	15
375.929	1	13
376.271	1	13
376.613	1	-1
376.955	1	1
377.296	1	2
377.638	1	7
377.980	1	17
378.321	1	3
378.663	1	4
379.005	1	23
379.347	1	-1
379.688	1	6
380.030	1	4
380.372	1	3
380.714	1	4
381.055	1	11
381.397	1	1
381.739	1	14
382.080	1	2
382.422	1	-3
382.764	1	-2
383.105	1	4
383.447	1	-2
383.789	1	-1
384.130	1	-7
384.472	1	-2
384.814	1	-2
385.156	1	-10
385.497	1	11
385.839	1	2
386.180	1	3
386.522	1	5
386.864	1	7
387.205	1	0
387.547	1	2
387.889	1	-4
388.230	1	11
388.572	1	-3
388.914	1	-2
389.255	1	-5
389.597	1	14
389.939	1	-4
390.280	1	6
390.622	1	-7
390.963	1	17
391.305	1	12
391.647	1	-1
391.988	1	0
392.330	1	3
392.671	1	-2
393.013	1	0
393.355	1	5
393.696	1	8
394.038	1	8
394.379	1	3
394.721	1	-6
395.062	1	3
395.404	1	-4
395.746	1	4
396.087	1	-8
396.429	1	3
396.770	1	-10
397.112	1	3
397.453	1	9
397.795	1	-2
398.136	1	-9
398.478	1	-3
398.819	1	-5
399.161	1	3
399.503	1	-2
399.844	1	-3
400.186	1	8
400.527	1	-2
400.869	1	1
401.210	1	4
401.552	1	-8
401.893	1	-3
402.235	1	4
402.576	1	4
402.918	1	7
403.259	1	6
403.601	1	-1
403.942	1	9
404.284	1	9
404.625	1	6
404.967	1	-3
405.308	1	0
405.649	1	4
405.991	1	-4
406.332	1	6
406.674	1	-5
407.015	1	3
407.357	1	6
407.698	1	18
408.040	1	-4
408.381	1	3
408.722	1	-2
409.064	1	6
409.405	1	4
409.747	1	-1
410.088	1	-2
410.430	1	6
410.771	1	0
411.112	1	6
411.454	1	-9
411.795	1	-1
412.137	1	7
412.478	1	9
412.819	1	3
413.161	1	-5
413.502	1	-2
413.844	1	4
414.185	1	1
414.526	1	-4
414.868	1	-2
415.209	1	0
415.550	1	-7
415.892	1	2
416.233	1	0
416.575	1	14
416.916	1	-7
417.257	1	-3
417.599	1	0
417.940	1	10
418.281	1	-2
418.623	1	-4
418.964	1	-15
419.305	1	-2
419.647	1	-4
419.988	1	3
420.329	1	-4
420.671	1	-3
421.012	1	6
421.353	1	3
421.695	1	-8
422.036	1	2
422.377	1	-4
422.718	1	6
423.060	1	-3
423.401	1	-2
423.742	1	-6
424.084	1	6
424.425	1	4
424.766	1	2
425.107	1	-11
425.449	1	0
425.790	1	-15
426.131	1	1
426.472	1	5
426.814	1	8
427.155	1	1
427.496	1	-2
427.837	1	-7
428.179	1	-9
428.520	1	-2
428.861	1	3
429.202	1	2
429.544	1	-2
429.885	1	7
430.226	1	-15
430.567	1	-3
430.909	1	-5
431.250	1	-1
431.591	1	5
431.932	1	-9
432.273	1	-4
432.615	1	-5
432.956	1	-5
433.297	1	6
433.638	1	-7
433.979	1	7
434.320	1	2
434.662	1	-6
435.003	1	9
435.344	1	-13
435.685	1	1
436.026	1	6
436.368	1	0
436.709	1	0
437.050	1	-6
437.391	1	8
437.732	1	-8
438.073	1	0
438.414	1	-12
438.756	1	-7
439.097	1	-10
439.438	1	3
439.779	1	2
440.120	1	-2
440.461	1	1
440.802	1	-5
441.143	1	11
441.485	1	-3
441.826	1	3
442.167	1	2
442.508	1	-7
442.849	1	9
443.190	1	-9
443.531	1	1
443.872	1	15
444.213	1	-2
444.554	1	16
444.895	1	-7
445.237	1	-6
445.578	1	-8
445.919	1	-14
446.260	1	-3
446.601	1	6
446.942	1	5
447.283	1	-1
447.624	1	-1
447.965	1	-3
448.306	1	-1
448.647	1	-6
448.988	1	-10
449.329	1	-2
449.670	1	9
450.011	1	14
450.352	1	-4
450.693	1	-2
451.034	1	-2
451.375	1	-10
451.716	1	-1
452.057	1	7
452.398	1	-4
452.739	1	6
453.080	1	2
453.421	1	-5
453.762	1	1
454.103	1	-1
454.444	1	-9
454.785	1	-7
455.126	1	-2
455.467	1	2
455.808	1	9
456.149	1	1
456.490	1	-1
456.831	1	-3
457.172	1	3
457.513	1	-2
457.854	1	-3
458.195	1	-3
458.536	1	1
458.877	1	-6
459.218	1	1
459.559	1	2
459.899	1	4
460.240	1	3
460.581	1	10
460.922	1	1
461.263	1	0
461.604	1	-2
461.945	1	-7
462.286	1	1
462.627	1	10
462.968	1	-1
463.309	1	3
463.649	1	-1
463.990	1	-3
464.331	1	-11
464.672	1	-10
465.013	1	-7
465.354	1	0
465.695	1	2
466.036	1	-10
466.376	1	-1
466.717	1	9
467.058	1	1
467.399	1	5
467.740	1	0
468.081	1	-2
468.422	1	-3
468.762	1	-8
469.103	1	0
469.444	1	-5
469.785	1	-8
470.126	1	-8
470.467	1	-1
470.807	1	10
471.148	1	5
471.489	1	-4
471.830	1	3
472.171	1	4
472.511	1	-7
472.852	1	0
473.193	1	3
473.534	1	4
473.875	1	12
474.215	1	-4
474.556	1	-2
474.897	1	9
475.238	1	0
475.578	1	-8
475.919	1	-5
476.260	1	-4
476.601	1	1
476.942	1	3
477.282	1	-2
477.623	1	-10
477.964	1	-8
478.305	1	-1
478.645	1	5
478.986	1	-5
479.327	1	-9
479.667	1	-6
480.008	1	-18
480.349	1	-6
480.690	1	1
481.030	1	-9
481.371	1	2
481.712	1	7
482.053	1	9
482.393	1	-6
482.734	1	-1
483.075	1	-7
483.415	1	-3
483.756	1	2
484.097	1	2
484.437	1	-7
484.778	1	2
485.119	1	1
485.459	1	12
485.800	1	2
486.141	1	0
486.481	1	3
486.822	1	10
487.163	1	-3
487.503	1	-5
487.844	1	3
488.185	1	6
488.525	1	-1
488.866	1	8
489.207	1	-5
489.547	1	-7
489.888	1	-3
490.228	1	0
490.569	1	12
490.910	1	1
491.250	1	3
491.591	1	-12
491.932	1	3
492.272	1	3
492.613	1	-9
492.953	1	-5
493.294	1	-1
493.635	1	0
493.975	1	3
494.316	1	3
494.656	1	-2
494.997	1	-6
495.337	1	13
495.678	1	-1
496.019	1	-5
496.359	1	4
496.700	1	1
497.040	1	3
497.381	1	-5
497.721	1	3
498.062	1	-4
498.403	1	6
498.743	1	-4
499.084	1	-5
499.424	1	1
499.765	1	-4
500.105	1	0
500.446	1	-4
500.786	1	-6
501.127	1	10
501.467	1	-6
501.808	1	3
502.148	1	0
502.489	1	4
502.829	1	10
503.170	1	7
503.510	1	10
503.851	1	-6
504.191	1	8
504.532	1	3
504.872	1	3
505.213	1	3
505.553	1	-12
505.894	1	-11
506.234	1	0
506.575	1	8
506.915	1	5
507.256	1	1
507.596	1	7
507.936	1	0
508.277	1	-4
508.617	1	2
508.958	1	-6
509.298	1	4
509.639	1	-3
509.979	1	0
510.319	1	12
510.660	1	0
511.000	1	1
511.341	1	-1
511.681	1	4
512.022	1	-10
512.362	1	-9
512.702	1	-5
513.043	1	10
513.383	1	-4
513.724	1	11
514.064	1	13
514.404	1	2
514.745	1	1
515.085	1	1
515.425	1	-12
515.766	1	-11
516.106	1	4
516.447	1	13
516.787	1	-1
517.127	1	4
517.468	1	3
517.808	1	-2
518.148	1	8
518.489	1	1
518.829	1	5
519.169	1	0
519.510	1	5
519.850	1	12
520.190	1	1
520.531	1	2
520.871	1	5
521.211	1	-4
521.552	1	0
521.892	1	1
522.232	1	-3
522.573	1	-1
522.913	1	1
523.253	1	4
523.593	1	-3
523.934	1	-1
524.274	1	2
524.614	1	5
524.955	1	-5
525.295	1	7
525.635	1	1
525.975	1	-2
526.316	1	2
526.656	1	5
526.996	1	6
527.337	1	-5
527.677	1	-3
528.017	1	-11
528.357	1	1
528.698	1	-4
529.038	1	-2
529.378	1	3
529.718	1	5
530.058	1	-1
530.399	1	8
530.739	1	0
531.079	1	4
531.419	1	1
531.760	1	12
532.100	1	-5
532.440	1	-1
532.780	1	7
533.120	1	6
533.461	1	3
533.801	1	6
534.141	1	-10
534.481	1	-9
534.821	1	9
535.162	1	6
535.502	1	-5
535.842	1	5
536.182	1	3
536.522	1	0
536.862	1	-4
537.203	1	2
537.543	1	-4
537.883	1	-2
538.223	1	0
538.563	1	-1
538.903	1	-1
539.243	1	4
539.584	1	-6
539.924	1	-1
540.264	1	2
540.604	1	-3
540.944	1	6
541.284	1	13
541.624	1	7
541.964	1	11
542.305	1	1
542.645	1	2
542.985	1	4
543.325	1	1
543.665	1	4
544.005	1	21
544.345	1	0
544.685	1	-2
545.025	1	-2
545.365	1	6
545.705	1	-7
546.045	1	-3
546.386	1	14
546.726	1	-10
547.066	1	2
547.406	1	5
547.746	1	-12
548.086	1	-6
548.426	1	-7
548.766	1	-1
549.106	1	9
549.446	1	6
549.786	1	-9
550.126	1	10
550.466	1	8
550.806	1	0
551.146	1	-1
551.486	1	-3
551.826	1	9
552.166	1	1
552.506	1	-3
552.846	1	3
553.186	1	-1
553.526	1	0
553.866	1	-3
554.206	1	5
554.546	1	-2
554.886	1	-3
555.226	1	-5
555.566	1	3
555.906	1	12
556.246	1	-6
556.586	1	2
556.926	1	5
557.266	1	-9
557.606	1	-4
557.946	1	11
558.286	1	5
558.626	1	14
558.966	1	1
559.306	1	-6
559.646	1	-1
559.986	1	-3
560.325	1	-2
560.665	1	0
561.005	1	-1
561.345	1	0
561.685	1	-2
562.025	1	0
562.365	1	3
562.705	1	6
563.045	1	-13
563.385	1	-10
563.725	1	-3
564.064	1	-6
564.404	1	12
564.744	1	15
565.084	1	-3
565.424	1	2
565.764	1	-4
566.104	1	-1
566.444	1	-3
566.783	1	0
567.123	1	0
567.463	1	11
567.803	1	-2
568.143	1	-6
568.483	1	0
568.823	1	1
569.162	1	16
569.502	1	-4
569.842	1	6
570.182	1	9
570.522	1	-10
570.862	1	0
571.201	1	9
571.541	1	2
571.881	1	13
572.221	1	0
572.561	1	6
572.900	1	-5
573.240	1	8
573.580	1	-3
573.920	1	4
574.260	1	7
574.599	1	2
574.939	1	-5
575.279	1	15
575.619	1	7
575.959	1	-6
576.298	1	8
576.638	1	-1
576.978	1	3
577.318	1	3
577.657	1	-16
577.997	1	-5
578.337	1	16
578.677	1	3
579.016	1	3
579.356	1	-4
579.696	1	2
580.036	1	-3
580.375	1	9
580.715	1	4
581.055	1	-6
581.394	1	3
581.734	1	-6
582.074	1	3
582.414	1	11
582.753	1	-1
583.093	1	-4
583.433	1	3
583.772	1	8
584.112	1	-1
584.452	1	-1
584.791	1	-6
585.131	1	12
585.471	1	5
585.811	1	8
586.150	1	-4
586.490	1	10
586.830	1	-1
587.169	1	4
587.509	1	2
587.849	1	-1
588.188	1	7
588.528	1	5
588.867	1	14
589.207	1	7
589.547	1	3
589.886	1	0
590.226	1	5
590.566	1	11
590.905	1	3
591.245	1	-5
591.585	1	9
591.924	1	-5
592.264	1	3
592.603	1	2
592.943	1	6
593.283	1	-6
593.622	1	-13
593.962	1	-9
594.301	1	6
594.641	1	0
594.981	1	0
595.320	1	2
595.660	1	1
595.999	1	-9
596.339	1	9
596.678	1	-2
597.018	1	-7
597.358	1	7
597.697	1	6
598.037	1	4
598.376	1	11
598.716	1	6
599.055	1	1
599.395	1	1
599.734	1	-1
600.074	1	2
600.413	1	11
600.753	1	3
601.092	1	3
601.432	1	-6
601.771	1	5
602.111	1	0
602.451	1	8
602.790	1	8
603.130	1	10
603.469	1	-8
603.809	1	8
604.148	1	2
604.487	1	2
604.827	1	9
605.166	1	6
605.506	1	0
605.845	1	4
606.185	1	8
606.524	1	0
606.864	1	-1
607.203	1	-3
607.543	1	0
607.882	1	3
608.222	1	3
608.561	1	-2
608.901	1	4
609.240	1	-5
609.579	1	7
609.919	1	8
610.258	1	11
610.598	1	-3
610.937	1	4
611.277	1	-4
611.616	1	-3
611.955	1	6
612.295	1	3
612.634	1	-4
612.974	1	-7
613.313	1	10
613.652	1	-1
613.992	1	-5
614.331	1	8
614.671	1	0
615.010	1	-11
615.349	1	16
615.689	1	11
616.028	1	-3
616.368	1	6
616.707	1	-1
617.046	1	1
617.386	1	7
617.725	1	-8
618.064	1	-2
618.404	1	-1
618.743	1	7
619.082	1	-9
619.422	1	-5
619.761	1	12
620.100	1	12
620.440	1	4
620.779	1	-11
621.118	1	-2
621.458	1	7
621.797	1	1
622.136	1	12
622.476	1	0
622.815	1	11
623.154	1	2
623.494	1	11
623.833	1	6
624.172	1	0
624.511	1	-4
624.851	1	-9
625.190	1	-7
625.529	1	12
625.869	1	9
626.208	1	-14
626.547	1	1
626.886	1	0
627.226	1	1
627.565	1	8
627.904	1	-1
628.243	1	8
628.583	1	3
628.922	1	3
629.261	1	5
629.600	1	10
629.940	1	1
630.279	1	-11
630.618	1	-9
630.957	1	-1
631.297	1	5
631.636	1	-6
631.975	1	16
632.314	1	3
632.653	1	5
632.993	1	-6
633.332	1	13
633.671	1	1
634.010	1	1
634.349	1	9
634.689	1	-11
635.028	1	8
635.367	1	-4
635.706	1	3
636.045	1	10
636.384	1	0
636.724	1	1
637.063	1	-3
637.402	1	5
637.741	1	6
638.080	1	-9
638.419	1	-4
638.759	1	-7
639.098	1	6
639.437	1	3
639.776	1	4
640.115	1	-6
640.454	1	6
640.793	1	18
641.132	1	5
641.472	1	6
641.811	1	-1
642.150	1	-12
642.489	1	2
642.828	1	-5
643.167	1	-6
643.506	1	-13
643.845	1	-1
644.184	1	0
644.524	1	-3
644.863	1	-12
645.202	1	1
645.541	1	0
645.880	1	3
646.219	1	-1
646.558	1	5
646.897	1	3
647.236	1	4
647.575	1	10
647.914	1	-6
648.253	1	1
648.592	1	-7
648.931	1	9
649.270	1	2
649.610	1	9
649.949	1	2
650.288	1	3
650.627	1	-4
650.966	1	-8
651.305	1	2
651.644	1	10
651.983	1	7
652.322	1	1
652.661	1	-3
653.000	1	6
653.339	1	16
653.678	1	-2
654.017	1	-8
654.356	1	-6
654.695	1	3
655.034	1	13
655.373	1	8
655.712	1	5
656.051	1	-1
656.390	1	-1
656.729	1	6
657.068	1	-5
657.406	1	6
657.745	1	3
658.084	1	2
658.423	1	4
658.762	1	0
659.101	1	20
659.440	1	3
659.779	1	9
660.118	1	-3
660.457	1	3
660.796	1	-19
661.135	1	-4
661.474	1	5
661.813	1	17
662.152	1	0
662.491	1	-9
662.829	1	-5
663.168	1	5
663.507	1	8
663.846	1	0
664.185	1	-1
664.524	1	-1
664.863	1	-2
665.202	1	5
665.541	1	-14
665.879	1	-6
666.218	1	-1
666.557	1	-1
666.896	1	-2
667.235	1	6
667.574	1	-11
667.913	1	2
668.251	1	-6
668.590	1	2
668.929	1	-5
669.268	1	-3
669.607	1	4
669.946	1	-1
670.285	1	5
670.623	1	-3
670.962	1	4
671.301	1	5
671.640	1	-2
671.979	1	0
672.317	1	3
672.656	1	-3
672.995	1	8
673.334	1	6
673.673	1	5
674.011	1	4
674.350	1	2
674.689	1	-2
675.028	1	4
675.367	1	4
675.705	1	11
676.044	1	0
676.383	1	6
676.722	1	10
677.060	1	-2
677.399	1	0
677.738	1	6
678.077	1	-2
678.416	1	1
678.754	1	2
679.093	1	11
679.432	1	-6
679.771	1	-3
680.109	1	2
680.448	1	-1
680.787	1	-2
681.125	1	3
681.464	1	-2
681.803	1	-6
682.142	1	9
682.480	1	10
682.819	1	0
683.158	1	-1
683.496	1	7
683.835	1	8
684.174	1	-6
684.512	1	6
684.851	1	0
685.190	1	-7
685.529	1	-3
685.867	1	3
686.206	1	-4
686.545	1	-7
686.883	1	-1
687.222	1	8
687.561	1	6
687.899	1	0
688.238	1	9
688.577	1	0
688.746	1	1