File: Data/GaN_200K_800ms/GaN_sample F_spot 12_UVVIS_200 K_200um_800 ms 2x2mm1_72.txt
340.368	1	3
340.710	1	1
341.052	1	11
341.394	1	-3
341.737	1	10
342.079	1	-2
342.421	1	-3
342.763	1	13
343.105	1	13
343.447	1	3
343.789	1	5
344.131	1	-4
344.473	1	2
344.815	1	1
345.157	1	1
345.499	1	3
345.841	1	5
346.183	1	-1
346.526	1	-6
346.868	1	8
347.210	1	-10
347.552	1	0
347.894	1	6
348.236	1	10
348.578	1	0
348.920	1	8
349.262	1	-1
349.604	1	3
349.946	1	0
350.288	1	15
350.630	1	6
350.972	1	9
351.314	1	14
351.656	1	10
351.998	1	16
352.340	1	13
352.682	1	11
353.024	1	7
353.366	1	15
353.708	1	5
354.050	1	1
354.392	1	2
354.734	1	15
355.076	1	12
355.418	1	0
355.760	1	5
356.102	1	23
356.444	1	19
356.785	1	20
357.127	1	12
357.469	1	25
357.811	1	11
358.153	1	32
358.495	1	35
358.837	1	11
359.179	1	28
359.521	1	36
359.863	1	26
360.205	1	36
360.547	1	38
360.889	1	42
361.231	1	31
361.572	1	50
361.914	1	50
362.256	1	48
362.598	1	40
362.940	1	47
363.282	1	72
363.624	1	76
363.966	1	62
364.308	1	73
364.649	1	94
364.991	1	95
365.333	1	92
365.675	1	110
366.017	1	113
366.359	1	112
366.701	1	132
367.042	1	150
367.384	1	156
367.726	1	187
368.068	1	157
368.410	1	186
368.752	1	161
369.093	1	174
369.435	1	192
369.777	1	184
370.119	1	176
370.461	1	187
370.803	1	187
371.144	1	177
371.486	1	172
371.828	1	166
372.170	1	170
372.512	1	150
372.853	1	128
373.195	1	130
373.537	1	143
373.879	1	120
374.220	1	131
374.562	1	121
374.904	1	123
375.246	1	100
375.588	1	98
375.929	1	90
376.271	1	94
376.613	1	86
376.955	1	74
377.296	1	72
377.638	1	64
377.980	1	73
378.321	1	53
378.663	1	60
379.005	1	62
379.347	1	63
379.688	1	56
380.030	1	51
380.372	1	59
380.714	1	52
381.055	1	60
381.397	1	42
381.739	1	42
382.080	1	51
382.422	1	43
382.764	1	43
383.105	1	35
383.447	1	35
383.789	1	26
384.130	1	33
384.472	1	38
384.814	1	33
385.156	1	31
385.497	1	33
385.839	1	34
386.180	1	34
386.522	1	30
386.864	1	27
387.205	1	25
387.547	1	19
387.889	1	20
388.230	1	38
388.572	1	9
388.914	1	19
389.255	1	13
389.597	1	26
389.939	1	21
390.280	1	13
390.622	1	15
390.963	1	32
391.305	1	18
391.647	1	16
391.988	1	16
392.330	1	15
392.671	1	20
393.013	1	4
393.355	1	8
393.696	1	15
394.038	1	15
394.379	1	17
394.721	1	7
395.062	1	16
395.404	1	-1
395.746	1	23
396.087	1	6
396.429	1	13
396.770	1	2
397.112	1	5
397.453	1	19
397.795	1	2
398.136	1	17
398.478	1	14
398.819	1	6
399.161	1	20
399.503	1	15
399.844	1	11
400.186	1	4
400.527	1	1
400.869	1	10
401.210	1	7
401.552	1	-7
401.893	1	3
402.235	1	-1
402.576	1	13
402.918	1	10
403.259	1	21
403.601	1	6
403.942	1	11
404.284	1	5
404.625	1	14
404.967	1	11
405.308	1	13
405.649	1	9
405.991	1	11
406.332	1	24
406.674	1	-1
407.015	1	10
407.357	1	-2
407.698	1	11
408.040	1	6
408.381	1	19
408.722	1	-3
409.064	1	2
409.405	1	16
409.747	1	3
410.088	1	12
410.430	1	7
410.771	1	10
411.112	1	-2
411.454	1	-1
411.795	1	4
412.137	1	15
412.478	1	12
412.819	1	-2
413.161	1	1
413.502	1	2
413.844	1	3
414.185	1	4
414.526	1	12
414.868	1	6
415.209	1	6
415.550	1	2
415.892	1	9
416.233	1	6
416.575	1	16
416.916	1	0
417.257	1	2
417.599	1	7
417.940	1	8
418.281	1	2
418.623	1	5
418.964	1	-16
419.305	1	5
419.647	1	2
419.988	1	0
420.329	1	-9
420.671	1	10
421.012	1	3
421.353	1	-1
421.695	1	7
422.036	1	8
422.377	1	-6
422.718	1	14
423.060	1	-3
423.401	1	9
423.742	1	9
424.084	1	3
424.425	1	7
424.766	1	9
425.107	1	3
425.449	1	4
425.790	1	-9
426.131	1	2
426.472	1	1
426.814	1	11
427.155	1	1
427.496	1	-2
427.837	1	4
428.179	1	1
428.520	1	4
428.861	1	1
429.202	1	9
429.544	1	1
429.885	1	7
430.226	1	0
430.567	1	1
430.909	1	2
431.250	1	5
431.591	1	6
431.932	1	0
432.273	1	2
432.615	1	2
432.956	1	-3
433.297	1	4
433.638	1	1
433.979	1	13
434.320	1	6
434.662	1	0
435.003	1	5
435.344	1	6
435.685	1	1
436.026	1	8
436.368	1	9
436.709	1	8
437.050	1	-5
437.391	1	11
437.732	1	4
438.073	1	8
438.414	1	-5
438.756	1	5
439.097	1	-2
439.438	1	4
439.779	1	-2
440.120	1	-1
440.461	1	-2
440.802	1	-1
441.143	1	13
441.485	1	3
441.826	1	6
442.167	1	3
442.508	1	-8
442.849	1	10
443.190	1	2
443.531	1	11
443.872	1	13
444.213	1	3
444.554	1	12
444.895	1	-3
445.237	1	3
445.578	1	-1
445.919	1	-8
446.260	1	0
446.601	1	1
446.942	1	6
447.283	1	0
447.624	1	-1
447.965	1	1
448.306	1	-1
448.647	1	-2
448.988	1	8
449.329	1	1
449.670	1	10
450.011	1	8
450.352	1	0
450.693	1	0
451.034	1	-5
451.375	1	-3
451.716	1	4
452.057	1	2
452.398	1	1
452.739	1	10
453.080	1	6
453.421	1	4
453.762	1	-1
454.103	1	-4
454.444	1	2
454.785	1	2
455.126	1	-8
455.467	1	4
455.808	1	8
456.149	1	6
456.490	1	5
456.831	1	10
457.172	1	-3
457.513	1	8
457.854	1	2
458.195	1	-2
458.536	1	17
458.877	1	6
459.218	1	-3
459.559	1	8
459.899	1	8
460.240	1	3
460.581	1	12
460.922	1	0
461.263	1	-2
461.604	1	-2
461.945	1	7
462.286	1	13
462.627	1	6
462.968	1	10
463.309	1	-5
463.649	1	6
463.990	1	2
464.331	1	-1
464.672	1	1
465.013	1	-5
465.354	1	4
465.695	1	-3
466.036	1	-4
466.376	1	1
466.717	1	5
467.058	1	7
467.399	1	6
467.740	1	5
468.081	1	3
468.422	1	-6
468.762	1	-3
469.103	1	-2
469.444	1	4
469.785	1	-13
470.126	1	-3
470.467	1	-6
470.807	1	6
471.148	1	4
471.489	1	-5
471.830	1	5
472.171	1	14
472.511	1	-1
472.852	1	-1
473.193	1	6
473.534	1	7
473.875	1	18
474.215	1	6
474.556	1	1
474.897	1	7
475.238	1	1
475.578	1	-3
475.919	1	-5
476.260	1	7
476.601	1	0
476.942	1	5
477.282	1	-3
477.623	1	-10
477.964	1	1
478.305	1	5
478.645	1	14
478.986	1	-1
479.327	1	-5
479.667	1	3
480.008	1	-2
480.349	1	2
480.690	1	2
481.030	1	2
481.371	1	8
481.712	1	6
482.053	1	3
482.393	1	-2
482.734	1	3
483.075	1	6
483.415	1	-1
483.756	1	10
484.097	1	6
484.437	1	-3
484.778	1	4
485.119	1	-7
485.459	1	20
485.800	1	-4
486.141	1	4
486.481	1	5
486.822	1	2
487.163	1	-1
487.503	1	6
487.844	1	12
488.185	1	5
488.525	1	5
488.866	1	8
489.207	1	7
489.547	1	-2
489.888	1	-5
490.228	1	12
490.569	1	8
490.910	1	4
491.250	1	9
491.591	1	13
491.932	1	1
492.272	1	16
492.613	1	11
492.953	1	4
493.294	1	-2
493.635	1	0
493.975	1	4
494.316	1	5
494.656	1	5
494.997	1	5
495.337	1	6
495.678	1	-1
496.019	1	4
496.359	1	0
496.700	1	21
497.040	1	2
497.381	1	3
497.721	1	2
498.062	1	9
498.403	1	11
498.743	1	6
499.084	1	3
499.424	1	9
499.765	1	12
500.105	1	11
500.446	1	-2
500.786	1	2
501.127	1	9
501.467	1	6
501.808	1	5
502.148	1	14
502.489	1	7
502.829	1	12
503.170	1	20
503.510	1	13
503.851	1	6
504.191	1	21
504.532	1	4
504.872	1	7
505.213	1	18
505.553	1	-6
505.894	1	-2
506.234	1	19
506.575	1	15
506.915	1	11
507.256	1	11
507.596	1	8
507.936	1	25
508.277	1	10
508.617	1	7
508.958	1	7
509.298	1	8
509.639	1	13
509.979	1	10
510.319	1	11
510.660	1	15
511.000	1	4
511.341	1	5
511.681	1	12
512.022	1	8
512.362	1	18
512.702	1	7
513.043	1	15
513.383	1	5
513.724	1	11
514.064	1	25
514.404	1	7
514.745	1	20
515.085	1	5
515.425	1	6
515.766	1	9
516.106	1	16
516.447	1	25
516.787	1	10
517.127	1	14
517.468	1	11
517.808	1	13
518.148	1	21
518.489	1	15
518.829	1	23
519.169	1	11
519.510	1	17
519.850	1	13
520.190	1	14
520.531	1	16
520.871	1	12
521.211	1	6
521.552	1	15
521.892	1	6
522.232	1	20
522.573	1	8
522.913	1	7
523.253	1	-1
523.593	1	12
523.934	1	11
524.274	1	9
524.614	1	14
524.955	1	3
525.295	1	11
525.635	1	13
525.975	1	20
526.316	1	30
526.656	1	20
526.996	1	23
527.337	1	21
527.677	1	11
528.017	1	6
528.357	1	20
528.698	1	9
529.038	1	26
529.378	1	13
529.718	1	21
530.058	1	15
530.399	1	20
530.739	1	15
531.079	1	25
531.419	1	29
531.760	1	30
532.100	1	15
532.440	1	8
532.780	1	21
533.120	1	24
533.461	1	21
533.801	1	42
534.141	1	-3
534.481	1	12
534.821	1	24
535.162	1	15
535.502	1	13
535.842	1	23
536.182	1	11
536.522	1	15
536.862	1	24
537.203	1	15
537.543	1	16
537.883	1	12
538.223	1	23
538.563	1	18
538.903	1	2
539.243	1	17
539.584	1	15
539.924	1	23
540.264	1	5
540.604	1	27
540.944	1	6
541.284	1	19
541.624	1	22
541.964	1	33
542.305	1	23
542.645	1	12
542.985	1	20
543.325	1	16
543.665	1	22
544.005	1	31
544.345	1	18
544.685	1	12
545.025	1	22
545.365	1	14
545.705	1	20
546.045	1	10
546.386	1	24
546.726	1	13
547.066	1	29
547.406	1	18
547.746	1	12
548.086	1	18
548.426	1	20
548.766	1	19
549.106	1	17
549.446	1	15
549.786	1	12
550.126	1	27
550.466	1	18
550.806	1	15
551.146	1	18
551.486	1	31
551.826	1	15
552.166	1	24
552.506	1	22
552.846	1	14
553.186	1	29
553.526	1	11
553.866	1	18
554.206	1	20
554.546	1	31
554.886	1	26
555.226	1	13
555.566	1	23
555.906	1	30
556.246	1	21
556.586	1	19
556.926	1	19
557.266	1	13
557.606	1	19
557.946	1	23
558.286	1	22
558.626	1	24
558.966	1	31
559.306	1	10
559.646	1	15
559.986	1	20
560.325	1	7
560.665	1	5
561.005	1	8
561.345	1	11
561.685	1	9
562.025	1	28
562.365	1	19
562.705	1	22
563.045	1	18
563.385	1	15
563.725	1	27
564.064	1	21
564.404	1	25
564.744	1	25
565.084	1	20
565.424	1	12
565.764	1	27
566.104	1	12
566.444	1	3
566.783	1	17
567.123	1	18
567.463	1	17
567.803	1	10
568.143	1	9
568.483	1	22
568.823	1	11
569.162	1	25
569.502	1	6
569.842	1	22
570.182	1	28
570.522	1	19
570.862	1	13
571.201	1	35
571.541	1	15
571.881	1	28
572.221	1	26
572.561	1	24
572.900	1	14
573.240	1	25
573.580	1	17
573.920	1	21
574.260	1	39
574.599	1	16
574.939	1	21
575.279	1	17
575.619	1	22
575.959	1	4
576.298	1	27
576.638	1	10
576.978	1	15
577.318	1	11
577.657	1	15
577.997	1	15
578.337	1	19
578.677	1	25
579.016	1	25
579.356	1	6
579.696	1	26
580.036	1	25
580.375	1	20
580.715	1	10
581.055	1	16
581.394	1	6
581.734	1	4
582.074	1	17
582.414	1	18
582.753	1	20
583.093	1	15
583.433	1	8
583.772	1	19
584.112	1	21
584.452	1	27
584.791	1	15
585.131	1	22
585.471	1	29
585.811	1	22
586.150	1	21
586.490	1	17
586.830	1	12
587.169	1	28
587.509	1	9
587.849	1	20
588.188	1	24
588.528	1	22
588.867	1	24
589.207	1	21
589.547	1	19
589.886	1	24
590.226	1	20
590.566	1	9
590.905	1	16
591.245	1	12
591.585	1	20
591.924	1	23
592.264	1	26
592.603	1	21
592.943	1	9
593.283	1	15
593.622	1	10
593.962	1	16
594.301	1	17
594.641	1	6
594.981	1	10
595.320	1	20
595.660	1	14
595.999	1	0
596.339	1	16
596.678	1	17
597.018	1	12
597.358	1	19
597.697	1	2
598.037	1	24
598.376	1	10
598.716	1	19
599.055	1	18
599.395	1	13
599.734	1	15
600.074	1	16
600.413	1	17
600.753	1	17
601.092	1	27
601.432	1	2
601.771	1	7
602.111	1	20
602.451	1	23
602.790	1	14
603.130	1	21
603.469	1	8
603.809	1	14
604.148	1	25
604.487	1	9
604.827	1	20
605.166	1	14
605.506	1	25
605.845	1	15
606.185	1	20
606.524	1	25
606.864	1	17
607.203	1	11
607.543	1	9
607.882	1	23
608.222	1	9
608.561	1	17
608.901	1	11
609.240	1	16
609.579	1	18
609.919	1	18
610.258	1	19
610.598	1	23
610.937	1	15
611.277	1	1
611.616	1	12
611.955	1	18
612.295	1	13
612.634	1	17
612.974	1	11
613.313	1	14
613.652	1	20
613.992	1	21
614.331	1	16
614.671	1	19
615.010	1	-3
615.349	1	14
615.689	1	20
616.028	1	5
616.368	1	21
616.707	1	13
617.046	1	21
617.386	1	19
617.725	1	17
618.064	1	2
618.404	1	20
618.743	1	8
619.082	1	13
619.422	1	9
619.761	1	14
620.100	1	16
620.440	1	9
620.779	1	6
621.118	1	20
621.458	1	16
621.797	1	9
622.136	1	21
622.476	1	19
622.815	1	20
623.154	1	15
623.494	1	15
623.833	1	17
624.172	1	7
624.511	1	8
624.851	1	8
625.190	1	16
625.529	1	14
625.869	1	14
626.208	1	9
626.547	1	11
626.886	1	10
627.226	1	17
627.565	1	16
627.904	1	14
628.243	1	19
628.583	1	10
628.922	1	17
629.261	1	10
629.600	1	22
629.940	1	9
630.279	1	10
630.618	1	14
630.957	1	9
631.297	1	6
631.636	1	10
631.975	1	18
632.314	1	10
632.653	1	5
632.993	1	7
633.332	1	10
633.671	1	7
634.010	1	4
634.349	1	14
634.689	1	13
635.028	1	8
635.367	1	18
635.706	1	13
636.045	1	17
636.384	1	3
636.724	1	6
637.063	1	14
637.402	1	15
637.741	1	7
638.080	1	5
638.419	1	-3
638.759	1	18
639.098	1	15
639.437	1	10
639.776	1	4
640.115	1	1
640.454	1	-1
640.793	1	16
641.132	1	18
641.472	1	21
641.811	1	7
642.150	1	1
642.489	1	4
642.828	1	0
643.167	1	7
643.506	1	4
643.845	1	6
644.184	1	18
644.524	1	1
644.863	1	1
645.202	1	7
645.541	1	7
645.880	1	9
646.219	1	18
646.558	1	3
646.897	1	9
647.236	1	9
647.575	1	15
647.914	1	6
648.253	1	21
648.592	1	0
648.931	1	23
649.270	1	11
649.610	1	7
649.949	1	5
650.288	1	8
650.627	1	3
650.966	1	8
651.305	1	13
651.644	1	14
651.983	1	9
652.322	1	13
652.661	1	1
653.000	1	2
653.339	1	17
653.678	1	10
654.017	1	8
654.356	1	-7
654.695	1	11
655.034	1	15
655.373	1	18
655.712	1	19
656.051	1	7
656.390	1	6
656.729	1	17
657.068	1	1
657.406	1	7
657.745	1	-6
658.084	1	12
658.423	1	11
658.762	1	3
659.101	1	14
659.440	1	5
659.779	1	14
660.118	1	16
660.457	1	3
660.796	1	-2
661.135	1	-4
661.474	1	6
661.813	1	12
662.152	1	4
662.491	1	6
662.829	1	-4
663.168	1	4
663.507	1	15
663.846	1	7
664.185	1	7
664.524	1	10
664.863	1	11
665.202	1	1
665.541	1	-4
665.879	1	-6
666.218	1	0
666.557	1	5
666.896	1	6
667.235	1	1
667.574	1	11
667.913	1	-2
668.251	1	5
668.590	1	12
668.929	1	-5
669.268	1	9
669.607	1	-8
669.946	1	1
670.285	1	7
670.623	1	-2
670.962	1	5
671.301	1	7
671.640	1	20
671.979	1	3
672.317	1	12
672.656	1	7
672.995	1	10
673.334	1	7
673.673	1	-1
674.011	1	5
674.350	1	20
674.689	1	8
675.028	1	-1
675.367	1	17
675.705	1	6
676.044	1	5
676.383	1	16
676.722	1	7
677.060	1	5
677.399	1	0
677.738	1	9
678.077	1	5
678.416	1	7
678.754	1	6
679.093	1	15
679.432	1	3
679.771	1	4
680.109	1	18
680.448	1	14
680.787	1	8
681.125	1	12
681.464	1	0
681.803	1	6
682.142	1	14
682.480	1	14
682.819	1	9
683.158	1	8
683.496	1	14
683.835	1	11
684.174	1	10
684.512	1	17
684.851	1	14
685.190	1	-6
685.529	1	7
685.867	1	8
686.206	1	7
686.545	1	3
686.883	1	2
687.222	1	15
687.561	1	14
687.899	1	10
688.238	1	-1
688.577	1	-3
688.746	1	14