File: Data/GaN_200K_800ms/GaN_sample F_spot 12_UVVIS_200 K_200um_800 ms 2x2mm1_182.txt
340.368	1	6
340.710	1	-5
341.052	1	13
341.394	1	-1
341.737	1	4
342.079	1	-7
342.421	1	-6
342.763	1	5
343.105	1	4
343.447	1	-5
343.789	1	-3
344.131	1	-8
344.473	1	-1
344.815	1	4
345.157	1	0
345.499	1	3
345.841	1	6
346.183	1	-10
346.526	1	1
346.868	1	10
347.210	1	-7
347.552	1	-3
347.894	1	2
348.236	1	10
348.578	1	-4
348.920	1	2
349.262	1	-2
349.604	1	8
349.946	1	-3
350.288	1	11
350.630	1	5
350.972	1	-1
351.314	1	9
351.656	1	8
351.998	1	3
352.340	1	7
352.682	1	9
353.024	1	13
353.366	1	9
353.708	1	10
354.050	1	-4
354.392	1	-1
354.734	1	2
355.076	1	12
355.418	1	-11
355.760	1	1
356.102	1	10
356.444	1	13
356.785	1	8
357.127	1	7
357.469	1	0
357.811	1	7
358.153	1	9
358.495	1	6
358.837	1	-3
359.179	1	3
359.521	1	10
359.863	1	2
360.205	1	6
360.547	1	10
360.889	1	0
361.231	1	17
361.572	1	19
361.914	1	10
362.256	1	12
362.598	1	4
362.940	1	2
363.282	1	14
363.624	1	14
363.966	1	8
364.308	1	18
364.649	1	17
364.991	1	27
365.333	1	21
365.675	1	24
366.017	1	24
366.359	1	28
366.701	1	23
367.042	1	36
367.384	1	40
367.726	1	28
368.068	1	31
368.410	1	49
368.752	1	35
369.093	1	35
369.435	1	41
369.777	1	37
370.119	1	39
370.461	1	45
370.803	1	51
371.144	1	31
371.486	1	43
371.828	1	35
372.170	1	32
372.512	1	32
372.853	1	27
373.195	1	26
373.537	1	23
373.879	1	21
374.220	1	28
374.562	1	36
374.904	1	26
375.246	1	17
375.588	1	25
375.929	1	32
376.271	1	24
376.613	1	19
376.955	1	11
377.296	1	19
377.638	1	8
377.980	1	13
378.321	1	6
378.663	1	12
379.005	1	31
379.347	1	18
379.688	1	14
380.030	1	9
380.372	1	12
380.714	1	18
381.055	1	20
381.397	1	12
381.739	1	16
382.080	1	19
382.422	1	7
382.764	1	-3
383.105	1	7
383.447	1	5
383.789	1	-7
384.130	1	6
384.472	1	0
384.814	1	8
385.156	1	0
385.497	1	12
385.839	1	6
386.180	1	10
386.522	1	2
386.864	1	12
387.205	1	2
387.547	1	7
387.889	1	3
388.230	1	15
388.572	1	1
388.914	1	8
389.255	1	2
389.597	1	15
389.939	1	10
390.280	1	11
390.622	1	0
390.963	1	13
391.305	1	6
391.647	1	3
391.988	1	15
392.330	1	10
392.671	1	0
393.013	1	2
393.355	1	4
393.696	1	3
394.038	1	7
394.379	1	2
394.721	1	4
395.062	1	3
395.404	1	0
395.746	1	12
396.087	1	1
396.429	1	11
396.770	1	1
397.112	1	4
397.453	1	13
397.795	1	1
398.136	1	-1
398.478	1	3
398.819	1	5
399.161	1	15
399.503	1	9
399.844	1	-1
400.186	1	-1
400.527	1	5
400.869	1	2
401.210	1	-2
401.552	1	-2
401.893	1	0
402.235	1	-2
402.576	1	-5
402.918	1	9
403.259	1	0
403.601	1	-7
403.942	1	15
404.284	1	10
404.625	1	8
404.967	1	5
405.308	1	2
405.649	1	-2
405.991	1	-3
406.332	1	4
406.674	1	-3
407.015	1	1
407.357	1	-2
407.698	1	3
408.040	1	-6
408.381	1	2
408.722	1	-7
409.064	1	-1
409.405	1	1
409.747	1	-1
410.088	1	0
410.430	1	7
410.771	1	10
411.112	1	-3
411.454	1	-6
411.795	1	3
412.137	1	7
412.478	1	17
412.819	1	1
413.161	1	0
413.502	1	0
413.844	1	13
414.185	1	10
414.526	1	-5
414.868	1	-5
415.209	1	-6
415.550	1	-14
415.892	1	-3
416.233	1	1
416.575	1	2
416.916	1	-3
417.257	1	0
417.599	1	11
417.940	1	1
418.281	1	4
418.623	1	4
418.964	1	-11
419.305	1	6
419.647	1	-4
419.988	1	-2
420.329	1	-7
420.671	1	4
421.012	1	-3
421.353	1	-7
421.695	1	-5
422.036	1	2
422.377	1	3
422.718	1	14
423.060	1	3
423.401	1	1
423.742	1	4
424.084	1	-1
424.425	1	-1
424.766	1	-1
425.107	1	-6
425.449	1	-10
425.790	1	-3
426.131	1	-1
426.472	1	4
426.814	1	3
427.155	1	-13
427.496	1	-4
427.837	1	4
428.179	1	-3
428.520	1	-3
428.861	1	-4
429.202	1	-2
429.544	1	3
429.885	1	6
430.226	1	-8
430.567	1	-1
430.909	1	-4
431.250	1	-9
431.591	1	6
431.932	1	-3
432.273	1	-7
432.615	1	-10
432.956	1	-11
433.297	1	7
433.638	1	-1
433.979	1	14
434.320	1	4
434.662	1	-4
435.003	1	7
435.344	1	2
435.685	1	-1
436.026	1	8
436.368	1	5
436.709	1	-16
437.050	1	4
437.391	1	8
437.732	1	-6
438.073	1	2
438.414	1	-6
438.756	1	-6
439.097	1	-4
439.438	1	-4
439.779	1	1
440.120	1	3
440.461	1	2
440.802	1	-8
441.143	1	10
441.485	1	0
441.826	1	-12
442.167	1	1
442.508	1	-8
442.849	1	10
443.190	1	1
443.531	1	11
443.872	1	6
444.213	1	-3
444.554	1	10
444.895	1	-6
445.237	1	5
445.578	1	-10
445.919	1	-4
446.260	1	-5
446.601	1	2
446.942	1	8
447.283	1	-4
447.624	1	1
447.965	1	-4
448.306	1	-1
448.647	1	-4
448.988	1	8
449.329	1	-2
449.670	1	11
450.011	1	1
450.352	1	-1
450.693	1	2
451.034	1	-4
451.375	1	2
451.716	1	-3
452.057	1	2
452.398	1	7
452.739	1	2
453.080	1	-9
453.421	1	-8
453.762	1	0
454.103	1	4
454.444	1	-4
454.785	1	-1
455.126	1	-2
455.467	1	1
455.808	1	1
456.149	1	7
456.490	1	1
456.831	1	0
457.172	1	0
457.513	1	10
457.854	1	3
458.195	1	1
458.536	1	1
458.877	1	2
459.218	1	-7
459.559	1	5
459.899	1	-5
460.240	1	7
460.581	1	16
460.922	1	4
461.263	1	-8
461.604	1	-8
461.945	1	3
462.286	1	-1
462.627	1	11
462.968	1	3
463.309	1	-3
463.649	1	-3
463.990	1	0
464.331	1	-4
464.672	1	-2
465.013	1	4
465.354	1	5
465.695	1	1
466.036	1	-5
466.376	1	-3
466.717	1	-3
467.058	1	-2
467.399	1	5
467.740	1	1
468.081	1	4
468.422	1	-7
468.762	1	-4
469.103	1	-9
469.444	1	7
469.785	1	-4
470.126	1	-11
470.467	1	6
470.807	1	5
471.148	1	8
471.489	1	-1
471.830	1	-5
472.171	1	6
472.511	1	1
472.852	1	-3
473.193	1	5
473.534	1	6
473.875	1	13
474.215	1	8
474.556	1	1
474.897	1	6
475.238	1	-3
475.578	1	-4
475.919	1	-5
476.260	1	-7
476.601	1	4
476.942	1	2
477.282	1	3
477.623	1	-10
477.964	1	-12
478.305	1	3
478.645	1	0
478.986	1	2
479.327	1	-9
479.667	1	-1
480.008	1	-1
480.349	1	0
480.690	1	4
481.030	1	5
481.371	1	-3
481.712	1	1
482.053	1	5
482.393	1	-5
482.734	1	-8
483.075	1	3
483.415	1	4
483.756	1	6
484.097	1	0
484.437	1	-5
484.778	1	-1
485.119	1	-7
485.459	1	17
485.800	1	-2
486.141	1	2
486.481	1	4
486.822	1	3
487.163	1	5
487.503	1	3
487.844	1	5
488.185	1	1
488.525	1	-3
488.866	1	0
489.207	1	5
489.547	1	-2
489.888	1	1
490.228	1	1
490.569	1	11
490.910	1	1
491.250	1	-3
491.591	1	-11
491.932	1	-3
492.272	1	0
492.613	1	7
492.953	1	-5
493.294	1	-3
493.635	1	0
493.975	1	-1
494.316	1	-3
494.656	1	5
494.997	1	-4
495.337	1	0
495.678	1	6
496.019	1	-3
496.359	1	-1
496.700	1	-3
497.040	1	-5
497.381	1	-1
497.721	1	-5
498.062	1	8
498.403	1	1
498.743	1	-10
499.084	1	-5
499.424	1	-4
499.765	1	2
500.105	1	-2
500.446	1	-9
500.786	1	-7
501.127	1	2
501.467	1	-8
501.808	1	7
502.148	1	5
502.489	1	0
502.829	1	-1
503.170	1	5
503.510	1	-1
503.851	1	4
504.191	1	3
504.532	1	8
504.872	1	5
505.213	1	6
505.553	1	-8
505.894	1	-7
506.234	1	-3
506.575	1	8
506.915	1	12
507.256	1	4
507.596	1	1
507.936	1	0
508.277	1	-6
508.617	1	7
508.958	1	2
509.298	1	8
509.639	1	-5
509.979	1	3
510.319	1	9
510.660	1	9
511.000	1	-2
511.341	1	2
511.681	1	8
512.022	1	-3
512.362	1	1
512.702	1	-8
513.043	1	13
513.383	1	-6
513.724	1	4
514.064	1	5
514.404	1	1
514.745	1	-5
515.085	1	2
515.425	1	1
515.766	1	-3
516.106	1	7
516.447	1	16
516.787	1	12
517.127	1	-4
517.468	1	2
517.808	1	5
518.148	1	7
518.489	1	0
518.829	1	9
519.169	1	2
519.510	1	1
519.850	1	5
520.190	1	0
520.531	1	11
520.871	1	6
521.211	1	-10
521.552	1	4
521.892	1	1
522.232	1	-5
522.573	1	-1
522.913	1	5
523.253	1	7
523.593	1	8
523.934	1	-6
524.274	1	4
524.614	1	5
524.955	1	-5
525.295	1	1
525.635	1	6
525.975	1	3
526.316	1	9
526.656	1	-1
526.996	1	7
527.337	1	-4
527.677	1	10
528.017	1	-9
528.357	1	2
528.698	1	6
529.038	1	-3
529.378	1	10
529.718	1	14
530.058	1	6
530.399	1	7
530.739	1	-5
531.079	1	2
531.419	1	3
531.760	1	15
532.100	1	-4
532.440	1	3
532.780	1	-1
533.120	1	9
533.461	1	3
533.801	1	20
534.141	1	-8
534.481	1	-5
534.821	1	13
535.162	1	-1
535.502	1	-8
535.842	1	7
536.182	1	8
536.522	1	-10
536.862	1	5
537.203	1	4
537.543	1	11
537.883	1	-4
538.223	1	-5
538.563	1	2
538.903	1	-5
539.243	1	3
539.584	1	0
539.924	1	10
540.264	1	-4
540.604	1	9
540.944	1	1
541.284	1	4
541.624	1	5
541.964	1	11
542.305	1	7
542.645	1	2
542.985	1	3
543.325	1	4
543.665	1	8
544.005	1	14
544.345	1	1
544.685	1	3
545.025	1	-1
545.365	1	2
545.705	1	0
546.045	1	-3
546.386	1	7
546.726	1	-4
547.066	1	7
547.406	1	4
547.746	1	-7
548.086	1	3
548.426	1	-14
548.766	1	0
549.106	1	-3
549.446	1	4
549.786	1	4
550.126	1	4
550.466	1	1
550.806	1	9
551.146	1	4
551.486	1	4
551.826	1	5
552.166	1	0
552.506	1	12
552.846	1	-1
553.186	1	9
553.526	1	-8
553.866	1	8
554.206	1	12
554.546	1	14
554.886	1	6
555.226	1	-8
555.566	1	9
555.906	1	10
556.246	1	5
556.586	1	4
556.926	1	5
557.266	1	0
557.606	1	1
557.946	1	15
558.286	1	-4
558.626	1	13
558.966	1	1
559.306	1	0
559.646	1	-5
559.986	1	-3
560.325	1	-11
560.665	1	3
561.005	1	1
561.345	1	5
561.685	1	-4
562.025	1	-2
562.365	1	7
562.705	1	1
563.045	1	-2
563.385	1	-12
563.725	1	0
564.064	1	4
564.404	1	2
564.744	1	6
565.084	1	3
565.424	1	0
565.764	1	-7
566.104	1	1
566.444	1	1
566.783	1	1
567.123	1	3
567.463	1	5
567.803	1	-4
568.143	1	5
568.483	1	10
568.823	1	13
569.162	1	3
569.502	1	5
569.842	1	7
570.182	1	9
570.522	1	-3
570.862	1	-3
571.201	1	9
571.541	1	0
571.881	1	14
572.221	1	0
572.561	1	-3
572.900	1	-2
573.240	1	12
573.580	1	4
573.920	1	3
574.260	1	13
574.599	1	-6
574.939	1	4
575.279	1	3
575.619	1	6
575.959	1	1
576.298	1	6
576.638	1	3
576.978	1	10
577.318	1	10
577.657	1	-3
577.997	1	-2
578.337	1	9
578.677	1	7
579.016	1	5
579.356	1	-1
579.696	1	7
580.036	1	5
580.375	1	5
580.715	1	3
581.055	1	0
581.394	1	4
581.734	1	-7
582.074	1	-1
582.414	1	3
582.753	1	-3
583.093	1	-1
583.433	1	3
583.772	1	2
584.112	1	5
584.452	1	0
584.791	1	8
585.131	1	-1
585.471	1	9
585.811	1	12
586.150	1	-2
586.490	1	4
586.830	1	8
587.169	1	11
587.509	1	-4
587.849	1	4
588.188	1	18
588.528	1	1
588.867	1	7
589.207	1	7
589.547	1	2
589.886	1	-2
590.226	1	5
590.566	1	1
590.905	1	0
591.245	1	3
591.585	1	1
591.924	1	4
592.264	1	10
592.603	1	9
592.943	1	2
593.283	1	7
593.622	1	3
593.962	1	6
594.301	1	12
594.641	1	7
594.981	1	-2
595.320	1	2
595.660	1	3
595.999	1	-6
596.339	1	-2
596.678	1	-1
597.018	1	2
597.358	1	12
597.697	1	-1
598.037	1	5
598.376	1	1
598.716	1	4
599.055	1	5
599.395	1	3
599.734	1	10
600.074	1	14
600.413	1	13
600.753	1	5
601.092	1	12
601.432	1	1
601.771	1	7
602.111	1	-4
602.451	1	11
602.790	1	-6
603.130	1	13
603.469	1	-8
603.809	1	4
604.148	1	9
604.487	1	1
604.827	1	3
605.166	1	10
605.506	1	4
605.845	1	9
606.185	1	7
606.524	1	-3
606.864	1	-2
607.203	1	-5
607.543	1	-5
607.882	1	7
608.222	1	5
608.561	1	2
608.901	1	3
609.240	1	9
609.579	1	14
609.919	1	10
610.258	1	8
610.598	1	2
610.937	1	2
611.277	1	4
611.616	1	-3
611.955	1	14
612.295	1	-6
612.634	1	-5
612.974	1	-6
613.313	1	7
613.652	1	11
613.992	1	-2
614.331	1	0
614.671	1	-1
615.010	1	-9
615.349	1	7
615.689	1	-1
616.028	1	3
616.368	1	4
616.707	1	1
617.046	1	2
617.386	1	3
617.725	1	0
618.064	1	-4
618.404	1	8
618.743	1	10
619.082	1	4
619.422	1	-8
619.761	1	6
620.100	1	9
620.440	1	5
620.779	1	-5
621.118	1	-6
621.458	1	-1
621.797	1	-13
622.136	1	11
622.476	1	8
622.815	1	8
623.154	1	6
623.494	1	7
623.833	1	11
624.172	1	8
624.511	1	2
624.851	1	-16
625.190	1	0
625.529	1	4
625.869	1	3
626.208	1	2
626.547	1	2
626.886	1	8
627.226	1	2
627.565	1	-4
627.904	1	0
628.243	1	0
628.583	1	-3
628.922	1	9
629.261	1	6
629.600	1	8
629.940	1	-3
630.279	1	-1
630.618	1	-5
630.957	1	1
631.297	1	-5
631.636	1	-2
631.975	1	11
632.314	1	-1
632.653	1	3
632.993	1	-5
633.332	1	-1
633.671	1	-6
634.010	1	4
634.349	1	9
634.689	1	-1
635.028	1	-3
635.367	1	5
635.706	1	3
636.045	1	24
636.384	1	3
636.724	1	-1
637.063	1	-5
637.402	1	2
637.741	1	-6
638.080	1	-5
638.419	1	-6
638.759	1	-7
639.098	1	11
639.437	1	6
639.776	1	-2
640.115	1	2
640.454	1	-8
640.793	1	8
641.132	1	8
641.472	1	5
641.811	1	2
642.150	1	-2
642.489	1	4
642.828	1	4
643.167	1	-5
643.506	1	-6
643.845	1	-2
644.184	1	-3
644.524	1	-1
644.863	1	-6
645.202	1	3
645.541	1	4
645.880	1	4
646.219	1	4
646.558	1	-4
646.897	1	-4
647.236	1	3
647.575	1	1
647.914	1	2
648.253	1	11
648.592	1	0
648.931	1	10
649.270	1	0
649.610	1	-1
649.949	1	4
650.288	1	4
650.627	1	-1
650.966	1	2
651.305	1	3
651.644	1	13
651.983	1	3
652.322	1	-5
652.661	1	-6
653.000	1	0
653.339	1	7
653.678	1	4
654.017	1	-5
654.356	1	-1
654.695	1	3
655.034	1	-2
655.373	1	10
655.712	1	4
656.051	1	5
656.390	1	-7
656.729	1	4
657.068	1	-2
657.406	1	1
657.745	1	11
658.084	1	4
658.423	1	5
658.762	1	-2
659.101	1	18
659.440	1	6
659.779	1	3
660.118	1	4
660.457	1	10
660.796	1	-18
661.135	1	-3
661.474	1	-2
661.813	1	7
662.152	1	7
662.491	1	-1
662.829	1	-6
663.168	1	-1
663.507	1	2
663.846	1	-1
664.185	1	4
664.524	1	11
664.863	1	-5
665.202	1	5
665.541	1	2
665.879	1	-4
666.218	1	-1
666.557	1	0
666.896	1	-11
667.235	1	0
667.574	1	5
667.913	1	4
668.251	1	0
668.590	1	1
668.929	1	-6
669.268	1	-4
669.607	1	-2
669.946	1	-7
670.285	1	2
670.623	1	-1
670.962	1	6
671.301	1	5
671.640	1	1
671.979	1	-3
672.317	1	0
672.656	1	2
672.995	1	9
673.334	1	-4
673.673	1	0
674.011	1	-2
674.350	1	-3
674.689	1	-2
675.028	1	-4
675.367	1	10
675.705	1	3
676.044	1	4
676.383	1	2
676.722	1	11
677.060	1	7
677.399	1	-8
677.738	1	-3
678.077	1	8
678.416	1	4
678.754	1	-5
679.093	1	17
679.432	1	0
679.771	1	0
680.109	1	15
680.448	1	7
680.787	1	-8
681.125	1	2
681.464	1	3
681.803	1	-2
682.142	1	4
682.480	1	0
682.819	1	5
683.158	1	-5
683.496	1	3
683.835	1	-2
684.174	1	0
684.512	1	8
684.851	1	12
685.190	1	1
685.529	1	6
685.867	1	6
686.206	1	-2
686.545	1	-1
686.883	1	1
687.222	1	4
687.561	1	12
687.899	1	4
688.238	1	11
688.577	1	-6
688.746	1	0