File: Data/GaN_200K_800ms/GaN_sample F_spot 12_UVVIS_200 K_200um_800 ms 2x2mm1_241.txt
340.368	1	2
340.710	1	-5
341.052	1	10
341.394	1	-7
341.737	1	10
342.079	1	-9
342.421	1	-2
342.763	1	8
343.105	1	7
343.447	1	-9
343.789	1	0
344.131	1	0
344.473	1	-2
344.815	1	-1
345.157	1	-5
345.499	1	-2
345.841	1	5
346.183	1	-8
346.526	1	-5
346.868	1	7
347.210	1	-5
347.552	1	-3
347.894	1	7
348.236	1	3
348.578	1	-4
348.920	1	-6
349.262	1	-3
349.604	1	4
349.946	1	-11
350.288	1	3
350.630	1	1
350.972	1	-2
351.314	1	-3
351.656	1	3
351.998	1	6
352.340	1	3
352.682	1	3
353.024	1	1
353.366	1	5
353.708	1	3
354.050	1	-4
354.392	1	-9
354.734	1	5
355.076	1	-3
355.418	1	-8
355.760	1	5
356.102	1	12
356.444	1	11
356.785	1	12
357.127	1	-8
357.469	1	-4
357.811	1	2
358.153	1	12
358.495	1	5
358.837	1	-10
359.179	1	11
359.521	1	13
359.863	1	6
360.205	1	0
360.547	1	7
360.889	1	7
361.231	1	2
361.572	1	9
361.914	1	5
362.256	1	10
362.598	1	4
362.940	1	9
363.282	1	11
363.624	1	16
363.966	1	14
364.308	1	9
364.649	1	15
364.991	1	9
365.333	1	15
365.675	1	7
366.017	1	21
366.359	1	19
366.701	1	15
367.042	1	21
367.384	1	22
367.726	1	19
368.068	1	28
368.410	1	38
368.752	1	9
369.093	1	21
369.435	1	35
369.777	1	19
370.119	1	21
370.461	1	37
370.803	1	24
371.144	1	28
371.486	1	28
371.828	1	28
372.170	1	21
372.512	1	19
372.853	1	20
373.195	1	4
373.537	1	19
373.879	1	13
374.220	1	29
374.562	1	26
374.904	1	13
375.246	1	17
375.588	1	22
375.929	1	18
376.271	1	13
376.613	1	7
376.955	1	9
377.296	1	11
377.638	1	14
377.980	1	10
378.321	1	2
378.663	1	7
379.005	1	14
379.347	1	5
379.688	1	9
380.030	1	3
380.372	1	16
380.714	1	13
381.055	1	11
381.397	1	5
381.739	1	9
382.080	1	8
382.422	1	11
382.764	1	-1
383.105	1	-5
383.447	1	-8
383.789	1	2
384.130	1	9
384.472	1	2
384.814	1	11
385.156	1	5
385.497	1	0
385.839	1	5
386.180	1	-4
386.522	1	9
386.864	1	7
387.205	1	1
387.547	1	5
387.889	1	-6
388.230	1	10
388.572	1	-2
388.914	1	-1
389.255	1	1
389.597	1	3
389.939	1	-1
390.280	1	5
390.622	1	1
390.963	1	8
391.305	1	3
391.647	1	4
391.988	1	2
392.330	1	7
392.671	1	2
393.013	1	-5
393.355	1	1
393.696	1	3
394.038	1	5
394.379	1	1
394.721	1	6
395.062	1	4
395.404	1	0
395.746	1	0
396.087	1	-4
396.429	1	1
396.770	1	0
397.112	1	4
397.453	1	13
397.795	1	5
398.136	1	-11
398.478	1	7
398.819	1	1
399.161	1	10
399.503	1	0
399.844	1	2
400.186	1	0
400.527	1	5
400.869	1	-5
401.210	1	-2
401.552	1	-6
401.893	1	2
402.235	1	-6
402.576	1	-4
402.918	1	5
403.259	1	17
403.601	1	-4
403.942	1	11
404.284	1	5
404.625	1	-1
404.967	1	-1
405.308	1	1
405.649	1	-3
405.991	1	-10
406.332	1	6
406.674	1	-14
407.015	1	5
407.357	1	4
407.698	1	12
408.040	1	-13
408.381	1	2
408.722	1	-21
409.064	1	4
409.405	1	8
409.747	1	-6
410.088	1	2
410.430	1	-1
410.771	1	8
411.112	1	7
411.454	1	-2
411.795	1	7
412.137	1	8
412.478	1	20
412.819	1	3
413.161	1	0
413.502	1	-6
413.844	1	9
414.185	1	-2
414.526	1	-1
414.868	1	0
415.209	1	-2
415.550	1	-11
415.892	1	5
416.233	1	10
416.575	1	7
416.916	1	-10
417.257	1	-2
417.599	1	-1
417.940	1	15
418.281	1	-2
418.623	1	-13
418.964	1	-10
419.305	1	8
419.647	1	-9
419.988	1	3
420.329	1	1
420.671	1	10
421.012	1	-5
421.353	1	-1
421.695	1	-8
422.036	1	0
422.377	1	-6
422.718	1	7
423.060	1	-6
423.401	1	8
423.742	1	11
424.084	1	-6
424.425	1	2
424.766	1	-6
425.107	1	-2
425.449	1	6
425.790	1	-10
426.131	1	-5
426.472	1	4
426.814	1	3
427.155	1	-8
427.496	1	-5
427.837	1	-7
428.179	1	-1
428.520	1	2
428.861	1	2
429.202	1	3
429.544	1	-4
429.885	1	0
430.226	1	-7
430.567	1	0
430.909	1	4
431.250	1	-1
431.591	1	1
431.932	1	-4
432.273	1	-6
432.615	1	-4
432.956	1	-10
433.297	1	-6
433.638	1	-10
433.979	1	2
434.320	1	7
434.662	1	3
435.003	1	13
435.344	1	0
435.685	1	1
436.026	1	3
436.368	1	1
436.709	1	-6
437.050	1	5
437.391	1	1
437.732	1	-9
438.073	1	-6
438.414	1	-7
438.756	1	-7
439.097	1	-11
439.438	1	0
439.779	1	2
440.120	1	-3
440.461	1	-4
440.802	1	-3
441.143	1	13
441.485	1	-3
441.826	1	8
442.167	1	1
442.508	1	-5
442.849	1	5
443.190	1	0
443.531	1	11
443.872	1	3
444.213	1	-3
444.554	1	4
444.895	1	-6
445.237	1	0
445.578	1	-5
445.919	1	-6
446.260	1	-10
446.601	1	2
446.942	1	-5
447.283	1	-3
447.624	1	0
447.965	1	-1
448.306	1	7
448.647	1	-12
448.988	1	-2
449.329	1	-2
449.670	1	14
450.011	1	10
450.352	1	5
450.693	1	-7
451.034	1	-6
451.375	1	9
451.716	1	0
452.057	1	-2
452.398	1	2
452.739	1	5
453.080	1	2
453.421	1	3
453.762	1	5
454.103	1	4
454.444	1	-3
454.785	1	2
455.126	1	-5
455.467	1	-1
455.808	1	0
456.149	1	12
456.490	1	2
456.831	1	3
457.172	1	0
457.513	1	5
457.854	1	-1
458.195	1	0
458.536	1	1
458.877	1	5
459.218	1	-3
459.559	1	4
459.899	1	3
460.240	1	1
460.581	1	15
460.922	1	3
461.263	1	-4
461.604	1	-6
461.945	1	4
462.286	1	-3
462.627	1	10
462.968	1	5
463.309	1	0
463.649	1	-7
463.990	1	0
464.331	1	-5
464.672	1	3
465.013	1	-2
465.354	1	-1
465.695	1	-9
466.036	1	-4
466.376	1	-1
466.717	1	9
467.058	1	1
467.399	1	6
467.740	1	7
468.081	1	-5
468.422	1	-9
468.762	1	1
469.103	1	2
469.444	1	-5
469.785	1	-17
470.126	1	-7
470.467	1	2
470.807	1	4
471.148	1	14
471.489	1	4
471.830	1	-6
472.171	1	4
472.511	1	-4
472.852	1	0
473.193	1	0
473.534	1	6
473.875	1	8
474.215	1	5
474.556	1	3
474.897	1	7
475.238	1	1
475.578	1	-5
475.919	1	1
476.260	1	7
476.601	1	7
476.942	1	14
477.282	1	-4
477.623	1	-9
477.964	1	-4
478.305	1	-6
478.645	1	5
478.986	1	-4
479.327	1	-7
479.667	1	-8
480.008	1	-8
480.349	1	6
480.690	1	3
481.030	1	-7
481.371	1	2
481.712	1	1
482.053	1	6
482.393	1	3
482.734	1	-8
483.075	1	6
483.415	1	-3
483.756	1	-4
484.097	1	-8
484.437	1	-7
484.778	1	-5
485.119	1	-3
485.459	1	13
485.800	1	-2
486.141	1	-6
486.481	1	-2
486.822	1	3
487.163	1	1
487.503	1	13
487.844	1	-2
488.185	1	-2
488.525	1	0
488.866	1	3
489.207	1	1
489.547	1	2
489.888	1	0
490.228	1	2
490.569	1	14
490.910	1	-4
491.250	1	3
491.591	1	-7
491.932	1	-6
492.272	1	10
492.613	1	-8
492.953	1	-5
493.294	1	-3
493.635	1	-6
493.975	1	-3
494.316	1	-4
494.656	1	5
494.997	1	-5
495.337	1	4
495.678	1	-3
496.019	1	-2
496.359	1	-2
496.700	1	1
497.040	1	3
497.381	1	-9
497.721	1	5
498.062	1	-2
498.403	1	-2
498.743	1	-1
499.084	1	-4
499.424	1	-1
499.765	1	-1
500.105	1	4
500.446	1	-9
500.786	1	-14
501.127	1	0
501.467	1	7
501.808	1	-2
502.148	1	4
502.489	1	6
502.829	1	13
503.170	1	3
503.510	1	9
503.851	1	-1
504.191	1	13
504.532	1	-1
504.872	1	-9
505.213	1	5
505.553	1	-6
505.894	1	-5
506.234	1	7
506.575	1	14
506.915	1	1
507.256	1	4
507.596	1	8
507.936	1	-1
508.277	1	-5
508.617	1	-4
508.958	1	-2
509.298	1	10
509.639	1	-6
509.979	1	4
510.319	1	1
510.660	1	-2
511.000	1	-11
511.341	1	4
511.681	1	3
512.022	1	-8
512.362	1	0
512.702	1	-1
513.043	1	4
513.383	1	-5
513.724	1	6
514.064	1	3
514.404	1	0
514.745	1	-1
515.085	1	1
515.425	1	-2
515.766	1	-11
516.106	1	8
516.447	1	13
516.787	1	10
517.127	1	-6
517.468	1	6
517.808	1	-2
518.148	1	2
518.489	1	-3
518.829	1	14
519.169	1	3
519.510	1	13
519.850	1	5
520.190	1	-4
520.531	1	-2
520.871	1	1
521.211	1	-13
521.552	1	8
521.892	1	5
522.232	1	-2
522.573	1	-1
522.913	1	0
523.253	1	3
523.593	1	-9
523.934	1	0
524.274	1	1
524.614	1	4
524.955	1	-2
525.295	1	7
525.635	1	4
525.975	1	0
526.316	1	8
526.656	1	-8
526.996	1	4
527.337	1	-5
527.677	1	3
528.017	1	-7
528.357	1	0
528.698	1	-1
529.038	1	2
529.378	1	9
529.718	1	7
530.058	1	9
530.399	1	14
530.739	1	6
531.079	1	2
531.419	1	7
531.760	1	-1
532.100	1	6
532.440	1	-5
532.780	1	-8
533.120	1	5
533.461	1	4
533.801	1	17
534.141	1	-5
534.481	1	-5
534.821	1	9
535.162	1	3
535.502	1	0
535.842	1	9
536.182	1	9
536.522	1	-3
536.862	1	3
537.203	1	-2
537.543	1	8
537.883	1	0
538.223	1	2
538.563	1	-1
538.903	1	-10
539.243	1	-9
539.584	1	-13
539.924	1	8
540.264	1	-3
540.604	1	0
540.944	1	-2
541.284	1	3
541.624	1	13
541.964	1	7
542.305	1	7
542.645	1	5
542.985	1	8
543.325	1	0
543.665	1	6
544.005	1	11
544.345	1	9
544.685	1	-5
545.025	1	0
545.365	1	-2
545.705	1	-2
546.045	1	0
546.386	1	5
546.726	1	-2
547.066	1	4
547.406	1	10
547.746	1	-9
548.086	1	-1
548.426	1	-1
548.766	1	0
549.106	1	7
549.446	1	1
549.786	1	-4
550.126	1	7
550.466	1	6
550.806	1	-2
551.146	1	0
551.486	1	1
551.826	1	7
552.166	1	2
552.506	1	10
552.846	1	1
553.186	1	5
553.526	1	-11
553.866	1	1
554.206	1	13
554.546	1	8
554.886	1	-4
555.226	1	-5
555.566	1	3
555.906	1	3
556.246	1	0
556.586	1	-6
556.926	1	0
557.266	1	-2
557.606	1	4
557.946	1	7
558.286	1	-2
558.626	1	-2
558.966	1	9
559.306	1	-4
559.646	1	-8
559.986	1	-7
560.325	1	-2
560.665	1	2
561.005	1	-5
561.345	1	-1
561.685	1	6
562.025	1	1
562.365	1	8
562.705	1	-1
563.045	1	-5
563.385	1	-7
563.725	1	3
564.064	1	-2
564.404	1	6
564.744	1	2
565.084	1	0
565.424	1	3
565.764	1	-4
566.104	1	-3
566.444	1	-10
566.783	1	-4
567.123	1	-3
567.463	1	4
567.803	1	-8
568.143	1	-4
568.483	1	11
568.823	1	9
569.162	1	10
569.502	1	-2
569.842	1	5
570.182	1	10
570.522	1	-11
570.862	1	5
571.201	1	2
571.541	1	1
571.881	1	13
572.221	1	-11
572.561	1	4
572.900	1	-5
573.240	1	7
573.580	1	0
573.920	1	3
574.260	1	9
574.599	1	7
574.939	1	-2
575.279	1	15
575.619	1	1
575.959	1	-5
576.298	1	17
576.638	1	-5
576.978	1	1
577.318	1	6
577.657	1	3
577.997	1	0
578.337	1	12
578.677	1	6
579.016	1	3
579.356	1	1
579.696	1	6
580.036	1	-4
580.375	1	12
580.715	1	4
581.055	1	1
581.394	1	-1
581.734	1	-9
582.074	1	-3
582.414	1	9
582.753	1	-5
583.093	1	0
583.433	1	0
583.772	1	2
584.112	1	0
584.452	1	1
584.791	1	-5
585.131	1	4
585.471	1	7
585.811	1	6
586.150	1	0
586.490	1	3
586.830	1	-4
587.169	1	4
587.509	1	-13
587.849	1	-2
588.188	1	5
588.528	1	2
588.867	1	11
589.207	1	1
589.547	1	-4
589.886	1	-8
590.226	1	5
590.566	1	6
590.905	1	-2
591.245	1	-2
591.585	1	-3
591.924	1	7
592.264	1	2
592.603	1	0
592.943	1	4
593.283	1	-1
593.622	1	-1
593.962	1	1
594.301	1	13
594.641	1	3
594.981	1	-5
595.320	1	7
595.660	1	-9
595.999	1	-11
596.339	1	6
596.678	1	1
597.018	1	-7
597.358	1	8
597.697	1	-1
598.037	1	4
598.376	1	5
598.716	1	5
599.055	1	9
599.395	1	4
599.734	1	4
600.074	1	7
600.413	1	7
600.753	1	-1
601.092	1	13
601.432	1	-8
601.771	1	3
602.111	1	-1
602.451	1	7
602.790	1	4
603.130	1	1
603.469	1	4
603.809	1	4
604.148	1	9
604.487	1	-5
604.827	1	2
605.166	1	4
605.506	1	2
605.845	1	13
606.185	1	5
606.524	1	-1
606.864	1	1
607.203	1	-5
607.543	1	0
607.882	1	9
608.222	1	10
608.561	1	-4
608.901	1	5
609.240	1	-4
609.579	1	5
609.919	1	4
610.258	1	6
610.598	1	-3
610.937	1	-6
611.277	1	0
611.616	1	-7
611.955	1	9
612.295	1	-6
612.634	1	1
612.974	1	-8
613.313	1	5
613.652	1	2
613.992	1	-4
614.331	1	-4
614.671	1	-3
615.010	1	-12
615.349	1	9
615.689	1	10
616.028	1	-1
616.368	1	9
616.707	1	1
617.046	1	-3
617.386	1	-4
617.725	1	-3
618.064	1	-10
618.404	1	6
618.743	1	7
619.082	1	0
619.422	1	-11
619.761	1	-3
620.100	1	9
620.440	1	-5
620.779	1	-6
621.118	1	-1
621.458	1	-2
621.797	1	-5
622.136	1	6
622.476	1	3
622.815	1	2
623.154	1	7
623.494	1	9
623.833	1	8
624.172	1	-10
624.511	1	3
624.851	1	-6
625.190	1	1
625.529	1	1
625.869	1	4
626.208	1	-3
626.547	1	3
626.886	1	10
627.226	1	1
627.565	1	6
627.904	1	0
628.243	1	8
628.583	1	-7
628.922	1	6
629.261	1	11
629.600	1	14
629.940	1	9
630.279	1	-6
630.618	1	0
630.957	1	6
631.297	1	7
631.636	1	-16
631.975	1	11
632.314	1	-2
632.653	1	11
632.993	1	-8
633.332	1	-1
633.671	1	4
634.010	1	3
634.349	1	7
634.689	1	-1
635.028	1	4
635.367	1	6
635.706	1	1
636.045	1	14
636.384	1	-4
636.724	1	-2
637.063	1	-4
637.402	1	6
637.741	1	2
638.080	1	2
638.419	1	-3
638.759	1	-11
639.098	1	9
639.437	1	12
639.776	1	-10
640.115	1	4
640.454	1	-4
640.793	1	5
641.132	1	7
641.472	1	8
641.811	1	6
642.150	1	-12
642.489	1	7
642.828	1	-3
643.167	1	-6
643.506	1	-14
643.845	1	0
644.184	1	2
644.524	1	-7
644.863	1	-5
645.202	1	3
645.541	1	4
645.880	1	10
646.219	1	-7
646.558	1	0
646.897	1	-3
647.236	1	-1
647.575	1	7
647.914	1	1
648.253	1	20
648.592	1	3
648.931	1	4
649.270	1	-4
649.610	1	1
649.949	1	-4
650.288	1	9
650.627	1	0
650.966	1	3
651.305	1	-1
651.644	1	12
651.983	1	2
652.322	1	-1
652.661	1	-1
653.000	1	-7
653.339	1	12
653.678	1	4
654.017	1	9
654.356	1	2
654.695	1	7
655.034	1	2
655.373	1	12
655.712	1	6
656.051	1	-2
656.390	1	-1
656.729	1	4
657.068	1	3
657.406	1	8
657.745	1	-8
658.084	1	6
658.423	1	7
658.762	1	-5
659.101	1	17
659.440	1	11
659.779	1	5
660.118	1	1
660.457	1	3
660.796	1	-8
661.135	1	-3
661.474	1	0
661.813	1	15
662.152	1	-2
662.491	1	-2
662.829	1	1
663.168	1	3
663.507	1	8
663.846	1	-1
664.185	1	6
664.524	1	6
664.863	1	-13
665.202	1	4
665.541	1	-7
665.879	1	-10
666.218	1	-1
666.557	1	2
666.896	1	-6
667.235	1	1
667.574	1	3
667.913	1	4
668.251	1	5
668.590	1	-7
668.929	1	-14
669.268	1	1
669.607	1	-4
669.946	1	3
670.285	1	0
670.623	1	-3
670.962	1	-4
671.301	1	-1
671.640	1	4
671.979	1	3
672.317	1	6
672.656	1	-9
672.995	1	4
673.334	1	-2
673.673	1	0
674.011	1	-1
674.350	1	2
674.689	1	-2
675.028	1	2
675.367	1	1
675.705	1	1
676.044	1	-6
676.383	1	-3
676.722	1	0
677.060	1	-6
677.399	1	-5
677.738	1	5
678.077	1	6
678.416	1	6
678.754	1	0
679.093	1	6
679.432	1	-9
679.771	1	-4
680.109	1	5
680.448	1	3
680.787	1	-3
681.125	1	0
681.464	1	-5
681.803	1	3
682.142	1	7
682.480	1	12
682.819	1	0
683.158	1	2
683.496	1	2
683.835	1	8
684.174	1	-2
684.512	1	3
684.851	1	2
685.190	1	-2
685.529	1	0
685.867	1	5
686.206	1	1
686.545	1	-4
686.883	1	2
687.222	1	2
687.561	1	5
687.899	1	-8
688.238	1	6
688.577	1	0
688.746	1	-2