File: Data/GaN_200K_800ms/GaN_sample F_spot 12_UVVIS_200 K_200um_800 ms 2x2mm1_71.txt
340.368	1	3
340.710	1	-3
341.052	1	15
341.394	1	2
341.737	1	1
342.079	1	-5
342.421	1	1
342.763	1	7
343.105	1	10
343.447	1	1
343.789	1	6
344.131	1	-4
344.473	1	3
344.815	1	3
345.157	1	1
345.499	1	-1
345.841	1	9
346.183	1	1
346.526	1	1
346.868	1	17
347.210	1	6
347.552	1	4
347.894	1	5
348.236	1	10
348.578	1	11
348.920	1	-1
349.262	1	5
349.604	1	11
349.946	1	9
350.288	1	12
350.630	1	2
350.972	1	13
351.314	1	24
351.656	1	10
351.998	1	8
352.340	1	15
352.682	1	11
353.024	1	12
353.366	1	24
353.708	1	14
354.050	1	3
354.392	1	7
354.734	1	15
355.076	1	16
355.418	1	5
355.760	1	8
356.102	1	27
356.444	1	18
356.785	1	17
357.127	1	16
357.469	1	20
357.811	1	15
358.153	1	24
358.495	1	20
358.837	1	21
359.179	1	21
359.521	1	32
359.863	1	35
360.205	1	32
360.547	1	43
360.889	1	29
361.231	1	40
361.572	1	54
361.914	1	41
362.256	1	37
362.598	1	49
362.940	1	58
363.282	1	66
363.624	1	78
363.966	1	64
364.308	1	82
364.649	1	87
364.991	1	98
365.333	1	99
365.675	1	99
366.017	1	114
366.359	1	132
366.701	1	141
367.042	1	157
367.384	1	144
367.726	1	167
368.068	1	163
368.410	1	191
368.752	1	175
369.093	1	170
369.435	1	181
369.777	1	184
370.119	1	194
370.461	1	206
370.803	1	189
371.144	1	178
371.486	1	178
371.828	1	171
372.170	1	159
372.512	1	152
372.853	1	152
373.195	1	133
373.537	1	128
373.879	1	119
374.220	1	117
374.562	1	119
374.904	1	116
375.246	1	112
375.588	1	108
375.929	1	104
376.271	1	91
376.613	1	88
376.955	1	62
377.296	1	75
377.638	1	78
377.980	1	80
378.321	1	63
378.663	1	63
379.005	1	72
379.347	1	60
379.688	1	65
380.030	1	57
380.372	1	54
380.714	1	50
381.055	1	59
381.397	1	42
381.739	1	62
382.080	1	51
382.422	1	42
382.764	1	45
383.105	1	43
383.447	1	36
383.789	1	34
384.130	1	33
384.472	1	40
384.814	1	27
385.156	1	34
385.497	1	31
385.839	1	27
386.180	1	34
386.522	1	34
386.864	1	27
387.205	1	25
387.547	1	20
387.889	1	22
388.230	1	28
388.572	1	13
388.914	1	32
389.255	1	13
389.597	1	27
389.939	1	12
390.280	1	20
390.622	1	26
390.963	1	28
391.305	1	23
391.647	1	16
391.988	1	22
392.330	1	22
392.671	1	7
393.013	1	17
393.355	1	16
393.696	1	16
394.038	1	9
394.379	1	11
394.721	1	11
395.062	1	20
395.404	1	-8
395.746	1	18
396.087	1	11
396.429	1	9
396.770	1	16
397.112	1	10
397.453	1	18
397.795	1	9
398.136	1	7
398.478	1	14
398.819	1	11
399.161	1	23
399.503	1	8
399.844	1	9
400.186	1	5
400.527	1	4
400.869	1	8
401.210	1	10
401.552	1	-2
401.893	1	2
402.235	1	16
402.576	1	6
402.918	1	16
403.259	1	13
403.601	1	5
403.942	1	18
404.284	1	13
404.625	1	6
404.967	1	9
405.308	1	11
405.649	1	-1
405.991	1	9
406.332	1	1
406.674	1	8
407.015	1	13
407.357	1	8
407.698	1	16
408.040	1	-3
408.381	1	4
408.722	1	-3
409.064	1	4
409.405	1	20
409.747	1	-6
410.088	1	4
410.430	1	14
410.771	1	7
411.112	1	7
411.454	1	3
411.795	1	0
412.137	1	13
412.478	1	15
412.819	1	3
413.161	1	0
413.502	1	8
413.844	1	8
414.185	1	17
414.526	1	2
414.868	1	2
415.209	1	5
415.550	1	-1
415.892	1	5
416.233	1	8
416.575	1	16
416.916	1	-1
417.257	1	-1
417.599	1	2
417.940	1	18
418.281	1	3
418.623	1	8
418.964	1	-8
419.305	1	2
419.647	1	4
419.988	1	5
420.329	1	0
420.671	1	8
421.012	1	6
421.353	1	-7
421.695	1	-1
422.036	1	4
422.377	1	-2
422.718	1	9
423.060	1	-9
423.401	1	4
423.742	1	11
424.084	1	4
424.425	1	9
424.766	1	1
425.107	1	-9
425.449	1	9
425.790	1	-11
426.131	1	2
426.472	1	-3
426.814	1	17
427.155	1	-1
427.496	1	-2
427.837	1	-8
428.179	1	-6
428.520	1	-7
428.861	1	4
429.202	1	2
429.544	1	5
429.885	1	10
430.226	1	1
430.567	1	9
430.909	1	1
431.250	1	-4
431.591	1	20
431.932	1	2
432.273	1	-2
432.615	1	4
432.956	1	-1
433.297	1	7
433.638	1	-1
433.979	1	9
434.320	1	12
434.662	1	6
435.003	1	3
435.344	1	3
435.685	1	-3
436.026	1	5
436.368	1	5
436.709	1	0
437.050	1	-7
437.391	1	3
437.732	1	-4
438.073	1	7
438.414	1	4
438.756	1	-4
439.097	1	-2
439.438	1	3
439.779	1	-2
440.120	1	-1
440.461	1	-2
440.802	1	-5
441.143	1	7
441.485	1	6
441.826	1	11
442.167	1	-3
442.508	1	3
442.849	1	14
443.190	1	6
443.531	1	17
443.872	1	9
444.213	1	-2
444.554	1	14
444.895	1	-1
445.237	1	1
445.578	1	-9
445.919	1	5
446.260	1	1
446.601	1	6
446.942	1	5
447.283	1	-2
447.624	1	0
447.965	1	-4
448.306	1	3
448.647	1	-6
448.988	1	-5
449.329	1	3
449.670	1	15
450.011	1	7
450.352	1	-4
450.693	1	6
451.034	1	-3
451.375	1	-2
451.716	1	-3
452.057	1	15
452.398	1	4
452.739	1	6
453.080	1	1
453.421	1	1
453.762	1	4
454.103	1	10
454.444	1	-7
454.785	1	1
455.126	1	-9
455.467	1	4
455.808	1	1
456.149	1	2
456.490	1	10
456.831	1	13
457.172	1	5
457.513	1	13
457.854	1	7
458.195	1	-5
458.536	1	2
458.877	1	2
459.218	1	-8
459.559	1	11
459.899	1	4
460.240	1	7
460.581	1	14
460.922	1	3
461.263	1	-1
461.604	1	2
461.945	1	3
462.286	1	-2
462.627	1	7
462.968	1	9
463.309	1	-4
463.649	1	4
463.990	1	4
464.331	1	-2
464.672	1	6
465.013	1	2
465.354	1	3
465.695	1	2
466.036	1	0
466.376	1	3
466.717	1	5
467.058	1	7
467.399	1	14
467.740	1	-6
468.081	1	13
468.422	1	-1
468.762	1	-7
469.103	1	4
469.444	1	-8
469.785	1	-11
470.126	1	-12
470.467	1	4
470.807	1	6
471.148	1	5
471.489	1	3
471.830	1	-2
472.171	1	2
472.511	1	1
472.852	1	1
473.193	1	7
473.534	1	11
473.875	1	23
474.215	1	9
474.556	1	12
474.897	1	8
475.238	1	0
475.578	1	-4
475.919	1	9
476.260	1	-2
476.601	1	-4
476.942	1	12
477.282	1	-1
477.623	1	0
477.964	1	1
478.305	1	9
478.645	1	4
478.986	1	0
479.327	1	-3
479.667	1	10
480.008	1	3
480.349	1	2
480.690	1	3
481.030	1	-4
481.371	1	7
481.712	1	7
482.053	1	8
482.393	1	7
482.734	1	-3
483.075	1	1
483.415	1	4
483.756	1	7
484.097	1	0
484.437	1	4
484.778	1	6
485.119	1	-11
485.459	1	17
485.800	1	-5
486.141	1	1
486.481	1	3
486.822	1	4
487.163	1	-6
487.503	1	0
487.844	1	1
488.185	1	2
488.525	1	7
488.866	1	5
489.207	1	6
489.547	1	-1
489.888	1	0
490.228	1	7
490.569	1	16
490.910	1	9
491.250	1	6
491.591	1	-3
491.932	1	-2
492.272	1	18
492.613	1	-3
492.953	1	-3
493.294	1	2
493.635	1	1
493.975	1	-1
494.316	1	14
494.656	1	7
494.997	1	2
495.337	1	15
495.678	1	8
496.019	1	6
496.359	1	7
496.700	1	1
497.040	1	1
497.381	1	7
497.721	1	9
498.062	1	1
498.403	1	3
498.743	1	8
499.084	1	10
499.424	1	11
499.765	1	0
500.105	1	10
500.446	1	5
500.786	1	5
501.127	1	16
501.467	1	4
501.808	1	8
502.148	1	11
502.489	1	4
502.829	1	-1
503.170	1	15
503.510	1	12
503.851	1	2
504.191	1	19
504.532	1	13
504.872	1	9
505.213	1	12
505.553	1	1
505.894	1	10
506.234	1	24
506.575	1	17
506.915	1	10
507.256	1	20
507.596	1	12
507.936	1	6
508.277	1	9
508.617	1	7
508.958	1	5
509.298	1	5
509.639	1	8
509.979	1	6
510.319	1	11
510.660	1	6
511.000	1	5
511.341	1	12
511.681	1	8
512.022	1	0
512.362	1	4
512.702	1	6
513.043	1	22
513.383	1	9
513.724	1	12
514.064	1	19
514.404	1	12
514.745	1	13
515.085	1	10
515.425	1	6
515.766	1	11
516.106	1	5
516.447	1	16
516.787	1	9
517.127	1	6
517.468	1	19
517.808	1	9
518.148	1	9
518.489	1	7
518.829	1	27
519.169	1	9
519.510	1	8
519.850	1	25
520.190	1	10
520.531	1	7
520.871	1	7
521.211	1	2
521.552	1	25
521.892	1	14
522.232	1	20
522.573	1	21
522.913	1	22
523.253	1	23
523.593	1	9
523.934	1	18
524.274	1	13
524.614	1	14
524.955	1	5
525.295	1	17
525.635	1	11
525.975	1	17
526.316	1	22
526.656	1	16
526.996	1	13
527.337	1	10
527.677	1	21
528.017	1	12
528.357	1	10
528.698	1	17
529.038	1	18
529.378	1	20
529.718	1	11
530.058	1	13
530.399	1	24
530.739	1	20
531.079	1	24
531.419	1	23
531.760	1	22
532.100	1	19
532.440	1	17
532.780	1	13
533.120	1	28
533.461	1	10
533.801	1	39
534.141	1	13
534.481	1	7
534.821	1	26
535.162	1	12
535.502	1	7
535.842	1	19
536.182	1	15
536.522	1	12
536.862	1	29
537.203	1	17
537.543	1	18
537.883	1	14
538.223	1	19
538.563	1	26
538.903	1	7
539.243	1	25
539.584	1	7
539.924	1	19
540.264	1	20
540.604	1	19
540.944	1	14
541.284	1	34
541.624	1	24
541.964	1	20
542.305	1	22
542.645	1	14
542.985	1	24
543.325	1	20
543.665	1	15
544.005	1	27
544.345	1	25
544.685	1	16
545.025	1	16
545.365	1	8
545.705	1	17
546.045	1	11
546.386	1	21
546.726	1	19
547.066	1	23
547.406	1	18
547.746	1	10
548.086	1	16
548.426	1	21
548.766	1	14
549.106	1	20
549.446	1	26
549.786	1	11
550.126	1	31
550.466	1	25
550.806	1	26
551.146	1	23
551.486	1	23
551.826	1	26
552.166	1	21
552.506	1	32
552.846	1	19
553.186	1	31
553.526	1	16
553.866	1	29
554.206	1	19
554.546	1	26
554.886	1	21
555.226	1	11
555.566	1	30
555.906	1	24
556.246	1	13
556.586	1	30
556.926	1	23
557.266	1	9
557.606	1	25
557.946	1	34
558.286	1	21
558.626	1	23
558.966	1	17
559.306	1	11
559.646	1	18
559.986	1	15
560.325	1	10
560.665	1	26
561.005	1	15
561.345	1	20
561.685	1	24
562.025	1	24
562.365	1	21
562.705	1	7
563.045	1	18
563.385	1	12
563.725	1	25
564.064	1	20
564.404	1	16
564.744	1	21
565.084	1	20
565.424	1	24
565.764	1	17
566.104	1	20
566.444	1	18
566.783	1	13
567.123	1	22
567.463	1	24
567.803	1	8
568.143	1	19
568.483	1	24
568.823	1	22
569.162	1	19
569.502	1	16
569.842	1	21
570.182	1	17
570.522	1	8
570.862	1	33
571.201	1	24
571.541	1	24
571.881	1	36
572.221	1	16
572.561	1	19
572.900	1	22
573.240	1	14
573.580	1	13
573.920	1	16
574.260	1	36
574.599	1	16
574.939	1	26
575.279	1	29
575.619	1	28
575.959	1	12
576.298	1	26
576.638	1	7
576.978	1	23
577.318	1	16
577.657	1	11
577.997	1	20
578.337	1	31
578.677	1	13
579.016	1	30
579.356	1	17
579.696	1	13
580.036	1	9
580.375	1	19
580.715	1	23
581.055	1	27
581.394	1	16
581.734	1	16
582.074	1	18
582.414	1	30
582.753	1	15
583.093	1	28
583.433	1	20
583.772	1	27
584.112	1	17
584.452	1	13
584.791	1	13
585.131	1	19
585.471	1	29
585.811	1	19
586.150	1	14
586.490	1	28
586.830	1	13
587.169	1	35
587.509	1	27
587.849	1	25
588.188	1	21
588.528	1	12
588.867	1	26
589.207	1	21
589.547	1	17
589.886	1	11
590.226	1	23
590.566	1	10
590.905	1	15
591.245	1	10
591.585	1	32
591.924	1	15
592.264	1	14
592.603	1	15
592.943	1	8
593.283	1	12
593.622	1	18
593.962	1	19
594.301	1	22
594.641	1	18
594.981	1	3
595.320	1	26
595.660	1	17
595.999	1	-1
596.339	1	12
596.678	1	12
597.018	1	12
597.358	1	9
597.697	1	10
598.037	1	13
598.376	1	13
598.716	1	21
599.055	1	16
599.395	1	11
599.734	1	16
600.074	1	18
600.413	1	21
600.753	1	16
601.092	1	23
601.432	1	4
601.771	1	17
602.111	1	16
602.451	1	15
602.790	1	18
603.130	1	15
603.469	1	8
603.809	1	17
604.148	1	17
604.487	1	14
604.827	1	22
605.166	1	14
605.506	1	16
605.845	1	13
606.185	1	18
606.524	1	11
606.864	1	11
607.203	1	7
607.543	1	1
607.882	1	21
608.222	1	15
608.561	1	19
608.901	1	12
609.240	1	13
609.579	1	20
609.919	1	23
610.258	1	29
610.598	1	4
610.937	1	6
611.277	1	21
611.616	1	13
611.955	1	15
612.295	1	22
612.634	1	8
612.974	1	-1
613.313	1	20
613.652	1	18
613.992	1	2
614.331	1	12
614.671	1	20
615.010	1	1
615.349	1	12
615.689	1	20
616.028	1	14
616.368	1	12
616.707	1	10
617.046	1	9
617.386	1	23
617.725	1	14
618.064	1	3
618.404	1	9
618.743	1	20
619.082	1	8
619.422	1	6
619.761	1	17
620.100	1	18
620.440	1	7
620.779	1	6
621.118	1	6
621.458	1	7
621.797	1	11
622.136	1	20
622.476	1	18
622.815	1	10
623.154	1	15
623.494	1	15
623.833	1	17
624.172	1	15
624.511	1	7
624.851	1	5
625.190	1	20
625.529	1	17
625.869	1	28
626.208	1	2
626.547	1	14
626.886	1	15
627.226	1	14
627.565	1	12
627.904	1	5
628.243	1	7
628.583	1	5
628.922	1	17
629.261	1	14
629.600	1	27
629.940	1	12
630.279	1	5
630.618	1	1
630.957	1	3
631.297	1	5
631.636	1	4
631.975	1	22
632.314	1	15
632.653	1	9
632.993	1	8
633.332	1	2
633.671	1	5
634.010	1	2
634.349	1	18
634.689	1	7
635.028	1	13
635.367	1	9
635.706	1	15
636.045	1	18
636.384	1	16
636.724	1	3
637.063	1	2
637.402	1	10
637.741	1	4
638.080	1	11
638.419	1	7
638.759	1	6
639.098	1	6
639.437	1	10
639.776	1	3
640.115	1	9
640.454	1	-1
640.793	1	16
641.132	1	12
641.472	1	12
641.811	1	6
642.150	1	-4
642.489	1	11
642.828	1	1
643.167	1	4
643.506	1	5
643.845	1	0
644.184	1	9
644.524	1	10
644.863	1	-1
645.202	1	1
645.541	1	12
645.880	1	20
646.219	1	11
646.558	1	8
646.897	1	7
647.236	1	14
647.575	1	11
647.914	1	7
648.253	1	9
648.592	1	5
648.931	1	8
649.270	1	17
649.610	1	13
649.949	1	6
650.288	1	21
650.627	1	14
650.966	1	4
651.305	1	8
651.644	1	17
651.983	1	13
652.322	1	2
652.661	1	7
653.000	1	7
653.339	1	10
653.678	1	3
654.017	1	3
654.356	1	3
654.695	1	7
655.034	1	10
655.373	1	18
655.712	1	2
656.051	1	4
656.390	1	-1
656.729	1	15
657.068	1	7
657.406	1	8
657.745	1	1
658.084	1	13
658.423	1	18
658.762	1	2
659.101	1	19
659.440	1	4
659.779	1	7
660.118	1	12
660.457	1	12
660.796	1	-1
661.135	1	1
661.474	1	10
661.813	1	16
662.152	1	7
662.491	1	6
662.829	1	-2
663.168	1	8
663.507	1	23
663.846	1	0
664.185	1	11
664.524	1	10
664.863	1	-5
665.202	1	10
665.541	1	3
665.879	1	-2
666.218	1	5
666.557	1	0
666.896	1	-1
667.235	1	9
667.574	1	-4
667.913	1	13
668.251	1	7
668.590	1	11
668.929	1	-6
669.268	1	-1
669.607	1	7
669.946	1	9
670.285	1	7
670.623	1	7
670.962	1	10
671.301	1	3
671.640	1	10
671.979	1	14
672.317	1	6
672.656	1	4
672.995	1	13
673.334	1	6
673.673	1	13
674.011	1	9
674.350	1	13
674.689	1	3
675.028	1	0
675.367	1	10
675.705	1	16
676.044	1	7
676.383	1	16
676.722	1	11
677.060	1	3
677.399	1	6
677.738	1	11
678.077	1	12
678.416	1	10
678.754	1	9
679.093	1	8
679.432	1	7
679.771	1	1
680.109	1	9
680.448	1	12
680.787	1	11
681.125	1	9
681.464	1	12
681.803	1	3
682.142	1	23
682.480	1	20
682.819	1	6
683.158	1	1
683.496	1	16
683.835	1	6
684.174	1	10
684.512	1	14
684.851	1	9
685.190	1	4
685.529	1	14
685.867	1	6
686.206	1	-3
686.545	1	-2
686.883	1	5
687.222	1	13
687.561	1	5
687.899	1	7
688.238	1	13
688.577	1	8
688.746	1	9