File: Data/GaN_200K_800ms/GaN_sample F_spot 12_UVVIS_200 K_200um_800 ms 2x2mm1_525.txt
340.368	1	-1
340.710	1	-8
341.052	1	2
341.394	1	-2
341.737	1	2
342.079	1	-11
342.421	1	1
342.763	1	9
343.105	1	1
343.447	1	-9
343.789	1	0
344.131	1	7
344.473	1	-4
344.815	1	-7
345.157	1	0
345.499	1	3
345.841	1	6
346.183	1	-8
346.526	1	-2
346.868	1	4
347.210	1	-3
347.552	1	-6
347.894	1	-5
348.236	1	2
348.578	1	-2
348.920	1	-8
349.262	1	-6
349.604	1	2
349.946	1	-11
350.288	1	2
350.630	1	1
350.972	1	-1
351.314	1	-4
351.656	1	5
351.998	1	-5
352.340	1	-1
352.682	1	2
353.024	1	-4
353.366	1	6
353.708	1	-4
354.050	1	-7
354.392	1	-6
354.734	1	-14
355.076	1	-7
355.418	1	-9
355.760	1	-12
356.102	1	3
356.444	1	-4
356.785	1	5
357.127	1	-3
357.469	1	-2
357.811	1	0
358.153	1	2
358.495	1	3
358.837	1	-9
359.179	1	-2
359.521	1	2
359.863	1	-2
360.205	1	-7
360.547	1	3
360.889	1	-12
361.231	1	1
361.572	1	5
361.914	1	5
362.256	1	5
362.598	1	-4
362.940	1	-1
363.282	1	2
363.624	1	10
363.966	1	1
364.308	1	3
364.649	1	2
364.991	1	6
365.333	1	3
365.675	1	-3
366.017	1	-5
366.359	1	6
366.701	1	0
367.042	1	9
367.384	1	8
367.726	1	6
368.068	1	4
368.410	1	19
368.752	1	7
369.093	1	-3
369.435	1	7
369.777	1	6
370.119	1	0
370.461	1	19
370.803	1	0
371.144	1	0
371.486	1	7
371.828	1	4
372.170	1	11
372.512	1	1
372.853	1	7
373.195	1	4
373.537	1	-2
373.879	1	-1
374.220	1	17
374.562	1	14
374.904	1	8
375.246	1	8
375.588	1	8
375.929	1	12
376.271	1	3
376.613	1	-7
376.955	1	-10
377.296	1	-6
377.638	1	5
377.980	1	5
378.321	1	-9
378.663	1	-2
379.005	1	11
379.347	1	8
379.688	1	7
380.030	1	0
380.372	1	1
380.714	1	3
381.055	1	7
381.397	1	2
381.739	1	1
382.080	1	4
382.422	1	0
382.764	1	-5
383.105	1	-2
383.447	1	-13
383.789	1	1
384.130	1	2
384.472	1	-2
384.814	1	1
385.156	1	-2
385.497	1	4
385.839	1	-6
386.180	1	6
386.522	1	8
386.864	1	10
387.205	1	2
387.547	1	-9
387.889	1	-9
388.230	1	8
388.572	1	2
388.914	1	4
389.255	1	-13
389.597	1	-4
389.939	1	6
390.280	1	3
390.622	1	1
390.963	1	9
391.305	1	-2
391.647	1	-4
391.988	1	1
392.330	1	0
392.671	1	-4
393.013	1	-4
393.355	1	7
393.696	1	9
394.038	1	2
394.379	1	3
394.721	1	-9
395.062	1	-1
395.404	1	-3
395.746	1	9
396.087	1	-5
396.429	1	5
396.770	1	6
397.112	1	5
397.453	1	4
397.795	1	1
398.136	1	-7
398.478	1	-2
398.819	1	1
399.161	1	17
399.503	1	-3
399.844	1	-6
400.186	1	-7
400.527	1	-4
400.869	1	2
401.210	1	4
401.552	1	-10
401.893	1	1
402.235	1	-6
402.576	1	-6
402.918	1	10
403.259	1	3
403.601	1	1
403.942	1	12
404.284	1	10
404.625	1	0
404.967	1	1
405.308	1	-4
405.649	1	0
405.991	1	-7
406.332	1	-4
406.674	1	-8
407.015	1	3
407.357	1	-12
407.698	1	3
408.040	1	-6
408.381	1	3
408.722	1	-12
409.064	1	-1
409.405	1	3
409.747	1	0
410.088	1	11
410.430	1	11
410.771	1	-5
411.112	1	4
411.454	1	-7
411.795	1	0
412.137	1	-4
412.478	1	12
412.819	1	-2
413.161	1	-3
413.502	1	-2
413.844	1	4
414.185	1	0
414.526	1	-3
414.868	1	0
415.209	1	-2
415.550	1	-1
415.892	1	0
416.233	1	-1
416.575	1	8
416.916	1	-17
417.257	1	-3
417.599	1	12
417.940	1	15
418.281	1	7
418.623	1	-10
418.964	1	-15
419.305	1	6
419.647	1	-1
419.988	1	-2
420.329	1	-7
420.671	1	10
421.012	1	6
421.353	1	-3
421.695	1	0
422.036	1	-2
422.377	1	0
422.718	1	11
423.060	1	5
423.401	1	0
423.742	1	7
424.084	1	-3
424.425	1	-2
424.766	1	-1
425.107	1	-8
425.449	1	-5
425.790	1	-11
426.131	1	-7
426.472	1	-2
426.814	1	1
427.155	1	-6
427.496	1	1
427.837	1	-5
428.179	1	-11
428.520	1	-1
428.861	1	-7
429.202	1	3
429.544	1	-2
429.885	1	-4
430.226	1	-1
430.567	1	-8
430.909	1	8
431.250	1	2
431.591	1	-1
431.932	1	-4
432.273	1	-4
432.615	1	-7
432.956	1	-8
433.297	1	0
433.638	1	-1
433.979	1	4
434.320	1	3
434.662	1	0
435.003	1	-3
435.344	1	-9
435.685	1	-7
436.026	1	-3
436.368	1	-4
436.709	1	-8
437.050	1	-12
437.391	1	3
437.732	1	2
438.073	1	-3
438.414	1	-12
438.756	1	-1
439.097	1	-6
439.438	1	-6
439.779	1	-1
440.120	1	-3
440.461	1	1
440.802	1	-7
441.143	1	13
441.485	1	2
441.826	1	8
442.167	1	-6
442.508	1	-9
442.849	1	10
443.190	1	6
443.531	1	0
443.872	1	3
444.213	1	-7
444.554	1	8
444.895	1	-4
445.237	1	-6
445.578	1	-8
445.919	1	-14
446.260	1	-3
446.601	1	-6
446.942	1	1
447.283	1	-6
447.624	1	8
447.965	1	-2
448.306	1	2
448.647	1	-7
448.988	1	-10
449.329	1	-7
449.670	1	-1
450.011	1	8
450.352	1	-5
450.693	1	-21
451.034	1	-10
451.375	1	-3
451.716	1	-4
452.057	1	-9
452.398	1	1
452.739	1	1
453.080	1	2
453.421	1	0
453.762	1	5
454.103	1	4
454.444	1	-12
454.785	1	-9
455.126	1	-5
455.467	1	4
455.808	1	1
456.149	1	1
456.490	1	-1
456.831	1	12
457.172	1	-9
457.513	1	6
457.854	1	-1
458.195	1	-6
458.536	1	9
458.877	1	-2
459.218	1	-4
459.559	1	-3
459.899	1	-6
460.240	1	3
460.581	1	16
460.922	1	1
461.263	1	-1
461.604	1	-7
461.945	1	3
462.286	1	-5
462.627	1	4
462.968	1	2
463.309	1	-4
463.649	1	-4
463.990	1	-7
464.331	1	-4
464.672	1	-4
465.013	1	3
465.354	1	-2
465.695	1	-7
466.036	1	-8
466.376	1	-13
466.717	1	4
467.058	1	-4
467.399	1	4
467.740	1	-3
468.081	1	2
468.422	1	2
468.762	1	1
469.103	1	-8
469.444	1	-12
469.785	1	-19
470.126	1	-25
470.467	1	-7
470.807	1	-2
471.148	1	-1
471.489	1	-2
471.830	1	-8
472.171	1	2
472.511	1	-15
472.852	1	-3
473.193	1	5
473.534	1	6
473.875	1	8
474.215	1	9
474.556	1	3
474.897	1	-2
475.238	1	-3
475.578	1	-11
475.919	1	-5
476.260	1	-2
476.601	1	-2
476.942	1	4
477.282	1	-2
477.623	1	-11
477.964	1	8
478.305	1	3
478.645	1	7
478.986	1	0
479.327	1	-6
479.667	1	-3
480.008	1	-9
480.349	1	-16
480.690	1	1
481.030	1	-9
481.371	1	-3
481.712	1	-12
482.053	1	0
482.393	1	-4
482.734	1	-7
483.075	1	5
483.415	1	7
483.756	1	0
484.097	1	-2
484.437	1	-10
484.778	1	11
485.119	1	-12
485.459	1	5
485.800	1	-9
486.141	1	-4
486.481	1	0
486.822	1	7
487.163	1	2
487.503	1	-3
487.844	1	-8
488.185	1	-5
488.525	1	-5
488.866	1	-8
489.207	1	-6
489.547	1	0
489.888	1	-4
490.228	1	3
490.569	1	2
490.910	1	-4
491.250	1	-4
491.591	1	-12
491.932	1	-4
492.272	1	-1
492.613	1	-12
492.953	1	-3
493.294	1	-7
493.635	1	7
493.975	1	-8
494.316	1	4
494.656	1	-5
494.997	1	-4
495.337	1	7
495.678	1	-8
496.019	1	1
496.359	1	-7
496.700	1	-1
497.040	1	-4
497.381	1	-9
497.721	1	-2
498.062	1	-8
498.403	1	-1
498.743	1	0
499.084	1	-8
499.424	1	-2
499.765	1	-4
500.105	1	3
500.446	1	-5
500.786	1	-4
501.127	1	0
501.467	1	-15
501.808	1	4
502.148	1	1
502.489	1	-3
502.829	1	-1
503.170	1	7
503.510	1	5
503.851	1	0
504.191	1	4
504.532	1	7
504.872	1	2
505.213	1	1
505.553	1	-5
505.894	1	-1
506.234	1	7
506.575	1	4
506.915	1	5
507.256	1	-1
507.596	1	4
507.936	1	3
508.277	1	0
508.617	1	-6
508.958	1	-20
509.298	1	1
509.639	1	-11
509.979	1	-11
510.319	1	-3
510.660	1	-11
511.000	1	-16
511.341	1	-2
511.681	1	7
512.022	1	-8
512.362	1	-6
512.702	1	-10
513.043	1	-1
513.383	1	-16
513.724	1	-3
514.064	1	13
514.404	1	-9
514.745	1	-8
515.085	1	-6
515.425	1	3
515.766	1	-6
516.106	1	1
516.447	1	15
516.787	1	3
517.127	1	2
517.468	1	5
517.808	1	-1
518.148	1	12
518.489	1	-6
518.829	1	3
519.169	1	3
519.510	1	-3
519.850	1	6
520.190	1	1
520.531	1	2
520.871	1	1
521.211	1	-11
521.552	1	3
521.892	1	0
522.232	1	1
522.573	1	-9
522.913	1	10
523.253	1	-5
523.593	1	-2
523.934	1	-1
524.274	1	-3
524.614	1	-4
524.955	1	-6
525.295	1	2
525.635	1	4
525.975	1	2
526.316	1	5
526.656	1	-5
526.996	1	0
527.337	1	0
527.677	1	-1
528.017	1	-12
528.357	1	-2
528.698	1	3
529.038	1	0
529.378	1	1
529.718	1	2
530.058	1	0
530.399	1	4
530.739	1	11
531.079	1	0
531.419	1	5
531.760	1	3
532.100	1	-1
532.440	1	-4
532.780	1	-4
533.120	1	0
533.461	1	2
533.801	1	11
534.141	1	-13
534.481	1	-18
534.821	1	-1
535.162	1	-10
535.502	1	-15
535.842	1	8
536.182	1	0
536.522	1	-1
536.862	1	5
537.203	1	-8
537.543	1	-1
537.883	1	-4
538.223	1	1
538.563	1	1
538.903	1	-1
539.243	1	6
539.584	1	-7
539.924	1	15
540.264	1	-12
540.604	1	0
540.944	1	-3
541.284	1	3
541.624	1	13
541.964	1	0
542.305	1	9
542.645	1	-1
542.985	1	6
543.325	1	4
543.665	1	11
544.005	1	12
544.345	1	0
544.685	1	-1
545.025	1	-4
545.365	1	3
545.705	1	2
546.045	1	-14
546.386	1	11
546.726	1	-12
547.066	1	-2
547.406	1	-4
547.746	1	-12
548.086	1	-1
548.426	1	-3
548.766	1	5
549.106	1	-9
549.446	1	-1
549.786	1	-11
550.126	1	2
550.466	1	3
550.806	1	-8
551.146	1	-1
551.486	1	-9
551.826	1	9
552.166	1	-9
552.506	1	13
552.846	1	2
553.186	1	6
553.526	1	0
553.866	1	-3
554.206	1	0
554.546	1	5
554.886	1	4
555.226	1	-3
555.566	1	3
555.906	1	9
556.246	1	1
556.586	1	0
556.926	1	2
557.266	1	0
557.606	1	4
557.946	1	11
558.286	1	0
558.626	1	1
558.966	1	3
559.306	1	-10
559.646	1	-3
559.986	1	0
560.325	1	-10
560.665	1	2
561.005	1	-4
561.345	1	1
561.685	1	-6
562.025	1	-5
562.365	1	-1
562.705	1	-2
563.045	1	-6
563.385	1	-13
563.725	1	-1
564.064	1	-4
564.404	1	-1
564.744	1	0
565.084	1	-9
565.424	1	5
565.764	1	-9
566.104	1	2
566.444	1	-9
566.783	1	-9
567.123	1	-2
567.463	1	-3
567.803	1	-10
568.143	1	3
568.483	1	6
568.823	1	0
569.162	1	-1
569.502	1	-6
569.842	1	0
570.182	1	8
570.522	1	-6
570.862	1	-5
571.201	1	5
571.541	1	1
571.881	1	7
572.221	1	-2
572.561	1	-8
572.900	1	-16
573.240	1	-1
573.580	1	-4
573.920	1	0
574.260	1	9
574.599	1	0
574.939	1	-9
575.279	1	6
575.619	1	4
575.959	1	0
576.298	1	7
576.638	1	-6
576.978	1	1
577.318	1	6
577.657	1	-8
577.997	1	-2
578.337	1	13
578.677	1	0
579.016	1	4
579.356	1	1
579.696	1	2
580.036	1	-5
580.375	1	7
580.715	1	1
581.055	1	-3
581.394	1	-10
581.734	1	-5
582.074	1	-4
582.414	1	0
582.753	1	-5
583.093	1	-11
583.433	1	-6
583.772	1	3
584.112	1	-9
584.452	1	-2
584.791	1	-3
585.131	1	-3
585.471	1	13
585.811	1	6
586.150	1	-7
586.490	1	7
586.830	1	-4
587.169	1	0
587.509	1	-8
587.849	1	5
588.188	1	5
588.528	1	4
588.867	1	2
589.207	1	8
589.547	1	-6
589.886	1	-3
590.226	1	4
590.566	1	0
590.905	1	-1
591.245	1	-2
591.585	1	4
591.924	1	-6
592.264	1	6
592.603	1	6
592.943	1	-4
593.283	1	4
593.622	1	7
593.962	1	-1
594.301	1	5
594.641	1	-10
594.981	1	-5
595.320	1	4
595.660	1	-4
595.999	1	-4
596.339	1	-1
596.678	1	-7
597.018	1	-3
597.358	1	1
597.697	1	-2
598.037	1	-5
598.376	1	5
598.716	1	4
599.055	1	14
599.395	1	-6
599.734	1	-10
600.074	1	-7
600.413	1	10
600.753	1	1
601.092	1	2
601.432	1	-7
601.771	1	9
602.111	1	-2
602.451	1	7
602.790	1	-8
603.130	1	3
603.469	1	-6
603.809	1	2
604.148	1	1
604.487	1	7
604.827	1	0
605.166	1	1
605.506	1	-1
605.845	1	-5
606.185	1	3
606.524	1	-13
606.864	1	-3
607.203	1	-6
607.543	1	-10
607.882	1	-2
608.222	1	4
608.561	1	0
608.901	1	-2
609.240	1	-7
609.579	1	6
609.919	1	3
610.258	1	-3
610.598	1	-2
610.937	1	3
611.277	1	-3
611.616	1	-6
611.955	1	-1
612.295	1	-7
612.634	1	2
612.974	1	-13
613.313	1	-5
613.652	1	-3
613.992	1	-9
614.331	1	1
614.671	1	0
615.010	1	-12
615.349	1	-3
615.689	1	2
616.028	1	6
616.368	1	-4
616.707	1	0
617.046	1	-1
617.386	1	2
617.725	1	-6
618.064	1	-2
618.404	1	6
618.743	1	-7
619.082	1	1
619.422	1	-11
619.761	1	6
620.100	1	1
620.440	1	7
620.779	1	-3
621.118	1	-2
621.458	1	0
621.797	1	-5
622.136	1	8
622.476	1	-1
622.815	1	7
623.154	1	-4
623.494	1	7
623.833	1	3
624.172	1	-8
624.511	1	-12
624.851	1	-10
625.190	1	-1
625.529	1	2
625.869	1	5
626.208	1	-3
626.547	1	3
626.886	1	5
627.226	1	1
627.565	1	3
627.904	1	1
628.243	1	2
628.583	1	-3
628.922	1	-1
629.261	1	1
629.600	1	8
629.940	1	-2
630.279	1	-10
630.618	1	-1
630.957	1	-1
631.297	1	-2
631.636	1	-8
631.975	1	13
632.314	1	-4
632.653	1	0
632.993	1	-5
633.332	1	2
633.671	1	-3
634.010	1	-4
634.349	1	4
634.689	1	-10
635.028	1	-5
635.367	1	-4
635.706	1	1
636.045	1	4
636.384	1	-4
636.724	1	-6
637.063	1	-5
637.402	1	6
637.741	1	-2
638.080	1	-2
638.419	1	-2
638.759	1	-8
639.098	1	8
639.437	1	7
639.776	1	-7
640.115	1	-4
640.454	1	-8
640.793	1	7
641.132	1	4
641.472	1	1
641.811	1	-3
642.150	1	-13
642.489	1	0
642.828	1	-6
643.167	1	-11
643.506	1	-11
643.845	1	-9
644.184	1	-1
644.524	1	-3
644.863	1	-4
645.202	1	1
645.541	1	4
645.880	1	5
646.219	1	-5
646.558	1	-2
646.897	1	-11
647.236	1	3
647.575	1	4
647.914	1	-5
648.253	1	12
648.592	1	-12
648.931	1	19
649.270	1	-8
649.610	1	3
649.949	1	-11
650.288	1	2
650.627	1	-4
650.966	1	-4
651.305	1	4
651.644	1	11
651.983	1	-1
652.322	1	-10
652.661	1	-9
653.000	1	2
653.339	1	9
653.678	1	2
654.017	1	-8
654.356	1	-4
654.695	1	-3
655.034	1	-3
655.373	1	2
655.712	1	0
656.051	1	-7
656.390	1	-5
656.729	1	9
657.068	1	1
657.406	1	8
657.745	1	-3
658.084	1	3
658.423	1	3
658.762	1	-1
659.101	1	6
659.440	1	-3
659.779	1	-3
660.118	1	5
660.457	1	1
660.796	1	-12
661.135	1	-6
661.474	1	-7
661.813	1	2
662.152	1	1
662.491	1	-13
662.829	1	-5
663.168	1	-1
663.507	1	-3
663.846	1	-1
664.185	1	7
664.524	1	-6
664.863	1	-6
665.202	1	5
665.541	1	-15
665.879	1	-1
666.218	1	-9
666.557	1	1
666.896	1	-5
667.235	1	8
667.574	1	-6
667.913	1	2
668.251	1	-7
668.590	1	-7
668.929	1	-19
669.268	1	12
669.607	1	-5
669.946	1	0
670.285	1	7
670.623	1	3
670.962	1	1
671.301	1	-10
671.640	1	4
671.979	1	-8
672.317	1	7
672.656	1	1
672.995	1	-1
673.334	1	-2
673.673	1	-4
674.011	1	-8
674.350	1	2
674.689	1	0
675.028	1	-3
675.367	1	-8
675.705	1	-4
676.044	1	-1
676.383	1	-2
676.722	1	-6
677.060	1	-13
677.399	1	-16
677.738	1	-3
678.077	1	11
678.416	1	-1
678.754	1	-10
679.093	1	3
679.432	1	-3
679.771	1	0
680.109	1	12
680.448	1	3
680.787	1	-8
681.125	1	5
681.464	1	0
681.803	1	-6
682.142	1	4
682.480	1	4
682.819	1	2
683.158	1	2
683.496	1	-1
683.835	1	-1
684.174	1	5
684.512	1	-1
684.851	1	0
685.190	1	-2
685.529	1	-5
685.867	1	10
686.206	1	-15
686.545	1	-5
686.883	1	-14
687.222	1	3
687.561	1	-4
687.899	1	-9
688.238	1	-1
688.577	1	-12
688.746	1	4