File: Data/GaN_200K_800ms/GaN_sample F_spot 12_UVVIS_200 K_200um_800 ms 2x2mm1_113.txt
340.368	1	14
340.710	1	-2
341.052	1	7
341.394	1	-6
341.737	1	8
342.079	1	-6
342.421	1	3
342.763	1	11
343.105	1	5
343.447	1	3
343.789	1	-3
344.131	1	0
344.473	1	3
344.815	1	3
345.157	1	-7
345.499	1	2
345.841	1	6
346.183	1	-3
346.526	1	3
346.868	1	4
347.210	1	-2
347.552	1	-10
347.894	1	1
348.236	1	10
348.578	1	6
348.920	1	3
349.262	1	5
349.604	1	1
349.946	1	1
350.288	1	18
350.630	1	6
350.972	1	5
351.314	1	12
351.656	1	5
351.998	1	5
352.340	1	1
352.682	1	6
353.024	1	6
353.366	1	-1
353.708	1	10
354.050	1	0
354.392	1	-1
354.734	1	5
355.076	1	7
355.418	1	-7
355.760	1	14
356.102	1	16
356.444	1	11
356.785	1	11
357.127	1	6
357.469	1	17
357.811	1	13
358.153	1	20
358.495	1	10
358.837	1	7
359.179	1	4
359.521	1	15
359.863	1	14
360.205	1	12
360.547	1	16
360.889	1	15
361.231	1	10
361.572	1	22
361.914	1	28
362.256	1	19
362.598	1	29
362.940	1	14
363.282	1	26
363.624	1	42
363.966	1	44
364.308	1	28
364.649	1	42
364.991	1	44
365.333	1	37
365.675	1	39
366.017	1	44
366.359	1	54
366.701	1	57
367.042	1	74
367.384	1	65
367.726	1	67
368.068	1	67
368.410	1	81
368.752	1	84
369.093	1	85
369.435	1	85
369.777	1	73
370.119	1	77
370.461	1	84
370.803	1	79
371.144	1	77
371.486	1	77
371.828	1	75
372.170	1	78
372.512	1	55
372.853	1	58
373.195	1	60
373.537	1	61
373.879	1	52
374.220	1	62
374.562	1	48
374.904	1	58
375.246	1	51
375.588	1	43
375.929	1	42
376.271	1	50
376.613	1	38
376.955	1	31
377.296	1	34
377.638	1	29
377.980	1	43
378.321	1	22
378.663	1	28
379.005	1	27
379.347	1	25
379.688	1	31
380.030	1	30
380.372	1	23
380.714	1	27
381.055	1	21
381.397	1	16
381.739	1	29
382.080	1	15
382.422	1	21
382.764	1	20
383.105	1	17
383.447	1	15
383.789	1	19
384.130	1	6
384.472	1	13
384.814	1	22
385.156	1	10
385.497	1	13
385.839	1	19
386.180	1	23
386.522	1	20
386.864	1	21
387.205	1	4
387.547	1	2
387.889	1	5
388.230	1	16
388.572	1	5
388.914	1	7
389.255	1	7
389.597	1	14
389.939	1	16
390.280	1	6
390.622	1	10
390.963	1	13
391.305	1	16
391.647	1	13
391.988	1	12
392.330	1	17
392.671	1	4
393.013	1	5
393.355	1	11
393.696	1	12
394.038	1	20
394.379	1	13
394.721	1	15
395.062	1	9
395.404	1	2
395.746	1	6
396.087	1	3
396.429	1	4
396.770	1	9
397.112	1	12
397.453	1	14
397.795	1	16
398.136	1	2
398.478	1	11
398.819	1	8
399.161	1	10
399.503	1	6
399.844	1	6
400.186	1	10
400.527	1	2
400.869	1	3
401.210	1	3
401.552	1	0
401.893	1	8
402.235	1	11
402.576	1	2
402.918	1	12
403.259	1	4
403.601	1	-1
403.942	1	10
404.284	1	5
404.625	1	10
404.967	1	3
405.308	1	8
405.649	1	9
405.991	1	3
406.332	1	16
406.674	1	3
407.015	1	5
407.357	1	1
407.698	1	8
408.040	1	7
408.381	1	11
408.722	1	-8
409.064	1	-1
409.405	1	12
409.747	1	5
410.088	1	3
410.430	1	8
410.771	1	8
411.112	1	-5
411.454	1	0
411.795	1	1
412.137	1	9
412.478	1	14
412.819	1	6
413.161	1	1
413.502	1	5
413.844	1	5
414.185	1	13
414.526	1	-1
414.868	1	5
415.209	1	2
415.550	1	0
415.892	1	7
416.233	1	15
416.575	1	9
416.916	1	-2
417.257	1	0
417.599	1	6
417.940	1	5
418.281	1	8
418.623	1	-7
418.964	1	-9
419.305	1	8
419.647	1	1
419.988	1	5
420.329	1	-3
420.671	1	9
421.012	1	5
421.353	1	-3
421.695	1	4
422.036	1	0
422.377	1	1
422.718	1	4
423.060	1	-4
423.401	1	7
423.742	1	2
424.084	1	2
424.425	1	0
424.766	1	2
425.107	1	-10
425.449	1	7
425.790	1	-12
426.131	1	2
426.472	1	-8
426.814	1	6
427.155	1	-2
427.496	1	-1
427.837	1	-2
428.179	1	2
428.520	1	2
428.861	1	-1
429.202	1	7
429.544	1	10
429.885	1	5
430.226	1	-7
430.567	1	-3
430.909	1	1
431.250	1	9
431.591	1	14
431.932	1	5
432.273	1	8
432.615	1	-11
432.956	1	-10
433.297	1	8
433.638	1	-4
433.979	1	8
434.320	1	7
434.662	1	-6
435.003	1	5
435.344	1	5
435.685	1	4
436.026	1	3
436.368	1	15
436.709	1	4
437.050	1	5
437.391	1	13
437.732	1	0
438.073	1	1
438.414	1	-14
438.756	1	-6
439.097	1	-7
439.438	1	-6
439.779	1	8
440.120	1	1
440.461	1	-2
440.802	1	-6
441.143	1	8
441.485	1	3
441.826	1	-2
442.167	1	4
442.508	1	-2
442.849	1	18
443.190	1	7
443.531	1	5
443.872	1	9
444.213	1	0
444.554	1	15
444.895	1	-4
445.237	1	-1
445.578	1	-9
445.919	1	-9
446.260	1	-7
446.601	1	3
446.942	1	2
447.283	1	4
447.624	1	6
447.965	1	-2
448.306	1	6
448.647	1	1
448.988	1	-7
449.329	1	5
449.670	1	14
450.011	1	4
450.352	1	1
450.693	1	-2
451.034	1	2
451.375	1	3
451.716	1	1
452.057	1	2
452.398	1	-4
452.739	1	5
453.080	1	1
453.421	1	3
453.762	1	2
454.103	1	-5
454.444	1	-10
454.785	1	2
455.126	1	1
455.467	1	9
455.808	1	0
456.149	1	10
456.490	1	8
456.831	1	12
457.172	1	-9
457.513	1	11
457.854	1	2
458.195	1	2
458.536	1	6
458.877	1	-4
459.218	1	11
459.559	1	7
459.899	1	6
460.240	1	1
460.581	1	13
460.922	1	5
461.263	1	-6
461.604	1	7
461.945	1	-4
462.286	1	1
462.627	1	6
462.968	1	0
463.309	1	0
463.649	1	7
463.990	1	2
464.331	1	3
464.672	1	10
465.013	1	-2
465.354	1	-4
465.695	1	-4
466.036	1	-2
466.376	1	-2
466.717	1	-5
467.058	1	3
467.399	1	7
467.740	1	-4
468.081	1	6
468.422	1	-3
468.762	1	-9
469.103	1	-5
469.444	1	-9
469.785	1	-9
470.126	1	-3
470.467	1	-5
470.807	1	3
471.148	1	6
471.489	1	7
471.830	1	4
472.171	1	1
472.511	1	-2
472.852	1	4
473.193	1	8
473.534	1	6
473.875	1	13
474.215	1	11
474.556	1	2
474.897	1	3
475.238	1	-2
475.578	1	-12
475.919	1	3
476.260	1	-3
476.601	1	4
476.942	1	8
477.282	1	-4
477.623	1	-10
477.964	1	-1
478.305	1	-6
478.645	1	16
478.986	1	-1
479.327	1	-9
479.667	1	-11
480.008	1	-1
480.349	1	-3
480.690	1	-6
481.030	1	2
481.371	1	10
481.712	1	2
482.053	1	3
482.393	1	6
482.734	1	-4
483.075	1	-6
483.415	1	4
483.756	1	13
484.097	1	4
484.437	1	-6
484.778	1	8
485.119	1	-7
485.459	1	18
485.800	1	-2
486.141	1	-1
486.481	1	10
486.822	1	7
487.163	1	3
487.503	1	7
487.844	1	2
488.185	1	6
488.525	1	3
488.866	1	5
489.207	1	-4
489.547	1	-1
489.888	1	7
490.228	1	6
490.569	1	11
490.910	1	2
491.250	1	1
491.591	1	0
491.932	1	6
492.272	1	8
492.613	1	-6
492.953	1	-2
493.294	1	-1
493.635	1	-3
493.975	1	-2
494.316	1	9
494.656	1	0
494.997	1	3
495.337	1	12
495.678	1	11
496.019	1	0
496.359	1	0
496.700	1	2
497.040	1	0
497.381	1	7
497.721	1	-1
498.062	1	6
498.403	1	9
498.743	1	5
499.084	1	0
499.424	1	4
499.765	1	-1
500.105	1	-1
500.446	1	-5
500.786	1	-3
501.127	1	5
501.467	1	0
501.808	1	12
502.148	1	3
502.489	1	0
502.829	1	0
503.170	1	8
503.510	1	10
503.851	1	-1
504.191	1	12
504.532	1	13
504.872	1	5
505.213	1	16
505.553	1	-3
505.894	1	-1
506.234	1	16
506.575	1	8
506.915	1	11
507.256	1	9
507.596	1	7
507.936	1	8
508.277	1	1
508.617	1	12
508.958	1	-2
509.298	1	-5
509.639	1	-1
509.979	1	0
510.319	1	12
510.660	1	-1
511.000	1	-8
511.341	1	15
511.681	1	7
512.022	1	2
512.362	1	-2
512.702	1	1
513.043	1	13
513.383	1	-16
513.724	1	10
514.064	1	13
514.404	1	9
514.745	1	0
515.085	1	0
515.425	1	-1
515.766	1	-2
516.106	1	4
516.447	1	13
516.787	1	7
517.127	1	7
517.468	1	10
517.808	1	-8
518.148	1	18
518.489	1	-6
518.829	1	9
519.169	1	3
519.510	1	9
519.850	1	11
520.190	1	1
520.531	1	4
520.871	1	9
521.211	1	-1
521.552	1	12
521.892	1	8
522.232	1	13
522.573	1	2
522.913	1	6
523.253	1	6
523.593	1	-2
523.934	1	4
524.274	1	9
524.614	1	14
524.955	1	3
525.295	1	7
525.635	1	8
525.975	1	11
526.316	1	17
526.656	1	8
526.996	1	12
527.337	1	8
527.677	1	13
528.017	1	8
528.357	1	12
528.698	1	7
529.038	1	5
529.378	1	15
529.718	1	11
530.058	1	6
530.399	1	14
530.739	1	8
531.079	1	24
531.419	1	11
531.760	1	6
532.100	1	8
532.440	1	15
532.780	1	5
533.120	1	15
533.461	1	7
533.801	1	21
534.141	1	1
534.481	1	-5
534.821	1	7
535.162	1	18
535.502	1	5
535.842	1	9
536.182	1	9
536.522	1	11
536.862	1	11
537.203	1	1
537.543	1	-2
537.883	1	12
538.223	1	4
538.563	1	8
538.903	1	-4
539.243	1	12
539.584	1	9
539.924	1	12
540.264	1	5
540.604	1	14
540.944	1	4
541.284	1	14
541.624	1	6
541.964	1	19
542.305	1	6
542.645	1	20
542.985	1	14
543.325	1	5
543.665	1	11
544.005	1	16
544.345	1	6
544.685	1	10
545.025	1	4
545.365	1	5
545.705	1	11
546.045	1	1
546.386	1	11
546.726	1	-5
547.066	1	8
547.406	1	12
547.746	1	-2
548.086	1	16
548.426	1	8
548.766	1	12
549.106	1	12
549.446	1	8
549.786	1	1
550.126	1	18
550.466	1	13
550.806	1	13
551.146	1	13
551.486	1	11
551.826	1	12
552.166	1	6
552.506	1	17
552.846	1	5
553.186	1	13
553.526	1	7
553.866	1	9
554.206	1	14
554.546	1	11
554.886	1	2
555.226	1	4
555.566	1	14
555.906	1	14
556.246	1	12
556.586	1	6
556.926	1	8
557.266	1	6
557.606	1	20
557.946	1	13
558.286	1	6
558.626	1	11
558.966	1	6
559.306	1	6
559.646	1	6
559.986	1	-7
560.325	1	11
560.665	1	7
561.005	1	5
561.345	1	11
561.685	1	11
562.025	1	7
562.365	1	21
562.705	1	9
563.045	1	0
563.385	1	-6
563.725	1	12
564.064	1	8
564.404	1	16
564.744	1	4
565.084	1	10
565.424	1	7
565.764	1	11
566.104	1	6
566.444	1	4
566.783	1	9
567.123	1	12
567.463	1	13
567.803	1	7
568.143	1	8
568.483	1	7
568.823	1	7
569.162	1	12
569.502	1	9
569.842	1	15
570.182	1	3
570.522	1	-5
570.862	1	8
571.201	1	17
571.541	1	19
571.881	1	18
572.221	1	5
572.561	1	14
572.900	1	-5
573.240	1	0
573.580	1	13
573.920	1	4
574.260	1	15
574.599	1	6
574.939	1	17
575.279	1	21
575.619	1	9
575.959	1	-8
576.298	1	14
576.638	1	0
576.978	1	11
577.318	1	8
577.657	1	3
577.997	1	1
578.337	1	20
578.677	1	12
579.016	1	14
579.356	1	3
579.696	1	11
580.036	1	7
580.375	1	20
580.715	1	0
581.055	1	14
581.394	1	14
581.734	1	13
582.074	1	2
582.414	1	12
582.753	1	13
583.093	1	6
583.433	1	3
583.772	1	11
584.112	1	6
584.452	1	14
584.791	1	-3
585.131	1	12
585.471	1	16
585.811	1	14
586.150	1	13
586.490	1	7
586.830	1	11
587.169	1	14
587.509	1	4
587.849	1	5
588.188	1	16
588.528	1	9
588.867	1	7
589.207	1	8
589.547	1	8
589.886	1	-7
590.226	1	11
590.566	1	3
590.905	1	13
591.245	1	4
591.585	1	13
591.924	1	4
592.264	1	5
592.603	1	3
592.943	1	5
593.283	1	4
593.622	1	4
593.962	1	6
594.301	1	11
594.641	1	-3
594.981	1	2
595.320	1	9
595.660	1	6
595.999	1	-1
596.339	1	10
596.678	1	5
597.018	1	-1
597.358	1	13
597.697	1	14
598.037	1	7
598.376	1	6
598.716	1	10
599.055	1	11
599.395	1	16
599.734	1	15
600.074	1	2
600.413	1	20
600.753	1	14
601.092	1	18
601.432	1	6
601.771	1	17
602.111	1	17
602.451	1	12
602.790	1	11
603.130	1	17
603.469	1	1
603.809	1	12
604.148	1	4
604.487	1	10
604.827	1	12
605.166	1	11
605.506	1	10
605.845	1	6
606.185	1	14
606.524	1	8
606.864	1	1
607.203	1	6
607.543	1	3
607.882	1	12
608.222	1	11
608.561	1	8
608.901	1	7
609.240	1	3
609.579	1	16
609.919	1	19
610.258	1	19
610.598	1	4
610.937	1	9
611.277	1	2
611.616	1	8
611.955	1	7
612.295	1	6
612.634	1	12
612.974	1	-8
613.313	1	19
613.652	1	7
613.992	1	10
614.331	1	4
614.671	1	17
615.010	1	-7
615.349	1	8
615.689	1	16
616.028	1	4
616.368	1	8
616.707	1	1
617.046	1	11
617.386	1	1
617.725	1	2
618.064	1	-1
618.404	1	6
618.743	1	15
619.082	1	-1
619.422	1	0
619.761	1	2
620.100	1	9
620.440	1	3
620.779	1	7
621.118	1	-1
621.458	1	8
621.797	1	13
622.136	1	15
622.476	1	12
622.815	1	18
623.154	1	4
623.494	1	8
623.833	1	14
624.172	1	-1
624.511	1	12
624.851	1	-12
625.190	1	-3
625.529	1	5
625.869	1	14
626.208	1	4
626.547	1	14
626.886	1	12
627.226	1	0
627.565	1	3
627.904	1	6
628.243	1	4
628.583	1	5
628.922	1	8
629.261	1	12
629.600	1	15
629.940	1	4
630.279	1	0
630.618	1	8
630.957	1	2
631.297	1	4
631.636	1	-2
631.975	1	13
632.314	1	3
632.653	1	11
632.993	1	-1
633.332	1	4
633.671	1	-1
634.010	1	3
634.349	1	12
634.689	1	8
635.028	1	7
635.367	1	-3
635.706	1	3
636.045	1	6
636.384	1	-2
636.724	1	7
637.063	1	4
637.402	1	7
637.741	1	2
638.080	1	9
638.419	1	3
638.759	1	-1
639.098	1	11
639.437	1	12
639.776	1	6
640.115	1	-5
640.454	1	4
640.793	1	9
641.132	1	12
641.472	1	7
641.811	1	4
642.150	1	-10
642.489	1	9
642.828	1	-2
643.167	1	2
643.506	1	-4
643.845	1	10
644.184	1	5
644.524	1	-2
644.863	1	-4
645.202	1	1
645.541	1	12
645.880	1	3
646.219	1	8
646.558	1	7
646.897	1	8
647.236	1	6
647.575	1	1
647.914	1	5
648.253	1	17
648.592	1	-4
648.931	1	9
649.270	1	5
649.610	1	9
649.949	1	5
650.288	1	13
650.627	1	3
650.966	1	14
651.305	1	1
651.644	1	24
651.983	1	5
652.322	1	5
652.661	1	1
653.000	1	-5
653.339	1	15
653.678	1	6
654.017	1	3
654.356	1	-8
654.695	1	6
655.034	1	5
655.373	1	11
655.712	1	12
656.051	1	5
656.390	1	-4
656.729	1	4
657.068	1	4
657.406	1	5
657.745	1	-6
658.084	1	8
658.423	1	9
658.762	1	4
659.101	1	12
659.440	1	0
659.779	1	3
660.118	1	6
660.457	1	-2
660.796	1	-10
661.135	1	0
661.474	1	-3
661.813	1	16
662.152	1	4
662.491	1	0
662.829	1	-3
663.168	1	8
663.507	1	14
663.846	1	0
664.185	1	8
664.524	1	1
664.863	1	2
665.202	1	-1
665.541	1	-7
665.879	1	0
666.218	1	-1
666.557	1	6
666.896	1	-1
667.235	1	1
667.574	1	5
667.913	1	1
668.251	1	-3
668.590	1	6
668.929	1	-4
669.268	1	11
669.607	1	2
669.946	1	7
670.285	1	1
670.623	1	6
670.962	1	5
671.301	1	6
671.640	1	5
671.979	1	3
672.317	1	8
672.656	1	5
672.995	1	11
673.334	1	4
673.673	1	7
674.011	1	3
674.350	1	9
674.689	1	-2
675.028	1	2
675.367	1	6
675.705	1	10
676.044	1	-2
676.383	1	17
676.722	1	5
677.060	1	-9
677.399	1	-4
677.738	1	-2
678.077	1	15
678.416	1	0
678.754	1	1
679.093	1	4
679.432	1	-1
679.771	1	5
680.109	1	6
680.448	1	0
680.787	1	3
681.125	1	6
681.464	1	1
681.803	1	2
682.142	1	13
682.480	1	12
682.819	1	3
683.158	1	4
683.496	1	9
683.835	1	12
684.174	1	-2
684.512	1	10
684.851	1	6
685.190	1	2
685.529	1	11
685.867	1	7
686.206	1	5
686.545	1	0
686.883	1	0
687.222	1	13
687.561	1	9
687.899	1	8
688.238	1	7
688.577	1	-2
688.746	1	1