File: Data/GaN_200K_800ms/GaN_sample F_spot 12_UVVIS_200 K_200um_800 ms 2x2mm1_46.txt
340.368	1	7
340.710	1	-6
341.052	1	13
341.394	1	-4
341.737	1	19
342.079	1	0
342.421	1	3
342.763	1	6
343.105	1	11
343.447	1	11
343.789	1	1
344.131	1	3
344.473	1	8
344.815	1	12
345.157	1	1
345.499	1	3
345.841	1	15
346.183	1	8
346.526	1	8
346.868	1	8
347.210	1	-4
347.552	1	-7
347.894	1	13
348.236	1	11
348.578	1	2
348.920	1	-7
349.262	1	4
349.604	1	19
349.946	1	2
350.288	1	8
350.630	1	19
350.972	1	12
351.314	1	31
351.656	1	16
351.998	1	13
352.340	1	12
352.682	1	21
353.024	1	14
353.366	1	22
353.708	1	17
354.050	1	17
354.392	1	14
354.734	1	28
355.076	1	15
355.418	1	14
355.760	1	26
356.102	1	41
356.444	1	40
356.785	1	44
357.127	1	27
357.469	1	41
357.811	1	44
358.153	1	47
358.495	1	53
358.837	1	45
359.179	1	56
359.521	1	62
359.863	1	66
360.205	1	68
360.547	1	76
360.889	1	80
361.231	1	98
361.572	1	105
361.914	1	123
362.256	1	131
362.598	1	130
362.940	1	145
363.282	1	169
363.624	1	201
363.966	1	212
364.308	1	216
364.649	1	273
364.991	1	289
365.333	1	322
365.675	1	339
366.017	1	377
366.359	1	433
366.701	1	476
367.042	1	499
367.384	1	558
367.726	1	588
368.068	1	602
368.410	1	654
368.752	1	666
369.093	1	687
369.435	1	729
369.777	1	726
370.119	1	683
370.461	1	697
370.803	1	678
371.144	1	652
371.486	1	617
371.828	1	606
372.170	1	565
372.512	1	531
372.853	1	516
373.195	1	483
373.537	1	441
373.879	1	403
374.220	1	408
374.562	1	392
374.904	1	369
375.246	1	355
375.588	1	333
375.929	1	310
376.271	1	292
376.613	1	274
376.955	1	267
377.296	1	241
377.638	1	248
377.980	1	216
378.321	1	221
378.663	1	199
379.005	1	207
379.347	1	172
379.688	1	168
380.030	1	155
380.372	1	152
380.714	1	151
381.055	1	141
381.397	1	143
381.739	1	125
382.080	1	114
382.422	1	121
382.764	1	105
383.105	1	111
383.447	1	98
383.789	1	98
384.130	1	91
384.472	1	88
384.814	1	72
385.156	1	90
385.497	1	75
385.839	1	87
386.180	1	82
386.522	1	81
386.864	1	70
387.205	1	63
387.547	1	56
387.889	1	58
388.230	1	70
388.572	1	58
388.914	1	59
389.255	1	45
389.597	1	58
389.939	1	53
390.280	1	52
390.622	1	36
390.963	1	46
391.305	1	40
391.647	1	56
391.988	1	56
392.330	1	55
392.671	1	50
393.013	1	36
393.355	1	43
393.696	1	35
394.038	1	37
394.379	1	38
394.721	1	36
395.062	1	39
395.404	1	23
395.746	1	36
396.087	1	29
396.429	1	31
396.770	1	19
397.112	1	30
397.453	1	48
397.795	1	25
398.136	1	18
398.478	1	28
398.819	1	26
399.161	1	27
399.503	1	28
399.844	1	20
400.186	1	23
400.527	1	27
400.869	1	12
401.210	1	24
401.552	1	9
401.893	1	14
402.235	1	10
402.576	1	13
402.918	1	26
403.259	1	21
403.601	1	7
403.942	1	17
404.284	1	23
404.625	1	14
404.967	1	19
405.308	1	18
405.649	1	19
405.991	1	10
406.332	1	19
406.674	1	17
407.015	1	25
407.357	1	10
407.698	1	14
408.040	1	1
408.381	1	9
408.722	1	-5
409.064	1	22
409.405	1	15
409.747	1	10
410.088	1	11
410.430	1	15
410.771	1	9
411.112	1	7
411.454	1	0
411.795	1	4
412.137	1	11
412.478	1	24
412.819	1	5
413.161	1	9
413.502	1	3
413.844	1	15
414.185	1	11
414.526	1	11
414.868	1	0
415.209	1	9
415.550	1	-3
415.892	1	13
416.233	1	20
416.575	1	11
416.916	1	3
417.257	1	6
417.599	1	17
417.940	1	21
418.281	1	2
418.623	1	6
418.964	1	1
419.305	1	17
419.647	1	2
419.988	1	9
420.329	1	4
420.671	1	14
421.012	1	6
421.353	1	5
421.695	1	-2
422.036	1	2
422.377	1	7
422.718	1	19
423.060	1	-2
423.401	1	6
423.742	1	7
424.084	1	14
424.425	1	8
424.766	1	5
425.107	1	-4
425.449	1	2
425.790	1	3
426.131	1	11
426.472	1	13
426.814	1	9
427.155	1	2
427.496	1	11
427.837	1	-2
428.179	1	-6
428.520	1	9
428.861	1	7
429.202	1	14
429.544	1	9
429.885	1	18
430.226	1	1
430.567	1	14
430.909	1	11
431.250	1	7
431.591	1	10
431.932	1	-1
432.273	1	4
432.615	1	-5
432.956	1	4
433.297	1	9
433.638	1	8
433.979	1	10
434.320	1	16
434.662	1	16
435.003	1	2
435.344	1	5
435.685	1	1
436.026	1	8
436.368	1	13
436.709	1	2
437.050	1	4
437.391	1	15
437.732	1	2
438.073	1	6
438.414	1	-5
438.756	1	0
439.097	1	1
439.438	1	1
439.779	1	-3
440.120	1	0
440.461	1	2
440.802	1	-5
441.143	1	8
441.485	1	12
441.826	1	4
442.167	1	5
442.508	1	3
442.849	1	14
443.190	1	9
443.531	1	13
443.872	1	8
444.213	1	7
444.554	1	17
444.895	1	0
445.237	1	2
445.578	1	-2
445.919	1	-1
446.260	1	-4
446.601	1	2
446.942	1	3
447.283	1	5
447.624	1	13
447.965	1	5
448.306	1	4
448.647	1	-2
448.988	1	-1
449.329	1	1
449.670	1	9
450.011	1	12
450.352	1	0
450.693	1	-1
451.034	1	1
451.375	1	7
451.716	1	3
452.057	1	12
452.398	1	6
452.739	1	11
453.080	1	-1
453.421	1	5
453.762	1	11
454.103	1	5
454.444	1	-3
454.785	1	4
455.126	1	-7
455.467	1	8
455.808	1	9
456.149	1	12
456.490	1	8
456.831	1	13
457.172	1	1
457.513	1	13
457.854	1	3
458.195	1	-8
458.536	1	10
458.877	1	10
459.218	1	10
459.559	1	5
459.899	1	3
460.240	1	17
460.581	1	20
460.922	1	13
461.263	1	-2
461.604	1	0
461.945	1	8
462.286	1	10
462.627	1	15
462.968	1	8
463.309	1	-5
463.649	1	-8
463.990	1	10
464.331	1	6
464.672	1	7
465.013	1	-3
465.354	1	5
465.695	1	4
466.036	1	-1
466.376	1	9
466.717	1	5
467.058	1	1
467.399	1	16
467.740	1	0
468.081	1	11
468.422	1	3
468.762	1	-10
469.103	1	-2
469.444	1	1
469.785	1	-7
470.126	1	2
470.467	1	6
470.807	1	9
471.148	1	13
471.489	1	6
471.830	1	3
472.171	1	1
472.511	1	-3
472.852	1	9
473.193	1	11
473.534	1	8
473.875	1	15
474.215	1	12
474.556	1	7
474.897	1	5
475.238	1	0
475.578	1	-3
475.919	1	15
476.260	1	10
476.601	1	10
476.942	1	8
477.282	1	6
477.623	1	-6
477.964	1	8
478.305	1	0
478.645	1	17
478.986	1	12
479.327	1	2
479.667	1	1
480.008	1	5
480.349	1	3
480.690	1	8
481.030	1	5
481.371	1	2
481.712	1	8
482.053	1	13
482.393	1	6
482.734	1	3
483.075	1	7
483.415	1	10
483.756	1	14
484.097	1	8
484.437	1	10
484.778	1	14
485.119	1	9
485.459	1	18
485.800	1	6
486.141	1	3
486.481	1	16
486.822	1	18
487.163	1	15
487.503	1	19
487.844	1	8
488.185	1	17
488.525	1	11
488.866	1	12
489.207	1	6
489.547	1	13
489.888	1	10
490.228	1	20
490.569	1	34
490.910	1	15
491.250	1	5
491.591	1	11
491.932	1	11
492.272	1	25
492.613	1	11
492.953	1	12
493.294	1	11
493.635	1	17
493.975	1	19
494.316	1	8
494.656	1	18
494.997	1	14
495.337	1	24
495.678	1	18
496.019	1	20
496.359	1	7
496.700	1	20
497.040	1	9
497.381	1	16
497.721	1	19
498.062	1	23
498.403	1	27
498.743	1	18
499.084	1	10
499.424	1	26
499.765	1	11
500.105	1	20
500.446	1	15
500.786	1	6
501.127	1	24
501.467	1	16
501.808	1	33
502.148	1	32
502.489	1	28
502.829	1	27
503.170	1	26
503.510	1	27
503.851	1	22
504.191	1	31
504.532	1	26
504.872	1	28
505.213	1	40
505.553	1	25
505.894	1	26
506.234	1	25
506.575	1	28
506.915	1	31
507.256	1	27
507.596	1	33
507.936	1	32
508.277	1	28
508.617	1	33
508.958	1	20
509.298	1	33
509.639	1	32
509.979	1	26
510.319	1	27
510.660	1	29
511.000	1	13
511.341	1	32
511.681	1	34
512.022	1	27
512.362	1	31
512.702	1	30
513.043	1	28
513.383	1	34
513.724	1	38
514.064	1	34
514.404	1	28
514.745	1	38
515.085	1	22
515.425	1	30
515.766	1	22
516.106	1	42
516.447	1	46
516.787	1	41
517.127	1	32
517.468	1	39
517.808	1	38
518.148	1	40
518.489	1	37
518.829	1	44
519.169	1	29
519.510	1	38
519.850	1	42
520.190	1	45
520.531	1	46
520.871	1	31
521.211	1	32
521.552	1	47
521.892	1	42
522.232	1	37
522.573	1	42
522.913	1	45
523.253	1	40
523.593	1	36
523.934	1	40
524.274	1	42
524.614	1	46
524.955	1	40
525.295	1	40
525.635	1	48
525.975	1	37
526.316	1	51
526.656	1	38
526.996	1	47
527.337	1	41
527.677	1	55
528.017	1	36
528.357	1	40
528.698	1	54
529.038	1	51
529.378	1	48
529.718	1	56
530.058	1	42
530.399	1	52
530.739	1	46
531.079	1	58
531.419	1	50
531.760	1	45
532.100	1	48
532.440	1	52
532.780	1	42
533.120	1	50
533.461	1	48
533.801	1	59
534.141	1	41
534.481	1	40
534.821	1	57
535.162	1	54
535.502	1	40
535.842	1	57
536.182	1	47
536.522	1	44
536.862	1	53
537.203	1	39
537.543	1	41
537.883	1	51
538.223	1	54
538.563	1	61
538.903	1	46
539.243	1	50
539.584	1	41
539.924	1	67
540.264	1	44
540.604	1	51
540.944	1	43
541.284	1	56
541.624	1	48
541.964	1	56
542.305	1	48
542.645	1	52
542.985	1	47
543.325	1	42
543.665	1	56
544.005	1	55
544.345	1	45
544.685	1	50
545.025	1	52
545.365	1	49
545.705	1	46
546.045	1	47
546.386	1	55
546.726	1	49
547.066	1	62
547.406	1	60
547.746	1	42
548.086	1	52
548.426	1	55
548.766	1	54
549.106	1	57
549.446	1	51
549.786	1	53
550.126	1	67
550.466	1	53
550.806	1	53
551.146	1	52
551.486	1	62
551.826	1	66
552.166	1	56
552.506	1	52
552.846	1	53
553.186	1	69
553.526	1	48
553.866	1	61
554.206	1	73
554.546	1	62
554.886	1	60
555.226	1	50
555.566	1	66
555.906	1	66
556.246	1	50
556.586	1	47
556.926	1	53
557.266	1	49
557.606	1	63
557.946	1	61
558.286	1	55
558.626	1	61
558.966	1	49
559.306	1	56
559.646	1	48
559.986	1	57
560.325	1	51
560.665	1	48
561.005	1	47
561.345	1	52
561.685	1	51
562.025	1	59
562.365	1	48
562.705	1	47
563.045	1	56
563.385	1	37
563.725	1	64
564.064	1	51
564.404	1	58
564.744	1	54
565.084	1	48
565.424	1	50
565.764	1	59
566.104	1	50
566.444	1	55
566.783	1	46
567.123	1	55
567.463	1	54
567.803	1	47
568.143	1	65
568.483	1	57
568.823	1	59
569.162	1	62
569.502	1	63
569.842	1	61
570.182	1	57
570.522	1	55
570.862	1	50
571.201	1	56
571.541	1	56
571.881	1	64
572.221	1	49
572.561	1	52
572.900	1	59
573.240	1	62
573.580	1	51
573.920	1	50
574.260	1	66
574.599	1	47
574.939	1	51
575.279	1	58
575.619	1	63
575.959	1	43
576.298	1	54
576.638	1	52
576.978	1	56
577.318	1	56
577.657	1	50
577.997	1	47
578.337	1	65
578.677	1	54
579.016	1	62
579.356	1	55
579.696	1	50
580.036	1	47
580.375	1	62
580.715	1	40
581.055	1	43
581.394	1	44
581.734	1	53
582.074	1	44
582.414	1	62
582.753	1	40
583.093	1	54
583.433	1	58
583.772	1	54
584.112	1	36
584.452	1	47
584.791	1	53
585.131	1	58
585.471	1	50
585.811	1	57
586.150	1	46
586.490	1	53
586.830	1	52
587.169	1	49
587.509	1	53
587.849	1	47
588.188	1	53
588.528	1	58
588.867	1	48
589.207	1	58
589.547	1	52
589.886	1	38
590.226	1	60
590.566	1	32
590.905	1	49
591.245	1	32
591.585	1	47
591.924	1	48
592.264	1	51
592.603	1	42
592.943	1	44
593.283	1	46
593.622	1	43
593.962	1	48
594.301	1	43
594.641	1	35
594.981	1	44
595.320	1	46
595.660	1	43
595.999	1	33
596.339	1	55
596.678	1	43
597.018	1	41
597.358	1	43
597.697	1	36
598.037	1	40
598.376	1	43
598.716	1	47
599.055	1	45
599.395	1	42
599.734	1	46
600.074	1	40
600.413	1	46
600.753	1	42
601.092	1	46
601.432	1	31
601.771	1	44
602.111	1	41
602.451	1	35
602.790	1	42
603.130	1	48
603.469	1	28
603.809	1	43
604.148	1	43
604.487	1	39
604.827	1	49
605.166	1	36
605.506	1	39
605.845	1	36
606.185	1	50
606.524	1	31
606.864	1	45
607.203	1	37
607.543	1	44
607.882	1	49
608.222	1	50
608.561	1	45
608.901	1	40
609.240	1	25
609.579	1	45
609.919	1	56
610.258	1	45
610.598	1	37
610.937	1	44
611.277	1	38
611.616	1	37
611.955	1	46
612.295	1	25
612.634	1	40
612.974	1	24
613.313	1	43
613.652	1	43
613.992	1	25
614.331	1	42
614.671	1	36
615.010	1	20
615.349	1	51
615.689	1	37
616.028	1	36
616.368	1	35
616.707	1	28
617.046	1	34
617.386	1	29
617.725	1	34
618.064	1	26
618.404	1	27
618.743	1	35
619.082	1	36
619.422	1	28
619.761	1	34
620.100	1	37
620.440	1	28
620.779	1	23
621.118	1	42
621.458	1	30
621.797	1	24
622.136	1	42
622.476	1	34
622.815	1	36
623.154	1	31
623.494	1	39
623.833	1	39
624.172	1	27
624.511	1	33
624.851	1	18
625.190	1	31
625.529	1	27
625.869	1	43
626.208	1	29
626.547	1	30
626.886	1	31
627.226	1	29
627.565	1	34
627.904	1	31
628.243	1	34
628.583	1	19
628.922	1	32
629.261	1	35
629.600	1	47
629.940	1	26
630.279	1	23
630.618	1	26
630.957	1	23
631.297	1	21
631.636	1	20
631.975	1	33
632.314	1	22
632.653	1	34
632.993	1	23
633.332	1	39
633.671	1	14
634.010	1	22
634.349	1	32
634.689	1	28
635.028	1	34
635.367	1	30
635.706	1	37
636.045	1	32
636.384	1	21
636.724	1	18
637.063	1	29
637.402	1	17
637.741	1	30
638.080	1	21
638.419	1	9
638.759	1	12
639.098	1	33
639.437	1	24
639.776	1	18
640.115	1	21
640.454	1	13
640.793	1	31
641.132	1	33
641.472	1	27
641.811	1	28
642.150	1	21
642.489	1	34
642.828	1	22
643.167	1	12
643.506	1	8
643.845	1	28
644.184	1	20
644.524	1	13
644.863	1	15
645.202	1	21
645.541	1	16
645.880	1	25
646.219	1	18
646.558	1	19
646.897	1	24
647.236	1	24
647.575	1	25
647.914	1	13
648.253	1	35
648.592	1	20
648.931	1	26
649.270	1	8
649.610	1	22
649.949	1	12
650.288	1	26
650.627	1	7
650.966	1	21
651.305	1	26
651.644	1	32
651.983	1	15
652.322	1	13
652.661	1	27
653.000	1	14
653.339	1	29
653.678	1	27
654.017	1	28
654.356	1	18
654.695	1	17
655.034	1	23
655.373	1	28
655.712	1	15
656.051	1	20
656.390	1	7
656.729	1	23
657.068	1	19
657.406	1	17
657.745	1	3
658.084	1	20
658.423	1	22
658.762	1	13
659.101	1	19
659.440	1	14
659.779	1	25
660.118	1	15
660.457	1	8
660.796	1	16
661.135	1	12
661.474	1	10
661.813	1	30
662.152	1	12
662.491	1	24
662.829	1	-4
663.168	1	17
663.507	1	25
663.846	1	12
664.185	1	13
664.524	1	15
664.863	1	9
665.202	1	19
665.541	1	15
665.879	1	0
666.218	1	5
666.557	1	15
666.896	1	11
667.235	1	7
667.574	1	8
667.913	1	13
668.251	1	4
668.590	1	8
668.929	1	9
669.268	1	18
669.607	1	4
669.946	1	11
670.285	1	11
670.623	1	12
670.962	1	10
671.301	1	18
671.640	1	14
671.979	1	8
672.317	1	15
672.656	1	14
672.995	1	21
673.334	1	9
673.673	1	12
674.011	1	19
674.350	1	10
674.689	1	5
675.028	1	15
675.367	1	15
675.705	1	21
676.044	1	13
676.383	1	19
676.722	1	26
677.060	1	13
677.399	1	5
677.738	1	21
678.077	1	24
678.416	1	23
678.754	1	9
679.093	1	17
679.432	1	4
679.771	1	10
680.109	1	18
680.448	1	12
680.787	1	14
681.125	1	17
681.464	1	17
681.803	1	9
682.142	1	16
682.480	1	18
682.819	1	18
683.158	1	13
683.496	1	21
683.835	1	12
684.174	1	13
684.512	1	24
684.851	1	29
685.190	1	8
685.529	1	12
685.867	1	17
686.206	1	12
686.545	1	8
686.883	1	18
687.222	1	20
687.561	1	18
687.899	1	17
688.238	1	21
688.577	1	21
688.746	1	7