File: Data/GaN_200K_800ms/GaN_sample F_spot 12_UVVIS_200 K_200um_800 ms 2x2mm1_9.txt
340.368	1	-4
340.710	1	-7
341.052	1	1
341.394	1	-2
341.737	1	16
342.079	1	-4
342.421	1	-2
342.763	1	7
343.105	1	4
343.447	1	3
343.789	1	1
344.131	1	-6
344.473	1	-5
344.815	1	1
345.157	1	-1
345.499	1	-1
345.841	1	7
346.183	1	-6
346.526	1	-4
346.868	1	1
347.210	1	-4
347.552	1	-5
347.894	1	5
348.236	1	5
348.578	1	-3
348.920	1	-3
349.262	1	6
349.604	1	6
349.946	1	-6
350.288	1	9
350.630	1	7
350.972	1	-1
351.314	1	2
351.656	1	1
351.998	1	4
352.340	1	9
352.682	1	4
353.024	1	4
353.366	1	6
353.708	1	-3
354.050	1	-9
354.392	1	-12
354.734	1	6
355.076	1	-4
355.418	1	-14
355.760	1	-5
356.102	1	3
356.444	1	1
356.785	1	7
357.127	1	4
357.469	1	-7
357.811	1	-1
358.153	1	10
358.495	1	5
358.837	1	-10
359.179	1	-1
359.521	1	6
359.863	1	-2
360.205	1	5
360.547	1	-2
360.889	1	-1
361.231	1	-12
361.572	1	3
361.914	1	6
362.256	1	4
362.598	1	-11
362.940	1	-17
363.282	1	3
363.624	1	5
363.966	1	-2
364.308	1	-4
364.649	1	1
364.991	1	-2
365.333	1	-1
365.675	1	0
366.017	1	7
366.359	1	-4
366.701	1	-3
367.042	1	-1
367.384	1	3
367.726	1	-2
368.068	1	-8
368.410	1	6
368.752	1	-5
369.093	1	-13
369.435	1	4
369.777	1	-2
370.119	1	-11
370.461	1	5
370.803	1	-8
371.144	1	-8
371.486	1	12
371.828	1	-3
372.170	1	1
372.512	1	-6
372.853	1	-3
373.195	1	-9
373.537	1	7
373.879	1	-4
374.220	1	18
374.562	1	3
374.904	1	-4
375.246	1	1
375.588	1	0
375.929	1	4
376.271	1	2
376.613	1	3
376.955	1	-10
377.296	1	-3
377.638	1	2
377.980	1	8
378.321	1	-11
378.663	1	-8
379.005	1	11
379.347	1	-4
379.688	1	6
380.030	1	0
380.372	1	-5
380.714	1	-1
381.055	1	5
381.397	1	-2
381.739	1	0
382.080	1	4
382.422	1	1
382.764	1	4
383.105	1	-6
383.447	1	0
383.789	1	-2
384.130	1	-9
384.472	1	0
384.814	1	3
385.156	1	-10
385.497	1	6
385.839	1	-3
386.180	1	-4
386.522	1	6
386.864	1	4
387.205	1	-11
387.547	1	-7
387.889	1	-3
388.230	1	5
388.572	1	-6
388.914	1	0
389.255	1	-1
389.597	1	6
389.939	1	0
390.280	1	-3
390.622	1	-5
390.963	1	6
391.305	1	0
391.647	1	4
391.988	1	7
392.330	1	1
392.671	1	-9
393.013	1	0
393.355	1	5
393.696	1	11
394.038	1	-1
394.379	1	-4
394.721	1	-10
395.062	1	-2
395.404	1	1
395.746	1	7
396.087	1	7
396.429	1	5
396.770	1	-4
397.112	1	13
397.453	1	13
397.795	1	-7
398.136	1	0
398.478	1	5
398.819	1	3
399.161	1	9
399.503	1	-10
399.844	1	-4
400.186	1	-2
400.527	1	-5
400.869	1	2
401.210	1	-1
401.552	1	0
401.893	1	2
402.235	1	3
402.576	1	-3
402.918	1	6
403.259	1	5
403.601	1	-6
403.942	1	6
404.284	1	4
404.625	1	-1
404.967	1	6
405.308	1	7
405.649	1	7
405.991	1	-4
406.332	1	1
406.674	1	-6
407.015	1	2
407.357	1	-6
407.698	1	8
408.040	1	3
408.381	1	0
408.722	1	-15
409.064	1	-1
409.405	1	5
409.747	1	4
410.088	1	-7
410.430	1	12
410.771	1	8
411.112	1	-5
411.454	1	-3
411.795	1	-8
412.137	1	6
412.478	1	12
412.819	1	-6
413.161	1	-11
413.502	1	3
413.844	1	-2
414.185	1	3
414.526	1	2
414.868	1	-1
415.209	1	0
415.550	1	-6
415.892	1	2
416.233	1	2
416.575	1	9
416.916	1	-1
417.257	1	1
417.599	1	3
417.940	1	-2
418.281	1	2
418.623	1	-10
418.964	1	-9
419.305	1	8
419.647	1	0
419.988	1	-8
420.329	1	-11
420.671	1	0
421.012	1	4
421.353	1	-3
421.695	1	1
422.036	1	1
422.377	1	-2
422.718	1	8
423.060	1	-3
423.401	1	-3
423.742	1	3
424.084	1	-3
424.425	1	7
424.766	1	-2
425.107	1	-5
425.449	1	-7
425.790	1	-7
426.131	1	3
426.472	1	1
426.814	1	5
427.155	1	-2
427.496	1	-7
427.837	1	-5
428.179	1	-5
428.520	1	0
428.861	1	-5
429.202	1	9
429.544	1	2
429.885	1	9
430.226	1	-4
430.567	1	-5
430.909	1	6
431.250	1	-2
431.591	1	8
431.932	1	0
432.273	1	-1
432.615	1	-4
432.956	1	-9
433.297	1	-1
433.638	1	7
433.979	1	7
434.320	1	3
434.662	1	-2
435.003	1	-3
435.344	1	-12
435.685	1	8
436.026	1	5
436.368	1	6
436.709	1	3
437.050	1	2
437.391	1	6
437.732	1	-3
438.073	1	2
438.414	1	3
438.756	1	-1
439.097	1	-4
439.438	1	-2
439.779	1	1
440.120	1	6
440.461	1	-3
440.802	1	1
441.143	1	4
441.485	1	2
441.826	1	-3
442.167	1	8
442.508	1	-11
442.849	1	7
443.190	1	-1
443.531	1	7
443.872	1	5
444.213	1	7
444.554	1	7
444.895	1	-1
445.237	1	-7
445.578	1	-1
445.919	1	-14
446.260	1	-5
446.601	1	-5
446.942	1	-1
447.283	1	2
447.624	1	0
447.965	1	9
448.306	1	-8
448.647	1	-1
448.988	1	-1
449.329	1	0
449.670	1	3
450.011	1	5
450.352	1	0
450.693	1	1
451.034	1	-2
451.375	1	0
451.716	1	2
452.057	1	-7
452.398	1	-8
452.739	1	8
453.080	1	-5
453.421	1	2
453.762	1	4
454.103	1	0
454.444	1	-8
454.785	1	-4
455.126	1	-7
455.467	1	0
455.808	1	-8
456.149	1	-2
456.490	1	-1
456.831	1	8
457.172	1	-11
457.513	1	10
457.854	1	5
458.195	1	3
458.536	1	-1
458.877	1	3
459.218	1	0
459.559	1	6
459.899	1	10
460.240	1	-5
460.581	1	11
460.922	1	10
461.263	1	-1
461.604	1	-7
461.945	1	-2
462.286	1	-5
462.627	1	2
462.968	1	12
463.309	1	-7
463.649	1	-7
463.990	1	-9
464.331	1	9
464.672	1	-3
465.013	1	0
465.354	1	-5
465.695	1	-11
466.036	1	-6
466.376	1	-3
466.717	1	2
467.058	1	0
467.399	1	5
467.740	1	1
468.081	1	2
468.422	1	-4
468.762	1	-4
469.103	1	-2
469.444	1	-6
469.785	1	-10
470.126	1	-4
470.467	1	-8
470.807	1	-5
471.148	1	5
471.489	1	4
471.830	1	6
472.171	1	-1
472.511	1	-3
472.852	1	1
473.193	1	8
473.534	1	2
473.875	1	6
474.215	1	10
474.556	1	2
474.897	1	2
475.238	1	-4
475.578	1	-7
475.919	1	-2
476.260	1	1
476.601	1	4
476.942	1	13
477.282	1	-1
477.623	1	-16
477.964	1	-12
478.305	1	-2
478.645	1	4
478.986	1	-7
479.327	1	-4
479.667	1	8
480.008	1	-3
480.349	1	-1
480.690	1	-2
481.030	1	4
481.371	1	0
481.712	1	1
482.053	1	5
482.393	1	-8
482.734	1	-1
483.075	1	0
483.415	1	2
483.756	1	14
484.097	1	0
484.437	1	-2
484.778	1	7
485.119	1	-2
485.459	1	13
485.800	1	3
486.141	1	-4
486.481	1	-3
486.822	1	2
487.163	1	-8
487.503	1	-4
487.844	1	-4
488.185	1	-1
488.525	1	1
488.866	1	8
489.207	1	-7
489.547	1	-8
489.888	1	-7
490.228	1	-5
490.569	1	10
490.910	1	-4
491.250	1	-3
491.591	1	-7
491.932	1	4
492.272	1	7
492.613	1	-9
492.953	1	-2
493.294	1	-5
493.635	1	-8
493.975	1	6
494.316	1	3
494.656	1	-1
494.997	1	-6
495.337	1	3
495.678	1	3
496.019	1	2
496.359	1	-8
496.700	1	0
497.040	1	-3
497.381	1	2
497.721	1	-7
498.062	1	-5
498.403	1	-3
498.743	1	-4
499.084	1	-7
499.424	1	5
499.765	1	-2
500.105	1	1
500.446	1	-4
500.786	1	0
501.127	1	4
501.467	1	-7
501.808	1	7
502.148	1	9
502.489	1	5
502.829	1	4
503.170	1	1
503.510	1	6
503.851	1	3
504.191	1	8
504.532	1	3
504.872	1	-1
505.213	1	4
505.553	1	-2
505.894	1	-6
506.234	1	6
506.575	1	3
506.915	1	-2
507.256	1	3
507.596	1	-1
507.936	1	9
508.277	1	-9
508.617	1	-13
508.958	1	-7
509.298	1	0
509.639	1	0
509.979	1	-3
510.319	1	7
510.660	1	-8
511.000	1	-9
511.341	1	6
511.681	1	7
512.022	1	-7
512.362	1	-1
512.702	1	3
513.043	1	4
513.383	1	-10
513.724	1	6
514.064	1	11
514.404	1	-2
514.745	1	-7
515.085	1	0
515.425	1	-9
515.766	1	-9
516.106	1	-1
516.447	1	6
516.787	1	1
517.127	1	-5
517.468	1	-11
517.808	1	-3
518.148	1	2
518.489	1	4
518.829	1	9
519.169	1	3
519.510	1	9
519.850	1	-5
520.190	1	-2
520.531	1	-6
520.871	1	-4
521.211	1	-16
521.552	1	3
521.892	1	-2
522.232	1	7
522.573	1	2
522.913	1	0
523.253	1	4
523.593	1	-8
523.934	1	3
524.274	1	3
524.614	1	-8
524.955	1	-6
525.295	1	1
525.635	1	-7
525.975	1	3
526.316	1	6
526.656	1	-11
526.996	1	7
527.337	1	-1
527.677	1	1
528.017	1	-3
528.357	1	1
528.698	1	3
529.038	1	0
529.378	1	2
529.718	1	8
530.058	1	-3
530.399	1	11
530.739	1	3
531.079	1	-3
531.419	1	1
531.760	1	5
532.100	1	-1
532.440	1	3
532.780	1	-7
533.120	1	3
533.461	1	3
533.801	1	15
534.141	1	-13
534.481	1	-10
534.821	1	5
535.162	1	5
535.502	1	-2
535.842	1	11
536.182	1	3
536.522	1	5
536.862	1	2
537.203	1	-3
537.543	1	2
537.883	1	-6
538.223	1	-10
538.563	1	3
538.903	1	-4
539.243	1	4
539.584	1	-7
539.924	1	9
540.264	1	-10
540.604	1	2
540.944	1	-4
541.284	1	2
541.624	1	6
541.964	1	3
542.305	1	1
542.645	1	-6
542.985	1	2
543.325	1	-2
543.665	1	5
544.005	1	1
544.345	1	5
544.685	1	-3
545.025	1	0
545.365	1	2
545.705	1	2
546.045	1	-7
546.386	1	1
546.726	1	-8
547.066	1	2
547.406	1	-3
547.746	1	-17
548.086	1	4
548.426	1	-5
548.766	1	-4
549.106	1	0
549.446	1	-12
549.786	1	-6
550.126	1	20
550.466	1	9
550.806	1	-5
551.146	1	0
551.486	1	-8
551.826	1	1
552.166	1	7
552.506	1	7
552.846	1	-6
553.186	1	8
553.526	1	-7
553.866	1	1
554.206	1	0
554.546	1	8
554.886	1	8
555.226	1	-9
555.566	1	6
555.906	1	4
556.246	1	-2
556.586	1	0
556.926	1	-3
557.266	1	0
557.606	1	6
557.946	1	11
558.286	1	6
558.626	1	-3
558.966	1	0
559.306	1	-2
559.646	1	-6
559.986	1	-4
560.325	1	-2
560.665	1	-1
561.005	1	-3
561.345	1	0
561.685	1	-4
562.025	1	2
562.365	1	2
562.705	1	8
563.045	1	-14
563.385	1	-5
563.725	1	1
564.064	1	-1
564.404	1	8
564.744	1	-4
565.084	1	-2
565.424	1	-9
565.764	1	-1
566.104	1	5
566.444	1	-13
566.783	1	-1
567.123	1	0
567.463	1	1
567.803	1	-4
568.143	1	-1
568.483	1	2
568.823	1	-4
569.162	1	5
569.502	1	-3
569.842	1	12
570.182	1	3
570.522	1	-18
570.862	1	-1
571.201	1	11
571.541	1	8
571.881	1	8
572.221	1	-14
572.561	1	-4
572.900	1	4
573.240	1	-2
573.580	1	-5
573.920	1	4
574.260	1	11
574.599	1	0
574.939	1	10
575.279	1	12
575.619	1	6
575.959	1	-13
576.298	1	12
576.638	1	-6
576.978	1	17
577.318	1	1
577.657	1	-4
577.997	1	-3
578.337	1	1
578.677	1	10
579.016	1	10
579.356	1	3
579.696	1	9
580.036	1	2
580.375	1	1
580.715	1	-6
581.055	1	6
581.394	1	-4
581.734	1	-7
582.074	1	-4
582.414	1	7
582.753	1	1
583.093	1	-3
583.433	1	1
583.772	1	6
584.112	1	-6
584.452	1	3
584.791	1	-3
585.131	1	2
585.471	1	5
585.811	1	6
586.150	1	-1
586.490	1	1
586.830	1	-2
587.169	1	1
587.509	1	-3
587.849	1	1
588.188	1	8
588.528	1	7
588.867	1	1
589.207	1	4
589.547	1	-3
589.886	1	-8
590.226	1	5
590.566	1	-3
590.905	1	-1
591.245	1	-5
591.585	1	-3
591.924	1	-2
592.264	1	3
592.603	1	-1
592.943	1	-3
593.283	1	-6
593.622	1	-2
593.962	1	5
594.301	1	1
594.641	1	-12
594.981	1	-5
595.320	1	2
595.660	1	12
595.999	1	-4
596.339	1	2
596.678	1	-7
597.018	1	-5
597.358	1	10
597.697	1	-3
598.037	1	0
598.376	1	0
598.716	1	8
599.055	1	3
599.395	1	-3
599.734	1	1
600.074	1	9
600.413	1	7
600.753	1	0
601.092	1	9
601.432	1	-7
601.771	1	-1
602.111	1	0
602.451	1	2
602.790	1	-2
603.130	1	4
603.469	1	-9
603.809	1	2
604.148	1	1
604.487	1	7
604.827	1	2
605.166	1	7
605.506	1	1
605.845	1	3
606.185	1	2
606.524	1	-6
606.864	1	-6
607.203	1	-1
607.543	1	-5
607.882	1	12
608.222	1	0
608.561	1	5
608.901	1	4
609.240	1	2
609.579	1	8
609.919	1	13
610.258	1	8
610.598	1	-5
610.937	1	-2
611.277	1	-3
611.616	1	-9
611.955	1	-6
612.295	1	-3
612.634	1	-7
612.974	1	-4
613.313	1	3
613.652	1	-2
613.992	1	3
614.331	1	3
614.671	1	3
615.010	1	-2
615.349	1	12
615.689	1	10
616.028	1	-4
616.368	1	13
616.707	1	-1
617.046	1	1
617.386	1	-2
617.725	1	-6
618.064	1	-3
618.404	1	-4
618.743	1	-7
619.082	1	6
619.422	1	-2
619.761	1	-8
620.100	1	-5
620.440	1	8
620.779	1	-7
621.118	1	-1
621.458	1	1
621.797	1	1
622.136	1	14
622.476	1	4
622.815	1	4
623.154	1	8
623.494	1	15
623.833	1	12
624.172	1	5
624.511	1	-11
624.851	1	-13
625.190	1	-1
625.529	1	0
625.869	1	6
626.208	1	-3
626.547	1	9
626.886	1	16
627.226	1	7
627.565	1	2
627.904	1	-3
628.243	1	0
628.583	1	-8
628.922	1	-1
629.261	1	8
629.600	1	9
629.940	1	1
630.279	1	-8
630.618	1	-7
630.957	1	1
631.297	1	-2
631.636	1	-12
631.975	1	13
632.314	1	0
632.653	1	7
632.993	1	-9
633.332	1	2
633.671	1	-3
634.010	1	3
634.349	1	8
634.689	1	3
635.028	1	8
635.367	1	4
635.706	1	8
636.045	1	3
636.384	1	-2
636.724	1	-3
637.063	1	3
637.402	1	4
637.741	1	2
638.080	1	-3
638.419	1	-3
638.759	1	-3
639.098	1	-3
639.437	1	1
639.776	1	-3
640.115	1	-1
640.454	1	-4
640.793	1	11
641.132	1	7
641.472	1	4
641.811	1	10
642.150	1	-8
642.489	1	5
642.828	1	-7
643.167	1	-14
643.506	1	-7
643.845	1	-6
644.184	1	2
644.524	1	-1
644.863	1	-15
645.202	1	-6
645.541	1	2
645.880	1	6
646.219	1	-1
646.558	1	-1
646.897	1	-4
647.236	1	3
647.575	1	4
647.914	1	-5
648.253	1	8
648.592	1	-8
648.931	1	13
649.270	1	2
649.610	1	5
649.949	1	0
650.288	1	11
650.627	1	-1
650.966	1	7
651.305	1	-4
651.644	1	12
651.983	1	14
652.322	1	-4
652.661	1	-2
653.000	1	7
653.339	1	-1
653.678	1	-2
654.017	1	-5
654.356	1	-7
654.695	1	9
655.034	1	0
655.373	1	11
655.712	1	-1
656.051	1	5
656.390	1	-2
656.729	1	6
657.068	1	-1
657.406	1	5
657.745	1	-6
658.084	1	2
658.423	1	4
658.762	1	-1
659.101	1	3
659.440	1	-1
659.779	1	4
660.118	1	0
660.457	1	5
660.796	1	-10
661.135	1	-2
661.474	1	-4
661.813	1	6
662.152	1	7
662.491	1	-5
662.829	1	-1
663.168	1	0
663.507	1	9
663.846	1	0
664.185	1	13
664.524	1	2
664.863	1	-10
665.202	1	0
665.541	1	-11
665.879	1	-5
666.218	1	-11
666.557	1	-1
666.896	1	-6
667.235	1	3
667.574	1	2
667.913	1	2
668.251	1	-6
668.590	1	1
668.929	1	-7
669.268	1	-8
669.607	1	-2
669.946	1	-5
670.285	1	6
670.623	1	2
670.962	1	2
671.301	1	-2
671.640	1	0
671.979	1	-4
672.317	1	10
672.656	1	1
672.995	1	6
673.334	1	-3
673.673	1	5
674.011	1	-7
674.350	1	0
674.689	1	-3
675.028	1	3
675.367	1	1
675.705	1	4
676.044	1	-8
676.383	1	2
676.722	1	1
677.060	1	-1
677.399	1	-5
677.738	1	0
678.077	1	4
678.416	1	5
678.754	1	-1
679.093	1	-2
679.432	1	-3
679.771	1	-2
680.109	1	12
680.448	1	3
680.787	1	-3
681.125	1	-1
681.464	1	-9
681.803	1	-3
682.142	1	11
682.480	1	12
682.819	1	0
683.158	1	2
683.496	1	11
683.835	1	2
684.174	1	-8
684.512	1	5
684.851	1	6
685.190	1	4
685.529	1	6
685.867	1	0
686.206	1	1
686.545	1	-10
686.883	1	11
687.222	1	-2
687.561	1	0
687.899	1	-6
688.238	1	5
688.577	1	1
688.746	1	-7