File: Data/GaN_200K_800ms/GaN_sample F_spot 12_UVVIS_200 K_200um_800 ms 2x2mm1_473.txt
340.368	1	-3
340.710	1	-18
341.052	1	2
341.394	1	-8
341.737	1	1
342.079	1	-9
342.421	1	-5
342.763	1	-7
343.105	1	-6
343.447	1	-8
343.789	1	-2
344.131	1	-10
344.473	1	-4
344.815	1	-3
345.157	1	-10
345.499	1	-10
345.841	1	2
346.183	1	-5
346.526	1	-8
346.868	1	-6
347.210	1	-12
347.552	1	-11
347.894	1	-1
348.236	1	7
348.578	1	1
348.920	1	-7
349.262	1	-8
349.604	1	2
349.946	1	-3
350.288	1	10
350.630	1	5
350.972	1	4
351.314	1	4
351.656	1	9
351.998	1	4
352.340	1	-4
352.682	1	0
353.024	1	7
353.366	1	5
353.708	1	0
354.050	1	-8
354.392	1	-7
354.734	1	1
355.076	1	0
355.418	1	-11
355.760	1	-8
356.102	1	7
356.444	1	1
356.785	1	8
357.127	1	-1
357.469	1	-1
357.811	1	-1
358.153	1	5
358.495	1	1
358.837	1	-6
359.179	1	-4
359.521	1	9
359.863	1	-11
360.205	1	-3
360.547	1	8
360.889	1	2
361.231	1	-6
361.572	1	6
361.914	1	3
362.256	1	9
362.598	1	-8
362.940	1	-3
363.282	1	1
363.624	1	19
363.966	1	4
364.308	1	-5
364.649	1	-3
364.991	1	7
365.333	1	-6
365.675	1	-1
366.017	1	10
366.359	1	3
366.701	1	9
367.042	1	3
367.384	1	7
367.726	1	4
368.068	1	5
368.410	1	19
368.752	1	-2
369.093	1	8
369.435	1	9
369.777	1	0
370.119	1	5
370.461	1	21
370.803	1	7
371.144	1	2
371.486	1	4
371.828	1	8
372.170	1	17
372.512	1	14
372.853	1	11
373.195	1	1
373.537	1	6
373.879	1	-2
374.220	1	11
374.562	1	8
374.904	1	5
375.246	1	9
375.588	1	-2
375.929	1	8
376.271	1	7
376.613	1	7
376.955	1	-9
377.296	1	-1
377.638	1	8
377.980	1	6
378.321	1	-7
378.663	1	-5
379.005	1	7
379.347	1	4
379.688	1	5
380.030	1	-2
380.372	1	5
380.714	1	1
381.055	1	8
381.397	1	5
381.739	1	2
382.080	1	-1
382.422	1	10
382.764	1	0
383.105	1	3
383.447	1	-7
383.789	1	-10
384.130	1	-3
384.472	1	-6
384.814	1	8
385.156	1	-7
385.497	1	7
385.839	1	4
386.180	1	-2
386.522	1	4
386.864	1	8
387.205	1	-11
387.547	1	-8
387.889	1	-3
388.230	1	8
388.572	1	-9
388.914	1	0
389.255	1	-5
389.597	1	5
389.939	1	-2
390.280	1	5
390.622	1	-3
390.963	1	3
391.305	1	2
391.647	1	1
391.988	1	0
392.330	1	-9
392.671	1	-6
393.013	1	-2
393.355	1	6
393.696	1	0
394.038	1	3
394.379	1	14
394.721	1	-11
395.062	1	0
395.404	1	-1
395.746	1	8
396.087	1	4
396.429	1	8
396.770	1	-10
397.112	1	3
397.453	1	5
397.795	1	-1
398.136	1	-11
398.478	1	-4
398.819	1	0
399.161	1	11
399.503	1	-1
399.844	1	8
400.186	1	-4
400.527	1	0
400.869	1	-3
401.210	1	10
401.552	1	-20
401.893	1	0
402.235	1	0
402.576	1	2
402.918	1	6
403.259	1	-2
403.601	1	-7
403.942	1	0
404.284	1	5
404.625	1	7
404.967	1	-4
405.308	1	3
405.649	1	-3
405.991	1	-3
406.332	1	9
406.674	1	-5
407.015	1	1
407.357	1	-5
407.698	1	3
408.040	1	0
408.381	1	7
408.722	1	-8
409.064	1	-2
409.405	1	1
409.747	1	-7
410.088	1	0
410.430	1	6
410.771	1	11
411.112	1	-6
411.454	1	-7
411.795	1	-10
412.137	1	3
412.478	1	16
412.819	1	-7
413.161	1	-3
413.502	1	-1
413.844	1	3
414.185	1	1
414.526	1	-5
414.868	1	-5
415.209	1	-8
415.550	1	-8
415.892	1	-1
416.233	1	2
416.575	1	9
416.916	1	-8
417.257	1	-6
417.599	1	5
417.940	1	3
418.281	1	1
418.623	1	-1
418.964	1	-13
419.305	1	0
419.647	1	-10
419.988	1	1
420.329	1	-9
420.671	1	4
421.012	1	2
421.353	1	-6
421.695	1	-3
422.036	1	7
422.377	1	0
422.718	1	11
423.060	1	-4
423.401	1	0
423.742	1	-1
424.084	1	6
424.425	1	4
424.766	1	-3
425.107	1	-4
425.449	1	-4
425.790	1	-1
426.131	1	3
426.472	1	-4
426.814	1	1
427.155	1	-5
427.496	1	-5
427.837	1	-10
428.179	1	-9
428.520	1	-3
428.861	1	-6
429.202	1	-11
429.544	1	2
429.885	1	7
430.226	1	-7
430.567	1	-4
430.909	1	1
431.250	1	-6
431.591	1	0
431.932	1	2
432.273	1	5
432.615	1	-13
432.956	1	-9
433.297	1	9
433.638	1	-4
433.979	1	-3
434.320	1	1
434.662	1	-1
435.003	1	6
435.344	1	-3
435.685	1	3
436.026	1	3
436.368	1	6
436.709	1	-4
437.050	1	-9
437.391	1	0
437.732	1	-3
438.073	1	-2
438.414	1	-7
438.756	1	-9
439.097	1	-5
439.438	1	-7
439.779	1	6
440.120	1	2
440.461	1	-4
440.802	1	0
441.143	1	2
441.485	1	-3
441.826	1	-8
442.167	1	-1
442.508	1	-8
442.849	1	8
443.190	1	3
443.531	1	9
443.872	1	6
444.213	1	-1
444.554	1	8
444.895	1	0
445.237	1	-5
445.578	1	-13
445.919	1	-8
446.260	1	-9
446.601	1	-5
446.942	1	-9
447.283	1	-6
447.624	1	-2
447.965	1	1
448.306	1	-2
448.647	1	-2
448.988	1	-5
449.329	1	0
449.670	1	9
450.011	1	4
450.352	1	2
450.693	1	-15
451.034	1	-12
451.375	1	-7
451.716	1	-10
452.057	1	-2
452.398	1	-4
452.739	1	-1
453.080	1	1
453.421	1	-1
453.762	1	0
454.103	1	0
454.444	1	-12
454.785	1	8
455.126	1	-6
455.467	1	0
455.808	1	-8
456.149	1	1
456.490	1	-2
456.831	1	4
457.172	1	-4
457.513	1	5
457.854	1	-3
458.195	1	-6
458.536	1	6
458.877	1	-1
459.218	1	-1
459.559	1	9
459.899	1	1
460.240	1	0
460.581	1	13
460.922	1	2
461.263	1	3
461.604	1	-14
461.945	1	0
462.286	1	-3
462.627	1	4
462.968	1	5
463.309	1	-5
463.649	1	-1
463.990	1	-1
464.331	1	0
464.672	1	-4
465.013	1	1
465.354	1	5
465.695	1	-1
466.036	1	-6
466.376	1	1
466.717	1	0
467.058	1	1
467.399	1	15
467.740	1	-11
468.081	1	4
468.422	1	-17
468.762	1	-2
469.103	1	-4
469.444	1	0
469.785	1	-15
470.126	1	-5
470.467	1	-4
470.807	1	0
471.148	1	-8
471.489	1	-4
471.830	1	3
472.171	1	3
472.511	1	-1
472.852	1	-5
473.193	1	1
473.534	1	4
473.875	1	10
474.215	1	9
474.556	1	-2
474.897	1	6
475.238	1	-3
475.578	1	-13
475.919	1	-2
476.260	1	-2
476.601	1	-3
476.942	1	3
477.282	1	-2
477.623	1	-6
477.964	1	-6
478.305	1	0
478.645	1	5
478.986	1	-14
479.327	1	-8
479.667	1	3
480.008	1	-4
480.349	1	0
480.690	1	-8
481.030	1	-9
481.371	1	-5
481.712	1	-1
482.053	1	-1
482.393	1	-5
482.734	1	-7
483.075	1	-1
483.415	1	-2
483.756	1	11
484.097	1	-8
484.437	1	-1
484.778	1	3
485.119	1	-4
485.459	1	9
485.800	1	1
486.141	1	-3
486.481	1	-3
486.822	1	2
487.163	1	-3
487.503	1	-7
487.844	1	-8
488.185	1	2
488.525	1	-8
488.866	1	-1
489.207	1	-5
489.547	1	-7
489.888	1	-3
490.228	1	8
490.569	1	10
490.910	1	-3
491.250	1	-4
491.591	1	-3
491.932	1	-5
492.272	1	3
492.613	1	-8
492.953	1	-6
493.294	1	-5
493.635	1	5
493.975	1	0
494.316	1	1
494.656	1	-1
494.997	1	0
495.337	1	9
495.678	1	-4
496.019	1	1
496.359	1	-7
496.700	1	1
497.040	1	-5
497.381	1	-3
497.721	1	-2
498.062	1	0
498.403	1	-3
498.743	1	-3
499.084	1	-8
499.424	1	-1
499.765	1	-13
500.105	1	3
500.446	1	-8
500.786	1	-4
501.127	1	6
501.467	1	-4
501.808	1	-2
502.148	1	1
502.489	1	4
502.829	1	1
503.170	1	2
503.510	1	1
503.851	1	0
504.191	1	8
504.532	1	8
504.872	1	-4
505.213	1	3
505.553	1	-10
505.894	1	-4
506.234	1	10
506.575	1	2
506.915	1	4
507.256	1	1
507.596	1	2
507.936	1	-1
508.277	1	-2
508.617	1	1
508.958	1	0
509.298	1	-2
509.639	1	-6
509.979	1	-4
510.319	1	-5
510.660	1	-6
511.000	1	-3
511.341	1	2
511.681	1	0
512.022	1	-4
512.362	1	-7
512.702	1	-5
513.043	1	2
513.383	1	-6
513.724	1	-2
514.064	1	10
514.404	1	-3
514.745	1	-4
515.085	1	2
515.425	1	-3
515.766	1	-7
516.106	1	2
516.447	1	7
516.787	1	1
517.127	1	0
517.468	1	6
517.808	1	-7
518.148	1	11
518.489	1	4
518.829	1	4
519.169	1	-5
519.510	1	-5
519.850	1	-8
520.190	1	-4
520.531	1	2
520.871	1	-5
521.211	1	-14
521.552	1	6
521.892	1	3
522.232	1	3
522.573	1	-1
522.913	1	-2
523.253	1	5
523.593	1	-12
523.934	1	10
524.274	1	0
524.614	1	-10
524.955	1	-12
525.295	1	2
525.635	1	-1
525.975	1	7
526.316	1	11
526.656	1	-5
526.996	1	6
527.337	1	-3
527.677	1	3
528.017	1	-2
528.357	1	1
528.698	1	-2
529.038	1	2
529.378	1	5
529.718	1	5
530.058	1	2
530.399	1	3
530.739	1	4
531.079	1	2
531.419	1	0
531.760	1	9
532.100	1	-5
532.440	1	-9
532.780	1	-6
533.120	1	9
533.461	1	0
533.801	1	16
534.141	1	-17
534.481	1	-1
534.821	1	7
535.162	1	-8
535.502	1	-9
535.842	1	3
536.182	1	-8
536.522	1	-5
536.862	1	9
537.203	1	-4
537.543	1	-6
537.883	1	-7
538.223	1	3
538.563	1	18
538.903	1	-14
539.243	1	-5
539.584	1	-1
539.924	1	15
540.264	1	3
540.604	1	3
540.944	1	-4
541.284	1	4
541.624	1	6
541.964	1	3
542.305	1	5
542.645	1	-2
542.985	1	-6
543.325	1	0
543.665	1	-1
544.005	1	6
544.345	1	1
544.685	1	-9
545.025	1	-3
545.365	1	-8
545.705	1	-3
546.045	1	-11
546.386	1	12
546.726	1	-2
547.066	1	5
547.406	1	-1
547.746	1	-11
548.086	1	4
548.426	1	1
548.766	1	-2
549.106	1	-4
549.446	1	-2
549.786	1	1
550.126	1	20
550.466	1	1
550.806	1	-3
551.146	1	-8
551.486	1	4
551.826	1	4
552.166	1	5
552.506	1	10
552.846	1	7
553.186	1	0
553.526	1	-4
553.866	1	-6
554.206	1	-2
554.546	1	0
554.886	1	6
555.226	1	-8
555.566	1	2
555.906	1	-3
556.246	1	1
556.586	1	1
556.926	1	-3
557.266	1	-7
557.606	1	-1
557.946	1	11
558.286	1	4
558.626	1	12
558.966	1	3
559.306	1	0
559.646	1	-3
559.986	1	-8
560.325	1	-8
560.665	1	5
561.005	1	-9
561.345	1	-6
561.685	1	2
562.025	1	3
562.365	1	-5
562.705	1	-8
563.045	1	-6
563.385	1	-17
563.725	1	7
564.064	1	2
564.404	1	10
564.744	1	5
565.084	1	-8
565.424	1	3
565.764	1	1
566.104	1	-2
566.444	1	-7
566.783	1	-8
567.123	1	7
567.463	1	-4
567.803	1	-7
568.143	1	0
568.483	1	-2
568.823	1	-2
569.162	1	5
569.502	1	5
569.842	1	1
570.182	1	0
570.522	1	-14
570.862	1	-3
571.201	1	9
571.541	1	5
571.881	1	12
572.221	1	-5
572.561	1	-8
572.900	1	-6
573.240	1	3
573.580	1	-8
573.920	1	4
574.260	1	8
574.599	1	-4
574.939	1	8
575.279	1	10
575.619	1	6
575.959	1	-11
576.298	1	8
576.638	1	-4
576.978	1	1
577.318	1	0
577.657	1	-9
577.997	1	-1
578.337	1	6
578.677	1	6
579.016	1	12
579.356	1	-10
579.696	1	2
580.036	1	-11
580.375	1	2
580.715	1	-3
581.055	1	-3
581.394	1	-8
581.734	1	-8
582.074	1	-5
582.414	1	4
582.753	1	-8
583.093	1	-5
583.433	1	-5
583.772	1	3
584.112	1	-10
584.452	1	-4
584.791	1	-11
585.131	1	-3
585.471	1	4
585.811	1	9
586.150	1	2
586.490	1	1
586.830	1	3
587.169	1	9
587.509	1	-1
587.849	1	-3
588.188	1	4
588.528	1	-1
588.867	1	7
589.207	1	-2
589.547	1	4
589.886	1	-9
590.226	1	12
590.566	1	-7
590.905	1	-2
591.245	1	-5
591.585	1	2
591.924	1	-2
592.264	1	-4
592.603	1	-2
592.943	1	7
593.283	1	1
593.622	1	-6
593.962	1	4
594.301	1	-2
594.641	1	-3
594.981	1	-9
595.320	1	1
595.660	1	10
595.999	1	-13
596.339	1	-1
596.678	1	-8
597.018	1	-11
597.358	1	3
597.697	1	-1
598.037	1	3
598.376	1	0
598.716	1	10
599.055	1	-1
599.395	1	4
599.734	1	7
600.074	1	1
600.413	1	12
600.753	1	0
601.092	1	14
601.432	1	-5
601.771	1	1
602.111	1	8
602.451	1	9
602.790	1	-3
603.130	1	3
603.469	1	-5
603.809	1	7
604.148	1	1
604.487	1	0
604.827	1	4
605.166	1	0
605.506	1	4
605.845	1	2
606.185	1	5
606.524	1	-4
606.864	1	-5
607.203	1	0
607.543	1	1
607.882	1	0
608.222	1	-2
608.561	1	-7
608.901	1	8
609.240	1	-4
609.579	1	-6
609.919	1	7
610.258	1	9
610.598	1	-4
610.937	1	3
611.277	1	9
611.616	1	2
611.955	1	2
612.295	1	-4
612.634	1	5
612.974	1	-11
613.313	1	5
613.652	1	-2
613.992	1	1
614.331	1	-7
614.671	1	-2
615.010	1	-10
615.349	1	2
615.689	1	10
616.028	1	-7
616.368	1	2
616.707	1	-5
617.046	1	-1
617.386	1	11
617.725	1	10
618.064	1	-5
618.404	1	-6
618.743	1	2
619.082	1	6
619.422	1	-4
619.761	1	3
620.100	1	1
620.440	1	1
620.779	1	-11
621.118	1	-2
621.458	1	7
621.797	1	-8
622.136	1	14
622.476	1	9
622.815	1	8
623.154	1	2
623.494	1	5
623.833	1	0
624.172	1	-5
624.511	1	2
624.851	1	-11
625.190	1	-4
625.529	1	-1
625.869	1	7
626.208	1	-4
626.547	1	2
626.886	1	3
627.226	1	1
627.565	1	1
627.904	1	-8
628.243	1	3
628.583	1	-1
628.922	1	2
629.261	1	-1
629.600	1	5
629.940	1	-6
630.279	1	-11
630.618	1	-2
630.957	1	-7
631.297	1	3
631.636	1	-20
631.975	1	13
632.314	1	-3
632.653	1	0
632.993	1	-6
633.332	1	0
633.671	1	-2
634.010	1	-9
634.349	1	10
634.689	1	4
635.028	1	0
635.367	1	6
635.706	1	-1
636.045	1	10
636.384	1	-3
636.724	1	-7
637.063	1	-2
637.402	1	6
637.741	1	-3
638.080	1	-6
638.419	1	-6
638.759	1	-12
639.098	1	3
639.437	1	-1
639.776	1	-8
640.115	1	-1
640.454	1	-8
640.793	1	3
641.132	1	8
641.472	1	-1
641.811	1	-3
642.150	1	-12
642.489	1	-5
642.828	1	-4
643.167	1	-2
643.506	1	-15
643.845	1	-6
644.184	1	0
644.524	1	-4
644.863	1	-2
645.202	1	-3
645.541	1	3
645.880	1	1
646.219	1	5
646.558	1	4
646.897	1	-5
647.236	1	0
647.575	1	6
647.914	1	-9
648.253	1	9
648.592	1	-2
648.931	1	12
649.270	1	3
649.610	1	-9
649.949	1	-7
650.288	1	7
650.627	1	-9
650.966	1	3
651.305	1	6
651.644	1	9
651.983	1	2
652.322	1	-4
652.661	1	-4
653.000	1	-1
653.339	1	10
653.678	1	-5
654.017	1	2
654.356	1	-6
654.695	1	3
655.034	1	-3
655.373	1	3
655.712	1	3
656.051	1	-4
656.390	1	-5
656.729	1	3
657.068	1	-1
657.406	1	7
657.745	1	-3
658.084	1	-2
658.423	1	3
658.762	1	2
659.101	1	11
659.440	1	2
659.779	1	0
660.118	1	-8
660.457	1	0
660.796	1	-13
661.135	1	-3
661.474	1	9
661.813	1	10
662.152	1	-2
662.491	1	-7
662.829	1	-4
663.168	1	-10
663.507	1	1
663.846	1	3
664.185	1	1
664.524	1	0
664.863	1	-2
665.202	1	2
665.541	1	-3
665.879	1	-8
666.218	1	0
666.557	1	-3
666.896	1	-4
667.235	1	-2
667.574	1	2
667.913	1	-1
668.251	1	-2
668.590	1	3
668.929	1	-13
669.268	1	4
669.607	1	-3
669.946	1	0
670.285	1	2
670.623	1	4
670.962	1	-5
671.301	1	0
671.640	1	7
671.979	1	-6
672.317	1	11
672.656	1	-3
672.995	1	1
673.334	1	-10
673.673	1	-5
674.011	1	-2
674.350	1	-5
674.689	1	3
675.028	1	-6
675.367	1	8
675.705	1	5
676.044	1	-6
676.383	1	3
676.722	1	2
677.060	1	-6
677.399	1	-8
677.738	1	-2
678.077	1	1
678.416	1	-1
678.754	1	-9
679.093	1	4
679.432	1	-6
679.771	1	-2
680.109	1	11
680.448	1	-5
680.787	1	3
681.125	1	4
681.464	1	-4
681.803	1	-1
682.142	1	13
682.480	1	6
682.819	1	-7
683.158	1	-7
683.496	1	4
683.835	1	-6
684.174	1	6
684.512	1	4
684.851	1	-3
685.190	1	-7
685.529	1	-5
685.867	1	-5
686.206	1	-7
686.545	1	-8
686.883	1	1
687.222	1	2
687.561	1	9
687.899	1	-3
688.238	1	-4
688.577	1	4
688.746	1	-11