File: Data/GaN_200K_800ms/GaN_sample F_spot 12_UVVIS_200 K_200um_800 ms 2x2mm1_223.txt
340.368	1	6
340.710	1	-5
341.052	1	5
341.394	1	-7
341.737	1	7
342.079	1	-3
342.421	1	-5
342.763	1	12
343.105	1	-2
343.447	1	-3
343.789	1	5
344.131	1	1
344.473	1	-4
344.815	1	6
345.157	1	-6
345.499	1	1
345.841	1	2
346.183	1	-4
346.526	1	-3
346.868	1	1
347.210	1	-2
347.552	1	9
347.894	1	0
348.236	1	3
348.578	1	-2
348.920	1	5
349.262	1	-4
349.604	1	8
349.946	1	-2
350.288	1	8
350.630	1	8
350.972	1	-3
351.314	1	8
351.656	1	7
351.998	1	7
352.340	1	1
352.682	1	1
353.024	1	5
353.366	1	14
353.708	1	6
354.050	1	-4
354.392	1	-1
354.734	1	-2
355.076	1	3
355.418	1	-13
355.760	1	-3
356.102	1	9
356.444	1	-6
356.785	1	11
357.127	1	6
357.469	1	10
357.811	1	8
358.153	1	12
358.495	1	8
358.837	1	-5
359.179	1	-7
359.521	1	10
359.863	1	10
360.205	1	-1
360.547	1	6
360.889	1	0
361.231	1	8
361.572	1	6
361.914	1	3
362.256	1	7
362.598	1	-1
362.940	1	5
363.282	1	7
363.624	1	8
363.966	1	11
364.308	1	7
364.649	1	10
364.991	1	19
365.333	1	8
365.675	1	18
366.017	1	11
366.359	1	14
366.701	1	21
367.042	1	19
367.384	1	29
367.726	1	32
368.068	1	28
368.410	1	34
368.752	1	23
369.093	1	31
369.435	1	28
369.777	1	26
370.119	1	26
370.461	1	42
370.803	1	26
371.144	1	22
371.486	1	23
371.828	1	32
372.170	1	28
372.512	1	13
372.853	1	19
373.195	1	14
373.537	1	12
373.879	1	12
374.220	1	31
374.562	1	25
374.904	1	21
375.246	1	16
375.588	1	12
375.929	1	16
376.271	1	22
376.613	1	12
376.955	1	6
377.296	1	2
377.638	1	7
377.980	1	3
378.321	1	6
378.663	1	1
379.005	1	12
379.347	1	6
379.688	1	16
380.030	1	7
380.372	1	12
380.714	1	12
381.055	1	8
381.397	1	3
381.739	1	14
382.080	1	11
382.422	1	4
382.764	1	8
383.105	1	-3
383.447	1	-7
383.789	1	0
384.130	1	1
384.472	1	9
384.814	1	4
385.156	1	4
385.497	1	7
385.839	1	4
386.180	1	1
386.522	1	9
386.864	1	5
387.205	1	1
387.547	1	3
387.889	1	10
388.230	1	5
388.572	1	-6
388.914	1	8
389.255	1	0
389.597	1	6
389.939	1	4
390.280	1	6
390.622	1	6
390.963	1	16
391.305	1	6
391.647	1	-5
391.988	1	5
392.330	1	3
392.671	1	0
393.013	1	-6
393.355	1	7
393.696	1	0
394.038	1	5
394.379	1	8
394.721	1	2
395.062	1	6
395.404	1	-9
395.746	1	8
396.087	1	0
396.429	1	7
396.770	1	-7
397.112	1	14
397.453	1	8
397.795	1	0
398.136	1	-10
398.478	1	-3
398.819	1	-3
399.161	1	6
399.503	1	4
399.844	1	1
400.186	1	-2
400.527	1	-3
400.869	1	2
401.210	1	0
401.552	1	-11
401.893	1	-6
402.235	1	5
402.576	1	-4
402.918	1	8
403.259	1	4
403.601	1	3
403.942	1	2
404.284	1	10
404.625	1	4
404.967	1	4
405.308	1	5
405.649	1	-2
405.991	1	-5
406.332	1	6
406.674	1	2
407.015	1	8
407.357	1	0
407.698	1	4
408.040	1	-4
408.381	1	2
408.722	1	-20
409.064	1	9
409.405	1	6
409.747	1	0
410.088	1	5
410.430	1	8
410.771	1	-3
411.112	1	4
411.454	1	-1
411.795	1	-6
412.137	1	4
412.478	1	20
412.819	1	-2
413.161	1	0
413.502	1	1
413.844	1	2
414.185	1	-9
414.526	1	-15
414.868	1	-3
415.209	1	-2
415.550	1	-14
415.892	1	1
416.233	1	9
416.575	1	7
416.916	1	-6
417.257	1	1
417.599	1	6
417.940	1	9
418.281	1	2
418.623	1	6
418.964	1	-8
419.305	1	0
419.647	1	-8
419.988	1	-9
420.329	1	-12
420.671	1	3
421.012	1	-4
421.353	1	-3
421.695	1	-9
422.036	1	3
422.377	1	-2
422.718	1	7
423.060	1	-6
423.401	1	2
423.742	1	-1
424.084	1	-4
424.425	1	7
424.766	1	-8
425.107	1	-2
425.449	1	2
425.790	1	-17
426.131	1	1
426.472	1	5
426.814	1	-3
427.155	1	-6
427.496	1	-3
427.837	1	-6
428.179	1	-13
428.520	1	-1
428.861	1	4
429.202	1	3
429.544	1	-4
429.885	1	11
430.226	1	-11
430.567	1	10
430.909	1	-5
431.250	1	-1
431.591	1	2
431.932	1	1
432.273	1	-8
432.615	1	-5
432.956	1	-14
433.297	1	-5
433.638	1	-3
433.979	1	-1
434.320	1	0
434.662	1	5
435.003	1	8
435.344	1	2
435.685	1	1
436.026	1	8
436.368	1	-1
436.709	1	0
437.050	1	-5
437.391	1	5
437.732	1	-2
438.073	1	-3
438.414	1	-10
438.756	1	-1
439.097	1	-19
439.438	1	-2
439.779	1	3
440.120	1	-6
440.461	1	-1
440.802	1	-9
441.143	1	14
441.485	1	10
441.826	1	6
442.167	1	0
442.508	1	1
442.849	1	3
443.190	1	-1
443.531	1	9
443.872	1	2
444.213	1	2
444.554	1	3
444.895	1	-2
445.237	1	0
445.578	1	-5
445.919	1	-3
446.260	1	3
446.601	1	-6
446.942	1	-4
447.283	1	-1
447.624	1	-5
447.965	1	-2
448.306	1	0
448.647	1	-8
448.988	1	1
449.329	1	-1
449.670	1	4
450.011	1	0
450.352	1	-5
450.693	1	-2
451.034	1	-9
451.375	1	5
451.716	1	-1
452.057	1	6
452.398	1	-3
452.739	1	10
453.080	1	-5
453.421	1	9
453.762	1	4
454.103	1	-11
454.444	1	-9
454.785	1	-5
455.126	1	-5
455.467	1	0
455.808	1	3
456.149	1	1
456.490	1	-3
456.831	1	6
457.172	1	-2
457.513	1	11
457.854	1	8
458.195	1	-1
458.536	1	5
458.877	1	-1
459.218	1	-7
459.559	1	12
459.899	1	0
460.240	1	3
460.581	1	16
460.922	1	8
461.263	1	-1
461.604	1	0
461.945	1	-2
462.286	1	-2
462.627	1	4
462.968	1	3
463.309	1	-3
463.649	1	4
463.990	1	2
464.331	1	-1
464.672	1	0
465.013	1	-10
465.354	1	6
465.695	1	-7
466.036	1	-14
466.376	1	8
466.717	1	0
467.058	1	-3
467.399	1	4
467.740	1	-2
468.081	1	-1
468.422	1	2
468.762	1	-10
469.103	1	-1
469.444	1	-6
469.785	1	-8
470.126	1	-10
470.467	1	3
470.807	1	3
471.148	1	3
471.489	1	5
471.830	1	-3
472.171	1	5
472.511	1	-3
472.852	1	0
473.193	1	-4
473.534	1	3
473.875	1	8
474.215	1	3
474.556	1	7
474.897	1	10
475.238	1	-4
475.578	1	-5
475.919	1	-4
476.260	1	-4
476.601	1	1
476.942	1	6
477.282	1	-2
477.623	1	-8
477.964	1	3
478.305	1	-4
478.645	1	8
478.986	1	5
479.327	1	-5
479.667	1	-3
480.008	1	7
480.349	1	-3
480.690	1	0
481.030	1	-9
481.371	1	-4
481.712	1	-1
482.053	1	6
482.393	1	1
482.734	1	-6
483.075	1	-8
483.415	1	-5
483.756	1	3
484.097	1	3
484.437	1	2
484.778	1	-1
485.119	1	-5
485.459	1	15
485.800	1	-5
486.141	1	-3
486.481	1	8
486.822	1	6
487.163	1	-1
487.503	1	5
487.844	1	3
488.185	1	8
488.525	1	0
488.866	1	1
489.207	1	-5
489.547	1	-1
489.888	1	-7
490.228	1	-2
490.569	1	8
490.910	1	-5
491.250	1	-6
491.591	1	-6
491.932	1	-1
492.272	1	3
492.613	1	-11
492.953	1	2
493.294	1	-4
493.635	1	5
493.975	1	3
494.316	1	-5
494.656	1	-2
494.997	1	2
495.337	1	10
495.678	1	-4
496.019	1	0
496.359	1	-2
496.700	1	5
497.040	1	-12
497.381	1	7
497.721	1	-2
498.062	1	-9
498.403	1	2
498.743	1	-11
499.084	1	-3
499.424	1	-4
499.765	1	-1
500.105	1	3
500.446	1	-15
500.786	1	-8
501.127	1	4
501.467	1	-3
501.808	1	8
502.148	1	7
502.489	1	6
502.829	1	-2
503.170	1	12
503.510	1	8
503.851	1	2
504.191	1	-3
504.532	1	6
504.872	1	1
505.213	1	1
505.553	1	-9
505.894	1	-7
506.234	1	12
506.575	1	3
506.915	1	8
507.256	1	11
507.596	1	-1
507.936	1	4
508.277	1	-1
508.617	1	1
508.958	1	-4
509.298	1	-1
509.639	1	-8
509.979	1	0
510.319	1	5
510.660	1	2
511.000	1	-1
511.341	1	4
511.681	1	5
512.022	1	-7
512.362	1	-15
512.702	1	-3
513.043	1	8
513.383	1	-9
513.724	1	5
514.064	1	8
514.404	1	5
514.745	1	1
515.085	1	0
515.425	1	-2
515.766	1	-5
516.106	1	8
516.447	1	14
516.787	1	13
517.127	1	-1
517.468	1	-5
517.808	1	11
518.148	1	7
518.489	1	-7
518.829	1	14
519.169	1	2
519.510	1	-1
519.850	1	1
520.190	1	-3
520.531	1	8
520.871	1	3
521.211	1	-4
521.552	1	10
521.892	1	8
522.232	1	1
522.573	1	0
522.913	1	1
523.253	1	5
523.593	1	-5
523.934	1	-3
524.274	1	-2
524.614	1	-2
524.955	1	-1
525.295	1	2
525.635	1	5
525.975	1	-2
526.316	1	13
526.656	1	-1
526.996	1	11
527.337	1	-6
527.677	1	6
528.017	1	-6
528.357	1	-1
528.698	1	0
529.038	1	5
529.378	1	9
529.718	1	6
530.058	1	4
530.399	1	8
530.739	1	9
531.079	1	10
531.419	1	13
531.760	1	4
532.100	1	3
532.440	1	-2
532.780	1	2
533.120	1	14
533.461	1	10
533.801	1	15
534.141	1	-11
534.481	1	-3
534.821	1	9
535.162	1	-2
535.502	1	-1
535.842	1	4
536.182	1	1
536.522	1	-9
536.862	1	4
537.203	1	-2
537.543	1	-7
537.883	1	-2
538.223	1	2
538.563	1	6
538.903	1	-17
539.243	1	-2
539.584	1	-3
539.924	1	13
540.264	1	5
540.604	1	3
540.944	1	3
541.284	1	11
541.624	1	7
541.964	1	6
542.305	1	16
542.645	1	2
542.985	1	13
543.325	1	4
543.665	1	6
544.005	1	12
544.345	1	10
544.685	1	8
545.025	1	-4
545.365	1	1
545.705	1	5
546.045	1	3
546.386	1	10
546.726	1	-5
547.066	1	9
547.406	1	5
547.746	1	-12
548.086	1	3
548.426	1	-6
548.766	1	2
549.106	1	-7
549.446	1	0
549.786	1	-10
550.126	1	16
550.466	1	8
550.806	1	-2
551.146	1	0
551.486	1	8
551.826	1	18
552.166	1	-1
552.506	1	7
552.846	1	0
553.186	1	3
553.526	1	4
553.866	1	1
554.206	1	9
554.546	1	9
554.886	1	11
555.226	1	-19
555.566	1	11
555.906	1	13
556.246	1	6
556.586	1	4
556.926	1	11
557.266	1	2
557.606	1	-3
557.946	1	16
558.286	1	16
558.626	1	4
558.966	1	-3
559.306	1	-1
559.646	1	-7
559.986	1	-1
560.325	1	0
560.665	1	6
561.005	1	-5
561.345	1	-9
561.685	1	4
562.025	1	6
562.365	1	0
562.705	1	-3
563.045	1	1
563.385	1	7
563.725	1	7
564.064	1	11
564.404	1	1
564.744	1	8
565.084	1	-1
565.424	1	9
565.764	1	-1
566.104	1	1
566.444	1	-6
566.783	1	-4
567.123	1	6
567.463	1	3
567.803	1	3
568.143	1	0
568.483	1	7
568.823	1	12
569.162	1	5
569.502	1	-1
569.842	1	15
570.182	1	5
570.522	1	-7
570.862	1	7
571.201	1	9
571.541	1	6
571.881	1	15
572.221	1	-6
572.561	1	1
572.900	1	-7
573.240	1	5
573.580	1	-2
573.920	1	2
574.260	1	8
574.599	1	7
574.939	1	10
575.279	1	8
575.619	1	11
575.959	1	-6
576.298	1	14
576.638	1	3
576.978	1	18
577.318	1	4
577.657	1	-5
577.997	1	-1
578.337	1	10
578.677	1	4
579.016	1	7
579.356	1	1
579.696	1	10
580.036	1	1
580.375	1	1
580.715	1	3
581.055	1	5
581.394	1	2
581.734	1	4
582.074	1	4
582.414	1	14
582.753	1	1
583.093	1	2
583.433	1	-2
583.772	1	-1
584.112	1	-1
584.452	1	10
584.791	1	3
585.131	1	5
585.471	1	3
585.811	1	4
586.150	1	-4
586.490	1	4
586.830	1	5
587.169	1	3
587.509	1	-1
587.849	1	12
588.188	1	5
588.528	1	5
588.867	1	7
589.207	1	7
589.547	1	7
589.886	1	5
590.226	1	12
590.566	1	0
590.905	1	4
591.245	1	-3
591.585	1	5
591.924	1	5
592.264	1	3
592.603	1	10
592.943	1	1
593.283	1	1
593.622	1	-10
593.962	1	9
594.301	1	5
594.641	1	0
594.981	1	5
595.320	1	2
595.660	1	6
595.999	1	-4
596.339	1	16
596.678	1	-7
597.018	1	-7
597.358	1	5
597.697	1	6
598.037	1	3
598.376	1	11
598.716	1	8
599.055	1	20
599.395	1	2
599.734	1	2
600.074	1	-1
600.413	1	11
600.753	1	7
601.092	1	14
601.432	1	-1
601.771	1	5
602.111	1	-2
602.451	1	9
602.790	1	0
603.130	1	9
603.469	1	-3
603.809	1	11
604.148	1	8
604.487	1	0
604.827	1	9
605.166	1	12
605.506	1	4
605.845	1	0
606.185	1	11
606.524	1	-4
606.864	1	-1
607.203	1	-2
607.543	1	0
607.882	1	-2
608.222	1	5
608.561	1	4
608.901	1	2
609.240	1	-1
609.579	1	6
609.919	1	9
610.258	1	15
610.598	1	3
610.937	1	3
611.277	1	6
611.616	1	1
611.955	1	1
612.295	1	1
612.634	1	1
612.974	1	-6
613.313	1	10
613.652	1	7
613.992	1	-1
614.331	1	1
614.671	1	6
615.010	1	1
615.349	1	7
615.689	1	15
616.028	1	-5
616.368	1	4
616.707	1	2
617.046	1	2
617.386	1	11
617.725	1	9
618.064	1	-3
618.404	1	-1
618.743	1	8
619.082	1	5
619.422	1	-13
619.761	1	8
620.100	1	7
620.440	1	-1
620.779	1	-6
621.118	1	7
621.458	1	5
621.797	1	-2
622.136	1	12
622.476	1	3
622.815	1	4
623.154	1	2
623.494	1	12
623.833	1	11
624.172	1	-1
624.511	1	1
624.851	1	-3
625.190	1	2
625.529	1	6
625.869	1	9
626.208	1	0
626.547	1	8
626.886	1	2
627.226	1	2
627.565	1	-2
627.904	1	-5
628.243	1	11
628.583	1	1
628.922	1	7
629.261	1	3
629.600	1	14
629.940	1	-2
630.279	1	-8
630.618	1	-9
630.957	1	0
631.297	1	7
631.636	1	-7
631.975	1	11
632.314	1	-3
632.653	1	6
632.993	1	4
633.332	1	8
633.671	1	-9
634.010	1	-4
634.349	1	3
634.689	1	5
635.028	1	6
635.367	1	1
635.706	1	4
636.045	1	10
636.384	1	1
636.724	1	0
637.063	1	-7
637.402	1	3
637.741	1	-1
638.080	1	4
638.419	1	7
638.759	1	-4
639.098	1	15
639.437	1	3
639.776	1	3
640.115	1	0
640.454	1	-2
640.793	1	11
641.132	1	0
641.472	1	9
641.811	1	-7
642.150	1	-12
642.489	1	3
642.828	1	-5
643.167	1	8
643.506	1	-9
643.845	1	-3
644.184	1	-1
644.524	1	5
644.863	1	-13
645.202	1	-7
645.541	1	-2
645.880	1	-1
646.219	1	0
646.558	1	-3
646.897	1	8
647.236	1	6
647.575	1	4
647.914	1	3
648.253	1	8
648.592	1	4
648.931	1	6
649.270	1	-4
649.610	1	6
649.949	1	7
650.288	1	5
650.627	1	-5
650.966	1	1
651.305	1	1
651.644	1	21
651.983	1	7
652.322	1	0
652.661	1	1
653.000	1	-8
653.339	1	11
653.678	1	3
654.017	1	-1
654.356	1	0
654.695	1	7
655.034	1	3
655.373	1	9
655.712	1	0
656.051	1	-5
656.390	1	-8
656.729	1	10
657.068	1	5
657.406	1	1
657.745	1	-7
658.084	1	2
658.423	1	4
658.762	1	0
659.101	1	8
659.440	1	7
659.779	1	11
660.118	1	3
660.457	1	9
660.796	1	-15
661.135	1	8
661.474	1	0
661.813	1	16
662.152	1	11
662.491	1	-6
662.829	1	-6
663.168	1	1
663.507	1	10
663.846	1	4
664.185	1	9
664.524	1	-9
664.863	1	-1
665.202	1	7
665.541	1	-8
665.879	1	-6
666.218	1	-16
666.557	1	-2
666.896	1	0
667.235	1	4
667.574	1	3
667.913	1	6
668.251	1	-1
668.590	1	5
668.929	1	-3
669.268	1	3
669.607	1	-5
669.946	1	1
670.285	1	9
670.623	1	-1
670.962	1	2
671.301	1	-2
671.640	1	-2
671.979	1	-3
672.317	1	-3
672.656	1	0
672.995	1	4
673.334	1	1
673.673	1	4
674.011	1	-6
674.350	1	6
674.689	1	-1
675.028	1	1
675.367	1	9
675.705	1	2
676.044	1	5
676.383	1	1
676.722	1	6
677.060	1	-1
677.399	1	2
677.738	1	8
678.077	1	8
678.416	1	-1
678.754	1	-4
679.093	1	7
679.432	1	-5
679.771	1	5
680.109	1	-1
680.448	1	-6
680.787	1	3
681.125	1	7
681.464	1	0
681.803	1	-1
682.142	1	9
682.480	1	5
682.819	1	0
683.158	1	4
683.496	1	-4
683.835	1	2
684.174	1	3
684.512	1	9
684.851	1	5
685.190	1	0
685.529	1	-5
685.867	1	-6
686.206	1	-7
686.545	1	2
686.883	1	4
687.222	1	5
687.561	1	5
687.899	1	-2
688.238	1	12
688.577	1	1
688.746	1	-1