File: Data/GaN_200K_800ms/GaN_sample F_spot 12_UVVIS_200 K_200um_800 ms 2x2mm1_336.txt
340.368	1	0
340.710	1	-13
341.052	1	-1
341.394	1	0
341.737	1	3
342.079	1	-4
342.421	1	-3
342.763	1	6
343.105	1	-4
343.447	1	-2
343.789	1	-5
344.131	1	-5
344.473	1	-2
344.815	1	-5
345.157	1	-6
345.499	1	0
345.841	1	6
346.183	1	-4
346.526	1	-7
346.868	1	7
347.210	1	-13
347.552	1	1
347.894	1	11
348.236	1	13
348.578	1	1
348.920	1	-1
349.262	1	-1
349.604	1	8
349.946	1	-5
350.288	1	9
350.630	1	0
350.972	1	3
351.314	1	1
351.656	1	5
351.998	1	0
352.340	1	5
352.682	1	0
353.024	1	15
353.366	1	11
353.708	1	-1
354.050	1	-9
354.392	1	-8
354.734	1	14
355.076	1	1
355.418	1	-10
355.760	1	0
356.102	1	13
356.444	1	6
356.785	1	8
357.127	1	-4
357.469	1	1
357.811	1	-4
358.153	1	12
358.495	1	7
358.837	1	-7
359.179	1	1
359.521	1	11
359.863	1	1
360.205	1	-7
360.547	1	-1
360.889	1	1
361.231	1	-1
361.572	1	9
361.914	1	5
362.256	1	-2
362.598	1	-5
362.940	1	-4
363.282	1	1
363.624	1	11
363.966	1	9
364.308	1	4
364.649	1	6
364.991	1	13
365.333	1	4
365.675	1	7
366.017	1	2
366.359	1	12
366.701	1	5
367.042	1	16
367.384	1	12
367.726	1	10
368.068	1	19
368.410	1	19
368.752	1	10
369.093	1	7
369.435	1	19
369.777	1	11
370.119	1	23
370.461	1	23
370.803	1	14
371.144	1	9
371.486	1	15
371.828	1	14
372.170	1	18
372.512	1	3
372.853	1	4
373.195	1	7
373.537	1	14
373.879	1	10
374.220	1	11
374.562	1	20
374.904	1	5
375.246	1	7
375.588	1	13
375.929	1	5
376.271	1	2
376.613	1	3
376.955	1	5
377.296	1	10
377.638	1	0
377.980	1	4
378.321	1	2
378.663	1	3
379.005	1	23
379.347	1	1
379.688	1	-1
380.030	1	-6
380.372	1	12
380.714	1	7
381.055	1	11
381.397	1	0
381.739	1	10
382.080	1	6
382.422	1	0
382.764	1	-5
383.105	1	1
383.447	1	-2
383.789	1	-3
384.130	1	6
384.472	1	-4
384.814	1	1
385.156	1	-9
385.497	1	3
385.839	1	0
386.180	1	3
386.522	1	9
386.864	1	5
387.205	1	1
387.547	1	-2
387.889	1	-1
388.230	1	12
388.572	1	12
388.914	1	-1
389.255	1	-1
389.597	1	2
389.939	1	11
390.280	1	6
390.622	1	0
390.963	1	4
391.305	1	4
391.647	1	4
391.988	1	9
392.330	1	2
392.671	1	-9
393.013	1	-4
393.355	1	7
393.696	1	7
394.038	1	-2
394.379	1	6
394.721	1	-6
395.062	1	8
395.404	1	-1
395.746	1	9
396.087	1	1
396.429	1	4
396.770	1	-1
397.112	1	7
397.453	1	7
397.795	1	-3
398.136	1	-2
398.478	1	2
398.819	1	1
399.161	1	5
399.503	1	0
399.844	1	-3
400.186	1	-11
400.527	1	-6
400.869	1	0
401.210	1	10
401.552	1	-11
401.893	1	-4
402.235	1	-4
402.576	1	-3
402.918	1	11
403.259	1	7
403.601	1	-10
403.942	1	5
404.284	1	5
404.625	1	-2
404.967	1	3
405.308	1	1
405.649	1	-4
405.991	1	-3
406.332	1	2
406.674	1	-4
407.015	1	7
407.357	1	-8
407.698	1	7
408.040	1	-8
408.381	1	7
408.722	1	-16
409.064	1	-1
409.405	1	7
409.747	1	0
410.088	1	-7
410.430	1	5
410.771	1	-6
411.112	1	-4
411.454	1	-9
411.795	1	-7
412.137	1	-2
412.478	1	7
412.819	1	-1
413.161	1	-1
413.502	1	1
413.844	1	0
414.185	1	8
414.526	1	-7
414.868	1	-8
415.209	1	-11
415.550	1	-7
415.892	1	-5
416.233	1	4
416.575	1	11
416.916	1	-6
417.257	1	-3
417.599	1	-3
417.940	1	4
418.281	1	3
418.623	1	-1
418.964	1	-9
419.305	1	3
419.647	1	-6
419.988	1	-3
420.329	1	-5
420.671	1	3
421.012	1	-4
421.353	1	-6
421.695	1	-6
422.036	1	3
422.377	1	-4
422.718	1	6
423.060	1	-1
423.401	1	2
423.742	1	3
424.084	1	-1
424.425	1	4
424.766	1	-9
425.107	1	-8
425.449	1	-8
425.790	1	-11
426.131	1	-1
426.472	1	-8
426.814	1	7
427.155	1	-10
427.496	1	0
427.837	1	-3
428.179	1	-3
428.520	1	-5
428.861	1	-3
429.202	1	7
429.544	1	0
429.885	1	-1
430.226	1	0
430.567	1	2
430.909	1	6
431.250	1	-2
431.591	1	7
431.932	1	-10
432.273	1	-10
432.615	1	-2
432.956	1	-9
433.297	1	4
433.638	1	-1
433.979	1	8
434.320	1	4
434.662	1	8
435.003	1	3
435.344	1	3
435.685	1	-6
436.026	1	8
436.368	1	4
436.709	1	-5
437.050	1	-6
437.391	1	11
437.732	1	-14
438.073	1	-2
438.414	1	-7
438.756	1	5
439.097	1	-7
439.438	1	-6
439.779	1	1
440.120	1	0
440.461	1	4
440.802	1	-2
441.143	1	7
441.485	1	4
441.826	1	6
442.167	1	5
442.508	1	-7
442.849	1	10
443.190	1	0
443.531	1	2
443.872	1	1
444.213	1	-7
444.554	1	9
444.895	1	-3
445.237	1	-3
445.578	1	-11
445.919	1	-7
446.260	1	8
446.601	1	-4
446.942	1	-6
447.283	1	2
447.624	1	1
447.965	1	5
448.306	1	-3
448.647	1	1
448.988	1	-3
449.329	1	-4
449.670	1	4
450.011	1	5
450.352	1	-2
450.693	1	-9
451.034	1	5
451.375	1	-1
451.716	1	0
452.057	1	-6
452.398	1	0
452.739	1	7
453.080	1	6
453.421	1	1
453.762	1	-6
454.103	1	-1
454.444	1	-6
454.785	1	-1
455.126	1	-12
455.467	1	-6
455.808	1	-4
456.149	1	5
456.490	1	1
456.831	1	5
457.172	1	-5
457.513	1	1
457.854	1	7
458.195	1	3
458.536	1	8
458.877	1	-2
459.218	1	0
459.559	1	4
459.899	1	0
460.240	1	-4
460.581	1	14
460.922	1	-2
461.263	1	-5
461.604	1	-3
461.945	1	1
462.286	1	-6
462.627	1	5
462.968	1	-2
463.309	1	-1
463.649	1	-9
463.990	1	0
464.331	1	-5
464.672	1	5
465.013	1	-5
465.354	1	1
465.695	1	-2
466.036	1	-9
466.376	1	-8
466.717	1	9
467.058	1	4
467.399	1	6
467.740	1	2
468.081	1	0
468.422	1	-5
468.762	1	-6
469.103	1	3
469.444	1	-13
469.785	1	-9
470.126	1	-7
470.467	1	1
470.807	1	0
471.148	1	-5
471.489	1	-2
471.830	1	-3
472.171	1	2
472.511	1	-14
472.852	1	3
473.193	1	8
473.534	1	9
473.875	1	15
474.215	1	11
474.556	1	0
474.897	1	3
475.238	1	0
475.578	1	-12
475.919	1	-4
476.260	1	0
476.601	1	0
476.942	1	4
477.282	1	-10
477.623	1	-8
477.964	1	-4
478.305	1	1
478.645	1	-6
478.986	1	2
479.327	1	-7
479.667	1	0
480.008	1	0
480.349	1	-8
480.690	1	2
481.030	1	-10
481.371	1	-6
481.712	1	-1
482.053	1	-4
482.393	1	-5
482.734	1	-7
483.075	1	-3
483.415	1	-3
483.756	1	10
484.097	1	-7
484.437	1	-2
484.778	1	0
485.119	1	-4
485.459	1	17
485.800	1	1
486.141	1	-3
486.481	1	-1
486.822	1	4
487.163	1	-4
487.503	1	3
487.844	1	-4
488.185	1	1
488.525	1	0
488.866	1	-7
489.207	1	-4
489.547	1	-11
489.888	1	-3
490.228	1	7
490.569	1	12
490.910	1	-7
491.250	1	-1
491.591	1	-4
491.932	1	5
492.272	1	6
492.613	1	-7
492.953	1	-8
493.294	1	-4
493.635	1	0
493.975	1	-4
494.316	1	10
494.656	1	-7
494.997	1	1
495.337	1	7
495.678	1	-1
496.019	1	0
496.359	1	-4
496.700	1	7
497.040	1	-1
497.381	1	-5
497.721	1	1
498.062	1	-1
498.403	1	3
498.743	1	-2
499.084	1	-1
499.424	1	-5
499.765	1	-6
500.105	1	2
500.446	1	-9
500.786	1	-5
501.127	1	0
501.467	1	-8
501.808	1	9
502.148	1	2
502.489	1	-1
502.829	1	-6
503.170	1	5
503.510	1	-6
503.851	1	-1
504.191	1	12
504.532	1	0
504.872	1	-4
505.213	1	8
505.553	1	-2
505.894	1	-10
506.234	1	10
506.575	1	5
506.915	1	5
507.256	1	8
507.596	1	1
507.936	1	-1
508.277	1	0
508.617	1	2
508.958	1	-10
509.298	1	5
509.639	1	-4
509.979	1	-6
510.319	1	6
510.660	1	-2
511.000	1	2
511.341	1	0
511.681	1	0
512.022	1	-10
512.362	1	-1
512.702	1	-8
513.043	1	7
513.383	1	-8
513.724	1	1
514.064	1	4
514.404	1	2
514.745	1	5
515.085	1	-2
515.425	1	0
515.766	1	-4
516.106	1	-4
516.447	1	9
516.787	1	4
517.127	1	3
517.468	1	1
517.808	1	-2
518.148	1	0
518.489	1	-4
518.829	1	1
519.169	1	-10
519.510	1	-7
519.850	1	-1
520.190	1	-5
520.531	1	10
520.871	1	-4
521.211	1	-12
521.552	1	12
521.892	1	1
522.232	1	0
522.573	1	2
522.913	1	3
523.253	1	6
523.593	1	-4
523.934	1	7
524.274	1	-2
524.614	1	-7
524.955	1	-3
525.295	1	4
525.635	1	-1
525.975	1	3
526.316	1	6
526.656	1	-5
526.996	1	2
527.337	1	6
527.677	1	0
528.017	1	-15
528.357	1	0
528.698	1	4
529.038	1	2
529.378	1	8
529.718	1	2
530.058	1	7
530.399	1	4
530.739	1	0
531.079	1	6
531.419	1	5
531.760	1	6
532.100	1	3
532.440	1	9
532.780	1	-2
533.120	1	10
533.461	1	0
533.801	1	9
534.141	1	-13
534.481	1	-9
534.821	1	11
535.162	1	5
535.502	1	-5
535.842	1	6
536.182	1	0
536.522	1	-1
536.862	1	6
537.203	1	-12
537.543	1	2
537.883	1	-1
538.223	1	13
538.563	1	2
538.903	1	-13
539.243	1	-3
539.584	1	-1
539.924	1	13
540.264	1	-9
540.604	1	-4
540.944	1	1
541.284	1	3
541.624	1	7
541.964	1	2
542.305	1	-1
542.645	1	8
542.985	1	7
543.325	1	9
543.665	1	10
544.005	1	9
544.345	1	3
544.685	1	-3
545.025	1	-3
545.365	1	8
545.705	1	4
546.045	1	6
546.386	1	6
546.726	1	-5
547.066	1	6
547.406	1	6
547.746	1	-12
548.086	1	-5
548.426	1	-1
548.766	1	0
549.106	1	6
549.446	1	5
549.786	1	-5
550.126	1	17
550.466	1	2
550.806	1	-3
551.146	1	-6
551.486	1	-8
551.826	1	3
552.166	1	2
552.506	1	1
552.846	1	-2
553.186	1	6
553.526	1	1
553.866	1	1
554.206	1	10
554.546	1	10
554.886	1	9
555.226	1	-6
555.566	1	3
555.906	1	11
556.246	1	0
556.586	1	-3
556.926	1	2
557.266	1	3
557.606	1	-3
557.946	1	17
558.286	1	2
558.626	1	2
558.966	1	10
559.306	1	-4
559.646	1	-2
559.986	1	-2
560.325	1	-3
560.665	1	2
561.005	1	-8
561.345	1	-1
561.685	1	-1
562.025	1	5
562.365	1	-6
562.705	1	-3
563.045	1	-3
563.385	1	-2
563.725	1	5
564.064	1	2
564.404	1	0
564.744	1	10
565.084	1	2
565.424	1	3
565.764	1	-8
566.104	1	5
566.444	1	-12
566.783	1	-6
567.123	1	4
567.463	1	14
567.803	1	-13
568.143	1	2
568.483	1	9
568.823	1	-1
569.162	1	0
569.502	1	-3
569.842	1	10
570.182	1	13
570.522	1	-13
570.862	1	-13
571.201	1	8
571.541	1	0
571.881	1	4
572.221	1	-3
572.561	1	-5
572.900	1	3
573.240	1	4
573.580	1	-4
573.920	1	7
574.260	1	11
574.599	1	11
574.939	1	4
575.279	1	5
575.619	1	10
575.959	1	-14
576.298	1	-2
576.638	1	-1
576.978	1	10
577.318	1	10
577.657	1	-8
577.997	1	1
578.337	1	13
578.677	1	14
579.016	1	12
579.356	1	3
579.696	1	0
580.036	1	-3
580.375	1	-1
580.715	1	4
581.055	1	4
581.394	1	-4
581.734	1	-4
582.074	1	-5
582.414	1	6
582.753	1	-7
583.093	1	-6
583.433	1	-3
583.772	1	8
584.112	1	0
584.452	1	4
584.791	1	-1
585.131	1	6
585.471	1	11
585.811	1	3
586.150	1	1
586.490	1	11
586.830	1	1
587.169	1	7
587.509	1	-7
587.849	1	0
588.188	1	-2
588.528	1	7
588.867	1	0
589.207	1	-3
589.547	1	-9
589.886	1	0
590.226	1	-1
590.566	1	-1
590.905	1	1
591.245	1	-8
591.585	1	-2
591.924	1	2
592.264	1	-1
592.603	1	-5
592.943	1	4
593.283	1	-5
593.622	1	-5
593.962	1	2
594.301	1	5
594.641	1	-5
594.981	1	-7
595.320	1	4
595.660	1	-8
595.999	1	-3
596.339	1	-1
596.678	1	-2
597.018	1	-4
597.358	1	-2
597.697	1	0
598.037	1	4
598.376	1	-2
598.716	1	11
599.055	1	6
599.395	1	-2
599.734	1	-3
600.074	1	0
600.413	1	8
600.753	1	0
601.092	1	15
601.432	1	-1
601.771	1	3
602.111	1	10
602.451	1	5
602.790	1	-7
603.130	1	7
603.469	1	-7
603.809	1	-2
604.148	1	2
604.487	1	-3
604.827	1	0
605.166	1	5
605.506	1	2
605.845	1	4
606.185	1	2
606.524	1	-5
606.864	1	4
607.203	1	2
607.543	1	-5
607.882	1	5
608.222	1	5
608.561	1	0
608.901	1	-1
609.240	1	-4
609.579	1	7
609.919	1	2
610.258	1	10
610.598	1	2
610.937	1	1
611.277	1	3
611.616	1	-3
611.955	1	1
612.295	1	0
612.634	1	1
612.974	1	-15
613.313	1	-1
613.652	1	4
613.992	1	-3
614.331	1	-9
614.671	1	5
615.010	1	-11
615.349	1	5
615.689	1	1
616.028	1	-8
616.368	1	-6
616.707	1	-4
617.046	1	1
617.386	1	5
617.725	1	5
618.064	1	-7
618.404	1	4
618.743	1	6
619.082	1	-1
619.422	1	-19
619.761	1	10
620.100	1	5
620.440	1	0
620.779	1	-8
621.118	1	-4
621.458	1	7
621.797	1	-3
622.136	1	7
622.476	1	8
622.815	1	6
623.154	1	8
623.494	1	10
623.833	1	6
624.172	1	6
624.511	1	0
624.851	1	-11
625.190	1	-8
625.529	1	5
625.869	1	1
626.208	1	-2
626.547	1	3
626.886	1	8
627.226	1	0
627.565	1	6
627.904	1	-10
628.243	1	8
628.583	1	7
628.922	1	5
629.261	1	11
629.600	1	2
629.940	1	-8
630.279	1	-7
630.618	1	-6
630.957	1	-5
631.297	1	-9
631.636	1	-3
631.975	1	12
632.314	1	4
632.653	1	1
632.993	1	1
633.332	1	4
633.671	1	-4
634.010	1	-3
634.349	1	6
634.689	1	-1
635.028	1	2
635.367	1	-3
635.706	1	5
636.045	1	4
636.384	1	-4
636.724	1	4
637.063	1	-4
637.402	1	13
637.741	1	-3
638.080	1	-6
638.419	1	0
638.759	1	-8
639.098	1	5
639.437	1	1
639.776	1	7
640.115	1	-1
640.454	1	-11
640.793	1	12
641.132	1	5
641.472	1	4
641.811	1	6
642.150	1	-5
642.489	1	2
642.828	1	-1
643.167	1	-8
643.506	1	-13
643.845	1	-3
644.184	1	11
644.524	1	-4
644.863	1	-4
645.202	1	-8
645.541	1	-5
645.880	1	-1
646.219	1	1
646.558	1	-6
646.897	1	4
647.236	1	-3
647.575	1	5
647.914	1	4
648.253	1	1
648.592	1	-8
648.931	1	0
649.270	1	-4
649.610	1	4
649.949	1	1
650.288	1	2
650.627	1	-1
650.966	1	-3
651.305	1	-3
651.644	1	5
651.983	1	-1
652.322	1	-4
652.661	1	-2
653.000	1	-8
653.339	1	0
653.678	1	0
654.017	1	0
654.356	1	-1
654.695	1	-7
655.034	1	1
655.373	1	3
655.712	1	5
656.051	1	-2
656.390	1	-13
656.729	1	7
657.068	1	0
657.406	1	4
657.745	1	-2
658.084	1	3
658.423	1	4
658.762	1	4
659.101	1	-2
659.440	1	0
659.779	1	3
660.118	1	2
660.457	1	1
660.796	1	-14
661.135	1	-5
661.474	1	1
661.813	1	4
662.152	1	1
662.491	1	-2
662.829	1	-1
663.168	1	7
663.507	1	9
663.846	1	-7
664.185	1	8
664.524	1	4
664.863	1	-2
665.202	1	2
665.541	1	-7
665.879	1	-2
666.218	1	-5
666.557	1	-1
666.896	1	-9
667.235	1	2
667.574	1	1
667.913	1	8
668.251	1	6
668.590	1	2
668.929	1	-11
669.268	1	-6
669.607	1	-2
669.946	1	-5
670.285	1	2
670.623	1	-1
670.962	1	1
671.301	1	-5
671.640	1	1
671.979	1	-8
672.317	1	5
672.656	1	-2
672.995	1	5
673.334	1	-10
673.673	1	0
674.011	1	-4
674.350	1	1
674.689	1	1
675.028	1	2
675.367	1	7
675.705	1	5
676.044	1	-3
676.383	1	8
676.722	1	6
677.060	1	-2
677.399	1	-7
677.738	1	10
678.077	1	2
678.416	1	-3
678.754	1	-6
679.093	1	1
679.432	1	-1
679.771	1	-5
680.109	1	8
680.448	1	-1
680.787	1	-8
681.125	1	0
681.464	1	-2
681.803	1	2
682.142	1	2
682.480	1	12
682.819	1	-3
683.158	1	-11
683.496	1	5
683.835	1	2
684.174	1	1
684.512	1	0
684.851	1	5
685.190	1	-2
685.529	1	2
685.867	1	2
686.206	1	-2
686.545	1	4
686.883	1	4
687.222	1	6
687.561	1	1
687.899	1	-2
688.238	1	2
688.577	1	3
688.746	1	2