File: Data/GaN_200K_800ms/GaN_sample F_spot 12_UVVIS_200 K_200um_800 ms 2x2mm1_502.txt
340.368	1	3
340.710	1	-6
341.052	1	-5
341.394	1	0
341.737	1	3
342.079	1	-11
342.421	1	-7
342.763	1	3
343.105	1	-8
343.447	1	-10
343.789	1	-4
344.131	1	0
344.473	1	1
344.815	1	-3
345.157	1	-7
345.499	1	-2
345.841	1	4
346.183	1	-4
346.526	1	-1
346.868	1	1
347.210	1	-19
347.552	1	-13
347.894	1	-2
348.236	1	3
348.578	1	4
348.920	1	-9
349.262	1	-8
349.604	1	7
349.946	1	-6
350.288	1	1
350.630	1	1
350.972	1	-2
351.314	1	0
351.656	1	-7
351.998	1	8
352.340	1	-1
352.682	1	-4
353.024	1	7
353.366	1	10
353.708	1	6
354.050	1	-7
354.392	1	0
354.734	1	8
355.076	1	3
355.418	1	-16
355.760	1	-4
356.102	1	10
356.444	1	13
356.785	1	3
357.127	1	0
357.469	1	4
357.811	1	-10
358.153	1	5
358.495	1	1
358.837	1	-14
359.179	1	-7
359.521	1	3
359.863	1	-5
360.205	1	6
360.547	1	10
360.889	1	-2
361.231	1	-1
361.572	1	0
361.914	1	4
362.256	1	2
362.598	1	-9
362.940	1	-6
363.282	1	10
363.624	1	10
363.966	1	1
364.308	1	4
364.649	1	7
364.991	1	-1
365.333	1	-3
365.675	1	2
366.017	1	7
366.359	1	3
366.701	1	4
367.042	1	13
367.384	1	8
367.726	1	15
368.068	1	12
368.410	1	16
368.752	1	-1
369.093	1	4
369.435	1	7
369.777	1	-1
370.119	1	0
370.461	1	20
370.803	1	12
371.144	1	2
371.486	1	7
371.828	1	13
372.170	1	17
372.512	1	-5
372.853	1	2
373.195	1	2
373.537	1	0
373.879	1	-5
374.220	1	17
374.562	1	11
374.904	1	2
375.246	1	8
375.588	1	7
375.929	1	15
376.271	1	12
376.613	1	-9
376.955	1	-1
377.296	1	5
377.638	1	-4
377.980	1	6
378.321	1	-6
378.663	1	-3
379.005	1	2
379.347	1	5
379.688	1	5
380.030	1	-3
380.372	1	-10
380.714	1	9
381.055	1	-5
381.397	1	-4
381.739	1	19
382.080	1	9
382.422	1	-2
382.764	1	-14
383.105	1	-8
383.447	1	-2
383.789	1	-6
384.130	1	-4
384.472	1	-2
384.814	1	-2
385.156	1	-2
385.497	1	12
385.839	1	-4
386.180	1	3
386.522	1	7
386.864	1	9
387.205	1	-12
387.547	1	-9
387.889	1	-5
388.230	1	7
388.572	1	0
388.914	1	4
389.255	1	-2
389.597	1	1
389.939	1	-4
390.280	1	12
390.622	1	3
390.963	1	6
391.305	1	3
391.647	1	-2
391.988	1	4
392.330	1	4
392.671	1	-1
393.013	1	-4
393.355	1	8
393.696	1	-3
394.038	1	5
394.379	1	-1
394.721	1	-9
395.062	1	-10
395.404	1	-2
395.746	1	8
396.087	1	-2
396.429	1	3
396.770	1	-3
397.112	1	-4
397.453	1	7
397.795	1	2
398.136	1	-5
398.478	1	3
398.819	1	4
399.161	1	6
399.503	1	-5
399.844	1	5
400.186	1	-9
400.527	1	-3
400.869	1	-6
401.210	1	-5
401.552	1	-10
401.893	1	0
402.235	1	2
402.576	1	-3
402.918	1	9
403.259	1	1
403.601	1	-8
403.942	1	5
404.284	1	0
404.625	1	1
404.967	1	-2
405.308	1	2
405.649	1	0
405.991	1	-11
406.332	1	3
406.674	1	-11
407.015	1	3
407.357	1	1
407.698	1	2
408.040	1	-6
408.381	1	-1
408.722	1	-13
409.064	1	1
409.405	1	12
409.747	1	1
410.088	1	7
410.430	1	4
410.771	1	-5
411.112	1	-5
411.454	1	-6
411.795	1	2
412.137	1	0
412.478	1	18
412.819	1	-5
413.161	1	-3
413.502	1	-1
413.844	1	0
414.185	1	6
414.526	1	-2
414.868	1	-3
415.209	1	-3
415.550	1	-9
415.892	1	-1
416.233	1	2
416.575	1	10
416.916	1	-11
417.257	1	-1
417.599	1	5
417.940	1	13
418.281	1	3
418.623	1	-7
418.964	1	-10
419.305	1	-2
419.647	1	-6
419.988	1	-3
420.329	1	-9
420.671	1	7
421.012	1	3
421.353	1	-10
421.695	1	-2
422.036	1	3
422.377	1	-1
422.718	1	15
423.060	1	-5
423.401	1	1
423.742	1	0
424.084	1	2
424.425	1	7
424.766	1	2
425.107	1	-6
425.449	1	0
425.790	1	-15
426.131	1	-6
426.472	1	-2
426.814	1	9
427.155	1	-9
427.496	1	1
427.837	1	-3
428.179	1	5
428.520	1	5
428.861	1	0
429.202	1	-2
429.544	1	-6
429.885	1	7
430.226	1	-18
430.567	1	2
430.909	1	7
431.250	1	-5
431.591	1	4
431.932	1	-8
432.273	1	-3
432.615	1	-11
432.956	1	-5
433.297	1	3
433.638	1	-8
433.979	1	8
434.320	1	-4
434.662	1	4
435.003	1	1
435.344	1	5
435.685	1	-2
436.026	1	1
436.368	1	-1
436.709	1	0
437.050	1	0
437.391	1	1
437.732	1	-5
438.073	1	-2
438.414	1	-9
438.756	1	-18
439.097	1	-9
439.438	1	-3
439.779	1	-5
440.120	1	-1
440.461	1	-5
440.802	1	-3
441.143	1	2
441.485	1	0
441.826	1	-5
442.167	1	-7
442.508	1	-6
442.849	1	5
443.190	1	4
443.531	1	2
443.872	1	-3
444.213	1	1
444.554	1	4
444.895	1	-1
445.237	1	-10
445.578	1	-5
445.919	1	-11
446.260	1	-7
446.601	1	-1
446.942	1	-3
447.283	1	-2
447.624	1	-1
447.965	1	-1
448.306	1	-10
448.647	1	-10
448.988	1	-9
449.329	1	5
449.670	1	14
450.011	1	5
450.352	1	3
450.693	1	-4
451.034	1	-5
451.375	1	3
451.716	1	0
452.057	1	-6
452.398	1	-2
452.739	1	7
453.080	1	-3
453.421	1	-2
453.762	1	-1
454.103	1	-4
454.444	1	-5
454.785	1	7
455.126	1	-5
455.467	1	2
455.808	1	0
456.149	1	0
456.490	1	-1
456.831	1	5
457.172	1	-11
457.513	1	3
457.854	1	-7
458.195	1	1
458.536	1	2
458.877	1	1
459.218	1	-4
459.559	1	8
459.899	1	-8
460.240	1	-5
460.581	1	6
460.922	1	7
461.263	1	-7
461.604	1	-9
461.945	1	-4
462.286	1	-5
462.627	1	1
462.968	1	-3
463.309	1	-8
463.649	1	-4
463.990	1	-1
464.331	1	-9
464.672	1	-6
465.013	1	-5
465.354	1	-3
465.695	1	-5
466.036	1	-3
466.376	1	-12
466.717	1	-9
467.058	1	0
467.399	1	3
467.740	1	-1
468.081	1	2
468.422	1	-7
468.762	1	-7
469.103	1	-7
469.444	1	1
469.785	1	-7
470.126	1	-10
470.467	1	1
470.807	1	6
471.148	1	0
471.489	1	-5
471.830	1	-3
472.171	1	2
472.511	1	-10
472.852	1	-10
473.193	1	6
473.534	1	1
473.875	1	12
474.215	1	7
474.556	1	-3
474.897	1	4
475.238	1	-2
475.578	1	-5
475.919	1	-7
476.260	1	-12
476.601	1	-3
476.942	1	6
477.282	1	-3
477.623	1	-12
477.964	1	4
478.305	1	-3
478.645	1	1
478.986	1	0
479.327	1	-8
479.667	1	-4
480.008	1	-9
480.349	1	-13
480.690	1	-3
481.030	1	-6
481.371	1	3
481.712	1	-6
482.053	1	1
482.393	1	0
482.734	1	-6
483.075	1	-16
483.415	1	3
483.756	1	3
484.097	1	-5
484.437	1	-4
484.778	1	2
485.119	1	-14
485.459	1	17
485.800	1	-3
486.141	1	2
486.481	1	-5
486.822	1	-8
487.163	1	2
487.503	1	2
487.844	1	3
488.185	1	3
488.525	1	-1
488.866	1	-4
489.207	1	-4
489.547	1	0
489.888	1	-1
490.228	1	3
490.569	1	5
490.910	1	-4
491.250	1	-1
491.591	1	-4
491.932	1	2
492.272	1	2
492.613	1	-5
492.953	1	-14
493.294	1	-9
493.635	1	-4
493.975	1	-4
494.316	1	-5
494.656	1	0
494.997	1	-6
495.337	1	7
495.678	1	-4
496.019	1	2
496.359	1	-8
496.700	1	4
497.040	1	-3
497.381	1	-3
497.721	1	0
498.062	1	-2
498.403	1	4
498.743	1	1
499.084	1	-5
499.424	1	-5
499.765	1	-4
500.105	1	-5
500.446	1	-8
500.786	1	-16
501.127	1	-6
501.467	1	-14
501.808	1	4
502.148	1	2
502.489	1	-4
502.829	1	-11
503.170	1	2
503.510	1	3
503.851	1	0
504.191	1	10
504.532	1	-7
504.872	1	-6
505.213	1	2
505.553	1	-5
505.894	1	-8
506.234	1	5
506.575	1	3
506.915	1	-2
507.256	1	0
507.596	1	4
507.936	1	4
508.277	1	-7
508.617	1	0
508.958	1	-14
509.298	1	0
509.639	1	-1
509.979	1	-3
510.319	1	1
510.660	1	-13
511.000	1	-2
511.341	1	-2
511.681	1	10
512.022	1	-14
512.362	1	-2
512.702	1	-13
513.043	1	4
513.383	1	-4
513.724	1	6
514.064	1	6
514.404	1	0
514.745	1	-8
515.085	1	0
515.425	1	-1
515.766	1	-4
516.106	1	1
516.447	1	17
516.787	1	-5
517.127	1	-6
517.468	1	2
517.808	1	-9
518.148	1	4
518.489	1	-6
518.829	1	0
519.169	1	-11
519.510	1	-1
519.850	1	2
520.190	1	-9
520.531	1	6
520.871	1	3
521.211	1	-8
521.552	1	10
521.892	1	-4
522.232	1	-4
522.573	1	-10
522.913	1	5
523.253	1	-1
523.593	1	-6
523.934	1	-6
524.274	1	-1
524.614	1	5
524.955	1	-7
525.295	1	-2
525.635	1	-6
525.975	1	-2
526.316	1	9
526.656	1	0
526.996	1	0
527.337	1	-5
527.677	1	3
528.017	1	-11
528.357	1	-7
528.698	1	-1
529.038	1	-2
529.378	1	0
529.718	1	-2
530.058	1	6
530.399	1	7
530.739	1	-5
531.079	1	2
531.419	1	0
531.760	1	3
532.100	1	2
532.440	1	-7
532.780	1	0
533.120	1	-3
533.461	1	2
533.801	1	16
534.141	1	-9
534.481	1	-7
534.821	1	10
535.162	1	1
535.502	1	3
535.842	1	-8
536.182	1	4
536.522	1	-1
536.862	1	10
537.203	1	-6
537.543	1	-2
537.883	1	-8
538.223	1	0
538.563	1	5
538.903	1	-13
539.243	1	-2
539.584	1	-5
539.924	1	3
540.264	1	-5
540.604	1	-1
540.944	1	-9
541.284	1	12
541.624	1	11
541.964	1	9
542.305	1	2
542.645	1	-1
542.985	1	6
543.325	1	9
543.665	1	-1
544.005	1	7
544.345	1	-2
544.685	1	1
545.025	1	-2
545.365	1	-1
545.705	1	-6
546.045	1	-4
546.386	1	-3
546.726	1	-20
547.066	1	6
547.406	1	-6
547.746	1	-3
548.086	1	-1
548.426	1	-6
548.766	1	-3
549.106	1	3
549.446	1	-8
549.786	1	-5
550.126	1	16
550.466	1	1
550.806	1	-7
551.146	1	-4
551.486	1	-7
551.826	1	-4
552.166	1	-5
552.506	1	2
552.846	1	2
553.186	1	2
553.526	1	-4
553.866	1	-3
554.206	1	-4
554.546	1	4
554.886	1	10
555.226	1	-4
555.566	1	5
555.906	1	2
556.246	1	2
556.586	1	-7
556.926	1	4
557.266	1	-10
557.606	1	0
557.946	1	8
558.286	1	4
558.626	1	5
558.966	1	10
559.306	1	-5
559.646	1	-4
559.986	1	-12
560.325	1	-1
560.665	1	0
561.005	1	-4
561.345	1	5
561.685	1	4
562.025	1	-9
562.365	1	2
562.705	1	1
563.045	1	0
563.385	1	-20
563.725	1	-4
564.064	1	2
564.404	1	7
564.744	1	5
565.084	1	-5
565.424	1	0
565.764	1	-2
566.104	1	-4
566.444	1	-9
566.783	1	-4
567.123	1	4
567.463	1	5
567.803	1	-3
568.143	1	-1
568.483	1	-5
568.823	1	-4
569.162	1	6
569.502	1	-4
569.842	1	7
570.182	1	3
570.522	1	-11
570.862	1	0
571.201	1	6
571.541	1	5
571.881	1	2
572.221	1	-4
572.561	1	2
572.900	1	-4
573.240	1	4
573.580	1	4
573.920	1	6
574.260	1	1
574.599	1	5
574.939	1	4
575.279	1	8
575.619	1	7
575.959	1	-6
576.298	1	8
576.638	1	-3
576.978	1	4
577.318	1	10
577.657	1	1
577.997	1	-3
578.337	1	4
578.677	1	-4
579.016	1	-2
579.356	1	-3
579.696	1	6
580.036	1	-6
580.375	1	10
580.715	1	1
581.055	1	-4
581.394	1	-5
581.734	1	-8
582.074	1	-9
582.414	1	6
582.753	1	-3
583.093	1	-1
583.433	1	-4
583.772	1	4
584.112	1	-4
584.452	1	1
584.791	1	-1
585.131	1	0
585.471	1	5
585.811	1	3
586.150	1	-5
586.490	1	14
586.830	1	2
587.169	1	-2
587.509	1	-8
587.849	1	4
588.188	1	9
588.528	1	6
588.867	1	1
589.207	1	-3
589.547	1	-5
589.886	1	-1
590.226	1	4
590.566	1	-5
590.905	1	1
591.245	1	1
591.585	1	6
591.924	1	0
592.264	1	0
592.603	1	2
592.943	1	5
593.283	1	8
593.622	1	-9
593.962	1	3
594.301	1	6
594.641	1	2
594.981	1	-4
595.320	1	1
595.660	1	6
595.999	1	-8
596.339	1	-1
596.678	1	-4
597.018	1	-5
597.358	1	0
597.697	1	-2
598.037	1	2
598.376	1	2
598.716	1	8
599.055	1	-3
599.395	1	3
599.734	1	2
600.074	1	8
600.413	1	8
600.753	1	1
601.092	1	12
601.432	1	-10
601.771	1	3
602.111	1	6
602.451	1	9
602.790	1	-4
603.130	1	6
603.469	1	-4
603.809	1	8
604.148	1	2
604.487	1	3
604.827	1	5
605.166	1	6
605.506	1	-10
605.845	1	-2
606.185	1	6
606.524	1	-15
606.864	1	-2
607.203	1	-1
607.543	1	-3
607.882	1	7
608.222	1	0
608.561	1	-7
608.901	1	9
609.240	1	-7
609.579	1	8
609.919	1	9
610.258	1	0
610.598	1	-5
610.937	1	-6
611.277	1	3
611.616	1	-11
611.955	1	-3
612.295	1	-4
612.634	1	1
612.974	1	-14
613.313	1	2
613.652	1	4
613.992	1	1
614.331	1	-3
614.671	1	4
615.010	1	-4
615.349	1	7
615.689	1	10
616.028	1	-2
616.368	1	2
616.707	1	-10
617.046	1	6
617.386	1	4
617.725	1	3
618.064	1	-16
618.404	1	-7
618.743	1	4
619.082	1	-6
619.422	1	-7
619.761	1	1
620.100	1	6
620.440	1	4
620.779	1	-8
621.118	1	0
621.458	1	-2
621.797	1	-7
622.136	1	8
622.476	1	4
622.815	1	4
623.154	1	6
623.494	1	5
623.833	1	3
624.172	1	-3
624.511	1	6
624.851	1	-14
625.190	1	-1
625.529	1	-9
625.869	1	5
626.208	1	-1
626.547	1	1
626.886	1	-1
627.226	1	2
627.565	1	1
627.904	1	-1
628.243	1	3
628.583	1	-4
628.922	1	3
629.261	1	-1
629.600	1	3
629.940	1	-6
630.279	1	-3
630.618	1	-2
630.957	1	-5
631.297	1	4
631.636	1	-10
631.975	1	15
632.314	1	0
632.653	1	-4
632.993	1	0
633.332	1	5
633.671	1	-4
634.010	1	-3
634.349	1	7
634.689	1	4
635.028	1	4
635.367	1	-3
635.706	1	4
636.045	1	7
636.384	1	2
636.724	1	3
637.063	1	-8
637.402	1	6
637.741	1	5
638.080	1	-4
638.419	1	-6
638.759	1	1
639.098	1	2
639.437	1	-1
639.776	1	-7
640.115	1	2
640.454	1	-2
640.793	1	5
641.132	1	4
641.472	1	-5
641.811	1	-7
642.150	1	-21
642.489	1	8
642.828	1	-7
643.167	1	0
643.506	1	-10
643.845	1	-3
644.184	1	-1
644.524	1	-6
644.863	1	-10
645.202	1	-5
645.541	1	-4
645.880	1	-2
646.219	1	-7
646.558	1	-5
646.897	1	2
647.236	1	0
647.575	1	-2
647.914	1	-7
648.253	1	18
648.592	1	-7
648.931	1	8
649.270	1	-1
649.610	1	6
649.949	1	-10
650.288	1	-5
650.627	1	-7
650.966	1	7
651.305	1	1
651.644	1	13
651.983	1	-1
652.322	1	-6
652.661	1	7
653.000	1	2
653.339	1	4
653.678	1	2
654.017	1	-6
654.356	1	-5
654.695	1	7
655.034	1	-3
655.373	1	-4
655.712	1	2
656.051	1	-3
656.390	1	-13
656.729	1	10
657.068	1	-6
657.406	1	10
657.745	1	-3
658.084	1	1
658.423	1	11
658.762	1	1
659.101	1	6
659.440	1	-2
659.779	1	5
660.118	1	0
660.457	1	-3
660.796	1	-9
661.135	1	-2
661.474	1	-2
661.813	1	16
662.152	1	-4
662.491	1	-5
662.829	1	-3
663.168	1	4
663.507	1	-3
663.846	1	-10
664.185	1	-3
664.524	1	-6
664.863	1	-4
665.202	1	-5
665.541	1	-7
665.879	1	-10
666.218	1	-11
666.557	1	-11
666.896	1	-3
667.235	1	0
667.574	1	-5
667.913	1	-1
668.251	1	0
668.590	1	2
668.929	1	-8
669.268	1	-1
669.607	1	-2
669.946	1	-3
670.285	1	4
670.623	1	-4
670.962	1	-1
671.301	1	-4
671.640	1	4
671.979	1	-11
672.317	1	-2
672.656	1	-4
672.995	1	9
673.334	1	3
673.673	1	4
674.011	1	-4
674.350	1	2
674.689	1	-2
675.028	1	2
675.367	1	-4
675.705	1	4
676.044	1	-10
676.383	1	-1
676.722	1	1
677.060	1	-12
677.399	1	-2
677.738	1	1
678.077	1	6
678.416	1	-6
678.754	1	-8
679.093	1	0
679.432	1	-16
679.771	1	-2
680.109	1	2
680.448	1	-6
680.787	1	-5
681.125	1	-2
681.464	1	-6
681.803	1	-6
682.142	1	3
682.480	1	10
682.819	1	0
683.158	1	-1
683.496	1	-3
683.835	1	-4
684.174	1	-3
684.512	1	4
684.851	1	5
685.190	1	-6
685.529	1	-2
685.867	1	-5
686.206	1	-8
686.545	1	-11
686.883	1	-3
687.222	1	-1
687.561	1	2
687.899	1	-6
688.238	1	4
688.577	1	3
688.746	1	-2