File: Data/GaN_200K_800ms/GaN_sample F_spot 12_UVVIS_200 K_200um_800 ms 2x2mm1_242.txt
340.368	1	2
340.710	1	-8
341.052	1	15
341.394	1	-8
341.737	1	4
342.079	1	-3
342.421	1	-4
342.763	1	5
343.105	1	1
343.447	1	-9
343.789	1	-2
344.131	1	0
344.473	1	-2
344.815	1	-9
345.157	1	-7
345.499	1	0
345.841	1	9
346.183	1	-4
346.526	1	-6
346.868	1	-2
347.210	1	-10
347.552	1	-4
347.894	1	-1
348.236	1	3
348.578	1	4
348.920	1	-5
349.262	1	-3
349.604	1	5
349.946	1	-7
350.288	1	15
350.630	1	-2
350.972	1	3
351.314	1	3
351.656	1	11
351.998	1	2
352.340	1	4
352.682	1	4
353.024	1	-2
353.366	1	8
353.708	1	2
354.050	1	-5
354.392	1	1
354.734	1	2
355.076	1	0
355.418	1	-15
355.760	1	-7
356.102	1	17
356.444	1	14
356.785	1	8
357.127	1	3
357.469	1	-1
357.811	1	6
358.153	1	6
358.495	1	5
358.837	1	-4
359.179	1	3
359.521	1	12
359.863	1	0
360.205	1	0
360.547	1	4
360.889	1	-3
361.231	1	4
361.572	1	6
361.914	1	7
362.256	1	4
362.598	1	-8
362.940	1	5
363.282	1	7
363.624	1	21
363.966	1	5
364.308	1	2
364.649	1	3
364.991	1	8
365.333	1	10
365.675	1	8
366.017	1	17
366.359	1	11
366.701	1	12
367.042	1	13
367.384	1	28
367.726	1	17
368.068	1	25
368.410	1	20
368.752	1	17
369.093	1	22
369.435	1	23
369.777	1	21
370.119	1	24
370.461	1	33
370.803	1	26
371.144	1	14
371.486	1	24
371.828	1	26
372.170	1	23
372.512	1	11
372.853	1	25
373.195	1	7
373.537	1	31
373.879	1	10
374.220	1	19
374.562	1	27
374.904	1	13
375.246	1	21
375.588	1	7
375.929	1	9
376.271	1	12
376.613	1	11
376.955	1	5
377.296	1	5
377.638	1	8
377.980	1	13
378.321	1	-4
378.663	1	11
379.005	1	11
379.347	1	13
379.688	1	3
380.030	1	11
380.372	1	3
380.714	1	11
381.055	1	15
381.397	1	2
381.739	1	13
382.080	1	15
382.422	1	4
382.764	1	-2
383.105	1	-5
383.447	1	9
383.789	1	5
384.130	1	0
384.472	1	7
384.814	1	6
385.156	1	-2
385.497	1	6
385.839	1	8
386.180	1	9
386.522	1	13
386.864	1	7
387.205	1	-6
387.547	1	-5
387.889	1	4
388.230	1	12
388.572	1	2
388.914	1	-1
389.255	1	3
389.597	1	3
389.939	1	10
390.280	1	3
390.622	1	5
390.963	1	4
391.305	1	8
391.647	1	0
391.988	1	10
392.330	1	14
392.671	1	-3
393.013	1	3
393.355	1	1
393.696	1	13
394.038	1	-11
394.379	1	7
394.721	1	-2
395.062	1	15
395.404	1	-6
395.746	1	0
396.087	1	3
396.429	1	2
396.770	1	-2
397.112	1	6
397.453	1	10
397.795	1	4
398.136	1	-6
398.478	1	7
398.819	1	11
399.161	1	11
399.503	1	7
399.844	1	-1
400.186	1	6
400.527	1	1
400.869	1	1
401.210	1	4
401.552	1	-8
401.893	1	-1
402.235	1	3
402.576	1	-4
402.918	1	12
403.259	1	5
403.601	1	-2
403.942	1	10
404.284	1	8
404.625	1	8
404.967	1	-5
405.308	1	8
405.649	1	2
405.991	1	-9
406.332	1	6
406.674	1	-6
407.015	1	7
407.357	1	2
407.698	1	6
408.040	1	-5
408.381	1	4
408.722	1	-8
409.064	1	2
409.405	1	6
409.747	1	-3
410.088	1	11
410.430	1	0
410.771	1	-7
411.112	1	3
411.454	1	-9
411.795	1	-5
412.137	1	-1
412.478	1	11
412.819	1	-11
413.161	1	2
413.502	1	-1
413.844	1	5
414.185	1	1
414.526	1	-7
414.868	1	-2
415.209	1	-5
415.550	1	-5
415.892	1	-5
416.233	1	3
416.575	1	5
416.916	1	-10
417.257	1	-7
417.599	1	-4
417.940	1	7
418.281	1	1
418.623	1	-2
418.964	1	-10
419.305	1	12
419.647	1	-6
419.988	1	-1
420.329	1	-10
420.671	1	2
421.012	1	0
421.353	1	4
421.695	1	-3
422.036	1	-5
422.377	1	-4
422.718	1	13
423.060	1	-7
423.401	1	-4
423.742	1	-5
424.084	1	7
424.425	1	12
424.766	1	-4
425.107	1	-2
425.449	1	2
425.790	1	-2
426.131	1	-2
426.472	1	6
426.814	1	7
427.155	1	-3
427.496	1	0
427.837	1	1
428.179	1	-1
428.520	1	-4
428.861	1	-2
429.202	1	6
429.544	1	-4
429.885	1	3
430.226	1	-8
430.567	1	4
430.909	1	5
431.250	1	-12
431.591	1	1
431.932	1	-2
432.273	1	-1
432.615	1	-1
432.956	1	-12
433.297	1	6
433.638	1	-1
433.979	1	5
434.320	1	8
434.662	1	0
435.003	1	2
435.344	1	4
435.685	1	4
436.026	1	10
436.368	1	0
436.709	1	1
437.050	1	-6
437.391	1	10
437.732	1	-3
438.073	1	2
438.414	1	-10
438.756	1	-8
439.097	1	-2
439.438	1	-4
439.779	1	1
440.120	1	-12
440.461	1	-3
440.802	1	0
441.143	1	2
441.485	1	8
441.826	1	-1
442.167	1	5
442.508	1	-2
442.849	1	9
443.190	1	-1
443.531	1	7
443.872	1	13
444.213	1	-2
444.554	1	13
444.895	1	0
445.237	1	-9
445.578	1	-18
445.919	1	-8
446.260	1	-5
446.601	1	0
446.942	1	1
447.283	1	-7
447.624	1	2
447.965	1	-1
448.306	1	1
448.647	1	-5
448.988	1	-6
449.329	1	-2
449.670	1	9
450.011	1	-3
450.352	1	8
450.693	1	-2
451.034	1	-7
451.375	1	0
451.716	1	-3
452.057	1	1
452.398	1	-1
452.739	1	4
453.080	1	-10
453.421	1	-6
453.762	1	-3
454.103	1	-3
454.444	1	-9
454.785	1	0
455.126	1	-8
455.467	1	-3
455.808	1	-4
456.149	1	10
456.490	1	6
456.831	1	10
457.172	1	-10
457.513	1	6
457.854	1	-6
458.195	1	-6
458.536	1	2
458.877	1	5
459.218	1	8
459.559	1	3
459.899	1	0
460.240	1	-5
460.581	1	10
460.922	1	-2
461.263	1	-1
461.604	1	-2
461.945	1	3
462.286	1	2
462.627	1	1
462.968	1	5
463.309	1	-10
463.649	1	-2
463.990	1	-5
464.331	1	-2
464.672	1	-4
465.013	1	-5
465.354	1	4
465.695	1	-3
466.036	1	0
466.376	1	-7
466.717	1	7
467.058	1	1
467.399	1	8
467.740	1	-4
468.081	1	2
468.422	1	-5
468.762	1	0
469.103	1	-2
469.444	1	-11
469.785	1	-11
470.126	1	-7
470.467	1	3
470.807	1	-1
471.148	1	-1
471.489	1	-1
471.830	1	-3
472.171	1	5
472.511	1	-2
472.852	1	-8
473.193	1	-3
473.534	1	1
473.875	1	9
474.215	1	9
474.556	1	-5
474.897	1	5
475.238	1	0
475.578	1	-5
475.919	1	2
476.260	1	-2
476.601	1	-3
476.942	1	1
477.282	1	-3
477.623	1	-9
477.964	1	-5
478.305	1	2
478.645	1	12
478.986	1	0
479.327	1	-10
479.667	1	2
480.008	1	-5
480.349	1	-10
480.690	1	-4
481.030	1	-8
481.371	1	-1
481.712	1	-2
482.053	1	5
482.393	1	4
482.734	1	-8
483.075	1	-6
483.415	1	-1
483.756	1	-3
484.097	1	7
484.437	1	0
484.778	1	5
485.119	1	-4
485.459	1	17
485.800	1	-1
486.141	1	-7
486.481	1	2
486.822	1	5
487.163	1	-4
487.503	1	2
487.844	1	-5
488.185	1	-5
488.525	1	2
488.866	1	4
489.207	1	-4
489.547	1	6
489.888	1	-5
490.228	1	4
490.569	1	12
490.910	1	-1
491.250	1	-1
491.591	1	-1
491.932	1	-10
492.272	1	2
492.613	1	-9
492.953	1	3
493.294	1	0
493.635	1	1
493.975	1	-10
494.316	1	-11
494.656	1	1
494.997	1	-6
495.337	1	9
495.678	1	-4
496.019	1	-4
496.359	1	-9
496.700	1	-5
497.040	1	0
497.381	1	-3
497.721	1	5
498.062	1	4
498.403	1	-2
498.743	1	-5
499.084	1	3
499.424	1	-1
499.765	1	8
500.105	1	-1
500.446	1	-2
500.786	1	-6
501.127	1	0
501.467	1	-5
501.808	1	3
502.148	1	-1
502.489	1	6
502.829	1	-8
503.170	1	19
503.510	1	-1
503.851	1	3
504.191	1	11
504.532	1	11
504.872	1	-5
505.213	1	11
505.553	1	-5
505.894	1	-2
506.234	1	6
506.575	1	1
506.915	1	2
507.256	1	8
507.596	1	-1
507.936	1	18
508.277	1	-9
508.617	1	-5
508.958	1	-7
509.298	1	1
509.639	1	-6
509.979	1	-3
510.319	1	-4
510.660	1	-5
511.000	1	-2
511.341	1	-2
511.681	1	6
512.022	1	-7
512.362	1	1
512.702	1	2
513.043	1	17
513.383	1	-7
513.724	1	4
514.064	1	9
514.404	1	-3
514.745	1	-1
515.085	1	-4
515.425	1	-8
515.766	1	1
516.106	1	1
516.447	1	12
516.787	1	14
517.127	1	2
517.468	1	0
517.808	1	-7
518.148	1	1
518.489	1	-1
518.829	1	8
519.169	1	-1
519.510	1	-2
519.850	1	-2
520.190	1	3
520.531	1	2
520.871	1	1
521.211	1	-7
521.552	1	4
521.892	1	4
522.232	1	8
522.573	1	4
522.913	1	3
523.253	1	-1
523.593	1	-3
523.934	1	-3
524.274	1	7
524.614	1	-4
524.955	1	0
525.295	1	8
525.635	1	1
525.975	1	7
526.316	1	15
526.656	1	1
526.996	1	5
527.337	1	-1
527.677	1	1
528.017	1	-3
528.357	1	2
528.698	1	7
529.038	1	0
529.378	1	11
529.718	1	4
530.058	1	4
530.399	1	3
530.739	1	5
531.079	1	-3
531.419	1	1
531.760	1	7
532.100	1	1
532.440	1	2
532.780	1	-2
533.120	1	14
533.461	1	8
533.801	1	8
534.141	1	-5
534.481	1	-6
534.821	1	3
535.162	1	1
535.502	1	-3
535.842	1	8
536.182	1	10
536.522	1	-1
536.862	1	3
537.203	1	-3
537.543	1	-4
537.883	1	6
538.223	1	-5
538.563	1	6
538.903	1	-6
539.243	1	4
539.584	1	0
539.924	1	14
540.264	1	-4
540.604	1	16
540.944	1	-2
541.284	1	8
541.624	1	11
541.964	1	6
542.305	1	14
542.645	1	-5
542.985	1	4
543.325	1	0
543.665	1	13
544.005	1	2
544.345	1	1
544.685	1	3
545.025	1	-6
545.365	1	7
545.705	1	-2
546.045	1	-3
546.386	1	10
546.726	1	-5
547.066	1	4
547.406	1	2
547.746	1	-14
548.086	1	-3
548.426	1	-3
548.766	1	4
549.106	1	3
549.446	1	2
549.786	1	2
550.126	1	15
550.466	1	3
550.806	1	-1
551.146	1	1
551.486	1	0
551.826	1	4
552.166	1	8
552.506	1	8
552.846	1	-2
553.186	1	6
553.526	1	-2
553.866	1	-1
554.206	1	9
554.546	1	-1
554.886	1	13
555.226	1	-11
555.566	1	15
555.906	1	0
556.246	1	3
556.586	1	-4
556.926	1	4
557.266	1	-8
557.606	1	-2
557.946	1	15
558.286	1	5
558.626	1	18
558.966	1	0
559.306	1	3
559.646	1	-3
559.986	1	1
560.325	1	0
560.665	1	-2
561.005	1	-2
561.345	1	-4
561.685	1	4
562.025	1	7
562.365	1	4
562.705	1	-5
563.045	1	-3
563.385	1	-10
563.725	1	-4
564.064	1	2
564.404	1	0
564.744	1	4
565.084	1	-4
565.424	1	6
565.764	1	0
566.104	1	1
566.444	1	-13
566.783	1	-10
567.123	1	6
567.463	1	10
567.803	1	1
568.143	1	-5
568.483	1	0
568.823	1	2
569.162	1	4
569.502	1	2
569.842	1	4
570.182	1	-1
570.522	1	-12
570.862	1	4
571.201	1	11
571.541	1	2
571.881	1	10
572.221	1	-4
572.561	1	1
572.900	1	-2
573.240	1	12
573.580	1	1
573.920	1	11
574.260	1	13
574.599	1	6
574.939	1	10
575.279	1	12
575.619	1	7
575.959	1	-4
576.298	1	8
576.638	1	-7
576.978	1	6
577.318	1	9
577.657	1	0
577.997	1	0
578.337	1	14
578.677	1	8
579.016	1	13
579.356	1	-8
579.696	1	6
580.036	1	-3
580.375	1	5
580.715	1	4
581.055	1	-10
581.394	1	-1
581.734	1	-5
582.074	1	-3
582.414	1	3
582.753	1	-2
583.093	1	-1
583.433	1	3
583.772	1	-1
584.112	1	-1
584.452	1	7
584.791	1	-1
585.131	1	2
585.471	1	12
585.811	1	7
586.150	1	1
586.490	1	10
586.830	1	6
587.169	1	10
587.509	1	6
587.849	1	3
588.188	1	6
588.528	1	1
588.867	1	0
589.207	1	1
589.547	1	4
589.886	1	-10
590.226	1	8
590.566	1	5
590.905	1	8
591.245	1	0
591.585	1	5
591.924	1	-4
592.264	1	1
592.603	1	4
592.943	1	6
593.283	1	-2
593.622	1	-1
593.962	1	0
594.301	1	8
594.641	1	2
594.981	1	0
595.320	1	7
595.660	1	2
595.999	1	-10
596.339	1	1
596.678	1	-4
597.018	1	-9
597.358	1	8
597.697	1	-2
598.037	1	7
598.376	1	1
598.716	1	-1
599.055	1	9
599.395	1	1
599.734	1	3
600.074	1	-5
600.413	1	9
600.753	1	9
601.092	1	11
601.432	1	-9
601.771	1	9
602.111	1	3
602.451	1	7
602.790	1	0
603.130	1	7
603.469	1	-1
603.809	1	6
604.148	1	11
604.487	1	4
604.827	1	5
605.166	1	8
605.506	1	8
605.845	1	4
606.185	1	9
606.524	1	5
606.864	1	3
607.203	1	-4
607.543	1	3
607.882	1	7
608.222	1	-1
608.561	1	-7
608.901	1	3
609.240	1	-1
609.579	1	4
609.919	1	6
610.258	1	4
610.598	1	-1
610.937	1	-8
611.277	1	9
611.616	1	5
611.955	1	1
612.295	1	-2
612.634	1	0
612.974	1	-6
613.313	1	6
613.652	1	-2
613.992	1	-1
614.331	1	3
614.671	1	0
615.010	1	-12
615.349	1	15
615.689	1	9
616.028	1	7
616.368	1	4
616.707	1	-4
617.046	1	0
617.386	1	10
617.725	1	3
618.064	1	0
618.404	1	0
618.743	1	2
619.082	1	-3
619.422	1	4
619.761	1	5
620.100	1	12
620.440	1	6
620.779	1	-10
621.118	1	8
621.458	1	-4
621.797	1	0
622.136	1	14
622.476	1	4
622.815	1	1
623.154	1	5
623.494	1	15
623.833	1	5
624.172	1	5
624.511	1	2
624.851	1	-1
625.190	1	1
625.529	1	9
625.869	1	1
626.208	1	6
626.547	1	-4
626.886	1	6
627.226	1	7
627.565	1	2
627.904	1	-3
628.243	1	9
628.583	1	-1
628.922	1	-1
629.261	1	9
629.600	1	2
629.940	1	-5
630.279	1	-6
630.618	1	3
630.957	1	2
631.297	1	6
631.636	1	-8
631.975	1	16
632.314	1	4
632.653	1	3
632.993	1	-3
633.332	1	10
633.671	1	1
634.010	1	-6
634.349	1	2
634.689	1	4
635.028	1	10
635.367	1	0
635.706	1	-5
636.045	1	3
636.384	1	3
636.724	1	11
637.063	1	-4
637.402	1	-3
637.741	1	1
638.080	1	0
638.419	1	1
638.759	1	-2
639.098	1	13
639.437	1	3
639.776	1	-3
640.115	1	-2
640.454	1	-8
640.793	1	5
641.132	1	10
641.472	1	-3
641.811	1	-7
642.150	1	-7
642.489	1	5
642.828	1	-1
643.167	1	-8
643.506	1	-3
643.845	1	4
644.184	1	2
644.524	1	-1
644.863	1	-8
645.202	1	5
645.541	1	6
645.880	1	10
646.219	1	2
646.558	1	0
646.897	1	2
647.236	1	8
647.575	1	-2
647.914	1	-5
648.253	1	16
648.592	1	-3
648.931	1	13
649.270	1	-10
649.610	1	6
649.949	1	3
650.288	1	7
650.627	1	-2
650.966	1	6
651.305	1	-3
651.644	1	13
651.983	1	4
652.322	1	-8
652.661	1	2
653.000	1	-3
653.339	1	5
653.678	1	0
654.017	1	-4
654.356	1	-3
654.695	1	-1
655.034	1	12
655.373	1	12
655.712	1	-2
656.051	1	-2
656.390	1	-4
656.729	1	2
657.068	1	3
657.406	1	3
657.745	1	-2
658.084	1	2
658.423	1	13
658.762	1	-3
659.101	1	6
659.440	1	-4
659.779	1	5
660.118	1	5
660.457	1	11
660.796	1	-7
661.135	1	-3
661.474	1	5
661.813	1	7
662.152	1	1
662.491	1	-1
662.829	1	-9
663.168	1	0
663.507	1	13
663.846	1	-4
664.185	1	1
664.524	1	0
664.863	1	-4
665.202	1	4
665.541	1	-5
665.879	1	-4
666.218	1	-7
666.557	1	1
666.896	1	6
667.235	1	11
667.574	1	-3
667.913	1	0
668.251	1	4
668.590	1	6
668.929	1	-2
669.268	1	6
669.607	1	-2
669.946	1	4
670.285	1	4
670.623	1	-2
670.962	1	3
671.301	1	0
671.640	1	10
671.979	1	0
672.317	1	7
672.656	1	0
672.995	1	0
673.334	1	1
673.673	1	-2
674.011	1	-4
674.350	1	3
674.689	1	-9
675.028	1	-2
675.367	1	3
675.705	1	8
676.044	1	1
676.383	1	3
676.722	1	-1
677.060	1	4
677.399	1	0
677.738	1	0
678.077	1	7
678.416	1	5
678.754	1	-1
679.093	1	6
679.432	1	3
679.771	1	-8
680.109	1	9
680.448	1	2
680.787	1	1
681.125	1	-3
681.464	1	1
681.803	1	-10
682.142	1	2
682.480	1	3
682.819	1	-5
683.158	1	-1
683.496	1	1
683.835	1	4
684.174	1	3
684.512	1	6
684.851	1	-6
685.190	1	-5
685.529	1	-5
685.867	1	-2
686.206	1	1
686.545	1	-4
686.883	1	3
687.222	1	11
687.561	1	4
687.899	1	-3
688.238	1	6
688.577	1	4
688.746	1	2