File: Data/GaN_200K_800ms/GaN_sample F_spot 12_UVVIS_200 K_200um_800 ms 2x2mm1_293.txt
340.368	1	1
340.710	1	-7
341.052	1	-2
341.394	1	0
341.737	1	-1
342.079	1	0
342.421	1	-13
342.763	1	5
343.105	1	-6
343.447	1	0
343.789	1	-3
344.131	1	-3
344.473	1	-1
344.815	1	5
345.157	1	7
345.499	1	-2
345.841	1	4
346.183	1	0
346.526	1	-6
346.868	1	7
347.210	1	-10
347.552	1	0
347.894	1	-3
348.236	1	0
348.578	1	0
348.920	1	-2
349.262	1	-9
349.604	1	-1
349.946	1	-4
350.288	1	1
350.630	1	-3
350.972	1	-5
351.314	1	9
351.656	1	2
351.998	1	8
352.340	1	2
352.682	1	4
353.024	1	3
353.366	1	9
353.708	1	7
354.050	1	-3
354.392	1	4
354.734	1	8
355.076	1	0
355.418	1	-5
355.760	1	-1
356.102	1	17
356.444	1	2
356.785	1	10
357.127	1	-6
357.469	1	0
357.811	1	-3
358.153	1	0
358.495	1	1
358.837	1	-2
359.179	1	1
359.521	1	5
359.863	1	4
360.205	1	-2
360.547	1	3
360.889	1	0
361.231	1	-9
361.572	1	4
361.914	1	0
362.256	1	8
362.598	1	0
362.940	1	-4
363.282	1	-5
363.624	1	8
363.966	1	-3
364.308	1	9
364.649	1	-8
364.991	1	8
365.333	1	1
365.675	1	11
366.017	1	15
366.359	1	10
366.701	1	11
367.042	1	10
367.384	1	21
367.726	1	22
368.068	1	20
368.410	1	21
368.752	1	11
369.093	1	15
369.435	1	22
369.777	1	8
370.119	1	16
370.461	1	28
370.803	1	15
371.144	1	8
371.486	1	21
371.828	1	13
372.170	1	22
372.512	1	10
372.853	1	11
373.195	1	11
373.537	1	12
373.879	1	11
374.220	1	21
374.562	1	19
374.904	1	10
375.246	1	13
375.588	1	10
375.929	1	13
376.271	1	15
376.613	1	0
376.955	1	4
377.296	1	1
377.638	1	5
377.980	1	5
378.321	1	2
378.663	1	5
379.005	1	16
379.347	1	13
379.688	1	15
380.030	1	2
380.372	1	6
380.714	1	17
381.055	1	7
381.397	1	-2
381.739	1	3
382.080	1	7
382.422	1	1
382.764	1	5
383.105	1	-2
383.447	1	3
383.789	1	7
384.130	1	0
384.472	1	6
384.814	1	11
385.156	1	2
385.497	1	10
385.839	1	0
386.180	1	3
386.522	1	6
386.864	1	9
387.205	1	6
387.547	1	-4
387.889	1	-6
388.230	1	6
388.572	1	-2
388.914	1	9
389.255	1	1
389.597	1	2
389.939	1	8
390.280	1	10
390.622	1	-6
390.963	1	4
391.305	1	7
391.647	1	2
391.988	1	10
392.330	1	1
392.671	1	-1
393.013	1	-3
393.355	1	3
393.696	1	7
394.038	1	-3
394.379	1	6
394.721	1	-5
395.062	1	-5
395.404	1	-2
395.746	1	6
396.087	1	1
396.429	1	-3
396.770	1	-4
397.112	1	2
397.453	1	9
397.795	1	2
398.136	1	-5
398.478	1	-5
398.819	1	-2
399.161	1	16
399.503	1	6
399.844	1	2
400.186	1	1
400.527	1	-6
400.869	1	2
401.210	1	5
401.552	1	-7
401.893	1	-7
402.235	1	2
402.576	1	3
402.918	1	-2
403.259	1	3
403.601	1	-7
403.942	1	9
404.284	1	3
404.625	1	3
404.967	1	-3
405.308	1	-1
405.649	1	3
405.991	1	2
406.332	1	7
406.674	1	-4
407.015	1	3
407.357	1	-9
407.698	1	5
408.040	1	-7
408.381	1	7
408.722	1	-10
409.064	1	0
409.405	1	6
409.747	1	-3
410.088	1	3
410.430	1	6
410.771	1	6
411.112	1	-3
411.454	1	5
411.795	1	3
412.137	1	0
412.478	1	6
412.819	1	-3
413.161	1	-7
413.502	1	-3
413.844	1	2
414.185	1	4
414.526	1	-7
414.868	1	3
415.209	1	-5
415.550	1	-5
415.892	1	-3
416.233	1	7
416.575	1	6
416.916	1	-5
417.257	1	1
417.599	1	9
417.940	1	-1
418.281	1	5
418.623	1	-8
418.964	1	-8
419.305	1	3
419.647	1	-1
419.988	1	1
420.329	1	1
420.671	1	9
421.012	1	3
421.353	1	0
421.695	1	3
422.036	1	1
422.377	1	0
422.718	1	5
423.060	1	-9
423.401	1	0
423.742	1	2
424.084	1	5
424.425	1	-5
424.766	1	-6
425.107	1	-2
425.449	1	-2
425.790	1	-13
426.131	1	-6
426.472	1	-3
426.814	1	1
427.155	1	-4
427.496	1	-3
427.837	1	-11
428.179	1	-6
428.520	1	3
428.861	1	-4
429.202	1	-2
429.544	1	3
429.885	1	-2
430.226	1	2
430.567	1	-4
430.909	1	5
431.250	1	-6
431.591	1	6
431.932	1	-7
432.273	1	-3
432.615	1	-12
432.956	1	-7
433.297	1	-2
433.638	1	-9
433.979	1	7
434.320	1	-2
434.662	1	4
435.003	1	12
435.344	1	-4
435.685	1	-6
436.026	1	6
436.368	1	1
436.709	1	-2
437.050	1	1
437.391	1	10
437.732	1	-6
438.073	1	-8
438.414	1	-1
438.756	1	0
439.097	1	-6
439.438	1	-4
439.779	1	-3
440.120	1	-6
440.461	1	3
440.802	1	3
441.143	1	9
441.485	1	2
441.826	1	-6
442.167	1	5
442.508	1	-7
442.849	1	9
443.190	1	4
443.531	1	2
443.872	1	5
444.213	1	-3
444.554	1	2
444.895	1	-7
445.237	1	-10
445.578	1	-8
445.919	1	-6
446.260	1	0
446.601	1	-1
446.942	1	-6
447.283	1	-4
447.624	1	-7
447.965	1	-4
448.306	1	3
448.647	1	-5
448.988	1	-1
449.329	1	-4
449.670	1	6
450.011	1	3
450.352	1	-6
450.693	1	-1
451.034	1	-9
451.375	1	1
451.716	1	-2
452.057	1	4
452.398	1	2
452.739	1	10
453.080	1	2
453.421	1	-2
453.762	1	-2
454.103	1	-4
454.444	1	-8
454.785	1	-6
455.126	1	-13
455.467	1	-4
455.808	1	-5
456.149	1	3
456.490	1	0
456.831	1	13
457.172	1	-6
457.513	1	5
457.854	1	-2
458.195	1	0
458.536	1	6
458.877	1	-6
459.218	1	0
459.559	1	0
459.899	1	-4
460.240	1	1
460.581	1	5
460.922	1	-4
461.263	1	-6
461.604	1	-4
461.945	1	1
462.286	1	-3
462.627	1	2
462.968	1	0
463.309	1	-5
463.649	1	-7
463.990	1	-5
464.331	1	-7
464.672	1	-6
465.013	1	-7
465.354	1	8
465.695	1	-11
466.036	1	-7
466.376	1	0
466.717	1	5
467.058	1	-6
467.399	1	0
467.740	1	3
468.081	1	-1
468.422	1	-9
468.762	1	-11
469.103	1	-11
469.444	1	-11
469.785	1	-15
470.126	1	-6
470.467	1	-1
470.807	1	2
471.148	1	0
471.489	1	-3
471.830	1	-1
472.171	1	0
472.511	1	4
472.852	1	2
473.193	1	5
473.534	1	8
473.875	1	14
474.215	1	-1
474.556	1	-9
474.897	1	8
475.238	1	-2
475.578	1	-3
475.919	1	-4
476.260	1	-5
476.601	1	5
476.942	1	6
477.282	1	-8
477.623	1	-18
477.964	1	-1
478.305	1	-7
478.645	1	12
478.986	1	-1
479.327	1	-11
479.667	1	-1
480.008	1	1
480.349	1	-8
480.690	1	9
481.030	1	-6
481.371	1	12
481.712	1	0
482.053	1	-3
482.393	1	-1
482.734	1	-1
483.075	1	0
483.415	1	-2
483.756	1	8
484.097	1	-4
484.437	1	-6
484.778	1	-2
485.119	1	-15
485.459	1	17
485.800	1	-2
486.141	1	3
486.481	1	3
486.822	1	4
487.163	1	1
487.503	1	1
487.844	1	-5
488.185	1	1
488.525	1	-4
488.866	1	-7
489.207	1	-9
489.547	1	-4
489.888	1	0
490.228	1	4
490.569	1	9
490.910	1	2
491.250	1	1
491.591	1	-2
491.932	1	-4
492.272	1	7
492.613	1	-10
492.953	1	-8
493.294	1	3
493.635	1	-4
493.975	1	-5
494.316	1	9
494.656	1	-1
494.997	1	3
495.337	1	11
495.678	1	7
496.019	1	-1
496.359	1	1
496.700	1	-1
497.040	1	-1
497.381	1	-9
497.721	1	-8
498.062	1	4
498.403	1	1
498.743	1	-4
499.084	1	-10
499.424	1	7
499.765	1	-5
500.105	1	-3
500.446	1	-2
500.786	1	-10
501.127	1	3
501.467	1	-8
501.808	1	7
502.148	1	5
502.489	1	5
502.829	1	-7
503.170	1	1
503.510	1	7
503.851	1	-2
504.191	1	0
504.532	1	8
504.872	1	5
505.213	1	4
505.553	1	-9
505.894	1	-7
506.234	1	7
506.575	1	4
506.915	1	2
507.256	1	0
507.596	1	-1
507.936	1	3
508.277	1	-5
508.617	1	2
508.958	1	0
509.298	1	-3
509.639	1	-6
509.979	1	-1
510.319	1	11
510.660	1	-5
511.000	1	-4
511.341	1	0
511.681	1	4
512.022	1	-9
512.362	1	-7
512.702	1	-4
513.043	1	2
513.383	1	-6
513.724	1	4
514.064	1	8
514.404	1	-6
514.745	1	-1
515.085	1	-1
515.425	1	-5
515.766	1	-6
516.106	1	-2
516.447	1	4
516.787	1	2
517.127	1	-6
517.468	1	-2
517.808	1	-8
518.148	1	7
518.489	1	1
518.829	1	13
519.169	1	2
519.510	1	2
519.850	1	4
520.190	1	-10
520.531	1	7
520.871	1	0
521.211	1	-5
521.552	1	5
521.892	1	0
522.232	1	4
522.573	1	-2
522.913	1	-2
523.253	1	0
523.593	1	-2
523.934	1	2
524.274	1	-7
524.614	1	-5
524.955	1	-10
525.295	1	0
525.635	1	3
525.975	1	-1
526.316	1	13
526.656	1	-2
526.996	1	3
527.337	1	-2
527.677	1	5
528.017	1	-10
528.357	1	-4
528.698	1	4
529.038	1	-3
529.378	1	8
529.718	1	9
530.058	1	6
530.399	1	15
530.739	1	10
531.079	1	-2
531.419	1	6
531.760	1	-2
532.100	1	-9
532.440	1	-5
532.780	1	-2
533.120	1	9
533.461	1	1
533.801	1	16
534.141	1	-9
534.481	1	-8
534.821	1	7
535.162	1	-5
535.502	1	-6
535.842	1	4
536.182	1	6
536.522	1	2
536.862	1	3
537.203	1	-12
537.543	1	0
537.883	1	-5
538.223	1	8
538.563	1	10
538.903	1	-8
539.243	1	-7
539.584	1	3
539.924	1	7
540.264	1	5
540.604	1	-1
540.944	1	-8
541.284	1	3
541.624	1	10
541.964	1	12
542.305	1	16
542.645	1	0
542.985	1	1
543.325	1	-3
543.665	1	8
544.005	1	-2
544.345	1	3
544.685	1	8
545.025	1	9
545.365	1	-5
545.705	1	-2
546.045	1	-8
546.386	1	5
546.726	1	2
547.066	1	10
547.406	1	6
547.746	1	-11
548.086	1	1
548.426	1	-6
548.766	1	3
549.106	1	2
549.446	1	-6
549.786	1	-2
550.126	1	8
550.466	1	3
550.806	1	8
551.146	1	0
551.486	1	-5
551.826	1	-2
552.166	1	0
552.506	1	11
552.846	1	6
553.186	1	2
553.526	1	5
553.866	1	-4
554.206	1	4
554.546	1	0
554.886	1	-5
555.226	1	-2
555.566	1	4
555.906	1	10
556.246	1	1
556.586	1	4
556.926	1	-3
557.266	1	-7
557.606	1	1
557.946	1	11
558.286	1	8
558.626	1	0
558.966	1	7
559.306	1	-8
559.646	1	-2
559.986	1	-6
560.325	1	-7
560.665	1	-1
561.005	1	-4
561.345	1	-8
561.685	1	3
562.025	1	-5
562.365	1	3
562.705	1	-6
563.045	1	-7
563.385	1	-9
563.725	1	0
564.064	1	-1
564.404	1	1
564.744	1	8
565.084	1	0
565.424	1	-2
565.764	1	10
566.104	1	-3
566.444	1	0
566.783	1	-7
567.123	1	-2
567.463	1	4
567.803	1	0
568.143	1	7
568.483	1	4
568.823	1	0
569.162	1	0
569.502	1	3
569.842	1	7
570.182	1	0
570.522	1	-7
570.862	1	4
571.201	1	9
571.541	1	7
571.881	1	10
572.221	1	-1
572.561	1	2
572.900	1	-2
573.240	1	1
573.580	1	2
573.920	1	7
574.260	1	9
574.599	1	5
574.939	1	0
575.279	1	7
575.619	1	9
575.959	1	-10
576.298	1	7
576.638	1	1
576.978	1	3
577.318	1	4
577.657	1	2
577.997	1	-2
578.337	1	8
578.677	1	8
579.016	1	3
579.356	1	-6
579.696	1	11
580.036	1	-4
580.375	1	2
580.715	1	0
581.055	1	5
581.394	1	1
581.734	1	-8
582.074	1	-4
582.414	1	10
582.753	1	-1
583.093	1	-1
583.433	1	-9
583.772	1	6
584.112	1	-1
584.452	1	-1
584.791	1	1
585.131	1	7
585.471	1	11
585.811	1	10
586.150	1	3
586.490	1	-3
586.830	1	2
587.169	1	5
587.509	1	11
587.849	1	-3
588.188	1	13
588.528	1	-2
588.867	1	-1
589.207	1	3
589.547	1	9
589.886	1	-7
590.226	1	0
590.566	1	-4
590.905	1	0
591.245	1	-9
591.585	1	-2
591.924	1	-1
592.264	1	0
592.603	1	2
592.943	1	5
593.283	1	1
593.622	1	-6
593.962	1	-4
594.301	1	5
594.641	1	-5
594.981	1	-9
595.320	1	1
595.660	1	2
595.999	1	-1
596.339	1	11
596.678	1	-13
597.018	1	0
597.358	1	4
597.697	1	-5
598.037	1	0
598.376	1	-2
598.716	1	6
599.055	1	-2
599.395	1	-2
599.734	1	0
600.074	1	2
600.413	1	8
600.753	1	1
601.092	1	20
601.432	1	-4
601.771	1	7
602.111	1	8
602.451	1	9
602.790	1	-3
603.130	1	-3
603.469	1	-5
603.809	1	8
604.148	1	1
604.487	1	3
604.827	1	4
605.166	1	9
605.506	1	4
605.845	1	3
606.185	1	9
606.524	1	10
606.864	1	-8
607.203	1	-8
607.543	1	-7
607.882	1	-5
608.222	1	0
608.561	1	3
608.901	1	3
609.240	1	-7
609.579	1	7
609.919	1	7
610.258	1	10
610.598	1	-4
610.937	1	-5
611.277	1	-4
611.616	1	0
611.955	1	3
612.295	1	-3
612.634	1	2
612.974	1	-7
613.313	1	20
613.652	1	0
613.992	1	3
614.331	1	-1
614.671	1	3
615.010	1	-5
615.349	1	7
615.689	1	13
616.028	1	5
616.368	1	3
616.707	1	-5
617.046	1	4
617.386	1	-2
617.725	1	-5
618.064	1	4
618.404	1	5
618.743	1	7
619.082	1	4
619.422	1	7
619.761	1	6
620.100	1	-2
620.440	1	-1
620.779	1	2
621.118	1	-4
621.458	1	0
621.797	1	-2
622.136	1	12
622.476	1	7
622.815	1	13
623.154	1	5
623.494	1	3
623.833	1	3
624.172	1	6
624.511	1	-2
624.851	1	-5
625.190	1	-1
625.529	1	-5
625.869	1	-4
626.208	1	0
626.547	1	-2
626.886	1	-1
627.226	1	3
627.565	1	-1
627.904	1	-15
628.243	1	1
628.583	1	-5
628.922	1	3
629.261	1	9
629.600	1	6
629.940	1	1
630.279	1	-8
630.618	1	3
630.957	1	2
631.297	1	-7
631.636	1	-7
631.975	1	16
632.314	1	2
632.653	1	1
632.993	1	-3
633.332	1	3
633.671	1	1
634.010	1	-7
634.349	1	16
634.689	1	3
635.028	1	7
635.367	1	8
635.706	1	4
636.045	1	11
636.384	1	5
636.724	1	0
637.063	1	2
637.402	1	-9
637.741	1	-5
638.080	1	-1
638.419	1	-1
638.759	1	2
639.098	1	-2
639.437	1	3
639.776	1	-1
640.115	1	-6
640.454	1	-2
640.793	1	1
641.132	1	7
641.472	1	-1
641.811	1	-1
642.150	1	-12
642.489	1	2
642.828	1	2
643.167	1	-1
643.506	1	-11
643.845	1	2
644.184	1	-7
644.524	1	-6
644.863	1	-15
645.202	1	-3
645.541	1	4
645.880	1	-6
646.219	1	-4
646.558	1	-10
646.897	1	1
647.236	1	-2
647.575	1	3
647.914	1	-7
648.253	1	-1
648.592	1	5
648.931	1	4
649.270	1	-1
649.610	1	-2
649.949	1	-7
650.288	1	-7
650.627	1	1
650.966	1	6
651.305	1	-1
651.644	1	8
651.983	1	-3
652.322	1	2
652.661	1	-1
653.000	1	1
653.339	1	-3
653.678	1	-3
654.017	1	3
654.356	1	-4
654.695	1	8
655.034	1	8
655.373	1	3
655.712	1	-8
656.051	1	3
656.390	1	-2
656.729	1	6
657.068	1	-9
657.406	1	2
657.745	1	-2
658.084	1	8
658.423	1	10
658.762	1	-6
659.101	1	13
659.440	1	7
659.779	1	7
660.118	1	-7
660.457	1	-7
660.796	1	-2
661.135	1	-5
661.474	1	-6
661.813	1	9
662.152	1	7
662.491	1	-1
662.829	1	-8
663.168	1	9
663.507	1	6
663.846	1	-5
664.185	1	1
664.524	1	6
664.863	1	-6
665.202	1	1
665.541	1	-13
665.879	1	-2
666.218	1	-6
666.557	1	-5
666.896	1	-9
667.235	1	-2
667.574	1	-3
667.913	1	8
668.251	1	-4
668.590	1	-3
668.929	1	-6
669.268	1	-1
669.607	1	-4
669.946	1	3
670.285	1	1
670.623	1	3
670.962	1	-2
671.301	1	-1
671.640	1	5
671.979	1	-3
672.317	1	7
672.656	1	4
672.995	1	1
673.334	1	-3
673.673	1	8
674.011	1	-4
674.350	1	11
674.689	1	6
675.028	1	-3
675.367	1	4
675.705	1	11
676.044	1	4
676.383	1	1
676.722	1	3
677.060	1	-3
677.399	1	-4
677.738	1	9
678.077	1	3
678.416	1	-2
678.754	1	-6
679.093	1	9
679.432	1	-3
679.771	1	3
680.109	1	1
680.448	1	5
680.787	1	-8
681.125	1	2
681.464	1	-3
681.803	1	9
682.142	1	5
682.480	1	-2
682.819	1	3
683.158	1	-6
683.496	1	-2
683.835	1	-7
684.174	1	-3
684.512	1	4
684.851	1	8
685.190	1	-5
685.529	1	0
685.867	1	-3
686.206	1	-5
686.545	1	-12
686.883	1	0
687.222	1	3
687.561	1	9
687.899	1	-1
688.238	1	2
688.577	1	1
688.746	1	-7