File: Data/GaN_200K_800ms/GaN_sample F_spot 12_UVVIS_200 K_200um_800 ms 2x2mm1_92.txt
340.368	1	4
340.710	1	-12
341.052	1	2
341.394	1	4
341.737	1	12
342.079	1	-3
342.421	1	5
342.763	1	2
343.105	1	1
343.447	1	-6
343.789	1	9
344.131	1	6
344.473	1	1
344.815	1	-8
345.157	1	-3
345.499	1	5
345.841	1	4
346.183	1	0
346.526	1	-2
346.868	1	9
347.210	1	-2
347.552	1	1
347.894	1	4
348.236	1	10
348.578	1	9
348.920	1	7
349.262	1	2
349.604	1	5
349.946	1	0
350.288	1	10
350.630	1	7
350.972	1	10
351.314	1	2
351.656	1	9
351.998	1	12
352.340	1	4
352.682	1	8
353.024	1	3
353.366	1	14
353.708	1	-1
354.050	1	10
354.392	1	2
354.734	1	9
355.076	1	5
355.418	1	1
355.760	1	15
356.102	1	26
356.444	1	12
356.785	1	17
357.127	1	10
357.469	1	13
357.811	1	11
358.153	1	21
358.495	1	19
358.837	1	14
359.179	1	10
359.521	1	14
359.863	1	21
360.205	1	18
360.547	1	22
360.889	1	13
361.231	1	10
361.572	1	38
361.914	1	41
362.256	1	35
362.598	1	27
362.940	1	33
363.282	1	45
363.624	1	55
363.966	1	49
364.308	1	55
364.649	1	52
364.991	1	63
365.333	1	73
365.675	1	53
366.017	1	61
366.359	1	74
366.701	1	79
367.042	1	92
367.384	1	104
367.726	1	102
368.068	1	107
368.410	1	113
368.752	1	114
369.093	1	107
369.435	1	126
369.777	1	110
370.119	1	123
370.461	1	121
370.803	1	118
371.144	1	98
371.486	1	106
371.828	1	106
372.170	1	100
372.512	1	94
372.853	1	89
373.195	1	80
373.537	1	84
373.879	1	67
374.220	1	91
374.562	1	84
374.904	1	74
375.246	1	67
375.588	1	70
375.929	1	65
376.271	1	70
376.613	1	49
376.955	1	54
377.296	1	45
377.638	1	49
377.980	1	39
378.321	1	39
378.663	1	37
379.005	1	52
379.347	1	38
379.688	1	52
380.030	1	43
380.372	1	42
380.714	1	36
381.055	1	37
381.397	1	25
381.739	1	41
382.080	1	29
382.422	1	27
382.764	1	31
383.105	1	28
383.447	1	26
383.789	1	22
384.130	1	14
384.472	1	20
384.814	1	23
385.156	1	18
385.497	1	26
385.839	1	13
386.180	1	19
386.522	1	25
386.864	1	18
387.205	1	12
387.547	1	8
387.889	1	16
388.230	1	26
388.572	1	7
388.914	1	12
389.255	1	9
389.597	1	11
389.939	1	23
390.280	1	8
390.622	1	7
390.963	1	22
391.305	1	18
391.647	1	12
391.988	1	14
392.330	1	12
392.671	1	7
393.013	1	-4
393.355	1	18
393.696	1	10
394.038	1	13
394.379	1	3
394.721	1	0
395.062	1	15
395.404	1	7
395.746	1	18
396.087	1	0
396.429	1	10
396.770	1	-1
397.112	1	17
397.453	1	23
397.795	1	5
398.136	1	-5
398.478	1	1
398.819	1	8
399.161	1	25
399.503	1	12
399.844	1	10
400.186	1	6
400.527	1	5
400.869	1	9
401.210	1	4
401.552	1	2
401.893	1	6
402.235	1	9
402.576	1	0
402.918	1	15
403.259	1	11
403.601	1	1
403.942	1	18
404.284	1	18
404.625	1	7
404.967	1	9
405.308	1	5
405.649	1	5
405.991	1	10
406.332	1	12
406.674	1	-6
407.015	1	10
407.357	1	2
407.698	1	17
408.040	1	-1
408.381	1	8
408.722	1	-5
409.064	1	-1
409.405	1	14
409.747	1	-2
410.088	1	5
410.430	1	10
410.771	1	6
411.112	1	11
411.454	1	7
411.795	1	-8
412.137	1	5
412.478	1	9
412.819	1	-3
413.161	1	8
413.502	1	8
413.844	1	7
414.185	1	11
414.526	1	8
414.868	1	7
415.209	1	3
415.550	1	-4
415.892	1	12
416.233	1	9
416.575	1	5
416.916	1	-3
417.257	1	-5
417.599	1	7
417.940	1	9
418.281	1	7
418.623	1	-3
418.964	1	-8
419.305	1	8
419.647	1	4
419.988	1	2
420.329	1	-6
420.671	1	7
421.012	1	11
421.353	1	1
421.695	1	-3
422.036	1	2
422.377	1	-1
422.718	1	11
423.060	1	3
423.401	1	-6
423.742	1	7
424.084	1	7
424.425	1	5
424.766	1	2
425.107	1	-10
425.449	1	4
425.790	1	-2
426.131	1	5
426.472	1	5
426.814	1	5
427.155	1	-5
427.496	1	-4
427.837	1	6
428.179	1	-6
428.520	1	14
428.861	1	2
429.202	1	2
429.544	1	1
429.885	1	2
430.226	1	-10
430.567	1	-8
430.909	1	2
431.250	1	-3
431.591	1	-2
431.932	1	-3
432.273	1	7
432.615	1	-2
432.956	1	-5
433.297	1	7
433.638	1	6
433.979	1	8
434.320	1	5
434.662	1	5
435.003	1	5
435.344	1	8
435.685	1	1
436.026	1	11
436.368	1	-2
436.709	1	4
437.050	1	4
437.391	1	13
437.732	1	-10
438.073	1	4
438.414	1	-4
438.756	1	-6
439.097	1	0
439.438	1	3
439.779	1	3
440.120	1	-4
440.461	1	2
440.802	1	0
441.143	1	6
441.485	1	-1
441.826	1	2
442.167	1	-1
442.508	1	-12
442.849	1	11
443.190	1	3
443.531	1	12
443.872	1	17
444.213	1	0
444.554	1	15
444.895	1	0
445.237	1	6
445.578	1	-2
445.919	1	-7
446.260	1	-3
446.601	1	4
446.942	1	-2
447.283	1	-14
447.624	1	-4
447.965	1	2
448.306	1	8
448.647	1	-15
448.988	1	-5
449.329	1	0
449.670	1	8
450.011	1	12
450.352	1	2
450.693	1	-1
451.034	1	0
451.375	1	6
451.716	1	2
452.057	1	7
452.398	1	1
452.739	1	3
453.080	1	-1
453.421	1	-2
453.762	1	-5
454.103	1	2
454.444	1	0
454.785	1	-2
455.126	1	-2
455.467	1	6
455.808	1	-4
456.149	1	1
456.490	1	-4
456.831	1	5
457.172	1	0
457.513	1	12
457.854	1	3
458.195	1	6
458.536	1	8
458.877	1	3
459.218	1	-3
459.559	1	8
459.899	1	0
460.240	1	13
460.581	1	22
460.922	1	-1
461.263	1	-2
461.604	1	-3
461.945	1	-4
462.286	1	0
462.627	1	5
462.968	1	8
463.309	1	-7
463.649	1	-9
463.990	1	0
464.331	1	-6
464.672	1	-4
465.013	1	4
465.354	1	0
465.695	1	-5
466.036	1	-5
466.376	1	-6
466.717	1	3
467.058	1	1
467.399	1	2
467.740	1	1
468.081	1	6
468.422	1	0
468.762	1	-9
469.103	1	-4
469.444	1	-3
469.785	1	-5
470.126	1	-8
470.467	1	-3
470.807	1	-1
471.148	1	8
471.489	1	-4
471.830	1	6
472.171	1	6
472.511	1	-7
472.852	1	-2
473.193	1	12
473.534	1	12
473.875	1	14
474.215	1	17
474.556	1	5
474.897	1	3
475.238	1	7
475.578	1	-13
475.919	1	-2
476.260	1	10
476.601	1	6
476.942	1	19
477.282	1	2
477.623	1	-4
477.964	1	-8
478.305	1	0
478.645	1	9
478.986	1	1
479.327	1	-11
479.667	1	4
480.008	1	-1
480.349	1	-1
480.690	1	3
481.030	1	-2
481.371	1	4
481.712	1	3
482.053	1	0
482.393	1	-1
482.734	1	1
483.075	1	7
483.415	1	-3
483.756	1	11
484.097	1	4
484.437	1	1
484.778	1	13
485.119	1	0
485.459	1	17
485.800	1	4
486.141	1	5
486.481	1	12
486.822	1	7
487.163	1	1
487.503	1	6
487.844	1	3
488.185	1	8
488.525	1	5
488.866	1	3
489.207	1	0
489.547	1	6
489.888	1	5
490.228	1	9
490.569	1	23
490.910	1	1
491.250	1	-8
491.591	1	-4
491.932	1	8
492.272	1	-1
492.613	1	1
492.953	1	4
493.294	1	2
493.635	1	4
493.975	1	1
494.316	1	2
494.656	1	5
494.997	1	1
495.337	1	12
495.678	1	-1
496.019	1	4
496.359	1	0
496.700	1	8
497.040	1	4
497.381	1	-5
497.721	1	-1
498.062	1	2
498.403	1	4
498.743	1	7
499.084	1	5
499.424	1	3
499.765	1	3
500.105	1	-7
500.446	1	1
500.786	1	-6
501.127	1	12
501.467	1	6
501.808	1	5
502.148	1	2
502.489	1	9
502.829	1	0
503.170	1	12
503.510	1	8
503.851	1	7
504.191	1	6
504.532	1	17
504.872	1	13
505.213	1	5
505.553	1	3
505.894	1	10
506.234	1	14
506.575	1	13
506.915	1	9
507.256	1	13
507.596	1	11
507.936	1	18
508.277	1	3
508.617	1	4
508.958	1	-1
509.298	1	7
509.639	1	8
509.979	1	8
510.319	1	7
510.660	1	0
511.000	1	-5
511.341	1	10
511.681	1	14
512.022	1	3
512.362	1	6
512.702	1	-3
513.043	1	19
513.383	1	-4
513.724	1	19
514.064	1	19
514.404	1	-1
514.745	1	3
515.085	1	3
515.425	1	7
515.766	1	6
516.106	1	6
516.447	1	22
516.787	1	22
517.127	1	0
517.468	1	5
517.808	1	7
518.148	1	8
518.489	1	11
518.829	1	11
519.169	1	13
519.510	1	12
519.850	1	18
520.190	1	0
520.531	1	6
520.871	1	8
521.211	1	6
521.552	1	5
521.892	1	9
522.232	1	20
522.573	1	8
522.913	1	17
523.253	1	6
523.593	1	10
523.934	1	7
524.274	1	8
524.614	1	7
524.955	1	6
525.295	1	4
525.635	1	11
525.975	1	12
526.316	1	21
526.656	1	9
526.996	1	18
527.337	1	7
527.677	1	15
528.017	1	-3
528.357	1	10
528.698	1	15
529.038	1	10
529.378	1	21
529.718	1	7
530.058	1	14
530.399	1	15
530.739	1	10
531.079	1	10
531.419	1	19
531.760	1	15
532.100	1	7
532.440	1	15
532.780	1	2
533.120	1	20
533.461	1	15
533.801	1	21
534.141	1	5
534.481	1	3
534.821	1	13
535.162	1	7
535.502	1	-1
535.842	1	15
536.182	1	10
536.522	1	3
536.862	1	16
537.203	1	11
537.543	1	14
537.883	1	5
538.223	1	16
538.563	1	10
538.903	1	5
539.243	1	6
539.584	1	7
539.924	1	22
540.264	1	8
540.604	1	8
540.944	1	6
541.284	1	17
541.624	1	10
541.964	1	16
542.305	1	17
542.645	1	10
542.985	1	14
543.325	1	13
543.665	1	19
544.005	1	21
544.345	1	13
544.685	1	11
545.025	1	11
545.365	1	12
545.705	1	11
546.045	1	5
546.386	1	24
546.726	1	-7
547.066	1	14
547.406	1	19
547.746	1	1
548.086	1	9
548.426	1	-5
548.766	1	16
549.106	1	20
549.446	1	14
549.786	1	11
550.126	1	22
550.466	1	25
550.806	1	382
551.146	1	17
551.486	1	15
551.826	1	12
552.166	1	18
552.506	1	13
552.846	1	15
553.186	1	27
553.526	1	16
553.866	1	16
554.206	1	20
554.546	1	11
554.886	1	20
555.226	1	9
555.566	1	14
555.906	1	9
556.246	1	9
556.586	1	18
556.926	1	21
557.266	1	7
557.606	1	25
557.946	1	19
558.286	1	13
558.626	1	16
558.966	1	12
559.306	1	11
559.646	1	3
559.986	1	12
560.325	1	7
560.665	1	6
561.005	1	-2
561.345	1	21
561.685	1	20
562.025	1	13
562.365	1	17
562.705	1	7
563.045	1	9
563.385	1	6
563.725	1	15
564.064	1	12
564.404	1	11
564.744	1	20
565.084	1	7
565.424	1	9
565.764	1	20
566.104	1	12
566.444	1	11
566.783	1	8
567.123	1	14
567.463	1	15
567.803	1	12
568.143	1	11
568.483	1	18
568.823	1	11
569.162	1	21
569.502	1	8
569.842	1	20
570.182	1	20
570.522	1	3
570.862	1	13
571.201	1	18
571.541	1	17
571.881	1	26
572.221	1	9
572.561	1	12
572.900	1	4
573.240	1	17
573.580	1	14
573.920	1	17
574.260	1	20
574.599	1	16
574.939	1	11
575.279	1	29
575.619	1	14
575.959	1	3
576.298	1	20
576.638	1	4
576.978	1	21
577.318	1	24
577.657	1	9
577.997	1	8
578.337	1	15
578.677	1	27
579.016	1	27
579.356	1	17
579.696	1	22
580.036	1	11
580.375	1	14
580.715	1	13
581.055	1	12
581.394	1	6
581.734	1	2
582.074	1	6
582.414	1	24
582.753	1	4
583.093	1	9
583.433	1	13
583.772	1	21
584.112	1	15
584.452	1	12
584.791	1	11
585.131	1	16
585.471	1	26
585.811	1	19
586.150	1	15
586.490	1	24
586.830	1	15
587.169	1	16
587.509	1	11
587.849	1	21
588.188	1	15
588.528	1	17
588.867	1	11
589.207	1	16
589.547	1	3
589.886	1	0
590.226	1	16
590.566	1	5
590.905	1	20
591.245	1	9
591.585	1	15
591.924	1	19
592.264	1	16
592.603	1	7
592.943	1	20
593.283	1	9
593.622	1	13
593.962	1	1
594.301	1	12
594.641	1	4
594.981	1	8
595.320	1	8
595.660	1	8
595.999	1	3
596.339	1	7
596.678	1	4
597.018	1	11
597.358	1	18
597.697	1	6
598.037	1	7
598.376	1	9
598.716	1	21
599.055	1	14
599.395	1	12
599.734	1	5
600.074	1	9
600.413	1	20
600.753	1	5
601.092	1	19
601.432	1	-9
601.771	1	13
602.111	1	8
602.451	1	11
602.790	1	16
603.130	1	10
603.469	1	-8
603.809	1	11
604.148	1	5
604.487	1	10
604.827	1	15
605.166	1	21
605.506	1	17
605.845	1	19
606.185	1	14
606.524	1	5
606.864	1	17
607.203	1	9
607.543	1	9
607.882	1	9
608.222	1	23
608.561	1	9
608.901	1	12
609.240	1	16
609.579	1	22
609.919	1	14
610.258	1	13
610.598	1	8
610.937	1	17
611.277	1	5
611.616	1	1
611.955	1	9
612.295	1	5
612.634	1	11
612.974	1	1
613.313	1	18
613.652	1	10
613.992	1	15
614.331	1	7
614.671	1	10
615.010	1	4
615.349	1	9
615.689	1	11
616.028	1	-2
616.368	1	0
616.707	1	8
617.046	1	10
617.386	1	6
617.725	1	-1
618.064	1	9
618.404	1	-2
618.743	1	20
619.082	1	3
619.422	1	5
619.761	1	17
620.100	1	11
620.440	1	9
620.779	1	-1
621.118	1	13
621.458	1	7
621.797	1	12
622.136	1	17
622.476	1	14
622.815	1	21
623.154	1	11
623.494	1	24
623.833	1	18
624.172	1	11
624.511	1	5
624.851	1	3
625.190	1	10
625.529	1	8
625.869	1	16
626.208	1	11
626.547	1	10
626.886	1	16
627.226	1	11
627.565	1	11
627.904	1	7
628.243	1	10
628.583	1	0
628.922	1	16
629.261	1	11
629.600	1	14
629.940	1	4
630.279	1	1
630.618	1	6
630.957	1	7
631.297	1	3
631.636	1	-3
631.975	1	14
632.314	1	3
632.653	1	8
632.993	1	5
633.332	1	10
633.671	1	7
634.010	1	7
634.349	1	17
634.689	1	-1
635.028	1	10
635.367	1	-2
635.706	1	14
636.045	1	16
636.384	1	9
636.724	1	9
637.063	1	5
637.402	1	8
637.741	1	9
638.080	1	10
638.419	1	2
638.759	1	5
639.098	1	18
639.437	1	11
639.776	1	3
640.115	1	13
640.454	1	5
640.793	1	21
641.132	1	18
641.472	1	16
641.811	1	13
642.150	1	2
642.489	1	8
642.828	1	2
643.167	1	4
643.506	1	5
643.845	1	8
644.184	1	1
644.524	1	11
644.863	1	4
645.202	1	5
645.541	1	-1
645.880	1	6
646.219	1	0
646.558	1	4
646.897	1	9
647.236	1	7
647.575	1	12
647.914	1	5
648.253	1	10
648.592	1	5
648.931	1	17
649.270	1	8
649.610	1	3
649.949	1	5
650.288	1	12
650.627	1	1
650.966	1	5
651.305	1	14
651.644	1	12
651.983	1	7
652.322	1	0
652.661	1	2
653.000	1	1
653.339	1	14
653.678	1	6
654.017	1	7
654.356	1	9
654.695	1	11
655.034	1	7
655.373	1	14
655.712	1	2
656.051	1	10
656.390	1	-3
656.729	1	4
657.068	1	2
657.406	1	1
657.745	1	0
658.084	1	12
658.423	1	15
658.762	1	3
659.101	1	16
659.440	1	5
659.779	1	1
660.118	1	4
660.457	1	8
660.796	1	-3
661.135	1	-6
661.474	1	5
661.813	1	18
662.152	1	12
662.491	1	-3
662.829	1	-5
663.168	1	12
663.507	1	11
663.846	1	3
664.185	1	5
664.524	1	5
664.863	1	3
665.202	1	6
665.541	1	-7
665.879	1	-7
666.218	1	-1
666.557	1	6
666.896	1	4
667.235	1	4
667.574	1	7
667.913	1	0
668.251	1	2
668.590	1	9
668.929	1	-4
669.268	1	5
669.607	1	5
669.946	1	5
670.285	1	9
670.623	1	-1
670.962	1	5
671.301	1	1
671.640	1	4
671.979	1	2
672.317	1	5
672.656	1	0
672.995	1	7
673.334	1	-6
673.673	1	10
674.011	1	1
674.350	1	15
674.689	1	9
675.028	1	0
675.367	1	5
675.705	1	1
676.044	1	9
676.383	1	8
676.722	1	6
677.060	1	-2
677.399	1	-6
677.738	1	-1
678.077	1	4
678.416	1	4
678.754	1	2
679.093	1	12
679.432	1	2
679.771	1	9
680.109	1	15
680.448	1	4
680.787	1	-5
681.125	1	12
681.464	1	4
681.803	1	9
682.142	1	12
682.480	1	18
682.819	1	4
683.158	1	5
683.496	1	6
683.835	1	-2
684.174	1	8
684.512	1	8
684.851	1	10
685.190	1	0
685.529	1	1
685.867	1	8
686.206	1	-4
686.545	1	-2
686.883	1	5
687.222	1	9
687.561	1	14
687.899	1	6
688.238	1	10
688.577	1	-3
688.746	1	0