File: Data/GaN_200K_800ms/GaN_sample F_spot 12_UVVIS_200 K_200um_800 ms 2x2mm1_192.txt
340.368	1	-4
340.710	1	0
341.052	1	7
341.394	1	-8
341.737	1	13
342.079	1	1
342.421	1	5
342.763	1	8
343.105	1	9
343.447	1	-10
343.789	1	-13
344.131	1	-4
344.473	1	-5
344.815	1	-1
345.157	1	3
345.499	1	4
345.841	1	13
346.183	1	4
346.526	1	-1
346.868	1	9
347.210	1	-7
347.552	1	-5
347.894	1	1
348.236	1	11
348.578	1	6
348.920	1	-2
349.262	1	1
349.604	1	3
349.946	1	5
350.288	1	10
350.630	1	6
350.972	1	4
351.314	1	-2
351.656	1	7
351.998	1	7
352.340	1	8
352.682	1	5
353.024	1	4
353.366	1	15
353.708	1	-3
354.050	1	-8
354.392	1	4
354.734	1	7
355.076	1	0
355.418	1	-4
355.760	1	5
356.102	1	18
356.444	1	2
356.785	1	11
357.127	1	6
357.469	1	5
357.811	1	2
358.153	1	12
358.495	1	9
358.837	1	-2
359.179	1	15
359.521	1	17
359.863	1	5
360.205	1	4
360.547	1	6
360.889	1	3
361.231	1	-1
361.572	1	13
361.914	1	11
362.256	1	8
362.598	1	-3
362.940	1	7
363.282	1	10
363.624	1	17
363.966	1	10
364.308	1	7
364.649	1	19
364.991	1	12
365.333	1	11
365.675	1	10
366.017	1	20
366.359	1	24
366.701	1	27
367.042	1	27
367.384	1	39
367.726	1	32
368.068	1	41
368.410	1	48
368.752	1	28
369.093	1	34
369.435	1	22
369.777	1	33
370.119	1	37
370.461	1	45
370.803	1	32
371.144	1	32
371.486	1	34
371.828	1	25
372.170	1	33
372.512	1	25
372.853	1	33
373.195	1	19
373.537	1	31
373.879	1	30
374.220	1	30
374.562	1	31
374.904	1	18
375.246	1	18
375.588	1	30
375.929	1	21
376.271	1	29
376.613	1	16
376.955	1	13
377.296	1	14
377.638	1	9
377.980	1	13
378.321	1	5
378.663	1	10
379.005	1	10
379.347	1	16
379.688	1	7
380.030	1	13
380.372	1	16
380.714	1	19
381.055	1	18
381.397	1	8
381.739	1	25
382.080	1	1
382.422	1	15
382.764	1	5
383.105	1	4
383.447	1	1
383.789	1	-4
384.130	1	5
384.472	1	4
384.814	1	7
385.156	1	-5
385.497	1	23
385.839	1	9
386.180	1	1
386.522	1	15
386.864	1	7
387.205	1	4
387.547	1	-3
387.889	1	1
388.230	1	12
388.572	1	0
388.914	1	9
389.255	1	-6
389.597	1	3
389.939	1	4
390.280	1	3
390.622	1	0
390.963	1	14
391.305	1	1
391.647	1	9
391.988	1	6
392.330	1	8
392.671	1	9
393.013	1	0
393.355	1	9
393.696	1	-1
394.038	1	3
394.379	1	9
394.721	1	-7
395.062	1	3
395.404	1	-2
395.746	1	6
396.087	1	8
396.429	1	-1
396.770	1	-4
397.112	1	3
397.453	1	5
397.795	1	5
398.136	1	-1
398.478	1	1
398.819	1	1
399.161	1	5
399.503	1	6
399.844	1	4
400.186	1	-2
400.527	1	0
400.869	1	1
401.210	1	6
401.552	1	-5
401.893	1	-5
402.235	1	-3
402.576	1	-3
402.918	1	12
403.259	1	11
403.601	1	4
403.942	1	9
404.284	1	7
404.625	1	6
404.967	1	2
405.308	1	-5
405.649	1	4
405.991	1	-1
406.332	1	5
406.674	1	-4
407.015	1	6
407.357	1	-1
407.698	1	7
408.040	1	-4
408.381	1	5
408.722	1	-12
409.064	1	7
409.405	1	2
409.747	1	1
410.088	1	6
410.430	1	-3
410.771	1	6
411.112	1	3
411.454	1	-5
411.795	1	-2
412.137	1	5
412.478	1	8
412.819	1	-2
413.161	1	-6
413.502	1	-5
413.844	1	2
414.185	1	6
414.526	1	-8
414.868	1	8
415.209	1	-2
415.550	1	-6
415.892	1	5
416.233	1	6
416.575	1	11
416.916	1	-4
417.257	1	5
417.599	1	-4
417.940	1	9
418.281	1	9
418.623	1	1
418.964	1	-13
419.305	1	-5
419.647	1	0
419.988	1	0
420.329	1	-5
420.671	1	5
421.012	1	7
421.353	1	-5
421.695	1	5
422.036	1	-3
422.377	1	-2
422.718	1	10
423.060	1	-3
423.401	1	4
423.742	1	8
424.084	1	-3
424.425	1	8
424.766	1	-4
425.107	1	2
425.449	1	1
425.790	1	-7
426.131	1	2
426.472	1	0
426.814	1	9
427.155	1	1
427.496	1	-5
427.837	1	-4
428.179	1	-5
428.520	1	1
428.861	1	-2
429.202	1	4
429.544	1	2
429.885	1	4
430.226	1	-3
430.567	1	8
430.909	1	4
431.250	1	3
431.591	1	-1
431.932	1	-7
432.273	1	-5
432.615	1	-12
432.956	1	0
433.297	1	5
433.638	1	1
433.979	1	1
434.320	1	7
434.662	1	8
435.003	1	4
435.344	1	-6
435.685	1	-1
436.026	1	11
436.368	1	0
436.709	1	-9
437.050	1	3
437.391	1	4
437.732	1	-2
438.073	1	-4
438.414	1	-9
438.756	1	-2
439.097	1	-7
439.438	1	2
439.779	1	-3
440.120	1	5
440.461	1	-1
440.802	1	1
441.143	1	6
441.485	1	6
441.826	1	-2
442.167	1	-6
442.508	1	-9
442.849	1	14
443.190	1	-2
443.531	1	5
443.872	1	6
444.213	1	-3
444.554	1	8
444.895	1	-3
445.237	1	0
445.578	1	-6
445.919	1	2
446.260	1	-5
446.601	1	8
446.942	1	-2
447.283	1	-5
447.624	1	0
447.965	1	1
448.306	1	-3
448.647	1	-11
448.988	1	-1
449.329	1	3
449.670	1	3
450.011	1	4
450.352	1	2
450.693	1	4
451.034	1	-6
451.375	1	-3
451.716	1	1
452.057	1	12
452.398	1	3
452.739	1	-1
453.080	1	3
453.421	1	6
453.762	1	0
454.103	1	-1
454.444	1	-7
454.785	1	-7
455.126	1	-8
455.467	1	0
455.808	1	5
456.149	1	4
456.490	1	2
456.831	1	4
457.172	1	-6
457.513	1	1
457.854	1	4
458.195	1	-2
458.536	1	-1
458.877	1	3
459.218	1	1
459.559	1	-3
459.899	1	3
460.240	1	3
460.581	1	16
460.922	1	7
461.263	1	-1
461.604	1	6
461.945	1	1
462.286	1	-7
462.627	1	13
462.968	1	2
463.309	1	-12
463.649	1	-2
463.990	1	-2
464.331	1	0
464.672	1	2
465.013	1	-4
465.354	1	-1
465.695	1	-12
466.036	1	-1
466.376	1	-8
466.717	1	10
467.058	1	-6
467.399	1	8
467.740	1	0
468.081	1	5
468.422	1	2
468.762	1	-5
469.103	1	-1
469.444	1	-9
469.785	1	-10
470.126	1	-3
470.467	1	-8
470.807	1	0
471.148	1	1
471.489	1	-5
471.830	1	3
472.171	1	-2
472.511	1	0
472.852	1	5
473.193	1	1
473.534	1	8
473.875	1	8
474.215	1	10
474.556	1	10
474.897	1	-2
475.238	1	-5
475.578	1	-9
475.919	1	-3
476.260	1	-9
476.601	1	0
476.942	1	4
477.282	1	0
477.623	1	-11
477.964	1	-3
478.305	1	-1
478.645	1	7
478.986	1	-4
479.327	1	-9
479.667	1	-1
480.008	1	-6
480.349	1	2
480.690	1	1
481.030	1	-10
481.371	1	0
481.712	1	2
482.053	1	9
482.393	1	-2
482.734	1	-5
483.075	1	-7
483.415	1	-8
483.756	1	6
484.097	1	-2
484.437	1	3
484.778	1	-3
485.119	1	8
485.459	1	10
485.800	1	2
486.141	1	-1
486.481	1	-4
486.822	1	4
487.163	1	-1
487.503	1	2
487.844	1	4
488.185	1	3
488.525	1	-6
488.866	1	5
489.207	1	-3
489.547	1	-5
489.888	1	-4
490.228	1	3
490.569	1	8
490.910	1	6
491.250	1	-7
491.591	1	-3
491.932	1	6
492.272	1	-3
492.613	1	-6
492.953	1	-3
493.294	1	1
493.635	1	0
493.975	1	7
494.316	1	-2
494.656	1	-4
494.997	1	3
495.337	1	7
495.678	1	0
496.019	1	2
496.359	1	3
496.700	1	2
497.040	1	-2
497.381	1	-2
497.721	1	-1
498.062	1	-6
498.403	1	3
498.743	1	1
499.084	1	-13
499.424	1	5
499.765	1	-2
500.105	1	3
500.446	1	-9
500.786	1	-2
501.127	1	8
501.467	1	2
501.808	1	-7
502.148	1	-4
502.489	1	1
502.829	1	-2
503.170	1	12
503.510	1	8
503.851	1	-5
504.191	1	6
504.532	1	9
504.872	1	8
505.213	1	11
505.553	1	0
505.894	1	-5
506.234	1	11
506.575	1	8
506.915	1	2
507.256	1	-1
507.596	1	3
507.936	1	3
508.277	1	2
508.617	1	-3
508.958	1	-3
509.298	1	4
509.639	1	-1
509.979	1	7
510.319	1	4
510.660	1	0
511.000	1	-7
511.341	1	-2
511.681	1	10
512.022	1	-6
512.362	1	-6
512.702	1	2
513.043	1	4
513.383	1	-6
513.724	1	-2
514.064	1	9
514.404	1	6
514.745	1	-1
515.085	1	-1
515.425	1	-6
515.766	1	-15
516.106	1	6
516.447	1	11
516.787	1	9
517.127	1	-4
517.468	1	2
517.808	1	-8
518.148	1	5
518.489	1	-1
518.829	1	13
519.169	1	-2
519.510	1	6
519.850	1	6
520.190	1	-1
520.531	1	-7
520.871	1	7
521.211	1	-9
521.552	1	8
521.892	1	6
522.232	1	9
522.573	1	8
522.913	1	5
523.253	1	7
523.593	1	1
523.934	1	-2
524.274	1	-1
524.614	1	-1
524.955	1	-3
525.295	1	3
525.635	1	0
525.975	1	3
526.316	1	13
526.656	1	-3
526.996	1	11
527.337	1	-5
527.677	1	4
528.017	1	-10
528.357	1	4
528.698	1	-6
529.038	1	-1
529.378	1	1
529.718	1	12
530.058	1	7
530.399	1	-1
530.739	1	-5
531.079	1	8
531.419	1	1
531.760	1	11
532.100	1	3
532.440	1	-3
532.780	1	-3
533.120	1	8
533.461	1	3
533.801	1	15
534.141	1	-8
534.481	1	-7
534.821	1	9
535.162	1	5
535.502	1	-12
535.842	1	5
536.182	1	0
536.522	1	-6
536.862	1	11
537.203	1	-4
537.543	1	4
537.883	1	2
538.223	1	1
538.563	1	-2
538.903	1	-5
539.243	1	0
539.584	1	6
539.924	1	10
540.264	1	-4
540.604	1	1
540.944	1	-7
541.284	1	1
541.624	1	-1
541.964	1	10
542.305	1	6
542.645	1	7
542.985	1	6
543.325	1	2
543.665	1	12
544.005	1	14
544.345	1	5
544.685	1	4
545.025	1	-5
545.365	1	0
545.705	1	5
546.045	1	6
546.386	1	14
546.726	1	-4
547.066	1	3
547.406	1	7
547.746	1	-9
548.086	1	12
548.426	1	-2
548.766	1	4
549.106	1	5
549.446	1	10
549.786	1	-1
550.126	1	9
550.466	1	-1
550.806	1	4
551.146	1	6
551.486	1	0
551.826	1	1
552.166	1	3
552.506	1	1
552.846	1	8
553.186	1	2
553.526	1	3
553.866	1	10
554.206	1	11
554.546	1	4
554.886	1	2
555.226	1	-8
555.566	1	15
555.906	1	7
556.246	1	1
556.586	1	-2
556.926	1	7
557.266	1	-4
557.606	1	11
557.946	1	10
558.286	1	2
558.626	1	10
558.966	1	5
559.306	1	-6
559.646	1	0
559.986	1	-3
560.325	1	2
560.665	1	1
561.005	1	-4
561.345	1	10
561.685	1	2
562.025	1	0
562.365	1	-1
562.705	1	4
563.045	1	-7
563.385	1	-2
563.725	1	-1
564.064	1	7
564.404	1	11
564.744	1	4
565.084	1	2
565.424	1	1
565.764	1	3
566.104	1	5
566.444	1	1
566.783	1	-9
567.123	1	-2
567.463	1	11
567.803	1	-3
568.143	1	3
568.483	1	5
568.823	1	0
569.162	1	11
569.502	1	2
569.842	1	3
570.182	1	7
570.522	1	-10
570.862	1	0
571.201	1	12
571.541	1	12
571.881	1	13
572.221	1	-2
572.561	1	5
572.900	1	-4
573.240	1	9
573.580	1	6
573.920	1	5
574.260	1	9
574.599	1	2
574.939	1	8
575.279	1	11
575.619	1	14
575.959	1	-5
576.298	1	19
576.638	1	1
576.978	1	9
577.318	1	7
577.657	1	-4
577.997	1	-7
578.337	1	15
578.677	1	12
579.016	1	3
579.356	1	-1
579.696	1	12
580.036	1	1
580.375	1	5
580.715	1	-1
581.055	1	1
581.394	1	6
581.734	1	0
582.074	1	-7
582.414	1	7
582.753	1	-5
583.093	1	0
583.433	1	7
583.772	1	7
584.112	1	-3
584.452	1	2
584.791	1	7
585.131	1	12
585.471	1	2
585.811	1	-1
586.150	1	0
586.490	1	5
586.830	1	-1
587.169	1	1
587.509	1	-3
587.849	1	0
588.188	1	5
588.528	1	8
588.867	1	9
589.207	1	14
589.547	1	1
589.886	1	0
590.226	1	8
590.566	1	3
590.905	1	2
591.245	1	-6
591.585	1	1
591.924	1	0
592.264	1	4
592.603	1	5
592.943	1	9
593.283	1	0
593.622	1	-4
593.962	1	7
594.301	1	8
594.641	1	3
594.981	1	-7
595.320	1	8
595.660	1	7
595.999	1	-7
596.339	1	6
596.678	1	-5
597.018	1	-3
597.358	1	-1
597.697	1	5
598.037	1	0
598.376	1	10
598.716	1	15
599.055	1	5
599.395	1	6
599.734	1	2
600.074	1	2
600.413	1	2
600.753	1	2
601.092	1	19
601.432	1	-5
601.771	1	-10
602.111	1	3
602.451	1	7
602.790	1	-2
603.130	1	4
603.469	1	-5
603.809	1	18
604.148	1	3
604.487	1	1
604.827	1	8
605.166	1	2
605.506	1	6
605.845	1	10
606.185	1	13
606.524	1	-3
606.864	1	-4
607.203	1	0
607.543	1	1
607.882	1	4
608.222	1	7
608.561	1	4
608.901	1	3
609.240	1	2
609.579	1	11
609.919	1	17
610.258	1	3
610.598	1	4
610.937	1	2
611.277	1	0
611.616	1	0
611.955	1	4
612.295	1	-3
612.634	1	0
612.974	1	-3
613.313	1	7
613.652	1	0
613.992	1	-10
614.331	1	1
614.671	1	6
615.010	1	-5
615.349	1	4
615.689	1	9
616.028	1	4
616.368	1	7
616.707	1	6
617.046	1	-5
617.386	1	5
617.725	1	4
618.064	1	-9
618.404	1	0
618.743	1	7
619.082	1	4
619.422	1	-6
619.761	1	8
620.100	1	4
620.440	1	1
620.779	1	-3
621.118	1	-7
621.458	1	6
621.797	1	-3
622.136	1	19
622.476	1	3
622.815	1	6
623.154	1	15
623.494	1	13
623.833	1	11
624.172	1	1
624.511	1	-7
624.851	1	-8
625.190	1	5
625.529	1	1
625.869	1	1
626.208	1	1
626.547	1	2
626.886	1	6
627.226	1	12
627.565	1	4
627.904	1	2
628.243	1	14
628.583	1	-3
628.922	1	6
629.261	1	-6
629.600	1	9
629.940	1	3
630.279	1	-1
630.618	1	-3
630.957	1	1
631.297	1	-3
631.636	1	-7
631.975	1	11
632.314	1	4
632.653	1	-3
632.993	1	-5
633.332	1	2
633.671	1	5
634.010	1	2
634.349	1	5
634.689	1	1
635.028	1	5
635.367	1	-1
635.706	1	3
636.045	1	23
636.384	1	-8
636.724	1	8
637.063	1	-4
637.402	1	2
637.741	1	2
638.080	1	3
638.419	1	-14
638.759	1	-2
639.098	1	16
639.437	1	-2
639.776	1	-3
640.115	1	1
640.454	1	-9
640.793	1	9
641.132	1	5
641.472	1	2
641.811	1	-7
642.150	1	-7
642.489	1	9
642.828	1	6
643.167	1	-2
643.506	1	-3
643.845	1	3
644.184	1	7
644.524	1	-4
644.863	1	-8
645.202	1	-5
645.541	1	1
645.880	1	0
646.219	1	1
646.558	1	0
646.897	1	-3
647.236	1	10
647.575	1	9
647.914	1	2
648.253	1	4
648.592	1	3
648.931	1	8
649.270	1	9
649.610	1	-4
649.949	1	2
650.288	1	9
650.627	1	-2
650.966	1	2
651.305	1	7
651.644	1	15
651.983	1	5
652.322	1	-2
652.661	1	-9
653.000	1	2
653.339	1	10
653.678	1	-3
654.017	1	-3
654.356	1	-4
654.695	1	4
655.034	1	5
655.373	1	8
655.712	1	4
656.051	1	-8
656.390	1	6
656.729	1	14
657.068	1	4
657.406	1	7
657.745	1	5
658.084	1	1
658.423	1	5
658.762	1	6
659.101	1	14
659.440	1	-1
659.779	1	-2
660.118	1	-2
660.457	1	5
660.796	1	-10
661.135	1	2
661.474	1	1
661.813	1	16
662.152	1	11
662.491	1	7
662.829	1	-4
663.168	1	0
663.507	1	4
663.846	1	4
664.185	1	8
664.524	1	1
664.863	1	-2
665.202	1	4
665.541	1	-1
665.879	1	-1
666.218	1	2
666.557	1	-3
666.896	1	-8
667.235	1	2
667.574	1	4
667.913	1	1
668.251	1	-5
668.590	1	-3
668.929	1	-9
669.268	1	2
669.607	1	-8
669.946	1	3
670.285	1	5
670.623	1	4
670.962	1	15
671.301	1	-2
671.640	1	1
671.979	1	2
672.317	1	9
672.656	1	-1
672.995	1	5
673.334	1	3
673.673	1	12
674.011	1	1
674.350	1	8
674.689	1	10
675.028	1	0
675.367	1	4
675.705	1	-10
676.044	1	5
676.383	1	8
676.722	1	-8
677.060	1	0
677.399	1	-4
677.738	1	2
678.077	1	5
678.416	1	4
678.754	1	-5
679.093	1	14
679.432	1	-3
679.771	1	-8
680.109	1	3
680.448	1	2
680.787	1	-5
681.125	1	0
681.464	1	-1
681.803	1	-1
682.142	1	4
682.480	1	7
682.819	1	4
683.158	1	2
683.496	1	-8
683.835	1	4
684.174	1	-6
684.512	1	6
684.851	1	3
685.190	1	-2
685.529	1	-1
685.867	1	-3
686.206	1	-9
686.545	1	-3
686.883	1	-1
687.222	1	6
687.561	1	4
687.899	1	10
688.238	1	5
688.577	1	1
688.746	1	5