File: Data/GaN_200K_800ms/GaN_sample F_spot 12_UVVIS_200 K_200um_800 ms 2x2mm1_479.txt
340.368	1	2
340.710	1	-4
341.052	1	2
341.394	1	-3
341.737	1	7
342.079	1	-11
342.421	1	1
342.763	1	6
343.105	1	-2
343.447	1	-5
343.789	1	-3
344.131	1	1
344.473	1	2
344.815	1	-2
345.157	1	-3
345.499	1	3
345.841	1	1
346.183	1	1
346.526	1	-6
346.868	1	3
347.210	1	-16
347.552	1	-11
347.894	1	5
348.236	1	0
348.578	1	-2
348.920	1	-6
349.262	1	-5
349.604	1	-4
349.946	1	-7
350.288	1	6
350.630	1	-1
350.972	1	-5
351.314	1	11
351.656	1	3
351.998	1	2
352.340	1	2
352.682	1	5
353.024	1	-2
353.366	1	11
353.708	1	-1
354.050	1	-8
354.392	1	-11
354.734	1	-1
355.076	1	4
355.418	1	-21
355.760	1	-6
356.102	1	3
356.444	1	4
356.785	1	5
357.127	1	-6
357.469	1	-5
357.811	1	-2
358.153	1	6
358.495	1	-3
358.837	1	-9
359.179	1	-1
359.521	1	3
359.863	1	3
360.205	1	0
360.547	1	12
360.889	1	-6
361.231	1	-4
361.572	1	5
361.914	1	10
362.256	1	7
362.598	1	-2
362.940	1	-1
363.282	1	14
363.624	1	12
363.966	1	0
364.308	1	3
364.649	1	11
364.991	1	11
365.333	1	5
365.675	1	-6
366.017	1	7
366.359	1	10
366.701	1	17
367.042	1	11
367.384	1	16
367.726	1	7
368.068	1	14
368.410	1	25
368.752	1	7
369.093	1	4
369.435	1	11
369.777	1	8
370.119	1	-1
370.461	1	19
370.803	1	10
371.144	1	5
371.486	1	14
371.828	1	13
372.170	1	17
372.512	1	-4
372.853	1	1
373.195	1	-4
373.537	1	0
373.879	1	9
374.220	1	18
374.562	1	13
374.904	1	5
375.246	1	17
375.588	1	1
375.929	1	9
376.271	1	1
376.613	1	-11
376.955	1	-5
377.296	1	-1
377.638	1	1
377.980	1	10
378.321	1	-8
378.663	1	-2
379.005	1	5
379.347	1	-3
379.688	1	0
380.030	1	2
380.372	1	0
380.714	1	2
381.055	1	10
381.397	1	2
381.739	1	-1
382.080	1	6
382.422	1	5
382.764	1	4
383.105	1	5
383.447	1	-5
383.789	1	-5
384.130	1	-3
384.472	1	2
384.814	1	-5
385.156	1	-2
385.497	1	4
385.839	1	-4
386.180	1	2
386.522	1	2
386.864	1	14
387.205	1	-11
387.547	1	-6
387.889	1	-8
388.230	1	2
388.572	1	-2
388.914	1	-4
389.255	1	-3
389.597	1	0
389.939	1	-2
390.280	1	4
390.622	1	-4
390.963	1	3
391.305	1	4
391.647	1	3
391.988	1	13
392.330	1	7
392.671	1	-2
393.013	1	-5
393.355	1	7
393.696	1	1
394.038	1	5
394.379	1	8
394.721	1	-10
395.062	1	0
395.404	1	-7
395.746	1	6
396.087	1	-6
396.429	1	4
396.770	1	-7
397.112	1	5
397.453	1	15
397.795	1	1
398.136	1	-19
398.478	1	1
398.819	1	0
399.161	1	6
399.503	1	-4
399.844	1	-2
400.186	1	6
400.527	1	-7
400.869	1	-1
401.210	1	1
401.552	1	-5
401.893	1	-1
402.235	1	-2
402.576	1	-4
402.918	1	2
403.259	1	5
403.601	1	2
403.942	1	11
404.284	1	4
404.625	1	-6
404.967	1	3
405.308	1	12
405.649	1	0
405.991	1	0
406.332	1	6
406.674	1	-6
407.015	1	4
407.357	1	-12
407.698	1	8
408.040	1	-7
408.381	1	4
408.722	1	-21
409.064	1	4
409.405	1	-1
409.747	1	-2
410.088	1	-6
410.430	1	12
410.771	1	2
411.112	1	-6
411.454	1	5
411.795	1	-2
412.137	1	4
412.478	1	11
412.819	1	-12
413.161	1	0
413.502	1	-6
413.844	1	15
414.185	1	0
414.526	1	-9
414.868	1	2
415.209	1	-6
415.550	1	-11
415.892	1	-9
416.233	1	-6
416.575	1	11
416.916	1	-5
417.257	1	-9
417.599	1	0
417.940	1	6
418.281	1	7
418.623	1	-9
418.964	1	-5
419.305	1	0
419.647	1	0
419.988	1	5
420.329	1	-13
420.671	1	0
421.012	1	0
421.353	1	-9
421.695	1	-8
422.036	1	0
422.377	1	1
422.718	1	3
423.060	1	-3
423.401	1	3
423.742	1	-5
424.084	1	-3
424.425	1	6
424.766	1	3
425.107	1	0
425.449	1	2
425.790	1	-14
426.131	1	1
426.472	1	-7
426.814	1	4
427.155	1	-12
427.496	1	-6
427.837	1	-11
428.179	1	-13
428.520	1	-3
428.861	1	12
429.202	1	0
429.544	1	-5
429.885	1	0
430.226	1	-12
430.567	1	4
430.909	1	-9
431.250	1	1
431.591	1	1
431.932	1	-9
432.273	1	-7
432.615	1	-9
432.956	1	-9
433.297	1	-1
433.638	1	2
433.979	1	2
434.320	1	1
434.662	1	-6
435.003	1	1
435.344	1	-8
435.685	1	-12
436.026	1	4
436.368	1	-3
436.709	1	1
437.050	1	-4
437.391	1	3
437.732	1	-6
438.073	1	2
438.414	1	-8
438.756	1	-4
439.097	1	-6
439.438	1	-4
439.779	1	-5
440.120	1	-1
440.461	1	-2
440.802	1	-5
441.143	1	2
441.485	1	3
441.826	1	3
442.167	1	5
442.508	1	-11
442.849	1	7
443.190	1	5
443.531	1	6
443.872	1	9
444.213	1	-8
444.554	1	-3
444.895	1	-1
445.237	1	-5
445.578	1	-12
445.919	1	-13
446.260	1	-8
446.601	1	-6
446.942	1	3
447.283	1	-11
447.624	1	0
447.965	1	-5
448.306	1	7
448.647	1	-9
448.988	1	-6
449.329	1	0
449.670	1	0
450.011	1	7
450.352	1	-2
450.693	1	-19
451.034	1	-8
451.375	1	-6
451.716	1	-2
452.057	1	3
452.398	1	-11
452.739	1	5
453.080	1	-1
453.421	1	-3
453.762	1	-4
454.103	1	-9
454.444	1	-6
454.785	1	-7
455.126	1	-1
455.467	1	3
455.808	1	-1
456.149	1	5
456.490	1	15
456.831	1	1
457.172	1	-11
457.513	1	0
457.854	1	1
458.195	1	2
458.536	1	-8
458.877	1	-5
459.218	1	3
459.559	1	-8
459.899	1	-1
460.240	1	-4
460.581	1	4
460.922	1	-2
461.263	1	-4
461.604	1	-3
461.945	1	-5
462.286	1	4
462.627	1	5
462.968	1	-2
463.309	1	-3
463.649	1	-2
463.990	1	4
464.331	1	-2
464.672	1	-2
465.013	1	2
465.354	1	-1
465.695	1	-8
466.036	1	-6
466.376	1	-7
466.717	1	7
467.058	1	1
467.399	1	8
467.740	1	-8
468.081	1	4
468.422	1	-2
468.762	1	-10
469.103	1	-9
469.444	1	-9
469.785	1	-18
470.126	1	-8
470.467	1	4
470.807	1	0
471.148	1	-6
471.489	1	-2
471.830	1	-5
472.171	1	0
472.511	1	-5
472.852	1	-7
473.193	1	6
473.534	1	2
473.875	1	12
474.215	1	12
474.556	1	0
474.897	1	2
475.238	1	0
475.578	1	-7
475.919	1	-2
476.260	1	0
476.601	1	-2
476.942	1	10
477.282	1	-4
477.623	1	-10
477.964	1	1
478.305	1	-5
478.645	1	9
478.986	1	-7
479.327	1	-10
479.667	1	-1
480.008	1	-4
480.349	1	2
480.690	1	-3
481.030	1	-11
481.371	1	-3
481.712	1	-4
482.053	1	3
482.393	1	-3
482.734	1	-4
483.075	1	-7
483.415	1	-4
483.756	1	2
484.097	1	0
484.437	1	-14
484.778	1	-1
485.119	1	-5
485.459	1	11
485.800	1	-3
486.141	1	-5
486.481	1	1
486.822	1	5
487.163	1	2
487.503	1	-3
487.844	1	-1
488.185	1	-6
488.525	1	-5
488.866	1	-5
489.207	1	-6
489.547	1	0
489.888	1	-10
490.228	1	-5
490.569	1	8
490.910	1	0
491.250	1	-2
491.591	1	-2
491.932	1	-3
492.272	1	3
492.613	1	-4
492.953	1	-3
493.294	1	2
493.635	1	-9
493.975	1	0
494.316	1	-2
494.656	1	-8
494.997	1	-7
495.337	1	2
495.678	1	-1
496.019	1	-6
496.359	1	-12
496.700	1	0
497.040	1	4
497.381	1	-2
497.721	1	0
498.062	1	-2
498.403	1	-1
498.743	1	-4
499.084	1	-7
499.424	1	-4
499.765	1	-3
500.105	1	-6
500.446	1	-14
500.786	1	-13
501.127	1	3
501.467	1	-6
501.808	1	4
502.148	1	1
502.489	1	-7
502.829	1	-2
503.170	1	7
503.510	1	6
503.851	1	-12
504.191	1	10
504.532	1	4
504.872	1	2
505.213	1	15
505.553	1	-4
505.894	1	1
506.234	1	3
506.575	1	-4
506.915	1	4
507.256	1	3
507.596	1	0
507.936	1	-4
508.277	1	3
508.617	1	2
508.958	1	-12
509.298	1	5
509.639	1	0
509.979	1	-3
510.319	1	8
510.660	1	-7
511.000	1	-2
511.341	1	0
511.681	1	2
512.022	1	-10
512.362	1	-9
512.702	1	-6
513.043	1	8
513.383	1	-3
513.724	1	-2
514.064	1	12
514.404	1	4
514.745	1	-12
515.085	1	2
515.425	1	-12
515.766	1	-6
516.106	1	5
516.447	1	12
516.787	1	10
517.127	1	-6
517.468	1	-2
517.808	1	-4
518.148	1	4
518.489	1	-6
518.829	1	1
519.169	1	-7
519.510	1	-3
519.850	1	2
520.190	1	-1
520.531	1	1
520.871	1	13
521.211	1	-10
521.552	1	5
521.892	1	-2
522.232	1	4
522.573	1	-6
522.913	1	-3
523.253	1	-3
523.593	1	-12
523.934	1	-9
524.274	1	-2
524.614	1	-6
524.955	1	-5
525.295	1	-7
525.635	1	-6
525.975	1	3
526.316	1	17
526.656	1	-2
526.996	1	-4
527.337	1	-4
527.677	1	-3
528.017	1	1
528.357	1	0
528.698	1	-2
529.038	1	-2
529.378	1	2
529.718	1	7
530.058	1	2
530.399	1	3
530.739	1	-2
531.079	1	0
531.419	1	2
531.760	1	-3
532.100	1	-5
532.440	1	-9
532.780	1	-4
533.120	1	6
533.461	1	2
533.801	1	9
534.141	1	-7
534.481	1	-3
534.821	1	6
535.162	1	0
535.502	1	-5
535.842	1	4
536.182	1	-3
536.522	1	-6
536.862	1	3
537.203	1	-7
537.543	1	-10
537.883	1	-1
538.223	1	1
538.563	1	7
538.903	1	-11
539.243	1	-12
539.584	1	-4
539.924	1	6
540.264	1	0
540.604	1	4
540.944	1	1
541.284	1	7
541.624	1	1
541.964	1	5
542.305	1	7
542.645	1	-1
542.985	1	4
543.325	1	-9
543.665	1	11
544.005	1	4
544.345	1	3
544.685	1	4
545.025	1	-4
545.365	1	-7
545.705	1	-2
546.045	1	-6
546.386	1	0
546.726	1	-4
547.066	1	5
547.406	1	0
547.746	1	-10
548.086	1	-2
548.426	1	-8
548.766	1	-11
549.106	1	-1
549.446	1	-2
549.786	1	-5
550.126	1	5
550.466	1	2
550.806	1	1
551.146	1	-1
551.486	1	2
551.826	1	5
552.166	1	2
552.506	1	5
552.846	1	2
553.186	1	-3
553.526	1	-5
553.866	1	11
554.206	1	4
554.546	1	-7
554.886	1	9
555.226	1	-6
555.566	1	-3
555.906	1	0
556.246	1	-5
556.586	1	1
556.926	1	2
557.266	1	-5
557.606	1	2
557.946	1	7
558.286	1	4
558.626	1	-3
558.966	1	4
559.306	1	0
559.646	1	-7
559.986	1	-4
560.325	1	-16
560.665	1	1
561.005	1	-8
561.345	1	1
561.685	1	-1
562.025	1	-4
562.365	1	0
562.705	1	-6
563.045	1	-10
563.385	1	-15
563.725	1	2
564.064	1	-6
564.404	1	2
564.744	1	1
565.084	1	-4
565.424	1	-5
565.764	1	6
566.104	1	0
566.444	1	-10
566.783	1	-5
567.123	1	1
567.463	1	0
567.803	1	-10
568.143	1	1
568.483	1	-8
568.823	1	1
569.162	1	-8
569.502	1	-1
569.842	1	5
570.182	1	1
570.522	1	-6
570.862	1	-6
571.201	1	12
571.541	1	1
571.881	1	9
572.221	1	3
572.561	1	-3
572.900	1	-7
573.240	1	-3
573.580	1	-3
573.920	1	5
574.260	1	19
574.599	1	-1
574.939	1	3
575.279	1	5
575.619	1	3
575.959	1	-2
576.298	1	8
576.638	1	-3
576.978	1	11
577.318	1	-2
577.657	1	-1
577.997	1	-3
578.337	1	9
578.677	1	4
579.016	1	0
579.356	1	-11
579.696	1	9
580.036	1	3
580.375	1	-2
580.715	1	-5
581.055	1	-5
581.394	1	-13
581.734	1	-14
582.074	1	-13
582.414	1	5
582.753	1	-2
583.093	1	-9
583.433	1	0
583.772	1	7
584.112	1	-1
584.452	1	5
584.791	1	-5
585.131	1	-4
585.471	1	2
585.811	1	8
586.150	1	-7
586.490	1	1
586.830	1	-7
587.169	1	-4
587.509	1	2
587.849	1	10
588.188	1	7
588.528	1	-1
588.867	1	-6
589.207	1	-2
589.547	1	-1
589.886	1	-10
590.226	1	4
590.566	1	-4
590.905	1	-1
591.245	1	-4
591.585	1	-2
591.924	1	-3
592.264	1	3
592.603	1	1
592.943	1	3
593.283	1	-4
593.622	1	-2
593.962	1	1
594.301	1	2
594.641	1	-4
594.981	1	-7
595.320	1	-2
595.660	1	2
595.999	1	7
596.339	1	7
596.678	1	-4
597.018	1	-2
597.358	1	0
597.697	1	-6
598.037	1	0
598.376	1	-2
598.716	1	-3
599.055	1	1
599.395	1	-5
599.734	1	-5
600.074	1	-1
600.413	1	7
600.753	1	8
601.092	1	8
601.432	1	-12
601.771	1	5
602.111	1	0
602.451	1	6
602.790	1	1
603.130	1	2
603.469	1	-3
603.809	1	0
604.148	1	-1
604.487	1	0
604.827	1	5
605.166	1	7
605.506	1	9
605.845	1	4
606.185	1	0
606.524	1	-2
606.864	1	6
607.203	1	-3
607.543	1	-5
607.882	1	0
608.222	1	2
608.561	1	3
608.901	1	-6
609.240	1	-9
609.579	1	13
609.919	1	13
610.258	1	2
610.598	1	2
610.937	1	-1
611.277	1	4
611.616	1	-11
611.955	1	2
612.295	1	-2
612.634	1	-2
612.974	1	-10
613.313	1	2
613.652	1	-1
613.992	1	-5
614.331	1	3
614.671	1	-4
615.010	1	-10
615.349	1	4
615.689	1	8
616.028	1	2
616.368	1	1
616.707	1	-2
617.046	1	0
617.386	1	6
617.725	1	1
618.064	1	-8
618.404	1	4
618.743	1	5
619.082	1	-1
619.422	1	-17
619.761	1	7
620.100	1	13
620.440	1	0
620.779	1	-16
621.118	1	2
621.458	1	5
621.797	1	-4
622.136	1	11
622.476	1	8
622.815	1	10
623.154	1	6
623.494	1	8
623.833	1	-5
624.172	1	-9
624.511	1	-4
624.851	1	-5
625.190	1	-1
625.529	1	2
625.869	1	11
626.208	1	4
626.547	1	5
626.886	1	0
627.226	1	7
627.565	1	1
627.904	1	4
628.243	1	6
628.583	1	2
628.922	1	10
629.261	1	3
629.600	1	12
629.940	1	2
630.279	1	-8
630.618	1	-1
630.957	1	-2
631.297	1	-7
631.636	1	-5
631.975	1	6
632.314	1	6
632.653	1	-8
632.993	1	0
633.332	1	3
633.671	1	-12
634.010	1	-6
634.349	1	4
634.689	1	0
635.028	1	2
635.367	1	1
635.706	1	0
636.045	1	3
636.384	1	-12
636.724	1	-3
637.063	1	-2
637.402	1	-5
637.741	1	0
638.080	1	-2
638.419	1	-2
638.759	1	-6
639.098	1	7
639.437	1	8
639.776	1	2
640.115	1	3
640.454	1	2
640.793	1	3
641.132	1	3
641.472	1	4
641.811	1	-3
642.150	1	-7
642.489	1	5
642.828	1	-12
643.167	1	-4
643.506	1	-8
643.845	1	1
644.184	1	7
644.524	1	-5
644.863	1	-4
645.202	1	3
645.541	1	-3
645.880	1	4
646.219	1	4
646.558	1	-7
646.897	1	6
647.236	1	-7
647.575	1	11
647.914	1	-3
648.253	1	2
648.592	1	-6
648.931	1	9
649.270	1	0
649.610	1	2
649.949	1	-7
650.288	1	5
650.627	1	4
650.966	1	7
651.305	1	-4
651.644	1	8
651.983	1	1
652.322	1	-11
652.661	1	-4
653.000	1	-2
653.339	1	4
653.678	1	-1
654.017	1	-3
654.356	1	-5
654.695	1	1
655.034	1	3
655.373	1	12
655.712	1	3
656.051	1	-8
656.390	1	0
656.729	1	4
657.068	1	-1
657.406	1	1
657.745	1	-3
658.084	1	7
658.423	1	8
658.762	1	-7
659.101	1	4
659.440	1	6
659.779	1	-2
660.118	1	5
660.457	1	3
660.796	1	-8
661.135	1	-5
661.474	1	-11
661.813	1	14
662.152	1	5
662.491	1	0
662.829	1	-8
663.168	1	-1
663.507	1	9
663.846	1	-2
664.185	1	2
664.524	1	-7
664.863	1	-4
665.202	1	12
665.541	1	-12
665.879	1	-6
666.218	1	-14
666.557	1	-6
666.896	1	-6
667.235	1	1
667.574	1	-3
667.913	1	1
668.251	1	-1
668.590	1	3
668.929	1	-12
669.268	1	-5
669.607	1	-10
669.946	1	2
670.285	1	4
670.623	1	-8
670.962	1	0
671.301	1	-1
671.640	1	5
671.979	1	-5
672.317	1	7
672.656	1	4
672.995	1	7
673.334	1	-10
673.673	1	-2
674.011	1	-6
674.350	1	-4
674.689	1	2
675.028	1	-13
675.367	1	1
675.705	1	-4
676.044	1	-2
676.383	1	-3
676.722	1	1
677.060	1	-16
677.399	1	1
677.738	1	-8
678.077	1	-1
678.416	1	4
678.754	1	-4
679.093	1	7
679.432	1	-1
679.771	1	-1
680.109	1	8
680.448	1	-1
680.787	1	-9
681.125	1	2
681.464	1	2
681.803	1	-9
682.142	1	4
682.480	1	7
682.819	1	8
683.158	1	-2
683.496	1	1
683.835	1	-5
684.174	1	2
684.512	1	6
684.851	1	3
685.190	1	-1
685.529	1	-3
685.867	1	-11
686.206	1	-4
686.545	1	-7
686.883	1	4
687.222	1	4
687.561	1	2
687.899	1	-6
688.238	1	4
688.577	1	-8
688.746	1	-2