File: Data/GaN_200K_800ms/GaN_sample F_spot 12_UVVIS_200 K_200um_800 ms 2x2mm1_174.txt
340.368	1	5
340.710	1	-11
341.052	1	0
341.394	1	0
341.737	1	8
342.079	1	-3
342.421	1	1
342.763	1	4
343.105	1	1
343.447	1	8
343.789	1	-8
344.131	1	-4
344.473	1	4
344.815	1	-10
345.157	1	0
345.499	1	0
345.841	1	5
346.183	1	-4
346.526	1	-7
346.868	1	12
347.210	1	-13
347.552	1	-9
347.894	1	-5
348.236	1	6
348.578	1	2
348.920	1	-4
349.262	1	1
349.604	1	-4
349.946	1	-2
350.288	1	12
350.630	1	8
350.972	1	3
351.314	1	6
351.656	1	7
351.998	1	9
352.340	1	2
352.682	1	4
353.024	1	4
353.366	1	15
353.708	1	-1
354.050	1	2
354.392	1	1
354.734	1	6
355.076	1	6
355.418	1	-8
355.760	1	-8
356.102	1	11
356.444	1	9
356.785	1	5
357.127	1	-2
357.469	1	8
357.811	1	4
358.153	1	10
358.495	1	2
358.837	1	3
359.179	1	8
359.521	1	18
359.863	1	12
360.205	1	3
360.547	1	17
360.889	1	2
361.231	1	6
361.572	1	15
361.914	1	18
362.256	1	19
362.598	1	9
362.940	1	22
363.282	1	22
363.624	1	22
363.966	1	11
364.308	1	13
364.649	1	29
364.991	1	23
365.333	1	20
365.675	1	18
366.017	1	29
366.359	1	25
366.701	1	31
367.042	1	34
367.384	1	32
367.726	1	41
368.068	1	26
368.410	1	48
368.752	1	32
369.093	1	35
369.435	1	38
369.777	1	44
370.119	1	36
370.461	1	47
370.803	1	40
371.144	1	38
371.486	1	45
371.828	1	43
372.170	1	37
372.512	1	26
372.853	1	26
373.195	1	24
373.537	1	26
373.879	1	26
374.220	1	48
374.562	1	29
374.904	1	26
375.246	1	9
375.588	1	27
375.929	1	32
376.271	1	25
376.613	1	17
376.955	1	28
377.296	1	13
377.638	1	22
377.980	1	14
378.321	1	5
378.663	1	9
379.005	1	19
379.347	1	13
379.688	1	18
380.030	1	12
380.372	1	13
380.714	1	10
381.055	1	20
381.397	1	12
381.739	1	10
382.080	1	16
382.422	1	5
382.764	1	8
383.105	1	2
383.447	1	5
383.789	1	4
384.130	1	6
384.472	1	3
384.814	1	13
385.156	1	-1
385.497	1	10
385.839	1	8
386.180	1	15
386.522	1	10
386.864	1	8
387.205	1	2
387.547	1	6
387.889	1	-7
388.230	1	11
388.572	1	-1
388.914	1	7
389.255	1	-3
389.597	1	15
389.939	1	2
390.280	1	3
390.622	1	1
390.963	1	8
391.305	1	5
391.647	1	5
391.988	1	11
392.330	1	9
392.671	1	1
393.013	1	0
393.355	1	14
393.696	1	5
394.038	1	8
394.379	1	3
394.721	1	2
395.062	1	4
395.404	1	-2
395.746	1	14
396.087	1	-8
396.429	1	1
396.770	1	-1
397.112	1	1
397.453	1	13
397.795	1	4
398.136	1	-4
398.478	1	0
398.819	1	1
399.161	1	16
399.503	1	1
399.844	1	1
400.186	1	1
400.527	1	4
400.869	1	0
401.210	1	-4
401.552	1	2
401.893	1	5
402.235	1	4
402.576	1	-3
402.918	1	2
403.259	1	3
403.601	1	-1
403.942	1	12
404.284	1	9
404.625	1	10
404.967	1	-2
405.308	1	3
405.649	1	6
405.991	1	1
406.332	1	4
406.674	1	-1
407.015	1	10
407.357	1	3
407.698	1	18
408.040	1	-1
408.381	1	5
408.722	1	-12
409.064	1	3
409.405	1	15
409.747	1	-3
410.088	1	2
410.430	1	7
410.771	1	1
411.112	1	3
411.454	1	0
411.795	1	-5
412.137	1	3
412.478	1	20
412.819	1	9
413.161	1	-6
413.502	1	4
413.844	1	-1
414.185	1	0
414.526	1	2
414.868	1	5
415.209	1	-2
415.550	1	-7
415.892	1	6
416.233	1	15
416.575	1	10
416.916	1	0
417.257	1	6
417.599	1	6
417.940	1	7
418.281	1	8
418.623	1	0
418.964	1	-6
419.305	1	2
419.647	1	-3
419.988	1	-8
420.329	1	-5
420.671	1	14
421.012	1	0
421.353	1	-8
421.695	1	-8
422.036	1	0
422.377	1	4
422.718	1	3
423.060	1	-8
423.401	1	1
423.742	1	-4
424.084	1	2
424.425	1	0
424.766	1	0
425.107	1	-2
425.449	1	4
425.790	1	-9
426.131	1	1
426.472	1	-1
426.814	1	0
427.155	1	0
427.496	1	1
427.837	1	-6
428.179	1	1
428.520	1	7
428.861	1	3
429.202	1	7
429.544	1	4
429.885	1	4
430.226	1	-1
430.567	1	6
430.909	1	1
431.250	1	-6
431.591	1	9
431.932	1	-7
432.273	1	-11
432.615	1	-2
432.956	1	-18
433.297	1	1
433.638	1	-7
433.979	1	4
434.320	1	15
434.662	1	-1
435.003	1	8
435.344	1	4
435.685	1	4
436.026	1	3
436.368	1	0
436.709	1	-4
437.050	1	-7
437.391	1	7
437.732	1	-6
438.073	1	3
438.414	1	-1
438.756	1	-11
439.097	1	-5
439.438	1	-5
439.779	1	3
440.120	1	-2
440.461	1	-1
440.802	1	-12
441.143	1	7
441.485	1	-1
441.826	1	7
442.167	1	4
442.508	1	0
442.849	1	7
443.190	1	-1
443.531	1	4
443.872	1	10
444.213	1	7
444.554	1	9
444.895	1	-12
445.237	1	-3
445.578	1	-8
445.919	1	-11
446.260	1	-7
446.601	1	1
446.942	1	-1
447.283	1	-4
447.624	1	-6
447.965	1	6
448.306	1	6
448.647	1	-5
448.988	1	4
449.329	1	-1
449.670	1	0
450.011	1	4
450.352	1	2
450.693	1	-4
451.034	1	-13
451.375	1	1
451.716	1	1
452.057	1	10
452.398	1	2
452.739	1	10
453.080	1	3
453.421	1	2
453.762	1	3
454.103	1	-3
454.444	1	-3
454.785	1	-2
455.126	1	-7
455.467	1	10
455.808	1	5
456.149	1	-5
456.490	1	-1
456.831	1	10
457.172	1	-4
457.513	1	2
457.854	1	0
458.195	1	1
458.536	1	5
458.877	1	0
459.218	1	-8
459.559	1	7
459.899	1	-2
460.240	1	1
460.581	1	15
460.922	1	2
461.263	1	4
461.604	1	-8
461.945	1	6
462.286	1	4
462.627	1	2
462.968	1	2
463.309	1	-4
463.649	1	2
463.990	1	-6
464.331	1	0
464.672	1	8
465.013	1	-4
465.354	1	-1
465.695	1	-1
466.036	1	-1
466.376	1	0
466.717	1	0
467.058	1	7
467.399	1	8
467.740	1	2
468.081	1	7
468.422	1	-3
468.762	1	-9
469.103	1	-3
469.444	1	-6
469.785	1	-20
470.126	1	-6
470.467	1	-2
470.807	1	-2
471.148	1	10
471.489	1	-2
471.830	1	6
472.171	1	6
472.511	1	-9
472.852	1	-6
473.193	1	8
473.534	1	7
473.875	1	15
474.215	1	3
474.556	1	2
474.897	1	-2
475.238	1	-6
475.578	1	-7
475.919	1	-1
476.260	1	-1
476.601	1	-1
476.942	1	13
477.282	1	-1
477.623	1	-6
477.964	1	4
478.305	1	6
478.645	1	18
478.986	1	-5
479.327	1	-13
479.667	1	-2
480.008	1	-5
480.349	1	-2
480.690	1	5
481.030	1	0
481.371	1	8
481.712	1	2
482.053	1	6
482.393	1	6
482.734	1	0
483.075	1	5
483.415	1	2
483.756	1	4
484.097	1	0
484.437	1	-1
484.778	1	4
485.119	1	-5
485.459	1	18
485.800	1	-1
486.141	1	-1
486.481	1	-2
486.822	1	11
487.163	1	-2
487.503	1	1
487.844	1	4
488.185	1	8
488.525	1	2
488.866	1	5
489.207	1	-6
489.547	1	-5
489.888	1	5
490.228	1	8
490.569	1	7
490.910	1	6
491.250	1	-5
491.591	1	-8
491.932	1	5
492.272	1	6
492.613	1	-14
492.953	1	-5
493.294	1	0
493.635	1	-8
493.975	1	-5
494.316	1	-2
494.656	1	0
494.997	1	0
495.337	1	14
495.678	1	-5
496.019	1	3
496.359	1	0
496.700	1	6
497.040	1	0
497.381	1	5
497.721	1	-2
498.062	1	1
498.403	1	3
498.743	1	5
499.084	1	4
499.424	1	-13
499.765	1	-3
500.105	1	-4
500.446	1	0
500.786	1	-5
501.127	1	7
501.467	1	-3
501.808	1	7
502.148	1	-4
502.489	1	4
502.829	1	5
503.170	1	4
503.510	1	9
503.851	1	3
504.191	1	2
504.532	1	3
504.872	1	-4
505.213	1	7
505.553	1	-12
505.894	1	-7
506.234	1	8
506.575	1	1
506.915	1	-5
507.256	1	9
507.596	1	6
507.936	1	7
508.277	1	-1
508.617	1	3
508.958	1	-8
509.298	1	7
509.639	1	-6
509.979	1	-2
510.319	1	-3
510.660	1	0
511.000	1	8
511.341	1	1
511.681	1	5
512.022	1	0
512.362	1	9
512.702	1	0
513.043	1	3
513.383	1	0
513.724	1	7
514.064	1	13
514.404	1	-2
514.745	1	-1
515.085	1	4
515.425	1	-2
515.766	1	-2
516.106	1	9
516.447	1	12
516.787	1	13
517.127	1	2
517.468	1	9
517.808	1	-3
518.148	1	8
518.489	1	0
518.829	1	6
519.169	1	0
519.510	1	3
519.850	1	2
520.190	1	-6
520.531	1	10
520.871	1	4
521.211	1	-13
521.552	1	12
521.892	1	3
522.232	1	11
522.573	1	5
522.913	1	1
523.253	1	6
523.593	1	6
523.934	1	-1
524.274	1	5
524.614	1	3
524.955	1	-2
525.295	1	6
525.635	1	6
525.975	1	6
526.316	1	22
526.656	1	3
526.996	1	9
527.337	1	4
527.677	1	3
528.017	1	0
528.357	1	2
528.698	1	8
529.038	1	4
529.378	1	6
529.718	1	12
530.058	1	-2
530.399	1	12
530.739	1	9
531.079	1	10
531.419	1	5
531.760	1	11
532.100	1	6
532.440	1	1
532.780	1	7
533.120	1	7
533.461	1	-3
533.801	1	21
534.141	1	-7
534.481	1	-1
534.821	1	4
535.162	1	3
535.502	1	-2
535.842	1	13
536.182	1	9
536.522	1	-5
536.862	1	5
537.203	1	-1
537.543	1	9
537.883	1	12
538.223	1	7
538.563	1	8
538.903	1	-10
539.243	1	6
539.584	1	-1
539.924	1	9
540.264	1	-5
540.604	1	-1
540.944	1	-2
541.284	1	6
541.624	1	10
541.964	1	7
542.305	1	12
542.645	1	15
542.985	1	4
543.325	1	6
543.665	1	18
544.005	1	13
544.345	1	9
544.685	1	4
545.025	1	-1
545.365	1	6
545.705	1	7
546.045	1	2
546.386	1	9
546.726	1	-9
547.066	1	7
547.406	1	5
547.746	1	-2
548.086	1	1
548.426	1	-3
548.766	1	7
549.106	1	5
549.446	1	2
549.786	1	11
550.126	1	15
550.466	1	10
550.806	1	4
551.146	1	7
551.486	1	-5
551.826	1	4
552.166	1	1
552.506	1	10
552.846	1	4
553.186	1	10
553.526	1	2
553.866	1	-2
554.206	1	10
554.546	1	15
554.886	1	13
555.226	1	-1
555.566	1	5
555.906	1	8
556.246	1	7
556.586	1	11
556.926	1	0
557.266	1	-1
557.606	1	16
557.946	1	15
558.286	1	12
558.626	1	5
558.966	1	-3
559.306	1	3
559.646	1	1
559.986	1	-4
560.325	1	4
560.665	1	3
561.005	1	1
561.345	1	8
561.685	1	-1
562.025	1	10
562.365	1	6
562.705	1	-3
563.045	1	-3
563.385	1	-5
563.725	1	3
564.064	1	9
564.404	1	9
564.744	1	9
565.084	1	7
565.424	1	2
565.764	1	1
566.104	1	-1
566.444	1	0
566.783	1	4
567.123	1	7
567.463	1	16
567.803	1	14
568.143	1	9
568.483	1	6
568.823	1	-4
569.162	1	9
569.502	1	4
569.842	1	13
570.182	1	2
570.522	1	0
570.862	1	3
571.201	1	6
571.541	1	17
571.881	1	18
572.221	1	-5
572.561	1	1
572.900	1	-10
573.240	1	8
573.580	1	0
573.920	1	13
574.260	1	10
574.599	1	3
574.939	1	8
575.279	1	27
575.619	1	11
575.959	1	4
576.298	1	15
576.638	1	-6
576.978	1	8
577.318	1	13
577.657	1	0
577.997	1	-1
578.337	1	21
578.677	1	26
579.016	1	13
579.356	1	0
579.696	1	2
580.036	1	6
580.375	1	10
580.715	1	10
581.055	1	-5
581.394	1	9
581.734	1	-1
582.074	1	1
582.414	1	13
582.753	1	4
583.093	1	2
583.433	1	2
583.772	1	6
584.112	1	10
584.452	1	5
584.791	1	3
585.131	1	8
585.471	1	21
585.811	1	16
586.150	1	2
586.490	1	12
586.830	1	6
587.169	1	3
587.509	1	4
587.849	1	8
588.188	1	1
588.528	1	9
588.867	1	9
589.207	1	9
589.547	1	2
589.886	1	-4
590.226	1	11
590.566	1	5
590.905	1	1
591.245	1	-2
591.585	1	6
591.924	1	9
592.264	1	3
592.603	1	4
592.943	1	2
593.283	1	-2
593.622	1	11
593.962	1	8
594.301	1	13
594.641	1	4
594.981	1	-7
595.320	1	2
595.660	1	1
595.999	1	-6
596.339	1	1
596.678	1	13
597.018	1	-1
597.358	1	8
597.697	1	3
598.037	1	3
598.376	1	5
598.716	1	2
599.055	1	7
599.395	1	1
599.734	1	7
600.074	1	4
600.413	1	13
600.753	1	12
601.092	1	18
601.432	1	2
601.771	1	8
602.111	1	4
602.451	1	8
602.790	1	6
603.130	1	13
603.469	1	9
603.809	1	14
604.148	1	12
604.487	1	5
604.827	1	4
605.166	1	5
605.506	1	8
605.845	1	6
606.185	1	9
606.524	1	5
606.864	1	4
607.203	1	4
607.543	1	11
607.882	1	9
608.222	1	15
608.561	1	-2
608.901	1	8
609.240	1	3
609.579	1	8
609.919	1	18
610.258	1	13
610.598	1	1
610.937	1	-2
611.277	1	-6
611.616	1	7
611.955	1	8
612.295	1	-5
612.634	1	2
612.974	1	-15
613.313	1	4
613.652	1	3
613.992	1	2
614.331	1	9
614.671	1	11
615.010	1	-5
615.349	1	14
615.689	1	9
616.028	1	11
616.368	1	8
616.707	1	4
617.046	1	8
617.386	1	2
617.725	1	2
618.064	1	-1
618.404	1	12
618.743	1	6
619.082	1	2
619.422	1	-6
619.761	1	2
620.100	1	6
620.440	1	11
620.779	1	-1
621.118	1	-2
621.458	1	6
621.797	1	2
622.136	1	13
622.476	1	2
622.815	1	11
623.154	1	10
623.494	1	11
623.833	1	6
624.172	1	-4
624.511	1	9
624.851	1	-3
625.190	1	8
625.529	1	4
625.869	1	7
626.208	1	-1
626.547	1	4
626.886	1	7
627.226	1	12
627.565	1	1
627.904	1	-5
628.243	1	9
628.583	1	-5
628.922	1	6
629.261	1	11
629.600	1	3
629.940	1	9
630.279	1	-11
630.618	1	1
630.957	1	1
631.297	1	10
631.636	1	-8
631.975	1	9
632.314	1	7
632.653	1	7
632.993	1	1
633.332	1	2
633.671	1	2
634.010	1	0
634.349	1	12
634.689	1	4
635.028	1	12
635.367	1	-2
635.706	1	1
636.045	1	13
636.384	1	1
636.724	1	5
637.063	1	7
637.402	1	6
637.741	1	-5
638.080	1	2
638.419	1	4
638.759	1	-9
639.098	1	12
639.437	1	3
639.776	1	2
640.115	1	2
640.454	1	4
640.793	1	8
641.132	1	8
641.472	1	5
641.811	1	9
642.150	1	-3
642.489	1	10
642.828	1	2
643.167	1	-9
643.506	1	-5
643.845	1	1
644.184	1	7
644.524	1	-4
644.863	1	0
645.202	1	4
645.541	1	9
645.880	1	-1
646.219	1	0
646.558	1	9
646.897	1	-1
647.236	1	7
647.575	1	4
647.914	1	-8
648.253	1	10
648.592	1	-6
648.931	1	18
649.270	1	6
649.610	1	5
649.949	1	9
650.288	1	7
650.627	1	4
650.966	1	17
651.305	1	8
651.644	1	14
651.983	1	4
652.322	1	0
652.661	1	3
653.000	1	3
653.339	1	3
653.678	1	4
654.017	1	1
654.356	1	-5
654.695	1	9
655.034	1	-4
655.373	1	9
655.712	1	-1
656.051	1	12
656.390	1	-1
656.729	1	4
657.068	1	1
657.406	1	3
657.745	1	1
658.084	1	0
658.423	1	15
658.762	1	-2
659.101	1	17
659.440	1	-2
659.779	1	6
660.118	1	-6
660.457	1	2
660.796	1	-14
661.135	1	-1
661.474	1	2
661.813	1	7
662.152	1	13
662.491	1	-9
662.829	1	3
663.168	1	5
663.507	1	9
663.846	1	-1
664.185	1	8
664.524	1	4
664.863	1	6
665.202	1	7
665.541	1	-7
665.879	1	0
666.218	1	0
666.557	1	2
666.896	1	-12
667.235	1	4
667.574	1	-7
667.913	1	1
668.251	1	-1
668.590	1	8
668.929	1	-14
669.268	1	7
669.607	1	-2
669.946	1	1
670.285	1	9
670.623	1	-10
670.962	1	8
671.301	1	1
671.640	1	-1
671.979	1	-1
672.317	1	-3
672.656	1	1
672.995	1	5
673.334	1	1
673.673	1	6
674.011	1	5
674.350	1	3
674.689	1	1
675.028	1	0
675.367	1	7
675.705	1	5
676.044	1	2
676.383	1	2
676.722	1	-2
677.060	1	-1
677.399	1	-3
677.738	1	8
678.077	1	1
678.416	1	9
678.754	1	2
679.093	1	5
679.432	1	-3
679.771	1	-4
680.109	1	9
680.448	1	0
680.787	1	1
681.125	1	3
681.464	1	1
681.803	1	-4
682.142	1	10
682.480	1	10
682.819	1	-4
683.158	1	5
683.496	1	8
683.835	1	5
684.174	1	0
684.512	1	13
684.851	1	6
685.190	1	-7
685.529	1	4
685.867	1	0
686.206	1	-4
686.545	1	-1
686.883	1	-2
687.222	1	1
687.561	1	6
687.899	1	4
688.238	1	4
688.577	1	6
688.746	1	1