File: Data/GaN_170K_550ms/GaN_sample D_spot 18_UVVIS_170 K_200um_550 ms 2x2mm1_226.txt
340.368	1	4
340.710	1	-5
341.052	1	3
341.394	1	-1
341.737	1	-1
342.079	1	-2
342.421	1	6
342.763	1	6
343.105	1	16
343.447	1	-2
343.789	1	9
344.131	1	-3
344.473	1	-3
344.815	1	5
345.157	1	6
345.499	1	-4
345.841	1	8
346.183	1	3
346.526	1	2
346.868	1	9
347.210	1	-5
347.552	1	12
347.894	1	6
348.236	1	2
348.578	1	6
348.920	1	-4
349.262	1	3
349.604	1	6
349.946	1	10
350.288	1	-5
350.630	1	11
350.972	1	-1
351.314	1	5
351.656	1	4
351.998	1	-4
352.340	1	1
352.682	1	4
353.024	1	4
353.366	1	1
353.708	1	8
354.050	1	-3
354.392	1	0
354.734	1	5
355.076	1	5
355.418	1	-3
355.760	1	-4
356.102	1	9
356.444	1	-3
356.785	1	11
357.127	1	7
357.469	1	-7
357.811	1	8
358.153	1	11
358.495	1	10
358.837	1	4
359.179	1	1
359.521	1	3
359.863	1	1
360.205	1	15
360.547	1	7
360.889	1	6
361.231	1	8
361.572	1	8
361.914	1	5
362.256	1	0
362.598	1	7
362.940	1	16
363.282	1	3
363.624	1	-5
363.966	1	10
364.308	1	16
364.649	1	4
364.991	1	19
365.333	1	7
365.675	1	11
366.017	1	5
366.359	1	4
366.701	1	12
367.042	1	10
367.384	1	26
367.726	1	25
368.068	1	15
368.410	1	18
368.752	1	13
369.093	1	10
369.435	1	14
369.777	1	6
370.119	1	14
370.461	1	22
370.803	1	9
371.144	1	17
371.486	1	5
371.828	1	10
372.170	1	13
372.512	1	15
372.853	1	16
373.195	1	12
373.537	1	26
373.879	1	10
374.220	1	15
374.562	1	-1
374.904	1	9
375.246	1	-3
375.588	1	9
375.929	1	7
376.271	1	13
376.613	1	7
376.955	1	12
377.296	1	6
377.638	1	9
377.980	1	-7
378.321	1	12
378.663	1	6
379.005	1	-8
379.347	1	-2
379.688	1	8
380.030	1	5
380.372	1	6
380.714	1	16
381.055	1	6
381.397	1	10
381.739	1	7
382.080	1	0
382.422	1	10
382.764	1	5
383.105	1	10
383.447	1	11
383.789	1	13
384.130	1	4
384.472	1	2
384.814	1	6
385.156	1	4
385.497	1	10
385.839	1	-4
386.180	1	15
386.522	1	3
386.864	1	2
387.205	1	-4
387.547	1	9
387.889	1	9
388.230	1	0
388.572	1	2
388.914	1	1
389.255	1	5
389.597	1	-3
389.939	1	-5
390.280	1	-5
390.622	1	2
390.963	1	1
391.305	1	-2
391.647	1	-9
391.988	1	4
392.330	1	7
392.671	1	-7
393.013	1	3
393.355	1	5
393.696	1	6
394.038	1	-4
394.379	1	-1
394.721	1	1
395.062	1	0
395.404	1	1
395.746	1	9
396.087	1	11
396.429	1	3
396.770	1	4
397.112	1	6
397.453	1	14
397.795	1	4
398.136	1	2
398.478	1	0
398.819	1	-4
399.161	1	-10
399.503	1	1
399.844	1	-3
400.186	1	-11
400.527	1	16
400.869	1	3
401.210	1	12
401.552	1	5
401.893	1	8
402.235	1	1
402.576	1	-2
402.918	1	3
403.259	1	3
403.601	1	13
403.942	1	0
404.284	1	-3
404.625	1	7
404.967	1	3
405.308	1	-1
405.649	1	3
405.991	1	4
406.332	1	-13
406.674	1	7
407.015	1	3
407.357	1	1
407.698	1	7
408.040	1	4
408.381	1	0
408.722	1	-5
409.064	1	2
409.405	1	5
409.747	1	1
410.088	1	7
410.430	1	1
410.771	1	0
411.112	1	6
411.454	1	3
411.795	1	7
412.137	1	-7
412.478	1	-11
412.819	1	-4
413.161	1	4
413.502	1	-7
413.844	1	12
414.185	1	-4
414.526	1	13
414.868	1	-6
415.209	1	-3
415.550	1	1
415.892	1	3
416.233	1	6
416.575	1	2
416.916	1	-7
417.257	1	2
417.599	1	2
417.940	1	-5
418.281	1	-9
418.623	1	0
418.964	1	-7
419.305	1	8
419.647	1	7
419.988	1	10
420.329	1	2
420.671	1	-8
421.012	1	4
421.353	1	2
421.695	1	-9
422.036	1	7
422.377	1	10
422.718	1	4
423.060	1	-9
423.401	1	-7
423.742	1	-9
424.084	1	10
424.425	1	-7
424.766	1	-5
425.107	1	-3
425.449	1	2
425.790	1	11
426.131	1	11
426.472	1	-3
426.814	1	-13
427.155	1	8
427.496	1	5
427.837	1	2
428.179	1	5
428.520	1	-5
428.861	1	5
429.202	1	-7
429.544	1	0
429.885	1	7
430.226	1	2
430.567	1	9
430.909	1	2
431.250	1	10
431.591	1	-1
431.932	1	-8
432.273	1	-2
432.615	1	6
432.956	1	-2
433.297	1	-7
433.638	1	7
433.979	1	-8
434.320	1	12
434.662	1	-7
435.003	1	-5
435.344	1	-1
435.685	1	2
436.026	1	-2
436.368	1	3
436.709	1	-2
437.050	1	-5
437.391	1	-9
437.732	1	6
438.073	1	2
438.414	1	-7
438.756	1	4
439.097	1	-1
439.438	1	7
439.779	1	6
440.120	1	-7
440.461	1	13
440.802	1	-2
441.143	1	-3
441.485	1	-3
441.826	1	-2
442.167	1	0
442.508	1	4
442.849	1	7
443.190	1	0
443.531	1	2
443.872	1	-8
444.213	1	-3
444.554	1	-2
444.895	1	-15
445.237	1	-12
445.578	1	5
445.919	1	8
446.260	1	10
446.601	1	-1
446.942	1	2
447.283	1	1
447.624	1	-7
447.965	1	1
448.306	1	-5
448.647	1	2
448.988	1	7
449.329	1	0
449.670	1	-11
450.011	1	-1
450.352	1	1
450.693	1	1
451.034	1	-2
451.375	1	0
451.716	1	3
452.057	1	0
452.398	1	4
452.739	1	7
453.080	1	0
453.421	1	8
453.762	1	-5
454.103	1	-13
454.444	1	-8
454.785	1	4
455.126	1	9
455.467	1	-16
455.808	1	7
456.149	1	-2
456.490	1	6
456.831	1	-1
457.172	1	3
457.513	1	8
457.854	1	11
458.195	1	-8
458.536	1	0
458.877	1	9
459.218	1	2
459.559	1	8
459.899	1	1
460.240	1	4
460.581	1	5
460.922	1	-5
461.263	1	-2
461.604	1	0
461.945	1	10
462.286	1	-3
462.627	1	13
462.968	1	12
463.309	1	3
463.649	1	4
463.990	1	-1
464.331	1	0
464.672	1	-10
465.013	1	11
465.354	1	-3
465.695	1	2
466.036	1	-10
466.376	1	2
466.717	1	-2
467.058	1	9
467.399	1	13
467.740	1	-1
468.081	1	-2
468.422	1	6
468.762	1	9
469.103	1	10
469.444	1	3
469.785	1	-2
470.126	1	6
470.467	1	-2
470.807	1	5
471.148	1	-3
471.489	1	1
471.830	1	1
472.171	1	7
472.511	1	1
472.852	1	0
473.193	1	8
473.534	1	2
473.875	1	6
474.215	1	2
474.556	1	-4
474.897	1	6
475.238	1	-6
475.578	1	5
475.919	1	6
476.260	1	11
476.601	1	1
476.942	1	-5
477.282	1	5
477.623	1	9
477.964	1	-4
478.305	1	-9
478.645	1	1
478.986	1	0
479.327	1	-10
479.667	1	0
480.008	1	15
480.349	1	8
480.690	1	11
481.030	1	8
481.371	1	-2
481.712	1	3
482.053	1	-6
482.393	1	1
482.734	1	9
483.075	1	10
483.415	1	2
483.756	1	16
484.097	1	-9
484.437	1	2
484.778	1	-13
485.119	1	4
485.459	1	-5
485.800	1	4
486.141	1	5
486.481	1	1
486.822	1	-2
487.163	1	5
487.503	1	-2
487.844	1	5
488.185	1	0
488.525	1	2
488.866	1	6
489.207	1	4
489.547	1	17
489.888	1	11
490.228	1	-1
490.569	1	1
490.910	1	4
491.250	1	5
491.591	1	7
491.932	1	5
492.272	1	4
492.613	1	1
492.953	1	2
493.294	1	1
493.635	1	-2
493.975	1	6
494.316	1	6
494.656	1	2
494.997	1	-1
495.337	1	9
495.678	1	4
496.019	1	-10
496.359	1	7
496.700	1	4
497.040	1	-5
497.381	1	5
497.721	1	-5
498.062	1	3
498.403	1	-1
498.743	1	3
499.084	1	-1
499.424	1	12
499.765	1	-7
500.105	1	1
500.446	1	-2
500.786	1	-1
501.127	1	12
501.467	1	5
501.808	1	-3
502.148	1	14
502.489	1	3
502.829	1	0
503.170	1	8
503.510	1	2
503.851	1	2
504.191	1	-4
504.532	1	-11
504.872	1	9
505.213	1	-5
505.553	1	3
505.894	1	7
506.234	1	0
506.575	1	0
506.915	1	4
507.256	1	-1
507.596	1	13
507.936	1	18
508.277	1	-9
508.617	1	10
508.958	1	3
509.298	1	3
509.639	1	11
509.979	1	7
510.319	1	0
510.660	1	-7
511.000	1	10
511.341	1	6
511.681	1	-1
512.022	1	4
512.362	1	3
512.702	1	-4
513.043	1	-3
513.383	1	8
513.724	1	-2
514.064	1	7
514.404	1	6
514.745	1	-1
515.085	1	-5
515.425	1	7
515.766	1	-7
516.106	1	3
516.447	1	-7
516.787	1	1
517.127	1	11
517.468	1	7
517.808	1	17
518.148	1	-1
518.489	1	3
518.829	1	5
519.169	1	-2
519.510	1	3
519.850	1	4
520.190	1	0
520.531	1	3
520.871	1	9
521.211	1	8
521.552	1	3
521.892	1	10
522.232	1	-8
522.573	1	7
522.913	1	12
523.253	1	16
523.593	1	3
523.934	1	6
524.274	1	-3
524.614	1	7
524.955	1	-2
525.295	1	-2
525.635	1	9
525.975	1	-1
526.316	1	10
526.656	1	1
526.996	1	7
527.337	1	-9
527.677	1	3
528.017	1	8
528.357	1	0
528.698	1	-6
529.038	1	-1
529.378	1	2
529.718	1	7
530.058	1	5
530.399	1	8
530.739	1	5
531.079	1	11
531.419	1	9
531.760	1	2
532.100	1	2
532.440	1	1
532.780	1	4
533.120	1	5
533.461	1	-4
533.801	1	-2
534.141	1	1
534.481	1	-1
534.821	1	4
535.162	1	4
535.502	1	7
535.842	1	-2
536.182	1	3
536.522	1	8
536.862	1	3
537.203	1	6
537.543	1	-1
537.883	1	12
538.223	1	1
538.563	1	3
538.903	1	4
539.243	1	0
539.584	1	-5
539.924	1	2
540.264	1	9
540.604	1	4
540.944	1	-1
541.284	1	5
541.624	1	-4
541.964	1	1
542.305	1	6
542.645	1	6
542.985	1	11
543.325	1	3
543.665	1	8
544.005	1	10
544.345	1	2
544.685	1	1
545.025	1	-1
545.365	1	-1
545.705	1	-3
546.045	1	-1
546.386	1	6
546.726	1	2
547.066	1	19
547.406	1	0
547.746	1	-2
548.086	1	2
548.426	1	13
548.766	1	-3
549.106	1	12
549.446	1	7
549.786	1	1
550.126	1	0
550.466	1	4
550.806	1	4
551.146	1	7
551.486	1	1
551.826	1	11
552.166	1	6
552.506	1	5
552.846	1	-1
553.186	1	7
553.526	1	-2
553.866	1	-6
554.206	1	-4
554.546	1	-7
554.886	1	6
555.226	1	4
555.566	1	4
555.906	1	-2
556.246	1	-3
556.586	1	0
556.926	1	6
557.266	1	0
557.606	1	-2
557.946	1	12
558.286	1	-1
558.626	1	17
558.966	1	-3
559.306	1	10
559.646	1	2
559.986	1	-2
560.325	1	-1
560.665	1	4
561.005	1	1
561.345	1	-2
561.685	1	5
562.025	1	-5
562.365	1	11
562.705	1	12
563.045	1	4
563.385	1	9
563.725	1	-1
564.064	1	2
564.404	1	-4
564.744	1	4
565.084	1	6
565.424	1	5
565.764	1	3
566.104	1	-1
566.444	1	1
566.783	1	7
567.123	1	7
567.463	1	1
567.803	1	-3
568.143	1	-7
568.483	1	0
568.823	1	-8
569.162	1	7
569.502	1	6
569.842	1	4
570.182	1	-7
570.522	1	7
570.862	1	-7
571.201	1	0
571.541	1	-3
571.881	1	-5
572.221	1	1
572.561	1	0
572.900	1	1
573.240	1	3
573.580	1	0
573.920	1	5
574.260	1	11
574.599	1	-5
574.939	1	-7
575.279	1	7
575.619	1	15
575.959	1	-20
576.298	1	6
576.638	1	-3
576.978	1	-4
577.318	1	-3
577.657	1	-2
577.997	1	-3
578.337	1	3
578.677	1	-6
579.016	1	2
579.356	1	8
579.696	1	3
580.036	1	-4
580.375	1	0
580.715	1	5
581.055	1	6
581.394	1	0
581.734	1	4
582.074	1	4
582.414	1	-1
582.753	1	2
583.093	1	6
583.433	1	11
583.772	1	1
584.112	1	-4
584.452	1	-4
584.791	1	2
585.131	1	-1
585.471	1	6
585.811	1	-3
586.150	1	-1
586.490	1	1
586.830	1	-9
587.169	1	11
587.509	1	-5
587.849	1	1
588.188	1	-1
588.528	1	1
588.867	1	-1
589.207	1	-2
589.547	1	10
589.886	1	-3
590.226	1	0
590.566	1	1
590.905	1	2
591.245	1	-2
591.585	1	-1
591.924	1	-8
592.264	1	-8
592.603	1	-2
592.943	1	5
593.283	1	7
593.622	1	-4
593.962	1	4
594.301	1	2
594.641	1	-1
594.981	1	2
595.320	1	3
595.660	1	1
595.999	1	1
596.339	1	8
596.678	1	-1
597.018	1	-2
597.358	1	-11
597.697	1	3
598.037	1	0
598.376	1	-8
598.716	1	6
599.055	1	10
599.395	1	1
599.734	1	9
600.074	1	-3
600.413	1	-7
600.753	1	5
601.092	1	2
601.432	1	-3
601.771	1	11
602.111	1	-3
602.451	1	3
602.790	1	9
603.130	1	-3
603.469	1	6
603.809	1	0
604.148	1	2
604.487	1	0
604.827	1	-18
605.166	1	4
605.506	1	-9
605.845	1	6
606.185	1	5
606.524	1	-1
606.864	1	1
607.203	1	3
607.543	1	10
607.882	1	-2
608.222	1	-3
608.561	1	10
608.901	1	2
609.240	1	-1
609.579	1	-5
609.919	1	-1
610.258	1	6
610.598	1	4
610.937	1	-3
611.277	1	1
611.616	1	7
611.955	1	12
612.295	1	5
612.634	1	-1
612.974	1	4
613.313	1	3
613.652	1	21
613.992	1	3
614.331	1	-4
614.671	1	16
615.010	1	-2
615.349	1	7
615.689	1	11
616.028	1	5
616.368	1	5
616.707	1	9
617.046	1	-6
617.386	1	0
617.725	1	-3
618.064	1	-3
618.404	1	2
618.743	1	7
619.082	1	7
619.422	1	-4
619.761	1	-9
620.100	1	-3
620.440	1	3
620.779	1	6
621.118	1	-2
621.458	1	1
621.797	1	0
622.136	1	-3
622.476	1	-2
622.815	1	3
623.154	1	-2
623.494	1	-1
623.833	1	2
624.172	1	9
624.511	1	17
624.851	1	0
625.190	1	4
625.529	1	6
625.869	1	-4
626.208	1	-1
626.547	1	4
626.886	1	7
627.226	1	5
627.565	1	13
627.904	1	1
628.243	1	4
628.583	1	-1
628.922	1	2
629.261	1	5
629.600	1	-2
629.940	1	-1
630.279	1	-6
630.618	1	-6
630.957	1	5
631.297	1	7
631.636	1	14
631.975	1	-7
632.314	1	10
632.653	1	9
632.993	1	1
633.332	1	1
633.671	1	6
634.010	1	2
634.349	1	-6
634.689	1	3
635.028	1	13
635.367	1	-2
635.706	1	-2
636.045	1	4
636.384	1	-5
636.724	1	7
637.063	1	7
637.402	1	11
637.741	1	-4
638.080	1	9
638.419	1	-11
638.759	1	-2
639.098	1	-8
639.437	1	-3
639.776	1	3
640.115	1	0
640.454	1	-3
640.793	1	-11
641.132	1	3
641.472	1	-2
641.811	1	0
642.150	1	0
642.489	1	3
642.828	1	-1
643.167	1	-6
643.506	1	2
643.845	1	9
644.184	1	9
644.524	1	2
644.863	1	-13
645.202	1	1
645.541	1	-3
645.880	1	3
646.219	1	-6
646.558	1	6
646.897	1	4
647.236	1	-2
647.575	1	-8
647.914	1	8
648.253	1	-1
648.592	1	0
648.931	1	7
649.270	1	6
649.610	1	3
649.949	1	-2
650.288	1	8
650.627	1	1
650.966	1	0
651.305	1	-3
651.644	1	0
651.983	1	-3
652.322	1	-1
652.661	1	4
653.000	1	-10
653.339	1	7
653.678	1	-1
654.017	1	1
654.356	1	-3
654.695	1	15
655.034	1	-1
655.373	1	8
655.712	1	-6
656.051	1	8
656.390	1	-1
656.729	1	0
657.068	1	9
657.406	1	-1
657.745	1	0
658.084	1	-4
658.423	1	-5
658.762	1	2
659.101	1	6
659.440	1	7
659.779	1	8
660.118	1	10
660.457	1	10
660.796	1	6
661.135	1	-9
661.474	1	5
661.813	1	7
662.152	1	-4
662.491	1	-7
662.829	1	-3
663.168	1	-2
663.507	1	3
663.846	1	0
664.185	1	3
664.524	1	0
664.863	1	9
665.202	1	16
665.541	1	-2
665.879	1	8
666.218	1	6
666.557	1	-2
666.896	1	-6
667.235	1	-4
667.574	1	-8
667.913	1	-1
668.251	1	8
668.590	1	2
668.929	1	7
669.268	1	-7
669.607	1	5
669.946	1	6
670.285	1	12
670.623	1	0
670.962	1	1
671.301	1	13
671.640	1	7
671.979	1	0
672.317	1	5
672.656	1	2
672.995	1	-7
673.334	1	2
673.673	1	3
674.011	1	2
674.350	1	-1
674.689	1	6
675.028	1	-3
675.367	1	-11
675.705	1	8
676.044	1	8
676.383	1	-4
676.722	1	4
677.060	1	-2
677.399	1	2
677.738	1	-4
678.077	1	12
678.416	1	-14
678.754	1	10
679.093	1	6
679.432	1	0
679.771	1	6
680.109	1	-3
680.448	1	9
680.787	1	-11
681.125	1	10
681.464	1	5
681.803	1	-3
682.142	1	5
682.480	1	6
682.819	1	8
683.158	1	-6
683.496	1	7
683.835	1	-10
684.174	1	-5
684.512	1	1
684.851	1	-10
685.190	1	-12
685.529	1	14
685.867	1	8
686.206	1	10
686.545	1	13
686.883	1	1
687.222	1	-1
687.561	1	7
687.899	1	-8
688.238	1	-2
688.577	1	0
688.746	1	-11