File: Data/GaN_170K_550ms/GaN_sample D_spot 18_UVVIS_170 K_200um_550 ms 2x2mm1_18.txt
340.368	1	12
340.710	1	-17
341.052	1	-1
341.394	1	8
341.737	1	-10
342.079	1	-1
342.421	1	10
342.763	1	9
343.105	1	2
343.447	1	-9
343.789	1	8
344.131	1	-1
344.473	1	0
344.815	1	14
345.157	1	5
345.499	1	-12
345.841	1	8
346.183	1	17
346.526	1	7
346.868	1	16
347.210	1	-5
347.552	1	6
347.894	1	-3
348.236	1	-5
348.578	1	3
348.920	1	1
349.262	1	6
349.604	1	9
349.946	1	11
350.288	1	1
350.630	1	13
350.972	1	-4
351.314	1	-1
351.656	1	2
351.998	1	3
352.340	1	6
352.682	1	0
353.024	1	3
353.366	1	-2
353.708	1	11
354.050	1	-6
354.392	1	-3
354.734	1	3
355.076	1	3
355.418	1	-8
355.760	1	-3
356.102	1	0
356.444	1	-6
356.785	1	-5
357.127	1	-5
357.469	1	-4
357.811	1	0
358.153	1	8
358.495	1	1
358.837	1	3
359.179	1	-6
359.521	1	1
359.863	1	-3
360.205	1	7
360.547	1	-2
360.889	1	-1
361.231	1	7
361.572	1	6
361.914	1	3
362.256	1	1
362.598	1	5
362.940	1	10
363.282	1	10
363.624	1	2
363.966	1	-1
364.308	1	2
364.649	1	1
364.991	1	9
365.333	1	-2
365.675	1	12
366.017	1	6
366.359	1	4
366.701	1	5
367.042	1	-3
367.384	1	1
367.726	1	4
368.068	1	-1
368.410	1	2
368.752	1	0
369.093	1	-6
369.435	1	-7
369.777	1	2
370.119	1	-1
370.461	1	7
370.803	1	1
371.144	1	-4
371.486	1	-13
371.828	1	-1
372.170	1	2
372.512	1	-12
372.853	1	13
373.195	1	4
373.537	1	12
373.879	1	7
374.220	1	9
374.562	1	-4
374.904	1	-1
375.246	1	5
375.588	1	-8
375.929	1	-1
376.271	1	10
376.613	1	-2
376.955	1	8
377.296	1	4
377.638	1	0
377.980	1	-12
378.321	1	0
378.663	1	3
379.005	1	5
379.347	1	6
379.688	1	0
380.030	1	3
380.372	1	2
380.714	1	12
381.055	1	4
381.397	1	2
381.739	1	-8
382.080	1	5
382.422	1	-2
382.764	1	2
383.105	1	9
383.447	1	13
383.789	1	15
384.130	1	-4
384.472	1	-5
384.814	1	14
385.156	1	2
385.497	1	8
385.839	1	-8
386.180	1	15
386.522	1	7
386.864	1	6
387.205	1	5
387.547	1	9
387.889	1	6
388.230	1	6
388.572	1	10
388.914	1	-1
389.255	1	14
389.597	1	0
389.939	1	-13
390.280	1	-1
390.622	1	1
390.963	1	-4
391.305	1	-6
391.647	1	-3
391.988	1	12
392.330	1	11
392.671	1	-1
393.013	1	-3
393.355	1	5
393.696	1	4
394.038	1	-4
394.379	1	-19
394.721	1	-1
395.062	1	-2
395.404	1	2
395.746	1	13
396.087	1	-3
396.429	1	5
396.770	1	0
397.112	1	3
397.453	1	1
397.795	1	-5
398.136	1	5
398.478	1	-8
398.819	1	9
399.161	1	-6
399.503	1	3
399.844	1	-4
400.186	1	-3
400.527	1	17
400.869	1	3
401.210	1	8
401.552	1	-1
401.893	1	13
402.235	1	10
402.576	1	-1
402.918	1	5
403.259	1	-3
403.601	1	14
403.942	1	10
404.284	1	-8
404.625	1	5
404.967	1	4
405.308	1	-1
405.649	1	4
405.991	1	6
406.332	1	-7
406.674	1	-1
407.015	1	8
407.357	1	-3
407.698	1	5
408.040	1	-1
408.381	1	2
408.722	1	-7
409.064	1	-3
409.405	1	9
409.747	1	-1
410.088	1	12
410.430	1	-2
410.771	1	2
411.112	1	-2
411.454	1	-4
411.795	1	8
412.137	1	-8
412.478	1	-6
412.819	1	-6
413.161	1	3
413.502	1	4
413.844	1	1
414.185	1	-5
414.526	1	-4
414.868	1	0
415.209	1	-10
415.550	1	-3
415.892	1	7
416.233	1	0
416.575	1	3
416.916	1	-9
417.257	1	-2
417.599	1	-1
417.940	1	16
418.281	1	-10
418.623	1	-11
418.964	1	-7
419.305	1	6
419.647	1	7
419.988	1	3
420.329	1	-1
420.671	1	-5
421.012	1	1
421.353	1	-2
421.695	1	-8
422.036	1	2
422.377	1	-2
422.718	1	8
423.060	1	-3
423.401	1	-3
423.742	1	-1
424.084	1	13
424.425	1	-9
424.766	1	3
425.107	1	5
425.449	1	-2
425.790	1	5
426.131	1	1
426.472	1	-3
426.814	1	-7
427.155	1	9
427.496	1	0
427.837	1	7
428.179	1	-1
428.520	1	4
428.861	1	-1
429.202	1	4
429.544	1	-6
429.885	1	3
430.226	1	3
430.567	1	0
430.909	1	5
431.250	1	11
431.591	1	4
431.932	1	-6
432.273	1	-1
432.615	1	6
432.956	1	1
433.297	1	-2
433.638	1	3
433.979	1	-1
434.320	1	5
434.662	1	-11
435.003	1	-5
435.344	1	-2
435.685	1	2
436.026	1	-3
436.368	1	6
436.709	1	-3
437.050	1	-5
437.391	1	-3
437.732	1	1
438.073	1	3
438.414	1	-4
438.756	1	2
439.097	1	-3
439.438	1	1
439.779	1	8
440.120	1	-1
440.461	1	11
440.802	1	10
441.143	1	-4
441.485	1	-2
441.826	1	1
442.167	1	2
442.508	1	-5
442.849	1	0
443.190	1	3
443.531	1	3
443.872	1	-1
444.213	1	-7
444.554	1	-1
444.895	1	-17
445.237	1	-2
445.578	1	8
445.919	1	6
446.260	1	4
446.601	1	-5
446.942	1	1
447.283	1	13
447.624	1	6
447.965	1	-5
448.306	1	-4
448.647	1	1
448.988	1	10
449.329	1	0
449.670	1	-9
450.011	1	-5
450.352	1	0
450.693	1	-6
451.034	1	0
451.375	1	1
451.716	1	-1
452.057	1	2
452.398	1	2
452.739	1	10
453.080	1	10
453.421	1	5
453.762	1	3
454.103	1	5
454.444	1	-5
454.785	1	0
455.126	1	6
455.467	1	-5
455.808	1	11
456.149	1	1
456.490	1	2
456.831	1	6
457.172	1	4
457.513	1	7
457.854	1	9
458.195	1	2
458.536	1	-6
458.877	1	9
459.218	1	-4
459.559	1	8
459.899	1	8
460.240	1	2
460.581	1	7
460.922	1	-5
461.263	1	-3
461.604	1	4
461.945	1	-1
462.286	1	-7
462.627	1	-4
462.968	1	12
463.309	1	5
463.649	1	7
463.990	1	0
464.331	1	2
464.672	1	-3
465.013	1	1
465.354	1	-2
465.695	1	7
466.036	1	-12
466.376	1	-1
466.717	1	-7
467.058	1	0
467.399	1	3
467.740	1	2
468.081	1	-2
468.422	1	1
468.762	1	11
469.103	1	7
469.444	1	3
469.785	1	-4
470.126	1	0
470.467	1	-2
470.807	1	-6
471.148	1	-7
471.489	1	-1
471.830	1	-9
472.171	1	8
472.511	1	2
472.852	1	14
473.193	1	14
473.534	1	7
473.875	1	9
474.215	1	2
474.556	1	6
474.897	1	1
475.238	1	3
475.578	1	7
475.919	1	5
476.260	1	8
476.601	1	1
476.942	1	-1
477.282	1	6
477.623	1	0
477.964	1	3
478.305	1	-9
478.645	1	3
478.986	1	0
479.327	1	-14
479.667	1	-13
480.008	1	-6
480.349	1	0
480.690	1	12
481.030	1	6
481.371	1	5
481.712	1	-8
482.053	1	1
482.393	1	1
482.734	1	9
483.075	1	2
483.415	1	6
483.756	1	-3
484.097	1	-12
484.437	1	7
484.778	1	-7
485.119	1	4
485.459	1	1
485.800	1	-9
486.141	1	13
486.481	1	-7
486.822	1	7
487.163	1	8
487.503	1	1
487.844	1	-2
488.185	1	-1
488.525	1	-2
488.866	1	4
489.207	1	5
489.547	1	6
489.888	1	2
490.228	1	1
490.569	1	9
490.910	1	-4
491.250	1	0
491.591	1	9
491.932	1	1
492.272	1	2
492.613	1	6
492.953	1	0
493.294	1	-5
493.635	1	-4
493.975	1	2
494.316	1	-3
494.656	1	6
494.997	1	5
495.337	1	3
495.678	1	4
496.019	1	-9
496.359	1	8
496.700	1	14
497.040	1	2
497.381	1	8
497.721	1	0
498.062	1	5
498.403	1	3
498.743	1	3
499.084	1	-3
499.424	1	6
499.765	1	-11
500.105	1	-9
500.446	1	-4
500.786	1	-1
501.127	1	-1
501.467	1	-6
501.808	1	-3
502.148	1	4
502.489	1	7
502.829	1	2
503.170	1	6
503.510	1	-4
503.851	1	1
504.191	1	1
504.532	1	-11
504.872	1	4
505.213	1	0
505.553	1	4
505.894	1	11
506.234	1	-2
506.575	1	5
506.915	1	0
507.256	1	3
507.596	1	12
507.936	1	13
508.277	1	-10
508.617	1	7
508.958	1	2
509.298	1	-4
509.639	1	17
509.979	1	2
510.319	1	-1
510.660	1	-7
511.000	1	2
511.341	1	5
511.681	1	-3
512.022	1	2
512.362	1	-3
512.702	1	-4
513.043	1	10
513.383	1	4
513.724	1	-3
514.064	1	4
514.404	1	-5
514.745	1	0
515.085	1	7
515.425	1	1
515.766	1	-2
516.106	1	6
516.447	1	-6
516.787	1	6
517.127	1	19
517.468	1	0
517.808	1	11
518.148	1	3
518.489	1	7
518.829	1	1
519.169	1	1
519.510	1	10
519.850	1	-9
520.190	1	-4
520.531	1	8
520.871	1	0
521.211	1	1
521.552	1	5
521.892	1	3
522.232	1	-8
522.573	1	9
522.913	1	4
523.253	1	12
523.593	1	-3
523.934	1	8
524.274	1	-4
524.614	1	5
524.955	1	3
525.295	1	-5
525.635	1	8
525.975	1	0
526.316	1	6
526.656	1	16
526.996	1	4
527.337	1	-2
527.677	1	4
528.017	1	5
528.357	1	-3
528.698	1	-2
529.038	1	-1
529.378	1	3
529.718	1	4
530.058	1	5
530.399	1	1
530.739	1	-3
531.079	1	1
531.419	1	9
531.760	1	2
532.100	1	-4
532.440	1	7
532.780	1	1
533.120	1	13
533.461	1	0
533.801	1	2
534.141	1	-6
534.481	1	0
534.821	1	7
535.162	1	2
535.502	1	2
535.842	1	2
536.182	1	5
536.522	1	11
536.862	1	7
537.203	1	2
537.543	1	-1
537.883	1	4
538.223	1	5
538.563	1	4
538.903	1	-4
539.243	1	-4
539.584	1	3
539.924	1	4
540.264	1	10
540.604	1	4
540.944	1	-11
541.284	1	2
541.624	1	-7
541.964	1	8
542.305	1	2
542.645	1	0
542.985	1	7
543.325	1	1
543.665	1	5
544.005	1	0
544.345	1	-5
544.685	1	-1
545.025	1	5
545.365	1	2
545.705	1	7
546.045	1	10
546.386	1	-3
546.726	1	-1
547.066	1	12
547.406	1	3
547.746	1	-12
548.086	1	6
548.426	1	-1
548.766	1	7
549.106	1	9
549.446	1	8
549.786	1	2
550.126	1	4
550.466	1	3
550.806	1	1
551.146	1	0
551.486	1	3
551.826	1	12
552.166	1	3
552.506	1	9
552.846	1	5
553.186	1	9
553.526	1	-4
553.866	1	-12
554.206	1	-1
554.546	1	-7
554.886	1	3
555.226	1	-1
555.566	1	3
555.906	1	3
556.246	1	3
556.586	1	1
556.926	1	3
557.266	1	-2
557.606	1	3
557.946	1	0
558.286	1	-3
558.626	1	8
558.966	1	15
559.306	1	3
559.646	1	2
559.986	1	2
560.325	1	-8
560.665	1	2
561.005	1	7
561.345	1	-4
561.685	1	2
562.025	1	-3
562.365	1	5
562.705	1	9
563.045	1	-4
563.385	1	2
563.725	1	-3
564.064	1	6
564.404	1	-4
564.744	1	0
565.084	1	5
565.424	1	7
565.764	1	5
566.104	1	-5
566.444	1	-4
566.783	1	2
567.123	1	-8
567.463	1	-2
567.803	1	2
568.143	1	4
568.483	1	1
568.823	1	4
569.162	1	-2
569.502	1	2
569.842	1	-1
570.182	1	0
570.522	1	2
570.862	1	1
571.201	1	7
571.541	1	-6
571.881	1	-3
572.221	1	2
572.561	1	5
572.900	1	-1
573.240	1	6
573.580	1	3
573.920	1	12
574.260	1	6
574.599	1	2
574.939	1	-4
575.279	1	-2
575.619	1	9
575.959	1	-7
576.298	1	14
576.638	1	13
576.978	1	-9
577.318	1	-8
577.657	1	1
577.997	1	-9
578.337	1	5
578.677	1	5
579.016	1	9
579.356	1	-2
579.696	1	-8
580.036	1	5
580.375	1	7
580.715	1	11
581.055	1	5
581.394	1	-3
581.734	1	8
582.074	1	6
582.414	1	-3
582.753	1	4
583.093	1	8
583.433	1	12
583.772	1	-2
584.112	1	1
584.452	1	4
584.791	1	-2
585.131	1	9
585.471	1	-2
585.811	1	-5
586.150	1	0
586.490	1	10
586.830	1	2
587.169	1	0
587.509	1	-2
587.849	1	1
588.188	1	-2
588.528	1	2
588.867	1	0
589.207	1	3
589.547	1	6
589.886	1	-15
590.226	1	0
590.566	1	-3
590.905	1	12
591.245	1	-4
591.585	1	-3
591.924	1	-6
592.264	1	-5
592.603	1	6
592.943	1	6
593.283	1	8
593.622	1	-7
593.962	1	-5
594.301	1	3
594.641	1	7
594.981	1	12
595.320	1	-3
595.660	1	-3
595.999	1	0
596.339	1	-2
596.678	1	-3
597.018	1	0
597.358	1	-9
597.697	1	-7
598.037	1	6
598.376	1	-8
598.716	1	2
599.055	1	2
599.395	1	-9
599.734	1	16
600.074	1	-4
600.413	1	-7
600.753	1	5
601.092	1	-4
601.432	1	-10
601.771	1	6
602.111	1	-5
602.451	1	8
602.790	1	9
603.130	1	-8
603.469	1	3
603.809	1	6
604.148	1	9
604.487	1	1
604.827	1	-7
605.166	1	7
605.506	1	0
605.845	1	6
606.185	1	-2
606.524	1	-9
606.864	1	0
607.203	1	2
607.543	1	3
607.882	1	-5
608.222	1	-6
608.561	1	2
608.901	1	6
609.240	1	0
609.579	1	7
609.919	1	-5
610.258	1	4
610.598	1	14
610.937	1	8
611.277	1	-1
611.616	1	-10
611.955	1	8
612.295	1	7
612.634	1	-4
612.974	1	3
613.313	1	4
613.652	1	3
613.992	1	0
614.331	1	1
614.671	1	14
615.010	1	6
615.349	1	-1
615.689	1	4
616.028	1	-2
616.368	1	-7
616.707	1	12
617.046	1	-4
617.386	1	-3
617.725	1	4
618.064	1	-1
618.404	1	-3
618.743	1	2
619.082	1	2
619.422	1	-4
619.761	1	-2
620.100	1	3
620.440	1	-1
620.779	1	-3
621.118	1	0
621.458	1	1
621.797	1	5
622.136	1	-3
622.476	1	-11
622.815	1	-1
623.154	1	-1
623.494	1	7
623.833	1	2
624.172	1	5
624.511	1	2
624.851	1	-6
625.190	1	4
625.529	1	13
625.869	1	-5
626.208	1	5
626.547	1	-4
626.886	1	10
627.226	1	-6
627.565	1	3
627.904	1	-3
628.243	1	1
628.583	1	-6
628.922	1	-7
629.261	1	-9
629.600	1	2
629.940	1	2
630.279	1	0
630.618	1	4
630.957	1	-5
631.297	1	-2
631.636	1	7
631.975	1	1
632.314	1	-2
632.653	1	-3
632.993	1	4
633.332	1	6
633.671	1	1
634.010	1	1
634.349	1	-6
634.689	1	6
635.028	1	-3
635.367	1	-7
635.706	1	-6
636.045	1	4
636.384	1	-9
636.724	1	12
637.063	1	3
637.402	1	12
637.741	1	-5
638.080	1	12
638.419	1	-6
638.759	1	1
639.098	1	-8
639.437	1	-8
639.776	1	-5
640.115	1	6
640.454	1	-7
640.793	1	-5
641.132	1	7
641.472	1	-3
641.811	1	10
642.150	1	-5
642.489	1	-6
642.828	1	-2
643.167	1	2
643.506	1	14
643.845	1	4
644.184	1	9
644.524	1	1
644.863	1	-7
645.202	1	11
645.541	1	5
645.880	1	0
646.219	1	1
646.558	1	1
646.897	1	13
647.236	1	0
647.575	1	-7
647.914	1	0
648.253	1	-2
648.592	1	2
648.931	1	9
649.270	1	-1
649.610	1	13
649.949	1	3
650.288	1	-5
650.627	1	-1
650.966	1	0
651.305	1	0
651.644	1	-1
651.983	1	6
652.322	1	-3
652.661	1	-2
653.000	1	-5
653.339	1	-5
653.678	1	-4
654.017	1	6
654.356	1	0
654.695	1	4
655.034	1	3
655.373	1	8
655.712	1	-3
656.051	1	3
656.390	1	2
656.729	1	2
657.068	1	3
657.406	1	2
657.745	1	6
658.084	1	-13
658.423	1	-1
658.762	1	-1
659.101	1	3
659.440	1	4
659.779	1	12
660.118	1	5
660.457	1	4
660.796	1	0
661.135	1	-4
661.474	1	8
661.813	1	8
662.152	1	3
662.491	1	-6
662.829	1	-4
663.168	1	6
663.507	1	9
663.846	1	-1
664.185	1	-3
664.524	1	12
664.863	1	-1
665.202	1	11
665.541	1	8
665.879	1	7
666.218	1	8
666.557	1	-3
666.896	1	-6
667.235	1	-10
667.574	1	-4
667.913	1	-7
668.251	1	9
668.590	1	1
668.929	1	2
669.268	1	-2
669.607	1	3
669.946	1	10
670.285	1	12
670.623	1	4
670.962	1	3
671.301	1	-1
671.640	1	2
671.979	1	2
672.317	1	6
672.656	1	-1
672.995	1	-3
673.334	1	5
673.673	1	-1
674.011	1	15
674.350	1	2
674.689	1	-2
675.028	1	-1
675.367	1	-4
675.705	1	2
676.044	1	4
676.383	1	-2
676.722	1	9
677.060	1	-5
677.399	1	6
677.738	1	-2
678.077	1	10
678.416	1	1
678.754	1	2
679.093	1	2
679.432	1	2
679.771	1	1
680.109	1	-1
680.448	1	-1
680.787	1	-3
681.125	1	2
681.464	1	16
681.803	1	10
682.142	1	2
682.480	1	2
682.819	1	2
683.158	1	-8
683.496	1	2
683.835	1	-3
684.174	1	5
684.512	1	-9
684.851	1	0
685.190	1	-3
685.529	1	9
685.867	1	11
686.206	1	5
686.545	1	3
686.883	1	2
687.222	1	-5
687.561	1	3
687.899	1	-5
688.238	1	-2
688.577	1	6
688.746	1	-5