File: Data/GaN_170K_550ms/GaN_sample D_spot 18_UVVIS_170 K_200um_550 ms 2x2mm1_89.txt
340.368	1	-3
340.710	1	-11
341.052	1	6
341.394	1	9
341.737	1	2
342.079	1	1
342.421	1	5
342.763	1	3
343.105	1	12
343.447	1	-6
343.789	1	8
344.131	1	2
344.473	1	11
344.815	1	7
345.157	1	1
345.499	1	8
345.841	1	8
346.183	1	4
346.526	1	3
346.868	1	6
347.210	1	-8
347.552	1	12
347.894	1	5
348.236	1	10
348.578	1	4
348.920	1	-1
349.262	1	6
349.604	1	15
349.946	1	12
350.288	1	4
350.630	1	20
350.972	1	1
351.314	1	6
351.656	1	3
351.998	1	10
352.340	1	5
352.682	1	3
353.024	1	6
353.366	1	10
353.708	1	7
354.050	1	0
354.392	1	9
354.734	1	12
355.076	1	2
355.418	1	2
355.760	1	10
356.102	1	21
356.444	1	6
356.785	1	6
357.127	1	10
357.469	1	13
357.811	1	19
358.153	1	12
358.495	1	4
358.837	1	10
359.179	1	13
359.521	1	24
359.863	1	27
360.205	1	29
360.547	1	23
360.889	1	37
361.231	1	32
361.572	1	38
361.914	1	35
362.256	1	47
362.598	1	42
362.940	1	62
363.282	1	63
363.624	1	61
363.966	1	63
364.308	1	73
364.649	1	69
364.991	1	87
365.333	1	69
365.675	1	97
366.017	1	97
366.359	1	103
366.701	1	117
367.042	1	104
367.384	1	133
367.726	1	122
368.068	1	130
368.410	1	138
368.752	1	127
369.093	1	119
369.435	1	121
369.777	1	122
370.119	1	119
370.461	1	120
370.803	1	111
371.144	1	106
371.486	1	106
371.828	1	105
372.170	1	92
372.512	1	81
372.853	1	87
373.195	1	81
373.537	1	94
373.879	1	83
374.220	1	72
374.562	1	65
374.904	1	63
375.246	1	70
375.588	1	59
375.929	1	68
376.271	1	56
376.613	1	56
376.955	1	51
377.296	1	50
377.638	1	55
377.980	1	33
378.321	1	47
378.663	1	49
379.005	1	27
379.347	1	40
379.688	1	43
380.030	1	33
380.372	1	40
380.714	1	39
381.055	1	40
381.397	1	38
381.739	1	19
382.080	1	26
382.422	1	27
382.764	1	19
383.105	1	37
383.447	1	31
383.789	1	30
384.130	1	10
384.472	1	21
384.814	1	29
385.156	1	12
385.497	1	33
385.839	1	8
386.180	1	22
386.522	1	27
386.864	1	27
387.205	1	7
387.547	1	9
387.889	1	13
388.230	1	13
388.572	1	23
388.914	1	11
389.255	1	20
389.597	1	11
389.939	1	6
390.280	1	14
390.622	1	4
390.963	1	19
391.305	1	15
391.647	1	9
391.988	1	10
392.330	1	20
392.671	1	21
393.013	1	7
393.355	1	14
393.696	1	15
394.038	1	2
394.379	1	5
394.721	1	9
395.062	1	7
395.404	1	13
395.746	1	6
396.087	1	15
396.429	1	13
396.770	1	14
397.112	1	1
397.453	1	18
397.795	1	7
398.136	1	6
398.478	1	7
398.819	1	15
399.161	1	-8
399.503	1	9
399.844	1	6
400.186	1	-2
400.527	1	17
400.869	1	4
401.210	1	9
401.552	1	12
401.893	1	11
402.235	1	2
402.576	1	6
402.918	1	2
403.259	1	4
403.601	1	9
403.942	1	12
404.284	1	0
404.625	1	10
404.967	1	10
405.308	1	13
405.649	1	8
405.991	1	12
406.332	1	-1
406.674	1	14
407.015	1	9
407.357	1	-1
407.698	1	13
408.040	1	5
408.381	1	9
408.722	1	-6
409.064	1	9
409.405	1	6
409.747	1	3
410.088	1	7
410.430	1	0
410.771	1	8
411.112	1	5
411.454	1	8
411.795	1	13
412.137	1	-4
412.478	1	0
412.819	1	-2
413.161	1	17
413.502	1	2
413.844	1	13
414.185	1	2
414.526	1	11
414.868	1	4
415.209	1	-10
415.550	1	3
415.892	1	2
416.233	1	5
416.575	1	3
416.916	1	4
417.257	1	10
417.599	1	8
417.940	1	11
418.281	1	-8
418.623	1	7
418.964	1	-4
419.305	1	3
419.647	1	9
419.988	1	13
420.329	1	4
420.671	1	-4
421.012	1	-3
421.353	1	5
421.695	1	-2
422.036	1	13
422.377	1	12
422.718	1	10
423.060	1	-4
423.401	1	-2
423.742	1	-9
424.084	1	11
424.425	1	-5
424.766	1	2
425.107	1	-3
425.449	1	11
425.790	1	2
426.131	1	14
426.472	1	2
426.814	1	-5
427.155	1	14
427.496	1	1
427.837	1	13
428.179	1	11
428.520	1	3
428.861	1	7
429.202	1	-5
429.544	1	7
429.885	1	4
430.226	1	-1
430.567	1	5
430.909	1	-8
431.250	1	22
431.591	1	-2
431.932	1	-1
432.273	1	14
432.615	1	1
432.956	1	7
433.297	1	-12
433.638	1	9
433.979	1	4
434.320	1	1
434.662	1	-5
435.003	1	6
435.344	1	7
435.685	1	0
436.026	1	3
436.368	1	12
436.709	1	4
437.050	1	-4
437.391	1	-2
437.732	1	4
438.073	1	5
438.414	1	-5
438.756	1	3
439.097	1	2
439.438	1	5
439.779	1	7
440.120	1	-4
440.461	1	15
440.802	1	8
441.143	1	8
441.485	1	-3
441.826	1	9
442.167	1	10
442.508	1	3
442.849	1	-1
443.190	1	-2
443.531	1	-1
443.872	1	1
444.213	1	6
444.554	1	2
444.895	1	-14
445.237	1	-4
445.578	1	11
445.919	1	5
446.260	1	3
446.601	1	-11
446.942	1	7
447.283	1	3
447.624	1	1
447.965	1	1
448.306	1	0
448.647	1	-2
448.988	1	15
449.329	1	13
449.670	1	-7
450.011	1	5
450.352	1	-8
450.693	1	-1
451.034	1	6
451.375	1	7
451.716	1	-4
452.057	1	-2
452.398	1	10
452.739	1	13
453.080	1	0
453.421	1	6
453.762	1	-5
454.103	1	-3
454.444	1	0
454.785	1	-4
455.126	1	14
455.467	1	-11
455.808	1	8
456.149	1	1
456.490	1	1
456.831	1	3
457.172	1	2
457.513	1	12
457.854	1	12
458.195	1	2
458.536	1	-2
458.877	1	5
459.218	1	0
459.559	1	3
459.899	1	5
460.240	1	4
460.581	1	6
460.922	1	6
461.263	1	-2
461.604	1	0
461.945	1	7
462.286	1	-6
462.627	1	13
462.968	1	9
463.309	1	6
463.649	1	17
463.990	1	-2
464.331	1	4
464.672	1	-6
465.013	1	5
465.354	1	-6
465.695	1	11
466.036	1	-7
466.376	1	-1
466.717	1	0
467.058	1	6
467.399	1	15
467.740	1	0
468.081	1	7
468.422	1	14
468.762	1	18
469.103	1	9
469.444	1	7
469.785	1	7
470.126	1	5
470.467	1	7
470.807	1	12
471.148	1	3
471.489	1	10
471.830	1	7
472.171	1	15
472.511	1	-3
472.852	1	10
473.193	1	9
473.534	1	15
473.875	1	1
474.215	1	-1
474.556	1	12
474.897	1	1
475.238	1	-3
475.578	1	4
475.919	1	12
476.260	1	18
476.601	1	12
476.942	1	-5
477.282	1	4
477.623	1	10
477.964	1	11
478.305	1	-2
478.645	1	0
478.986	1	-4
479.327	1	-15
479.667	1	5
480.008	1	10
480.349	1	5
480.690	1	5
481.030	1	9
481.371	1	6
481.712	1	6
482.053	1	2
482.393	1	7
482.734	1	13
483.075	1	4
483.415	1	4
483.756	1	2
484.097	1	-5
484.437	1	4
484.778	1	2
485.119	1	9
485.459	1	5
485.800	1	-2
486.141	1	9
486.481	1	15
486.822	1	9
487.163	1	16
487.503	1	10
487.844	1	14
488.185	1	6
488.525	1	4
488.866	1	15
489.207	1	12
489.547	1	15
489.888	1	16
490.228	1	1
490.569	1	9
490.910	1	8
491.250	1	19
491.591	1	9
491.932	1	9
492.272	1	9
492.613	1	10
492.953	1	11
493.294	1	10
493.635	1	0
493.975	1	14
494.316	1	12
494.656	1	14
494.997	1	8
495.337	1	14
495.678	1	11
496.019	1	5
496.359	1	11
496.700	1	13
497.040	1	15
497.381	1	15
497.721	1	9
498.062	1	9
498.403	1	13
498.743	1	13
499.084	1	12
499.424	1	19
499.765	1	6
500.105	1	8
500.446	1	9
500.786	1	8
501.127	1	12
501.467	1	7
501.808	1	4
502.148	1	15
502.489	1	6
502.829	1	7
503.170	1	20
503.510	1	19
503.851	1	10
504.191	1	11
504.532	1	5
504.872	1	8
505.213	1	7
505.553	1	13
505.894	1	29
506.234	1	17
506.575	1	15
506.915	1	13
507.256	1	13
507.596	1	21
507.936	1	15
508.277	1	0
508.617	1	13
508.958	1	9
509.298	1	17
509.639	1	21
509.979	1	23
510.319	1	12
510.660	1	2
511.000	1	15
511.341	1	22
511.681	1	12
512.022	1	20
512.362	1	10
512.702	1	12
513.043	1	20
513.383	1	21
513.724	1	13
514.064	1	18
514.404	1	4
514.745	1	10
515.085	1	18
515.425	1	26
515.766	1	12
516.106	1	14
516.447	1	18
516.787	1	21
517.127	1	19
517.468	1	29
517.808	1	19
518.148	1	10
518.489	1	20
518.829	1	18
519.169	1	19
519.510	1	18
519.850	1	14
520.190	1	16
520.531	1	27
520.871	1	18
521.211	1	12
521.552	1	24
521.892	1	16
522.232	1	16
522.573	1	22
522.913	1	21
523.253	1	31
523.593	1	15
523.934	1	14
524.274	1	20
524.614	1	19
524.955	1	11
525.295	1	17
525.635	1	31
525.975	1	31
526.316	1	28
526.656	1	25
526.996	1	22
527.337	1	19
527.677	1	18
528.017	1	14
528.357	1	7
528.698	1	19
529.038	1	18
529.378	1	14
529.718	1	32
530.058	1	33
530.399	1	23
530.739	1	22
531.079	1	28
531.419	1	26
531.760	1	29
532.100	1	23
532.440	1	22
532.780	1	21
533.120	1	26
533.461	1	9
533.801	1	33
534.141	1	25
534.481	1	32
534.821	1	23
535.162	1	16
535.502	1	19
535.842	1	26
536.182	1	19
536.522	1	29
536.862	1	13
537.203	1	18
537.543	1	19
537.883	1	20
538.223	1	17
538.563	1	14
538.903	1	21
539.243	1	19
539.584	1	19
539.924	1	17
540.264	1	26
540.604	1	6
540.944	1	8
541.284	1	15
541.624	1	11
541.964	1	19
542.305	1	10
542.645	1	17
542.985	1	14
543.325	1	23
543.665	1	23
544.005	1	32
544.345	1	26
544.685	1	20
545.025	1	18
545.365	1	15
545.705	1	23
546.045	1	10
546.386	1	16
546.726	1	15
547.066	1	26
547.406	1	22
547.746	1	12
548.086	1	21
548.426	1	21
548.766	1	16
549.106	1	21
549.446	1	22
549.786	1	14
550.126	1	22
550.466	1	14
550.806	1	14
551.146	1	22
551.486	1	20
551.826	1	21
552.166	1	11
552.506	1	20
552.846	1	13
553.186	1	17
553.526	1	13
553.866	1	11
554.206	1	13
554.546	1	5
554.886	1	2
555.226	1	8
555.566	1	17
555.906	1	13
556.246	1	12
556.586	1	14
556.926	1	21
557.266	1	19
557.606	1	19
557.946	1	19
558.286	1	25
558.626	1	28
558.966	1	27
559.306	1	16
559.646	1	5
559.986	1	23
560.325	1	7
560.665	1	5
561.005	1	15
561.345	1	11
561.685	1	6
562.025	1	7
562.365	1	21
562.705	1	21
563.045	1	8
563.385	1	18
563.725	1	5
564.064	1	25
564.404	1	3
564.744	1	14
565.084	1	10
565.424	1	11
565.764	1	13
566.104	1	19
566.444	1	16
566.783	1	10
567.123	1	18
567.463	1	7
567.803	1	9
568.143	1	7
568.483	1	7
568.823	1	9
569.162	1	20
569.502	1	11
569.842	1	5
570.182	1	6
570.522	1	16
570.862	1	8
571.201	1	11
571.541	1	5
571.881	1	12
572.221	1	12
572.561	1	9
572.900	1	3
573.240	1	9
573.580	1	10
573.920	1	25
574.260	1	7
574.599	1	11
574.939	1	7
575.279	1	13
575.619	1	13
575.959	1	-4
576.298	1	14
576.638	1	20
576.978	1	4
577.318	1	9
577.657	1	7
577.997	1	4
578.337	1	7
578.677	1	7
579.016	1	21
579.356	1	8
579.696	1	12
580.036	1	7
580.375	1	20
580.715	1	8
581.055	1	15
581.394	1	2
581.734	1	10
582.074	1	13
582.414	1	3
582.753	1	10
583.093	1	15
583.433	1	8
583.772	1	5
584.112	1	20
584.452	1	-3
584.791	1	4
585.131	1	14
585.471	1	13
585.811	1	1
586.150	1	9
586.490	1	13
586.830	1	-3
587.169	1	14
587.509	1	8
587.849	1	-3
588.188	1	9
588.528	1	4
588.867	1	10
589.207	1	5
589.547	1	22
589.886	1	3
590.226	1	8
590.566	1	2
590.905	1	19
591.245	1	8
591.585	1	6
591.924	1	10
592.264	1	0
592.603	1	11
592.943	1	14
593.283	1	8
593.622	1	6
593.962	1	5
594.301	1	8
594.641	1	10
594.981	1	13
595.320	1	7
595.660	1	5
595.999	1	8
596.339	1	9
596.678	1	-5
597.018	1	1
597.358	1	-2
597.697	1	5
598.037	1	5
598.376	1	4
598.716	1	13
599.055	1	7
599.395	1	7
599.734	1	13
600.074	1	9
600.413	1	0
600.753	1	12
601.092	1	11
601.432	1	2
601.771	1	4
602.111	1	5
602.451	1	14
602.790	1	19
603.130	1	5
603.469	1	5
603.809	1	3
604.148	1	11
604.487	1	6
604.827	1	5
605.166	1	5
605.506	1	-1
605.845	1	11
606.185	1	9
606.524	1	6
606.864	1	4
607.203	1	10
607.543	1	8
607.882	1	5
608.222	1	1
608.561	1	10
608.901	1	15
609.240	1	0
609.579	1	5
609.919	1	4
610.258	1	4
610.598	1	11
610.937	1	7
611.277	1	7
611.616	1	5
611.955	1	12
612.295	1	7
612.634	1	-2
612.974	1	11
613.313	1	0
613.652	1	12
613.992	1	1
614.331	1	7
614.671	1	17
615.010	1	11
615.349	1	14
615.689	1	14
616.028	1	0
616.368	1	6
616.707	1	9
617.046	1	1
617.386	1	7
617.725	1	13
618.064	1	1
618.404	1	2
618.743	1	9
619.082	1	13
619.422	1	-6
619.761	1	-2
620.100	1	1
620.440	1	9
620.779	1	3
621.118	1	4
621.458	1	-1
621.797	1	7
622.136	1	-2
622.476	1	-5
622.815	1	6
623.154	1	8
623.494	1	5
623.833	1	17
624.172	1	8
624.511	1	12
624.851	1	3
625.190	1	10
625.529	1	15
625.869	1	3
626.208	1	7
626.547	1	3
626.886	1	2
627.226	1	13
627.565	1	3
627.904	1	2
628.243	1	-8
628.583	1	0
628.922	1	1
629.261	1	-2
629.600	1	-5
629.940	1	8
630.279	1	5
630.618	1	0
630.957	1	5
631.297	1	5
631.636	1	14
631.975	1	2
632.314	1	5
632.653	1	12
632.993	1	5
633.332	1	5
633.671	1	16
634.010	1	7
634.349	1	-5
634.689	1	16
635.028	1	3
635.367	1	-10
635.706	1	6
636.045	1	5
636.384	1	-5
636.724	1	10
637.063	1	5
637.402	1	6
637.741	1	-1
638.080	1	16
638.419	1	-6
638.759	1	14
639.098	1	2
639.437	1	-2
639.776	1	9
640.115	1	3
640.454	1	6
640.793	1	-3
641.132	1	10
641.472	1	-3
641.811	1	16
642.150	1	5
642.489	1	-8
642.828	1	3
643.167	1	-3
643.506	1	0
643.845	1	9
644.184	1	12
644.524	1	4
644.863	1	-2
645.202	1	9
645.541	1	-1
645.880	1	11
646.219	1	0
646.558	1	8
646.897	1	6
647.236	1	4
647.575	1	0
647.914	1	5
648.253	1	6
648.592	1	2
648.931	1	10
649.270	1	-8
649.610	1	10
649.949	1	-2
650.288	1	5
650.627	1	3
650.966	1	8
651.305	1	-6
651.644	1	12
651.983	1	10
652.322	1	4
652.661	1	10
653.000	1	4
653.339	1	3
653.678	1	8
654.017	1	11
654.356	1	9
654.695	1	12
655.034	1	-1
655.373	1	3
655.712	1	0
656.051	1	-2
656.390	1	5
656.729	1	5
657.068	1	0
657.406	1	10
657.745	1	8
658.084	1	-1
658.423	1	5
658.762	1	1
659.101	1	5
659.440	1	4
659.779	1	13
660.118	1	10
660.457	1	8
660.796	1	-1
661.135	1	-2
661.474	1	6
661.813	1	-2
662.152	1	11
662.491	1	-3
662.829	1	-1
663.168	1	9
663.507	1	4
663.846	1	-1
664.185	1	6
664.524	1	3
664.863	1	10
665.202	1	14
665.541	1	7
665.879	1	11
666.218	1	25
666.557	1	4
666.896	1	13
667.235	1	1
667.574	1	-7
667.913	1	-5
668.251	1	11
668.590	1	-4
668.929	1	10
669.268	1	0
669.607	1	9
669.946	1	0
670.285	1	8
670.623	1	1
670.962	1	-1
671.301	1	10
671.640	1	8
671.979	1	12
672.317	1	13
672.656	1	14
672.995	1	2
673.334	1	6
673.673	1	-2
674.011	1	14
674.350	1	15
674.689	1	14
675.028	1	5
675.367	1	3
675.705	1	10
676.044	1	17
676.383	1	8
676.722	1	10
677.060	1	-1
677.399	1	2
677.738	1	3
678.077	1	18
678.416	1	-3
678.754	1	4
679.093	1	8
679.432	1	-2
679.771	1	5
680.109	1	7
680.448	1	6
680.787	1	-10
681.125	1	2
681.464	1	6
681.803	1	18
682.142	1	8
682.480	1	7
682.819	1	12
683.158	1	1
683.496	1	8
683.835	1	5
684.174	1	0
684.512	1	9
684.851	1	-3
685.190	1	-2
685.529	1	21
685.867	1	12
686.206	1	16
686.545	1	8
686.883	1	3
687.222	1	3
687.561	1	5
687.899	1	-3
688.238	1	0
688.577	1	14
688.746	1	-4