File: Data/GaN_170K_550ms/GaN_sample D_spot 18_UVVIS_170 K_200um_550 ms 2x2mm1_108.txt
340.368	1	-2
340.710	1	-15
341.052	1	5
341.394	1	-4
341.737	1	-3
342.079	1	0
342.421	1	1
342.763	1	-1
343.105	1	13
343.447	1	-6
343.789	1	15
344.131	1	-8
344.473	1	6
344.815	1	11
345.157	1	3
345.499	1	-2
345.841	1	12
346.183	1	2
346.526	1	13
346.868	1	4
347.210	1	-3
347.552	1	9
347.894	1	5
348.236	1	-2
348.578	1	10
348.920	1	4
349.262	1	1
349.604	1	11
349.946	1	10
350.288	1	6
350.630	1	18
350.972	1	-3
351.314	1	5
351.656	1	8
351.998	1	23
352.340	1	11
352.682	1	8
353.024	1	3
353.366	1	8
353.708	1	11
354.050	1	-4
354.392	1	11
354.734	1	13
355.076	1	4
355.418	1	5
355.760	1	8
356.102	1	8
356.444	1	4
356.785	1	16
357.127	1	5
357.469	1	0
357.811	1	8
358.153	1	8
358.495	1	10
358.837	1	18
359.179	1	8
359.521	1	18
359.863	1	4
360.205	1	21
360.547	1	23
360.889	1	23
361.231	1	21
361.572	1	26
361.914	1	26
362.256	1	21
362.598	1	31
362.940	1	40
363.282	1	41
363.624	1	41
363.966	1	45
364.308	1	39
364.649	1	44
364.991	1	57
365.333	1	60
365.675	1	57
366.017	1	56
366.359	1	63
366.701	1	65
367.042	1	55
367.384	1	80
367.726	1	80
368.068	1	67
368.410	1	73
368.752	1	81
369.093	1	73
369.435	1	68
369.777	1	77
370.119	1	73
370.461	1	82
370.803	1	59
371.144	1	62
371.486	1	47
371.828	1	52
372.170	1	56
372.512	1	42
372.853	1	55
373.195	1	64
373.537	1	61
373.879	1	56
374.220	1	51
374.562	1	43
374.904	1	37
375.246	1	40
375.588	1	37
375.929	1	41
376.271	1	42
376.613	1	24
376.955	1	37
377.296	1	30
377.638	1	31
377.980	1	25
378.321	1	28
378.663	1	14
379.005	1	19
379.347	1	28
379.688	1	25
380.030	1	21
380.372	1	22
380.714	1	34
381.055	1	18
381.397	1	13
381.739	1	10
382.080	1	11
382.422	1	19
382.764	1	16
383.105	1	21
383.447	1	23
383.789	1	29
384.130	1	5
384.472	1	7
384.814	1	20
385.156	1	8
385.497	1	23
385.839	1	4
386.180	1	11
386.522	1	17
386.864	1	15
387.205	1	-7
387.547	1	16
387.889	1	13
388.230	1	9
388.572	1	10
388.914	1	8
389.255	1	14
389.597	1	8
389.939	1	0
390.280	1	9
390.622	1	1
390.963	1	8
391.305	1	11
391.647	1	-2
391.988	1	8
392.330	1	15
392.671	1	2
393.013	1	11
393.355	1	5
393.696	1	9
394.038	1	-1
394.379	1	4
394.721	1	4
395.062	1	0
395.404	1	12
395.746	1	12
396.087	1	19
396.429	1	2
396.770	1	25
397.112	1	6
397.453	1	12
397.795	1	-1
398.136	1	4
398.478	1	9
398.819	1	11
399.161	1	1
399.503	1	12
399.844	1	4
400.186	1	3
400.527	1	29
400.869	1	2
401.210	1	12
401.552	1	8
401.893	1	8
402.235	1	15
402.576	1	0
402.918	1	8
403.259	1	8
403.601	1	6
403.942	1	14
404.284	1	-7
404.625	1	9
404.967	1	9
405.308	1	9
405.649	1	14
405.991	1	3
406.332	1	-7
406.674	1	9
407.015	1	8
407.357	1	9
407.698	1	6
408.040	1	-6
408.381	1	-2
408.722	1	0
409.064	1	4
409.405	1	8
409.747	1	4
410.088	1	15
410.430	1	-2
410.771	1	2
411.112	1	4
411.454	1	12
411.795	1	13
412.137	1	-4
412.478	1	-8
412.819	1	-11
413.161	1	8
413.502	1	19
413.844	1	9
414.185	1	1
414.526	1	6
414.868	1	-1
415.209	1	-5
415.550	1	2
415.892	1	3
416.233	1	16
416.575	1	2
416.916	1	-5
417.257	1	0
417.599	1	-2
417.940	1	2
418.281	1	0
418.623	1	9
418.964	1	-7
419.305	1	2
419.647	1	13
419.988	1	1
420.329	1	3
420.671	1	-2
421.012	1	6
421.353	1	7
421.695	1	-2
422.036	1	3
422.377	1	-2
422.718	1	7
423.060	1	3
423.401	1	5
423.742	1	3
424.084	1	19
424.425	1	-4
424.766	1	5
425.107	1	4
425.449	1	10
425.790	1	5
426.131	1	13
426.472	1	8
426.814	1	-5
427.155	1	10
427.496	1	-1
427.837	1	6
428.179	1	10
428.520	1	8
428.861	1	8
429.202	1	3
429.544	1	5
429.885	1	11
430.226	1	1
430.567	1	11
430.909	1	-1
431.250	1	19
431.591	1	2
431.932	1	0
432.273	1	-2
432.615	1	3
432.956	1	10
433.297	1	0
433.638	1	2
433.979	1	-3
434.320	1	4
434.662	1	-10
435.003	1	7
435.344	1	1
435.685	1	-6
436.026	1	8
436.368	1	7
436.709	1	-4
437.050	1	-12
437.391	1	0
437.732	1	3
438.073	1	0
438.414	1	-4
438.756	1	-3
439.097	1	2
439.438	1	2
439.779	1	15
440.120	1	5
440.461	1	14
440.802	1	17
441.143	1	2
441.485	1	-7
441.826	1	7
442.167	1	9
442.508	1	2
442.849	1	0
443.190	1	4
443.531	1	2
443.872	1	-3
444.213	1	1
444.554	1	0
444.895	1	-13
445.237	1	-4
445.578	1	6
445.919	1	2
446.260	1	11
446.601	1	-5
446.942	1	6
447.283	1	9
447.624	1	-3
447.965	1	5
448.306	1	1
448.647	1	-1
448.988	1	11
449.329	1	1
449.670	1	-1
450.011	1	13
450.352	1	-1
450.693	1	-4
451.034	1	-5
451.375	1	3
451.716	1	8
452.057	1	0
452.398	1	6
452.739	1	2
453.080	1	1
453.421	1	8
453.762	1	5
454.103	1	1
454.444	1	-2
454.785	1	4
455.126	1	10
455.467	1	-7
455.808	1	12
456.149	1	14
456.490	1	8
456.831	1	1
457.172	1	-4
457.513	1	11
457.854	1	12
458.195	1	4
458.536	1	-2
458.877	1	12
459.218	1	-3
459.559	1	7
459.899	1	4
460.240	1	0
460.581	1	9
460.922	1	4
461.263	1	-6
461.604	1	12
461.945	1	5
462.286	1	-1
462.627	1	3
462.968	1	15
463.309	1	4
463.649	1	10
463.990	1	-4
464.331	1	2
464.672	1	2
465.013	1	7
465.354	1	-4
465.695	1	6
466.036	1	-8
466.376	1	8
466.717	1	-7
467.058	1	11
467.399	1	15
467.740	1	-1
468.081	1	8
468.422	1	10
468.762	1	4
469.103	1	9
469.444	1	3
469.785	1	-1
470.126	1	2
470.467	1	9
470.807	1	-4
471.148	1	10
471.489	1	8
471.830	1	-4
472.171	1	5
472.511	1	-1
472.852	1	4
473.193	1	5
473.534	1	8
473.875	1	8
474.215	1	3
474.556	1	8
474.897	1	13
475.238	1	5
475.578	1	8
475.919	1	0
476.260	1	7
476.601	1	4
476.942	1	-6
477.282	1	6
477.623	1	10
477.964	1	3
478.305	1	0
478.645	1	11
478.986	1	1
479.327	1	-3
479.667	1	0
480.008	1	-5
480.349	1	11
480.690	1	11
481.030	1	10
481.371	1	12
481.712	1	7
482.053	1	-5
482.393	1	4
482.734	1	1
483.075	1	5
483.415	1	7
483.756	1	4
484.097	1	-6
484.437	1	-2
484.778	1	-7
485.119	1	4
485.459	1	1
485.800	1	2
486.141	1	16
486.481	1	9
486.822	1	5
487.163	1	5
487.503	1	6
487.844	1	4
488.185	1	3
488.525	1	12
488.866	1	10
489.207	1	13
489.547	1	11
489.888	1	8
490.228	1	4
490.569	1	10
490.910	1	14
491.250	1	7
491.591	1	10
491.932	1	17
492.272	1	11
492.613	1	5
492.953	1	11
493.294	1	1
493.635	1	3
493.975	1	12
494.316	1	4
494.656	1	7
494.997	1	6
495.337	1	5
495.678	1	2
496.019	1	-1
496.359	1	10
496.700	1	14
497.040	1	2
497.381	1	18
497.721	1	0
498.062	1	2
498.403	1	6
498.743	1	12
499.084	1	10
499.424	1	16
499.765	1	-9
500.105	1	1
500.446	1	-5
500.786	1	9
501.127	1	13
501.467	1	3
501.808	1	5
502.148	1	17
502.489	1	7
502.829	1	-2
503.170	1	4
503.510	1	0
503.851	1	5
504.191	1	-4
504.532	1	-5
504.872	1	4
505.213	1	7
505.553	1	11
505.894	1	16
506.234	1	6
506.575	1	10
506.915	1	19
507.256	1	10
507.596	1	19
507.936	1	14
508.277	1	5
508.617	1	13
508.958	1	11
509.298	1	10
509.639	1	20
509.979	1	5
510.319	1	0
510.660	1	-5
511.000	1	12
511.341	1	20
511.681	1	9
512.022	1	16
512.362	1	6
512.702	1	5
513.043	1	8
513.383	1	11
513.724	1	12
514.064	1	9
514.404	1	-8
514.745	1	10
515.085	1	11
515.425	1	11
515.766	1	5
516.106	1	16
516.447	1	5
516.787	1	9
517.127	1	9
517.468	1	17
517.808	1	22
518.148	1	8
518.489	1	16
518.829	1	16
519.169	1	18
519.510	1	18
519.850	1	6
520.190	1	12
520.531	1	18
520.871	1	1
521.211	1	17
521.552	1	10
521.892	1	16
522.232	1	1
522.573	1	16
522.913	1	21
523.253	1	18
523.593	1	8
523.934	1	4
524.274	1	9
524.614	1	16
524.955	1	11
525.295	1	8
525.635	1	12
525.975	1	13
526.316	1	16
526.656	1	17
526.996	1	12
527.337	1	14
527.677	1	11
528.017	1	15
528.357	1	12
528.698	1	-6
529.038	1	4
529.378	1	11
529.718	1	24
530.058	1	20
530.399	1	14
530.739	1	15
531.079	1	5
531.419	1	23
531.760	1	8
532.100	1	11
532.440	1	12
532.780	1	8
533.120	1	22
533.461	1	12
533.801	1	12
534.141	1	-5
534.481	1	24
534.821	1	16
535.162	1	17
535.502	1	16
535.842	1	17
536.182	1	20
536.522	1	17
536.862	1	20
537.203	1	13
537.543	1	8
537.883	1	15
538.223	1	12
538.563	1	15
538.903	1	8
539.243	1	6
539.584	1	9
539.924	1	0
540.264	1	13
540.604	1	8
540.944	1	2
541.284	1	16
541.624	1	4
541.964	1	12
542.305	1	10
542.645	1	3
542.985	1	17
543.325	1	17
543.665	1	13
544.005	1	18
544.345	1	6
544.685	1	11
545.025	1	12
545.365	1	12
545.705	1	15
546.045	1	12
546.386	1	8
546.726	1	13
547.066	1	17
547.406	1	6
547.746	1	10
548.086	1	20
548.426	1	23
548.766	1	11
549.106	1	23
549.446	1	11
549.786	1	7
550.126	1	11
550.466	1	11
550.806	1	8
551.146	1	12
551.486	1	11
551.826	1	12
552.166	1	5
552.506	1	12
552.846	1	-2
553.186	1	10
553.526	1	8
553.866	1	7
554.206	1	14
554.546	1	-3
554.886	1	10
555.226	1	0
555.566	1	11
555.906	1	5
556.246	1	13
556.586	1	9
556.926	1	1
557.266	1	10
557.606	1	6
557.946	1	11
558.286	1	6
558.626	1	22
558.966	1	8
559.306	1	21
559.646	1	6
559.986	1	19
560.325	1	12
560.665	1	10
561.005	1	10
561.345	1	1
561.685	1	9
562.025	1	-1
562.365	1	2
562.705	1	16
563.045	1	11
563.385	1	20
563.725	1	6
564.064	1	4
564.404	1	11
564.744	1	13
565.084	1	10
565.424	1	12
565.764	1	2
566.104	1	4
566.444	1	6
566.783	1	20
567.123	1	6
567.463	1	3
567.803	1	12
568.143	1	7
568.483	1	3
568.823	1	10
569.162	1	3
569.502	1	10
569.842	1	9
570.182	1	-3
570.522	1	10
570.862	1	9
571.201	1	11
571.541	1	2
571.881	1	5
572.221	1	11
572.561	1	10
572.900	1	0
573.240	1	8
573.580	1	7
573.920	1	16
574.260	1	10
574.599	1	9
574.939	1	-1
575.279	1	3
575.619	1	10
575.959	1	-6
576.298	1	8
576.638	1	10
576.978	1	1
577.318	1	9
577.657	1	4
577.997	1	-1
578.337	1	12
578.677	1	12
579.016	1	8
579.356	1	11
579.696	1	-6
580.036	1	7
580.375	1	14
580.715	1	0
581.055	1	11
581.394	1	3
581.734	1	9
582.074	1	15
582.414	1	3
582.753	1	6
583.093	1	15
583.433	1	13
583.772	1	10
584.112	1	11
584.452	1	0
584.791	1	8
585.131	1	16
585.471	1	2
585.811	1	5
586.150	1	5
586.490	1	8
586.830	1	-4
587.169	1	23
587.509	1	12
587.849	1	4
588.188	1	7
588.528	1	7
588.867	1	2
589.207	1	0
589.547	1	9
589.886	1	8
590.226	1	3
590.566	1	9
590.905	1	5
591.245	1	4
591.585	1	1
591.924	1	1
592.264	1	0
592.603	1	-4
592.943	1	13
593.283	1	10
593.622	1	-4
593.962	1	-2
594.301	1	15
594.641	1	7
594.981	1	17
595.320	1	10
595.660	1	2
595.999	1	5
596.339	1	5
596.678	1	-2
597.018	1	-6
597.358	1	-8
597.697	1	4
598.037	1	3
598.376	1	-9
598.716	1	12
599.055	1	5
599.395	1	-4
599.734	1	5
600.074	1	4
600.413	1	-1
600.753	1	18
601.092	1	7
601.432	1	-2
601.771	1	5
602.111	1	9
602.451	1	6
602.790	1	10
603.130	1	-2
603.469	1	3
603.809	1	4
604.148	1	9
604.487	1	7
604.827	1	-8
605.166	1	5
605.506	1	-7
605.845	1	8
606.185	1	10
606.524	1	1
606.864	1	1
607.203	1	5
607.543	1	13
607.882	1	5
608.222	1	2
608.561	1	6
608.901	1	1
609.240	1	-2
609.579	1	2
609.919	1	6
610.258	1	10
610.598	1	14
610.937	1	1
611.277	1	10
611.616	1	2
611.955	1	4
612.295	1	-1
612.634	1	-1
612.974	1	1
613.313	1	-4
613.652	1	11
613.992	1	5
614.331	1	6
614.671	1	15
615.010	1	9
615.349	1	-2
615.689	1	9
616.028	1	-2
616.368	1	-1
616.707	1	9
617.046	1	-4
617.386	1	-1
617.725	1	0
618.064	1	1
618.404	1	7
618.743	1	3
619.082	1	16
619.422	1	-3
619.761	1	4
620.100	1	-1
620.440	1	20
620.779	1	9
621.118	1	-4
621.458	1	10
621.797	1	4
622.136	1	1
622.476	1	-3
622.815	1	-1
623.154	1	5
623.494	1	-1
623.833	1	12
624.172	1	-4
624.511	1	7
624.851	1	-1
625.190	1	12
625.529	1	8
625.869	1	11
626.208	1	11
626.547	1	0
626.886	1	4
627.226	1	5
627.565	1	8
627.904	1	0
628.243	1	4
628.583	1	0
628.922	1	-3
629.261	1	6
629.600	1	-2
629.940	1	7
630.279	1	-5
630.618	1	-4
630.957	1	6
631.297	1	-4
631.636	1	13
631.975	1	-3
632.314	1	-5
632.653	1	10
632.993	1	2
633.332	1	-1
633.671	1	10
634.010	1	0
634.349	1	0
634.689	1	6
635.028	1	12
635.367	1	4
635.706	1	6
636.045	1	11
636.384	1	1
636.724	1	5
637.063	1	2
637.402	1	10
637.741	1	2
638.080	1	12
638.419	1	2
638.759	1	6
639.098	1	-8
639.437	1	-5
639.776	1	-3
640.115	1	12
640.454	1	-1
640.793	1	-8
641.132	1	7
641.472	1	3
641.811	1	13
642.150	1	6
642.489	1	-5
642.828	1	-3
643.167	1	0
643.506	1	7
643.845	1	2
644.184	1	13
644.524	1	7
644.863	1	-1
645.202	1	12
645.541	1	4
645.880	1	8
646.219	1	2
646.558	1	10
646.897	1	10
647.236	1	-2
647.575	1	-4
647.914	1	11
648.253	1	9
648.592	1	6
648.931	1	8
649.270	1	-1
649.610	1	9
649.949	1	-11
650.288	1	0
650.627	1	6
650.966	1	8
651.305	1	-1
651.644	1	9
651.983	1	12
652.322	1	4
652.661	1	3
653.000	1	-6
653.339	1	-8
653.678	1	7
654.017	1	1
654.356	1	4
654.695	1	7
655.034	1	0
655.373	1	6
655.712	1	-5
656.051	1	2
656.390	1	-4
656.729	1	9
657.068	1	6
657.406	1	7
657.745	1	6
658.084	1	-8
658.423	1	3
658.762	1	2
659.101	1	5
659.440	1	1
659.779	1	2
660.118	1	3
660.457	1	7
660.796	1	-4
661.135	1	-3
661.474	1	10
661.813	1	-2
662.152	1	-5
662.491	1	-7
662.829	1	-3
663.168	1	-3
663.507	1	9
663.846	1	0
664.185	1	6
664.524	1	4
664.863	1	2
665.202	1	7
665.541	1	6
665.879	1	6
666.218	1	13
666.557	1	2
666.896	1	4
667.235	1	2
667.574	1	-4
667.913	1	-2
668.251	1	1
668.590	1	3
668.929	1	5
669.268	1	-1
669.607	1	1
669.946	1	3
670.285	1	13
670.623	1	1
670.962	1	-9
671.301	1	5
671.640	1	14
671.979	1	4
672.317	1	7
672.656	1	3
672.995	1	1
673.334	1	-6
673.673	1	-1
674.011	1	11
674.350	1	4
674.689	1	4
675.028	1	4
675.367	1	1
675.705	1	13
676.044	1	19
676.383	1	4
676.722	1	13
677.060	1	-5
677.399	1	2
677.738	1	0
678.077	1	16
678.416	1	-6
678.754	1	9
679.093	1	10
679.432	1	4
679.771	1	12
680.109	1	1
680.448	1	12
680.787	1	-1
681.125	1	14
681.464	1	6
681.803	1	6
682.142	1	3
682.480	1	4
682.819	1	15
683.158	1	3
683.496	1	11
683.835	1	1
684.174	1	6
684.512	1	3
684.851	1	5
685.190	1	-3
685.529	1	10
685.867	1	10
686.206	1	6
686.545	1	18
686.883	1	7
687.222	1	3
687.561	1	8
687.899	1	-9
688.238	1	4
688.577	1	14
688.746	1	-6