File: Data/GaN_170K_550ms/GaN_sample D_spot 18_UVVIS_170 K_200um_550 ms 2x2mm1_246.txt
340.368	1	0
340.710	1	-15
341.052	1	7
341.394	1	-3
341.737	1	-3
342.079	1	-4
342.421	1	-1
342.763	1	9
343.105	1	3
343.447	1	-11
343.789	1	6
344.131	1	-8
344.473	1	5
344.815	1	8
345.157	1	6
345.499	1	-8
345.841	1	-2
346.183	1	5
346.526	1	8
346.868	1	6
347.210	1	-14
347.552	1	11
347.894	1	6
348.236	1	-9
348.578	1	6
348.920	1	-5
349.262	1	5
349.604	1	14
349.946	1	8
350.288	1	0
350.630	1	6
350.972	1	-17
351.314	1	-1
351.656	1	-1
351.998	1	4
352.340	1	0
352.682	1	0
353.024	1	0
353.366	1	5
353.708	1	11
354.050	1	0
354.392	1	9
354.734	1	8
355.076	1	2
355.418	1	-5
355.760	1	-4
356.102	1	-1
356.444	1	-6
356.785	1	4
357.127	1	-8
357.469	1	-1
357.811	1	2
358.153	1	7
358.495	1	4
358.837	1	6
359.179	1	-2
359.521	1	7
359.863	1	1
360.205	1	14
360.547	1	13
360.889	1	11
361.231	1	9
361.572	1	13
361.914	1	2
362.256	1	15
362.598	1	5
362.940	1	14
363.282	1	4
363.624	1	8
363.966	1	3
364.308	1	8
364.649	1	3
364.991	1	10
365.333	1	1
365.675	1	12
366.017	1	6
366.359	1	3
366.701	1	14
367.042	1	5
367.384	1	16
367.726	1	24
368.068	1	13
368.410	1	15
368.752	1	13
369.093	1	2
369.435	1	8
369.777	1	8
370.119	1	9
370.461	1	12
370.803	1	11
371.144	1	5
371.486	1	4
371.828	1	7
372.170	1	11
372.512	1	1
372.853	1	20
373.195	1	6
373.537	1	15
373.879	1	11
374.220	1	12
374.562	1	7
374.904	1	4
375.246	1	8
375.588	1	9
375.929	1	9
376.271	1	9
376.613	1	14
376.955	1	15
377.296	1	10
377.638	1	5
377.980	1	-5
378.321	1	9
378.663	1	4
379.005	1	-1
379.347	1	3
379.688	1	-6
380.030	1	11
380.372	1	6
380.714	1	7
381.055	1	15
381.397	1	-3
381.739	1	5
382.080	1	5
382.422	1	9
382.764	1	-4
383.105	1	12
383.447	1	13
383.789	1	20
384.130	1	-7
384.472	1	-7
384.814	1	5
385.156	1	-5
385.497	1	7
385.839	1	-8
386.180	1	9
386.522	1	7
386.864	1	3
387.205	1	3
387.547	1	5
387.889	1	10
388.230	1	1
388.572	1	9
388.914	1	-2
389.255	1	10
389.597	1	11
389.939	1	8
390.280	1	5
390.622	1	3
390.963	1	-7
391.305	1	4
391.647	1	0
391.988	1	9
392.330	1	1
392.671	1	-6
393.013	1	1
393.355	1	11
393.696	1	6
394.038	1	-5
394.379	1	-4
394.721	1	2
395.062	1	2
395.404	1	-1
395.746	1	17
396.087	1	1
396.429	1	-1
396.770	1	10
397.112	1	0
397.453	1	-1
397.795	1	2
398.136	1	2
398.478	1	2
398.819	1	-1
399.161	1	-1
399.503	1	1
399.844	1	0
400.186	1	2
400.527	1	16
400.869	1	-2
401.210	1	3
401.552	1	6
401.893	1	3
402.235	1	8
402.576	1	2
402.918	1	-1
403.259	1	5
403.601	1	10
403.942	1	8
404.284	1	-15
404.625	1	5
404.967	1	2
405.308	1	2
405.649	1	5
405.991	1	1
406.332	1	-5
406.674	1	3
407.015	1	2
407.357	1	-2
407.698	1	5
408.040	1	-2
408.381	1	5
408.722	1	-5
409.064	1	-4
409.405	1	9
409.747	1	0
410.088	1	11
410.430	1	-8
410.771	1	-2
411.112	1	0
411.454	1	1
411.795	1	15
412.137	1	-7
412.478	1	-2
412.819	1	-8
413.161	1	4
413.502	1	-4
413.844	1	4
414.185	1	-6
414.526	1	9
414.868	1	6
415.209	1	-10
415.550	1	4
415.892	1	3
416.233	1	2
416.575	1	-1
416.916	1	-1
417.257	1	3
417.599	1	3
417.940	1	0
418.281	1	-5
418.623	1	3
418.964	1	-10
419.305	1	4
419.647	1	8
419.988	1	2
420.329	1	-4
420.671	1	0
421.012	1	-5
421.353	1	3
421.695	1	-5
422.036	1	5
422.377	1	5
422.718	1	6
423.060	1	-5
423.401	1	1
423.742	1	-1
424.084	1	14
424.425	1	-14
424.766	1	0
425.107	1	-6
425.449	1	15
425.790	1	9
426.131	1	6
426.472	1	0
426.814	1	-14
427.155	1	16
427.496	1	-11
427.837	1	1
428.179	1	-3
428.520	1	2
428.861	1	0
429.202	1	-7
429.544	1	-4
429.885	1	8
430.226	1	3
430.567	1	9
430.909	1	-5
431.250	1	12
431.591	1	-1
431.932	1	-9
432.273	1	0
432.615	1	3
432.956	1	-1
433.297	1	-5
433.638	1	3
433.979	1	-3
434.320	1	10
434.662	1	-9
435.003	1	5
435.344	1	-1
435.685	1	3
436.026	1	-2
436.368	1	8
436.709	1	0
437.050	1	-6
437.391	1	-6
437.732	1	1
438.073	1	0
438.414	1	-1
438.756	1	-2
439.097	1	1
439.438	1	3
439.779	1	6
440.120	1	-2
440.461	1	10
440.802	1	19
441.143	1	1
441.485	1	-3
441.826	1	8
442.167	1	-1
442.508	1	-2
442.849	1	-8
443.190	1	-1
443.531	1	-1
443.872	1	1
444.213	1	0
444.554	1	-5
444.895	1	-12
445.237	1	-9
445.578	1	10
445.919	1	4
446.260	1	5
446.601	1	5
446.942	1	10
447.283	1	5
447.624	1	-2
447.965	1	0
448.306	1	-2
448.647	1	-9
448.988	1	12
449.329	1	-8
449.670	1	-16
450.011	1	5
450.352	1	-3
450.693	1	-6
451.034	1	-4
451.375	1	-5
451.716	1	4
452.057	1	4
452.398	1	4
452.739	1	6
453.080	1	4
453.421	1	3
453.762	1	-1
454.103	1	-1
454.444	1	-4
454.785	1	2
455.126	1	13
455.467	1	-13
455.808	1	6
456.149	1	2
456.490	1	6
456.831	1	-1
457.172	1	6
457.513	1	12
457.854	1	8
458.195	1	7
458.536	1	-2
458.877	1	2
459.218	1	4
459.559	1	-1
459.899	1	-3
460.240	1	2
460.581	1	11
460.922	1	-1
461.263	1	4
461.604	1	12
461.945	1	2
462.286	1	-11
462.627	1	8
462.968	1	5
463.309	1	3
463.649	1	7
463.990	1	-4
464.331	1	-1
464.672	1	3
465.013	1	13
465.354	1	-5
465.695	1	9
466.036	1	-6
466.376	1	-6
466.717	1	1
467.058	1	-1
467.399	1	9
467.740	1	1
468.081	1	-5
468.422	1	4
468.762	1	6
469.103	1	3
469.444	1	0
469.785	1	-1
470.126	1	5
470.467	1	3
470.807	1	-3
471.148	1	-6
471.489	1	4
471.830	1	-2
472.171	1	0
472.511	1	4
472.852	1	1
473.193	1	3
473.534	1	3
473.875	1	7
474.215	1	4
474.556	1	6
474.897	1	4
475.238	1	6
475.578	1	2
475.919	1	-3
476.260	1	3
476.601	1	0
476.942	1	-9
477.282	1	8
477.623	1	9
477.964	1	4
478.305	1	-7
478.645	1	4
478.986	1	4
479.327	1	-13
479.667	1	0
480.008	1	7
480.349	1	7
480.690	1	6
481.030	1	12
481.371	1	4
481.712	1	-5
482.053	1	-7
482.393	1	1
482.734	1	5
483.075	1	-1
483.415	1	-1
483.756	1	1
484.097	1	-13
484.437	1	-2
484.778	1	-11
485.119	1	8
485.459	1	-2
485.800	1	-5
486.141	1	10
486.481	1	-2
486.822	1	1
487.163	1	2
487.503	1	2
487.844	1	2
488.185	1	8
488.525	1	13
488.866	1	9
489.207	1	7
489.547	1	8
489.888	1	8
490.228	1	-12
490.569	1	4
490.910	1	-4
491.250	1	2
491.591	1	0
491.932	1	5
492.272	1	11
492.613	1	-2
492.953	1	-11
493.294	1	3
493.635	1	-5
493.975	1	2
494.316	1	0
494.656	1	1
494.997	1	2
495.337	1	7
495.678	1	-5
496.019	1	-10
496.359	1	8
496.700	1	8
497.040	1	-2
497.381	1	8
497.721	1	-6
498.062	1	-5
498.403	1	-5
498.743	1	1
499.084	1	0
499.424	1	1
499.765	1	-10
500.105	1	-2
500.446	1	3
500.786	1	-2
501.127	1	0
501.467	1	-6
501.808	1	-15
502.148	1	10
502.489	1	-4
502.829	1	3
503.170	1	9
503.510	1	-4
503.851	1	-3
504.191	1	-5
504.532	1	-8
504.872	1	-7
505.213	1	-3
505.553	1	2
505.894	1	3
506.234	1	-10
506.575	1	7
506.915	1	12
507.256	1	-5
507.596	1	8
507.936	1	10
508.277	1	-4
508.617	1	2
508.958	1	-3
509.298	1	1
509.639	1	4
509.979	1	2
510.319	1	-7
510.660	1	-8
511.000	1	9
511.341	1	10
511.681	1	0
512.022	1	1
512.362	1	-4
512.702	1	7
513.043	1	0
513.383	1	-1
513.724	1	0
514.064	1	6
514.404	1	-4
514.745	1	5
515.085	1	-3
515.425	1	3
515.766	1	6
516.106	1	5
516.447	1	-8
516.787	1	-1
517.127	1	4
517.468	1	5
517.808	1	4
518.148	1	6
518.489	1	15
518.829	1	-9
519.169	1	-1
519.510	1	11
519.850	1	6
520.190	1	3
520.531	1	9
520.871	1	5
521.211	1	11
521.552	1	3
521.892	1	-4
522.232	1	-6
522.573	1	4
522.913	1	8
523.253	1	11
523.593	1	-4
523.934	1	-1
524.274	1	-2
524.614	1	8
524.955	1	4
525.295	1	2
525.635	1	9
525.975	1	0
526.316	1	6
526.656	1	4
526.996	1	-1
527.337	1	1
527.677	1	-2
528.017	1	6
528.357	1	-3
528.698	1	-9
529.038	1	-1
529.378	1	0
529.718	1	9
530.058	1	6
530.399	1	8
530.739	1	0
531.079	1	9
531.419	1	12
531.760	1	5
532.100	1	-4
532.440	1	9
532.780	1	-3
533.120	1	1
533.461	1	4
533.801	1	2
534.141	1	-4
534.481	1	6
534.821	1	7
535.162	1	2
535.502	1	3
535.842	1	5
536.182	1	2
536.522	1	4
536.862	1	8
537.203	1	-3
537.543	1	3
537.883	1	11
538.223	1	0
538.563	1	5
538.903	1	2
539.243	1	-8
539.584	1	-5
539.924	1	-2
540.264	1	4
540.604	1	-6
540.944	1	-4
541.284	1	-2
541.624	1	-15
541.964	1	-2
542.305	1	8
542.645	1	-4
542.985	1	5
543.325	1	6
543.665	1	1
544.005	1	6
544.345	1	5
544.685	1	7
545.025	1	-1
545.365	1	7
545.705	1	9
546.045	1	5
546.386	1	-4
546.726	1	2
547.066	1	9
547.406	1	-5
547.746	1	-3
548.086	1	4
548.426	1	10
548.766	1	-2
549.106	1	14
549.446	1	16
549.786	1	-6
550.126	1	8
550.466	1	1
550.806	1	6
551.146	1	4
551.486	1	-8
551.826	1	9
552.166	1	5
552.506	1	3
552.846	1	-5
553.186	1	11
553.526	1	-4
553.866	1	0
554.206	1	6
554.546	1	-8
554.886	1	-1
555.226	1	0
555.566	1	6
555.906	1	-2
556.246	1	-6
556.586	1	-3
556.926	1	4
557.266	1	6
557.606	1	2
557.946	1	3
558.286	1	0
558.626	1	10
558.966	1	6
559.306	1	11
559.646	1	2
559.986	1	-7
560.325	1	2
560.665	1	6
561.005	1	4
561.345	1	-10
561.685	1	2
562.025	1	-2
562.365	1	3
562.705	1	0
563.045	1	-1
563.385	1	3
563.725	1	-2
564.064	1	4
564.404	1	-7
564.744	1	3
565.084	1	2
565.424	1	1
565.764	1	1
566.104	1	2
566.444	1	7
566.783	1	9
567.123	1	4
567.463	1	1
567.803	1	3
568.143	1	1
568.483	1	8
568.823	1	0
569.162	1	-1
569.502	1	-2
569.842	1	3
570.182	1	2
570.522	1	5
570.862	1	1
571.201	1	3
571.541	1	-3
571.881	1	-3
572.221	1	6
572.561	1	8
572.900	1	-4
573.240	1	0
573.580	1	3
573.920	1	5
574.260	1	5
574.599	1	-7
574.939	1	-7
575.279	1	3
575.619	1	11
575.959	1	-4
576.298	1	7
576.638	1	12
576.978	1	-2
577.318	1	9
577.657	1	5
577.997	1	0
578.337	1	0
578.677	1	2
579.016	1	11
579.356	1	13
579.696	1	2
580.036	1	-4
580.375	1	-3
580.715	1	1
581.055	1	-5
581.394	1	-1
581.734	1	7
582.074	1	9
582.414	1	-1
582.753	1	1
583.093	1	7
583.433	1	8
583.772	1	-5
584.112	1	3
584.452	1	0
584.791	1	-2
585.131	1	6
585.471	1	7
585.811	1	-4
586.150	1	-8
586.490	1	8
586.830	1	-6
587.169	1	6
587.509	1	-1
587.849	1	-1
588.188	1	5
588.528	1	-4
588.867	1	3
589.207	1	-5
589.547	1	7
589.886	1	-14
590.226	1	6
590.566	1	-1
590.905	1	5
591.245	1	3
591.585	1	-2
591.924	1	0
592.264	1	-3
592.603	1	-3
592.943	1	-6
593.283	1	8
593.622	1	-3
593.962	1	3
594.301	1	3
594.641	1	5
594.981	1	14
595.320	1	5
595.660	1	3
595.999	1	0
596.339	1	6
596.678	1	-8
597.018	1	4
597.358	1	-8
597.697	1	-10
598.037	1	3
598.376	1	-2
598.716	1	9
599.055	1	6
599.395	1	1
599.734	1	9
600.074	1	-3
600.413	1	1
600.753	1	4
601.092	1	-2
601.432	1	-7
601.771	1	8
602.111	1	-3
602.451	1	15
602.790	1	7
603.130	1	-7
603.469	1	-3
603.809	1	2
604.148	1	1
604.487	1	0
604.827	1	-8
605.166	1	7
605.506	1	0
605.845	1	2
606.185	1	0
606.524	1	1
606.864	1	-6
607.203	1	1
607.543	1	0
607.882	1	5
608.222	1	-2
608.561	1	5
608.901	1	2
609.240	1	4
609.579	1	-3
609.919	1	-5
610.258	1	-2
610.598	1	5
610.937	1	1
611.277	1	9
611.616	1	2
611.955	1	0
612.295	1	-9
612.634	1	2
612.974	1	6
613.313	1	-1
613.652	1	11
613.992	1	1
614.331	1	0
614.671	1	12
615.010	1	4
615.349	1	4
615.689	1	10
616.028	1	2
616.368	1	9
616.707	1	0
617.046	1	-4
617.386	1	-1
617.725	1	4
618.064	1	-1
618.404	1	4
618.743	1	-3
619.082	1	5
619.422	1	-2
619.761	1	0
620.100	1	6
620.440	1	10
620.779	1	-3
621.118	1	-4
621.458	1	4
621.797	1	-6
622.136	1	3
622.476	1	1
622.815	1	4
623.154	1	13
623.494	1	-2
623.833	1	-5
624.172	1	0
624.511	1	3
624.851	1	-4
625.190	1	6
625.529	1	13
625.869	1	0
626.208	1	3
626.547	1	-1
626.886	1	4
627.226	1	4
627.565	1	4
627.904	1	5
628.243	1	1
628.583	1	10
628.922	1	5
629.261	1	4
629.600	1	-3
629.940	1	-2
630.279	1	8
630.618	1	-9
630.957	1	6
631.297	1	-7
631.636	1	16
631.975	1	1
632.314	1	2
632.653	1	6
632.993	1	3
633.332	1	7
633.671	1	1
634.010	1	7
634.349	1	-3
634.689	1	7
635.028	1	0
635.367	1	0
635.706	1	0
636.045	1	0
636.384	1	-10
636.724	1	11
637.063	1	6
637.402	1	7
637.741	1	-7
638.080	1	-4
638.419	1	-13
638.759	1	5
639.098	1	-4
639.437	1	-15
639.776	1	0
640.115	1	1
640.454	1	7
640.793	1	-1
641.132	1	-3
641.472	1	-2
641.811	1	5
642.150	1	-5
642.489	1	-12
642.828	1	-4
643.167	1	-7
643.506	1	8
643.845	1	2
644.184	1	6
644.524	1	-1
644.863	1	-10
645.202	1	9
645.541	1	4
645.880	1	4
646.219	1	2
646.558	1	-1
646.897	1	1
647.236	1	-1
647.575	1	-10
647.914	1	0
648.253	1	-3
648.592	1	-2
648.931	1	7
649.270	1	-8
649.610	1	10
649.949	1	-6
650.288	1	6
650.627	1	-8
650.966	1	6
651.305	1	-4
651.644	1	3
651.983	1	1
652.322	1	9
652.661	1	7
653.000	1	-6
653.339	1	-5
653.678	1	4
654.017	1	-1
654.356	1	-3
654.695	1	12
655.034	1	-4
655.373	1	10
655.712	1	-18
656.051	1	-1
656.390	1	3
656.729	1	0
657.068	1	-3
657.406	1	1
657.745	1	5
658.084	1	-2
658.423	1	4
658.762	1	-3
659.101	1	5
659.440	1	-1
659.779	1	1
660.118	1	15
660.457	1	9
660.796	1	-8
661.135	1	-16
661.474	1	6
661.813	1	-4
662.152	1	1
662.491	1	-8
662.829	1	-2
663.168	1	-5
663.507	1	7
663.846	1	-6
664.185	1	2
664.524	1	-2
664.863	1	1
665.202	1	11
665.541	1	1
665.879	1	5
666.218	1	13
666.557	1	2
666.896	1	3
667.235	1	1
667.574	1	-11
667.913	1	-4
668.251	1	3
668.590	1	8
668.929	1	7
669.268	1	2
669.607	1	-11
669.946	1	1
670.285	1	8
670.623	1	-1
670.962	1	-3
671.301	1	0
671.640	1	-3
671.979	1	3
672.317	1	5
672.656	1	1
672.995	1	-1
673.334	1	-6
673.673	1	-5
674.011	1	2
674.350	1	5
674.689	1	13
675.028	1	1
675.367	1	9
675.705	1	7
676.044	1	3
676.383	1	6
676.722	1	5
677.060	1	-9
677.399	1	-3
677.738	1	-1
678.077	1	17
678.416	1	1
678.754	1	2
679.093	1	6
679.432	1	4
679.771	1	7
680.109	1	-2
680.448	1	8
680.787	1	-2
681.125	1	4
681.464	1	1
681.803	1	5
682.142	1	5
682.480	1	3
682.819	1	6
683.158	1	-3
683.496	1	3
683.835	1	2
684.174	1	9
684.512	1	2
684.851	1	-8
685.190	1	-3
685.529	1	5
685.867	1	8
686.206	1	5
686.545	1	3
686.883	1	6
687.222	1	4
687.561	1	0
687.899	1	0
688.238	1	-1
688.577	1	3
688.746	1	1