File: Data/GaN_170K_550ms/GaN_sample D_spot 18_UVVIS_170 K_200um_550 ms 2x2mm1_86.txt
340.368	1	-2
340.710	1	-5
341.052	1	7
341.394	1	10
341.737	1	0
342.079	1	-7
342.421	1	11
342.763	1	0
343.105	1	16
343.447	1	-4
343.789	1	14
344.131	1	-1
344.473	1	0
344.815	1	13
345.157	1	1
345.499	1	2
345.841	1	5
346.183	1	10
346.526	1	10
346.868	1	6
347.210	1	0
347.552	1	14
347.894	1	-1
348.236	1	5
348.578	1	5
348.920	1	9
349.262	1	6
349.604	1	9
349.946	1	6
350.288	1	8
350.630	1	20
350.972	1	-9
351.314	1	11
351.656	1	6
351.998	1	14
352.340	1	7
352.682	1	2
353.024	1	5
353.366	1	8
353.708	1	13
354.050	1	1
354.392	1	8
354.734	1	17
355.076	1	16
355.418	1	6
355.760	1	5
356.102	1	12
356.444	1	14
356.785	1	20
357.127	1	18
357.469	1	12
357.811	1	15
358.153	1	22
358.495	1	16
358.837	1	22
359.179	1	11
359.521	1	22
359.863	1	20
360.205	1	29
360.547	1	41
360.889	1	42
361.231	1	43
361.572	1	53
361.914	1	44
362.256	1	41
362.598	1	52
362.940	1	59
363.282	1	62
363.624	1	63
363.966	1	69
364.308	1	71
364.649	1	77
364.991	1	98
365.333	1	88
365.675	1	96
366.017	1	105
366.359	1	112
366.701	1	118
367.042	1	124
367.384	1	140
367.726	1	138
368.068	1	155
368.410	1	148
368.752	1	150
369.093	1	139
369.435	1	128
369.777	1	141
370.119	1	139
370.461	1	152
370.803	1	129
371.144	1	115
371.486	1	109
371.828	1	123
372.170	1	105
372.512	1	101
372.853	1	92
373.195	1	87
373.537	1	91
373.879	1	84
374.220	1	76
374.562	1	68
374.904	1	66
375.246	1	72
375.588	1	61
375.929	1	65
376.271	1	61
376.613	1	60
376.955	1	63
377.296	1	60
377.638	1	44
377.980	1	40
378.321	1	45
378.663	1	43
379.005	1	37
379.347	1	37
379.688	1	32
380.030	1	46
380.372	1	45
380.714	1	48
381.055	1	30
381.397	1	32
381.739	1	24
382.080	1	37
382.422	1	37
382.764	1	27
383.105	1	27
383.447	1	34
383.789	1	35
384.130	1	24
384.472	1	32
384.814	1	29
385.156	1	22
385.497	1	37
385.839	1	7
386.180	1	28
386.522	1	24
386.864	1	18
387.205	1	13
387.547	1	23
387.889	1	22
388.230	1	19
388.572	1	23
388.914	1	5
389.255	1	31
389.597	1	23
389.939	1	5
390.280	1	15
390.622	1	4
390.963	1	19
391.305	1	18
391.647	1	7
391.988	1	7
392.330	1	14
392.671	1	10
393.013	1	14
393.355	1	10
393.696	1	20
394.038	1	8
394.379	1	6
394.721	1	12
395.062	1	8
395.404	1	8
395.746	1	15
396.087	1	4
396.429	1	9
396.770	1	10
397.112	1	4
397.453	1	15
397.795	1	3
398.136	1	9
398.478	1	-1
398.819	1	14
399.161	1	1
399.503	1	10
399.844	1	8
400.186	1	0
400.527	1	15
400.869	1	8
401.210	1	9
401.552	1	4
401.893	1	17
402.235	1	21
402.576	1	7
402.918	1	2
403.259	1	8
403.601	1	13
403.942	1	11
404.284	1	-12
404.625	1	8
404.967	1	8
405.308	1	9
405.649	1	2
405.991	1	0
406.332	1	-6
406.674	1	17
407.015	1	7
407.357	1	5
407.698	1	9
408.040	1	5
408.381	1	13
408.722	1	4
409.064	1	1
409.405	1	5
409.747	1	7
410.088	1	16
410.430	1	7
410.771	1	4
411.112	1	8
411.454	1	14
411.795	1	24
412.137	1	-7
412.478	1	-5
412.819	1	0
413.161	1	19
413.502	1	0
413.844	1	5
414.185	1	-7
414.526	1	7
414.868	1	-2
415.209	1	-15
415.550	1	9
415.892	1	8
416.233	1	5
416.575	1	7
416.916	1	-7
417.257	1	1
417.599	1	1
417.940	1	12
418.281	1	-7
418.623	1	3
418.964	1	0
419.305	1	8
419.647	1	11
419.988	1	5
420.329	1	7
420.671	1	-4
421.012	1	1
421.353	1	11
421.695	1	-12
422.036	1	4
422.377	1	10
422.718	1	5
423.060	1	4
423.401	1	-4
423.742	1	-6
424.084	1	11
424.425	1	0
424.766	1	2
425.107	1	-2
425.449	1	4
425.790	1	0
426.131	1	6
426.472	1	1
426.814	1	-11
427.155	1	6
427.496	1	10
427.837	1	9
428.179	1	7
428.520	1	12
428.861	1	5
429.202	1	3
429.544	1	6
429.885	1	5
430.226	1	6
430.567	1	2
430.909	1	2
431.250	1	15
431.591	1	5
431.932	1	-1
432.273	1	8
432.615	1	0
432.956	1	9
433.297	1	5
433.638	1	12
433.979	1	8
434.320	1	7
434.662	1	-12
435.003	1	2
435.344	1	9
435.685	1	7
436.026	1	2
436.368	1	-1
436.709	1	12
437.050	1	-4
437.391	1	-4
437.732	1	5
438.073	1	2
438.414	1	-4
438.756	1	-6
439.097	1	6
439.438	1	4
439.779	1	5
440.120	1	6
440.461	1	18
440.802	1	12
441.143	1	6
441.485	1	2
441.826	1	15
442.167	1	7
442.508	1	-2
442.849	1	-2
443.190	1	4
443.531	1	-4
443.872	1	6
444.213	1	-2
444.554	1	0
444.895	1	-3
445.237	1	-6
445.578	1	10
445.919	1	-2
446.260	1	4
446.601	1	-3
446.942	1	11
447.283	1	11
447.624	1	1
447.965	1	6
448.306	1	2
448.647	1	6
448.988	1	7
449.329	1	11
449.670	1	-9
450.011	1	7
450.352	1	1
450.693	1	3
451.034	1	4
451.375	1	0
451.716	1	0
452.057	1	6
452.398	1	4
452.739	1	13
453.080	1	5
453.421	1	2
453.762	1	7
454.103	1	5
454.444	1	-8
454.785	1	1
455.126	1	9
455.467	1	-4
455.808	1	16
456.149	1	8
456.490	1	0
456.831	1	-3
457.172	1	4
457.513	1	17
457.854	1	13
458.195	1	-1
458.536	1	-2
458.877	1	2
459.218	1	-6
459.559	1	6
459.899	1	12
460.240	1	4
460.581	1	10
460.922	1	4
461.263	1	-3
461.604	1	11
461.945	1	1
462.286	1	-3
462.627	1	10
462.968	1	20
463.309	1	10
463.649	1	9
463.990	1	-6
464.331	1	8
464.672	1	7
465.013	1	15
465.354	1	1
465.695	1	10
466.036	1	-4
466.376	1	14
466.717	1	-1
467.058	1	8
467.399	1	15
467.740	1	8
468.081	1	4
468.422	1	3
468.762	1	14
469.103	1	9
469.444	1	5
469.785	1	-2
470.126	1	8
470.467	1	2
470.807	1	5
471.148	1	-3
471.489	1	6
471.830	1	8
472.171	1	9
472.511	1	-4
472.852	1	8
473.193	1	8
473.534	1	-2
473.875	1	-8
474.215	1	7
474.556	1	11
474.897	1	5
475.238	1	3
475.578	1	7
475.919	1	11
476.260	1	3
476.601	1	4
476.942	1	-2
477.282	1	10
477.623	1	11
477.964	1	3
478.305	1	1
478.645	1	10
478.986	1	3
479.327	1	-4
479.667	1	10
480.008	1	4
480.349	1	8
480.690	1	8
481.030	1	8
481.371	1	8
481.712	1	8
482.053	1	-7
482.393	1	2
482.734	1	7
483.075	1	-2
483.415	1	9
483.756	1	8
484.097	1	3
484.437	1	4
484.778	1	4
485.119	1	12
485.459	1	0
485.800	1	17
486.141	1	19
486.481	1	6
486.822	1	7
487.163	1	12
487.503	1	12
487.844	1	9
488.185	1	3
488.525	1	25
488.866	1	10
489.207	1	14
489.547	1	17
489.888	1	3
490.228	1	1
490.569	1	13
490.910	1	8
491.250	1	4
491.591	1	14
491.932	1	21
492.272	1	14
492.613	1	16
492.953	1	13
493.294	1	14
493.635	1	-4
493.975	1	12
494.316	1	3
494.656	1	22
494.997	1	9
495.337	1	11
495.678	1	7
496.019	1	5
496.359	1	19
496.700	1	27
497.040	1	11
497.381	1	17
497.721	1	10
498.062	1	11
498.403	1	8
498.743	1	13
499.084	1	7
499.424	1	15
499.765	1	-4
500.105	1	4
500.446	1	9
500.786	1	12
501.127	1	18
501.467	1	8
501.808	1	13
502.148	1	17
502.489	1	16
502.829	1	18
503.170	1	23
503.510	1	18
503.851	1	17
504.191	1	16
504.532	1	5
504.872	1	20
505.213	1	6
505.553	1	14
505.894	1	23
506.234	1	12
506.575	1	8
506.915	1	19
507.256	1	14
507.596	1	15
507.936	1	20
508.277	1	9
508.617	1	24
508.958	1	17
509.298	1	9
509.639	1	15
509.979	1	18
510.319	1	10
510.660	1	7
511.000	1	25
511.341	1	17
511.681	1	20
512.022	1	27
512.362	1	22
512.702	1	11
513.043	1	15
513.383	1	26
513.724	1	15
514.064	1	21
514.404	1	20
514.745	1	14
515.085	1	21
515.425	1	15
515.766	1	20
516.106	1	15
516.447	1	9
516.787	1	23
517.127	1	21
517.468	1	19
517.808	1	22
518.148	1	18
518.489	1	20
518.829	1	13
519.169	1	24
519.510	1	25
519.850	1	16
520.190	1	19
520.531	1	23
520.871	1	17
521.211	1	25
521.552	1	25
521.892	1	38
522.232	1	14
522.573	1	19
522.913	1	14
523.253	1	36
523.593	1	24
523.934	1	26
524.274	1	18
524.614	1	28
524.955	1	24
525.295	1	26
525.635	1	26
525.975	1	19
526.316	1	35
526.656	1	29
526.996	1	31
527.337	1	19
527.677	1	18
528.017	1	26
528.357	1	32
528.698	1	10
529.038	1	17
529.378	1	23
529.718	1	33
530.058	1	31
530.399	1	31
530.739	1	28
531.079	1	32
531.419	1	31
531.760	1	25
532.100	1	26
532.440	1	16
532.780	1	16
533.120	1	26
533.461	1	26
533.801	1	25
534.141	1	14
534.481	1	23
534.821	1	35
535.162	1	25
535.502	1	26
535.842	1	19
536.182	1	19
536.522	1	23
536.862	1	18
537.203	1	24
537.543	1	11
537.883	1	31
538.223	1	23
538.563	1	17
538.903	1	12
539.243	1	19
539.584	1	15
539.924	1	6
540.264	1	24
540.604	1	12
540.944	1	6
541.284	1	14
541.624	1	19
541.964	1	28
542.305	1	20
542.645	1	18
542.985	1	18
543.325	1	23
543.665	1	22
544.005	1	25
544.345	1	17
544.685	1	15
545.025	1	18
545.365	1	26
545.705	1	27
546.045	1	12
546.386	1	8
546.726	1	8
547.066	1	26
547.406	1	11
547.746	1	18
548.086	1	21
548.426	1	27
548.766	1	18
549.106	1	31
549.446	1	15
549.786	1	13
550.126	1	21
550.466	1	10
550.806	1	21
551.146	1	21
551.486	1	21
551.826	1	20
552.166	1	27
552.506	1	26
552.846	1	14
553.186	1	25
553.526	1	7
553.866	1	14
554.206	1	20
554.546	1	10
554.886	1	14
555.226	1	8
555.566	1	14
555.906	1	6
556.246	1	24
556.586	1	19
556.926	1	24
557.266	1	21
557.606	1	25
557.946	1	11
558.286	1	17
558.626	1	38
558.966	1	25
559.306	1	17
559.646	1	17
559.986	1	8
560.325	1	17
560.665	1	21
561.005	1	11
561.345	1	10
561.685	1	12
562.025	1	10
562.365	1	12
562.705	1	20
563.045	1	8
563.385	1	25
563.725	1	4
564.064	1	15
564.404	1	11
564.744	1	17
565.084	1	17
565.424	1	18
565.764	1	14
566.104	1	17
566.444	1	22
566.783	1	15
567.123	1	9
567.463	1	4
567.803	1	19
568.143	1	14
568.483	1	16
568.823	1	12
569.162	1	16
569.502	1	20
569.842	1	10
570.182	1	9
570.522	1	11
570.862	1	16
571.201	1	12
571.541	1	-1
571.881	1	18
572.221	1	11
572.561	1	16
572.900	1	7
573.240	1	16
573.580	1	12
573.920	1	25
574.260	1	16
574.599	1	4
574.939	1	2
575.279	1	11
575.619	1	19
575.959	1	-1
576.298	1	14
576.638	1	16
576.978	1	7
577.318	1	10
577.657	1	23
577.997	1	1
578.337	1	13
578.677	1	3
579.016	1	5
579.356	1	9
579.696	1	3
580.036	1	9
580.375	1	7
580.715	1	8
581.055	1	13
581.394	1	12
581.734	1	14
582.074	1	10
582.414	1	7
582.753	1	6
583.093	1	21
583.433	1	20
583.772	1	4
584.112	1	11
584.452	1	7
584.791	1	6
585.131	1	16
585.471	1	8
585.811	1	4
586.150	1	1
586.490	1	9
586.830	1	0
587.169	1	22
587.509	1	5
587.849	1	11
588.188	1	8
588.528	1	2
588.867	1	13
589.207	1	1
589.547	1	13
589.886	1	0
590.226	1	11
590.566	1	9
590.905	1	13
591.245	1	12
591.585	1	7
591.924	1	2
592.264	1	7
592.603	1	7
592.943	1	13
593.283	1	6
593.622	1	-4
593.962	1	9
594.301	1	15
594.641	1	14
594.981	1	20
595.320	1	5
595.660	1	5
595.999	1	3
596.339	1	6
596.678	1	0
597.018	1	7
597.358	1	-6
597.697	1	3
598.037	1	3
598.376	1	-2
598.716	1	7
599.055	1	4
599.395	1	-2
599.734	1	12
600.074	1	6
600.413	1	-4
600.753	1	19
601.092	1	4
601.432	1	2
601.771	1	6
602.111	1	0
602.451	1	14
602.790	1	15
603.130	1	1
603.469	1	9
603.809	1	3
604.148	1	10
604.487	1	12
604.827	1	-4
605.166	1	15
605.506	1	3
605.845	1	9
606.185	1	8
606.524	1	9
606.864	1	-5
607.203	1	-3
607.543	1	5
607.882	1	-3
608.222	1	10
608.561	1	6
608.901	1	13
609.240	1	-3
609.579	1	3
609.919	1	6
610.258	1	3
610.598	1	14
610.937	1	9
611.277	1	0
611.616	1	10
611.955	1	13
612.295	1	10
612.634	1	3
612.974	1	10
613.313	1	0
613.652	1	15
613.992	1	2
614.331	1	4
614.671	1	11
615.010	1	5
615.349	1	18
615.689	1	11
616.028	1	-2
616.368	1	-1
616.707	1	8
617.046	1	2
617.386	1	3
617.725	1	8
618.064	1	-4
618.404	1	-3
618.743	1	1
619.082	1	11
619.422	1	-6
619.761	1	-5
620.100	1	6
620.440	1	12
620.779	1	-5
621.118	1	0
621.458	1	0
621.797	1	5
622.136	1	11
622.476	1	-4
622.815	1	6
623.154	1	5
623.494	1	-2
623.833	1	2
624.172	1	3
624.511	1	9
624.851	1	0
625.190	1	8
625.529	1	9
625.869	1	9
626.208	1	3
626.547	1	-4
626.886	1	-2
627.226	1	8
627.565	1	14
627.904	1	0
628.243	1	-3
628.583	1	-5
628.922	1	-11
629.261	1	8
629.600	1	-4
629.940	1	10
630.279	1	10
630.618	1	-11
630.957	1	12
631.297	1	-4
631.636	1	21
631.975	1	5
632.314	1	2
632.653	1	14
632.993	1	6
633.332	1	4
633.671	1	3
634.010	1	4
634.349	1	-2
634.689	1	11
635.028	1	6
635.367	1	4
635.706	1	4
636.045	1	14
636.384	1	-2
636.724	1	8
637.063	1	5
637.402	1	23
637.741	1	-5
638.080	1	11
638.419	1	1
638.759	1	2
639.098	1	5
639.437	1	-4
639.776	1	1
640.115	1	9
640.454	1	0
640.793	1	9
641.132	1	6
641.472	1	-12
641.811	1	16
642.150	1	4
642.489	1	0
642.828	1	10
643.167	1	8
643.506	1	16
643.845	1	15
644.184	1	11
644.524	1	6
644.863	1	-8
645.202	1	17
645.541	1	8
645.880	1	9
646.219	1	0
646.558	1	8
646.897	1	4
647.236	1	4
647.575	1	-2
647.914	1	5
648.253	1	0
648.592	1	2
648.931	1	2
649.270	1	5
649.610	1	16
649.949	1	-5
650.288	1	6
650.627	1	4
650.966	1	20
651.305	1	0
651.644	1	10
651.983	1	6
652.322	1	4
652.661	1	7
653.000	1	-2
653.339	1	0
653.678	1	0
654.017	1	12
654.356	1	2
654.695	1	8
655.034	1	-2
655.373	1	9
655.712	1	0
656.051	1	3
656.390	1	0
656.729	1	11
657.068	1	3
657.406	1	3
657.745	1	10
658.084	1	-9
658.423	1	3
658.762	1	3
659.101	1	6
659.440	1	-3
659.779	1	7
660.118	1	2
660.457	1	4
660.796	1	6
661.135	1	-1
661.474	1	5
661.813	1	0
662.152	1	-1
662.491	1	1
662.829	1	3
663.168	1	8
663.507	1	0
663.846	1	5
664.185	1	8
664.524	1	1
664.863	1	-1
665.202	1	10
665.541	1	10
665.879	1	18
666.218	1	14
666.557	1	4
666.896	1	-1
667.235	1	10
667.574	1	0
667.913	1	-9
668.251	1	-1
668.590	1	3
668.929	1	9
669.268	1	-10
669.607	1	9
669.946	1	7
670.285	1	12
670.623	1	3
670.962	1	-4
671.301	1	10
671.640	1	3
671.979	1	3
672.317	1	10
672.656	1	9
672.995	1	-5
673.334	1	5
673.673	1	7
674.011	1	17
674.350	1	10
674.689	1	11
675.028	1	1
675.367	1	4
675.705	1	3
676.044	1	20
676.383	1	8
676.722	1	10
677.060	1	1
677.399	1	10
677.738	1	1
678.077	1	15
678.416	1	-2
678.754	1	2
679.093	1	1
679.432	1	8
679.771	1	9
680.109	1	7
680.448	1	12
680.787	1	1
681.125	1	5
681.464	1	2
681.803	1	4
682.142	1	0
682.480	1	5
682.819	1	12
683.158	1	0
683.496	1	8
683.835	1	1
684.174	1	2
684.512	1	10
684.851	1	0
685.190	1	-6
685.529	1	16
685.867	1	4
686.206	1	20
686.545	1	18
686.883	1	7
687.222	1	5
687.561	1	8
687.899	1	-1
688.238	1	-11
688.577	1	12
688.746	1	-9