File: Data/GaN_170K_550ms/GaN_sample D_spot 18_UVVIS_170 K_200um_550 ms 2x2mm1_101.txt
340.368	1	5
340.710	1	-9
341.052	1	3
341.394	1	7
341.737	1	4
342.079	1	10
342.421	1	7
342.763	1	8
343.105	1	13
343.447	1	-6
343.789	1	6
344.131	1	6
344.473	1	0
344.815	1	3
345.157	1	1
345.499	1	-3
345.841	1	13
346.183	1	11
346.526	1	9
346.868	1	0
347.210	1	3
347.552	1	20
347.894	1	9
348.236	1	5
348.578	1	0
348.920	1	-2
349.262	1	0
349.604	1	10
349.946	1	10
350.288	1	7
350.630	1	18
350.972	1	0
351.314	1	12
351.656	1	0
351.998	1	-2
352.340	1	6
352.682	1	14
353.024	1	5
353.366	1	9
353.708	1	12
354.050	1	2
354.392	1	12
354.734	1	10
355.076	1	-2
355.418	1	5
355.760	1	8
356.102	1	7
356.444	1	5
356.785	1	12
357.127	1	4
357.469	1	8
357.811	1	14
358.153	1	28
358.495	1	10
358.837	1	13
359.179	1	13
359.521	1	18
359.863	1	8
360.205	1	20
360.547	1	21
360.889	1	35
361.231	1	27
361.572	1	34
361.914	1	35
362.256	1	38
362.598	1	42
362.940	1	50
363.282	1	53
363.624	1	33
363.966	1	38
364.308	1	51
364.649	1	54
364.991	1	61
365.333	1	54
365.675	1	73
366.017	1	68
366.359	1	67
366.701	1	71
367.042	1	82
367.384	1	94
367.726	1	96
368.068	1	89
368.410	1	100
368.752	1	98
369.093	1	83
369.435	1	84
369.777	1	85
370.119	1	77
370.461	1	99
370.803	1	73
371.144	1	70
371.486	1	58
371.828	1	72
372.170	1	61
372.512	1	56
372.853	1	68
373.195	1	62
373.537	1	66
373.879	1	55
374.220	1	54
374.562	1	62
374.904	1	48
375.246	1	42
375.588	1	39
375.929	1	47
376.271	1	42
376.613	1	41
376.955	1	46
377.296	1	41
377.638	1	34
377.980	1	29
378.321	1	28
378.663	1	40
379.005	1	29
379.347	1	27
379.688	1	24
380.030	1	25
380.372	1	35
380.714	1	30
381.055	1	20
381.397	1	36
381.739	1	20
382.080	1	15
382.422	1	18
382.764	1	21
383.105	1	25
383.447	1	20
383.789	1	25
384.130	1	14
384.472	1	9
384.814	1	22
385.156	1	13
385.497	1	26
385.839	1	14
386.180	1	22
386.522	1	22
386.864	1	20
387.205	1	11
387.547	1	18
387.889	1	14
388.230	1	14
388.572	1	12
388.914	1	9
389.255	1	20
389.597	1	13
389.939	1	13
390.280	1	4
390.622	1	10
390.963	1	11
391.305	1	12
391.647	1	-8
391.988	1	18
392.330	1	17
392.671	1	-1
393.013	1	2
393.355	1	16
393.696	1	12
394.038	1	-2
394.379	1	0
394.721	1	0
395.062	1	2
395.404	1	3
395.746	1	16
396.087	1	10
396.429	1	9
396.770	1	12
397.112	1	2
397.453	1	13
397.795	1	13
398.136	1	8
398.478	1	9
398.819	1	9
399.161	1	-4
399.503	1	15
399.844	1	-4
400.186	1	-1
400.527	1	18
400.869	1	12
401.210	1	1
401.552	1	16
401.893	1	8
402.235	1	13
402.576	1	5
402.918	1	8
403.259	1	7
403.601	1	13
403.942	1	16
404.284	1	-14
404.625	1	7
404.967	1	5
405.308	1	7
405.649	1	6
405.991	1	11
406.332	1	-6
406.674	1	10
407.015	1	10
407.357	1	-3
407.698	1	16
408.040	1	0
408.381	1	10
408.722	1	-8
409.064	1	7
409.405	1	4
409.747	1	7
410.088	1	13
410.430	1	-2
410.771	1	6
411.112	1	0
411.454	1	6
411.795	1	11
412.137	1	-5
412.478	1	1
412.819	1	6
413.161	1	11
413.502	1	-1
413.844	1	4
414.185	1	2
414.526	1	12
414.868	1	3
415.209	1	-9
415.550	1	-6
415.892	1	7
416.233	1	11
416.575	1	-1
416.916	1	-5
417.257	1	8
417.599	1	1
417.940	1	1
418.281	1	-6
418.623	1	7
418.964	1	-12
419.305	1	5
419.647	1	12
419.988	1	3
420.329	1	8
420.671	1	-3
421.012	1	6
421.353	1	-4
421.695	1	-3
422.036	1	9
422.377	1	7
422.718	1	9
423.060	1	4
423.401	1	-4
423.742	1	-4
424.084	1	15
424.425	1	1
424.766	1	4
425.107	1	-1
425.449	1	14
425.790	1	0
426.131	1	15
426.472	1	0
426.814	1	-11
427.155	1	15
427.496	1	4
427.837	1	11
428.179	1	1
428.520	1	4
428.861	1	3
429.202	1	-6
429.544	1	-1
429.885	1	5
430.226	1	6
430.567	1	4
430.909	1	3
431.250	1	13
431.591	1	2
431.932	1	2
432.273	1	11
432.615	1	5
432.956	1	3
433.297	1	5
433.638	1	8
433.979	1	10
434.320	1	10
434.662	1	-10
435.003	1	0
435.344	1	1
435.685	1	-2
436.026	1	-2
436.368	1	13
436.709	1	-2
437.050	1	0
437.391	1	-2
437.732	1	6
438.073	1	1
438.414	1	0
438.756	1	1
439.097	1	-7
439.438	1	5
439.779	1	13
440.120	1	5
440.461	1	12
440.802	1	11
441.143	1	3
441.485	1	-4
441.826	1	12
442.167	1	15
442.508	1	6
442.849	1	-9
443.190	1	4
443.531	1	9
443.872	1	-5
444.213	1	3
444.554	1	5
444.895	1	-12
445.237	1	-14
445.578	1	9
445.919	1	6
446.260	1	10
446.601	1	-5
446.942	1	7
447.283	1	5
447.624	1	6
447.965	1	3
448.306	1	1
448.647	1	0
448.988	1	7
449.329	1	8
449.670	1	-4
450.011	1	14
450.352	1	-7
450.693	1	-1
451.034	1	4
451.375	1	6
451.716	1	5
452.057	1	-8
452.398	1	9
452.739	1	7
453.080	1	3
453.421	1	9
453.762	1	-6
454.103	1	-6
454.444	1	3
454.785	1	-6
455.126	1	7
455.467	1	-9
455.808	1	8
456.149	1	-1
456.490	1	-2
456.831	1	-1
457.172	1	-9
457.513	1	6
457.854	1	14
458.195	1	6
458.536	1	-4
458.877	1	0
459.218	1	-5
459.559	1	5
459.899	1	0
460.240	1	3
460.581	1	1
460.922	1	-1
461.263	1	5
461.604	1	11
461.945	1	5
462.286	1	0
462.627	1	9
462.968	1	5
463.309	1	8
463.649	1	12
463.990	1	-3
464.331	1	2
464.672	1	-10
465.013	1	18
465.354	1	-6
465.695	1	7
466.036	1	2
466.376	1	5
466.717	1	2
467.058	1	8
467.399	1	17
467.740	1	-1
468.081	1	-3
468.422	1	9
468.762	1	19
469.103	1	1
469.444	1	7
469.785	1	-3
470.126	1	7
470.467	1	5
470.807	1	1
471.148	1	-3
471.489	1	5
471.830	1	3
472.171	1	5
472.511	1	0
472.852	1	9
473.193	1	7
473.534	1	3
473.875	1	0
474.215	1	-1
474.556	1	9
474.897	1	15
475.238	1	-9
475.578	1	2
475.919	1	11
476.260	1	10
476.601	1	1
476.942	1	-9
477.282	1	6
477.623	1	11
477.964	1	9
478.305	1	-3
478.645	1	0
478.986	1	-5
479.327	1	-12
479.667	1	-1
480.008	1	7
480.349	1	8
480.690	1	6
481.030	1	10
481.371	1	4
481.712	1	6
482.053	1	-4
482.393	1	-3
482.734	1	12
483.075	1	4
483.415	1	9
483.756	1	5
484.097	1	-11
484.437	1	14
484.778	1	4
485.119	1	10
485.459	1	0
485.800	1	-8
486.141	1	12
486.481	1	4
486.822	1	16
487.163	1	6
487.503	1	8
487.844	1	11
488.185	1	6
488.525	1	4
488.866	1	10
489.207	1	5
489.547	1	5
489.888	1	7
490.228	1	-7
490.569	1	16
490.910	1	8
491.250	1	10
491.591	1	3
491.932	1	12
492.272	1	11
492.613	1	12
492.953	1	16
493.294	1	5
493.635	1	3
493.975	1	12
494.316	1	14
494.656	1	11
494.997	1	11
495.337	1	12
495.678	1	6
496.019	1	4
496.359	1	13
496.700	1	18
497.040	1	6
497.381	1	9
497.721	1	3
498.062	1	4
498.403	1	13
498.743	1	6
499.084	1	10
499.424	1	14
499.765	1	0
500.105	1	6
500.446	1	8
500.786	1	8
501.127	1	15
501.467	1	8
501.808	1	14
502.148	1	14
502.489	1	9
502.829	1	14
503.170	1	13
503.510	1	7
503.851	1	7
504.191	1	15
504.532	1	-1
504.872	1	18
505.213	1	7
505.553	1	5
505.894	1	30
506.234	1	12
506.575	1	16
506.915	1	13
507.256	1	4
507.596	1	20
507.936	1	26
508.277	1	8
508.617	1	11
508.958	1	4
509.298	1	12
509.639	1	29
509.979	1	9
510.319	1	2
510.660	1	0
511.000	1	17
511.341	1	21
511.681	1	11
512.022	1	8
512.362	1	13
512.702	1	5
513.043	1	17
513.383	1	7
513.724	1	13
514.064	1	13
514.404	1	12
514.745	1	10
515.085	1	11
515.425	1	4
515.766	1	20
516.106	1	13
516.447	1	5
516.787	1	15
517.127	1	22
517.468	1	17
517.808	1	19
518.148	1	15
518.489	1	13
518.829	1	17
519.169	1	11
519.510	1	13
519.850	1	10
520.190	1	15
520.531	1	14
520.871	1	17
521.211	1	25
521.552	1	19
521.892	1	9
522.232	1	6
522.573	1	20
522.913	1	18
523.253	1	27
523.593	1	13
523.934	1	9
524.274	1	18
524.614	1	15
524.955	1	5
525.295	1	11
525.635	1	15
525.975	1	11
526.316	1	21
526.656	1	31
526.996	1	19
527.337	1	14
527.677	1	11
528.017	1	21
528.357	1	7
528.698	1	5
529.038	1	2
529.378	1	7
529.718	1	20
530.058	1	22
530.399	1	12
530.739	1	10
531.079	1	15
531.419	1	19
531.760	1	23
532.100	1	14
532.440	1	12
532.780	1	3
533.120	1	27
533.461	1	16
533.801	1	28
534.141	1	7
534.481	1	25
534.821	1	18
535.162	1	15
535.502	1	24
535.842	1	10
536.182	1	16
536.522	1	17
536.862	1	19
537.203	1	8
537.543	1	10
537.883	1	25
538.223	1	16
538.563	1	24
538.903	1	18
539.243	1	15
539.584	1	14
539.924	1	16
540.264	1	13
540.604	1	12
540.944	1	10
541.284	1	19
541.624	1	2
541.964	1	11
542.305	1	7
542.645	1	8
542.985	1	16
543.325	1	9
543.665	1	7
544.005	1	18
544.345	1	11
544.685	1	14
545.025	1	17
545.365	1	15
545.705	1	17
546.045	1	15
546.386	1	13
546.726	1	9
547.066	1	21
547.406	1	10
547.746	1	8
548.086	1	15
548.426	1	15
548.766	1	15
549.106	1	24
549.446	1	25
549.786	1	14
550.126	1	11
550.466	1	11
550.806	1	14
551.146	1	20
551.486	1	17
551.826	1	18
552.166	1	13
552.506	1	11
552.846	1	7
553.186	1	8
553.526	1	12
553.866	1	10
554.206	1	12
554.546	1	1
554.886	1	13
555.226	1	14
555.566	1	10
555.906	1	13
556.246	1	8
556.586	1	14
556.926	1	10
557.266	1	11
557.606	1	10
557.946	1	13
558.286	1	6
558.626	1	16
558.966	1	18
559.306	1	21
559.646	1	11
559.986	1	10
560.325	1	2
560.665	1	8
561.005	1	16
561.345	1	6
561.685	1	10
562.025	1	7
562.365	1	12
562.705	1	8
563.045	1	7
563.385	1	6
563.725	1	12
564.064	1	12
564.404	1	8
564.744	1	15
565.084	1	16
565.424	1	5
565.764	1	9
566.104	1	9
566.444	1	18
566.783	1	9
567.123	1	10
567.463	1	5
567.803	1	14
568.143	1	6
568.483	1	3
568.823	1	7
569.162	1	13
569.502	1	10
569.842	1	2
570.182	1	-10
570.522	1	5
570.862	1	14
571.201	1	10
571.541	1	4
571.881	1	2
572.221	1	14
572.561	1	7
572.900	1	6
573.240	1	12
573.580	1	3
573.920	1	21
574.260	1	8
574.599	1	1
574.939	1	4
575.279	1	6
575.619	1	8
575.959	1	8
576.298	1	11
576.638	1	9
576.978	1	5
577.318	1	3
577.657	1	6
577.997	1	-5
578.337	1	5
578.677	1	6
579.016	1	11
579.356	1	10
579.696	1	5
580.036	1	11
580.375	1	15
580.715	1	9
581.055	1	17
581.394	1	12
581.734	1	18
582.074	1	13
582.414	1	9
582.753	1	0
583.093	1	7
583.433	1	8
583.772	1	1
584.112	1	15
584.452	1	5
584.791	1	4
585.131	1	14
585.471	1	15
585.811	1	3
586.150	1	-4
586.490	1	9
586.830	1	-6
587.169	1	16
587.509	1	6
587.849	1	12
588.188	1	5
588.528	1	-1
588.867	1	6
589.207	1	1
589.547	1	8
589.886	1	-4
590.226	1	7
590.566	1	-5
590.905	1	6
591.245	1	10
591.585	1	11
591.924	1	3
592.264	1	0
592.603	1	0
592.943	1	-1
593.283	1	10
593.622	1	2
593.962	1	11
594.301	1	10
594.641	1	9
594.981	1	13
595.320	1	1
595.660	1	12
595.999	1	2
596.339	1	9
596.678	1	0
597.018	1	5
597.358	1	1
597.697	1	10
598.037	1	3
598.376	1	5
598.716	1	3
599.055	1	8
599.395	1	-3
599.734	1	11
600.074	1	2
600.413	1	-5
600.753	1	8
601.092	1	3
601.432	1	-3
601.771	1	4
602.111	1	0
602.451	1	10
602.790	1	10
603.130	1	3
603.469	1	5
603.809	1	10
604.148	1	7
604.487	1	11
604.827	1	-1
605.166	1	15
605.506	1	-1
605.845	1	5
606.185	1	4
606.524	1	0
606.864	1	5
607.203	1	14
607.543	1	4
607.882	1	-2
608.222	1	8
608.561	1	16
608.901	1	5
609.240	1	1
609.579	1	7
609.919	1	2
610.258	1	10
610.598	1	9
610.937	1	-2
611.277	1	0
611.616	1	2
611.955	1	6
612.295	1	-11
612.634	1	0
612.974	1	5
613.313	1	5
613.652	1	6
613.992	1	7
614.331	1	4
614.671	1	11
615.010	1	14
615.349	1	7
615.689	1	8
616.028	1	13
616.368	1	-1
616.707	1	15
617.046	1	-3
617.386	1	-1
617.725	1	5
618.064	1	1
618.404	1	4
618.743	1	7
619.082	1	-1
619.422	1	-1
619.761	1	-1
620.100	1	6
620.440	1	14
620.779	1	1
621.118	1	-1
621.458	1	6
621.797	1	7
622.136	1	2
622.476	1	2
622.815	1	8
623.154	1	12
623.494	1	-2
623.833	1	7
624.172	1	10
624.511	1	7
624.851	1	10
625.190	1	14
625.529	1	-1
625.869	1	4
626.208	1	3
626.547	1	4
626.886	1	-3
627.226	1	-1
627.565	1	12
627.904	1	8
628.243	1	0
628.583	1	-3
628.922	1	-2
629.261	1	9
629.600	1	2
629.940	1	-2
630.279	1	10
630.618	1	0
630.957	1	13
631.297	1	4
631.636	1	16
631.975	1	8
632.314	1	7
632.653	1	13
632.993	1	1
633.332	1	4
633.671	1	-1
634.010	1	10
634.349	1	-11
634.689	1	9
635.028	1	0
635.367	1	3
635.706	1	4
636.045	1	8
636.384	1	-3
636.724	1	6
637.063	1	7
637.402	1	7
637.741	1	4
638.080	1	14
638.419	1	-6
638.759	1	8
639.098	1	-1
639.437	1	-15
639.776	1	2
640.115	1	9
640.454	1	4
640.793	1	-1
641.132	1	-1
641.472	1	-1
641.811	1	12
642.150	1	-3
642.489	1	-7
642.828	1	0
643.167	1	-1
643.506	1	7
643.845	1	10
644.184	1	18
644.524	1	3
644.863	1	-11
645.202	1	6
645.541	1	9
645.880	1	11
646.219	1	-3
646.558	1	4
646.897	1	10
647.236	1	-6
647.575	1	-3
647.914	1	6
648.253	1	-5
648.592	1	3
648.931	1	9
649.270	1	-4
649.610	1	8
649.949	1	-3
650.288	1	7
650.627	1	7
650.966	1	0
651.305	1	2
651.644	1	11
651.983	1	0
652.322	1	3
652.661	1	-1
653.000	1	-2
653.339	1	-6
653.678	1	3
654.017	1	6
654.356	1	5
654.695	1	16
655.034	1	10
655.373	1	1
655.712	1	-1
656.051	1	6
656.390	1	1
656.729	1	3
657.068	1	11
657.406	1	-1
657.745	1	7
658.084	1	-1
658.423	1	-2
658.762	1	1
659.101	1	3
659.440	1	16
659.779	1	9
660.118	1	8
660.457	1	4
660.796	1	3
661.135	1	-8
661.474	1	11
661.813	1	-3
662.152	1	1
662.491	1	-6
662.829	1	10
663.168	1	1
663.507	1	5
663.846	1	-9
664.185	1	11
664.524	1	7
664.863	1	4
665.202	1	19
665.541	1	6
665.879	1	13
666.218	1	14
666.557	1	-4
666.896	1	8
667.235	1	-3
667.574	1	-9
667.913	1	2
668.251	1	13
668.590	1	-1
668.929	1	6
669.268	1	-1
669.607	1	0
669.946	1	6
670.285	1	1
670.623	1	2
670.962	1	1
671.301	1	1
671.640	1	11
671.979	1	-2
672.317	1	7
672.656	1	0
672.995	1	-5
673.334	1	0
673.673	1	1
674.011	1	8
674.350	1	6
674.689	1	-3
675.028	1	-1
675.367	1	-4
675.705	1	5
676.044	1	9
676.383	1	1
676.722	1	13
677.060	1	2
677.399	1	-3
677.738	1	-4
678.077	1	14
678.416	1	-3
678.754	1	9
679.093	1	10
679.432	1	7
679.771	1	7
680.109	1	2
680.448	1	9
680.787	1	-2
681.125	1	8
681.464	1	8
681.803	1	4
682.142	1	-2
682.480	1	-4
682.819	1	10
683.158	1	2
683.496	1	12
683.835	1	-14
684.174	1	1
684.512	1	1
684.851	1	0
685.190	1	2
685.529	1	13
685.867	1	13
686.206	1	4
686.545	1	10
686.883	1	10
687.222	1	9
687.561	1	9
687.899	1	-1
688.238	1	0
688.577	1	20
688.746	1	-1