File: Data/GaN_170K_550ms/GaN_sample D_spot 18_UVVIS_170 K_200um_550 ms 2x2mm1_65.txt
340.368	1	7
340.710	1	1
341.052	1	13
341.394	1	7
341.737	1	1
342.079	1	7
342.421	1	1
342.763	1	4
343.105	1	8
343.447	1	4
343.789	1	8
344.131	1	9
344.473	1	0
344.815	1	14
345.157	1	1
345.499	1	0
345.841	1	20
346.183	1	16
346.526	1	2
346.868	1	6
347.210	1	0
347.552	1	18
347.894	1	13
348.236	1	13
348.578	1	7
348.920	1	6
349.262	1	7
349.604	1	13
349.946	1	18
350.288	1	5
350.630	1	12
350.972	1	1
351.314	1	17
351.656	1	7
351.998	1	8
352.340	1	19
352.682	1	5
353.024	1	9
353.366	1	15
353.708	1	24
354.050	1	8
354.392	1	20
354.734	1	20
355.076	1	10
355.418	1	12
355.760	1	29
356.102	1	26
356.444	1	25
356.785	1	19
357.127	1	27
357.469	1	28
357.811	1	34
358.153	1	36
358.495	1	25
358.837	1	30
359.179	1	37
359.521	1	55
359.863	1	54
360.205	1	63
360.547	1	68
360.889	1	74
361.231	1	69
361.572	1	91
361.914	1	79
362.256	1	107
362.598	1	107
362.940	1	145
363.282	1	140
363.624	1	153
363.966	1	173
364.308	1	190
364.649	1	220
364.991	1	233
365.333	1	264
365.675	1	303
366.017	1	312
366.359	1	341
366.701	1	377
367.042	1	387
367.384	1	427
367.726	1	447
368.068	1	444
368.410	1	480
368.752	1	460
369.093	1	461
369.435	1	453
369.777	1	427
370.119	1	426
370.461	1	398
370.803	1	371
371.144	1	370
371.486	1	336
371.828	1	315
372.170	1	299
372.512	1	280
372.853	1	268
373.195	1	256
373.537	1	246
373.879	1	219
374.220	1	208
374.562	1	201
374.904	1	200
375.246	1	181
375.588	1	171
375.929	1	155
376.271	1	140
376.613	1	149
376.955	1	147
377.296	1	124
377.638	1	129
377.980	1	103
378.321	1	115
378.663	1	118
379.005	1	94
379.347	1	95
379.688	1	92
380.030	1	77
380.372	1	82
380.714	1	80
381.055	1	67
381.397	1	73
381.739	1	67
382.080	1	72
382.422	1	59
382.764	1	55
383.105	1	63
383.447	1	70
383.789	1	63
384.130	1	56
384.472	1	48
384.814	1	62
385.156	1	58
385.497	1	56
385.839	1	34
386.180	1	55
386.522	1	44
386.864	1	47
387.205	1	40
387.547	1	34
387.889	1	46
388.230	1	39
388.572	1	49
388.914	1	38
389.255	1	35
389.597	1	26
389.939	1	26
390.280	1	31
390.622	1	31
390.963	1	35
391.305	1	29
391.647	1	27
391.988	1	32
392.330	1	25
392.671	1	11
393.013	1	24
393.355	1	21
393.696	1	28
394.038	1	12
394.379	1	15
394.721	1	23
395.062	1	13
395.404	1	23
395.746	1	20
396.087	1	21
396.429	1	20
396.770	1	23
397.112	1	18
397.453	1	24
397.795	1	17
398.136	1	15
398.478	1	26
398.819	1	16
399.161	1	13
399.503	1	20
399.844	1	15
400.186	1	15
400.527	1	21
400.869	1	16
401.210	1	20
401.552	1	12
401.893	1	10
402.235	1	12
402.576	1	11
402.918	1	5
403.259	1	14
403.601	1	23
403.942	1	10
404.284	1	1
404.625	1	13
404.967	1	15
405.308	1	8
405.649	1	20
405.991	1	10
406.332	1	2
406.674	1	19
407.015	1	11
407.357	1	3
407.698	1	7
408.040	1	13
408.381	1	21
408.722	1	5
409.064	1	13
409.405	1	15
409.747	1	6
410.088	1	20
410.430	1	11
410.771	1	5
411.112	1	11
411.454	1	23
411.795	1	6
412.137	1	-1
412.478	1	8
412.819	1	6
413.161	1	5
413.502	1	9
413.844	1	18
414.185	1	4
414.526	1	6
414.868	1	7
415.209	1	-7
415.550	1	9
415.892	1	11
416.233	1	7
416.575	1	6
416.916	1	-2
417.257	1	8
417.599	1	3
417.940	1	17
418.281	1	-2
418.623	1	13
418.964	1	1
419.305	1	3
419.647	1	14
419.988	1	9
420.329	1	6
420.671	1	-3
421.012	1	1
421.353	1	6
421.695	1	2
422.036	1	18
422.377	1	15
422.718	1	12
423.060	1	-12
423.401	1	5
423.742	1	7
424.084	1	31
424.425	1	-5
424.766	1	9
425.107	1	7
425.449	1	11
425.790	1	0
426.131	1	12
426.472	1	1
426.814	1	-7
427.155	1	17
427.496	1	3
427.837	1	14
428.179	1	2
428.520	1	1
428.861	1	7
429.202	1	0
429.544	1	-2
429.885	1	11
430.226	1	12
430.567	1	4
430.909	1	-1
431.250	1	25
431.591	1	9
431.932	1	0
432.273	1	1
432.615	1	5
432.956	1	12
433.297	1	5
433.638	1	13
433.979	1	7
434.320	1	8
434.662	1	-4
435.003	1	9
435.344	1	7
435.685	1	5
436.026	1	14
436.368	1	10
436.709	1	0
437.050	1	3
437.391	1	3
437.732	1	12
438.073	1	8
438.414	1	3
438.756	1	3
439.097	1	10
439.438	1	10
439.779	1	13
440.120	1	-9
440.461	1	19
440.802	1	17
441.143	1	5
441.485	1	-1
441.826	1	5
442.167	1	4
442.508	1	2
442.849	1	0
443.190	1	8
443.531	1	10
443.872	1	-2
444.213	1	7
444.554	1	4
444.895	1	0
445.237	1	-2
445.578	1	1
445.919	1	9
446.260	1	4
446.601	1	2
446.942	1	7
447.283	1	10
447.624	1	1
447.965	1	6
448.306	1	-5
448.647	1	6
448.988	1	11
449.329	1	7
449.670	1	-1
450.011	1	11
450.352	1	-6
450.693	1	2
451.034	1	3
451.375	1	7
451.716	1	9
452.057	1	-2
452.398	1	13
452.739	1	11
453.080	1	8
453.421	1	6
453.762	1	-4
454.103	1	-2
454.444	1	-2
454.785	1	0
455.126	1	7
455.467	1	-7
455.808	1	8
456.149	1	9
456.490	1	2
456.831	1	0
457.172	1	1
457.513	1	9
457.854	1	5
458.195	1	1
458.536	1	1
458.877	1	7
459.218	1	-2
459.559	1	9
459.899	1	6
460.240	1	4
460.581	1	4
460.922	1	4
461.263	1	9
461.604	1	11
461.945	1	1
462.286	1	0
462.627	1	20
462.968	1	12
463.309	1	4
463.649	1	10
463.990	1	7
464.331	1	6
464.672	1	3
465.013	1	13
465.354	1	0
465.695	1	7
466.036	1	3
466.376	1	3
466.717	1	8
467.058	1	9
467.399	1	20
467.740	1	6
468.081	1	-3
468.422	1	13
468.762	1	12
469.103	1	20
469.444	1	9
469.785	1	2
470.126	1	11
470.467	1	7
470.807	1	8
471.148	1	11
471.489	1	13
471.830	1	6
472.171	1	7
472.511	1	4
472.852	1	9
473.193	1	10
473.534	1	11
473.875	1	6
474.215	1	16
474.556	1	9
474.897	1	5
475.238	1	2
475.578	1	14
475.919	1	12
476.260	1	10
476.601	1	7
476.942	1	4
477.282	1	10
477.623	1	17
477.964	1	13
478.305	1	2
478.645	1	14
478.986	1	-1
479.327	1	-2
479.667	1	6
480.008	1	14
480.349	1	14
480.690	1	15
481.030	1	13
481.371	1	15
481.712	1	12
482.053	1	6
482.393	1	8
482.734	1	14
483.075	1	15
483.415	1	11
483.756	1	12
484.097	1	4
484.437	1	7
484.778	1	6
485.119	1	23
485.459	1	14
485.800	1	15
486.141	1	25
486.481	1	12
486.822	1	24
487.163	1	17
487.503	1	17
487.844	1	13
488.185	1	12
488.525	1	24
488.866	1	25
489.207	1	26
489.547	1	29
489.888	1	20
490.228	1	20
490.569	1	22
490.910	1	23
491.250	1	22
491.591	1	28
491.932	1	24
492.272	1	26
492.613	1	25
492.953	1	23
493.294	1	23
493.635	1	23
493.975	1	17
494.316	1	23
494.656	1	21
494.997	1	29
495.337	1	34
495.678	1	24
496.019	1	9
496.359	1	36
496.700	1	28
497.040	1	30
497.381	1	46
497.721	1	23
498.062	1	33
498.403	1	36
498.743	1	35
499.084	1	37
499.424	1	29
499.765	1	18
500.105	1	33
500.446	1	34
500.786	1	33
501.127	1	35
501.467	1	35
501.808	1	30
502.148	1	49
502.489	1	36
502.829	1	37
503.170	1	46
503.510	1	41
503.851	1	45
504.191	1	33
504.532	1	35
504.872	1	39
505.213	1	41
505.553	1	46
505.894	1	54
506.234	1	38
506.575	1	51
506.915	1	51
507.256	1	35
507.596	1	58
507.936	1	51
508.277	1	35
508.617	1	50
508.958	1	43
509.298	1	42
509.639	1	51
509.979	1	38
510.319	1	38
510.660	1	29
511.000	1	49
511.341	1	53
511.681	1	52
512.022	1	61
512.362	1	34
512.702	1	44
513.043	1	42
513.383	1	59
513.724	1	48
514.064	1	53
514.404	1	47
514.745	1	51
515.085	1	53
515.425	1	59
515.766	1	51
516.106	1	51
516.447	1	51
516.787	1	55
517.127	1	65
517.468	1	55
517.808	1	55
518.148	1	69
518.489	1	53
518.829	1	48
519.169	1	50
519.510	1	57
519.850	1	59
520.190	1	59
520.531	1	60
520.871	1	49
521.211	1	56
521.552	1	62
521.892	1	53
522.232	1	52
522.573	1	62
522.913	1	58
523.253	1	72
523.593	1	67
523.934	1	63
524.274	1	60
524.614	1	63
524.955	1	52
525.295	1	57
525.635	1	67
525.975	1	48
526.316	1	64
526.656	1	67
526.996	1	61
527.337	1	59
527.677	1	52
528.017	1	59
528.357	1	57
528.698	1	46
529.038	1	59
529.378	1	57
529.718	1	78
530.058	1	70
530.399	1	63
530.739	1	69
531.079	1	66
531.419	1	68
531.760	1	57
532.100	1	57
532.440	1	55
532.780	1	52
533.120	1	74
533.461	1	55
533.801	1	55
534.141	1	50
534.481	1	71
534.821	1	68
535.162	1	68
535.502	1	62
535.842	1	67
536.182	1	58
536.522	1	66
536.862	1	65
537.203	1	61
537.543	1	54
537.883	1	56
538.223	1	50
538.563	1	49
538.903	1	48
539.243	1	57
539.584	1	51
539.924	1	44
540.264	1	63
540.604	1	58
540.944	1	51
541.284	1	59
541.624	1	49
541.964	1	53
542.305	1	42
542.645	1	51
542.985	1	54
543.325	1	54
543.665	1	53
544.005	1	59
544.345	1	49
544.685	1	53
545.025	1	53
545.365	1	51
545.705	1	57
546.045	1	51
546.386	1	56
546.726	1	51
547.066	1	64
547.406	1	52
547.746	1	41
548.086	1	59
548.426	1	53
548.766	1	58
549.106	1	53
549.446	1	57
549.786	1	51
550.126	1	55
550.466	1	49
550.806	1	52
551.146	1	55
551.486	1	46
551.826	1	46
552.166	1	51
552.506	1	51
552.846	1	51
553.186	1	50
553.526	1	43
553.866	1	35
554.206	1	56
554.546	1	41
554.886	1	50
555.226	1	37
555.566	1	48
555.906	1	40
556.246	1	53
556.586	1	48
556.926	1	44
557.266	1	46
557.606	1	57
557.946	1	49
558.286	1	43
558.626	1	59
558.966	1	39
559.306	1	49
559.646	1	39
559.986	1	44
560.325	1	37
560.665	1	44
561.005	1	38
561.345	1	34
561.685	1	42
562.025	1	34
562.365	1	43
562.705	1	49
563.045	1	41
563.385	1	42
563.725	1	34
564.064	1	41
564.404	1	37
564.744	1	45
565.084	1	43
565.424	1	44
565.764	1	36
566.104	1	35
566.444	1	40
566.783	1	32
567.123	1	30
567.463	1	30
567.803	1	39
568.143	1	29
568.483	1	32
568.823	1	31
569.162	1	41
569.502	1	28
569.842	1	15
570.182	1	27
570.522	1	35
570.862	1	39
571.201	1	31
571.541	1	31
571.881	1	34
572.221	1	26
572.561	1	42
572.900	1	32
573.240	1	23
573.580	1	28
573.920	1	40
574.260	1	39
574.599	1	33
574.939	1	41
575.279	1	27
575.619	1	30
575.959	1	20
576.298	1	30
576.638	1	33
576.978	1	30
577.318	1	33
577.657	1	25
577.997	1	16
578.337	1	29
578.677	1	32
579.016	1	28
579.356	1	28
579.696	1	21
580.036	1	25
580.375	1	22
580.715	1	30
581.055	1	21
581.394	1	25
581.734	1	31
582.074	1	24
582.414	1	16
582.753	1	22
583.093	1	31
583.433	1	33
583.772	1	10
584.112	1	25
584.452	1	14
584.791	1	24
585.131	1	30
585.471	1	25
585.811	1	21
586.150	1	26
586.490	1	19
586.830	1	13
587.169	1	34
587.509	1	20
587.849	1	10
588.188	1	26
588.528	1	21
588.867	1	18
589.207	1	28
589.547	1	26
589.886	1	13
590.226	1	16
590.566	1	23
590.905	1	17
591.245	1	23
591.585	1	13
591.924	1	11
592.264	1	16
592.603	1	13
592.943	1	15
593.283	1	13
593.622	1	6
593.962	1	23
594.301	1	23
594.641	1	21
594.981	1	35
595.320	1	7
595.660	1	16
595.999	1	15
596.339	1	16
596.678	1	14
597.018	1	18
597.358	1	13
597.697	1	12
598.037	1	14
598.376	1	9
598.716	1	21
599.055	1	7
599.395	1	14
599.734	1	22
600.074	1	10
600.413	1	11
600.753	1	16
601.092	1	16
601.432	1	5
601.771	1	19
602.111	1	12
602.451	1	33
602.790	1	19
603.130	1	4
603.469	1	13
603.809	1	17
604.148	1	26
604.487	1	15
604.827	1	5
605.166	1	22
605.506	1	7
605.845	1	12
606.185	1	28
606.524	1	15
606.864	1	13
607.203	1	11
607.543	1	15
607.882	1	13
608.222	1	8
608.561	1	26
608.901	1	13
609.240	1	16
609.579	1	13
609.919	1	20
610.258	1	22
610.598	1	15
610.937	1	17
611.277	1	10
611.616	1	11
611.955	1	19
612.295	1	12
612.634	1	6
612.974	1	15
613.313	1	10
613.652	1	17
613.992	1	12
614.331	1	7
614.671	1	14
615.010	1	18
615.349	1	15
615.689	1	13
616.028	1	14
616.368	1	5
616.707	1	18
617.046	1	5
617.386	1	12
617.725	1	13
618.064	1	8
618.404	1	8
618.743	1	14
619.082	1	10
619.422	1	1
619.761	1	1
620.100	1	13
620.440	1	10
620.779	1	8
621.118	1	1
621.458	1	2
621.797	1	11
622.136	1	9
622.476	1	11
622.815	1	21
623.154	1	6
623.494	1	11
623.833	1	20
624.172	1	4
624.511	1	22
624.851	1	12
625.190	1	12
625.529	1	13
625.869	1	11
626.208	1	15
626.547	1	9
626.886	1	13
627.226	1	4
627.565	1	13
627.904	1	12
628.243	1	4
628.583	1	3
628.922	1	-3
629.261	1	16
629.600	1	5
629.940	1	3
630.279	1	9
630.618	1	2
630.957	1	11
631.297	1	7
631.636	1	17
631.975	1	3
632.314	1	7
632.653	1	22
632.993	1	1
633.332	1	10
633.671	1	8
634.010	1	16
634.349	1	3
634.689	1	8
635.028	1	9
635.367	1	4
635.706	1	1
636.045	1	13
636.384	1	-6
636.724	1	14
637.063	1	9
637.402	1	9
637.741	1	6
638.080	1	11
638.419	1	12
638.759	1	14
639.098	1	0
639.437	1	-4
639.776	1	1
640.115	1	10
640.454	1	11
640.793	1	4
641.132	1	3
641.472	1	8
641.811	1	15
642.150	1	9
642.489	1	5
642.828	1	7
643.167	1	8
643.506	1	12
643.845	1	3
644.184	1	14
644.524	1	17
644.863	1	7
645.202	1	19
645.541	1	23
645.880	1	16
646.219	1	6
646.558	1	12
646.897	1	16
647.236	1	2
647.575	1	-4
647.914	1	12
648.253	1	8
648.592	1	10
648.931	1	14
649.270	1	7
649.610	1	12
649.949	1	13
650.288	1	16
650.627	1	8
650.966	1	12
651.305	1	1
651.644	1	10
651.983	1	13
652.322	1	4
652.661	1	10
653.000	1	4
653.339	1	16
653.678	1	16
654.017	1	8
654.356	1	8
654.695	1	10
655.034	1	5
655.373	1	12
655.712	1	2
656.051	1	6
656.390	1	4
656.729	1	8
657.068	1	7
657.406	1	5
657.745	1	16
658.084	1	1
658.423	1	8
658.762	1	6
659.101	1	10
659.440	1	7
659.779	1	10
660.118	1	13
660.457	1	15
660.796	1	2
661.135	1	-9
661.474	1	12
661.813	1	9
662.152	1	12
662.491	1	-1
662.829	1	4
663.168	1	6
663.507	1	9
663.846	1	5
664.185	1	10
664.524	1	7
664.863	1	12
665.202	1	22
665.541	1	5
665.879	1	16
666.218	1	16
666.557	1	12
666.896	1	-1
667.235	1	4
667.574	1	-2
667.913	1	-6
668.251	1	4
668.590	1	7
668.929	1	12
669.268	1	2
669.607	1	-4
669.946	1	5
670.285	1	20
670.623	1	6
670.962	1	14
671.301	1	9
671.640	1	11
671.979	1	7
672.317	1	11
672.656	1	5
672.995	1	-4
673.334	1	7
673.673	1	12
674.011	1	16
674.350	1	10
674.689	1	7
675.028	1	-4
675.367	1	3
675.705	1	12
676.044	1	21
676.383	1	15
676.722	1	21
677.060	1	2
677.399	1	14
677.738	1	10
678.077	1	13
678.416	1	-2
678.754	1	23
679.093	1	12
679.432	1	1
679.771	1	18
680.109	1	3
680.448	1	9
680.787	1	-2
681.125	1	17
681.464	1	12
681.803	1	12
682.142	1	7
682.480	1	-1
682.819	1	16
683.158	1	-1
683.496	1	18
683.835	1	3
684.174	1	6
684.512	1	6
684.851	1	8
685.190	1	12
685.529	1	14
685.867	1	10
686.206	1	19
686.545	1	24
686.883	1	12
687.222	1	5
687.561	1	7
687.899	1	9
688.238	1	1
688.577	1	22
688.746	1	8