File: Data/GaN_170K_550ms/GaN_sample D_spot 18_UVVIS_170 K_200um_550 ms 2x2mm1_90.txt
340.368	1	2
340.710	1	-3
341.052	1	3
341.394	1	12
341.737	1	0
342.079	1	3
342.421	1	7
342.763	1	4
343.105	1	8
343.447	1	-5
343.789	1	11
344.131	1	11
344.473	1	2
344.815	1	15
345.157	1	6
345.499	1	-6
345.841	1	0
346.183	1	21
346.526	1	6
346.868	1	5
347.210	1	-3
347.552	1	7
347.894	1	4
348.236	1	4
348.578	1	4
348.920	1	1
349.262	1	0
349.604	1	6
349.946	1	13
350.288	1	-1
350.630	1	20
350.972	1	-2
351.314	1	12
351.656	1	1
351.998	1	14
352.340	1	16
352.682	1	10
353.024	1	5
353.366	1	9
353.708	1	16
354.050	1	6
354.392	1	13
354.734	1	17
355.076	1	8
355.418	1	11
355.760	1	6
356.102	1	9
356.444	1	19
356.785	1	11
357.127	1	18
357.469	1	19
357.811	1	19
358.153	1	17
358.495	1	12
358.837	1	18
359.179	1	17
359.521	1	34
359.863	1	24
360.205	1	39
360.547	1	36
360.889	1	37
361.231	1	39
361.572	1	57
361.914	1	35
362.256	1	45
362.598	1	46
362.940	1	69
363.282	1	56
363.624	1	59
363.966	1	62
364.308	1	69
364.649	1	66
364.991	1	75
365.333	1	76
365.675	1	87
366.017	1	94
366.359	1	97
366.701	1	113
367.042	1	113
367.384	1	112
367.726	1	142
368.068	1	131
368.410	1	140
368.752	1	130
369.093	1	126
369.435	1	122
369.777	1	129
370.119	1	116
370.461	1	128
370.803	1	108
371.144	1	106
371.486	1	95
371.828	1	99
372.170	1	82
372.512	1	89
372.853	1	98
373.195	1	90
373.537	1	91
373.879	1	73
374.220	1	80
374.562	1	68
374.904	1	62
375.246	1	64
375.588	1	65
375.929	1	66
376.271	1	67
376.613	1	57
376.955	1	57
377.296	1	45
377.638	1	54
377.980	1	37
378.321	1	53
378.663	1	40
379.005	1	36
379.347	1	34
379.688	1	41
380.030	1	36
380.372	1	43
380.714	1	41
381.055	1	29
381.397	1	33
381.739	1	18
382.080	1	25
382.422	1	20
382.764	1	38
383.105	1	21
383.447	1	34
383.789	1	38
384.130	1	9
384.472	1	16
384.814	1	33
385.156	1	21
385.497	1	20
385.839	1	13
386.180	1	26
386.522	1	13
386.864	1	11
387.205	1	6
387.547	1	16
387.889	1	17
388.230	1	18
388.572	1	18
388.914	1	15
389.255	1	24
389.597	1	5
389.939	1	8
390.280	1	12
390.622	1	9
390.963	1	13
391.305	1	17
391.647	1	4
391.988	1	15
392.330	1	12
392.671	1	8
393.013	1	8
393.355	1	10
393.696	1	13
394.038	1	3
394.379	1	0
394.721	1	4
395.062	1	2
395.404	1	19
395.746	1	16
396.087	1	15
396.429	1	15
396.770	1	7
397.112	1	12
397.453	1	10
397.795	1	7
398.136	1	11
398.478	1	-1
398.819	1	5
399.161	1	4
399.503	1	13
399.844	1	-5
400.186	1	-8
400.527	1	14
400.869	1	4
401.210	1	7
401.552	1	11
401.893	1	6
402.235	1	8
402.576	1	4
402.918	1	2
403.259	1	13
403.601	1	13
403.942	1	4
404.284	1	-3
404.625	1	13
404.967	1	0
405.308	1	10
405.649	1	5
405.991	1	1
406.332	1	-14
406.674	1	12
407.015	1	9
407.357	1	-1
407.698	1	2
408.040	1	3
408.381	1	12
408.722	1	1
409.064	1	-2
409.405	1	15
409.747	1	7
410.088	1	-3
410.430	1	-1
410.771	1	11
411.112	1	6
411.454	1	9
411.795	1	8
412.137	1	-3
412.478	1	2
412.819	1	0
413.161	1	10
413.502	1	6
413.844	1	7
414.185	1	0
414.526	1	5
414.868	1	1
415.209	1	-8
415.550	1	-1
415.892	1	7
416.233	1	3
416.575	1	1
416.916	1	4
417.257	1	5
417.599	1	2
417.940	1	0
418.281	1	-6
418.623	1	8
418.964	1	-5
419.305	1	1
419.647	1	2
419.988	1	7
420.329	1	1
420.671	1	-6
421.012	1	3
421.353	1	10
421.695	1	1
422.036	1	9
422.377	1	11
422.718	1	9
423.060	1	11
423.401	1	1
423.742	1	3
424.084	1	18
424.425	1	-5
424.766	1	5
425.107	1	16
425.449	1	14
425.790	1	7
426.131	1	6
426.472	1	5
426.814	1	4
427.155	1	10
427.496	1	-2
427.837	1	10
428.179	1	11
428.520	1	4
428.861	1	3
429.202	1	0
429.544	1	0
429.885	1	2
430.226	1	6
430.567	1	6
430.909	1	-3
431.250	1	27
431.591	1	2
431.932	1	2
432.273	1	-2
432.615	1	-1
432.956	1	8
433.297	1	2
433.638	1	9
433.979	1	5
434.320	1	7
434.662	1	-10
435.003	1	9
435.344	1	-4
435.685	1	4
436.026	1	0
436.368	1	7
436.709	1	0
437.050	1	-3
437.391	1	5
437.732	1	2
438.073	1	-5
438.414	1	-3
438.756	1	-6
439.097	1	3
439.438	1	6
439.779	1	5
440.120	1	2
440.461	1	16
440.802	1	9
441.143	1	1
441.485	1	-2
441.826	1	4
442.167	1	8
442.508	1	3
442.849	1	-8
443.190	1	3
443.531	1	5
443.872	1	-2
444.213	1	3
444.554	1	-3
444.895	1	-13
445.237	1	-6
445.578	1	14
445.919	1	14
446.260	1	13
446.601	1	-2
446.942	1	11
447.283	1	7
447.624	1	0
447.965	1	9
448.306	1	-2
448.647	1	-7
448.988	1	9
449.329	1	6
449.670	1	-4
450.011	1	16
450.352	1	-10
450.693	1	-10
451.034	1	0
451.375	1	6
451.716	1	10
452.057	1	5
452.398	1	6
452.739	1	2
453.080	1	-4
453.421	1	7
453.762	1	0
454.103	1	5
454.444	1	4
454.785	1	8
455.126	1	6
455.467	1	-7
455.808	1	7
456.149	1	7
456.490	1	-4
456.831	1	0
457.172	1	8
457.513	1	12
457.854	1	21
458.195	1	12
458.536	1	-2
458.877	1	6
459.218	1	3
459.559	1	10
459.899	1	4
460.240	1	1
460.581	1	6
460.922	1	-5
461.263	1	3
461.604	1	11
461.945	1	5
462.286	1	-2
462.627	1	2
462.968	1	5
463.309	1	7
463.649	1	3
463.990	1	-2
464.331	1	8
464.672	1	8
465.013	1	8
465.354	1	1
465.695	1	6
466.036	1	-7
466.376	1	10
466.717	1	3
467.058	1	9
467.399	1	15
467.740	1	3
468.081	1	-1
468.422	1	9
468.762	1	13
469.103	1	1
469.444	1	3
469.785	1	7
470.126	1	5
470.467	1	5
470.807	1	0
471.148	1	-5
471.489	1	5
471.830	1	3
472.171	1	10
472.511	1	5
472.852	1	4
473.193	1	13
473.534	1	4
473.875	1	7
474.215	1	-4
474.556	1	5
474.897	1	-10
475.238	1	2
475.578	1	2
475.919	1	4
476.260	1	15
476.601	1	4
476.942	1	1
477.282	1	19
477.623	1	11
477.964	1	5
478.305	1	4
478.645	1	12
478.986	1	5
479.327	1	-10
479.667	1	8
480.008	1	13
480.349	1	6
480.690	1	4
481.030	1	7
481.371	1	-1
481.712	1	8
482.053	1	-3
482.393	1	-6
482.734	1	13
483.075	1	8
483.415	1	4
483.756	1	4
484.097	1	1
484.437	1	5
484.778	1	2
485.119	1	13
485.459	1	-6
485.800	1	8
486.141	1	16
486.481	1	8
486.822	1	-2
487.163	1	13
487.503	1	9
487.844	1	8
488.185	1	6
488.525	1	11
488.866	1	20
489.207	1	16
489.547	1	16
489.888	1	6
490.228	1	5
490.569	1	14
490.910	1	12
491.250	1	6
491.591	1	-2
491.932	1	16
492.272	1	17
492.613	1	4
492.953	1	-1
493.294	1	1
493.635	1	-6
493.975	1	6
494.316	1	6
494.656	1	9
494.997	1	8
495.337	1	25
495.678	1	13
496.019	1	1
496.359	1	14
496.700	1	17
497.040	1	10
497.381	1	11
497.721	1	7
498.062	1	11
498.403	1	16
498.743	1	9
499.084	1	14
499.424	1	18
499.765	1	8
500.105	1	3
500.446	1	7
500.786	1	11
501.127	1	12
501.467	1	7
501.808	1	8
502.148	1	16
502.489	1	10
502.829	1	11
503.170	1	19
503.510	1	12
503.851	1	8
504.191	1	3
504.532	1	11
504.872	1	14
505.213	1	14
505.553	1	11
505.894	1	23
506.234	1	10
506.575	1	17
506.915	1	27
507.256	1	9
507.596	1	17
507.936	1	30
508.277	1	7
508.617	1	26
508.958	1	12
509.298	1	21
509.639	1	25
509.979	1	16
510.319	1	17
510.660	1	8
511.000	1	24
511.341	1	22
511.681	1	14
512.022	1	14
512.362	1	7
512.702	1	8
513.043	1	18
513.383	1	17
513.724	1	13
514.064	1	20
514.404	1	10
514.745	1	12
515.085	1	24
515.425	1	17
515.766	1	12
516.106	1	28
516.447	1	7
516.787	1	17
517.127	1	25
517.468	1	15
517.808	1	17
518.148	1	18
518.489	1	20
518.829	1	15
519.169	1	13
519.510	1	19
519.850	1	21
520.190	1	17
520.531	1	26
520.871	1	11
521.211	1	21
521.552	1	21
521.892	1	19
522.232	1	6
522.573	1	19
522.913	1	24
523.253	1	34
523.593	1	15
523.934	1	24
524.274	1	20
524.614	1	24
524.955	1	11
525.295	1	14
525.635	1	21
525.975	1	30
526.316	1	21
526.656	1	26
526.996	1	23
527.337	1	15
527.677	1	9
528.017	1	26
528.357	1	10
528.698	1	16
529.038	1	7
529.378	1	23
529.718	1	23
530.058	1	28
530.399	1	19
530.739	1	27
531.079	1	27
531.419	1	33
531.760	1	23
532.100	1	19
532.440	1	20
532.780	1	6
533.120	1	29
533.461	1	15
533.801	1	20
534.141	1	14
534.481	1	33
534.821	1	22
535.162	1	24
535.502	1	25
535.842	1	18
536.182	1	12
536.522	1	20
536.862	1	26
537.203	1	15
537.543	1	9
537.883	1	16
538.223	1	25
538.563	1	15
538.903	1	19
539.243	1	16
539.584	1	13
539.924	1	13
540.264	1	28
540.604	1	11
540.944	1	15
541.284	1	19
541.624	1	12
541.964	1	21
542.305	1	16
542.645	1	8
542.985	1	18
543.325	1	17
543.665	1	29
544.005	1	30
544.345	1	20
544.685	1	17
545.025	1	11
545.365	1	10
545.705	1	24
546.045	1	7
546.386	1	19
546.726	1	19
547.066	1	30
547.406	1	23
547.746	1	14
548.086	1	12
548.426	1	23
548.766	1	20
549.106	1	21
549.446	1	17
549.786	1	15
550.126	1	19
550.466	1	15
550.806	1	17
551.146	1	21
551.486	1	22
551.826	1	21
552.166	1	13
552.506	1	18
552.846	1	17
553.186	1	16
553.526	1	8
553.866	1	2
554.206	1	21
554.546	1	5
554.886	1	10
555.226	1	9
555.566	1	16
555.906	1	10
556.246	1	12
556.586	1	7
556.926	1	10
557.266	1	15
557.606	1	19
557.946	1	21
558.286	1	14
558.626	1	25
558.966	1	19
559.306	1	19
559.646	1	11
559.986	1	15
560.325	1	8
560.665	1	8
561.005	1	22
561.345	1	9
561.685	1	15
562.025	1	6
562.365	1	14
562.705	1	32
563.045	1	15
563.385	1	15
563.725	1	1
564.064	1	13
564.404	1	14
564.744	1	19
565.084	1	20
565.424	1	12
565.764	1	14
566.104	1	10
566.444	1	17
566.783	1	5
567.123	1	7
567.463	1	0
567.803	1	12
568.143	1	10
568.483	1	16
568.823	1	10
569.162	1	16
569.502	1	8
569.842	1	3
570.182	1	12
570.522	1	14
570.862	1	3
571.201	1	19
571.541	1	-3
571.881	1	5
572.221	1	17
572.561	1	10
572.900	1	2
573.240	1	11
573.580	1	10
573.920	1	18
574.260	1	13
574.599	1	10
574.939	1	2
575.279	1	12
575.619	1	20
575.959	1	-11
576.298	1	21
576.638	1	18
576.978	1	11
577.318	1	5
577.657	1	3
577.997	1	-3
578.337	1	9
578.677	1	15
579.016	1	14
579.356	1	7
579.696	1	1
580.036	1	9
580.375	1	7
580.715	1	10
581.055	1	21
581.394	1	2
581.734	1	12
582.074	1	11
582.414	1	-3
582.753	1	10
583.093	1	13
583.433	1	15
583.772	1	9
584.112	1	10
584.452	1	3
584.791	1	4
585.131	1	22
585.471	1	13
585.811	1	0
586.150	1	6
586.490	1	7
586.830	1	-1
587.169	1	15
587.509	1	12
587.849	1	0
588.188	1	6
588.528	1	9
588.867	1	4
589.207	1	4
589.547	1	15
589.886	1	2
590.226	1	-1
590.566	1	5
590.905	1	16
591.245	1	10
591.585	1	5
591.924	1	1
592.264	1	-2
592.603	1	11
592.943	1	12
593.283	1	8
593.622	1	7
593.962	1	6
594.301	1	18
594.641	1	12
594.981	1	14
595.320	1	0
595.660	1	5
595.999	1	2
596.339	1	16
596.678	1	-5
597.018	1	-6
597.358	1	-5
597.697	1	0
598.037	1	9
598.376	1	1
598.716	1	8
599.055	1	-3
599.395	1	9
599.734	1	13
600.074	1	3
600.413	1	-7
600.753	1	6
601.092	1	-4
601.432	1	-4
601.771	1	10
602.111	1	-3
602.451	1	3
602.790	1	16
603.130	1	6
603.469	1	16
603.809	1	8
604.148	1	5
604.487	1	11
604.827	1	0
605.166	1	8
605.506	1	2
605.845	1	15
606.185	1	12
606.524	1	5
606.864	1	12
607.203	1	12
607.543	1	11
607.882	1	-1
608.222	1	3
608.561	1	14
608.901	1	4
609.240	1	6
609.579	1	-5
609.919	1	2
610.258	1	6
610.598	1	10
610.937	1	1
611.277	1	-1
611.616	1	12
611.955	1	9
612.295	1	7
612.634	1	7
612.974	1	0
613.313	1	3
613.652	1	18
613.992	1	9
614.331	1	5
614.671	1	9
615.010	1	8
615.349	1	12
615.689	1	22
616.028	1	8
616.368	1	0
616.707	1	12
617.046	1	-6
617.386	1	9
617.725	1	3
618.064	1	3
618.404	1	18
618.743	1	14
619.082	1	13
619.422	1	-2
619.761	1	0
620.100	1	2
620.440	1	10
620.779	1	6
621.118	1	0
621.458	1	-2
621.797	1	1
622.136	1	2
622.476	1	-1
622.815	1	5
623.154	1	-2
623.494	1	-1
623.833	1	9
624.172	1	5
624.511	1	7
624.851	1	3
625.190	1	8
625.529	1	10
625.869	1	11
626.208	1	7
626.547	1	4
626.886	1	9
627.226	1	6
627.565	1	4
627.904	1	1
628.243	1	2
628.583	1	2
628.922	1	-10
629.261	1	6
629.600	1	1
629.940	1	-3
630.279	1	7
630.618	1	-6
630.957	1	6
631.297	1	3
631.636	1	16
631.975	1	1
632.314	1	-2
632.653	1	13
632.993	1	1
633.332	1	10
633.671	1	11
634.010	1	10
634.349	1	-1
634.689	1	3
635.028	1	4
635.367	1	-6
635.706	1	14
636.045	1	8
636.384	1	-12
636.724	1	11
637.063	1	7
637.402	1	14
637.741	1	3
638.080	1	15
638.419	1	3
638.759	1	5
639.098	1	0
639.437	1	0
639.776	1	5
640.115	1	4
640.454	1	5
640.793	1	5
641.132	1	12
641.472	1	-4
641.811	1	15
642.150	1	11
642.489	1	-3
642.828	1	7
643.167	1	-1
643.506	1	-1
643.845	1	3
644.184	1	9
644.524	1	8
644.863	1	3
645.202	1	6
645.541	1	7
645.880	1	8
646.219	1	-4
646.558	1	14
646.897	1	12
647.236	1	12
647.575	1	-1
647.914	1	2
648.253	1	2
648.592	1	2
648.931	1	4
649.270	1	1
649.610	1	3
649.949	1	-3
650.288	1	3
650.627	1	-4
650.966	1	0
651.305	1	8
651.644	1	5
651.983	1	6
652.322	1	-5
652.661	1	3
653.000	1	-6
653.339	1	-1
653.678	1	10
654.017	1	9
654.356	1	5
654.695	1	17
655.034	1	0
655.373	1	9
655.712	1	-4
656.051	1	1
656.390	1	10
656.729	1	7
657.068	1	12
657.406	1	9
657.745	1	11
658.084	1	-4
658.423	1	3
658.762	1	2
659.101	1	-2
659.440	1	12
659.779	1	5
660.118	1	3
660.457	1	4
660.796	1	9
661.135	1	-7
661.474	1	9
661.813	1	5
662.152	1	-2
662.491	1	-5
662.829	1	-2
663.168	1	4
663.507	1	-5
663.846	1	0
664.185	1	8
664.524	1	3
664.863	1	4
665.202	1	14
665.541	1	1
665.879	1	9
666.218	1	8
666.557	1	9
666.896	1	10
667.235	1	12
667.574	1	-6
667.913	1	-3
668.251	1	10
668.590	1	-2
668.929	1	4
669.268	1	5
669.607	1	5
669.946	1	8
670.285	1	19
670.623	1	3
670.962	1	-1
671.301	1	4
671.640	1	-1
671.979	1	7
672.317	1	3
672.656	1	9
672.995	1	-4
673.334	1	8
673.673	1	7
674.011	1	12
674.350	1	10
674.689	1	4
675.028	1	7
675.367	1	2
675.705	1	10
676.044	1	21
676.383	1	10
676.722	1	20
677.060	1	-1
677.399	1	-2
677.738	1	-1
678.077	1	9
678.416	1	-4
678.754	1	1
679.093	1	4
679.432	1	10
679.771	1	10
680.109	1	-1
680.448	1	5
680.787	1	-9
681.125	1	12
681.464	1	11
681.803	1	2
682.142	1	3
682.480	1	6
682.819	1	19
683.158	1	6
683.496	1	10
683.835	1	0
684.174	1	7
684.512	1	-1
684.851	1	7
685.190	1	6
685.529	1	17
685.867	1	11
686.206	1	6
686.545	1	15
686.883	1	5
687.222	1	10
687.561	1	11
687.899	1	-1
688.238	1	10
688.577	1	11
688.746	1	0