File: Data/GaN_170K_550ms/GaN_sample D_spot 18_UVVIS_170 K_200um_550 ms 2x2mm1_350.txt
340.368	1	0
340.710	1	-10
341.052	1	2
341.394	1	-8
341.737	1	1
342.079	1	-2
342.421	1	5
342.763	1	4
343.105	1	4
343.447	1	-9
343.789	1	7
344.131	1	-3
344.473	1	1
344.815	1	4
345.157	1	4
345.499	1	-2
345.841	1	8
346.183	1	-3
346.526	1	11
346.868	1	4
347.210	1	-3
347.552	1	5
347.894	1	0
348.236	1	4
348.578	1	11
348.920	1	3
349.262	1	5
349.604	1	8
349.946	1	4
350.288	1	-1
350.630	1	19
350.972	1	-6
351.314	1	9
351.656	1	-3
351.998	1	8
352.340	1	7
352.682	1	-4
353.024	1	-7
353.366	1	4
353.708	1	8
354.050	1	-5
354.392	1	-1
354.734	1	5
355.076	1	4
355.418	1	-4
355.760	1	1
356.102	1	2
356.444	1	-8
356.785	1	1
357.127	1	-1
357.469	1	3
357.811	1	-4
358.153	1	6
358.495	1	0
358.837	1	1
359.179	1	3
359.521	1	7
359.863	1	6
360.205	1	6
360.547	1	6
360.889	1	11
361.231	1	3
361.572	1	4
361.914	1	2
362.256	1	-4
362.598	1	6
362.940	1	5
363.282	1	14
363.624	1	10
363.966	1	-3
364.308	1	12
364.649	1	-2
364.991	1	6
365.333	1	6
365.675	1	12
366.017	1	5
366.359	1	6
366.701	1	7
367.042	1	2
367.384	1	15
367.726	1	9
368.068	1	-5
368.410	1	9
368.752	1	8
369.093	1	-10
369.435	1	-3
369.777	1	9
370.119	1	2
370.461	1	15
370.803	1	2
371.144	1	-1
371.486	1	3
371.828	1	-1
372.170	1	7
372.512	1	1
372.853	1	5
373.195	1	4
373.537	1	5
373.879	1	11
374.220	1	13
374.562	1	4
374.904	1	9
375.246	1	-2
375.588	1	2
375.929	1	4
376.271	1	7
376.613	1	5
376.955	1	11
377.296	1	1
377.638	1	-2
377.980	1	-8
378.321	1	-4
378.663	1	7
379.005	1	-5
379.347	1	0
379.688	1	6
380.030	1	5
380.372	1	7
380.714	1	13
381.055	1	-3
381.397	1	-2
381.739	1	-2
382.080	1	-2
382.422	1	4
382.764	1	7
383.105	1	6
383.447	1	3
383.789	1	10
384.130	1	-9
384.472	1	-4
384.814	1	1
385.156	1	-14
385.497	1	9
385.839	1	-5
386.180	1	6
386.522	1	8
386.864	1	-4
387.205	1	1
387.547	1	14
387.889	1	3
388.230	1	-2
388.572	1	3
388.914	1	3
389.255	1	6
389.597	1	0
389.939	1	-8
390.280	1	4
390.622	1	-6
390.963	1	0
391.305	1	-8
391.647	1	-11
391.988	1	5
392.330	1	10
392.671	1	2
393.013	1	4
393.355	1	-3
393.696	1	10
394.038	1	-6
394.379	1	3
394.721	1	-3
395.062	1	5
395.404	1	4
395.746	1	2
396.087	1	3
396.429	1	3
396.770	1	7
397.112	1	0
397.453	1	9
397.795	1	-1
398.136	1	7
398.478	1	-5
398.819	1	-5
399.161	1	-1
399.503	1	2
399.844	1	-5
400.186	1	0
400.527	1	15
400.869	1	-4
401.210	1	2
401.552	1	3
401.893	1	18
402.235	1	1
402.576	1	4
402.918	1	-1
403.259	1	3
403.601	1	0
403.942	1	-2
404.284	1	-11
404.625	1	2
404.967	1	2
405.308	1	9
405.649	1	6
405.991	1	4
406.332	1	-4
406.674	1	-3
407.015	1	7
407.357	1	-9
407.698	1	4
408.040	1	-7
408.381	1	1
408.722	1	-5
409.064	1	-3
409.405	1	3
409.747	1	2
410.088	1	11
410.430	1	-1
410.771	1	4
411.112	1	-5
411.454	1	1
411.795	1	4
412.137	1	-9
412.478	1	-10
412.819	1	-13
413.161	1	3
413.502	1	-4
413.844	1	4
414.185	1	0
414.526	1	3
414.868	1	-3
415.209	1	-14
415.550	1	-1
415.892	1	1
416.233	1	-3
416.575	1	2
416.916	1	-6
417.257	1	2
417.599	1	-3
417.940	1	4
418.281	1	-9
418.623	1	-1
418.964	1	-4
419.305	1	3
419.647	1	3
419.988	1	6
420.329	1	2
420.671	1	-5
421.012	1	3
421.353	1	-2
421.695	1	-3
422.036	1	1
422.377	1	6
422.718	1	3
423.060	1	-4
423.401	1	3
423.742	1	-6
424.084	1	10
424.425	1	-17
424.766	1	2
425.107	1	2
425.449	1	4
425.790	1	5
426.131	1	3
426.472	1	-5
426.814	1	-18
427.155	1	1
427.496	1	4
427.837	1	11
428.179	1	2
428.520	1	-3
428.861	1	-1
429.202	1	-10
429.544	1	-13
429.885	1	-5
430.226	1	0
430.567	1	-2
430.909	1	-15
431.250	1	19
431.591	1	3
431.932	1	-6
432.273	1	8
432.615	1	-6
432.956	1	1
433.297	1	-4
433.638	1	0
433.979	1	-2
434.320	1	9
434.662	1	-7
435.003	1	-1
435.344	1	-5
435.685	1	-6
436.026	1	1
436.368	1	5
436.709	1	-1
437.050	1	-3
437.391	1	-10
437.732	1	3
438.073	1	-8
438.414	1	-3
438.756	1	-12
439.097	1	0
439.438	1	10
439.779	1	4
440.120	1	0
440.461	1	14
440.802	1	1
441.143	1	-3
441.485	1	-2
441.826	1	9
442.167	1	6
442.508	1	-13
442.849	1	-4
443.190	1	2
443.531	1	-4
443.872	1	9
444.213	1	1
444.554	1	-1
444.895	1	-7
445.237	1	-12
445.578	1	1
445.919	1	2
446.260	1	-6
446.601	1	-13
446.942	1	4
447.283	1	5
447.624	1	-4
447.965	1	-1
448.306	1	3
448.647	1	-2
448.988	1	14
449.329	1	-2
449.670	1	-20
450.011	1	12
450.352	1	0
450.693	1	-10
451.034	1	-10
451.375	1	3
451.716	1	-1
452.057	1	4
452.398	1	5
452.739	1	2
453.080	1	-2
453.421	1	3
453.762	1	-8
454.103	1	7
454.444	1	5
454.785	1	-2
455.126	1	3
455.467	1	-12
455.808	1	6
456.149	1	-2
456.490	1	1
456.831	1	-3
457.172	1	-8
457.513	1	10
457.854	1	8
458.195	1	-1
458.536	1	-1
458.877	1	0
459.218	1	-2
459.559	1	-7
459.899	1	-4
460.240	1	5
460.581	1	1
460.922	1	-3
461.263	1	-4
461.604	1	3
461.945	1	7
462.286	1	3
462.627	1	8
462.968	1	7
463.309	1	6
463.649	1	4
463.990	1	7
464.331	1	3
464.672	1	0
465.013	1	13
465.354	1	-5
465.695	1	5
466.036	1	-4
466.376	1	1
466.717	1	0
467.058	1	-3
467.399	1	8
467.740	1	7
468.081	1	-4
468.422	1	6
468.762	1	9
469.103	1	13
469.444	1	-4
469.785	1	-12
470.126	1	-2
470.467	1	5
470.807	1	-4
471.148	1	-9
471.489	1	-7
471.830	1	-5
472.171	1	11
472.511	1	-3
472.852	1	4
473.193	1	6
473.534	1	0
473.875	1	1
474.215	1	6
474.556	1	2
474.897	1	7
475.238	1	-1
475.578	1	0
475.919	1	-3
476.260	1	8
476.601	1	1
476.942	1	-1
477.282	1	10
477.623	1	11
477.964	1	-1
478.305	1	-8
478.645	1	1
478.986	1	-6
479.327	1	-11
479.667	1	-6
480.008	1	7
480.349	1	4
480.690	1	4
481.030	1	2
481.371	1	-1
481.712	1	-2
482.053	1	-10
482.393	1	2
482.734	1	6
483.075	1	-1
483.415	1	7
483.756	1	2
484.097	1	-5
484.437	1	-6
484.778	1	-5
485.119	1	-4
485.459	1	-6
485.800	1	-5
486.141	1	14
486.481	1	1
486.822	1	3
487.163	1	10
487.503	1	1
487.844	1	12
488.185	1	-5
488.525	1	9
488.866	1	10
489.207	1	-2
489.547	1	7
489.888	1	6
490.228	1	-7
490.569	1	-8
490.910	1	-8
491.250	1	-4
491.591	1	-3
491.932	1	11
492.272	1	4
492.613	1	-3
492.953	1	-3
493.294	1	2
493.635	1	-8
493.975	1	9
494.316	1	-9
494.656	1	7
494.997	1	3
495.337	1	-2
495.678	1	3
496.019	1	-12
496.359	1	6
496.700	1	11
497.040	1	-8
497.381	1	2
497.721	1	0
498.062	1	-6
498.403	1	-5
498.743	1	2
499.084	1	-1
499.424	1	3
499.765	1	-7
500.105	1	-7
500.446	1	0
500.786	1	-3
501.127	1	6
501.467	1	-9
501.808	1	-8
502.148	1	8
502.489	1	-6
502.829	1	5
503.170	1	4
503.510	1	4
503.851	1	0
504.191	1	-6
504.532	1	-13
504.872	1	4
505.213	1	-4
505.553	1	-3
505.894	1	9
506.234	1	-6
506.575	1	5
506.915	1	6
507.256	1	-9
507.596	1	5
507.936	1	14
508.277	1	-5
508.617	1	9
508.958	1	-3
509.298	1	-7
509.639	1	2
509.979	1	-1
510.319	1	-7
510.660	1	-7
511.000	1	2
511.341	1	7
511.681	1	5
512.022	1	0
512.362	1	-1
512.702	1	-14
513.043	1	4
513.383	1	8
513.724	1	-5
514.064	1	-3
514.404	1	0
514.745	1	-1
515.085	1	-5
515.425	1	3
515.766	1	-2
516.106	1	11
516.447	1	-2
516.787	1	1
517.127	1	-3
517.468	1	7
517.808	1	7
518.148	1	2
518.489	1	1
518.829	1	1
519.169	1	5
519.510	1	8
519.850	1	3
520.190	1	3
520.531	1	6
520.871	1	5
521.211	1	0
521.552	1	2
521.892	1	-5
522.232	1	-12
522.573	1	3
522.913	1	4
523.253	1	2
523.593	1	-1
523.934	1	-2
524.274	1	2
524.614	1	5
524.955	1	-1
525.295	1	5
525.635	1	4
525.975	1	5
526.316	1	1
526.656	1	0
526.996	1	-6
527.337	1	10
527.677	1	-2
528.017	1	-1
528.357	1	-6
528.698	1	-9
529.038	1	-4
529.378	1	-2
529.718	1	10
530.058	1	3
530.399	1	3
530.739	1	0
531.079	1	7
531.419	1	8
531.760	1	4
532.100	1	0
532.440	1	1
532.780	1	-15
533.120	1	3
533.461	1	2
533.801	1	-7
534.141	1	-2
534.481	1	7
534.821	1	0
535.162	1	-3
535.502	1	-2
535.842	1	-5
536.182	1	-8
536.522	1	5
536.862	1	4
537.203	1	-9
537.543	1	-7
537.883	1	7
538.223	1	-2
538.563	1	0
538.903	1	0
539.243	1	0
539.584	1	-2
539.924	1	3
540.264	1	10
540.604	1	-9
540.944	1	-3
541.284	1	6
541.624	1	-4
541.964	1	3
542.305	1	5
542.645	1	-2
542.985	1	-3
543.325	1	5
543.665	1	1
544.005	1	13
544.345	1	3
544.685	1	3
545.025	1	4
545.365	1	0
545.705	1	11
546.045	1	-4
546.386	1	-3
546.726	1	3
547.066	1	7
547.406	1	-2
547.746	1	-2
548.086	1	3
548.426	1	1
548.766	1	1
549.106	1	4
549.446	1	4
549.786	1	-4
550.126	1	6
550.466	1	3
550.806	1	5
551.146	1	5
551.486	1	2
551.826	1	11
552.166	1	2
552.506	1	1
552.846	1	5
553.186	1	1
553.526	1	-10
553.866	1	-4
554.206	1	4
554.546	1	-10
554.886	1	2
555.226	1	1
555.566	1	4
555.906	1	-5
556.246	1	-5
556.586	1	-4
556.926	1	5
557.266	1	3
557.606	1	-4
557.946	1	16
558.286	1	1
558.626	1	13
558.966	1	-2
559.306	1	8
559.646	1	1
559.986	1	1
560.325	1	-5
560.665	1	1
561.005	1	-3
561.345	1	-5
561.685	1	-3
562.025	1	-7
562.365	1	2
562.705	1	3
563.045	1	2
563.385	1	7
563.725	1	-11
564.064	1	3
564.404	1	-1
564.744	1	4
565.084	1	2
565.424	1	9
565.764	1	-3
566.104	1	-7
566.444	1	11
566.783	1	2
567.123	1	-1
567.463	1	-11
567.803	1	5
568.143	1	-1
568.483	1	1
568.823	1	2
569.162	1	3
569.502	1	-2
569.842	1	-3
570.182	1	-12
570.522	1	3
570.862	1	2
571.201	1	12
571.541	1	-4
571.881	1	-11
572.221	1	8
572.561	1	1
572.900	1	-8
573.240	1	-1
573.580	1	-1
573.920	1	8
574.260	1	3
574.599	1	3
574.939	1	-5
575.279	1	-1
575.619	1	5
575.959	1	-12
576.298	1	4
576.638	1	7
576.978	1	3
577.318	1	0
577.657	1	15
577.997	1	-8
578.337	1	10
578.677	1	4
579.016	1	0
579.356	1	-2
579.696	1	-3
580.036	1	-8
580.375	1	2
580.715	1	4
581.055	1	2
581.394	1	1
581.734	1	-2
582.074	1	-2
582.414	1	-5
582.753	1	1
583.093	1	3
583.433	1	11
583.772	1	0
584.112	1	-3
584.452	1	-6
584.791	1	0
585.131	1	7
585.471	1	6
585.811	1	-5
586.150	1	-2
586.490	1	0
586.830	1	-14
587.169	1	11
587.509	1	2
587.849	1	0
588.188	1	1
588.528	1	-3
588.867	1	1
589.207	1	-2
589.547	1	7
589.886	1	-12
590.226	1	2
590.566	1	-1
590.905	1	5
591.245	1	2
591.585	1	8
591.924	1	-5
592.264	1	-8
592.603	1	5
592.943	1	6
593.283	1	5
593.622	1	-4
593.962	1	4
594.301	1	-4
594.641	1	8
594.981	1	4
595.320	1	-2
595.660	1	-1
595.999	1	-9
596.339	1	4
596.678	1	-4
597.018	1	-7
597.358	1	-11
597.697	1	3
598.037	1	-8
598.376	1	-8
598.716	1	1
599.055	1	1
599.395	1	2
599.734	1	17
600.074	1	-2
600.413	1	-7
600.753	1	2
601.092	1	-2
601.432	1	-8
601.771	1	7
602.111	1	-1
602.451	1	6
602.790	1	5
603.130	1	-6
603.469	1	4
603.809	1	2
604.148	1	11
604.487	1	9
604.827	1	-8
605.166	1	7
605.506	1	-12
605.845	1	9
606.185	1	10
606.524	1	-5
606.864	1	2
607.203	1	-5
607.543	1	4
607.882	1	2
608.222	1	3
608.561	1	8
608.901	1	4
609.240	1	-1
609.579	1	3
609.919	1	-4
610.258	1	10
610.598	1	2
610.937	1	-4
611.277	1	0
611.616	1	-1
611.955	1	2
612.295	1	6
612.634	1	2
612.974	1	3
613.313	1	0
613.652	1	7
613.992	1	-4
614.331	1	-5
614.671	1	3
615.010	1	3
615.349	1	6
615.689	1	11
616.028	1	-4
616.368	1	-4
616.707	1	4
617.046	1	-5
617.386	1	0
617.725	1	2
618.064	1	-15
618.404	1	1
618.743	1	2
619.082	1	7
619.422	1	-8
619.761	1	-8
620.100	1	3
620.440	1	-3
620.779	1	0
621.118	1	-5
621.458	1	-7
621.797	1	-1
622.136	1	1
622.476	1	-7
622.815	1	8
623.154	1	2
623.494	1	-2
623.833	1	2
624.172	1	-7
624.511	1	9
624.851	1	-4
625.190	1	9
625.529	1	-2
625.869	1	10
626.208	1	-9
626.547	1	-16
626.886	1	-1
627.226	1	-2
627.565	1	5
627.904	1	-2
628.243	1	-2
628.583	1	-6
628.922	1	-14
629.261	1	3
629.600	1	0
629.940	1	-2
630.279	1	5
630.618	1	4
630.957	1	5
631.297	1	-2
631.636	1	4
631.975	1	-3
632.314	1	-4
632.653	1	7
632.993	1	0
633.332	1	-3
633.671	1	7
634.010	1	2
634.349	1	-11
634.689	1	2
635.028	1	1
635.367	1	-3
635.706	1	-6
636.045	1	10
636.384	1	4
636.724	1	6
637.063	1	8
637.402	1	10
637.741	1	1
638.080	1	-5
638.419	1	-5
638.759	1	-4
639.098	1	-4
639.437	1	-6
639.776	1	-4
640.115	1	2
640.454	1	-2
640.793	1	-8
641.132	1	1
641.472	1	-8
641.811	1	2
642.150	1	-4
642.489	1	-14
642.828	1	-7
643.167	1	0
643.506	1	-1
643.845	1	1
644.184	1	5
644.524	1	4
644.863	1	-6
645.202	1	10
645.541	1	8
645.880	1	12
646.219	1	-3
646.558	1	3
646.897	1	5
647.236	1	8
647.575	1	-3
647.914	1	7
648.253	1	-8
648.592	1	0
648.931	1	1
649.270	1	0
649.610	1	4
649.949	1	-2
650.288	1	-1
650.627	1	-8
650.966	1	13
651.305	1	-2
651.644	1	-2
651.983	1	-1
652.322	1	-4
652.661	1	1
653.000	1	-10
653.339	1	-5
653.678	1	-9
654.017	1	5
654.356	1	-3
654.695	1	6
655.034	1	4
655.373	1	8
655.712	1	0
656.051	1	0
656.390	1	-7
656.729	1	4
657.068	1	0
657.406	1	-4
657.745	1	0
658.084	1	-7
658.423	1	-4
658.762	1	-7
659.101	1	3
659.440	1	2
659.779	1	0
660.118	1	4
660.457	1	10
660.796	1	5
661.135	1	-19
661.474	1	4
661.813	1	-10
662.152	1	1
662.491	1	-3
662.829	1	7
663.168	1	5
663.507	1	3
663.846	1	-7
664.185	1	7
664.524	1	4
664.863	1	-6
665.202	1	12
665.541	1	5
665.879	1	0
666.218	1	12
666.557	1	-8
666.896	1	2
667.235	1	1
667.574	1	-9
667.913	1	-7
668.251	1	6
668.590	1	-4
668.929	1	-2
669.268	1	-8
669.607	1	6
669.946	1	8
670.285	1	16
670.623	1	1
670.962	1	-5
671.301	1	0
671.640	1	2
671.979	1	-5
672.317	1	-3
672.656	1	-1
672.995	1	-10
673.334	1	-5
673.673	1	4
674.011	1	6
674.350	1	9
674.689	1	-1
675.028	1	1
675.367	1	-5
675.705	1	9
676.044	1	10
676.383	1	2
676.722	1	9
677.060	1	-13
677.399	1	0
677.738	1	-2
678.077	1	2
678.416	1	-1
678.754	1	7
679.093	1	0
679.432	1	1
679.771	1	-2
680.109	1	-5
680.448	1	7
680.787	1	-12
681.125	1	6
681.464	1	0
681.803	1	6
682.142	1	0
682.480	1	5
682.819	1	-1
683.158	1	-6
683.496	1	5
683.835	1	-6
684.174	1	-1
684.512	1	-2
684.851	1	-1
685.190	1	-8
685.529	1	8
685.867	1	6
686.206	1	2
686.545	1	5
686.883	1	1
687.222	1	-1
687.561	1	-2
687.899	1	-7
688.238	1	2
688.577	1	10
688.746	1	-2