File: Data/GaN_170K_550ms/GaN_sample D_spot 18_UVVIS_170 K_200um_550 ms 2x2mm1_252.txt
340.368	1	0
340.710	1	-5
341.052	1	-3
341.394	1	3
341.737	1	2
342.079	1	-1
342.421	1	-3
342.763	1	2
343.105	1	18
343.447	1	-14
343.789	1	-5
344.131	1	4
344.473	1	6
344.815	1	14
345.157	1	-12
345.499	1	-1
345.841	1	10
346.183	1	9
346.526	1	8
346.868	1	15
347.210	1	-4
347.552	1	7
347.894	1	0
348.236	1	-1
348.578	1	10
348.920	1	-4
349.262	1	3
349.604	1	1
349.946	1	5
350.288	1	5
350.630	1	13
350.972	1	-7
351.314	1	4
351.656	1	1
351.998	1	4
352.340	1	-2
352.682	1	6
353.024	1	-3
353.366	1	0
353.708	1	10
354.050	1	-9
354.392	1	-1
354.734	1	-1
355.076	1	2
355.418	1	-13
355.760	1	-9
356.102	1	7
356.444	1	-3
356.785	1	7
357.127	1	-3
357.469	1	-2
357.811	1	2
358.153	1	5
358.495	1	4
358.837	1	-1
359.179	1	1
359.521	1	13
359.863	1	1
360.205	1	15
360.547	1	1
360.889	1	10
361.231	1	7
361.572	1	12
361.914	1	6
362.256	1	3
362.598	1	1
362.940	1	16
363.282	1	12
363.624	1	10
363.966	1	10
364.308	1	12
364.649	1	6
364.991	1	6
365.333	1	1
365.675	1	10
366.017	1	6
366.359	1	11
366.701	1	4
367.042	1	-5
367.384	1	20
367.726	1	13
368.068	1	20
368.410	1	12
368.752	1	16
369.093	1	1
369.435	1	8
369.777	1	17
370.119	1	5
370.461	1	15
370.803	1	13
371.144	1	3
371.486	1	-3
371.828	1	8
372.170	1	11
372.512	1	-1
372.853	1	14
373.195	1	7
373.537	1	15
373.879	1	5
374.220	1	16
374.562	1	5
374.904	1	8
375.246	1	5
375.588	1	2
375.929	1	6
376.271	1	20
376.613	1	0
376.955	1	11
377.296	1	6
377.638	1	6
377.980	1	-5
378.321	1	13
378.663	1	2
379.005	1	-3
379.347	1	1
379.688	1	4
380.030	1	7
380.372	1	4
380.714	1	14
381.055	1	-2
381.397	1	1
381.739	1	3
382.080	1	2
382.422	1	3
382.764	1	10
383.105	1	7
383.447	1	10
383.789	1	16
384.130	1	1
384.472	1	-7
384.814	1	4
385.156	1	0
385.497	1	8
385.839	1	-2
386.180	1	8
386.522	1	15
386.864	1	4
387.205	1	-5
387.547	1	9
387.889	1	4
388.230	1	-3
388.572	1	5
388.914	1	0
389.255	1	6
389.597	1	2
389.939	1	3
390.280	1	0
390.622	1	1
390.963	1	4
391.305	1	-2
391.647	1	-9
391.988	1	10
392.330	1	1
392.671	1	0
393.013	1	-2
393.355	1	6
393.696	1	10
394.038	1	-5
394.379	1	-2
394.721	1	-2
395.062	1	-1
395.404	1	4
395.746	1	11
396.087	1	11
396.429	1	1
396.770	1	6
397.112	1	-4
397.453	1	11
397.795	1	2
398.136	1	-2
398.478	1	-2
398.819	1	4
399.161	1	-9
399.503	1	7
399.844	1	-2
400.186	1	4
400.527	1	14
400.869	1	2
401.210	1	5
401.552	1	-4
401.893	1	1
402.235	1	7
402.576	1	-5
402.918	1	-1
403.259	1	4
403.601	1	11
403.942	1	0
404.284	1	-8
404.625	1	-4
404.967	1	-6
405.308	1	0
405.649	1	8
405.991	1	4
406.332	1	-9
406.674	1	9
407.015	1	0
407.357	1	-7
407.698	1	-4
408.040	1	-1
408.381	1	9
408.722	1	0
409.064	1	-6
409.405	1	-2
409.747	1	-4
410.088	1	5
410.430	1	-10
410.771	1	7
411.112	1	0
411.454	1	-1
411.795	1	10
412.137	1	-3
412.478	1	-6
412.819	1	-5
413.161	1	-5
413.502	1	4
413.844	1	8
414.185	1	-4
414.526	1	6
414.868	1	-8
415.209	1	-14
415.550	1	-6
415.892	1	5
416.233	1	13
416.575	1	3
416.916	1	-2
417.257	1	-1
417.599	1	1
417.940	1	1
418.281	1	-8
418.623	1	-2
418.964	1	-6
419.305	1	0
419.647	1	5
419.988	1	6
420.329	1	5
420.671	1	-13
421.012	1	13
421.353	1	4
421.695	1	-3
422.036	1	2
422.377	1	10
422.718	1	3
423.060	1	5
423.401	1	-5
423.742	1	-5
424.084	1	15
424.425	1	-10
424.766	1	-9
425.107	1	-3
425.449	1	1
425.790	1	0
426.131	1	11
426.472	1	-2
426.814	1	-10
427.155	1	9
427.496	1	3
427.837	1	6
428.179	1	14
428.520	1	-1
428.861	1	2
429.202	1	-5
429.544	1	-5
429.885	1	3
430.226	1	2
430.567	1	8
430.909	1	-3
431.250	1	14
431.591	1	-1
431.932	1	-7
432.273	1	5
432.615	1	-5
432.956	1	6
433.297	1	-1
433.638	1	7
433.979	1	2
434.320	1	7
434.662	1	-21
435.003	1	-2
435.344	1	0
435.685	1	-11
436.026	1	0
436.368	1	6
436.709	1	0
437.050	1	-6
437.391	1	-6
437.732	1	-5
438.073	1	-3
438.414	1	-4
438.756	1	2
439.097	1	1
439.438	1	6
439.779	1	2
440.120	1	-3
440.461	1	14
440.802	1	6
441.143	1	-10
441.485	1	-4
441.826	1	4
442.167	1	3
442.508	1	8
442.849	1	-2
443.190	1	-5
443.531	1	5
443.872	1	-3
444.213	1	6
444.554	1	1
444.895	1	-12
445.237	1	-3
445.578	1	-1
445.919	1	5
446.260	1	11
446.601	1	-5
446.942	1	0
447.283	1	5
447.624	1	4
447.965	1	4
448.306	1	-2
448.647	1	-6
448.988	1	12
449.329	1	10
449.670	1	-9
450.011	1	7
450.352	1	-5
450.693	1	3
451.034	1	5
451.375	1	8
451.716	1	-2
452.057	1	0
452.398	1	9
452.739	1	0
453.080	1	1
453.421	1	4
453.762	1	-3
454.103	1	-5
454.444	1	-1
454.785	1	-5
455.126	1	12
455.467	1	-15
455.808	1	6
456.149	1	1
456.490	1	-3
456.831	1	-8
457.172	1	-2
457.513	1	8
457.854	1	10
458.195	1	1
458.536	1	-1
458.877	1	2
459.218	1	4
459.559	1	-1
459.899	1	9
460.240	1	0
460.581	1	-4
460.922	1	-3
461.263	1	-4
461.604	1	7
461.945	1	6
462.286	1	-7
462.627	1	6
462.968	1	13
463.309	1	6
463.649	1	6
463.990	1	-2
464.331	1	5
464.672	1	-9
465.013	1	6
465.354	1	-8
465.695	1	8
466.036	1	-3
466.376	1	2
466.717	1	-3
467.058	1	2
467.399	1	11
467.740	1	-2
468.081	1	-7
468.422	1	9
468.762	1	6
469.103	1	10
469.444	1	-1
469.785	1	-4
470.126	1	-1
470.467	1	4
470.807	1	-4
471.148	1	3
471.489	1	10
471.830	1	-8
472.171	1	6
472.511	1	-4
472.852	1	-7
473.193	1	8
473.534	1	6
473.875	1	4
474.215	1	4
474.556	1	7
474.897	1	-2
475.238	1	-2
475.578	1	4
475.919	1	2
476.260	1	10
476.601	1	0
476.942	1	-7
477.282	1	8
477.623	1	12
477.964	1	9
478.305	1	0
478.645	1	0
478.986	1	2
479.327	1	-17
479.667	1	-8
480.008	1	1
480.349	1	7
480.690	1	2
481.030	1	9
481.371	1	3
481.712	1	10
482.053	1	-6
482.393	1	0
482.734	1	3
483.075	1	3
483.415	1	-1
483.756	1	7
484.097	1	-9
484.437	1	1
484.778	1	-12
485.119	1	-1
485.459	1	-6
485.800	1	-3
486.141	1	15
486.481	1	3
486.822	1	5
487.163	1	10
487.503	1	2
487.844	1	-2
488.185	1	7
488.525	1	5
488.866	1	11
489.207	1	8
489.547	1	9
489.888	1	6
490.228	1	1
490.569	1	8
490.910	1	0
491.250	1	7
491.591	1	3
491.932	1	8
492.272	1	5
492.613	1	1
492.953	1	-2
493.294	1	4
493.635	1	-2
493.975	1	2
494.316	1	-2
494.656	1	-4
494.997	1	0
495.337	1	9
495.678	1	3
496.019	1	-5
496.359	1	12
496.700	1	8
497.040	1	7
497.381	1	2
497.721	1	-8
498.062	1	-5
498.403	1	-4
498.743	1	-1
499.084	1	-3
499.424	1	8
499.765	1	-3
500.105	1	-8
500.446	1	1
500.786	1	6
501.127	1	-8
501.467	1	-4
501.808	1	-4
502.148	1	16
502.489	1	3
502.829	1	0
503.170	1	6
503.510	1	8
503.851	1	-9
504.191	1	-3
504.532	1	-5
504.872	1	7
505.213	1	0
505.553	1	1
505.894	1	-1
506.234	1	-2
506.575	1	-1
506.915	1	3
507.256	1	-2
507.596	1	1
507.936	1	4
508.277	1	-4
508.617	1	10
508.958	1	2
509.298	1	-1
509.639	1	5
509.979	1	7
510.319	1	-2
510.660	1	0
511.000	1	2
511.341	1	5
511.681	1	-2
512.022	1	6
512.362	1	-3
512.702	1	5
513.043	1	2
513.383	1	0
513.724	1	1
514.064	1	11
514.404	1	-2
514.745	1	-7
515.085	1	7
515.425	1	4
515.766	1	-6
516.106	1	3
516.447	1	-2
516.787	1	13
517.127	1	4
517.468	1	10
517.808	1	15
518.148	1	2
518.489	1	9
518.829	1	6
519.169	1	-3
519.510	1	11
519.850	1	4
520.190	1	6
520.531	1	4
520.871	1	3
521.211	1	-2
521.552	1	-1
521.892	1	6
522.232	1	-1
522.573	1	14
522.913	1	19
523.253	1	23
523.593	1	-5
523.934	1	5
524.274	1	-2
524.614	1	8
524.955	1	-7
525.295	1	-4
525.635	1	2
525.975	1	6
526.316	1	15
526.656	1	9
526.996	1	8
527.337	1	2
527.677	1	-1
528.017	1	7
528.357	1	6
528.698	1	0
529.038	1	6
529.378	1	0
529.718	1	14
530.058	1	13
530.399	1	-1
530.739	1	0
531.079	1	4
531.419	1	11
531.760	1	8
532.100	1	-3
532.440	1	6
532.780	1	-1
533.120	1	7
533.461	1	0
533.801	1	10
534.141	1	0
534.481	1	4
534.821	1	7
535.162	1	15
535.502	1	1
535.842	1	9
536.182	1	-1
536.522	1	7
536.862	1	9
537.203	1	7
537.543	1	-2
537.883	1	4
538.223	1	1
538.563	1	12
538.903	1	5
539.243	1	-4
539.584	1	-5
539.924	1	-3
540.264	1	7
540.604	1	-5
540.944	1	-9
541.284	1	7
541.624	1	-5
541.964	1	5
542.305	1	4
542.645	1	-4
542.985	1	8
543.325	1	8
543.665	1	4
544.005	1	5
544.345	1	4
544.685	1	2
545.025	1	-3
545.365	1	0
545.705	1	5
546.045	1	3
546.386	1	-1
546.726	1	-4
547.066	1	11
547.406	1	6
547.746	1	-4
548.086	1	-4
548.426	1	8
548.766	1	1
549.106	1	17
549.446	1	3
549.786	1	-2
550.126	1	6
550.466	1	3
550.806	1	6
551.146	1	-3
551.486	1	11
551.826	1	1
552.166	1	6
552.506	1	3
552.846	1	1
553.186	1	9
553.526	1	-8
553.866	1	-2
554.206	1	1
554.546	1	-2
554.886	1	-2
555.226	1	-5
555.566	1	4
555.906	1	-3
556.246	1	0
556.586	1	2
556.926	1	6
557.266	1	0
557.606	1	1
557.946	1	3
558.286	1	-1
558.626	1	13
558.966	1	7
559.306	1	9
559.646	1	0
559.986	1	6
560.325	1	-2
560.665	1	4
561.005	1	-1
561.345	1	3
561.685	1	3
562.025	1	-8
562.365	1	5
562.705	1	14
563.045	1	3
563.385	1	7
563.725	1	-4
564.064	1	-2
564.404	1	6
564.744	1	7
565.084	1	-1
565.424	1	1
565.764	1	9
566.104	1	6
566.444	1	12
566.783	1	5
567.123	1	3
567.463	1	0
567.803	1	5
568.143	1	2
568.483	1	-2
568.823	1	-1
569.162	1	11
569.502	1	-9
569.842	1	-7
570.182	1	1
570.522	1	-5
570.862	1	-2
571.201	1	5
571.541	1	1
571.881	1	0
572.221	1	1
572.561	1	6
572.900	1	-2
573.240	1	5
573.580	1	5
573.920	1	6
574.260	1	2
574.599	1	-2
574.939	1	-10
575.279	1	1
575.619	1	6
575.959	1	-8
576.298	1	-2
576.638	1	3
576.978	1	2
577.318	1	0
577.657	1	-1
577.997	1	-5
578.337	1	1
578.677	1	6
579.016	1	0
579.356	1	5
579.696	1	-2
580.036	1	-1
580.375	1	1
580.715	1	2
581.055	1	7
581.394	1	2
581.734	1	4
582.074	1	5
582.414	1	1
582.753	1	-2
583.093	1	-1
583.433	1	4
583.772	1	5
584.112	1	7
584.452	1	0
584.791	1	5
585.131	1	12
585.471	1	14
585.811	1	-10
586.150	1	5
586.490	1	7
586.830	1	-10
587.169	1	11
587.509	1	-2
587.849	1	1
588.188	1	5
588.528	1	-6
588.867	1	1
589.207	1	-11
589.547	1	-2
589.886	1	-4
590.226	1	2
590.566	1	2
590.905	1	3
591.245	1	6
591.585	1	5
591.924	1	-7
592.264	1	-2
592.603	1	0
592.943	1	2
593.283	1	11
593.622	1	-7
593.962	1	4
594.301	1	8
594.641	1	-1
594.981	1	16
595.320	1	0
595.660	1	1
595.999	1	4
596.339	1	8
596.678	1	-8
597.018	1	2
597.358	1	0
597.697	1	1
598.037	1	-3
598.376	1	-3
598.716	1	8
599.055	1	-2
599.395	1	2
599.734	1	13
600.074	1	-2
600.413	1	-5
600.753	1	-3
601.092	1	0
601.432	1	-8
601.771	1	3
602.111	1	-6
602.451	1	1
602.790	1	8
603.130	1	-13
603.469	1	-2
603.809	1	1
604.148	1	2
604.487	1	-1
604.827	1	-4
605.166	1	9
605.506	1	-5
605.845	1	1
606.185	1	5
606.524	1	-9
606.864	1	1
607.203	1	11
607.543	1	9
607.882	1	-7
608.222	1	4
608.561	1	5
608.901	1	7
609.240	1	-9
609.579	1	4
609.919	1	-2
610.258	1	2
610.598	1	10
610.937	1	0
611.277	1	5
611.616	1	-1
611.955	1	3
612.295	1	-6
612.634	1	2
612.974	1	10
613.313	1	0
613.652	1	11
613.992	1	4
614.331	1	1
614.671	1	14
615.010	1	3
615.349	1	8
615.689	1	10
616.028	1	1
616.368	1	-2
616.707	1	11
617.046	1	-3
617.386	1	5
617.725	1	5
618.064	1	-3
618.404	1	-2
618.743	1	1
619.082	1	4
619.422	1	7
619.761	1	-5
620.100	1	1
620.440	1	10
620.779	1	0
621.118	1	-5
621.458	1	-3
621.797	1	-2
622.136	1	2
622.476	1	2
622.815	1	2
623.154	1	2
623.494	1	-7
623.833	1	3
624.172	1	1
624.511	1	4
624.851	1	-11
625.190	1	13
625.529	1	10
625.869	1	5
626.208	1	6
626.547	1	-8
626.886	1	11
627.226	1	3
627.565	1	3
627.904	1	5
628.243	1	-13
628.583	1	-2
628.922	1	-2
629.261	1	9
629.600	1	-3
629.940	1	4
630.279	1	-1
630.618	1	-4
630.957	1	3
631.297	1	-7
631.636	1	4
631.975	1	-2
632.314	1	11
632.653	1	6
632.993	1	-1
633.332	1	-4
633.671	1	9
634.010	1	-2
634.349	1	-3
634.689	1	5
635.028	1	2
635.367	1	-1
635.706	1	-5
636.045	1	5
636.384	1	-2
636.724	1	11
637.063	1	-2
637.402	1	7
637.741	1	-9
638.080	1	0
638.419	1	-5
638.759	1	2
639.098	1	-4
639.437	1	-1
639.776	1	1
640.115	1	6
640.454	1	9
640.793	1	1
641.132	1	3
641.472	1	-4
641.811	1	9
642.150	1	-2
642.489	1	-9
642.828	1	-1
643.167	1	4
643.506	1	1
643.845	1	-2
644.184	1	12
644.524	1	6
644.863	1	-7
645.202	1	9
645.541	1	6
645.880	1	-2
646.219	1	-2
646.558	1	7
646.897	1	13
647.236	1	4
647.575	1	-6
647.914	1	4
648.253	1	3
648.592	1	5
648.931	1	0
649.270	1	-4
649.610	1	11
649.949	1	1
650.288	1	-1
650.627	1	-1
650.966	1	11
651.305	1	-1
651.644	1	5
651.983	1	1
652.322	1	3
652.661	1	-2
653.000	1	-9
653.339	1	-8
653.678	1	7
654.017	1	0
654.356	1	-4
654.695	1	3
655.034	1	-10
655.373	1	15
655.712	1	-7
656.051	1	5
656.390	1	-4
656.729	1	-4
657.068	1	4
657.406	1	2
657.745	1	1
658.084	1	-6
658.423	1	-2
658.762	1	-3
659.101	1	2
659.440	1	10
659.779	1	0
660.118	1	13
660.457	1	4
660.796	1	-5
661.135	1	-8
661.474	1	11
661.813	1	-6
662.152	1	-4
662.491	1	-9
662.829	1	-7
663.168	1	10
663.507	1	5
663.846	1	-4
664.185	1	2
664.524	1	2
664.863	1	3
665.202	1	17
665.541	1	8
665.879	1	9
666.218	1	16
666.557	1	0
666.896	1	6
667.235	1	2
667.574	1	-11
667.913	1	-7
668.251	1	3
668.590	1	-6
668.929	1	3
669.268	1	-5
669.607	1	-7
669.946	1	3
670.285	1	15
670.623	1	4
670.962	1	-4
671.301	1	1
671.640	1	4
671.979	1	-6
672.317	1	13
672.656	1	4
672.995	1	-8
673.334	1	3
673.673	1	6
674.011	1	6
674.350	1	6
674.689	1	1
675.028	1	0
675.367	1	4
675.705	1	5
676.044	1	15
676.383	1	1
676.722	1	9
677.060	1	-8
677.399	1	-3
677.738	1	-5
678.077	1	10
678.416	1	-9
678.754	1	1
679.093	1	-1
679.432	1	-3
679.771	1	9
680.109	1	-1
680.448	1	5
680.787	1	-14
681.125	1	11
681.464	1	9
681.803	1	11
682.142	1	3
682.480	1	8
682.819	1	6
683.158	1	-4
683.496	1	3
683.835	1	3
684.174	1	-2
684.512	1	-10
684.851	1	8
685.190	1	-4
685.529	1	11
685.867	1	0
686.206	1	-2
686.545	1	5
686.883	1	-4
687.222	1	9
687.561	1	-7
687.899	1	-9
688.238	1	-3
688.577	1	5
688.746	1	-9