File: Data/GaN_170K_550ms/GaN_sample D_spot 18_UVVIS_170 K_200um_550 ms 2x2mm1_299.txt
340.368	1	0
340.710	1	-8
341.052	1	4
341.394	1	8
341.737	1	-4
342.079	1	3
342.421	1	8
342.763	1	-6
343.105	1	13
343.447	1	-10
343.789	1	1
344.131	1	1
344.473	1	-7
344.815	1	8
345.157	1	-2
345.499	1	-13
345.841	1	-8
346.183	1	-1
346.526	1	7
346.868	1	3
347.210	1	-3
347.552	1	10
347.894	1	2
348.236	1	1
348.578	1	4
348.920	1	5
349.262	1	10
349.604	1	6
349.946	1	11
350.288	1	1
350.630	1	13
350.972	1	-7
351.314	1	3
351.656	1	-7
351.998	1	1
352.340	1	1
352.682	1	-5
353.024	1	-1
353.366	1	-3
353.708	1	1
354.050	1	-1
354.392	1	6
354.734	1	8
355.076	1	-2
355.418	1	2
355.760	1	0
356.102	1	9
356.444	1	-8
356.785	1	4
357.127	1	-6
357.469	1	-3
357.811	1	0
358.153	1	5
358.495	1	1
358.837	1	-6
359.179	1	4
359.521	1	12
359.863	1	4
360.205	1	9
360.547	1	10
360.889	1	13
361.231	1	5
361.572	1	4
361.914	1	3
362.256	1	-2
362.598	1	9
362.940	1	19
363.282	1	4
363.624	1	6
363.966	1	6
364.308	1	6
364.649	1	0
364.991	1	13
365.333	1	3
365.675	1	8
366.017	1	9
366.359	1	-3
366.701	1	0
367.042	1	5
367.384	1	16
367.726	1	16
368.068	1	8
368.410	1	13
368.752	1	14
369.093	1	7
369.435	1	4
369.777	1	9
370.119	1	7
370.461	1	11
370.803	1	7
371.144	1	8
371.486	1	-5
371.828	1	-5
372.170	1	5
372.512	1	4
372.853	1	9
373.195	1	2
373.537	1	12
373.879	1	4
374.220	1	14
374.562	1	-5
374.904	1	8
375.246	1	7
375.588	1	-1
375.929	1	3
376.271	1	13
376.613	1	5
376.955	1	8
377.296	1	2
377.638	1	2
377.980	1	1
378.321	1	2
378.663	1	9
379.005	1	-4
379.347	1	7
379.688	1	4
380.030	1	3
380.372	1	4
380.714	1	10
381.055	1	7
381.397	1	11
381.739	1	-4
382.080	1	3
382.422	1	1
382.764	1	-4
383.105	1	10
383.447	1	4
383.789	1	13
384.130	1	0
384.472	1	-5
384.814	1	1
385.156	1	6
385.497	1	0
385.839	1	-6
386.180	1	-1
386.522	1	3
386.864	1	0
387.205	1	3
387.547	1	6
387.889	1	9
388.230	1	2
388.572	1	-8
388.914	1	-2
389.255	1	12
389.597	1	6
389.939	1	1
390.280	1	2
390.622	1	-2
390.963	1	7
391.305	1	2
391.647	1	-7
391.988	1	7
392.330	1	1
392.671	1	-6
393.013	1	7
393.355	1	0
393.696	1	7
394.038	1	-5
394.379	1	-7
394.721	1	-1
395.062	1	2
395.404	1	4
395.746	1	8
396.087	1	7
396.429	1	4
396.770	1	9
397.112	1	-2
397.453	1	4
397.795	1	-4
398.136	1	2
398.478	1	-10
398.819	1	3
399.161	1	-7
399.503	1	2
399.844	1	-3
400.186	1	-6
400.527	1	15
400.869	1	-3
401.210	1	-2
401.552	1	-6
401.893	1	7
402.235	1	6
402.576	1	5
402.918	1	9
403.259	1	5
403.601	1	7
403.942	1	8
404.284	1	-4
404.625	1	0
404.967	1	2
405.308	1	10
405.649	1	6
405.991	1	4
406.332	1	-13
406.674	1	5
407.015	1	3
407.357	1	4
407.698	1	3
408.040	1	1
408.381	1	4
408.722	1	-2
409.064	1	4
409.405	1	-1
409.747	1	7
410.088	1	10
410.430	1	3
410.771	1	2
411.112	1	2
411.454	1	6
411.795	1	13
412.137	1	-4
412.478	1	-5
412.819	1	-3
413.161	1	6
413.502	1	-4
413.844	1	7
414.185	1	0
414.526	1	11
414.868	1	-7
415.209	1	-11
415.550	1	0
415.892	1	1
416.233	1	4
416.575	1	-2
416.916	1	-12
417.257	1	-8
417.599	1	-1
417.940	1	5
418.281	1	-9
418.623	1	-5
418.964	1	-5
419.305	1	14
419.647	1	4
419.988	1	2
420.329	1	-1
420.671	1	-8
421.012	1	2
421.353	1	2
421.695	1	-16
422.036	1	4
422.377	1	6
422.718	1	13
423.060	1	1
423.401	1	4
423.742	1	-4
424.084	1	14
424.425	1	-6
424.766	1	-6
425.107	1	-1
425.449	1	-1
425.790	1	-9
426.131	1	4
426.472	1	-5
426.814	1	-4
427.155	1	12
427.496	1	-8
427.837	1	3
428.179	1	8
428.520	1	-5
428.861	1	-6
429.202	1	-1
429.544	1	-9
429.885	1	-5
430.226	1	1
430.567	1	10
430.909	1	-2
431.250	1	14
431.591	1	-3
431.932	1	2
432.273	1	-7
432.615	1	-2
432.956	1	0
433.297	1	-4
433.638	1	8
433.979	1	0
434.320	1	-1
434.662	1	-19
435.003	1	8
435.344	1	0
435.685	1	-2
436.026	1	-3
436.368	1	-3
436.709	1	2
437.050	1	-4
437.391	1	-7
437.732	1	0
438.073	1	1
438.414	1	-6
438.756	1	1
439.097	1	4
439.438	1	11
439.779	1	6
440.120	1	-9
440.461	1	14
440.802	1	7
441.143	1	-6
441.485	1	-5
441.826	1	2
442.167	1	9
442.508	1	-4
442.849	1	-8
443.190	1	2
443.531	1	4
443.872	1	-1
444.213	1	-1
444.554	1	1
444.895	1	-14
445.237	1	-7
445.578	1	6
445.919	1	0
446.260	1	7
446.601	1	-8
446.942	1	5
447.283	1	6
447.624	1	0
447.965	1	1
448.306	1	-2
448.647	1	-1
448.988	1	3
449.329	1	3
449.670	1	-13
450.011	1	5
450.352	1	1
450.693	1	3
451.034	1	-13
451.375	1	8
451.716	1	-5
452.057	1	7
452.398	1	7
452.739	1	8
453.080	1	3
453.421	1	-3
453.762	1	-2
454.103	1	-10
454.444	1	-12
454.785	1	-1
455.126	1	-5
455.467	1	-5
455.808	1	13
456.149	1	-9
456.490	1	-1
456.831	1	-2
457.172	1	-11
457.513	1	4
457.854	1	6
458.195	1	7
458.536	1	-7
458.877	1	-3
459.218	1	2
459.559	1	-1
459.899	1	10
460.240	1	-4
460.581	1	-1
460.922	1	-2
461.263	1	-3
461.604	1	12
461.945	1	4
462.286	1	-10
462.627	1	5
462.968	1	12
463.309	1	10
463.649	1	-2
463.990	1	1
464.331	1	-3
464.672	1	-3
465.013	1	0
465.354	1	-6
465.695	1	-2
466.036	1	-6
466.376	1	11
466.717	1	-4
467.058	1	4
467.399	1	8
467.740	1	-5
468.081	1	3
468.422	1	1
468.762	1	10
469.103	1	8
469.444	1	-1
469.785	1	-1
470.126	1	-1
470.467	1	15
470.807	1	-2
471.148	1	-13
471.489	1	4
471.830	1	2
472.171	1	3
472.511	1	-2
472.852	1	3
473.193	1	4
473.534	1	3
473.875	1	0
474.215	1	7
474.556	1	7
474.897	1	0
475.238	1	-6
475.578	1	0
475.919	1	5
476.260	1	2
476.601	1	2
476.942	1	-8
477.282	1	3
477.623	1	7
477.964	1	1
478.305	1	-2
478.645	1	2
478.986	1	-6
479.327	1	-10
479.667	1	-1
480.008	1	4
480.349	1	-5
480.690	1	5
481.030	1	3
481.371	1	-2
481.712	1	0
482.053	1	-6
482.393	1	-5
482.734	1	9
483.075	1	3
483.415	1	-1
483.756	1	11
484.097	1	-5
484.437	1	-2
484.778	1	-4
485.119	1	9
485.459	1	-8
485.800	1	-1
486.141	1	10
486.481	1	-1
486.822	1	-3
487.163	1	7
487.503	1	11
487.844	1	0
488.185	1	2
488.525	1	13
488.866	1	3
489.207	1	6
489.547	1	9
489.888	1	-5
490.228	1	-10
490.569	1	-2
490.910	1	-2
491.250	1	0
491.591	1	6
491.932	1	1
492.272	1	18
492.613	1	7
492.953	1	5
493.294	1	-5
493.635	1	-3
493.975	1	-1
494.316	1	-1
494.656	1	2
494.997	1	5
495.337	1	7
495.678	1	7
496.019	1	-2
496.359	1	2
496.700	1	9
497.040	1	-3
497.381	1	1
497.721	1	-4
498.062	1	-4
498.403	1	12
498.743	1	-3
499.084	1	0
499.424	1	9
499.765	1	-12
500.105	1	-3
500.446	1	0
500.786	1	-2
501.127	1	14
501.467	1	-2
501.808	1	-3
502.148	1	12
502.489	1	0
502.829	1	9
503.170	1	12
503.510	1	3
503.851	1	2
504.191	1	-10
504.532	1	-10
504.872	1	2
505.213	1	-5
505.553	1	2
505.894	1	7
506.234	1	-9
506.575	1	2
506.915	1	1
507.256	1	-7
507.596	1	-4
507.936	1	10
508.277	1	-2
508.617	1	9
508.958	1	-2
509.298	1	-5
509.639	1	9
509.979	1	-1
510.319	1	-5
510.660	1	-5
511.000	1	7
511.341	1	7
511.681	1	-9
512.022	1	1
512.362	1	3
512.702	1	5
513.043	1	-3
513.383	1	0
513.724	1	0
514.064	1	1
514.404	1	-2
514.745	1	0
515.085	1	6
515.425	1	-4
515.766	1	7
516.106	1	12
516.447	1	0
516.787	1	-2
517.127	1	11
517.468	1	-2
517.808	1	2
518.148	1	0
518.489	1	11
518.829	1	2
519.169	1	0
519.510	1	11
519.850	1	-7
520.190	1	1
520.531	1	4
520.871	1	3
521.211	1	1
521.552	1	8
521.892	1	-3
522.232	1	-11
522.573	1	8
522.913	1	6
523.253	1	11
523.593	1	10
523.934	1	-1
524.274	1	0
524.614	1	1
524.955	1	-2
525.295	1	-6
525.635	1	0
525.975	1	-2
526.316	1	10
526.656	1	8
526.996	1	3
527.337	1	-1
527.677	1	3
528.017	1	2
528.357	1	1
528.698	1	-12
529.038	1	-1
529.378	1	-1
529.718	1	7
530.058	1	5
530.399	1	2
530.739	1	4
531.079	1	10
531.419	1	3
531.760	1	-6
532.100	1	-2
532.440	1	4
532.780	1	-9
533.120	1	0
533.461	1	-2
533.801	1	1
534.141	1	-8
534.481	1	10
534.821	1	-4
535.162	1	5
535.502	1	9
535.842	1	9
536.182	1	-2
536.522	1	4
536.862	1	12
537.203	1	3
537.543	1	-13
537.883	1	10
538.223	1	8
538.563	1	4
538.903	1	8
539.243	1	-1
539.584	1	2
539.924	1	3
540.264	1	2
540.604	1	-4
540.944	1	-7
541.284	1	1
541.624	1	1
541.964	1	1
542.305	1	1
542.645	1	3
542.985	1	5
543.325	1	-1
543.665	1	-3
544.005	1	6
544.345	1	2
544.685	1	0
545.025	1	-5
545.365	1	5
545.705	1	6
546.045	1	9
546.386	1	4
546.726	1	10
547.066	1	13
547.406	1	5
547.746	1	-4
548.086	1	5
548.426	1	3
548.766	1	2
549.106	1	8
549.446	1	2
549.786	1	-9
550.126	1	1
550.466	1	9
550.806	1	5
551.146	1	3
551.486	1	-2
551.826	1	4
552.166	1	9
552.506	1	6
552.846	1	0
553.186	1	3
553.526	1	-10
553.866	1	-8
554.206	1	6
554.546	1	-9
554.886	1	0
555.226	1	1
555.566	1	1
555.906	1	-3
556.246	1	5
556.586	1	2
556.926	1	0
557.266	1	3
557.606	1	4
557.946	1	9
558.286	1	5
558.626	1	9
558.966	1	-4
559.306	1	7
559.646	1	4
559.986	1	13
560.325	1	-2
560.665	1	0
561.005	1	3
561.345	1	-3
561.685	1	1
562.025	1	-3
562.365	1	12
562.705	1	9
563.045	1	-1
563.385	1	5
563.725	1	-3
564.064	1	3
564.404	1	6
564.744	1	5
565.084	1	2
565.424	1	7
565.764	1	-5
566.104	1	1
566.444	1	8
566.783	1	5
567.123	1	-1
567.463	1	-1
567.803	1	-5
568.143	1	0
568.483	1	-3
568.823	1	-4
569.162	1	-4
569.502	1	4
569.842	1	2
570.182	1	-4
570.522	1	-6
570.862	1	1
571.201	1	7
571.541	1	-9
571.881	1	0
572.221	1	-4
572.561	1	-3
572.900	1	2
573.240	1	-1
573.580	1	-3
573.920	1	9
574.260	1	9
574.599	1	-8
574.939	1	-7
575.279	1	0
575.619	1	10
575.959	1	-6
576.298	1	6
576.638	1	11
576.978	1	0
577.318	1	2
577.657	1	4
577.997	1	0
578.337	1	5
578.677	1	3
579.016	1	-5
579.356	1	5
579.696	1	1
580.036	1	5
580.375	1	2
580.715	1	9
581.055	1	7
581.394	1	6
581.734	1	5
582.074	1	3
582.414	1	-8
582.753	1	-2
583.093	1	10
583.433	1	4
583.772	1	0
584.112	1	-2
584.452	1	0
584.791	1	1
585.131	1	6
585.471	1	6
585.811	1	-3
586.150	1	-15
586.490	1	12
586.830	1	-5
587.169	1	7
587.509	1	-1
587.849	1	8
588.188	1	0
588.528	1	2
588.867	1	3
589.207	1	-4
589.547	1	3
589.886	1	-6
590.226	1	2
590.566	1	2
590.905	1	6
591.245	1	3
591.585	1	6
591.924	1	-6
592.264	1	-6
592.603	1	2
592.943	1	12
593.283	1	10
593.622	1	-14
593.962	1	7
594.301	1	4
594.641	1	2
594.981	1	12
595.320	1	3
595.660	1	7
595.999	1	-1
596.339	1	1
596.678	1	-7
597.018	1	6
597.358	1	-15
597.697	1	-3
598.037	1	3
598.376	1	-15
598.716	1	5
599.055	1	1
599.395	1	1
599.734	1	12
600.074	1	-5
600.413	1	-6
600.753	1	9
601.092	1	-1
601.432	1	-2
601.771	1	8
602.111	1	-3
602.451	1	3
602.790	1	9
603.130	1	2
603.469	1	-2
603.809	1	-1
604.148	1	1
604.487	1	8
604.827	1	-4
605.166	1	0
605.506	1	-10
605.845	1	1
606.185	1	6
606.524	1	-5
606.864	1	-7
607.203	1	2
607.543	1	5
607.882	1	-2
608.222	1	1
608.561	1	1
608.901	1	1
609.240	1	0
609.579	1	1
609.919	1	-13
610.258	1	10
610.598	1	5
610.937	1	8
611.277	1	1
611.616	1	-1
611.955	1	6
612.295	1	-2
612.634	1	-1
612.974	1	2
613.313	1	-8
613.652	1	7
613.992	1	-6
614.331	1	-1
614.671	1	7
615.010	1	5
615.349	1	1
615.689	1	11
616.028	1	1
616.368	1	3
616.707	1	2
617.046	1	-2
617.386	1	-5
617.725	1	2
618.064	1	-7
618.404	1	3
618.743	1	4
619.082	1	2
619.422	1	-11
619.761	1	-3
620.100	1	0
620.440	1	7
620.779	1	7
621.118	1	-10
621.458	1	2
621.797	1	0
622.136	1	-1
622.476	1	0
622.815	1	2
623.154	1	8
623.494	1	-2
623.833	1	8
624.172	1	4
624.511	1	11
624.851	1	-5
625.190	1	4
625.529	1	12
625.869	1	15
626.208	1	1
626.547	1	-1
626.886	1	-5
627.226	1	4
627.565	1	0
627.904	1	-6
628.243	1	8
628.583	1	2
628.922	1	-8
629.261	1	-4
629.600	1	-9
629.940	1	3
630.279	1	9
630.618	1	0
630.957	1	7
631.297	1	2
631.636	1	3
631.975	1	-5
632.314	1	10
632.653	1	4
632.993	1	-1
633.332	1	1
633.671	1	11
634.010	1	3
634.349	1	-13
634.689	1	7
635.028	1	1
635.367	1	-6
635.706	1	0
636.045	1	5
636.384	1	-1
636.724	1	0
637.063	1	2
637.402	1	5
637.741	1	-6
638.080	1	9
638.419	1	-3
638.759	1	2
639.098	1	-2
639.437	1	-1
639.776	1	4
640.115	1	4
640.454	1	-1
640.793	1	-3
641.132	1	1
641.472	1	-4
641.811	1	2
642.150	1	-7
642.489	1	-2
642.828	1	1
643.167	1	-3
643.506	1	4
643.845	1	1
644.184	1	15
644.524	1	0
644.863	1	-12
645.202	1	7
645.541	1	-5
645.880	1	-1
646.219	1	1
646.558	1	7
646.897	1	6
647.236	1	-6
647.575	1	0
647.914	1	1
648.253	1	-5
648.592	1	-1
648.931	1	2
649.270	1	-3
649.610	1	4
649.949	1	-7
650.288	1	-1
650.627	1	-9
650.966	1	8
651.305	1	-5
651.644	1	4
651.983	1	8
652.322	1	-4
652.661	1	5
653.000	1	-6
653.339	1	2
653.678	1	9
654.017	1	6
654.356	1	1
654.695	1	8
655.034	1	-4
655.373	1	11
655.712	1	-15
656.051	1	-3
656.390	1	-3
656.729	1	8
657.068	1	1
657.406	1	2
657.745	1	13
658.084	1	-13
658.423	1	-3
658.762	1	-5
659.101	1	-3
659.440	1	9
659.779	1	2
660.118	1	-7
660.457	1	7
660.796	1	-1
661.135	1	-16
661.474	1	11
661.813	1	4
662.152	1	10
662.491	1	-6
662.829	1	1
663.168	1	2
663.507	1	4
663.846	1	-3
664.185	1	3
664.524	1	1
664.863	1	5
665.202	1	14
665.541	1	3
665.879	1	11
666.218	1	8
666.557	1	2
666.896	1	1
667.235	1	0
667.574	1	-9
667.913	1	-10
668.251	1	5
668.590	1	-3
668.929	1	2
669.268	1	-6
669.607	1	4
669.946	1	3
670.285	1	10
670.623	1	5
670.962	1	2
671.301	1	3
671.640	1	1
671.979	1	2
672.317	1	7
672.656	1	-7
672.995	1	-6
673.334	1	-5
673.673	1	3
674.011	1	-1
674.350	1	16
674.689	1	-6
675.028	1	-7
675.367	1	-2
675.705	1	5
676.044	1	17
676.383	1	3
676.722	1	7
677.060	1	-8
677.399	1	-1
677.738	1	5
678.077	1	12
678.416	1	2
678.754	1	1
679.093	1	-3
679.432	1	-1
679.771	1	-4
680.109	1	-3
680.448	1	2
680.787	1	-10
681.125	1	5
681.464	1	9
681.803	1	1
682.142	1	3
682.480	1	11
682.819	1	3
683.158	1	-2
683.496	1	7
683.835	1	-8
684.174	1	-2
684.512	1	2
684.851	1	1
685.190	1	1
685.529	1	13
685.867	1	-3
686.206	1	7
686.545	1	7
686.883	1	-5
687.222	1	-2
687.561	1	7
687.899	1	-11
688.238	1	-3
688.577	1	3
688.746	1	-5