File: Data/GaN_170K_550ms/GaN_sample D_spot 18_UVVIS_170 K_200um_550 ms 2x2mm1_209.txt
340.368	1	-7
340.710	1	-9
341.052	1	8
341.394	1	0
341.737	1	2
342.079	1	2
342.421	1	1
342.763	1	2
343.105	1	11
343.447	1	0
343.789	1	4
344.131	1	-3
344.473	1	3
344.815	1	7
345.157	1	-6
345.499	1	-2
345.841	1	3
346.183	1	9
346.526	1	3
346.868	1	5
347.210	1	-8
347.552	1	5
347.894	1	8
348.236	1	-3
348.578	1	3
348.920	1	2
349.262	1	-3
349.604	1	9
349.946	1	7
350.288	1	-4
350.630	1	3
350.972	1	-10
351.314	1	-1
351.656	1	0
351.998	1	6
352.340	1	-1
352.682	1	5
353.024	1	-4
353.366	1	7
353.708	1	16
354.050	1	-2
354.392	1	0
354.734	1	3
355.076	1	0
355.418	1	-1
355.760	1	-1
356.102	1	6
356.444	1	-4
356.785	1	10
357.127	1	1
357.469	1	1
357.811	1	-1
358.153	1	6
358.495	1	6
358.837	1	-1
359.179	1	-4
359.521	1	4
359.863	1	10
360.205	1	10
360.547	1	7
360.889	1	10
361.231	1	8
361.572	1	10
361.914	1	9
362.256	1	-3
362.598	1	10
362.940	1	13
363.282	1	19
363.624	1	7
363.966	1	8
364.308	1	16
364.649	1	8
364.991	1	17
365.333	1	4
365.675	1	25
366.017	1	3
366.359	1	8
366.701	1	21
367.042	1	15
367.384	1	22
367.726	1	23
368.068	1	16
368.410	1	19
368.752	1	18
369.093	1	2
369.435	1	23
369.777	1	14
370.119	1	8
370.461	1	13
370.803	1	24
371.144	1	12
371.486	1	8
371.828	1	11
372.170	1	15
372.512	1	17
372.853	1	17
373.195	1	8
373.537	1	20
373.879	1	19
374.220	1	20
374.562	1	11
374.904	1	13
375.246	1	10
375.588	1	11
375.929	1	9
376.271	1	11
376.613	1	20
376.955	1	1
377.296	1	13
377.638	1	8
377.980	1	3
378.321	1	5
378.663	1	4
379.005	1	-1
379.347	1	5
379.688	1	6
380.030	1	4
380.372	1	6
380.714	1	10
381.055	1	12
381.397	1	9
381.739	1	-3
382.080	1	5
382.422	1	4
382.764	1	10
383.105	1	4
383.447	1	0
383.789	1	12
384.130	1	1
384.472	1	2
384.814	1	9
385.156	1	7
385.497	1	9
385.839	1	-3
386.180	1	8
386.522	1	7
386.864	1	2
387.205	1	2
387.547	1	-1
387.889	1	9
388.230	1	0
388.572	1	5
388.914	1	-1
389.255	1	6
389.597	1	7
389.939	1	3
390.280	1	8
390.622	1	-1
390.963	1	-4
391.305	1	2
391.647	1	-9
391.988	1	3
392.330	1	4
392.671	1	-8
393.013	1	-4
393.355	1	13
393.696	1	12
394.038	1	-3
394.379	1	2
394.721	1	-4
395.062	1	0
395.404	1	5
395.746	1	6
396.087	1	11
396.429	1	5
396.770	1	11
397.112	1	-6
397.453	1	5
397.795	1	-2
398.136	1	6
398.478	1	-4
398.819	1	1
399.161	1	0
399.503	1	0
399.844	1	0
400.186	1	-6
400.527	1	9
400.869	1	8
401.210	1	-5
401.552	1	3
401.893	1	9
402.235	1	8
402.576	1	-7
402.918	1	11
403.259	1	-1
403.601	1	13
403.942	1	2
404.284	1	-8
404.625	1	1
404.967	1	2
405.308	1	9
405.649	1	4
405.991	1	7
406.332	1	-3
406.674	1	12
407.015	1	2
407.357	1	-7
407.698	1	1
408.040	1	-1
408.381	1	-1
408.722	1	5
409.064	1	-8
409.405	1	-2
409.747	1	-1
410.088	1	10
410.430	1	-5
410.771	1	8
411.112	1	-14
411.454	1	9
411.795	1	14
412.137	1	-5
412.478	1	-1
412.819	1	-2
413.161	1	3
413.502	1	3
413.844	1	9
414.185	1	-7
414.526	1	9
414.868	1	-7
415.209	1	-15
415.550	1	-6
415.892	1	2
416.233	1	6
416.575	1	6
416.916	1	-11
417.257	1	10
417.599	1	1
417.940	1	4
418.281	1	-13
418.623	1	7
418.964	1	-4
419.305	1	4
419.647	1	8
419.988	1	5
420.329	1	6
420.671	1	-1
421.012	1	1
421.353	1	3
421.695	1	-13
422.036	1	9
422.377	1	0
422.718	1	7
423.060	1	9
423.401	1	1
423.742	1	4
424.084	1	8
424.425	1	-11
424.766	1	-1
425.107	1	3
425.449	1	4
425.790	1	10
426.131	1	-1
426.472	1	6
426.814	1	-6
427.155	1	10
427.496	1	4
427.837	1	11
428.179	1	9
428.520	1	0
428.861	1	5
429.202	1	5
429.544	1	0
429.885	1	3
430.226	1	-1
430.567	1	1
430.909	1	1
431.250	1	10
431.591	1	-1
431.932	1	-13
432.273	1	11
432.615	1	1
432.956	1	8
433.297	1	-3
433.638	1	5
433.979	1	0
434.320	1	12
434.662	1	-7
435.003	1	2
435.344	1	-4
435.685	1	3
436.026	1	-4
436.368	1	1
436.709	1	3
437.050	1	-3
437.391	1	2
437.732	1	11
438.073	1	-1
438.414	1	-2
438.756	1	-5
439.097	1	1
439.438	1	0
439.779	1	6
440.120	1	2
440.461	1	12
440.802	1	3
441.143	1	-9
441.485	1	-4
441.826	1	9
442.167	1	3
442.508	1	3
442.849	1	-5
443.190	1	1
443.531	1	0
443.872	1	-1
444.213	1	-10
444.554	1	-1
444.895	1	-9
445.237	1	-12
445.578	1	-3
445.919	1	6
446.260	1	5
446.601	1	7
446.942	1	6
447.283	1	0
447.624	1	-1
447.965	1	-5
448.306	1	4
448.647	1	-1
448.988	1	12
449.329	1	-3
449.670	1	-6
450.011	1	-2
450.352	1	0
450.693	1	4
451.034	1	0
451.375	1	10
451.716	1	0
452.057	1	-3
452.398	1	8
452.739	1	6
453.080	1	1
453.421	1	2
453.762	1	3
454.103	1	-10
454.444	1	-6
454.785	1	0
455.126	1	1
455.467	1	-15
455.808	1	8
456.149	1	5
456.490	1	7
456.831	1	0
457.172	1	-4
457.513	1	9
457.854	1	13
458.195	1	-3
458.536	1	-6
458.877	1	6
459.218	1	-4
459.559	1	-5
459.899	1	-1
460.240	1	-1
460.581	1	4
460.922	1	-6
461.263	1	2
461.604	1	13
461.945	1	0
462.286	1	-8
462.627	1	1
462.968	1	3
463.309	1	4
463.649	1	3
463.990	1	7
464.331	1	8
464.672	1	-4
465.013	1	14
465.354	1	-8
465.695	1	6
466.036	1	-10
466.376	1	1
466.717	1	-7
467.058	1	8
467.399	1	12
467.740	1	3
468.081	1	-2
468.422	1	-1
468.762	1	4
469.103	1	10
469.444	1	-2
469.785	1	8
470.126	1	1
470.467	1	0
470.807	1	-4
471.148	1	5
471.489	1	4
471.830	1	9
472.171	1	0
472.511	1	7
472.852	1	5
473.193	1	-2
473.534	1	6
473.875	1	3
474.215	1	-2
474.556	1	8
474.897	1	6
475.238	1	-8
475.578	1	-1
475.919	1	4
476.260	1	17
476.601	1	-5
476.942	1	0
477.282	1	10
477.623	1	10
477.964	1	-5
478.305	1	0
478.645	1	12
478.986	1	4
479.327	1	-8
479.667	1	-2
480.008	1	-3
480.349	1	3
480.690	1	1
481.030	1	5
481.371	1	0
481.712	1	4
482.053	1	-2
482.393	1	8
482.734	1	4
483.075	1	-1
483.415	1	3
483.756	1	-5
484.097	1	-8
484.437	1	-4
484.778	1	-8
485.119	1	6
485.459	1	-3
485.800	1	-3
486.141	1	0
486.481	1	7
486.822	1	5
487.163	1	5
487.503	1	2
487.844	1	1
488.185	1	2
488.525	1	7
488.866	1	9
489.207	1	2
489.547	1	13
489.888	1	9
490.228	1	-6
490.569	1	1
490.910	1	6
491.250	1	2
491.591	1	-5
491.932	1	12
492.272	1	11
492.613	1	-1
492.953	1	2
493.294	1	-2
493.635	1	-4
493.975	1	5
494.316	1	0
494.656	1	-1
494.997	1	-2
495.337	1	12
495.678	1	5
496.019	1	-19
496.359	1	0
496.700	1	6
497.040	1	4
497.381	1	10
497.721	1	2
498.062	1	-7
498.403	1	10
498.743	1	5
499.084	1	4
499.424	1	17
499.765	1	-10
500.105	1	-4
500.446	1	-4
500.786	1	2
501.127	1	-3
501.467	1	2
501.808	1	-4
502.148	1	8
502.489	1	2
502.829	1	7
503.170	1	10
503.510	1	2
503.851	1	4
504.191	1	-7
504.532	1	-3
504.872	1	16
505.213	1	-2
505.553	1	3
505.894	1	17
506.234	1	4
506.575	1	9
506.915	1	5
507.256	1	0
507.596	1	7
507.936	1	4
508.277	1	-6
508.617	1	4
508.958	1	-4
509.298	1	-2
509.639	1	14
509.979	1	5
510.319	1	-1
510.660	1	-7
511.000	1	4
511.341	1	9
511.681	1	4
512.022	1	8
512.362	1	1
512.702	1	0
513.043	1	8
513.383	1	11
513.724	1	5
514.064	1	8
514.404	1	-7
514.745	1	3
515.085	1	5
515.425	1	11
515.766	1	10
516.106	1	21
516.447	1	-2
516.787	1	8
517.127	1	0
517.468	1	3
517.808	1	13
518.148	1	7
518.489	1	8
518.829	1	3
519.169	1	9
519.510	1	2
519.850	1	-2
520.190	1	1
520.531	1	-2
520.871	1	-3
521.211	1	-2
521.552	1	12
521.892	1	10
522.232	1	-13
522.573	1	10
522.913	1	7
523.253	1	17
523.593	1	2
523.934	1	-6
524.274	1	1
524.614	1	3
524.955	1	1
525.295	1	4
525.635	1	4
525.975	1	-1
526.316	1	12
526.656	1	6
526.996	1	6
527.337	1	-1
527.677	1	-5
528.017	1	6
528.357	1	-4
528.698	1	-4
529.038	1	1
529.378	1	2
529.718	1	8
530.058	1	13
530.399	1	8
530.739	1	-3
531.079	1	6
531.419	1	11
531.760	1	11
532.100	1	-3
532.440	1	-8
532.780	1	-8
533.120	1	13
533.461	1	-2
533.801	1	8
534.141	1	1
534.481	1	16
534.821	1	9
535.162	1	2
535.502	1	9
535.842	1	5
536.182	1	2
536.522	1	5
536.862	1	7
537.203	1	3
537.543	1	-4
537.883	1	0
538.223	1	0
538.563	1	10
538.903	1	8
539.243	1	-3
539.584	1	-1
539.924	1	-2
540.264	1	11
540.604	1	7
540.944	1	1
541.284	1	1
541.624	1	-12
541.964	1	2
542.305	1	3
542.645	1	-7
542.985	1	9
543.325	1	-5
543.665	1	1
544.005	1	17
544.345	1	8
544.685	1	12
545.025	1	4
545.365	1	1
545.705	1	8
546.045	1	3
546.386	1	4
546.726	1	-1
547.066	1	16
547.406	1	-2
547.746	1	-11
548.086	1	2
548.426	1	9
548.766	1	0
549.106	1	4
549.446	1	3
549.786	1	-5
550.126	1	2
550.466	1	0
550.806	1	-2
551.146	1	15
551.486	1	3
551.826	1	0
552.166	1	-2
552.506	1	9
552.846	1	4
553.186	1	9
553.526	1	-3
553.866	1	4
554.206	1	5
554.546	1	-1
554.886	1	10
555.226	1	-8
555.566	1	5
555.906	1	-10
556.246	1	3
556.586	1	-9
556.926	1	15
557.266	1	5
557.606	1	5
557.946	1	5
558.286	1	2
558.626	1	20
558.966	1	6
559.306	1	4
559.646	1	5
559.986	1	6
560.325	1	2
560.665	1	3
561.005	1	5
561.345	1	6
561.685	1	1
562.025	1	-5
562.365	1	3
562.705	1	12
563.045	1	1
563.385	1	7
563.725	1	-11
564.064	1	4
564.404	1	-1
564.744	1	4
565.084	1	-1
565.424	1	4
565.764	1	-3
566.104	1	-1
566.444	1	3
566.783	1	-1
567.123	1	-2
567.463	1	-9
567.803	1	2
568.143	1	-9
568.483	1	4
568.823	1	-4
569.162	1	6
569.502	1	3
569.842	1	0
570.182	1	7
570.522	1	2
570.862	1	4
571.201	1	11
571.541	1	4
571.881	1	6
572.221	1	14
572.561	1	0
572.900	1	1
573.240	1	4
573.580	1	-1
573.920	1	14
574.260	1	3
574.599	1	5
574.939	1	-3
575.279	1	-8
575.619	1	5
575.959	1	-11
576.298	1	1
576.638	1	-3
576.978	1	0
577.318	1	4
577.657	1	7
577.997	1	-7
578.337	1	5
578.677	1	9
579.016	1	8
579.356	1	2
579.696	1	4
580.036	1	9
580.375	1	-1
580.715	1	12
581.055	1	0
581.394	1	-7
581.734	1	9
582.074	1	0
582.414	1	-8
582.753	1	3
583.093	1	12
583.433	1	3
583.772	1	1
584.112	1	4
584.452	1	-7
584.791	1	1
585.131	1	12
585.471	1	7
585.811	1	-9
586.150	1	-4
586.490	1	8
586.830	1	-2
587.169	1	14
587.509	1	-3
587.849	1	1
588.188	1	9
588.528	1	-4
588.867	1	1
589.207	1	0
589.547	1	8
589.886	1	-7
590.226	1	3
590.566	1	2
590.905	1	9
591.245	1	7
591.585	1	-1
591.924	1	-10
592.264	1	-5
592.603	1	-2
592.943	1	10
593.283	1	-3
593.622	1	-2
593.962	1	8
594.301	1	12
594.641	1	5
594.981	1	11
595.320	1	13
595.660	1	3
595.999	1	-1
596.339	1	2
596.678	1	-5
597.018	1	2
597.358	1	-3
597.697	1	2
598.037	1	1
598.376	1	-12
598.716	1	6
599.055	1	0
599.395	1	5
599.734	1	10
600.074	1	-2
600.413	1	-8
600.753	1	11
601.092	1	7
601.432	1	-1
601.771	1	2
602.111	1	0
602.451	1	11
602.790	1	11
603.130	1	4
603.469	1	2
603.809	1	7
604.148	1	4
604.487	1	10
604.827	1	-6
605.166	1	4
605.506	1	-10
605.845	1	6
606.185	1	3
606.524	1	5
606.864	1	11
607.203	1	6
607.543	1	9
607.882	1	-2
608.222	1	-1
608.561	1	3
608.901	1	3
609.240	1	0
609.579	1	-5
609.919	1	-1
610.258	1	6
610.598	1	6
610.937	1	5
611.277	1	-3
611.616	1	5
611.955	1	6
612.295	1	6
612.634	1	2
612.974	1	-1
613.313	1	3
613.652	1	16
613.992	1	1
614.331	1	-5
614.671	1	12
615.010	1	6
615.349	1	4
615.689	1	5
616.028	1	-5
616.368	1	-2
616.707	1	5
617.046	1	-8
617.386	1	-9
617.725	1	2
618.064	1	6
618.404	1	-3
618.743	1	6
619.082	1	-1
619.422	1	-2
619.761	1	-5
620.100	1	5
620.440	1	5
620.779	1	9
621.118	1	2
621.458	1	-1
621.797	1	0
622.136	1	4
622.476	1	2
622.815	1	8
623.154	1	8
623.494	1	-8
623.833	1	5
624.172	1	8
624.511	1	14
624.851	1	-8
625.190	1	8
625.529	1	6
625.869	1	10
626.208	1	2
626.547	1	-5
626.886	1	3
627.226	1	3
627.565	1	6
627.904	1	0
628.243	1	-1
628.583	1	-8
628.922	1	-5
629.261	1	3
629.600	1	0
629.940	1	-2
630.279	1	7
630.618	1	0
630.957	1	8
631.297	1	6
631.636	1	12
631.975	1	-7
632.314	1	-2
632.653	1	5
632.993	1	9
633.332	1	3
633.671	1	9
634.010	1	0
634.349	1	-9
634.689	1	3
635.028	1	0
635.367	1	6
635.706	1	1
636.045	1	6
636.384	1	2
636.724	1	8
637.063	1	-2
637.402	1	6
637.741	1	0
638.080	1	5
638.419	1	-1
638.759	1	8
639.098	1	-6
639.437	1	-4
639.776	1	4
640.115	1	1
640.454	1	-4
640.793	1	3
641.132	1	-12
641.472	1	0
641.811	1	11
642.150	1	-3
642.489	1	2
642.828	1	7
643.167	1	2
643.506	1	6
643.845	1	4
644.184	1	12
644.524	1	3
644.863	1	4
645.202	1	8
645.541	1	10
645.880	1	1
646.219	1	-1
646.558	1	3
646.897	1	6
647.236	1	-4
647.575	1	0
647.914	1	-4
648.253	1	5
648.592	1	4
648.931	1	3
649.270	1	-4
649.610	1	6
649.949	1	1
650.288	1	3
650.627	1	-2
650.966	1	12
651.305	1	3
651.644	1	10
651.983	1	4
652.322	1	0
652.661	1	3
653.000	1	-5
653.339	1	3
653.678	1	3
654.017	1	3
654.356	1	5
654.695	1	-2
655.034	1	-4
655.373	1	4
655.712	1	-1
656.051	1	2
656.390	1	-3
656.729	1	3
657.068	1	-2
657.406	1	0
657.745	1	5
658.084	1	-10
658.423	1	0
658.762	1	-5
659.101	1	7
659.440	1	2
659.779	1	-4
660.118	1	-3
660.457	1	3
660.796	1	-2
661.135	1	-12
661.474	1	-1
661.813	1	1
662.152	1	3
662.491	1	-8
662.829	1	0
663.168	1	9
663.507	1	2
663.846	1	-2
664.185	1	7
664.524	1	12
664.863	1	3
665.202	1	19
665.541	1	3
665.879	1	10
666.218	1	14
666.557	1	1
666.896	1	7
667.235	1	8
667.574	1	-8
667.913	1	-4
668.251	1	2
668.590	1	-6
668.929	1	4
669.268	1	-3
669.607	1	-1
669.946	1	1
670.285	1	17
670.623	1	6
670.962	1	-11
671.301	1	-4
671.640	1	2
671.979	1	2
672.317	1	6
672.656	1	2
672.995	1	-3
673.334	1	0
673.673	1	0
674.011	1	6
674.350	1	8
674.689	1	1
675.028	1	-3
675.367	1	5
675.705	1	12
676.044	1	15
676.383	1	5
676.722	1	19
677.060	1	-2
677.399	1	-1
677.738	1	8
678.077	1	11
678.416	1	-1
678.754	1	8
679.093	1	0
679.432	1	3
679.771	1	9
680.109	1	-2
680.448	1	5
680.787	1	-5
681.125	1	2
681.464	1	8
681.803	1	9
682.142	1	4
682.480	1	2
682.819	1	5
683.158	1	1
683.496	1	3
683.835	1	-3
684.174	1	-4
684.512	1	4
684.851	1	-10
685.190	1	0
685.529	1	15
685.867	1	5
686.206	1	11
686.545	1	7
686.883	1	4
687.222	1	1
687.561	1	2
687.899	1	-3
688.238	1	0
688.577	1	9
688.746	1	-4