File: Data/GaN_170K_550ms/GaN_sample D_spot 18_UVVIS_170 K_200um_550 ms 2x2mm1_141.txt
340.368	1	3
340.710	1	-4
341.052	1	2
341.394	1	-5
341.737	1	4
342.079	1	3
342.421	1	8
342.763	1	-2
343.105	1	5
343.447	1	-6
343.789	1	4
344.131	1	-6
344.473	1	1
344.815	1	6
345.157	1	7
345.499	1	-1
345.841	1	1
346.183	1	4
346.526	1	6
346.868	1	7
347.210	1	-5
347.552	1	12
347.894	1	5
348.236	1	-6
348.578	1	4
348.920	1	-4
349.262	1	6
349.604	1	16
349.946	1	4
350.288	1	4
350.630	1	4
350.972	1	3
351.314	1	4
351.656	1	1
351.998	1	7
352.340	1	-5
352.682	1	1
353.024	1	1
353.366	1	10
353.708	1	11
354.050	1	6
354.392	1	8
354.734	1	8
355.076	1	5
355.418	1	-3
355.760	1	-2
356.102	1	0
356.444	1	-1
356.785	1	4
357.127	1	8
357.469	1	7
357.811	1	10
358.153	1	10
358.495	1	1
358.837	1	11
359.179	1	7
359.521	1	14
359.863	1	22
360.205	1	7
360.547	1	18
360.889	1	17
361.231	1	9
361.572	1	17
361.914	1	12
362.256	1	20
362.598	1	21
362.940	1	26
363.282	1	26
363.624	1	23
363.966	1	17
364.308	1	20
364.649	1	22
364.991	1	38
365.333	1	26
365.675	1	31
366.017	1	31
366.359	1	32
366.701	1	31
367.042	1	33
367.384	1	34
367.726	1	42
368.068	1	43
368.410	1	54
368.752	1	46
369.093	1	34
369.435	1	34
369.777	1	51
370.119	1	43
370.461	1	40
370.803	1	34
371.144	1	31
371.486	1	29
371.828	1	32
372.170	1	43
372.512	1	18
372.853	1	26
373.195	1	27
373.537	1	34
373.879	1	31
374.220	1	32
374.562	1	17
374.904	1	22
375.246	1	18
375.588	1	16
375.929	1	13
376.271	1	25
376.613	1	13
376.955	1	21
377.296	1	9
377.638	1	24
377.980	1	5
378.321	1	18
378.663	1	14
379.005	1	8
379.347	1	21
379.688	1	10
380.030	1	10
380.372	1	8
380.714	1	21
381.055	1	22
381.397	1	13
381.739	1	3
382.080	1	9
382.422	1	8
382.764	1	4
383.105	1	17
383.447	1	11
383.789	1	5
384.130	1	0
384.472	1	-4
384.814	1	19
385.156	1	1
385.497	1	15
385.839	1	3
386.180	1	17
386.522	1	11
386.864	1	15
387.205	1	9
387.547	1	16
387.889	1	14
388.230	1	4
388.572	1	11
388.914	1	-1
389.255	1	14
389.597	1	2
389.939	1	1
390.280	1	7
390.622	1	6
390.963	1	3
391.305	1	-4
391.647	1	-2
391.988	1	7
392.330	1	6
392.671	1	7
393.013	1	1
393.355	1	3
393.696	1	5
394.038	1	10
394.379	1	0
394.721	1	-1
395.062	1	7
395.404	1	12
395.746	1	7
396.087	1	-4
396.429	1	14
396.770	1	24
397.112	1	0
397.453	1	6
397.795	1	-3
398.136	1	1
398.478	1	-5
398.819	1	2
399.161	1	-6
399.503	1	11
399.844	1	-5
400.186	1	-8
400.527	1	23
400.869	1	6
401.210	1	1
401.552	1	2
401.893	1	9
402.235	1	15
402.576	1	4
402.918	1	-8
403.259	1	4
403.601	1	12
403.942	1	6
404.284	1	-5
404.625	1	0
404.967	1	-1
405.308	1	5
405.649	1	5
405.991	1	8
406.332	1	-1
406.674	1	6
407.015	1	14
407.357	1	-7
407.698	1	12
408.040	1	7
408.381	1	4
408.722	1	-4
409.064	1	3
409.405	1	-8
409.747	1	3
410.088	1	6
410.430	1	1
410.771	1	5
411.112	1	-3
411.454	1	5
411.795	1	8
412.137	1	-4
412.478	1	-7
412.819	1	-11
413.161	1	3
413.502	1	2
413.844	1	11
414.185	1	-4
414.526	1	4
414.868	1	1
415.209	1	-13
415.550	1	4
415.892	1	4
416.233	1	1
416.575	1	-2
416.916	1	-11
417.257	1	5
417.599	1	2
417.940	1	0
418.281	1	-2
418.623	1	-1
418.964	1	-2
419.305	1	-1
419.647	1	8
419.988	1	4
420.329	1	5
420.671	1	-9
421.012	1	-2
421.353	1	7
421.695	1	-8
422.036	1	10
422.377	1	2
422.718	1	3
423.060	1	-6
423.401	1	3
423.742	1	1
424.084	1	12
424.425	1	-12
424.766	1	3
425.107	1	-4
425.449	1	3
425.790	1	10
426.131	1	13
426.472	1	4
426.814	1	-10
427.155	1	10
427.496	1	13
427.837	1	2
428.179	1	-1
428.520	1	-2
428.861	1	4
429.202	1	-5
429.544	1	6
429.885	1	2
430.226	1	3
430.567	1	8
430.909	1	-3
431.250	1	15
431.591	1	0
431.932	1	1
432.273	1	5
432.615	1	9
432.956	1	12
433.297	1	-5
433.638	1	11
433.979	1	7
434.320	1	12
434.662	1	-2
435.003	1	9
435.344	1	-1
435.685	1	-4
436.026	1	-5
436.368	1	9
436.709	1	4
437.050	1	-4
437.391	1	-3
437.732	1	6
438.073	1	0
438.414	1	-9
438.756	1	-3
439.097	1	5
439.438	1	14
439.779	1	13
440.120	1	3
440.461	1	11
440.802	1	7
441.143	1	2
441.485	1	-5
441.826	1	-3
442.167	1	9
442.508	1	0
442.849	1	-6
443.190	1	0
443.531	1	9
443.872	1	-9
444.213	1	-1
444.554	1	-3
444.895	1	-15
445.237	1	-2
445.578	1	11
445.919	1	6
446.260	1	9
446.601	1	2
446.942	1	7
447.283	1	9
447.624	1	5
447.965	1	-3
448.306	1	10
448.647	1	4
448.988	1	4
449.329	1	6
449.670	1	-11
450.011	1	14
450.352	1	-8
450.693	1	-6
451.034	1	-1
451.375	1	9
451.716	1	9
452.057	1	-2
452.398	1	6
452.739	1	1
453.080	1	1
453.421	1	14
453.762	1	4
454.103	1	0
454.444	1	-13
454.785	1	7
455.126	1	2
455.467	1	-4
455.808	1	7
456.149	1	5
456.490	1	3
456.831	1	-8
457.172	1	2
457.513	1	7
457.854	1	8
458.195	1	0
458.536	1	3
458.877	1	2
459.218	1	-7
459.559	1	-3
459.899	1	10
460.240	1	3
460.581	1	2
460.922	1	-1
461.263	1	-1
461.604	1	17
461.945	1	1
462.286	1	10
462.627	1	10
462.968	1	10
463.309	1	13
463.649	1	4
463.990	1	4
464.331	1	-1
464.672	1	6
465.013	1	9
465.354	1	-16
465.695	1	4
466.036	1	-1
466.376	1	6
466.717	1	-1
467.058	1	2
467.399	1	14
467.740	1	5
468.081	1	-7
468.422	1	11
468.762	1	10
469.103	1	10
469.444	1	9
469.785	1	8
470.126	1	3
470.467	1	11
470.807	1	1
471.148	1	3
471.489	1	-2
471.830	1	-1
472.171	1	5
472.511	1	-2
472.852	1	2
473.193	1	7
473.534	1	8
473.875	1	7
474.215	1	-2
474.556	1	6
474.897	1	-3
475.238	1	-7
475.578	1	10
475.919	1	8
476.260	1	19
476.601	1	6
476.942	1	-6
477.282	1	11
477.623	1	6
477.964	1	-2
478.305	1	-3
478.645	1	-2
478.986	1	-1
479.327	1	-20
479.667	1	3
480.008	1	3
480.349	1	3
480.690	1	3
481.030	1	2
481.371	1	7
481.712	1	10
482.053	1	-2
482.393	1	4
482.734	1	10
483.075	1	8
483.415	1	2
483.756	1	6
484.097	1	-7
484.437	1	2
484.778	1	1
485.119	1	6
485.459	1	6
485.800	1	-9
486.141	1	13
486.481	1	9
486.822	1	-1
487.163	1	5
487.503	1	1
487.844	1	4
488.185	1	9
488.525	1	9
488.866	1	6
489.207	1	5
489.547	1	13
489.888	1	-1
490.228	1	-1
490.569	1	5
490.910	1	1
491.250	1	4
491.591	1	5
491.932	1	10
492.272	1	10
492.613	1	-3
492.953	1	7
493.294	1	4
493.635	1	0
493.975	1	8
494.316	1	1
494.656	1	2
494.997	1	3
495.337	1	7
495.678	1	9
496.019	1	-2
496.359	1	3
496.700	1	1
497.040	1	5
497.381	1	5
497.721	1	-6
498.062	1	13
498.403	1	10
498.743	1	4
499.084	1	0
499.424	1	10
499.765	1	-10
500.105	1	4
500.446	1	2
500.786	1	0
501.127	1	11
501.467	1	-6
501.808	1	0
502.148	1	10
502.489	1	4
502.829	1	4
503.170	1	14
503.510	1	12
503.851	1	5
504.191	1	3
504.532	1	-15
504.872	1	6
505.213	1	3
505.553	1	3
505.894	1	15
506.234	1	5
506.575	1	17
506.915	1	10
507.256	1	-2
507.596	1	15
507.936	1	10
508.277	1	0
508.617	1	10
508.958	1	5
509.298	1	3
509.639	1	17
509.979	1	-5
510.319	1	-1
510.660	1	8
511.000	1	14
511.341	1	6
511.681	1	6
512.022	1	7
512.362	1	-2
512.702	1	-5
513.043	1	2
513.383	1	13
513.724	1	-3
514.064	1	3
514.404	1	7
514.745	1	10
515.085	1	11
515.425	1	10
515.766	1	8
516.106	1	9
516.447	1	-2
516.787	1	6
517.127	1	15
517.468	1	8
517.808	1	9
518.148	1	16
518.489	1	5
518.829	1	7
519.169	1	1
519.510	1	14
519.850	1	4
520.190	1	7
520.531	1	3
520.871	1	-1
521.211	1	1
521.552	1	7
521.892	1	13
522.232	1	-4
522.573	1	14
522.913	1	16
523.253	1	17
523.593	1	4
523.934	1	5
524.274	1	11
524.614	1	8
524.955	1	6
525.295	1	4
525.635	1	13
525.975	1	3
526.316	1	16
526.656	1	13
526.996	1	8
527.337	1	10
527.677	1	-3
528.017	1	1
528.357	1	-3
528.698	1	0
529.038	1	1
529.378	1	7
529.718	1	19
530.058	1	18
530.399	1	6
530.739	1	6
531.079	1	8
531.419	1	16
531.760	1	14
532.100	1	10
532.440	1	13
532.780	1	-3
533.120	1	14
533.461	1	4
533.801	1	9
534.141	1	7
534.481	1	15
534.821	1	16
535.162	1	10
535.502	1	12
535.842	1	1
536.182	1	5
536.522	1	10
536.862	1	15
537.203	1	0
537.543	1	3
537.883	1	14
538.223	1	19
538.563	1	2
538.903	1	2
539.243	1	3
539.584	1	13
539.924	1	13
540.264	1	15
540.604	1	7
540.944	1	7
541.284	1	14
541.624	1	-1
541.964	1	4
542.305	1	8
542.645	1	-3
542.985	1	11
543.325	1	7
543.665	1	3
544.005	1	10
544.345	1	2
544.685	1	6
545.025	1	6
545.365	1	9
545.705	1	3
546.045	1	8
546.386	1	4
546.726	1	-3
547.066	1	12
547.406	1	8
547.746	1	1
548.086	1	15
548.426	1	17
548.766	1	7
549.106	1	10
549.446	1	6
549.786	1	3
550.126	1	10
550.466	1	8
550.806	1	5
551.146	1	10
551.486	1	3
551.826	1	13
552.166	1	6
552.506	1	7
552.846	1	9
553.186	1	11
553.526	1	6
553.866	1	2
554.206	1	11
554.546	1	-3
554.886	1	4
555.226	1	0
555.566	1	8
555.906	1	1
556.246	1	7
556.586	1	8
556.926	1	12
557.266	1	7
557.606	1	6
557.946	1	4
558.286	1	-3
558.626	1	17
558.966	1	14
559.306	1	14
559.646	1	-5
559.986	1	11
560.325	1	9
560.665	1	7
561.005	1	6
561.345	1	7
561.685	1	9
562.025	1	-1
562.365	1	4
562.705	1	13
563.045	1	4
563.385	1	17
563.725	1	-1
564.064	1	8
564.404	1	2
564.744	1	9
565.084	1	12
565.424	1	4
565.764	1	1
566.104	1	4
566.444	1	11
566.783	1	5
567.123	1	8
567.463	1	3
567.803	1	7
568.143	1	6
568.483	1	5
568.823	1	0
569.162	1	6
569.502	1	-4
569.842	1	3
570.182	1	-4
570.522	1	10
570.862	1	5
571.201	1	13
571.541	1	2
571.881	1	1
572.221	1	1
572.561	1	10
572.900	1	3
573.240	1	15
573.580	1	-3
573.920	1	19
574.260	1	9
574.599	1	13
574.939	1	-3
575.279	1	4
575.619	1	9
575.959	1	2
576.298	1	9
576.638	1	15
576.978	1	5
577.318	1	3
577.657	1	8
577.997	1	-2
578.337	1	5
578.677	1	4
579.016	1	7
579.356	1	7
579.696	1	4
580.036	1	4
580.375	1	9
580.715	1	8
581.055	1	6
581.394	1	13
581.734	1	15
582.074	1	19
582.414	1	-10
582.753	1	4
583.093	1	16
583.433	1	9
583.772	1	2
584.112	1	0
584.452	1	-3
584.791	1	11
585.131	1	14
585.471	1	1
585.811	1	-13
586.150	1	-6
586.490	1	3
586.830	1	-4
587.169	1	12
587.509	1	3
587.849	1	6
588.188	1	3
588.528	1	10
588.867	1	-1
589.207	1	-3
589.547	1	9
589.886	1	-2
590.226	1	8
590.566	1	0
590.905	1	7
591.245	1	1
591.585	1	15
591.924	1	0
592.264	1	-3
592.603	1	1
592.943	1	4
593.283	1	10
593.622	1	-6
593.962	1	-1
594.301	1	5
594.641	1	14
594.981	1	5
595.320	1	0
595.660	1	5
595.999	1	8
596.339	1	1
596.678	1	2
597.018	1	-5
597.358	1	2
597.697	1	6
598.037	1	5
598.376	1	-3
598.716	1	6
599.055	1	1
599.395	1	2
599.734	1	9
600.074	1	10
600.413	1	-2
600.753	1	5
601.092	1	-9
601.432	1	2
601.771	1	12
602.111	1	1
602.451	1	9
602.790	1	16
603.130	1	-2
603.469	1	2
603.809	1	-5
604.148	1	6
604.487	1	5
604.827	1	1
605.166	1	-1
605.506	1	-2
605.845	1	2
606.185	1	9
606.524	1	-2
606.864	1	5
607.203	1	7
607.543	1	9
607.882	1	1
608.222	1	0
608.561	1	6
608.901	1	6
609.240	1	6
609.579	1	8
609.919	1	-4
610.258	1	9
610.598	1	11
610.937	1	2
611.277	1	4
611.616	1	9
611.955	1	14
612.295	1	-5
612.634	1	-12
612.974	1	4
613.313	1	-4
613.652	1	12
613.992	1	2
614.331	1	6
614.671	1	7
615.010	1	13
615.349	1	4
615.689	1	14
616.028	1	6
616.368	1	-1
616.707	1	8
617.046	1	2
617.386	1	5
617.725	1	-4
618.064	1	2
618.404	1	7
618.743	1	4
619.082	1	11
619.422	1	0
619.761	1	-15
620.100	1	1
620.440	1	2
620.779	1	-1
621.118	1	-1
621.458	1	4
621.797	1	2
622.136	1	6
622.476	1	0
622.815	1	6
623.154	1	12
623.494	1	6
623.833	1	9
624.172	1	-4
624.511	1	12
624.851	1	-8
625.190	1	2
625.529	1	4
625.869	1	4
626.208	1	3
626.547	1	-1
626.886	1	0
627.226	1	6
627.565	1	6
627.904	1	-2
628.243	1	-2
628.583	1	-6
628.922	1	-1
629.261	1	6
629.600	1	4
629.940	1	9
630.279	1	3
630.618	1	-5
630.957	1	9
631.297	1	2
631.636	1	5
631.975	1	-4
632.314	1	-3
632.653	1	12
632.993	1	-8
633.332	1	-1
633.671	1	4
634.010	1	3
634.349	1	-2
634.689	1	4
635.028	1	4
635.367	1	-1
635.706	1	-6
636.045	1	5
636.384	1	-3
636.724	1	13
637.063	1	-3
637.402	1	3
637.741	1	-5
638.080	1	2
638.419	1	-1
638.759	1	3
639.098	1	-1
639.437	1	0
639.776	1	-1
640.115	1	8
640.454	1	-2
640.793	1	2
641.132	1	9
641.472	1	-11
641.811	1	11
642.150	1	1
642.489	1	-5
642.828	1	0
643.167	1	2
643.506	1	9
643.845	1	0
644.184	1	9
644.524	1	3
644.863	1	-3
645.202	1	15
645.541	1	6
645.880	1	4
646.219	1	-2
646.558	1	9
646.897	1	10
647.236	1	-5
647.575	1	-2
647.914	1	3
648.253	1	5
648.592	1	-7
648.931	1	1
649.270	1	3
649.610	1	11
649.949	1	-6
650.288	1	8
650.627	1	-1
650.966	1	4
651.305	1	-2
651.644	1	6
651.983	1	7
652.322	1	2
652.661	1	6
653.000	1	-4
653.339	1	1
653.678	1	5
654.017	1	4
654.356	1	1
654.695	1	7
655.034	1	3
655.373	1	4
655.712	1	-3
656.051	1	3
656.390	1	0
656.729	1	7
657.068	1	10
657.406	1	9
657.745	1	12
658.084	1	-6
658.423	1	6
658.762	1	-1
659.101	1	5
659.440	1	5
659.779	1	4
660.118	1	4
660.457	1	6
660.796	1	8
661.135	1	-13
661.474	1	13
661.813	1	2
662.152	1	6
662.491	1	-11
662.829	1	-1
663.168	1	0
663.507	1	14
663.846	1	-2
664.185	1	13
664.524	1	1
664.863	1	-1
665.202	1	10
665.541	1	3
665.879	1	3
666.218	1	14
666.557	1	-5
666.896	1	2
667.235	1	-1
667.574	1	-16
667.913	1	-3
668.251	1	-1
668.590	1	-3
668.929	1	11
669.268	1	-7
669.607	1	-7
669.946	1	8
670.285	1	12
670.623	1	2
670.962	1	-1
671.301	1	3
671.640	1	4
671.979	1	-7
672.317	1	2
672.656	1	5
672.995	1	2
673.334	1	4
673.673	1	9
674.011	1	-3
674.350	1	10
674.689	1	9
675.028	1	1
675.367	1	-6
675.705	1	4
676.044	1	12
676.383	1	3
676.722	1	11
677.060	1	-9
677.399	1	1
677.738	1	2
678.077	1	22
678.416	1	3
678.754	1	-8
679.093	1	7
679.432	1	6
679.771	1	9
680.109	1	-6
680.448	1	6
680.787	1	-4
681.125	1	5
681.464	1	10
681.803	1	4
682.142	1	6
682.480	1	0
682.819	1	12
683.158	1	2
683.496	1	1
683.835	1	-3
684.174	1	-8
684.512	1	4
684.851	1	4
685.190	1	-3
685.529	1	8
685.867	1	4
686.206	1	17
686.545	1	-1
686.883	1	3
687.222	1	-7
687.561	1	8
687.899	1	-5
688.238	1	2
688.577	1	14
688.746	1	1