File: Data/GaN_170K_550ms/GaN_sample D_spot 18_UVVIS_170 K_200um_550 ms 2x2mm1_311.txt
340.368	1	-2
340.710	1	-9
341.052	1	-5
341.394	1	-4
341.737	1	-7
342.079	1	-1
342.421	1	6
342.763	1	3
343.105	1	9
343.447	1	-9
343.789	1	9
344.131	1	-6
344.473	1	-1
344.815	1	10
345.157	1	-5
345.499	1	-4
345.841	1	1
346.183	1	0
346.526	1	9
346.868	1	8
347.210	1	-1
347.552	1	3
347.894	1	3
348.236	1	-8
348.578	1	-1
348.920	1	-3
349.262	1	3
349.604	1	5
349.946	1	9
350.288	1	-1
350.630	1	10
350.972	1	-1
351.314	1	-1
351.656	1	-13
351.998	1	-1
352.340	1	3
352.682	1	-2
353.024	1	-6
353.366	1	6
353.708	1	-2
354.050	1	-13
354.392	1	3
354.734	1	2
355.076	1	2
355.418	1	-3
355.760	1	5
356.102	1	2
356.444	1	6
356.785	1	1
357.127	1	1
357.469	1	-1
357.811	1	0
358.153	1	3
358.495	1	7
358.837	1	0
359.179	1	1
359.521	1	3
359.863	1	6
360.205	1	5
360.547	1	0
360.889	1	15
361.231	1	0
361.572	1	14
361.914	1	-5
362.256	1	1
362.598	1	5
362.940	1	17
363.282	1	1
363.624	1	2
363.966	1	5
364.308	1	4
364.649	1	-4
364.991	1	11
365.333	1	2
365.675	1	8
366.017	1	9
366.359	1	11
366.701	1	7
367.042	1	10
367.384	1	13
367.726	1	11
368.068	1	17
368.410	1	12
368.752	1	16
369.093	1	-7
369.435	1	1
369.777	1	13
370.119	1	8
370.461	1	12
370.803	1	5
371.144	1	3
371.486	1	-3
371.828	1	2
372.170	1	5
372.512	1	3
372.853	1	15
373.195	1	7
373.537	1	12
373.879	1	15
374.220	1	13
374.562	1	1
374.904	1	8
375.246	1	1
375.588	1	8
375.929	1	6
376.271	1	3
376.613	1	1
376.955	1	7
377.296	1	8
377.638	1	1
377.980	1	-8
378.321	1	2
378.663	1	3
379.005	1	-4
379.347	1	-2
379.688	1	9
380.030	1	3
380.372	1	-4
380.714	1	8
381.055	1	1
381.397	1	10
381.739	1	-2
382.080	1	-2
382.422	1	5
382.764	1	-1
383.105	1	4
383.447	1	10
383.789	1	10
384.130	1	-6
384.472	1	4
384.814	1	5
385.156	1	6
385.497	1	7
385.839	1	-7
386.180	1	14
386.522	1	10
386.864	1	3
387.205	1	-6
387.547	1	3
387.889	1	7
388.230	1	4
388.572	1	9
388.914	1	-4
389.255	1	7
389.597	1	0
389.939	1	-4
390.280	1	6
390.622	1	0
390.963	1	0
391.305	1	-8
391.647	1	-10
391.988	1	8
392.330	1	6
392.671	1	-6
393.013	1	-1
393.355	1	3
393.696	1	5
394.038	1	-16
394.379	1	-1
394.721	1	-5
395.062	1	4
395.404	1	11
395.746	1	16
396.087	1	7
396.429	1	-1
396.770	1	13
397.112	1	-2
397.453	1	10
397.795	1	4
398.136	1	4
398.478	1	-4
398.819	1	-5
399.161	1	-1
399.503	1	3
399.844	1	-5
400.186	1	-5
400.527	1	5
400.869	1	5
401.210	1	14
401.552	1	6
401.893	1	15
402.235	1	-1
402.576	1	2
402.918	1	-1
403.259	1	3
403.601	1	3
403.942	1	0
404.284	1	-15
404.625	1	-1
404.967	1	7
405.308	1	13
405.649	1	4
405.991	1	3
406.332	1	-8
406.674	1	3
407.015	1	4
407.357	1	-9
407.698	1	7
408.040	1	-5
408.381	1	1
408.722	1	-4
409.064	1	-5
409.405	1	6
409.747	1	-3
410.088	1	9
410.430	1	-6
410.771	1	1
411.112	1	1
411.454	1	3
411.795	1	9
412.137	1	-9
412.478	1	0
412.819	1	-3
413.161	1	1
413.502	1	-4
413.844	1	12
414.185	1	5
414.526	1	7
414.868	1	-6
415.209	1	-15
415.550	1	3
415.892	1	0
416.233	1	0
416.575	1	-9
416.916	1	-7
417.257	1	3
417.599	1	-2
417.940	1	0
418.281	1	-12
418.623	1	5
418.964	1	-14
419.305	1	4
419.647	1	12
419.988	1	5
420.329	1	5
420.671	1	3
421.012	1	-4
421.353	1	3
421.695	1	-12
422.036	1	5
422.377	1	9
422.718	1	12
423.060	1	-1
423.401	1	8
423.742	1	-8
424.084	1	4
424.425	1	-5
424.766	1	-6
425.107	1	1
425.449	1	10
425.790	1	6
426.131	1	0
426.472	1	3
426.814	1	-10
427.155	1	11
427.496	1	1
427.837	1	2
428.179	1	4
428.520	1	-2
428.861	1	-1
429.202	1	3
429.544	1	-2
429.885	1	3
430.226	1	2
430.567	1	5
430.909	1	-4
431.250	1	12
431.591	1	-4
431.932	1	-2
432.273	1	5
432.615	1	-3
432.956	1	5
433.297	1	-1
433.638	1	6
433.979	1	3
434.320	1	3
434.662	1	-18
435.003	1	-2
435.344	1	3
435.685	1	2
436.026	1	-9
436.368	1	3
436.709	1	-1
437.050	1	-13
437.391	1	1
437.732	1	0
438.073	1	-1
438.414	1	-10
438.756	1	-4
439.097	1	3
439.438	1	2
439.779	1	-1
440.120	1	-1
440.461	1	16
440.802	1	4
441.143	1	-4
441.485	1	1
441.826	1	-2
442.167	1	0
442.508	1	-1
442.849	1	2
443.190	1	-6
443.531	1	-3
443.872	1	-6
444.213	1	-5
444.554	1	7
444.895	1	-17
445.237	1	-8
445.578	1	0
445.919	1	2
446.260	1	2
446.601	1	-14
446.942	1	4
447.283	1	2
447.624	1	0
447.965	1	10
448.306	1	4
448.647	1	-1
448.988	1	5
449.329	1	5
449.670	1	-10
450.011	1	7
450.352	1	-4
450.693	1	-5
451.034	1	4
451.375	1	8
451.716	1	3
452.057	1	-2
452.398	1	1
452.739	1	-2
453.080	1	-3
453.421	1	-6
453.762	1	-3
454.103	1	6
454.444	1	-2
454.785	1	2
455.126	1	7
455.467	1	-13
455.808	1	10
456.149	1	0
456.490	1	-4
456.831	1	-1
457.172	1	-5
457.513	1	4
457.854	1	7
458.195	1	-3
458.536	1	3
458.877	1	15
459.218	1	-1
459.559	1	0
459.899	1	-3
460.240	1	-4
460.581	1	7
460.922	1	-3
461.263	1	1
461.604	1	9
461.945	1	2
462.286	1	-3
462.627	1	9
462.968	1	10
463.309	1	0
463.649	1	3
463.990	1	1
464.331	1	2
464.672	1	-10
465.013	1	18
465.354	1	-2
465.695	1	-6
466.036	1	-13
466.376	1	-3
466.717	1	-1
467.058	1	16
467.399	1	1
467.740	1	-2
468.081	1	3
468.422	1	4
468.762	1	9
469.103	1	1
469.444	1	10
469.785	1	-5
470.126	1	7
470.467	1	5
470.807	1	-2
471.148	1	-8
471.489	1	-2
471.830	1	0
472.171	1	0
472.511	1	6
472.852	1	5
473.193	1	-1
473.534	1	13
473.875	1	-2
474.215	1	5
474.556	1	1
474.897	1	5
475.238	1	-3
475.578	1	-2
475.919	1	3
476.260	1	8
476.601	1	2
476.942	1	-9
477.282	1	7
477.623	1	13
477.964	1	-5
478.305	1	-4
478.645	1	-3
478.986	1	-2
479.327	1	-15
479.667	1	-4
480.008	1	6
480.349	1	-4
480.690	1	0
481.030	1	-4
481.371	1	0
481.712	1	1
482.053	1	0
482.393	1	-8
482.734	1	2
483.075	1	2
483.415	1	0
483.756	1	1
484.097	1	-7
484.437	1	5
484.778	1	-11
485.119	1	-2
485.459	1	-5
485.800	1	4
486.141	1	10
486.481	1	3
486.822	1	3
487.163	1	2
487.503	1	3
487.844	1	-5
488.185	1	-4
488.525	1	2
488.866	1	10
489.207	1	2
489.547	1	13
489.888	1	-7
490.228	1	2
490.569	1	-2
490.910	1	-1
491.250	1	-1
491.591	1	2
491.932	1	8
492.272	1	3
492.613	1	2
492.953	1	2
493.294	1	3
493.635	1	-2
493.975	1	7
494.316	1	-2
494.656	1	2
494.997	1	-1
495.337	1	9
495.678	1	5
496.019	1	-8
496.359	1	3
496.700	1	7
497.040	1	-4
497.381	1	10
497.721	1	-6
498.062	1	0
498.403	1	7
498.743	1	7
499.084	1	6
499.424	1	3
499.765	1	-11
500.105	1	-6
500.446	1	3
500.786	1	-8
501.127	1	9
501.467	1	9
501.808	1	-10
502.148	1	10
502.489	1	4
502.829	1	0
503.170	1	13
503.510	1	0
503.851	1	-4
504.191	1	1
504.532	1	-12
504.872	1	7
505.213	1	-9
505.553	1	-11
505.894	1	8
506.234	1	-3
506.575	1	10
506.915	1	2
507.256	1	-4
507.596	1	4
507.936	1	10
508.277	1	0
508.617	1	17
508.958	1	-8
509.298	1	-1
509.639	1	16
509.979	1	2
510.319	1	-1
510.660	1	-8
511.000	1	-8
511.341	1	5
511.681	1	-5
512.022	1	7
512.362	1	-4
512.702	1	-7
513.043	1	9
513.383	1	11
513.724	1	3
514.064	1	12
514.404	1	-4
514.745	1	-3
515.085	1	3
515.425	1	6
515.766	1	-5
516.106	1	3
516.447	1	1
516.787	1	-5
517.127	1	6
517.468	1	0
517.808	1	9
518.148	1	6
518.489	1	10
518.829	1	5
519.169	1	-5
519.510	1	-1
519.850	1	4
520.190	1	5
520.531	1	6
520.871	1	-1
521.211	1	1
521.552	1	4
521.892	1	-3
522.232	1	-7
522.573	1	6
522.913	1	4
523.253	1	23
523.593	1	2
523.934	1	4
524.274	1	1
524.614	1	-2
524.955	1	-3
525.295	1	-3
525.635	1	4
525.975	1	1
526.316	1	0
526.656	1	11
526.996	1	1
527.337	1	2
527.677	1	-2
528.017	1	1
528.357	1	-1
528.698	1	-12
529.038	1	-3
529.378	1	-1
529.718	1	0
530.058	1	5
530.399	1	1
530.739	1	-1
531.079	1	6
531.419	1	4
531.760	1	6
532.100	1	-1
532.440	1	2
532.780	1	-10
533.120	1	3
533.461	1	1
533.801	1	6
534.141	1	-3
534.481	1	4
534.821	1	6
535.162	1	8
535.502	1	-4
535.842	1	3
536.182	1	-4
536.522	1	4
536.862	1	-1
537.203	1	2
537.543	1	0
537.883	1	7
538.223	1	0
538.563	1	0
538.903	1	-1
539.243	1	-3
539.584	1	2
539.924	1	2
540.264	1	7
540.604	1	-2
540.944	1	2
541.284	1	-1
541.624	1	3
541.964	1	-2
542.305	1	0
542.645	1	2
542.985	1	3
543.325	1	8
543.665	1	-1
544.005	1	11
544.345	1	1
544.685	1	2
545.025	1	-3
545.365	1	7
545.705	1	9
546.045	1	-1
546.386	1	7
546.726	1	-4
547.066	1	21
547.406	1	2
547.746	1	-6
548.086	1	1
548.426	1	5
548.766	1	7
549.106	1	11
549.446	1	2
549.786	1	-5
550.126	1	9
550.466	1	-2
550.806	1	0
551.146	1	4
551.486	1	3
551.826	1	2
552.166	1	9
552.506	1	-1
552.846	1	-2
553.186	1	-5
553.526	1	-3
553.866	1	-4
554.206	1	12
554.546	1	-11
554.886	1	6
555.226	1	-11
555.566	1	1
555.906	1	-2
556.246	1	-7
556.586	1	2
556.926	1	15
557.266	1	6
557.606	1	9
557.946	1	4
558.286	1	-2
558.626	1	12
558.966	1	13
559.306	1	3
559.646	1	-7
559.986	1	1
560.325	1	2
560.665	1	9
561.005	1	3
561.345	1	-4
561.685	1	-7
562.025	1	-10
562.365	1	10
562.705	1	5
563.045	1	-6
563.385	1	-1
563.725	1	-8
564.064	1	13
564.404	1	-3
564.744	1	-1
565.084	1	8
565.424	1	6
565.764	1	-1
566.104	1	5
566.444	1	-1
566.783	1	0
567.123	1	-3
567.463	1	1
567.803	1	-3
568.143	1	-3
568.483	1	3
568.823	1	-1
569.162	1	6
569.502	1	8
569.842	1	-5
570.182	1	1
570.522	1	8
570.862	1	3
571.201	1	4
571.541	1	-5
571.881	1	2
572.221	1	-3
572.561	1	-7
572.900	1	-4
573.240	1	6
573.580	1	-1
573.920	1	7
574.260	1	13
574.599	1	-6
574.939	1	-1
575.279	1	0
575.619	1	9
575.959	1	-13
576.298	1	2
576.638	1	8
576.978	1	-6
577.318	1	1
577.657	1	3
577.997	1	-3
578.337	1	8
578.677	1	3
579.016	1	2
579.356	1	3
579.696	1	-4
580.036	1	-2
580.375	1	-3
580.715	1	0
581.055	1	3
581.394	1	-1
581.734	1	9
582.074	1	-3
582.414	1	-4
582.753	1	2
583.093	1	3
583.433	1	5
583.772	1	-4
584.112	1	10
584.452	1	-10
584.791	1	-6
585.131	1	9
585.471	1	8
585.811	1	-7
586.150	1	-3
586.490	1	4
586.830	1	-4
587.169	1	16
587.509	1	3
587.849	1	5
588.188	1	2
588.528	1	0
588.867	1	-3
589.207	1	0
589.547	1	-3
589.886	1	-5
590.226	1	3
590.566	1	2
590.905	1	8
591.245	1	-3
591.585	1	2
591.924	1	1
592.264	1	-4
592.603	1	-10
592.943	1	1
593.283	1	7
593.622	1	3
593.962	1	5
594.301	1	-3
594.641	1	6
594.981	1	6
595.320	1	2
595.660	1	7
595.999	1	3
596.339	1	-4
596.678	1	-6
597.018	1	-1
597.358	1	-5
597.697	1	-5
598.037	1	-1
598.376	1	-2
598.716	1	2
599.055	1	-2
599.395	1	-4
599.734	1	5
600.074	1	0
600.413	1	-4
600.753	1	2
601.092	1	0
601.432	1	-12
601.771	1	9
602.111	1	-8
602.451	1	5
602.790	1	8
603.130	1	2
603.469	1	-3
603.809	1	4
604.148	1	1
604.487	1	4
604.827	1	-6
605.166	1	6
605.506	1	0
605.845	1	9
606.185	1	2
606.524	1	1
606.864	1	-2
607.203	1	-2
607.543	1	9
607.882	1	-6
608.222	1	-1
608.561	1	6
608.901	1	-2
609.240	1	1
609.579	1	-2
609.919	1	3
610.258	1	16
610.598	1	-1
610.937	1	-2
611.277	1	6
611.616	1	3
611.955	1	2
612.295	1	-2
612.634	1	-13
612.974	1	11
613.313	1	0
613.652	1	15
613.992	1	-1
614.331	1	12
614.671	1	5
615.010	1	-2
615.349	1	0
615.689	1	13
616.028	1	-6
616.368	1	0
616.707	1	6
617.046	1	4
617.386	1	6
617.725	1	1
618.064	1	-8
618.404	1	-10
618.743	1	9
619.082	1	7
619.422	1	-8
619.761	1	-1
620.100	1	5
620.440	1	2
620.779	1	1
621.118	1	-5
621.458	1	-4
621.797	1	1
622.136	1	1
622.476	1	-2
622.815	1	-2
623.154	1	3
623.494	1	-1
623.833	1	2
624.172	1	1
624.511	1	-1
624.851	1	2
625.190	1	4
625.529	1	18
625.869	1	8
626.208	1	-4
626.547	1	-1
626.886	1	12
627.226	1	2
627.565	1	-7
627.904	1	-6
628.243	1	-5
628.583	1	-7
628.922	1	-9
629.261	1	1
629.600	1	-9
629.940	1	0
630.279	1	5
630.618	1	0
630.957	1	4
631.297	1	-4
631.636	1	1
631.975	1	0
632.314	1	2
632.653	1	6
632.993	1	-6
633.332	1	2
633.671	1	-5
634.010	1	1
634.349	1	-5
634.689	1	11
635.028	1	2
635.367	1	-7
635.706	1	6
636.045	1	0
636.384	1	-7
636.724	1	3
637.063	1	0
637.402	1	7
637.741	1	-6
638.080	1	9
638.419	1	-5
638.759	1	-4
639.098	1	-7
639.437	1	-12
639.776	1	3
640.115	1	5
640.454	1	-1
640.793	1	0
641.132	1	-1
641.472	1	-2
641.811	1	12
642.150	1	-3
642.489	1	-11
642.828	1	-6
643.167	1	4
643.506	1	9
643.845	1	0
644.184	1	11
644.524	1	6
644.863	1	-19
645.202	1	8
645.541	1	3
645.880	1	4
646.219	1	0
646.558	1	2
646.897	1	-2
647.236	1	2
647.575	1	-4
647.914	1	4
648.253	1	10
648.592	1	7
648.931	1	4
649.270	1	-1
649.610	1	6
649.949	1	-3
650.288	1	3
650.627	1	-1
650.966	1	9
651.305	1	-8
651.644	1	1
651.983	1	4
652.322	1	0
652.661	1	6
653.000	1	-2
653.339	1	-7
653.678	1	-5
654.017	1	8
654.356	1	4
654.695	1	9
655.034	1	-7
655.373	1	6
655.712	1	-17
656.051	1	1
656.390	1	-7
656.729	1	4
657.068	1	1
657.406	1	-2
657.745	1	9
658.084	1	-6
658.423	1	3
658.762	1	-5
659.101	1	2
659.440	1	-2
659.779	1	3
660.118	1	5
660.457	1	7
660.796	1	-1
661.135	1	-8
661.474	1	2
661.813	1	-1
662.152	1	-1
662.491	1	-10
662.829	1	1
663.168	1	-1
663.507	1	0
663.846	1	-1
664.185	1	5
664.524	1	12
664.863	1	5
665.202	1	5
665.541	1	1
665.879	1	7
666.218	1	7
666.557	1	-6
666.896	1	-4
667.235	1	0
667.574	1	-12
667.913	1	-3
668.251	1	2
668.590	1	-2
668.929	1	2
669.268	1	-1
669.607	1	2
669.946	1	1
670.285	1	17
670.623	1	6
670.962	1	-2
671.301	1	-3
671.640	1	4
671.979	1	4
672.317	1	2
672.656	1	3
672.995	1	-4
673.334	1	-4
673.673	1	4
674.011	1	7
674.350	1	4
674.689	1	-2
675.028	1	-3
675.367	1	0
675.705	1	4
676.044	1	7
676.383	1	-2
676.722	1	3
677.060	1	-4
677.399	1	-1
677.738	1	-1
678.077	1	13
678.416	1	-3
678.754	1	8
679.093	1	9
679.432	1	8
679.771	1	-3
680.109	1	6
680.448	1	1
680.787	1	-10
681.125	1	1
681.464	1	6
681.803	1	-1
682.142	1	-7
682.480	1	2
682.819	1	10
683.158	1	-6
683.496	1	1
683.835	1	-9
684.174	1	-2
684.512	1	2
684.851	1	-4
685.190	1	-1
685.529	1	9
685.867	1	8
686.206	1	10
686.545	1	6
686.883	1	-1
687.222	1	4
687.561	1	1
687.899	1	0
688.238	1	-4
688.577	1	8
688.746	1	-6