File: Data/GaN_170K_550ms/GaN_sample D_spot 18_UVVIS_170 K_200um_550 ms 2x2mm1_71.txt
340.368	1	-2
340.710	1	-8
341.052	1	6
341.394	1	4
341.737	1	1
342.079	1	5
342.421	1	5
342.763	1	8
343.105	1	8
343.447	1	-2
343.789	1	9
344.131	1	0
344.473	1	10
344.815	1	14
345.157	1	0
345.499	1	3
345.841	1	21
346.183	1	11
346.526	1	7
346.868	1	5
347.210	1	1
347.552	1	18
347.894	1	1
348.236	1	2
348.578	1	4
348.920	1	9
349.262	1	4
349.604	1	17
349.946	1	7
350.288	1	4
350.630	1	16
350.972	1	2
351.314	1	17
351.656	1	12
351.998	1	12
352.340	1	2
352.682	1	8
353.024	1	7
353.366	1	18
353.708	1	17
354.050	1	6
354.392	1	20
354.734	1	18
355.076	1	6
355.418	1	7
355.760	1	18
356.102	1	22
356.444	1	9
356.785	1	17
357.127	1	29
357.469	1	16
357.811	1	29
358.153	1	24
358.495	1	21
358.837	1	34
359.179	1	24
359.521	1	43
359.863	1	43
360.205	1	42
360.547	1	56
360.889	1	66
361.231	1	55
361.572	1	74
361.914	1	68
362.256	1	75
362.598	1	74
362.940	1	119
363.282	1	103
363.624	1	107
363.966	1	130
364.308	1	146
364.649	1	146
364.991	1	167
365.333	1	163
365.675	1	206
366.017	1	202
366.359	1	237
366.701	1	243
367.042	1	270
367.384	1	278
367.726	1	295
368.068	1	298
368.410	1	292
368.752	1	300
369.093	1	273
369.435	1	295
369.777	1	277
370.119	1	280
370.461	1	280
370.803	1	236
371.144	1	222
371.486	1	230
371.828	1	223
372.170	1	210
372.512	1	178
372.853	1	180
373.195	1	175
373.537	1	169
373.879	1	158
374.220	1	157
374.562	1	142
374.904	1	125
375.246	1	120
375.588	1	130
375.929	1	106
376.271	1	99
376.613	1	104
376.955	1	109
377.296	1	94
377.638	1	91
377.980	1	74
378.321	1	83
378.663	1	85
379.005	1	75
379.347	1	76
379.688	1	62
380.030	1	69
380.372	1	63
380.714	1	62
381.055	1	59
381.397	1	53
381.739	1	49
382.080	1	51
382.422	1	56
382.764	1	44
383.105	1	47
383.447	1	45
383.789	1	52
384.130	1	47
384.472	1	39
384.814	1	44
385.156	1	42
385.497	1	41
385.839	1	32
386.180	1	43
386.522	1	35
386.864	1	39
387.205	1	22
387.547	1	32
387.889	1	30
388.230	1	34
388.572	1	36
388.914	1	22
389.255	1	24
389.597	1	22
389.939	1	16
390.280	1	26
390.622	1	16
390.963	1	26
391.305	1	27
391.647	1	18
391.988	1	18
392.330	1	23
392.671	1	3
393.013	1	20
393.355	1	21
393.696	1	18
394.038	1	13
394.379	1	5
394.721	1	16
395.062	1	9
395.404	1	23
395.746	1	20
396.087	1	20
396.429	1	16
396.770	1	17
397.112	1	9
397.453	1	12
397.795	1	2
398.136	1	11
398.478	1	3
398.819	1	12
399.161	1	-1
399.503	1	19
399.844	1	11
400.186	1	3
400.527	1	25
400.869	1	6
401.210	1	7
401.552	1	2
401.893	1	13
402.235	1	12
402.576	1	6
402.918	1	11
403.259	1	11
403.601	1	18
403.942	1	23
404.284	1	1
404.625	1	12
404.967	1	11
405.308	1	7
405.649	1	6
405.991	1	12
406.332	1	2
406.674	1	15
407.015	1	7
407.357	1	2
407.698	1	6
408.040	1	6
408.381	1	7
408.722	1	0
409.064	1	14
409.405	1	7
409.747	1	8
410.088	1	19
410.430	1	0
410.771	1	11
411.112	1	11
411.454	1	1
411.795	1	6
412.137	1	-4
412.478	1	-2
412.819	1	-5
413.161	1	15
413.502	1	1
413.844	1	22
414.185	1	8
414.526	1	8
414.868	1	3
415.209	1	-8
415.550	1	7
415.892	1	6
416.233	1	17
416.575	1	7
416.916	1	1
417.257	1	6
417.599	1	5
417.940	1	6
418.281	1	-1
418.623	1	12
418.964	1	-4
419.305	1	5
419.647	1	16
419.988	1	6
420.329	1	3
420.671	1	-3
421.012	1	2
421.353	1	10
421.695	1	-9
422.036	1	15
422.377	1	8
422.718	1	19
423.060	1	1
423.401	1	2
423.742	1	-6
424.084	1	20
424.425	1	0
424.766	1	3
425.107	1	3
425.449	1	7
425.790	1	8
426.131	1	19
426.472	1	4
426.814	1	-1
427.155	1	20
427.496	1	5
427.837	1	16
428.179	1	7
428.520	1	4
428.861	1	14
429.202	1	0
429.544	1	1
429.885	1	0
430.226	1	2
430.567	1	8
430.909	1	-1
431.250	1	15
431.591	1	-1
431.932	1	1
432.273	1	-1
432.615	1	11
432.956	1	12
433.297	1	2
433.638	1	6
433.979	1	5
434.320	1	6
434.662	1	-10
435.003	1	9
435.344	1	4
435.685	1	2
436.026	1	-2
436.368	1	18
436.709	1	6
437.050	1	1
437.391	1	-6
437.732	1	4
438.073	1	2
438.414	1	-2
438.756	1	1
439.097	1	8
439.438	1	2
439.779	1	12
440.120	1	1
440.461	1	20
440.802	1	6
441.143	1	-4
441.485	1	-5
441.826	1	12
442.167	1	4
442.508	1	-4
442.849	1	5
443.190	1	11
443.531	1	-3
443.872	1	-1
444.213	1	3
444.554	1	-1
444.895	1	-3
445.237	1	-5
445.578	1	7
445.919	1	9
446.260	1	11
446.601	1	-1
446.942	1	5
447.283	1	9
447.624	1	-1
447.965	1	4
448.306	1	4
448.647	1	12
448.988	1	16
449.329	1	5
449.670	1	-9
450.011	1	11
450.352	1	-2
450.693	1	11
451.034	1	10
451.375	1	10
451.716	1	11
452.057	1	6
452.398	1	6
452.739	1	3
453.080	1	9
453.421	1	14
453.762	1	4
454.103	1	0
454.444	1	-5
454.785	1	0
455.126	1	5
455.467	1	-6
455.808	1	12
456.149	1	-4
456.490	1	5
456.831	1	-4
457.172	1	9
457.513	1	12
457.854	1	6
458.195	1	-7
458.536	1	1
458.877	1	11
459.218	1	-2
459.559	1	4
459.899	1	2
460.240	1	0
460.581	1	6
460.922	1	2
461.263	1	2
461.604	1	10
461.945	1	3
462.286	1	-2
462.627	1	5
462.968	1	14
463.309	1	11
463.649	1	7
463.990	1	3
464.331	1	2
464.672	1	5
465.013	1	9
465.354	1	6
465.695	1	10
466.036	1	1
466.376	1	5
466.717	1	2
467.058	1	2
467.399	1	8
467.740	1	4
468.081	1	3
468.422	1	11
468.762	1	12
469.103	1	14
469.444	1	-1
469.785	1	-4
470.126	1	12
470.467	1	0
470.807	1	4
471.148	1	2
471.489	1	5
471.830	1	-2
472.171	1	10
472.511	1	2
472.852	1	10
473.193	1	11
473.534	1	13
473.875	1	6
474.215	1	-8
474.556	1	6
474.897	1	7
475.238	1	7
475.578	1	11
475.919	1	6
476.260	1	13
476.601	1	3
476.942	1	0
477.282	1	12
477.623	1	13
477.964	1	-1
478.305	1	1
478.645	1	16
478.986	1	9
479.327	1	5
479.667	1	-1
480.008	1	12
480.349	1	18
480.690	1	7
481.030	1	16
481.371	1	8
481.712	1	11
482.053	1	0
482.393	1	5
482.734	1	11
483.075	1	3
483.415	1	8
483.756	1	9
484.097	1	6
484.437	1	8
484.778	1	4
485.119	1	18
485.459	1	15
485.800	1	6
486.141	1	16
486.481	1	8
486.822	1	15
487.163	1	20
487.503	1	8
487.844	1	16
488.185	1	8
488.525	1	23
488.866	1	19
489.207	1	23
489.547	1	17
489.888	1	8
490.228	1	7
490.569	1	19
490.910	1	19
491.250	1	29
491.591	1	16
491.932	1	18
492.272	1	21
492.613	1	10
492.953	1	14
493.294	1	10
493.635	1	4
493.975	1	23
494.316	1	18
494.656	1	20
494.997	1	14
495.337	1	16
495.678	1	27
496.019	1	0
496.359	1	19
496.700	1	14
497.040	1	22
497.381	1	21
497.721	1	19
498.062	1	18
498.403	1	21
498.743	1	27
499.084	1	25
499.424	1	26
499.765	1	8
500.105	1	15
500.446	1	22
500.786	1	19
501.127	1	36
501.467	1	32
501.808	1	19
502.148	1	31
502.489	1	23
502.829	1	26
503.170	1	33
503.510	1	33
503.851	1	22
504.191	1	22
504.532	1	19
504.872	1	29
505.213	1	25
505.553	1	28
505.894	1	40
506.234	1	27
506.575	1	39
506.915	1	42
507.256	1	27
507.596	1	36
507.936	1	44
508.277	1	14
508.617	1	40
508.958	1	27
509.298	1	26
509.639	1	35
509.979	1	38
510.319	1	24
510.660	1	25
511.000	1	32
511.341	1	41
511.681	1	34
512.022	1	40
512.362	1	43
512.702	1	34
513.043	1	29
513.383	1	30
513.724	1	26
514.064	1	45
514.404	1	31
514.745	1	36
515.085	1	36
515.425	1	38
515.766	1	47
516.106	1	42
516.447	1	36
516.787	1	46
517.127	1	42
517.468	1	40
517.808	1	42
518.148	1	39
518.489	1	43
518.829	1	40
519.169	1	29
519.510	1	41
519.850	1	43
520.190	1	39
520.531	1	41
520.871	1	38
521.211	1	43
521.552	1	42
521.892	1	42
522.232	1	32
522.573	1	48
522.913	1	42
523.253	1	53
523.593	1	42
523.934	1	33
524.274	1	38
524.614	1	40
524.955	1	34
525.295	1	44
525.635	1	60
525.975	1	39
526.316	1	49
526.656	1	51
526.996	1	47
527.337	1	39
527.677	1	39
528.017	1	38
528.357	1	36
528.698	1	39
529.038	1	40
529.378	1	44
529.718	1	54
530.058	1	46
530.399	1	52
530.739	1	40
531.079	1	45
531.419	1	53
531.760	1	40
532.100	1	40
532.440	1	46
532.780	1	39
533.120	1	37
533.461	1	50
533.801	1	41
534.141	1	47
534.481	1	49
534.821	1	46
535.162	1	44
535.502	1	49
535.842	1	54
536.182	1	33
536.522	1	46
536.862	1	54
537.203	1	41
537.543	1	31
537.883	1	51
538.223	1	35
538.563	1	34
538.903	1	34
539.243	1	35
539.584	1	40
539.924	1	26
540.264	1	47
540.604	1	32
540.944	1	37
541.284	1	45
541.624	1	35
541.964	1	49
542.305	1	39
542.645	1	35
542.985	1	38
543.325	1	39
543.665	1	36
544.005	1	46
544.345	1	32
544.685	1	42
545.025	1	27
545.365	1	39
545.705	1	51
546.045	1	41
546.386	1	33
546.726	1	41
547.066	1	46
547.406	1	38
547.746	1	26
548.086	1	43
548.426	1	40
548.766	1	47
549.106	1	40
549.446	1	45
549.786	1	27
550.126	1	40
550.466	1	42
550.806	1	36
551.146	1	44
551.486	1	31
551.826	1	49
552.166	1	38
552.506	1	32
552.846	1	29
553.186	1	46
553.526	1	29
553.866	1	35
554.206	1	31
554.546	1	25
554.886	1	32
555.226	1	24
555.566	1	37
555.906	1	22
556.246	1	29
556.586	1	29
556.926	1	36
557.266	1	28
557.606	1	37
557.946	1	32
558.286	1	35
558.626	1	39
558.966	1	33
559.306	1	37
559.646	1	19
559.986	1	45
560.325	1	27
560.665	1	34
561.005	1	24
561.345	1	26
561.685	1	22
562.025	1	10
562.365	1	25
562.705	1	31
563.045	1	27
563.385	1	43
563.725	1	19
564.064	1	28
564.404	1	38
564.744	1	23
565.084	1	27
565.424	1	21
565.764	1	26
566.104	1	17
566.444	1	30
566.783	1	34
567.123	1	19
567.463	1	28
567.803	1	24
568.143	1	26
568.483	1	31
568.823	1	17
569.162	1	21
569.502	1	14
569.842	1	22
570.182	1	20
570.522	1	13
570.862	1	27
571.201	1	23
571.541	1	13
571.881	1	13
572.221	1	27
572.561	1	23
572.900	1	14
573.240	1	15
573.580	1	15
573.920	1	37
574.260	1	27
574.599	1	20
574.939	1	11
575.279	1	21
575.619	1	22
575.959	1	11
576.298	1	22
576.638	1	24
576.978	1	16
577.318	1	20
577.657	1	13
577.997	1	8
578.337	1	21
578.677	1	16
579.016	1	16
579.356	1	4
579.696	1	21
580.036	1	22
580.375	1	23
580.715	1	19
581.055	1	18
581.394	1	16
581.734	1	15
582.074	1	18
582.414	1	6
582.753	1	16
583.093	1	19
583.433	1	20
583.772	1	23
584.112	1	23
584.452	1	14
584.791	1	20
585.131	1	22
585.471	1	17
585.811	1	-1
586.150	1	9
586.490	1	16
586.830	1	8
587.169	1	31
587.509	1	17
587.849	1	16
588.188	1	9
588.528	1	10
588.867	1	13
589.207	1	11
589.547	1	16
589.886	1	6
590.226	1	8
590.566	1	17
590.905	1	16
591.245	1	13
591.585	1	15
591.924	1	6
592.264	1	10
592.603	1	19
592.943	1	14
593.283	1	11
593.622	1	-1
593.962	1	15
594.301	1	19
594.641	1	18
594.981	1	19
595.320	1	11
595.660	1	15
595.999	1	9
596.339	1	9
596.678	1	4
597.018	1	12
597.358	1	0
597.697	1	10
598.037	1	9
598.376	1	9
598.716	1	5
599.055	1	6
599.395	1	8
599.734	1	13
600.074	1	5
600.413	1	1
600.753	1	15
601.092	1	3
601.432	1	8
601.771	1	13
602.111	1	8
602.451	1	15
602.790	1	19
603.130	1	3
603.469	1	8
603.809	1	9
604.148	1	16
604.487	1	10
604.827	1	-4
605.166	1	16
605.506	1	5
605.845	1	19
606.185	1	16
606.524	1	7
606.864	1	15
607.203	1	17
607.543	1	11
607.882	1	7
608.222	1	1
608.561	1	16
608.901	1	14
609.240	1	2
609.579	1	10
609.919	1	3
610.258	1	23
610.598	1	12
610.937	1	16
611.277	1	15
611.616	1	12
611.955	1	9
612.295	1	7
612.634	1	6
612.974	1	14
613.313	1	6
613.652	1	17
613.992	1	13
614.331	1	5
614.671	1	14
615.010	1	7
615.349	1	6
615.689	1	20
616.028	1	5
616.368	1	3
616.707	1	16
617.046	1	-1
617.386	1	19
617.725	1	5
618.064	1	9
618.404	1	12
618.743	1	16
619.082	1	10
619.422	1	4
619.761	1	-2
620.100	1	6
620.440	1	6
620.779	1	10
621.118	1	0
621.458	1	8
621.797	1	15
622.136	1	18
622.476	1	7
622.815	1	-1
623.154	1	8
623.494	1	1
623.833	1	15
624.172	1	12
624.511	1	7
624.851	1	7
625.190	1	17
625.529	1	17
625.869	1	19
626.208	1	7
626.547	1	-1
626.886	1	4
627.226	1	11
627.565	1	13
627.904	1	9
628.243	1	9
628.583	1	0
628.922	1	-2
629.261	1	7
629.600	1	9
629.940	1	5
630.279	1	12
630.618	1	3
630.957	1	10
631.297	1	0
631.636	1	17
631.975	1	-2
632.314	1	9
632.653	1	7
632.993	1	3
633.332	1	13
633.671	1	14
634.010	1	15
634.349	1	1
634.689	1	12
635.028	1	6
635.367	1	8
635.706	1	6
636.045	1	4
636.384	1	-5
636.724	1	9
637.063	1	8
637.402	1	9
637.741	1	-1
638.080	1	21
638.419	1	6
638.759	1	7
639.098	1	-5
639.437	1	-7
639.776	1	3
640.115	1	9
640.454	1	5
640.793	1	-3
641.132	1	5
641.472	1	4
641.811	1	14
642.150	1	-5
642.489	1	3
642.828	1	3
643.167	1	8
643.506	1	8
643.845	1	8
644.184	1	19
644.524	1	13
644.863	1	-1
645.202	1	12
645.541	1	10
645.880	1	13
646.219	1	7
646.558	1	11
646.897	1	16
647.236	1	1
647.575	1	1
647.914	1	9
648.253	1	3
648.592	1	6
648.931	1	8
649.270	1	7
649.610	1	5
649.949	1	7
650.288	1	3
650.627	1	2
650.966	1	9
651.305	1	-3
651.644	1	5
651.983	1	6
652.322	1	6
652.661	1	10
653.000	1	2
653.339	1	-2
653.678	1	7
654.017	1	4
654.356	1	9
654.695	1	9
655.034	1	5
655.373	1	11
655.712	1	-2
656.051	1	6
656.390	1	1
656.729	1	10
657.068	1	13
657.406	1	7
657.745	1	6
658.084	1	0
658.423	1	1
658.762	1	0
659.101	1	6
659.440	1	8
659.779	1	4
660.118	1	6
660.457	1	12
660.796	1	16
661.135	1	-8
661.474	1	3
661.813	1	5
662.152	1	-3
662.491	1	-6
662.829	1	-3
663.168	1	10
663.507	1	9
663.846	1	2
664.185	1	6
664.524	1	15
664.863	1	3
665.202	1	23
665.541	1	7
665.879	1	8
666.218	1	18
666.557	1	-2
666.896	1	11
667.235	1	11
667.574	1	-3
667.913	1	1
668.251	1	3
668.590	1	-5
668.929	1	9
669.268	1	3
669.607	1	14
669.946	1	9
670.285	1	19
670.623	1	9
670.962	1	4
671.301	1	2
671.640	1	12
671.979	1	-1
672.317	1	10
672.656	1	10
672.995	1	-4
673.334	1	4
673.673	1	11
674.011	1	12
674.350	1	13
674.689	1	9
675.028	1	2
675.367	1	1
675.705	1	16
676.044	1	16
676.383	1	4
676.722	1	8
677.060	1	-8
677.399	1	8
677.738	1	4
678.077	1	16
678.416	1	1
678.754	1	4
679.093	1	9
679.432	1	-1
679.771	1	8
680.109	1	10
680.448	1	11
680.787	1	6
681.125	1	15
681.464	1	19
681.803	1	13
682.142	1	-7
682.480	1	9
682.819	1	17
683.158	1	3
683.496	1	7
683.835	1	3
684.174	1	4
684.512	1	1
684.851	1	-1
685.190	1	-2
685.529	1	22
685.867	1	16
686.206	1	13
686.545	1	5
686.883	1	10
687.222	1	10
687.561	1	8
687.899	1	-2
688.238	1	2
688.577	1	15
688.746	1	-9