File: Data/GaN_170K_550ms/GaN_sample D_spot 18_UVVIS_170 K_200um_550 ms 2x2mm1_227.txt
340.368	1	5
340.710	1	-12
341.052	1	6
341.394	1	5
341.737	1	-5
342.079	1	-2
342.421	1	3
342.763	1	2
343.105	1	7
343.447	1	0
343.789	1	-2
344.131	1	-6
344.473	1	6
344.815	1	7
345.157	1	12
345.499	1	-3
345.841	1	-2
346.183	1	10
346.526	1	5
346.868	1	12
347.210	1	2
347.552	1	8
347.894	1	-7
348.236	1	3
348.578	1	9
348.920	1	-6
349.262	1	11
349.604	1	5
349.946	1	10
350.288	1	1
350.630	1	1
350.972	1	-1
351.314	1	3
351.656	1	-5
351.998	1	8
352.340	1	-1
352.682	1	-6
353.024	1	-4
353.366	1	9
353.708	1	9
354.050	1	2
354.392	1	0
354.734	1	5
355.076	1	-2
355.418	1	-2
355.760	1	-2
356.102	1	8
356.444	1	-3
356.785	1	-2
357.127	1	-5
357.469	1	5
357.811	1	8
358.153	1	4
358.495	1	-3
358.837	1	4
359.179	1	0
359.521	1	7
359.863	1	9
360.205	1	11
360.547	1	10
360.889	1	12
361.231	1	4
361.572	1	12
361.914	1	0
362.256	1	6
362.598	1	6
362.940	1	18
363.282	1	9
363.624	1	14
363.966	1	3
364.308	1	9
364.649	1	3
364.991	1	15
365.333	1	3
365.675	1	12
366.017	1	11
366.359	1	0
366.701	1	17
367.042	1	8
367.384	1	20
367.726	1	21
368.068	1	19
368.410	1	16
368.752	1	19
369.093	1	5
369.435	1	10
369.777	1	18
370.119	1	19
370.461	1	18
370.803	1	12
371.144	1	11
371.486	1	5
371.828	1	7
372.170	1	9
372.512	1	12
372.853	1	8
373.195	1	14
373.537	1	23
373.879	1	18
374.220	1	12
374.562	1	3
374.904	1	15
375.246	1	13
375.588	1	10
375.929	1	8
376.271	1	10
376.613	1	6
376.955	1	10
377.296	1	1
377.638	1	8
377.980	1	-15
378.321	1	7
378.663	1	10
379.005	1	3
379.347	1	1
379.688	1	3
380.030	1	1
380.372	1	3
380.714	1	8
381.055	1	8
381.397	1	5
381.739	1	-7
382.080	1	7
382.422	1	5
382.764	1	-6
383.105	1	4
383.447	1	10
383.789	1	11
384.130	1	2
384.472	1	-4
384.814	1	3
385.156	1	-8
385.497	1	9
385.839	1	3
386.180	1	11
386.522	1	5
386.864	1	7
387.205	1	-1
387.547	1	-1
387.889	1	8
388.230	1	3
388.572	1	3
388.914	1	-1
389.255	1	11
389.597	1	0
389.939	1	3
390.280	1	5
390.622	1	-5
390.963	1	2
391.305	1	-2
391.647	1	-11
391.988	1	8
392.330	1	6
392.671	1	0
393.013	1	2
393.355	1	2
393.696	1	8
394.038	1	-1
394.379	1	-4
394.721	1	2
395.062	1	-2
395.404	1	10
395.746	1	3
396.087	1	12
396.429	1	8
396.770	1	5
397.112	1	5
397.453	1	9
397.795	1	6
398.136	1	4
398.478	1	4
398.819	1	0
399.161	1	-1
399.503	1	6
399.844	1	-4
400.186	1	-6
400.527	1	12
400.869	1	0
401.210	1	10
401.552	1	4
401.893	1	11
402.235	1	7
402.576	1	-1
402.918	1	-4
403.259	1	4
403.601	1	9
403.942	1	11
404.284	1	-8
404.625	1	0
404.967	1	8
405.308	1	0
405.649	1	4
405.991	1	2
406.332	1	-13
406.674	1	9
407.015	1	9
407.357	1	-3
407.698	1	1
408.040	1	4
408.381	1	-4
408.722	1	-8
409.064	1	7
409.405	1	6
409.747	1	2
410.088	1	-2
410.430	1	-3
410.771	1	10
411.112	1	2
411.454	1	5
411.795	1	10
412.137	1	-5
412.478	1	-7
412.819	1	-9
413.161	1	1
413.502	1	-6
413.844	1	9
414.185	1	2
414.526	1	10
414.868	1	-3
415.209	1	-12
415.550	1	0
415.892	1	3
416.233	1	11
416.575	1	3
416.916	1	-12
417.257	1	7
417.599	1	2
417.940	1	1
418.281	1	-21
418.623	1	-2
418.964	1	-1
419.305	1	-4
419.647	1	0
419.988	1	7
420.329	1	7
420.671	1	-3
421.012	1	5
421.353	1	6
421.695	1	2
422.036	1	5
422.377	1	6
422.718	1	10
423.060	1	4
423.401	1	4
423.742	1	-5
424.084	1	17
424.425	1	-2
424.766	1	-10
425.107	1	-2
425.449	1	-3
425.790	1	1
426.131	1	12
426.472	1	1
426.814	1	-2
427.155	1	14
427.496	1	4
427.837	1	3
428.179	1	2
428.520	1	-2
428.861	1	-4
429.202	1	2
429.544	1	-10
429.885	1	0
430.226	1	0
430.567	1	3
430.909	1	-6
431.250	1	7
431.591	1	2
431.932	1	-2
432.273	1	0
432.615	1	1
432.956	1	8
433.297	1	-6
433.638	1	10
433.979	1	7
434.320	1	10
434.662	1	-13
435.003	1	8
435.344	1	-5
435.685	1	1
436.026	1	3
436.368	1	2
436.709	1	-1
437.050	1	-7
437.391	1	-10
437.732	1	0
438.073	1	-2
438.414	1	-2
438.756	1	1
439.097	1	11
439.438	1	5
439.779	1	6
440.120	1	-2
440.461	1	4
440.802	1	11
441.143	1	-3
441.485	1	-8
441.826	1	1
442.167	1	12
442.508	1	-4
442.849	1	-4
443.190	1	-6
443.531	1	-4
443.872	1	-7
444.213	1	0
444.554	1	0
444.895	1	-11
445.237	1	1
445.578	1	7
445.919	1	3
446.260	1	2
446.601	1	-4
446.942	1	-2
447.283	1	3
447.624	1	1
447.965	1	5
448.306	1	1
448.647	1	-4
448.988	1	10
449.329	1	2
449.670	1	-6
450.011	1	0
450.352	1	-7
450.693	1	-3
451.034	1	0
451.375	1	3
451.716	1	-1
452.057	1	-1
452.398	1	6
452.739	1	3
453.080	1	2
453.421	1	1
453.762	1	-4
454.103	1	-4
454.444	1	-12
454.785	1	1
455.126	1	11
455.467	1	-5
455.808	1	12
456.149	1	-4
456.490	1	-2
456.831	1	-13
457.172	1	-2
457.513	1	18
457.854	1	14
458.195	1	4
458.536	1	-5
458.877	1	11
459.218	1	0
459.559	1	-3
459.899	1	6
460.240	1	1
460.581	1	2
460.922	1	-5
461.263	1	3
461.604	1	7
461.945	1	-3
462.286	1	-6
462.627	1	-4
462.968	1	5
463.309	1	12
463.649	1	3
463.990	1	5
464.331	1	5
464.672	1	-10
465.013	1	8
465.354	1	-9
465.695	1	7
466.036	1	-9
466.376	1	6
466.717	1	-8
467.058	1	11
467.399	1	8
467.740	1	4
468.081	1	2
468.422	1	4
468.762	1	15
469.103	1	6
469.444	1	0
469.785	1	-9
470.126	1	-3
470.467	1	3
470.807	1	-7
471.148	1	-3
471.489	1	11
471.830	1	7
472.171	1	8
472.511	1	-2
472.852	1	2
473.193	1	8
473.534	1	8
473.875	1	-2
474.215	1	2
474.556	1	7
474.897	1	0
475.238	1	-4
475.578	1	-2
475.919	1	4
476.260	1	6
476.601	1	5
476.942	1	-6
477.282	1	9
477.623	1	19
477.964	1	-10
478.305	1	1
478.645	1	-1
478.986	1	6
479.327	1	0
479.667	1	2
480.008	1	2
480.349	1	11
480.690	1	1
481.030	1	4
481.371	1	1
481.712	1	-2
482.053	1	-1
482.393	1	2
482.734	1	6
483.075	1	5
483.415	1	10
483.756	1	13
484.097	1	-5
484.437	1	-6
484.778	1	-5
485.119	1	-3
485.459	1	6
485.800	1	-9
486.141	1	9
486.481	1	2
486.822	1	-1
487.163	1	7
487.503	1	7
487.844	1	3
488.185	1	3
488.525	1	5
488.866	1	7
489.207	1	8
489.547	1	3
489.888	1	-1
490.228	1	-4
490.569	1	11
490.910	1	-2
491.250	1	14
491.591	1	-5
491.932	1	7
492.272	1	13
492.613	1	-6
492.953	1	3
493.294	1	-5
493.635	1	8
493.975	1	1
494.316	1	5
494.656	1	0
494.997	1	1
495.337	1	7
495.678	1	-1
496.019	1	-5
496.359	1	1
496.700	1	14
497.040	1	5
497.381	1	9
497.721	1	-1
498.062	1	0
498.403	1	6
498.743	1	7
499.084	1	5
499.424	1	11
499.765	1	-2
500.105	1	-5
500.446	1	-2
500.786	1	-6
501.127	1	0
501.467	1	4
501.808	1	7
502.148	1	-2
502.489	1	4
502.829	1	6
503.170	1	2
503.510	1	0
503.851	1	1
504.191	1	-2
504.532	1	-12
504.872	1	8
505.213	1	2
505.553	1	6
505.894	1	13
506.234	1	-8
506.575	1	9
506.915	1	9
507.256	1	-7
507.596	1	8
507.936	1	16
508.277	1	-5
508.617	1	6
508.958	1	1
509.298	1	4
509.639	1	5
509.979	1	8
510.319	1	-6
510.660	1	-4
511.000	1	5
511.341	1	13
511.681	1	-2
512.022	1	4
512.362	1	1
512.702	1	-4
513.043	1	-5
513.383	1	4
513.724	1	4
514.064	1	8
514.404	1	-2
514.745	1	-3
515.085	1	5
515.425	1	-4
515.766	1	6
516.106	1	10
516.447	1	2
516.787	1	4
517.127	1	6
517.468	1	7
517.808	1	13
518.148	1	5
518.489	1	0
518.829	1	5
519.169	1	6
519.510	1	9
519.850	1	7
520.190	1	-3
520.531	1	0
520.871	1	2
521.211	1	7
521.552	1	-4
521.892	1	-1
522.232	1	-11
522.573	1	6
522.913	1	9
523.253	1	19
523.593	1	-2
523.934	1	8
524.274	1	6
524.614	1	-2
524.955	1	5
525.295	1	0
525.635	1	1
525.975	1	2
526.316	1	16
526.656	1	10
526.996	1	11
527.337	1	-3
527.677	1	-4
528.017	1	3
528.357	1	-3
528.698	1	-3
529.038	1	2
529.378	1	3
529.718	1	9
530.058	1	12
530.399	1	13
530.739	1	3
531.079	1	1
531.419	1	16
531.760	1	6
532.100	1	3
532.440	1	1
532.780	1	-5
533.120	1	4
533.461	1	-2
533.801	1	10
534.141	1	-3
534.481	1	12
534.821	1	12
535.162	1	6
535.502	1	1
535.842	1	1
536.182	1	1
536.522	1	2
536.862	1	13
537.203	1	10
537.543	1	0
537.883	1	6
538.223	1	3
538.563	1	4
538.903	1	12
539.243	1	2
539.584	1	3
539.924	1	2
540.264	1	7
540.604	1	-2
540.944	1	1
541.284	1	10
541.624	1	-9
541.964	1	5
542.305	1	0
542.645	1	1
542.985	1	3
543.325	1	5
543.665	1	14
544.005	1	10
544.345	1	15
544.685	1	7
545.025	1	1
545.365	1	3
545.705	1	4
546.045	1	2
546.386	1	-4
546.726	1	5
547.066	1	8
547.406	1	2
547.746	1	6
548.086	1	7
548.426	1	10
548.766	1	-1
549.106	1	1
549.446	1	-1
549.786	1	5
550.126	1	5
550.466	1	-3
550.806	1	2
551.146	1	2
551.486	1	8
551.826	1	13
552.166	1	3
552.506	1	11
552.846	1	-10
553.186	1	3
553.526	1	0
553.866	1	0
554.206	1	7
554.546	1	-9
554.886	1	6
555.226	1	-2
555.566	1	7
555.906	1	3
556.246	1	-2
556.586	1	1
556.926	1	6
557.266	1	4
557.606	1	2
557.946	1	12
558.286	1	2
558.626	1	11
558.966	1	6
559.306	1	7
559.646	1	-1
559.986	1	7
560.325	1	6
560.665	1	3
561.005	1	-2
561.345	1	-1
561.685	1	-3
562.025	1	-11
562.365	1	-5
562.705	1	12
563.045	1	3
563.385	1	8
563.725	1	0
564.064	1	10
564.404	1	-4
564.744	1	6
565.084	1	5
565.424	1	-4
565.764	1	-1
566.104	1	2
566.444	1	5
566.783	1	11
567.123	1	7
567.463	1	0
567.803	1	7
568.143	1	4
568.483	1	-1
568.823	1	-1
569.162	1	-1
569.502	1	4
569.842	1	-5
570.182	1	-1
570.522	1	-4
570.862	1	6
571.201	1	0
571.541	1	-3
571.881	1	3
572.221	1	0
572.561	1	5
572.900	1	-10
573.240	1	9
573.580	1	2
573.920	1	8
574.260	1	4
574.599	1	0
574.939	1	-9
575.279	1	3
575.619	1	9
575.959	1	-3
576.298	1	7
576.638	1	8
576.978	1	-1
577.318	1	1
577.657	1	3
577.997	1	-3
578.337	1	-2
578.677	1	11
579.016	1	-2
579.356	1	10
579.696	1	-5
580.036	1	3
580.375	1	1
580.715	1	0
581.055	1	8
581.394	1	0
581.734	1	4
582.074	1	6
582.414	1	-8
582.753	1	-2
583.093	1	4
583.433	1	17
583.772	1	-5
584.112	1	2
584.452	1	-16
584.791	1	0
585.131	1	13
585.471	1	0
585.811	1	-10
586.150	1	-8
586.490	1	3
586.830	1	-7
587.169	1	9
587.509	1	2
587.849	1	-2
588.188	1	5
588.528	1	-3
588.867	1	2
589.207	1	-3
589.547	1	8
589.886	1	-8
590.226	1	3
590.566	1	2
590.905	1	8
591.245	1	-5
591.585	1	3
591.924	1	-7
592.264	1	-14
592.603	1	4
592.943	1	-5
593.283	1	5
593.622	1	-3
593.962	1	2
594.301	1	5
594.641	1	8
594.981	1	9
595.320	1	10
595.660	1	3
595.999	1	4
596.339	1	9
596.678	1	-10
597.018	1	1
597.358	1	0
597.697	1	-3
598.037	1	4
598.376	1	-4
598.716	1	1
599.055	1	6
599.395	1	-8
599.734	1	12
600.074	1	-5
600.413	1	-3
600.753	1	1
601.092	1	4
601.432	1	-5
601.771	1	4
602.111	1	-7
602.451	1	2
602.790	1	13
603.130	1	-4
603.469	1	-1
603.809	1	-4
604.148	1	1
604.487	1	6
604.827	1	-11
605.166	1	6
605.506	1	-8
605.845	1	2
606.185	1	1
606.524	1	1
606.864	1	-11
607.203	1	4
607.543	1	12
607.882	1	4
608.222	1	0
608.561	1	8
608.901	1	8
609.240	1	-1
609.579	1	8
609.919	1	-2
610.258	1	3
610.598	1	10
610.937	1	-2
611.277	1	9
611.616	1	-4
611.955	1	0
612.295	1	-2
612.634	1	1
612.974	1	4
613.313	1	-12
613.652	1	11
613.992	1	-6
614.331	1	-6
614.671	1	5
615.010	1	-2
615.349	1	7
615.689	1	17
616.028	1	-5
616.368	1	5
616.707	1	6
617.046	1	-13
617.386	1	-2
617.725	1	1
618.064	1	5
618.404	1	4
618.743	1	3
619.082	1	12
619.422	1	-3
619.761	1	-8
620.100	1	-2
620.440	1	7
620.779	1	3
621.118	1	-7
621.458	1	-4
621.797	1	4
622.136	1	1
622.476	1	-9
622.815	1	-3
623.154	1	-3
623.494	1	-7
623.833	1	0
624.172	1	3
624.511	1	8
624.851	1	-1
625.190	1	8
625.529	1	8
625.869	1	10
626.208	1	-9
626.547	1	-3
626.886	1	0
627.226	1	5
627.565	1	3
627.904	1	-6
628.243	1	-1
628.583	1	-6
628.922	1	-4
629.261	1	7
629.600	1	-8
629.940	1	0
630.279	1	-1
630.618	1	-3
630.957	1	0
631.297	1	-3
631.636	1	7
631.975	1	5
632.314	1	-1
632.653	1	2
632.993	1	-4
633.332	1	0
633.671	1	2
634.010	1	1
634.349	1	-10
634.689	1	2
635.028	1	1
635.367	1	-11
635.706	1	0
636.045	1	4
636.384	1	-8
636.724	1	13
637.063	1	0
637.402	1	11
637.741	1	-2
638.080	1	5
638.419	1	-9
638.759	1	8
639.098	1	-5
639.437	1	-3
639.776	1	-1
640.115	1	8
640.454	1	-2
640.793	1	-7
641.132	1	9
641.472	1	4
641.811	1	9
642.150	1	-3
642.489	1	1
642.828	1	1
643.167	1	-1
643.506	1	1
643.845	1	2
644.184	1	14
644.524	1	1
644.863	1	-1
645.202	1	15
645.541	1	7
645.880	1	11
646.219	1	9
646.558	1	5
646.897	1	0
647.236	1	-3
647.575	1	-6
647.914	1	1
648.253	1	4
648.592	1	8
648.931	1	10
649.270	1	-10
649.610	1	7
649.949	1	-4
650.288	1	2
650.627	1	-3
650.966	1	-1
651.305	1	-9
651.644	1	7
651.983	1	7
652.322	1	0
652.661	1	-2
653.000	1	-5
653.339	1	5
653.678	1	4
654.017	1	6
654.356	1	-3
654.695	1	14
655.034	1	-6
655.373	1	3
655.712	1	-5
656.051	1	7
656.390	1	-2
656.729	1	4
657.068	1	7
657.406	1	4
657.745	1	2
658.084	1	-5
658.423	1	2
658.762	1	-2
659.101	1	6
659.440	1	-2
659.779	1	2
660.118	1	2
660.457	1	6
660.796	1	-2
661.135	1	-8
661.474	1	2
661.813	1	1
662.152	1	-7
662.491	1	0
662.829	1	-4
663.168	1	4
663.507	1	10
663.846	1	1
664.185	1	10
664.524	1	6
664.863	1	-2
665.202	1	10
665.541	1	-7
665.879	1	5
666.218	1	9
666.557	1	-2
666.896	1	-1
667.235	1	9
667.574	1	-9
667.913	1	2
668.251	1	6
668.590	1	-3
668.929	1	5
669.268	1	-8
669.607	1	2
669.946	1	3
670.285	1	13
670.623	1	-2
670.962	1	-5
671.301	1	2
671.640	1	9
671.979	1	11
672.317	1	-1
672.656	1	-3
672.995	1	-5
673.334	1	-3
673.673	1	-1
674.011	1	0
674.350	1	6
674.689	1	-1
675.028	1	0
675.367	1	-3
675.705	1	5
676.044	1	8
676.383	1	7
676.722	1	1
677.060	1	-4
677.399	1	3
677.738	1	5
678.077	1	6
678.416	1	-3
678.754	1	-3
679.093	1	6
679.432	1	-2
679.771	1	2
680.109	1	-5
680.448	1	-6
680.787	1	-1
681.125	1	2
681.464	1	8
681.803	1	3
682.142	1	-1
682.480	1	-3
682.819	1	5
683.158	1	-10
683.496	1	9
683.835	1	2
684.174	1	2
684.512	1	4
684.851	1	2
685.190	1	2
685.529	1	10
685.867	1	8
686.206	1	3
686.545	1	6
686.883	1	3
687.222	1	4
687.561	1	5
687.899	1	-4
688.238	1	0
688.577	1	1
688.746	1	-4