File: Data/GaN_170K_550ms/GaN_sample D_spot 18_UVVIS_170 K_200um_550 ms 2x2mm1_98.txt
340.368	1	-1
340.710	1	-9
341.052	1	11
341.394	1	11
341.737	1	-2
342.079	1	-2
342.421	1	11
342.763	1	9
343.105	1	14
343.447	1	-11
343.789	1	10
344.131	1	-2
344.473	1	4
344.815	1	12
345.157	1	4
345.499	1	-5
345.841	1	5
346.183	1	14
346.526	1	9
346.868	1	5
347.210	1	-8
347.552	1	3
347.894	1	2
348.236	1	3
348.578	1	13
348.920	1	3
349.262	1	5
349.604	1	12
349.946	1	11
350.288	1	5
350.630	1	22
350.972	1	-7
351.314	1	5
351.656	1	0
351.998	1	8
352.340	1	6
352.682	1	2
353.024	1	4
353.366	1	11
353.708	1	16
354.050	1	9
354.392	1	7
354.734	1	7
355.076	1	-4
355.418	1	-6
355.760	1	11
356.102	1	14
356.444	1	3
356.785	1	11
357.127	1	8
357.469	1	5
357.811	1	11
358.153	1	18
358.495	1	12
358.837	1	13
359.179	1	11
359.521	1	19
359.863	1	15
360.205	1	25
360.547	1	27
360.889	1	23
361.231	1	21
361.572	1	30
361.914	1	30
362.256	1	34
362.598	1	35
362.940	1	52
363.282	1	49
363.624	1	44
363.966	1	48
364.308	1	48
364.649	1	46
364.991	1	67
365.333	1	56
365.675	1	72
366.017	1	61
366.359	1	74
366.701	1	79
367.042	1	85
367.384	1	94
367.726	1	102
368.068	1	98
368.410	1	104
368.752	1	94
369.093	1	85
369.435	1	91
369.777	1	97
370.119	1	93
370.461	1	91
370.803	1	82
371.144	1	78
371.486	1	75
371.828	1	77
372.170	1	70
372.512	1	56
372.853	1	66
373.195	1	60
373.537	1	67
373.879	1	65
374.220	1	76
374.562	1	52
374.904	1	48
375.246	1	43
375.588	1	53
375.929	1	41
376.271	1	39
376.613	1	45
376.955	1	48
377.296	1	34
377.638	1	35
377.980	1	28
378.321	1	31
378.663	1	39
379.005	1	31
379.347	1	19
379.688	1	32
380.030	1	39
380.372	1	26
380.714	1	35
381.055	1	26
381.397	1	29
381.739	1	22
382.080	1	14
382.422	1	16
382.764	1	16
383.105	1	15
383.447	1	24
383.789	1	38
384.130	1	15
384.472	1	13
384.814	1	22
385.156	1	18
385.497	1	29
385.839	1	4
386.180	1	15
386.522	1	32
386.864	1	15
387.205	1	9
387.547	1	20
387.889	1	23
388.230	1	8
388.572	1	5
388.914	1	7
389.255	1	19
389.597	1	11
389.939	1	8
390.280	1	10
390.622	1	7
390.963	1	11
391.305	1	8
391.647	1	-1
391.988	1	9
392.330	1	12
392.671	1	7
393.013	1	4
393.355	1	15
393.696	1	19
394.038	1	5
394.379	1	2
394.721	1	4
395.062	1	11
395.404	1	20
395.746	1	15
396.087	1	4
396.429	1	10
396.770	1	14
397.112	1	7
397.453	1	18
397.795	1	2
398.136	1	4
398.478	1	-6
398.819	1	9
399.161	1	3
399.503	1	6
399.844	1	0
400.186	1	0
400.527	1	13
400.869	1	3
401.210	1	14
401.552	1	4
401.893	1	8
402.235	1	6
402.576	1	-3
402.918	1	0
403.259	1	8
403.601	1	8
403.942	1	8
404.284	1	-1
404.625	1	8
404.967	1	-1
405.308	1	-1
405.649	1	3
405.991	1	6
406.332	1	3
406.674	1	12
407.015	1	11
407.357	1	-2
407.698	1	11
408.040	1	8
408.381	1	4
408.722	1	0
409.064	1	5
409.405	1	2
409.747	1	-1
410.088	1	6
410.430	1	-3
410.771	1	9
411.112	1	7
411.454	1	9
411.795	1	17
412.137	1	-8
412.478	1	4
412.819	1	-2
413.161	1	6
413.502	1	6
413.844	1	4
414.185	1	1
414.526	1	5
414.868	1	6
415.209	1	-12
415.550	1	3
415.892	1	9
416.233	1	-2
416.575	1	3
416.916	1	-5
417.257	1	8
417.599	1	2
417.940	1	4
418.281	1	-1
418.623	1	4
418.964	1	2
419.305	1	6
419.647	1	10
419.988	1	12
420.329	1	2
420.671	1	3
421.012	1	5
421.353	1	12
421.695	1	-3
422.036	1	3
422.377	1	5
422.718	1	7
423.060	1	-5
423.401	1	1
423.742	1	-1
424.084	1	11
424.425	1	-7
424.766	1	4
425.107	1	-6
425.449	1	8
425.790	1	4
426.131	1	11
426.472	1	7
426.814	1	-2
427.155	1	7
427.496	1	1
427.837	1	4
428.179	1	4
428.520	1	-9
428.861	1	2
429.202	1	0
429.544	1	4
429.885	1	4
430.226	1	6
430.567	1	6
430.909	1	-1
431.250	1	12
431.591	1	-1
431.932	1	-7
432.273	1	2
432.615	1	4
432.956	1	3
433.297	1	-5
433.638	1	7
433.979	1	5
434.320	1	15
434.662	1	-10
435.003	1	10
435.344	1	1
435.685	1	-3
436.026	1	4
436.368	1	12
436.709	1	9
437.050	1	1
437.391	1	2
437.732	1	8
438.073	1	0
438.414	1	-5
438.756	1	-2
439.097	1	7
439.438	1	4
439.779	1	9
440.120	1	0
440.461	1	13
440.802	1	13
441.143	1	5
441.485	1	2
441.826	1	5
442.167	1	0
442.508	1	4
442.849	1	12
443.190	1	-4
443.531	1	1
443.872	1	-2
444.213	1	2
444.554	1	0
444.895	1	-6
445.237	1	3
445.578	1	-2
445.919	1	3
446.260	1	3
446.601	1	1
446.942	1	4
447.283	1	2
447.624	1	3
447.965	1	7
448.306	1	4
448.647	1	9
448.988	1	13
449.329	1	7
449.670	1	-12
450.011	1	6
450.352	1	-4
450.693	1	-2
451.034	1	0
451.375	1	6
451.716	1	2
452.057	1	4
452.398	1	9
452.739	1	3
453.080	1	3
453.421	1	2
453.762	1	-4
454.103	1	2
454.444	1	-3
454.785	1	2
455.126	1	7
455.467	1	-6
455.808	1	13
456.149	1	0
456.490	1	7
456.831	1	0
457.172	1	-12
457.513	1	12
457.854	1	10
458.195	1	-5
458.536	1	5
458.877	1	7
459.218	1	3
459.559	1	8
459.899	1	0
460.240	1	0
460.581	1	6
460.922	1	0
461.263	1	5
461.604	1	17
461.945	1	7
462.286	1	0
462.627	1	4
462.968	1	16
463.309	1	7
463.649	1	8
463.990	1	12
464.331	1	6
464.672	1	1
465.013	1	14
465.354	1	-6
465.695	1	16
466.036	1	-8
466.376	1	9
466.717	1	2
467.058	1	17
467.399	1	11
467.740	1	2
468.081	1	2
468.422	1	-1
468.762	1	10
469.103	1	9
469.444	1	-1
469.785	1	-5
470.126	1	2
470.467	1	5
470.807	1	7
471.148	1	0
471.489	1	2
471.830	1	-3
472.171	1	9
472.511	1	7
472.852	1	9
473.193	1	12
473.534	1	0
473.875	1	6
474.215	1	3
474.556	1	0
474.897	1	3
475.238	1	-6
475.578	1	1
475.919	1	12
476.260	1	15
476.601	1	10
476.942	1	0
477.282	1	6
477.623	1	8
477.964	1	12
478.305	1	1
478.645	1	4
478.986	1	-8
479.327	1	-4
479.667	1	7
480.008	1	9
480.349	1	5
480.690	1	3
481.030	1	11
481.371	1	8
481.712	1	2
482.053	1	-5
482.393	1	-5
482.734	1	9
483.075	1	0
483.415	1	3
483.756	1	8
484.097	1	-6
484.437	1	3
484.778	1	-14
485.119	1	11
485.459	1	-3
485.800	1	-1
486.141	1	14
486.481	1	9
486.822	1	3
487.163	1	4
487.503	1	11
487.844	1	13
488.185	1	3
488.525	1	7
488.866	1	15
489.207	1	0
489.547	1	11
489.888	1	11
490.228	1	4
490.569	1	16
490.910	1	8
491.250	1	10
491.591	1	9
491.932	1	17
492.272	1	17
492.613	1	6
492.953	1	4
493.294	1	0
493.635	1	3
493.975	1	10
494.316	1	1
494.656	1	9
494.997	1	6
495.337	1	15
495.678	1	10
496.019	1	0
496.359	1	7
496.700	1	8
497.040	1	8
497.381	1	12
497.721	1	6
498.062	1	6
498.403	1	15
498.743	1	12
499.084	1	6
499.424	1	18
499.765	1	0
500.105	1	5
500.446	1	3
500.786	1	10
501.127	1	12
501.467	1	1
501.808	1	3
502.148	1	18
502.489	1	13
502.829	1	5
503.170	1	15
503.510	1	17
503.851	1	10
504.191	1	8
504.532	1	3
504.872	1	20
505.213	1	-1
505.553	1	14
505.894	1	18
506.234	1	-1
506.575	1	10
506.915	1	14
507.256	1	7
507.596	1	16
507.936	1	18
508.277	1	6
508.617	1	16
508.958	1	8
509.298	1	6
509.639	1	14
509.979	1	12
510.319	1	4
510.660	1	3
511.000	1	14
511.341	1	14
511.681	1	8
512.022	1	12
512.362	1	3
512.702	1	10
513.043	1	18
513.383	1	13
513.724	1	11
514.064	1	12
514.404	1	6
514.745	1	12
515.085	1	13
515.425	1	19
515.766	1	15
516.106	1	21
516.447	1	11
516.787	1	22
517.127	1	15
517.468	1	18
517.808	1	27
518.148	1	14
518.489	1	25
518.829	1	14
519.169	1	11
519.510	1	17
519.850	1	8
520.190	1	25
520.531	1	15
520.871	1	14
521.211	1	18
521.552	1	11
521.892	1	7
522.232	1	7
522.573	1	13
522.913	1	19
523.253	1	26
523.593	1	17
523.934	1	13
524.274	1	10
524.614	1	18
524.955	1	16
525.295	1	17
525.635	1	20
525.975	1	15
526.316	1	15
526.656	1	24
526.996	1	19
527.337	1	11
527.677	1	14
528.017	1	13
528.357	1	6
528.698	1	7
529.038	1	11
529.378	1	16
529.718	1	26
530.058	1	19
530.399	1	16
530.739	1	21
531.079	1	17
531.419	1	21
531.760	1	20
532.100	1	11
532.440	1	21
532.780	1	-1
533.120	1	19
533.461	1	14
533.801	1	24
534.141	1	10
534.481	1	27
534.821	1	21
535.162	1	20
535.502	1	19
535.842	1	14
536.182	1	18
536.522	1	18
536.862	1	16
537.203	1	11
537.543	1	15
537.883	1	7
538.223	1	14
538.563	1	16
538.903	1	15
539.243	1	13
539.584	1	10
539.924	1	7
540.264	1	16
540.604	1	7
540.944	1	10
541.284	1	21
541.624	1	8
541.964	1	22
542.305	1	10
542.645	1	13
542.985	1	22
543.325	1	10
543.665	1	17
544.005	1	18
544.345	1	23
544.685	1	16
545.025	1	16
545.365	1	14
545.705	1	17
546.045	1	15
546.386	1	12
546.726	1	16
547.066	1	33
547.406	1	13
547.746	1	4
548.086	1	12
548.426	1	25
548.766	1	10
549.106	1	25
549.446	1	22
549.786	1	9
550.126	1	15
550.466	1	22
550.806	1	7
551.146	1	19
551.486	1	7
551.826	1	10
552.166	1	15
552.506	1	12
552.846	1	9
553.186	1	17
553.526	1	5
553.866	1	12
554.206	1	18
554.546	1	2
554.886	1	6
555.226	1	8
555.566	1	19
555.906	1	8
556.246	1	16
556.586	1	6
556.926	1	15
557.266	1	19
557.606	1	12
557.946	1	15
558.286	1	7
558.626	1	16
558.966	1	6
559.306	1	21
559.646	1	4
559.986	1	19
560.325	1	-1
560.665	1	25
561.005	1	11
561.345	1	5
561.685	1	15
562.025	1	-3
562.365	1	9
562.705	1	13
563.045	1	0
563.385	1	14
563.725	1	9
564.064	1	11
564.404	1	13
564.744	1	12
565.084	1	14
565.424	1	9
565.764	1	8
566.104	1	9
566.444	1	15
566.783	1	4
567.123	1	4
567.463	1	6
567.803	1	14
568.143	1	-5
568.483	1	6
568.823	1	11
569.162	1	8
569.502	1	10
569.842	1	15
570.182	1	5
570.522	1	6
570.862	1	9
571.201	1	14
571.541	1	0
571.881	1	1
572.221	1	7
572.561	1	13
572.900	1	3
573.240	1	4
573.580	1	1
573.920	1	13
574.260	1	13
574.599	1	5
574.939	1	-5
575.279	1	-3
575.619	1	12
575.959	1	5
576.298	1	15
576.638	1	12
576.978	1	6
577.318	1	8
577.657	1	8
577.997	1	5
578.337	1	9
578.677	1	5
579.016	1	15
579.356	1	7
579.696	1	7
580.036	1	5
580.375	1	13
580.715	1	13
581.055	1	16
581.394	1	7
581.734	1	15
582.074	1	11
582.414	1	6
582.753	1	1
583.093	1	8
583.433	1	15
583.772	1	10
584.112	1	4
584.452	1	6
584.791	1	9
585.131	1	13
585.471	1	7
585.811	1	8
586.150	1	-1
586.490	1	5
586.830	1	-2
587.169	1	24
587.509	1	10
587.849	1	6
588.188	1	1
588.528	1	2
588.867	1	11
589.207	1	-1
589.547	1	13
589.886	1	2
590.226	1	14
590.566	1	11
590.905	1	16
591.245	1	3
591.585	1	2
591.924	1	0
592.264	1	-3
592.603	1	-6
592.943	1	4
593.283	1	5
593.622	1	-5
593.962	1	12
594.301	1	10
594.641	1	9
594.981	1	11
595.320	1	1
595.660	1	4
595.999	1	4
596.339	1	12
596.678	1	3
597.018	1	8
597.358	1	-9
597.697	1	4
598.037	1	1
598.376	1	-2
598.716	1	4
599.055	1	9
599.395	1	6
599.734	1	22
600.074	1	-9
600.413	1	-2
600.753	1	10
601.092	1	2
601.432	1	-1
601.771	1	16
602.111	1	0
602.451	1	1
602.790	1	7
603.130	1	1
603.469	1	5
603.809	1	7
604.148	1	14
604.487	1	2
604.827	1	-5
605.166	1	9
605.506	1	4
605.845	1	9
606.185	1	12
606.524	1	-1
606.864	1	8
607.203	1	1
607.543	1	7
607.882	1	-3
608.222	1	9
608.561	1	11
608.901	1	5
609.240	1	-1
609.579	1	10
609.919	1	6
610.258	1	7
610.598	1	-3
610.937	1	5
611.277	1	4
611.616	1	7
611.955	1	11
612.295	1	8
612.634	1	-1
612.974	1	7
613.313	1	5
613.652	1	22
613.992	1	5
614.331	1	8
614.671	1	15
615.010	1	2
615.349	1	7
615.689	1	14
616.028	1	3
616.368	1	7
616.707	1	14
617.046	1	-2
617.386	1	10
617.725	1	11
618.064	1	-1
618.404	1	1
618.743	1	4
619.082	1	13
619.422	1	-3
619.761	1	1
620.100	1	7
620.440	1	8
620.779	1	3
621.118	1	4
621.458	1	6
621.797	1	4
622.136	1	-1
622.476	1	-7
622.815	1	-1
623.154	1	7
623.494	1	7
623.833	1	5
624.172	1	-3
624.511	1	6
624.851	1	5
625.190	1	8
625.529	1	12
625.869	1	5
626.208	1	7
626.547	1	-4
626.886	1	4
627.226	1	7
627.565	1	6
627.904	1	-3
628.243	1	1
628.583	1	2
628.922	1	-4
629.261	1	8
629.600	1	1
629.940	1	-3
630.279	1	6
630.618	1	8
630.957	1	7
631.297	1	3
631.636	1	14
631.975	1	1
632.314	1	0
632.653	1	6
632.993	1	5
633.332	1	17
633.671	1	8
634.010	1	8
634.349	1	-3
634.689	1	10
635.028	1	6
635.367	1	2
635.706	1	2
636.045	1	5
636.384	1	-4
636.724	1	10
637.063	1	16
637.402	1	10
637.741	1	2
638.080	1	9
638.419	1	-1
638.759	1	10
639.098	1	-9
639.437	1	-4
639.776	1	-4
640.115	1	9
640.454	1	5
640.793	1	8
641.132	1	-3
641.472	1	-7
641.811	1	9
642.150	1	-3
642.489	1	-2
642.828	1	5
643.167	1	6
643.506	1	8
643.845	1	13
644.184	1	16
644.524	1	5
644.863	1	-3
645.202	1	17
645.541	1	13
645.880	1	2
646.219	1	-3
646.558	1	9
646.897	1	7
647.236	1	9
647.575	1	-2
647.914	1	0
648.253	1	-1
648.592	1	-2
648.931	1	6
649.270	1	-3
649.610	1	9
649.949	1	-3
650.288	1	-3
650.627	1	4
650.966	1	10
651.305	1	-5
651.644	1	7
651.983	1	4
652.322	1	3
652.661	1	1
653.000	1	-1
653.339	1	-3
653.678	1	6
654.017	1	9
654.356	1	-1
654.695	1	7
655.034	1	-3
655.373	1	4
655.712	1	-2
656.051	1	0
656.390	1	1
656.729	1	6
657.068	1	5
657.406	1	-1
657.745	1	3
658.084	1	0
658.423	1	3
658.762	1	-1
659.101	1	2
659.440	1	10
659.779	1	0
660.118	1	8
660.457	1	11
660.796	1	0
661.135	1	-9
661.474	1	11
661.813	1	4
662.152	1	4
662.491	1	-12
662.829	1	-9
663.168	1	-5
663.507	1	8
663.846	1	-1
664.185	1	4
664.524	1	9
664.863	1	1
665.202	1	16
665.541	1	2
665.879	1	8
666.218	1	10
666.557	1	1
666.896	1	10
667.235	1	-1
667.574	1	-6
667.913	1	5
668.251	1	10
668.590	1	-1
668.929	1	10
669.268	1	3
669.607	1	5
669.946	1	5
670.285	1	15
670.623	1	6
670.962	1	1
671.301	1	4
671.640	1	8
671.979	1	-1
672.317	1	5
672.656	1	2
672.995	1	-7
673.334	1	-1
673.673	1	-4
674.011	1	12
674.350	1	4
674.689	1	-5
675.028	1	7
675.367	1	-1
675.705	1	15
676.044	1	14
676.383	1	5
676.722	1	17
677.060	1	-4
677.399	1	3
677.738	1	10
678.077	1	9
678.416	1	-4
678.754	1	11
679.093	1	2
679.432	1	7
679.771	1	19
680.109	1	2
680.448	1	8
680.787	1	-5
681.125	1	10
681.464	1	17
681.803	1	17
682.142	1	6
682.480	1	-1
682.819	1	12
683.158	1	7
683.496	1	8
683.835	1	6
684.174	1	10
684.512	1	7
684.851	1	2
685.190	1	5
685.529	1	9
685.867	1	3
686.206	1	7
686.545	1	10
686.883	1	5
687.222	1	0
687.561	1	16
687.899	1	5
688.238	1	5
688.577	1	14
688.746	1	2