File: Data/GaN_170K_550ms/GaN_sample D_spot 18_UVVIS_170 K_200um_550 ms 2x2mm1_164.txt
340.368	1	6
340.710	1	-12
341.052	1	6
341.394	1	3
341.737	1	-7
342.079	1	-8
342.421	1	5
342.763	1	7
343.105	1	5
343.447	1	-3
343.789	1	-2
344.131	1	2
344.473	1	2
344.815	1	14
345.157	1	6
345.499	1	-3
345.841	1	9
346.183	1	2
346.526	1	2
346.868	1	4
347.210	1	-1
347.552	1	12
347.894	1	0
348.236	1	-1
348.578	1	12
348.920	1	-6
349.262	1	4
349.604	1	14
349.946	1	8
350.288	1	2
350.630	1	9
350.972	1	-2
351.314	1	7
351.656	1	-5
351.998	1	9
352.340	1	3
352.682	1	1
353.024	1	6
353.366	1	0
353.708	1	9
354.050	1	-9
354.392	1	-2
354.734	1	10
355.076	1	4
355.418	1	0
355.760	1	3
356.102	1	14
356.444	1	13
356.785	1	4
357.127	1	4
357.469	1	-1
357.811	1	6
358.153	1	1
358.495	1	7
358.837	1	7
359.179	1	1
359.521	1	11
359.863	1	6
360.205	1	14
360.547	1	19
360.889	1	20
361.231	1	3
361.572	1	23
361.914	1	10
362.256	1	16
362.598	1	11
362.940	1	19
363.282	1	26
363.624	1	14
363.966	1	16
364.308	1	9
364.649	1	10
364.991	1	34
365.333	1	17
365.675	1	30
366.017	1	19
366.359	1	21
366.701	1	35
367.042	1	23
367.384	1	27
367.726	1	37
368.068	1	30
368.410	1	26
368.752	1	36
369.093	1	24
369.435	1	16
369.777	1	28
370.119	1	33
370.461	1	30
370.803	1	21
371.144	1	20
371.486	1	16
371.828	1	26
372.170	1	32
372.512	1	20
372.853	1	27
373.195	1	15
373.537	1	31
373.879	1	26
374.220	1	28
374.562	1	10
374.904	1	19
375.246	1	10
375.588	1	16
375.929	1	10
376.271	1	16
376.613	1	9
376.955	1	25
377.296	1	7
377.638	1	17
377.980	1	6
378.321	1	14
378.663	1	9
379.005	1	7
379.347	1	13
379.688	1	13
380.030	1	15
380.372	1	12
380.714	1	16
381.055	1	2
381.397	1	14
381.739	1	1
382.080	1	8
382.422	1	15
382.764	1	6
383.105	1	13
383.447	1	9
383.789	1	24
384.130	1	4
384.472	1	1
384.814	1	9
385.156	1	7
385.497	1	11
385.839	1	0
386.180	1	11
386.522	1	10
386.864	1	3
387.205	1	2
387.547	1	3
387.889	1	10
388.230	1	5
388.572	1	10
388.914	1	3
389.255	1	14
389.597	1	8
389.939	1	-1
390.280	1	5
390.622	1	0
390.963	1	9
391.305	1	1
391.647	1	5
391.988	1	12
392.330	1	6
392.671	1	2
393.013	1	-3
393.355	1	14
393.696	1	7
394.038	1	-4
394.379	1	-2
394.721	1	5
395.062	1	1
395.404	1	15
395.746	1	7
396.087	1	12
396.429	1	5
396.770	1	6
397.112	1	3
397.453	1	6
397.795	1	2
398.136	1	-3
398.478	1	-5
398.819	1	5
399.161	1	-9
399.503	1	6
399.844	1	-6
400.186	1	8
400.527	1	7
400.869	1	-3
401.210	1	5
401.552	1	4
401.893	1	9
402.235	1	14
402.576	1	-4
402.918	1	0
403.259	1	11
403.601	1	11
403.942	1	0
404.284	1	-14
404.625	1	3
404.967	1	1
405.308	1	5
405.649	1	6
405.991	1	5
406.332	1	-7
406.674	1	7
407.015	1	5
407.357	1	1
407.698	1	1
408.040	1	6
408.381	1	4
408.722	1	-6
409.064	1	1
409.405	1	7
409.747	1	0
410.088	1	7
410.430	1	4
410.771	1	8
411.112	1	-2
411.454	1	6
411.795	1	6
412.137	1	-8
412.478	1	2
412.819	1	-10
413.161	1	9
413.502	1	3
413.844	1	9
414.185	1	0
414.526	1	4
414.868	1	-1
415.209	1	-8
415.550	1	6
415.892	1	-2
416.233	1	11
416.575	1	4
416.916	1	3
417.257	1	6
417.599	1	3
417.940	1	4
418.281	1	-12
418.623	1	6
418.964	1	-10
419.305	1	0
419.647	1	5
419.988	1	4
420.329	1	-2
420.671	1	-6
421.012	1	-1
421.353	1	3
421.695	1	-8
422.036	1	1
422.377	1	8
422.718	1	15
423.060	1	-6
423.401	1	-6
423.742	1	-6
424.084	1	18
424.425	1	0
424.766	1	-2
425.107	1	0
425.449	1	9
425.790	1	2
426.131	1	7
426.472	1	-5
426.814	1	-11
427.155	1	9
427.496	1	3
427.837	1	-2
428.179	1	10
428.520	1	-3
428.861	1	7
429.202	1	1
429.544	1	-7
429.885	1	1
430.226	1	-8
430.567	1	8
430.909	1	1
431.250	1	14
431.591	1	7
431.932	1	-2
432.273	1	7
432.615	1	0
432.956	1	6
433.297	1	2
433.638	1	8
433.979	1	11
434.320	1	3
434.662	1	-10
435.003	1	0
435.344	1	6
435.685	1	-2
436.026	1	4
436.368	1	10
436.709	1	4
437.050	1	-9
437.391	1	2
437.732	1	9
438.073	1	-1
438.414	1	-7
438.756	1	-2
439.097	1	8
439.438	1	3
439.779	1	18
440.120	1	-1
440.461	1	14
440.802	1	17
441.143	1	-7
441.485	1	-9
441.826	1	4
442.167	1	5
442.508	1	3
442.849	1	0
443.190	1	-4
443.531	1	7
443.872	1	-2
444.213	1	-3
444.554	1	5
444.895	1	-16
445.237	1	-9
445.578	1	3
445.919	1	-4
446.260	1	11
446.601	1	0
446.942	1	0
447.283	1	13
447.624	1	-3
447.965	1	-6
448.306	1	0
448.647	1	-6
448.988	1	13
449.329	1	-7
449.670	1	-1
450.011	1	10
450.352	1	-1
450.693	1	0
451.034	1	1
451.375	1	2
451.716	1	-3
452.057	1	1
452.398	1	-2
452.739	1	11
453.080	1	1
453.421	1	1
453.762	1	-2
454.103	1	-5
454.444	1	-4
454.785	1	-3
455.126	1	8
455.467	1	-10
455.808	1	14
456.149	1	0
456.490	1	-4
456.831	1	-4
457.172	1	-1
457.513	1	14
457.854	1	11
458.195	1	-3
458.536	1	-1
458.877	1	-5
459.218	1	0
459.559	1	3
459.899	1	1
460.240	1	6
460.581	1	3
460.922	1	-8
461.263	1	-2
461.604	1	11
461.945	1	4
462.286	1	-1
462.627	1	6
462.968	1	3
463.309	1	3
463.649	1	1
463.990	1	5
464.331	1	3
464.672	1	-6
465.013	1	10
465.354	1	0
465.695	1	3
466.036	1	-10
466.376	1	4
466.717	1	-1
467.058	1	-1
467.399	1	10
467.740	1	6
468.081	1	-2
468.422	1	7
468.762	1	11
469.103	1	9
469.444	1	-1
469.785	1	1
470.126	1	7
470.467	1	9
470.807	1	6
471.148	1	-2
471.489	1	-3
471.830	1	0
472.171	1	3
472.511	1	0
472.852	1	2
473.193	1	6
473.534	1	10
473.875	1	-1
474.215	1	9
474.556	1	10
474.897	1	2
475.238	1	0
475.578	1	6
475.919	1	12
476.260	1	11
476.601	1	7
476.942	1	-5
477.282	1	6
477.623	1	14
477.964	1	3
478.305	1	4
478.645	1	4
478.986	1	2
479.327	1	-12
479.667	1	-7
480.008	1	10
480.349	1	2
480.690	1	8
481.030	1	2
481.371	1	-1
481.712	1	2
482.053	1	-10
482.393	1	-4
482.734	1	5
483.075	1	6
483.415	1	-6
483.756	1	6
484.097	1	-3
484.437	1	12
484.778	1	-4
485.119	1	6
485.459	1	-4
485.800	1	-8
486.141	1	7
486.481	1	12
486.822	1	5
487.163	1	5
487.503	1	8
487.844	1	4
488.185	1	-2
488.525	1	6
488.866	1	5
489.207	1	5
489.547	1	12
489.888	1	3
490.228	1	3
490.569	1	4
490.910	1	3
491.250	1	7
491.591	1	-7
491.932	1	6
492.272	1	7
492.613	1	5
492.953	1	0
493.294	1	1
493.635	1	0
493.975	1	1
494.316	1	1
494.656	1	8
494.997	1	5
495.337	1	15
495.678	1	6
496.019	1	-8
496.359	1	6
496.700	1	2
497.040	1	0
497.381	1	10
497.721	1	-10
498.062	1	4
498.403	1	8
498.743	1	2
499.084	1	0
499.424	1	10
499.765	1	-8
500.105	1	4
500.446	1	-2
500.786	1	3
501.127	1	1
501.467	1	-2
501.808	1	3
502.148	1	9
502.489	1	9
502.829	1	3
503.170	1	9
503.510	1	8
503.851	1	5
504.191	1	-5
504.532	1	-7
504.872	1	-3
505.213	1	5
505.553	1	1
505.894	1	16
506.234	1	-3
506.575	1	12
506.915	1	10
507.256	1	4
507.596	1	12
507.936	1	12
508.277	1	-4
508.617	1	12
508.958	1	2
509.298	1	10
509.639	1	15
509.979	1	4
510.319	1	1
510.660	1	-3
511.000	1	8
511.341	1	15
511.681	1	-1
512.022	1	14
512.362	1	6
512.702	1	0
513.043	1	8
513.383	1	5
513.724	1	2
514.064	1	11
514.404	1	4
514.745	1	2
515.085	1	5
515.425	1	7
515.766	1	4
516.106	1	7
516.447	1	7
516.787	1	3
517.127	1	11
517.468	1	13
517.808	1	17
518.148	1	4
518.489	1	12
518.829	1	0
519.169	1	0
519.510	1	14
519.850	1	-2
520.190	1	5
520.531	1	8
520.871	1	0
521.211	1	2
521.552	1	4
521.892	1	1
522.232	1	-6
522.573	1	10
522.913	1	13
523.253	1	16
523.593	1	4
523.934	1	5
524.274	1	9
524.614	1	12
524.955	1	-8
525.295	1	3
525.635	1	8
525.975	1	10
526.316	1	10
526.656	1	16
526.996	1	10
527.337	1	0
527.677	1	1
528.017	1	8
528.357	1	0
528.698	1	3
529.038	1	3
529.378	1	0
529.718	1	8
530.058	1	9
530.399	1	3
530.739	1	9
531.079	1	9
531.419	1	18
531.760	1	0
532.100	1	1
532.440	1	9
532.780	1	0
533.120	1	5
533.461	1	9
533.801	1	5
534.141	1	3
534.481	1	6
534.821	1	11
535.162	1	0
535.502	1	9
535.842	1	13
536.182	1	2
536.522	1	13
536.862	1	17
537.203	1	2
537.543	1	-1
537.883	1	8
538.223	1	10
538.563	1	11
538.903	1	8
539.243	1	-1
539.584	1	0
539.924	1	4
540.264	1	9
540.604	1	2
540.944	1	-1
541.284	1	15
541.624	1	-1
541.964	1	16
542.305	1	8
542.645	1	3
542.985	1	10
543.325	1	5
543.665	1	3
544.005	1	11
544.345	1	9
544.685	1	1
545.025	1	1
545.365	1	0
545.705	1	10
546.045	1	8
546.386	1	2
546.726	1	2
547.066	1	17
547.406	1	2
547.746	1	-5
548.086	1	3
548.426	1	10
548.766	1	8
549.106	1	6
549.446	1	3
549.786	1	4
550.126	1	4
550.466	1	1
550.806	1	2
551.146	1	10
551.486	1	7
551.826	1	4
552.166	1	3
552.506	1	7
552.846	1	-9
553.186	1	2
553.526	1	-8
553.866	1	-3
554.206	1	0
554.546	1	-5
554.886	1	0
555.226	1	-10
555.566	1	5
555.906	1	1
556.246	1	7
556.586	1	-1
556.926	1	6
557.266	1	4
557.606	1	4
557.946	1	7
558.286	1	4
558.626	1	12
558.966	1	5
559.306	1	10
559.646	1	6
559.986	1	1
560.325	1	2
560.665	1	10
561.005	1	0
561.345	1	3
561.685	1	3
562.025	1	-3
562.365	1	5
562.705	1	8
563.045	1	2
563.385	1	8
563.725	1	0
564.064	1	9
564.404	1	5
564.744	1	6
565.084	1	0
565.424	1	2
565.764	1	6
566.104	1	9
566.444	1	2
566.783	1	12
567.123	1	-1
567.463	1	-10
567.803	1	9
568.143	1	4
568.483	1	5
568.823	1	7
569.162	1	4
569.502	1	4
569.842	1	-4
570.182	1	2
570.522	1	0
570.862	1	3
571.201	1	8
571.541	1	3
571.881	1	-3
572.221	1	0
572.561	1	13
572.900	1	-6
573.240	1	14
573.580	1	-1
573.920	1	20
574.260	1	8
574.599	1	4
574.939	1	2
575.279	1	-1
575.619	1	12
575.959	1	-3
576.298	1	5
576.638	1	1
576.978	1	1
577.318	1	-2
577.657	1	-1
577.997	1	-1
578.337	1	4
578.677	1	12
579.016	1	8
579.356	1	-5
579.696	1	0
580.036	1	14
580.375	1	6
580.715	1	7
581.055	1	13
581.394	1	8
581.734	1	3
582.074	1	6
582.414	1	-7
582.753	1	5
583.093	1	3
583.433	1	12
583.772	1	2
584.112	1	7
584.452	1	3
584.791	1	2
585.131	1	12
585.471	1	3
585.811	1	-10
586.150	1	-1
586.490	1	9
586.830	1	-5
587.169	1	15
587.509	1	10
587.849	1	-4
588.188	1	4
588.528	1	3
588.867	1	0
589.207	1	4
589.547	1	7
589.886	1	0
590.226	1	4
590.566	1	-2
590.905	1	14
591.245	1	-4
591.585	1	4
591.924	1	-4
592.264	1	-7
592.603	1	0
592.943	1	4
593.283	1	8
593.622	1	3
593.962	1	2
594.301	1	7
594.641	1	2
594.981	1	12
595.320	1	-3
595.660	1	0
595.999	1	7
596.339	1	10
596.678	1	4
597.018	1	2
597.358	1	-5
597.697	1	2
598.037	1	-6
598.376	1	-11
598.716	1	0
599.055	1	-3
599.395	1	-1
599.734	1	11
600.074	1	-1
600.413	1	-4
600.753	1	14
601.092	1	-1
601.432	1	-3
601.771	1	10
602.111	1	-1
602.451	1	12
602.790	1	14
603.130	1	2
603.469	1	5
603.809	1	0
604.148	1	-5
604.487	1	8
604.827	1	-6
605.166	1	16
605.506	1	-5
605.845	1	2
606.185	1	8
606.524	1	2
606.864	1	1
607.203	1	13
607.543	1	6
607.882	1	-2
608.222	1	5
608.561	1	10
608.901	1	0
609.240	1	-3
609.579	1	6
609.919	1	2
610.258	1	12
610.598	1	2
610.937	1	6
611.277	1	-1
611.616	1	2
611.955	1	-6
612.295	1	2
612.634	1	-1
612.974	1	8
613.313	1	4
613.652	1	12
613.992	1	10
614.331	1	-4
614.671	1	17
615.010	1	1
615.349	1	4
615.689	1	13
616.028	1	8
616.368	1	-7
616.707	1	14
617.046	1	5
617.386	1	-3
617.725	1	6
618.064	1	-1
618.404	1	-1
618.743	1	0
619.082	1	9
619.422	1	-3
619.761	1	-1
620.100	1	2
620.440	1	3
620.779	1	1
621.118	1	-3
621.458	1	-3
621.797	1	0
622.136	1	5
622.476	1	-8
622.815	1	6
623.154	1	6
623.494	1	-4
623.833	1	6
624.172	1	9
624.511	1	8
624.851	1	2
625.190	1	0
625.529	1	2
625.869	1	7
626.208	1	6
626.547	1	-5
626.886	1	-3
627.226	1	3
627.565	1	11
627.904	1	0
628.243	1	10
628.583	1	-3
628.922	1	-2
629.261	1	0
629.600	1	3
629.940	1	10
630.279	1	-2
630.618	1	-5
630.957	1	-1
631.297	1	-5
631.636	1	16
631.975	1	3
632.314	1	7
632.653	1	1
632.993	1	0
633.332	1	3
633.671	1	10
634.010	1	1
634.349	1	2
634.689	1	11
635.028	1	11
635.367	1	-3
635.706	1	-1
636.045	1	0
636.384	1	-6
636.724	1	4
637.063	1	11
637.402	1	17
637.741	1	-3
638.080	1	4
638.419	1	-5
638.759	1	1
639.098	1	-6
639.437	1	-1
639.776	1	9
640.115	1	8
640.454	1	5
640.793	1	-4
641.132	1	7
641.472	1	-1
641.811	1	10
642.150	1	-1
642.489	1	-11
642.828	1	2
643.167	1	2
643.506	1	15
643.845	1	3
644.184	1	12
644.524	1	8
644.863	1	-5
645.202	1	11
645.541	1	-3
645.880	1	3
646.219	1	4
646.558	1	5
646.897	1	5
647.236	1	4
647.575	1	2
647.914	1	-2
648.253	1	0
648.592	1	-1
648.931	1	7
649.270	1	8
649.610	1	3
649.949	1	-1
650.288	1	8
650.627	1	-7
650.966	1	15
651.305	1	-7
651.644	1	13
651.983	1	10
652.322	1	7
652.661	1	9
653.000	1	-10
653.339	1	0
653.678	1	-1
654.017	1	15
654.356	1	5
654.695	1	13
655.034	1	3
655.373	1	3
655.712	1	-8
656.051	1	7
656.390	1	2
656.729	1	7
657.068	1	19
657.406	1	-3
657.745	1	11
658.084	1	-9
658.423	1	1
658.762	1	7
659.101	1	7
659.440	1	5
659.779	1	-1
660.118	1	-1
660.457	1	12
660.796	1	1
661.135	1	-7
661.474	1	5
661.813	1	0
662.152	1	7
662.491	1	-4
662.829	1	1
663.168	1	2
663.507	1	3
663.846	1	-2
664.185	1	6
664.524	1	11
664.863	1	-1
665.202	1	15
665.541	1	2
665.879	1	6
666.218	1	7
666.557	1	1
666.896	1	6
667.235	1	-6
667.574	1	-4
667.913	1	-3
668.251	1	0
668.590	1	-1
668.929	1	11
669.268	1	-4
669.607	1	1
669.946	1	5
670.285	1	7
670.623	1	9
670.962	1	-9
671.301	1	5
671.640	1	13
671.979	1	3
672.317	1	3
672.656	1	3
672.995	1	2
673.334	1	4
673.673	1	2
674.011	1	5
674.350	1	0
674.689	1	11
675.028	1	2
675.367	1	-7
675.705	1	8
676.044	1	10
676.383	1	-1
676.722	1	14
677.060	1	-3
677.399	1	-1
677.738	1	0
678.077	1	6
678.416	1	-7
678.754	1	3
679.093	1	0
679.432	1	3
679.771	1	9
680.109	1	-3
680.448	1	4
680.787	1	-2
681.125	1	9
681.464	1	2
681.803	1	8
682.142	1	-4
682.480	1	9
682.819	1	2
683.158	1	7
683.496	1	7
683.835	1	-2
684.174	1	-4
684.512	1	-3
684.851	1	-2
685.190	1	-7
685.529	1	14
685.867	1	2
686.206	1	7
686.545	1	11
686.883	1	8
687.222	1	1
687.561	1	1
687.899	1	-7
688.238	1	-5
688.577	1	13
688.746	1	-5