File: Data/GaN_170K_550ms/GaN_sample D_spot 18_UVVIS_170 K_200um_550 ms 2x2mm1_70.txt
340.368	1	-9
340.710	1	-7
341.052	1	7
341.394	1	-4
341.737	1	-1
342.079	1	7
342.421	1	6
342.763	1	7
343.105	1	18
343.447	1	-1
343.789	1	3
344.131	1	0
344.473	1	2
344.815	1	12
345.157	1	5
345.499	1	1
345.841	1	4
346.183	1	6
346.526	1	7
346.868	1	12
347.210	1	3
347.552	1	13
347.894	1	9
348.236	1	7
348.578	1	9
348.920	1	5
349.262	1	0
349.604	1	16
349.946	1	23
350.288	1	8
350.630	1	12
350.972	1	4
351.314	1	14
351.656	1	10
351.998	1	4
352.340	1	7
352.682	1	7
353.024	1	3
353.366	1	11
353.708	1	22
354.050	1	11
354.392	1	8
354.734	1	18
355.076	1	12
355.418	1	0
355.760	1	7
356.102	1	17
356.444	1	19
356.785	1	25
357.127	1	25
357.469	1	15
357.811	1	28
358.153	1	27
358.495	1	37
358.837	1	32
359.179	1	36
359.521	1	35
359.863	1	40
360.205	1	59
360.547	1	53
360.889	1	58
361.231	1	63
361.572	1	68
361.914	1	78
362.256	1	72
362.598	1	85
362.940	1	105
363.282	1	117
363.624	1	113
363.966	1	132
364.308	1	149
364.649	1	158
364.991	1	174
365.333	1	182
365.675	1	210
366.017	1	217
366.359	1	243
366.701	1	267
367.042	1	276
367.384	1	285
367.726	1	312
368.068	1	331
368.410	1	329
368.752	1	332
369.093	1	316
369.435	1	310
369.777	1	300
370.119	1	299
370.461	1	281
370.803	1	254
371.144	1	253
371.486	1	227
371.828	1	229
372.170	1	215
372.512	1	203
372.853	1	207
373.195	1	183
373.537	1	174
373.879	1	159
374.220	1	166
374.562	1	140
374.904	1	138
375.246	1	120
375.588	1	127
375.929	1	124
376.271	1	124
376.613	1	97
376.955	1	111
377.296	1	102
377.638	1	94
377.980	1	69
378.321	1	89
378.663	1	79
379.005	1	78
379.347	1	81
379.688	1	69
380.030	1	65
380.372	1	72
380.714	1	62
381.055	1	44
381.397	1	52
381.739	1	44
382.080	1	37
382.422	1	45
382.764	1	48
383.105	1	42
383.447	1	54
383.789	1	56
384.130	1	34
384.472	1	33
384.814	1	45
385.156	1	41
385.497	1	42
385.839	1	29
386.180	1	39
386.522	1	44
386.864	1	31
387.205	1	24
387.547	1	31
387.889	1	31
388.230	1	32
388.572	1	31
388.914	1	22
389.255	1	42
389.597	1	26
389.939	1	18
390.280	1	31
390.622	1	16
390.963	1	20
391.305	1	24
391.647	1	12
391.988	1	15
392.330	1	23
392.671	1	11
393.013	1	17
393.355	1	23
393.696	1	31
394.038	1	8
394.379	1	10
394.721	1	9
395.062	1	12
395.404	1	18
395.746	1	14
396.087	1	23
396.429	1	19
396.770	1	21
397.112	1	9
397.453	1	16
397.795	1	6
398.136	1	9
398.478	1	14
398.819	1	15
399.161	1	11
399.503	1	15
399.844	1	10
400.186	1	6
400.527	1	16
400.869	1	12
401.210	1	5
401.552	1	7
401.893	1	24
402.235	1	12
402.576	1	9
402.918	1	9
403.259	1	10
403.601	1	18
403.942	1	11
404.284	1	-2
404.625	1	6
404.967	1	15
405.308	1	11
405.649	1	14
405.991	1	18
406.332	1	4
406.674	1	14
407.015	1	17
407.357	1	11
407.698	1	13
408.040	1	5
408.381	1	9
408.722	1	-4
409.064	1	9
409.405	1	10
409.747	1	3
410.088	1	20
410.430	1	4
410.771	1	9
411.112	1	9
411.454	1	6
411.795	1	23
412.137	1	7
412.478	1	5
412.819	1	-3
413.161	1	10
413.502	1	7
413.844	1	15
414.185	1	3
414.526	1	11
414.868	1	-1
415.209	1	-5
415.550	1	14
415.892	1	8
416.233	1	17
416.575	1	6
416.916	1	-5
417.257	1	11
417.599	1	7
417.940	1	13
418.281	1	-5
418.623	1	2
418.964	1	-11
419.305	1	0
419.647	1	16
419.988	1	5
420.329	1	11
420.671	1	7
421.012	1	1
421.353	1	10
421.695	1	-6
422.036	1	12
422.377	1	12
422.718	1	10
423.060	1	1
423.401	1	0
423.742	1	-2
424.084	1	22
424.425	1	-4
424.766	1	-2
425.107	1	5
425.449	1	7
425.790	1	6
426.131	1	15
426.472	1	2
426.814	1	-3
427.155	1	20
427.496	1	2
427.837	1	7
428.179	1	9
428.520	1	-1
428.861	1	12
429.202	1	0
429.544	1	-2
429.885	1	5
430.226	1	6
430.567	1	8
430.909	1	8
431.250	1	20
431.591	1	2
431.932	1	-4
432.273	1	8
432.615	1	3
432.956	1	16
433.297	1	9
433.638	1	11
433.979	1	6
434.320	1	17
434.662	1	-12
435.003	1	12
435.344	1	10
435.685	1	11
436.026	1	0
436.368	1	10
436.709	1	6
437.050	1	-7
437.391	1	-10
437.732	1	6
438.073	1	7
438.414	1	4
438.756	1	-1
439.097	1	11
439.438	1	6
439.779	1	14
440.120	1	1
440.461	1	21
440.802	1	9
441.143	1	2
441.485	1	-2
441.826	1	10
442.167	1	4
442.508	1	8
442.849	1	3
443.190	1	5
443.531	1	5
443.872	1	-11
444.213	1	5
444.554	1	-5
444.895	1	-14
445.237	1	-4
445.578	1	5
445.919	1	11
446.260	1	4
446.601	1	-5
446.942	1	10
447.283	1	6
447.624	1	-4
447.965	1	1
448.306	1	2
448.647	1	0
448.988	1	11
449.329	1	2
449.670	1	-11
450.011	1	13
450.352	1	-3
450.693	1	-2
451.034	1	2
451.375	1	9
451.716	1	11
452.057	1	-5
452.398	1	6
452.739	1	13
453.080	1	1
453.421	1	3
453.762	1	4
454.103	1	-10
454.444	1	2
454.785	1	-3
455.126	1	16
455.467	1	-8
455.808	1	19
456.149	1	4
456.490	1	15
456.831	1	-1
457.172	1	6
457.513	1	13
457.854	1	17
458.195	1	7
458.536	1	-5
458.877	1	8
459.218	1	0
459.559	1	5
459.899	1	-3
460.240	1	9
460.581	1	5
460.922	1	9
461.263	1	6
461.604	1	12
461.945	1	6
462.286	1	1
462.627	1	5
462.968	1	15
463.309	1	12
463.649	1	6
463.990	1	3
464.331	1	3
464.672	1	7
465.013	1	13
465.354	1	-5
465.695	1	7
466.036	1	-2
466.376	1	4
466.717	1	7
467.058	1	4
467.399	1	17
467.740	1	7
468.081	1	12
468.422	1	11
468.762	1	17
469.103	1	7
469.444	1	13
469.785	1	-6
470.126	1	7
470.467	1	21
470.807	1	-5
471.148	1	4
471.489	1	8
471.830	1	6
472.171	1	14
472.511	1	5
472.852	1	11
473.193	1	11
473.534	1	13
473.875	1	3
474.215	1	7
474.556	1	13
474.897	1	9
475.238	1	7
475.578	1	6
475.919	1	15
476.260	1	11
476.601	1	9
476.942	1	5
477.282	1	16
477.623	1	9
477.964	1	5
478.305	1	6
478.645	1	6
478.986	1	-2
479.327	1	-8
479.667	1	5
480.008	1	10
480.349	1	16
480.690	1	9
481.030	1	14
481.371	1	6
481.712	1	8
482.053	1	5
482.393	1	11
482.734	1	16
483.075	1	4
483.415	1	11
483.756	1	23
484.097	1	5
484.437	1	10
484.778	1	4
485.119	1	11
485.459	1	19
485.800	1	0
486.141	1	14
486.481	1	4
486.822	1	13
487.163	1	12
487.503	1	20
487.844	1	14
488.185	1	13
488.525	1	14
488.866	1	16
489.207	1	22
489.547	1	22
489.888	1	19
490.228	1	9
490.569	1	13
490.910	1	15
491.250	1	15
491.591	1	19
491.932	1	18
492.272	1	19
492.613	1	11
492.953	1	11
493.294	1	15
493.635	1	13
493.975	1	21
494.316	1	18
494.656	1	16
494.997	1	22
495.337	1	29
495.678	1	16
496.019	1	9
496.359	1	18
496.700	1	31
497.040	1	17
497.381	1	28
497.721	1	13
498.062	1	23
498.403	1	23
498.743	1	22
499.084	1	14
499.424	1	20
499.765	1	8
500.105	1	27
500.446	1	25
500.786	1	17
501.127	1	37
501.467	1	17
501.808	1	26
502.148	1	35
502.489	1	19
502.829	1	19
503.170	1	45
503.510	1	33
503.851	1	29
504.191	1	21
504.532	1	26
504.872	1	26
505.213	1	22
505.553	1	27
505.894	1	39
506.234	1	23
506.575	1	34
506.915	1	42
507.256	1	22
507.596	1	36
507.936	1	41
508.277	1	27
508.617	1	46
508.958	1	32
509.298	1	30
509.639	1	43
509.979	1	38
510.319	1	27
510.660	1	41
511.000	1	40
511.341	1	41
511.681	1	29
512.022	1	39
512.362	1	30
512.702	1	43
513.043	1	42
513.383	1	45
513.724	1	37
514.064	1	31
514.404	1	38
514.745	1	37
515.085	1	44
515.425	1	46
515.766	1	46
516.106	1	38
516.447	1	37
516.787	1	48
517.127	1	42
517.468	1	36
517.808	1	45
518.148	1	43
518.489	1	43
518.829	1	41
519.169	1	40
519.510	1	47
519.850	1	33
520.190	1	45
520.531	1	46
520.871	1	41
521.211	1	46
521.552	1	43
521.892	1	42
522.232	1	29
522.573	1	51
522.913	1	41
523.253	1	47
523.593	1	42
523.934	1	45
524.274	1	46
524.614	1	41
524.955	1	41
525.295	1	41
525.635	1	54
525.975	1	36
526.316	1	54
526.656	1	44
526.996	1	46
527.337	1	49
527.677	1	35
528.017	1	59
528.357	1	41
528.698	1	26
529.038	1	45
529.378	1	42
529.718	1	55
530.058	1	50
530.399	1	45
530.739	1	49
531.079	1	42
531.419	1	47
531.760	1	43
532.100	1	44
532.440	1	51
532.780	1	40
533.120	1	51
533.461	1	41
533.801	1	50
534.141	1	47
534.481	1	49
534.821	1	47
535.162	1	46
535.502	1	48
535.842	1	43
536.182	1	38
536.522	1	52
536.862	1	57
537.203	1	41
537.543	1	45
537.883	1	42
538.223	1	34
538.563	1	37
538.903	1	44
539.243	1	39
539.584	1	37
539.924	1	37
540.264	1	45
540.604	1	36
540.944	1	23
541.284	1	38
541.624	1	33
541.964	1	39
542.305	1	37
542.645	1	36
542.985	1	44
543.325	1	42
543.665	1	44
544.005	1	47
544.345	1	42
544.685	1	44
545.025	1	38
545.365	1	43
545.705	1	58
546.045	1	39
546.386	1	34
546.726	1	32
547.066	1	53
547.406	1	37
547.746	1	39
548.086	1	36
548.426	1	45
548.766	1	43
549.106	1	50
549.446	1	28
549.786	1	34
550.126	1	38
550.466	1	48
550.806	1	45
551.146	1	42
551.486	1	39
551.826	1	48
552.166	1	35
552.506	1	44
552.846	1	41
553.186	1	45
553.526	1	26
553.866	1	35
554.206	1	40
554.546	1	23
554.886	1	42
555.226	1	29
555.566	1	36
555.906	1	26
556.246	1	34
556.586	1	32
556.926	1	33
557.266	1	45
557.606	1	38
557.946	1	36
558.286	1	33
558.626	1	35
558.966	1	36
559.306	1	36
559.646	1	16
559.986	1	36
560.325	1	29
560.665	1	25
561.005	1	30
561.345	1	30
561.685	1	24
562.025	1	26
562.365	1	41
562.705	1	33
563.045	1	41
563.385	1	27
563.725	1	17
564.064	1	25
564.404	1	26
564.744	1	30
565.084	1	20
565.424	1	25
565.764	1	28
566.104	1	38
566.444	1	41
566.783	1	25
567.123	1	21
567.463	1	26
567.803	1	28
568.143	1	15
568.483	1	23
568.823	1	27
569.162	1	29
569.502	1	21
569.842	1	10
570.182	1	12
570.522	1	26
570.862	1	26
571.201	1	22
571.541	1	13
571.881	1	12
572.221	1	27
572.561	1	32
572.900	1	16
573.240	1	32
573.580	1	12
573.920	1	28
574.260	1	25
574.599	1	10
574.939	1	17
575.279	1	11
575.619	1	32
575.959	1	17
576.298	1	15
576.638	1	22
576.978	1	18
577.318	1	19
577.657	1	17
577.997	1	18
578.337	1	18
578.677	1	22
579.016	1	14
579.356	1	21
579.696	1	14
580.036	1	13
580.375	1	16
580.715	1	23
581.055	1	23
581.394	1	20
581.734	1	24
582.074	1	23
582.414	1	4
582.753	1	13
583.093	1	17
583.433	1	20
583.772	1	15
584.112	1	20
584.452	1	18
584.791	1	12
585.131	1	27
585.471	1	21
585.811	1	3
586.150	1	14
586.490	1	15
586.830	1	7
587.169	1	21
587.509	1	13
587.849	1	10
588.188	1	5
588.528	1	10
588.867	1	16
589.207	1	13
589.547	1	18
589.886	1	7
590.226	1	14
590.566	1	13
590.905	1	24
591.245	1	14
591.585	1	14
591.924	1	8
592.264	1	7
592.603	1	14
592.943	1	7
593.283	1	15
593.622	1	4
593.962	1	11
594.301	1	19
594.641	1	11
594.981	1	14
595.320	1	10
595.660	1	15
595.999	1	15
596.339	1	16
596.678	1	6
597.018	1	13
597.358	1	1
597.697	1	14
598.037	1	14
598.376	1	6
598.716	1	8
599.055	1	5
599.395	1	4
599.734	1	24
600.074	1	12
600.413	1	13
600.753	1	18
601.092	1	14
601.432	1	5
601.771	1	24
602.111	1	8
602.451	1	16
602.790	1	23
603.130	1	4
603.469	1	16
603.809	1	8
604.148	1	11
604.487	1	6
604.827	1	-6
605.166	1	25
605.506	1	3
605.845	1	12
606.185	1	17
606.524	1	11
606.864	1	8
607.203	1	4
607.543	1	14
607.882	1	5
608.222	1	10
608.561	1	12
608.901	1	9
609.240	1	10
609.579	1	4
609.919	1	6
610.258	1	22
610.598	1	17
610.937	1	8
611.277	1	13
611.616	1	8
611.955	1	9
612.295	1	6
612.634	1	1
612.974	1	9
613.313	1	9
613.652	1	20
613.992	1	6
614.331	1	8
614.671	1	11
615.010	1	11
615.349	1	14
615.689	1	20
616.028	1	10
616.368	1	2
616.707	1	15
617.046	1	7
617.386	1	5
617.725	1	10
618.064	1	3
618.404	1	12
618.743	1	16
619.082	1	17
619.422	1	2
619.761	1	0
620.100	1	10
620.440	1	9
620.779	1	7
621.118	1	-2
621.458	1	7
621.797	1	3
622.136	1	13
622.476	1	-3
622.815	1	3
623.154	1	9
623.494	1	3
623.833	1	7
624.172	1	1
624.511	1	9
624.851	1	5
625.190	1	12
625.529	1	19
625.869	1	21
626.208	1	2
626.547	1	14
626.886	1	14
627.226	1	4
627.565	1	14
627.904	1	2
628.243	1	0
628.583	1	13
628.922	1	1
629.261	1	4
629.600	1	10
629.940	1	1
630.279	1	6
630.618	1	-5
630.957	1	12
631.297	1	2
631.636	1	16
631.975	1	-2
632.314	1	2
632.653	1	12
632.993	1	6
633.332	1	13
633.671	1	15
634.010	1	6
634.349	1	-2
634.689	1	10
635.028	1	8
635.367	1	1
635.706	1	10
636.045	1	9
636.384	1	-1
636.724	1	18
637.063	1	14
637.402	1	10
637.741	1	9
638.080	1	19
638.419	1	-3
638.759	1	14
639.098	1	9
639.437	1	-1
639.776	1	10
640.115	1	11
640.454	1	10
640.793	1	-2
641.132	1	12
641.472	1	0
641.811	1	13
642.150	1	6
642.489	1	7
642.828	1	6
643.167	1	1
643.506	1	4
643.845	1	8
644.184	1	14
644.524	1	8
644.863	1	1
645.202	1	20
645.541	1	7
645.880	1	12
646.219	1	5
646.558	1	7
646.897	1	6
647.236	1	8
647.575	1	5
647.914	1	5
648.253	1	4
648.592	1	8
648.931	1	14
649.270	1	12
649.610	1	13
649.949	1	3
650.288	1	7
650.627	1	0
650.966	1	18
651.305	1	-1
651.644	1	14
651.983	1	13
652.322	1	7
652.661	1	10
653.000	1	-6
653.339	1	6
653.678	1	6
654.017	1	12
654.356	1	4
654.695	1	17
655.034	1	7
655.373	1	16
655.712	1	-6
656.051	1	3
656.390	1	8
656.729	1	12
657.068	1	9
657.406	1	12
657.745	1	5
658.084	1	-1
658.423	1	9
658.762	1	1
659.101	1	7
659.440	1	8
659.779	1	7
660.118	1	4
660.457	1	9
660.796	1	5
661.135	1	-6
661.474	1	12
661.813	1	-5
662.152	1	11
662.491	1	-1
662.829	1	6
663.168	1	11
663.507	1	10
663.846	1	-2
664.185	1	16
664.524	1	8
664.863	1	0
665.202	1	20
665.541	1	0
665.879	1	7
666.218	1	17
666.557	1	7
666.896	1	5
667.235	1	6
667.574	1	6
667.913	1	-1
668.251	1	7
668.590	1	-3
668.929	1	14
669.268	1	-3
669.607	1	2
669.946	1	5
670.285	1	11
670.623	1	7
670.962	1	-3
671.301	1	6
671.640	1	9
671.979	1	11
672.317	1	16
672.656	1	11
672.995	1	-5
673.334	1	3
673.673	1	15
674.011	1	11
674.350	1	10
674.689	1	1
675.028	1	11
675.367	1	0
675.705	1	4
676.044	1	9
676.383	1	3
676.722	1	16
677.060	1	-1
677.399	1	10
677.738	1	10
678.077	1	18
678.416	1	4
678.754	1	8
679.093	1	1
679.432	1	1
679.771	1	9
680.109	1	4
680.448	1	14
680.787	1	10
681.125	1	6
681.464	1	14
681.803	1	10
682.142	1	-2
682.480	1	10
682.819	1	16
683.158	1	1
683.496	1	7
683.835	1	-1
684.174	1	9
684.512	1	4
684.851	1	3
685.190	1	5
685.529	1	15
685.867	1	12
686.206	1	13
686.545	1	14
686.883	1	5
687.222	1	5
687.561	1	10
687.899	1	0
688.238	1	2
688.577	1	26
688.746	1	0