File: Data/GaN_170K_550ms/GaN_sample D_spot 18_UVVIS_170 K_200um_550 ms 2x2mm1_38.txt
340.368	1	2
340.710	1	-4
341.052	1	8
341.394	1	-1
341.737	1	2
342.079	1	3
342.421	1	1
342.763	1	1
343.105	1	13
343.447	1	-2
343.789	1	6
344.131	1	-5
344.473	1	-2
344.815	1	15
345.157	1	8
345.499	1	-5
345.841	1	6
346.183	1	6
346.526	1	6
346.868	1	7
347.210	1	-7
347.552	1	11
347.894	1	-4
348.236	1	0
348.578	1	6
348.920	1	3
349.262	1	9
349.604	1	5
349.946	1	11
350.288	1	2
350.630	1	8
350.972	1	-6
351.314	1	11
351.656	1	-5
351.998	1	0
352.340	1	2
352.682	1	6
353.024	1	1
353.366	1	6
353.708	1	13
354.050	1	-5
354.392	1	2
354.734	1	4
355.076	1	-5
355.418	1	-5
355.760	1	3
356.102	1	7
356.444	1	-6
356.785	1	-8
357.127	1	5
357.469	1	-4
357.811	1	3
358.153	1	8
358.495	1	2
358.837	1	-6
359.179	1	-7
359.521	1	3
359.863	1	6
360.205	1	1
360.547	1	10
360.889	1	7
361.231	1	0
361.572	1	10
361.914	1	0
362.256	1	-3
362.598	1	8
362.940	1	10
363.282	1	5
363.624	1	-2
363.966	1	-1
364.308	1	10
364.649	1	-7
364.991	1	1
365.333	1	-5
365.675	1	14
366.017	1	0
366.359	1	1
366.701	1	0
367.042	1	-8
367.384	1	5
367.726	1	2
368.068	1	3
368.410	1	-1
368.752	1	-1
369.093	1	-3
369.435	1	-2
369.777	1	7
370.119	1	-3
370.461	1	12
370.803	1	-1
371.144	1	-3
371.486	1	-7
371.828	1	-2
372.170	1	3
372.512	1	2
372.853	1	9
373.195	1	3
373.537	1	14
373.879	1	4
374.220	1	11
374.562	1	3
374.904	1	-3
375.246	1	6
375.588	1	-1
375.929	1	2
376.271	1	5
376.613	1	-3
376.955	1	-2
377.296	1	8
377.638	1	7
377.980	1	-7
378.321	1	10
378.663	1	1
379.005	1	5
379.347	1	0
379.688	1	-1
380.030	1	-4
380.372	1	5
380.714	1	2
381.055	1	3
381.397	1	4
381.739	1	5
382.080	1	-3
382.422	1	-2
382.764	1	-3
383.105	1	0
383.447	1	4
383.789	1	19
384.130	1	-1
384.472	1	-9
384.814	1	5
385.156	1	0
385.497	1	4
385.839	1	-12
386.180	1	-2
386.522	1	7
386.864	1	2
387.205	1	-4
387.547	1	3
387.889	1	7
388.230	1	-4
388.572	1	-1
388.914	1	-6
389.255	1	3
389.597	1	-2
389.939	1	-3
390.280	1	0
390.622	1	0
390.963	1	9
391.305	1	1
391.647	1	-10
391.988	1	9
392.330	1	-5
392.671	1	-10
393.013	1	7
393.355	1	9
393.696	1	2
394.038	1	-1
394.379	1	-1
394.721	1	0
395.062	1	-6
395.404	1	6
395.746	1	3
396.087	1	-5
396.429	1	2
396.770	1	7
397.112	1	-1
397.453	1	3
397.795	1	1
398.136	1	5
398.478	1	-8
398.819	1	0
399.161	1	-3
399.503	1	-4
399.844	1	-3
400.186	1	-4
400.527	1	15
400.869	1	10
401.210	1	1
401.552	1	7
401.893	1	0
402.235	1	0
402.576	1	-1
402.918	1	10
403.259	1	-1
403.601	1	3
403.942	1	-3
404.284	1	-7
404.625	1	2
404.967	1	6
405.308	1	1
405.649	1	-2
405.991	1	5
406.332	1	-4
406.674	1	7
407.015	1	7
407.357	1	1
407.698	1	6
408.040	1	2
408.381	1	9
408.722	1	0
409.064	1	10
409.405	1	5
409.747	1	6
410.088	1	8
410.430	1	-5
410.771	1	8
411.112	1	10
411.454	1	7
411.795	1	5
412.137	1	-5
412.478	1	-2
412.819	1	-1
413.161	1	10
413.502	1	3
413.844	1	7
414.185	1	-5
414.526	1	6
414.868	1	-8
415.209	1	-18
415.550	1	0
415.892	1	2
416.233	1	7
416.575	1	-5
416.916	1	-6
417.257	1	1
417.599	1	-4
417.940	1	4
418.281	1	-3
418.623	1	3
418.964	1	-5
419.305	1	4
419.647	1	4
419.988	1	-1
420.329	1	3
420.671	1	0
421.012	1	0
421.353	1	-1
421.695	1	-9
422.036	1	0
422.377	1	-4
422.718	1	12
423.060	1	0
423.401	1	5
423.742	1	-1
424.084	1	9
424.425	1	-7
424.766	1	-8
425.107	1	0
425.449	1	6
425.790	1	4
426.131	1	1
426.472	1	3
426.814	1	-7
427.155	1	14
427.496	1	-1
427.837	1	7
428.179	1	3
428.520	1	2
428.861	1	-1
429.202	1	-3
429.544	1	-7
429.885	1	-4
430.226	1	1
430.567	1	8
430.909	1	0
431.250	1	6
431.591	1	2
431.932	1	-4
432.273	1	-2
432.615	1	-5
432.956	1	3
433.297	1	1
433.638	1	11
433.979	1	3
434.320	1	9
434.662	1	-16
435.003	1	3
435.344	1	-1
435.685	1	4
436.026	1	-1
436.368	1	4
436.709	1	-5
437.050	1	-2
437.391	1	-9
437.732	1	8
438.073	1	-1
438.414	1	-10
438.756	1	2
439.097	1	11
439.438	1	6
439.779	1	7
440.120	1	3
440.461	1	6
440.802	1	-1
441.143	1	-11
441.485	1	-9
441.826	1	3
442.167	1	-3
442.508	1	3
442.849	1	-3
443.190	1	-1
443.531	1	2
443.872	1	0
444.213	1	1
444.554	1	-4
444.895	1	-16
445.237	1	-7
445.578	1	7
445.919	1	7
446.260	1	3
446.601	1	-3
446.942	1	4
447.283	1	4
447.624	1	-5
447.965	1	8
448.306	1	1
448.647	1	4
448.988	1	8
449.329	1	4
449.670	1	0
450.011	1	4
450.352	1	-9
450.693	1	1
451.034	1	0
451.375	1	11
451.716	1	5
452.057	1	3
452.398	1	9
452.739	1	-9
453.080	1	1
453.421	1	4
453.762	1	-1
454.103	1	0
454.444	1	3
454.785	1	4
455.126	1	14
455.467	1	-2
455.808	1	15
456.149	1	0
456.490	1	1
456.831	1	-5
457.172	1	4
457.513	1	8
457.854	1	7
458.195	1	0
458.536	1	-8
458.877	1	4
459.218	1	-1
459.559	1	2
459.899	1	3
460.240	1	8
460.581	1	4
460.922	1	-2
461.263	1	3
461.604	1	6
461.945	1	3
462.286	1	-3
462.627	1	11
462.968	1	12
463.309	1	5
463.649	1	1
463.990	1	-1
464.331	1	2
464.672	1	-1
465.013	1	3
465.354	1	-10
465.695	1	5
466.036	1	-4
466.376	1	-1
466.717	1	1
467.058	1	2
467.399	1	13
467.740	1	0
468.081	1	-1
468.422	1	0
468.762	1	16
469.103	1	8
469.444	1	5
469.785	1	-5
470.126	1	-3
470.467	1	3
470.807	1	0
471.148	1	-3
471.489	1	5
471.830	1	1
472.171	1	8
472.511	1	8
472.852	1	5
473.193	1	7
473.534	1	5
473.875	1	-3
474.215	1	4
474.556	1	5
474.897	1	11
475.238	1	4
475.578	1	5
475.919	1	12
476.260	1	8
476.601	1	-3
476.942	1	-11
477.282	1	4
477.623	1	16
477.964	1	0
478.305	1	-4
478.645	1	2
478.986	1	-5
479.327	1	-4
479.667	1	-2
480.008	1	5
480.349	1	1
480.690	1	12
481.030	1	7
481.371	1	1
481.712	1	1
482.053	1	1
482.393	1	-7
482.734	1	11
483.075	1	1
483.415	1	3
483.756	1	3
484.097	1	-5
484.437	1	-4
484.778	1	-4
485.119	1	8
485.459	1	-2
485.800	1	-1
486.141	1	16
486.481	1	4
486.822	1	4
487.163	1	7
487.503	1	-1
487.844	1	4
488.185	1	0
488.525	1	2
488.866	1	14
489.207	1	8
489.547	1	3
489.888	1	9
490.228	1	-4
490.569	1	2
490.910	1	2
491.250	1	4
491.591	1	2
491.932	1	4
492.272	1	14
492.613	1	6
492.953	1	3
493.294	1	0
493.635	1	1
493.975	1	0
494.316	1	2
494.656	1	4
494.997	1	10
495.337	1	11
495.678	1	2
496.019	1	-4
496.359	1	6
496.700	1	12
497.040	1	4
497.381	1	0
497.721	1	-1
498.062	1	1
498.403	1	5
498.743	1	6
499.084	1	-1
499.424	1	-1
499.765	1	-12
500.105	1	-4
500.446	1	8
500.786	1	-6
501.127	1	8
501.467	1	-3
501.808	1	-7
502.148	1	13
502.489	1	-4
502.829	1	1
503.170	1	11
503.510	1	6
503.851	1	-2
504.191	1	-5
504.532	1	-3
504.872	1	5
505.213	1	-3
505.553	1	2
505.894	1	5
506.234	1	-4
506.575	1	-1
506.915	1	7
507.256	1	-8
507.596	1	5
507.936	1	17
508.277	1	-1
508.617	1	11
508.958	1	5
509.298	1	-1
509.639	1	20
509.979	1	5
510.319	1	-9
510.660	1	-9
511.000	1	6
511.341	1	9
511.681	1	-4
512.022	1	3
512.362	1	-4
512.702	1	-4
513.043	1	-9
513.383	1	9
513.724	1	-7
514.064	1	14
514.404	1	1
514.745	1	4
515.085	1	-1
515.425	1	4
515.766	1	-3
516.106	1	3
516.447	1	-9
516.787	1	2
517.127	1	3
517.468	1	12
517.808	1	8
518.148	1	0
518.489	1	4
518.829	1	-1
519.169	1	-2
519.510	1	11
519.850	1	6
520.190	1	4
520.531	1	12
520.871	1	6
521.211	1	4
521.552	1	8
521.892	1	-3
522.232	1	-7
522.573	1	-1
522.913	1	3
523.253	1	5
523.593	1	4
523.934	1	0
524.274	1	0
524.614	1	2
524.955	1	5
525.295	1	-3
525.635	1	15
525.975	1	-4
526.316	1	8
526.656	1	1
526.996	1	4
527.337	1	0
527.677	1	-5
528.017	1	5
528.357	1	-6
528.698	1	-17
529.038	1	-9
529.378	1	1
529.718	1	7
530.058	1	4
530.399	1	4
530.739	1	7
531.079	1	2
531.419	1	10
531.760	1	0
532.100	1	3
532.440	1	-5
532.780	1	-4
533.120	1	0
533.461	1	5
533.801	1	12
534.141	1	-2
534.481	1	9
534.821	1	3
535.162	1	6
535.502	1	6
535.842	1	1
536.182	1	5
536.522	1	12
536.862	1	5
537.203	1	11
537.543	1	-2
537.883	1	6
538.223	1	1
538.563	1	8
538.903	1	3
539.243	1	0
539.584	1	4
539.924	1	-4
540.264	1	8
540.604	1	4
540.944	1	-6
541.284	1	6
541.624	1	-3
541.964	1	5
542.305	1	0
542.645	1	-7
542.985	1	2
543.325	1	-4
543.665	1	3
544.005	1	11
544.345	1	1
544.685	1	-3
545.025	1	-5
545.365	1	2
545.705	1	5
546.045	1	2
546.386	1	-1
546.726	1	5
547.066	1	8
547.406	1	2
547.746	1	-14
548.086	1	-4
548.426	1	10
548.766	1	0
549.106	1	9
549.446	1	-1
549.786	1	-11
550.126	1	9
550.466	1	2
550.806	1	2
551.146	1	1
551.486	1	-6
551.826	1	5
552.166	1	-8
552.506	1	5
552.846	1	5
553.186	1	-1
553.526	1	-9
553.866	1	-5
554.206	1	11
554.546	1	-4
554.886	1	4
555.226	1	-10
555.566	1	9
555.906	1	-3
556.246	1	5
556.586	1	3
556.926	1	6
557.266	1	9
557.606	1	11
557.946	1	10
558.286	1	-4
558.626	1	18
558.966	1	11
559.306	1	11
559.646	1	0
559.986	1	3
560.325	1	-8
560.665	1	0
561.005	1	6
561.345	1	-8
561.685	1	0
562.025	1	-9
562.365	1	2
562.705	1	7
563.045	1	0
563.385	1	6
563.725	1	-1
564.064	1	-1
564.404	1	-7
564.744	1	0
565.084	1	-2
565.424	1	6
565.764	1	-3
566.104	1	1
566.444	1	3
566.783	1	8
567.123	1	5
567.463	1	-7
567.803	1	10
568.143	1	-1
568.483	1	-3
568.823	1	-3
569.162	1	8
569.502	1	-7
569.842	1	1
570.182	1	3
570.522	1	-2
570.862	1	5
571.201	1	12
571.541	1	-3
571.881	1	0
572.221	1	13
572.561	1	4
572.900	1	-7
573.240	1	3
573.580	1	-4
573.920	1	12
574.260	1	7
574.599	1	7
574.939	1	-1
575.279	1	8
575.619	1	3
575.959	1	-12
576.298	1	6
576.638	1	5
576.978	1	1
577.318	1	2
577.657	1	0
577.997	1	-5
578.337	1	7
578.677	1	4
579.016	1	5
579.356	1	-1
579.696	1	-5
580.036	1	-1
580.375	1	-3
580.715	1	5
581.055	1	11
581.394	1	2
581.734	1	9
582.074	1	-1
582.414	1	2
582.753	1	3
583.093	1	1
583.433	1	7
583.772	1	-1
584.112	1	2
584.452	1	0
584.791	1	5
585.131	1	13
585.471	1	7
585.811	1	-10
586.150	1	-8
586.490	1	0
586.830	1	-6
587.169	1	11
587.509	1	2
587.849	1	2
588.188	1	0
588.528	1	0
588.867	1	3
589.207	1	-1
589.547	1	3
589.886	1	-11
590.226	1	-3
590.566	1	-1
590.905	1	2
591.245	1	3
591.585	1	3
591.924	1	3
592.264	1	2
592.603	1	5
592.943	1	1
593.283	1	3
593.622	1	-8
593.962	1	8
594.301	1	7
594.641	1	-4
594.981	1	12
595.320	1	-8
595.660	1	7
595.999	1	8
596.339	1	2
596.678	1	-1
597.018	1	5
597.358	1	-1
597.697	1	4
598.037	1	3
598.376	1	-9
598.716	1	1
599.055	1	0
599.395	1	10
599.734	1	10
600.074	1	6
600.413	1	-1
600.753	1	8
601.092	1	0
601.432	1	-8
601.771	1	5
602.111	1	-1
602.451	1	1
602.790	1	9
603.130	1	-8
603.469	1	1
603.809	1	6
604.148	1	11
604.487	1	9
604.827	1	-6
605.166	1	7
605.506	1	2
605.845	1	2
606.185	1	5
606.524	1	-2
606.864	1	-1
607.203	1	-6
607.543	1	8
607.882	1	-2
608.222	1	5
608.561	1	6
608.901	1	4
609.240	1	-9
609.579	1	7
609.919	1	-6
610.258	1	7
610.598	1	5
610.937	1	11
611.277	1	4
611.616	1	0
611.955	1	-1
612.295	1	-1
612.634	1	-6
612.974	1	1
613.313	1	-2
613.652	1	12
613.992	1	-2
614.331	1	4
614.671	1	13
615.010	1	4
615.349	1	5
615.689	1	22
616.028	1	4
616.368	1	7
616.707	1	2
617.046	1	-9
617.386	1	10
617.725	1	-2
618.064	1	-3
618.404	1	1
618.743	1	1
619.082	1	3
619.422	1	-4
619.761	1	-3
620.100	1	1
620.440	1	4
620.779	1	-4
621.118	1	7
621.458	1	0
621.797	1	5
622.136	1	-1
622.476	1	-1
622.815	1	4
623.154	1	11
623.494	1	6
623.833	1	6
624.172	1	-5
624.511	1	3
624.851	1	1
625.190	1	9
625.529	1	11
625.869	1	13
626.208	1	3
626.547	1	-11
626.886	1	0
627.226	1	5
627.565	1	1
627.904	1	-3
628.243	1	-2
628.583	1	-4
628.922	1	-3
629.261	1	-1
629.600	1	-4
629.940	1	0
630.279	1	3
630.618	1	-3
630.957	1	5
631.297	1	1
631.636	1	11
631.975	1	-5
632.314	1	5
632.653	1	9
632.993	1	-2
633.332	1	0
633.671	1	10
634.010	1	2
634.349	1	6
634.689	1	4
635.028	1	4
635.367	1	-6
635.706	1	2
636.045	1	8
636.384	1	-10
636.724	1	14
637.063	1	6
637.402	1	12
637.741	1	-10
638.080	1	12
638.419	1	-6
638.759	1	9
639.098	1	-5
639.437	1	1
639.776	1	-6
640.115	1	4
640.454	1	-1
640.793	1	-4
641.132	1	1
641.472	1	4
641.811	1	18
642.150	1	2
642.489	1	3
642.828	1	-3
643.167	1	2
643.506	1	12
643.845	1	2
644.184	1	3
644.524	1	4
644.863	1	-3
645.202	1	3
645.541	1	14
645.880	1	3
646.219	1	-4
646.558	1	0
646.897	1	9
647.236	1	-2
647.575	1	-14
647.914	1	0
648.253	1	-3
648.592	1	5
648.931	1	9
649.270	1	-4
649.610	1	10
649.949	1	-3
650.288	1	2
650.627	1	-4
650.966	1	2
651.305	1	-5
651.644	1	0
651.983	1	10
652.322	1	1
652.661	1	2
653.000	1	3
653.339	1	-10
653.678	1	-3
654.017	1	4
654.356	1	1
654.695	1	11
655.034	1	1
655.373	1	3
655.712	1	-6
656.051	1	7
656.390	1	0
656.729	1	6
657.068	1	2
657.406	1	3
657.745	1	6
658.084	1	-15
658.423	1	6
658.762	1	-1
659.101	1	13
659.440	1	-1
659.779	1	5
660.118	1	-1
660.457	1	9
660.796	1	3
661.135	1	-8
661.474	1	10
661.813	1	5
662.152	1	0
662.491	1	-8
662.829	1	-3
663.168	1	6
663.507	1	1
663.846	1	-4
664.185	1	2
664.524	1	5
664.863	1	5
665.202	1	16
665.541	1	4
665.879	1	14
666.218	1	16
666.557	1	2
666.896	1	-2
667.235	1	-1
667.574	1	-14
667.913	1	-4
668.251	1	2
668.590	1	3
668.929	1	1
669.268	1	-10
669.607	1	3
669.946	1	7
670.285	1	9
670.623	1	1
670.962	1	-3
671.301	1	1
671.640	1	5
671.979	1	2
672.317	1	6
672.656	1	6
672.995	1	-4
673.334	1	-2
673.673	1	-1
674.011	1	-2
674.350	1	2
674.689	1	7
675.028	1	7
675.367	1	-1
675.705	1	13
676.044	1	9
676.383	1	-2
676.722	1	11
677.060	1	-10
677.399	1	4
677.738	1	-1
678.077	1	5
678.416	1	-7
678.754	1	10
679.093	1	2
679.432	1	-2
679.771	1	-9
680.109	1	-5
680.448	1	6
680.787	1	-6
681.125	1	7
681.464	1	7
681.803	1	7
682.142	1	7
682.480	1	-6
682.819	1	7
683.158	1	5
683.496	1	7
683.835	1	-3
684.174	1	1
684.512	1	7
684.851	1	-5
685.190	1	3
685.529	1	14
685.867	1	7
686.206	1	12
686.545	1	0
686.883	1	-10
687.222	1	-7
687.561	1	-1
687.899	1	-4
688.238	1	-2
688.577	1	9
688.746	1	-8