File: Data/GaN_170K_550ms/GaN_sample D_spot 18_UVVIS_170 K_200um_550 ms 2x2mm1_245.txt
340.368	1	8
340.710	1	-6
341.052	1	-1
341.394	1	0
341.737	1	-7
342.079	1	2
342.421	1	1
342.763	1	4
343.105	1	5
343.447	1	2
343.789	1	4
344.131	1	-2
344.473	1	-4
344.815	1	5
345.157	1	0
345.499	1	9
345.841	1	7
346.183	1	2
346.526	1	6
346.868	1	7
347.210	1	-5
347.552	1	3
347.894	1	2
348.236	1	-7
348.578	1	7
348.920	1	-10
349.262	1	1
349.604	1	6
349.946	1	15
350.288	1	-1
350.630	1	8
350.972	1	2
351.314	1	5
351.656	1	2
351.998	1	12
352.340	1	0
352.682	1	8
353.024	1	-6
353.366	1	4
353.708	1	14
354.050	1	-2
354.392	1	2
354.734	1	2
355.076	1	0
355.418	1	-4
355.760	1	-5
356.102	1	5
356.444	1	4
356.785	1	-2
357.127	1	5
357.469	1	-5
357.811	1	13
358.153	1	3
358.495	1	1
358.837	1	9
359.179	1	-8
359.521	1	7
359.863	1	7
360.205	1	3
360.547	1	19
360.889	1	6
361.231	1	5
361.572	1	16
361.914	1	3
362.256	1	3
362.598	1	6
362.940	1	17
363.282	1	16
363.624	1	14
363.966	1	5
364.308	1	8
364.649	1	-4
364.991	1	15
365.333	1	4
365.675	1	8
366.017	1	4
366.359	1	9
366.701	1	14
367.042	1	8
367.384	1	16
367.726	1	10
368.068	1	16
368.410	1	24
368.752	1	4
369.093	1	-3
369.435	1	7
369.777	1	17
370.119	1	11
370.461	1	18
370.803	1	-2
371.144	1	5
371.486	1	0
371.828	1	2
372.170	1	12
372.512	1	0
372.853	1	12
373.195	1	9
373.537	1	22
373.879	1	23
374.220	1	9
374.562	1	-2
374.904	1	1
375.246	1	3
375.588	1	2
375.929	1	-4
376.271	1	22
376.613	1	8
376.955	1	15
377.296	1	4
377.638	1	9
377.980	1	-6
378.321	1	7
378.663	1	16
379.005	1	-2
379.347	1	4
379.688	1	3
380.030	1	-1
380.372	1	12
380.714	1	14
381.055	1	3
381.397	1	0
381.739	1	-4
382.080	1	-12
382.422	1	7
382.764	1	2
383.105	1	7
383.447	1	-1
383.789	1	23
384.130	1	0
384.472	1	3
384.814	1	4
385.156	1	-5
385.497	1	3
385.839	1	-2
386.180	1	13
386.522	1	9
386.864	1	14
387.205	1	-6
387.547	1	7
387.889	1	3
388.230	1	1
388.572	1	1
388.914	1	5
389.255	1	8
389.597	1	2
389.939	1	4
390.280	1	3
390.622	1	0
390.963	1	1
391.305	1	0
391.647	1	-11
391.988	1	9
392.330	1	-3
392.671	1	-5
393.013	1	6
393.355	1	8
393.696	1	6
394.038	1	-2
394.379	1	-4
394.721	1	-3
395.062	1	4
395.404	1	5
395.746	1	6
396.087	1	4
396.429	1	8
396.770	1	14
397.112	1	0
397.453	1	2
397.795	1	7
398.136	1	-1
398.478	1	-4
398.819	1	1
399.161	1	-4
399.503	1	1
399.844	1	-11
400.186	1	2
400.527	1	16
400.869	1	-3
401.210	1	4
401.552	1	0
401.893	1	14
402.235	1	4
402.576	1	-4
402.918	1	-11
403.259	1	-2
403.601	1	13
403.942	1	13
404.284	1	-6
404.625	1	-2
404.967	1	0
405.308	1	5
405.649	1	3
405.991	1	5
406.332	1	-7
406.674	1	8
407.015	1	10
407.357	1	1
407.698	1	3
408.040	1	7
408.381	1	-3
408.722	1	-7
409.064	1	8
409.405	1	1
409.747	1	-1
410.088	1	3
410.430	1	-6
410.771	1	-4
411.112	1	6
411.454	1	9
411.795	1	1
412.137	1	-4
412.478	1	-6
412.819	1	-9
413.161	1	5
413.502	1	0
413.844	1	12
414.185	1	2
414.526	1	3
414.868	1	-7
415.209	1	-13
415.550	1	4
415.892	1	6
416.233	1	9
416.575	1	4
416.916	1	-7
417.257	1	6
417.599	1	-1
417.940	1	-2
418.281	1	-3
418.623	1	1
418.964	1	-12
419.305	1	3
419.647	1	8
419.988	1	8
420.329	1	-3
420.671	1	-5
421.012	1	3
421.353	1	6
421.695	1	-6
422.036	1	3
422.377	1	7
422.718	1	-2
423.060	1	6
423.401	1	-4
423.742	1	1
424.084	1	11
424.425	1	-6
424.766	1	4
425.107	1	-5
425.449	1	2
425.790	1	4
426.131	1	3
426.472	1	6
426.814	1	-7
427.155	1	11
427.496	1	2
427.837	1	10
428.179	1	2
428.520	1	1
428.861	1	-1
429.202	1	0
429.544	1	-1
429.885	1	-7
430.226	1	-3
430.567	1	-1
430.909	1	2
431.250	1	9
431.591	1	1
431.932	1	-5
432.273	1	4
432.615	1	2
432.956	1	5
433.297	1	-2
433.638	1	2
433.979	1	1
434.320	1	1
434.662	1	-4
435.003	1	-1
435.344	1	0
435.685	1	-5
436.026	1	1
436.368	1	9
436.709	1	7
437.050	1	-3
437.391	1	-3
437.732	1	-2
438.073	1	-4
438.414	1	4
438.756	1	-3
439.097	1	5
439.438	1	1
439.779	1	7
440.120	1	-2
440.461	1	9
440.802	1	10
441.143	1	-2
441.485	1	-8
441.826	1	9
442.167	1	1
442.508	1	-4
442.849	1	-5
443.190	1	-1
443.531	1	-3
443.872	1	0
444.213	1	1
444.554	1	-3
444.895	1	-15
445.237	1	-6
445.578	1	7
445.919	1	-2
446.260	1	6
446.601	1	-7
446.942	1	11
447.283	1	13
447.624	1	-4
447.965	1	3
448.306	1	-1
448.647	1	-1
448.988	1	15
449.329	1	3
449.670	1	-10
450.011	1	13
450.352	1	-2
450.693	1	-2
451.034	1	2
451.375	1	2
451.716	1	1
452.057	1	-1
452.398	1	4
452.739	1	6
453.080	1	0
453.421	1	3
453.762	1	-3
454.103	1	-3
454.444	1	-2
454.785	1	-1
455.126	1	13
455.467	1	-13
455.808	1	8
456.149	1	-1
456.490	1	0
456.831	1	-9
457.172	1	-5
457.513	1	13
457.854	1	0
458.195	1	5
458.536	1	2
458.877	1	4
459.218	1	0
459.559	1	6
459.899	1	2
460.240	1	-4
460.581	1	4
460.922	1	-6
461.263	1	2
461.604	1	9
461.945	1	3
462.286	1	-7
462.627	1	1
462.968	1	2
463.309	1	3
463.649	1	8
463.990	1	1
464.331	1	5
464.672	1	-3
465.013	1	12
465.354	1	-1
465.695	1	8
466.036	1	-7
466.376	1	11
466.717	1	5
467.058	1	6
467.399	1	11
467.740	1	0
468.081	1	0
468.422	1	5
468.762	1	6
469.103	1	9
469.444	1	2
469.785	1	-4
470.126	1	2
470.467	1	4
470.807	1	0
471.148	1	1
471.489	1	0
471.830	1	-2
472.171	1	8
472.511	1	-2
472.852	1	4
473.193	1	3
473.534	1	-1
473.875	1	-2
474.215	1	4
474.556	1	-5
474.897	1	-3
475.238	1	0
475.578	1	0
475.919	1	7
476.260	1	13
476.601	1	2
476.942	1	-7
477.282	1	7
477.623	1	18
477.964	1	1
478.305	1	-7
478.645	1	6
478.986	1	-1
479.327	1	-8
479.667	1	2
480.008	1	6
480.349	1	8
480.690	1	5
481.030	1	9
481.371	1	7
481.712	1	1
482.053	1	-5
482.393	1	0
482.734	1	3
483.075	1	4
483.415	1	16
483.756	1	3
484.097	1	-6
484.437	1	0
484.778	1	-11
485.119	1	-2
485.459	1	-1
485.800	1	-9
486.141	1	3
486.481	1	-2
486.822	1	-2
487.163	1	4
487.503	1	0
487.844	1	4
488.185	1	0
488.525	1	0
488.866	1	6
489.207	1	2
489.547	1	3
489.888	1	7
490.228	1	-6
490.569	1	7
490.910	1	8
491.250	1	3
491.591	1	8
491.932	1	0
492.272	1	2
492.613	1	3
492.953	1	-2
493.294	1	-8
493.635	1	-3
493.975	1	7
494.316	1	2
494.656	1	-4
494.997	1	-5
495.337	1	8
495.678	1	0
496.019	1	1
496.359	1	8
496.700	1	-1
497.040	1	2
497.381	1	7
497.721	1	-4
498.062	1	0
498.403	1	11
498.743	1	4
499.084	1	10
499.424	1	3
499.765	1	-13
500.105	1	-7
500.446	1	3
500.786	1	-1
501.127	1	7
501.467	1	6
501.808	1	2
502.148	1	7
502.489	1	2
502.829	1	1
503.170	1	7
503.510	1	3
503.851	1	-7
504.191	1	-5
504.532	1	-3
504.872	1	0
505.213	1	0
505.553	1	-2
505.894	1	15
506.234	1	-1
506.575	1	10
506.915	1	-3
507.256	1	-8
507.596	1	-7
507.936	1	10
508.277	1	-7
508.617	1	2
508.958	1	6
509.298	1	4
509.639	1	8
509.979	1	8
510.319	1	-4
510.660	1	1
511.000	1	4
511.341	1	4
511.681	1	-3
512.022	1	-2
512.362	1	4
512.702	1	-10
513.043	1	6
513.383	1	7
513.724	1	-2
514.064	1	2
514.404	1	-13
514.745	1	-1
515.085	1	0
515.425	1	3
515.766	1	3
516.106	1	2
516.447	1	11
516.787	1	5
517.127	1	13
517.468	1	5
517.808	1	14
518.148	1	9
518.489	1	7
518.829	1	-5
519.169	1	-3
519.510	1	8
519.850	1	3
520.190	1	-2
520.531	1	2
520.871	1	-1
521.211	1	-3
521.552	1	6
521.892	1	6
522.232	1	-5
522.573	1	11
522.913	1	4
523.253	1	16
523.593	1	5
523.934	1	2
524.274	1	-4
524.614	1	5
524.955	1	6
525.295	1	5
525.635	1	6
525.975	1	0
526.316	1	13
526.656	1	9
526.996	1	12
527.337	1	-8
527.677	1	-1
528.017	1	8
528.357	1	0
528.698	1	-12
529.038	1	2
529.378	1	3
529.718	1	14
530.058	1	15
530.399	1	0
530.739	1	7
531.079	1	15
531.419	1	3
531.760	1	-1
532.100	1	-3
532.440	1	13
532.780	1	-5
533.120	1	5
533.461	1	-4
533.801	1	4
534.141	1	4
534.481	1	13
534.821	1	11
535.162	1	-1
535.502	1	4
535.842	1	12
536.182	1	5
536.522	1	11
536.862	1	8
537.203	1	-4
537.543	1	2
537.883	1	5
538.223	1	-3
538.563	1	-7
538.903	1	-1
539.243	1	-2
539.584	1	8
539.924	1	-6
540.264	1	7
540.604	1	2
540.944	1	-5
541.284	1	9
541.624	1	-3
541.964	1	-2
542.305	1	5
542.645	1	-2
542.985	1	9
543.325	1	9
543.665	1	2
544.005	1	9
544.345	1	-4
544.685	1	7
545.025	1	0
545.365	1	3
545.705	1	6
546.045	1	-4
546.386	1	-2
546.726	1	-12
547.066	1	16
547.406	1	1
547.746	1	2
548.086	1	2
548.426	1	8
548.766	1	3
549.106	1	14
549.446	1	11
549.786	1	7
550.126	1	-9
550.466	1	0
550.806	1	1
551.146	1	1
551.486	1	-1
551.826	1	-3
552.166	1	-2
552.506	1	2
552.846	1	9
553.186	1	0
553.526	1	-5
553.866	1	-11
554.206	1	4
554.546	1	1
554.886	1	-4
555.226	1	-15
555.566	1	0
555.906	1	-5
556.246	1	4
556.586	1	0
556.926	1	4
557.266	1	3
557.606	1	1
557.946	1	9
558.286	1	6
558.626	1	14
558.966	1	5
559.306	1	13
559.646	1	-5
559.986	1	9
560.325	1	3
560.665	1	1
561.005	1	1
561.345	1	-6
561.685	1	-2
562.025	1	-7
562.365	1	1
562.705	1	11
563.045	1	-1
563.385	1	17
563.725	1	1
564.064	1	-7
564.404	1	-7
564.744	1	12
565.084	1	11
565.424	1	3
565.764	1	4
566.104	1	6
566.444	1	11
566.783	1	1
567.123	1	4
567.463	1	7
567.803	1	1
568.143	1	5
568.483	1	5
568.823	1	3
569.162	1	-1
569.502	1	3
569.842	1	-7
570.182	1	8
570.522	1	5
570.862	1	2
571.201	1	-6
571.541	1	-1
571.881	1	3
572.221	1	6
572.561	1	1
572.900	1	-8
573.240	1	-3
573.580	1	-3
573.920	1	7
574.260	1	5
574.599	1	-3
574.939	1	-6
575.279	1	6
575.619	1	6
575.959	1	-6
576.298	1	4
576.638	1	0
576.978	1	-4
577.318	1	-1
577.657	1	5
577.997	1	0
578.337	1	3
578.677	1	1
579.016	1	4
579.356	1	-4
579.696	1	4
580.036	1	9
580.375	1	-6
580.715	1	2
581.055	1	6
581.394	1	2
581.734	1	6
582.074	1	1
582.414	1	-8
582.753	1	3
583.093	1	14
583.433	1	7
583.772	1	-1
584.112	1	0
584.452	1	-6
584.791	1	1
585.131	1	15
585.471	1	12
585.811	1	-6
586.150	1	2
586.490	1	8
586.830	1	-5
587.169	1	10
587.509	1	1
587.849	1	2
588.188	1	9
588.528	1	1
588.867	1	-2
589.207	1	-6
589.547	1	3
589.886	1	-8
590.226	1	1
590.566	1	-2
590.905	1	5
591.245	1	5
591.585	1	7
591.924	1	2
592.264	1	-8
592.603	1	2
592.943	1	10
593.283	1	0
593.622	1	-6
593.962	1	-2
594.301	1	-2
594.641	1	6
594.981	1	16
595.320	1	4
595.660	1	8
595.999	1	7
596.339	1	16
596.678	1	-3
597.018	1	2
597.358	1	-7
597.697	1	4
598.037	1	5
598.376	1	-11
598.716	1	3
599.055	1	-4
599.395	1	4
599.734	1	8
600.074	1	-7
600.413	1	0
600.753	1	6
601.092	1	1
601.432	1	-3
601.771	1	7
602.111	1	-12
602.451	1	3
602.790	1	12
603.130	1	-6
603.469	1	1
603.809	1	8
604.148	1	1
604.487	1	2
604.827	1	-7
605.166	1	3
605.506	1	-7
605.845	1	13
606.185	1	5
606.524	1	4
606.864	1	0
607.203	1	2
607.543	1	6
607.882	1	4
608.222	1	-2
608.561	1	-2
608.901	1	9
609.240	1	-5
609.579	1	3
609.919	1	-1
610.258	1	5
610.598	1	10
610.937	1	7
611.277	1	0
611.616	1	3
611.955	1	7
612.295	1	0
612.634	1	8
612.974	1	1
613.313	1	-5
613.652	1	13
613.992	1	-2
614.331	1	-11
614.671	1	8
615.010	1	4
615.349	1	8
615.689	1	13
616.028	1	1
616.368	1	5
616.707	1	13
617.046	1	-7
617.386	1	-2
617.725	1	2
618.064	1	-3
618.404	1	5
618.743	1	7
619.082	1	13
619.422	1	-8
619.761	1	-5
620.100	1	1
620.440	1	1
620.779	1	0
621.118	1	-12
621.458	1	4
621.797	1	10
622.136	1	2
622.476	1	-2
622.815	1	-2
623.154	1	6
623.494	1	2
623.833	1	7
624.172	1	0
624.511	1	5
624.851	1	-5
625.190	1	10
625.529	1	12
625.869	1	5
626.208	1	5
626.547	1	-3
626.886	1	5
627.226	1	6
627.565	1	9
627.904	1	7
628.243	1	1
628.583	1	0
628.922	1	-9
629.261	1	-4
629.600	1	-1
629.940	1	-4
630.279	1	-2
630.618	1	-1
630.957	1	8
631.297	1	2
631.636	1	5
631.975	1	4
632.314	1	-2
632.653	1	12
632.993	1	-1
633.332	1	2
633.671	1	-2
634.010	1	5
634.349	1	-13
634.689	1	6
635.028	1	-6
635.367	1	-6
635.706	1	-3
636.045	1	2
636.384	1	-5
636.724	1	5
637.063	1	1
637.402	1	8
637.741	1	5
638.080	1	8
638.419	1	-6
638.759	1	3
639.098	1	-3
639.437	1	-5
639.776	1	-1
640.115	1	2
640.454	1	-1
640.793	1	-3
641.132	1	-1
641.472	1	-11
641.811	1	7
642.150	1	5
642.489	1	5
642.828	1	0
643.167	1	-4
643.506	1	9
643.845	1	5
644.184	1	12
644.524	1	6
644.863	1	-1
645.202	1	10
645.541	1	8
645.880	1	9
646.219	1	11
646.558	1	6
646.897	1	11
647.236	1	6
647.575	1	-4
647.914	1	2
648.253	1	-1
648.592	1	3
648.931	1	-1
649.270	1	-5
649.610	1	4
649.949	1	-10
650.288	1	-6
650.627	1	-5
650.966	1	8
651.305	1	-5
651.644	1	6
651.983	1	1
652.322	1	4
652.661	1	-3
653.000	1	1
653.339	1	2
653.678	1	3
654.017	1	0
654.356	1	-2
654.695	1	-2
655.034	1	2
655.373	1	1
655.712	1	-2
656.051	1	-3
656.390	1	-4
656.729	1	-4
657.068	1	12
657.406	1	4
657.745	1	8
658.084	1	-9
658.423	1	1
658.762	1	3
659.101	1	6
659.440	1	-7
659.779	1	4
660.118	1	9
660.457	1	6
660.796	1	-5
661.135	1	-14
661.474	1	9
661.813	1	2
662.152	1	10
662.491	1	-4
662.829	1	0
663.168	1	11
663.507	1	7
663.846	1	3
664.185	1	8
664.524	1	10
664.863	1	1
665.202	1	10
665.541	1	6
665.879	1	11
666.218	1	8
666.557	1	-6
666.896	1	-5
667.235	1	1
667.574	1	-6
667.913	1	-3
668.251	1	-8
668.590	1	0
668.929	1	1
669.268	1	0
669.607	1	-3
669.946	1	4
670.285	1	4
670.623	1	4
670.962	1	1
671.301	1	6
671.640	1	2
671.979	1	2
672.317	1	3
672.656	1	1
672.995	1	2
673.334	1	-3
673.673	1	-1
674.011	1	-1
674.350	1	0
674.689	1	8
675.028	1	6
675.367	1	1
675.705	1	2
676.044	1	15
676.383	1	-1
676.722	1	10
677.060	1	-2
677.399	1	16
677.738	1	-9
678.077	1	21
678.416	1	-2
678.754	1	7
679.093	1	0
679.432	1	1
679.771	1	1
680.109	1	-1
680.448	1	8
680.787	1	-11
681.125	1	6
681.464	1	4
681.803	1	4
682.142	1	-5
682.480	1	4
682.819	1	4
683.158	1	-3
683.496	1	3
683.835	1	-2
684.174	1	-4
684.512	1	-1
684.851	1	-2
685.190	1	3
685.529	1	13
685.867	1	3
686.206	1	-1
686.545	1	4
686.883	1	-7
687.222	1	5
687.561	1	-3
687.899	1	-4
688.238	1	-11
688.577	1	12
688.746	1	-7