File: Data/GaN_170K_550ms/GaN_sample D_spot 18_UVVIS_170 K_200um_550 ms 2x2mm1_213.txt
340.368	1	1
340.710	1	-17
341.052	1	0
341.394	1	-4
341.737	1	-5
342.079	1	1
342.421	1	5
342.763	1	4
343.105	1	1
343.447	1	-13
343.789	1	4
344.131	1	2
344.473	1	-1
344.815	1	7
345.157	1	2
345.499	1	3
345.841	1	2
346.183	1	4
346.526	1	1
346.868	1	7
347.210	1	-8
347.552	1	6
347.894	1	1
348.236	1	3
348.578	1	8
348.920	1	1
349.262	1	1
349.604	1	16
349.946	1	1
350.288	1	0
350.630	1	7
350.972	1	-7
351.314	1	8
351.656	1	1
351.998	1	11
352.340	1	1
352.682	1	4
353.024	1	-1
353.366	1	2
353.708	1	6
354.050	1	-2
354.392	1	13
354.734	1	2
355.076	1	7
355.418	1	8
355.760	1	-1
356.102	1	6
356.444	1	-4
356.785	1	-6
357.127	1	-1
357.469	1	2
357.811	1	10
358.153	1	5
358.495	1	8
358.837	1	9
359.179	1	0
359.521	1	7
359.863	1	8
360.205	1	7
360.547	1	7
360.889	1	11
361.231	1	12
361.572	1	12
361.914	1	-9
362.256	1	11
362.598	1	10
362.940	1	17
363.282	1	8
363.624	1	9
363.966	1	8
364.308	1	12
364.649	1	13
364.991	1	21
365.333	1	10
365.675	1	16
366.017	1	7
366.359	1	12
366.701	1	15
367.042	1	9
367.384	1	23
367.726	1	28
368.068	1	21
368.410	1	23
368.752	1	21
369.093	1	12
369.435	1	12
369.777	1	18
370.119	1	13
370.461	1	18
370.803	1	8
371.144	1	15
371.486	1	9
371.828	1	14
372.170	1	18
372.512	1	15
372.853	1	20
373.195	1	13
373.537	1	21
373.879	1	17
374.220	1	20
374.562	1	6
374.904	1	2
375.246	1	5
375.588	1	11
375.929	1	6
376.271	1	8
376.613	1	5
376.955	1	19
377.296	1	3
377.638	1	11
377.980	1	-5
378.321	1	7
378.663	1	5
379.005	1	7
379.347	1	6
379.688	1	4
380.030	1	6
380.372	1	11
380.714	1	13
381.055	1	7
381.397	1	15
381.739	1	2
382.080	1	2
382.422	1	7
382.764	1	3
383.105	1	11
383.447	1	9
383.789	1	11
384.130	1	-3
384.472	1	-6
384.814	1	6
385.156	1	-3
385.497	1	13
385.839	1	-7
386.180	1	11
386.522	1	12
386.864	1	13
387.205	1	1
387.547	1	4
387.889	1	6
388.230	1	2
388.572	1	3
388.914	1	-3
389.255	1	8
389.597	1	13
389.939	1	-7
390.280	1	2
390.622	1	-1
390.963	1	0
391.305	1	-3
391.647	1	-12
391.988	1	8
392.330	1	3
392.671	1	-3
393.013	1	-9
393.355	1	5
393.696	1	5
394.038	1	-1
394.379	1	-8
394.721	1	1
395.062	1	-8
395.404	1	16
395.746	1	11
396.087	1	3
396.429	1	4
396.770	1	3
397.112	1	-14
397.453	1	1
397.795	1	7
398.136	1	0
398.478	1	5
398.819	1	-1
399.161	1	1
399.503	1	9
399.844	1	2
400.186	1	6
400.527	1	4
400.869	1	3
401.210	1	5
401.552	1	1
401.893	1	10
402.235	1	4
402.576	1	-1
402.918	1	-7
403.259	1	7
403.601	1	8
403.942	1	1
404.284	1	-4
404.625	1	-7
404.967	1	1
405.308	1	2
405.649	1	-3
405.991	1	3
406.332	1	-12
406.674	1	9
407.015	1	7
407.357	1	2
407.698	1	-1
408.040	1	6
408.381	1	3
408.722	1	-5
409.064	1	3
409.405	1	4
409.747	1	2
410.088	1	6
410.430	1	-3
410.771	1	3
411.112	1	-3
411.454	1	12
411.795	1	6
412.137	1	-9
412.478	1	-6
412.819	1	-4
413.161	1	3
413.502	1	1
413.844	1	6
414.185	1	-1
414.526	1	3
414.868	1	-2
415.209	1	-14
415.550	1	8
415.892	1	4
416.233	1	6
416.575	1	-1
416.916	1	1
417.257	1	6
417.599	1	-1
417.940	1	2
418.281	1	-6
418.623	1	0
418.964	1	-6
419.305	1	7
419.647	1	9
419.988	1	-1
420.329	1	6
420.671	1	-8
421.012	1	1
421.353	1	3
421.695	1	-7
422.036	1	9
422.377	1	3
422.718	1	12
423.060	1	-4
423.401	1	-6
423.742	1	-2
424.084	1	12
424.425	1	-7
424.766	1	-2
425.107	1	2
425.449	1	-8
425.790	1	-4
426.131	1	13
426.472	1	-1
426.814	1	-2
427.155	1	7
427.496	1	1
427.837	1	9
428.179	1	-1
428.520	1	-3
428.861	1	3
429.202	1	-5
429.544	1	2
429.885	1	-1
430.226	1	-4
430.567	1	9
430.909	1	-6
431.250	1	9
431.591	1	-1
431.932	1	-8
432.273	1	3
432.615	1	-2
432.956	1	2
433.297	1	0
433.638	1	13
433.979	1	12
434.320	1	8
434.662	1	-2
435.003	1	10
435.344	1	-4
435.685	1	7
436.026	1	2
436.368	1	16
436.709	1	-10
437.050	1	-5
437.391	1	-3
437.732	1	-10
438.073	1	-6
438.414	1	-8
438.756	1	-7
439.097	1	-4
439.438	1	7
439.779	1	1
440.120	1	9
440.461	1	13
440.802	1	9
441.143	1	0
441.485	1	-10
441.826	1	7
442.167	1	5
442.508	1	-1
442.849	1	-1
443.190	1	1
443.531	1	-2
443.872	1	-12
444.213	1	-2
444.554	1	-1
444.895	1	-16
445.237	1	-12
445.578	1	11
445.919	1	1
446.260	1	3
446.601	1	-7
446.942	1	5
447.283	1	9
447.624	1	6
447.965	1	0
448.306	1	-4
448.647	1	-6
448.988	1	9
449.329	1	3
449.670	1	-6
450.011	1	1
450.352	1	-7
450.693	1	-4
451.034	1	-6
451.375	1	12
451.716	1	2
452.057	1	1
452.398	1	3
452.739	1	7
453.080	1	-7
453.421	1	1
453.762	1	-1
454.103	1	0
454.444	1	-9
454.785	1	0
455.126	1	11
455.467	1	-13
455.808	1	7
456.149	1	0
456.490	1	6
456.831	1	-4
457.172	1	-6
457.513	1	6
457.854	1	4
458.195	1	1
458.536	1	-11
458.877	1	-2
459.218	1	2
459.559	1	-15
459.899	1	0
460.240	1	-1
460.581	1	11
460.922	1	6
461.263	1	6
461.604	1	5
461.945	1	-1
462.286	1	-8
462.627	1	3
462.968	1	4
463.309	1	-1
463.649	1	-1
463.990	1	-3
464.331	1	-2
464.672	1	-10
465.013	1	6
465.354	1	-5
465.695	1	8
466.036	1	-6
466.376	1	9
466.717	1	0
467.058	1	2
467.399	1	7
467.740	1	6
468.081	1	0
468.422	1	5
468.762	1	21
469.103	1	3
469.444	1	2
469.785	1	-7
470.126	1	-2
470.467	1	-2
470.807	1	-5
471.148	1	-6
471.489	1	5
471.830	1	2
472.171	1	5
472.511	1	2
472.852	1	7
473.193	1	9
473.534	1	5
473.875	1	2
474.215	1	2
474.556	1	9
474.897	1	4
475.238	1	-8
475.578	1	3
475.919	1	4
476.260	1	10
476.601	1	7
476.942	1	-2
477.282	1	11
477.623	1	18
477.964	1	-2
478.305	1	-2
478.645	1	8
478.986	1	-3
479.327	1	-5
479.667	1	-10
480.008	1	8
480.349	1	11
480.690	1	3
481.030	1	8
481.371	1	-2
481.712	1	-1
482.053	1	-3
482.393	1	-9
482.734	1	1
483.075	1	8
483.415	1	4
483.756	1	8
484.097	1	-14
484.437	1	0
484.778	1	0
485.119	1	4
485.459	1	-2
485.800	1	-1
486.141	1	17
486.481	1	-2
486.822	1	9
487.163	1	7
487.503	1	13
487.844	1	6
488.185	1	-2
488.525	1	9
488.866	1	1
489.207	1	8
489.547	1	7
489.888	1	1
490.228	1	-6
490.569	1	4
490.910	1	3
491.250	1	2
491.591	1	-8
491.932	1	4
492.272	1	10
492.613	1	2
492.953	1	1
493.294	1	2
493.635	1	-5
493.975	1	6
494.316	1	-3
494.656	1	-1
494.997	1	2
495.337	1	8
495.678	1	3
496.019	1	-9
496.359	1	-2
496.700	1	8
497.040	1	-2
497.381	1	9
497.721	1	-2
498.062	1	1
498.403	1	-1
498.743	1	9
499.084	1	2
499.424	1	6
499.765	1	-13
500.105	1	-2
500.446	1	3
500.786	1	5
501.127	1	0
501.467	1	0
501.808	1	-4
502.148	1	13
502.489	1	5
502.829	1	6
503.170	1	12
503.510	1	4
503.851	1	5
504.191	1	1
504.532	1	-7
504.872	1	7
505.213	1	-2
505.553	1	6
505.894	1	15
506.234	1	4
506.575	1	5
506.915	1	8
507.256	1	1
507.596	1	4
507.936	1	17
508.277	1	5
508.617	1	10
508.958	1	2
509.298	1	-1
509.639	1	8
509.979	1	2
510.319	1	-3
510.660	1	1
511.000	1	6
511.341	1	17
511.681	1	-4
512.022	1	5
512.362	1	3
512.702	1	-3
513.043	1	1
513.383	1	5
513.724	1	4
514.064	1	6
514.404	1	-7
514.745	1	0
515.085	1	9
515.425	1	4
515.766	1	11
516.106	1	5
516.447	1	-5
516.787	1	6
517.127	1	10
517.468	1	5
517.808	1	9
518.148	1	8
518.489	1	11
518.829	1	10
519.169	1	4
519.510	1	7
519.850	1	5
520.190	1	9
520.531	1	14
520.871	1	2
521.211	1	-2
521.552	1	2
521.892	1	-3
522.232	1	-2
522.573	1	9
522.913	1	4
523.253	1	20
523.593	1	8
523.934	1	11
524.274	1	-2
524.614	1	10
524.955	1	2
525.295	1	5
525.635	1	15
525.975	1	1
526.316	1	6
526.656	1	6
526.996	1	3
527.337	1	-6
527.677	1	-2
528.017	1	-1
528.357	1	-7
528.698	1	-10
529.038	1	7
529.378	1	5
529.718	1	8
530.058	1	12
530.399	1	7
530.739	1	7
531.079	1	4
531.419	1	3
531.760	1	5
532.100	1	2
532.440	1	5
532.780	1	4
533.120	1	8
533.461	1	-3
533.801	1	5
534.141	1	-7
534.481	1	11
534.821	1	10
535.162	1	6
535.502	1	5
535.842	1	10
536.182	1	1
536.522	1	14
536.862	1	10
537.203	1	4
537.543	1	-2
537.883	1	11
538.223	1	20
538.563	1	1
538.903	1	-4
539.243	1	-2
539.584	1	1
539.924	1	-3
540.264	1	4
540.604	1	8
540.944	1	5
541.284	1	2
541.624	1	-2
541.964	1	8
542.305	1	-1
542.645	1	6
542.985	1	10
543.325	1	4
543.665	1	4
544.005	1	5
544.345	1	4
544.685	1	4
545.025	1	1
545.365	1	1
545.705	1	-2
546.045	1	4
546.386	1	0
546.726	1	1
547.066	1	12
547.406	1	4
547.746	1	-5
548.086	1	9
548.426	1	11
548.766	1	2
549.106	1	12
549.446	1	10
549.786	1	2
550.126	1	6
550.466	1	9
550.806	1	-7
551.146	1	4
551.486	1	0
551.826	1	4
552.166	1	6
552.506	1	10
552.846	1	1
553.186	1	10
553.526	1	-6
553.866	1	-3
554.206	1	6
554.546	1	-3
554.886	1	1
555.226	1	-1
555.566	1	11
555.906	1	-1
556.246	1	3
556.586	1	4
556.926	1	2
557.266	1	9
557.606	1	8
557.946	1	7
558.286	1	-3
558.626	1	13
558.966	1	5
559.306	1	12
559.646	1	2
559.986	1	3
560.325	1	-6
560.665	1	6
561.005	1	-4
561.345	1	-6
561.685	1	-1
562.025	1	0
562.365	1	-1
562.705	1	9
563.045	1	1
563.385	1	1
563.725	1	-4
564.064	1	3
564.404	1	-8
564.744	1	9
565.084	1	2
565.424	1	3
565.764	1	-1
566.104	1	9
566.444	1	8
566.783	1	13
567.123	1	-1
567.463	1	0
567.803	1	6
568.143	1	-8
568.483	1	0
568.823	1	-2
569.162	1	7
569.502	1	2
569.842	1	-8
570.182	1	-1
570.522	1	6
570.862	1	-1
571.201	1	4
571.541	1	-3
571.881	1	-3
572.221	1	4
572.561	1	4
572.900	1	-5
573.240	1	3
573.580	1	0
573.920	1	12
574.260	1	6
574.599	1	-11
574.939	1	-7
575.279	1	4
575.619	1	10
575.959	1	-4
576.298	1	5
576.638	1	7
576.978	1	-3
577.318	1	2
577.657	1	8
577.997	1	-4
578.337	1	4
578.677	1	2
579.016	1	7
579.356	1	-9
579.696	1	-2
580.036	1	0
580.375	1	-5
580.715	1	6
581.055	1	6
581.394	1	5
581.734	1	4
582.074	1	8
582.414	1	-3
582.753	1	7
583.093	1	1
583.433	1	2
583.772	1	0
584.112	1	2
584.452	1	-6
584.791	1	2
585.131	1	8
585.471	1	9
585.811	1	-6
586.150	1	1
586.490	1	10
586.830	1	-4
587.169	1	11
587.509	1	4
587.849	1	2
588.188	1	-1
588.528	1	-4
588.867	1	5
589.207	1	-1
589.547	1	20
589.886	1	3
590.226	1	-1
590.566	1	1
590.905	1	9
591.245	1	4
591.585	1	3
591.924	1	-2
592.264	1	-9
592.603	1	2
592.943	1	1
593.283	1	4
593.622	1	-11
593.962	1	-5
594.301	1	1
594.641	1	3
594.981	1	10
595.320	1	-4
595.660	1	7
595.999	1	2
596.339	1	8
596.678	1	-4
597.018	1	-9
597.358	1	-8
597.697	1	2
598.037	1	8
598.376	1	-4
598.716	1	7
599.055	1	8
599.395	1	0
599.734	1	4
600.074	1	4
600.413	1	-8
600.753	1	10
601.092	1	-2
601.432	1	0
601.771	1	3
602.111	1	-12
602.451	1	7
602.790	1	19
603.130	1	-3
603.469	1	0
603.809	1	0
604.148	1	-1
604.487	1	12
604.827	1	-4
605.166	1	-2
605.506	1	-5
605.845	1	6
606.185	1	8
606.524	1	-1
606.864	1	4
607.203	1	-3
607.543	1	8
607.882	1	-1
608.222	1	6
608.561	1	3
608.901	1	-5
609.240	1	1
609.579	1	-5
609.919	1	3
610.258	1	2
610.598	1	8
610.937	1	7
611.277	1	-2
611.616	1	4
611.955	1	9
612.295	1	3
612.634	1	3
612.974	1	3
613.313	1	-1
613.652	1	10
613.992	1	4
614.331	1	-2
614.671	1	5
615.010	1	8
615.349	1	12
615.689	1	7
616.028	1	4
616.368	1	4
616.707	1	1
617.046	1	-6
617.386	1	-4
617.725	1	7
618.064	1	5
618.404	1	-1
618.743	1	9
619.082	1	8
619.422	1	2
619.761	1	-4
620.100	1	0
620.440	1	-1
620.779	1	2
621.118	1	-6
621.458	1	3
621.797	1	-2
622.136	1	5
622.476	1	-8
622.815	1	0
623.154	1	-6
623.494	1	0
623.833	1	7
624.172	1	4
624.511	1	5
624.851	1	1
625.190	1	7
625.529	1	1
625.869	1	10
626.208	1	1
626.547	1	-7
626.886	1	4
627.226	1	7
627.565	1	6
627.904	1	4
628.243	1	0
628.583	1	4
628.922	1	-4
629.261	1	1
629.600	1	0
629.940	1	-4
630.279	1	-1
630.618	1	4
630.957	1	9
631.297	1	-9
631.636	1	10
631.975	1	-9
632.314	1	5
632.653	1	2
632.993	1	0
633.332	1	1
633.671	1	12
634.010	1	0
634.349	1	-7
634.689	1	0
635.028	1	3
635.367	1	0
635.706	1	1
636.045	1	7
636.384	1	-1
636.724	1	1
637.063	1	-1
637.402	1	12
637.741	1	-10
638.080	1	7
638.419	1	-8
638.759	1	-2
639.098	1	-2
639.437	1	3
639.776	1	-4
640.115	1	9
640.454	1	-1
640.793	1	-1
641.132	1	10
641.472	1	-12
641.811	1	9
642.150	1	2
642.489	1	-5
642.828	1	2
643.167	1	0
643.506	1	6
643.845	1	8
644.184	1	13
644.524	1	3
644.863	1	-11
645.202	1	18
645.541	1	3
645.880	1	8
646.219	1	-4
646.558	1	1
646.897	1	-1
647.236	1	-2
647.575	1	-2
647.914	1	-6
648.253	1	-2
648.592	1	-1
648.931	1	-2
649.270	1	-4
649.610	1	5
649.949	1	1
650.288	1	0
650.627	1	-5
650.966	1	-1
651.305	1	-5
651.644	1	-3
651.983	1	-3
652.322	1	-1
652.661	1	1
653.000	1	-2
653.339	1	4
653.678	1	6
654.017	1	2
654.356	1	-1
654.695	1	6
655.034	1	5
655.373	1	-4
655.712	1	-5
656.051	1	5
656.390	1	6
656.729	1	5
657.068	1	6
657.406	1	12
657.745	1	3
658.084	1	-4
658.423	1	3
658.762	1	-9
659.101	1	2
659.440	1	0
659.779	1	-2
660.118	1	9
660.457	1	2
660.796	1	2
661.135	1	-6
661.474	1	8
661.813	1	3
662.152	1	2
662.491	1	-1
662.829	1	3
663.168	1	6
663.507	1	-1
663.846	1	-5
664.185	1	5
664.524	1	2
664.863	1	4
665.202	1	15
665.541	1	-4
665.879	1	10
666.218	1	15
666.557	1	5
666.896	1	2
667.235	1	-7
667.574	1	-7
667.913	1	-7
668.251	1	4
668.590	1	1
668.929	1	5
669.268	1	-3
669.607	1	5
669.946	1	3
670.285	1	10
670.623	1	2
670.962	1	-8
671.301	1	10
671.640	1	-3
671.979	1	9
672.317	1	4
672.656	1	6
672.995	1	-10
673.334	1	-2
673.673	1	6
674.011	1	8
674.350	1	0
674.689	1	-2
675.028	1	5
675.367	1	-8
675.705	1	2
676.044	1	15
676.383	1	6
676.722	1	10
677.060	1	-7
677.399	1	5
677.738	1	4
678.077	1	10
678.416	1	-3
678.754	1	-6
679.093	1	2
679.432	1	2
679.771	1	4
680.109	1	-4
680.448	1	7
680.787	1	-1
681.125	1	5
681.464	1	7
681.803	1	2
682.142	1	0
682.480	1	3
682.819	1	4
683.158	1	-1
683.496	1	9
683.835	1	3
684.174	1	2
684.512	1	2
684.851	1	-3
685.190	1	2
685.529	1	16
685.867	1	2
686.206	1	-1
686.545	1	4
686.883	1	3
687.222	1	-6
687.561	1	-1
687.899	1	1
688.238	1	-11
688.577	1	14
688.746	1	-12