File: Data/GaN_170K_550ms/GaN_sample D_spot 18_UVVIS_170 K_200um_550 ms 2x2mm1_312.txt
340.368	1	-6
340.710	1	-6
341.052	1	3
341.394	1	9
341.737	1	-3
342.079	1	7
342.421	1	11
342.763	1	1
343.105	1	11
343.447	1	-1
343.789	1	4
344.131	1	0
344.473	1	-1
344.815	1	8
345.157	1	-7
345.499	1	-7
345.841	1	7
346.183	1	12
346.526	1	1
346.868	1	5
347.210	1	-11
347.552	1	8
347.894	1	7
348.236	1	-9
348.578	1	-4
348.920	1	-1
349.262	1	6
349.604	1	9
349.946	1	12
350.288	1	-4
350.630	1	6
350.972	1	-6
351.314	1	7
351.656	1	4
351.998	1	3
352.340	1	0
352.682	1	0
353.024	1	-5
353.366	1	-1
353.708	1	-1
354.050	1	-12
354.392	1	7
354.734	1	9
355.076	1	1
355.418	1	-1
355.760	1	-3
356.102	1	1
356.444	1	0
356.785	1	-4
357.127	1	3
357.469	1	4
357.811	1	0
358.153	1	4
358.495	1	-2
358.837	1	5
359.179	1	5
359.521	1	-4
359.863	1	-3
360.205	1	13
360.547	1	12
360.889	1	5
361.231	1	5
361.572	1	6
361.914	1	-5
362.256	1	0
362.598	1	3
362.940	1	16
363.282	1	7
363.624	1	-1
363.966	1	3
364.308	1	11
364.649	1	-2
364.991	1	5
365.333	1	7
365.675	1	3
366.017	1	9
366.359	1	4
366.701	1	10
367.042	1	-2
367.384	1	9
367.726	1	18
368.068	1	11
368.410	1	15
368.752	1	8
369.093	1	4
369.435	1	-7
369.777	1	12
370.119	1	7
370.461	1	7
370.803	1	1
371.144	1	-1
371.486	1	4
371.828	1	4
372.170	1	0
372.512	1	4
372.853	1	5
373.195	1	-2
373.537	1	11
373.879	1	3
374.220	1	18
374.562	1	-4
374.904	1	2
375.246	1	-2
375.588	1	3
375.929	1	4
376.271	1	7
376.613	1	-2
376.955	1	11
377.296	1	11
377.638	1	3
377.980	1	-3
378.321	1	5
378.663	1	7
379.005	1	0
379.347	1	7
379.688	1	-9
380.030	1	1
380.372	1	-4
380.714	1	10
381.055	1	1
381.397	1	6
381.739	1	1
382.080	1	-3
382.422	1	0
382.764	1	7
383.105	1	5
383.447	1	1
383.789	1	17
384.130	1	-7
384.472	1	-2
384.814	1	11
385.156	1	-4
385.497	1	7
385.839	1	-3
386.180	1	3
386.522	1	5
386.864	1	4
387.205	1	-1
387.547	1	7
387.889	1	14
388.230	1	1
388.572	1	3
388.914	1	6
389.255	1	6
389.597	1	7
389.939	1	-3
390.280	1	7
390.622	1	-2
390.963	1	0
391.305	1	5
391.647	1	-9
391.988	1	2
392.330	1	-1
392.671	1	2
393.013	1	-6
393.355	1	3
393.696	1	5
394.038	1	-5
394.379	1	-1
394.721	1	-7
395.062	1	3
395.404	1	7
395.746	1	2
396.087	1	11
396.429	1	6
396.770	1	8
397.112	1	-2
397.453	1	10
397.795	1	0
398.136	1	1
398.478	1	-5
398.819	1	12
399.161	1	-6
399.503	1	4
399.844	1	-3
400.186	1	0
400.527	1	9
400.869	1	0
401.210	1	6
401.552	1	-1
401.893	1	2
402.235	1	0
402.576	1	3
402.918	1	0
403.259	1	-1
403.601	1	15
403.942	1	2
404.284	1	-7
404.625	1	2
404.967	1	2
405.308	1	11
405.649	1	10
405.991	1	3
406.332	1	-13
406.674	1	4
407.015	1	7
407.357	1	-1
407.698	1	3
408.040	1	10
408.381	1	3
408.722	1	-7
409.064	1	4
409.405	1	9
409.747	1	-3
410.088	1	6
410.430	1	3
410.771	1	-5
411.112	1	-3
411.454	1	3
411.795	1	2
412.137	1	-4
412.478	1	0
412.819	1	-11
413.161	1	16
413.502	1	6
413.844	1	5
414.185	1	3
414.526	1	4
414.868	1	-2
415.209	1	-19
415.550	1	-6
415.892	1	-7
416.233	1	2
416.575	1	5
416.916	1	0
417.257	1	1
417.599	1	-3
417.940	1	6
418.281	1	-5
418.623	1	-5
418.964	1	-6
419.305	1	-4
419.647	1	5
419.988	1	-3
420.329	1	0
420.671	1	0
421.012	1	4
421.353	1	5
421.695	1	-4
422.036	1	3
422.377	1	-4
422.718	1	6
423.060	1	-6
423.401	1	-1
423.742	1	-5
424.084	1	8
424.425	1	-1
424.766	1	-7
425.107	1	-5
425.449	1	-1
425.790	1	7
426.131	1	11
426.472	1	3
426.814	1	-17
427.155	1	10
427.496	1	1
427.837	1	-6
428.179	1	-1
428.520	1	-1
428.861	1	2
429.202	1	3
429.544	1	-5
429.885	1	-3
430.226	1	-2
430.567	1	-7
430.909	1	-3
431.250	1	11
431.591	1	-2
431.932	1	-6
432.273	1	7
432.615	1	4
432.956	1	5
433.297	1	7
433.638	1	11
433.979	1	-6
434.320	1	10
434.662	1	-10
435.003	1	2
435.344	1	-1
435.685	1	7
436.026	1	-9
436.368	1	8
436.709	1	-7
437.050	1	-7
437.391	1	-4
437.732	1	-3
438.073	1	-7
438.414	1	-2
438.756	1	-6
439.097	1	5
439.438	1	10
439.779	1	8
440.120	1	-7
440.461	1	5
440.802	1	11
441.143	1	-6
441.485	1	-5
441.826	1	-1
442.167	1	2
442.508	1	-12
442.849	1	-3
443.190	1	2
443.531	1	-1
443.872	1	-7
444.213	1	-1
444.554	1	-6
444.895	1	-12
445.237	1	0
445.578	1	-3
445.919	1	3
446.260	1	3
446.601	1	-6
446.942	1	-4
447.283	1	10
447.624	1	-6
447.965	1	4
448.306	1	3
448.647	1	-11
448.988	1	13
449.329	1	0
449.670	1	-10
450.011	1	7
450.352	1	-5
450.693	1	-5
451.034	1	-10
451.375	1	-4
451.716	1	9
452.057	1	1
452.398	1	4
452.739	1	-2
453.080	1	-5
453.421	1	-3
453.762	1	-5
454.103	1	-13
454.444	1	-12
454.785	1	-11
455.126	1	9
455.467	1	-8
455.808	1	5
456.149	1	2
456.490	1	6
456.831	1	-9
457.172	1	-12
457.513	1	3
457.854	1	16
458.195	1	3
458.536	1	-2
458.877	1	3
459.218	1	-3
459.559	1	3
459.899	1	-4
460.240	1	4
460.581	1	10
460.922	1	-6
461.263	1	-2
461.604	1	3
461.945	1	-4
462.286	1	-7
462.627	1	8
462.968	1	5
463.309	1	10
463.649	1	1
463.990	1	-11
464.331	1	4
464.672	1	-3
465.013	1	8
465.354	1	0
465.695	1	8
466.036	1	-1
466.376	1	10
466.717	1	3
467.058	1	3
467.399	1	8
467.740	1	6
468.081	1	-1
468.422	1	9
468.762	1	5
469.103	1	5
469.444	1	3
469.785	1	-4
470.126	1	6
470.467	1	5
470.807	1	3
471.148	1	-7
471.489	1	2
471.830	1	4
472.171	1	7
472.511	1	1
472.852	1	8
473.193	1	-4
473.534	1	3
473.875	1	-3
474.215	1	4
474.556	1	-6
474.897	1	0
475.238	1	1
475.578	1	6
475.919	1	6
476.260	1	11
476.601	1	-2
476.942	1	-9
477.282	1	5
477.623	1	7
477.964	1	3
478.305	1	-7
478.645	1	-5
478.986	1	5
479.327	1	-10
479.667	1	-4
480.008	1	4
480.349	1	9
480.690	1	6
481.030	1	6
481.371	1	-9
481.712	1	-1
482.053	1	-3
482.393	1	3
482.734	1	13
483.075	1	-4
483.415	1	-6
483.756	1	3
484.097	1	-8
484.437	1	-3
484.778	1	-16
485.119	1	0
485.459	1	-6
485.800	1	-4
486.141	1	11
486.481	1	1
486.822	1	0
487.163	1	3
487.503	1	-5
487.844	1	1
488.185	1	-5
488.525	1	2
488.866	1	15
489.207	1	4
489.547	1	6
489.888	1	-1
490.228	1	-7
490.569	1	3
490.910	1	0
491.250	1	10
491.591	1	-3
491.932	1	0
492.272	1	1
492.613	1	2
492.953	1	1
493.294	1	-7
493.635	1	1
493.975	1	5
494.316	1	-5
494.656	1	-6
494.997	1	5
495.337	1	3
495.678	1	3
496.019	1	-14
496.359	1	2
496.700	1	8
497.040	1	2
497.381	1	9
497.721	1	1
498.062	1	-11
498.403	1	11
498.743	1	-2
499.084	1	9
499.424	1	11
499.765	1	-7
500.105	1	-1
500.446	1	-1
500.786	1	-5
501.127	1	-4
501.467	1	-6
501.808	1	0
502.148	1	3
502.489	1	1
502.829	1	1
503.170	1	2
503.510	1	1
503.851	1	-6
504.191	1	-2
504.532	1	-6
504.872	1	3
505.213	1	-1
505.553	1	-5
505.894	1	7
506.234	1	-2
506.575	1	4
506.915	1	1
507.256	1	-5
507.596	1	-4
507.936	1	15
508.277	1	0
508.617	1	7
508.958	1	1
509.298	1	-3
509.639	1	6
509.979	1	13
510.319	1	-6
510.660	1	-7
511.000	1	16
511.341	1	4
511.681	1	-4
512.022	1	10
512.362	1	-1
512.702	1	-5
513.043	1	2
513.383	1	6
513.724	1	-3
514.064	1	10
514.404	1	-8
514.745	1	-2
515.085	1	4
515.425	1	2
515.766	1	2
516.106	1	-6
516.447	1	-11
516.787	1	3
517.127	1	8
517.468	1	3
517.808	1	9
518.148	1	-10
518.489	1	15
518.829	1	-1
519.169	1	-7
519.510	1	11
519.850	1	-4
520.190	1	8
520.531	1	7
520.871	1	1
521.211	1	2
521.552	1	-4
521.892	1	2
522.232	1	-14
522.573	1	4
522.913	1	2
523.253	1	11
523.593	1	3
523.934	1	4
524.274	1	0
524.614	1	10
524.955	1	3
525.295	1	0
525.635	1	7
525.975	1	2
526.316	1	8
526.656	1	10
526.996	1	8
527.337	1	-3
527.677	1	1
528.017	1	11
528.357	1	-7
528.698	1	-10
529.038	1	5
529.378	1	-2
529.718	1	6
530.058	1	10
530.399	1	0
530.739	1	2
531.079	1	2
531.419	1	4
531.760	1	4
532.100	1	-4
532.440	1	5
532.780	1	-11
533.120	1	6
533.461	1	4
533.801	1	3
534.141	1	3
534.481	1	0
534.821	1	1
535.162	1	1
535.502	1	-4
535.842	1	5
536.182	1	-2
536.522	1	12
536.862	1	10
537.203	1	0
537.543	1	-5
537.883	1	6
538.223	1	1
538.563	1	-6
538.903	1	5
539.243	1	-4
539.584	1	-3
539.924	1	0
540.264	1	-1
540.604	1	-2
540.944	1	-6
541.284	1	-1
541.624	1	-5
541.964	1	-2
542.305	1	7
542.645	1	1
542.985	1	8
543.325	1	0
543.665	1	2
544.005	1	15
544.345	1	9
544.685	1	5
545.025	1	-1
545.365	1	2
545.705	1	8
546.045	1	-1
546.386	1	-5
546.726	1	7
547.066	1	11
547.406	1	-1
547.746	1	-4
548.086	1	1
548.426	1	6
548.766	1	3
549.106	1	5
549.446	1	4
549.786	1	-2
550.126	1	9
550.466	1	1
550.806	1	5
551.146	1	5
551.486	1	-2
551.826	1	-2
552.166	1	5
552.506	1	7
552.846	1	0
553.186	1	3
553.526	1	-1
553.866	1	-3
554.206	1	2
554.546	1	-10
554.886	1	4
555.226	1	-7
555.566	1	1
555.906	1	0
556.246	1	8
556.586	1	-3
556.926	1	12
557.266	1	8
557.606	1	2
557.946	1	-5
558.286	1	7
558.626	1	11
558.966	1	4
559.306	1	10
559.646	1	-6
559.986	1	2
560.325	1	-9
560.665	1	0
561.005	1	4
561.345	1	-4
561.685	1	1
562.025	1	-3
562.365	1	-5
562.705	1	9
563.045	1	-5
563.385	1	4
563.725	1	-4
564.064	1	5
564.404	1	-10
564.744	1	-6
565.084	1	2
565.424	1	0
565.764	1	1
566.104	1	-8
566.444	1	-3
566.783	1	8
567.123	1	0
567.463	1	-4
567.803	1	-8
568.143	1	1
568.483	1	-1
568.823	1	-3
569.162	1	4
569.502	1	0
569.842	1	-4
570.182	1	2
570.522	1	-3
570.862	1	-4
571.201	1	2
571.541	1	1
571.881	1	-4
572.221	1	2
572.561	1	8
572.900	1	6
573.240	1	4
573.580	1	0
573.920	1	6
574.260	1	-4
574.599	1	3
574.939	1	-10
575.279	1	-4
575.619	1	15
575.959	1	-8
576.298	1	8
576.638	1	0
576.978	1	5
577.318	1	-4
577.657	1	2
577.997	1	-2
578.337	1	6
578.677	1	2
579.016	1	0
579.356	1	0
579.696	1	1
580.036	1	6
580.375	1	-6
580.715	1	2
581.055	1	2
581.394	1	2
581.734	1	3
582.074	1	9
582.414	1	-5
582.753	1	1
583.093	1	2
583.433	1	8
583.772	1	-6
584.112	1	-1
584.452	1	-4
584.791	1	3
585.131	1	10
585.471	1	12
585.811	1	-13
586.150	1	-5
586.490	1	5
586.830	1	-6
587.169	1	8
587.509	1	-1
587.849	1	2
588.188	1	1
588.528	1	0
588.867	1	8
589.207	1	2
589.547	1	9
589.886	1	-5
590.226	1	6
590.566	1	4
590.905	1	7
591.245	1	-2
591.585	1	-2
591.924	1	-4
592.264	1	-9
592.603	1	0
592.943	1	-1
593.283	1	-3
593.622	1	-10
593.962	1	3
594.301	1	0
594.641	1	4
594.981	1	11
595.320	1	-2
595.660	1	1
595.999	1	-2
596.339	1	-1
596.678	1	-9
597.018	1	-3
597.358	1	-8
597.697	1	-1
598.037	1	1
598.376	1	-6
598.716	1	9
599.055	1	5
599.395	1	-4
599.734	1	9
600.074	1	9
600.413	1	-7
600.753	1	-2
601.092	1	0
601.432	1	-2
601.771	1	-4
602.111	1	-3
602.451	1	7
602.790	1	13
603.130	1	-2
603.469	1	8
603.809	1	-1
604.148	1	-2
604.487	1	6
604.827	1	-8
605.166	1	2
605.506	1	1
605.845	1	-4
606.185	1	3
606.524	1	1
606.864	1	-4
607.203	1	3
607.543	1	1
607.882	1	0
608.222	1	0
608.561	1	3
608.901	1	-1
609.240	1	-9
609.579	1	-3
609.919	1	-2
610.258	1	8
610.598	1	5
610.937	1	1
611.277	1	-3
611.616	1	0
611.955	1	-2
612.295	1	0
612.634	1	-19
612.974	1	3
613.313	1	-6
613.652	1	9
613.992	1	0
614.331	1	-5
614.671	1	8
615.010	1	2
615.349	1	2
615.689	1	4
616.028	1	3
616.368	1	5
616.707	1	4
617.046	1	-3
617.386	1	-1
617.725	1	8
618.064	1	-4
618.404	1	1
618.743	1	1
619.082	1	8
619.422	1	-2
619.761	1	0
620.100	1	3
620.440	1	6
620.779	1	-1
621.118	1	-1
621.458	1	-4
621.797	1	-5
622.136	1	-3
622.476	1	0
622.815	1	-5
623.154	1	1
623.494	1	-3
623.833	1	5
624.172	1	-3
624.511	1	4
624.851	1	-8
625.190	1	12
625.529	1	8
625.869	1	7
626.208	1	0
626.547	1	1
626.886	1	3
627.226	1	3
627.565	1	10
627.904	1	0
628.243	1	-3
628.583	1	0
628.922	1	0
629.261	1	-4
629.600	1	0
629.940	1	2
630.279	1	1
630.618	1	5
630.957	1	6
631.297	1	-1
631.636	1	14
631.975	1	-4
632.314	1	4
632.653	1	6
632.993	1	1
633.332	1	1
633.671	1	6
634.010	1	7
634.349	1	-6
634.689	1	6
635.028	1	-1
635.367	1	-9
635.706	1	-9
636.045	1	4
636.384	1	-5
636.724	1	3
637.063	1	4
637.402	1	8
637.741	1	2
638.080	1	0
638.419	1	7
638.759	1	3
639.098	1	-5
639.437	1	-10
639.776	1	1
640.115	1	5
640.454	1	-10
640.793	1	-5
641.132	1	8
641.472	1	-3
641.811	1	11
642.150	1	-4
642.489	1	-1
642.828	1	2
643.167	1	-7
643.506	1	6
643.845	1	3
644.184	1	13
644.524	1	3
644.863	1	-12
645.202	1	9
645.541	1	10
645.880	1	-1
646.219	1	7
646.558	1	15
646.897	1	5
647.236	1	4
647.575	1	4
647.914	1	2
648.253	1	3
648.592	1	-9
648.931	1	2
649.270	1	4
649.610	1	7
649.949	1	-3
650.288	1	-3
650.627	1	-2
650.966	1	8
651.305	1	-7
651.644	1	10
651.983	1	4
652.322	1	5
652.661	1	0
653.000	1	-1
653.339	1	-3
653.678	1	-2
654.017	1	0
654.356	1	7
654.695	1	5
655.034	1	2
655.373	1	6
655.712	1	-5
656.051	1	2
656.390	1	2
656.729	1	5
657.068	1	5
657.406	1	7
657.745	1	7
658.084	1	-7
658.423	1	2
658.762	1	-5
659.101	1	0
659.440	1	3
659.779	1	-1
660.118	1	4
660.457	1	9
660.796	1	-1
661.135	1	-3
661.474	1	1
661.813	1	5
662.152	1	0
662.491	1	-12
662.829	1	-3
663.168	1	1
663.507	1	3
663.846	1	0
664.185	1	-1
664.524	1	1
664.863	1	0
665.202	1	14
665.541	1	0
665.879	1	0
666.218	1	5
666.557	1	0
666.896	1	-1
667.235	1	0
667.574	1	-11
667.913	1	-6
668.251	1	7
668.590	1	1
668.929	1	2
669.268	1	0
669.607	1	-3
669.946	1	7
670.285	1	16
670.623	1	2
670.962	1	-4
671.301	1	4
671.640	1	3
671.979	1	6
672.317	1	4
672.656	1	-4
672.995	1	-2
673.334	1	-4
673.673	1	4
674.011	1	7
674.350	1	-8
674.689	1	0
675.028	1	-3
675.367	1	3
675.705	1	5
676.044	1	16
676.383	1	-2
676.722	1	5
677.060	1	-14
677.399	1	7
677.738	1	7
678.077	1	15
678.416	1	-3
678.754	1	-7
679.093	1	-1
679.432	1	5
679.771	1	3
680.109	1	-9
680.448	1	7
680.787	1	-9
681.125	1	8
681.464	1	9
681.803	1	6
682.142	1	-15
682.480	1	3
682.819	1	5
683.158	1	-4
683.496	1	9
683.835	1	-5
684.174	1	2
684.512	1	1
684.851	1	-9
685.190	1	3
685.529	1	12
685.867	1	10
686.206	1	4
686.545	1	4
686.883	1	5
687.222	1	-1
687.561	1	9
687.899	1	-10
688.238	1	-3
688.577	1	7
688.746	1	-8