File: Data/GaN_170K_550ms/GaN_sample D_spot 18_UVVIS_170 K_200um_550 ms 2x2mm1_271.txt
340.368	1	2
340.710	1	-12
341.052	1	7
341.394	1	-2
341.737	1	-6
342.079	1	1
342.421	1	0
342.763	1	1
343.105	1	8
343.447	1	-7
343.789	1	9
344.131	1	3
344.473	1	0
344.815	1	4
345.157	1	-5
345.499	1	5
345.841	1	10
346.183	1	10
346.526	1	-2
346.868	1	0
347.210	1	1
347.552	1	7
347.894	1	8
348.236	1	-5
348.578	1	5
348.920	1	-2
349.262	1	-1
349.604	1	1
349.946	1	4
350.288	1	-4
350.630	1	5
350.972	1	1
351.314	1	9
351.656	1	-1
351.998	1	9
352.340	1	2
352.682	1	7
353.024	1	-5
353.366	1	4
353.708	1	5
354.050	1	-3
354.392	1	-3
354.734	1	4
355.076	1	0
355.418	1	-1
355.760	1	-5
356.102	1	0
356.444	1	-2
356.785	1	3
357.127	1	-3
357.469	1	1
357.811	1	3
358.153	1	2
358.495	1	7
358.837	1	13
359.179	1	-1
359.521	1	9
359.863	1	10
360.205	1	16
360.547	1	12
360.889	1	13
361.231	1	0
361.572	1	14
361.914	1	8
362.256	1	5
362.598	1	14
362.940	1	24
363.282	1	-1
363.624	1	2
363.966	1	3
364.308	1	3
364.649	1	-6
364.991	1	13
365.333	1	2
365.675	1	2
366.017	1	-2
366.359	1	4
366.701	1	5
367.042	1	6
367.384	1	15
367.726	1	17
368.068	1	18
368.410	1	18
368.752	1	17
369.093	1	-2
369.435	1	14
369.777	1	14
370.119	1	3
370.461	1	17
370.803	1	11
371.144	1	6
371.486	1	-1
371.828	1	4
372.170	1	12
372.512	1	8
372.853	1	21
373.195	1	10
373.537	1	14
373.879	1	12
374.220	1	3
374.562	1	18
374.904	1	4
375.246	1	9
375.588	1	3
375.929	1	3
376.271	1	11
376.613	1	10
376.955	1	13
377.296	1	6
377.638	1	10
377.980	1	-6
378.321	1	8
378.663	1	5
379.005	1	2
379.347	1	-1
379.688	1	5
380.030	1	4
380.372	1	7
380.714	1	8
381.055	1	-1
381.397	1	7
381.739	1	1
382.080	1	-4
382.422	1	4
382.764	1	6
383.105	1	1
383.447	1	7
383.789	1	13
384.130	1	-6
384.472	1	-2
384.814	1	5
385.156	1	8
385.497	1	11
385.839	1	-12
386.180	1	12
386.522	1	11
386.864	1	6
387.205	1	-1
387.547	1	5
387.889	1	10
388.230	1	0
388.572	1	7
388.914	1	-3
389.255	1	12
389.597	1	3
389.939	1	-2
390.280	1	7
390.622	1	0
390.963	1	-4
391.305	1	-6
391.647	1	-7
391.988	1	9
392.330	1	-1
392.671	1	-10
393.013	1	-1
393.355	1	0
393.696	1	1
394.038	1	3
394.379	1	-3
394.721	1	-6
395.062	1	1
395.404	1	11
395.746	1	9
396.087	1	1
396.429	1	6
396.770	1	13
397.112	1	-7
397.453	1	1
397.795	1	-3
398.136	1	4
398.478	1	2
398.819	1	7
399.161	1	-7
399.503	1	1
399.844	1	-9
400.186	1	1
400.527	1	13
400.869	1	-1
401.210	1	2
401.552	1	2
401.893	1	9
402.235	1	9
402.576	1	-1
402.918	1	0
403.259	1	4
403.601	1	13
403.942	1	7
404.284	1	-12
404.625	1	-8
404.967	1	-3
405.308	1	3
405.649	1	4
405.991	1	8
406.332	1	-11
406.674	1	7
407.015	1	9
407.357	1	-8
407.698	1	7
408.040	1	-2
408.381	1	3
408.722	1	-7
409.064	1	-4
409.405	1	0
409.747	1	1
410.088	1	6
410.430	1	-1
410.771	1	4
411.112	1	-1
411.454	1	1
411.795	1	6
412.137	1	-10
412.478	1	2
412.819	1	-4
413.161	1	13
413.502	1	9
413.844	1	1
414.185	1	1
414.526	1	1
414.868	1	6
415.209	1	-12
415.550	1	1
415.892	1	3
416.233	1	7
416.575	1	-1
416.916	1	-8
417.257	1	2
417.599	1	1
417.940	1	1
418.281	1	-9
418.623	1	-3
418.964	1	-5
419.305	1	4
419.647	1	5
419.988	1	9
420.329	1	-1
420.671	1	-1
421.012	1	-2
421.353	1	-2
421.695	1	-5
422.036	1	4
422.377	1	2
422.718	1	3
423.060	1	0
423.401	1	0
423.742	1	2
424.084	1	17
424.425	1	-6
424.766	1	1
425.107	1	0
425.449	1	6
425.790	1	3
426.131	1	4
426.472	1	3
426.814	1	-8
427.155	1	18
427.496	1	-2
427.837	1	11
428.179	1	5
428.520	1	-3
428.861	1	-2
429.202	1	-7
429.544	1	3
429.885	1	5
430.226	1	1
430.567	1	2
430.909	1	4
431.250	1	11
431.591	1	2
431.932	1	-6
432.273	1	-2
432.615	1	-8
432.956	1	-2
433.297	1	-4
433.638	1	-1
433.979	1	-4
434.320	1	8
434.662	1	-13
435.003	1	2
435.344	1	-4
435.685	1	8
436.026	1	-3
436.368	1	2
436.709	1	5
437.050	1	-13
437.391	1	-10
437.732	1	0
438.073	1	1
438.414	1	-9
438.756	1	0
439.097	1	2
439.438	1	5
439.779	1	15
440.120	1	0
440.461	1	12
440.802	1	4
441.143	1	-4
441.485	1	-10
441.826	1	3
442.167	1	-3
442.508	1	-5
442.849	1	2
443.190	1	1
443.531	1	7
443.872	1	-3
444.213	1	0
444.554	1	-4
444.895	1	-17
445.237	1	-7
445.578	1	11
445.919	1	4
446.260	1	8
446.601	1	-15
446.942	1	5
447.283	1	0
447.624	1	-3
447.965	1	5
448.306	1	-2
448.647	1	0
448.988	1	11
449.329	1	5
449.670	1	-12
450.011	1	9
450.352	1	-6
450.693	1	2
451.034	1	-5
451.375	1	0
451.716	1	13
452.057	1	-6
452.398	1	4
452.739	1	2
453.080	1	3
453.421	1	4
453.762	1	-2
454.103	1	0
454.444	1	-5
454.785	1	-2
455.126	1	6
455.467	1	-6
455.808	1	3
456.149	1	-3
456.490	1	5
456.831	1	-5
457.172	1	1
457.513	1	-1
457.854	1	10
458.195	1	-1
458.536	1	-13
458.877	1	5
459.218	1	-1
459.559	1	-1
459.899	1	7
460.240	1	0
460.581	1	1
460.922	1	-3
461.263	1	0
461.604	1	15
461.945	1	-5
462.286	1	1
462.627	1	7
462.968	1	6
463.309	1	-1
463.649	1	8
463.990	1	8
464.331	1	3
464.672	1	-8
465.013	1	5
465.354	1	0
465.695	1	3
466.036	1	-4
466.376	1	2
466.717	1	-2
467.058	1	-1
467.399	1	2
467.740	1	-1
468.081	1	4
468.422	1	1
468.762	1	11
469.103	1	8
469.444	1	0
469.785	1	-7
470.126	1	6
470.467	1	5
470.807	1	-4
471.148	1	-1
471.489	1	3
471.830	1	8
472.171	1	2
472.511	1	4
472.852	1	0
473.193	1	8
473.534	1	3
473.875	1	2
474.215	1	4
474.556	1	4
474.897	1	-3
475.238	1	-7
475.578	1	1
475.919	1	7
476.260	1	6
476.601	1	12
476.942	1	-7
477.282	1	6
477.623	1	12
477.964	1	-1
478.305	1	0
478.645	1	3
478.986	1	-4
479.327	1	-12
479.667	1	-1
480.008	1	1
480.349	1	6
480.690	1	3
481.030	1	11
481.371	1	8
481.712	1	-5
482.053	1	-7
482.393	1	-4
482.734	1	8
483.075	1	5
483.415	1	3
483.756	1	4
484.097	1	-3
484.437	1	-15
484.778	1	-9
485.119	1	2
485.459	1	-2
485.800	1	-3
486.141	1	3
486.481	1	0
486.822	1	4
487.163	1	6
487.503	1	-6
487.844	1	11
488.185	1	7
488.525	1	11
488.866	1	13
489.207	1	-2
489.547	1	10
489.888	1	3
490.228	1	-1
490.569	1	2
490.910	1	-6
491.250	1	2
491.591	1	4
491.932	1	16
492.272	1	15
492.613	1	12
492.953	1	6
493.294	1	-4
493.635	1	0
493.975	1	8
494.316	1	2
494.656	1	6
494.997	1	7
495.337	1	10
495.678	1	1
496.019	1	-13
496.359	1	8
496.700	1	12
497.040	1	8
497.381	1	4
497.721	1	-7
498.062	1	-2
498.403	1	13
498.743	1	1
499.084	1	2
499.424	1	7
499.765	1	-12
500.105	1	3
500.446	1	-4
500.786	1	1
501.127	1	4
501.467	1	-1
501.808	1	1
502.148	1	0
502.489	1	-2
502.829	1	-2
503.170	1	6
503.510	1	13
503.851	1	-4
504.191	1	-13
504.532	1	-6
504.872	1	3
505.213	1	-9
505.553	1	3
505.894	1	15
506.234	1	-5
506.575	1	7
506.915	1	6
507.256	1	3
507.596	1	6
507.936	1	18
508.277	1	-11
508.617	1	11
508.958	1	2
509.298	1	4
509.639	1	11
509.979	1	9
510.319	1	2
510.660	1	-4
511.000	1	13
511.341	1	11
511.681	1	-5
512.022	1	2
512.362	1	4
512.702	1	-1
513.043	1	2
513.383	1	0
513.724	1	-1
514.064	1	7
514.404	1	-1
514.745	1	-2
515.085	1	2
515.425	1	6
515.766	1	1
516.106	1	1
516.447	1	-4
516.787	1	7
517.127	1	-1
517.468	1	0
517.808	1	10
518.148	1	6
518.489	1	3
518.829	1	8
519.169	1	-1
519.510	1	4
519.850	1	2
520.190	1	3
520.531	1	4
520.871	1	0
521.211	1	0
521.552	1	3
521.892	1	4
522.232	1	-3
522.573	1	4
522.913	1	5
523.253	1	7
523.593	1	6
523.934	1	9
524.274	1	-11
524.614	1	9
524.955	1	1
525.295	1	0
525.635	1	7
525.975	1	-3
526.316	1	14
526.656	1	9
526.996	1	2
527.337	1	2
527.677	1	-3
528.017	1	4
528.357	1	-1
528.698	1	-8
529.038	1	3
529.378	1	-4
529.718	1	8
530.058	1	9
530.399	1	7
530.739	1	10
531.079	1	5
531.419	1	12
531.760	1	0
532.100	1	14
532.440	1	1
532.780	1	4
533.120	1	4
533.461	1	-5
533.801	1	2
534.141	1	1
534.481	1	12
534.821	1	8
535.162	1	1
535.502	1	7
535.842	1	6
536.182	1	-3
536.522	1	9
536.862	1	5
537.203	1	0
537.543	1	-3
537.883	1	7
538.223	1	-4
538.563	1	2
538.903	1	5
539.243	1	4
539.584	1	-2
539.924	1	0
540.264	1	5
540.604	1	4
540.944	1	0
541.284	1	4
541.624	1	-4
541.964	1	8
542.305	1	2
542.645	1	-7
542.985	1	-1
543.325	1	-5
543.665	1	10
544.005	1	9
544.345	1	1
544.685	1	-6
545.025	1	-5
545.365	1	-3
545.705	1	2
546.045	1	-3
546.386	1	2
546.726	1	-6
547.066	1	11
547.406	1	8
547.746	1	-8
548.086	1	5
548.426	1	5
548.766	1	1
549.106	1	7
549.446	1	5
549.786	1	2
550.126	1	-6
550.466	1	1
550.806	1	-3
551.146	1	10
551.486	1	6
551.826	1	5
552.166	1	-4
552.506	1	3
552.846	1	-2
553.186	1	8
553.526	1	-2
553.866	1	-3
554.206	1	4
554.546	1	-1
554.886	1	3
555.226	1	2
555.566	1	2
555.906	1	1
556.246	1	16
556.586	1	-2
556.926	1	11
557.266	1	6
557.606	1	2
557.946	1	-2
558.286	1	0
558.626	1	15
558.966	1	7
559.306	1	8
559.646	1	-3
559.986	1	3
560.325	1	-5
560.665	1	-7
561.005	1	3
561.345	1	-2
561.685	1	-4
562.025	1	-6
562.365	1	8
562.705	1	4
563.045	1	-4
563.385	1	13
563.725	1	-8
564.064	1	12
564.404	1	-5
564.744	1	-6
565.084	1	6
565.424	1	2
565.764	1	-3
566.104	1	-2
566.444	1	7
566.783	1	1
567.123	1	3
567.463	1	0
567.803	1	2
568.143	1	4
568.483	1	17
568.823	1	173
569.162	1	15
569.502	1	-3
569.842	1	2
570.182	1	-5
570.522	1	-1
570.862	1	4
571.201	1	11
571.541	1	-8
571.881	1	-2
572.221	1	-2
572.561	1	5
572.900	1	8
573.240	1	-3
573.580	1	2
573.920	1	12
574.260	1	8
574.599	1	-2
574.939	1	0
575.279	1	-2
575.619	1	7
575.959	1	-12
576.298	1	4
576.638	1	12
576.978	1	-2
577.318	1	10
577.657	1	0
577.997	1	1
578.337	1	7
578.677	1	5
579.016	1	5
579.356	1	-2
579.696	1	-6
580.036	1	-1
580.375	1	-2
580.715	1	8
581.055	1	4
581.394	1	4
581.734	1	10
582.074	1	1
582.414	1	3
582.753	1	-1
583.093	1	13
583.433	1	1
583.772	1	-7
584.112	1	8
584.452	1	-14
584.791	1	1
585.131	1	9
585.471	1	4
585.811	1	0
586.150	1	-1
586.490	1	3
586.830	1	-5
587.169	1	3
587.509	1	2
587.849	1	-3
588.188	1	3
588.528	1	-5
588.867	1	0
589.207	1	-8
589.547	1	7
589.886	1	1
590.226	1	1
590.566	1	0
590.905	1	9
591.245	1	1
591.585	1	0
591.924	1	2
592.264	1	-7
592.603	1	-7
592.943	1	5
593.283	1	6
593.622	1	-16
593.962	1	0
594.301	1	4
594.641	1	8
594.981	1	12
595.320	1	0
595.660	1	-6
595.999	1	5
596.339	1	5
596.678	1	-7
597.018	1	3
597.358	1	-2
597.697	1	0
598.037	1	6
598.376	1	-4
598.716	1	6
599.055	1	6
599.395	1	1
599.734	1	8
600.074	1	6
600.413	1	-1
600.753	1	8
601.092	1	-7
601.432	1	2
601.771	1	1
602.111	1	-3
602.451	1	-1
602.790	1	10
603.130	1	-8
603.469	1	-2
603.809	1	0
604.148	1	3
604.487	1	4
604.827	1	-1
605.166	1	5
605.506	1	-3
605.845	1	6
606.185	1	6
606.524	1	-2
606.864	1	-1
607.203	1	3
607.543	1	4
607.882	1	-7
608.222	1	-2
608.561	1	-1
608.901	1	8
609.240	1	0
609.579	1	1
609.919	1	4
610.258	1	4
610.598	1	7
610.937	1	-1
611.277	1	8
611.616	1	-7
611.955	1	11
612.295	1	-1
612.634	1	-1
612.974	1	-1
613.313	1	-1
613.652	1	16
613.992	1	3
614.331	1	0
614.671	1	0
615.010	1	4
615.349	1	7
615.689	1	13
616.028	1	-3
616.368	1	-1
616.707	1	2
617.046	1	1
617.386	1	-2
617.725	1	3
618.064	1	3
618.404	1	11
618.743	1	5
619.082	1	15
619.422	1	-9
619.761	1	-6
620.100	1	2
620.440	1	4
620.779	1	-2
621.118	1	-2
621.458	1	4
621.797	1	5
622.136	1	-1
622.476	1	-10
622.815	1	1
623.154	1	4
623.494	1	-5
623.833	1	4
624.172	1	-5
624.511	1	12
624.851	1	-9
625.190	1	11
625.529	1	9
625.869	1	5
626.208	1	1
626.547	1	-10
626.886	1	1
627.226	1	-1
627.565	1	-1
627.904	1	-4
628.243	1	-1
628.583	1	-4
628.922	1	-1
629.261	1	0
629.600	1	4
629.940	1	2
630.279	1	4
630.618	1	-4
630.957	1	4
631.297	1	0
631.636	1	16
631.975	1	1
632.314	1	-1
632.653	1	-1
632.993	1	3
633.332	1	1
633.671	1	12
634.010	1	-4
634.349	1	-4
634.689	1	9
635.028	1	5
635.367	1	1
635.706	1	3
636.045	1	8
636.384	1	-15
636.724	1	-2
637.063	1	10
637.402	1	8
637.741	1	-2
638.080	1	3
638.419	1	-5
638.759	1	8
639.098	1	-1
639.437	1	-2
639.776	1	-5
640.115	1	12
640.454	1	-2
640.793	1	-2
641.132	1	-1
641.472	1	1
641.811	1	-2
642.150	1	4
642.489	1	-5
642.828	1	-7
643.167	1	-1
643.506	1	7
643.845	1	6
644.184	1	14
644.524	1	-4
644.863	1	-9
645.202	1	18
645.541	1	4
645.880	1	4
646.219	1	-3
646.558	1	2
646.897	1	7
647.236	1	-5
647.575	1	-10
647.914	1	0
648.253	1	2
648.592	1	-3
648.931	1	4
649.270	1	6
649.610	1	3
649.949	1	-4
650.288	1	-4
650.627	1	1
650.966	1	14
651.305	1	-13
651.644	1	5
651.983	1	-1
652.322	1	5
652.661	1	-3
653.000	1	-5
653.339	1	6
653.678	1	9
654.017	1	11
654.356	1	6
654.695	1	9
655.034	1	-7
655.373	1	-3
655.712	1	-2
656.051	1	9
656.390	1	6
656.729	1	1
657.068	1	9
657.406	1	4
657.745	1	10
658.084	1	-1
658.423	1	0
658.762	1	-5
659.101	1	0
659.440	1	-1
659.779	1	-3
660.118	1	11
660.457	1	2
660.796	1	-3
661.135	1	-10
661.474	1	0
661.813	1	-4
662.152	1	-2
662.491	1	-7
662.829	1	8
663.168	1	1
663.507	1	3
663.846	1	-7
664.185	1	7
664.524	1	5
664.863	1	-3
665.202	1	4
665.541	1	5
665.879	1	8
666.218	1	8
666.557	1	2
666.896	1	10
667.235	1	8
667.574	1	-14
667.913	1	-10
668.251	1	7
668.590	1	2
668.929	1	2
669.268	1	-8
669.607	1	3
669.946	1	4
670.285	1	6
670.623	1	0
670.962	1	-4
671.301	1	1
671.640	1	-8
671.979	1	-2
672.317	1	5
672.656	1	1
672.995	1	2
673.334	1	-7
673.673	1	12
674.011	1	3
674.350	1	16
674.689	1	9
675.028	1	-5
675.367	1	-3
675.705	1	15
676.044	1	16
676.383	1	2
676.722	1	11
677.060	1	-3
677.399	1	-1
677.738	1	8
678.077	1	12
678.416	1	-9
678.754	1	-2
679.093	1	-3
679.432	1	6
679.771	1	-3
680.109	1	-2
680.448	1	3
680.787	1	-9
681.125	1	6
681.464	1	0
681.803	1	3
682.142	1	-11
682.480	1	-1
682.819	1	10
683.158	1	-1
683.496	1	4
683.835	1	-3
684.174	1	-6
684.512	1	5
684.851	1	1
685.190	1	3
685.529	1	14
685.867	1	-5
686.206	1	5
686.545	1	5
686.883	1	-4
687.222	1	1
687.561	1	-5
687.899	1	-7
688.238	1	2
688.577	1	6
688.746	1	-8