File: Data/GaN_170K_550ms/GaN_sample D_spot 18_UVVIS_170 K_200um_550 ms 2x2mm1_143.txt
340.368	1	-6
340.710	1	-12
341.052	1	-1
341.394	1	5
341.737	1	-5
342.079	1	-7
342.421	1	5
342.763	1	6
343.105	1	8
343.447	1	-4
343.789	1	-1
344.131	1	1
344.473	1	8
344.815	1	13
345.157	1	0
345.499	1	-3
345.841	1	3
346.183	1	3
346.526	1	9
346.868	1	5
347.210	1	-4
347.552	1	7
347.894	1	-3
348.236	1	2
348.578	1	9
348.920	1	3
349.262	1	8
349.604	1	7
349.946	1	5
350.288	1	-2
350.630	1	8
350.972	1	-7
351.314	1	3
351.656	1	-7
351.998	1	6
352.340	1	9
352.682	1	-2
353.024	1	7
353.366	1	8
353.708	1	6
354.050	1	2
354.392	1	-1
354.734	1	7
355.076	1	3
355.418	1	-1
355.760	1	3
356.102	1	5
356.444	1	-1
356.785	1	4
357.127	1	7
357.469	1	10
357.811	1	12
358.153	1	2
358.495	1	10
358.837	1	7
359.179	1	1
359.521	1	17
359.863	1	11
360.205	1	6
360.547	1	16
360.889	1	13
361.231	1	11
361.572	1	25
361.914	1	15
362.256	1	10
362.598	1	15
362.940	1	20
363.282	1	21
363.624	1	19
363.966	1	10
364.308	1	21
364.649	1	21
364.991	1	24
365.333	1	16
365.675	1	39
366.017	1	34
366.359	1	39
366.701	1	34
367.042	1	44
367.384	1	46
367.726	1	53
368.068	1	45
368.410	1	41
368.752	1	41
369.093	1	30
369.435	1	37
369.777	1	37
370.119	1	34
370.461	1	36
370.803	1	32
371.144	1	34
371.486	1	22
371.828	1	32
372.170	1	28
372.512	1	14
372.853	1	39
373.195	1	34
373.537	1	35
373.879	1	29
374.220	1	32
374.562	1	28
374.904	1	17
375.246	1	21
375.588	1	10
375.929	1	12
376.271	1	23
376.613	1	23
376.955	1	19
377.296	1	15
377.638	1	13
377.980	1	12
378.321	1	15
378.663	1	14
379.005	1	4
379.347	1	18
379.688	1	13
380.030	1	14
380.372	1	13
380.714	1	18
381.055	1	10
381.397	1	15
381.739	1	5
382.080	1	8
382.422	1	8
382.764	1	12
383.105	1	15
383.447	1	13
383.789	1	24
384.130	1	4
384.472	1	1
384.814	1	18
385.156	1	3
385.497	1	25
385.839	1	-8
386.180	1	18
386.522	1	10
386.864	1	15
387.205	1	4
387.547	1	8
387.889	1	3
388.230	1	11
388.572	1	9
388.914	1	7
389.255	1	12
389.597	1	6
389.939	1	5
390.280	1	8
390.622	1	5
390.963	1	8
391.305	1	-4
391.647	1	-6
391.988	1	8
392.330	1	13
392.671	1	2
393.013	1	-3
393.355	1	9
393.696	1	3
394.038	1	-5
394.379	1	0
394.721	1	2
395.062	1	5
395.404	1	11
395.746	1	10
396.087	1	6
396.429	1	12
396.770	1	15
397.112	1	7
397.453	1	7
397.795	1	-6
398.136	1	11
398.478	1	1
398.819	1	-5
399.161	1	-5
399.503	1	7
399.844	1	-4
400.186	1	0
400.527	1	7
400.869	1	7
401.210	1	7
401.552	1	0
401.893	1	15
402.235	1	11
402.576	1	2
402.918	1	9
403.259	1	8
403.601	1	14
403.942	1	4
404.284	1	-5
404.625	1	3
404.967	1	4
405.308	1	4
405.649	1	5
405.991	1	4
406.332	1	-11
406.674	1	8
407.015	1	7
407.357	1	2
407.698	1	3
408.040	1	-6
408.381	1	2
408.722	1	-6
409.064	1	6
409.405	1	3
409.747	1	0
410.088	1	12
410.430	1	0
410.771	1	2
411.112	1	5
411.454	1	2
411.795	1	18
412.137	1	-5
412.478	1	2
412.819	1	-6
413.161	1	5
413.502	1	3
413.844	1	12
414.185	1	4
414.526	1	3
414.868	1	5
415.209	1	-9
415.550	1	1
415.892	1	-1
416.233	1	3
416.575	1	-3
416.916	1	0
417.257	1	-5
417.599	1	3
417.940	1	3
418.281	1	-5
418.623	1	-8
418.964	1	-4
419.305	1	4
419.647	1	10
419.988	1	-3
420.329	1	1
420.671	1	-10
421.012	1	-1
421.353	1	-6
421.695	1	-5
422.036	1	12
422.377	1	1
422.718	1	13
423.060	1	-5
423.401	1	3
423.742	1	-2
424.084	1	23
424.425	1	1
424.766	1	1
425.107	1	-2
425.449	1	5
425.790	1	4
426.131	1	12
426.472	1	2
426.814	1	-6
427.155	1	5
427.496	1	-1
427.837	1	3
428.179	1	9
428.520	1	4
428.861	1	10
429.202	1	-6
429.544	1	3
429.885	1	4
430.226	1	6
430.567	1	2
430.909	1	-1
431.250	1	15
431.591	1	-5
431.932	1	1
432.273	1	0
432.615	1	3
432.956	1	9
433.297	1	-4
433.638	1	7
433.979	1	3
434.320	1	6
434.662	1	-14
435.003	1	3
435.344	1	0
435.685	1	-9
436.026	1	5
436.368	1	3
436.709	1	-1
437.050	1	-6
437.391	1	1
437.732	1	6
438.073	1	-1
438.414	1	-1
438.756	1	8
439.097	1	17
439.438	1	-1
439.779	1	3
440.120	1	0
440.461	1	17
440.802	1	1
441.143	1	0
441.485	1	-3
441.826	1	3
442.167	1	6
442.508	1	-6
442.849	1	-2
443.190	1	9
443.531	1	-4
443.872	1	0
444.213	1	3
444.554	1	3
444.895	1	-13
445.237	1	-6
445.578	1	8
445.919	1	11
446.260	1	8
446.601	1	-6
446.942	1	5
447.283	1	19
447.624	1	4
447.965	1	6
448.306	1	-2
448.647	1	0
448.988	1	7
449.329	1	-3
449.670	1	-7
450.011	1	8
450.352	1	-2
450.693	1	-8
451.034	1	-3
451.375	1	0
451.716	1	-2
452.057	1	0
452.398	1	5
452.739	1	-1
453.080	1	-2
453.421	1	4
453.762	1	4
454.103	1	4
454.444	1	0
454.785	1	1
455.126	1	6
455.467	1	-4
455.808	1	10
456.149	1	4
456.490	1	12
456.831	1	0
457.172	1	-7
457.513	1	11
457.854	1	10
458.195	1	-8
458.536	1	1
458.877	1	8
459.218	1	-8
459.559	1	-7
459.899	1	-3
460.240	1	8
460.581	1	1
460.922	1	5
461.263	1	4
461.604	1	23
461.945	1	7
462.286	1	9
462.627	1	12
462.968	1	9
463.309	1	8
463.649	1	4
463.990	1	-13
464.331	1	-1
464.672	1	-2
465.013	1	16
465.354	1	-7
465.695	1	10
466.036	1	-3
466.376	1	0
466.717	1	6
467.058	1	7
467.399	1	10
467.740	1	1
468.081	1	0
468.422	1	4
468.762	1	11
469.103	1	7
469.444	1	0
469.785	1	-4
470.126	1	2
470.467	1	10
470.807	1	7
471.148	1	-5
471.489	1	9
471.830	1	-1
472.171	1	7
472.511	1	3
472.852	1	-2
473.193	1	10
473.534	1	7
473.875	1	9
474.215	1	-1
474.556	1	1
474.897	1	-5
475.238	1	-3
475.578	1	5
475.919	1	13
476.260	1	15
476.601	1	3
476.942	1	-3
477.282	1	5
477.623	1	8
477.964	1	5
478.305	1	-9
478.645	1	6
478.986	1	-2
479.327	1	-6
479.667	1	-7
480.008	1	10
480.349	1	8
480.690	1	5
481.030	1	3
481.371	1	-8
481.712	1	0
482.053	1	-3
482.393	1	-1
482.734	1	-3
483.075	1	4
483.415	1	10
483.756	1	10
484.097	1	2
484.437	1	3
484.778	1	-5
485.119	1	12
485.459	1	-2
485.800	1	-3
486.141	1	8
486.481	1	15
486.822	1	4
487.163	1	10
487.503	1	7
487.844	1	3
488.185	1	13
488.525	1	11
488.866	1	14
489.207	1	1
489.547	1	6
489.888	1	11
490.228	1	-8
490.569	1	5
490.910	1	4
491.250	1	5
491.591	1	-2
491.932	1	1
492.272	1	13
492.613	1	4
492.953	1	3
493.294	1	-2
493.635	1	7
493.975	1	3
494.316	1	-3
494.656	1	6
494.997	1	0
495.337	1	2
495.678	1	9
496.019	1	-14
496.359	1	6
496.700	1	6
497.040	1	2
497.381	1	3
497.721	1	-5
498.062	1	3
498.403	1	8
498.743	1	4
499.084	1	-2
499.424	1	8
499.765	1	2
500.105	1	-1
500.446	1	4
500.786	1	-1
501.127	1	5
501.467	1	0
501.808	1	-1
502.148	1	10
502.489	1	6
502.829	1	3
503.170	1	5
503.510	1	6
503.851	1	-2
504.191	1	3
504.532	1	-12
504.872	1	1
505.213	1	-1
505.553	1	7
505.894	1	22
506.234	1	-6
506.575	1	11
506.915	1	12
507.256	1	4
507.596	1	3
507.936	1	14
508.277	1	-3
508.617	1	5
508.958	1	8
509.298	1	1
509.639	1	11
509.979	1	14
510.319	1	-1
510.660	1	6
511.000	1	3
511.341	1	15
511.681	1	7
512.022	1	14
512.362	1	2
512.702	1	0
513.043	1	7
513.383	1	13
513.724	1	4
514.064	1	10
514.404	1	1
514.745	1	10
515.085	1	5
515.425	1	10
515.766	1	9
516.106	1	9
516.447	1	6
516.787	1	8
517.127	1	13
517.468	1	17
517.808	1	11
518.148	1	10
518.489	1	9
518.829	1	11
519.169	1	5
519.510	1	6
519.850	1	-2
520.190	1	6
520.531	1	10
520.871	1	2
521.211	1	7
521.552	1	12
521.892	1	12
522.232	1	-4
522.573	1	10
522.913	1	10
523.253	1	11
523.593	1	7
523.934	1	13
524.274	1	3
524.614	1	7
524.955	1	6
525.295	1	3
525.635	1	9
525.975	1	2
526.316	1	15
526.656	1	2
526.996	1	7
527.337	1	1
527.677	1	6
528.017	1	8
528.357	1	5
528.698	1	-10
529.038	1	1
529.378	1	-2
529.718	1	10
530.058	1	8
530.399	1	9
530.739	1	8
531.079	1	3
531.419	1	12
531.760	1	1
532.100	1	6
532.440	1	7
532.780	1	-4
533.120	1	12
533.461	1	5
533.801	1	8
534.141	1	-4
534.481	1	16
534.821	1	15
535.162	1	1
535.502	1	11
535.842	1	10
536.182	1	5
536.522	1	16
536.862	1	9
537.203	1	10
537.543	1	4
537.883	1	13
538.223	1	3
538.563	1	11
538.903	1	4
539.243	1	8
539.584	1	6
539.924	1	-13
540.264	1	14
540.604	1	4
540.944	1	2
541.284	1	9
541.624	1	-1
541.964	1	7
542.305	1	5
542.645	1	-1
542.985	1	11
543.325	1	10
543.665	1	13
544.005	1	19
544.345	1	1
544.685	1	10
545.025	1	0
545.365	1	2
545.705	1	10
546.045	1	-2
546.386	1	5
546.726	1	10
547.066	1	17
547.406	1	5
547.746	1	8
548.086	1	12
548.426	1	15
548.766	1	7
549.106	1	11
549.446	1	8
549.786	1	7
550.126	1	17
550.466	1	0
550.806	1	11
551.146	1	14
551.486	1	7
551.826	1	12
552.166	1	-2
552.506	1	6
552.846	1	6
553.186	1	3
553.526	1	2
553.866	1	-1
554.206	1	5
554.546	1	-4
554.886	1	7
555.226	1	2
555.566	1	5
555.906	1	5
556.246	1	9
556.586	1	-3
556.926	1	6
557.266	1	2
557.606	1	6
557.946	1	2
558.286	1	10
558.626	1	14
558.966	1	13
559.306	1	20
559.646	1	2
559.986	1	7
560.325	1	11
560.665	1	15
561.005	1	5
561.345	1	-7
561.685	1	2
562.025	1	-2
562.365	1	10
562.705	1	16
563.045	1	1
563.385	1	10
563.725	1	1
564.064	1	0
564.404	1	-5
564.744	1	6
565.084	1	6
565.424	1	0
565.764	1	11
566.104	1	6
566.444	1	3
566.783	1	16
567.123	1	6
567.463	1	1
567.803	1	0
568.143	1	-3
568.483	1	7
568.823	1	3
569.162	1	4
569.502	1	2
569.842	1	-5
570.182	1	2
570.522	1	1
570.862	1	5
571.201	1	8
571.541	1	-9
571.881	1	3
572.221	1	9
572.561	1	15
572.900	1	-1
573.240	1	6
573.580	1	-1
573.920	1	6
574.260	1	5
574.599	1	-1
574.939	1	-11
575.279	1	1
575.619	1	15
575.959	1	0
576.298	1	10
576.638	1	9
576.978	1	1
577.318	1	6
577.657	1	3
577.997	1	-3
578.337	1	6
578.677	1	10
579.016	1	4
579.356	1	8
579.696	1	4
580.036	1	5
580.375	1	7
580.715	1	4
581.055	1	11
581.394	1	8
581.734	1	10
582.074	1	7
582.414	1	12
582.753	1	7
583.093	1	3
583.433	1	15
583.772	1	-3
584.112	1	10
584.452	1	-3
584.791	1	2
585.131	1	22
585.471	1	16
585.811	1	0
586.150	1	3
586.490	1	9
586.830	1	-1
587.169	1	18
587.509	1	3
587.849	1	-1
588.188	1	4
588.528	1	-7
588.867	1	2
589.207	1	-1
589.547	1	11
589.886	1	-7
590.226	1	3
590.566	1	9
590.905	1	6
591.245	1	5
591.585	1	6
591.924	1	-2
592.264	1	-3
592.603	1	2
592.943	1	6
593.283	1	16
593.622	1	-7
593.962	1	6
594.301	1	4
594.641	1	6
594.981	1	7
595.320	1	0
595.660	1	6
595.999	1	12
596.339	1	3
596.678	1	-6
597.018	1	4
597.358	1	-8
597.697	1	6
598.037	1	-1
598.376	1	-4
598.716	1	2
599.055	1	4
599.395	1	5
599.734	1	10
600.074	1	-2
600.413	1	7
600.753	1	7
601.092	1	2
601.432	1	-7
601.771	1	-1
602.111	1	-12
602.451	1	4
602.790	1	8
603.130	1	-2
603.469	1	5
603.809	1	-2
604.148	1	14
604.487	1	3
604.827	1	2
605.166	1	9
605.506	1	-2
605.845	1	9
606.185	1	5
606.524	1	1
606.864	1	0
607.203	1	4
607.543	1	3
607.882	1	-1
608.222	1	5
608.561	1	1
608.901	1	5
609.240	1	-1
609.579	1	6
609.919	1	3
610.258	1	12
610.598	1	14
610.937	1	6
611.277	1	-1
611.616	1	3
611.955	1	5
612.295	1	1
612.634	1	-2
612.974	1	6
613.313	1	0
613.652	1	13
613.992	1	-2
614.331	1	5
614.671	1	10
615.010	1	5
615.349	1	4
615.689	1	16
616.028	1	-1
616.368	1	4
616.707	1	17
617.046	1	1
617.386	1	3
617.725	1	2
618.064	1	-6
618.404	1	4
618.743	1	1
619.082	1	10
619.422	1	-11
619.761	1	2
620.100	1	-4
620.440	1	7
620.779	1	2
621.118	1	-2
621.458	1	-6
621.797	1	4
622.136	1	3
622.476	1	0
622.815	1	-3
623.154	1	14
623.494	1	-7
623.833	1	8
624.172	1	8
624.511	1	2
624.851	1	6
625.190	1	3
625.529	1	8
625.869	1	13
626.208	1	3
626.547	1	0
626.886	1	5
627.226	1	6
627.565	1	10
627.904	1	2
628.243	1	-1
628.583	1	-11
628.922	1	-4
629.261	1	9
629.600	1	5
629.940	1	1
630.279	1	3
630.618	1	-1
630.957	1	4
631.297	1	4
631.636	1	15
631.975	1	-2
632.314	1	6
632.653	1	11
632.993	1	3
633.332	1	3
633.671	1	7
634.010	1	1
634.349	1	0
634.689	1	7
635.028	1	6
635.367	1	-6
635.706	1	-3
636.045	1	3
636.384	1	-11
636.724	1	8
637.063	1	7
637.402	1	6
637.741	1	4
638.080	1	7
638.419	1	-3
638.759	1	3
639.098	1	-4
639.437	1	-6
639.776	1	6
640.115	1	5
640.454	1	-1
640.793	1	-4
641.132	1	2
641.472	1	-2
641.811	1	13
642.150	1	-10
642.489	1	-1
642.828	1	0
643.167	1	-1
643.506	1	15
643.845	1	1
644.184	1	16
644.524	1	9
644.863	1	-7
645.202	1	8
645.541	1	7
645.880	1	8
646.219	1	-4
646.558	1	11
646.897	1	11
647.236	1	-6
647.575	1	-1
647.914	1	3
648.253	1	-2
648.592	1	6
648.931	1	8
649.270	1	0
649.610	1	1
649.949	1	-5
650.288	1	5
650.627	1	-2
650.966	1	7
651.305	1	1
651.644	1	8
651.983	1	-2
652.322	1	-6
652.661	1	0
653.000	1	-3
653.339	1	-10
653.678	1	6
654.017	1	8
654.356	1	2
654.695	1	11
655.034	1	2
655.373	1	-5
655.712	1	-6
656.051	1	-1
656.390	1	0
656.729	1	8
657.068	1	2
657.406	1	-2
657.745	1	8
658.084	1	1
658.423	1	3
658.762	1	-4
659.101	1	4
659.440	1	-1
659.779	1	4
660.118	1	0
660.457	1	8
660.796	1	-1
661.135	1	-8
661.474	1	11
661.813	1	-3
662.152	1	8
662.491	1	-6
662.829	1	0
663.168	1	3
663.507	1	6
663.846	1	4
664.185	1	7
664.524	1	11
664.863	1	-3
665.202	1	14
665.541	1	3
665.879	1	12
666.218	1	7
666.557	1	3
666.896	1	2
667.235	1	2
667.574	1	2
667.913	1	1
668.251	1	1
668.590	1	3
668.929	1	3
669.268	1	3
669.607	1	5
669.946	1	9
670.285	1	17
670.623	1	2
670.962	1	-8
671.301	1	0
671.640	1	5
671.979	1	3
672.317	1	6
672.656	1	-1
672.995	1	-4
673.334	1	-1
673.673	1	4
674.011	1	9
674.350	1	7
674.689	1	7
675.028	1	0
675.367	1	-5
675.705	1	9
676.044	1	12
676.383	1	7
676.722	1	15
677.060	1	0
677.399	1	-1
677.738	1	-3
678.077	1	18
678.416	1	3
678.754	1	7
679.093	1	9
679.432	1	6
679.771	1	3
680.109	1	-2
680.448	1	14
680.787	1	-4
681.125	1	-1
681.464	1	0
681.803	1	3
682.142	1	-7
682.480	1	10
682.819	1	11
683.158	1	0
683.496	1	5
683.835	1	0
684.174	1	-3
684.512	1	8
684.851	1	-6
685.190	1	-4
685.529	1	13
685.867	1	0
686.206	1	1
686.545	1	8
686.883	1	3
687.222	1	-4
687.561	1	2
687.899	1	1
688.238	1	-4
688.577	1	17
688.746	1	-12