File: Data/GaN_170K_550ms/GaN_sample D_spot 18_UVVIS_170 K_200um_550 ms 2x2mm1_75.txt
340.368	1	5
340.710	1	-2
341.052	1	9
341.394	1	5
341.737	1	-2
342.079	1	7
342.421	1	8
342.763	1	13
343.105	1	8
343.447	1	-4
343.789	1	15
344.131	1	2
344.473	1	-2
344.815	1	15
345.157	1	4
345.499	1	-5
345.841	1	14
346.183	1	5
346.526	1	8
346.868	1	13
347.210	1	2
347.552	1	12
347.894	1	3
348.236	1	4
348.578	1	5
348.920	1	3
349.262	1	6
349.604	1	23
349.946	1	8
350.288	1	2
350.630	1	17
350.972	1	-2
351.314	1	10
351.656	1	4
351.998	1	11
352.340	1	9
352.682	1	16
353.024	1	11
353.366	1	12
353.708	1	21
354.050	1	1
354.392	1	19
354.734	1	18
355.076	1	10
355.418	1	8
355.760	1	5
356.102	1	18
356.444	1	14
356.785	1	24
357.127	1	19
357.469	1	14
357.811	1	27
358.153	1	23
358.495	1	22
358.837	1	24
359.179	1	23
359.521	1	44
359.863	1	35
360.205	1	53
360.547	1	51
360.889	1	47
361.231	1	45
361.572	1	60
361.914	1	64
362.256	1	61
362.598	1	74
362.940	1	86
363.282	1	87
363.624	1	89
363.966	1	107
364.308	1	113
364.649	1	121
364.991	1	135
365.333	1	143
365.675	1	153
366.017	1	149
366.359	1	189
366.701	1	203
367.042	1	208
367.384	1	232
367.726	1	242
368.068	1	221
368.410	1	244
368.752	1	253
369.093	1	235
369.435	1	224
369.777	1	230
370.119	1	223
370.461	1	209
370.803	1	198
371.144	1	187
371.486	1	161
371.828	1	168
372.170	1	167
372.512	1	153
372.853	1	144
373.195	1	134
373.537	1	147
373.879	1	126
374.220	1	121
374.562	1	108
374.904	1	112
375.246	1	107
375.588	1	99
375.929	1	91
376.271	1	95
376.613	1	89
376.955	1	83
377.296	1	78
377.638	1	77
377.980	1	60
378.321	1	59
378.663	1	58
379.005	1	58
379.347	1	61
379.688	1	58
380.030	1	60
380.372	1	55
380.714	1	62
381.055	1	57
381.397	1	52
381.739	1	42
382.080	1	34
382.422	1	44
382.764	1	42
383.105	1	35
383.447	1	40
383.789	1	50
384.130	1	21
384.472	1	24
384.814	1	38
385.156	1	29
385.497	1	42
385.839	1	28
386.180	1	41
386.522	1	43
386.864	1	28
387.205	1	22
387.547	1	30
387.889	1	30
388.230	1	24
388.572	1	25
388.914	1	26
389.255	1	22
389.597	1	17
389.939	1	14
390.280	1	27
390.622	1	10
390.963	1	17
391.305	1	23
391.647	1	11
391.988	1	22
392.330	1	19
392.671	1	4
393.013	1	16
393.355	1	24
393.696	1	14
394.038	1	0
394.379	1	10
394.721	1	7
395.062	1	7
395.404	1	15
395.746	1	27
396.087	1	10
396.429	1	16
396.770	1	15
397.112	1	16
397.453	1	12
397.795	1	9
398.136	1	7
398.478	1	3
398.819	1	9
399.161	1	5
399.503	1	13
399.844	1	1
400.186	1	2
400.527	1	17
400.869	1	14
401.210	1	15
401.552	1	6
401.893	1	14
402.235	1	8
402.576	1	16
402.918	1	7
403.259	1	17
403.601	1	9
403.942	1	17
404.284	1	-1
404.625	1	9
404.967	1	14
405.308	1	16
405.649	1	17
405.991	1	5
406.332	1	-2
406.674	1	10
407.015	1	16
407.357	1	7
407.698	1	6
408.040	1	5
408.381	1	8
408.722	1	2
409.064	1	9
409.405	1	3
409.747	1	8
410.088	1	11
410.430	1	6
410.771	1	13
411.112	1	7
411.454	1	6
411.795	1	15
412.137	1	0
412.478	1	0
412.819	1	-1
413.161	1	12
413.502	1	6
413.844	1	13
414.185	1	9
414.526	1	9
414.868	1	3
415.209	1	-1
415.550	1	6
415.892	1	10
416.233	1	4
416.575	1	10
416.916	1	0
417.257	1	8
417.599	1	7
417.940	1	3
418.281	1	-5
418.623	1	3
418.964	1	-5
419.305	1	6
419.647	1	1
419.988	1	12
420.329	1	5
420.671	1	6
421.012	1	13
421.353	1	6
421.695	1	4
422.036	1	6
422.377	1	3
422.718	1	10
423.060	1	-3
423.401	1	1
423.742	1	5
424.084	1	20
424.425	1	2
424.766	1	4
425.107	1	2
425.449	1	14
425.790	1	14
426.131	1	13
426.472	1	-3
426.814	1	-8
427.155	1	23
427.496	1	6
427.837	1	13
428.179	1	9
428.520	1	0
428.861	1	-2
429.202	1	-1
429.544	1	0
429.885	1	3
430.226	1	7
430.567	1	7
430.909	1	3
431.250	1	13
431.591	1	3
431.932	1	-6
432.273	1	1
432.615	1	9
432.956	1	14
433.297	1	1
433.638	1	9
433.979	1	2
434.320	1	5
434.662	1	-4
435.003	1	9
435.344	1	6
435.685	1	8
436.026	1	0
436.368	1	7
436.709	1	-5
437.050	1	1
437.391	1	2
437.732	1	6
438.073	1	0
438.414	1	-3
438.756	1	-4
439.097	1	9
439.438	1	8
439.779	1	13
440.120	1	3
440.461	1	17
440.802	1	8
441.143	1	3
441.485	1	2
441.826	1	10
442.167	1	7
442.508	1	1
442.849	1	3
443.190	1	4
443.531	1	6
443.872	1	-3
444.213	1	4
444.554	1	5
444.895	1	-10
445.237	1	3
445.578	1	6
445.919	1	10
446.260	1	12
446.601	1	-4
446.942	1	6
447.283	1	10
447.624	1	8
447.965	1	3
448.306	1	2
448.647	1	3
448.988	1	6
449.329	1	0
449.670	1	-7
450.011	1	11
450.352	1	-7
450.693	1	7
451.034	1	4
451.375	1	1
451.716	1	8
452.057	1	-2
452.398	1	8
452.739	1	7
453.080	1	2
453.421	1	9
453.762	1	1
454.103	1	-2
454.444	1	-11
454.785	1	3
455.126	1	11
455.467	1	-9
455.808	1	15
456.149	1	-5
456.490	1	13
456.831	1	6
457.172	1	0
457.513	1	2
457.854	1	16
458.195	1	4
458.536	1	1
458.877	1	3
459.218	1	1
459.559	1	7
459.899	1	0
460.240	1	8
460.581	1	0
460.922	1	2
461.263	1	-1
461.604	1	11
461.945	1	10
462.286	1	1
462.627	1	7
462.968	1	17
463.309	1	12
463.649	1	6
463.990	1	-6
464.331	1	6
464.672	1	-7
465.013	1	18
465.354	1	0
465.695	1	-2
466.036	1	-6
466.376	1	8
466.717	1	3
467.058	1	0
467.399	1	8
467.740	1	-3
468.081	1	7
468.422	1	12
468.762	1	13
469.103	1	12
469.444	1	-5
469.785	1	4
470.126	1	16
470.467	1	3
470.807	1	3
471.148	1	-1
471.489	1	-1
471.830	1	-1
472.171	1	13
472.511	1	5
472.852	1	13
473.193	1	4
473.534	1	5
473.875	1	8
474.215	1	14
474.556	1	16
474.897	1	2
475.238	1	5
475.578	1	5
475.919	1	6
476.260	1	13
476.601	1	4
476.942	1	1
477.282	1	20
477.623	1	17
477.964	1	-2
478.305	1	-3
478.645	1	12
478.986	1	4
479.327	1	-6
479.667	1	10
480.008	1	15
480.349	1	11
480.690	1	9
481.030	1	19
481.371	1	-7
481.712	1	10
482.053	1	4
482.393	1	13
482.734	1	14
483.075	1	9
483.415	1	7
483.756	1	12
484.097	1	-11
484.437	1	9
484.778	1	1
485.119	1	15
485.459	1	2
485.800	1	4
486.141	1	15
486.481	1	15
486.822	1	5
487.163	1	16
487.503	1	4
487.844	1	22
488.185	1	11
488.525	1	14
488.866	1	10
489.207	1	13
489.547	1	24
489.888	1	14
490.228	1	9
490.569	1	14
490.910	1	8
491.250	1	23
491.591	1	7
491.932	1	11
492.272	1	24
492.613	1	19
492.953	1	6
493.294	1	11
493.635	1	13
493.975	1	17
494.316	1	17
494.656	1	16
494.997	1	2
495.337	1	18
495.678	1	16
496.019	1	2
496.359	1	26
496.700	1	20
497.040	1	23
497.381	1	24
497.721	1	12
498.062	1	19
498.403	1	19
498.743	1	20
499.084	1	18
499.424	1	22
499.765	1	10
500.105	1	15
500.446	1	17
500.786	1	24
501.127	1	26
501.467	1	21
501.808	1	26
502.148	1	20
502.489	1	25
502.829	1	17
503.170	1	22
503.510	1	23
503.851	1	18
504.191	1	18
504.532	1	6
504.872	1	21
505.213	1	20
505.553	1	27
505.894	1	28
506.234	1	16
506.575	1	34
506.915	1	18
507.256	1	28
507.596	1	30
507.936	1	40
508.277	1	19
508.617	1	31
508.958	1	29
509.298	1	31
509.639	1	32
509.979	1	31
510.319	1	23
510.660	1	14
511.000	1	33
511.341	1	42
511.681	1	22
512.022	1	33
512.362	1	27
512.702	1	28
513.043	1	24
513.383	1	34
513.724	1	22
514.064	1	41
514.404	1	25
514.745	1	21
515.085	1	29
515.425	1	48
515.766	1	32
516.106	1	26
516.447	1	25
516.787	1	42
517.127	1	28
517.468	1	37
517.808	1	46
518.148	1	46
518.489	1	35
518.829	1	42
519.169	1	40
519.510	1	40
519.850	1	30
520.190	1	38
520.531	1	35
520.871	1	28
521.211	1	35
521.552	1	42
521.892	1	37
522.232	1	28
522.573	1	42
522.913	1	34
523.253	1	42
523.593	1	35
523.934	1	38
524.274	1	40
524.614	1	45
524.955	1	31
525.295	1	34
525.635	1	41
525.975	1	35
526.316	1	43
526.656	1	45
526.996	1	46
527.337	1	27
527.677	1	33
528.017	1	33
528.357	1	26
528.698	1	26
529.038	1	34
529.378	1	43
529.718	1	48
530.058	1	44
530.399	1	39
530.739	1	33
531.079	1	38
531.419	1	39
531.760	1	46
532.100	1	29
532.440	1	44
532.780	1	34
533.120	1	48
533.461	1	32
533.801	1	39
534.141	1	23
534.481	1	44
534.821	1	43
535.162	1	37
535.502	1	31
535.842	1	42
536.182	1	27
536.522	1	40
536.862	1	36
537.203	1	30
537.543	1	24
537.883	1	34
538.223	1	33
538.563	1	36
538.903	1	39
539.243	1	37
539.584	1	35
539.924	1	32
540.264	1	40
540.604	1	31
540.944	1	26
541.284	1	37
541.624	1	34
541.964	1	32
542.305	1	31
542.645	1	30
542.985	1	37
543.325	1	46
543.665	1	45
544.005	1	39
544.345	1	36
544.685	1	35
545.025	1	32
545.365	1	35
545.705	1	34
546.045	1	42
546.386	1	33
546.726	1	21
547.066	1	35
547.406	1	31
547.746	1	31
548.086	1	27
548.426	1	40
548.766	1	33
549.106	1	32
549.446	1	32
549.786	1	27
550.126	1	40
550.466	1	31
550.806	1	33
551.146	1	24
551.486	1	25
551.826	1	41
552.166	1	36
552.506	1	24
552.846	1	36
553.186	1	38
553.526	1	27
553.866	1	17
554.206	1	32
554.546	1	16
554.886	1	22
555.226	1	17
555.566	1	33
555.906	1	15
556.246	1	22
556.586	1	29
556.926	1	18
557.266	1	19
557.606	1	21
557.946	1	29
558.286	1	35
558.626	1	31
558.966	1	26
559.306	1	39
559.646	1	17
559.986	1	17
560.325	1	16
560.665	1	19
561.005	1	24
561.345	1	17
561.685	1	18
562.025	1	14
562.365	1	19
562.705	1	30
563.045	1	26
563.385	1	26
563.725	1	16
564.064	1	27
564.404	1	20
564.744	1	20
565.084	1	25
565.424	1	24
565.764	1	22
566.104	1	20
566.444	1	18
566.783	1	22
567.123	1	14
567.463	1	15
567.803	1	17
568.143	1	22
568.483	1	22
568.823	1	11
569.162	1	18
569.502	1	16
569.842	1	4
570.182	1	13
570.522	1	15
570.862	1	24
571.201	1	17
571.541	1	14
571.881	1	7
572.221	1	19
572.561	1	25
572.900	1	11
573.240	1	13
573.580	1	10
573.920	1	27
574.260	1	7
574.599	1	25
574.939	1	9
575.279	1	12
575.619	1	22
575.959	1	9
576.298	1	25
576.638	1	20
576.978	1	16
577.318	1	21
577.657	1	23
577.997	1	9
578.337	1	20
578.677	1	17
579.016	1	26
579.356	1	8
579.696	1	4
580.036	1	9
580.375	1	11
580.715	1	24
581.055	1	13
581.394	1	20
581.734	1	14
582.074	1	20
582.414	1	2
582.753	1	5
583.093	1	13
583.433	1	12
583.772	1	11
584.112	1	13
584.452	1	-4
584.791	1	17
585.131	1	25
585.471	1	20
585.811	1	2
586.150	1	6
586.490	1	18
586.830	1	3
587.169	1	24
587.509	1	20
587.849	1	16
588.188	1	14
588.528	1	9
588.867	1	15
589.207	1	10
589.547	1	22
589.886	1	15
590.226	1	10
590.566	1	8
590.905	1	15
591.245	1	6
591.585	1	7
591.924	1	8
592.264	1	5
592.603	1	8
592.943	1	12
593.283	1	14
593.622	1	-6
593.962	1	3
594.301	1	17
594.641	1	12
594.981	1	20
595.320	1	6
595.660	1	5
595.999	1	9
596.339	1	15
596.678	1	7
597.018	1	10
597.358	1	5
597.697	1	5
598.037	1	13
598.376	1	4
598.716	1	10
599.055	1	6
599.395	1	7
599.734	1	9
600.074	1	4
600.413	1	5
600.753	1	15
601.092	1	6
601.432	1	5
601.771	1	18
602.111	1	14
602.451	1	19
602.790	1	23
603.130	1	4
603.469	1	12
603.809	1	8
604.148	1	13
604.487	1	15
604.827	1	2
605.166	1	14
605.506	1	4
605.845	1	6
606.185	1	9
606.524	1	10
606.864	1	4
607.203	1	15
607.543	1	15
607.882	1	7
608.222	1	16
608.561	1	15
608.901	1	16
609.240	1	12
609.579	1	16
609.919	1	10
610.258	1	13
610.598	1	15
610.937	1	7
611.277	1	16
611.616	1	6
611.955	1	10
612.295	1	5
612.634	1	4
612.974	1	4
613.313	1	7
613.652	1	18
613.992	1	3
614.331	1	4
614.671	1	9
615.010	1	5
615.349	1	17
615.689	1	7
616.028	1	9
616.368	1	7
616.707	1	14
617.046	1	11
617.386	1	6
617.725	1	18
618.064	1	14
618.404	1	2
618.743	1	5
619.082	1	11
619.422	1	6
619.761	1	-2
620.100	1	5
620.440	1	11
620.779	1	6
621.118	1	5
621.458	1	1
621.797	1	8
622.136	1	6
622.476	1	0
622.815	1	-4
623.154	1	1
623.494	1	4
623.833	1	15
624.172	1	6
624.511	1	18
624.851	1	4
625.190	1	3
625.529	1	17
625.869	1	18
626.208	1	12
626.547	1	1
626.886	1	5
627.226	1	0
627.565	1	7
627.904	1	9
628.243	1	1
628.583	1	2
628.922	1	3
629.261	1	10
629.600	1	7
629.940	1	5
630.279	1	1
630.618	1	-2
630.957	1	1
631.297	1	1
631.636	1	19
631.975	1	0
632.314	1	9
632.653	1	9
632.993	1	3
633.332	1	3
633.671	1	14
634.010	1	6
634.349	1	-3
634.689	1	10
635.028	1	10
635.367	1	4
635.706	1	5
636.045	1	7
636.384	1	3
636.724	1	21
637.063	1	8
637.402	1	8
637.741	1	-3
638.080	1	8
638.419	1	8
638.759	1	16
639.098	1	-5
639.437	1	-3
639.776	1	3
640.115	1	16
640.454	1	4
640.793	1	-2
641.132	1	5
641.472	1	-12
641.811	1	13
642.150	1	-1
642.489	1	14
642.828	1	11
643.167	1	3
643.506	1	15
643.845	1	10
644.184	1	13
644.524	1	4
644.863	1	-5
645.202	1	13
645.541	1	7
645.880	1	12
646.219	1	4
646.558	1	8
646.897	1	1
647.236	1	5
647.575	1	-1
647.914	1	3
648.253	1	9
648.592	1	5
648.931	1	9
649.270	1	5
649.610	1	16
649.949	1	6
650.288	1	5
650.627	1	5
650.966	1	10
651.305	1	-4
651.644	1	16
651.983	1	13
652.322	1	12
652.661	1	11
653.000	1	0
653.339	1	4
653.678	1	2
654.017	1	10
654.356	1	11
654.695	1	11
655.034	1	11
655.373	1	4
655.712	1	1
656.051	1	3
656.390	1	10
656.729	1	6
657.068	1	6
657.406	1	2
657.745	1	11
658.084	1	-9
658.423	1	3
658.762	1	10
659.101	1	2
659.440	1	6
659.779	1	16
660.118	1	7
660.457	1	14
660.796	1	2
661.135	1	1
661.474	1	5
661.813	1	-3
662.152	1	3
662.491	1	-3
662.829	1	5
663.168	1	4
663.507	1	11
663.846	1	1
664.185	1	12
664.524	1	8
664.863	1	6
665.202	1	16
665.541	1	9
665.879	1	11
666.218	1	23
666.557	1	11
666.896	1	3
667.235	1	-5
667.574	1	-7
667.913	1	-4
668.251	1	10
668.590	1	-4
668.929	1	10
669.268	1	-2
669.607	1	-2
669.946	1	10
670.285	1	12
670.623	1	6
670.962	1	-5
671.301	1	5
671.640	1	4
671.979	1	7
672.317	1	10
672.656	1	2
672.995	1	2
673.334	1	-3
673.673	1	-1
674.011	1	10
674.350	1	5
674.689	1	-1
675.028	1	-2
675.367	1	2
675.705	1	10
676.044	1	15
676.383	1	0
676.722	1	14
677.060	1	2
677.399	1	8
677.738	1	4
678.077	1	16
678.416	1	8
678.754	1	11
679.093	1	6
679.432	1	6
679.771	1	11
680.109	1	2
680.448	1	15
680.787	1	-3
681.125	1	7
681.464	1	15
681.803	1	1
682.142	1	11
682.480	1	9
682.819	1	14
683.158	1	0
683.496	1	10
683.835	1	-3
684.174	1	8
684.512	1	2
684.851	1	2
685.190	1	7
685.529	1	17
685.867	1	13
686.206	1	0
686.545	1	14
686.883	1	1
687.222	1	9
687.561	1	-1
687.899	1	1
688.238	1	6
688.577	1	19
688.746	1	2