File: Data/GaN_170K_550ms/GaN_sample D_spot 18_UVVIS_170 K_200um_550 ms 2x2mm1_385.txt
340.368	1	-3
340.710	1	-18
341.052	1	1
341.394	1	5
341.737	1	-10
342.079	1	2
342.421	1	-1
342.763	1	5
343.105	1	1
343.447	1	-8
343.789	1	2
344.131	1	2
344.473	1	0
344.815	1	3
345.157	1	-9
345.499	1	-2
345.841	1	-1
346.183	1	3
346.526	1	8
346.868	1	5
347.210	1	-15
347.552	1	12
347.894	1	-1
348.236	1	5
348.578	1	4
348.920	1	-4
349.262	1	-6
349.604	1	10
349.946	1	7
350.288	1	0
350.630	1	8
350.972	1	-7
351.314	1	2
351.656	1	-5
351.998	1	9
352.340	1	-2
352.682	1	1
353.024	1	-4
353.366	1	-1
353.708	1	-3
354.050	1	-5
354.392	1	-1
354.734	1	-1
355.076	1	-6
355.418	1	-1
355.760	1	-10
356.102	1	-2
356.444	1	-1
356.785	1	1
357.127	1	-1
357.469	1	-11
357.811	1	1
358.153	1	6
358.495	1	-6
358.837	1	2
359.179	1	-15
359.521	1	2
359.863	1	-1
360.205	1	5
360.547	1	3
360.889	1	-3
361.231	1	-2
361.572	1	4
361.914	1	-3
362.256	1	-1
362.598	1	1
362.940	1	7
363.282	1	8
363.624	1	-3
363.966	1	-7
364.308	1	-1
364.649	1	-12
364.991	1	7
365.333	1	-2
365.675	1	-1
366.017	1	-12
366.359	1	-5
366.701	1	1
367.042	1	-13
367.384	1	8
367.726	1	3
368.068	1	4
368.410	1	0
368.752	1	-7
369.093	1	-21
369.435	1	-7
369.777	1	6
370.119	1	-6
370.461	1	-1
370.803	1	-14
371.144	1	-6
371.486	1	-11
371.828	1	-2
372.170	1	1
372.512	1	-9
372.853	1	7
373.195	1	-6
373.537	1	8
373.879	1	2
374.220	1	7
374.562	1	-1
374.904	1	-12
375.246	1	-1
375.588	1	-2
375.929	1	8
376.271	1	2
376.613	1	-6
376.955	1	-1
377.296	1	-1
377.638	1	5
377.980	1	-8
378.321	1	-4
378.663	1	7
379.005	1	-8
379.347	1	-2
379.688	1	-4
380.030	1	1
380.372	1	2
380.714	1	1
381.055	1	-3
381.397	1	-2
381.739	1	-5
382.080	1	-8
382.422	1	2
382.764	1	-6
383.105	1	4
383.447	1	0
383.789	1	3
384.130	1	-7
384.472	1	-4
384.814	1	6
385.156	1	-1
385.497	1	3
385.839	1	0
386.180	1	11
386.522	1	-1
386.864	1	5
387.205	1	-13
387.547	1	3
387.889	1	10
388.230	1	-4
388.572	1	1
388.914	1	-4
389.255	1	2
389.597	1	1
389.939	1	-6
390.280	1	-6
390.622	1	-6
390.963	1	-5
391.305	1	-2
391.647	1	-8
391.988	1	-1
392.330	1	4
392.671	1	-11
393.013	1	-9
393.355	1	-1
393.696	1	-2
394.038	1	-3
394.379	1	-7
394.721	1	2
395.062	1	-1
395.404	1	6
395.746	1	4
396.087	1	0
396.429	1	4
396.770	1	2
397.112	1	3
397.453	1	-1
397.795	1	-2
398.136	1	-11
398.478	1	-2
398.819	1	5
399.161	1	-7
399.503	1	4
399.844	1	-10
400.186	1	0
400.527	1	9
400.869	1	2
401.210	1	-4
401.552	1	-1
401.893	1	11
402.235	1	-3
402.576	1	3
402.918	1	-5
403.259	1	3
403.601	1	-4
403.942	1	4
404.284	1	-9
404.625	1	-1
404.967	1	5
405.308	1	4
405.649	1	0
405.991	1	-2
406.332	1	-6
406.674	1	-3
407.015	1	0
407.357	1	-7
407.698	1	1
408.040	1	5
408.381	1	-6
408.722	1	0
409.064	1	-4
409.405	1	3
409.747	1	-1
410.088	1	6
410.430	1	-3
410.771	1	-1
411.112	1	-4
411.454	1	4
411.795	1	12
412.137	1	-5
412.478	1	-5
412.819	1	-15
413.161	1	1
413.502	1	2
413.844	1	3
414.185	1	-3
414.526	1	-1
414.868	1	-8
415.209	1	-11
415.550	1	-13
415.892	1	4
416.233	1	-1
416.575	1	1
416.916	1	-4
417.257	1	3
417.599	1	1
417.940	1	-2
418.281	1	-14
418.623	1	-2
418.964	1	-11
419.305	1	-5
419.647	1	0
419.988	1	-8
420.329	1	5
420.671	1	-6
421.012	1	4
421.353	1	-6
421.695	1	-8
422.036	1	5
422.377	1	10
422.718	1	2
423.060	1	-8
423.401	1	-2
423.742	1	-7
424.084	1	17
424.425	1	-12
424.766	1	-4
425.107	1	-3
425.449	1	-9
425.790	1	0
426.131	1	-3
426.472	1	-3
426.814	1	-11
427.155	1	10
427.496	1	-3
427.837	1	2
428.179	1	1
428.520	1	8
428.861	1	0
429.202	1	-7
429.544	1	-6
429.885	1	-4
430.226	1	-1
430.567	1	3
430.909	1	-3
431.250	1	12
431.591	1	-5
431.932	1	-6
432.273	1	-8
432.615	1	-5
432.956	1	2
433.297	1	-8
433.638	1	3
433.979	1	-5
434.320	1	4
434.662	1	-14
435.003	1	-1
435.344	1	-4
435.685	1	-11
436.026	1	-9
436.368	1	4
436.709	1	-6
437.050	1	-3
437.391	1	-12
437.732	1	7
438.073	1	-1
438.414	1	-11
438.756	1	-5
439.097	1	-6
439.438	1	3
439.779	1	0
440.120	1	0
440.461	1	13
440.802	1	5
441.143	1	1
441.485	1	0
441.826	1	2
442.167	1	-1
442.508	1	-4
442.849	1	0
443.190	1	4
443.531	1	9
443.872	1	2
444.213	1	-6
444.554	1	0
444.895	1	-20
445.237	1	-5
445.578	1	1
445.919	1	6
446.260	1	6
446.601	1	-10
446.942	1	-1
447.283	1	1
447.624	1	-1
447.965	1	-5
448.306	1	6
448.647	1	1
448.988	1	7
449.329	1	-1
449.670	1	-11
450.011	1	7
450.352	1	-7
450.693	1	-8
451.034	1	-6
451.375	1	4
451.716	1	1
452.057	1	-3
452.398	1	2
452.739	1	2
453.080	1	-8
453.421	1	2
453.762	1	-1
454.103	1	-8
454.444	1	-10
454.785	1	-6
455.126	1	4
455.467	1	-10
455.808	1	6
456.149	1	4
456.490	1	-4
456.831	1	-5
457.172	1	-7
457.513	1	1
457.854	1	3
458.195	1	-6
458.536	1	-1
458.877	1	-1
459.218	1	-4
459.559	1	-4
459.899	1	5
460.240	1	2
460.581	1	-2
460.922	1	-4
461.263	1	-8
461.604	1	6
461.945	1	-2
462.286	1	-6
462.627	1	3
462.968	1	-3
463.309	1	10
463.649	1	6
463.990	1	-2
464.331	1	2
464.672	1	2
465.013	1	11
465.354	1	-10
465.695	1	-2
466.036	1	-14
466.376	1	6
466.717	1	-2
467.058	1	2
467.399	1	2
467.740	1	1
468.081	1	-9
468.422	1	6
468.762	1	8
469.103	1	12
469.444	1	-6
469.785	1	-2
470.126	1	1
470.467	1	4
470.807	1	-3
471.148	1	-6
471.489	1	6
471.830	1	-4
472.171	1	11
472.511	1	4
472.852	1	6
473.193	1	2
473.534	1	-1
473.875	1	-10
474.215	1	0
474.556	1	0
474.897	1	-5
475.238	1	-12
475.578	1	-5
475.919	1	5
476.260	1	10
476.601	1	-3
476.942	1	-8
477.282	1	9
477.623	1	10
477.964	1	4
478.305	1	-12
478.645	1	3
478.986	1	-2
479.327	1	-14
479.667	1	-6
480.008	1	2
480.349	1	1
480.690	1	1
481.030	1	3
481.371	1	1
481.712	1	3
482.053	1	-16
482.393	1	-6
482.734	1	5
483.075	1	-3
483.415	1	-4
483.756	1	5
484.097	1	-5
484.437	1	-1
484.778	1	-10
485.119	1	5
485.459	1	-6
485.800	1	-4
486.141	1	9
486.481	1	0
486.822	1	4
487.163	1	-4
487.503	1	2
487.844	1	-6
488.185	1	0
488.525	1	4
488.866	1	2
489.207	1	1
489.547	1	10
489.888	1	2
490.228	1	-9
490.569	1	1
490.910	1	5
491.250	1	3
491.591	1	-5
491.932	1	1
492.272	1	-2
492.613	1	0
492.953	1	-3
493.294	1	-1
493.635	1	-9
493.975	1	3
494.316	1	-7
494.656	1	-1
494.997	1	-1
495.337	1	-2
495.678	1	4
496.019	1	-13
496.359	1	5
496.700	1	8
497.040	1	-2
497.381	1	2
497.721	1	-16
498.062	1	-8
498.403	1	-4
498.743	1	6
499.084	1	-6
499.424	1	2
499.765	1	-8
500.105	1	-15
500.446	1	-4
500.786	1	2
501.127	1	-6
501.467	1	1
501.808	1	-7
502.148	1	10
502.489	1	2
502.829	1	4
503.170	1	3
503.510	1	0
503.851	1	-10
504.191	1	-6
504.532	1	-10
504.872	1	0
505.213	1	2
505.553	1	-1
505.894	1	9
506.234	1	-7
506.575	1	3
506.915	1	1
507.256	1	-9
507.596	1	2
507.936	1	6
508.277	1	-6
508.617	1	3
508.958	1	-3
509.298	1	0
509.639	1	8
509.979	1	-7
510.319	1	-7
510.660	1	-12
511.000	1	5
511.341	1	2
511.681	1	-7
512.022	1	-3
512.362	1	-5
512.702	1	-5
513.043	1	-8
513.383	1	8
513.724	1	2
514.064	1	2
514.404	1	0
514.745	1	-12
515.085	1	1
515.425	1	-3
515.766	1	2
516.106	1	12
516.447	1	2
516.787	1	1
517.127	1	7
517.468	1	-2
517.808	1	7
518.148	1	5
518.489	1	6
518.829	1	-4
519.169	1	2
519.510	1	9
519.850	1	3
520.190	1	-2
520.531	1	-1
520.871	1	-4
521.211	1	-3
521.552	1	4
521.892	1	0
522.232	1	-13
522.573	1	-5
522.913	1	7
523.253	1	5
523.593	1	7
523.934	1	-1
524.274	1	-3
524.614	1	4
524.955	1	-10
525.295	1	-8
525.635	1	1
525.975	1	1
526.316	1	9
526.656	1	5
526.996	1	7
527.337	1	-6
527.677	1	4
528.017	1	-1
528.357	1	-1
528.698	1	-16
529.038	1	2
529.378	1	6
529.718	1	7
530.058	1	0
530.399	1	5
530.739	1	-2
531.079	1	1
531.419	1	4
531.760	1	5
532.100	1	-8
532.440	1	-1
532.780	1	-6
533.120	1	9
533.461	1	-3
533.801	1	-3
534.141	1	-6
534.481	1	-4
534.821	1	7
535.162	1	9
535.502	1	-2
535.842	1	7
536.182	1	-5
536.522	1	10
536.862	1	6
537.203	1	0
537.543	1	-6
537.883	1	5
538.223	1	-3
538.563	1	-1
538.903	1	1
539.243	1	-4
539.584	1	-2
539.924	1	1
540.264	1	5
540.604	1	-2
540.944	1	-5
541.284	1	-2
541.624	1	1
541.964	1	1
542.305	1	1
542.645	1	0
542.985	1	8
543.325	1	-7
543.665	1	6
544.005	1	12
544.345	1	-2
544.685	1	-2
545.025	1	-10
545.365	1	-6
545.705	1	-8
546.045	1	4
546.386	1	-4
546.726	1	1
547.066	1	-1
547.406	1	-4
547.746	1	-7
548.086	1	-3
548.426	1	7
548.766	1	7
549.106	1	7
549.446	1	-2
549.786	1	-11
550.126	1	4
550.466	1	1
550.806	1	-7
551.146	1	-4
551.486	1	-9
551.826	1	0
552.166	1	2
552.506	1	4
552.846	1	-4
553.186	1	2
553.526	1	-12
553.866	1	-11
554.206	1	1
554.546	1	-12
554.886	1	-5
555.226	1	-12
555.566	1	-6
555.906	1	-10
556.246	1	-3
556.586	1	-7
556.926	1	5
557.266	1	-4
557.606	1	7
557.946	1	-9
558.286	1	0
558.626	1	3
558.966	1	10
559.306	1	12
559.646	1	-9
559.986	1	3
560.325	1	-4
560.665	1	2
561.005	1	3
561.345	1	-7
561.685	1	-12
562.025	1	-1
562.365	1	-3
562.705	1	-2
563.045	1	-1
563.385	1	5
563.725	1	-3
564.064	1	-3
564.404	1	-6
564.744	1	0
565.084	1	5
565.424	1	-1
565.764	1	-1
566.104	1	3
566.444	1	1
566.783	1	-1
567.123	1	2
567.463	1	-5
567.803	1	-1
568.143	1	-9
568.483	1	-10
568.823	1	-4
569.162	1	8
569.502	1	-1
569.842	1	1
570.182	1	-6
570.522	1	-5
570.862	1	3
571.201	1	0
571.541	1	-3
571.881	1	-16
572.221	1	4
572.561	1	-3
572.900	1	-9
573.240	1	10
573.580	1	-2
573.920	1	17
574.260	1	7
574.599	1	2
574.939	1	8
575.279	1	-3
575.619	1	13
575.959	1	-11
576.298	1	5
576.638	1	-4
576.978	1	-7
577.318	1	-3
577.657	1	2
577.997	1	-8
578.337	1	1
578.677	1	5
579.016	1	1
579.356	1	-6
579.696	1	-3
580.036	1	-6
580.375	1	-6
580.715	1	1
581.055	1	1
581.394	1	-2
581.734	1	2
582.074	1	3
582.414	1	-3
582.753	1	1
583.093	1	9
583.433	1	0
583.772	1	-1
584.112	1	4
584.452	1	-14
584.791	1	-8
585.131	1	5
585.471	1	2
585.811	1	-11
586.150	1	-14
586.490	1	-2
586.830	1	-8
587.169	1	7
587.509	1	-6
587.849	1	-6
588.188	1	4
588.528	1	-2
588.867	1	9
589.207	1	-6
589.547	1	-2
589.886	1	-14
590.226	1	1
590.566	1	-4
590.905	1	3
591.245	1	-4
591.585	1	2
591.924	1	-3
592.264	1	-2
592.603	1	7
592.943	1	2
593.283	1	2
593.622	1	-2
593.962	1	8
594.301	1	4
594.641	1	-4
594.981	1	6
595.320	1	-7
595.660	1	-4
595.999	1	5
596.339	1	1
596.678	1	-10
597.018	1	-1
597.358	1	-16
597.697	1	1
598.037	1	-4
598.376	1	-4
598.716	1	-1
599.055	1	-3
599.395	1	2
599.734	1	10
600.074	1	4
600.413	1	-8
600.753	1	6
601.092	1	-1
601.432	1	-8
601.771	1	-4
602.111	1	-12
602.451	1	4
602.790	1	4
603.130	1	-4
603.469	1	-6
603.809	1	0
604.148	1	7
604.487	1	7
604.827	1	-4
605.166	1	14
605.506	1	-12
605.845	1	2
606.185	1	-3
606.524	1	-9
606.864	1	-11
607.203	1	-2
607.543	1	-1
607.882	1	1
608.222	1	1
608.561	1	3
608.901	1	4
609.240	1	-3
609.579	1	0
609.919	1	-6
610.258	1	8
610.598	1	2
610.937	1	-7
611.277	1	-4
611.616	1	-9
611.955	1	3
612.295	1	-4
612.634	1	0
612.974	1	-2
613.313	1	0
613.652	1	14
613.992	1	-7
614.331	1	-11
614.671	1	2
615.010	1	-3
615.349	1	10
615.689	1	2
616.028	1	5
616.368	1	3
616.707	1	6
617.046	1	-13
617.386	1	-3
617.725	1	7
618.064	1	-7
618.404	1	2
618.743	1	1
619.082	1	2
619.422	1	-6
619.761	1	-9
620.100	1	-1
620.440	1	-1
620.779	1	-3
621.118	1	-7
621.458	1	-3
621.797	1	0
622.136	1	-2
622.476	1	-10
622.815	1	-1
623.154	1	-1
623.494	1	-4
623.833	1	6
624.172	1	-8
624.511	1	6
624.851	1	-3
625.190	1	5
625.529	1	3
625.869	1	12
626.208	1	-2
626.547	1	-12
626.886	1	0
627.226	1	-1
627.565	1	7
627.904	1	-3
628.243	1	-9
628.583	1	-1
628.922	1	0
629.261	1	-1
629.600	1	-10
629.940	1	-1
630.279	1	4
630.618	1	3
630.957	1	6
631.297	1	-4
631.636	1	7
631.975	1	-8
632.314	1	9
632.653	1	3
632.993	1	-5
633.332	1	8
633.671	1	10
634.010	1	9
634.349	1	0
634.689	1	5
635.028	1	-2
635.367	1	-8
635.706	1	-7
636.045	1	14
636.384	1	-4
636.724	1	1
637.063	1	6
637.402	1	10
637.741	1	-3
638.080	1	4
638.419	1	-5
638.759	1	-6
639.098	1	-7
639.437	1	0
639.776	1	4
640.115	1	-1
640.454	1	-4
640.793	1	-6
641.132	1	-4
641.472	1	-8
641.811	1	5
642.150	1	-9
642.489	1	-14
642.828	1	7
643.167	1	2
643.506	1	4
643.845	1	-5
644.184	1	1
644.524	1	-2
644.863	1	-5
645.202	1	8
645.541	1	3
645.880	1	5
646.219	1	-9
646.558	1	6
646.897	1	1
647.236	1	3
647.575	1	-4
647.914	1	0
648.253	1	-5
648.592	1	-4
648.931	1	8
649.270	1	-6
649.610	1	-3
649.949	1	-9
650.288	1	5
650.627	1	-1
650.966	1	10
651.305	1	-8
651.644	1	11
651.983	1	4
652.322	1	-5
652.661	1	-3
653.000	1	-11
653.339	1	-2
653.678	1	10
654.017	1	1
654.356	1	2
654.695	1	-3
655.034	1	-3
655.373	1	-1
655.712	1	-3
656.051	1	3
656.390	1	-1
656.729	1	-2
657.068	1	6
657.406	1	1
657.745	1	-4
658.084	1	-2
658.423	1	-4
658.762	1	-4
659.101	1	-2
659.440	1	2
659.779	1	1
660.118	1	-1
660.457	1	4
660.796	1	-2
661.135	1	-10
661.474	1	2
661.813	1	-6
662.152	1	-3
662.491	1	-13
662.829	1	-6
663.168	1	2
663.507	1	1
663.846	1	-3
664.185	1	5
664.524	1	2
664.863	1	-4
665.202	1	6
665.541	1	2
665.879	1	9
666.218	1	10
666.557	1	-5
666.896	1	-4
667.235	1	-3
667.574	1	-2
667.913	1	-9
668.251	1	7
668.590	1	-6
668.929	1	6
669.268	1	-6
669.607	1	-5
669.946	1	-5
670.285	1	13
670.623	1	1
670.962	1	-9
671.301	1	-16
671.640	1	1
671.979	1	-1
672.317	1	1
672.656	1	-3
672.995	1	-6
673.334	1	-7
673.673	1	1
674.011	1	0
674.350	1	-3
674.689	1	-1
675.028	1	3
675.367	1	9
675.705	1	12
676.044	1	9
676.383	1	-8
676.722	1	7
677.060	1	-1
677.399	1	-5
677.738	1	0
678.077	1	16
678.416	1	-2
678.754	1	0
679.093	1	4
679.432	1	9
679.771	1	0
680.109	1	-8
680.448	1	-4
680.787	1	-2
681.125	1	1
681.464	1	6
681.803	1	5
682.142	1	-2
682.480	1	-8
682.819	1	9
683.158	1	-8
683.496	1	2
683.835	1	-1
684.174	1	1
684.512	1	-7
684.851	1	-8
685.190	1	-2
685.529	1	8
685.867	1	11
686.206	1	2
686.545	1	4
686.883	1	-1
687.222	1	-5
687.561	1	7
687.899	1	-5
688.238	1	-9
688.577	1	4
688.746	1	-4