File: Data/GaN_170K_550ms/GaN_sample D_spot 18_UVVIS_170 K_200um_550 ms 2x2mm1_63.txt
340.368	1	3
340.710	1	-3
341.052	1	15
341.394	1	2
341.737	1	-6
342.079	1	3
342.421	1	6
342.763	1	4
343.105	1	3
343.447	1	-5
343.789	1	8
344.131	1	9
344.473	1	1
344.815	1	15
345.157	1	4
345.499	1	0
345.841	1	11
346.183	1	19
346.526	1	9
346.868	1	5
347.210	1	-1
347.552	1	8
347.894	1	0
348.236	1	6
348.578	1	13
348.920	1	4
349.262	1	2
349.604	1	16
349.946	1	-1
350.288	1	4
350.630	1	21
350.972	1	-1
351.314	1	11
351.656	1	1
351.998	1	20
352.340	1	8
352.682	1	14
353.024	1	17
353.366	1	20
353.708	1	24
354.050	1	6
354.392	1	22
354.734	1	17
355.076	1	19
355.418	1	12
355.760	1	18
356.102	1	20
356.444	1	12
356.785	1	26
357.127	1	32
357.469	1	36
357.811	1	33
358.153	1	41
358.495	1	35
358.837	1	39
359.179	1	39
359.521	1	60
359.863	1	56
360.205	1	70
360.547	1	74
360.889	1	78
361.231	1	95
361.572	1	104
361.914	1	92
362.256	1	112
362.598	1	121
362.940	1	149
363.282	1	171
363.624	1	177
363.966	1	195
364.308	1	226
364.649	1	249
364.991	1	289
365.333	1	314
365.675	1	348
366.017	1	376
366.359	1	417
366.701	1	448
367.042	1	482
367.384	1	508
367.726	1	538
368.068	1	551
368.410	1	568
368.752	1	577
369.093	1	547
369.435	1	572
369.777	1	533
370.119	1	500
370.461	1	488
370.803	1	466
371.144	1	431
371.486	1	401
371.828	1	386
372.170	1	359
372.512	1	334
372.853	1	316
373.195	1	287
373.537	1	296
373.879	1	289
374.220	1	252
374.562	1	219
374.904	1	225
375.246	1	220
375.588	1	213
375.929	1	184
376.271	1	179
376.613	1	168
376.955	1	171
377.296	1	146
377.638	1	147
377.980	1	131
378.321	1	127
378.663	1	132
379.005	1	115
379.347	1	112
379.688	1	106
380.030	1	101
380.372	1	90
380.714	1	94
381.055	1	84
381.397	1	79
381.739	1	78
382.080	1	68
382.422	1	71
382.764	1	71
383.105	1	75
383.447	1	66
383.789	1	73
384.130	1	67
384.472	1	60
384.814	1	71
385.156	1	57
385.497	1	63
385.839	1	47
386.180	1	58
386.522	1	56
386.864	1	50
387.205	1	31
387.547	1	50
387.889	1	50
388.230	1	45
388.572	1	40
388.914	1	45
389.255	1	53
389.597	1	39
389.939	1	35
390.280	1	41
390.622	1	28
390.963	1	35
391.305	1	31
391.647	1	22
391.988	1	39
392.330	1	34
392.671	1	18
393.013	1	34
393.355	1	29
393.696	1	36
394.038	1	26
394.379	1	12
394.721	1	30
395.062	1	30
395.404	1	28
395.746	1	27
396.087	1	34
396.429	1	28
396.770	1	21
397.112	1	27
397.453	1	28
397.795	1	10
398.136	1	25
398.478	1	12
398.819	1	25
399.161	1	19
399.503	1	18
399.844	1	5
400.186	1	17
400.527	1	30
400.869	1	16
401.210	1	14
401.552	1	15
401.893	1	21
402.235	1	10
402.576	1	11
402.918	1	16
403.259	1	25
403.601	1	26
403.942	1	20
404.284	1	4
404.625	1	18
404.967	1	6
405.308	1	12
405.649	1	20
405.991	1	15
406.332	1	5
406.674	1	17
407.015	1	14
407.357	1	14
407.698	1	9
408.040	1	17
408.381	1	13
408.722	1	5
409.064	1	9
409.405	1	6
409.747	1	1
410.088	1	18
410.430	1	7
410.771	1	2
411.112	1	5
411.454	1	12
411.795	1	19
412.137	1	5
412.478	1	3
412.819	1	1
413.161	1	15
413.502	1	11
413.844	1	15
414.185	1	5
414.526	1	14
414.868	1	4
415.209	1	-10
415.550	1	6
415.892	1	17
416.233	1	9
416.575	1	6
416.916	1	7
417.257	1	14
417.599	1	1
417.940	1	17
418.281	1	0
418.623	1	10
418.964	1	-10
419.305	1	7
419.647	1	11
419.988	1	7
420.329	1	5
420.671	1	-2
421.012	1	5
421.353	1	12
421.695	1	-5
422.036	1	12
422.377	1	5
422.718	1	14
423.060	1	10
423.401	1	9
423.742	1	1
424.084	1	18
424.425	1	1
424.766	1	3
425.107	1	5
425.449	1	11
425.790	1	5
426.131	1	16
426.472	1	2
426.814	1	2
427.155	1	13
427.496	1	7
427.837	1	9
428.179	1	10
428.520	1	-3
428.861	1	14
429.202	1	1
429.544	1	14
429.885	1	12
430.226	1	12
430.567	1	15
430.909	1	2
431.250	1	15
431.591	1	2
431.932	1	2
432.273	1	1
432.615	1	11
432.956	1	11
433.297	1	6
433.638	1	14
433.979	1	9
434.320	1	8
434.662	1	-8
435.003	1	10
435.344	1	11
435.685	1	8
436.026	1	7
436.368	1	18
436.709	1	3
437.050	1	-1
437.391	1	-4
437.732	1	11
438.073	1	-3
438.414	1	4
438.756	1	-1
439.097	1	7
439.438	1	13
439.779	1	12
440.120	1	0
440.461	1	8
440.802	1	13
441.143	1	-3
441.485	1	12
441.826	1	10
442.167	1	7
442.508	1	8
442.849	1	-3
443.190	1	3
443.531	1	-2
443.872	1	3
444.213	1	7
444.554	1	3
444.895	1	-8
445.237	1	0
445.578	1	7
445.919	1	9
446.260	1	21
446.601	1	3
446.942	1	12
447.283	1	14
447.624	1	2
447.965	1	-5
448.306	1	1
448.647	1	8
448.988	1	14
449.329	1	4
449.670	1	1
450.011	1	12
450.352	1	2
450.693	1	4
451.034	1	3
451.375	1	7
451.716	1	2
452.057	1	10
452.398	1	16
452.739	1	12
453.080	1	5
453.421	1	8
453.762	1	-6
454.103	1	4
454.444	1	9
454.785	1	3
455.126	1	14
455.467	1	-7
455.808	1	16
456.149	1	12
456.490	1	10
456.831	1	7
457.172	1	6
457.513	1	19
457.854	1	13
458.195	1	0
458.536	1	6
458.877	1	2
459.218	1	14
459.559	1	10
459.899	1	4
460.240	1	1
460.581	1	10
460.922	1	10
461.263	1	8
461.604	1	14
461.945	1	8
462.286	1	-1
462.627	1	8
462.968	1	15
463.309	1	23
463.649	1	6
463.990	1	4
464.331	1	11
464.672	1	4
465.013	1	15
465.354	1	-3
465.695	1	12
466.036	1	2
466.376	1	3
466.717	1	6
467.058	1	3
467.399	1	16
467.740	1	7
468.081	1	3
468.422	1	17
468.762	1	15
469.103	1	15
469.444	1	11
469.785	1	0
470.126	1	16
470.467	1	13
470.807	1	4
471.148	1	3
471.489	1	14
471.830	1	8
472.171	1	17
472.511	1	9
472.852	1	7
473.193	1	14
473.534	1	14
473.875	1	12
474.215	1	7
474.556	1	11
474.897	1	11
475.238	1	6
475.578	1	8
475.919	1	13
476.260	1	12
476.601	1	4
476.942	1	9
477.282	1	23
477.623	1	14
477.964	1	10
478.305	1	8
478.645	1	8
478.986	1	4
479.327	1	0
479.667	1	11
480.008	1	14
480.349	1	11
480.690	1	9
481.030	1	16
481.371	1	5
481.712	1	16
482.053	1	5
482.393	1	8
482.734	1	22
483.075	1	14
483.415	1	16
483.756	1	16
484.097	1	13
484.437	1	17
484.778	1	14
485.119	1	17
485.459	1	11
485.800	1	8
486.141	1	31
486.481	1	18
486.822	1	15
487.163	1	17
487.503	1	19
487.844	1	19
488.185	1	18
488.525	1	28
488.866	1	34
489.207	1	28
489.547	1	22
489.888	1	25
490.228	1	13
490.569	1	33
490.910	1	18
491.250	1	23
491.591	1	27
491.932	1	32
492.272	1	19
492.613	1	32
492.953	1	25
493.294	1	30
493.635	1	27
493.975	1	37
494.316	1	16
494.656	1	23
494.997	1	32
495.337	1	31
495.678	1	37
496.019	1	22
496.359	1	26
496.700	1	35
497.040	1	33
497.381	1	29
497.721	1	24
498.062	1	28
498.403	1	41
498.743	1	44
499.084	1	36
499.424	1	37
499.765	1	23
500.105	1	38
500.446	1	35
500.786	1	31
501.127	1	42
501.467	1	32
501.808	1	37
502.148	1	50
502.489	1	37
502.829	1	51
503.170	1	48
503.510	1	47
503.851	1	49
504.191	1	36
504.532	1	42
504.872	1	49
505.213	1	50
505.553	1	44
505.894	1	60
506.234	1	41
506.575	1	51
506.915	1	54
507.256	1	44
507.596	1	55
507.936	1	48
508.277	1	49
508.617	1	52
508.958	1	54
509.298	1	56
509.639	1	64
509.979	1	58
510.319	1	48
510.660	1	57
511.000	1	56
511.341	1	54
511.681	1	52
512.022	1	52
512.362	1	58
512.702	1	44
513.043	1	52
513.383	1	62
513.724	1	45
514.064	1	53
514.404	1	44
514.745	1	54
515.085	1	78
515.425	1	51
515.766	1	59
516.106	1	70
516.447	1	60
516.787	1	61
517.127	1	61
517.468	1	64
517.808	1	60
518.148	1	59
518.489	1	68
518.829	1	67
519.169	1	65
519.510	1	70
519.850	1	56
520.190	1	56
520.531	1	70
520.871	1	56
521.211	1	62
521.552	1	61
521.892	1	72
522.232	1	59
522.573	1	64
522.913	1	75
523.253	1	73
523.593	1	66
523.934	1	64
524.274	1	66
524.614	1	72
524.955	1	61
525.295	1	70
525.635	1	73
525.975	1	61
526.316	1	73
526.656	1	71
526.996	1	68
527.337	1	61
527.677	1	69
528.017	1	79
528.357	1	62
528.698	1	65
529.038	1	70
529.378	1	71
529.718	1	84
530.058	1	83
530.399	1	76
530.739	1	72
531.079	1	79
531.419	1	87
531.760	1	83
532.100	1	72
532.440	1	72
532.780	1	70
533.120	1	72
533.461	1	66
533.801	1	66
534.141	1	67
534.481	1	82
534.821	1	62
535.162	1	67
535.502	1	73
535.842	1	65
536.182	1	60
536.522	1	68
536.862	1	72
537.203	1	63
537.543	1	61
537.883	1	62
538.223	1	62
538.563	1	66
538.903	1	73
539.243	1	60
539.584	1	56
539.924	1	48
540.264	1	66
540.604	1	57
540.944	1	69
541.284	1	60
541.624	1	59
541.964	1	67
542.305	1	61
542.645	1	52
542.985	1	69
543.325	1	56
543.665	1	58
544.005	1	65
544.345	1	55
544.685	1	62
545.025	1	69
545.365	1	55
545.705	1	71
546.045	1	68
546.386	1	59
546.726	1	63
547.066	1	75
547.406	1	59
547.746	1	61
548.086	1	66
548.426	1	66
548.766	1	72
549.106	1	64
549.446	1	72
549.786	1	72
550.126	1	62
550.466	1	56
550.806	1	61
551.146	1	68
551.486	1	58
551.826	1	65
552.166	1	52
552.506	1	69
552.846	1	50
553.186	1	58
553.526	1	56
553.866	1	52
554.206	1	62
554.546	1	49
554.886	1	57
555.226	1	48
555.566	1	51
555.906	1	43
556.246	1	47
556.586	1	49
556.926	1	48
557.266	1	51
557.606	1	49
557.946	1	51
558.286	1	45
558.626	1	67
558.966	1	52
559.306	1	54
559.646	1	53
559.986	1	53
560.325	1	55
560.665	1	50
561.005	1	47
561.345	1	47
561.685	1	42
562.025	1	37
562.365	1	45
562.705	1	50
563.045	1	45
563.385	1	52
563.725	1	37
564.064	1	52
564.404	1	39
564.744	1	47
565.084	1	46
565.424	1	50
565.764	1	36
566.104	1	43
566.444	1	46
566.783	1	43
567.123	1	44
567.463	1	42
567.803	1	43
568.143	1	35
568.483	1	37
568.823	1	41
569.162	1	39
569.502	1	45
569.842	1	38
570.182	1	33
570.522	1	42
570.862	1	46
571.201	1	48
571.541	1	27
571.881	1	41
572.221	1	41
572.561	1	41
572.900	1	29
573.240	1	39
573.580	1	33
573.920	1	47
574.260	1	43
574.599	1	24
574.939	1	30
575.279	1	32
575.619	1	39
575.959	1	28
576.298	1	45
576.638	1	40
576.978	1	33
577.318	1	32
577.657	1	42
577.997	1	31
578.337	1	41
578.677	1	41
579.016	1	33
579.356	1	29
579.696	1	23
580.036	1	34
580.375	1	43
580.715	1	36
581.055	1	40
581.394	1	35
581.734	1	38
582.074	1	33
582.414	1	30
582.753	1	37
583.093	1	45
583.433	1	36
583.772	1	26
584.112	1	30
584.452	1	24
584.791	1	31
585.131	1	36
585.471	1	35
585.811	1	16
586.150	1	19
586.490	1	27
586.830	1	26
587.169	1	30
587.509	1	31
587.849	1	21
588.188	1	22
588.528	1	31
588.867	1	25
589.207	1	13
589.547	1	26
589.886	1	18
590.226	1	24
590.566	1	19
590.905	1	30
591.245	1	25
591.585	1	20
591.924	1	11
592.264	1	7
592.603	1	19
592.943	1	24
593.283	1	23
593.622	1	12
593.962	1	18
594.301	1	27
594.641	1	24
594.981	1	33
595.320	1	16
595.660	1	14
595.999	1	23
596.339	1	23
596.678	1	11
597.018	1	23
597.358	1	12
597.697	1	18
598.037	1	23
598.376	1	14
598.716	1	21
599.055	1	15
599.395	1	13
599.734	1	33
600.074	1	14
600.413	1	12
600.753	1	23
601.092	1	11
601.432	1	11
601.771	1	27
602.111	1	12
602.451	1	21
602.790	1	29
603.130	1	9
603.469	1	13
603.809	1	20
604.148	1	12
604.487	1	24
604.827	1	4
605.166	1	23
605.506	1	29
605.845	1	22
606.185	1	15
606.524	1	17
606.864	1	12
607.203	1	23
607.543	1	23
607.882	1	20
608.222	1	17
608.561	1	28
608.901	1	15
609.240	1	17
609.579	1	17
609.919	1	16
610.258	1	26
610.598	1	19
610.937	1	8
611.277	1	19
611.616	1	22
611.955	1	23
612.295	1	3
612.634	1	13
612.974	1	13
613.313	1	11
613.652	1	22
613.992	1	16
614.331	1	11
614.671	1	29
615.010	1	26
615.349	1	22
615.689	1	30
616.028	1	-1
616.368	1	13
616.707	1	21
617.046	1	8
617.386	1	4
617.725	1	10
618.064	1	12
618.404	1	21
618.743	1	11
619.082	1	16
619.422	1	6
619.761	1	14
620.100	1	12
620.440	1	20
620.779	1	23
621.118	1	7
621.458	1	16
621.797	1	18
622.136	1	18
622.476	1	5
622.815	1	4
623.154	1	15
623.494	1	14
623.833	1	19
624.172	1	10
624.511	1	9
624.851	1	16
625.190	1	19
625.529	1	24
625.869	1	21
626.208	1	16
626.547	1	2
626.886	1	23
627.226	1	21
627.565	1	11
627.904	1	8
628.243	1	5
628.583	1	-9
628.922	1	2
629.261	1	12
629.600	1	12
629.940	1	11
630.279	1	12
630.618	1	9
630.957	1	16
631.297	1	12
631.636	1	17
631.975	1	16
632.314	1	18
632.653	1	15
632.993	1	9
633.332	1	20
633.671	1	13
634.010	1	18
634.349	1	1
634.689	1	15
635.028	1	17
635.367	1	8
635.706	1	6
636.045	1	16
636.384	1	1
636.724	1	16
637.063	1	7
637.402	1	15
637.741	1	6
638.080	1	14
638.419	1	5
638.759	1	12
639.098	1	6
639.437	1	-3
639.776	1	13
640.115	1	11
640.454	1	12
640.793	1	9
641.132	1	12
641.472	1	6
641.811	1	28
642.150	1	-1
642.489	1	4
642.828	1	8
643.167	1	5
643.506	1	20
643.845	1	23
644.184	1	20
644.524	1	11
644.863	1	-2
645.202	1	15
645.541	1	11
645.880	1	18
646.219	1	5
646.558	1	7
646.897	1	22
647.236	1	5
647.575	1	1
647.914	1	10
648.253	1	6
648.592	1	7
648.931	1	14
649.270	1	9
649.610	1	15
649.949	1	0
650.288	1	2
650.627	1	0
650.966	1	9
651.305	1	1
651.644	1	16
651.983	1	5
652.322	1	10
652.661	1	6
653.000	1	1
653.339	1	16
653.678	1	11
654.017	1	14
654.356	1	4
654.695	1	22
655.034	1	5
655.373	1	14
655.712	1	-1
656.051	1	12
656.390	1	1
656.729	1	13
657.068	1	12
657.406	1	8
657.745	1	12
658.084	1	0
658.423	1	9
658.762	1	8
659.101	1	3
659.440	1	11
659.779	1	11
660.118	1	14
660.457	1	9
660.796	1	7
661.135	1	-2
661.474	1	15
661.813	1	8
662.152	1	8
662.491	1	2
662.829	1	10
663.168	1	18
663.507	1	5
663.846	1	14
664.185	1	10
664.524	1	6
664.863	1	9
665.202	1	16
665.541	1	13
665.879	1	1
666.218	1	9
666.557	1	12
666.896	1	6
667.235	1	4
667.574	1	-3
667.913	1	11
668.251	1	16
668.590	1	8
668.929	1	19
669.268	1	4
669.607	1	9
669.946	1	19
670.285	1	21
670.623	1	11
670.962	1	4
671.301	1	11
671.640	1	21
671.979	1	4
672.317	1	9
672.656	1	9
672.995	1	3
673.334	1	5
673.673	1	12
674.011	1	13
674.350	1	5
674.689	1	-4
675.028	1	6
675.367	1	3
675.705	1	19
676.044	1	22
676.383	1	22
676.722	1	15
677.060	1	1
677.399	1	16
677.738	1	11
678.077	1	25
678.416	1	7
678.754	1	9
679.093	1	7
679.432	1	9
679.771	1	13
680.109	1	3
680.448	1	12
680.787	1	-6
681.125	1	14
681.464	1	13
681.803	1	12
682.142	1	10
682.480	1	12
682.819	1	15
683.158	1	-3
683.496	1	19
683.835	1	11
684.174	1	11
684.512	1	9
684.851	1	3
685.190	1	7
685.529	1	14
685.867	1	11
686.206	1	12
686.545	1	17
686.883	1	7
687.222	1	8
687.561	1	16
687.899	1	5
688.238	1	13
688.577	1	19
688.746	1	12