File: Data/GaN_170K_550ms/GaN_sample D_spot 18_UVVIS_170 K_200um_550 ms 2x2mm1_149.txt
340.368	1	-2
340.710	1	-10
341.052	1	-2
341.394	1	-5
341.737	1	-5
342.079	1	-5
342.421	1	2
342.763	1	4
343.105	1	3
343.447	1	2
343.789	1	0
344.131	1	1
344.473	1	-3
344.815	1	13
345.157	1	1
345.499	1	2
345.841	1	4
346.183	1	4
346.526	1	6
346.868	1	7
347.210	1	6
347.552	1	6
347.894	1	4
348.236	1	-3
348.578	1	5
348.920	1	6
349.262	1	5
349.604	1	9
349.946	1	6
350.288	1	4
350.630	1	8
350.972	1	-10
351.314	1	6
351.656	1	0
351.998	1	12
352.340	1	7
352.682	1	14
353.024	1	4
353.366	1	7
353.708	1	5
354.050	1	2
354.392	1	-4
354.734	1	11
355.076	1	6
355.418	1	-8
355.760	1	5
356.102	1	5
356.444	1	3
356.785	1	2
357.127	1	-2
357.469	1	3
357.811	1	11
358.153	1	11
358.495	1	4
358.837	1	11
359.179	1	4
359.521	1	10
359.863	1	13
360.205	1	20
360.547	1	12
360.889	1	17
361.231	1	5
361.572	1	23
361.914	1	15
362.256	1	12
362.598	1	20
362.940	1	22
363.282	1	22
363.624	1	14
363.966	1	5
364.308	1	19
364.649	1	21
364.991	1	35
365.333	1	26
365.675	1	27
366.017	1	23
366.359	1	25
366.701	1	35
367.042	1	25
367.384	1	42
367.726	1	42
368.068	1	40
368.410	1	48
368.752	1	38
369.093	1	27
369.435	1	25
369.777	1	43
370.119	1	32
370.461	1	47
370.803	1	27
371.144	1	32
371.486	1	25
371.828	1	29
372.170	1	35
372.512	1	33
372.853	1	33
373.195	1	30
373.537	1	45
373.879	1	26
374.220	1	40
374.562	1	32
374.904	1	16
375.246	1	11
375.588	1	21
375.929	1	21
376.271	1	13
376.613	1	25
376.955	1	28
377.296	1	14
377.638	1	14
377.980	1	9
378.321	1	10
378.663	1	16
379.005	1	9
379.347	1	8
379.688	1	10
380.030	1	15
380.372	1	15
380.714	1	19
381.055	1	5
381.397	1	17
381.739	1	5
382.080	1	12
382.422	1	5
382.764	1	9
383.105	1	11
383.447	1	19
383.789	1	19
384.130	1	9
384.472	1	1
384.814	1	4
385.156	1	-2
385.497	1	16
385.839	1	2
386.180	1	13
386.522	1	10
386.864	1	16
387.205	1	6
387.547	1	6
387.889	1	6
388.230	1	2
388.572	1	4
388.914	1	2
389.255	1	14
389.597	1	5
389.939	1	-2
390.280	1	6
390.622	1	2
390.963	1	0
391.305	1	0
391.647	1	-1
391.988	1	5
392.330	1	10
392.671	1	-8
393.013	1	4
393.355	1	8
393.696	1	13
394.038	1	-9
394.379	1	0
394.721	1	6
395.062	1	4
395.404	1	6
395.746	1	2
396.087	1	6
396.429	1	1
396.770	1	7
397.112	1	3
397.453	1	4
397.795	1	0
398.136	1	7
398.478	1	4
398.819	1	4
399.161	1	1
399.503	1	3
399.844	1	-6
400.186	1	0
400.527	1	18
400.869	1	18
401.210	1	7
401.552	1	8
401.893	1	5
402.235	1	6
402.576	1	-4
402.918	1	11
403.259	1	5
403.601	1	10
403.942	1	11
404.284	1	-6
404.625	1	3
404.967	1	3
405.308	1	0
405.649	1	3
405.991	1	11
406.332	1	-15
406.674	1	9
407.015	1	15
407.357	1	4
407.698	1	12
408.040	1	3
408.381	1	0
408.722	1	1
409.064	1	-2
409.405	1	3
409.747	1	-4
410.088	1	9
410.430	1	-1
410.771	1	1
411.112	1	-6
411.454	1	3
411.795	1	13
412.137	1	-4
412.478	1	-4
412.819	1	-7
413.161	1	1
413.502	1	5
413.844	1	13
414.185	1	5
414.526	1	3
414.868	1	-4
415.209	1	-10
415.550	1	-1
415.892	1	18
416.233	1	8
416.575	1	-2
416.916	1	3
417.257	1	1
417.599	1	-5
417.940	1	-1
418.281	1	-6
418.623	1	2
418.964	1	-2
419.305	1	1
419.647	1	7
419.988	1	5
420.329	1	10
420.671	1	-4
421.012	1	3
421.353	1	1
421.695	1	-3
422.036	1	4
422.377	1	11
422.718	1	8
423.060	1	-7
423.401	1	-5
423.742	1	9
424.084	1	17
424.425	1	-5
424.766	1	0
425.107	1	0
425.449	1	1
425.790	1	0
426.131	1	10
426.472	1	-1
426.814	1	-4
427.155	1	6
427.496	1	-3
427.837	1	8
428.179	1	5
428.520	1	1
428.861	1	4
429.202	1	-4
429.544	1	2
429.885	1	4
430.226	1	6
430.567	1	6
430.909	1	1
431.250	1	12
431.591	1	1
431.932	1	-8
432.273	1	4
432.615	1	0
432.956	1	6
433.297	1	7
433.638	1	1
433.979	1	6
434.320	1	2
434.662	1	-6
435.003	1	11
435.344	1	-1
435.685	1	7
436.026	1	0
436.368	1	11
436.709	1	6
437.050	1	-1
437.391	1	-14
437.732	1	8
438.073	1	-6
438.414	1	-10
438.756	1	-6
439.097	1	9
439.438	1	1
439.779	1	1
440.120	1	-4
440.461	1	16
440.802	1	15
441.143	1	3
441.485	1	-1
441.826	1	9
442.167	1	8
442.508	1	-1
442.849	1	-3
443.190	1	1
443.531	1	4
443.872	1	0
444.213	1	0
444.554	1	2
444.895	1	-15
445.237	1	-11
445.578	1	10
445.919	1	3
446.260	1	3
446.601	1	-7
446.942	1	-2
447.283	1	4
447.624	1	-11
447.965	1	0
448.306	1	-2
448.647	1	-2
448.988	1	8
449.329	1	3
449.670	1	-8
450.011	1	11
450.352	1	3
450.693	1	7
451.034	1	1
451.375	1	8
451.716	1	6
452.057	1	-2
452.398	1	-1
452.739	1	6
453.080	1	-3
453.421	1	6
453.762	1	4
454.103	1	-4
454.444	1	-5
454.785	1	0
455.126	1	11
455.467	1	-17
455.808	1	1
456.149	1	11
456.490	1	4
456.831	1	-1
457.172	1	-11
457.513	1	5
457.854	1	6
458.195	1	2
458.536	1	8
458.877	1	0
459.218	1	-6
459.559	1	0
459.899	1	2
460.240	1	3
460.581	1	6
460.922	1	-9
461.263	1	-3
461.604	1	5
461.945	1	7
462.286	1	1
462.627	1	-2
462.968	1	8
463.309	1	2
463.649	1	9
463.990	1	-5
464.331	1	6
464.672	1	-5
465.013	1	6
465.354	1	5
465.695	1	-1
466.036	1	-10
466.376	1	0
466.717	1	1
467.058	1	3
467.399	1	11
467.740	1	4
468.081	1	-5
468.422	1	6
468.762	1	2
469.103	1	14
469.444	1	2
469.785	1	-3
470.126	1	-3
470.467	1	4
470.807	1	6
471.148	1	-5
471.489	1	1
471.830	1	-2
472.171	1	9
472.511	1	-2
472.852	1	13
473.193	1	4
473.534	1	3
473.875	1	2
474.215	1	5
474.556	1	10
474.897	1	0
475.238	1	-3
475.578	1	2
475.919	1	6
476.260	1	13
476.601	1	6
476.942	1	-1
477.282	1	9
477.623	1	10
477.964	1	8
478.305	1	-8
478.645	1	7
478.986	1	3
479.327	1	-4
479.667	1	3
480.008	1	7
480.349	1	4
480.690	1	7
481.030	1	3
481.371	1	2
481.712	1	5
482.053	1	0
482.393	1	-2
482.734	1	7
483.075	1	6
483.415	1	5
483.756	1	1
484.097	1	-13
484.437	1	0
484.778	1	-2
485.119	1	13
485.459	1	2
485.800	1	2
486.141	1	7
486.481	1	-2
486.822	1	0
487.163	1	12
487.503	1	6
487.844	1	6
488.185	1	0
488.525	1	17
488.866	1	0
489.207	1	6
489.547	1	7
489.888	1	2
490.228	1	-4
490.569	1	6
490.910	1	11
491.250	1	1
491.591	1	3
491.932	1	10
492.272	1	10
492.613	1	11
492.953	1	0
493.294	1	4
493.635	1	-3
493.975	1	11
494.316	1	10
494.656	1	-1
494.997	1	1
495.337	1	18
495.678	1	3
496.019	1	1
496.359	1	13
496.700	1	9
497.040	1	0
497.381	1	6
497.721	1	-5
498.062	1	6
498.403	1	2
498.743	1	-2
499.084	1	4
499.424	1	14
499.765	1	-12
500.105	1	8
500.446	1	-9
500.786	1	-4
501.127	1	-3
501.467	1	6
501.808	1	5
502.148	1	11
502.489	1	6
502.829	1	6
503.170	1	10
503.510	1	13
503.851	1	9
504.191	1	-2
504.532	1	-4
504.872	1	6
505.213	1	3
505.553	1	-1
505.894	1	9
506.234	1	2
506.575	1	12
506.915	1	10
507.256	1	-4
507.596	1	3
507.936	1	10
508.277	1	1
508.617	1	20
508.958	1	0
509.298	1	-5
509.639	1	18
509.979	1	8
510.319	1	-5
510.660	1	6
511.000	1	3
511.341	1	14
511.681	1	4
512.022	1	14
512.362	1	-4
512.702	1	-2
513.043	1	4
513.383	1	0
513.724	1	13
514.064	1	15
514.404	1	-6
514.745	1	3
515.085	1	4
515.425	1	6
515.766	1	7
516.106	1	9
516.447	1	4
516.787	1	11
517.127	1	13
517.468	1	7
517.808	1	5
518.148	1	7
518.489	1	15
518.829	1	-5
519.169	1	0
519.510	1	6
519.850	1	5
520.190	1	5
520.531	1	17
520.871	1	3
521.211	1	-3
521.552	1	5
521.892	1	8
522.232	1	3
522.573	1	11
522.913	1	13
523.253	1	20
523.593	1	9
523.934	1	7
524.274	1	9
524.614	1	7
524.955	1	-2
525.295	1	0
525.635	1	6
525.975	1	9
526.316	1	5
526.656	1	8
526.996	1	8
527.337	1	5
527.677	1	-7
528.017	1	8
528.357	1	1
528.698	1	4
529.038	1	3
529.378	1	6
529.718	1	18
530.058	1	9
530.399	1	7
530.739	1	7
531.079	1	9
531.419	1	11
531.760	1	2
532.100	1	11
532.440	1	15
532.780	1	-1
533.120	1	9
533.461	1	7
533.801	1	4
534.141	1	8
534.481	1	8
534.821	1	13
535.162	1	4
535.502	1	-2
535.842	1	-1
536.182	1	8
536.522	1	9
536.862	1	9
537.203	1	0
537.543	1	5
537.883	1	15
538.223	1	17
538.563	1	0
538.903	1	0
539.243	1	6
539.584	1	6
539.924	1	1
540.264	1	14
540.604	1	6
540.944	1	3
541.284	1	19
541.624	1	12
541.964	1	7
542.305	1	-1
542.645	1	4
542.985	1	10
543.325	1	6
543.665	1	8
544.005	1	11
544.345	1	7
544.685	1	4
545.025	1	2
545.365	1	4
545.705	1	8
546.045	1	0
546.386	1	5
546.726	1	1
547.066	1	18
547.406	1	4
547.746	1	3
548.086	1	9
548.426	1	16
548.766	1	7
549.106	1	9
549.446	1	11
549.786	1	3
550.126	1	1
550.466	1	4
550.806	1	3
551.146	1	7
551.486	1	5
551.826	1	2
552.166	1	6
552.506	1	11
552.846	1	0
553.186	1	6
553.526	1	1
553.866	1	0
554.206	1	7
554.546	1	-3
554.886	1	1
555.226	1	-8
555.566	1	12
555.906	1	3
556.246	1	-2
556.586	1	5
556.926	1	9
557.266	1	3
557.606	1	15
557.946	1	12
558.286	1	3
558.626	1	15
558.966	1	8
559.306	1	3
559.646	1	8
559.986	1	9
560.325	1	4
560.665	1	5
561.005	1	1
561.345	1	3
561.685	1	-5
562.025	1	-5
562.365	1	8
562.705	1	9
563.045	1	7
563.385	1	8
563.725	1	-3
564.064	1	2
564.404	1	3
564.744	1	12
565.084	1	14
565.424	1	8
565.764	1	2
566.104	1	12
566.444	1	4
566.783	1	6
567.123	1	-1
567.463	1	-6
567.803	1	4
568.143	1	-5
568.483	1	6
568.823	1	3
569.162	1	2
569.502	1	2
569.842	1	-1
570.182	1	7
570.522	1	5
570.862	1	2
571.201	1	2
571.541	1	1
571.881	1	-7
572.221	1	8
572.561	1	3
572.900	1	1
573.240	1	7
573.580	1	3
573.920	1	15
574.260	1	2
574.599	1	5
574.939	1	-1
575.279	1	-3
575.619	1	15
575.959	1	1
576.298	1	5
576.638	1	3
576.978	1	7
577.318	1	0
577.657	1	7
577.997	1	-5
578.337	1	9
578.677	1	1
579.016	1	9
579.356	1	1
579.696	1	-5
580.036	1	-3
580.375	1	2
580.715	1	8
581.055	1	8
581.394	1	5
581.734	1	5
582.074	1	7
582.414	1	-3
582.753	1	8
583.093	1	11
583.433	1	8
583.772	1	-4
584.112	1	9
584.452	1	-6
584.791	1	8
585.131	1	7
585.471	1	4
585.811	1	-9
586.150	1	0
586.490	1	12
586.830	1	3
587.169	1	10
587.509	1	2
587.849	1	11
588.188	1	5
588.528	1	3
588.867	1	8
589.207	1	4
589.547	1	-2
589.886	1	1
590.226	1	2
590.566	1	7
590.905	1	4
591.245	1	-2
591.585	1	8
591.924	1	10
592.264	1	-3
592.603	1	-4
592.943	1	8
593.283	1	2
593.622	1	5
593.962	1	-14
594.301	1	10
594.641	1	-3
594.981	1	8
595.320	1	4
595.660	1	0
595.999	1	7
596.339	1	-3
596.678	1	-2
597.018	1	5
597.358	1	-10
597.697	1	1
598.037	1	-3
598.376	1	-7
598.716	1	10
599.055	1	1
599.395	1	1
599.734	1	18
600.074	1	7
600.413	1	-3
600.753	1	7
601.092	1	6
601.432	1	-3
601.771	1	11
602.111	1	-2
602.451	1	10
602.790	1	9
603.130	1	5
603.469	1	8
603.809	1	4
604.148	1	5
604.487	1	3
604.827	1	-12
605.166	1	10
605.506	1	-6
605.845	1	5
606.185	1	2
606.524	1	-2
606.864	1	-2
607.203	1	4
607.543	1	7
607.882	1	1
608.222	1	-4
608.561	1	5
608.901	1	-2
609.240	1	0
609.579	1	2
609.919	1	-7
610.258	1	6
610.598	1	7
610.937	1	15
611.277	1	6
611.616	1	3
611.955	1	9
612.295	1	5
612.634	1	-2
612.974	1	-1
613.313	1	-1
613.652	1	14
613.992	1	5
614.331	1	0
614.671	1	13
615.010	1	2
615.349	1	1
615.689	1	14
616.028	1	-3
616.368	1	-3
616.707	1	2
617.046	1	-8
617.386	1	-3
617.725	1	7
618.064	1	-3
618.404	1	5
618.743	1	4
619.082	1	1
619.422	1	-7
619.761	1	-4
620.100	1	-1
620.440	1	4
620.779	1	4
621.118	1	-6
621.458	1	2
621.797	1	7
622.136	1	-3
622.476	1	-5
622.815	1	5
623.154	1	0
623.494	1	-7
623.833	1	9
624.172	1	1
624.511	1	10
624.851	1	5
625.190	1	5
625.529	1	2
625.869	1	10
626.208	1	2
626.547	1	-8
626.886	1	4
627.226	1	7
627.565	1	1
627.904	1	-1
628.243	1	-2
628.583	1	11
628.922	1	-9
629.261	1	3
629.600	1	-2
629.940	1	6
630.279	1	0
630.618	1	-6
630.957	1	-1
631.297	1	7
631.636	1	6
631.975	1	-3
632.314	1	3
632.653	1	-1
632.993	1	-3
633.332	1	3
633.671	1	11
634.010	1	5
634.349	1	-1
634.689	1	14
635.028	1	14
635.367	1	-6
635.706	1	-3
636.045	1	5
636.384	1	1
636.724	1	15
637.063	1	5
637.402	1	11
637.741	1	2
638.080	1	14
638.419	1	-1
638.759	1	-6
639.098	1	6
639.437	1	0
639.776	1	3
640.115	1	5
640.454	1	0
640.793	1	6
641.132	1	6
641.472	1	-9
641.811	1	3
642.150	1	2
642.489	1	-7
642.828	1	3
643.167	1	6
643.506	1	1
643.845	1	8
644.184	1	11
644.524	1	-2
644.863	1	-2
645.202	1	7
645.541	1	4
645.880	1	9
646.219	1	7
646.558	1	4
646.897	1	7
647.236	1	-2
647.575	1	-5
647.914	1	6
648.253	1	5
648.592	1	1
648.931	1	4
649.270	1	-1
649.610	1	9
649.949	1	-1
650.288	1	-6
650.627	1	-1
650.966	1	3
651.305	1	-10
651.644	1	0
651.983	1	-3
652.322	1	2
652.661	1	5
653.000	1	-11
653.339	1	1
653.678	1	0
654.017	1	1
654.356	1	3
654.695	1	13
655.034	1	0
655.373	1	8
655.712	1	-7
656.051	1	0
656.390	1	3
656.729	1	3
657.068	1	5
657.406	1	-1
657.745	1	11
658.084	1	-1
658.423	1	-1
658.762	1	-5
659.101	1	17
659.440	1	-2
659.779	1	5
660.118	1	-1
660.457	1	9
660.796	1	0
661.135	1	-10
661.474	1	6
661.813	1	7
662.152	1	-1
662.491	1	-4
662.829	1	-11
663.168	1	8
663.507	1	8
663.846	1	3
664.185	1	3
664.524	1	8
664.863	1	-4
665.202	1	15
665.541	1	-1
665.879	1	7
666.218	1	10
666.557	1	6
666.896	1	2
667.235	1	2
667.574	1	-6
667.913	1	-8
668.251	1	2
668.590	1	3
668.929	1	9
669.268	1	-1
669.607	1	1
669.946	1	3
670.285	1	13
670.623	1	7
670.962	1	-4
671.301	1	8
671.640	1	5
671.979	1	-1
672.317	1	8
672.656	1	2
672.995	1	-3
673.334	1	0
673.673	1	3
674.011	1	6
674.350	1	3
674.689	1	0
675.028	1	3
675.367	1	-4
675.705	1	10
676.044	1	12
676.383	1	3
676.722	1	18
677.060	1	-7
677.399	1	-9
677.738	1	0
678.077	1	14
678.416	1	3
678.754	1	1
679.093	1	1
679.432	1	5
679.771	1	0
680.109	1	-4
680.448	1	4
680.787	1	-1
681.125	1	-1
681.464	1	7
681.803	1	12
682.142	1	3
682.480	1	-8
682.819	1	10
683.158	1	-3
683.496	1	7
683.835	1	5
684.174	1	6
684.512	1	3
684.851	1	-3
685.190	1	8
685.529	1	17
685.867	1	5
686.206	1	13
686.545	1	6
686.883	1	4
687.222	1	7
687.561	1	2
687.899	1	-10
688.238	1	5
688.577	1	11
688.746	1	-3