File: Data/GaN_170K_550ms/GaN_sample D_spot 18_UVVIS_170 K_200um_550 ms 2x2mm1_193.txt
340.368	1	-2
340.710	1	-1
341.052	1	2
341.394	1	6
341.737	1	-6
342.079	1	-4
342.421	1	13
342.763	1	7
343.105	1	12
343.447	1	-8
343.789	1	5
344.131	1	2
344.473	1	-3
344.815	1	14
345.157	1	2
345.499	1	-5
345.841	1	4
346.183	1	7
346.526	1	11
346.868	1	14
347.210	1	5
347.552	1	12
347.894	1	0
348.236	1	4
348.578	1	6
348.920	1	-12
349.262	1	8
349.604	1	2
349.946	1	6
350.288	1	6
350.630	1	7
350.972	1	2
351.314	1	0
351.656	1	-4
351.998	1	7
352.340	1	3
352.682	1	0
353.024	1	5
353.366	1	5
353.708	1	14
354.050	1	-5
354.392	1	1
354.734	1	2
355.076	1	0
355.418	1	-2
355.760	1	4
356.102	1	4
356.444	1	-6
356.785	1	4
357.127	1	4
357.469	1	5
357.811	1	5
358.153	1	17
358.495	1	3
358.837	1	5
359.179	1	6
359.521	1	13
359.863	1	3
360.205	1	14
360.547	1	15
360.889	1	10
361.231	1	7
361.572	1	15
361.914	1	0
362.256	1	8
362.598	1	10
362.940	1	19
363.282	1	13
363.624	1	21
363.966	1	8
364.308	1	8
364.649	1	12
364.991	1	15
365.333	1	17
365.675	1	21
366.017	1	15
366.359	1	6
366.701	1	13
367.042	1	23
367.384	1	28
367.726	1	30
368.068	1	22
368.410	1	18
368.752	1	19
369.093	1	9
369.435	1	25
369.777	1	22
370.119	1	5
370.461	1	30
370.803	1	21
371.144	1	19
371.486	1	12
371.828	1	12
372.170	1	16
372.512	1	2
372.853	1	17
373.195	1	18
373.537	1	23
373.879	1	15
374.220	1	17
374.562	1	6
374.904	1	11
375.246	1	16
375.588	1	7
375.929	1	17
376.271	1	16
376.613	1	10
376.955	1	19
377.296	1	4
377.638	1	1
377.980	1	-1
378.321	1	10
378.663	1	9
379.005	1	-5
379.347	1	5
379.688	1	1
380.030	1	16
380.372	1	0
380.714	1	22
381.055	1	11
381.397	1	13
381.739	1	-3
382.080	1	-4
382.422	1	7
382.764	1	-3
383.105	1	14
383.447	1	13
383.789	1	17
384.130	1	3
384.472	1	-3
384.814	1	-1
385.156	1	-1
385.497	1	6
385.839	1	-1
386.180	1	9
386.522	1	7
386.864	1	5
387.205	1	-1
387.547	1	9
387.889	1	8
388.230	1	1
388.572	1	4
388.914	1	4
389.255	1	8
389.597	1	7
389.939	1	-5
390.280	1	1
390.622	1	-3
390.963	1	3
391.305	1	-10
391.647	1	-8
391.988	1	7
392.330	1	11
392.671	1	2
393.013	1	8
393.355	1	0
393.696	1	3
394.038	1	-1
394.379	1	1
394.721	1	8
395.062	1	-5
395.404	1	6
395.746	1	11
396.087	1	7
396.429	1	8
396.770	1	9
397.112	1	-2
397.453	1	13
397.795	1	-3
398.136	1	12
398.478	1	3
398.819	1	2
399.161	1	-4
399.503	1	4
399.844	1	-6
400.186	1	1
400.527	1	21
400.869	1	-4
401.210	1	-3
401.552	1	8
401.893	1	1
402.235	1	4
402.576	1	7
402.918	1	-2
403.259	1	-1
403.601	1	6
403.942	1	3
404.284	1	-6
404.625	1	6
404.967	1	0
405.308	1	-7
405.649	1	0
405.991	1	2
406.332	1	-5
406.674	1	8
407.015	1	12
407.357	1	4
407.698	1	9
408.040	1	2
408.381	1	4
408.722	1	-9
409.064	1	4
409.405	1	2
409.747	1	-7
410.088	1	11
410.430	1	-2
410.771	1	10
411.112	1	4
411.454	1	7
411.795	1	2
412.137	1	-5
412.478	1	1
412.819	1	-9
413.161	1	6
413.502	1	6
413.844	1	6
414.185	1	1
414.526	1	-2
414.868	1	6
415.209	1	-14
415.550	1	-2
415.892	1	5
416.233	1	12
416.575	1	5
416.916	1	-10
417.257	1	8
417.599	1	4
417.940	1	2
418.281	1	-5
418.623	1	2
418.964	1	-3
419.305	1	4
419.647	1	11
419.988	1	11
420.329	1	-1
420.671	1	-11
421.012	1	5
421.353	1	-3
421.695	1	-6
422.036	1	-5
422.377	1	7
422.718	1	9
423.060	1	-7
423.401	1	4
423.742	1	-5
424.084	1	17
424.425	1	-3
424.766	1	-2
425.107	1	3
425.449	1	0
425.790	1	7
426.131	1	14
426.472	1	-6
426.814	1	-7
427.155	1	11
427.496	1	8
427.837	1	3
428.179	1	9
428.520	1	2
428.861	1	1
429.202	1	0
429.544	1	-3
429.885	1	-6
430.226	1	0
430.567	1	3
430.909	1	1
431.250	1	9
431.591	1	1
431.932	1	-8
432.273	1	-2
432.615	1	-2
432.956	1	2
433.297	1	-1
433.638	1	5
433.979	1	3
434.320	1	1
434.662	1	-8
435.003	1	3
435.344	1	-4
435.685	1	-2
436.026	1	0
436.368	1	8
436.709	1	0
437.050	1	-1
437.391	1	-1
437.732	1	10
438.073	1	3
438.414	1	-11
438.756	1	-11
439.097	1	-1
439.438	1	-4
439.779	1	10
440.120	1	4
440.461	1	16
440.802	1	17
441.143	1	-6
441.485	1	-8
441.826	1	0
442.167	1	2
442.508	1	-7
442.849	1	-6
443.190	1	0
443.531	1	2
443.872	1	2
444.213	1	6
444.554	1	-6
444.895	1	-10
445.237	1	-3
445.578	1	4
445.919	1	3
446.260	1	1
446.601	1	-2
446.942	1	9
447.283	1	8
447.624	1	-9
447.965	1	2
448.306	1	5
448.647	1	3
448.988	1	11
449.329	1	-3
449.670	1	-7
450.011	1	2
450.352	1	-9
450.693	1	-1
451.034	1	-4
451.375	1	2
451.716	1	6
452.057	1	-7
452.398	1	6
452.739	1	0
453.080	1	5
453.421	1	4
453.762	1	-2
454.103	1	0
454.444	1	-3
454.785	1	-5
455.126	1	16
455.467	1	-19
455.808	1	7
456.149	1	-3
456.490	1	-2
456.831	1	5
457.172	1	-1
457.513	1	-3
457.854	1	11
458.195	1	1
458.536	1	-5
458.877	1	-1
459.218	1	-2
459.559	1	-2
459.899	1	5
460.240	1	2
460.581	1	9
460.922	1	8
461.263	1	0
461.604	1	13
461.945	1	-3
462.286	1	-2
462.627	1	-3
462.968	1	3
463.309	1	13
463.649	1	4
463.990	1	-1
464.331	1	0
464.672	1	-11
465.013	1	1
465.354	1	-1
465.695	1	3
466.036	1	-11
466.376	1	5
466.717	1	-1
467.058	1	4
467.399	1	8
467.740	1	-3
468.081	1	-3
468.422	1	0
468.762	1	6
469.103	1	13
469.444	1	-5
469.785	1	-7
470.126	1	3
470.467	1	7
470.807	1	-7
471.148	1	-3
471.489	1	8
471.830	1	7
472.171	1	10
472.511	1	2
472.852	1	7
473.193	1	16
473.534	1	9
473.875	1	4
474.215	1	-2
474.556	1	4
474.897	1	4
475.238	1	-4
475.578	1	2
475.919	1	7
476.260	1	13
476.601	1	5
476.942	1	-4
477.282	1	10
477.623	1	9
477.964	1	0
478.305	1	1
478.645	1	5
478.986	1	4
479.327	1	-5
479.667	1	-2
480.008	1	9
480.349	1	1
480.690	1	6
481.030	1	0
481.371	1	1
481.712	1	5
482.053	1	-6
482.393	1	3
482.734	1	1
483.075	1	4
483.415	1	-2
483.756	1	9
484.097	1	-10
484.437	1	6
484.778	1	4
485.119	1	7
485.459	1	-2
485.800	1	-13
486.141	1	7
486.481	1	2
486.822	1	6
487.163	1	8
487.503	1	-6
487.844	1	4
488.185	1	7
488.525	1	10
488.866	1	4
489.207	1	7
489.547	1	18
489.888	1	7
490.228	1	-6
490.569	1	12
490.910	1	-3
491.250	1	4
491.591	1	5
491.932	1	-6
492.272	1	8
492.613	1	2
492.953	1	-9
493.294	1	-8
493.635	1	4
493.975	1	1
494.316	1	4
494.656	1	-4
494.997	1	4
495.337	1	8
495.678	1	6
496.019	1	-13
496.359	1	4
496.700	1	6
497.040	1	0
497.381	1	5
497.721	1	0
498.062	1	5
498.403	1	8
498.743	1	4
499.084	1	3
499.424	1	14
499.765	1	-4
500.105	1	4
500.446	1	3
500.786	1	-4
501.127	1	8
501.467	1	1
501.808	1	4
502.148	1	10
502.489	1	2
502.829	1	1
503.170	1	17
503.510	1	10
503.851	1	-2
504.191	1	-6
504.532	1	-11
504.872	1	2
505.213	1	2
505.553	1	0
505.894	1	10
506.234	1	2
506.575	1	1
506.915	1	0
507.256	1	-2
507.596	1	7
507.936	1	8
508.277	1	8
508.617	1	1
508.958	1	9
509.298	1	1
509.639	1	3
509.979	1	6
510.319	1	-1
510.660	1	-8
511.000	1	0
511.341	1	1
511.681	1	-2
512.022	1	0
512.362	1	4
512.702	1	-6
513.043	1	0
513.383	1	5
513.724	1	0
514.064	1	6
514.404	1	-4
514.745	1	8
515.085	1	7
515.425	1	5
515.766	1	1
516.106	1	7
516.447	1	-3
516.787	1	10
517.127	1	9
517.468	1	5
517.808	1	10
518.148	1	7
518.489	1	13
518.829	1	1
519.169	1	9
519.510	1	4
519.850	1	5
520.190	1	2
520.531	1	11
520.871	1	0
521.211	1	1
521.552	1	-5
521.892	1	4
522.232	1	-3
522.573	1	4
522.913	1	11
523.253	1	10
523.593	1	10
523.934	1	7
524.274	1	10
524.614	1	19
524.955	1	11
525.295	1	1
525.635	1	2
525.975	1	5
526.316	1	15
526.656	1	6
526.996	1	10
527.337	1	-5
527.677	1	3
528.017	1	6
528.357	1	6
528.698	1	-7
529.038	1	-4
529.378	1	1
529.718	1	11
530.058	1	10
530.399	1	-3
530.739	1	-1
531.079	1	11
531.419	1	17
531.760	1	0
532.100	1	4
532.440	1	2
532.780	1	1
533.120	1	6
533.461	1	-11
533.801	1	10
534.141	1	4
534.481	1	4
534.821	1	6
535.162	1	8
535.502	1	15
535.842	1	8
536.182	1	6
536.522	1	6
536.862	1	7
537.203	1	4
537.543	1	-2
537.883	1	7
538.223	1	2
538.563	1	7
538.903	1	3
539.243	1	1
539.584	1	0
539.924	1	-2
540.264	1	7
540.604	1	1
540.944	1	0
541.284	1	10
541.624	1	-8
541.964	1	4
542.305	1	7
542.645	1	-3
542.985	1	9
543.325	1	5
543.665	1	3
544.005	1	22
544.345	1	9
544.685	1	9
545.025	1	2
545.365	1	11
545.705	1	6
546.045	1	7
546.386	1	9
546.726	1	0
547.066	1	11
547.406	1	5
547.746	1	0
548.086	1	12
548.426	1	15
548.766	1	3
549.106	1	16
549.446	1	3
549.786	1	-4
550.126	1	4
550.466	1	-1
550.806	1	6
551.146	1	3
551.486	1	10
551.826	1	8
552.166	1	8
552.506	1	0
552.846	1	2
553.186	1	2
553.526	1	3
553.866	1	3
554.206	1	2
554.546	1	-6
554.886	1	2
555.226	1	-7
555.566	1	-1
555.906	1	-9
556.246	1	6
556.586	1	6
556.926	1	4
557.266	1	5
557.606	1	15
557.946	1	9
558.286	1	6
558.626	1	10
558.966	1	4
559.306	1	8
559.646	1	5
559.986	1	6
560.325	1	1
560.665	1	6
561.005	1	8
561.345	1	-3
561.685	1	-2
562.025	1	3
562.365	1	6
562.705	1	4
563.045	1	-3
563.385	1	2
563.725	1	-12
564.064	1	-2
564.404	1	4
564.744	1	7
565.084	1	2
565.424	1	1
565.764	1	-1
566.104	1	4
566.444	1	8
566.783	1	4
567.123	1	-4
567.463	1	-1
567.803	1	7
568.143	1	3
568.483	1	-1
568.823	1	1
569.162	1	1
569.502	1	1
569.842	1	-7
570.182	1	2
570.522	1	7
570.862	1	0
571.201	1	5
571.541	1	3
571.881	1	-4
572.221	1	6
572.561	1	4
572.900	1	-1
573.240	1	11
573.580	1	-4
573.920	1	9
574.260	1	11
574.599	1	6
574.939	1	-4
575.279	1	1
575.619	1	4
575.959	1	-11
576.298	1	1
576.638	1	8
576.978	1	-2
577.318	1	6
577.657	1	6
577.997	1	-13
578.337	1	11
578.677	1	0
579.016	1	17
579.356	1	8
579.696	1	-8
580.036	1	6
580.375	1	3
580.715	1	11
581.055	1	18
581.394	1	-4
581.734	1	9
582.074	1	1
582.414	1	-6
582.753	1	11
583.093	1	8
583.433	1	1
583.772	1	-2
584.112	1	4
584.452	1	-8
584.791	1	4
585.131	1	4
585.471	1	6
585.811	1	-6
586.150	1	-4
586.490	1	7
586.830	1	-1
587.169	1	12
587.509	1	3
587.849	1	7
588.188	1	14
588.528	1	0
588.867	1	8
589.207	1	-10
589.547	1	6
589.886	1	1
590.226	1	1
590.566	1	-5
590.905	1	10
591.245	1	5
591.585	1	4
591.924	1	-5
592.264	1	-2
592.603	1	4
592.943	1	4
593.283	1	5
593.622	1	-15
593.962	1	10
594.301	1	9
594.641	1	9
594.981	1	13
595.320	1	-5
595.660	1	-3
595.999	1	3
596.339	1	6
596.678	1	2
597.018	1	0
597.358	1	-8
597.697	1	-6
598.037	1	-3
598.376	1	-13
598.716	1	10
599.055	1	2
599.395	1	-2
599.734	1	15
600.074	1	-1
600.413	1	-7
600.753	1	3
601.092	1	-4
601.432	1	-8
601.771	1	6
602.111	1	4
602.451	1	10
602.790	1	4
603.130	1	-3
603.469	1	14
603.809	1	1
604.148	1	12
604.487	1	8
604.827	1	-5
605.166	1	7
605.506	1	-1
605.845	1	7
606.185	1	10
606.524	1	-3
606.864	1	-9
607.203	1	1
607.543	1	16
607.882	1	6
608.222	1	4
608.561	1	11
608.901	1	0
609.240	1	0
609.579	1	2
609.919	1	2
610.258	1	6
610.598	1	16
610.937	1	3
611.277	1	3
611.616	1	4
611.955	1	6
612.295	1	-2
612.634	1	-5
612.974	1	5
613.313	1	1
613.652	1	8
613.992	1	0
614.331	1	4
614.671	1	9
615.010	1	4
615.349	1	2
615.689	1	16
616.028	1	2
616.368	1	-2
616.707	1	15
617.046	1	9
617.386	1	2
617.725	1	0
618.064	1	-6
618.404	1	3
618.743	1	2
619.082	1	5
619.422	1	-8
619.761	1	-1
620.100	1	1
620.440	1	2
620.779	1	3
621.118	1	-6
621.458	1	5
621.797	1	-5
622.136	1	6
622.476	1	-1
622.815	1	4
623.154	1	6
623.494	1	-1
623.833	1	1
624.172	1	6
624.511	1	3
624.851	1	-6
625.190	1	7
625.529	1	3
625.869	1	13
626.208	1	4
626.547	1	-1
626.886	1	7
627.226	1	2
627.565	1	6
627.904	1	-2
628.243	1	-8
628.583	1	-9
628.922	1	-6
629.261	1	5
629.600	1	-6
629.940	1	-1
630.279	1	3
630.618	1	-6
630.957	1	2
631.297	1	-5
631.636	1	7
631.975	1	-1
632.314	1	8
632.653	1	9
632.993	1	2
633.332	1	4
633.671	1	6
634.010	1	2
634.349	1	-6
634.689	1	5
635.028	1	1
635.367	1	-1
635.706	1	-7
636.045	1	13
636.384	1	-7
636.724	1	10
637.063	1	0
637.402	1	14
637.741	1	-5
638.080	1	8
638.419	1	-5
638.759	1	3
639.098	1	-3
639.437	1	-4
639.776	1	3
640.115	1	-1
640.454	1	3
640.793	1	3
641.132	1	10
641.472	1	-15
641.811	1	1
642.150	1	3
642.489	1	5
642.828	1	5
643.167	1	6
643.506	1	7
643.845	1	6
644.184	1	16
644.524	1	-2
644.863	1	-12
645.202	1	15
645.541	1	5
645.880	1	-1
646.219	1	-1
646.558	1	10
646.897	1	11
647.236	1	-2
647.575	1	-2
647.914	1	-3
648.253	1	3
648.592	1	7
648.931	1	7
649.270	1	-9
649.610	1	10
649.949	1	-6
650.288	1	-3
650.627	1	0
650.966	1	6
651.305	1	-8
651.644	1	4
651.983	1	5
652.322	1	2
652.661	1	5
653.000	1	-1
653.339	1	-2
653.678	1	0
654.017	1	4
654.356	1	-10
654.695	1	8
655.034	1	-3
655.373	1	7
655.712	1	-5
656.051	1	0
656.390	1	1
656.729	1	3
657.068	1	9
657.406	1	-3
657.745	1	2
658.084	1	-6
658.423	1	-4
658.762	1	2
659.101	1	2
659.440	1	4
659.779	1	-7
660.118	1	11
660.457	1	11
660.796	1	-4
661.135	1	-17
661.474	1	10
661.813	1	0
662.152	1	3
662.491	1	-6
662.829	1	-6
663.168	1	4
663.507	1	6
663.846	1	-1
664.185	1	8
664.524	1	-5
664.863	1	-2
665.202	1	14
665.541	1	7
665.879	1	5
666.218	1	14
666.557	1	-2
666.896	1	2
667.235	1	6
667.574	1	-9
667.913	1	-3
668.251	1	-4
668.590	1	1
668.929	1	13
669.268	1	-5
669.607	1	0
669.946	1	-1
670.285	1	3
670.623	1	9
670.962	1	-1
671.301	1	1
671.640	1	5
671.979	1	-4
672.317	1	6
672.656	1	-5
672.995	1	-6
673.334	1	-2
673.673	1	0
674.011	1	4
674.350	1	-3
674.689	1	10
675.028	1	7
675.367	1	4
675.705	1	4
676.044	1	8
676.383	1	0
676.722	1	6
677.060	1	-3
677.399	1	2
677.738	1	5
678.077	1	10
678.416	1	-4
678.754	1	8
679.093	1	9
679.432	1	2
679.771	1	10
680.109	1	4
680.448	1	6
680.787	1	4
681.125	1	5
681.464	1	-4
681.803	1	5
682.142	1	4
682.480	1	1
682.819	1	10
683.158	1	-3
683.496	1	4
683.835	1	-7
684.174	1	-1
684.512	1	-2
684.851	1	2
685.190	1	0
685.529	1	11
685.867	1	3
686.206	1	8
686.545	1	3
686.883	1	5
687.222	1	1
687.561	1	11
687.899	1	-4
688.238	1	-1
688.577	1	4
688.746	1	-2