File: Data/GaN_170K_550ms/GaN_sample D_spot 18_UVVIS_170 K_200um_550 ms 2x2mm1_322.txt
340.368	1	-3
340.710	1	-3
341.052	1	-2
341.394	1	-2
341.737	1	2
342.079	1	-6
342.421	1	-5
342.763	1	-2
343.105	1	11
343.447	1	2
343.789	1	0
344.131	1	-3
344.473	1	-2
344.815	1	9
345.157	1	6
345.499	1	-2
345.841	1	0
346.183	1	-2
346.526	1	-5
346.868	1	11
347.210	1	-9
347.552	1	2
347.894	1	-7
348.236	1	-1
348.578	1	1
348.920	1	-6
349.262	1	-2
349.604	1	-1
349.946	1	1
350.288	1	2
350.630	1	6
350.972	1	0
351.314	1	-1
351.656	1	-8
351.998	1	3
352.340	1	-2
352.682	1	4
353.024	1	-11
353.366	1	8
353.708	1	6
354.050	1	-5
354.392	1	7
354.734	1	6
355.076	1	0
355.418	1	-1
355.760	1	-3
356.102	1	4
356.444	1	4
356.785	1	10
357.127	1	3
357.469	1	-5
357.811	1	8
358.153	1	7
358.495	1	-1
358.837	1	2
359.179	1	-3
359.521	1	7
359.863	1	0
360.205	1	11
360.547	1	7
360.889	1	13
361.231	1	6
361.572	1	9
361.914	1	-2
362.256	1	1
362.598	1	6
362.940	1	12
363.282	1	7
363.624	1	2
363.966	1	0
364.308	1	14
364.649	1	1
364.991	1	13
365.333	1	7
365.675	1	5
366.017	1	5
366.359	1	6
366.701	1	7
367.042	1	0
367.384	1	6
367.726	1	12
368.068	1	18
368.410	1	13
368.752	1	12
369.093	1	1
369.435	1	3
369.777	1	7
370.119	1	8
370.461	1	13
370.803	1	4
371.144	1	8
371.486	1	-1
371.828	1	5
372.170	1	10
372.512	1	0
372.853	1	9
373.195	1	5
373.537	1	16
373.879	1	16
374.220	1	9
374.562	1	0
374.904	1	-1
375.246	1	3
375.588	1	3
375.929	1	6
376.271	1	-3
376.613	1	9
376.955	1	8
377.296	1	1
377.638	1	11
377.980	1	-3
378.321	1	3
378.663	1	0
379.005	1	3
379.347	1	-7
379.688	1	0
380.030	1	-7
380.372	1	6
380.714	1	6
381.055	1	-5
381.397	1	13
381.739	1	-3
382.080	1	-8
382.422	1	-2
382.764	1	2
383.105	1	3
383.447	1	7
383.789	1	8
384.130	1	-1
384.472	1	-5
384.814	1	0
385.156	1	3
385.497	1	4
385.839	1	-8
386.180	1	8
386.522	1	2
386.864	1	-1
387.205	1	-8
387.547	1	3
387.889	1	3
388.230	1	0
388.572	1	4
388.914	1	-1
389.255	1	6
389.597	1	4
389.939	1	2
390.280	1	4
390.622	1	-2
390.963	1	2
391.305	1	-5
391.647	1	-7
391.988	1	2
392.330	1	-3
392.671	1	-1
393.013	1	-4
393.355	1	5
393.696	1	13
394.038	1	0
394.379	1	-7
394.721	1	4
395.062	1	-1
395.404	1	14
395.746	1	5
396.087	1	3
396.429	1	-4
396.770	1	18
397.112	1	-4
397.453	1	4
397.795	1	-2
398.136	1	3
398.478	1	-5
398.819	1	0
399.161	1	-5
399.503	1	1
399.844	1	-7
400.186	1	-6
400.527	1	12
400.869	1	2
401.210	1	7
401.552	1	4
401.893	1	7
402.235	1	4
402.576	1	-3
402.918	1	-3
403.259	1	4
403.601	1	12
403.942	1	8
404.284	1	-17
404.625	1	5
404.967	1	3
405.308	1	0
405.649	1	8
405.991	1	4
406.332	1	-12
406.674	1	14
407.015	1	1
407.357	1	-6
407.698	1	1
408.040	1	-3
408.381	1	-7
408.722	1	-6
409.064	1	2
409.405	1	-2
409.747	1	-9
410.088	1	-1
410.430	1	-4
410.771	1	-4
411.112	1	0
411.454	1	5
411.795	1	6
412.137	1	-10
412.478	1	3
412.819	1	-7
413.161	1	5
413.502	1	-6
413.844	1	10
414.185	1	-7
414.526	1	-2
414.868	1	-3
415.209	1	-15
415.550	1	1
415.892	1	6
416.233	1	11
416.575	1	0
416.916	1	-1
417.257	1	6
417.599	1	-3
417.940	1	6
418.281	1	-8
418.623	1	-1
418.964	1	-2
419.305	1	-3
419.647	1	0
419.988	1	-1
420.329	1	1
420.671	1	-3
421.012	1	-8
421.353	1	-4
421.695	1	3
422.036	1	-3
422.377	1	4
422.718	1	12
423.060	1	-3
423.401	1	-4
423.742	1	6
424.084	1	21
424.425	1	-12
424.766	1	3
425.107	1	2
425.449	1	10
425.790	1	-9
426.131	1	13
426.472	1	2
426.814	1	-9
427.155	1	11
427.496	1	0
427.837	1	6
428.179	1	-1
428.520	1	-1
428.861	1	6
429.202	1	-4
429.544	1	1
429.885	1	4
430.226	1	4
430.567	1	6
430.909	1	3
431.250	1	8
431.591	1	-3
431.932	1	-4
432.273	1	1
432.615	1	-1
432.956	1	-4
433.297	1	0
433.638	1	11
433.979	1	7
434.320	1	7
434.662	1	-10
435.003	1	10
435.344	1	-5
435.685	1	5
436.026	1	3
436.368	1	7
436.709	1	-4
437.050	1	-9
437.391	1	-1
437.732	1	10
438.073	1	-3
438.414	1	-6
438.756	1	-2
439.097	1	3
439.438	1	-2
439.779	1	6
440.120	1	-4
440.461	1	10
440.802	1	1
441.143	1	0
441.485	1	-6
441.826	1	6
442.167	1	3
442.508	1	0
442.849	1	-1
443.190	1	6
443.531	1	3
443.872	1	-2
444.213	1	0
444.554	1	0
444.895	1	-15
445.237	1	-3
445.578	1	11
445.919	1	3
446.260	1	5
446.601	1	-15
446.942	1	0
447.283	1	2
447.624	1	8
447.965	1	3
448.306	1	1
448.647	1	1
448.988	1	5
449.329	1	-1
449.670	1	-9
450.011	1	14
450.352	1	-5
450.693	1	0
451.034	1	2
451.375	1	2
451.716	1	0
452.057	1	-3
452.398	1	-1
452.739	1	5
453.080	1	1
453.421	1	1
453.762	1	8
454.103	1	0
454.444	1	-2
454.785	1	-12
455.126	1	20
455.467	1	-6
455.808	1	14
456.149	1	0
456.490	1	-3
456.831	1	-1
457.172	1	-2
457.513	1	8
457.854	1	7
458.195	1	3
458.536	1	0
458.877	1	9
459.218	1	4
459.559	1	3
459.899	1	3
460.240	1	-2
460.581	1	7
460.922	1	-1
461.263	1	-4
461.604	1	9
461.945	1	0
462.286	1	-5
462.627	1	7
462.968	1	8
463.309	1	-5
463.649	1	10
463.990	1	-2
464.331	1	1
464.672	1	-3
465.013	1	7
465.354	1	-1
465.695	1	4
466.036	1	-5
466.376	1	9
466.717	1	-7
467.058	1	0
467.399	1	9
467.740	1	-4
468.081	1	-2
468.422	1	10
468.762	1	3
469.103	1	9
469.444	1	-5
469.785	1	-3
470.126	1	6
470.467	1	7
470.807	1	1
471.148	1	0
471.489	1	-5
471.830	1	-1
472.171	1	7
472.511	1	0
472.852	1	2
473.193	1	7
473.534	1	2
473.875	1	-5
474.215	1	6
474.556	1	0
474.897	1	-2
475.238	1	-1
475.578	1	0
475.919	1	7
476.260	1	12
476.601	1	1
476.942	1	-12
477.282	1	12
477.623	1	6
477.964	1	3
478.305	1	0
478.645	1	2
478.986	1	1
479.327	1	-18
479.667	1	-2
480.008	1	13
480.349	1	2
480.690	1	0
481.030	1	2
481.371	1	-3
481.712	1	-3
482.053	1	-3
482.393	1	-6
482.734	1	3
483.075	1	0
483.415	1	-1
483.756	1	8
484.097	1	-15
484.437	1	3
484.778	1	-5
485.119	1	6
485.459	1	-1
485.800	1	1
486.141	1	15
486.481	1	-6
486.822	1	10
487.163	1	1
487.503	1	-1
487.844	1	4
488.185	1	4
488.525	1	8
488.866	1	8
489.207	1	0
489.547	1	7
489.888	1	6
490.228	1	4
490.569	1	1
490.910	1	-12
491.250	1	4
491.591	1	-4
491.932	1	1
492.272	1	0
492.613	1	9
492.953	1	-2
493.294	1	-5
493.635	1	-6
493.975	1	7
494.316	1	0
494.656	1	1
494.997	1	6
495.337	1	9
495.678	1	0
496.019	1	-5
496.359	1	7
496.700	1	11
497.040	1	5
497.381	1	8
497.721	1	-4
498.062	1	4
498.403	1	5
498.743	1	-3
499.084	1	-2
499.424	1	16
499.765	1	-9
500.105	1	-1
500.446	1	-6
500.786	1	-3
501.127	1	1
501.467	1	0
501.808	1	-10
502.148	1	7
502.489	1	-1
502.829	1	-7
503.170	1	2
503.510	1	3
503.851	1	1
504.191	1	-2
504.532	1	-7
504.872	1	9
505.213	1	0
505.553	1	-2
505.894	1	16
506.234	1	-2
506.575	1	4
506.915	1	4
507.256	1	-3
507.596	1	6
507.936	1	3
508.277	1	-3
508.617	1	3
508.958	1	-1
509.298	1	0
509.639	1	7
509.979	1	9
510.319	1	-13
510.660	1	-4
511.000	1	1
511.341	1	16
511.681	1	-5
512.022	1	-5
512.362	1	-6
512.702	1	1
513.043	1	-2
513.383	1	-4
513.724	1	-3
514.064	1	12
514.404	1	-2
514.745	1	-1
515.085	1	-2
515.425	1	6
515.766	1	-1
516.106	1	11
516.447	1	2
516.787	1	1
517.127	1	10
517.468	1	6
517.808	1	19
518.148	1	0
518.489	1	-6
518.829	1	3
519.169	1	-2
519.510	1	5
519.850	1	7
520.190	1	-1
520.531	1	4
520.871	1	7
521.211	1	4
521.552	1	8
521.892	1	5
522.232	1	-8
522.573	1	5
522.913	1	-3
523.253	1	12
523.593	1	2
523.934	1	-3
524.274	1	-4
524.614	1	12
524.955	1	-2
525.295	1	2
525.635	1	10
525.975	1	9
526.316	1	5
526.656	1	7
526.996	1	5
527.337	1	-3
527.677	1	-5
528.017	1	5
528.357	1	-6
528.698	1	-9
529.038	1	-4
529.378	1	-1
529.718	1	11
530.058	1	7
530.399	1	7
530.739	1	4
531.079	1	9
531.419	1	3
531.760	1	1
532.100	1	0
532.440	1	9
532.780	1	0
533.120	1	6
533.461	1	5
533.801	1	-5
534.141	1	-8
534.481	1	11
534.821	1	3
535.162	1	9
535.502	1	0
535.842	1	6
536.182	1	0
536.522	1	5
536.862	1	8
537.203	1	4
537.543	1	-3
537.883	1	5
538.223	1	-2
538.563	1	-2
538.903	1	8
539.243	1	1
539.584	1	-1
539.924	1	7
540.264	1	9
540.604	1	0
540.944	1	-2
541.284	1	5
541.624	1	-3
541.964	1	9
542.305	1	6
542.645	1	-2
542.985	1	7
543.325	1	-5
543.665	1	3
544.005	1	10
544.345	1	8
544.685	1	2
545.025	1	-4
545.365	1	-7
545.705	1	4
546.045	1	3
546.386	1	-7
546.726	1	0
547.066	1	9
547.406	1	-1
547.746	1	-7
548.086	1	3
548.426	1	2
548.766	1	2
549.106	1	8
549.446	1	6
549.786	1	0
550.126	1	6
550.466	1	-8
550.806	1	-3
551.146	1	10
551.486	1	2
551.826	1	9
552.166	1	-4
552.506	1	8
552.846	1	-6
553.186	1	3
553.526	1	-9
553.866	1	-10
554.206	1	7
554.546	1	-5
554.886	1	0
555.226	1	7
555.566	1	4
555.906	1	-8
556.246	1	3
556.586	1	0
556.926	1	4
557.266	1	-1
557.606	1	3
557.946	1	-6
558.286	1	3
558.626	1	15
558.966	1	16
559.306	1	1
559.646	1	3
559.986	1	3
560.325	1	4
560.665	1	-1
561.005	1	2
561.345	1	-8
561.685	1	-1
562.025	1	-3
562.365	1	5
562.705	1	8
563.045	1	-6
563.385	1	2
563.725	1	-3
564.064	1	5
564.404	1	-1
564.744	1	-4
565.084	1	-9
565.424	1	3
565.764	1	0
566.104	1	-3
566.444	1	0
566.783	1	1
567.123	1	-9
567.463	1	-6
567.803	1	2
568.143	1	3
568.483	1	0
568.823	1	12
569.162	1	3
569.502	1	6
569.842	1	-12
570.182	1	-1
570.522	1	2
570.862	1	2
571.201	1	-4
571.541	1	-4
571.881	1	1
572.221	1	-2
572.561	1	6
572.900	1	2
573.240	1	6
573.580	1	-1
573.920	1	6
574.260	1	2
574.599	1	-1
574.939	1	-7
575.279	1	1
575.619	1	6
575.959	1	-4
576.298	1	5
576.638	1	4
576.978	1	4
577.318	1	-1
577.657	1	4
577.997	1	-6
578.337	1	-4
578.677	1	8
579.016	1	3
579.356	1	10
579.696	1	-4
580.036	1	11
580.375	1	-2
580.715	1	3
581.055	1	2
581.394	1	-3
581.734	1	10
582.074	1	1
582.414	1	-6
582.753	1	1
583.093	1	3
583.433	1	5
583.772	1	-2
584.112	1	0
584.452	1	-5
584.791	1	-1
585.131	1	11
585.471	1	3
585.811	1	-7
586.150	1	-6
586.490	1	1
586.830	1	-1
587.169	1	15
587.509	1	3
587.849	1	0
588.188	1	4
588.528	1	2
588.867	1	6
589.207	1	-14
589.547	1	5
589.886	1	-6
590.226	1	1
590.566	1	1
590.905	1	7
591.245	1	-3
591.585	1	0
591.924	1	1
592.264	1	-7
592.603	1	4
592.943	1	1
593.283	1	10
593.622	1	-11
593.962	1	3
594.301	1	3
594.641	1	-1
594.981	1	10
595.320	1	-1
595.660	1	-3
595.999	1	-2
596.339	1	8
596.678	1	-11
597.018	1	1
597.358	1	2
597.697	1	-2
598.037	1	6
598.376	1	-10
598.716	1	3
599.055	1	0
599.395	1	-8
599.734	1	10
600.074	1	-6
600.413	1	-6
600.753	1	4
601.092	1	-3
601.432	1	-8
601.771	1	3
602.111	1	-6
602.451	1	14
602.790	1	9
603.130	1	-8
603.469	1	0
603.809	1	6
604.148	1	-6
604.487	1	10
604.827	1	-3
605.166	1	4
605.506	1	-15
605.845	1	0
606.185	1	-1
606.524	1	2
606.864	1	-6
607.203	1	-1
607.543	1	9
607.882	1	4
608.222	1	3
608.561	1	2
608.901	1	3
609.240	1	-3
609.579	1	-3
609.919	1	1
610.258	1	5
610.598	1	13
610.937	1	-7
611.277	1	-3
611.616	1	-4
611.955	1	7
612.295	1	1
612.634	1	2
612.974	1	5
613.313	1	5
613.652	1	8
613.992	1	4
614.331	1	4
614.671	1	3
615.010	1	4
615.349	1	3
615.689	1	8
616.028	1	0
616.368	1	3
616.707	1	4
617.046	1	-9
617.386	1	-3
617.725	1	6
618.064	1	-5
618.404	1	-3
618.743	1	-4
619.082	1	3
619.422	1	-12
619.761	1	-2
620.100	1	4
620.440	1	1
620.779	1	4
621.118	1	-4
621.458	1	-1
621.797	1	-3
622.136	1	0
622.476	1	-4
622.815	1	9
623.154	1	8
623.494	1	3
623.833	1	7
624.172	1	0
624.511	1	7
624.851	1	-8
625.190	1	11
625.529	1	9
625.869	1	10
626.208	1	4
626.547	1	-6
626.886	1	-7
627.226	1	7
627.565	1	5
627.904	1	-6
628.243	1	-4
628.583	1	-5
628.922	1	-2
629.261	1	1
629.600	1	-6
629.940	1	-10
630.279	1	-2
630.618	1	-2
630.957	1	11
631.297	1	1
631.636	1	8
631.975	1	-3
632.314	1	0
632.653	1	5
632.993	1	-4
633.332	1	1
633.671	1	8
634.010	1	-1
634.349	1	-12
634.689	1	9
635.028	1	-6
635.367	1	-13
635.706	1	6
636.045	1	10
636.384	1	-2
636.724	1	2
637.063	1	5
637.402	1	6
637.741	1	-8
638.080	1	7
638.419	1	-7
638.759	1	1
639.098	1	-1
639.437	1	-6
639.776	1	-7
640.115	1	6
640.454	1	-7
640.793	1	2
641.132	1	-3
641.472	1	-4
641.811	1	12
642.150	1	-4
642.489	1	1
642.828	1	-2
643.167	1	-7
643.506	1	1
643.845	1	5
644.184	1	6
644.524	1	3
644.863	1	-8
645.202	1	1
645.541	1	4
645.880	1	3
646.219	1	1
646.558	1	8
646.897	1	3
647.236	1	-3
647.575	1	-8
647.914	1	3
648.253	1	-3
648.592	1	5
648.931	1	10
649.270	1	-6
649.610	1	3
649.949	1	-12
650.288	1	3
650.627	1	2
650.966	1	-1
651.305	1	-12
651.644	1	-6
651.983	1	3
652.322	1	1
652.661	1	3
653.000	1	1
653.339	1	7
653.678	1	4
654.017	1	-3
654.356	1	-3
654.695	1	4
655.034	1	-6
655.373	1	-5
655.712	1	-12
656.051	1	1
656.390	1	-4
656.729	1	3
657.068	1	4
657.406	1	-1
657.745	1	11
658.084	1	-2
658.423	1	-4
658.762	1	-6
659.101	1	-3
659.440	1	4
659.779	1	2
660.118	1	-1
660.457	1	4
660.796	1	7
661.135	1	-11
661.474	1	10
661.813	1	-1
662.152	1	-6
662.491	1	-3
662.829	1	0
663.168	1	-3
663.507	1	7
663.846	1	-7
664.185	1	14
664.524	1	9
664.863	1	-4
665.202	1	4
665.541	1	-2
665.879	1	7
666.218	1	9
666.557	1	4
666.896	1	-2
667.235	1	0
667.574	1	-12
667.913	1	-4
668.251	1	4
668.590	1	-6
668.929	1	11
669.268	1	-7
669.607	1	-6
669.946	1	-2
670.285	1	16
670.623	1	-3
670.962	1	4
671.301	1	-1
671.640	1	7
671.979	1	3
672.317	1	6
672.656	1	1
672.995	1	-6
673.334	1	-5
673.673	1	0
674.011	1	-4
674.350	1	13
674.689	1	7
675.028	1	-8
675.367	1	-2
675.705	1	5
676.044	1	9
676.383	1	-5
676.722	1	6
677.060	1	-12
677.399	1	4
677.738	1	-4
678.077	1	5
678.416	1	-5
678.754	1	9
679.093	1	6
679.432	1	-8
679.771	1	5
680.109	1	7
680.448	1	3
680.787	1	-9
681.125	1	7
681.464	1	9
681.803	1	6
682.142	1	-11
682.480	1	5
682.819	1	14
683.158	1	-2
683.496	1	5
683.835	1	-12
684.174	1	1
684.512	1	1
684.851	1	-2
685.190	1	-3
685.529	1	17
685.867	1	9
686.206	1	7
686.545	1	0
686.883	1	-1
687.222	1	-7
687.561	1	4
687.899	1	-13
688.238	1	-5
688.577	1	17
688.746	1	-2