File: Data/GaN_170K_550ms/GaN_sample D_spot 18_UVVIS_170 K_200um_550 ms 2x2mm1_369.txt
340.368	1	3
340.710	1	-5
341.052	1	-3
341.394	1	-2
341.737	1	-6
342.079	1	-3
342.421	1	2
342.763	1	4
343.105	1	12
343.447	1	-5
343.789	1	8
344.131	1	2
344.473	1	-6
344.815	1	7
345.157	1	2
345.499	1	-7
345.841	1	-1
346.183	1	-3
346.526	1	4
346.868	1	-3
347.210	1	-13
347.552	1	2
347.894	1	0
348.236	1	1
348.578	1	6
348.920	1	-5
349.262	1	5
349.604	1	10
349.946	1	4
350.288	1	5
350.630	1	8
350.972	1	-3
351.314	1	4
351.656	1	-9
351.998	1	6
352.340	1	6
352.682	1	0
353.024	1	-1
353.366	1	2
353.708	1	1
354.050	1	-3
354.392	1	2
354.734	1	6
355.076	1	0
355.418	1	0
355.760	1	3
356.102	1	8
356.444	1	-1
356.785	1	7
357.127	1	-10
357.469	1	-2
357.811	1	12
358.153	1	-2
358.495	1	-5
358.837	1	-3
359.179	1	-6
359.521	1	4
359.863	1	1
360.205	1	13
360.547	1	1
360.889	1	10
361.231	1	3
361.572	1	4
361.914	1	4
362.256	1	-3
362.598	1	8
362.940	1	5
363.282	1	8
363.624	1	8
363.966	1	7
364.308	1	5
364.649	1	6
364.991	1	8
365.333	1	5
365.675	1	7
366.017	1	-1
366.359	1	7
366.701	1	8
367.042	1	0
367.384	1	6
367.726	1	16
368.068	1	9
368.410	1	10
368.752	1	6
369.093	1	-7
369.435	1	-1
369.777	1	4
370.119	1	10
370.461	1	8
370.803	1	3
371.144	1	9
371.486	1	-2
371.828	1	6
372.170	1	5
372.512	1	-3
372.853	1	9
373.195	1	4
373.537	1	15
373.879	1	9
374.220	1	6
374.562	1	-3
374.904	1	-2
375.246	1	-2
375.588	1	5
375.929	1	2
376.271	1	6
376.613	1	2
376.955	1	6
377.296	1	-5
377.638	1	3
377.980	1	-6
378.321	1	2
378.663	1	-4
379.005	1	1
379.347	1	4
379.688	1	3
380.030	1	9
380.372	1	5
380.714	1	12
381.055	1	-3
381.397	1	1
381.739	1	-4
382.080	1	-5
382.422	1	-6
382.764	1	4
383.105	1	15
383.447	1	0
383.789	1	16
384.130	1	-5
384.472	1	-2
384.814	1	4
385.156	1	4
385.497	1	7
385.839	1	-12
386.180	1	10
386.522	1	6
386.864	1	0
387.205	1	1
387.547	1	5
387.889	1	2
388.230	1	-5
388.572	1	7
388.914	1	-5
389.255	1	11
389.597	1	4
389.939	1	-3
390.280	1	0
390.622	1	-1
390.963	1	-5
391.305	1	8
391.647	1	-12
391.988	1	4
392.330	1	1
392.671	1	-5
393.013	1	-3
393.355	1	8
393.696	1	11
394.038	1	-4
394.379	1	-5
394.721	1	-2
395.062	1	3
395.404	1	1
395.746	1	2
396.087	1	0
396.429	1	5
396.770	1	6
397.112	1	-10
397.453	1	-6
397.795	1	0
398.136	1	3
398.478	1	-2
398.819	1	-10
399.161	1	-7
399.503	1	7
399.844	1	-6
400.186	1	2
400.527	1	6
400.869	1	5
401.210	1	1
401.552	1	2
401.893	1	2
402.235	1	-1
402.576	1	-9
402.918	1	4
403.259	1	6
403.601	1	11
403.942	1	4
404.284	1	-7
404.625	1	4
404.967	1	0
405.308	1	0
405.649	1	2
405.991	1	-7
406.332	1	-12
406.674	1	11
407.015	1	11
407.357	1	-4
407.698	1	1
408.040	1	-4
408.381	1	7
408.722	1	-4
409.064	1	0
409.405	1	0
409.747	1	-10
410.088	1	3
410.430	1	-4
410.771	1	-4
411.112	1	-4
411.454	1	1
411.795	1	8
412.137	1	0
412.478	1	-4
412.819	1	-10
413.161	1	0
413.502	1	4
413.844	1	10
414.185	1	-10
414.526	1	3
414.868	1	-5
415.209	1	-8
415.550	1	2
415.892	1	-4
416.233	1	4
416.575	1	-9
416.916	1	-1
417.257	1	2
417.599	1	4
417.940	1	4
418.281	1	-7
418.623	1	7
418.964	1	-5
419.305	1	-3
419.647	1	-2
419.988	1	0
420.329	1	2
420.671	1	-7
421.012	1	2
421.353	1	-8
421.695	1	-12
422.036	1	9
422.377	1	1
422.718	1	2
423.060	1	-6
423.401	1	4
423.742	1	9
424.084	1	12
424.425	1	-5
424.766	1	6
425.107	1	1
425.449	1	9
425.790	1	2
426.131	1	6
426.472	1	-1
426.814	1	-7
427.155	1	7
427.496	1	1
427.837	1	0
428.179	1	-5
428.520	1	-2
428.861	1	-4
429.202	1	4
429.544	1	-9
429.885	1	3
430.226	1	2
430.567	1	4
430.909	1	1
431.250	1	20
431.591	1	9
431.932	1	-4
432.273	1	4
432.615	1	1
432.956	1	0
433.297	1	-2
433.638	1	2
433.979	1	4
434.320	1	8
434.662	1	-14
435.003	1	4
435.344	1	4
435.685	1	9
436.026	1	-1
436.368	1	4
436.709	1	-8
437.050	1	-6
437.391	1	-9
437.732	1	3
438.073	1	-6
438.414	1	-6
438.756	1	-5
439.097	1	10
439.438	1	-1
439.779	1	7
440.120	1	-8
440.461	1	14
440.802	1	5
441.143	1	-6
441.485	1	-6
441.826	1	2
442.167	1	3
442.508	1	-2
442.849	1	3
443.190	1	5
443.531	1	-1
443.872	1	-11
444.213	1	-1
444.554	1	1
444.895	1	-20
445.237	1	-3
445.578	1	2
445.919	1	-2
446.260	1	5
446.601	1	-7
446.942	1	-1
447.283	1	-2
447.624	1	-4
447.965	1	5
448.306	1	-1
448.647	1	-1
448.988	1	11
449.329	1	2
449.670	1	-11
450.011	1	4
450.352	1	-7
450.693	1	1
451.034	1	-1
451.375	1	-2
451.716	1	4
452.057	1	-1
452.398	1	2
452.739	1	6
453.080	1	-3
453.421	1	3
453.762	1	1
454.103	1	-10
454.444	1	-6
454.785	1	-8
455.126	1	8
455.467	1	-11
455.808	1	5
456.149	1	-3
456.490	1	0
456.831	1	-5
457.172	1	-2
457.513	1	1
457.854	1	11
458.195	1	-3
458.536	1	-8
458.877	1	-1
459.218	1	0
459.559	1	-1
459.899	1	-1
460.240	1	-3
460.581	1	0
460.922	1	-11
461.263	1	-4
461.604	1	8
461.945	1	1
462.286	1	-11
462.627	1	-1
462.968	1	3
463.309	1	-1
463.649	1	3
463.990	1	-10
464.331	1	3
464.672	1	-8
465.013	1	3
465.354	1	-6
465.695	1	0
466.036	1	-4
466.376	1	-9
466.717	1	-2
467.058	1	0
467.399	1	8
467.740	1	-11
468.081	1	6
468.422	1	2
468.762	1	-1
469.103	1	10
469.444	1	-4
469.785	1	-13
470.126	1	1
470.467	1	2
470.807	1	-2
471.148	1	-2
471.489	1	-3
471.830	1	-1
472.171	1	-3
472.511	1	4
472.852	1	7
473.193	1	1
473.534	1	-3
473.875	1	7
474.215	1	3
474.556	1	6
474.897	1	3
475.238	1	-4
475.578	1	0
475.919	1	6
476.260	1	7
476.601	1	0
476.942	1	-4
477.282	1	2
477.623	1	2
477.964	1	2
478.305	1	-9
478.645	1	1
478.986	1	-8
479.327	1	-7
479.667	1	-7
480.008	1	-3
480.349	1	-1
480.690	1	11
481.030	1	3
481.371	1	-5
481.712	1	6
482.053	1	-8
482.393	1	-2
482.734	1	-1
483.075	1	7
483.415	1	-5
483.756	1	-1
484.097	1	-9
484.437	1	-8
484.778	1	-12
485.119	1	0
485.459	1	-5
485.800	1	-12
486.141	1	12
486.481	1	-2
486.822	1	5
487.163	1	3
487.503	1	1
487.844	1	6
488.185	1	0
488.525	1	2
488.866	1	6
489.207	1	4
489.547	1	20
489.888	1	-1
490.228	1	-10
490.569	1	-5
490.910	1	9
491.250	1	-1
491.591	1	-1
491.932	1	0
492.272	1	9
492.613	1	8
492.953	1	-2
493.294	1	-5
493.635	1	-4
493.975	1	-2
494.316	1	1
494.656	1	-9
494.997	1	1
495.337	1	6
495.678	1	4
496.019	1	-6
496.359	1	2
496.700	1	-2
497.040	1	-5
497.381	1	-1
497.721	1	-3
498.062	1	4
498.403	1	5
498.743	1	-4
499.084	1	16
499.424	1	16
499.765	1	-7
500.105	1	-7
500.446	1	-7
500.786	1	-5
501.127	1	7
501.467	1	-4
501.808	1	2
502.148	1	4
502.489	1	-3
502.829	1	-3
503.170	1	8
503.510	1	8
503.851	1	-7
504.191	1	-8
504.532	1	-7
504.872	1	10
505.213	1	6
505.553	1	5
505.894	1	5
506.234	1	-13
506.575	1	6
506.915	1	9
507.256	1	2
507.596	1	8
507.936	1	7
508.277	1	-12
508.617	1	9
508.958	1	0
509.298	1	-7
509.639	1	3
509.979	1	4
510.319	1	-8
510.660	1	-8
511.000	1	5
511.341	1	1
511.681	1	2
512.022	1	3
512.362	1	-1
512.702	1	-1
513.043	1	3
513.383	1	6
513.724	1	3
514.064	1	1
514.404	1	1
514.745	1	-1
515.085	1	3
515.425	1	-1
515.766	1	1
516.106	1	5
516.447	1	-2
516.787	1	8
517.127	1	8
517.468	1	3
517.808	1	18
518.148	1	-2
518.489	1	9
518.829	1	-9
519.169	1	4
519.510	1	4
519.850	1	-1
520.190	1	-2
520.531	1	6
520.871	1	10
521.211	1	3
521.552	1	1
521.892	1	2
522.232	1	-10
522.573	1	1
522.913	1	4
523.253	1	9
523.593	1	-2
523.934	1	-4
524.274	1	0
524.614	1	1
524.955	1	3
525.295	1	-2
525.635	1	2
525.975	1	5
526.316	1	7
526.656	1	6
526.996	1	-2
527.337	1	-3
527.677	1	-9
528.017	1	9
528.357	1	-3
528.698	1	-11
529.038	1	-4
529.378	1	11
529.718	1	11
530.058	1	2
530.399	1	-9
530.739	1	2
531.079	1	2
531.419	1	5
531.760	1	7
532.100	1	0
532.440	1	0
532.780	1	2
533.120	1	2
533.461	1	1
533.801	1	4
534.141	1	-6
534.481	1	3
534.821	1	10
535.162	1	-6
535.502	1	-1
535.842	1	1
536.182	1	-1
536.522	1	1
536.862	1	5
537.203	1	1
537.543	1	8
537.883	1	2
538.223	1	3
538.563	1	-3
538.903	1	-3
539.243	1	1
539.584	1	4
539.924	1	-8
540.264	1	5
540.604	1	-5
540.944	1	-14
541.284	1	4
541.624	1	-6
541.964	1	4
542.305	1	3
542.645	1	-8
542.985	1	8
543.325	1	0
543.665	1	3
544.005	1	10
544.345	1	7
544.685	1	-4
545.025	1	-6
545.365	1	-8
545.705	1	3
546.045	1	-1
546.386	1	-10
546.726	1	-4
547.066	1	14
547.406	1	8
547.746	1	-10
548.086	1	3
548.426	1	5
548.766	1	-2
549.106	1	8
549.446	1	0
549.786	1	-1
550.126	1	-3
550.466	1	-1
550.806	1	-5
551.146	1	8
551.486	1	-4
551.826	1	0
552.166	1	-4
552.506	1	2
552.846	1	0
553.186	1	2
553.526	1	-8
553.866	1	-4
554.206	1	-1
554.546	1	-3
554.886	1	9
555.226	1	-1
555.566	1	2
555.906	1	-8
556.246	1	3
556.586	1	-4
556.926	1	8
557.266	1	5
557.606	1	9
557.946	1	5
558.286	1	4
558.626	1	13
558.966	1	3
559.306	1	3
559.646	1	6
559.986	1	-1
560.325	1	-6
560.665	1	5
561.005	1	0
561.345	1	-8
561.685	1	5
562.025	1	-7
562.365	1	4
562.705	1	13
563.045	1	2
563.385	1	5
563.725	1	-7
564.064	1	3
564.404	1	4
564.744	1	-1
565.084	1	2
565.424	1	11
565.764	1	6
566.104	1	-2
566.444	1	8
566.783	1	-1
567.123	1	-2
567.463	1	-2
567.803	1	8
568.143	1	5
568.483	1	-6
568.823	1	0
569.162	1	7
569.502	1	-8
569.842	1	-6
570.182	1	3
570.522	1	5
570.862	1	1
571.201	1	11
571.541	1	-8
571.881	1	-9
572.221	1	-7
572.561	1	8
572.900	1	-6
573.240	1	5
573.580	1	1
573.920	1	13
574.260	1	0
574.599	1	-3
574.939	1	-6
575.279	1	5
575.619	1	11
575.959	1	-9
576.298	1	8
576.638	1	-2
576.978	1	-4
577.318	1	1
577.657	1	14
577.997	1	-3
578.337	1	-8
578.677	1	-1
579.016	1	5
579.356	1	4
579.696	1	-3
580.036	1	0
580.375	1	-3
580.715	1	3
581.055	1	-1
581.394	1	3
581.734	1	8
582.074	1	7
582.414	1	-8
582.753	1	10
583.093	1	2
583.433	1	5
583.772	1	1
584.112	1	4
584.452	1	-9
584.791	1	4
585.131	1	8
585.471	1	8
585.811	1	-13
586.150	1	3
586.490	1	6
586.830	1	-1
587.169	1	14
587.509	1	1
587.849	1	3
588.188	1	2
588.528	1	-1
588.867	1	6
589.207	1	1
589.547	1	6
589.886	1	-4
590.226	1	-8
590.566	1	4
590.905	1	10
591.245	1	5
591.585	1	-6
591.924	1	-5
592.264	1	-7
592.603	1	-9
592.943	1	7
593.283	1	9
593.622	1	-10
593.962	1	0
594.301	1	2
594.641	1	1
594.981	1	9
595.320	1	3
595.660	1	2
595.999	1	0
596.339	1	11
596.678	1	-5
597.018	1	-2
597.358	1	-13
597.697	1	-2
598.037	1	1
598.376	1	-6
598.716	1	4
599.055	1	2
599.395	1	-6
599.734	1	4
600.074	1	-6
600.413	1	1
600.753	1	5
601.092	1	5
601.432	1	-4
601.771	1	5
602.111	1	0
602.451	1	5
602.790	1	13
603.130	1	-8
603.469	1	2
603.809	1	-2
604.148	1	4
604.487	1	6
604.827	1	-9
605.166	1	5
605.506	1	-9
605.845	1	-2
606.185	1	2
606.524	1	-6
606.864	1	-1
607.203	1	4
607.543	1	8
607.882	1	-9
608.222	1	0
608.561	1	-2
608.901	1	3
609.240	1	9
609.579	1	-1
609.919	1	-1
610.258	1	13
610.598	1	10
610.937	1	3
611.277	1	-5
611.616	1	-2
611.955	1	-3
612.295	1	0
612.634	1	2
612.974	1	4
613.313	1	-8
613.652	1	10
613.992	1	-1
614.331	1	-3
614.671	1	6
615.010	1	3
615.349	1	2
615.689	1	12
616.028	1	0
616.368	1	1
616.707	1	10
617.046	1	2
617.386	1	-3
617.725	1	7
618.064	1	0
618.404	1	0
618.743	1	0
619.082	1	-2
619.422	1	-2
619.761	1	-8
620.100	1	-2
620.440	1	3
620.779	1	3
621.118	1	0
621.458	1	2
621.797	1	1
622.136	1	3
622.476	1	-13
622.815	1	2
623.154	1	8
623.494	1	-4
623.833	1	7
624.172	1	-7
624.511	1	3
624.851	1	-6
625.190	1	10
625.529	1	6
625.869	1	3
626.208	1	4
626.547	1	-3
626.886	1	2
627.226	1	6
627.565	1	3
627.904	1	0
628.243	1	-6
628.583	1	-8
628.922	1	-14
629.261	1	0
629.600	1	3
629.940	1	-4
630.279	1	-2
630.618	1	-4
630.957	1	2
631.297	1	-8
631.636	1	12
631.975	1	-4
632.314	1	-1
632.653	1	3
632.993	1	2
633.332	1	0
633.671	1	6
634.010	1	5
634.349	1	-7
634.689	1	-1
635.028	1	4
635.367	1	0
635.706	1	-7
636.045	1	6
636.384	1	8
636.724	1	4
637.063	1	4
637.402	1	10
637.741	1	-2
638.080	1	9
638.419	1	-3
638.759	1	2
639.098	1	-8
639.437	1	-6
639.776	1	3
640.115	1	9
640.454	1	5
640.793	1	-10
641.132	1	-1
641.472	1	-2
641.811	1	7
642.150	1	3
642.489	1	-4
642.828	1	4
643.167	1	-9
643.506	1	2
643.845	1	4
644.184	1	12
644.524	1	5
644.863	1	-6
645.202	1	13
645.541	1	4
645.880	1	6
646.219	1	2
646.558	1	7
646.897	1	7
647.236	1	-3
647.575	1	-6
647.914	1	0
648.253	1	-2
648.592	1	4
648.931	1	5
649.270	1	-8
649.610	1	1
649.949	1	-10
650.288	1	6
650.627	1	-1
650.966	1	-2
651.305	1	-11
651.644	1	8
651.983	1	6
652.322	1	0
652.661	1	4
653.000	1	-9
653.339	1	-6
653.678	1	-2
654.017	1	5
654.356	1	-6
654.695	1	6
655.034	1	-6
655.373	1	7
655.712	1	-7
656.051	1	8
656.390	1	0
656.729	1	2
657.068	1	5
657.406	1	3
657.745	1	2
658.084	1	-10
658.423	1	-1
658.762	1	-7
659.101	1	6
659.440	1	1
659.779	1	1
660.118	1	0
660.457	1	10
660.796	1	1
661.135	1	-12
661.474	1	6
661.813	1	-4
662.152	1	-3
662.491	1	-12
662.829	1	-1
663.168	1	1
663.507	1	2
663.846	1	-2
664.185	1	5
664.524	1	6
664.863	1	5
665.202	1	15
665.541	1	-1
665.879	1	-2
666.218	1	6
666.557	1	-3
666.896	1	-2
667.235	1	3
667.574	1	-13
667.913	1	-3
668.251	1	6
668.590	1	0
668.929	1	-1
669.268	1	-6
669.607	1	-6
669.946	1	3
670.285	1	11
670.623	1	-4
670.962	1	-2
671.301	1	0
671.640	1	-1
671.979	1	6
672.317	1	7
672.656	1	-8
672.995	1	-10
673.334	1	-8
673.673	1	-8
674.011	1	2
674.350	1	3
674.689	1	5
675.028	1	1
675.367	1	-9
675.705	1	7
676.044	1	10
676.383	1	-4
676.722	1	14
677.060	1	0
677.399	1	-5
677.738	1	-5
678.077	1	14
678.416	1	5
678.754	1	5
679.093	1	8
679.432	1	0
679.771	1	2
680.109	1	-2
680.448	1	-3
680.787	1	-7
681.125	1	3
681.464	1	6
681.803	1	5
682.142	1	-3
682.480	1	0
682.819	1	5
683.158	1	-2
683.496	1	-4
683.835	1	0
684.174	1	-6
684.512	1	-2
684.851	1	-2
685.190	1	-2
685.529	1	6
685.867	1	4
686.206	1	-1
686.545	1	1
686.883	1	-17
687.222	1	-5
687.561	1	3
687.899	1	-9
688.238	1	-3
688.577	1	15
688.746	1	-12