File: Data/GaN_170K_550ms/GaN_sample D_spot 18_UVVIS_170 K_200um_550 ms 2x2mm1_39.txt
340.368	1	5
340.710	1	-8
341.052	1	6
341.394	1	11
341.737	1	1
342.079	1	1
342.421	1	8
342.763	1	-4
343.105	1	8
343.447	1	-7
343.789	1	7
344.131	1	1
344.473	1	7
344.815	1	18
345.157	1	-7
345.499	1	3
345.841	1	2
346.183	1	1
346.526	1	1
346.868	1	15
347.210	1	-3
347.552	1	13
347.894	1	4
348.236	1	-2
348.578	1	4
348.920	1	-1
349.262	1	2
349.604	1	7
349.946	1	3
350.288	1	1
350.630	1	10
350.972	1	-8
351.314	1	5
351.656	1	-8
351.998	1	1
352.340	1	9
352.682	1	3
353.024	1	5
353.366	1	10
353.708	1	14
354.050	1	-5
354.392	1	3
354.734	1	2
355.076	1	6
355.418	1	-5
355.760	1	-7
356.102	1	9
356.444	1	-2
356.785	1	0
357.127	1	1
357.469	1	4
357.811	1	2
358.153	1	8
358.495	1	-5
358.837	1	1
359.179	1	-8
359.521	1	9
359.863	1	3
360.205	1	8
360.547	1	7
360.889	1	11
361.231	1	0
361.572	1	5
361.914	1	-5
362.256	1	-2
362.598	1	1
362.940	1	11
363.282	1	4
363.624	1	7
363.966	1	11
364.308	1	-1
364.649	1	-4
364.991	1	8
365.333	1	0
365.675	1	1
366.017	1	4
366.359	1	2
366.701	1	1
367.042	1	-8
367.384	1	3
367.726	1	5
368.068	1	1
368.410	1	14
368.752	1	2
369.093	1	1
369.435	1	-2
369.777	1	6
370.119	1	-5
370.461	1	6
370.803	1	-6
371.144	1	0
371.486	1	1
371.828	1	3
372.170	1	0
372.512	1	1
372.853	1	0
373.195	1	1
373.537	1	14
373.879	1	-5
374.220	1	13
374.562	1	-7
374.904	1	-4
375.246	1	1
375.588	1	7
375.929	1	7
376.271	1	6
376.613	1	0
376.955	1	1
377.296	1	1
377.638	1	3
377.980	1	-11
378.321	1	4
378.663	1	-1
379.005	1	-1
379.347	1	-4
379.688	1	4
380.030	1	1
380.372	1	3
380.714	1	15
381.055	1	9
381.397	1	3
381.739	1	0
382.080	1	-5
382.422	1	1
382.764	1	-10
383.105	1	14
383.447	1	10
383.789	1	15
384.130	1	-9
384.472	1	-8
384.814	1	2
385.156	1	-1
385.497	1	9
385.839	1	-5
386.180	1	7
386.522	1	3
386.864	1	12
387.205	1	-4
387.547	1	-2
387.889	1	13
388.230	1	2
388.572	1	7
388.914	1	-3
389.255	1	13
389.597	1	1
389.939	1	0
390.280	1	-4
390.622	1	1
390.963	1	-1
391.305	1	-7
391.647	1	-7
391.988	1	10
392.330	1	6
392.671	1	-3
393.013	1	1
393.355	1	9
393.696	1	14
394.038	1	-5
394.379	1	-6
394.721	1	7
395.062	1	-5
395.404	1	5
395.746	1	7
396.087	1	10
396.429	1	1
396.770	1	6
397.112	1	5
397.453	1	4
397.795	1	5
398.136	1	9
398.478	1	7
398.819	1	4
399.161	1	-3
399.503	1	6
399.844	1	2
400.186	1	-4
400.527	1	7
400.869	1	-3
401.210	1	10
401.552	1	-2
401.893	1	10
402.235	1	2
402.576	1	-2
402.918	1	4
403.259	1	2
403.601	1	10
403.942	1	1
404.284	1	-7
404.625	1	3
404.967	1	2
405.308	1	6
405.649	1	0
405.991	1	9
406.332	1	-10
406.674	1	2
407.015	1	3
407.357	1	-1
407.698	1	7
408.040	1	4
408.381	1	0
408.722	1	-5
409.064	1	0
409.405	1	11
409.747	1	-1
410.088	1	8
410.430	1	0
410.771	1	2
411.112	1	2
411.454	1	3
411.795	1	10
412.137	1	-4
412.478	1	-4
412.819	1	-13
413.161	1	7
413.502	1	5
413.844	1	7
414.185	1	-6
414.526	1	2
414.868	1	4
415.209	1	-7
415.550	1	0
415.892	1	1
416.233	1	5
416.575	1	7
416.916	1	1
417.257	1	0
417.599	1	2
417.940	1	6
418.281	1	-7
418.623	1	4
418.964	1	-9
419.305	1	-2
419.647	1	5
419.988	1	3
420.329	1	4
420.671	1	-8
421.012	1	7
421.353	1	1
421.695	1	-7
422.036	1	6
422.377	1	5
422.718	1	10
423.060	1	-7
423.401	1	3
423.742	1	-6
424.084	1	8
424.425	1	-5
424.766	1	-5
425.107	1	-8
425.449	1	2
425.790	1	5
426.131	1	7
426.472	1	5
426.814	1	-6
427.155	1	14
427.496	1	-8
427.837	1	1
428.179	1	12
428.520	1	-3
428.861	1	-1
429.202	1	-5
429.544	1	-4
429.885	1	-5
430.226	1	0
430.567	1	7
430.909	1	-1
431.250	1	10
431.591	1	1
431.932	1	-1
432.273	1	3
432.615	1	1
432.956	1	8
433.297	1	0
433.638	1	12
433.979	1	-1
434.320	1	7
434.662	1	-8
435.003	1	6
435.344	1	5
435.685	1	-1
436.026	1	1
436.368	1	10
436.709	1	-10
437.050	1	-10
437.391	1	-4
437.732	1	6
438.073	1	1
438.414	1	-6
438.756	1	-3
439.097	1	4
439.438	1	6
439.779	1	8
440.120	1	3
440.461	1	14
440.802	1	9
441.143	1	-12
441.485	1	-5
441.826	1	7
442.167	1	7
442.508	1	0
442.849	1	1
443.190	1	-5
443.531	1	-3
443.872	1	6
444.213	1	-7
444.554	1	-6
444.895	1	-16
445.237	1	-5
445.578	1	6
445.919	1	5
446.260	1	-2
446.601	1	-7
446.942	1	6
447.283	1	12
447.624	1	-8
447.965	1	5
448.306	1	0
448.647	1	2
448.988	1	11
449.329	1	1
449.670	1	-6
450.011	1	5
450.352	1	-6
450.693	1	-3
451.034	1	0
451.375	1	6
451.716	1	5
452.057	1	3
452.398	1	5
452.739	1	5
453.080	1	5
453.421	1	9
453.762	1	3
454.103	1	-2
454.444	1	-3
454.785	1	-10
455.126	1	6
455.467	1	-15
455.808	1	9
456.149	1	7
456.490	1	3
456.831	1	-7
457.172	1	1
457.513	1	8
457.854	1	13
458.195	1	-3
458.536	1	-8
458.877	1	5
459.218	1	1
459.559	1	2
459.899	1	2
460.240	1	-10
460.581	1	5
460.922	1	1
461.263	1	-2
461.604	1	8
461.945	1	-1
462.286	1	-1
462.627	1	4
462.968	1	13
463.309	1	4
463.649	1	2
463.990	1	1
464.331	1	5
464.672	1	2
465.013	1	12
465.354	1	-9
465.695	1	11
466.036	1	-7
466.376	1	2
466.717	1	-5
467.058	1	-1
467.399	1	6
467.740	1	0
468.081	1	-1
468.422	1	10
468.762	1	8
469.103	1	8
469.444	1	0
469.785	1	-5
470.126	1	11
470.467	1	-2
470.807	1	-1
471.148	1	-2
471.489	1	5
471.830	1	2
472.171	1	10
472.511	1	9
472.852	1	1
473.193	1	11
473.534	1	14
473.875	1	4
474.215	1	4
474.556	1	11
474.897	1	0
475.238	1	-10
475.578	1	-3
475.919	1	6
476.260	1	8
476.601	1	4
476.942	1	0
477.282	1	8
477.623	1	14
477.964	1	0
478.305	1	-4
478.645	1	4
478.986	1	-7
479.327	1	-9
479.667	1	3
480.008	1	8
480.349	1	0
480.690	1	1
481.030	1	11
481.371	1	1
481.712	1	2
482.053	1	-3
482.393	1	-4
482.734	1	4
483.075	1	-3
483.415	1	-2
483.756	1	6
484.097	1	-4
484.437	1	3
484.778	1	-4
485.119	1	2
485.459	1	-7
485.800	1	-9
486.141	1	15
486.481	1	0
486.822	1	3
487.163	1	3
487.503	1	3
487.844	1	13
488.185	1	-4
488.525	1	7
488.866	1	9
489.207	1	6
489.547	1	7
489.888	1	9
490.228	1	-5
490.569	1	11
490.910	1	3
491.250	1	4
491.591	1	-5
491.932	1	5
492.272	1	5
492.613	1	3
492.953	1	4
493.294	1	-4
493.635	1	-6
493.975	1	3
494.316	1	3
494.656	1	0
494.997	1	0
495.337	1	7
495.678	1	6
496.019	1	-15
496.359	1	7
496.700	1	7
497.040	1	1
497.381	1	7
497.721	1	-1
498.062	1	-2
498.403	1	6
498.743	1	-5
499.084	1	2
499.424	1	6
499.765	1	-12
500.105	1	1
500.446	1	0
500.786	1	3
501.127	1	-6
501.467	1	0
501.808	1	5
502.148	1	10
502.489	1	0
502.829	1	-5
503.170	1	5
503.510	1	4
503.851	1	-2
504.191	1	-5
504.532	1	-11
504.872	1	1
505.213	1	-3
505.553	1	-2
505.894	1	10
506.234	1	-6
506.575	1	7
506.915	1	11
507.256	1	-4
507.596	1	3
507.936	1	13
508.277	1	-2
508.617	1	9
508.958	1	-2
509.298	1	-2
509.639	1	7
509.979	1	7
510.319	1	0
510.660	1	-11
511.000	1	5
511.341	1	7
511.681	1	-2
512.022	1	2
512.362	1	-5
512.702	1	-4
513.043	1	0
513.383	1	0
513.724	1	-3
514.064	1	8
514.404	1	-5
514.745	1	-4
515.085	1	1
515.425	1	3
515.766	1	-1
516.106	1	1
516.447	1	-2
516.787	1	5
517.127	1	8
517.468	1	6
517.808	1	5
518.148	1	5
518.489	1	7
518.829	1	-5
519.169	1	2
519.510	1	3
519.850	1	0
520.190	1	-1
520.531	1	6
520.871	1	-3
521.211	1	5
521.552	1	3
521.892	1	7
522.232	1	-4
522.573	1	5
522.913	1	2
523.253	1	12
523.593	1	9
523.934	1	5
524.274	1	3
524.614	1	6
524.955	1	-11
525.295	1	2
525.635	1	4
525.975	1	-3
526.316	1	10
526.656	1	7
526.996	1	7
527.337	1	2
527.677	1	-2
528.017	1	6
528.357	1	-1
528.698	1	-6
529.038	1	1
529.378	1	-9
529.718	1	10
530.058	1	8
530.399	1	4
530.739	1	4
531.079	1	5
531.419	1	5
531.760	1	-5
532.100	1	-1
532.440	1	4
532.780	1	-4
533.120	1	-2
533.461	1	-1
533.801	1	7
534.141	1	-1
534.481	1	15
534.821	1	4
535.162	1	0
535.502	1	1
535.842	1	3
536.182	1	4
536.522	1	8
536.862	1	15
537.203	1	8
537.543	1	2
537.883	1	1
538.223	1	-4
538.563	1	5
538.903	1	7
539.243	1	5
539.584	1	-7
539.924	1	5
540.264	1	13
540.604	1	8
540.944	1	1
541.284	1	13
541.624	1	-2
541.964	1	3
542.305	1	-7
542.645	1	-6
542.985	1	7
543.325	1	1
543.665	1	2
544.005	1	5
544.345	1	2
544.685	1	7
545.025	1	0
545.365	1	4
545.705	1	4
546.045	1	-1
546.386	1	6
546.726	1	0
547.066	1	11
547.406	1	6
547.746	1	4
548.086	1	-7
548.426	1	15
548.766	1	3
549.106	1	11
549.446	1	-8
549.786	1	-3
550.126	1	5
550.466	1	1
550.806	1	-3
551.146	1	3
551.486	1	-2
551.826	1	-2
552.166	1	-4
552.506	1	5
552.846	1	0
553.186	1	1
553.526	1	0
553.866	1	-5
554.206	1	3
554.546	1	-5
554.886	1	-1
555.226	1	1
555.566	1	10
555.906	1	3
556.246	1	2
556.586	1	6
556.926	1	5
557.266	1	4
557.606	1	3
557.946	1	9
558.286	1	-1
558.626	1	12
558.966	1	9
559.306	1	5
559.646	1	-6
559.986	1	0
560.325	1	1
560.665	1	-1
561.005	1	0
561.345	1	-4
561.685	1	4
562.025	1	-3
562.365	1	9
562.705	1	4
563.045	1	-7
563.385	1	7
563.725	1	-4
564.064	1	5
564.404	1	-1
564.744	1	0
565.084	1	3
565.424	1	9
565.764	1	-6
566.104	1	0
566.444	1	7
566.783	1	4
567.123	1	1
567.463	1	7
567.803	1	4
568.143	1	-3
568.483	1	-2
568.823	1	-8
569.162	1	1
569.502	1	3
569.842	1	-4
570.182	1	2
570.522	1	0
570.862	1	11
571.201	1	13
571.541	1	-14
571.881	1	1
572.221	1	2
572.561	1	-3
572.900	1	-3
573.240	1	0
573.580	1	-1
573.920	1	11
574.260	1	-3
574.599	1	-5
574.939	1	0
575.279	1	0
575.619	1	12
575.959	1	1
576.298	1	2
576.638	1	0
576.978	1	1
577.318	1	-3
577.657	1	2
577.997	1	-5
578.337	1	6
578.677	1	4
579.016	1	1
579.356	1	0
579.696	1	-5
580.036	1	8
580.375	1	-1
580.715	1	5
581.055	1	1
581.394	1	0
581.734	1	10
582.074	1	-3
582.414	1	-4
582.753	1	-1
583.093	1	3
583.433	1	11
583.772	1	-9
584.112	1	8
584.452	1	-4
584.791	1	5
585.131	1	11
585.471	1	-3
585.811	1	0
586.150	1	-1
586.490	1	6
586.830	1	-1
587.169	1	15
587.509	1	4
587.849	1	2
588.188	1	4
588.528	1	3
588.867	1	1
589.207	1	4
589.547	1	2
589.886	1	-11
590.226	1	6
590.566	1	2
590.905	1	12
591.245	1	-1
591.585	1	7
591.924	1	-5
592.264	1	2
592.603	1	4
592.943	1	6
593.283	1	2
593.622	1	-3
593.962	1	4
594.301	1	10
594.641	1	2
594.981	1	15
595.320	1	-5
595.660	1	5
595.999	1	-4
596.339	1	8
596.678	1	-7
597.018	1	-2
597.358	1	-2
597.697	1	4
598.037	1	-3
598.376	1	-12
598.716	1	9
599.055	1	-5
599.395	1	-4
599.734	1	13
600.074	1	1
600.413	1	-6
600.753	1	8
601.092	1	-2
601.432	1	1
601.771	1	7
602.111	1	-4
602.451	1	9
602.790	1	16
603.130	1	-13
603.469	1	10
603.809	1	3
604.148	1	1
604.487	1	7
604.827	1	1
605.166	1	5
605.506	1	-4
605.845	1	-5
606.185	1	-1
606.524	1	-2
606.864	1	-3
607.203	1	9
607.543	1	11
607.882	1	-1
608.222	1	-3
608.561	1	9
608.901	1	-1
609.240	1	-2
609.579	1	1
609.919	1	-2
610.258	1	5
610.598	1	4
610.937	1	9
611.277	1	1
611.616	1	1
611.955	1	1
612.295	1	0
612.634	1	-1
612.974	1	8
613.313	1	-3
613.652	1	17
613.992	1	4
614.331	1	0
614.671	1	19
615.010	1	0
615.349	1	0
615.689	1	4
616.028	1	-5
616.368	1	-6
616.707	1	-1
617.046	1	-8
617.386	1	6
617.725	1	9
618.064	1	-2
618.404	1	6
618.743	1	5
619.082	1	4
619.422	1	-6
619.761	1	0
620.100	1	-3
620.440	1	-2
620.779	1	-1
621.118	1	-4
621.458	1	2
621.797	1	6
622.136	1	-1
622.476	1	0
622.815	1	2
623.154	1	2
623.494	1	-3
623.833	1	0
624.172	1	2
624.511	1	6
624.851	1	-4
625.190	1	9
625.529	1	14
625.869	1	7
626.208	1	2
626.547	1	-2
626.886	1	5
627.226	1	4
627.565	1	-3
627.904	1	-6
628.243	1	-2
628.583	1	-8
628.922	1	-1
629.261	1	4
629.600	1	0
629.940	1	-11
630.279	1	6
630.618	1	1
630.957	1	10
631.297	1	4
631.636	1	9
631.975	1	-7
632.314	1	8
632.653	1	6
632.993	1	1
633.332	1	5
633.671	1	9
634.010	1	2
634.349	1	2
634.689	1	8
635.028	1	4
635.367	1	-13
635.706	1	4
636.045	1	6
636.384	1	0
636.724	1	14
637.063	1	8
637.402	1	9
637.741	1	3
638.080	1	10
638.419	1	-8
638.759	1	0
639.098	1	4
639.437	1	-6
639.776	1	5
640.115	1	5
640.454	1	3
640.793	1	-6
641.132	1	5
641.472	1	0
641.811	1	12
642.150	1	3
642.489	1	-2
642.828	1	4
643.167	1	7
643.506	1	12
643.845	1	9
644.184	1	14
644.524	1	-2
644.863	1	-2
645.202	1	10
645.541	1	-3
645.880	1	1
646.219	1	1
646.558	1	9
646.897	1	6
647.236	1	5
647.575	1	-9
647.914	1	4
648.253	1	4
648.592	1	-7
648.931	1	2
649.270	1	-5
649.610	1	6
649.949	1	-8
650.288	1	-2
650.627	1	-5
650.966	1	1
651.305	1	0
651.644	1	9
651.983	1	2
652.322	1	3
652.661	1	4
653.000	1	-10
653.339	1	-1
653.678	1	5
654.017	1	12
654.356	1	-3
654.695	1	3
655.034	1	-6
655.373	1	4
655.712	1	-6
656.051	1	10
656.390	1	1
656.729	1	7
657.068	1	8
657.406	1	0
657.745	1	9
658.084	1	-7
658.423	1	1
658.762	1	-1
659.101	1	-1
659.440	1	4
659.779	1	3
660.118	1	3
660.457	1	10
660.796	1	1
661.135	1	-13
661.474	1	1
661.813	1	-3
662.152	1	4
662.491	1	-5
662.829	1	-3
663.168	1	-3
663.507	1	3
663.846	1	-8
664.185	1	6
664.524	1	8
664.863	1	0
665.202	1	11
665.541	1	1
665.879	1	5
666.218	1	9
666.557	1	5
666.896	1	2
667.235	1	0
667.574	1	-8
667.913	1	-1
668.251	1	4
668.590	1	-6
668.929	1	8
669.268	1	-2
669.607	1	-2
669.946	1	-4
670.285	1	4
670.623	1	0
670.962	1	0
671.301	1	1
671.640	1	15
671.979	1	1
672.317	1	10
672.656	1	4
672.995	1	-3
673.334	1	-7
673.673	1	5
674.011	1	3
674.350	1	1
674.689	1	8
675.028	1	5
675.367	1	-8
675.705	1	5
676.044	1	17
676.383	1	6
676.722	1	8
677.060	1	-5
677.399	1	3
677.738	1	-7
678.077	1	14
678.416	1	0
678.754	1	-2
679.093	1	6
679.432	1	6
679.771	1	-1
680.109	1	4
680.448	1	2
680.787	1	-2
681.125	1	11
681.464	1	6
681.803	1	6
682.142	1	3
682.480	1	5
682.819	1	6
683.158	1	-2
683.496	1	12
683.835	1	2
684.174	1	-4
684.512	1	1
684.851	1	-1
685.190	1	-3
685.529	1	10
685.867	1	4
686.206	1	5
686.545	1	10
686.883	1	5
687.222	1	0
687.561	1	3
687.899	1	-5
688.238	1	-2
688.577	1	10
688.746	1	-12