File: Data/GaN_170K_550ms/GaN_sample D_spot 18_UVVIS_170 K_200um_550 ms 2x2mm1_300.txt
340.368	1	-2
340.710	1	-8
341.052	1	0
341.394	1	8
341.737	1	5
342.079	1	-2
342.421	1	1
342.763	1	-6
343.105	1	11
343.447	1	-10
343.789	1	12
344.131	1	8
344.473	1	1
344.815	1	6
345.157	1	-2
345.499	1	-4
345.841	1	-2
346.183	1	0
346.526	1	7
346.868	1	7
347.210	1	-4
347.552	1	7
347.894	1	-4
348.236	1	-8
348.578	1	5
348.920	1	-3
349.262	1	-2
349.604	1	8
349.946	1	2
350.288	1	0
350.630	1	11
350.972	1	-6
351.314	1	8
351.656	1	-3
351.998	1	0
352.340	1	-1
352.682	1	5
353.024	1	-1
353.366	1	-2
353.708	1	6
354.050	1	-3
354.392	1	-3
354.734	1	7
355.076	1	-4
355.418	1	-2
355.760	1	-3
356.102	1	3
356.444	1	3
356.785	1	-7
357.127	1	-1
357.469	1	-2
357.811	1	3
358.153	1	6
358.495	1	-2
358.837	1	3
359.179	1	-6
359.521	1	4
359.863	1	-2
360.205	1	9
360.547	1	10
360.889	1	12
361.231	1	-5
361.572	1	7
361.914	1	0
362.256	1	1
362.598	1	1
362.940	1	22
363.282	1	11
363.624	1	7
363.966	1	-3
364.308	1	10
364.649	1	-2
364.991	1	11
365.333	1	2
365.675	1	5
366.017	1	14
366.359	1	6
366.701	1	11
367.042	1	-1
367.384	1	16
367.726	1	16
368.068	1	18
368.410	1	17
368.752	1	5
369.093	1	-1
369.435	1	7
369.777	1	16
370.119	1	4
370.461	1	11
370.803	1	4
371.144	1	4
371.486	1	-4
371.828	1	6
372.170	1	6
372.512	1	-6
372.853	1	15
373.195	1	0
373.537	1	15
373.879	1	7
374.220	1	11
374.562	1	1
374.904	1	8
375.246	1	3
375.588	1	3
375.929	1	1
376.271	1	13
376.613	1	9
376.955	1	12
377.296	1	0
377.638	1	13
377.980	1	-2
378.321	1	7
378.663	1	9
379.005	1	-2
379.347	1	5
379.688	1	2
380.030	1	2
380.372	1	8
380.714	1	8
381.055	1	2
381.397	1	0
381.739	1	-9
382.080	1	0
382.422	1	-1
382.764	1	3
383.105	1	0
383.447	1	3
383.789	1	12
384.130	1	-3
384.472	1	4
384.814	1	4
385.156	1	3
385.497	1	4
385.839	1	-8
386.180	1	8
386.522	1	5
386.864	1	8
387.205	1	-7
387.547	1	4
387.889	1	16
388.230	1	4
388.572	1	5
388.914	1	-2
389.255	1	13
389.597	1	11
389.939	1	-4
390.280	1	-11
390.622	1	2
390.963	1	6
391.305	1	5
391.647	1	-3
391.988	1	3
392.330	1	-3
392.671	1	-6
393.013	1	2
393.355	1	8
393.696	1	12
394.038	1	-6
394.379	1	2
394.721	1	-1
395.062	1	-8
395.404	1	17
395.746	1	17
396.087	1	4
396.429	1	1
396.770	1	6
397.112	1	1
397.453	1	0
397.795	1	-6
398.136	1	-3
398.478	1	-8
398.819	1	1
399.161	1	-5
399.503	1	4
399.844	1	-4
400.186	1	-3
400.527	1	6
400.869	1	2
401.210	1	3
401.552	1	-1
401.893	1	2
402.235	1	12
402.576	1	1
402.918	1	-6
403.259	1	0
403.601	1	7
403.942	1	3
404.284	1	-3
404.625	1	7
404.967	1	3
405.308	1	4
405.649	1	-4
405.991	1	10
406.332	1	-7
406.674	1	6
407.015	1	4
407.357	1	1
407.698	1	1
408.040	1	5
408.381	1	2
408.722	1	-5
409.064	1	-6
409.405	1	2
409.747	1	2
410.088	1	5
410.430	1	0
410.771	1	4
411.112	1	-2
411.454	1	6
411.795	1	11
412.137	1	-8
412.478	1	2
412.819	1	-5
413.161	1	-1
413.502	1	7
413.844	1	0
414.185	1	4
414.526	1	6
414.868	1	-3
415.209	1	-18
415.550	1	-6
415.892	1	5
416.233	1	1
416.575	1	-1
416.916	1	-11
417.257	1	-3
417.599	1	-2
417.940	1	1
418.281	1	-7
418.623	1	1
418.964	1	-6
419.305	1	-7
419.647	1	10
419.988	1	4
420.329	1	9
420.671	1	0
421.012	1	2
421.353	1	6
421.695	1	-7
422.036	1	7
422.377	1	6
422.718	1	2
423.060	1	-8
423.401	1	-10
423.742	1	-6
424.084	1	16
424.425	1	-8
424.766	1	-8
425.107	1	2
425.449	1	11
425.790	1	5
426.131	1	0
426.472	1	10
426.814	1	-12
427.155	1	10
427.496	1	3
427.837	1	8
428.179	1	-11
428.520	1	-3
428.861	1	1
429.202	1	-4
429.544	1	1
429.885	1	11
430.226	1	1
430.567	1	-1
430.909	1	-4
431.250	1	10
431.591	1	9
431.932	1	-7
432.273	1	5
432.615	1	-2
432.956	1	6
433.297	1	1
433.638	1	5
433.979	1	-5
434.320	1	10
434.662	1	-15
435.003	1	11
435.344	1	1
435.685	1	0
436.026	1	-12
436.368	1	1
436.709	1	4
437.050	1	-8
437.391	1	-3
437.732	1	3
438.073	1	0
438.414	1	-9
438.756	1	3
439.097	1	5
439.438	1	4
439.779	1	9
440.120	1	-3
440.461	1	1
440.802	1	12
441.143	1	-4
441.485	1	-7
441.826	1	4
442.167	1	8
442.508	1	-2
442.849	1	-5
443.190	1	7
443.531	1	-2
443.872	1	0
444.213	1	-2
444.554	1	-3
444.895	1	-14
445.237	1	-5
445.578	1	7
445.919	1	-5
446.260	1	4
446.601	1	4
446.942	1	3
447.283	1	2
447.624	1	1
447.965	1	-2
448.306	1	6
448.647	1	-1
448.988	1	9
449.329	1	10
449.670	1	-15
450.011	1	2
450.352	1	-6
450.693	1	-3
451.034	1	-2
451.375	1	-3
451.716	1	3
452.057	1	7
452.398	1	7
452.739	1	6
453.080	1	1
453.421	1	10
453.762	1	-5
454.103	1	-8
454.444	1	0
454.785	1	-5
455.126	1	3
455.467	1	-6
455.808	1	9
456.149	1	0
456.490	1	4
456.831	1	-7
457.172	1	-6
457.513	1	3
457.854	1	11
458.195	1	-4
458.536	1	-2
458.877	1	-1
459.218	1	1
459.559	1	-3
459.899	1	-3
460.240	1	2
460.581	1	5
460.922	1	-2
461.263	1	-4
461.604	1	2
461.945	1	-4
462.286	1	0
462.627	1	2
462.968	1	5
463.309	1	1
463.649	1	6
463.990	1	-4
464.331	1	-2
464.672	1	-1
465.013	1	5
465.354	1	-6
465.695	1	0
466.036	1	-5
466.376	1	2
466.717	1	-4
467.058	1	8
467.399	1	9
467.740	1	1
468.081	1	-1
468.422	1	3
468.762	1	8
469.103	1	6
469.444	1	0
469.785	1	2
470.126	1	9
470.467	1	10
470.807	1	-3
471.148	1	-6
471.489	1	-1
471.830	1	-2
472.171	1	10
472.511	1	2
472.852	1	-6
473.193	1	6
473.534	1	9
473.875	1	2
474.215	1	4
474.556	1	3
474.897	1	7
475.238	1	0
475.578	1	-5
475.919	1	9
476.260	1	8
476.601	1	2
476.942	1	1
477.282	1	5
477.623	1	-1
477.964	1	0
478.305	1	-1
478.645	1	0
478.986	1	2
479.327	1	-10
479.667	1	0
480.008	1	1
480.349	1	0
480.690	1	1
481.030	1	9
481.371	1	5
481.712	1	-4
482.053	1	-8
482.393	1	-7
482.734	1	2
483.075	1	1
483.415	1	5
483.756	1	0
484.097	1	-6
484.437	1	1
484.778	1	-11
485.119	1	6
485.459	1	-10
485.800	1	-5
486.141	1	12
486.481	1	1
486.822	1	1
487.163	1	7
487.503	1	6
487.844	1	13
488.185	1	2
488.525	1	9
488.866	1	11
489.207	1	6
489.547	1	7
489.888	1	1
490.228	1	-1
490.569	1	5
490.910	1	-1
491.250	1	0
491.591	1	5
491.932	1	8
492.272	1	-1
492.613	1	6
492.953	1	-3
493.294	1	5
493.635	1	-5
493.975	1	5
494.316	1	4
494.656	1	5
494.997	1	7
495.337	1	8
495.678	1	-2
496.019	1	-6
496.359	1	6
496.700	1	13
497.040	1	-7
497.381	1	8
497.721	1	-8
498.062	1	-4
498.403	1	4
498.743	1	0
499.084	1	10
499.424	1	13
499.765	1	-5
500.105	1	-6
500.446	1	2
500.786	1	5
501.127	1	8
501.467	1	-3
501.808	1	-2
502.148	1	11
502.489	1	0
502.829	1	5
503.170	1	-1
503.510	1	1
503.851	1	-7
504.191	1	-9
504.532	1	-8
504.872	1	6
505.213	1	-4
505.553	1	0
505.894	1	7
506.234	1	0
506.575	1	0
506.915	1	7
507.256	1	-10
507.596	1	7
507.936	1	5
508.277	1	-1
508.617	1	8
508.958	1	2
509.298	1	7
509.639	1	7
509.979	1	7
510.319	1	-4
510.660	1	-9
511.000	1	-1
511.341	1	3
511.681	1	1
512.022	1	3
512.362	1	-12
512.702	1	-1
513.043	1	0
513.383	1	-1
513.724	1	4
514.064	1	6
514.404	1	-11
514.745	1	-4
515.085	1	0
515.425	1	5
515.766	1	7
516.106	1	5
516.447	1	0
516.787	1	10
517.127	1	6
517.468	1	7
517.808	1	7
518.148	1	1
518.489	1	5
518.829	1	1
519.169	1	6
519.510	1	6
519.850	1	-3
520.190	1	-5
520.531	1	2
520.871	1	-8
521.211	1	5
521.552	1	4
521.892	1	2
522.232	1	-4
522.573	1	12
522.913	1	10
523.253	1	15
523.593	1	15
523.934	1	7
524.274	1	5
524.614	1	4
524.955	1	2
525.295	1	-3
525.635	1	3
525.975	1	4
526.316	1	2
526.656	1	6
526.996	1	7
527.337	1	4
527.677	1	-5
528.017	1	6
528.357	1	-2
528.698	1	-10
529.038	1	-4
529.378	1	3
529.718	1	7
530.058	1	15
530.399	1	6
530.739	1	4
531.079	1	4
531.419	1	5
531.760	1	4
532.100	1	10
532.440	1	4
532.780	1	-11
533.120	1	2
533.461	1	-9
533.801	1	5
534.141	1	-3
534.481	1	15
534.821	1	1
535.162	1	0
535.502	1	2
535.842	1	1
536.182	1	1
536.522	1	7
536.862	1	7
537.203	1	0
537.543	1	-9
537.883	1	3
538.223	1	-6
538.563	1	-2
538.903	1	1
539.243	1	5
539.584	1	4
539.924	1	5
540.264	1	4
540.604	1	4
540.944	1	-9
541.284	1	11
541.624	1	-6
541.964	1	6
542.305	1	-1
542.645	1	0
542.985	1	7
543.325	1	7
543.665	1	7
544.005	1	5
544.345	1	-1
544.685	1	-1
545.025	1	-2
545.365	1	2
545.705	1	2
546.045	1	1
546.386	1	-1
546.726	1	2
547.066	1	13
547.406	1	-3
547.746	1	-7
548.086	1	0
548.426	1	8
548.766	1	3
549.106	1	3
549.446	1	3
549.786	1	-7
550.126	1	-4
550.466	1	-6
550.806	1	7
551.146	1	6
551.486	1	-1
551.826	1	0
552.166	1	-7
552.506	1	10
552.846	1	-8
553.186	1	4
553.526	1	-7
553.866	1	-10
554.206	1	8
554.546	1	-3
554.886	1	-2
555.226	1	-11
555.566	1	5
555.906	1	2
556.246	1	5
556.586	1	0
556.926	1	9
557.266	1	8
557.606	1	2
557.946	1	6
558.286	1	14
558.626	1	1
558.966	1	12
559.306	1	10
559.646	1	-10
559.986	1	8
560.325	1	3
560.665	1	3
561.005	1	8
561.345	1	0
561.685	1	6
562.025	1	-10
562.365	1	4
562.705	1	2
563.045	1	0
563.385	1	10
563.725	1	-6
564.064	1	4
564.404	1	-6
564.744	1	6
565.084	1	1
565.424	1	4
565.764	1	9
566.104	1	0
566.444	1	17
566.783	1	-5
567.123	1	1
567.463	1	-2
567.803	1	9
568.143	1	8
568.483	1	0
568.823	1	2
569.162	1	-2
569.502	1	-4
569.842	1	-2
570.182	1	0
570.522	1	-3
570.862	1	-2
571.201	1	7
571.541	1	-3
571.881	1	-8
572.221	1	2
572.561	1	5
572.900	1	-2
573.240	1	-1
573.580	1	3
573.920	1	12
574.260	1	-1
574.599	1	1
574.939	1	3
575.279	1	-4
575.619	1	17
575.959	1	1
576.298	1	-2
576.638	1	7
576.978	1	-1
577.318	1	2
577.657	1	5
577.997	1	-2
578.337	1	3
578.677	1	5
579.016	1	6
579.356	1	2
579.696	1	-1
580.036	1	-5
580.375	1	-5
580.715	1	-1
581.055	1	0
581.394	1	7
581.734	1	6
582.074	1	-1
582.414	1	-5
582.753	1	2
583.093	1	10
583.433	1	7
583.772	1	-7
584.112	1	0
584.452	1	-3
584.791	1	5
585.131	1	11
585.471	1	3
585.811	1	-3
586.150	1	4
586.490	1	3
586.830	1	0
587.169	1	10
587.509	1	0
587.849	1	-2
588.188	1	16
588.528	1	3
588.867	1	6
589.207	1	-2
589.547	1	3
589.886	1	-14
590.226	1	2
590.566	1	5
590.905	1	2
591.245	1	7
591.585	1	2
591.924	1	0
592.264	1	-4
592.603	1	-4
592.943	1	4
593.283	1	8
593.622	1	-11
593.962	1	0
594.301	1	11
594.641	1	2
594.981	1	12
595.320	1	5
595.660	1	-4
595.999	1	-1
596.339	1	2
596.678	1	1
597.018	1	-12
597.358	1	1
597.697	1	1
598.037	1	5
598.376	1	-11
598.716	1	-2
599.055	1	2
599.395	1	-3
599.734	1	10
600.074	1	-5
600.413	1	-12
600.753	1	-5
601.092	1	-2
601.432	1	-4
601.771	1	10
602.111	1	-1
602.451	1	4
602.790	1	6
603.130	1	-8
603.469	1	1
603.809	1	-1
604.148	1	4
604.487	1	-1
604.827	1	-5
605.166	1	4
605.506	1	0
605.845	1	6
606.185	1	1
606.524	1	-4
606.864	1	2
607.203	1	6
607.543	1	13
607.882	1	-6
608.222	1	-3
608.561	1	7
608.901	1	12
609.240	1	-7
609.579	1	2
609.919	1	-2
610.258	1	4
610.598	1	4
610.937	1	3
611.277	1	-5
611.616	1	5
611.955	1	11
612.295	1	11
612.634	1	-7
612.974	1	6
613.313	1	2
613.652	1	10
613.992	1	3
614.331	1	-7
614.671	1	7
615.010	1	6
615.349	1	5
615.689	1	14
616.028	1	-2
616.368	1	-6
616.707	1	6
617.046	1	0
617.386	1	-4
617.725	1	3
618.064	1	0
618.404	1	-2
618.743	1	5
619.082	1	5
619.422	1	-3
619.761	1	-6
620.100	1	3
620.440	1	6
620.779	1	5
621.118	1	6
621.458	1	-7
621.797	1	0
622.136	1	0
622.476	1	-13
622.815	1	-4
623.154	1	1
623.494	1	-3
623.833	1	8
624.172	1	-2
624.511	1	2
624.851	1	-5
625.190	1	7
625.529	1	7
625.869	1	11
626.208	1	0
626.547	1	-3
626.886	1	3
627.226	1	10
627.565	1	2
627.904	1	-6
628.243	1	-5
628.583	1	-7
628.922	1	-1
629.261	1	4
629.600	1	-4
629.940	1	-8
630.279	1	-2
630.618	1	-12
630.957	1	-4
631.297	1	-1
631.636	1	14
631.975	1	-6
632.314	1	8
632.653	1	11
632.993	1	-4
633.332	1	-2
633.671	1	11
634.010	1	3
634.349	1	-8
634.689	1	5
635.028	1	2
635.367	1	-8
635.706	1	-3
636.045	1	-1
636.384	1	-11
636.724	1	9
637.063	1	2
637.402	1	9
637.741	1	-5
638.080	1	5
638.419	1	-2
638.759	1	2
639.098	1	-10
639.437	1	-8
639.776	1	-4
640.115	1	2
640.454	1	1
640.793	1	0
641.132	1	-4
641.472	1	-1
641.811	1	8
642.150	1	-4
642.489	1	-3
642.828	1	-2
643.167	1	0
643.506	1	3
643.845	1	0
644.184	1	-1
644.524	1	0
644.863	1	-10
645.202	1	8
645.541	1	9
645.880	1	2
646.219	1	3
646.558	1	3
646.897	1	10
647.236	1	0
647.575	1	3
647.914	1	-1
648.253	1	5
648.592	1	5
648.931	1	4
649.270	1	-7
649.610	1	2
649.949	1	-2
650.288	1	1
650.627	1	-2
650.966	1	5
651.305	1	-5
651.644	1	-1
651.983	1	-3
652.322	1	-3
652.661	1	5
653.000	1	-12
653.339	1	-2
653.678	1	1
654.017	1	1
654.356	1	-3
654.695	1	6
655.034	1	-5
655.373	1	5
655.712	1	-5
656.051	1	0
656.390	1	-1
656.729	1	2
657.068	1	7
657.406	1	4
657.745	1	9
658.084	1	-8
658.423	1	1
658.762	1	2
659.101	1	0
659.440	1	-8
659.779	1	3
660.118	1	-1
660.457	1	8
660.796	1	2
661.135	1	-8
661.474	1	13
661.813	1	5
662.152	1	-2
662.491	1	-7
662.829	1	2
663.168	1	0
663.507	1	0
663.846	1	1
664.185	1	3
664.524	1	4
664.863	1	4
665.202	1	14
665.541	1	-7
665.879	1	10
666.218	1	14
666.557	1	2
666.896	1	1
667.235	1	-4
667.574	1	-9
667.913	1	-8
668.251	1	4
668.590	1	2
668.929	1	2
669.268	1	-4
669.607	1	0
669.946	1	9
670.285	1	5
670.623	1	-1
670.962	1	-3
671.301	1	-5
671.640	1	-6
671.979	1	-4
672.317	1	2
672.656	1	-5
672.995	1	-6
673.334	1	1
673.673	1	-8
674.011	1	2
674.350	1	1
674.689	1	4
675.028	1	2
675.367	1	-1
675.705	1	5
676.044	1	7
676.383	1	6
676.722	1	15
677.060	1	-4
677.399	1	7
677.738	1	3
678.077	1	14
678.416	1	-2
678.754	1	4
679.093	1	-1
679.432	1	3
679.771	1	3
680.109	1	5
680.448	1	2
680.787	1	-7
681.125	1	3
681.464	1	9
681.803	1	6
682.142	1	-4
682.480	1	3
682.819	1	6
683.158	1	-1
683.496	1	8
683.835	1	-8
684.174	1	5
684.512	1	-1
684.851	1	-15
685.190	1	-5
685.529	1	9
685.867	1	5
686.206	1	11
686.545	1	11
686.883	1	-1
687.222	1	3
687.561	1	3
687.899	1	-4
688.238	1	-1
688.577	1	7
688.746	1	-4