File: Data/GaN_170K_550ms/GaN_sample D_spot 18_UVVIS_170 K_200um_550 ms 2x2mm1_140.txt
340.368	1	-1
340.710	1	-8
341.052	1	8
341.394	1	6
341.737	1	-7
342.079	1	-3
342.421	1	3
342.763	1	7
343.105	1	13
343.447	1	-6
343.789	1	6
344.131	1	6
344.473	1	-3
344.815	1	16
345.157	1	0
345.499	1	10
345.841	1	0
346.183	1	4
346.526	1	4
346.868	1	1
347.210	1	0
347.552	1	19
347.894	1	0
348.236	1	-5
348.578	1	2
348.920	1	6
349.262	1	3
349.604	1	14
349.946	1	4
350.288	1	-2
350.630	1	10
350.972	1	3
351.314	1	9
351.656	1	3
351.998	1	2
352.340	1	7
352.682	1	3
353.024	1	5
353.366	1	3
353.708	1	14
354.050	1	7
354.392	1	8
354.734	1	8
355.076	1	-2
355.418	1	-1
355.760	1	3
356.102	1	0
356.444	1	4
356.785	1	0
357.127	1	-2
357.469	1	0
357.811	1	9
358.153	1	5
358.495	1	-2
358.837	1	19
359.179	1	3
359.521	1	11
359.863	1	14
360.205	1	14
360.547	1	13
360.889	1	16
361.231	1	10
361.572	1	24
361.914	1	16
362.256	1	16
362.598	1	17
362.940	1	31
363.282	1	19
363.624	1	19
363.966	1	17
364.308	1	28
364.649	1	14
364.991	1	30
365.333	1	28
365.675	1	37
366.017	1	38
366.359	1	29
366.701	1	39
367.042	1	32
367.384	1	38
367.726	1	51
368.068	1	43
368.410	1	54
368.752	1	40
369.093	1	38
369.435	1	29
369.777	1	43
370.119	1	36
370.461	1	48
370.803	1	38
371.144	1	32
371.486	1	24
371.828	1	35
372.170	1	34
372.512	1	29
372.853	1	41
373.195	1	33
373.537	1	44
373.879	1	33
374.220	1	35
374.562	1	22
374.904	1	32
375.246	1	25
375.588	1	19
375.929	1	23
376.271	1	22
376.613	1	19
376.955	1	23
377.296	1	19
377.638	1	17
377.980	1	5
378.321	1	24
378.663	1	15
379.005	1	9
379.347	1	16
379.688	1	8
380.030	1	17
380.372	1	13
380.714	1	23
381.055	1	19
381.397	1	6
381.739	1	8
382.080	1	0
382.422	1	12
382.764	1	8
383.105	1	12
383.447	1	15
383.789	1	15
384.130	1	5
384.472	1	7
384.814	1	15
385.156	1	4
385.497	1	13
385.839	1	7
386.180	1	7
386.522	1	16
386.864	1	2
387.205	1	1
387.547	1	10
387.889	1	18
388.230	1	10
388.572	1	6
388.914	1	12
389.255	1	12
389.597	1	2
389.939	1	0
390.280	1	3
390.622	1	-8
390.963	1	15
391.305	1	5
391.647	1	-5
391.988	1	11
392.330	1	8
392.671	1	9
393.013	1	-2
393.355	1	6
393.696	1	4
394.038	1	3
394.379	1	-9
394.721	1	-3
395.062	1	0
395.404	1	11
395.746	1	7
396.087	1	6
396.429	1	4
396.770	1	6
397.112	1	9
397.453	1	5
397.795	1	3
398.136	1	0
398.478	1	5
398.819	1	9
399.161	1	-3
399.503	1	13
399.844	1	1
400.186	1	-2
400.527	1	18
400.869	1	0
401.210	1	10
401.552	1	6
401.893	1	9
402.235	1	6
402.576	1	-2
402.918	1	12
403.259	1	1
403.601	1	13
403.942	1	7
404.284	1	-11
404.625	1	5
404.967	1	-3
405.308	1	5
405.649	1	-3
405.991	1	2
406.332	1	-7
406.674	1	7
407.015	1	11
407.357	1	-1
407.698	1	10
408.040	1	4
408.381	1	3
408.722	1	-3
409.064	1	4
409.405	1	3
409.747	1	1
410.088	1	5
410.430	1	-2
410.771	1	2
411.112	1	0
411.454	1	6
411.795	1	8
412.137	1	2
412.478	1	-4
412.819	1	-6
413.161	1	2
413.502	1	-3
413.844	1	16
414.185	1	-2
414.526	1	8
414.868	1	-1
415.209	1	-8
415.550	1	-4
415.892	1	-1
416.233	1	-2
416.575	1	4
416.916	1	-7
417.257	1	0
417.599	1	4
417.940	1	-3
418.281	1	-5
418.623	1	8
418.964	1	-2
419.305	1	2
419.647	1	4
419.988	1	1
420.329	1	6
420.671	1	-4
421.012	1	-6
421.353	1	7
421.695	1	-2
422.036	1	12
422.377	1	8
422.718	1	9
423.060	1	0
423.401	1	-2
423.742	1	-4
424.084	1	17
424.425	1	-1
424.766	1	-8
425.107	1	-3
425.449	1	9
425.790	1	2
426.131	1	8
426.472	1	-3
426.814	1	-6
427.155	1	8
427.496	1	-2
427.837	1	9
428.179	1	5
428.520	1	-2
428.861	1	3
429.202	1	3
429.544	1	-8
429.885	1	6
430.226	1	2
430.567	1	10
430.909	1	0
431.250	1	10
431.591	1	2
431.932	1	-9
432.273	1	0
432.615	1	8
432.956	1	7
433.297	1	-11
433.638	1	9
433.979	1	8
434.320	1	9
434.662	1	-11
435.003	1	1
435.344	1	-3
435.685	1	-1
436.026	1	-9
436.368	1	16
436.709	1	-2
437.050	1	-7
437.391	1	2
437.732	1	7
438.073	1	2
438.414	1	-5
438.756	1	-7
439.097	1	10
439.438	1	-4
439.779	1	6
440.120	1	-9
440.461	1	15
440.802	1	15
441.143	1	-4
441.485	1	-1
441.826	1	6
442.167	1	4
442.508	1	-1
442.849	1	4
443.190	1	-4
443.531	1	1
443.872	1	1
444.213	1	0
444.554	1	0
444.895	1	-12
445.237	1	-6
445.578	1	8
445.919	1	1
446.260	1	8
446.601	1	-5
446.942	1	9
447.283	1	6
447.624	1	-5
447.965	1	6
448.306	1	-2
448.647	1	3
448.988	1	7
449.329	1	2
449.670	1	-13
450.011	1	6
450.352	1	-4
450.693	1	-8
451.034	1	-7
451.375	1	8
451.716	1	-3
452.057	1	6
452.398	1	7
452.739	1	8
453.080	1	0
453.421	1	4
453.762	1	2
454.103	1	-1
454.444	1	-12
454.785	1	-2
455.126	1	12
455.467	1	-9
455.808	1	15
456.149	1	-1
456.490	1	9
456.831	1	-10
457.172	1	-1
457.513	1	12
457.854	1	10
458.195	1	0
458.536	1	5
458.877	1	8
459.218	1	3
459.559	1	-11
459.899	1	-3
460.240	1	0
460.581	1	10
460.922	1	-1
461.263	1	-1
461.604	1	7
461.945	1	7
462.286	1	0
462.627	1	3
462.968	1	10
463.309	1	7
463.649	1	9
463.990	1	-2
464.331	1	0
464.672	1	5
465.013	1	8
465.354	1	-2
465.695	1	8
466.036	1	-9
466.376	1	5
466.717	1	-7
467.058	1	5
467.399	1	5
467.740	1	-6
468.081	1	4
468.422	1	4
468.762	1	5
469.103	1	4
469.444	1	0
469.785	1	-6
470.126	1	3
470.467	1	4
470.807	1	0
471.148	1	-3
471.489	1	2
471.830	1	1
472.171	1	11
472.511	1	4
472.852	1	9
473.193	1	5
473.534	1	5
473.875	1	5
474.215	1	3
474.556	1	8
474.897	1	1
475.238	1	-3
475.578	1	-2
475.919	1	0
476.260	1	16
476.601	1	9
476.942	1	1
477.282	1	12
477.623	1	7
477.964	1	4
478.305	1	-2
478.645	1	0
478.986	1	-1
479.327	1	-8
479.667	1	5
480.008	1	5
480.349	1	5
480.690	1	5
481.030	1	5
481.371	1	13
481.712	1	2
482.053	1	-4
482.393	1	-7
482.734	1	11
483.075	1	1
483.415	1	3
483.756	1	2
484.097	1	-8
484.437	1	5
484.778	1	-4
485.119	1	1
485.459	1	-2
485.800	1	-11
486.141	1	8
486.481	1	10
486.822	1	3
487.163	1	2
487.503	1	2
487.844	1	5
488.185	1	13
488.525	1	9
488.866	1	14
489.207	1	17
489.547	1	7
489.888	1	6
490.228	1	-2
490.569	1	-1
490.910	1	-1
491.250	1	13
491.591	1	4
491.932	1	6
492.272	1	7
492.613	1	5
492.953	1	0
493.294	1	7
493.635	1	-8
493.975	1	14
494.316	1	4
494.656	1	-5
494.997	1	1
495.337	1	7
495.678	1	7
496.019	1	-6
496.359	1	11
496.700	1	10
497.040	1	2
497.381	1	9
497.721	1	0
498.062	1	0
498.403	1	11
498.743	1	2
499.084	1	3
499.424	1	9
499.765	1	-11
500.105	1	0
500.446	1	-3
500.786	1	-5
501.127	1	5
501.467	1	3
501.808	1	-1
502.148	1	17
502.489	1	8
502.829	1	5
503.170	1	13
503.510	1	9
503.851	1	8
504.191	1	-12
504.532	1	-3
504.872	1	2
505.213	1	-2
505.553	1	3
505.894	1	14
506.234	1	1
506.575	1	11
506.915	1	10
507.256	1	-2
507.596	1	6
507.936	1	10
508.277	1	-1
508.617	1	17
508.958	1	4
509.298	1	4
509.639	1	11
509.979	1	3
510.319	1	4
510.660	1	-1
511.000	1	5
511.341	1	17
511.681	1	9
512.022	1	8
512.362	1	-1
512.702	1	-3
513.043	1	4
513.383	1	5
513.724	1	-3
514.064	1	11
514.404	1	-5
514.745	1	1
515.085	1	10
515.425	1	8
515.766	1	10
516.106	1	11
516.447	1	7
516.787	1	11
517.127	1	5
517.468	1	18
517.808	1	20
518.148	1	5
518.489	1	14
518.829	1	3
519.169	1	9
519.510	1	13
519.850	1	-1
520.190	1	17
520.531	1	7
520.871	1	10
521.211	1	-3
521.552	1	4
521.892	1	5
522.232	1	-3
522.573	1	15
522.913	1	15
523.253	1	21
523.593	1	13
523.934	1	6
524.274	1	10
524.614	1	3
524.955	1	9
525.295	1	13
525.635	1	9
525.975	1	12
526.316	1	12
526.656	1	13
526.996	1	8
527.337	1	0
527.677	1	-5
528.017	1	16
528.357	1	4
528.698	1	-1
529.038	1	0
529.378	1	11
529.718	1	11
530.058	1	15
530.399	1	6
530.739	1	11
531.079	1	14
531.419	1	20
531.760	1	4
532.100	1	7
532.440	1	10
532.780	1	-1
533.120	1	10
533.461	1	11
533.801	1	15
534.141	1	1
534.481	1	14
534.821	1	8
535.162	1	26
535.502	1	9
535.842	1	10
536.182	1	7
536.522	1	5
536.862	1	21
537.203	1	8
537.543	1	4
537.883	1	21
538.223	1	7
538.563	1	21
538.903	1	3
539.243	1	9
539.584	1	-4
539.924	1	0
540.264	1	11
540.604	1	4
540.944	1	7
541.284	1	13
541.624	1	3
541.964	1	12
542.305	1	7
542.645	1	5
542.985	1	10
543.325	1	9
543.665	1	14
544.005	1	12
544.345	1	6
544.685	1	6
545.025	1	5
545.365	1	11
545.705	1	14
546.045	1	7
546.386	1	1
546.726	1	6
547.066	1	7
547.406	1	5
547.746	1	-5
548.086	1	10
548.426	1	16
548.766	1	6
549.106	1	11
549.446	1	11
549.786	1	2
550.126	1	7
550.466	1	0
550.806	1	3
551.146	1	9
551.486	1	6
551.826	1	9
552.166	1	0
552.506	1	10
552.846	1	4
553.186	1	6
553.526	1	5
553.866	1	-2
554.206	1	9
554.546	1	-2
554.886	1	4
555.226	1	6
555.566	1	12
555.906	1	4
556.246	1	12
556.586	1	1
556.926	1	10
557.266	1	9
557.606	1	7
557.946	1	10
558.286	1	-4
558.626	1	12
558.966	1	5
559.306	1	5
559.646	1	9
559.986	1	14
560.325	1	2
560.665	1	6
561.005	1	14
561.345	1	-3
561.685	1	7
562.025	1	-9
562.365	1	0
562.705	1	5
563.045	1	4
563.385	1	7
563.725	1	0
564.064	1	11
564.404	1	-1
564.744	1	17
565.084	1	7
565.424	1	9
565.764	1	6
566.104	1	7
566.444	1	8
566.783	1	12
567.123	1	3
567.463	1	1
567.803	1	8
568.143	1	6
568.483	1	4
568.823	1	5
569.162	1	6
569.502	1	2
569.842	1	-7
570.182	1	7
570.522	1	1
570.862	1	6
571.201	1	13
571.541	1	3
571.881	1	5
572.221	1	10
572.561	1	15
572.900	1	1
573.240	1	11
573.580	1	10
573.920	1	14
574.260	1	6
574.599	1	1
574.939	1	2
575.279	1	-1
575.619	1	19
575.959	1	-13
576.298	1	2
576.638	1	13
576.978	1	0
577.318	1	7
577.657	1	6
577.997	1	1
578.337	1	3
578.677	1	7
579.016	1	-1
579.356	1	13
579.696	1	4
580.036	1	8
580.375	1	6
580.715	1	5
581.055	1	0
581.394	1	7
581.734	1	1
582.074	1	7
582.414	1	0
582.753	1	8
583.093	1	9
583.433	1	6
583.772	1	4
584.112	1	10
584.452	1	-5
584.791	1	2
585.131	1	15
585.471	1	2
585.811	1	-2
586.150	1	-2
586.490	1	10
586.830	1	1
587.169	1	8
587.509	1	3
587.849	1	5
588.188	1	6
588.528	1	0
588.867	1	13
589.207	1	0
589.547	1	3
589.886	1	-4
590.226	1	7
590.566	1	8
590.905	1	17
591.245	1	5
591.585	1	5
591.924	1	3
592.264	1	-4
592.603	1	6
592.943	1	0
593.283	1	11
593.622	1	-4
593.962	1	4
594.301	1	9
594.641	1	2
594.981	1	12
595.320	1	7
595.660	1	10
595.999	1	-5
596.339	1	7
596.678	1	5
597.018	1	-5
597.358	1	-7
597.697	1	0
598.037	1	6
598.376	1	-7
598.716	1	5
599.055	1	6
599.395	1	0
599.734	1	13
600.074	1	10
600.413	1	-5
600.753	1	10
601.092	1	1
601.432	1	-1
601.771	1	4
602.111	1	-1
602.451	1	11
602.790	1	9
603.130	1	1
603.469	1	10
603.809	1	7
604.148	1	9
604.487	1	1
604.827	1	0
605.166	1	12
605.506	1	3
605.845	1	3
606.185	1	4
606.524	1	-8
606.864	1	3
607.203	1	-2
607.543	1	2
607.882	1	-5
608.222	1	9
608.561	1	14
608.901	1	8
609.240	1	-1
609.579	1	-2
609.919	1	-2
610.258	1	11
610.598	1	0
610.937	1	4
611.277	1	-1
611.616	1	4
611.955	1	18
612.295	1	-2
612.634	1	-3
612.974	1	9
613.313	1	8
613.652	1	13
613.992	1	-1
614.331	1	-6
614.671	1	7
615.010	1	9
615.349	1	3
615.689	1	5
616.028	1	1
616.368	1	4
616.707	1	12
617.046	1	1
617.386	1	4
617.725	1	2
618.064	1	1
618.404	1	8
618.743	1	9
619.082	1	9
619.422	1	-9
619.761	1	-7
620.100	1	5
620.440	1	6
620.779	1	-1
621.118	1	-2
621.458	1	-1
621.797	1	0
622.136	1	1
622.476	1	-6
622.815	1	2
623.154	1	12
623.494	1	4
623.833	1	8
624.172	1	2
624.511	1	11
624.851	1	-6
625.190	1	9
625.529	1	11
625.869	1	5
626.208	1	3
626.547	1	-3
626.886	1	6
627.226	1	10
627.565	1	4
627.904	1	6
628.243	1	10
628.583	1	2
628.922	1	-14
629.261	1	-7
629.600	1	3
629.940	1	1
630.279	1	8
630.618	1	-3
630.957	1	3
631.297	1	-1
631.636	1	13
631.975	1	-8
632.314	1	3
632.653	1	6
632.993	1	0
633.332	1	6
633.671	1	13
634.010	1	-2
634.349	1	-13
634.689	1	9
635.028	1	4
635.367	1	-6
635.706	1	6
636.045	1	7
636.384	1	-8
636.724	1	8
637.063	1	11
637.402	1	16
637.741	1	-1
638.080	1	5
638.419	1	-8
638.759	1	10
639.098	1	-5
639.437	1	-11
639.776	1	5
640.115	1	7
640.454	1	0
640.793	1	-3
641.132	1	4
641.472	1	5
641.811	1	2
642.150	1	-4
642.489	1	-1
642.828	1	-1
643.167	1	2
643.506	1	5
643.845	1	12
644.184	1	10
644.524	1	6
644.863	1	-8
645.202	1	14
645.541	1	11
645.880	1	6
646.219	1	2
646.558	1	2
646.897	1	9
647.236	1	-1
647.575	1	1
647.914	1	-2
648.253	1	1
648.592	1	4
648.931	1	13
649.270	1	1
649.610	1	3
649.949	1	-7
650.288	1	0
650.627	1	-6
650.966	1	4
651.305	1	-6
651.644	1	11
651.983	1	6
652.322	1	-2
652.661	1	3
653.000	1	-1
653.339	1	-2
653.678	1	-1
654.017	1	3
654.356	1	-1
654.695	1	13
655.034	1	2
655.373	1	11
655.712	1	-2
656.051	1	-5
656.390	1	-9
656.729	1	9
657.068	1	6
657.406	1	-1
657.745	1	9
658.084	1	-3
658.423	1	5
658.762	1	-12
659.101	1	6
659.440	1	-3
659.779	1	-1
660.118	1	8
660.457	1	8
660.796	1	6
661.135	1	-14
661.474	1	8
661.813	1	-3
662.152	1	-4
662.491	1	-6
662.829	1	-1
663.168	1	10
663.507	1	1
663.846	1	-1
664.185	1	5
664.524	1	5
664.863	1	4
665.202	1	16
665.541	1	11
665.879	1	10
666.218	1	6
666.557	1	2
666.896	1	1
667.235	1	6
667.574	1	-7
667.913	1	2
668.251	1	0
668.590	1	-3
668.929	1	5
669.268	1	-6
669.607	1	-1
669.946	1	5
670.285	1	11
670.623	1	7
670.962	1	-7
671.301	1	5
671.640	1	8
671.979	1	-5
672.317	1	7
672.656	1	3
672.995	1	-2
673.334	1	-3
673.673	1	9
674.011	1	3
674.350	1	12
674.689	1	3
675.028	1	9
675.367	1	0
675.705	1	6
676.044	1	14
676.383	1	-1
676.722	1	19
677.060	1	-7
677.399	1	0
677.738	1	2
678.077	1	16
678.416	1	-3
678.754	1	12
679.093	1	4
679.432	1	7
679.771	1	9
680.109	1	-1
680.448	1	2
680.787	1	-4
681.125	1	7
681.464	1	16
681.803	1	8
682.142	1	-3
682.480	1	13
682.819	1	15
683.158	1	8
683.496	1	3
683.835	1	6
684.174	1	1
684.512	1	4
684.851	1	2
685.190	1	-6
685.529	1	14
685.867	1	12
686.206	1	13
686.545	1	12
686.883	1	4
687.222	1	0
687.561	1	5
687.899	1	0
688.238	1	3
688.577	1	11
688.746	1	0