File: Data/GaN_170K_550ms/GaN_sample D_spot 18_UVVIS_170 K_200um_550 ms 2x2mm1_131.txt
340.368	1	2
340.710	1	-10
341.052	1	8
341.394	1	9
341.737	1	4
342.079	1	8
342.421	1	0
342.763	1	9
343.105	1	18
343.447	1	-10
343.789	1	5
344.131	1	2
344.473	1	4
344.815	1	12
345.157	1	-1
345.499	1	-1
345.841	1	5
346.183	1	6
346.526	1	7
346.868	1	6
347.210	1	1
347.552	1	6
347.894	1	-2
348.236	1	-2
348.578	1	17
348.920	1	-4
349.262	1	4
349.604	1	14
349.946	1	12
350.288	1	2
350.630	1	15
350.972	1	-2
351.314	1	5
351.656	1	-8
351.998	1	12
352.340	1	6
352.682	1	2
353.024	1	-2
353.366	1	5
353.708	1	5
354.050	1	3
354.392	1	2
354.734	1	4
355.076	1	11
355.418	1	6
355.760	1	7
356.102	1	4
356.444	1	-1
356.785	1	12
357.127	1	2
357.469	1	3
357.811	1	7
358.153	1	10
358.495	1	13
358.837	1	16
359.179	1	0
359.521	1	12
359.863	1	20
360.205	1	13
360.547	1	16
360.889	1	27
361.231	1	13
361.572	1	26
361.914	1	16
362.256	1	17
362.598	1	15
362.940	1	30
363.282	1	27
363.624	1	14
363.966	1	33
364.308	1	27
364.649	1	29
364.991	1	44
365.333	1	26
365.675	1	39
366.017	1	38
366.359	1	37
366.701	1	43
367.042	1	37
367.384	1	59
367.726	1	54
368.068	1	51
368.410	1	48
368.752	1	46
369.093	1	34
369.435	1	40
369.777	1	53
370.119	1	40
370.461	1	53
370.803	1	39
371.144	1	43
371.486	1	31
371.828	1	37
372.170	1	32
372.512	1	32
372.853	1	38
373.195	1	35
373.537	1	38
373.879	1	41
374.220	1	37
374.562	1	36
374.904	1	24
375.246	1	29
375.588	1	33
375.929	1	22
376.271	1	21
376.613	1	22
376.955	1	26
377.296	1	14
377.638	1	17
377.980	1	11
378.321	1	21
378.663	1	11
379.005	1	2
379.347	1	10
379.688	1	19
380.030	1	22
380.372	1	23
380.714	1	17
381.055	1	10
381.397	1	25
381.739	1	10
382.080	1	4
382.422	1	7
382.764	1	9
383.105	1	12
383.447	1	16
383.789	1	30
384.130	1	6
384.472	1	-2
384.814	1	13
385.156	1	3
385.497	1	9
385.839	1	8
386.180	1	13
386.522	1	14
386.864	1	16
387.205	1	0
387.547	1	18
387.889	1	12
388.230	1	6
388.572	1	13
388.914	1	11
389.255	1	12
389.597	1	5
389.939	1	4
390.280	1	9
390.622	1	10
390.963	1	8
391.305	1	3
391.647	1	-5
391.988	1	16
392.330	1	4
392.671	1	-6
393.013	1	1
393.355	1	10
393.696	1	12
394.038	1	4
394.379	1	1
394.721	1	15
395.062	1	12
395.404	1	14
395.746	1	4
396.087	1	3
396.429	1	12
396.770	1	16
397.112	1	-3
397.453	1	2
397.795	1	-6
398.136	1	4
398.478	1	0
398.819	1	-1
399.161	1	-9
399.503	1	4
399.844	1	-4
400.186	1	2
400.527	1	13
400.869	1	5
401.210	1	10
401.552	1	1
401.893	1	-3
402.235	1	2
402.576	1	11
402.918	1	8
403.259	1	8
403.601	1	7
403.942	1	9
404.284	1	-1
404.625	1	5
404.967	1	15
405.308	1	5
405.649	1	6
405.991	1	8
406.332	1	-4
406.674	1	4
407.015	1	16
407.357	1	-2
407.698	1	2
408.040	1	9
408.381	1	0
408.722	1	-3
409.064	1	1
409.405	1	11
409.747	1	-2
410.088	1	3
410.430	1	-7
410.771	1	2
411.112	1	-4
411.454	1	3
411.795	1	9
412.137	1	-3
412.478	1	-6
412.819	1	-9
413.161	1	11
413.502	1	-1
413.844	1	14
414.185	1	0
414.526	1	13
414.868	1	1
415.209	1	-2
415.550	1	1
415.892	1	-4
416.233	1	3
416.575	1	10
416.916	1	-3
417.257	1	1
417.599	1	0
417.940	1	9
418.281	1	-10
418.623	1	4
418.964	1	2
419.305	1	1
419.647	1	7
419.988	1	6
420.329	1	8
420.671	1	-4
421.012	1	5
421.353	1	0
421.695	1	-2
422.036	1	0
422.377	1	14
422.718	1	11
423.060	1	4
423.401	1	-1
423.742	1	-1
424.084	1	11
424.425	1	-4
424.766	1	-1
425.107	1	2
425.449	1	1
425.790	1	-3
426.131	1	1
426.472	1	3
426.814	1	-9
427.155	1	18
427.496	1	-1
427.837	1	9
428.179	1	13
428.520	1	6
428.861	1	3
429.202	1	-6
429.544	1	-2
429.885	1	5
430.226	1	4
430.567	1	6
430.909	1	4
431.250	1	11
431.591	1	4
431.932	1	2
432.273	1	-4
432.615	1	-1
432.956	1	7
433.297	1	-5
433.638	1	-2
433.979	1	7
434.320	1	3
434.662	1	-11
435.003	1	3
435.344	1	5
435.685	1	4
436.026	1	4
436.368	1	3
436.709	1	-3
437.050	1	-5
437.391	1	2
437.732	1	10
438.073	1	10
438.414	1	-6
438.756	1	-3
439.097	1	9
439.438	1	0
439.779	1	1
440.120	1	3
440.461	1	16
440.802	1	8
441.143	1	0
441.485	1	-1
441.826	1	-3
442.167	1	8
442.508	1	2
442.849	1	-7
443.190	1	6
443.531	1	4
443.872	1	1
444.213	1	-2
444.554	1	2
444.895	1	-13
445.237	1	5
445.578	1	9
445.919	1	3
446.260	1	5
446.601	1	-2
446.942	1	6
447.283	1	9
447.624	1	2
447.965	1	7
448.306	1	1
448.647	1	-3
448.988	1	8
449.329	1	1
449.670	1	-8
450.011	1	9
450.352	1	-3
450.693	1	-4
451.034	1	-2
451.375	1	9
451.716	1	0
452.057	1	0
452.398	1	6
452.739	1	3
453.080	1	11
453.421	1	6
453.762	1	-3
454.103	1	-4
454.444	1	-1
454.785	1	-8
455.126	1	0
455.467	1	-8
455.808	1	12
456.149	1	3
456.490	1	1
456.831	1	-4
457.172	1	2
457.513	1	14
457.854	1	13
458.195	1	12
458.536	1	-5
458.877	1	-1
459.218	1	0
459.559	1	0
459.899	1	2
460.240	1	6
460.581	1	4
460.922	1	1
461.263	1	8
461.604	1	6
461.945	1	2
462.286	1	-4
462.627	1	17
462.968	1	11
463.309	1	-4
463.649	1	16
463.990	1	2
464.331	1	4
464.672	1	-8
465.013	1	5
465.354	1	7
465.695	1	3
466.036	1	-9
466.376	1	1
466.717	1	3
467.058	1	8
467.399	1	10
467.740	1	7
468.081	1	-6
468.422	1	5
468.762	1	21
469.103	1	11
469.444	1	0
469.785	1	-1
470.126	1	3
470.467	1	5
470.807	1	-6
471.148	1	-10
471.489	1	3
471.830	1	-1
472.171	1	4
472.511	1	1
472.852	1	6
473.193	1	3
473.534	1	2
473.875	1	5
474.215	1	8
474.556	1	5
474.897	1	6
475.238	1	-10
475.578	1	-1
475.919	1	13
476.260	1	16
476.601	1	5
476.942	1	1
477.282	1	2
477.623	1	18
477.964	1	6
478.305	1	2
478.645	1	-1
478.986	1	7
479.327	1	-1
479.667	1	6
480.008	1	5
480.349	1	2
480.690	1	7
481.030	1	11
481.371	1	-6
481.712	1	9
482.053	1	-5
482.393	1	-4
482.734	1	-1
483.075	1	10
483.415	1	4
483.756	1	7
484.097	1	-8
484.437	1	-6
484.778	1	-4
485.119	1	0
485.459	1	-4
485.800	1	4
486.141	1	13
486.481	1	-1
486.822	1	4
487.163	1	9
487.503	1	1
487.844	1	9
488.185	1	7
488.525	1	6
488.866	1	11
489.207	1	11
489.547	1	6
489.888	1	10
490.228	1	-8
490.569	1	-2
490.910	1	0
491.250	1	8
491.591	1	7
491.932	1	15
492.272	1	13
492.613	1	5
492.953	1	-3
493.294	1	-4
493.635	1	-4
493.975	1	4
494.316	1	3
494.656	1	3
494.997	1	10
495.337	1	17
495.678	1	3
496.019	1	-3
496.359	1	-4
496.700	1	14
497.040	1	1
497.381	1	8
497.721	1	5
498.062	1	-2
498.403	1	13
498.743	1	4
499.084	1	12
499.424	1	7
499.765	1	-9
500.105	1	4
500.446	1	-5
500.786	1	2
501.127	1	1
501.467	1	3
501.808	1	-2
502.148	1	18
502.489	1	1
502.829	1	13
503.170	1	13
503.510	1	12
503.851	1	9
504.191	1	-7
504.532	1	-11
504.872	1	7
505.213	1	6
505.553	1	6
505.894	1	14
506.234	1	0
506.575	1	10
506.915	1	11
507.256	1	-1
507.596	1	10
507.936	1	17
508.277	1	-4
508.617	1	19
508.958	1	10
509.298	1	4
509.639	1	16
509.979	1	11
510.319	1	0
510.660	1	-4
511.000	1	11
511.341	1	20
511.681	1	4
512.022	1	11
512.362	1	3
512.702	1	11
513.043	1	8
513.383	1	11
513.724	1	13
514.064	1	14
514.404	1	4
514.745	1	5
515.085	1	11
515.425	1	8
515.766	1	11
516.106	1	10
516.447	1	-3
516.787	1	13
517.127	1	13
517.468	1	8
517.808	1	13
518.148	1	1
518.489	1	12
518.829	1	4
519.169	1	1
519.510	1	9
519.850	1	10
520.190	1	8
520.531	1	10
520.871	1	13
521.211	1	11
521.552	1	4
521.892	1	4
522.232	1	-9
522.573	1	5
522.913	1	15
523.253	1	22
523.593	1	16
523.934	1	4
524.274	1	10
524.614	1	17
524.955	1	9
525.295	1	9
525.635	1	13
525.975	1	-1
526.316	1	13
526.656	1	16
526.996	1	9
527.337	1	5
527.677	1	9
528.017	1	11
528.357	1	7
528.698	1	0
529.038	1	7
529.378	1	10
529.718	1	9
530.058	1	15
530.399	1	19
530.739	1	9
531.079	1	3
531.419	1	24
531.760	1	15
532.100	1	4
532.440	1	7
532.780	1	1
533.120	1	9
533.461	1	4
533.801	1	16
534.141	1	3
534.481	1	21
534.821	1	13
535.162	1	6
535.502	1	10
535.842	1	10
536.182	1	0
536.522	1	9
536.862	1	21
537.203	1	12
537.543	1	9
537.883	1	8
538.223	1	13
538.563	1	15
538.903	1	6
539.243	1	0
539.584	1	-4
539.924	1	8
540.264	1	13
540.604	1	-2
540.944	1	3
541.284	1	13
541.624	1	3
541.964	1	6
542.305	1	17
542.645	1	0
542.985	1	10
543.325	1	8
543.665	1	7
544.005	1	12
544.345	1	11
544.685	1	-1
545.025	1	10
545.365	1	4
545.705	1	6
546.045	1	2
546.386	1	8
546.726	1	7
547.066	1	17
547.406	1	5
547.746	1	5
548.086	1	4
548.426	1	6
548.766	1	10
549.106	1	13
549.446	1	0
549.786	1	0
550.126	1	7
550.466	1	7
550.806	1	7
551.146	1	16
551.486	1	9
551.826	1	13
552.166	1	3
552.506	1	5
552.846	1	7
553.186	1	5
553.526	1	1
553.866	1	-5
554.206	1	8
554.546	1	-2
554.886	1	5
555.226	1	2
555.566	1	8
555.906	1	3
556.246	1	14
556.586	1	1
556.926	1	1
557.266	1	10
557.606	1	5
557.946	1	8
558.286	1	10
558.626	1	10
558.966	1	11
559.306	1	13
559.646	1	2
559.986	1	13
560.325	1	3
560.665	1	12
561.005	1	10
561.345	1	1
561.685	1	2
562.025	1	-10
562.365	1	12
562.705	1	3
563.045	1	5
563.385	1	12
563.725	1	-1
564.064	1	7
564.404	1	3
564.744	1	7
565.084	1	11
565.424	1	13
565.764	1	5
566.104	1	8
566.444	1	3
566.783	1	10
567.123	1	4
567.463	1	6
567.803	1	10
568.143	1	8
568.483	1	9
568.823	1	4
569.162	1	17
569.502	1	7
569.842	1	-4
570.182	1	-2
570.522	1	-2
570.862	1	8
571.201	1	7
571.541	1	-1
571.881	1	2
572.221	1	12
572.561	1	7
572.900	1	5
573.240	1	3
573.580	1	-8
573.920	1	16
574.260	1	7
574.599	1	0
574.939	1	1
575.279	1	3
575.619	1	15
575.959	1	-2
576.298	1	10
576.638	1	18
576.978	1	6
577.318	1	4
577.657	1	8
577.997	1	3
578.337	1	4
578.677	1	13
579.016	1	10
579.356	1	4
579.696	1	1
580.036	1	7
580.375	1	9
580.715	1	8
581.055	1	1
581.394	1	13
581.734	1	7
582.074	1	4
582.414	1	0
582.753	1	1
583.093	1	4
583.433	1	14
583.772	1	2
584.112	1	3
584.452	1	-1
584.791	1	4
585.131	1	11
585.471	1	5
585.811	1	-7
586.150	1	-3
586.490	1	15
586.830	1	4
587.169	1	11
587.509	1	3
587.849	1	-6
588.188	1	-1
588.528	1	-5
588.867	1	3
589.207	1	9
589.547	1	4
589.886	1	-2
590.226	1	7
590.566	1	6
590.905	1	15
591.245	1	7
591.585	1	5
591.924	1	-4
592.264	1	-2
592.603	1	-3
592.943	1	3
593.283	1	2
593.622	1	-4
593.962	1	11
594.301	1	7
594.641	1	6
594.981	1	15
595.320	1	3
595.660	1	7
595.999	1	1
596.339	1	12
596.678	1	-4
597.018	1	2
597.358	1	-8
597.697	1	2
598.037	1	5
598.376	1	-5
598.716	1	11
599.055	1	2
599.395	1	2
599.734	1	8
600.074	1	2
600.413	1	-1
600.753	1	6
601.092	1	-3
601.432	1	-2
601.771	1	2
602.111	1	-1
602.451	1	6
602.790	1	10
603.130	1	-3
603.469	1	9
603.809	1	6
604.148	1	10
604.487	1	7
604.827	1	2
605.166	1	8
605.506	1	-6
605.845	1	2
606.185	1	0
606.524	1	3
606.864	1	2
607.203	1	2
607.543	1	9
607.882	1	-5
608.222	1	3
608.561	1	6
608.901	1	7
609.240	1	2
609.579	1	2
609.919	1	2
610.258	1	12
610.598	1	8
610.937	1	0
611.277	1	-4
611.616	1	5
611.955	1	4
612.295	1	0
612.634	1	0
612.974	1	2
613.313	1	-7
613.652	1	14
613.992	1	9
614.331	1	6
614.671	1	12
615.010	1	7
615.349	1	8
615.689	1	10
616.028	1	9
616.368	1	2
616.707	1	15
617.046	1	5
617.386	1	-5
617.725	1	12
618.064	1	6
618.404	1	8
618.743	1	12
619.082	1	12
619.422	1	-4
619.761	1	2
620.100	1	0
620.440	1	4
620.779	1	-7
621.118	1	-2
621.458	1	-2
621.797	1	2
622.136	1	4
622.476	1	-6
622.815	1	5
623.154	1	11
623.494	1	-7
623.833	1	9
624.172	1	-2
624.511	1	10
624.851	1	-4
625.190	1	17
625.529	1	5
625.869	1	7
626.208	1	0
626.547	1	-3
626.886	1	6
627.226	1	7
627.565	1	4
627.904	1	4
628.243	1	-3
628.583	1	-7
628.922	1	-9
629.261	1	3
629.600	1	-2
629.940	1	-6
630.279	1	3
630.618	1	3
630.957	1	7
631.297	1	-1
631.636	1	8
631.975	1	1
632.314	1	4
632.653	1	11
632.993	1	6
633.332	1	-3
633.671	1	15
634.010	1	4
634.349	1	0
634.689	1	7
635.028	1	6
635.367	1	1
635.706	1	-3
636.045	1	6
636.384	1	-1
636.724	1	5
637.063	1	10
637.402	1	4
637.741	1	-5
638.080	1	7
638.419	1	-1
638.759	1	8
639.098	1	-5
639.437	1	-7
639.776	1	-1
640.115	1	2
640.454	1	3
640.793	1	-1
641.132	1	9
641.472	1	-1
641.811	1	6
642.150	1	2
642.489	1	7
642.828	1	2
643.167	1	0
643.506	1	0
643.845	1	1
644.184	1	12
644.524	1	2
644.863	1	-2
645.202	1	14
645.541	1	0
645.880	1	-1
646.219	1	7
646.558	1	7
646.897	1	7
647.236	1	0
647.575	1	4
647.914	1	-1
648.253	1	-4
648.592	1	8
648.931	1	6
649.270	1	3
649.610	1	-3
649.949	1	6
650.288	1	-2
650.627	1	1
650.966	1	9
651.305	1	-4
651.644	1	13
651.983	1	10
652.322	1	8
652.661	1	0
653.000	1	-7
653.339	1	-3
653.678	1	2
654.017	1	4
654.356	1	0
654.695	1	13
655.034	1	6
655.373	1	13
655.712	1	-1
656.051	1	12
656.390	1	0
656.729	1	8
657.068	1	6
657.406	1	7
657.745	1	9
658.084	1	-9
658.423	1	0
658.762	1	5
659.101	1	2
659.440	1	3
659.779	1	14
660.118	1	1
660.457	1	-5
660.796	1	4
661.135	1	-6
661.474	1	6
661.813	1	-5
662.152	1	-7
662.491	1	-7
662.829	1	-2
663.168	1	2
663.507	1	6
663.846	1	-5
664.185	1	14
664.524	1	-2
664.863	1	4
665.202	1	19
665.541	1	0
665.879	1	8
666.218	1	9
666.557	1	-6
666.896	1	5
667.235	1	-1
667.574	1	-6
667.913	1	-4
668.251	1	7
668.590	1	-2
668.929	1	10
669.268	1	2
669.607	1	1
669.946	1	2
670.285	1	11
670.623	1	6
670.962	1	3
671.301	1	-1
671.640	1	6
671.979	1	4
672.317	1	10
672.656	1	-2
672.995	1	-6
673.334	1	-4
673.673	1	11
674.011	1	11
674.350	1	9
674.689	1	7
675.028	1	9
675.367	1	0
675.705	1	16
676.044	1	15
676.383	1	4
676.722	1	15
677.060	1	-4
677.399	1	6
677.738	1	6
678.077	1	4
678.416	1	-1
678.754	1	7
679.093	1	2
679.432	1	3
679.771	1	6
680.109	1	9
680.448	1	12
680.787	1	-6
681.125	1	7
681.464	1	8
681.803	1	6
682.142	1	1
682.480	1	2
682.819	1	8
683.158	1	0
683.496	1	5
683.835	1	8
684.174	1	-5
684.512	1	1
684.851	1	-3
685.190	1	-1
685.529	1	11
685.867	1	11
686.206	1	4
686.545	1	11
686.883	1	1
687.222	1	1
687.561	1	2
687.899	1	-5
688.238	1	-3
688.577	1	15
688.746	1	1