File: Data/GaN_170K_550ms/GaN_sample D_spot 18_UVVIS_170 K_200um_550 ms 2x2mm1_172.txt
340.368	1	-5
340.710	1	-16
341.052	1	8
341.394	1	3
341.737	1	-12
342.079	1	-3
342.421	1	7
342.763	1	8
343.105	1	17
343.447	1	-7
343.789	1	9
344.131	1	-5
344.473	1	0
344.815	1	2
345.157	1	-2
345.499	1	-2
345.841	1	-3
346.183	1	10
346.526	1	3
346.868	1	4
347.210	1	-8
347.552	1	8
347.894	1	3
348.236	1	-3
348.578	1	9
348.920	1	2
349.262	1	9
349.604	1	3
349.946	1	11
350.288	1	3
350.630	1	5
350.972	1	-9
351.314	1	8
351.656	1	-4
351.998	1	4
352.340	1	5
352.682	1	5
353.024	1	9
353.366	1	9
353.708	1	9
354.050	1	-4
354.392	1	1
354.734	1	3
355.076	1	3
355.418	1	0
355.760	1	0
356.102	1	3
356.444	1	3
356.785	1	10
357.127	1	9
357.469	1	3
357.811	1	4
358.153	1	9
358.495	1	3
358.837	1	10
359.179	1	3
359.521	1	5
359.863	1	5
360.205	1	20
360.547	1	7
360.889	1	15
361.231	1	8
361.572	1	15
361.914	1	7
362.256	1	9
362.598	1	11
362.940	1	24
363.282	1	17
363.624	1	12
363.966	1	22
364.308	1	22
364.649	1	9
364.991	1	17
365.333	1	17
365.675	1	19
366.017	1	23
366.359	1	20
366.701	1	27
367.042	1	13
367.384	1	20
367.726	1	38
368.068	1	41
368.410	1	39
368.752	1	25
369.093	1	20
369.435	1	27
369.777	1	26
370.119	1	23
370.461	1	33
370.803	1	23
371.144	1	15
371.486	1	17
371.828	1	28
372.170	1	25
372.512	1	10
372.853	1	24
373.195	1	19
373.537	1	25
373.879	1	16
374.220	1	12
374.562	1	7
374.904	1	13
375.246	1	8
375.588	1	6
375.929	1	12
376.271	1	15
376.613	1	20
376.955	1	15
377.296	1	12
377.638	1	17
377.980	1	4
378.321	1	8
378.663	1	10
379.005	1	1
379.347	1	2
379.688	1	15
380.030	1	9
380.372	1	13
380.714	1	16
381.055	1	7
381.397	1	14
381.739	1	-6
382.080	1	6
382.422	1	8
382.764	1	12
383.105	1	12
383.447	1	7
383.789	1	20
384.130	1	-1
384.472	1	-1
384.814	1	9
385.156	1	9
385.497	1	9
385.839	1	2
386.180	1	15
386.522	1	10
386.864	1	14
387.205	1	5
387.547	1	7
387.889	1	8
388.230	1	4
388.572	1	3
388.914	1	4
389.255	1	15
389.597	1	1
389.939	1	-1
390.280	1	-1
390.622	1	3
390.963	1	0
391.305	1	7
391.647	1	-5
391.988	1	8
392.330	1	16
392.671	1	6
393.013	1	4
393.355	1	7
393.696	1	3
394.038	1	0
394.379	1	-3
394.721	1	4
395.062	1	-2
395.404	1	6
395.746	1	3
396.087	1	7
396.429	1	4
396.770	1	10
397.112	1	6
397.453	1	3
397.795	1	-3
398.136	1	3
398.478	1	5
398.819	1	2
399.161	1	-8
399.503	1	5
399.844	1	-2
400.186	1	-7
400.527	1	13
400.869	1	8
401.210	1	6
401.552	1	7
401.893	1	7
402.235	1	9
402.576	1	-4
402.918	1	-3
403.259	1	7
403.601	1	6
403.942	1	2
404.284	1	-7
404.625	1	4
404.967	1	3
405.308	1	6
405.649	1	4
405.991	1	9
406.332	1	-12
406.674	1	6
407.015	1	8
407.357	1	-6
407.698	1	13
408.040	1	-5
408.381	1	6
408.722	1	-4
409.064	1	0
409.405	1	10
409.747	1	-4
410.088	1	6
410.430	1	2
410.771	1	2
411.112	1	-3
411.454	1	12
411.795	1	7
412.137	1	-5
412.478	1	0
412.819	1	-8
413.161	1	7
413.502	1	-7
413.844	1	12
414.185	1	-4
414.526	1	-1
414.868	1	-1
415.209	1	-12
415.550	1	-8
415.892	1	0
416.233	1	5
416.575	1	4
416.916	1	-4
417.257	1	3
417.599	1	-2
417.940	1	7
418.281	1	-5
418.623	1	2
418.964	1	-4
419.305	1	-3
419.647	1	7
419.988	1	2
420.329	1	0
420.671	1	-4
421.012	1	8
421.353	1	4
421.695	1	0
422.036	1	5
422.377	1	10
422.718	1	8
423.060	1	-3
423.401	1	0
423.742	1	-6
424.084	1	10
424.425	1	-6
424.766	1	-7
425.107	1	-3
425.449	1	0
425.790	1	9
426.131	1	8
426.472	1	2
426.814	1	-7
427.155	1	11
427.496	1	-1
427.837	1	10
428.179	1	2
428.520	1	-3
428.861	1	5
429.202	1	-6
429.544	1	0
429.885	1	3
430.226	1	0
430.567	1	-2
430.909	1	0
431.250	1	12
431.591	1	1
431.932	1	-7
432.273	1	6
432.615	1	-2
432.956	1	15
433.297	1	4
433.638	1	3
433.979	1	-4
434.320	1	-4
434.662	1	-9
435.003	1	6
435.344	1	2
435.685	1	-4
436.026	1	1
436.368	1	13
436.709	1	0
437.050	1	-7
437.391	1	-3
437.732	1	0
438.073	1	-3
438.414	1	-6
438.756	1	0
439.097	1	-1
439.438	1	2
439.779	1	2
440.120	1	-5
440.461	1	9
440.802	1	13
441.143	1	-1
441.485	1	-7
441.826	1	7
442.167	1	3
442.508	1	-4
442.849	1	-6
443.190	1	-1
443.531	1	1
443.872	1	-4
444.213	1	-4
444.554	1	2
444.895	1	-9
445.237	1	-12
445.578	1	5
445.919	1	3
446.260	1	6
446.601	1	-5
446.942	1	6
447.283	1	5
447.624	1	-3
447.965	1	3
448.306	1	-2
448.647	1	0
448.988	1	6
449.329	1	8
449.670	1	-13
450.011	1	4
450.352	1	-2
450.693	1	-8
451.034	1	2
451.375	1	4
451.716	1	6
452.057	1	-6
452.398	1	4
452.739	1	-1
453.080	1	3
453.421	1	3
453.762	1	0
454.103	1	-1
454.444	1	2
454.785	1	-5
455.126	1	1
455.467	1	-15
455.808	1	12
456.149	1	1
456.490	1	2
456.831	1	2
457.172	1	-1
457.513	1	9
457.854	1	6
458.195	1	3
458.536	1	-6
458.877	1	8
459.218	1	5
459.559	1	-11
459.899	1	4
460.240	1	4
460.581	1	5
460.922	1	5
461.263	1	8
461.604	1	11
461.945	1	-1
462.286	1	-3
462.627	1	0
462.968	1	-1
463.309	1	9
463.649	1	12
463.990	1	-4
464.331	1	6
464.672	1	-3
465.013	1	6
465.354	1	0
465.695	1	2
466.036	1	-7
466.376	1	2
466.717	1	-6
467.058	1	5
467.399	1	13
467.740	1	-4
468.081	1	-2
468.422	1	-6
468.762	1	12
469.103	1	8
469.444	1	-1
469.785	1	-7
470.126	1	2
470.467	1	0
470.807	1	1
471.148	1	-1
471.489	1	7
471.830	1	6
472.171	1	9
472.511	1	6
472.852	1	10
473.193	1	3
473.534	1	19
473.875	1	2
474.215	1	-1
474.556	1	4
474.897	1	2
475.238	1	-7
475.578	1	4
475.919	1	8
476.260	1	7
476.601	1	-2
476.942	1	-2
477.282	1	9
477.623	1	14
477.964	1	4
478.305	1	-1
478.645	1	6
478.986	1	-3
479.327	1	-9
479.667	1	-1
480.008	1	3
480.349	1	2
480.690	1	2
481.030	1	9
481.371	1	-3
481.712	1	-1
482.053	1	-5
482.393	1	0
482.734	1	8
483.075	1	0
483.415	1	3
483.756	1	10
484.097	1	-4
484.437	1	-2
484.778	1	-4
485.119	1	2
485.459	1	-1
485.800	1	-1
486.141	1	9
486.481	1	0
486.822	1	11
487.163	1	9
487.503	1	-5
487.844	1	4
488.185	1	2
488.525	1	13
488.866	1	11
489.207	1	6
489.547	1	6
489.888	1	8
490.228	1	-1
490.569	1	-3
490.910	1	0
491.250	1	1
491.591	1	7
491.932	1	8
492.272	1	7
492.613	1	2
492.953	1	6
493.294	1	-4
493.635	1	2
493.975	1	11
494.316	1	-1
494.656	1	9
494.997	1	5
495.337	1	10
495.678	1	12
496.019	1	-12
496.359	1	5
496.700	1	13
497.040	1	1
497.381	1	7
497.721	1	1
498.062	1	2
498.403	1	7
498.743	1	9
499.084	1	3
499.424	1	-1
499.765	1	-8
500.105	1	-10
500.446	1	2
500.786	1	-2
501.127	1	1
501.467	1	-7
501.808	1	3
502.148	1	13
502.489	1	-3
502.829	1	6
503.170	1	10
503.510	1	4
503.851	1	3
504.191	1	3
504.532	1	-10
504.872	1	8
505.213	1	2
505.553	1	2
505.894	1	17
506.234	1	-2
506.575	1	8
506.915	1	-1
507.256	1	1
507.596	1	12
507.936	1	8
508.277	1	4
508.617	1	14
508.958	1	-1
509.298	1	3
509.639	1	9
509.979	1	7
510.319	1	-5
510.660	1	-2
511.000	1	8
511.341	1	13
511.681	1	-1
512.022	1	6
512.362	1	-1
512.702	1	-7
513.043	1	7
513.383	1	3
513.724	1	-5
514.064	1	10
514.404	1	8
514.745	1	-3
515.085	1	-1
515.425	1	2
515.766	1	12
516.106	1	11
516.447	1	-2
516.787	1	9
517.127	1	2
517.468	1	-6
517.808	1	12
518.148	1	10
518.489	1	6
518.829	1	2
519.169	1	3
519.510	1	3
519.850	1	8
520.190	1	4
520.531	1	6
520.871	1	7
521.211	1	9
521.552	1	3
521.892	1	6
522.232	1	-10
522.573	1	7
522.913	1	10
523.253	1	13
523.593	1	9
523.934	1	6
524.274	1	5
524.614	1	14
524.955	1	6
525.295	1	2
525.635	1	1
525.975	1	5
526.316	1	11
526.656	1	13
526.996	1	3
527.337	1	0
527.677	1	1
528.017	1	5
528.357	1	-1
528.698	1	2
529.038	1	5
529.378	1	2
529.718	1	17
530.058	1	13
530.399	1	3
530.739	1	9
531.079	1	9
531.419	1	9
531.760	1	5
532.100	1	3
532.440	1	4
532.780	1	-4
533.120	1	7
533.461	1	2
533.801	1	13
534.141	1	-5
534.481	1	14
534.821	1	5
535.162	1	11
535.502	1	10
535.842	1	9
536.182	1	-2
536.522	1	10
536.862	1	6
537.203	1	10
537.543	1	-2
537.883	1	16
538.223	1	14
538.563	1	6
538.903	1	-2
539.243	1	1
539.584	1	5
539.924	1	-1
540.264	1	10
540.604	1	2
540.944	1	0
541.284	1	11
541.624	1	-5
541.964	1	6
542.305	1	7
542.645	1	4
542.985	1	12
543.325	1	11
543.665	1	6
544.005	1	17
544.345	1	5
544.685	1	6
545.025	1	-7
545.365	1	5
545.705	1	4
546.045	1	4
546.386	1	3
546.726	1	3
547.066	1	5
547.406	1	3
547.746	1	2
548.086	1	-3
548.426	1	8
548.766	1	9
549.106	1	3
549.446	1	4
549.786	1	-9
550.126	1	0
550.466	1	5
550.806	1	2
551.146	1	10
551.486	1	-4
551.826	1	4
552.166	1	4
552.506	1	5
552.846	1	8
553.186	1	13
553.526	1	-4
553.866	1	-3
554.206	1	-3
554.546	1	-7
554.886	1	-3
555.226	1	1
555.566	1	10
555.906	1	4
556.246	1	15
556.586	1	-7
556.926	1	2
557.266	1	7
557.606	1	13
557.946	1	7
558.286	1	5
558.626	1	5
558.966	1	-1
559.306	1	11
559.646	1	7
559.986	1	9
560.325	1	-2
560.665	1	7
561.005	1	6
561.345	1	-10
561.685	1	-5
562.025	1	-4
562.365	1	-3
562.705	1	17
563.045	1	6
563.385	1	16
563.725	1	-6
564.064	1	7
564.404	1	0
564.744	1	-1
565.084	1	6
565.424	1	-2
565.764	1	3
566.104	1	2
566.444	1	11
566.783	1	6
567.123	1	3
567.463	1	-4
567.803	1	6
568.143	1	2
568.483	1	6
568.823	1	-2
569.162	1	8
569.502	1	1
569.842	1	-3
570.182	1	4
570.522	1	12
570.862	1	0
571.201	1	5
571.541	1	-2
571.881	1	-2
572.221	1	13
572.561	1	0
572.900	1	-5
573.240	1	9
573.580	1	1
573.920	1	8
574.260	1	6
574.599	1	0
574.939	1	-4
575.279	1	-6
575.619	1	4
575.959	1	-2
576.298	1	3
576.638	1	8
576.978	1	4
577.318	1	-6
577.657	1	3
577.997	1	-10
578.337	1	5
578.677	1	8
579.016	1	-1
579.356	1	7
579.696	1	-1
580.036	1	2
580.375	1	0
580.715	1	7
581.055	1	5
581.394	1	7
581.734	1	3
582.074	1	0
582.414	1	-8
582.753	1	0
583.093	1	12
583.433	1	3
583.772	1	6
584.112	1	14
584.452	1	3
584.791	1	-1
585.131	1	8
585.471	1	2
585.811	1	-3
586.150	1	2
586.490	1	11
586.830	1	-1
587.169	1	15
587.509	1	3
587.849	1	0
588.188	1	9
588.528	1	1
588.867	1	3
589.207	1	4
589.547	1	11
589.886	1	-1
590.226	1	4
590.566	1	5
590.905	1	16
591.245	1	4
591.585	1	10
591.924	1	-2
592.264	1	-5
592.603	1	-4
592.943	1	6
593.283	1	-1
593.622	1	-5
593.962	1	3
594.301	1	12
594.641	1	14
594.981	1	9
595.320	1	-1
595.660	1	2
595.999	1	3
596.339	1	2
596.678	1	-1
597.018	1	5
597.358	1	-12
597.697	1	-6
598.037	1	1
598.376	1	-5
598.716	1	9
599.055	1	-1
599.395	1	6
599.734	1	8
600.074	1	1
600.413	1	-13
600.753	1	4
601.092	1	7
601.432	1	-2
601.771	1	11
602.111	1	0
602.451	1	7
602.790	1	8
603.130	1	-7
603.469	1	5
603.809	1	3
604.148	1	10
604.487	1	5
604.827	1	-2
605.166	1	13
605.506	1	-1
605.845	1	2
606.185	1	3
606.524	1	6
606.864	1	3
607.203	1	-6
607.543	1	8
607.882	1	-4
608.222	1	1
608.561	1	1
608.901	1	1
609.240	1	-4
609.579	1	-3
609.919	1	-8
610.258	1	1
610.598	1	7
610.937	1	-2
611.277	1	-2
611.616	1	-3
611.955	1	0
612.295	1	0
612.634	1	5
612.974	1	9
613.313	1	-2
613.652	1	15
613.992	1	5
614.331	1	-2
614.671	1	2
615.010	1	-2
615.349	1	10
615.689	1	12
616.028	1	2
616.368	1	-1
616.707	1	15
617.046	1	-8
617.386	1	-2
617.725	1	1
618.064	1	4
618.404	1	4
618.743	1	7
619.082	1	1
619.422	1	1
619.761	1	-5
620.100	1	-6
620.440	1	7
620.779	1	-11
621.118	1	-8
621.458	1	0
621.797	1	3
622.136	1	-4
622.476	1	-3
622.815	1	2
623.154	1	1
623.494	1	-8
623.833	1	-3
624.172	1	0
624.511	1	9
624.851	1	-2
625.190	1	13
625.529	1	6
625.869	1	6
626.208	1	-5
626.547	1	-12
626.886	1	5
627.226	1	7
627.565	1	-3
627.904	1	-2
628.243	1	-2
628.583	1	0
628.922	1	0
629.261	1	-3
629.600	1	-4
629.940	1	-6
630.279	1	-3
630.618	1	-2
630.957	1	-3
631.297	1	-6
631.636	1	7
631.975	1	-3
632.314	1	2
632.653	1	11
632.993	1	1
633.332	1	4
633.671	1	5
634.010	1	0
634.349	1	-6
634.689	1	7
635.028	1	16
635.367	1	0
635.706	1	2
636.045	1	2
636.384	1	-7
636.724	1	2
637.063	1	5
637.402	1	7
637.741	1	-4
638.080	1	9
638.419	1	-9
638.759	1	4
639.098	1	-7
639.437	1	-1
639.776	1	1
640.115	1	6
640.454	1	4
640.793	1	1
641.132	1	6
641.472	1	1
641.811	1	3
642.150	1	-8
642.489	1	-12
642.828	1	4
643.167	1	2
643.506	1	6
643.845	1	1
644.184	1	11
644.524	1	6
644.863	1	-8
645.202	1	18
645.541	1	3
645.880	1	4
646.219	1	3
646.558	1	-1
646.897	1	2
647.236	1	1
647.575	1	0
647.914	1	1
648.253	1	5
648.592	1	3
648.931	1	4
649.270	1	-2
649.610	1	0
649.949	1	-3
650.288	1	-4
650.627	1	-7
650.966	1	4
651.305	1	-4
651.644	1	6
651.983	1	5
652.322	1	5
652.661	1	3
653.000	1	-4
653.339	1	-4
653.678	1	1
654.017	1	8
654.356	1	-2
654.695	1	2
655.034	1	5
655.373	1	9
655.712	1	-8
656.051	1	-2
656.390	1	4
656.729	1	-2
657.068	1	5
657.406	1	2
657.745	1	9
658.084	1	0
658.423	1	-3
658.762	1	0
659.101	1	-5
659.440	1	3
659.779	1	-2
660.118	1	6
660.457	1	4
660.796	1	2
661.135	1	-9
661.474	1	-5
661.813	1	4
662.152	1	2
662.491	1	-3
662.829	1	5
663.168	1	8
663.507	1	9
663.846	1	-3
664.185	1	9
664.524	1	1
664.863	1	-2
665.202	1	14
665.541	1	3
665.879	1	12
666.218	1	1
666.557	1	0
666.896	1	1
667.235	1	1
667.574	1	-5
667.913	1	-10
668.251	1	3
668.590	1	-2
668.929	1	8
669.268	1	-5
669.607	1	3
669.946	1	2
670.285	1	11
670.623	1	4
670.962	1	-5
671.301	1	2
671.640	1	11
671.979	1	-5
672.317	1	6
672.656	1	-3
672.995	1	0
673.334	1	5
673.673	1	-3
674.011	1	2
674.350	1	5
674.689	1	0
675.028	1	4
675.367	1	1
675.705	1	11
676.044	1	12
676.383	1	-2
676.722	1	7
677.060	1	-6
677.399	1	-1
677.738	1	9
678.077	1	16
678.416	1	-11
678.754	1	5
679.093	1	7
679.432	1	6
679.771	1	1
680.109	1	3
680.448	1	-3
680.787	1	-2
681.125	1	8
681.464	1	10
681.803	1	9
682.142	1	-3
682.480	1	-4
682.819	1	7
683.158	1	-3
683.496	1	6
683.835	1	-2
684.174	1	-2
684.512	1	-7
684.851	1	0
685.190	1	3
685.529	1	10
685.867	1	10
686.206	1	9
686.545	1	15
686.883	1	4
687.222	1	2
687.561	1	0
687.899	1	-5
688.238	1	-5
688.577	1	13
688.746	1	-5