File: Data/GaN_170K_550ms/GaN_sample D_spot 18_UVVIS_170 K_200um_550 ms 2x2mm1_175.txt
340.368	1	7
340.710	1	-12
341.052	1	10
341.394	1	3
341.737	1	-6
342.079	1	1
342.421	1	7
342.763	1	11
343.105	1	8
343.447	1	-4
343.789	1	9
344.131	1	1
344.473	1	1
344.815	1	9
345.157	1	0
345.499	1	-5
345.841	1	2
346.183	1	6
346.526	1	5
346.868	1	5
347.210	1	-8
347.552	1	7
347.894	1	-6
348.236	1	-6
348.578	1	5
348.920	1	-2
349.262	1	7
349.604	1	9
349.946	1	11
350.288	1	-3
350.630	1	19
350.972	1	1
351.314	1	6
351.656	1	-7
351.998	1	-5
352.340	1	6
352.682	1	-2
353.024	1	-6
353.366	1	7
353.708	1	10
354.050	1	-2
354.392	1	-2
354.734	1	8
355.076	1	-3
355.418	1	6
355.760	1	-2
356.102	1	8
356.444	1	2
356.785	1	7
357.127	1	6
357.469	1	6
357.811	1	4
358.153	1	11
358.495	1	-1
358.837	1	6
359.179	1	-4
359.521	1	11
359.863	1	7
360.205	1	13
360.547	1	9
360.889	1	10
361.231	1	12
361.572	1	15
361.914	1	3
362.256	1	11
362.598	1	12
362.940	1	17
363.282	1	16
363.624	1	24
363.966	1	11
364.308	1	19
364.649	1	-3
364.991	1	23
365.333	1	8
365.675	1	19
366.017	1	11
366.359	1	8
366.701	1	29
367.042	1	12
367.384	1	26
367.726	1	31
368.068	1	32
368.410	1	25
368.752	1	26
369.093	1	24
369.435	1	20
369.777	1	27
370.119	1	22
370.461	1	24
370.803	1	22
371.144	1	19
371.486	1	13
371.828	1	16
372.170	1	16
372.512	1	8
372.853	1	36
373.195	1	14
373.537	1	21
373.879	1	15
374.220	1	22
374.562	1	22
374.904	1	12
375.246	1	21
375.588	1	9
375.929	1	6
376.271	1	13
376.613	1	7
376.955	1	20
377.296	1	13
377.638	1	5
377.980	1	-3
378.321	1	4
378.663	1	9
379.005	1	8
379.347	1	11
379.688	1	7
380.030	1	17
380.372	1	14
380.714	1	19
381.055	1	11
381.397	1	9
381.739	1	-1
382.080	1	5
382.422	1	6
382.764	1	1
383.105	1	13
383.447	1	7
383.789	1	11
384.130	1	4
384.472	1	6
384.814	1	4
385.156	1	-5
385.497	1	17
385.839	1	-7
386.180	1	12
386.522	1	13
386.864	1	9
387.205	1	-3
387.547	1	11
387.889	1	6
388.230	1	-4
388.572	1	8
388.914	1	6
389.255	1	13
389.597	1	3
389.939	1	2
390.280	1	0
390.622	1	1
390.963	1	-1
391.305	1	6
391.647	1	-8
391.988	1	5
392.330	1	7
392.671	1	0
393.013	1	-3
393.355	1	9
393.696	1	7
394.038	1	-3
394.379	1	0
394.721	1	-5
395.062	1	-4
395.404	1	6
395.746	1	9
396.087	1	5
396.429	1	3
396.770	1	9
397.112	1	2
397.453	1	11
397.795	1	3
398.136	1	-1
398.478	1	8
398.819	1	9
399.161	1	0
399.503	1	1
399.844	1	1
400.186	1	-3
400.527	1	10
400.869	1	-1
401.210	1	8
401.552	1	0
401.893	1	0
402.235	1	6
402.576	1	-1
402.918	1	-1
403.259	1	5
403.601	1	7
403.942	1	0
404.284	1	-7
404.625	1	3
404.967	1	2
405.308	1	7
405.649	1	0
405.991	1	5
406.332	1	1
406.674	1	8
407.015	1	5
407.357	1	5
407.698	1	1
408.040	1	5
408.381	1	10
408.722	1	-5
409.064	1	-1
409.405	1	0
409.747	1	6
410.088	1	9
410.430	1	3
410.771	1	-3
411.112	1	7
411.454	1	9
411.795	1	5
412.137	1	-5
412.478	1	-7
412.819	1	2
413.161	1	9
413.502	1	-1
413.844	1	12
414.185	1	-2
414.526	1	9
414.868	1	-3
415.209	1	-9
415.550	1	-1
415.892	1	4
416.233	1	3
416.575	1	1
416.916	1	-3
417.257	1	1
417.599	1	-3
417.940	1	-3
418.281	1	-5
418.623	1	-4
418.964	1	-3
419.305	1	2
419.647	1	6
419.988	1	0
420.329	1	5
420.671	1	-4
421.012	1	5
421.353	1	-2
421.695	1	-5
422.036	1	1
422.377	1	3
422.718	1	6
423.060	1	2
423.401	1	-4
423.742	1	-5
424.084	1	17
424.425	1	-11
424.766	1	-2
425.107	1	7
425.449	1	11
425.790	1	7
426.131	1	-2
426.472	1	4
426.814	1	-1
427.155	1	11
427.496	1	4
427.837	1	10
428.179	1	2
428.520	1	-7
428.861	1	-1
429.202	1	3
429.544	1	-1
429.885	1	2
430.226	1	1
430.567	1	2
430.909	1	2
431.250	1	4
431.591	1	-10
431.932	1	-5
432.273	1	7
432.615	1	3
432.956	1	8
433.297	1	-5
433.638	1	7
433.979	1	3
434.320	1	13
434.662	1	-11
435.003	1	-4
435.344	1	-3
435.685	1	0
436.026	1	4
436.368	1	7
436.709	1	-1
437.050	1	0
437.391	1	-2
437.732	1	5
438.073	1	-2
438.414	1	-7
438.756	1	-2
439.097	1	6
439.438	1	2
439.779	1	11
440.120	1	0
440.461	1	7
440.802	1	4
441.143	1	-1
441.485	1	-2
441.826	1	6
442.167	1	5
442.508	1	-2
442.849	1	1
443.190	1	8
443.531	1	-3
443.872	1	-8
444.213	1	-2
444.554	1	0
444.895	1	-11
445.237	1	-7
445.578	1	9
445.919	1	8
446.260	1	9
446.601	1	-6
446.942	1	-1
447.283	1	5
447.624	1	2
447.965	1	1
448.306	1	4
448.647	1	13
448.988	1	12
449.329	1	2
449.670	1	-8
450.011	1	8
450.352	1	-3
450.693	1	6
451.034	1	1
451.375	1	2
451.716	1	7
452.057	1	6
452.398	1	1
452.739	1	4
453.080	1	-4
453.421	1	1
453.762	1	-1
454.103	1	3
454.444	1	-5
454.785	1	-6
455.126	1	9
455.467	1	-10
455.808	1	9
456.149	1	5
456.490	1	8
456.831	1	5
457.172	1	-3
457.513	1	15
457.854	1	7
458.195	1	5
458.536	1	2
458.877	1	0
459.218	1	-1
459.559	1	-1
459.899	1	-9
460.240	1	4
460.581	1	3
460.922	1	1
461.263	1	2
461.604	1	10
461.945	1	2
462.286	1	-11
462.627	1	-1
462.968	1	7
463.309	1	12
463.649	1	-1
463.990	1	4
464.331	1	2
464.672	1	0
465.013	1	12
465.354	1	-7
465.695	1	1
466.036	1	-5
466.376	1	3
466.717	1	1
467.058	1	0
467.399	1	7
467.740	1	4
468.081	1	-2
468.422	1	11
468.762	1	8
469.103	1	7
469.444	1	-6
469.785	1	-10
470.126	1	6
470.467	1	9
470.807	1	-4
471.148	1	-2
471.489	1	2
471.830	1	1
472.171	1	2
472.511	1	-1
472.852	1	-3
473.193	1	12
473.534	1	2
473.875	1	-1
474.215	1	-7
474.556	1	4
474.897	1	10
475.238	1	-3
475.578	1	2
475.919	1	7
476.260	1	11
476.601	1	8
476.942	1	-7
477.282	1	6
477.623	1	2
477.964	1	-3
478.305	1	-3
478.645	1	1
478.986	1	-7
479.327	1	-5
479.667	1	-6
480.008	1	4
480.349	1	3
480.690	1	-1
481.030	1	1
481.371	1	-2
481.712	1	4
482.053	1	0
482.393	1	-2
482.734	1	-1
483.075	1	4
483.415	1	-1
483.756	1	7
484.097	1	-8
484.437	1	-4
484.778	1	-8
485.119	1	12
485.459	1	0
485.800	1	0
486.141	1	3
486.481	1	8
486.822	1	7
487.163	1	2
487.503	1	-1
487.844	1	2
488.185	1	3
488.525	1	1
488.866	1	6
489.207	1	-3
489.547	1	7
489.888	1	-4
490.228	1	0
490.569	1	-3
490.910	1	-1
491.250	1	1
491.591	1	8
491.932	1	9
492.272	1	6
492.613	1	9
492.953	1	4
493.294	1	0
493.635	1	-4
493.975	1	4
494.316	1	5
494.656	1	5
494.997	1	-8
495.337	1	14
495.678	1	-1
496.019	1	-9
496.359	1	5
496.700	1	21
497.040	1	1
497.381	1	10
497.721	1	2
498.062	1	3
498.403	1	9
498.743	1	9
499.084	1	-4
499.424	1	14
499.765	1	-15
500.105	1	-2
500.446	1	-1
500.786	1	-2
501.127	1	8
501.467	1	7
501.808	1	-2
502.148	1	10
502.489	1	3
502.829	1	4
503.170	1	10
503.510	1	5
503.851	1	2
504.191	1	-8
504.532	1	-8
504.872	1	4
505.213	1	-5
505.553	1	4
505.894	1	13
506.234	1	-6
506.575	1	6
506.915	1	7
507.256	1	-1
507.596	1	15
507.936	1	18
508.277	1	-2
508.617	1	10
508.958	1	4
509.298	1	-7
509.639	1	13
509.979	1	13
510.319	1	-2
510.660	1	3
511.000	1	8
511.341	1	4
511.681	1	0
512.022	1	8
512.362	1	2
512.702	1	5
513.043	1	-6
513.383	1	11
513.724	1	-3
514.064	1	5
514.404	1	-10
514.745	1	0
515.085	1	7
515.425	1	1
515.766	1	8
516.106	1	11
516.447	1	6
516.787	1	6
517.127	1	12
517.468	1	5
517.808	1	8
518.148	1	6
518.489	1	17
518.829	1	1
519.169	1	1
519.510	1	0
519.850	1	5
520.190	1	5
520.531	1	10
520.871	1	-1
521.211	1	-2
521.552	1	-1
521.892	1	7
522.232	1	4
522.573	1	16
522.913	1	7
523.253	1	17
523.593	1	6
523.934	1	-2
524.274	1	7
524.614	1	7
524.955	1	-1
525.295	1	2
525.635	1	10
525.975	1	-2
526.316	1	11
526.656	1	13
526.996	1	6
527.337	1	-5
527.677	1	-4
528.017	1	-2
528.357	1	4
528.698	1	-7
529.038	1	9
529.378	1	5
529.718	1	15
530.058	1	2
530.399	1	6
530.739	1	11
531.079	1	11
531.419	1	11
531.760	1	3
532.100	1	9
532.440	1	4
532.780	1	-5
533.120	1	5
533.461	1	5
533.801	1	6
534.141	1	6
534.481	1	3
534.821	1	5
535.162	1	15
535.502	1	8
535.842	1	5
536.182	1	2
536.522	1	-1
536.862	1	11
537.203	1	6
537.543	1	-2
537.883	1	10
538.223	1	14
538.563	1	2
538.903	1	11
539.243	1	5
539.584	1	7
539.924	1	-6
540.264	1	14
540.604	1	10
540.944	1	7
541.284	1	6
541.624	1	1
541.964	1	13
542.305	1	-1
542.645	1	0
542.985	1	4
543.325	1	9
543.665	1	-2
544.005	1	15
544.345	1	8
544.685	1	7
545.025	1	3
545.365	1	3
545.705	1	12
546.045	1	2
546.386	1	7
546.726	1	1
547.066	1	12
547.406	1	8
547.746	1	-3
548.086	1	12
548.426	1	12
548.766	1	4
549.106	1	9
549.446	1	9
549.786	1	10
550.126	1	2
550.466	1	1
550.806	1	6
551.146	1	12
551.486	1	-2
551.826	1	6
552.166	1	6
552.506	1	1
552.846	1	8
553.186	1	11
553.526	1	1
553.866	1	0
554.206	1	3
554.546	1	-3
554.886	1	4
555.226	1	-5
555.566	1	1
555.906	1	-1
556.246	1	13
556.586	1	-2
556.926	1	8
557.266	1	16
557.606	1	9
557.946	1	-2
558.286	1	6
558.626	1	6
558.966	1	4
559.306	1	4
559.646	1	-2
559.986	1	10
560.325	1	-4
560.665	1	5
561.005	1	2
561.345	1	2
561.685	1	4
562.025	1	-10
562.365	1	3
562.705	1	13
563.045	1	1
563.385	1	12
563.725	1	-2
564.064	1	11
564.404	1	10
564.744	1	1
565.084	1	11
565.424	1	5
565.764	1	-2
566.104	1	4
566.444	1	9
566.783	1	8
567.123	1	2
567.463	1	1
567.803	1	4
568.143	1	-2
568.483	1	11
568.823	1	4
569.162	1	2
569.502	1	7
569.842	1	-5
570.182	1	1
570.522	1	3
570.862	1	1
571.201	1	6
571.541	1	-5
571.881	1	-10
572.221	1	4
572.561	1	2
572.900	1	1
573.240	1	5
573.580	1	1
573.920	1	8
574.260	1	4
574.599	1	-4
574.939	1	-7
575.279	1	9
575.619	1	9
575.959	1	-1
576.298	1	7
576.638	1	12
576.978	1	1
577.318	1	5
577.657	1	-2
577.997	1	-6
578.337	1	3
578.677	1	4
579.016	1	1
579.356	1	6
579.696	1	-4
580.036	1	5
580.375	1	0
580.715	1	8
581.055	1	6
581.394	1	-2
581.734	1	9
582.074	1	0
582.414	1	-3
582.753	1	9
583.093	1	10
583.433	1	9
583.772	1	-2
584.112	1	9
584.452	1	-11
584.791	1	6
585.131	1	15
585.471	1	7
585.811	1	-4
586.150	1	-7
586.490	1	7
586.830	1	-2
587.169	1	7
587.509	1	3
587.849	1	3
588.188	1	5
588.528	1	-2
588.867	1	5
589.207	1	7
589.547	1	6
589.886	1	0
590.226	1	5
590.566	1	6
590.905	1	7
591.245	1	2
591.585	1	-3
591.924	1	-3
592.264	1	-3
592.603	1	0
592.943	1	2
593.283	1	7
593.622	1	-11
593.962	1	10
594.301	1	3
594.641	1	7
594.981	1	17
595.320	1	1
595.660	1	10
595.999	1	-3
596.339	1	8
596.678	1	1
597.018	1	-2
597.358	1	-1
597.697	1	-2
598.037	1	3
598.376	1	-6
598.716	1	2
599.055	1	1
599.395	1	3
599.734	1	11
600.074	1	1
600.413	1	-8
600.753	1	6
601.092	1	-2
601.432	1	4
601.771	1	12
602.111	1	5
602.451	1	8
602.790	1	5
603.130	1	1
603.469	1	4
603.809	1	5
604.148	1	10
604.487	1	6
604.827	1	0
605.166	1	11
605.506	1	1
605.845	1	3
606.185	1	-1
606.524	1	8
606.864	1	5
607.203	1	1
607.543	1	11
607.882	1	-7
608.222	1	-4
608.561	1	6
608.901	1	1
609.240	1	3
609.579	1	2
609.919	1	-2
610.258	1	3
610.598	1	5
610.937	1	7
611.277	1	-1
611.616	1	8
611.955	1	5
612.295	1	-3
612.634	1	-2
612.974	1	0
613.313	1	3
613.652	1	9
613.992	1	-4
614.331	1	-1
614.671	1	5
615.010	1	12
615.349	1	10
615.689	1	18
616.028	1	0
616.368	1	3
616.707	1	12
617.046	1	0
617.386	1	3
617.725	1	6
618.064	1	-1
618.404	1	0
618.743	1	3
619.082	1	4
619.422	1	-4
619.761	1	-1
620.100	1	-2
620.440	1	8
620.779	1	3
621.118	1	4
621.458	1	-4
621.797	1	-1
622.136	1	4
622.476	1	-10
622.815	1	8
623.154	1	2
623.494	1	6
623.833	1	10
624.172	1	-9
624.511	1	12
624.851	1	2
625.190	1	11
625.529	1	11
625.869	1	6
626.208	1	9
626.547	1	-6
626.886	1	5
627.226	1	6
627.565	1	4
627.904	1	-2
628.243	1	-4
628.583	1	-4
628.922	1	-10
629.261	1	4
629.600	1	3
629.940	1	-8
630.279	1	-2
630.618	1	-9
630.957	1	12
631.297	1	-4
631.636	1	8
631.975	1	-8
632.314	1	8
632.653	1	6
632.993	1	-1
633.332	1	10
633.671	1	10
634.010	1	7
634.349	1	-8
634.689	1	3
635.028	1	-1
635.367	1	-1
635.706	1	5
636.045	1	5
636.384	1	-6
636.724	1	21
637.063	1	-1
637.402	1	3
637.741	1	-16
638.080	1	0
638.419	1	0
638.759	1	4
639.098	1	-1
639.437	1	-7
639.776	1	0
640.115	1	10
640.454	1	3
640.793	1	-5
641.132	1	3
641.472	1	-6
641.811	1	11
642.150	1	0
642.489	1	4
642.828	1	-2
643.167	1	1
643.506	1	-6
643.845	1	-2
644.184	1	7
644.524	1	2
644.863	1	-12
645.202	1	7
645.541	1	2
645.880	1	5
646.219	1	5
646.558	1	4
646.897	1	7
647.236	1	-7
647.575	1	-12
647.914	1	2
648.253	1	2
648.592	1	3
648.931	1	-3
649.270	1	1
649.610	1	3
649.949	1	2
650.288	1	3
650.627	1	-1
650.966	1	2
651.305	1	-9
651.644	1	7
651.983	1	3
652.322	1	1
652.661	1	3
653.000	1	-11
653.339	1	-5
653.678	1	-2
654.017	1	5
654.356	1	-1
654.695	1	6
655.034	1	8
655.373	1	10
655.712	1	5
656.051	1	3
656.390	1	-3
656.729	1	2
657.068	1	2
657.406	1	0
657.745	1	7
658.084	1	-7
658.423	1	0
658.762	1	-1
659.101	1	3
659.440	1	3
659.779	1	5
660.118	1	10
660.457	1	13
660.796	1	1
661.135	1	-14
661.474	1	5
661.813	1	-3
662.152	1	2
662.491	1	-6
662.829	1	-5
663.168	1	7
663.507	1	3
663.846	1	-7
664.185	1	2
664.524	1	6
664.863	1	-6
665.202	1	14
665.541	1	-5
665.879	1	12
666.218	1	18
666.557	1	-1
666.896	1	1
667.235	1	-1
667.574	1	-6
667.913	1	-4
668.251	1	5
668.590	1	1
668.929	1	-2
669.268	1	-5
669.607	1	4
669.946	1	4
670.285	1	11
670.623	1	6
670.962	1	-2
671.301	1	7
671.640	1	-2
671.979	1	-2
672.317	1	10
672.656	1	0
672.995	1	-6
673.334	1	1
673.673	1	4
674.011	1	13
674.350	1	1
674.689	1	0
675.028	1	1
675.367	1	2
675.705	1	5
676.044	1	12
676.383	1	4
676.722	1	9
677.060	1	1
677.399	1	0
677.738	1	5
678.077	1	12
678.416	1	3
678.754	1	3
679.093	1	1
679.432	1	6
679.771	1	10
680.109	1	3
680.448	1	4
680.787	1	-3
681.125	1	7
681.464	1	4
681.803	1	6
682.142	1	-1
682.480	1	-4
682.819	1	8
683.158	1	3
683.496	1	10
683.835	1	2
684.174	1	5
684.512	1	4
684.851	1	2
685.190	1	0
685.529	1	13
685.867	1	10
686.206	1	2
686.545	1	8
686.883	1	-6
687.222	1	-1
687.561	1	7
687.899	1	4
688.238	1	-3
688.577	1	3
688.746	1	-4