File: Data/GaN_170K_550ms/GaN_sample D_spot 18_UVVIS_170 K_200um_550 ms 2x2mm1_304.txt
340.368	1	1
340.710	1	-13
341.052	1	0
341.394	1	-7
341.737	1	5
342.079	1	-6
342.421	1	5
342.763	1	-2
343.105	1	7
343.447	1	-20
343.789	1	8
344.131	1	-6
344.473	1	2
344.815	1	3
345.157	1	-2
345.499	1	3
345.841	1	3
346.183	1	3
346.526	1	7
346.868	1	0
347.210	1	-6
347.552	1	10
347.894	1	1
348.236	1	4
348.578	1	6
348.920	1	-6
349.262	1	-2
349.604	1	6
349.946	1	4
350.288	1	4
350.630	1	5
350.972	1	2
351.314	1	7
351.656	1	-8
351.998	1	14
352.340	1	3
352.682	1	3
353.024	1	1
353.366	1	3
353.708	1	4
354.050	1	-5
354.392	1	4
354.734	1	2
355.076	1	1
355.418	1	-3
355.760	1	3
356.102	1	1
356.444	1	-6
356.785	1	6
357.127	1	-2
357.469	1	-3
357.811	1	4
358.153	1	7
358.495	1	-2
358.837	1	4
359.179	1	-13
359.521	1	9
359.863	1	-4
360.205	1	14
360.547	1	16
360.889	1	9
361.231	1	9
361.572	1	5
361.914	1	-2
362.256	1	11
362.598	1	11
362.940	1	15
363.282	1	9
363.624	1	10
363.966	1	-5
364.308	1	13
364.649	1	5
364.991	1	20
365.333	1	2
365.675	1	9
366.017	1	11
366.359	1	11
366.701	1	14
367.042	1	0
367.384	1	12
367.726	1	10
368.068	1	8
368.410	1	21
368.752	1	7
369.093	1	-4
369.435	1	2
369.777	1	13
370.119	1	7
370.461	1	17
370.803	1	-3
371.144	1	8
371.486	1	-5
371.828	1	5
372.170	1	9
372.512	1	-1
372.853	1	11
373.195	1	0
373.537	1	18
373.879	1	10
374.220	1	14
374.562	1	7
374.904	1	7
375.246	1	5
375.588	1	7
375.929	1	1
376.271	1	6
376.613	1	2
376.955	1	12
377.296	1	0
377.638	1	-2
377.980	1	-3
378.321	1	11
378.663	1	-3
379.005	1	3
379.347	1	2
379.688	1	-1
380.030	1	3
380.372	1	-9
380.714	1	16
381.055	1	9
381.397	1	-1
381.739	1	-9
382.080	1	0
382.422	1	-1
382.764	1	-4
383.105	1	2
383.447	1	8
383.789	1	7
384.130	1	-5
384.472	1	-2
384.814	1	7
385.156	1	5
385.497	1	9
385.839	1	-10
386.180	1	6
386.522	1	1
386.864	1	7
387.205	1	-3
387.547	1	9
387.889	1	11
388.230	1	-9
388.572	1	1
388.914	1	0
389.255	1	12
389.597	1	4
389.939	1	0
390.280	1	9
390.622	1	-3
390.963	1	6
391.305	1	-6
391.647	1	-4
391.988	1	0
392.330	1	1
392.671	1	-7
393.013	1	-4
393.355	1	3
393.696	1	5
394.038	1	-7
394.379	1	1
394.721	1	5
395.062	1	4
395.404	1	6
395.746	1	4
396.087	1	6
396.429	1	9
396.770	1	2
397.112	1	6
397.453	1	9
397.795	1	-2
398.136	1	-1
398.478	1	-3
398.819	1	4
399.161	1	-2
399.503	1	8
399.844	1	-5
400.186	1	1
400.527	1	11
400.869	1	4
401.210	1	4
401.552	1	0
401.893	1	8
402.235	1	7
402.576	1	0
402.918	1	4
403.259	1	4
403.601	1	19
403.942	1	2
404.284	1	-8
404.625	1	-2
404.967	1	9
405.308	1	7
405.649	1	4
405.991	1	2
406.332	1	-8
406.674	1	1
407.015	1	3
407.357	1	-8
407.698	1	1
408.040	1	7
408.381	1	-5
408.722	1	-11
409.064	1	-2
409.405	1	1
409.747	1	-9
410.088	1	10
410.430	1	-5
410.771	1	-2
411.112	1	10
411.454	1	5
411.795	1	11
412.137	1	-8
412.478	1	4
412.819	1	-7
413.161	1	1
413.502	1	-5
413.844	1	15
414.185	1	-5
414.526	1	-1
414.868	1	-5
415.209	1	-12
415.550	1	-5
415.892	1	3
416.233	1	7
416.575	1	2
416.916	1	-5
417.257	1	1
417.599	1	5
417.940	1	8
418.281	1	-11
418.623	1	-2
418.964	1	-9
419.305	1	4
419.647	1	8
419.988	1	3
420.329	1	0
420.671	1	-5
421.012	1	4
421.353	1	-4
421.695	1	-8
422.036	1	6
422.377	1	1
422.718	1	3
423.060	1	-5
423.401	1	-6
423.742	1	-7
424.084	1	9
424.425	1	-9
424.766	1	9
425.107	1	-6
425.449	1	7
425.790	1	7
426.131	1	10
426.472	1	-2
426.814	1	-5
427.155	1	4
427.496	1	0
427.837	1	11
428.179	1	8
428.520	1	-4
428.861	1	1
429.202	1	0
429.544	1	1
429.885	1	-1
430.226	1	-1
430.567	1	3
430.909	1	-3
431.250	1	14
431.591	1	1
431.932	1	-10
432.273	1	0
432.615	1	6
432.956	1	3
433.297	1	1
433.638	1	1
433.979	1	-4
434.320	1	12
434.662	1	-12
435.003	1	2
435.344	1	0
435.685	1	-3
436.026	1	-5
436.368	1	4
436.709	1	0
437.050	1	-11
437.391	1	2
437.732	1	7
438.073	1	-6
438.414	1	1
438.756	1	-9
439.097	1	-6
439.438	1	1
439.779	1	3
440.120	1	-17
440.461	1	14
440.802	1	5
441.143	1	-11
441.485	1	-4
441.826	1	1
442.167	1	1
442.508	1	-2
442.849	1	-1
443.190	1	4
443.531	1	-6
443.872	1	2
444.213	1	0
444.554	1	-2
444.895	1	-19
445.237	1	-12
445.578	1	10
445.919	1	1
446.260	1	1
446.601	1	-5
446.942	1	-2
447.283	1	5
447.624	1	-9
447.965	1	8
448.306	1	-5
448.647	1	5
448.988	1	18
449.329	1	6
449.670	1	-8
450.011	1	7
450.352	1	-2
450.693	1	-2
451.034	1	3
451.375	1	-4
451.716	1	0
452.057	1	-1
452.398	1	0
452.739	1	1
453.080	1	-1
453.421	1	0
453.762	1	-7
454.103	1	-14
454.444	1	-5
454.785	1	-6
455.126	1	15
455.467	1	-16
455.808	1	9
456.149	1	-4
456.490	1	6
456.831	1	-5
457.172	1	-5
457.513	1	12
457.854	1	-1
458.195	1	-2
458.536	1	-3
458.877	1	2
459.218	1	-8
459.559	1	0
459.899	1	-2
460.240	1	3
460.581	1	5
460.922	1	-4
461.263	1	0
461.604	1	0
461.945	1	6
462.286	1	0
462.627	1	3
462.968	1	8
463.309	1	5
463.649	1	4
463.990	1	-3
464.331	1	-3
464.672	1	-15
465.013	1	2
465.354	1	-7
465.695	1	6
466.036	1	-6
466.376	1	1
466.717	1	-2
467.058	1	6
467.399	1	7
467.740	1	-2
468.081	1	0
468.422	1	7
468.762	1	7
469.103	1	3
469.444	1	4
469.785	1	-5
470.126	1	3
470.467	1	0
470.807	1	-5
471.148	1	-3
471.489	1	5
471.830	1	0
472.171	1	2
472.511	1	4
472.852	1	6
473.193	1	-1
473.534	1	2
473.875	1	-4
474.215	1	1
474.556	1	6
474.897	1	0
475.238	1	0
475.578	1	8
475.919	1	7
476.260	1	12
476.601	1	6
476.942	1	-12
477.282	1	6
477.623	1	6
477.964	1	1
478.305	1	-3
478.645	1	1
478.986	1	0
479.327	1	-4
479.667	1	-4
480.008	1	1
480.349	1	2
480.690	1	-5
481.030	1	-1
481.371	1	0
481.712	1	-2
482.053	1	-7
482.393	1	-6
482.734	1	3
483.075	1	7
483.415	1	3
483.756	1	-4
484.097	1	-13
484.437	1	-7
484.778	1	-16
485.119	1	0
485.459	1	3
485.800	1	-3
486.141	1	14
486.481	1	-4
486.822	1	6
487.163	1	3
487.503	1	2
487.844	1	-3
488.185	1	1
488.525	1	6
488.866	1	5
489.207	1	11
489.547	1	6
489.888	1	5
490.228	1	-7
490.569	1	4
490.910	1	4
491.250	1	3
491.591	1	-5
491.932	1	0
492.272	1	9
492.613	1	4
492.953	1	1
493.294	1	-4
493.635	1	2
493.975	1	9
494.316	1	2
494.656	1	2
494.997	1	2
495.337	1	10
495.678	1	-1
496.019	1	-9
496.359	1	3
496.700	1	9
497.040	1	0
497.381	1	6
497.721	1	-3
498.062	1	3
498.403	1	2
498.743	1	7
499.084	1	5
499.424	1	3
499.765	1	-10
500.105	1	-6
500.446	1	-5
500.786	1	0
501.127	1	5
501.467	1	2
501.808	1	-2
502.148	1	9
502.489	1	2
502.829	1	-7
503.170	1	12
503.510	1	-2
503.851	1	3
504.191	1	-3
504.532	1	-11
504.872	1	1
505.213	1	3
505.553	1	0
505.894	1	4
506.234	1	-3
506.575	1	11
506.915	1	-4
507.256	1	-8
507.596	1	11
507.936	1	12
508.277	1	-8
508.617	1	9
508.958	1	4
509.298	1	-1
509.639	1	7
509.979	1	4
510.319	1	0
510.660	1	1
511.000	1	0
511.341	1	11
511.681	1	0
512.022	1	9
512.362	1	-7
512.702	1	-3
513.043	1	-2
513.383	1	7
513.724	1	0
514.064	1	10
514.404	1	-9
514.745	1	2
515.085	1	-1
515.425	1	-3
515.766	1	-1
516.106	1	5
516.447	1	2
516.787	1	6
517.127	1	4
517.468	1	0
517.808	1	10
518.148	1	3
518.489	1	7
518.829	1	3
519.169	1	-3
519.510	1	5
519.850	1	0
520.190	1	6
520.531	1	9
520.871	1	0
521.211	1	8
521.552	1	4
521.892	1	1
522.232	1	-6
522.573	1	7
522.913	1	7
523.253	1	19
523.593	1	7
523.934	1	1
524.274	1	0
524.614	1	-4
524.955	1	-1
525.295	1	10
525.635	1	1
525.975	1	2
526.316	1	6
526.656	1	6
526.996	1	11
527.337	1	7
527.677	1	-8
528.017	1	4
528.357	1	-7
528.698	1	-7
529.038	1	-7
529.378	1	-1
529.718	1	9
530.058	1	13
530.399	1	9
530.739	1	3
531.079	1	6
531.419	1	17
531.760	1	8
532.100	1	2
532.440	1	1
532.780	1	-3
533.120	1	4
533.461	1	-3
533.801	1	4
534.141	1	2
534.481	1	10
534.821	1	7
535.162	1	1
535.502	1	2
535.842	1	6
536.182	1	-2
536.522	1	11
536.862	1	6
537.203	1	4
537.543	1	-2
537.883	1	11
538.223	1	3
538.563	1	-3
538.903	1	1
539.243	1	-10
539.584	1	2
539.924	1	-2
540.264	1	6
540.604	1	-1
540.944	1	-2
541.284	1	-1
541.624	1	-3
541.964	1	6
542.305	1	-3
542.645	1	-2
542.985	1	6
543.325	1	6
543.665	1	5
544.005	1	15
544.345	1	6
544.685	1	7
545.025	1	-4
545.365	1	5
545.705	1	3
546.045	1	0
546.386	1	-9
546.726	1	-1
547.066	1	18
547.406	1	0
547.746	1	-5
548.086	1	-1
548.426	1	9
548.766	1	4
549.106	1	7
549.446	1	13
549.786	1	0
550.126	1	1
550.466	1	-7
550.806	1	-3
551.146	1	-3
551.486	1	0
551.826	1	12
552.166	1	-1
552.506	1	3
552.846	1	0
553.186	1	7
553.526	1	3
553.866	1	-5
554.206	1	2
554.546	1	-7
554.886	1	-8
555.226	1	-2
555.566	1	4
555.906	1	0
556.246	1	5
556.586	1	5
556.926	1	3
557.266	1	0
557.606	1	-1
557.946	1	6
558.286	1	3
558.626	1	6
558.966	1	4
559.306	1	12
559.646	1	-2
559.986	1	-1
560.325	1	0
560.665	1	0
561.005	1	-1
561.345	1	-10
561.685	1	3
562.025	1	-13
562.365	1	2
562.705	1	1
563.045	1	5
563.385	1	9
563.725	1	-2
564.064	1	3
564.404	1	-1
564.744	1	12
565.084	1	6
565.424	1	2
565.764	1	5
566.104	1	6
566.444	1	0
566.783	1	7
567.123	1	6
567.463	1	1
567.803	1	6
568.143	1	3
568.483	1	6
568.823	1	3
569.162	1	4
569.502	1	-4
569.842	1	-4
570.182	1	-2
570.522	1	-1
570.862	1	3
571.201	1	5
571.541	1	-6
571.881	1	-6
572.221	1	7
572.561	1	3
572.900	1	-7
573.240	1	2
573.580	1	-2
573.920	1	11
574.260	1	11
574.599	1	-9
574.939	1	-2
575.279	1	-3
575.619	1	17
575.959	1	-13
576.298	1	2
576.638	1	8
576.978	1	-3
577.318	1	-4
577.657	1	3
577.997	1	-5
578.337	1	11
578.677	1	7
579.016	1	5
579.356	1	1
579.696	1	-6
580.036	1	3
580.375	1	-3
580.715	1	2
581.055	1	4
581.394	1	2
581.734	1	2
582.074	1	8
582.414	1	-12
582.753	1	6
583.093	1	3
583.433	1	10
583.772	1	3
584.112	1	3
584.452	1	-3
584.791	1	-3
585.131	1	8
585.471	1	2
585.811	1	1
586.150	1	-6
586.490	1	3
586.830	1	-3
587.169	1	11
587.509	1	0
587.849	1	1
588.188	1	-2
588.528	1	-3
588.867	1	2
589.207	1	1
589.547	1	4
589.886	1	-7
590.226	1	3
590.566	1	0
590.905	1	3
591.245	1	0
591.585	1	-6
591.924	1	6
592.264	1	-3
592.603	1	1
592.943	1	0
593.283	1	-2
593.622	1	-8
593.962	1	-5
594.301	1	3
594.641	1	6
594.981	1	11
595.320	1	-1
595.660	1	0
595.999	1	-2
596.339	1	1
596.678	1	-4
597.018	1	0
597.358	1	-2
597.697	1	-14
598.037	1	-2
598.376	1	-6
598.716	1	3
599.055	1	6
599.395	1	1
599.734	1	4
600.074	1	7
600.413	1	-10
600.753	1	8
601.092	1	-12
601.432	1	-5
601.771	1	13
602.111	1	-3
602.451	1	4
602.790	1	-1
603.130	1	-5
603.469	1	11
603.809	1	6
604.148	1	6
604.487	1	3
604.827	1	-16
605.166	1	10
605.506	1	2
605.845	1	10
606.185	1	3
606.524	1	-8
606.864	1	-4
607.203	1	6
607.543	1	9
607.882	1	6
608.222	1	-14
608.561	1	-4
608.901	1	7
609.240	1	-2
609.579	1	-6
609.919	1	-1
610.258	1	9
610.598	1	8
610.937	1	5
611.277	1	5
611.616	1	-8
611.955	1	2
612.295	1	1
612.634	1	1
612.974	1	-2
613.313	1	-9
613.652	1	9
613.992	1	13
614.331	1	-1
614.671	1	-1
615.010	1	8
615.349	1	-8
615.689	1	1
616.028	1	5
616.368	1	-9
616.707	1	11
617.046	1	1
617.386	1	-3
617.725	1	-10
618.064	1	-2
618.404	1	3
618.743	1	10
619.082	1	5
619.422	1	-10
619.761	1	-6
620.100	1	0
620.440	1	5
620.779	1	-5
621.118	1	-6
621.458	1	9
621.797	1	-3
622.136	1	-7
622.476	1	-6
622.815	1	-3
623.154	1	2
623.494	1	3
623.833	1	14
624.172	1	-5
624.511	1	4
624.851	1	-4
625.190	1	2
625.529	1	3
625.869	1	8
626.208	1	2
626.547	1	-1
626.886	1	5
627.226	1	-4
627.565	1	-2
627.904	1	-4
628.243	1	-5
628.583	1	-9
628.922	1	-4
629.261	1	-4
629.600	1	-8
629.940	1	3
630.279	1	-3
630.618	1	-3
630.957	1	6
631.297	1	-9
631.636	1	8
631.975	1	-2
632.314	1	-2
632.653	1	5
632.993	1	-4
633.332	1	4
633.671	1	2
634.010	1	4
634.349	1	-12
634.689	1	1
635.028	1	4
635.367	1	-3
635.706	1	-4
636.045	1	12
636.384	1	-6
636.724	1	3
637.063	1	1
637.402	1	7
637.741	1	-6
638.080	1	4
638.419	1	-13
638.759	1	0
639.098	1	-1
639.437	1	-1
639.776	1	1
640.115	1	2
640.454	1	2
640.793	1	4
641.132	1	10
641.472	1	-17
641.811	1	18
642.150	1	2
642.489	1	-3
642.828	1	0
643.167	1	-2
643.506	1	4
643.845	1	-2
644.184	1	12
644.524	1	2
644.863	1	-3
645.202	1	11
645.541	1	-2
645.880	1	2
646.219	1	3
646.558	1	8
646.897	1	6
647.236	1	-5
647.575	1	2
647.914	1	-1
648.253	1	0
648.592	1	3
648.931	1	1
649.270	1	6
649.610	1	3
649.949	1	-5
650.288	1	2
650.627	1	-1
650.966	1	-5
651.305	1	-3
651.644	1	6
651.983	1	-1
652.322	1	5
652.661	1	3
653.000	1	-7
653.339	1	-1
653.678	1	4
654.017	1	14
654.356	1	0
654.695	1	9
655.034	1	0
655.373	1	9
655.712	1	-9
656.051	1	-3
656.390	1	-1
656.729	1	4
657.068	1	7
657.406	1	0
657.745	1	6
658.084	1	-6
658.423	1	2
658.762	1	-5
659.101	1	-3
659.440	1	0
659.779	1	3
660.118	1	3
660.457	1	-1
660.796	1	2
661.135	1	-4
661.474	1	5
661.813	1	3
662.152	1	-8
662.491	1	-11
662.829	1	1
663.168	1	-6
663.507	1	3
663.846	1	-9
664.185	1	6
664.524	1	4
664.863	1	-1
665.202	1	8
665.541	1	0
665.879	1	2
666.218	1	13
666.557	1	3
666.896	1	-2
667.235	1	6
667.574	1	-10
667.913	1	-6
668.251	1	5
668.590	1	-3
668.929	1	1
669.268	1	1
669.607	1	10
669.946	1	7
670.285	1	4
670.623	1	-3
670.962	1	-5
671.301	1	-1
671.640	1	3
671.979	1	2
672.317	1	10
672.656	1	-2
672.995	1	-2
673.334	1	3
673.673	1	0
674.011	1	2
674.350	1	2
674.689	1	1
675.028	1	5
675.367	1	-7
675.705	1	11
676.044	1	10
676.383	1	5
676.722	1	16
677.060	1	-5
677.399	1	-3
677.738	1	-6
678.077	1	8
678.416	1	-5
678.754	1	8
679.093	1	4
679.432	1	-2
679.771	1	1
680.109	1	-1
680.448	1	3
680.787	1	2
681.125	1	7
681.464	1	0
681.803	1	9
682.142	1	6
682.480	1	-3
682.819	1	-1
683.158	1	1
683.496	1	1
683.835	1	-1
684.174	1	-1
684.512	1	-4
684.851	1	1
685.190	1	-8
685.529	1	16
685.867	1	3
686.206	1	7
686.545	1	0
686.883	1	0
687.222	1	2
687.561	1	2
687.899	1	-8
688.238	1	-10
688.577	1	15
688.746	1	-9