File: Data/GaN_170K_550ms/GaN_sample D_spot 18_UVVIS_170 K_200um_550 ms 2x2mm1_349.txt
340.368	1	-7
340.710	1	-9
341.052	1	8
341.394	1	-3
341.737	1	-6
342.079	1	-3
342.421	1	5
342.763	1	10
343.105	1	6
343.447	1	-8
343.789	1	11
344.131	1	1
344.473	1	7
344.815	1	9
345.157	1	-9
345.499	1	1
345.841	1	4
346.183	1	11
346.526	1	1
346.868	1	9
347.210	1	-6
347.552	1	15
347.894	1	6
348.236	1	-6
348.578	1	0
348.920	1	-1
349.262	1	4
349.604	1	5
349.946	1	6
350.288	1	-5
350.630	1	5
350.972	1	-12
351.314	1	2
351.656	1	0
351.998	1	5
352.340	1	5
352.682	1	-1
353.024	1	-3
353.366	1	10
353.708	1	4
354.050	1	-2
354.392	1	1
354.734	1	6
355.076	1	-5
355.418	1	-5
355.760	1	-6
356.102	1	3
356.444	1	4
356.785	1	6
357.127	1	-1
357.469	1	-10
357.811	1	8
358.153	1	8
358.495	1	-3
358.837	1	8
359.179	1	2
359.521	1	4
359.863	1	5
360.205	1	18
360.547	1	14
360.889	1	5
361.231	1	3
361.572	1	9
361.914	1	-5
362.256	1	-10
362.598	1	6
362.940	1	10
363.282	1	5
363.624	1	5
363.966	1	2
364.308	1	13
364.649	1	3
364.991	1	3
365.333	1	1
365.675	1	7
366.017	1	7
366.359	1	-10
366.701	1	-3
367.042	1	2
367.384	1	15
367.726	1	8
368.068	1	17
368.410	1	9
368.752	1	10
369.093	1	0
369.435	1	0
369.777	1	8
370.119	1	6
370.461	1	11
370.803	1	-7
371.144	1	-1
371.486	1	2
371.828	1	-3
372.170	1	10
372.512	1	2
372.853	1	9
373.195	1	1
373.537	1	13
373.879	1	20
374.220	1	9
374.562	1	-1
374.904	1	3
375.246	1	4
375.588	1	7
375.929	1	7
376.271	1	7
376.613	1	4
376.955	1	11
377.296	1	-3
377.638	1	9
377.980	1	-5
378.321	1	3
378.663	1	4
379.005	1	-4
379.347	1	-2
379.688	1	2
380.030	1	9
380.372	1	-4
380.714	1	10
381.055	1	0
381.397	1	-5
381.739	1	-5
382.080	1	-8
382.422	1	5
382.764	1	7
383.105	1	4
383.447	1	7
383.789	1	12
384.130	1	1
384.472	1	-11
384.814	1	3
385.156	1	0
385.497	1	1
385.839	1	-5
386.180	1	13
386.522	1	4
386.864	1	1
387.205	1	3
387.547	1	5
387.889	1	4
388.230	1	-2
388.572	1	3
388.914	1	3
389.255	1	13
389.597	1	3
389.939	1	-3
390.280	1	-5
390.622	1	5
390.963	1	4
391.305	1	-1
391.647	1	-9
391.988	1	10
392.330	1	2
392.671	1	2
393.013	1	-2
393.355	1	1
393.696	1	7
394.038	1	-4
394.379	1	2
394.721	1	-8
395.062	1	-6
395.404	1	5
395.746	1	7
396.087	1	12
396.429	1	1
396.770	1	8
397.112	1	-5
397.453	1	3
397.795	1	-1
398.136	1	-7
398.478	1	-1
398.819	1	0
399.161	1	-10
399.503	1	1
399.844	1	-8
400.186	1	1
400.527	1	12
400.869	1	-1
401.210	1	1
401.552	1	-5
401.893	1	2
402.235	1	13
402.576	1	1
402.918	1	10
403.259	1	-4
403.601	1	9
403.942	1	4
404.284	1	-7
404.625	1	-5
404.967	1	1
405.308	1	11
405.649	1	4
405.991	1	-1
406.332	1	-8
406.674	1	6
407.015	1	8
407.357	1	-1
407.698	1	-4
408.040	1	-8
408.381	1	-1
408.722	1	-7
409.064	1	-6
409.405	1	1
409.747	1	0
410.088	1	6
410.430	1	0
410.771	1	8
411.112	1	6
411.454	1	3
411.795	1	8
412.137	1	-12
412.478	1	7
412.819	1	-6
413.161	1	2
413.502	1	-7
413.844	1	-3
414.185	1	-3
414.526	1	13
414.868	1	-1
415.209	1	-14
415.550	1	-4
415.892	1	3
416.233	1	5
416.575	1	2
416.916	1	-3
417.257	1	-1
417.599	1	-10
417.940	1	1
418.281	1	0
418.623	1	-3
418.964	1	-4
419.305	1	-2
419.647	1	1
419.988	1	4
420.329	1	-2
420.671	1	-3
421.012	1	-1
421.353	1	9
421.695	1	-13
422.036	1	-8
422.377	1	10
422.718	1	1
423.060	1	-9
423.401	1	-7
423.742	1	4
424.084	1	16
424.425	1	-10
424.766	1	1
425.107	1	-6
425.449	1	3
425.790	1	3
426.131	1	13
426.472	1	-6
426.814	1	-6
427.155	1	15
427.496	1	-7
427.837	1	-2
428.179	1	4
428.520	1	-9
428.861	1	5
429.202	1	-2
429.544	1	-4
429.885	1	-1
430.226	1	-3
430.567	1	1
430.909	1	-6
431.250	1	15
431.591	1	-2
431.932	1	-10
432.273	1	-4
432.615	1	-4
432.956	1	0
433.297	1	0
433.638	1	9
433.979	1	1
434.320	1	6
434.662	1	-3
435.003	1	0
435.344	1	0
435.685	1	-4
436.026	1	1
436.368	1	3
436.709	1	-2
437.050	1	-7
437.391	1	7
437.732	1	1
438.073	1	-11
438.414	1	-8
438.756	1	2
439.097	1	4
439.438	1	0
439.779	1	2
440.120	1	2
440.461	1	22
440.802	1	6
441.143	1	-5
441.485	1	-7
441.826	1	-6
442.167	1	3
442.508	1	-9
442.849	1	-2
443.190	1	3
443.531	1	-6
443.872	1	-2
444.213	1	6
444.554	1	-9
444.895	1	-11
445.237	1	-9
445.578	1	9
445.919	1	8
446.260	1	8
446.601	1	-3
446.942	1	10
447.283	1	5
447.624	1	5
447.965	1	6
448.306	1	6
448.647	1	-5
448.988	1	7
449.329	1	7
449.670	1	-2
450.011	1	-2
450.352	1	-9
450.693	1	-4
451.034	1	-5
451.375	1	5
451.716	1	10
452.057	1	-4
452.398	1	0
452.739	1	-4
453.080	1	-4
453.421	1	3
453.762	1	0
454.103	1	1
454.444	1	-3
454.785	1	-10
455.126	1	13
455.467	1	2
455.808	1	5
456.149	1	0
456.490	1	8
456.831	1	-7
457.172	1	-3
457.513	1	11
457.854	1	14
458.195	1	0
458.536	1	-8
458.877	1	4
459.218	1	-1
459.559	1	-3
459.899	1	-7
460.240	1	-3
460.581	1	4
460.922	1	-9
461.263	1	-4
461.604	1	8
461.945	1	4
462.286	1	-14
462.627	1	-1
462.968	1	10
463.309	1	10
463.649	1	-1
463.990	1	2
464.331	1	-1
464.672	1	-9
465.013	1	9
465.354	1	-5
465.695	1	9
466.036	1	-3
466.376	1	4
466.717	1	-14
467.058	1	-1
467.399	1	13
467.740	1	-2
468.081	1	-10
468.422	1	5
468.762	1	12
469.103	1	5
469.444	1	-7
469.785	1	-6
470.126	1	3
470.467	1	-4
470.807	1	1
471.148	1	-5
471.489	1	-7
471.830	1	-8
472.171	1	5
472.511	1	4
472.852	1	7
473.193	1	6
473.534	1	5
473.875	1	9
474.215	1	-2
474.556	1	8
474.897	1	1
475.238	1	-1
475.578	1	1
475.919	1	1
476.260	1	8
476.601	1	5
476.942	1	0
477.282	1	10
477.623	1	15
477.964	1	0
478.305	1	-4
478.645	1	7
478.986	1	-6
479.327	1	-10
479.667	1	-2
480.008	1	0
480.349	1	-2
480.690	1	1
481.030	1	-2
481.371	1	-6
481.712	1	2
482.053	1	-1
482.393	1	-6
482.734	1	1
483.075	1	-8
483.415	1	4
483.756	1	8
484.097	1	-14
484.437	1	-8
484.778	1	-14
485.119	1	1
485.459	1	-3
485.800	1	-5
486.141	1	0
486.481	1	0
486.822	1	3
487.163	1	14
487.503	1	-7
487.844	1	12
488.185	1	-1
488.525	1	5
488.866	1	5
489.207	1	-1
489.547	1	3
489.888	1	-3
490.228	1	-6
490.569	1	-4
490.910	1	3
491.250	1	1
491.591	1	3
491.932	1	4
492.272	1	2
492.613	1	6
492.953	1	-1
493.294	1	-5
493.635	1	-6
493.975	1	2
494.316	1	-5
494.656	1	-4
494.997	1	-1
495.337	1	9
495.678	1	-7
496.019	1	-7
496.359	1	6
496.700	1	11
497.040	1	-1
497.381	1	12
497.721	1	1
498.062	1	1
498.403	1	3
498.743	1	-2
499.084	1	1
499.424	1	1
499.765	1	-10
500.105	1	-4
500.446	1	2
500.786	1	4
501.127	1	3
501.467	1	-7
501.808	1	4
502.148	1	2
502.489	1	-6
502.829	1	-3
503.170	1	11
503.510	1	3
503.851	1	7
504.191	1	5
504.532	1	-14
504.872	1	0
505.213	1	0
505.553	1	5
505.894	1	13
506.234	1	-8
506.575	1	4
506.915	1	-5
507.256	1	2
507.596	1	-5
507.936	1	-1
508.277	1	-9
508.617	1	9
508.958	1	-13
509.298	1	-2
509.639	1	10
509.979	1	12
510.319	1	-3
510.660	1	-5
511.000	1	2
511.341	1	9
511.681	1	3
512.022	1	8
512.362	1	-5
512.702	1	-8
513.043	1	-3
513.383	1	-2
513.724	1	-10
514.064	1	10
514.404	1	1
514.745	1	0
515.085	1	2
515.425	1	-4
515.766	1	-1
516.106	1	9
516.447	1	0
516.787	1	2
517.127	1	-2
517.468	1	3
517.808	1	12
518.148	1	-2
518.489	1	8
518.829	1	5
519.169	1	-4
519.510	1	2
519.850	1	-7
520.190	1	3
520.531	1	0
520.871	1	2
521.211	1	-4
521.552	1	-5
521.892	1	0
522.232	1	-11
522.573	1	7
522.913	1	8
523.253	1	13
523.593	1	0
523.934	1	8
524.274	1	6
524.614	1	1
524.955	1	-1
525.295	1	0
525.635	1	8
525.975	1	-1
526.316	1	8
526.656	1	5
526.996	1	7
527.337	1	-6
527.677	1	-4
528.017	1	8
528.357	1	-10
528.698	1	-17
529.038	1	2
529.378	1	-3
529.718	1	6
530.058	1	8
530.399	1	5
530.739	1	6
531.079	1	12
531.419	1	4
531.760	1	10
532.100	1	-1
532.440	1	9
532.780	1	-3
533.120	1	-3
533.461	1	-2
533.801	1	-1
534.141	1	-9
534.481	1	13
534.821	1	-4
535.162	1	3
535.502	1	1
535.842	1	-5
536.182	1	3
536.522	1	4
536.862	1	4
537.203	1	5
537.543	1	4
537.883	1	0
538.223	1	1
538.563	1	-4
538.903	1	3
539.243	1	-13
539.584	1	-6
539.924	1	3
540.264	1	3
540.604	1	5
540.944	1	-7
541.284	1	2
541.624	1	-18
541.964	1	7
542.305	1	-1
542.645	1	-1
542.985	1	5
543.325	1	1
543.665	1	8
544.005	1	2
544.345	1	2
544.685	1	2
545.025	1	-4
545.365	1	6
545.705	1	7
546.045	1	2
546.386	1	-1
546.726	1	2
547.066	1	12
547.406	1	0
547.746	1	-2
548.086	1	4
548.426	1	10
548.766	1	-7
549.106	1	6
549.446	1	-1
549.786	1	-3
550.126	1	5
550.466	1	2
550.806	1	0
551.146	1	8
551.486	1	2
551.826	1	1
552.166	1	5
552.506	1	5
552.846	1	3
553.186	1	6
553.526	1	-2
553.866	1	-2
554.206	1	5
554.546	1	-4
554.886	1	5
555.226	1	-4
555.566	1	-3
555.906	1	-6
556.246	1	8
556.586	1	-6
556.926	1	5
557.266	1	7
557.606	1	7
557.946	1	3
558.286	1	3
558.626	1	6
558.966	1	8
559.306	1	10
559.646	1	-4
559.986	1	-1
560.325	1	-1
560.665	1	1
561.005	1	6
561.345	1	-4
561.685	1	-8
562.025	1	-11
562.365	1	-2
562.705	1	7
563.045	1	-7
563.385	1	2
563.725	1	0
564.064	1	-5
564.404	1	6
564.744	1	2
565.084	1	-1
565.424	1	3
565.764	1	8
566.104	1	3
566.444	1	8
566.783	1	3
567.123	1	-6
567.463	1	-2
567.803	1	2
568.143	1	3
568.483	1	4
568.823	1	-5
569.162	1	7
569.502	1	3
569.842	1	-8
570.182	1	-1
570.522	1	0
570.862	1	0
571.201	1	1
571.541	1	-7
571.881	1	-2
572.221	1	2
572.561	1	4
572.900	1	0
573.240	1	-2
573.580	1	1
573.920	1	15
574.260	1	6
574.599	1	-2
574.939	1	-8
575.279	1	-10
575.619	1	8
575.959	1	-10
576.298	1	-2
576.638	1	17
576.978	1	4
577.318	1	-2
577.657	1	-2
577.997	1	-13
578.337	1	0
578.677	1	-2
579.016	1	11
579.356	1	-6
579.696	1	-6
580.036	1	0
580.375	1	2
580.715	1	0
581.055	1	14
581.394	1	-3
581.734	1	3
582.074	1	5
582.414	1	-13
582.753	1	6
583.093	1	1
583.433	1	11
583.772	1	-3
584.112	1	5
584.452	1	-7
584.791	1	1
585.131	1	5
585.471	1	15
585.811	1	-13
586.150	1	-1
586.490	1	0
586.830	1	-10
587.169	1	13
587.509	1	-4
587.849	1	-3
588.188	1	-4
588.528	1	-7
588.867	1	-3
589.207	1	-11
589.547	1	3
589.886	1	-3
590.226	1	0
590.566	1	-2
590.905	1	8
591.245	1	0
591.585	1	1
591.924	1	-3
592.264	1	-10
592.603	1	4
592.943	1	1
593.283	1	5
593.622	1	-12
593.962	1	-2
594.301	1	7
594.641	1	1
594.981	1	11
595.320	1	0
595.660	1	-1
595.999	1	1
596.339	1	4
596.678	1	-10
597.018	1	-7
597.358	1	-1
597.697	1	-2
598.037	1	-3
598.376	1	-2
598.716	1	3
599.055	1	-1
599.395	1	3
599.734	1	10
600.074	1	-3
600.413	1	-3
600.753	1	4
601.092	1	-3
601.432	1	1
601.771	1	4
602.111	1	-1
602.451	1	12
602.790	1	11
603.130	1	1
603.469	1	-5
603.809	1	-7
604.148	1	4
604.487	1	-1
604.827	1	-8
605.166	1	6
605.506	1	-4
605.845	1	6
606.185	1	7
606.524	1	3
606.864	1	-3
607.203	1	0
607.543	1	8
607.882	1	2
608.222	1	-5
608.561	1	2
608.901	1	5
609.240	1	-2
609.579	1	9
609.919	1	2
610.258	1	10
610.598	1	9
610.937	1	-1
611.277	1	-3
611.616	1	2
611.955	1	6
612.295	1	-3
612.634	1	-2
612.974	1	7
613.313	1	-8
613.652	1	10
613.992	1	-9
614.331	1	-5
614.671	1	8
615.010	1	1
615.349	1	8
615.689	1	3
616.028	1	1
616.368	1	4
616.707	1	3
617.046	1	-1
617.386	1	-2
617.725	1	10
618.064	1	-19
618.404	1	0
618.743	1	-2
619.082	1	3
619.422	1	-4
619.761	1	2
620.100	1	2
620.440	1	10
620.779	1	6
621.118	1	-11
621.458	1	-5
621.797	1	4
622.136	1	3
622.476	1	-3
622.815	1	-1
623.154	1	-1
623.494	1	-5
623.833	1	5
624.172	1	-8
624.511	1	6
624.851	1	0
625.190	1	3
625.529	1	3
625.869	1	10
626.208	1	1
626.547	1	-11
626.886	1	-3
627.226	1	2
627.565	1	4
627.904	1	5
628.243	1	-8
628.583	1	-3
628.922	1	-10
629.261	1	1
629.600	1	-1
629.940	1	-14
630.279	1	-5
630.618	1	-2
630.957	1	1
631.297	1	2
631.636	1	3
631.975	1	-4
632.314	1	-2
632.653	1	2
632.993	1	-4
633.332	1	5
633.671	1	1
634.010	1	-2
634.349	1	-7
634.689	1	-3
635.028	1	-3
635.367	1	6
635.706	1	-2
636.045	1	6
636.384	1	0
636.724	1	4
637.063	1	6
637.402	1	7
637.741	1	-1
638.080	1	8
638.419	1	-7
638.759	1	3
639.098	1	-4
639.437	1	-6
639.776	1	7
640.115	1	8
640.454	1	-1
640.793	1	1
641.132	1	5
641.472	1	-9
641.811	1	10
642.150	1	-2
642.489	1	0
642.828	1	-3
643.167	1	-2
643.506	1	5
643.845	1	1
644.184	1	3
644.524	1	2
644.863	1	-8
645.202	1	8
645.541	1	0
645.880	1	-1
646.219	1	-3
646.558	1	2
646.897	1	9
647.236	1	1
647.575	1	-2
647.914	1	2
648.253	1	4
648.592	1	-5
648.931	1	12
649.270	1	-2
649.610	1	12
649.949	1	-6
650.288	1	3
650.627	1	-12
650.966	1	7
651.305	1	-13
651.644	1	-2
651.983	1	-1
652.322	1	-2
652.661	1	1
653.000	1	-10
653.339	1	-4
653.678	1	3
654.017	1	4
654.356	1	1
654.695	1	4
655.034	1	1
655.373	1	8
655.712	1	-3
656.051	1	0
656.390	1	0
656.729	1	-2
657.068	1	-3
657.406	1	5
657.745	1	8
658.084	1	-8
658.423	1	-1
658.762	1	1
659.101	1	-1
659.440	1	-4
659.779	1	-9
660.118	1	11
660.457	1	-3
660.796	1	4
661.135	1	-9
661.474	1	0
661.813	1	1
662.152	1	0
662.491	1	-7
662.829	1	5
663.168	1	9
663.507	1	3
663.846	1	6
664.185	1	3
664.524	1	10
664.863	1	-2
665.202	1	-2
665.541	1	-2
665.879	1	8
666.218	1	4
666.557	1	-3
666.896	1	1
667.235	1	-1
667.574	1	-11
667.913	1	-7
668.251	1	-3
668.590	1	0
668.929	1	2
669.268	1	-4
669.607	1	4
669.946	1	1
670.285	1	9
670.623	1	3
670.962	1	2
671.301	1	4
671.640	1	2
671.979	1	0
672.317	1	6
672.656	1	5
672.995	1	-10
673.334	1	-7
673.673	1	2
674.011	1	11
674.350	1	6
674.689	1	-3
675.028	1	3
675.367	1	-17
675.705	1	11
676.044	1	12
676.383	1	0
676.722	1	13
677.060	1	-7
677.399	1	-7
677.738	1	2
678.077	1	14
678.416	1	2
678.754	1	-1
679.093	1	-6
679.432	1	-5
679.771	1	7
680.109	1	-6
680.448	1	4
680.787	1	-5
681.125	1	-2
681.464	1	1
681.803	1	2
682.142	1	-2
682.480	1	3
682.819	1	3
683.158	1	-6
683.496	1	2
683.835	1	-5
684.174	1	-9
684.512	1	-4
684.851	1	-8
685.190	1	2
685.529	1	11
685.867	1	8
686.206	1	6
686.545	1	5
686.883	1	3
687.222	1	-1
687.561	1	2
687.899	1	-13
688.238	1	-3
688.577	1	8
688.746	1	-5