File: Data/GaN_170K_550ms/GaN_sample D_spot 18_UVVIS_170 K_200um_550 ms 2x2mm1_46.txt
340.368	1	-3
340.710	1	-9
341.052	1	10
341.394	1	8
341.737	1	-8
342.079	1	1
342.421	1	3
342.763	1	3
343.105	1	8
343.447	1	-4
343.789	1	5
344.131	1	2
344.473	1	2
344.815	1	9
345.157	1	4
345.499	1	-3
345.841	1	2
346.183	1	12
346.526	1	-3
346.868	1	1
347.210	1	0
347.552	1	4
347.894	1	3
348.236	1	5
348.578	1	-1
348.920	1	-1
349.262	1	4
349.604	1	3
349.946	1	0
350.288	1	-5
350.630	1	6
350.972	1	-6
351.314	1	4
351.656	1	1
351.998	1	6
352.340	1	6
352.682	1	-1
353.024	1	-1
353.366	1	3
353.708	1	5
354.050	1	-2
354.392	1	6
354.734	1	10
355.076	1	-4
355.418	1	-7
355.760	1	3
356.102	1	4
356.444	1	3
356.785	1	-3
357.127	1	1
357.469	1	-1
357.811	1	2
358.153	1	3
358.495	1	-2
358.837	1	1
359.179	1	-12
359.521	1	10
359.863	1	6
360.205	1	15
360.547	1	6
360.889	1	9
361.231	1	-1
361.572	1	16
361.914	1	3
362.256	1	0
362.598	1	3
362.940	1	3
363.282	1	13
363.624	1	6
363.966	1	7
364.308	1	0
364.649	1	-3
364.991	1	7
365.333	1	-1
365.675	1	5
366.017	1	-4
366.359	1	-4
366.701	1	1
367.042	1	-4
367.384	1	7
367.726	1	9
368.068	1	5
368.410	1	10
368.752	1	13
369.093	1	-4
369.435	1	-2
369.777	1	2
370.119	1	-1
370.461	1	11
370.803	1	0
371.144	1	-4
371.486	1	-6
371.828	1	-3
372.170	1	0
372.512	1	-7
372.853	1	12
373.195	1	2
373.537	1	14
373.879	1	6
374.220	1	11
374.562	1	-4
374.904	1	6
375.246	1	0
375.588	1	-3
375.929	1	4
376.271	1	0
376.613	1	-3
376.955	1	6
377.296	1	-4
377.638	1	3
377.980	1	-11
378.321	1	2
378.663	1	6
379.005	1	-3
379.347	1	-3
379.688	1	1
380.030	1	3
380.372	1	4
380.714	1	12
381.055	1	-1
381.397	1	7
381.739	1	-2
382.080	1	-2
382.422	1	5
382.764	1	-9
383.105	1	7
383.447	1	8
383.789	1	11
384.130	1	-2
384.472	1	-8
384.814	1	11
385.156	1	4
385.497	1	9
385.839	1	6
386.180	1	7
386.522	1	1
386.864	1	6
387.205	1	-2
387.547	1	11
387.889	1	13
388.230	1	3
388.572	1	7
388.914	1	-8
389.255	1	13
389.597	1	-5
389.939	1	-8
390.280	1	-4
390.622	1	-3
390.963	1	-3
391.305	1	3
391.647	1	-8
391.988	1	5
392.330	1	3
392.671	1	-7
393.013	1	2
393.355	1	12
393.696	1	15
394.038	1	-4
394.379	1	-2
394.721	1	-6
395.062	1	9
395.404	1	12
395.746	1	16
396.087	1	3
396.429	1	7
396.770	1	6
397.112	1	0
397.453	1	8
397.795	1	-6
398.136	1	4
398.478	1	-5
398.819	1	-6
399.161	1	-8
399.503	1	-3
399.844	1	-9
400.186	1	-6
400.527	1	12
400.869	1	-2
401.210	1	5
401.552	1	-2
401.893	1	7
402.235	1	8
402.576	1	0
402.918	1	5
403.259	1	3
403.601	1	9
403.942	1	7
404.284	1	-8
404.625	1	6
404.967	1	9
405.308	1	1
405.649	1	4
405.991	1	3
406.332	1	-2
406.674	1	9
407.015	1	4
407.357	1	-7
407.698	1	-7
408.040	1	-1
408.381	1	5
408.722	1	-6
409.064	1	5
409.405	1	-1
409.747	1	0
410.088	1	8
410.430	1	-3
410.771	1	8
411.112	1	2
411.454	1	12
411.795	1	7
412.137	1	-6
412.478	1	1
412.819	1	-7
413.161	1	2
413.502	1	1
413.844	1	-1
414.185	1	6
414.526	1	0
414.868	1	-2
415.209	1	-8
415.550	1	0
415.892	1	7
416.233	1	1
416.575	1	5
416.916	1	-10
417.257	1	0
417.599	1	1
417.940	1	0
418.281	1	-12
418.623	1	-1
418.964	1	-2
419.305	1	3
419.647	1	5
419.988	1	8
420.329	1	9
420.671	1	2
421.012	1	8
421.353	1	-1
421.695	1	-4
422.036	1	5
422.377	1	6
422.718	1	11
423.060	1	-3
423.401	1	1
423.742	1	-1
424.084	1	20
424.425	1	-9
424.766	1	-4
425.107	1	-4
425.449	1	5
425.790	1	7
426.131	1	11
426.472	1	3
426.814	1	-6
427.155	1	13
427.496	1	-8
427.837	1	2
428.179	1	5
428.520	1	-5
428.861	1	5
429.202	1	-3
429.544	1	-8
429.885	1	-5
430.226	1	1
430.567	1	-2
430.909	1	-6
431.250	1	10
431.591	1	-2
431.932	1	-1
432.273	1	-1
432.615	1	3
432.956	1	0
433.297	1	5
433.638	1	14
433.979	1	8
434.320	1	8
434.662	1	-12
435.003	1	4
435.344	1	-1
435.685	1	1
436.026	1	-1
436.368	1	6
436.709	1	3
437.050	1	1
437.391	1	-9
437.732	1	5
438.073	1	-5
438.414	1	-8
438.756	1	2
439.097	1	-1
439.438	1	8
439.779	1	7
440.120	1	0
440.461	1	9
440.802	1	9
441.143	1	0
441.485	1	-8
441.826	1	3
442.167	1	-1
442.508	1	-2
442.849	1	-19
443.190	1	-3
443.531	1	6
443.872	1	-2
444.213	1	6
444.554	1	3
444.895	1	-20
445.237	1	-6
445.578	1	6
445.919	1	2
446.260	1	7
446.601	1	-1
446.942	1	6
447.283	1	10
447.624	1	-5
447.965	1	2
448.306	1	-3
448.647	1	0
448.988	1	16
449.329	1	2
449.670	1	-9
450.011	1	11
450.352	1	-4
450.693	1	2
451.034	1	-5
451.375	1	4
451.716	1	3
452.057	1	2
452.398	1	2
452.739	1	-2
453.080	1	3
453.421	1	2
453.762	1	6
454.103	1	-11
454.444	1	-5
454.785	1	-3
455.126	1	6
455.467	1	-11
455.808	1	9
456.149	1	3
456.490	1	0
456.831	1	-7
457.172	1	-2
457.513	1	9
457.854	1	19
458.195	1	-11
458.536	1	-1
458.877	1	5
459.218	1	6
459.559	1	6
459.899	1	-1
460.240	1	4
460.581	1	4
460.922	1	-2
461.263	1	-5
461.604	1	9
461.945	1	-3
462.286	1	-4
462.627	1	4
462.968	1	6
463.309	1	4
463.649	1	4
463.990	1	-3
464.331	1	12
464.672	1	4
465.013	1	16
465.354	1	-5
465.695	1	8
466.036	1	-6
466.376	1	3
466.717	1	-1
467.058	1	6
467.399	1	8
467.740	1	-8
468.081	1	-4
468.422	1	5
468.762	1	12
469.103	1	11
469.444	1	3
469.785	1	3
470.126	1	11
470.467	1	4
470.807	1	5
471.148	1	0
471.489	1	1
471.830	1	3
472.171	1	-2
472.511	1	0
472.852	1	5
473.193	1	7
473.534	1	-1
473.875	1	-3
474.215	1	6
474.556	1	1
474.897	1	-1
475.238	1	-2
475.578	1	-2
475.919	1	24
476.260	1	9
476.601	1	3
476.942	1	7
477.282	1	6
477.623	1	15
477.964	1	5
478.305	1	4
478.645	1	10
478.986	1	-5
479.327	1	-6
479.667	1	3
480.008	1	-2
480.349	1	7
480.690	1	2
481.030	1	-1
481.371	1	4
481.712	1	6
482.053	1	-4
482.393	1	-4
482.734	1	7
483.075	1	2
483.415	1	4
483.756	1	8
484.097	1	-14
484.437	1	-1
484.778	1	-15
485.119	1	-1
485.459	1	0
485.800	1	2
486.141	1	6
486.481	1	-2
486.822	1	6
487.163	1	4
487.503	1	-14
487.844	1	1
488.185	1	2
488.525	1	5
488.866	1	16
489.207	1	7
489.547	1	-3
489.888	1	7
490.228	1	-3
490.569	1	1
490.910	1	3
491.250	1	0
491.591	1	7
491.932	1	5
492.272	1	12
492.613	1	5
492.953	1	5
493.294	1	-2
493.635	1	-4
493.975	1	3
494.316	1	-5
494.656	1	5
494.997	1	13
495.337	1	9
495.678	1	-3
496.019	1	-12
496.359	1	5
496.700	1	2
497.040	1	3
497.381	1	2
497.721	1	-5
498.062	1	-3
498.403	1	7
498.743	1	-5
499.084	1	0
499.424	1	11
499.765	1	-11
500.105	1	-6
500.446	1	-2
500.786	1	-2
501.127	1	2
501.467	1	-3
501.808	1	3
502.148	1	9
502.489	1	1
502.829	1	1
503.170	1	7
503.510	1	5
503.851	1	5
504.191	1	1
504.532	1	-17
504.872	1	6
505.213	1	2
505.553	1	0
505.894	1	8
506.234	1	-1
506.575	1	9
506.915	1	3
507.256	1	-10
507.596	1	9
507.936	1	11
508.277	1	-8
508.617	1	7
508.958	1	-1
509.298	1	-5
509.639	1	13
509.979	1	5
510.319	1	-5
510.660	1	-7
511.000	1	7
511.341	1	8
511.681	1	-4
512.022	1	3
512.362	1	1
512.702	1	-4
513.043	1	0
513.383	1	5
513.724	1	-5
514.064	1	3
514.404	1	0
514.745	1	-10
515.085	1	10
515.425	1	8
515.766	1	3
516.106	1	11
516.447	1	4
516.787	1	5
517.127	1	5
517.468	1	10
517.808	1	2
518.148	1	-3
518.489	1	5
518.829	1	-1
519.169	1	-2
519.510	1	3
519.850	1	-2
520.190	1	6
520.531	1	5
520.871	1	-7
521.211	1	0
521.552	1	10
521.892	1	1
522.232	1	-4
522.573	1	-6
522.913	1	7
523.253	1	11
523.593	1	1
523.934	1	7
524.274	1	-7
524.614	1	4
524.955	1	9
525.295	1	2
525.635	1	-2
525.975	1	0
526.316	1	6
526.656	1	10
526.996	1	7
527.337	1	-4
527.677	1	-4
528.017	1	7
528.357	1	-1
528.698	1	-13
529.038	1	-5
529.378	1	-2
529.718	1	11
530.058	1	1
530.399	1	4
530.739	1	8
531.079	1	7
531.419	1	7
531.760	1	-2
532.100	1	1
532.440	1	11
532.780	1	-10
533.120	1	9
533.461	1	2
533.801	1	2
534.141	1	4
534.481	1	2
534.821	1	12
535.162	1	9
535.502	1	-3
535.842	1	5
536.182	1	4
536.522	1	15
536.862	1	10
537.203	1	3
537.543	1	-4
537.883	1	4
538.223	1	3
538.563	1	6
538.903	1	-1
539.243	1	3
539.584	1	3
539.924	1	-11
540.264	1	11
540.604	1	-3
540.944	1	-4
541.284	1	6
541.624	1	-3
541.964	1	11
542.305	1	4
542.645	1	2
542.985	1	7
543.325	1	8
543.665	1	3
544.005	1	7
544.345	1	5
544.685	1	2
545.025	1	-4
545.365	1	3
545.705	1	8
546.045	1	0
546.386	1	0
546.726	1	6
547.066	1	9
547.406	1	2
547.746	1	-8
548.086	1	-5
548.426	1	6
548.766	1	6
549.106	1	10
549.446	1	3
549.786	1	-5
550.126	1	-1
550.466	1	-2
550.806	1	1
551.146	1	7
551.486	1	-5
551.826	1	0
552.166	1	1
552.506	1	2
552.846	1	3
553.186	1	10
553.526	1	-10
553.866	1	-9
554.206	1	0
554.546	1	-10
554.886	1	1
555.226	1	-6
555.566	1	1
555.906	1	3
556.246	1	-2
556.586	1	0
556.926	1	10
557.266	1	10
557.606	1	5
557.946	1	1
558.286	1	10
558.626	1	5
558.966	1	2
559.306	1	7
559.646	1	-1
559.986	1	10
560.325	1	-4
560.665	1	9
561.005	1	2
561.345	1	1
561.685	1	1
562.025	1	-3
562.365	1	6
562.705	1	3
563.045	1	4
563.385	1	4
563.725	1	-13
564.064	1	3
564.404	1	-4
564.744	1	9
565.084	1	8
565.424	1	8
565.764	1	-2
566.104	1	4
566.444	1	3
566.783	1	2
567.123	1	3
567.463	1	1
567.803	1	4
568.143	1	-5
568.483	1	2
568.823	1	0
569.162	1	9
569.502	1	7
569.842	1	-7
570.182	1	4
570.522	1	2
570.862	1	4
571.201	1	5
571.541	1	-4
571.881	1	1
572.221	1	7
572.561	1	-4
572.900	1	4
573.240	1	6
573.580	1	-5
573.920	1	2
574.260	1	13
574.599	1	4
574.939	1	-9
575.279	1	-2
575.619	1	8
575.959	1	-3
576.298	1	6
576.638	1	5
576.978	1	1
577.318	1	1
577.657	1	1
577.997	1	-5
578.337	1	2
578.677	1	9
579.016	1	1
579.356	1	4
579.696	1	-8
580.036	1	2
580.375	1	-8
580.715	1	1
581.055	1	9
581.394	1	-3
581.734	1	17
582.074	1	4
582.414	1	-7
582.753	1	1
583.093	1	5
583.433	1	2
583.772	1	-3
584.112	1	-3
584.452	1	-8
584.791	1	-4
585.131	1	13
585.471	1	9
585.811	1	-8
586.150	1	-1
586.490	1	10
586.830	1	-4
587.169	1	7
587.509	1	9
587.849	1	-3
588.188	1	-2
588.528	1	-3
588.867	1	0
589.207	1	-3
589.547	1	2
589.886	1	-8
590.226	1	6
590.566	1	7
590.905	1	10
591.245	1	-3
591.585	1	0
591.924	1	-1
592.264	1	-7
592.603	1	2
592.943	1	4
593.283	1	6
593.622	1	-7
593.962	1	1
594.301	1	3
594.641	1	2
594.981	1	9
595.320	1	0
595.660	1	10
595.999	1	3
596.339	1	11
596.678	1	-7
597.018	1	8
597.358	1	-12
597.697	1	-1
598.037	1	2
598.376	1	-4
598.716	1	3
599.055	1	0
599.395	1	-4
599.734	1	15
600.074	1	0
600.413	1	-1
600.753	1	5
601.092	1	6
601.432	1	2
601.771	1	9
602.111	1	0
602.451	1	8
602.790	1	5
603.130	1	-7
603.469	1	1
603.809	1	-2
604.148	1	4
604.487	1	3
604.827	1	-7
605.166	1	2
605.506	1	-2
605.845	1	2
606.185	1	5
606.524	1	-1
606.864	1	-4
607.203	1	4
607.543	1	3
607.882	1	-1
608.222	1	-3
608.561	1	12
608.901	1	5
609.240	1	-3
609.579	1	0
609.919	1	-12
610.258	1	8
610.598	1	2
610.937	1	0
611.277	1	8
611.616	1	-5
611.955	1	3
612.295	1	-4
612.634	1	3
612.974	1	-6
613.313	1	-6
613.652	1	12
613.992	1	2
614.331	1	0
614.671	1	7
615.010	1	7
615.349	1	-2
615.689	1	6
616.028	1	-9
616.368	1	0
616.707	1	6
617.046	1	-1
617.386	1	8
617.725	1	-3
618.064	1	2
618.404	1	6
618.743	1	9
619.082	1	14
619.422	1	-7
619.761	1	-11
620.100	1	2
620.440	1	6
620.779	1	-4
621.118	1	-4
621.458	1	3
621.797	1	4
622.136	1	1
622.476	1	-9
622.815	1	9
623.154	1	10
623.494	1	-2
623.833	1	8
624.172	1	5
624.511	1	2
624.851	1	5
625.190	1	0
625.529	1	0
625.869	1	13
626.208	1	0
626.547	1	6
626.886	1	8
627.226	1	0
627.565	1	5
627.904	1	2
628.243	1	0
628.583	1	-4
628.922	1	-3
629.261	1	8
629.600	1	-2
629.940	1	7
630.279	1	9
630.618	1	-5
630.957	1	6
631.297	1	-3
631.636	1	5
631.975	1	-4
632.314	1	6
632.653	1	5
632.993	1	2
633.332	1	-2
633.671	1	7
634.010	1	10
634.349	1	-1
634.689	1	9
635.028	1	6
635.367	1	6
635.706	1	5
636.045	1	5
636.384	1	-6
636.724	1	9
637.063	1	-1
637.402	1	9
637.741	1	-1
638.080	1	13
638.419	1	-4
638.759	1	0
639.098	1	-5
639.437	1	-10
639.776	1	2
640.115	1	9
640.454	1	-5
640.793	1	4
641.132	1	-3
641.472	1	-6
641.811	1	7
642.150	1	-2
642.489	1	3
642.828	1	-3
643.167	1	-3
643.506	1	3
643.845	1	8
644.184	1	2
644.524	1	3
644.863	1	-7
645.202	1	5
645.541	1	0
645.880	1	4
646.219	1	-4
646.558	1	7
646.897	1	5
647.236	1	-10
647.575	1	-8
647.914	1	-1
648.253	1	0
648.592	1	3
648.931	1	-5
649.270	1	-1
649.610	1	2
649.949	1	-5
650.288	1	1
650.627	1	-4
650.966	1	-2
651.305	1	-7
651.644	1	9
651.983	1	7
652.322	1	0
652.661	1	0
653.000	1	-13
653.339	1	-7
653.678	1	4
654.017	1	8
654.356	1	1
654.695	1	10
655.034	1	2
655.373	1	11
655.712	1	-13
656.051	1	-8
656.390	1	-1
656.729	1	5
657.068	1	8
657.406	1	2
657.745	1	10
658.084	1	-6
658.423	1	-5
658.762	1	4
659.101	1	-3
659.440	1	-3
659.779	1	5
660.118	1	-1
660.457	1	10
660.796	1	0
661.135	1	-14
661.474	1	0
661.813	1	-1
662.152	1	1
662.491	1	-11
662.829	1	2
663.168	1	6
663.507	1	8
663.846	1	-1
664.185	1	6
664.524	1	4
664.863	1	9
665.202	1	13
665.541	1	8
665.879	1	2
666.218	1	16
666.557	1	1
666.896	1	7
667.235	1	-1
667.574	1	-9
667.913	1	4
668.251	1	6
668.590	1	0
668.929	1	1
669.268	1	-9
669.607	1	1
669.946	1	10
670.285	1	16
670.623	1	0
670.962	1	-2
671.301	1	2
671.640	1	10
671.979	1	2
672.317	1	-1
672.656	1	-9
672.995	1	-6
673.334	1	3
673.673	1	-6
674.011	1	4
674.350	1	7
674.689	1	1
675.028	1	0
675.367	1	-2
675.705	1	7
676.044	1	10
676.383	1	2
676.722	1	9
677.060	1	-9
677.399	1	5
677.738	1	-5
678.077	1	9
678.416	1	-3
678.754	1	-3
679.093	1	2
679.432	1	2
679.771	1	9
680.109	1	-7
680.448	1	5
680.787	1	-7
681.125	1	9
681.464	1	5
681.803	1	3
682.142	1	-2
682.480	1	-1
682.819	1	8
683.158	1	0
683.496	1	7
683.835	1	1
684.174	1	7
684.512	1	2
684.851	1	-4
685.190	1	-1
685.529	1	9
685.867	1	9
686.206	1	-5
686.545	1	7
686.883	1	0
687.222	1	-1
687.561	1	6
687.899	1	-15
688.238	1	-5
688.577	1	17
688.746	1	0