File: Data/GaN_170K_550ms/GaN_sample D_spot 18_UVVIS_170 K_200um_550 ms 2x2mm1_188.txt
340.368	1	-2
340.710	1	-12
341.052	1	5
341.394	1	3
341.737	1	-1
342.079	1	-4
342.421	1	6
342.763	1	-4
343.105	1	15
343.447	1	-11
343.789	1	1
344.131	1	-1
344.473	1	-3
344.815	1	16
345.157	1	-8
345.499	1	-8
345.841	1	6
346.183	1	4
346.526	1	16
346.868	1	2
347.210	1	-8
347.552	1	15
347.894	1	0
348.236	1	2
348.578	1	-1
348.920	1	-2
349.262	1	-1
349.604	1	9
349.946	1	12
350.288	1	-4
350.630	1	6
350.972	1	-1
351.314	1	7
351.656	1	0
351.998	1	3
352.340	1	6
352.682	1	1
353.024	1	6
353.366	1	11
353.708	1	6
354.050	1	-1
354.392	1	-1
354.734	1	7
355.076	1	10
355.418	1	-5
355.760	1	1
356.102	1	14
356.444	1	-7
356.785	1	9
357.127	1	7
357.469	1	1
357.811	1	-1
358.153	1	8
358.495	1	8
358.837	1	12
359.179	1	2
359.521	1	13
359.863	1	13
360.205	1	9
360.547	1	1
360.889	1	8
361.231	1	8
361.572	1	25
361.914	1	5
362.256	1	10
362.598	1	12
362.940	1	20
363.282	1	15
363.624	1	8
363.966	1	11
364.308	1	16
364.649	1	12
364.991	1	14
365.333	1	9
365.675	1	22
366.017	1	11
366.359	1	15
366.701	1	23
367.042	1	13
367.384	1	27
367.726	1	26
368.068	1	29
368.410	1	23
368.752	1	19
369.093	1	9
369.435	1	19
369.777	1	21
370.119	1	19
370.461	1	25
370.803	1	11
371.144	1	14
371.486	1	12
371.828	1	16
372.170	1	19
372.512	1	6
372.853	1	23
373.195	1	10
373.537	1	18
373.879	1	18
374.220	1	18
374.562	1	0
374.904	1	13
375.246	1	10
375.588	1	10
375.929	1	14
376.271	1	13
376.613	1	9
376.955	1	11
377.296	1	14
377.638	1	8
377.980	1	5
378.321	1	3
378.663	1	12
379.005	1	8
379.347	1	14
379.688	1	10
380.030	1	7
380.372	1	11
380.714	1	11
381.055	1	7
381.397	1	5
381.739	1	2
382.080	1	6
382.422	1	5
382.764	1	-4
383.105	1	8
383.447	1	15
383.789	1	9
384.130	1	-7
384.472	1	-8
384.814	1	13
385.156	1	1
385.497	1	9
385.839	1	-8
386.180	1	10
386.522	1	11
386.864	1	8
387.205	1	2
387.547	1	11
387.889	1	8
388.230	1	6
388.572	1	7
388.914	1	1
389.255	1	9
389.597	1	2
389.939	1	0
390.280	1	2
390.622	1	-1
390.963	1	5
391.305	1	5
391.647	1	-2
391.988	1	13
392.330	1	7
392.671	1	-5
393.013	1	3
393.355	1	7
393.696	1	6
394.038	1	-2
394.379	1	-7
394.721	1	-5
395.062	1	-4
395.404	1	7
395.746	1	12
396.087	1	2
396.429	1	7
396.770	1	10
397.112	1	-4
397.453	1	10
397.795	1	-3
398.136	1	-1
398.478	1	4
398.819	1	-5
399.161	1	0
399.503	1	8
399.844	1	-2
400.186	1	6
400.527	1	8
400.869	1	-1
401.210	1	7
401.552	1	2
401.893	1	15
402.235	1	-2
402.576	1	2
402.918	1	7
403.259	1	4
403.601	1	13
403.942	1	1
404.284	1	-9
404.625	1	4
404.967	1	7
405.308	1	9
405.649	1	4
405.991	1	3
406.332	1	-7
406.674	1	8
407.015	1	13
407.357	1	-7
407.698	1	-3
408.040	1	-2
408.381	1	-1
408.722	1	-3
409.064	1	-11
409.405	1	5
409.747	1	3
410.088	1	12
410.430	1	-1
410.771	1	5
411.112	1	-4
411.454	1	9
411.795	1	13
412.137	1	-8
412.478	1	-1
412.819	1	1
413.161	1	2
413.502	1	6
413.844	1	8
414.185	1	-1
414.526	1	9
414.868	1	1
415.209	1	-13
415.550	1	4
415.892	1	10
416.233	1	2
416.575	1	-2
416.916	1	-8
417.257	1	0
417.599	1	3
417.940	1	3
418.281	1	-2
418.623	1	12
418.964	1	-2
419.305	1	-1
419.647	1	3
419.988	1	11
420.329	1	1
420.671	1	1
421.012	1	5
421.353	1	-2
421.695	1	-10
422.036	1	3
422.377	1	8
422.718	1	7
423.060	1	-3
423.401	1	-4
423.742	1	-5
424.084	1	20
424.425	1	-10
424.766	1	-5
425.107	1	5
425.449	1	6
425.790	1	11
426.131	1	2
426.472	1	11
426.814	1	-5
427.155	1	3
427.496	1	7
427.837	1	1
428.179	1	5
428.520	1	-3
428.861	1	6
429.202	1	0
429.544	1	6
429.885	1	5
430.226	1	1
430.567	1	0
430.909	1	5
431.250	1	11
431.591	1	2
431.932	1	4
432.273	1	-9
432.615	1	-2
432.956	1	-3
433.297	1	3
433.638	1	1
433.979	1	1
434.320	1	5
434.662	1	-17
435.003	1	0
435.344	1	-1
435.685	1	-3
436.026	1	4
436.368	1	-1
436.709	1	-1
437.050	1	-12
437.391	1	2
437.732	1	-1
438.073	1	0
438.414	1	-5
438.756	1	-6
439.097	1	8
439.438	1	2
439.779	1	3
440.120	1	-5
440.461	1	16
440.802	1	11
441.143	1	0
441.485	1	0
441.826	1	0
442.167	1	7
442.508	1	1
442.849	1	-4
443.190	1	-1
443.531	1	5
443.872	1	-7
444.213	1	-2
444.554	1	-2
444.895	1	-8
445.237	1	-4
445.578	1	8
445.919	1	-4
446.260	1	6
446.601	1	-3
446.942	1	9
447.283	1	3
447.624	1	8
447.965	1	1
448.306	1	8
448.647	1	4
448.988	1	14
449.329	1	0
449.670	1	-10
450.011	1	16
450.352	1	-3
450.693	1	-6
451.034	1	-12
451.375	1	8
451.716	1	5
452.057	1	3
452.398	1	-1
452.739	1	5
453.080	1	-3
453.421	1	0
453.762	1	-7
454.103	1	1
454.444	1	-11
454.785	1	-3
455.126	1	4
455.467	1	-6
455.808	1	4
456.149	1	6
456.490	1	2
456.831	1	-2
457.172	1	-1
457.513	1	8
457.854	1	3
458.195	1	3
458.536	1	-6
458.877	1	1
459.218	1	-1
459.559	1	-3
459.899	1	5
460.240	1	-1
460.581	1	12
460.922	1	-5
461.263	1	4
461.604	1	8
461.945	1	5
462.286	1	-16
462.627	1	0
462.968	1	9
463.309	1	3
463.649	1	8
463.990	1	6
464.331	1	9
464.672	1	8
465.013	1	14
465.354	1	-8
465.695	1	0
466.036	1	-6
466.376	1	2
466.717	1	3
467.058	1	2
467.399	1	10
467.740	1	6
468.081	1	-3
468.422	1	2
468.762	1	10
469.103	1	6
469.444	1	2
469.785	1	7
470.126	1	0
470.467	1	12
470.807	1	10
471.148	1	-3
471.489	1	8
471.830	1	-2
472.171	1	12
472.511	1	1
472.852	1	8
473.193	1	2
473.534	1	4
473.875	1	1
474.215	1	10
474.556	1	14
474.897	1	-10
475.238	1	-3
475.578	1	3
475.919	1	6
476.260	1	13
476.601	1	8
476.942	1	1
477.282	1	10
477.623	1	10
477.964	1	5
478.305	1	0
478.645	1	-3
478.986	1	-4
479.327	1	-9
479.667	1	-1
480.008	1	7
480.349	1	8
480.690	1	0
481.030	1	7
481.371	1	0
481.712	1	-3
482.053	1	-5
482.393	1	-8
482.734	1	5
483.075	1	6
483.415	1	-1
483.756	1	4
484.097	1	-3
484.437	1	9
484.778	1	-8
485.119	1	7
485.459	1	0
485.800	1	-1
486.141	1	9
486.481	1	6
486.822	1	5
487.163	1	10
487.503	1	9
487.844	1	5
488.185	1	1
488.525	1	10
488.866	1	7
489.207	1	9
489.547	1	7
489.888	1	3
490.228	1	-3
490.569	1	3
490.910	1	-1
491.250	1	6
491.591	1	2
491.932	1	-3
492.272	1	11
492.613	1	10
492.953	1	10
493.294	1	3
493.635	1	-3
493.975	1	2
494.316	1	2
494.656	1	-1
494.997	1	5
495.337	1	9
495.678	1	7
496.019	1	-3
496.359	1	12
496.700	1	10
497.040	1	4
497.381	1	4
497.721	1	2
498.062	1	-1
498.403	1	7
498.743	1	1
499.084	1	5
499.424	1	7
499.765	1	-11
500.105	1	-7
500.446	1	-7
500.786	1	-8
501.127	1	-2
501.467	1	-4
501.808	1	-1
502.148	1	0
502.489	1	3
502.829	1	5
503.170	1	17
503.510	1	6
503.851	1	-2
504.191	1	-5
504.532	1	-11
504.872	1	-4
505.213	1	-3
505.553	1	3
505.894	1	10
506.234	1	-5
506.575	1	11
506.915	1	5
507.256	1	-2
507.596	1	2
507.936	1	11
508.277	1	-8
508.617	1	11
508.958	1	0
509.298	1	4
509.639	1	16
509.979	1	0
510.319	1	-1
510.660	1	6
511.000	1	6
511.341	1	10
511.681	1	-3
512.022	1	9
512.362	1	1
512.702	1	-16
513.043	1	-3
513.383	1	6
513.724	1	3
514.064	1	9
514.404	1	-3
514.745	1	0
515.085	1	1
515.425	1	5
515.766	1	0
516.106	1	3
516.447	1	-3
516.787	1	9
517.127	1	11
517.468	1	9
517.808	1	14
518.148	1	11
518.489	1	14
518.829	1	3
519.169	1	-1
519.510	1	5
519.850	1	-2
520.190	1	4
520.531	1	12
520.871	1	2
521.211	1	-1
521.552	1	9
521.892	1	12
522.232	1	-3
522.573	1	3
522.913	1	9
523.253	1	9
523.593	1	-10
523.934	1	4
524.274	1	1
524.614	1	9
524.955	1	6
525.295	1	6
525.635	1	7
525.975	1	-1
526.316	1	4
526.656	1	8
526.996	1	4
527.337	1	-6
527.677	1	1
528.017	1	0
528.357	1	0
528.698	1	-2
529.038	1	8
529.378	1	1
529.718	1	7
530.058	1	12
530.399	1	2
530.739	1	0
531.079	1	9
531.419	1	12
531.760	1	1
532.100	1	5
532.440	1	0
532.780	1	-1
533.120	1	14
533.461	1	-1
533.801	1	4
534.141	1	-5
534.481	1	3
534.821	1	8
535.162	1	3
535.502	1	2
535.842	1	8
536.182	1	-1
536.522	1	11
536.862	1	3
537.203	1	3
537.543	1	-2
537.883	1	5
538.223	1	7
538.563	1	4
538.903	1	2
539.243	1	-5
539.584	1	10
539.924	1	5
540.264	1	10
540.604	1	-4
540.944	1	-1
541.284	1	6
541.624	1	7
541.964	1	11
542.305	1	0
542.645	1	1
542.985	1	11
543.325	1	5
543.665	1	8
544.005	1	8
544.345	1	8
544.685	1	3
545.025	1	0
545.365	1	4
545.705	1	8
546.045	1	-1
546.386	1	7
546.726	1	5
547.066	1	12
547.406	1	-3
547.746	1	-1
548.086	1	4
548.426	1	4
548.766	1	2
549.106	1	16
549.446	1	3
549.786	1	4
550.126	1	10
550.466	1	1
550.806	1	-11
551.146	1	8
551.486	1	1
551.826	1	6
552.166	1	7
552.506	1	9
552.846	1	-1
553.186	1	4
553.526	1	-1
553.866	1	-2
554.206	1	-3
554.546	1	-7
554.886	1	-3
555.226	1	4
555.566	1	8
555.906	1	-7
556.246	1	1
556.586	1	-2
556.926	1	5
557.266	1	1
557.606	1	1
557.946	1	3
558.286	1	0
558.626	1	13
558.966	1	3
559.306	1	16
559.646	1	-2
559.986	1	10
560.325	1	1
560.665	1	0
561.005	1	4
561.345	1	1
561.685	1	2
562.025	1	-4
562.365	1	5
562.705	1	9
563.045	1	6
563.385	1	4
563.725	1	-8
564.064	1	4
564.404	1	5
564.744	1	0
565.084	1	0
565.424	1	-6
565.764	1	2
566.104	1	5
566.444	1	11
566.783	1	4
567.123	1	2
567.463	1	-6
567.803	1	2
568.143	1	5
568.483	1	-2
568.823	1	-7
569.162	1	10
569.502	1	2
569.842	1	-6
570.182	1	-3
570.522	1	-3
570.862	1	1
571.201	1	2
571.541	1	-7
571.881	1	3
572.221	1	5
572.561	1	5
572.900	1	0
573.240	1	9
573.580	1	-2
573.920	1	14
574.260	1	1
574.599	1	-6
574.939	1	-1
575.279	1	9
575.619	1	9
575.959	1	-3
576.298	1	5
576.638	1	4
576.978	1	0
577.318	1	10
577.657	1	11
577.997	1	-3
578.337	1	3
578.677	1	6
579.016	1	5
579.356	1	4
579.696	1	-4
580.036	1	-3
580.375	1	5
580.715	1	6
581.055	1	3
581.394	1	3
581.734	1	5
582.074	1	-7
582.414	1	-5
582.753	1	0
583.093	1	10
583.433	1	3
583.772	1	4
584.112	1	4
584.452	1	1
584.791	1	1
585.131	1	5
585.471	1	13
585.811	1	-6
586.150	1	-2
586.490	1	1
586.830	1	-2
587.169	1	1
587.509	1	8
587.849	1	-3
588.188	1	9
588.528	1	5
588.867	1	2
589.207	1	-3
589.547	1	12
589.886	1	3
590.226	1	2
590.566	1	3
590.905	1	14
591.245	1	6
591.585	1	6
591.924	1	-4
592.264	1	-4
592.603	1	-2
592.943	1	8
593.283	1	-1
593.622	1	1
593.962	1	3
594.301	1	9
594.641	1	2
594.981	1	3
595.320	1	-2
595.660	1	-3
595.999	1	1
596.339	1	2
596.678	1	-3
597.018	1	5
597.358	1	-11
597.697	1	-2
598.037	1	10
598.376	1	-4
598.716	1	4
599.055	1	0
599.395	1	-6
599.734	1	8
600.074	1	-3
600.413	1	1
600.753	1	14
601.092	1	3
601.432	1	-6
601.771	1	5
602.111	1	-3
602.451	1	7
602.790	1	4
603.130	1	-5
603.469	1	2
603.809	1	4
604.148	1	2
604.487	1	-2
604.827	1	-6
605.166	1	-4
605.506	1	1
605.845	1	4
606.185	1	9
606.524	1	1
606.864	1	6
607.203	1	5
607.543	1	16
607.882	1	-2
608.222	1	-1
608.561	1	12
608.901	1	10
609.240	1	7
609.579	1	-1
609.919	1	0
610.258	1	7
610.598	1	10
610.937	1	11
611.277	1	0
611.616	1	3
611.955	1	7
612.295	1	0
612.634	1	2
612.974	1	6
613.313	1	-2
613.652	1	11
613.992	1	1
614.331	1	-8
614.671	1	8
615.010	1	4
615.349	1	0
615.689	1	7
616.028	1	0
616.368	1	8
616.707	1	5
617.046	1	0
617.386	1	1
617.725	1	6
618.064	1	0
618.404	1	3
618.743	1	2
619.082	1	6
619.422	1	-7
619.761	1	-2
620.100	1	2
620.440	1	5
620.779	1	-2
621.118	1	2
621.458	1	6
621.797	1	0
622.136	1	7
622.476	1	3
622.815	1	6
623.154	1	1
623.494	1	-8
623.833	1	5
624.172	1	-1
624.511	1	4
624.851	1	1
625.190	1	-2
625.529	1	8
625.869	1	14
626.208	1	11
626.547	1	-10
626.886	1	1
627.226	1	3
627.565	1	3
627.904	1	3
628.243	1	-4
628.583	1	-7
628.922	1	-5
629.261	1	6
629.600	1	1
629.940	1	7
630.279	1	-8
630.618	1	-2
630.957	1	-3
631.297	1	-7
631.636	1	5
631.975	1	-10
632.314	1	5
632.653	1	5
632.993	1	5
633.332	1	0
633.671	1	16
634.010	1	-4
634.349	1	-9
634.689	1	22
635.028	1	7
635.367	1	-3
635.706	1	0
636.045	1	6
636.384	1	3
636.724	1	11
637.063	1	11
637.402	1	9
637.741	1	-8
638.080	1	3
638.419	1	-2
638.759	1	8
639.098	1	-12
639.437	1	-12
639.776	1	-3
640.115	1	0
640.454	1	1
640.793	1	0
641.132	1	6
641.472	1	-3
641.811	1	10
642.150	1	1
642.489	1	-6
642.828	1	1
643.167	1	-7
643.506	1	7
643.845	1	10
644.184	1	9
644.524	1	6
644.863	1	-17
645.202	1	6
645.541	1	10
645.880	1	7
646.219	1	2
646.558	1	1
646.897	1	8
647.236	1	-2
647.575	1	0
647.914	1	4
648.253	1	5
648.592	1	-4
648.931	1	4
649.270	1	-3
649.610	1	3
649.949	1	-4
650.288	1	4
650.627	1	-2
650.966	1	0
651.305	1	-8
651.644	1	3
651.983	1	2
652.322	1	0
652.661	1	-2
653.000	1	-9
653.339	1	2
653.678	1	-3
654.017	1	2
654.356	1	3
654.695	1	11
655.034	1	1
655.373	1	3
655.712	1	-5
656.051	1	2
656.390	1	3
656.729	1	4
657.068	1	3
657.406	1	0
657.745	1	6
658.084	1	-4
658.423	1	3
658.762	1	-10
659.101	1	7
659.440	1	0
659.779	1	1
660.118	1	5
660.457	1	4
660.796	1	0
661.135	1	-7
661.474	1	10
661.813	1	2
662.152	1	3
662.491	1	-8
662.829	1	-4
663.168	1	2
663.507	1	9
663.846	1	-6
664.185	1	6
664.524	1	7
664.863	1	-8
665.202	1	17
665.541	1	0
665.879	1	18
666.218	1	10
666.557	1	1
666.896	1	4
667.235	1	5
667.574	1	-10
667.913	1	-2
668.251	1	-2
668.590	1	-5
668.929	1	3
669.268	1	8
669.607	1	1
669.946	1	-1
670.285	1	13
670.623	1	-3
670.962	1	-6
671.301	1	-3
671.640	1	7
671.979	1	-8
672.317	1	5
672.656	1	3
672.995	1	-1
673.334	1	-3
673.673	1	2
674.011	1	7
674.350	1	7
674.689	1	2
675.028	1	-2
675.367	1	-2
675.705	1	10
676.044	1	17
676.383	1	5
676.722	1	13
677.060	1	-6
677.399	1	4
677.738	1	0
678.077	1	14
678.416	1	-3
678.754	1	0
679.093	1	-5
679.432	1	1
679.771	1	7
680.109	1	-1
680.448	1	11
680.787	1	-9
681.125	1	8
681.464	1	3
681.803	1	5
682.142	1	6
682.480	1	7
682.819	1	8
683.158	1	-8
683.496	1	6
683.835	1	2
684.174	1	9
684.512	1	-3
684.851	1	-4
685.190	1	0
685.529	1	11
685.867	1	6
686.206	1	-1
686.545	1	6
686.883	1	1
687.222	1	1
687.561	1	-2
687.899	1	-6
688.238	1	-2
688.577	1	4
688.746	1	-3