File: Data/GaN_170K_550ms/GaN_sample D_spot 18_UVVIS_170 K_200um_550 ms 2x2mm1_156.txt
340.368	1	7
340.710	1	-13
341.052	1	9
341.394	1	2
341.737	1	-4
342.079	1	-6
342.421	1	11
342.763	1	-1
343.105	1	13
343.447	1	-6
343.789	1	6
344.131	1	0
344.473	1	7
344.815	1	2
345.157	1	-1
345.499	1	-5
345.841	1	8
346.183	1	10
346.526	1	7
346.868	1	1
347.210	1	4
347.552	1	10
347.894	1	-5
348.236	1	-4
348.578	1	7
348.920	1	0
349.262	1	-1
349.604	1	9
349.946	1	1
350.288	1	8
350.630	1	9
350.972	1	-2
351.314	1	6
351.656	1	2
351.998	1	2
352.340	1	7
352.682	1	6
353.024	1	-4
353.366	1	6
353.708	1	11
354.050	1	0
354.392	1	1
354.734	1	4
355.076	1	2
355.418	1	-2
355.760	1	0
356.102	1	5
356.444	1	-5
356.785	1	4
357.127	1	9
357.469	1	10
357.811	1	4
358.153	1	-2
358.495	1	3
358.837	1	4
359.179	1	3
359.521	1	12
359.863	1	14
360.205	1	16
360.547	1	10
360.889	1	17
361.231	1	8
361.572	1	12
361.914	1	14
362.256	1	8
362.598	1	10
362.940	1	17
363.282	1	14
363.624	1	23
363.966	1	13
364.308	1	19
364.649	1	14
364.991	1	23
365.333	1	19
365.675	1	30
366.017	1	17
366.359	1	25
366.701	1	22
367.042	1	30
367.384	1	37
367.726	1	39
368.068	1	43
368.410	1	39
368.752	1	39
369.093	1	23
369.435	1	34
369.777	1	34
370.119	1	38
370.461	1	31
370.803	1	26
371.144	1	29
371.486	1	19
371.828	1	37
372.170	1	26
372.512	1	24
372.853	1	36
373.195	1	20
373.537	1	24
373.879	1	23
374.220	1	25
374.562	1	20
374.904	1	20
375.246	1	19
375.588	1	15
375.929	1	19
376.271	1	14
376.613	1	16
376.955	1	19
377.296	1	13
377.638	1	16
377.980	1	5
378.321	1	17
378.663	1	8
379.005	1	5
379.347	1	8
379.688	1	9
380.030	1	9
380.372	1	6
380.714	1	20
381.055	1	11
381.397	1	11
381.739	1	9
382.080	1	1
382.422	1	13
382.764	1	9
383.105	1	5
383.447	1	14
383.789	1	20
384.130	1	-7
384.472	1	0
384.814	1	12
385.156	1	3
385.497	1	14
385.839	1	4
386.180	1	10
386.522	1	15
386.864	1	12
387.205	1	3
387.547	1	7
387.889	1	10
388.230	1	5
388.572	1	4
388.914	1	-2
389.255	1	16
389.597	1	7
389.939	1	9
390.280	1	7
390.622	1	1
390.963	1	5
391.305	1	4
391.647	1	-6
391.988	1	12
392.330	1	11
392.671	1	-6
393.013	1	7
393.355	1	10
393.696	1	13
394.038	1	-4
394.379	1	7
394.721	1	7
395.062	1	1
395.404	1	9
395.746	1	12
396.087	1	8
396.429	1	-1
396.770	1	5
397.112	1	7
397.453	1	2
397.795	1	5
398.136	1	11
398.478	1	0
398.819	1	10
399.161	1	-1
399.503	1	7
399.844	1	0
400.186	1	-4
400.527	1	14
400.869	1	4
401.210	1	0
401.552	1	5
401.893	1	2
402.235	1	11
402.576	1	-3
402.918	1	4
403.259	1	-4
403.601	1	18
403.942	1	10
404.284	1	-1
404.625	1	4
404.967	1	6
405.308	1	8
405.649	1	3
405.991	1	14
406.332	1	-8
406.674	1	8
407.015	1	7
407.357	1	7
407.698	1	4
408.040	1	0
408.381	1	8
408.722	1	-2
409.064	1	-4
409.405	1	4
409.747	1	-7
410.088	1	10
410.430	1	-9
410.771	1	7
411.112	1	-1
411.454	1	3
411.795	1	8
412.137	1	-4
412.478	1	1
412.819	1	-7
413.161	1	3
413.502	1	7
413.844	1	6
414.185	1	0
414.526	1	4
414.868	1	-4
415.209	1	-14
415.550	1	4
415.892	1	-3
416.233	1	12
416.575	1	4
416.916	1	-3
417.257	1	3
417.599	1	8
417.940	1	-4
418.281	1	-5
418.623	1	4
418.964	1	-9
419.305	1	4
419.647	1	6
419.988	1	8
420.329	1	8
420.671	1	2
421.012	1	5
421.353	1	7
421.695	1	-10
422.036	1	7
422.377	1	7
422.718	1	8
423.060	1	-2
423.401	1	3
423.742	1	1
424.084	1	12
424.425	1	-7
424.766	1	2
425.107	1	2
425.449	1	4
425.790	1	4
426.131	1	7
426.472	1	-4
426.814	1	-5
427.155	1	12
427.496	1	-1
427.837	1	2
428.179	1	3
428.520	1	4
428.861	1	6
429.202	1	-2
429.544	1	0
429.885	1	-6
430.226	1	2
430.567	1	3
430.909	1	-7
431.250	1	20
431.591	1	6
431.932	1	-1
432.273	1	-2
432.615	1	-1
432.956	1	1
433.297	1	1
433.638	1	10
433.979	1	-3
434.320	1	12
434.662	1	-10
435.003	1	8
435.344	1	-3
435.685	1	1
436.026	1	9
436.368	1	10
436.709	1	0
437.050	1	-7
437.391	1	-16
437.732	1	6
438.073	1	-2
438.414	1	4
438.756	1	4
439.097	1	11
439.438	1	-1
439.779	1	3
440.120	1	0
440.461	1	5
440.802	1	7
441.143	1	4
441.485	1	-8
441.826	1	12
442.167	1	6
442.508	1	-2
442.849	1	-4
443.190	1	5
443.531	1	9
443.872	1	-3
444.213	1	7
444.554	1	4
444.895	1	-6
445.237	1	-6
445.578	1	13
445.919	1	11
446.260	1	6
446.601	1	7
446.942	1	1
447.283	1	3
447.624	1	4
447.965	1	7
448.306	1	8
448.647	1	3
448.988	1	13
449.329	1	1
449.670	1	-10
450.011	1	4
450.352	1	-6
450.693	1	7
451.034	1	-4
451.375	1	-1
451.716	1	4
452.057	1	0
452.398	1	8
452.739	1	8
453.080	1	7
453.421	1	7
453.762	1	1
454.103	1	-5
454.444	1	3
454.785	1	5
455.126	1	8
455.467	1	-6
455.808	1	14
456.149	1	-5
456.490	1	3
456.831	1	-13
457.172	1	-2
457.513	1	4
457.854	1	8
458.195	1	1
458.536	1	-4
458.877	1	-2
459.218	1	5
459.559	1	-1
459.899	1	-1
460.240	1	3
460.581	1	2
460.922	1	3
461.263	1	4
461.604	1	9
461.945	1	8
462.286	1	1
462.627	1	3
462.968	1	11
463.309	1	14
463.649	1	9
463.990	1	0
464.331	1	3
464.672	1	3
465.013	1	11
465.354	1	-2
465.695	1	8
466.036	1	-9
466.376	1	-2
466.717	1	3
467.058	1	9
467.399	1	10
467.740	1	3
468.081	1	0
468.422	1	5
468.762	1	8
469.103	1	9
469.444	1	-3
469.785	1	-5
470.126	1	11
470.467	1	6
470.807	1	5
471.148	1	-2
471.489	1	-1
471.830	1	-1
472.171	1	7
472.511	1	12
472.852	1	6
473.193	1	2
473.534	1	11
473.875	1	2
474.215	1	12
474.556	1	8
474.897	1	7
475.238	1	-6
475.578	1	2
475.919	1	11
476.260	1	11
476.601	1	3
476.942	1	-6
477.282	1	4
477.623	1	8
477.964	1	-3
478.305	1	-3
478.645	1	6
478.986	1	-2
479.327	1	-9
479.667	1	3
480.008	1	5
480.349	1	1
480.690	1	5
481.030	1	3
481.371	1	-1
481.712	1	6
482.053	1	-1
482.393	1	3
482.734	1	8
483.075	1	6
483.415	1	11
483.756	1	0
484.097	1	-9
484.437	1	-10
484.778	1	-8
485.119	1	9
485.459	1	3
485.800	1	-7
486.141	1	5
486.481	1	-3
486.822	1	16
487.163	1	9
487.503	1	4
487.844	1	1
488.185	1	-7
488.525	1	8
488.866	1	0
489.207	1	6
489.547	1	14
489.888	1	1
490.228	1	-3
490.569	1	8
490.910	1	0
491.250	1	2
491.591	1	8
491.932	1	10
492.272	1	7
492.613	1	3
492.953	1	-5
493.294	1	-4
493.635	1	-3
493.975	1	5
494.316	1	1
494.656	1	3
494.997	1	-2
495.337	1	13
495.678	1	9
496.019	1	3
496.359	1	5
496.700	1	16
497.040	1	1
497.381	1	9
497.721	1	-3
498.062	1	3
498.403	1	6
498.743	1	4
499.084	1	2
499.424	1	3
499.765	1	-3
500.105	1	0
500.446	1	2
500.786	1	10
501.127	1	9
501.467	1	-3
501.808	1	-1
502.148	1	6
502.489	1	3
502.829	1	7
503.170	1	13
503.510	1	-1
503.851	1	2
504.191	1	-3
504.532	1	0
504.872	1	-1
505.213	1	6
505.553	1	3
505.894	1	10
506.234	1	-7
506.575	1	8
506.915	1	8
507.256	1	1
507.596	1	15
507.936	1	18
508.277	1	4
508.617	1	7
508.958	1	-3
509.298	1	7
509.639	1	7
509.979	1	-4
510.319	1	6
510.660	1	7
511.000	1	11
511.341	1	9
511.681	1	3
512.022	1	8
512.362	1	3
512.702	1	6
513.043	1	9
513.383	1	11
513.724	1	1
514.064	1	9
514.404	1	-4
514.745	1	0
515.085	1	10
515.425	1	6
515.766	1	3
516.106	1	11
516.447	1	4
516.787	1	10
517.127	1	5
517.468	1	4
517.808	1	0
518.148	1	6
518.489	1	9
518.829	1	3
519.169	1	-3
519.510	1	1
519.850	1	3
520.190	1	8
520.531	1	4
520.871	1	8
521.211	1	0
521.552	1	3
521.892	1	13
522.232	1	-7
522.573	1	14
522.913	1	15
523.253	1	14
523.593	1	7
523.934	1	3
524.274	1	14
524.614	1	12
524.955	1	0
525.295	1	2
525.635	1	5
525.975	1	2
526.316	1	17
526.656	1	12
526.996	1	8
527.337	1	0
527.677	1	1
528.017	1	16
528.357	1	-6
528.698	1	-4
529.038	1	2
529.378	1	-2
529.718	1	16
530.058	1	19
530.399	1	16
530.739	1	12
531.079	1	15
531.419	1	13
531.760	1	4
532.100	1	5
532.440	1	1
532.780	1	-7
533.120	1	12
533.461	1	6
533.801	1	9
534.141	1	0
534.481	1	14
534.821	1	6
535.162	1	15
535.502	1	6
535.842	1	5
536.182	1	7
536.522	1	4
536.862	1	11
537.203	1	4
537.543	1	6
537.883	1	1
538.223	1	4
538.563	1	8
538.903	1	4
539.243	1	5
539.584	1	-2
539.924	1	-10
540.264	1	16
540.604	1	3
540.944	1	0
541.284	1	8
541.624	1	-3
541.964	1	12
542.305	1	7
542.645	1	-2
542.985	1	7
543.325	1	6
543.665	1	9
544.005	1	18
544.345	1	7
544.685	1	11
545.025	1	5
545.365	1	-1
545.705	1	7
546.045	1	-1
546.386	1	8
546.726	1	4
547.066	1	19
547.406	1	9
547.746	1	-4
548.086	1	8
548.426	1	12
548.766	1	8
549.106	1	11
549.446	1	9
549.786	1	5
550.126	1	0
550.466	1	3
550.806	1	3
551.146	1	4
551.486	1	10
551.826	1	12
552.166	1	3
552.506	1	8
552.846	1	4
553.186	1	13
553.526	1	-3
553.866	1	-5
554.206	1	4
554.546	1	0
554.886	1	1
555.226	1	-12
555.566	1	9
555.906	1	0
556.246	1	11
556.586	1	-1
556.926	1	6
557.266	1	10
557.606	1	4
557.946	1	1
558.286	1	7
558.626	1	8
558.966	1	5
559.306	1	14
559.646	1	-3
559.986	1	7
560.325	1	8
560.665	1	6
561.005	1	2
561.345	1	0
561.685	1	-2
562.025	1	-11
562.365	1	1
562.705	1	1
563.045	1	5
563.385	1	5
563.725	1	1
564.064	1	14
564.404	1	3
564.744	1	0
565.084	1	5
565.424	1	3
565.764	1	-6
566.104	1	1
566.444	1	8
566.783	1	11
567.123	1	3
567.463	1	2
567.803	1	10
568.143	1	1
568.483	1	10
568.823	1	3
569.162	1	11
569.502	1	9
569.842	1	-3
570.182	1	4
570.522	1	6
570.862	1	10
571.201	1	6
571.541	1	1
571.881	1	-1
572.221	1	3
572.561	1	1
572.900	1	7
573.240	1	0
573.580	1	1
573.920	1	7
574.260	1	9
574.599	1	2
574.939	1	-1
575.279	1	2
575.619	1	13
575.959	1	-4
576.298	1	9
576.638	1	6
576.978	1	1
577.318	1	5
577.657	1	-1
577.997	1	-5
578.337	1	1
578.677	1	8
579.016	1	4
579.356	1	6
579.696	1	-4
580.036	1	0
580.375	1	0
580.715	1	9
581.055	1	11
581.394	1	5
581.734	1	9
582.074	1	11
582.414	1	3
582.753	1	-4
583.093	1	2
583.433	1	9
583.772	1	-2
584.112	1	3
584.452	1	1
584.791	1	0
585.131	1	14
585.471	1	5
585.811	1	-1
586.150	1	-3
586.490	1	11
586.830	1	1
587.169	1	13
587.509	1	7
587.849	1	-1
588.188	1	0
588.528	1	-2
588.867	1	-3
589.207	1	3
589.547	1	13
589.886	1	1
590.226	1	7
590.566	1	18
590.905	1	4
591.245	1	-2
591.585	1	5
591.924	1	-1
592.264	1	-11
592.603	1	0
592.943	1	19
593.283	1	14
593.622	1	-8
593.962	1	1
594.301	1	8
594.641	1	-4
594.981	1	10
595.320	1	5
595.660	1	4
595.999	1	1
596.339	1	10
596.678	1	3
597.018	1	5
597.358	1	-9
597.697	1	-2
598.037	1	-2
598.376	1	-6
598.716	1	6
599.055	1	-1
599.395	1	4
599.734	1	12
600.074	1	0
600.413	1	0
600.753	1	7
601.092	1	1
601.432	1	-7
601.771	1	6
602.111	1	-7
602.451	1	4
602.790	1	5
603.130	1	0
603.469	1	11
603.809	1	3
604.148	1	-1
604.487	1	7
604.827	1	-10
605.166	1	9
605.506	1	-6
605.845	1	8
606.185	1	2
606.524	1	5
606.864	1	4
607.203	1	-1
607.543	1	6
607.882	1	-5
608.222	1	-2
608.561	1	9
608.901	1	7
609.240	1	0
609.579	1	6
609.919	1	6
610.258	1	4
610.598	1	2
610.937	1	8
611.277	1	3
611.616	1	6
611.955	1	6
612.295	1	2
612.634	1	4
612.974	1	-1
613.313	1	-1
613.652	1	7
613.992	1	4
614.331	1	3
614.671	1	16
615.010	1	2
615.349	1	4
615.689	1	3
616.028	1	-2
616.368	1	1
616.707	1	9
617.046	1	-3
617.386	1	2
617.725	1	9
618.064	1	1
618.404	1	0
618.743	1	10
619.082	1	3
619.422	1	4
619.761	1	-6
620.100	1	1
620.440	1	5
620.779	1	0
621.118	1	-3
621.458	1	-1
621.797	1	2
622.136	1	3
622.476	1	-5
622.815	1	8
623.154	1	0
623.494	1	6
623.833	1	10
624.172	1	4
624.511	1	3
624.851	1	-2
625.190	1	14
625.529	1	11
625.869	1	14
626.208	1	7
626.547	1	3
626.886	1	5
627.226	1	13
627.565	1	7
627.904	1	-6
628.243	1	-1
628.583	1	-1
628.922	1	-5
629.261	1	9
629.600	1	-2
629.940	1	-2
630.279	1	0
630.618	1	1
630.957	1	9
631.297	1	-3
631.636	1	7
631.975	1	-1
632.314	1	-9
632.653	1	6
632.993	1	-4
633.332	1	-2
633.671	1	7
634.010	1	2
634.349	1	-11
634.689	1	12
635.028	1	-2
635.367	1	-5
635.706	1	2
636.045	1	3
636.384	1	-5
636.724	1	5
637.063	1	7
637.402	1	9
637.741	1	-3
638.080	1	3
638.419	1	-10
638.759	1	2
639.098	1	-8
639.437	1	-7
639.776	1	-1
640.115	1	10
640.454	1	1
640.793	1	1
641.132	1	5
641.472	1	0
641.811	1	7
642.150	1	-3
642.489	1	-6
642.828	1	-1
643.167	1	-5
643.506	1	7
643.845	1	9
644.184	1	9
644.524	1	8
644.863	1	-6
645.202	1	13
645.541	1	4
645.880	1	1
646.219	1	6
646.558	1	2
646.897	1	10
647.236	1	2
647.575	1	-1
647.914	1	2
648.253	1	2
648.592	1	-2
648.931	1	7
649.270	1	0
649.610	1	6
649.949	1	-1
650.288	1	6
650.627	1	-9
650.966	1	11
651.305	1	-9
651.644	1	6
651.983	1	5
652.322	1	7
652.661	1	-1
653.000	1	-1
653.339	1	0
653.678	1	4
654.017	1	5
654.356	1	4
654.695	1	12
655.034	1	-3
655.373	1	2
655.712	1	-9
656.051	1	1
656.390	1	4
656.729	1	3
657.068	1	10
657.406	1	-1
657.745	1	8
658.084	1	-8
658.423	1	5
658.762	1	-5
659.101	1	3
659.440	1	2
659.779	1	-3
660.118	1	2
660.457	1	12
660.796	1	1
661.135	1	-12
661.474	1	11
661.813	1	-6
662.152	1	4
662.491	1	-5
662.829	1	-3
663.168	1	-1
663.507	1	4
663.846	1	-6
664.185	1	3
664.524	1	2
664.863	1	-1
665.202	1	14
665.541	1	-1
665.879	1	3
666.218	1	15
666.557	1	9
666.896	1	-5
667.235	1	3
667.574	1	0
667.913	1	2
668.251	1	-3
668.590	1	7
668.929	1	6
669.268	1	-5
669.607	1	4
669.946	1	2
670.285	1	9
670.623	1	1
670.962	1	1
671.301	1	-4
671.640	1	7
671.979	1	5
672.317	1	-1
672.656	1	-4
672.995	1	-9
673.334	1	-2
673.673	1	3
674.011	1	7
674.350	1	-1
674.689	1	-2
675.028	1	-2
675.367	1	6
675.705	1	12
676.044	1	18
676.383	1	7
676.722	1	10
677.060	1	-1
677.399	1	4
677.738	1	-3
678.077	1	17
678.416	1	-6
678.754	1	4
679.093	1	3
679.432	1	8
679.771	1	4
680.109	1	0
680.448	1	-1
680.787	1	-7
681.125	1	4
681.464	1	4
681.803	1	12
682.142	1	-5
682.480	1	5
682.819	1	6
683.158	1	0
683.496	1	8
683.835	1	-3
684.174	1	1
684.512	1	-2
684.851	1	0
685.190	1	2
685.529	1	14
685.867	1	-1
686.206	1	15
686.545	1	11
686.883	1	-1
687.222	1	4
687.561	1	0
687.899	1	-6
688.238	1	1
688.577	1	12
688.746	1	4