File: Data/GaN_170K_550ms/GaN_sample D_spot 18_UVVIS_170 K_200um_550 ms 2x2mm1_54.txt
340.368	1	7
340.710	1	-6
341.052	1	14
341.394	1	6
341.737	1	5
342.079	1	5
342.421	1	12
342.763	1	8
343.105	1	13
343.447	1	-9
343.789	1	4
344.131	1	-4
344.473	1	9
344.815	1	8
345.157	1	1
345.499	1	8
345.841	1	9
346.183	1	13
346.526	1	16
346.868	1	11
347.210	1	2
347.552	1	12
347.894	1	6
348.236	1	8
348.578	1	5
348.920	1	16
349.262	1	6
349.604	1	17
349.946	1	18
350.288	1	12
350.630	1	22
350.972	1	3
351.314	1	14
351.656	1	6
351.998	1	20
352.340	1	17
352.682	1	12
353.024	1	11
353.366	1	20
353.708	1	25
354.050	1	16
354.392	1	17
354.734	1	24
355.076	1	18
355.418	1	6
355.760	1	30
356.102	1	28
356.444	1	25
356.785	1	26
357.127	1	34
357.469	1	31
357.811	1	39
358.153	1	46
358.495	1	44
358.837	1	47
359.179	1	46
359.521	1	54
359.863	1	76
360.205	1	75
360.547	1	83
360.889	1	107
361.231	1	122
361.572	1	137
361.914	1	146
362.256	1	176
362.598	1	188
362.940	1	222
363.282	1	275
363.624	1	308
363.966	1	370
364.308	1	425
364.649	1	495
364.991	1	574
365.333	1	657
365.675	1	785
366.017	1	885
366.359	1	1017
366.701	1	1182
367.042	1	1297
367.384	1	1437
367.726	1	1542
368.068	1	1620
368.410	1	1699
368.752	1	1734
369.093	1	1708
369.435	1	1674
369.777	1	1635
370.119	1	1559
370.461	1	1436
370.803	1	1333
371.144	1	1236
371.486	1	1120
371.828	1	1017
372.170	1	963
372.512	1	867
372.853	1	821
373.195	1	772
373.537	1	730
373.879	1	673
374.220	1	632
374.562	1	594
374.904	1	568
375.246	1	540
375.588	1	499
375.929	1	464
376.271	1	442
376.613	1	407
376.955	1	367
377.296	1	368
377.638	1	331
377.980	1	320
378.321	1	304
378.663	1	285
379.005	1	268
379.347	1	276
379.688	1	234
380.030	1	244
380.372	1	220
380.714	1	219
381.055	1	205
381.397	1	220
381.739	1	199
382.080	1	209
382.422	1	228
382.764	1	213
383.105	1	226
383.447	1	236
383.789	1	263
384.130	1	246
384.472	1	237
384.814	1	252
385.156	1	229
385.497	1	254
385.839	1	251
386.180	1	260
386.522	1	243
386.864	1	227
387.205	1	212
387.547	1	212
387.889	1	218
388.230	1	200
388.572	1	204
388.914	1	198
389.255	1	195
389.597	1	183
389.939	1	196
390.280	1	191
390.622	1	182
390.963	1	177
391.305	1	171
391.647	1	158
391.988	1	184
392.330	1	171
392.671	1	161
393.013	1	153
393.355	1	156
393.696	1	151
394.038	1	145
394.379	1	143
394.721	1	146
395.062	1	143
395.404	1	149
395.746	1	173
396.087	1	156
396.429	1	162
396.770	1	168
397.112	1	166
397.453	1	150
397.795	1	157
398.136	1	174
398.478	1	144
398.819	1	160
399.161	1	136
399.503	1	152
399.844	1	139
400.186	1	120
400.527	1	149
400.869	1	126
401.210	1	121
401.552	1	122
401.893	1	115
402.235	1	122
402.576	1	100
402.918	1	101
403.259	1	104
403.601	1	123
403.942	1	121
404.284	1	90
404.625	1	100
404.967	1	98
405.308	1	115
405.649	1	113
405.991	1	116
406.332	1	86
406.674	1	90
407.015	1	102
407.357	1	90
407.698	1	100
408.040	1	93
408.381	1	88
408.722	1	89
409.064	1	91
409.405	1	86
409.747	1	90
410.088	1	101
410.430	1	77
410.771	1	86
411.112	1	74
411.454	1	78
411.795	1	75
412.137	1	54
412.478	1	73
412.819	1	69
413.161	1	78
413.502	1	67
413.844	1	73
414.185	1	58
414.526	1	66
414.868	1	57
415.209	1	46
415.550	1	60
415.892	1	59
416.233	1	74
416.575	1	62
416.916	1	58
417.257	1	74
417.599	1	72
417.940	1	70
418.281	1	61
418.623	1	59
418.964	1	60
419.305	1	66
419.647	1	68
419.988	1	62
420.329	1	62
420.671	1	48
421.012	1	59
421.353	1	50
421.695	1	47
422.036	1	56
422.377	1	44
422.718	1	71
423.060	1	49
423.401	1	54
423.742	1	40
424.084	1	57
424.425	1	37
424.766	1	47
425.107	1	47
425.449	1	48
425.790	1	34
426.131	1	49
426.472	1	48
426.814	1	37
427.155	1	60
427.496	1	44
427.837	1	49
428.179	1	43
428.520	1	45
428.861	1	55
429.202	1	43
429.544	1	46
429.885	1	49
430.226	1	45
430.567	1	46
430.909	1	41
431.250	1	48
431.591	1	27
431.932	1	35
432.273	1	38
432.615	1	33
432.956	1	44
433.297	1	45
433.638	1	48
433.979	1	42
434.320	1	40
434.662	1	30
435.003	1	35
435.344	1	35
435.685	1	32
436.026	1	34
436.368	1	38
436.709	1	28
437.050	1	25
437.391	1	32
437.732	1	36
438.073	1	34
438.414	1	19
438.756	1	29
439.097	1	37
439.438	1	44
439.779	1	38
440.120	1	35
440.461	1	33
440.802	1	39
441.143	1	26
441.485	1	25
441.826	1	30
442.167	1	25
442.508	1	25
442.849	1	17
443.190	1	38
443.531	1	29
443.872	1	32
444.213	1	21
444.554	1	29
444.895	1	15
445.237	1	14
445.578	1	35
445.919	1	37
446.260	1	28
446.601	1	28
446.942	1	37
447.283	1	21
447.624	1	27
447.965	1	29
448.306	1	28
448.647	1	32
448.988	1	26
449.329	1	17
449.670	1	26
450.011	1	24
450.352	1	18
450.693	1	16
451.034	1	22
451.375	1	30
451.716	1	26
452.057	1	22
452.398	1	23
452.739	1	17
453.080	1	28
453.421	1	29
453.762	1	14
454.103	1	17
454.444	1	21
454.785	1	28
455.126	1	31
455.467	1	7
455.808	1	41
456.149	1	20
456.490	1	22
456.831	1	23
457.172	1	18
457.513	1	34
457.854	1	28
458.195	1	15
458.536	1	26
458.877	1	19
459.218	1	20
459.559	1	26
459.899	1	23
460.240	1	18
460.581	1	19
460.922	1	13
461.263	1	18
461.604	1	22
461.945	1	22
462.286	1	15
462.627	1	24
462.968	1	28
463.309	1	30
463.649	1	27
463.990	1	16
464.331	1	22
464.672	1	20
465.013	1	30
465.354	1	26
465.695	1	29
466.036	1	18
466.376	1	25
466.717	1	23
467.058	1	24
467.399	1	26
467.740	1	18
468.081	1	15
468.422	1	28
468.762	1	33
469.103	1	34
469.444	1	25
469.785	1	21
470.126	1	26
470.467	1	24
470.807	1	24
471.148	1	14
471.489	1	34
471.830	1	24
472.171	1	31
472.511	1	20
472.852	1	9
473.193	1	30
473.534	1	25
473.875	1	21
474.215	1	19
474.556	1	31
474.897	1	16
475.238	1	21
475.578	1	30
475.919	1	34
476.260	1	22
476.601	1	21
476.942	1	21
477.282	1	21
477.623	1	36
477.964	1	27
478.305	1	32
478.645	1	24
478.986	1	19
479.327	1	14
479.667	1	23
480.008	1	36
480.349	1	41
480.690	1	28
481.030	1	38
481.371	1	41
481.712	1	31
482.053	1	29
482.393	1	22
482.734	1	39
483.075	1	29
483.415	1	41
483.756	1	41
484.097	1	27
484.437	1	39
484.778	1	30
485.119	1	37
485.459	1	33
485.800	1	32
486.141	1	47
486.481	1	34
486.822	1	51
487.163	1	50
487.503	1	39
487.844	1	57
488.185	1	46
488.525	1	51
488.866	1	64
489.207	1	58
489.547	1	49
489.888	1	53
490.228	1	54
490.569	1	46
490.910	1	55
491.250	1	59
491.591	1	53
491.932	1	66
492.272	1	55
492.613	1	61
492.953	1	60
493.294	1	59
493.635	1	58
493.975	1	62
494.316	1	57
494.656	1	62
494.997	1	61
495.337	1	60
495.678	1	59
496.019	1	48
496.359	1	56
496.700	1	77
497.040	1	62
497.381	1	73
497.721	1	57
498.062	1	68
498.403	1	76
498.743	1	75
499.084	1	74
499.424	1	80
499.765	1	62
500.105	1	78
500.446	1	85
500.786	1	86
501.127	1	89
501.467	1	72
501.808	1	83
502.148	1	103
502.489	1	102
502.829	1	95
503.170	1	110
503.510	1	104
503.851	1	107
504.191	1	98
504.532	1	97
504.872	1	110
505.213	1	107
505.553	1	102
505.894	1	118
506.234	1	113
506.575	1	121
506.915	1	120
507.256	1	111
507.596	1	115
507.936	1	119
508.277	1	109
508.617	1	126
508.958	1	119
509.298	1	128
509.639	1	121
509.979	1	127
510.319	1	122
510.660	1	116
511.000	1	121
511.341	1	136
511.681	1	124
512.022	1	138
512.362	1	135
512.702	1	130
513.043	1	132
513.383	1	135
513.724	1	140
514.064	1	147
514.404	1	129
514.745	1	149
515.085	1	142
515.425	1	159
515.766	1	143
516.106	1	157
516.447	1	145
516.787	1	154
517.127	1	157
517.468	1	156
517.808	1	175
518.148	1	176
518.489	1	171
518.829	1	170
519.169	1	156
519.510	1	189
519.850	1	162
520.190	1	166
520.531	1	184
520.871	1	165
521.211	1	189
521.552	1	181
521.892	1	185
522.232	1	170
522.573	1	197
522.913	1	197
523.253	1	193
523.593	1	193
523.934	1	186
524.274	1	190
524.614	1	189
524.955	1	206
525.295	1	193
525.635	1	198
525.975	1	194
526.316	1	206
526.656	1	227
526.996	1	210
527.337	1	208
527.677	1	214
528.017	1	220
528.357	1	228
528.698	1	218
529.038	1	232
529.378	1	241
529.718	1	233
530.058	1	241
530.399	1	244
530.739	1	250
531.079	1	243
531.419	1	248
531.760	1	243
532.100	1	236
532.440	1	238
532.780	1	229
533.120	1	263
533.461	1	244
533.801	1	263
534.141	1	232
534.481	1	255
534.821	1	235
535.162	1	234
535.502	1	234
535.842	1	241
536.182	1	221
536.522	1	236
536.862	1	233
537.203	1	227
537.543	1	222
537.883	1	233
538.223	1	227
538.563	1	239
538.903	1	234
539.243	1	230
539.584	1	247
539.924	1	232
540.264	1	232
540.604	1	229
540.944	1	230
541.284	1	236
541.624	1	236
541.964	1	252
542.305	1	241
542.645	1	235
542.985	1	248
543.325	1	252
543.665	1	264
544.005	1	248
544.345	1	263
544.685	1	245
545.025	1	252
545.365	1	259
545.705	1	265
546.045	1	258
546.386	1	264
546.726	1	274
547.066	1	267
547.406	1	280
547.746	1	277
548.086	1	268
548.426	1	282
548.766	1	291
549.106	1	300
549.446	1	280
549.786	1	290
550.126	1	290
550.466	1	299
550.806	1	288
551.146	1	283
551.486	1	301
551.826	1	301
552.166	1	296
552.506	1	290
552.846	1	273
553.186	1	298
553.526	1	273
553.866	1	286
554.206	1	287
554.546	1	288
554.886	1	295
555.226	1	281
555.566	1	295
555.906	1	279
556.246	1	294
556.586	1	278
556.926	1	272
557.266	1	275
557.606	1	282
557.946	1	271
558.286	1	266
558.626	1	280
558.966	1	273
559.306	1	294
559.646	1	271
559.986	1	281
560.325	1	285
560.665	1	285
561.005	1	284
561.345	1	259
561.685	1	277
562.025	1	274
562.365	1	281
562.705	1	283
563.045	1	281
563.385	1	289
563.725	1	261
564.064	1	281
564.404	1	279
564.744	1	286
565.084	1	274
565.424	1	277
565.764	1	299
566.104	1	273
566.444	1	278
566.783	1	293
567.123	1	281
567.463	1	263
567.803	1	269
568.143	1	268
568.483	1	285
568.823	1	260
569.162	1	273
569.502	1	270
569.842	1	260
570.182	1	270
570.522	1	292
570.862	1	263
571.201	1	279
571.541	1	249
571.881	1	258
572.221	1	265
572.561	1	263
572.900	1	259
573.240	1	257
573.580	1	262
573.920	1	270
574.260	1	263
574.599	1	260
574.939	1	260
575.279	1	268
575.619	1	255
575.959	1	251
576.298	1	275
576.638	1	258
576.978	1	270
577.318	1	259
577.657	1	269
577.997	1	253
578.337	1	262
578.677	1	257
579.016	1	253
579.356	1	260
579.696	1	254
580.036	1	264
580.375	1	253
580.715	1	253
581.055	1	272
581.394	1	251
581.734	1	280
582.074	1	264
582.414	1	257
582.753	1	278
583.093	1	260
583.433	1	274
583.772	1	247
584.112	1	261
584.452	1	239
584.791	1	236
585.131	1	265
585.471	1	258
585.811	1	255
586.150	1	250
586.490	1	259
586.830	1	244
587.169	1	263
587.509	1	240
587.849	1	249
588.188	1	240
588.528	1	240
588.867	1	249
589.207	1	234
589.547	1	234
589.886	1	237
590.226	1	222
590.566	1	225
590.905	1	228
591.245	1	232
591.585	1	218
591.924	1	211
592.264	1	202
592.603	1	211
592.943	1	211
593.283	1	219
593.622	1	206
593.962	1	211
594.301	1	226
594.641	1	205
594.981	1	219
595.320	1	207
595.660	1	199
595.999	1	213
596.339	1	209
596.678	1	206
597.018	1	216
597.358	1	198
597.697	1	209
598.037	1	220
598.376	1	192
598.716	1	202
599.055	1	206
599.395	1	199
599.734	1	211
600.074	1	204
600.413	1	192
600.753	1	207
601.092	1	209
601.432	1	192
601.771	1	212
602.111	1	211
602.451	1	219
602.790	1	223
603.130	1	209
603.469	1	217
603.809	1	210
604.148	1	226
604.487	1	219
604.827	1	195
605.166	1	210
605.506	1	205
605.845	1	215
606.185	1	211
606.524	1	203
606.864	1	218
607.203	1	195
607.543	1	216
607.882	1	194
608.222	1	209
608.561	1	203
608.901	1	202
609.240	1	201
609.579	1	203
609.919	1	206
610.258	1	210
610.598	1	198
610.937	1	185
611.277	1	185
611.616	1	201
611.955	1	190
612.295	1	176
612.634	1	180
612.974	1	180
613.313	1	168
613.652	1	191
613.992	1	174
614.331	1	173
614.671	1	163
615.010	1	172
615.349	1	166
615.689	1	167
616.028	1	156
616.368	1	159
616.707	1	167
617.046	1	151
617.386	1	158
617.725	1	154
618.064	1	155
618.404	1	163
618.743	1	162
619.082	1	156
619.422	1	145
619.761	1	146
620.100	1	158
620.440	1	157
620.779	1	139
621.118	1	142
621.458	1	150
621.797	1	142
622.136	1	147
622.476	1	140
622.815	1	143
623.154	1	147
623.494	1	135
623.833	1	148
624.172	1	148
624.511	1	137
624.851	1	131
625.190	1	139
625.529	1	140
625.869	1	148
626.208	1	135
626.547	1	139
626.886	1	137
627.226	1	145
627.565	1	136
627.904	1	137
628.243	1	136
628.583	1	135
628.922	1	126
629.261	1	134
629.600	1	129
629.940	1	126
630.279	1	131
630.618	1	118
630.957	1	129
631.297	1	125
631.636	1	142
631.975	1	119
632.314	1	120
632.653	1	121
632.993	1	117
633.332	1	130
633.671	1	136
634.010	1	120
634.349	1	105
634.689	1	126
635.028	1	126
635.367	1	112
635.706	1	118
636.045	1	125
636.384	1	117
636.724	1	123
637.063	1	125
637.402	1	116
637.741	1	115
638.080	1	115
638.419	1	103
638.759	1	113
639.098	1	101
639.437	1	99
639.776	1	113
640.115	1	107
640.454	1	116
640.793	1	101
641.132	1	108
641.472	1	112
641.811	1	121
642.150	1	96
642.489	1	100
642.828	1	113
643.167	1	112
643.506	1	114
643.845	1	102
644.184	1	115
644.524	1	109
644.863	1	89
645.202	1	119
645.541	1	119
645.880	1	106
646.219	1	99
646.558	1	105
646.897	1	108
647.236	1	95
647.575	1	91
647.914	1	93
648.253	1	108
648.592	1	100
648.931	1	109
649.270	1	97
649.610	1	106
649.949	1	97
650.288	1	93
650.627	1	91
650.966	1	96
651.305	1	92
651.644	1	100
651.983	1	97
652.322	1	86
652.661	1	90
653.000	1	86
653.339	1	90
653.678	1	87
654.017	1	91
654.356	1	84
654.695	1	92
655.034	1	87
655.373	1	85
655.712	1	82
656.051	1	93
656.390	1	85
656.729	1	83
657.068	1	84
657.406	1	76
657.745	1	91
658.084	1	66
658.423	1	78
658.762	1	69
659.101	1	70
659.440	1	69
659.779	1	74
660.118	1	72
660.457	1	87
660.796	1	72
661.135	1	67
661.474	1	77
661.813	1	66
662.152	1	78
662.491	1	65
662.829	1	70
663.168	1	66
663.507	1	83
663.846	1	57
664.185	1	64
664.524	1	71
664.863	1	66
665.202	1	84
665.541	1	66
665.879	1	66
666.218	1	78
666.557	1	64
666.896	1	70
667.235	1	56
667.574	1	56
667.913	1	66
668.251	1	67
668.590	1	71
668.929	1	73
669.268	1	53
669.607	1	63
669.946	1	64
670.285	1	75
670.623	1	63
670.962	1	62
671.301	1	69
671.640	1	65
671.979	1	61
672.317	1	74
672.656	1	69
672.995	1	57
673.334	1	69
673.673	1	63
674.011	1	58
674.350	1	72
674.689	1	62
675.028	1	61
675.367	1	56
675.705	1	57
676.044	1	69
676.383	1	58
676.722	1	71
677.060	1	64
677.399	1	59
677.738	1	60
678.077	1	69
678.416	1	66
678.754	1	55
679.093	1	67
679.432	1	63
679.771	1	54
680.109	1	59
680.448	1	69
680.787	1	61
681.125	1	52
681.464	1	62
681.803	1	64
682.142	1	49
682.480	1	58
682.819	1	67
683.158	1	59
683.496	1	51
683.835	1	50
684.174	1	58
684.512	1	51
684.851	1	55
685.190	1	47
685.529	1	61
685.867	1	52
686.206	1	60
686.545	1	52
686.883	1	52
687.222	1	48
687.561	1	52
687.899	1	42
688.238	1	43
688.577	1	62
688.746	1	49