File: Data/GaN_170K_550ms/GaN_sample D_spot 18_UVVIS_170 K_200um_550 ms 2x2mm1_72.txt
340.368	1	1
340.710	1	-4
341.052	1	8
341.394	1	11
341.737	1	1
342.079	1	1
342.421	1	5
342.763	1	7
343.105	1	10
343.447	1	-1
343.789	1	6
344.131	1	-4
344.473	1	8
344.815	1	7
345.157	1	1
345.499	1	-2
345.841	1	8
346.183	1	9
346.526	1	4
346.868	1	10
347.210	1	-3
347.552	1	18
347.894	1	10
348.236	1	1
348.578	1	4
348.920	1	9
349.262	1	10
349.604	1	17
349.946	1	14
350.288	1	10
350.630	1	14
350.972	1	9
351.314	1	10
351.656	1	3
351.998	1	5
352.340	1	5
352.682	1	1
353.024	1	15
353.366	1	18
353.708	1	17
354.050	1	0
354.392	1	11
354.734	1	17
355.076	1	20
355.418	1	21
355.760	1	5
356.102	1	22
356.444	1	14
356.785	1	15
357.127	1	15
357.469	1	20
357.811	1	14
358.153	1	20
358.495	1	35
358.837	1	28
359.179	1	19
359.521	1	42
359.863	1	40
360.205	1	50
360.547	1	51
360.889	1	57
361.231	1	57
361.572	1	57
361.914	1	61
362.256	1	59
362.598	1	80
362.940	1	98
363.282	1	94
363.624	1	99
363.966	1	110
364.308	1	129
364.649	1	136
364.991	1	142
365.333	1	165
365.675	1	192
366.017	1	212
366.359	1	225
366.701	1	227
367.042	1	242
367.384	1	264
367.726	1	284
368.068	1	278
368.410	1	286
368.752	1	278
369.093	1	279
369.435	1	270
369.777	1	279
370.119	1	262
370.461	1	244
370.803	1	241
371.144	1	215
371.486	1	193
371.828	1	197
372.170	1	185
372.512	1	181
372.853	1	182
373.195	1	164
373.537	1	173
373.879	1	153
374.220	1	146
374.562	1	123
374.904	1	123
375.246	1	111
375.588	1	107
375.929	1	111
376.271	1	103
376.613	1	98
376.955	1	95
377.296	1	94
377.638	1	86
377.980	1	61
378.321	1	78
378.663	1	64
379.005	1	70
379.347	1	61
379.688	1	60
380.030	1	60
380.372	1	57
380.714	1	62
381.055	1	56
381.397	1	51
381.739	1	48
382.080	1	46
382.422	1	41
382.764	1	49
383.105	1	44
383.447	1	48
383.789	1	64
384.130	1	39
384.472	1	32
384.814	1	38
385.156	1	37
385.497	1	49
385.839	1	26
386.180	1	43
386.522	1	36
386.864	1	41
387.205	1	27
387.547	1	33
387.889	1	33
388.230	1	25
388.572	1	31
388.914	1	19
389.255	1	32
389.597	1	21
389.939	1	20
390.280	1	12
390.622	1	20
390.963	1	19
391.305	1	16
391.647	1	8
391.988	1	26
392.330	1	20
392.671	1	16
393.013	1	7
393.355	1	19
393.696	1	19
394.038	1	12
394.379	1	8
394.721	1	18
395.062	1	12
395.404	1	15
395.746	1	28
396.087	1	14
396.429	1	15
396.770	1	20
397.112	1	17
397.453	1	16
397.795	1	11
398.136	1	21
398.478	1	6
398.819	1	12
399.161	1	11
399.503	1	21
399.844	1	4
400.186	1	-4
400.527	1	24
400.869	1	9
401.210	1	13
401.552	1	6
401.893	1	20
402.235	1	20
402.576	1	8
402.918	1	15
403.259	1	13
403.601	1	18
403.942	1	8
404.284	1	3
404.625	1	6
404.967	1	9
405.308	1	2
405.649	1	10
405.991	1	13
406.332	1	-2
406.674	1	10
407.015	1	5
407.357	1	3
407.698	1	6
408.040	1	2
408.381	1	11
408.722	1	1
409.064	1	9
409.405	1	18
409.747	1	7
410.088	1	13
410.430	1	4
410.771	1	17
411.112	1	1
411.454	1	7
411.795	1	14
412.137	1	7
412.478	1	5
412.819	1	4
413.161	1	14
413.502	1	5
413.844	1	10
414.185	1	-6
414.526	1	12
414.868	1	3
415.209	1	-6
415.550	1	7
415.892	1	9
416.233	1	13
416.575	1	-2
416.916	1	-6
417.257	1	10
417.599	1	4
417.940	1	12
418.281	1	-7
418.623	1	6
418.964	1	6
419.305	1	7
419.647	1	8
419.988	1	3
420.329	1	9
420.671	1	5
421.012	1	0
421.353	1	9
421.695	1	-1
422.036	1	11
422.377	1	10
422.718	1	11
423.060	1	7
423.401	1	-5
423.742	1	7
424.084	1	11
424.425	1	0
424.766	1	1
425.107	1	5
425.449	1	5
425.790	1	8
426.131	1	11
426.472	1	0
426.814	1	2
427.155	1	4
427.496	1	-3
427.837	1	9
428.179	1	11
428.520	1	8
428.861	1	4
429.202	1	-1
429.544	1	-1
429.885	1	12
430.226	1	3
430.567	1	9
430.909	1	-1
431.250	1	16
431.591	1	1
431.932	1	-3
432.273	1	2
432.615	1	8
432.956	1	9
433.297	1	-1
433.638	1	12
433.979	1	10
434.320	1	9
434.662	1	-7
435.003	1	0
435.344	1	10
435.685	1	-2
436.026	1	3
436.368	1	4
436.709	1	10
437.050	1	-4
437.391	1	0
437.732	1	14
438.073	1	2
438.414	1	-4
438.756	1	2
439.097	1	8
439.438	1	7
439.779	1	14
440.120	1	-9
440.461	1	17
440.802	1	13
441.143	1	4
441.485	1	-4
441.826	1	16
442.167	1	15
442.508	1	-4
442.849	1	5
443.190	1	3
443.531	1	6
443.872	1	-1
444.213	1	10
444.554	1	-1
444.895	1	-10
445.237	1	-4
445.578	1	6
445.919	1	10
446.260	1	8
446.601	1	5
446.942	1	10
447.283	1	6
447.624	1	0
447.965	1	3
448.306	1	4
448.647	1	6
448.988	1	15
449.329	1	8
449.670	1	-7
450.011	1	17
450.352	1	-6
450.693	1	1
451.034	1	5
451.375	1	16
451.716	1	15
452.057	1	12
452.398	1	4
452.739	1	7
453.080	1	0
453.421	1	13
453.762	1	9
454.103	1	-3
454.444	1	0
454.785	1	1
455.126	1	16
455.467	1	2
455.808	1	9
456.149	1	2
456.490	1	8
456.831	1	-1
457.172	1	2
457.513	1	17
457.854	1	14
458.195	1	4
458.536	1	4
458.877	1	3
459.218	1	1
459.559	1	7
459.899	1	6
460.240	1	2
460.581	1	6
460.922	1	-10
461.263	1	1
461.604	1	14
461.945	1	6
462.286	1	12
462.627	1	14
462.968	1	18
463.309	1	5
463.649	1	18
463.990	1	6
464.331	1	7
464.672	1	-2
465.013	1	13
465.354	1	-1
465.695	1	6
466.036	1	-1
466.376	1	2
466.717	1	2
467.058	1	5
467.399	1	14
467.740	1	7
468.081	1	1
468.422	1	9
468.762	1	21
469.103	1	8
469.444	1	9
469.785	1	0
470.126	1	7
470.467	1	8
470.807	1	5
471.148	1	3
471.489	1	7
471.830	1	1
472.171	1	9
472.511	1	2
472.852	1	3
473.193	1	16
473.534	1	6
473.875	1	5
474.215	1	9
474.556	1	11
474.897	1	11
475.238	1	1
475.578	1	4
475.919	1	8
476.260	1	19
476.601	1	4
476.942	1	0
477.282	1	15
477.623	1	17
477.964	1	10
478.305	1	-3
478.645	1	11
478.986	1	3
479.327	1	-1
479.667	1	8
480.008	1	6
480.349	1	14
480.690	1	13
481.030	1	11
481.371	1	9
481.712	1	13
482.053	1	3
482.393	1	6
482.734	1	15
483.075	1	5
483.415	1	21
483.756	1	14
484.097	1	2
484.437	1	9
484.778	1	3
485.119	1	11
485.459	1	13
485.800	1	9
486.141	1	17
486.481	1	9
486.822	1	17
487.163	1	11
487.503	1	5
487.844	1	16
488.185	1	18
488.525	1	28
488.866	1	19
489.207	1	17
489.547	1	23
489.888	1	16
490.228	1	19
490.569	1	12
490.910	1	7
491.250	1	15
491.591	1	17
491.932	1	11
492.272	1	17
492.613	1	25
492.953	1	14
493.294	1	6
493.635	1	11
493.975	1	15
494.316	1	13
494.656	1	16
494.997	1	14
495.337	1	21
495.678	1	15
496.019	1	6
496.359	1	28
496.700	1	17
497.040	1	17
497.381	1	29
497.721	1	12
498.062	1	18
498.403	1	28
498.743	1	21
499.084	1	22
499.424	1	33
499.765	1	4
500.105	1	13
500.446	1	29
500.786	1	26
501.127	1	15
501.467	1	12
501.808	1	13
502.148	1	36
502.489	1	22
502.829	1	30
503.170	1	37
503.510	1	34
503.851	1	36
504.191	1	33
504.532	1	19
504.872	1	39
505.213	1	23
505.553	1	32
505.894	1	36
506.234	1	20
506.575	1	32
506.915	1	33
507.256	1	33
507.596	1	39
507.936	1	37
508.277	1	30
508.617	1	26
508.958	1	38
509.298	1	29
509.639	1	35
509.979	1	40
510.319	1	21
510.660	1	26
511.000	1	36
511.341	1	48
511.681	1	25
512.022	1	28
512.362	1	36
512.702	1	29
513.043	1	36
513.383	1	36
513.724	1	28
514.064	1	52
514.404	1	29
514.745	1	26
515.085	1	41
515.425	1	34
515.766	1	39
516.106	1	38
516.447	1	28
516.787	1	43
517.127	1	38
517.468	1	32
517.808	1	47
518.148	1	42
518.489	1	49
518.829	1	53
519.169	1	39
519.510	1	46
519.850	1	34
520.190	1	35
520.531	1	51
520.871	1	40
521.211	1	42
521.552	1	51
521.892	1	46
522.232	1	25
522.573	1	39
522.913	1	41
523.253	1	45
523.593	1	37
523.934	1	36
524.274	1	46
524.614	1	40
524.955	1	47
525.295	1	44
525.635	1	40
525.975	1	36
526.316	1	42
526.656	1	45
526.996	1	45
527.337	1	38
527.677	1	42
528.017	1	38
528.357	1	37
528.698	1	32
529.038	1	34
529.378	1	41
529.718	1	47
530.058	1	51
530.399	1	38
530.739	1	42
531.079	1	39
531.419	1	50
531.760	1	42
532.100	1	39
532.440	1	51
532.780	1	36
533.120	1	48
533.461	1	36
533.801	1	42
534.141	1	25
534.481	1	52
534.821	1	48
535.162	1	41
535.502	1	38
535.842	1	53
536.182	1	45
536.522	1	44
536.862	1	47
537.203	1	36
537.543	1	39
537.883	1	38
538.223	1	34
538.563	1	37
538.903	1	31
539.243	1	33
539.584	1	40
539.924	1	30
540.264	1	40
540.604	1	29
540.944	1	30
541.284	1	46
541.624	1	37
541.964	1	35
542.305	1	33
542.645	1	38
542.985	1	34
543.325	1	39
543.665	1	42
544.005	1	50
544.345	1	46
544.685	1	37
545.025	1	33
545.365	1	45
545.705	1	38
546.045	1	31
546.386	1	21
546.726	1	34
547.066	1	52
547.406	1	31
547.746	1	34
548.086	1	45
548.426	1	39
548.766	1	37
549.106	1	47
549.446	1	43
549.786	1	32
550.126	1	37
550.466	1	41
550.806	1	23
551.146	1	41
551.486	1	28
551.826	1	51
552.166	1	29
552.506	1	33
552.846	1	36
553.186	1	32
553.526	1	25
553.866	1	29
554.206	1	34
554.546	1	30
554.886	1	26
555.226	1	30
555.566	1	41
555.906	1	31
556.246	1	29
556.586	1	29
556.926	1	38
557.266	1	38
557.606	1	21
557.946	1	26
558.286	1	34
558.626	1	36
558.966	1	27
559.306	1	29
559.646	1	26
559.986	1	28
560.325	1	25
560.665	1	32
561.005	1	16
561.345	1	14
561.685	1	18
562.025	1	23
562.365	1	24
562.705	1	23
563.045	1	25
563.385	1	31
563.725	1	13
564.064	1	23
564.404	1	19
564.744	1	22
565.084	1	25
565.424	1	32
565.764	1	19
566.104	1	17
566.444	1	16
566.783	1	32
567.123	1	16
567.463	1	11
567.803	1	19
568.143	1	18
568.483	1	20
568.823	1	20
569.162	1	19
569.502	1	16
569.842	1	18
570.182	1	23
570.522	1	16
570.862	1	20
571.201	1	28
571.541	1	8
571.881	1	7
572.221	1	16
572.561	1	26
572.900	1	13
573.240	1	18
573.580	1	26
573.920	1	22
574.260	1	17
574.599	1	20
574.939	1	18
575.279	1	21
575.619	1	19
575.959	1	11
576.298	1	16
576.638	1	22
576.978	1	17
577.318	1	19
577.657	1	15
577.997	1	13
578.337	1	17
578.677	1	21
579.016	1	17
579.356	1	20
579.696	1	10
580.036	1	20
580.375	1	16
580.715	1	18
581.055	1	22
581.394	1	15
581.734	1	22
582.074	1	22
582.414	1	13
582.753	1	13
583.093	1	16
583.433	1	16
583.772	1	1
584.112	1	15
584.452	1	10
584.791	1	8
585.131	1	18
585.471	1	24
585.811	1	12
586.150	1	13
586.490	1	19
586.830	1	16
587.169	1	21
587.509	1	13
587.849	1	8
588.188	1	16
588.528	1	10
588.867	1	8
589.207	1	7
589.547	1	19
589.886	1	12
590.226	1	13
590.566	1	20
590.905	1	13
591.245	1	5
591.585	1	8
591.924	1	17
592.264	1	5
592.603	1	6
592.943	1	4
593.283	1	10
593.622	1	0
593.962	1	15
594.301	1	21
594.641	1	8
594.981	1	20
595.320	1	8
595.660	1	12
595.999	1	12
596.339	1	12
596.678	1	7
597.018	1	3
597.358	1	-2
597.697	1	6
598.037	1	18
598.376	1	0
598.716	1	19
599.055	1	15
599.395	1	10
599.734	1	14
600.074	1	11
600.413	1	-1
600.753	1	14
601.092	1	10
601.432	1	1
601.771	1	11
602.111	1	19
602.451	1	22
602.790	1	16
603.130	1	5
603.469	1	17
603.809	1	13
604.148	1	8
604.487	1	10
604.827	1	-3
605.166	1	20
605.506	1	4
605.845	1	18
606.185	1	5
606.524	1	9
606.864	1	15
607.203	1	4
607.543	1	8
607.882	1	7
608.222	1	6
608.561	1	15
608.901	1	13
609.240	1	13
609.579	1	11
609.919	1	6
610.258	1	13
610.598	1	13
610.937	1	12
611.277	1	16
611.616	1	7
611.955	1	14
612.295	1	7
612.634	1	3
612.974	1	12
613.313	1	2
613.652	1	16
613.992	1	15
614.331	1	0
614.671	1	14
615.010	1	12
615.349	1	21
615.689	1	12
616.028	1	6
616.368	1	13
616.707	1	11
617.046	1	3
617.386	1	3
617.725	1	12
618.064	1	3
618.404	1	6
618.743	1	14
619.082	1	17
619.422	1	-1
619.761	1	4
620.100	1	1
620.440	1	14
620.779	1	10
621.118	1	9
621.458	1	9
621.797	1	5
622.136	1	14
622.476	1	2
622.815	1	12
623.154	1	14
623.494	1	8
623.833	1	-2
624.172	1	4
624.511	1	10
624.851	1	4
625.190	1	12
625.529	1	11
625.869	1	14
626.208	1	2
626.547	1	-1
626.886	1	11
627.226	1	6
627.565	1	10
627.904	1	3
628.243	1	-2
628.583	1	-2
628.922	1	3
629.261	1	7
629.600	1	9
629.940	1	12
630.279	1	7
630.618	1	8
630.957	1	6
631.297	1	7
631.636	1	23
631.975	1	0
632.314	1	10
632.653	1	11
632.993	1	9
633.332	1	5
633.671	1	17
634.010	1	7
634.349	1	-2
634.689	1	3
635.028	1	13
635.367	1	3
635.706	1	6
636.045	1	11
636.384	1	-1
636.724	1	2
637.063	1	8
637.402	1	19
637.741	1	9
638.080	1	16
638.419	1	3
638.759	1	13
639.098	1	5
639.437	1	-1
639.776	1	6
640.115	1	9
640.454	1	7
640.793	1	4
641.132	1	3
641.472	1	10
641.811	1	16
642.150	1	2
642.489	1	2
642.828	1	5
643.167	1	5
643.506	1	5
643.845	1	6
644.184	1	22
644.524	1	-2
644.863	1	4
645.202	1	11
645.541	1	1
645.880	1	8
646.219	1	-2
646.558	1	1
646.897	1	5
647.236	1	3
647.575	1	5
647.914	1	1
648.253	1	-4
648.592	1	14
648.931	1	9
649.270	1	-3
649.610	1	4
649.949	1	0
650.288	1	8
650.627	1	1
650.966	1	13
651.305	1	4
651.644	1	12
651.983	1	14
652.322	1	5
652.661	1	5
653.000	1	7
653.339	1	0
653.678	1	1
654.017	1	9
654.356	1	6
654.695	1	15
655.034	1	8
655.373	1	12
655.712	1	-4
656.051	1	6
656.390	1	10
656.729	1	6
657.068	1	3
657.406	1	6
657.745	1	10
658.084	1	-10
658.423	1	6
658.762	1	-4
659.101	1	3
659.440	1	7
659.779	1	8
660.118	1	9
660.457	1	12
660.796	1	0
661.135	1	-9
661.474	1	17
661.813	1	3
662.152	1	3
662.491	1	-4
662.829	1	2
663.168	1	12
663.507	1	13
663.846	1	5
664.185	1	8
664.524	1	7
664.863	1	-2
665.202	1	18
665.541	1	9
665.879	1	9
666.218	1	20
666.557	1	4
666.896	1	8
667.235	1	5
667.574	1	-5
667.913	1	-5
668.251	1	6
668.590	1	5
668.929	1	10
669.268	1	2
669.607	1	3
669.946	1	12
670.285	1	11
670.623	1	0
670.962	1	3
671.301	1	7
671.640	1	7
671.979	1	9
672.317	1	4
672.656	1	13
672.995	1	-3
673.334	1	-2
673.673	1	9
674.011	1	10
674.350	1	6
674.689	1	5
675.028	1	7
675.367	1	1
675.705	1	13
676.044	1	15
676.383	1	3
676.722	1	17
677.060	1	7
677.399	1	4
677.738	1	-4
678.077	1	20
678.416	1	7
678.754	1	9
679.093	1	17
679.432	1	9
679.771	1	9
680.109	1	6
680.448	1	12
680.787	1	0
681.125	1	18
681.464	1	12
681.803	1	6
682.142	1	3
682.480	1	2
682.819	1	12
683.158	1	3
683.496	1	7
683.835	1	5
684.174	1	3
684.512	1	11
684.851	1	-1
685.190	1	8
685.529	1	16
685.867	1	10
686.206	1	-4
686.545	1	14
686.883	1	12
687.222	1	2
687.561	1	13
687.899	1	3
688.238	1	1
688.577	1	12
688.746	1	8