File: Data/GaN_170K_550ms/GaN_sample D_spot 18_UVVIS_170 K_200um_550 ms 2x2mm1_66.txt
340.368	1	0
340.710	1	-6
341.052	1	14
341.394	1	-1
341.737	1	4
342.079	1	-4
342.421	1	0
342.763	1	9
343.105	1	11
343.447	1	-5
343.789	1	7
344.131	1	4
344.473	1	9
344.815	1	16
345.157	1	2
345.499	1	-3
345.841	1	7
346.183	1	8
346.526	1	12
346.868	1	14
347.210	1	-1
347.552	1	12
347.894	1	6
348.236	1	4
348.578	1	5
348.920	1	0
349.262	1	9
349.604	1	14
349.946	1	5
350.288	1	9
350.630	1	9
350.972	1	-2
351.314	1	7
351.656	1	2
351.998	1	14
352.340	1	9
352.682	1	11
353.024	1	12
353.366	1	15
353.708	1	23
354.050	1	10
354.392	1	14
354.734	1	12
355.076	1	11
355.418	1	7
355.760	1	20
356.102	1	21
356.444	1	29
356.785	1	27
357.127	1	29
357.469	1	21
357.811	1	21
358.153	1	34
358.495	1	36
358.837	1	41
359.179	1	30
359.521	1	48
359.863	1	42
360.205	1	62
360.547	1	61
360.889	1	69
361.231	1	79
361.572	1	71
361.914	1	92
362.256	1	93
362.598	1	108
362.940	1	131
363.282	1	122
363.624	1	145
363.966	1	148
364.308	1	182
364.649	1	198
364.991	1	226
365.333	1	241
365.675	1	273
366.017	1	295
366.359	1	313
366.701	1	354
367.042	1	369
367.384	1	391
367.726	1	414
368.068	1	414
368.410	1	422
368.752	1	411
369.093	1	419
369.435	1	424
369.777	1	391
370.119	1	392
370.461	1	377
370.803	1	337
371.144	1	337
371.486	1	303
371.828	1	281
372.170	1	287
372.512	1	268
372.853	1	239
373.195	1	231
373.537	1	230
373.879	1	219
374.220	1	210
374.562	1	169
374.904	1	187
375.246	1	160
375.588	1	154
375.929	1	147
376.271	1	146
376.613	1	135
376.955	1	128
377.296	1	118
377.638	1	116
377.980	1	98
378.321	1	98
378.663	1	106
379.005	1	94
379.347	1	78
379.688	1	93
380.030	1	85
380.372	1	78
380.714	1	86
381.055	1	69
381.397	1	66
381.739	1	67
382.080	1	59
382.422	1	61
382.764	1	61
383.105	1	58
383.447	1	66
383.789	1	66
384.130	1	54
384.472	1	34
384.814	1	48
385.156	1	51
385.497	1	60
385.839	1	39
386.180	1	45
386.522	1	48
386.864	1	47
387.205	1	35
387.547	1	38
387.889	1	34
388.230	1	38
388.572	1	30
388.914	1	30
389.255	1	34
389.597	1	44
389.939	1	26
390.280	1	25
390.622	1	32
390.963	1	21
391.305	1	19
391.647	1	19
391.988	1	28
392.330	1	27
392.671	1	29
393.013	1	19
393.355	1	17
393.696	1	29
394.038	1	14
394.379	1	11
394.721	1	20
395.062	1	9
395.404	1	20
395.746	1	28
396.087	1	23
396.429	1	25
396.770	1	18
397.112	1	12
397.453	1	16
397.795	1	11
398.136	1	20
398.478	1	9
398.819	1	13
399.161	1	5
399.503	1	14
399.844	1	11
400.186	1	-2
400.527	1	27
400.869	1	11
401.210	1	18
401.552	1	12
401.893	1	16
402.235	1	11
402.576	1	13
402.918	1	9
403.259	1	14
403.601	1	20
403.942	1	17
404.284	1	0
404.625	1	20
404.967	1	10
405.308	1	14
405.649	1	14
405.991	1	18
406.332	1	3
406.674	1	13
407.015	1	9
407.357	1	9
407.698	1	15
408.040	1	7
408.381	1	2
408.722	1	-5
409.064	1	11
409.405	1	5
409.747	1	7
410.088	1	21
410.430	1	9
410.771	1	11
411.112	1	10
411.454	1	15
411.795	1	15
412.137	1	1
412.478	1	7
412.819	1	-4
413.161	1	10
413.502	1	6
413.844	1	6
414.185	1	15
414.526	1	10
414.868	1	6
415.209	1	-2
415.550	1	9
415.892	1	6
416.233	1	15
416.575	1	3
416.916	1	-7
417.257	1	2
417.599	1	8
417.940	1	9
418.281	1	-5
418.623	1	4
418.964	1	4
419.305	1	-3
419.647	1	6
419.988	1	10
420.329	1	1
420.671	1	9
421.012	1	10
421.353	1	9
421.695	1	-2
422.036	1	9
422.377	1	16
422.718	1	11
423.060	1	1
423.401	1	10
423.742	1	3
424.084	1	24
424.425	1	-2
424.766	1	4
425.107	1	-1
425.449	1	15
425.790	1	10
426.131	1	12
426.472	1	5
426.814	1	0
427.155	1	20
427.496	1	4
427.837	1	12
428.179	1	15
428.520	1	10
428.861	1	13
429.202	1	2
429.544	1	3
429.885	1	8
430.226	1	7
430.567	1	7
430.909	1	8
431.250	1	11
431.591	1	1
431.932	1	-4
432.273	1	10
432.615	1	10
432.956	1	2
433.297	1	3
433.638	1	11
433.979	1	9
434.320	1	8
434.662	1	-17
435.003	1	6
435.344	1	4
435.685	1	6
436.026	1	5
436.368	1	1
436.709	1	13
437.050	1	-6
437.391	1	1
437.732	1	12
438.073	1	6
438.414	1	0
438.756	1	4
439.097	1	5
439.438	1	10
439.779	1	17
440.120	1	6
440.461	1	19
440.802	1	12
441.143	1	2
441.485	1	-4
441.826	1	8
442.167	1	10
442.508	1	7
442.849	1	1
443.190	1	5
443.531	1	6
443.872	1	-3
444.213	1	9
444.554	1	11
444.895	1	-6
445.237	1	12
445.578	1	14
445.919	1	6
446.260	1	3
446.601	1	-9
446.942	1	13
447.283	1	19
447.624	1	11
447.965	1	5
448.306	1	1
448.647	1	2
448.988	1	9
449.329	1	7
449.670	1	-11
450.011	1	7
450.352	1	4
450.693	1	1
451.034	1	2
451.375	1	9
451.716	1	6
452.057	1	14
452.398	1	8
452.739	1	13
453.080	1	5
453.421	1	4
453.762	1	12
454.103	1	4
454.444	1	-1
454.785	1	4
455.126	1	17
455.467	1	0
455.808	1	13
456.149	1	-1
456.490	1	7
456.831	1	-6
457.172	1	1
457.513	1	16
457.854	1	21
458.195	1	9
458.536	1	-2
458.877	1	1
459.218	1	-2
459.559	1	2
459.899	1	3
460.240	1	-3
460.581	1	5
460.922	1	4
461.263	1	7
461.604	1	14
461.945	1	10
462.286	1	11
462.627	1	11
462.968	1	14
463.309	1	4
463.649	1	12
463.990	1	3
464.331	1	15
464.672	1	3
465.013	1	15
465.354	1	-1
465.695	1	4
466.036	1	4
466.376	1	13
466.717	1	9
467.058	1	9
467.399	1	12
467.740	1	4
468.081	1	6
468.422	1	6
468.762	1	10
469.103	1	8
469.444	1	5
469.785	1	4
470.126	1	5
470.467	1	7
470.807	1	6
471.148	1	1
471.489	1	8
471.830	1	3
472.171	1	12
472.511	1	5
472.852	1	2
473.193	1	11
473.534	1	15
473.875	1	2
474.215	1	4
474.556	1	13
474.897	1	12
475.238	1	-2
475.578	1	1
475.919	1	5
476.260	1	19
476.601	1	-2
476.942	1	2
477.282	1	14
477.623	1	19
477.964	1	14
478.305	1	-1
478.645	1	12
478.986	1	2
479.327	1	-1
479.667	1	10
480.008	1	5
480.349	1	13
480.690	1	5
481.030	1	6
481.371	1	8
481.712	1	11
482.053	1	6
482.393	1	11
482.734	1	8
483.075	1	18
483.415	1	16
483.756	1	-2
484.097	1	4
484.437	1	7
484.778	1	10
485.119	1	20
485.459	1	17
485.800	1	11
486.141	1	31
486.481	1	19
486.822	1	7
487.163	1	18
487.503	1	10
487.844	1	15
488.185	1	18
488.525	1	24
488.866	1	21
489.207	1	26
489.547	1	30
489.888	1	15
490.228	1	11
490.569	1	12
490.910	1	18
491.250	1	23
491.591	1	19
491.932	1	28
492.272	1	25
492.613	1	25
492.953	1	26
493.294	1	19
493.635	1	22
493.975	1	19
494.316	1	16
494.656	1	22
494.997	1	14
495.337	1	26
495.678	1	27
496.019	1	12
496.359	1	25
496.700	1	37
497.040	1	27
497.381	1	25
497.721	1	19
498.062	1	19
498.403	1	35
498.743	1	28
499.084	1	30
499.424	1	44
499.765	1	23
500.105	1	27
500.446	1	30
500.786	1	26
501.127	1	39
501.467	1	25
501.808	1	27
502.148	1	32
502.489	1	41
502.829	1	26
503.170	1	41
503.510	1	43
503.851	1	43
504.191	1	32
504.532	1	13
504.872	1	44
505.213	1	39
505.553	1	43
505.894	1	40
506.234	1	33
506.575	1	37
506.915	1	44
507.256	1	41
507.596	1	39
507.936	1	50
508.277	1	33
508.617	1	43
508.958	1	41
509.298	1	34
509.639	1	45
509.979	1	43
510.319	1	41
510.660	1	38
511.000	1	37
511.341	1	52
511.681	1	41
512.022	1	45
512.362	1	41
512.702	1	44
513.043	1	48
513.383	1	38
513.724	1	41
514.064	1	48
514.404	1	42
514.745	1	45
515.085	1	48
515.425	1	46
515.766	1	55
516.106	1	57
516.447	1	46
516.787	1	51
517.127	1	56
517.468	1	62
517.808	1	57
518.148	1	53
518.489	1	59
518.829	1	62
519.169	1	59
519.510	1	60
519.850	1	53
520.190	1	52
520.531	1	46
520.871	1	52
521.211	1	58
521.552	1	63
521.892	1	46
522.232	1	48
522.573	1	45
522.913	1	58
523.253	1	65
523.593	1	64
523.934	1	58
524.274	1	56
524.614	1	50
524.955	1	56
525.295	1	50
525.635	1	52
525.975	1	54
526.316	1	63
526.656	1	61
526.996	1	59
527.337	1	60
527.677	1	54
528.017	1	62
528.357	1	52
528.698	1	41
529.038	1	56
529.378	1	53
529.718	1	71
530.058	1	67
530.399	1	70
530.739	1	64
531.079	1	69
531.419	1	59
531.760	1	58
532.100	1	61
532.440	1	64
532.780	1	56
533.120	1	54
533.461	1	57
533.801	1	65
534.141	1	48
534.481	1	65
534.821	1	63
535.162	1	49
535.502	1	50
535.842	1	61
536.182	1	49
536.522	1	59
536.862	1	64
537.203	1	51
537.543	1	50
537.883	1	52
538.223	1	54
538.563	1	57
538.903	1	47
539.243	1	54
539.584	1	57
539.924	1	48
540.264	1	54
540.604	1	45
540.944	1	45
541.284	1	47
541.624	1	41
541.964	1	55
542.305	1	46
542.645	1	52
542.985	1	62
543.325	1	46
543.665	1	48
544.005	1	47
544.345	1	51
544.685	1	47
545.025	1	45
545.365	1	58
545.705	1	44
546.045	1	47
546.386	1	43
546.726	1	39
547.066	1	63
547.406	1	58
547.746	1	45
548.086	1	46
548.426	1	54
548.766	1	55
549.106	1	59
549.446	1	58
549.786	1	47
550.126	1	44
550.466	1	46
550.806	1	45
551.146	1	50
551.486	1	48
551.826	1	52
552.166	1	50
552.506	1	50
552.846	1	43
553.186	1	51
553.526	1	37
553.866	1	41
554.206	1	54
554.546	1	33
554.886	1	48
555.226	1	40
555.566	1	50
555.906	1	40
556.246	1	41
556.586	1	42
556.926	1	42
557.266	1	44
557.606	1	34
557.946	1	42
558.286	1	36
558.626	1	48
558.966	1	43
559.306	1	50
559.646	1	27
559.986	1	43
560.325	1	32
560.665	1	42
561.005	1	32
561.345	1	32
561.685	1	35
562.025	1	33
562.365	1	38
562.705	1	38
563.045	1	27
563.385	1	37
563.725	1	31
564.064	1	38
564.404	1	39
564.744	1	36
565.084	1	34
565.424	1	40
565.764	1	35
566.104	1	43
566.444	1	38
566.783	1	35
567.123	1	38
567.463	1	26
567.803	1	35
568.143	1	36
568.483	1	31
568.823	1	36
569.162	1	40
569.502	1	36
569.842	1	19
570.182	1	24
570.522	1	39
570.862	1	25
571.201	1	28
571.541	1	27
571.881	1	26
572.221	1	31
572.561	1	33
572.900	1	28
573.240	1	27
573.580	1	24
573.920	1	44
574.260	1	25
574.599	1	18
574.939	1	28
575.279	1	29
575.619	1	26
575.959	1	14
576.298	1	29
576.638	1	42
576.978	1	27
577.318	1	31
577.657	1	25
577.997	1	23
578.337	1	28
578.677	1	22
579.016	1	35
579.356	1	27
579.696	1	11
580.036	1	16
580.375	1	27
580.715	1	32
581.055	1	30
581.394	1	18
581.734	1	27
582.074	1	20
582.414	1	15
582.753	1	31
583.093	1	25
583.433	1	23
583.772	1	25
584.112	1	31
584.452	1	16
584.791	1	16
585.131	1	40
585.471	1	15
585.811	1	15
586.150	1	17
586.490	1	18
586.830	1	17
587.169	1	34
587.509	1	23
587.849	1	25
588.188	1	20
588.528	1	12
588.867	1	31
589.207	1	18
589.547	1	20
589.886	1	12
590.226	1	15
590.566	1	32
590.905	1	16
591.245	1	16
591.585	1	20
591.924	1	14
592.264	1	6
592.603	1	15
592.943	1	12
593.283	1	12
593.622	1	-2
593.962	1	17
594.301	1	15
594.641	1	13
594.981	1	26
595.320	1	15
595.660	1	11
595.999	1	14
596.339	1	12
596.678	1	8
597.018	1	18
597.358	1	6
597.697	1	10
598.037	1	14
598.376	1	7
598.716	1	9
599.055	1	15
599.395	1	14
599.734	1	27
600.074	1	4
600.413	1	11
600.753	1	10
601.092	1	7
601.432	1	6
601.771	1	23
602.111	1	11
602.451	1	19
602.790	1	21
603.130	1	11
603.469	1	17
603.809	1	21
604.148	1	20
604.487	1	14
604.827	1	5
605.166	1	27
605.506	1	4
605.845	1	24
606.185	1	21
606.524	1	10
606.864	1	18
607.203	1	18
607.543	1	27
607.882	1	16
608.222	1	17
608.561	1	25
608.901	1	10
609.240	1	8
609.579	1	9
609.919	1	12
610.258	1	23
610.598	1	12
610.937	1	10
611.277	1	15
611.616	1	12
611.955	1	21
612.295	1	6
612.634	1	14
612.974	1	5
613.313	1	5
613.652	1	25
613.992	1	9
614.331	1	16
614.671	1	11
615.010	1	19
615.349	1	11
615.689	1	16
616.028	1	12
616.368	1	5
616.707	1	20
617.046	1	5
617.386	1	6
617.725	1	9
618.064	1	13
618.404	1	12
618.743	1	22
619.082	1	12
619.422	1	17
619.761	1	0
620.100	1	2
620.440	1	23
620.779	1	14
621.118	1	4
621.458	1	2
621.797	1	10
622.136	1	13
622.476	1	0
622.815	1	10
623.154	1	14
623.494	1	7
623.833	1	18
624.172	1	10
624.511	1	15
624.851	1	7
625.190	1	19
625.529	1	18
625.869	1	18
626.208	1	19
626.547	1	5
626.886	1	7
627.226	1	11
627.565	1	10
627.904	1	7
628.243	1	3
628.583	1	8
628.922	1	5
629.261	1	10
629.600	1	9
629.940	1	15
630.279	1	6
630.618	1	6
630.957	1	14
631.297	1	1
631.636	1	24
631.975	1	1
632.314	1	9
632.653	1	10
632.993	1	5
633.332	1	8
633.671	1	11
634.010	1	17
634.349	1	-5
634.689	1	18
635.028	1	11
635.367	1	1
635.706	1	4
636.045	1	16
636.384	1	8
636.724	1	13
637.063	1	16
637.402	1	15
637.741	1	9
638.080	1	10
638.419	1	-1
638.759	1	16
639.098	1	5
639.437	1	9
639.776	1	-1
640.115	1	13
640.454	1	7
640.793	1	0
641.132	1	19
641.472	1	9
641.811	1	16
642.150	1	2
642.489	1	3
642.828	1	9
643.167	1	-1
643.506	1	20
643.845	1	15
644.184	1	17
644.524	1	11
644.863	1	-3
645.202	1	15
645.541	1	9
645.880	1	11
646.219	1	9
646.558	1	12
646.897	1	15
647.236	1	6
647.575	1	4
647.914	1	8
648.253	1	8
648.592	1	9
648.931	1	10
649.270	1	7
649.610	1	11
649.949	1	2
650.288	1	8
650.627	1	-2
650.966	1	11
651.305	1	2
651.644	1	13
651.983	1	8
652.322	1	10
652.661	1	10
653.000	1	9
653.339	1	7
653.678	1	12
654.017	1	12
654.356	1	6
654.695	1	11
655.034	1	2
655.373	1	8
655.712	1	-5
656.051	1	2
656.390	1	4
656.729	1	6
657.068	1	14
657.406	1	1
657.745	1	24
658.084	1	2
658.423	1	3
658.762	1	2
659.101	1	6
659.440	1	6
659.779	1	13
660.118	1	11
660.457	1	14
660.796	1	-2
661.135	1	-10
661.474	1	15
661.813	1	1
662.152	1	1
662.491	1	-5
662.829	1	3
663.168	1	4
663.507	1	7
663.846	1	0
664.185	1	18
664.524	1	13
664.863	1	2
665.202	1	12
665.541	1	6
665.879	1	10
666.218	1	8
666.557	1	11
666.896	1	2
667.235	1	9
667.574	1	-1
667.913	1	2
668.251	1	13
668.590	1	-3
668.929	1	14
669.268	1	-3
669.607	1	11
669.946	1	7
670.285	1	17
670.623	1	12
670.962	1	0
671.301	1	10
671.640	1	13
671.979	1	-3
672.317	1	15
672.656	1	8
672.995	1	3
673.334	1	0
673.673	1	11
674.011	1	19
674.350	1	12
674.689	1	2
675.028	1	5
675.367	1	8
675.705	1	19
676.044	1	18
676.383	1	13
676.722	1	12
677.060	1	6
677.399	1	7
677.738	1	8
678.077	1	15
678.416	1	-1
678.754	1	8
679.093	1	12
679.432	1	8
679.771	1	13
680.109	1	5
680.448	1	15
680.787	1	8
681.125	1	16
681.464	1	18
681.803	1	2
682.142	1	2
682.480	1	16
682.819	1	7
683.158	1	-1
683.496	1	11
683.835	1	-3
684.174	1	-2
684.512	1	6
684.851	1	9
685.190	1	4
685.529	1	16
685.867	1	6
686.206	1	13
686.545	1	12
686.883	1	7
687.222	1	16
687.561	1	9
687.899	1	-1
688.238	1	2
688.577	1	16
688.746	1	-1