File: Data/GaN_170K_550ms/GaN_sample D_spot 18_UVVIS_170 K_200um_550 ms 2x2mm1_87.txt
340.368	1	2
340.710	1	-10
341.052	1	0
341.394	1	5
341.737	1	0
342.079	1	-1
342.421	1	6
342.763	1	0
343.105	1	8
343.447	1	3
343.789	1	3
344.131	1	-10
344.473	1	5
344.815	1	16
345.157	1	4
345.499	1	-2
345.841	1	5
346.183	1	9
346.526	1	10
346.868	1	9
347.210	1	-3
347.552	1	10
347.894	1	4
348.236	1	11
348.578	1	13
348.920	1	-7
349.262	1	2
349.604	1	12
349.946	1	13
350.288	1	1
350.630	1	19
350.972	1	3
351.314	1	15
351.656	1	3
351.998	1	5
352.340	1	5
352.682	1	9
353.024	1	4
353.366	1	14
353.708	1	18
354.050	1	7
354.392	1	14
354.734	1	18
355.076	1	8
355.418	1	8
355.760	1	7
356.102	1	18
356.444	1	4
356.785	1	15
357.127	1	12
357.469	1	19
357.811	1	12
358.153	1	25
358.495	1	21
358.837	1	13
359.179	1	21
359.521	1	22
359.863	1	33
360.205	1	25
360.547	1	41
360.889	1	36
361.231	1	38
361.572	1	43
361.914	1	48
362.256	1	40
362.598	1	61
362.940	1	68
363.282	1	62
363.624	1	69
363.966	1	60
364.308	1	69
364.649	1	73
364.991	1	96
365.333	1	78
365.675	1	90
366.017	1	101
366.359	1	117
366.701	1	120
367.042	1	118
367.384	1	142
367.726	1	143
368.068	1	142
368.410	1	149
368.752	1	141
369.093	1	129
369.435	1	133
369.777	1	132
370.119	1	125
370.461	1	129
370.803	1	122
371.144	1	118
371.486	1	98
371.828	1	102
372.170	1	102
372.512	1	92
372.853	1	95
373.195	1	87
373.537	1	96
373.879	1	87
374.220	1	86
374.562	1	77
374.904	1	69
375.246	1	70
375.588	1	68
375.929	1	59
376.271	1	55
376.613	1	54
376.955	1	61
377.296	1	58
377.638	1	48
377.980	1	29
378.321	1	42
378.663	1	45
379.005	1	42
379.347	1	48
379.688	1	42
380.030	1	38
380.372	1	43
380.714	1	39
381.055	1	38
381.397	1	43
381.739	1	29
382.080	1	26
382.422	1	32
382.764	1	31
383.105	1	28
383.447	1	42
383.789	1	34
384.130	1	24
384.472	1	29
384.814	1	34
385.156	1	25
385.497	1	33
385.839	1	10
386.180	1	33
386.522	1	35
386.864	1	20
387.205	1	13
387.547	1	17
387.889	1	29
388.230	1	12
388.572	1	12
388.914	1	18
389.255	1	18
389.597	1	11
389.939	1	15
390.280	1	17
390.622	1	16
390.963	1	13
391.305	1	6
391.647	1	-2
391.988	1	12
392.330	1	17
392.671	1	4
393.013	1	7
393.355	1	10
393.696	1	11
394.038	1	3
394.379	1	4
394.721	1	8
395.062	1	9
395.404	1	14
395.746	1	15
396.087	1	14
396.429	1	14
396.770	1	14
397.112	1	9
397.453	1	18
397.795	1	15
398.136	1	10
398.478	1	10
398.819	1	11
399.161	1	-4
399.503	1	5
399.844	1	1
400.186	1	-6
400.527	1	16
400.869	1	-1
401.210	1	4
401.552	1	0
401.893	1	21
402.235	1	13
402.576	1	10
402.918	1	14
403.259	1	19
403.601	1	23
403.942	1	10
404.284	1	-7
404.625	1	5
404.967	1	8
405.308	1	4
405.649	1	5
405.991	1	0
406.332	1	-2
406.674	1	11
407.015	1	3
407.357	1	2
407.698	1	2
408.040	1	4
408.381	1	1
408.722	1	2
409.064	1	14
409.405	1	3
409.747	1	4
410.088	1	13
410.430	1	7
410.771	1	0
411.112	1	1
411.454	1	10
411.795	1	21
412.137	1	-6
412.478	1	8
412.819	1	-4
413.161	1	11
413.502	1	10
413.844	1	17
414.185	1	-2
414.526	1	0
414.868	1	-7
415.209	1	-8
415.550	1	3
415.892	1	3
416.233	1	12
416.575	1	-1
416.916	1	0
417.257	1	6
417.599	1	2
417.940	1	4
418.281	1	-1
418.623	1	6
418.964	1	-2
419.305	1	14
419.647	1	11
419.988	1	10
420.329	1	6
420.671	1	-1
421.012	1	4
421.353	1	3
421.695	1	-10
422.036	1	10
422.377	1	14
422.718	1	8
423.060	1	-9
423.401	1	1
423.742	1	-2
424.084	1	9
424.425	1	-8
424.766	1	-3
425.107	1	-3
425.449	1	4
425.790	1	5
426.131	1	11
426.472	1	3
426.814	1	-6
427.155	1	9
427.496	1	3
427.837	1	9
428.179	1	7
428.520	1	9
428.861	1	6
429.202	1	-3
429.544	1	1
429.885	1	14
430.226	1	6
430.567	1	16
430.909	1	-5
431.250	1	13
431.591	1	-1
431.932	1	-6
432.273	1	6
432.615	1	-1
432.956	1	4
433.297	1	0
433.638	1	14
433.979	1	-5
434.320	1	14
434.662	1	-8
435.003	1	-1
435.344	1	2
435.685	1	-1
436.026	1	6
436.368	1	11
436.709	1	5
437.050	1	3
437.391	1	0
437.732	1	11
438.073	1	-1
438.414	1	-5
438.756	1	12
439.097	1	8
439.438	1	8
439.779	1	10
440.120	1	3
440.461	1	17
440.802	1	10
441.143	1	1
441.485	1	0
441.826	1	9
442.167	1	6
442.508	1	6
442.849	1	0
443.190	1	-2
443.531	1	9
443.872	1	4
444.213	1	-1
444.554	1	0
444.895	1	-9
445.237	1	1
445.578	1	4
445.919	1	7
446.260	1	3
446.601	1	-5
446.942	1	3
447.283	1	8
447.624	1	-2
447.965	1	9
448.306	1	10
448.647	1	-4
448.988	1	18
449.329	1	6
449.670	1	-8
450.011	1	14
450.352	1	-5
450.693	1	5
451.034	1	-4
451.375	1	-2
451.716	1	5
452.057	1	6
452.398	1	8
452.739	1	6
453.080	1	6
453.421	1	10
453.762	1	-1
454.103	1	-7
454.444	1	1
454.785	1	5
455.126	1	14
455.467	1	5
455.808	1	14
456.149	1	6
456.490	1	11
456.831	1	0
457.172	1	-4
457.513	1	4
457.854	1	11
458.195	1	1
458.536	1	-1
458.877	1	13
459.218	1	0
459.559	1	12
459.899	1	3
460.240	1	5
460.581	1	6
460.922	1	-1
461.263	1	0
461.604	1	4
461.945	1	4
462.286	1	3
462.627	1	10
462.968	1	8
463.309	1	8
463.649	1	8
463.990	1	3
464.331	1	5
464.672	1	-1
465.013	1	5
465.354	1	0
465.695	1	9
466.036	1	6
466.376	1	-1
466.717	1	3
467.058	1	3
467.399	1	2
467.740	1	1
468.081	1	1
468.422	1	13
468.762	1	3
469.103	1	8
469.444	1	0
469.785	1	-6
470.126	1	3
470.467	1	7
470.807	1	1
471.148	1	2
471.489	1	8
471.830	1	-2
472.171	1	12
472.511	1	1
472.852	1	1
473.193	1	11
473.534	1	5
473.875	1	5
474.215	1	1
474.556	1	6
474.897	1	10
475.238	1	-3
475.578	1	-3
475.919	1	-4
476.260	1	18
476.601	1	0
476.942	1	3
477.282	1	8
477.623	1	11
477.964	1	11
478.305	1	4
478.645	1	8
478.986	1	7
479.327	1	0
479.667	1	8
480.008	1	4
480.349	1	12
480.690	1	3
481.030	1	7
481.371	1	1
481.712	1	8
482.053	1	-2
482.393	1	-1
482.734	1	11
483.075	1	5
483.415	1	3
483.756	1	5
484.097	1	-4
484.437	1	3
484.778	1	-1
485.119	1	4
485.459	1	11
485.800	1	5
486.141	1	15
486.481	1	-7
486.822	1	12
487.163	1	22
487.503	1	11
487.844	1	11
488.185	1	12
488.525	1	18
488.866	1	12
489.207	1	10
489.547	1	4
489.888	1	5
490.228	1	4
490.569	1	8
490.910	1	4
491.250	1	14
491.591	1	10
491.932	1	9
492.272	1	14
492.613	1	9
492.953	1	4
493.294	1	0
493.635	1	9
493.975	1	7
494.316	1	17
494.656	1	11
494.997	1	6
495.337	1	15
495.678	1	13
496.019	1	1
496.359	1	9
496.700	1	11
497.040	1	9
497.381	1	4
497.721	1	3
498.062	1	15
498.403	1	18
498.743	1	14
499.084	1	9
499.424	1	21
499.765	1	-8
500.105	1	11
500.446	1	9
500.786	1	1
501.127	1	12
501.467	1	14
501.808	1	7
502.148	1	23
502.489	1	15
502.829	1	20
503.170	1	26
503.510	1	23
503.851	1	17
504.191	1	1
504.532	1	-2
504.872	1	19
505.213	1	5
505.553	1	15
505.894	1	27
506.234	1	7
506.575	1	19
506.915	1	17
507.256	1	7
507.596	1	20
507.936	1	23
508.277	1	10
508.617	1	29
508.958	1	13
509.298	1	14
509.639	1	27
509.979	1	24
510.319	1	10
510.660	1	3
511.000	1	24
511.341	1	23
511.681	1	8
512.022	1	14
512.362	1	16
512.702	1	16
513.043	1	21
513.383	1	25
513.724	1	7
514.064	1	20
514.404	1	12
514.745	1	16
515.085	1	17
515.425	1	25
515.766	1	18
516.106	1	19
516.447	1	8
516.787	1	18
517.127	1	18
517.468	1	21
517.808	1	26
518.148	1	21
518.489	1	16
518.829	1	20
519.169	1	22
519.510	1	25
519.850	1	19
520.190	1	21
520.531	1	27
520.871	1	22
521.211	1	16
521.552	1	15
521.892	1	17
522.232	1	5
522.573	1	24
522.913	1	25
523.253	1	33
523.593	1	21
523.934	1	34
524.274	1	26
524.614	1	30
524.955	1	31
525.295	1	16
525.635	1	22
525.975	1	18
526.316	1	27
526.656	1	32
526.996	1	26
527.337	1	15
527.677	1	15
528.017	1	21
528.357	1	13
528.698	1	9
529.038	1	17
529.378	1	20
529.718	1	31
530.058	1	29
530.399	1	21
530.739	1	25
531.079	1	22
531.419	1	35
531.760	1	22
532.100	1	22
532.440	1	29
532.780	1	10
533.120	1	16
533.461	1	28
533.801	1	33
534.141	1	14
534.481	1	18
534.821	1	18
535.162	1	32
535.502	1	21
535.842	1	23
536.182	1	18
536.522	1	25
536.862	1	28
537.203	1	21
537.543	1	18
537.883	1	24
538.223	1	20
538.563	1	22
538.903	1	21
539.243	1	20
539.584	1	16
539.924	1	13
540.264	1	20
540.604	1	14
540.944	1	14
541.284	1	21
541.624	1	14
541.964	1	21
542.305	1	16
542.645	1	5
542.985	1	23
543.325	1	17
543.665	1	16
544.005	1	30
544.345	1	16
544.685	1	26
545.025	1	20
545.365	1	9
545.705	1	17
546.045	1	16
546.386	1	16
546.726	1	14
547.066	1	26
547.406	1	16
547.746	1	8
548.086	1	20
548.426	1	24
548.766	1	16
549.106	1	29
549.446	1	20
549.786	1	23
550.126	1	19
550.466	1	23
550.806	1	17
551.146	1	24
551.486	1	24
551.826	1	26
552.166	1	11
552.506	1	12
552.846	1	5
553.186	1	20
553.526	1	14
553.866	1	11
554.206	1	15
554.546	1	9
554.886	1	8
555.226	1	12
555.566	1	20
555.906	1	14
556.246	1	14
556.586	1	10
556.926	1	17
557.266	1	12
557.606	1	20
557.946	1	21
558.286	1	19
558.626	1	18
558.966	1	16
559.306	1	20
559.646	1	10
559.986	1	16
560.325	1	13
560.665	1	19
561.005	1	23
561.345	1	9
561.685	1	11
562.025	1	10
562.365	1	20
562.705	1	23
563.045	1	15
563.385	1	17
563.725	1	14
564.064	1	17
564.404	1	10
564.744	1	21
565.084	1	22
565.424	1	11
565.764	1	10
566.104	1	14
566.444	1	15
566.783	1	10
567.123	1	19
567.463	1	19
567.803	1	18
568.143	1	10
568.483	1	15
568.823	1	9
569.162	1	11
569.502	1	0
569.842	1	3
570.182	1	9
570.522	1	14
570.862	1	13
571.201	1	20
571.541	1	4
571.881	1	8
572.221	1	16
572.561	1	21
572.900	1	6
573.240	1	12
573.580	1	15
573.920	1	18
574.260	1	13
574.599	1	2
574.939	1	3
575.279	1	5
575.619	1	19
575.959	1	3
576.298	1	19
576.638	1	15
576.978	1	12
577.318	1	17
577.657	1	14
577.997	1	-11
578.337	1	18
578.677	1	16
579.016	1	12
579.356	1	-1
579.696	1	9
580.036	1	1
580.375	1	12
580.715	1	12
581.055	1	7
581.394	1	18
581.734	1	17
582.074	1	6
582.414	1	3
582.753	1	15
583.093	1	14
583.433	1	4
583.772	1	6
584.112	1	16
584.452	1	2
584.791	1	10
585.131	1	20
585.471	1	15
585.811	1	0
586.150	1	0
586.490	1	17
586.830	1	-5
587.169	1	19
587.509	1	11
587.849	1	5
588.188	1	15
588.528	1	4
588.867	1	12
589.207	1	4
589.547	1	9
589.886	1	-6
590.226	1	11
590.566	1	8
590.905	1	12
591.245	1	7
591.585	1	11
591.924	1	5
592.264	1	1
592.603	1	15
592.943	1	8
593.283	1	11
593.622	1	1
593.962	1	5
594.301	1	12
594.641	1	8
594.981	1	13
595.320	1	-2
595.660	1	4
595.999	1	9
596.339	1	9
596.678	1	1
597.018	1	14
597.358	1	6
597.697	1	10
598.037	1	13
598.376	1	-3
598.716	1	10
599.055	1	-3
599.395	1	3
599.734	1	17
600.074	1	4
600.413	1	-4
600.753	1	7
601.092	1	5
601.432	1	3
601.771	1	9
602.111	1	0
602.451	1	9
602.790	1	9
603.130	1	2
603.469	1	6
603.809	1	6
604.148	1	13
604.487	1	15
604.827	1	-2
605.166	1	7
605.506	1	1
605.845	1	5
606.185	1	12
606.524	1	13
606.864	1	2
607.203	1	7
607.543	1	15
607.882	1	1
608.222	1	0
608.561	1	18
608.901	1	13
609.240	1	-4
609.579	1	6
609.919	1	-1
610.258	1	15
610.598	1	13
610.937	1	3
611.277	1	8
611.616	1	9
611.955	1	5
612.295	1	5
612.634	1	-5
612.974	1	7
613.313	1	1
613.652	1	11
613.992	1	2
614.331	1	4
614.671	1	20
615.010	1	9
615.349	1	7
615.689	1	15
616.028	1	8
616.368	1	4
616.707	1	3
617.046	1	2
617.386	1	1
617.725	1	4
618.064	1	4
618.404	1	2
618.743	1	10
619.082	1	9
619.422	1	-7
619.761	1	-5
620.100	1	6
620.440	1	9
620.779	1	7
621.118	1	-2
621.458	1	8
621.797	1	5
622.136	1	-3
622.476	1	3
622.815	1	8
623.154	1	6
623.494	1	-2
623.833	1	7
624.172	1	5
624.511	1	18
624.851	1	-1
625.190	1	7
625.529	1	9
625.869	1	11
626.208	1	0
626.547	1	5
626.886	1	8
627.226	1	3
627.565	1	9
627.904	1	2
628.243	1	-5
628.583	1	-3
628.922	1	-4
629.261	1	3
629.600	1	1
629.940	1	2
630.279	1	-1
630.618	1	-7
630.957	1	11
631.297	1	2
631.636	1	19
631.975	1	0
632.314	1	1
632.653	1	17
632.993	1	-4
633.332	1	5
633.671	1	13
634.010	1	11
634.349	1	-2
634.689	1	20
635.028	1	2
635.367	1	2
635.706	1	2
636.045	1	13
636.384	1	-2
636.724	1	13
637.063	1	2
637.402	1	9
637.741	1	0
638.080	1	6
638.419	1	5
638.759	1	16
639.098	1	-8
639.437	1	-6
639.776	1	-3
640.115	1	8
640.454	1	-7
640.793	1	4
641.132	1	7
641.472	1	-1
641.811	1	8
642.150	1	-3
642.489	1	0
642.828	1	5
643.167	1	8
643.506	1	3
643.845	1	7
644.184	1	14
644.524	1	0
644.863	1	-1
645.202	1	11
645.541	1	4
645.880	1	10
646.219	1	11
646.558	1	4
646.897	1	8
647.236	1	2
647.575	1	1
647.914	1	6
648.253	1	5
648.592	1	7
648.931	1	9
649.270	1	-1
649.610	1	10
649.949	1	-2
650.288	1	10
650.627	1	7
650.966	1	8
651.305	1	-12
651.644	1	13
651.983	1	13
652.322	1	0
652.661	1	9
653.000	1	-3
653.339	1	-2
653.678	1	0
654.017	1	18
654.356	1	0
654.695	1	16
655.034	1	4
655.373	1	17
655.712	1	0
656.051	1	4
656.390	1	13
656.729	1	5
657.068	1	8
657.406	1	1
657.745	1	9
658.084	1	-5
658.423	1	5
658.762	1	1
659.101	1	7
659.440	1	0
659.779	1	0
660.118	1	10
660.457	1	6
660.796	1	1
661.135	1	-6
661.474	1	11
661.813	1	3
662.152	1	-5
662.491	1	-11
662.829	1	-7
663.168	1	7
663.507	1	4
663.846	1	-5
664.185	1	0
664.524	1	14
664.863	1	1
665.202	1	14
665.541	1	3
665.879	1	4
666.218	1	7
666.557	1	8
666.896	1	9
667.235	1	8
667.574	1	-5
667.913	1	0
668.251	1	13
668.590	1	2
668.929	1	-1
669.268	1	0
669.607	1	7
669.946	1	1
670.285	1	16
670.623	1	4
670.962	1	-1
671.301	1	7
671.640	1	1
671.979	1	4
672.317	1	8
672.656	1	7
672.995	1	-5
673.334	1	0
673.673	1	0
674.011	1	5
674.350	1	1
674.689	1	0
675.028	1	1
675.367	1	5
675.705	1	6
676.044	1	15
676.383	1	13
676.722	1	17
677.060	1	1
677.399	1	-3
677.738	1	6
678.077	1	21
678.416	1	0
678.754	1	3
679.093	1	12
679.432	1	2
679.771	1	19
680.109	1	5
680.448	1	5
680.787	1	-2
681.125	1	12
681.464	1	5
681.803	1	16
682.142	1	1
682.480	1	7
682.819	1	9
683.158	1	3
683.496	1	14
683.835	1	0
684.174	1	4
684.512	1	5
684.851	1	4
685.190	1	4
685.529	1	19
685.867	1	9
686.206	1	21
686.545	1	11
686.883	1	12
687.222	1	9
687.561	1	-1
687.899	1	-2
688.238	1	2
688.577	1	22
688.746	1	2