File: Data/GaN_170K_550ms/GaN_sample D_spot 18_UVVIS_170 K_200um_550 ms 2x2mm1_190.txt
340.368	1	3
340.710	1	-8
341.052	1	-3
341.394	1	-5
341.737	1	9
342.079	1	3
342.421	1	-2
342.763	1	7
343.105	1	10
343.447	1	-7
343.789	1	3
344.131	1	8
344.473	1	3
344.815	1	16
345.157	1	-3
345.499	1	2
345.841	1	-1
346.183	1	5
346.526	1	4
346.868	1	-3
347.210	1	-11
347.552	1	9
347.894	1	-5
348.236	1	-8
348.578	1	-1
348.920	1	3
349.262	1	7
349.604	1	11
349.946	1	6
350.288	1	-10
350.630	1	19
350.972	1	0
351.314	1	6
351.656	1	-12
351.998	1	1
352.340	1	4
352.682	1	6
353.024	1	-5
353.366	1	10
353.708	1	7
354.050	1	-6
354.392	1	-1
354.734	1	5
355.076	1	0
355.418	1	-9
355.760	1	0
356.102	1	6
356.444	1	0
356.785	1	2
357.127	1	1
357.469	1	4
357.811	1	6
358.153	1	9
358.495	1	4
358.837	1	5
359.179	1	-2
359.521	1	9
359.863	1	8
360.205	1	17
360.547	1	23
360.889	1	13
361.231	1	11
361.572	1	16
361.914	1	9
362.256	1	11
362.598	1	14
362.940	1	20
363.282	1	10
363.624	1	12
363.966	1	12
364.308	1	18
364.649	1	5
364.991	1	20
365.333	1	4
365.675	1	13
366.017	1	14
366.359	1	9
366.701	1	24
367.042	1	19
367.384	1	19
367.726	1	33
368.068	1	27
368.410	1	31
368.752	1	33
369.093	1	20
369.435	1	15
369.777	1	18
370.119	1	16
370.461	1	16
370.803	1	14
371.144	1	19
371.486	1	10
371.828	1	18
372.170	1	23
372.512	1	11
372.853	1	17
373.195	1	17
373.537	1	29
373.879	1	17
374.220	1	15
374.562	1	5
374.904	1	8
375.246	1	17
375.588	1	6
375.929	1	1
376.271	1	14
376.613	1	11
376.955	1	17
377.296	1	11
377.638	1	5
377.980	1	-3
378.321	1	0
378.663	1	8
379.005	1	8
379.347	1	6
379.688	1	10
380.030	1	10
380.372	1	0
380.714	1	20
381.055	1	-1
381.397	1	11
381.739	1	2
382.080	1	-1
382.422	1	-1
382.764	1	6
383.105	1	9
383.447	1	16
383.789	1	24
384.130	1	-1
384.472	1	-6
384.814	1	4
385.156	1	-2
385.497	1	6
385.839	1	4
386.180	1	10
386.522	1	8
386.864	1	5
387.205	1	-6
387.547	1	4
387.889	1	3
388.230	1	2
388.572	1	2
388.914	1	7
389.255	1	9
389.597	1	9
389.939	1	1
390.280	1	4
390.622	1	2
390.963	1	6
391.305	1	-1
391.647	1	-11
391.988	1	11
392.330	1	4
392.671	1	-4
393.013	1	1
393.355	1	2
393.696	1	5
394.038	1	-3
394.379	1	2
394.721	1	3
395.062	1	5
395.404	1	-1
395.746	1	10
396.087	1	6
396.429	1	2
396.770	1	11
397.112	1	0
397.453	1	14
397.795	1	-3
398.136	1	7
398.478	1	3
398.819	1	2
399.161	1	1
399.503	1	13
399.844	1	5
400.186	1	9
400.527	1	15
400.869	1	7
401.210	1	1
401.552	1	3
401.893	1	13
402.235	1	10
402.576	1	0
402.918	1	-2
403.259	1	4
403.601	1	15
403.942	1	5
404.284	1	-1
404.625	1	6
404.967	1	8
405.308	1	3
405.649	1	-3
405.991	1	8
406.332	1	-1
406.674	1	3
407.015	1	7
407.357	1	-5
407.698	1	8
408.040	1	6
408.381	1	1
408.722	1	-3
409.064	1	8
409.405	1	3
409.747	1	6
410.088	1	8
410.430	1	2
410.771	1	4
411.112	1	8
411.454	1	-3
411.795	1	15
412.137	1	-2
412.478	1	-1
412.819	1	-4
413.161	1	15
413.502	1	1
413.844	1	11
414.185	1	-11
414.526	1	4
414.868	1	-3
415.209	1	-7
415.550	1	0
415.892	1	-1
416.233	1	-3
416.575	1	6
416.916	1	-9
417.257	1	4
417.599	1	-2
417.940	1	2
418.281	1	-4
418.623	1	-5
418.964	1	-14
419.305	1	-3
419.647	1	5
419.988	1	0
420.329	1	4
420.671	1	1
421.012	1	3
421.353	1	7
421.695	1	-9
422.036	1	0
422.377	1	6
422.718	1	15
423.060	1	-3
423.401	1	4
423.742	1	0
424.084	1	17
424.425	1	-5
424.766	1	0
425.107	1	-1
425.449	1	0
425.790	1	6
426.131	1	7
426.472	1	6
426.814	1	-11
427.155	1	12
427.496	1	0
427.837	1	5
428.179	1	-6
428.520	1	3
428.861	1	-3
429.202	1	1
429.544	1	3
429.885	1	-2
430.226	1	1
430.567	1	1
430.909	1	-6
431.250	1	11
431.591	1	1
431.932	1	1
432.273	1	6
432.615	1	-2
432.956	1	9
433.297	1	2
433.638	1	13
433.979	1	-2
434.320	1	6
434.662	1	-10
435.003	1	2
435.344	1	6
435.685	1	0
436.026	1	-11
436.368	1	9
436.709	1	7
437.050	1	1
437.391	1	-5
437.732	1	10
438.073	1	-1
438.414	1	0
438.756	1	1
439.097	1	2
439.438	1	2
439.779	1	12
440.120	1	-7
440.461	1	10
440.802	1	2
441.143	1	0
441.485	1	-1
441.826	1	11
442.167	1	1
442.508	1	3
442.849	1	4
443.190	1	4
443.531	1	-2
443.872	1	-4
444.213	1	-4
444.554	1	-4
444.895	1	-15
445.237	1	-10
445.578	1	7
445.919	1	10
446.260	1	2
446.601	1	-6
446.942	1	6
447.283	1	10
447.624	1	2
447.965	1	-1
448.306	1	-1
448.647	1	-1
448.988	1	2
449.329	1	0
449.670	1	-10
450.011	1	7
450.352	1	-5
450.693	1	0
451.034	1	6
451.375	1	4
451.716	1	5
452.057	1	5
452.398	1	1
452.739	1	8
453.080	1	-4
453.421	1	-7
453.762	1	-2
454.103	1	-8
454.444	1	-11
454.785	1	-7
455.126	1	10
455.467	1	-1
455.808	1	14
456.149	1	-1
456.490	1	0
456.831	1	-3
457.172	1	0
457.513	1	11
457.854	1	3
458.195	1	4
458.536	1	3
458.877	1	7
459.218	1	4
459.559	1	1
459.899	1	6
460.240	1	0
460.581	1	1
460.922	1	-6
461.263	1	3
461.604	1	5
461.945	1	0
462.286	1	-10
462.627	1	4
462.968	1	8
463.309	1	4
463.649	1	3
463.990	1	-2
464.331	1	-1
464.672	1	2
465.013	1	10
465.354	1	-5
465.695	1	2
466.036	1	-8
466.376	1	7
466.717	1	-1
467.058	1	5
467.399	1	13
467.740	1	-2
468.081	1	3
468.422	1	5
468.762	1	12
469.103	1	9
469.444	1	1
469.785	1	-4
470.126	1	9
470.467	1	16
470.807	1	1
471.148	1	-6
471.489	1	0
471.830	1	3
472.171	1	9
472.511	1	-1
472.852	1	7
473.193	1	4
473.534	1	6
473.875	1	-1
474.215	1	-4
474.556	1	6
474.897	1	1
475.238	1	2
475.578	1	1
475.919	1	6
476.260	1	13
476.601	1	5
476.942	1	-4
477.282	1	8
477.623	1	2
477.964	1	4
478.305	1	-7
478.645	1	2
478.986	1	-8
479.327	1	-10
479.667	1	-1
480.008	1	1
480.349	1	4
480.690	1	8
481.030	1	9
481.371	1	4
481.712	1	-2
482.053	1	1
482.393	1	4
482.734	1	6
483.075	1	-2
483.415	1	2
483.756	1	0
484.097	1	-4
484.437	1	3
484.778	1	-3
485.119	1	6
485.459	1	-8
485.800	1	-6
486.141	1	12
486.481	1	2
486.822	1	-1
487.163	1	-1
487.503	1	7
487.844	1	7
488.185	1	1
488.525	1	9
488.866	1	5
489.207	1	-4
489.547	1	13
489.888	1	2
490.228	1	-6
490.569	1	-3
490.910	1	6
491.250	1	6
491.591	1	1
491.932	1	14
492.272	1	4
492.613	1	-9
492.953	1	3
493.294	1	6
493.635	1	-4
493.975	1	9
494.316	1	-4
494.656	1	9
494.997	1	8
495.337	1	11
495.678	1	10
496.019	1	-18
496.359	1	-1
496.700	1	2
497.040	1	4
497.381	1	-2
497.721	1	-10
498.062	1	-12
498.403	1	12
498.743	1	2
499.084	1	-5
499.424	1	4
499.765	1	-9
500.105	1	-8
500.446	1	3
500.786	1	-3
501.127	1	7
501.467	1	2
501.808	1	-2
502.148	1	4
502.489	1	3
502.829	1	5
503.170	1	5
503.510	1	0
503.851	1	0
504.191	1	-5
504.532	1	-10
504.872	1	3
505.213	1	-1
505.553	1	-4
505.894	1	3
506.234	1	-3
506.575	1	11
506.915	1	4
507.256	1	-7
507.596	1	10
507.936	1	12
508.277	1	0
508.617	1	6
508.958	1	2
509.298	1	8
509.639	1	7
509.979	1	6
510.319	1	-5
510.660	1	-1
511.000	1	6
511.341	1	7
511.681	1	2
512.022	1	4
512.362	1	-3
512.702	1	0
513.043	1	4
513.383	1	3
513.724	1	6
514.064	1	-1
514.404	1	-4
514.745	1	-2
515.085	1	7
515.425	1	1
515.766	1	8
516.106	1	1
516.447	1	6
516.787	1	0
517.127	1	0
517.468	1	6
517.808	1	10
518.148	1	8
518.489	1	10
518.829	1	13
519.169	1	5
519.510	1	11
519.850	1	-3
520.190	1	4
520.531	1	8
520.871	1	4
521.211	1	3
521.552	1	3
521.892	1	3
522.232	1	-4
522.573	1	8
522.913	1	7
523.253	1	20
523.593	1	3
523.934	1	1
524.274	1	4
524.614	1	13
524.955	1	-1
525.295	1	7
525.635	1	6
525.975	1	1
526.316	1	19
526.656	1	12
526.996	1	2
527.337	1	-2
527.677	1	-4
528.017	1	14
528.357	1	-4
528.698	1	-1
529.038	1	-3
529.378	1	5
529.718	1	3
530.058	1	15
530.399	1	1
530.739	1	6
531.079	1	9
531.419	1	9
531.760	1	-3
532.100	1	8
532.440	1	-5
532.780	1	-1
533.120	1	11
533.461	1	-3
533.801	1	0
534.141	1	-5
534.481	1	10
534.821	1	2
535.162	1	1
535.502	1	9
535.842	1	11
536.182	1	-1
536.522	1	14
536.862	1	4
537.203	1	8
537.543	1	0
537.883	1	14
538.223	1	6
538.563	1	6
538.903	1	7
539.243	1	-1
539.584	1	3
539.924	1	-1
540.264	1	5
540.604	1	9
540.944	1	0
541.284	1	12
541.624	1	0
541.964	1	9
542.305	1	8
542.645	1	7
542.985	1	9
543.325	1	4
543.665	1	3
544.005	1	11
544.345	1	9
544.685	1	-4
545.025	1	5
545.365	1	-3
545.705	1	6
546.045	1	1
546.386	1	8
546.726	1	1
547.066	1	10
547.406	1	7
547.746	1	-9
548.086	1	-1
548.426	1	10
548.766	1	3
549.106	1	5
549.446	1	3
549.786	1	11
550.126	1	10
550.466	1	0
550.806	1	3
551.146	1	10
551.486	1	-8
551.826	1	5
552.166	1	8
552.506	1	12
552.846	1	4
553.186	1	10
553.526	1	4
553.866	1	0
554.206	1	4
554.546	1	-7
554.886	1	10
555.226	1	-8
555.566	1	-3
555.906	1	2
556.246	1	12
556.586	1	-4
556.926	1	-3
557.266	1	5
557.606	1	-2
557.946	1	11
558.286	1	3
558.626	1	9
558.966	1	1
559.306	1	3
559.646	1	0
559.986	1	5
560.325	1	-5
560.665	1	2
561.005	1	6
561.345	1	-5
561.685	1	2
562.025	1	-7
562.365	1	3
562.705	1	12
563.045	1	7
563.385	1	4
563.725	1	4
564.064	1	8
564.404	1	7
564.744	1	5
565.084	1	7
565.424	1	1
565.764	1	3
566.104	1	8
566.444	1	11
566.783	1	3
567.123	1	10
567.463	1	-10
567.803	1	2
568.143	1	5
568.483	1	0
568.823	1	4
569.162	1	12
569.502	1	-7
569.842	1	1
570.182	1	2
570.522	1	5
570.862	1	-6
571.201	1	5
571.541	1	-5
571.881	1	-6
572.221	1	12
572.561	1	0
572.900	1	4
573.240	1	2
573.580	1	3
573.920	1	13
574.260	1	6
574.599	1	-1
574.939	1	-11
575.279	1	5
575.619	1	11
575.959	1	-4
576.298	1	9
576.638	1	-2
576.978	1	5
577.318	1	4
577.657	1	-1
577.997	1	0
578.337	1	11
578.677	1	12
579.016	1	0
579.356	1	-5
579.696	1	-4
580.036	1	-3
580.375	1	2
580.715	1	4
581.055	1	12
581.394	1	-5
581.734	1	5
582.074	1	4
582.414	1	-6
582.753	1	5
583.093	1	0
583.433	1	9
583.772	1	1
584.112	1	6
584.452	1	-4
584.791	1	3
585.131	1	13
585.471	1	-1
585.811	1	-6
586.150	1	-4
586.490	1	7
586.830	1	0
587.169	1	3
587.509	1	-6
587.849	1	-7
588.188	1	8
588.528	1	-7
588.867	1	5
589.207	1	-3
589.547	1	6
589.886	1	-5
590.226	1	2
590.566	1	10
590.905	1	5
591.245	1	-1
591.585	1	-4
591.924	1	-3
592.264	1	-7
592.603	1	-5
592.943	1	5
593.283	1	5
593.622	1	-8
593.962	1	3
594.301	1	6
594.641	1	1
594.981	1	16
595.320	1	0
595.660	1	4
595.999	1	6
596.339	1	5
596.678	1	-5
597.018	1	1
597.358	1	-2
597.697	1	1
598.037	1	1
598.376	1	-7
598.716	1	4
599.055	1	-6
599.395	1	2
599.734	1	8
600.074	1	-3
600.413	1	-8
600.753	1	3
601.092	1	-1
601.432	1	1
601.771	1	11
602.111	1	7
602.451	1	8
602.790	1	10
603.130	1	-7
603.469	1	1
603.809	1	3
604.148	1	-2
604.487	1	-6
604.827	1	-3
605.166	1	6
605.506	1	-7
605.845	1	8
606.185	1	6
606.524	1	-2
606.864	1	3
607.203	1	0
607.543	1	5
607.882	1	0
608.222	1	-2
608.561	1	2
608.901	1	1
609.240	1	-2
609.579	1	3
609.919	1	-3
610.258	1	9
610.598	1	6
610.937	1	0
611.277	1	3
611.616	1	3
611.955	1	9
612.295	1	3
612.634	1	-5
612.974	1	1
613.313	1	-5
613.652	1	11
613.992	1	-2
614.331	1	-2
614.671	1	6
615.010	1	2
615.349	1	7
615.689	1	7
616.028	1	-7
616.368	1	-3
616.707	1	6
617.046	1	-6
617.386	1	-6
617.725	1	1
618.064	1	-3
618.404	1	13
618.743	1	4
619.082	1	10
619.422	1	-1
619.761	1	-5
620.100	1	7
620.440	1	-10
620.779	1	2
621.118	1	-4
621.458	1	4
621.797	1	-4
622.136	1	10
622.476	1	-3
622.815	1	4
623.154	1	10
623.494	1	-3
623.833	1	0
624.172	1	0
624.511	1	7
624.851	1	-2
625.190	1	5
625.529	1	5
625.869	1	8
626.208	1	0
626.547	1	-1
626.886	1	0
627.226	1	-1
627.565	1	4
627.904	1	-3
628.243	1	-2
628.583	1	-3
628.922	1	-6
629.261	1	7
629.600	1	1
629.940	1	-4
630.279	1	3
630.618	1	-1
630.957	1	5
631.297	1	-3
631.636	1	10
631.975	1	0
632.314	1	2
632.653	1	7
632.993	1	-4
633.332	1	1
633.671	1	6
634.010	1	1
634.349	1	-8
634.689	1	10
635.028	1	6
635.367	1	-7
635.706	1	-9
636.045	1	6
636.384	1	-7
636.724	1	7
637.063	1	5
637.402	1	7
637.741	1	-7
638.080	1	15
638.419	1	0
638.759	1	4
639.098	1	-7
639.437	1	4
639.776	1	0
640.115	1	10
640.454	1	-4
640.793	1	4
641.132	1	0
641.472	1	-7
641.811	1	16
642.150	1	0
642.489	1	-7
642.828	1	0
643.167	1	0
643.506	1	15
643.845	1	12
644.184	1	6
644.524	1	0
644.863	1	-10
645.202	1	5
645.541	1	-1
645.880	1	6
646.219	1	0
646.558	1	4
646.897	1	1
647.236	1	-1
647.575	1	-3
647.914	1	-1
648.253	1	-5
648.592	1	8
648.931	1	10
649.270	1	0
649.610	1	5
649.949	1	-3
650.288	1	-2
650.627	1	-3
650.966	1	-4
651.305	1	-6
651.644	1	6
651.983	1	8
652.322	1	-9
652.661	1	6
653.000	1	5
653.339	1	-13
653.678	1	-2
654.017	1	-2
654.356	1	-1
654.695	1	8
655.034	1	1
655.373	1	2
655.712	1	-3
656.051	1	7
656.390	1	1
656.729	1	9
657.068	1	8
657.406	1	8
657.745	1	7
658.084	1	-10
658.423	1	3
658.762	1	2
659.101	1	3
659.440	1	-1
659.779	1	4
660.118	1	9
660.457	1	4
660.796	1	6
661.135	1	-14
661.474	1	6
661.813	1	3
662.152	1	-4
662.491	1	-9
662.829	1	-7
663.168	1	14
663.507	1	3
663.846	1	-4
664.185	1	4
664.524	1	6
664.863	1	2
665.202	1	12
665.541	1	4
665.879	1	2
666.218	1	21
666.557	1	1
666.896	1	8
667.235	1	-1
667.574	1	-4
667.913	1	-7
668.251	1	9
668.590	1	3
668.929	1	5
669.268	1	2
669.607	1	-3
669.946	1	-4
670.285	1	10
670.623	1	-1
670.962	1	-6
671.301	1	0
671.640	1	3
671.979	1	5
672.317	1	-3
672.656	1	4
672.995	1	-3
673.334	1	-2
673.673	1	8
674.011	1	8
674.350	1	2
674.689	1	-1
675.028	1	-7
675.367	1	-3
675.705	1	2
676.044	1	7
676.383	1	-3
676.722	1	16
677.060	1	-8
677.399	1	-1
677.738	1	2
678.077	1	16
678.416	1	0
678.754	1	6
679.093	1	3
679.432	1	9
679.771	1	5
680.109	1	-1
680.448	1	8
680.787	1	3
681.125	1	6
681.464	1	6
681.803	1	6
682.142	1	-4
682.480	1	8
682.819	1	9
683.158	1	15
683.496	1	-8
683.835	1	-4
684.174	1	3
684.512	1	1
684.851	1	-3
685.190	1	-10
685.529	1	10
685.867	1	10
686.206	1	6
686.545	1	6
686.883	1	2
687.222	1	2
687.561	1	7
687.899	1	-8
688.238	1	-3
688.577	1	7
688.746	1	-7