File: Data/GaN_170K_550ms/GaN_sample D_spot 18_UVVIS_170 K_200um_550 ms 2x2mm1_118.txt
340.368	1	10
340.710	1	-10
341.052	1	3
341.394	1	2
341.737	1	-1
342.079	1	-3
342.421	1	6
342.763	1	5
343.105	1	13
343.447	1	-6
343.789	1	3
344.131	1	5
344.473	1	1
344.815	1	11
345.157	1	6
345.499	1	-7
345.841	1	-2
346.183	1	5
346.526	1	3
346.868	1	0
347.210	1	-2
347.552	1	10
347.894	1	1
348.236	1	-2
348.578	1	8
348.920	1	-4
349.262	1	3
349.604	1	3
349.946	1	7
350.288	1	7
350.630	1	15
350.972	1	2
351.314	1	2
351.656	1	0
351.998	1	5
352.340	1	7
352.682	1	0
353.024	1	0
353.366	1	4
353.708	1	11
354.050	1	-5
354.392	1	0
354.734	1	10
355.076	1	3
355.418	1	6
355.760	1	7
356.102	1	10
356.444	1	4
356.785	1	8
357.127	1	9
357.469	1	12
357.811	1	22
358.153	1	14
358.495	1	11
358.837	1	9
359.179	1	3
359.521	1	15
359.863	1	17
360.205	1	22
360.547	1	30
360.889	1	23
361.231	1	18
361.572	1	20
361.914	1	17
362.256	1	18
362.598	1	18
362.940	1	27
363.282	1	34
363.624	1	37
363.966	1	37
364.308	1	47
364.649	1	25
364.991	1	42
365.333	1	34
365.675	1	52
366.017	1	52
366.359	1	55
366.701	1	57
367.042	1	55
367.384	1	61
367.726	1	77
368.068	1	64
368.410	1	68
368.752	1	63
369.093	1	57
369.435	1	62
369.777	1	56
370.119	1	59
370.461	1	58
370.803	1	51
371.144	1	55
371.486	1	39
371.828	1	51
372.170	1	49
372.512	1	47
372.853	1	51
373.195	1	48
373.537	1	53
373.879	1	45
374.220	1	44
374.562	1	41
374.904	1	28
375.246	1	33
375.588	1	27
375.929	1	33
376.271	1	38
376.613	1	34
376.955	1	24
377.296	1	33
377.638	1	36
377.980	1	16
378.321	1	20
378.663	1	13
379.005	1	14
379.347	1	15
379.688	1	18
380.030	1	14
380.372	1	14
380.714	1	23
381.055	1	11
381.397	1	26
381.739	1	12
382.080	1	10
382.422	1	14
382.764	1	12
383.105	1	11
383.447	1	13
383.789	1	22
384.130	1	8
384.472	1	3
384.814	1	21
385.156	1	12
385.497	1	20
385.839	1	-2
386.180	1	14
386.522	1	16
386.864	1	15
387.205	1	11
387.547	1	10
387.889	1	16
388.230	1	-1
388.572	1	11
388.914	1	13
389.255	1	14
389.597	1	5
389.939	1	5
390.280	1	7
390.622	1	5
390.963	1	9
391.305	1	7
391.647	1	-6
391.988	1	9
392.330	1	19
392.671	1	11
393.013	1	1
393.355	1	9
393.696	1	11
394.038	1	4
394.379	1	-2
394.721	1	0
395.062	1	2
395.404	1	12
395.746	1	16
396.087	1	10
396.429	1	4
396.770	1	15
397.112	1	1
397.453	1	13
397.795	1	3
398.136	1	6
398.478	1	-1
398.819	1	18
399.161	1	4
399.503	1	10
399.844	1	-1
400.186	1	0
400.527	1	9
400.869	1	-5
401.210	1	-1
401.552	1	3
401.893	1	9
402.235	1	7
402.576	1	3
402.918	1	-2
403.259	1	8
403.601	1	12
403.942	1	4
404.284	1	-8
404.625	1	0
404.967	1	4
405.308	1	7
405.649	1	1
405.991	1	6
406.332	1	-6
406.674	1	8
407.015	1	4
407.357	1	4
407.698	1	-1
408.040	1	7
408.381	1	12
408.722	1	0
409.064	1	4
409.405	1	9
409.747	1	3
410.088	1	6
410.430	1	4
410.771	1	9
411.112	1	11
411.454	1	4
411.795	1	17
412.137	1	-10
412.478	1	5
412.819	1	-2
413.161	1	1
413.502	1	0
413.844	1	15
414.185	1	7
414.526	1	7
414.868	1	-4
415.209	1	-13
415.550	1	-2
415.892	1	5
416.233	1	5
416.575	1	0
416.916	1	4
417.257	1	4
417.599	1	1
417.940	1	7
418.281	1	-4
418.623	1	5
418.964	1	0
419.305	1	-2
419.647	1	7
419.988	1	8
420.329	1	5
420.671	1	-3
421.012	1	-4
421.353	1	-3
421.695	1	-10
422.036	1	6
422.377	1	-1
422.718	1	9
423.060	1	-5
423.401	1	3
423.742	1	-2
424.084	1	9
424.425	1	-10
424.766	1	4
425.107	1	-3
425.449	1	-3
425.790	1	-3
426.131	1	6
426.472	1	3
426.814	1	-6
427.155	1	6
427.496	1	5
427.837	1	-1
428.179	1	4
428.520	1	4
428.861	1	6
429.202	1	1
429.544	1	3
429.885	1	-3
430.226	1	3
430.567	1	10
430.909	1	-5
431.250	1	11
431.591	1	5
431.932	1	-1
432.273	1	1
432.615	1	7
432.956	1	6
433.297	1	3
433.638	1	8
433.979	1	7
434.320	1	4
434.662	1	-13
435.003	1	8
435.344	1	-1
435.685	1	1
436.026	1	5
436.368	1	5
436.709	1	2
437.050	1	-9
437.391	1	-7
437.732	1	-1
438.073	1	-2
438.414	1	-12
438.756	1	-9
439.097	1	2
439.438	1	9
439.779	1	10
440.120	1	-7
440.461	1	13
440.802	1	6
441.143	1	0
441.485	1	-8
441.826	1	0
442.167	1	10
442.508	1	-5
442.849	1	-7
443.190	1	1
443.531	1	4
443.872	1	1
444.213	1	-6
444.554	1	5
444.895	1	-7
445.237	1	-4
445.578	1	11
445.919	1	1
446.260	1	14
446.601	1	-3
446.942	1	15
447.283	1	4
447.624	1	2
447.965	1	2
448.306	1	5
448.647	1	-2
448.988	1	9
449.329	1	15
449.670	1	-8
450.011	1	10
450.352	1	-5
450.693	1	0
451.034	1	1
451.375	1	0
451.716	1	-2
452.057	1	-1
452.398	1	2
452.739	1	-3
453.080	1	2
453.421	1	2
453.762	1	-1
454.103	1	-2
454.444	1	-6
454.785	1	-3
455.126	1	6
455.467	1	-6
455.808	1	8
456.149	1	5
456.490	1	0
456.831	1	-7
457.172	1	2
457.513	1	18
457.854	1	8
458.195	1	4
458.536	1	-8
458.877	1	7
459.218	1	-5
459.559	1	0
459.899	1	8
460.240	1	0
460.581	1	8
460.922	1	2
461.263	1	-5
461.604	1	7
461.945	1	4
462.286	1	-1
462.627	1	6
462.968	1	12
463.309	1	6
463.649	1	-4
463.990	1	1
464.331	1	1
464.672	1	2
465.013	1	12
465.354	1	-4
465.695	1	6
466.036	1	-10
466.376	1	11
466.717	1	-3
467.058	1	5
467.399	1	9
467.740	1	-2
468.081	1	1
468.422	1	11
468.762	1	11
469.103	1	4
469.444	1	-3
469.785	1	-7
470.126	1	5
470.467	1	12
470.807	1	8
471.148	1	-8
471.489	1	1
471.830	1	-8
472.171	1	6
472.511	1	8
472.852	1	0
473.193	1	4
473.534	1	1
473.875	1	1
474.215	1	2
474.556	1	7
474.897	1	5
475.238	1	-10
475.578	1	-2
475.919	1	15
476.260	1	3
476.601	1	2
476.942	1	-3
477.282	1	8
477.623	1	9
477.964	1	3
478.305	1	4
478.645	1	8
478.986	1	1
479.327	1	-7
479.667	1	-6
480.008	1	6
480.349	1	3
480.690	1	10
481.030	1	1
481.371	1	4
481.712	1	1
482.053	1	-4
482.393	1	0
482.734	1	13
483.075	1	2
483.415	1	4
483.756	1	5
484.097	1	-3
484.437	1	6
484.778	1	-6
485.119	1	8
485.459	1	5
485.800	1	-11
486.141	1	5
486.481	1	7
486.822	1	9
487.163	1	3
487.503	1	3
487.844	1	1
488.185	1	13
488.525	1	16
488.866	1	9
489.207	1	3
489.547	1	9
489.888	1	10
490.228	1	0
490.569	1	0
490.910	1	-1
491.250	1	4
491.591	1	9
491.932	1	1
492.272	1	7
492.613	1	15
492.953	1	11
493.294	1	1
493.635	1	-1
493.975	1	8
494.316	1	-3
494.656	1	4
494.997	1	-3
495.337	1	19
495.678	1	7
496.019	1	-4
496.359	1	5
496.700	1	17
497.040	1	6
497.381	1	10
497.721	1	-2
498.062	1	5
498.403	1	6
498.743	1	8
499.084	1	5
499.424	1	17
499.765	1	0
500.105	1	-8
500.446	1	11
500.786	1	7
501.127	1	6
501.467	1	3
501.808	1	9
502.148	1	2
502.489	1	3
502.829	1	8
503.170	1	24
503.510	1	4
503.851	1	6
504.191	1	9
504.532	1	-1
504.872	1	3
505.213	1	9
505.553	1	3
505.894	1	14
506.234	1	-2
506.575	1	9
506.915	1	3
507.256	1	8
507.596	1	7
507.936	1	13
508.277	1	3
508.617	1	13
508.958	1	8
509.298	1	-5
509.639	1	8
509.979	1	6
510.319	1	4
510.660	1	-1
511.000	1	1
511.341	1	16
511.681	1	1
512.022	1	18
512.362	1	6
512.702	1	6
513.043	1	10
513.383	1	6
513.724	1	-2
514.064	1	16
514.404	1	5
514.745	1	8
515.085	1	15
515.425	1	9
515.766	1	7
516.106	1	16
516.447	1	8
516.787	1	6
517.127	1	8
517.468	1	15
517.808	1	12
518.148	1	10
518.489	1	17
518.829	1	8
519.169	1	3
519.510	1	14
519.850	1	5
520.190	1	10
520.531	1	13
520.871	1	2
521.211	1	15
521.552	1	15
521.892	1	13
522.232	1	6
522.573	1	22
522.913	1	11
523.253	1	22
523.593	1	8
523.934	1	13
524.274	1	4
524.614	1	12
524.955	1	11
525.295	1	0
525.635	1	4
525.975	1	9
526.316	1	24
526.656	1	17
526.996	1	5
527.337	1	0
527.677	1	12
528.017	1	7
528.357	1	-2
528.698	1	7
529.038	1	2
529.378	1	11
529.718	1	14
530.058	1	19
530.399	1	14
530.739	1	8
531.079	1	16
531.419	1	11
531.760	1	7
532.100	1	12
532.440	1	5
532.780	1	2
533.120	1	9
533.461	1	17
533.801	1	1
534.141	1	9
534.481	1	18
534.821	1	5
535.162	1	14
535.502	1	18
535.842	1	5
536.182	1	8
536.522	1	13
536.862	1	16
537.203	1	8
537.543	1	11
537.883	1	22
538.223	1	8
538.563	1	8
538.903	1	11
539.243	1	4
539.584	1	5
539.924	1	1
540.264	1	14
540.604	1	15
540.944	1	12
541.284	1	17
541.624	1	15
541.964	1	15
542.305	1	6
542.645	1	12
542.985	1	12
543.325	1	7
543.665	1	12
544.005	1	16
544.345	1	9
544.685	1	15
545.025	1	3
545.365	1	10
545.705	1	7
546.045	1	8
546.386	1	8
546.726	1	8
547.066	1	20
547.406	1	6
547.746	1	-1
548.086	1	10
548.426	1	19
548.766	1	4
549.106	1	15
549.446	1	8
549.786	1	1
550.126	1	11
550.466	1	17
550.806	1	0
551.146	1	14
551.486	1	13
551.826	1	20
552.166	1	-1
552.506	1	13
552.846	1	8
553.186	1	5
553.526	1	3
553.866	1	8
554.206	1	17
554.546	1	5
554.886	1	10
555.226	1	-1
555.566	1	14
555.906	1	13
556.246	1	12
556.586	1	12
556.926	1	17
557.266	1	11
557.606	1	2
557.946	1	8
558.286	1	6
558.626	1	14
558.966	1	5
559.306	1	13
559.646	1	8
559.986	1	11
560.325	1	-3
560.665	1	6
561.005	1	23
561.345	1	1
561.685	1	10
562.025	1	-5
562.365	1	5
562.705	1	15
563.045	1	5
563.385	1	15
563.725	1	-1
564.064	1	7
564.404	1	13
564.744	1	2
565.084	1	13
565.424	1	12
565.764	1	9
566.104	1	2
566.444	1	11
566.783	1	9
567.123	1	0
567.463	1	5
567.803	1	7
568.143	1	10
568.483	1	11
568.823	1	7
569.162	1	14
569.502	1	4
569.842	1	-7
570.182	1	5
570.522	1	4
570.862	1	15
571.201	1	9
571.541	1	1
571.881	1	-1
572.221	1	5
572.561	1	0
572.900	1	0
573.240	1	0
573.580	1	-1
573.920	1	28
574.260	1	10
574.599	1	-4
574.939	1	2
575.279	1	2
575.619	1	22
575.959	1	-11
576.298	1	10
576.638	1	13
576.978	1	5
577.318	1	4
577.657	1	7
577.997	1	-2
578.337	1	11
578.677	1	14
579.016	1	11
579.356	1	-1
579.696	1	-1
580.036	1	-2
580.375	1	-1
580.715	1	5
581.055	1	3
581.394	1	10
581.734	1	8
582.074	1	5
582.414	1	2
582.753	1	0
583.093	1	6
583.433	1	4
583.772	1	-2
584.112	1	12
584.452	1	-2
584.791	1	4
585.131	1	12
585.471	1	12
585.811	1	-13
586.150	1	0
586.490	1	5
586.830	1	0
587.169	1	16
587.509	1	4
587.849	1	4
588.188	1	4
588.528	1	5
588.867	1	0
589.207	1	5
589.547	1	10
589.886	1	6
590.226	1	9
590.566	1	14
590.905	1	11
591.245	1	0
591.585	1	2
591.924	1	7
592.264	1	-6
592.603	1	8
592.943	1	8
593.283	1	11
593.622	1	0
593.962	1	8
594.301	1	9
594.641	1	1
594.981	1	18
595.320	1	12
595.660	1	-4
595.999	1	0
596.339	1	3
596.678	1	5
597.018	1	1
597.358	1	-1
597.697	1	2
598.037	1	5
598.376	1	-2
598.716	1	7
599.055	1	2
599.395	1	1
599.734	1	5
600.074	1	-3
600.413	1	-1
600.753	1	14
601.092	1	4
601.432	1	-1
601.771	1	8
602.111	1	-1
602.451	1	13
602.790	1	7
603.130	1	4
603.469	1	5
603.809	1	-1
604.148	1	8
604.487	1	13
604.827	1	-5
605.166	1	12
605.506	1	5
605.845	1	2
606.185	1	8
606.524	1	3
606.864	1	8
607.203	1	4
607.543	1	14
607.882	1	-1
608.222	1	8
608.561	1	5
608.901	1	-2
609.240	1	-7
609.579	1	3
609.919	1	11
610.258	1	11
610.598	1	6
610.937	1	9
611.277	1	5
611.616	1	2
611.955	1	14
612.295	1	9
612.634	1	1
612.974	1	12
613.313	1	-2
613.652	1	16
613.992	1	5
614.331	1	9
614.671	1	13
615.010	1	4
615.349	1	12
615.689	1	16
616.028	1	2
616.368	1	-1
616.707	1	7
617.046	1	0
617.386	1	0
617.725	1	8
618.064	1	-1
618.404	1	2
618.743	1	1
619.082	1	11
619.422	1	2
619.761	1	0
620.100	1	2
620.440	1	10
620.779	1	3
621.118	1	-1
621.458	1	-1
621.797	1	9
622.136	1	-1
622.476	1	0
622.815	1	0
623.154	1	7
623.494	1	4
623.833	1	2
624.172	1	6
624.511	1	2
624.851	1	1
625.190	1	11
625.529	1	7
625.869	1	13
626.208	1	-1
626.547	1	-3
626.886	1	7
627.226	1	10
627.565	1	9
627.904	1	9
628.243	1	6
628.583	1	-6
628.922	1	-3
629.261	1	12
629.600	1	5
629.940	1	-1
630.279	1	1
630.618	1	0
630.957	1	8
631.297	1	-2
631.636	1	15
631.975	1	2
632.314	1	-4
632.653	1	12
632.993	1	0
633.332	1	5
633.671	1	9
634.010	1	9
634.349	1	-11
634.689	1	8
635.028	1	11
635.367	1	0
635.706	1	5
636.045	1	0
636.384	1	2
636.724	1	9
637.063	1	5
637.402	1	9
637.741	1	-6
638.080	1	7
638.419	1	-4
638.759	1	5
639.098	1	-9
639.437	1	-3
639.776	1	10
640.115	1	2
640.454	1	4
640.793	1	-4
641.132	1	-1
641.472	1	-1
641.811	1	14
642.150	1	-1
642.489	1	-5
642.828	1	-4
643.167	1	-3
643.506	1	11
643.845	1	8
644.184	1	17
644.524	1	4
644.863	1	-12
645.202	1	13
645.541	1	6
645.880	1	5
646.219	1	8
646.558	1	14
646.897	1	4
647.236	1	-1
647.575	1	5
647.914	1	6
648.253	1	7
648.592	1	6
648.931	1	7
649.270	1	-2
649.610	1	3
649.949	1	-4
650.288	1	-1
650.627	1	1
650.966	1	1
651.305	1	-5
651.644	1	16
651.983	1	2
652.322	1	2
652.661	1	0
653.000	1	0
653.339	1	0
653.678	1	3
654.017	1	-2
654.356	1	7
654.695	1	19
655.034	1	-6
655.373	1	5
655.712	1	-10
656.051	1	6
656.390	1	-5
656.729	1	-3
657.068	1	2
657.406	1	4
657.745	1	13
658.084	1	-8
658.423	1	5
658.762	1	3
659.101	1	0
659.440	1	3
659.779	1	6
660.118	1	7
660.457	1	8
660.796	1	3
661.135	1	-4
661.474	1	4
661.813	1	-2
662.152	1	-1
662.491	1	-14
662.829	1	2
663.168	1	3
663.507	1	-3
663.846	1	3
664.185	1	12
664.524	1	-4
664.863	1	8
665.202	1	13
665.541	1	-5
665.879	1	4
666.218	1	10
666.557	1	-2
666.896	1	1
667.235	1	-10
667.574	1	-2
667.913	1	-6
668.251	1	8
668.590	1	0
668.929	1	7
669.268	1	12
669.607	1	0
669.946	1	10
670.285	1	8
670.623	1	4
670.962	1	-4
671.301	1	4
671.640	1	8
671.979	1	-1
672.317	1	4
672.656	1	5
672.995	1	-7
673.334	1	-1
673.673	1	3
674.011	1	9
674.350	1	7
674.689	1	1
675.028	1	12
675.367	1	3
675.705	1	-2
676.044	1	16
676.383	1	0
676.722	1	13
677.060	1	5
677.399	1	0
677.738	1	6
678.077	1	13
678.416	1	8
678.754	1	5
679.093	1	12
679.432	1	7
679.771	1	7
680.109	1	-2
680.448	1	6
680.787	1	-5
681.125	1	-5
681.464	1	10
681.803	1	17
682.142	1	1
682.480	1	3
682.819	1	14
683.158	1	3
683.496	1	2
683.835	1	-4
684.174	1	7
684.512	1	-4
684.851	1	-1
685.190	1	-5
685.529	1	10
685.867	1	4
686.206	1	10
686.545	1	7
686.883	1	6
687.222	1	9
687.561	1	7
687.899	1	-1
688.238	1	-7
688.577	1	15
688.746	1	4