File: Data/GaN_170K_550ms/GaN_sample D_spot 18_UVVIS_170 K_200um_550 ms 2x2mm1_94.txt
340.368	1	3
340.710	1	-6
341.052	1	7
341.394	1	8
341.737	1	-2
342.079	1	3
342.421	1	6
342.763	1	2
343.105	1	11
343.447	1	-7
343.789	1	14
344.131	1	-1
344.473	1	7
344.815	1	9
345.157	1	3
345.499	1	2
345.841	1	8
346.183	1	13
346.526	1	7
346.868	1	8
347.210	1	-3
347.552	1	5
347.894	1	2
348.236	1	9
348.578	1	10
348.920	1	0
349.262	1	0
349.604	1	14
349.946	1	10
350.288	1	-1
350.630	1	12
350.972	1	1
351.314	1	3
351.656	1	8
351.998	1	0
352.340	1	11
352.682	1	5
353.024	1	2
353.366	1	-2
353.708	1	16
354.050	1	-3
354.392	1	3
354.734	1	10
355.076	1	6
355.418	1	8
355.760	1	6
356.102	1	12
356.444	1	5
356.785	1	21
357.127	1	16
357.469	1	8
357.811	1	13
358.153	1	16
358.495	1	8
358.837	1	8
359.179	1	18
359.521	1	26
359.863	1	19
360.205	1	23
360.547	1	30
360.889	1	39
361.231	1	38
361.572	1	48
361.914	1	23
362.256	1	36
362.598	1	37
362.940	1	56
363.282	1	45
363.624	1	53
363.966	1	53
364.308	1	65
364.649	1	50
364.991	1	67
365.333	1	74
365.675	1	87
366.017	1	80
366.359	1	81
366.701	1	97
367.042	1	89
367.384	1	110
367.726	1	112
368.068	1	117
368.410	1	118
368.752	1	122
369.093	1	96
369.435	1	110
369.777	1	100
370.119	1	98
370.461	1	99
370.803	1	90
371.144	1	87
371.486	1	82
371.828	1	83
372.170	1	78
372.512	1	69
372.853	1	85
373.195	1	72
373.537	1	76
373.879	1	69
374.220	1	65
374.562	1	61
374.904	1	66
375.246	1	55
375.588	1	67
375.929	1	50
376.271	1	60
376.613	1	49
376.955	1	61
377.296	1	51
377.638	1	52
377.980	1	26
378.321	1	42
378.663	1	38
379.005	1	28
379.347	1	33
379.688	1	35
380.030	1	33
380.372	1	38
380.714	1	35
381.055	1	31
381.397	1	26
381.739	1	16
382.080	1	22
382.422	1	28
382.764	1	21
383.105	1	21
383.447	1	25
383.789	1	27
384.130	1	13
384.472	1	12
384.814	1	21
385.156	1	21
385.497	1	22
385.839	1	12
386.180	1	20
386.522	1	24
386.864	1	12
387.205	1	4
387.547	1	15
387.889	1	23
388.230	1	4
388.572	1	20
388.914	1	10
389.255	1	16
389.597	1	16
389.939	1	6
390.280	1	6
390.622	1	6
390.963	1	11
391.305	1	7
391.647	1	-4
391.988	1	10
392.330	1	14
392.671	1	8
393.013	1	8
393.355	1	9
393.696	1	14
394.038	1	10
394.379	1	-2
394.721	1	-2
395.062	1	5
395.404	1	12
395.746	1	13
396.087	1	11
396.429	1	6
396.770	1	10
397.112	1	-2
397.453	1	8
397.795	1	6
398.136	1	0
398.478	1	1
398.819	1	3
399.161	1	1
399.503	1	9
399.844	1	-1
400.186	1	0
400.527	1	19
400.869	1	9
401.210	1	10
401.552	1	9
401.893	1	16
402.235	1	7
402.576	1	9
402.918	1	-1
403.259	1	9
403.601	1	7
403.942	1	9
404.284	1	-1
404.625	1	3
404.967	1	6
405.308	1	14
405.649	1	3
405.991	1	1
406.332	1	-2
406.674	1	10
407.015	1	5
407.357	1	7
407.698	1	3
408.040	1	10
408.381	1	8
408.722	1	-6
409.064	1	-1
409.405	1	6
409.747	1	2
410.088	1	2
410.430	1	-3
410.771	1	6
411.112	1	6
411.454	1	6
411.795	1	11
412.137	1	-7
412.478	1	4
412.819	1	-1
413.161	1	12
413.502	1	0
413.844	1	11
414.185	1	8
414.526	1	1
414.868	1	-2
415.209	1	-8
415.550	1	1
415.892	1	0
416.233	1	2
416.575	1	5
416.916	1	-2
417.257	1	6
417.599	1	1
417.940	1	-1
418.281	1	-10
418.623	1	-3
418.964	1	-3
419.305	1	-1
419.647	1	6
419.988	1	2
420.329	1	7
420.671	1	-5
421.012	1	7
421.353	1	5
421.695	1	-4
422.036	1	5
422.377	1	3
422.718	1	15
423.060	1	3
423.401	1	-3
423.742	1	-2
424.084	1	16
424.425	1	-3
424.766	1	0
425.107	1	-1
425.449	1	8
425.790	1	7
426.131	1	12
426.472	1	-1
426.814	1	2
427.155	1	12
427.496	1	-1
427.837	1	11
428.179	1	4
428.520	1	4
428.861	1	-5
429.202	1	-1
429.544	1	4
429.885	1	6
430.226	1	8
430.567	1	12
430.909	1	-1
431.250	1	18
431.591	1	8
431.932	1	-2
432.273	1	6
432.615	1	0
432.956	1	5
433.297	1	-4
433.638	1	9
433.979	1	5
434.320	1	11
434.662	1	-5
435.003	1	5
435.344	1	-3
435.685	1	5
436.026	1	10
436.368	1	4
436.709	1	-9
437.050	1	-8
437.391	1	-1
437.732	1	4
438.073	1	1
438.414	1	2
438.756	1	1
439.097	1	1
439.438	1	5
439.779	1	8
440.120	1	-3
440.461	1	18
440.802	1	15
441.143	1	3
441.485	1	0
441.826	1	7
442.167	1	6
442.508	1	-1
442.849	1	-3
443.190	1	2
443.531	1	4
443.872	1	-2
444.213	1	-5
444.554	1	1
444.895	1	-13
445.237	1	-2
445.578	1	8
445.919	1	12
446.260	1	6
446.601	1	1
446.942	1	4
447.283	1	7
447.624	1	1
447.965	1	2
448.306	1	1
448.647	1	8
448.988	1	11
449.329	1	3
449.670	1	-9
450.011	1	8
450.352	1	-6
450.693	1	3
451.034	1	-5
451.375	1	1
451.716	1	7
452.057	1	7
452.398	1	8
452.739	1	0
453.080	1	6
453.421	1	-8
453.762	1	-5
454.103	1	6
454.444	1	-2
454.785	1	5
455.126	1	7
455.467	1	-9
455.808	1	15
456.149	1	3
456.490	1	1
456.831	1	-3
457.172	1	0
457.513	1	6
457.854	1	15
458.195	1	-2
458.536	1	3
458.877	1	7
459.218	1	3
459.559	1	4
459.899	1	-1
460.240	1	-4
460.581	1	0
460.922	1	-5
461.263	1	-3
461.604	1	7
461.945	1	5
462.286	1	0
462.627	1	6
462.968	1	11
463.309	1	10
463.649	1	11
463.990	1	5
464.331	1	0
464.672	1	6
465.013	1	7
465.354	1	-8
465.695	1	9
466.036	1	0
466.376	1	5
466.717	1	0
467.058	1	5
467.399	1	5
467.740	1	7
468.081	1	8
468.422	1	13
468.762	1	12
469.103	1	7
469.444	1	-4
469.785	1	-6
470.126	1	-4
470.467	1	10
470.807	1	9
471.148	1	-10
471.489	1	-2
471.830	1	-4
472.171	1	8
472.511	1	5
472.852	1	5
473.193	1	8
473.534	1	12
473.875	1	9
474.215	1	0
474.556	1	10
474.897	1	4
475.238	1	-5
475.578	1	6
475.919	1	7
476.260	1	13
476.601	1	8
476.942	1	-3
477.282	1	13
477.623	1	5
477.964	1	6
478.305	1	-3
478.645	1	3
478.986	1	2
479.327	1	-1
479.667	1	-9
480.008	1	14
480.349	1	13
480.690	1	7
481.030	1	4
481.371	1	0
481.712	1	9
482.053	1	5
482.393	1	-2
482.734	1	8
483.075	1	8
483.415	1	6
483.756	1	16
484.097	1	-7
484.437	1	4
484.778	1	-6
485.119	1	7
485.459	1	8
485.800	1	3
486.141	1	9
486.481	1	0
486.822	1	16
487.163	1	12
487.503	1	8
487.844	1	4
488.185	1	9
488.525	1	11
488.866	1	18
489.207	1	17
489.547	1	18
489.888	1	11
490.228	1	5
490.569	1	13
490.910	1	7
491.250	1	12
491.591	1	8
491.932	1	10
492.272	1	19
492.613	1	2
492.953	1	8
493.294	1	5
493.635	1	4
493.975	1	8
494.316	1	10
494.656	1	5
494.997	1	10
495.337	1	12
495.678	1	9
496.019	1	3
496.359	1	9
496.700	1	15
497.040	1	6
497.381	1	18
497.721	1	3
498.062	1	6
498.403	1	6
498.743	1	11
499.084	1	3
499.424	1	11
499.765	1	0
500.105	1	7
500.446	1	9
500.786	1	8
501.127	1	20
501.467	1	15
501.808	1	15
502.148	1	17
502.489	1	10
502.829	1	13
503.170	1	25
503.510	1	21
503.851	1	13
504.191	1	14
504.532	1	3
504.872	1	14
505.213	1	15
505.553	1	1
505.894	1	19
506.234	1	-1
506.575	1	13
506.915	1	16
507.256	1	4
507.596	1	23
507.936	1	23
508.277	1	8
508.617	1	19
508.958	1	15
509.298	1	18
509.639	1	19
509.979	1	19
510.319	1	8
510.660	1	3
511.000	1	14
511.341	1	19
511.681	1	10
512.022	1	21
512.362	1	18
512.702	1	14
513.043	1	19
513.383	1	20
513.724	1	8
514.064	1	28
514.404	1	5
514.745	1	6
515.085	1	14
515.425	1	10
515.766	1	19
516.106	1	25
516.447	1	15
516.787	1	23
517.127	1	24
517.468	1	17
517.808	1	18
518.148	1	10
518.489	1	17
518.829	1	18
519.169	1	6
519.510	1	19
519.850	1	15
520.190	1	15
520.531	1	20
520.871	1	12
521.211	1	16
521.552	1	22
521.892	1	14
522.232	1	17
522.573	1	20
522.913	1	25
523.253	1	31
523.593	1	17
523.934	1	13
524.274	1	11
524.614	1	15
524.955	1	12
525.295	1	12
525.635	1	20
525.975	1	15
526.316	1	25
526.656	1	22
526.996	1	23
527.337	1	13
527.677	1	16
528.017	1	16
528.357	1	12
528.698	1	15
529.038	1	15
529.378	1	19
529.718	1	17
530.058	1	21
530.399	1	23
530.739	1	16
531.079	1	19
531.419	1	22
531.760	1	25
532.100	1	18
532.440	1	30
532.780	1	16
533.120	1	19
533.461	1	15
533.801	1	19
534.141	1	15
534.481	1	27
534.821	1	18
535.162	1	19
535.502	1	20
535.842	1	22
536.182	1	12
536.522	1	22
536.862	1	18
537.203	1	11
537.543	1	18
537.883	1	27
538.223	1	19
538.563	1	18
538.903	1	16
539.243	1	7
539.584	1	17
539.924	1	16
540.264	1	18
540.604	1	16
540.944	1	8
541.284	1	20
541.624	1	-1
541.964	1	15
542.305	1	15
542.645	1	17
542.985	1	26
543.325	1	15
543.665	1	5
544.005	1	27
544.345	1	18
544.685	1	17
545.025	1	14
545.365	1	17
545.705	1	10
546.045	1	9
546.386	1	16
546.726	1	12
547.066	1	20
547.406	1	19
547.746	1	6
548.086	1	17
548.426	1	18
548.766	1	15
549.106	1	16
549.446	1	13
549.786	1	19
550.126	1	13
550.466	1	20
550.806	1	12
551.146	1	14
551.486	1	14
551.826	1	21
552.166	1	10
552.506	1	25
552.846	1	14
553.186	1	8
553.526	1	8
553.866	1	4
554.206	1	10
554.546	1	10
554.886	1	10
555.226	1	5
555.566	1	14
555.906	1	3
556.246	1	9
556.586	1	4
556.926	1	21
557.266	1	20
557.606	1	14
557.946	1	21
558.286	1	9
558.626	1	19
558.966	1	17
559.306	1	21
559.646	1	15
559.986	1	15
560.325	1	11
560.665	1	10
561.005	1	11
561.345	1	2
561.685	1	11
562.025	1	-3
562.365	1	9
562.705	1	13
563.045	1	14
563.385	1	17
563.725	1	2
564.064	1	11
564.404	1	-2
564.744	1	15
565.084	1	15
565.424	1	12
565.764	1	7
566.104	1	12
566.444	1	6
566.783	1	17
567.123	1	20
567.463	1	5
567.803	1	9
568.143	1	8
568.483	1	5
568.823	1	10
569.162	1	6
569.502	1	8
569.842	1	3
570.182	1	8
570.522	1	17
570.862	1	13
571.201	1	6
571.541	1	1
571.881	1	2
572.221	1	22
572.561	1	12
572.900	1	6
573.240	1	13
573.580	1	9
573.920	1	13
574.260	1	15
574.599	1	6
574.939	1	7
575.279	1	11
575.619	1	9
575.959	1	2
576.298	1	11
576.638	1	16
576.978	1	10
577.318	1	12
577.657	1	0
577.997	1	10
578.337	1	7
578.677	1	9
579.016	1	7
579.356	1	7
579.696	1	-3
580.036	1	4
580.375	1	7
580.715	1	16
581.055	1	7
581.394	1	7
581.734	1	9
582.074	1	11
582.414	1	5
582.753	1	9
583.093	1	5
583.433	1	20
583.772	1	3
584.112	1	14
584.452	1	-3
584.791	1	11
585.131	1	15
585.471	1	8
585.811	1	1
586.150	1	6
586.490	1	10
586.830	1	-4
587.169	1	17
587.509	1	1
587.849	1	7
588.188	1	7
588.528	1	-2
588.867	1	-4
589.207	1	4
589.547	1	5
589.886	1	6
590.226	1	15
590.566	1	2
590.905	1	10
591.245	1	7
591.585	1	9
591.924	1	-2
592.264	1	-5
592.603	1	5
592.943	1	6
593.283	1	16
593.622	1	-1
593.962	1	7
594.301	1	9
594.641	1	13
594.981	1	11
595.320	1	2
595.660	1	8
595.999	1	10
596.339	1	6
596.678	1	5
597.018	1	9
597.358	1	8
597.697	1	7
598.037	1	-4
598.376	1	-5
598.716	1	5
599.055	1	6
599.395	1	2
599.734	1	11
600.074	1	7
600.413	1	2
600.753	1	12
601.092	1	8
601.432	1	6
601.771	1	11
602.111	1	5
602.451	1	8
602.790	1	16
603.130	1	4
603.469	1	1
603.809	1	2
604.148	1	6
604.487	1	14
604.827	1	0
605.166	1	11
605.506	1	3
605.845	1	4
606.185	1	6
606.524	1	3
606.864	1	3
607.203	1	3
607.543	1	11
607.882	1	3
608.222	1	0
608.561	1	16
608.901	1	12
609.240	1	4
609.579	1	3
609.919	1	2
610.258	1	5
610.598	1	7
610.937	1	10
611.277	1	5
611.616	1	1
611.955	1	9
612.295	1	8
612.634	1	7
612.974	1	3
613.313	1	3
613.652	1	18
613.992	1	9
614.331	1	-5
614.671	1	6
615.010	1	10
615.349	1	6
615.689	1	9
616.028	1	1
616.368	1	4
616.707	1	6
617.046	1	0
617.386	1	2
617.725	1	-1
618.064	1	3
618.404	1	3
618.743	1	7
619.082	1	9
619.422	1	-5
619.761	1	-1
620.100	1	7
620.440	1	7
620.779	1	-2
621.118	1	0
621.458	1	9
621.797	1	5
622.136	1	10
622.476	1	-4
622.815	1	18
623.154	1	12
623.494	1	7
623.833	1	7
624.172	1	0
624.511	1	7
624.851	1	2
625.190	1	10
625.529	1	2
625.869	1	12
626.208	1	8
626.547	1	-6
626.886	1	7
627.226	1	17
627.565	1	5
627.904	1	-1
628.243	1	5
628.583	1	1
628.922	1	-10
629.261	1	1
629.600	1	2
629.940	1	0
630.279	1	-1
630.618	1	2
630.957	1	0
631.297	1	3
631.636	1	11
631.975	1	1
632.314	1	8
632.653	1	2
632.993	1	0
633.332	1	-3
633.671	1	5
634.010	1	3
634.349	1	-3
634.689	1	10
635.028	1	12
635.367	1	5
635.706	1	1
636.045	1	10
636.384	1	4
636.724	1	12
637.063	1	4
637.402	1	21
637.741	1	2
638.080	1	6
638.419	1	-2
638.759	1	6
639.098	1	-5
639.437	1	2
639.776	1	12
640.115	1	12
640.454	1	-3
640.793	1	-1
641.132	1	2
641.472	1	-3
641.811	1	11
642.150	1	3
642.489	1	-4
642.828	1	5
643.167	1	0
643.506	1	12
643.845	1	12
644.184	1	8
644.524	1	6
644.863	1	-12
645.202	1	15
645.541	1	8
645.880	1	4
646.219	1	2
646.558	1	5
646.897	1	12
647.236	1	3
647.575	1	4
647.914	1	9
648.253	1	9
648.592	1	-1
648.931	1	-1
649.270	1	-2
649.610	1	16
649.949	1	5
650.288	1	11
650.627	1	1
650.966	1	10
651.305	1	0
651.644	1	12
651.983	1	6
652.322	1	2
652.661	1	6
653.000	1	-1
653.339	1	1
653.678	1	7
654.017	1	17
654.356	1	-1
654.695	1	13
655.034	1	3
655.373	1	7
655.712	1	-2
656.051	1	4
656.390	1	5
656.729	1	8
657.068	1	7
657.406	1	-2
657.745	1	6
658.084	1	-10
658.423	1	1
658.762	1	4
659.101	1	2
659.440	1	-4
659.779	1	4
660.118	1	11
660.457	1	-2
660.796	1	1
661.135	1	-12
661.474	1	12
661.813	1	-1
662.152	1	6
662.491	1	0
662.829	1	4
663.168	1	6
663.507	1	9
663.846	1	-3
664.185	1	10
664.524	1	7
664.863	1	-6
665.202	1	13
665.541	1	9
665.879	1	13
666.218	1	16
666.557	1	7
666.896	1	5
667.235	1	3
667.574	1	1
667.913	1	0
668.251	1	5
668.590	1	-5
668.929	1	0
669.268	1	4
669.607	1	-5
669.946	1	9
670.285	1	9
670.623	1	4
670.962	1	3
671.301	1	8
671.640	1	7
671.979	1	-1
672.317	1	8
672.656	1	-2
672.995	1	1
673.334	1	-6
673.673	1	4
674.011	1	4
674.350	1	5
674.689	1	12
675.028	1	8
675.367	1	-2
675.705	1	6
676.044	1	19
676.383	1	-1
676.722	1	8
677.060	1	-10
677.399	1	0
677.738	1	7
678.077	1	19
678.416	1	-2
678.754	1	10
679.093	1	8
679.432	1	3
679.771	1	3
680.109	1	6
680.448	1	11
680.787	1	7
681.125	1	13
681.464	1	9
681.803	1	12
682.142	1	5
682.480	1	7
682.819	1	8
683.158	1	2
683.496	1	15
683.835	1	0
684.174	1	5
684.512	1	8
684.851	1	-4
685.190	1	1
685.529	1	12
685.867	1	4
686.206	1	-2
686.545	1	20
686.883	1	2
687.222	1	7
687.561	1	0
687.899	1	4
688.238	1	-5
688.577	1	16
688.746	1	0