File: Data/GaN_170K_550ms/GaN_sample D_spot 18_UVVIS_170 K_200um_550 ms 2x2mm1_286.txt
340.368	1	7
340.710	1	-7
341.052	1	1
341.394	1	9
341.737	1	-2
342.079	1	-8
342.421	1	1
342.763	1	-2
343.105	1	16
343.447	1	-2
343.789	1	12
344.131	1	-2
344.473	1	6
344.815	1	4
345.157	1	-4
345.499	1	-2
345.841	1	4
346.183	1	4
346.526	1	0
346.868	1	7
347.210	1	-9
347.552	1	4
347.894	1	9
348.236	1	2
348.578	1	3
348.920	1	-5
349.262	1	0
349.604	1	6
349.946	1	10
350.288	1	-1
350.630	1	0
350.972	1	-3
351.314	1	6
351.656	1	-2
351.998	1	-1
352.340	1	6
352.682	1	-4
353.024	1	2
353.366	1	4
353.708	1	8
354.050	1	0
354.392	1	1
354.734	1	-1
355.076	1	-3
355.418	1	2
355.760	1	-1
356.102	1	3
356.444	1	-3
356.785	1	3
357.127	1	-4
357.469	1	-1
357.811	1	3
358.153	1	1
358.495	1	5
358.837	1	-2
359.179	1	0
359.521	1	1
359.863	1	5
360.205	1	12
360.547	1	9
360.889	1	9
361.231	1	1
361.572	1	12
361.914	1	9
362.256	1	-2
362.598	1	11
362.940	1	17
363.282	1	9
363.624	1	17
363.966	1	3
364.308	1	-1
364.649	1	-7
364.991	1	14
365.333	1	4
365.675	1	12
366.017	1	12
366.359	1	5
366.701	1	10
367.042	1	10
367.384	1	18
367.726	1	15
368.068	1	18
368.410	1	23
368.752	1	3
369.093	1	9
369.435	1	8
369.777	1	12
370.119	1	14
370.461	1	16
370.803	1	7
371.144	1	1
371.486	1	1
371.828	1	4
372.170	1	4
372.512	1	7
372.853	1	13
373.195	1	14
373.537	1	13
373.879	1	5
374.220	1	16
374.562	1	1
374.904	1	10
375.246	1	4
375.588	1	1
375.929	1	4
376.271	1	4
376.613	1	3
376.955	1	5
377.296	1	1
377.638	1	4
377.980	1	-1
378.321	1	7
378.663	1	9
379.005	1	4
379.347	1	-6
379.688	1	9
380.030	1	7
380.372	1	1
380.714	1	17
381.055	1	-1
381.397	1	6
381.739	1	-3
382.080	1	-5
382.422	1	5
382.764	1	1
383.105	1	12
383.447	1	14
383.789	1	12
384.130	1	0
384.472	1	-5
384.814	1	4
385.156	1	-1
385.497	1	-2
385.839	1	-4
386.180	1	8
386.522	1	2
386.864	1	6
387.205	1	-9
387.547	1	4
387.889	1	3
388.230	1	5
388.572	1	12
388.914	1	-5
389.255	1	7
389.597	1	2
389.939	1	-1
390.280	1	-6
390.622	1	-8
390.963	1	-2
391.305	1	-3
391.647	1	-3
391.988	1	3
392.330	1	-2
392.671	1	-4
393.013	1	3
393.355	1	5
393.696	1	7
394.038	1	-5
394.379	1	-3
394.721	1	0
395.062	1	-2
395.404	1	7
395.746	1	5
396.087	1	10
396.429	1	5
396.770	1	11
397.112	1	-5
397.453	1	10
397.795	1	0
398.136	1	-1
398.478	1	7
398.819	1	5
399.161	1	-3
399.503	1	6
399.844	1	2
400.186	1	-5
400.527	1	13
400.869	1	-2
401.210	1	9
401.552	1	-2
401.893	1	4
402.235	1	4
402.576	1	-3
402.918	1	-2
403.259	1	7
403.601	1	9
403.942	1	4
404.284	1	-4
404.625	1	2
404.967	1	8
405.308	1	-4
405.649	1	2
405.991	1	0
406.332	1	-10
406.674	1	7
407.015	1	-2
407.357	1	-3
407.698	1	-4
408.040	1	2
408.381	1	1
408.722	1	0
409.064	1	-2
409.405	1	3
409.747	1	-1
410.088	1	5
410.430	1	2
410.771	1	-1
411.112	1	1
411.454	1	2
411.795	1	12
412.137	1	-10
412.478	1	-4
412.819	1	-7
413.161	1	3
413.502	1	-3
413.844	1	-4
414.185	1	5
414.526	1	5
414.868	1	0
415.209	1	-10
415.550	1	-5
415.892	1	-6
416.233	1	5
416.575	1	-2
416.916	1	-7
417.257	1	-4
417.599	1	1
417.940	1	-1
418.281	1	-9
418.623	1	5
418.964	1	-1
419.305	1	2
419.647	1	6
419.988	1	14
420.329	1	-1
420.671	1	-5
421.012	1	1
421.353	1	5
421.695	1	-7
422.036	1	-8
422.377	1	3
422.718	1	7
423.060	1	-2
423.401	1	-4
423.742	1	-3
424.084	1	21
424.425	1	-5
424.766	1	-1
425.107	1	2
425.449	1	9
425.790	1	1
426.131	1	13
426.472	1	5
426.814	1	-9
427.155	1	8
427.496	1	-1
427.837	1	8
428.179	1	1
428.520	1	-8
428.861	1	0
429.202	1	-6
429.544	1	-1
429.885	1	-1
430.226	1	-8
430.567	1	3
430.909	1	2
431.250	1	13
431.591	1	-11
431.932	1	1
432.273	1	6
432.615	1	-2
432.956	1	2
433.297	1	-3
433.638	1	6
433.979	1	3
434.320	1	4
434.662	1	-10
435.003	1	1
435.344	1	-2
435.685	1	2
436.026	1	-7
436.368	1	10
436.709	1	-2
437.050	1	4
437.391	1	-2
437.732	1	8
438.073	1	-7
438.414	1	-2
438.756	1	4
439.097	1	7
439.438	1	2
439.779	1	2
440.120	1	-6
440.461	1	20
440.802	1	4
441.143	1	-10
441.485	1	-2
441.826	1	7
442.167	1	0
442.508	1	-1
442.849	1	-8
443.190	1	5
443.531	1	1
443.872	1	-15
444.213	1	-4
444.554	1	4
444.895	1	-14
445.237	1	-11
445.578	1	2
445.919	1	3
446.260	1	7
446.601	1	-5
446.942	1	1
447.283	1	7
447.624	1	-2
447.965	1	0
448.306	1	-1
448.647	1	-6
448.988	1	11
449.329	1	-1
449.670	1	-14
450.011	1	1
450.352	1	-2
450.693	1	-8
451.034	1	-4
451.375	1	5
451.716	1	5
452.057	1	3
452.398	1	2
452.739	1	7
453.080	1	0
453.421	1	4
453.762	1	-2
454.103	1	0
454.444	1	-1
454.785	1	-4
455.126	1	6
455.467	1	-9
455.808	1	8
456.149	1	-1
456.490	1	4
456.831	1	4
457.172	1	2
457.513	1	10
457.854	1	5
458.195	1	-2
458.536	1	-7
458.877	1	2
459.218	1	-5
459.559	1	-3
459.899	1	2
460.240	1	3
460.581	1	3
460.922	1	-3
461.263	1	-6
461.604	1	4
461.945	1	8
462.286	1	-2
462.627	1	3
462.968	1	10
463.309	1	6
463.649	1	11
463.990	1	-2
464.331	1	3
464.672	1	1
465.013	1	9
465.354	1	-7
465.695	1	-2
466.036	1	-5
466.376	1	8
466.717	1	-1
467.058	1	-1
467.399	1	10
467.740	1	-1
468.081	1	-1
468.422	1	8
468.762	1	17
469.103	1	8
469.444	1	-1
469.785	1	-7
470.126	1	1
470.467	1	5
470.807	1	-2
471.148	1	-8
471.489	1	6
471.830	1	-2
472.171	1	12
472.511	1	-1
472.852	1	-1
473.193	1	12
473.534	1	0
473.875	1	3
474.215	1	1
474.556	1	2
474.897	1	-1
475.238	1	-8
475.578	1	9
475.919	1	-1
476.260	1	13
476.601	1	5
476.942	1	-3
477.282	1	4
477.623	1	10
477.964	1	2
478.305	1	-13
478.645	1	3
478.986	1	8
479.327	1	-7
479.667	1	-7
480.008	1	5
480.349	1	-1
480.690	1	0
481.030	1	2
481.371	1	1
481.712	1	-6
482.053	1	-2
482.393	1	-2
482.734	1	9
483.075	1	-1
483.415	1	4
483.756	1	-8
484.097	1	-9
484.437	1	-5
484.778	1	-11
485.119	1	2
485.459	1	-8
485.800	1	-1
486.141	1	13
486.481	1	2
486.822	1	1
487.163	1	3
487.503	1	1
487.844	1	-4
488.185	1	2
488.525	1	6
488.866	1	0
489.207	1	4
489.547	1	3
489.888	1	2
490.228	1	-1
490.569	1	3
490.910	1	1
491.250	1	8
491.591	1	0
491.932	1	4
492.272	1	7
492.613	1	1
492.953	1	4
493.294	1	0
493.635	1	-2
493.975	1	4
494.316	1	-3
494.656	1	2
494.997	1	2
495.337	1	6
495.678	1	9
496.019	1	-13
496.359	1	10
496.700	1	15
497.040	1	2
497.381	1	3
497.721	1	-3
498.062	1	0
498.403	1	12
498.743	1	4
499.084	1	-2
499.424	1	2
499.765	1	-10
500.105	1	-3
500.446	1	-1
500.786	1	-6
501.127	1	2
501.467	1	-2
501.808	1	2
502.148	1	4
502.489	1	5
502.829	1	-1
503.170	1	5
503.510	1	2
503.851	1	-1
504.191	1	-5
504.532	1	-9
504.872	1	4
505.213	1	-9
505.553	1	-3
505.894	1	17
506.234	1	-2
506.575	1	5
506.915	1	1
507.256	1	-2
507.596	1	-8
507.936	1	9
508.277	1	-10
508.617	1	4
508.958	1	-10
509.298	1	-3
509.639	1	9
509.979	1	10
510.319	1	-4
510.660	1	0
511.000	1	6
511.341	1	13
511.681	1	0
512.022	1	1
512.362	1	1
512.702	1	-5
513.043	1	-5
513.383	1	5
513.724	1	-1
514.064	1	5
514.404	1	-7
514.745	1	-3
515.085	1	4
515.425	1	8
515.766	1	-6
516.106	1	6
516.447	1	-5
516.787	1	10
517.127	1	9
517.468	1	8
517.808	1	10
518.148	1	0
518.489	1	8
518.829	1	10
519.169	1	-7
519.510	1	8
519.850	1	-2
520.190	1	-4
520.531	1	5
520.871	1	1
521.211	1	3
521.552	1	4
521.892	1	-2
522.232	1	-8
522.573	1	3
522.913	1	-3
523.253	1	19
523.593	1	0
523.934	1	3
524.274	1	1
524.614	1	-2
524.955	1	3
525.295	1	2
525.635	1	11
525.975	1	-1
526.316	1	8
526.656	1	11
526.996	1	-1
527.337	1	6
527.677	1	-1
528.017	1	4
528.357	1	-6
528.698	1	-9
529.038	1	3
529.378	1	-3
529.718	1	16
530.058	1	21
530.399	1	9
530.739	1	4
531.079	1	1
531.419	1	7
531.760	1	4
532.100	1	-5
532.440	1	4
532.780	1	-2
533.120	1	10
533.461	1	-3
533.801	1	-3
534.141	1	-2
534.481	1	15
534.821	1	10
535.162	1	-3
535.502	1	15
535.842	1	7
536.182	1	-2
536.522	1	11
536.862	1	9
537.203	1	-3
537.543	1	-2
537.883	1	5
538.223	1	6
538.563	1	4
538.903	1	-1
539.243	1	-2
539.584	1	3
539.924	1	4
540.264	1	11
540.604	1	5
540.944	1	-5
541.284	1	3
541.624	1	-9
541.964	1	-4
542.305	1	-4
542.645	1	-6
542.985	1	7
543.325	1	-1
543.665	1	1
544.005	1	9
544.345	1	5
544.685	1	5
545.025	1	9
545.365	1	4
545.705	1	13
546.045	1	0
546.386	1	-2
546.726	1	2
547.066	1	14
547.406	1	3
547.746	1	-8
548.086	1	-3
548.426	1	20
548.766	1	-1
549.106	1	7
549.446	1	7
549.786	1	2
550.126	1	-9
550.466	1	-1
550.806	1	1
551.146	1	9
551.486	1	2
551.826	1	5
552.166	1	1
552.506	1	3
552.846	1	7
553.186	1	3
553.526	1	4
553.866	1	-10
554.206	1	14
554.546	1	-3
554.886	1	-2
555.226	1	-6
555.566	1	1
555.906	1	-13
556.246	1	5
556.586	1	0
556.926	1	4
557.266	1	2
557.606	1	12
557.946	1	7
558.286	1	-1
558.626	1	13
558.966	1	-2
559.306	1	10
559.646	1	-5
559.986	1	-1
560.325	1	-4
560.665	1	3
561.005	1	-5
561.345	1	-5
561.685	1	-5
562.025	1	-9
562.365	1	10
562.705	1	6
563.045	1	-4
563.385	1	8
563.725	1	-4
564.064	1	6
564.404	1	-1
564.744	1	6
565.084	1	2
565.424	1	0
565.764	1	4
566.104	1	-3
566.444	1	13
566.783	1	0
567.123	1	1
567.463	1	-3
567.803	1	8
568.143	1	2
568.483	1	5
568.823	1	6
569.162	1	1
569.502	1	-3
569.842	1	-4
570.182	1	-7
570.522	1	-2
570.862	1	6
571.201	1	8
571.541	1	-7
571.881	1	-7
572.221	1	7
572.561	1	10
572.900	1	-1
573.240	1	8
573.580	1	-6
573.920	1	13
574.260	1	7
574.599	1	0
574.939	1	5
575.279	1	-7
575.619	1	4
575.959	1	-10
576.298	1	13
576.638	1	11
576.978	1	5
577.318	1	6
577.657	1	6
577.997	1	2
578.337	1	2
578.677	1	0
579.016	1	5
579.356	1	2
579.696	1	3
580.036	1	1
580.375	1	-6
580.715	1	1
581.055	1	4
581.394	1	3
581.734	1	1
582.074	1	1
582.414	1	-6
582.753	1	3
583.093	1	8
583.433	1	6
583.772	1	-6
584.112	1	-3
584.452	1	-8
584.791	1	-6
585.131	1	9
585.471	1	16
585.811	1	-6
586.150	1	-2
586.490	1	4
586.830	1	-3
587.169	1	8
587.509	1	-2
587.849	1	1
588.188	1	5
588.528	1	-2
588.867	1	1
589.207	1	-7
589.547	1	9
589.886	1	1
590.226	1	-1
590.566	1	1
590.905	1	10
591.245	1	6
591.585	1	6
591.924	1	-3
592.264	1	0
592.603	1	1
592.943	1	5
593.283	1	8
593.622	1	-8
593.962	1	-6
594.301	1	12
594.641	1	5
594.981	1	0
595.320	1	-7
595.660	1	0
595.999	1	-1
596.339	1	0
596.678	1	1
597.018	1	5
597.358	1	-12
597.697	1	-3
598.037	1	1
598.376	1	-7
598.716	1	1
599.055	1	-1
599.395	1	10
599.734	1	6
600.074	1	4
600.413	1	-1
600.753	1	5
601.092	1	-1
601.432	1	-6
601.771	1	11
602.111	1	-3
602.451	1	7
602.790	1	16
603.130	1	-6
603.469	1	7
603.809	1	-4
604.148	1	-2
604.487	1	4
604.827	1	-12
605.166	1	10
605.506	1	-5
605.845	1	12
606.185	1	3
606.524	1	-6
606.864	1	-2
607.203	1	4
607.543	1	4
607.882	1	-4
608.222	1	-6
608.561	1	12
608.901	1	1
609.240	1	5
609.579	1	8
609.919	1	-1
610.258	1	5
610.598	1	8
610.937	1	1
611.277	1	-3
611.616	1	6
611.955	1	0
612.295	1	5
612.634	1	-2
612.974	1	1
613.313	1	0
613.652	1	4
613.992	1	-1
614.331	1	-1
614.671	1	4
615.010	1	3
615.349	1	8
615.689	1	6
616.028	1	6
616.368	1	5
616.707	1	-2
617.046	1	0
617.386	1	-5
617.725	1	7
618.064	1	7
618.404	1	3
618.743	1	-1
619.082	1	10
619.422	1	-9
619.761	1	-7
620.100	1	8
620.440	1	1
620.779	1	2
621.118	1	0
621.458	1	1
621.797	1	2
622.136	1	0
622.476	1	2
622.815	1	6
623.154	1	7
623.494	1	0
623.833	1	2
624.172	1	8
624.511	1	10
624.851	1	-7
625.190	1	6
625.529	1	4
625.869	1	0
626.208	1	1
626.547	1	-6
626.886	1	4
627.226	1	0
627.565	1	1
627.904	1	1
628.243	1	-5
628.583	1	-9
628.922	1	-15
629.261	1	11
629.600	1	-5
629.940	1	-7
630.279	1	5
630.618	1	-1
630.957	1	5
631.297	1	-6
631.636	1	12
631.975	1	-5
632.314	1	5
632.653	1	14
632.993	1	2
633.332	1	3
633.671	1	3
634.010	1	3
634.349	1	-6
634.689	1	8
635.028	1	3
635.367	1	-6
635.706	1	-2
636.045	1	3
636.384	1	-6
636.724	1	10
637.063	1	6
637.402	1	9
637.741	1	-3
638.080	1	3
638.419	1	5
638.759	1	1
639.098	1	-9
639.437	1	-4
639.776	1	-1
640.115	1	2
640.454	1	2
640.793	1	-8
641.132	1	5
641.472	1	-6
641.811	1	7
642.150	1	4
642.489	1	1
642.828	1	4
643.167	1	-4
643.506	1	6
643.845	1	2
644.184	1	14
644.524	1	-1
644.863	1	-11
645.202	1	8
645.541	1	2
645.880	1	-2
646.219	1	-4
646.558	1	2
646.897	1	-3
647.236	1	0
647.575	1	-5
647.914	1	-9
648.253	1	3
648.592	1	-11
648.931	1	7
649.270	1	-4
649.610	1	2
649.949	1	-8
650.288	1	4
650.627	1	0
650.966	1	3
651.305	1	-3
651.644	1	5
651.983	1	1
652.322	1	4
652.661	1	-1
653.000	1	0
653.339	1	-5
653.678	1	5
654.017	1	0
654.356	1	5
654.695	1	8
655.034	1	3
655.373	1	4
655.712	1	-2
656.051	1	2
656.390	1	7
656.729	1	6
657.068	1	10
657.406	1	3
657.745	1	17
658.084	1	-2
658.423	1	3
658.762	1	-2
659.101	1	4
659.440	1	3
659.779	1	0
660.118	1	5
660.457	1	1
660.796	1	0
661.135	1	-14
661.474	1	5
661.813	1	3
662.152	1	9
662.491	1	-13
662.829	1	1
663.168	1	6
663.507	1	-2
663.846	1	2
664.185	1	5
664.524	1	6
664.863	1	4
665.202	1	9
665.541	1	5
665.879	1	3
666.218	1	11
666.557	1	-5
666.896	1	4
667.235	1	1
667.574	1	-5
667.913	1	-3
668.251	1	8
668.590	1	4
668.929	1	2
669.268	1	-4
669.607	1	3
669.946	1	3
670.285	1	10
670.623	1	3
670.962	1	1
671.301	1	0
671.640	1	12
671.979	1	-1
672.317	1	4
672.656	1	-1
672.995	1	-4
673.334	1	4
673.673	1	8
674.011	1	-4
674.350	1	4
674.689	1	6
675.028	1	-6
675.367	1	-7
675.705	1	14
676.044	1	10
676.383	1	1
676.722	1	9
677.060	1	4
677.399	1	1
677.738	1	5
678.077	1	12
678.416	1	-1
678.754	1	1
679.093	1	-3
679.432	1	-7
679.771	1	0
680.109	1	-1
680.448	1	1
680.787	1	-4
681.125	1	8
681.464	1	7
681.803	1	6
682.142	1	-2
682.480	1	2
682.819	1	-2
683.158	1	-5
683.496	1	1
683.835	1	-2
684.174	1	0
684.512	1	2
684.851	1	0
685.190	1	-2
685.529	1	16
685.867	1	-4
686.206	1	-5
686.545	1	4
686.883	1	2
687.222	1	-5
687.561	1	0
687.899	1	-7
688.238	1	-5
688.577	1	3
688.746	1	-3