File: Data/GaN_170K_550ms/GaN_sample D_spot 18_UVVIS_170 K_200um_550 ms 2x2mm1_78.txt
340.368	1	1
340.710	1	-3
341.052	1	4
341.394	1	-7
341.737	1	9
342.079	1	-2
342.421	1	0
342.763	1	6
343.105	1	5
343.447	1	-4
343.789	1	13
344.131	1	10
344.473	1	4
344.815	1	0
345.157	1	7
345.499	1	0
345.841	1	9
346.183	1	13
346.526	1	11
346.868	1	14
347.210	1	-8
347.552	1	9
347.894	1	5
348.236	1	2
348.578	1	8
348.920	1	5
349.262	1	14
349.604	1	15
349.946	1	6
350.288	1	6
350.630	1	12
350.972	1	1
351.314	1	14
351.656	1	7
351.998	1	10
352.340	1	11
352.682	1	14
353.024	1	6
353.366	1	12
353.708	1	13
354.050	1	12
354.392	1	14
354.734	1	19
355.076	1	13
355.418	1	8
355.760	1	7
356.102	1	22
356.444	1	15
356.785	1	13
357.127	1	11
357.469	1	15
357.811	1	33
358.153	1	23
358.495	1	19
358.837	1	33
359.179	1	30
359.521	1	31
359.863	1	32
360.205	1	44
360.547	1	35
360.889	1	51
361.231	1	51
361.572	1	48
361.914	1	57
362.256	1	56
362.598	1	73
362.940	1	81
363.282	1	80
363.624	1	86
363.966	1	81
364.308	1	94
364.649	1	111
364.991	1	122
365.333	1	134
365.675	1	130
366.017	1	144
366.359	1	165
366.701	1	172
367.042	1	176
367.384	1	180
367.726	1	204
368.068	1	209
368.410	1	211
368.752	1	212
369.093	1	199
369.435	1	201
369.777	1	186
370.119	1	189
370.461	1	195
370.803	1	174
371.144	1	168
371.486	1	150
371.828	1	136
372.170	1	141
372.512	1	118
372.853	1	123
373.195	1	124
373.537	1	127
373.879	1	114
374.220	1	105
374.562	1	104
374.904	1	100
375.246	1	84
375.588	1	94
375.929	1	94
376.271	1	79
376.613	1	68
376.955	1	74
377.296	1	82
377.638	1	59
377.980	1	53
378.321	1	51
378.663	1	61
379.005	1	52
379.347	1	56
379.688	1	48
380.030	1	50
380.372	1	43
380.714	1	54
381.055	1	52
381.397	1	45
381.739	1	32
382.080	1	42
382.422	1	40
382.764	1	34
383.105	1	40
383.447	1	44
383.789	1	43
384.130	1	29
384.472	1	22
384.814	1	41
385.156	1	25
385.497	1	43
385.839	1	24
386.180	1	28
386.522	1	35
386.864	1	23
387.205	1	15
387.547	1	24
387.889	1	33
388.230	1	21
388.572	1	15
388.914	1	6
389.255	1	22
389.597	1	21
389.939	1	19
390.280	1	17
390.622	1	19
390.963	1	25
391.305	1	12
391.647	1	9
391.988	1	11
392.330	1	11
392.671	1	2
393.013	1	9
393.355	1	11
393.696	1	19
394.038	1	5
394.379	1	8
394.721	1	8
395.062	1	11
395.404	1	13
395.746	1	17
396.087	1	16
396.429	1	15
396.770	1	14
397.112	1	9
397.453	1	16
397.795	1	-3
398.136	1	8
398.478	1	8
398.819	1	0
399.161	1	0
399.503	1	15
399.844	1	10
400.186	1	1
400.527	1	16
400.869	1	10
401.210	1	16
401.552	1	15
401.893	1	15
402.235	1	14
402.576	1	3
402.918	1	8
403.259	1	13
403.601	1	12
403.942	1	8
404.284	1	-9
404.625	1	5
404.967	1	16
405.308	1	16
405.649	1	5
405.991	1	-1
406.332	1	1
406.674	1	18
407.015	1	11
407.357	1	13
407.698	1	8
408.040	1	8
408.381	1	1
408.722	1	0
409.064	1	7
409.405	1	8
409.747	1	8
410.088	1	18
410.430	1	3
410.771	1	8
411.112	1	7
411.454	1	2
411.795	1	12
412.137	1	-8
412.478	1	3
412.819	1	3
413.161	1	3
413.502	1	8
413.844	1	2
414.185	1	1
414.526	1	5
414.868	1	-4
415.209	1	-1
415.550	1	-2
415.892	1	7
416.233	1	5
416.575	1	1
416.916	1	-4
417.257	1	8
417.599	1	5
417.940	1	11
418.281	1	-5
418.623	1	-1
418.964	1	0
419.305	1	7
419.647	1	12
419.988	1	13
420.329	1	12
420.671	1	-3
421.012	1	3
421.353	1	11
421.695	1	0
422.036	1	8
422.377	1	13
422.718	1	22
423.060	1	14
423.401	1	0
423.742	1	4
424.084	1	17
424.425	1	6
424.766	1	-6
425.107	1	5
425.449	1	5
425.790	1	7
426.131	1	9
426.472	1	9
426.814	1	-4
427.155	1	14
427.496	1	-2
427.837	1	11
428.179	1	6
428.520	1	0
428.861	1	8
429.202	1	1
429.544	1	4
429.885	1	5
430.226	1	0
430.567	1	13
430.909	1	0
431.250	1	19
431.591	1	1
431.932	1	-2
432.273	1	4
432.615	1	3
432.956	1	5
433.297	1	4
433.638	1	11
433.979	1	2
434.320	1	4
434.662	1	-8
435.003	1	10
435.344	1	7
435.685	1	3
436.026	1	8
436.368	1	6
436.709	1	-4
437.050	1	-7
437.391	1	1
437.732	1	9
438.073	1	0
438.414	1	5
438.756	1	8
439.097	1	-1
439.438	1	2
439.779	1	12
440.120	1	-1
440.461	1	4
440.802	1	5
441.143	1	3
441.485	1	3
441.826	1	3
442.167	1	6
442.508	1	-9
442.849	1	-4
443.190	1	5
443.531	1	5
443.872	1	0
444.213	1	-5
444.554	1	-2
444.895	1	-5
445.237	1	1
445.578	1	5
445.919	1	7
446.260	1	11
446.601	1	1
446.942	1	6
447.283	1	11
447.624	1	10
447.965	1	10
448.306	1	-2
448.647	1	-2
448.988	1	11
449.329	1	-3
449.670	1	-7
450.011	1	7
450.352	1	-3
450.693	1	-1
451.034	1	5
451.375	1	10
451.716	1	8
452.057	1	5
452.398	1	5
452.739	1	4
453.080	1	3
453.421	1	2
453.762	1	4
454.103	1	4
454.444	1	-4
454.785	1	2
455.126	1	14
455.467	1	-5
455.808	1	12
456.149	1	8
456.490	1	-1
456.831	1	-2
457.172	1	-3
457.513	1	8
457.854	1	13
458.195	1	7
458.536	1	-2
458.877	1	10
459.218	1	3
459.559	1	1
459.899	1	6
460.240	1	9
460.581	1	5
460.922	1	5
461.263	1	-1
461.604	1	14
461.945	1	2
462.286	1	-3
462.627	1	12
462.968	1	12
463.309	1	13
463.649	1	10
463.990	1	3
464.331	1	0
464.672	1	2
465.013	1	10
465.354	1	1
465.695	1	4
466.036	1	-1
466.376	1	11
466.717	1	4
467.058	1	4
467.399	1	13
467.740	1	2
468.081	1	1
468.422	1	4
468.762	1	16
469.103	1	3
469.444	1	4
469.785	1	1
470.126	1	14
470.467	1	7
470.807	1	-2
471.148	1	1
471.489	1	1
471.830	1	-1
472.171	1	7
472.511	1	4
472.852	1	13
473.193	1	17
473.534	1	12
473.875	1	-1
474.215	1	12
474.556	1	9
474.897	1	10
475.238	1	0
475.578	1	14
475.919	1	6
476.260	1	18
476.601	1	8
476.942	1	-5
477.282	1	11
477.623	1	15
477.964	1	-1
478.305	1	1
478.645	1	9
478.986	1	6
479.327	1	-1
479.667	1	9
480.008	1	13
480.349	1	11
480.690	1	15
481.030	1	11
481.371	1	3
481.712	1	8
482.053	1	6
482.393	1	0
482.734	1	9
483.075	1	8
483.415	1	7
483.756	1	6
484.097	1	1
484.437	1	4
484.778	1	5
485.119	1	7
485.459	1	2
485.800	1	-2
486.141	1	12
486.481	1	9
486.822	1	11
487.163	1	12
487.503	1	4
487.844	1	16
488.185	1	20
488.525	1	18
488.866	1	21
489.207	1	4
489.547	1	16
489.888	1	8
490.228	1	9
490.569	1	17
490.910	1	13
491.250	1	14
491.591	1	15
491.932	1	15
492.272	1	18
492.613	1	19
492.953	1	6
493.294	1	8
493.635	1	11
493.975	1	17
494.316	1	14
494.656	1	9
494.997	1	12
495.337	1	23
495.678	1	9
496.019	1	0
496.359	1	20
496.700	1	28
497.040	1	9
497.381	1	15
497.721	1	8
498.062	1	7
498.403	1	16
498.743	1	14
499.084	1	20
499.424	1	27
499.765	1	-2
500.105	1	16
500.446	1	10
500.786	1	16
501.127	1	23
501.467	1	15
501.808	1	14
502.148	1	28
502.489	1	28
502.829	1	16
503.170	1	25
503.510	1	26
503.851	1	22
504.191	1	15
504.532	1	5
504.872	1	23
505.213	1	24
505.553	1	17
505.894	1	22
506.234	1	16
506.575	1	21
506.915	1	17
507.256	1	14
507.596	1	27
507.936	1	30
508.277	1	7
508.617	1	27
508.958	1	19
509.298	1	20
509.639	1	25
509.979	1	25
510.319	1	8
510.660	1	16
511.000	1	23
511.341	1	32
511.681	1	37
512.022	1	36
512.362	1	21
512.702	1	19
513.043	1	25
513.383	1	28
513.724	1	28
514.064	1	27
514.404	1	8
514.745	1	29
515.085	1	35
515.425	1	34
515.766	1	20
516.106	1	26
516.447	1	28
516.787	1	33
517.127	1	37
517.468	1	31
517.808	1	35
518.148	1	16
518.489	1	32
518.829	1	33
519.169	1	30
519.510	1	18
519.850	1	32
520.190	1	27
520.531	1	37
520.871	1	36
521.211	1	35
521.552	1	40
521.892	1	35
522.232	1	13
522.573	1	28
522.913	1	41
523.253	1	46
523.593	1	40
523.934	1	31
524.274	1	18
524.614	1	33
524.955	1	31
525.295	1	38
525.635	1	34
525.975	1	34
526.316	1	44
526.656	1	32
526.996	1	33
527.337	1	30
527.677	1	29
528.017	1	36
528.357	1	20
528.698	1	19
529.038	1	29
529.378	1	31
529.718	1	45
530.058	1	43
530.399	1	33
530.739	1	33
531.079	1	45
531.419	1	42
531.760	1	40
532.100	1	32
532.440	1	16
532.780	1	33
533.120	1	40
533.461	1	32
533.801	1	31
534.141	1	23
534.481	1	37
534.821	1	35
535.162	1	40
535.502	1	27
535.842	1	37
536.182	1	30
536.522	1	42
536.862	1	31
537.203	1	28
537.543	1	20
537.883	1	37
538.223	1	33
538.563	1	21
538.903	1	33
539.243	1	33
539.584	1	32
539.924	1	11
540.264	1	26
540.604	1	25
540.944	1	29
541.284	1	20
541.624	1	20
541.964	1	31
542.305	1	18
542.645	1	11
542.985	1	39
543.325	1	30
543.665	1	35
544.005	1	31
544.345	1	29
544.685	1	28
545.025	1	16
545.365	1	34
545.705	1	38
546.045	1	23
546.386	1	26
546.726	1	24
547.066	1	37
547.406	1	28
547.746	1	15
548.086	1	19
548.426	1	44
548.766	1	24
549.106	1	35
549.446	1	31
549.786	1	21
550.126	1	24
550.466	1	32
550.806	1	25
551.146	1	35
551.486	1	29
551.826	1	41
552.166	1	32
552.506	1	33
552.846	1	25
553.186	1	32
553.526	1	18
553.866	1	13
554.206	1	23
554.546	1	16
554.886	1	20
555.226	1	12
555.566	1	30
555.906	1	22
556.246	1	29
556.586	1	13
556.926	1	20
557.266	1	14
557.606	1	18
557.946	1	18
558.286	1	19
558.626	1	25
558.966	1	25
559.306	1	25
559.646	1	16
559.986	1	29
560.325	1	15
560.665	1	26
561.005	1	21
561.345	1	12
561.685	1	19
562.025	1	11
562.365	1	27
562.705	1	27
563.045	1	22
563.385	1	23
563.725	1	18
564.064	1	18
564.404	1	20
564.744	1	18
565.084	1	12
565.424	1	16
565.764	1	14
566.104	1	25
566.444	1	21
566.783	1	13
567.123	1	18
567.463	1	15
567.803	1	16
568.143	1	14
568.483	1	20
568.823	1	14
569.162	1	16
569.502	1	26
569.842	1	6
570.182	1	14
570.522	1	20
570.862	1	16
571.201	1	19
571.541	1	11
571.881	1	12
572.221	1	23
572.561	1	16
572.900	1	17
573.240	1	15
573.580	1	11
573.920	1	28
574.260	1	15
574.599	1	17
574.939	1	4
575.279	1	11
575.619	1	26
575.959	1	11
576.298	1	18
576.638	1	18
576.978	1	4
577.318	1	17
577.657	1	9
577.997	1	4
578.337	1	11
578.677	1	17
579.016	1	11
579.356	1	11
579.696	1	8
580.036	1	13
580.375	1	13
580.715	1	16
581.055	1	17
581.394	1	10
581.734	1	14
582.074	1	15
582.414	1	6
582.753	1	12
583.093	1	23
583.433	1	17
583.772	1	9
584.112	1	15
584.452	1	10
584.791	1	13
585.131	1	18
585.471	1	9
585.811	1	5
586.150	1	13
586.490	1	15
586.830	1	-3
587.169	1	15
587.509	1	16
587.849	1	5
588.188	1	9
588.528	1	10
588.867	1	11
589.207	1	5
589.547	1	18
589.886	1	4
590.226	1	6
590.566	1	3
590.905	1	19
591.245	1	8
591.585	1	20
591.924	1	6
592.264	1	2
592.603	1	9
592.943	1	10
593.283	1	16
593.622	1	-2
593.962	1	15
594.301	1	9
594.641	1	18
594.981	1	22
595.320	1	3
595.660	1	7
595.999	1	6
596.339	1	18
596.678	1	6
597.018	1	12
597.358	1	0
597.697	1	6
598.037	1	7
598.376	1	3
598.716	1	10
599.055	1	7
599.395	1	8
599.734	1	14
600.074	1	5
600.413	1	12
600.753	1	14
601.092	1	5
601.432	1	4
601.771	1	16
602.111	1	8
602.451	1	11
602.790	1	12
603.130	1	-1
603.469	1	9
603.809	1	2
604.148	1	9
604.487	1	13
604.827	1	4
605.166	1	15
605.506	1	5
605.845	1	18
606.185	1	11
606.524	1	7
606.864	1	12
607.203	1	5
607.543	1	12
607.882	1	13
608.222	1	4
608.561	1	4
608.901	1	9
609.240	1	1
609.579	1	-3
609.919	1	1
610.258	1	17
610.598	1	11
610.937	1	1
611.277	1	14
611.616	1	7
611.955	1	11
612.295	1	19
612.634	1	4
612.974	1	10
613.313	1	10
613.652	1	21
613.992	1	6
614.331	1	-1
614.671	1	6
615.010	1	15
615.349	1	13
615.689	1	11
616.028	1	1
616.368	1	6
616.707	1	11
617.046	1	4
617.386	1	9
617.725	1	13
618.064	1	0
618.404	1	5
618.743	1	7
619.082	1	6
619.422	1	1
619.761	1	-1
620.100	1	6
620.440	1	8
620.779	1	0
621.118	1	4
621.458	1	8
621.797	1	9
622.136	1	17
622.476	1	1
622.815	1	11
623.154	1	8
623.494	1	10
623.833	1	5
624.172	1	-3
624.511	1	6
624.851	1	6
625.190	1	8
625.529	1	13
625.869	1	19
626.208	1	3
626.547	1	4
626.886	1	9
627.226	1	10
627.565	1	9
627.904	1	-2
628.243	1	1
628.583	1	-6
628.922	1	-3
629.261	1	1
629.600	1	8
629.940	1	5
630.279	1	14
630.618	1	4
630.957	1	8
631.297	1	1
631.636	1	7
631.975	1	4
632.314	1	2
632.653	1	16
632.993	1	4
633.332	1	5
633.671	1	12
634.010	1	8
634.349	1	3
634.689	1	4
635.028	1	4
635.367	1	-4
635.706	1	-2
636.045	1	5
636.384	1	6
636.724	1	8
637.063	1	17
637.402	1	14
637.741	1	-1
638.080	1	6
638.419	1	4
638.759	1	0
639.098	1	3
639.437	1	-6
639.776	1	4
640.115	1	5
640.454	1	11
640.793	1	7
641.132	1	10
641.472	1	-1
641.811	1	13
642.150	1	11
642.489	1	0
642.828	1	9
643.167	1	3
643.506	1	15
643.845	1	10
644.184	1	6
644.524	1	4
644.863	1	1
645.202	1	11
645.541	1	10
645.880	1	16
646.219	1	1
646.558	1	12
646.897	1	7
647.236	1	0
647.575	1	-1
647.914	1	3
648.253	1	0
648.592	1	5
648.931	1	10
649.270	1	5
649.610	1	9
649.949	1	13
650.288	1	8
650.627	1	-4
650.966	1	9
651.305	1	4
651.644	1	15
651.983	1	8
652.322	1	2
652.661	1	6
653.000	1	4
653.339	1	1
653.678	1	7
654.017	1	-4
654.356	1	-1
654.695	1	13
655.034	1	2
655.373	1	7
655.712	1	-5
656.051	1	12
656.390	1	10
656.729	1	11
657.068	1	8
657.406	1	7
657.745	1	6
658.084	1	5
658.423	1	-4
658.762	1	-3
659.101	1	3
659.440	1	7
659.779	1	6
660.118	1	6
660.457	1	9
660.796	1	4
661.135	1	-6
661.474	1	14
661.813	1	11
662.152	1	8
662.491	1	3
662.829	1	5
663.168	1	0
663.507	1	6
663.846	1	0
664.185	1	10
664.524	1	5
664.863	1	1
665.202	1	12
665.541	1	8
665.879	1	18
666.218	1	16
666.557	1	-4
666.896	1	5
667.235	1	5
667.574	1	-7
667.913	1	5
668.251	1	5
668.590	1	2
668.929	1	12
669.268	1	4
669.607	1	3
669.946	1	10
670.285	1	12
670.623	1	7
670.962	1	10
671.301	1	6
671.640	1	13
671.979	1	4
672.317	1	12
672.656	1	14
672.995	1	-9
673.334	1	1
673.673	1	11
674.011	1	5
674.350	1	5
674.689	1	9
675.028	1	8
675.367	1	2
675.705	1	17
676.044	1	15
676.383	1	4
676.722	1	18
677.060	1	-12
677.399	1	2
677.738	1	9
678.077	1	14
678.416	1	4
678.754	1	8
679.093	1	5
679.432	1	7
679.771	1	9
680.109	1	5
680.448	1	6
680.787	1	6
681.125	1	13
681.464	1	9
681.803	1	6
682.142	1	0
682.480	1	4
682.819	1	13
683.158	1	2
683.496	1	5
683.835	1	6
684.174	1	0
684.512	1	9
684.851	1	2
685.190	1	1
685.529	1	20
685.867	1	10
686.206	1	14
686.545	1	14
686.883	1	9
687.222	1	11
687.561	1	9
687.899	1	-4
688.238	1	-2
688.577	1	19
688.746	1	-1