File: Data/GaN_170K_550ms/GaN_sample D_spot 18_UVVIS_170 K_200um_550 ms 2x2mm1_152.txt
340.368	1	-3
340.710	1	-15
341.052	1	7
341.394	1	5
341.737	1	7
342.079	1	-1
342.421	1	6
342.763	1	12
343.105	1	17
343.447	1	-9
343.789	1	3
344.131	1	10
344.473	1	4
344.815	1	10
345.157	1	2
345.499	1	-1
345.841	1	5
346.183	1	3
346.526	1	1
346.868	1	11
347.210	1	-11
347.552	1	18
347.894	1	0
348.236	1	1
348.578	1	6
348.920	1	-5
349.262	1	9
349.604	1	12
349.946	1	9
350.288	1	1
350.630	1	10
350.972	1	-6
351.314	1	-2
351.656	1	3
351.998	1	13
352.340	1	2
352.682	1	5
353.024	1	3
353.366	1	0
353.708	1	9
354.050	1	0
354.392	1	0
354.734	1	6
355.076	1	3
355.418	1	-5
355.760	1	13
356.102	1	17
356.444	1	2
356.785	1	0
357.127	1	9
357.469	1	-1
357.811	1	6
358.153	1	11
358.495	1	9
358.837	1	5
359.179	1	-1
359.521	1	10
359.863	1	13
360.205	1	15
360.547	1	8
360.889	1	15
361.231	1	4
361.572	1	9
361.914	1	16
362.256	1	7
362.598	1	12
362.940	1	27
363.282	1	17
363.624	1	15
363.966	1	15
364.308	1	20
364.649	1	16
364.991	1	30
365.333	1	32
365.675	1	31
366.017	1	23
366.359	1	34
366.701	1	38
367.042	1	25
367.384	1	39
367.726	1	43
368.068	1	45
368.410	1	40
368.752	1	43
369.093	1	26
369.435	1	38
369.777	1	37
370.119	1	26
370.461	1	37
370.803	1	23
371.144	1	24
371.486	1	25
371.828	1	32
372.170	1	28
372.512	1	7
372.853	1	29
373.195	1	21
373.537	1	25
373.879	1	29
374.220	1	25
374.562	1	26
374.904	1	19
375.246	1	15
375.588	1	5
375.929	1	17
376.271	1	21
376.613	1	15
376.955	1	25
377.296	1	8
377.638	1	17
377.980	1	8
378.321	1	6
378.663	1	18
379.005	1	4
379.347	1	16
379.688	1	6
380.030	1	12
380.372	1	14
380.714	1	20
381.055	1	16
381.397	1	11
381.739	1	6
382.080	1	1
382.422	1	12
382.764	1	8
383.105	1	12
383.447	1	10
383.789	1	18
384.130	1	2
384.472	1	-7
384.814	1	13
385.156	1	2
385.497	1	14
385.839	1	-10
386.180	1	11
386.522	1	21
386.864	1	10
387.205	1	1
387.547	1	9
387.889	1	13
388.230	1	10
388.572	1	17
388.914	1	6
389.255	1	16
389.597	1	10
389.939	1	1
390.280	1	1
390.622	1	4
390.963	1	5
391.305	1	1
391.647	1	1
391.988	1	10
392.330	1	6
392.671	1	3
393.013	1	11
393.355	1	8
393.696	1	5
394.038	1	-12
394.379	1	1
394.721	1	5
395.062	1	2
395.404	1	6
395.746	1	12
396.087	1	-2
396.429	1	10
396.770	1	11
397.112	1	4
397.453	1	13
397.795	1	5
398.136	1	-5
398.478	1	-10
398.819	1	7
399.161	1	1
399.503	1	5
399.844	1	-15
400.186	1	-3
400.527	1	10
400.869	1	-2
401.210	1	10
401.552	1	3
401.893	1	11
402.235	1	14
402.576	1	-5
402.918	1	-1
403.259	1	6
403.601	1	8
403.942	1	6
404.284	1	-9
404.625	1	7
404.967	1	2
405.308	1	8
405.649	1	-1
405.991	1	12
406.332	1	-10
406.674	1	2
407.015	1	2
407.357	1	2
407.698	1	5
408.040	1	1
408.381	1	8
408.722	1	3
409.064	1	2
409.405	1	5
409.747	1	3
410.088	1	5
410.430	1	-3
410.771	1	6
411.112	1	10
411.454	1	7
411.795	1	9
412.137	1	-9
412.478	1	-3
412.819	1	-6
413.161	1	6
413.502	1	4
413.844	1	15
414.185	1	-2
414.526	1	6
414.868	1	0
415.209	1	-15
415.550	1	-3
415.892	1	0
416.233	1	12
416.575	1	1
416.916	1	-3
417.257	1	10
417.599	1	2
417.940	1	0
418.281	1	-7
418.623	1	7
418.964	1	0
419.305	1	-1
419.647	1	6
419.988	1	3
420.329	1	9
420.671	1	-6
421.012	1	-2
421.353	1	9
421.695	1	-7
422.036	1	3
422.377	1	4
422.718	1	-2
423.060	1	-8
423.401	1	5
423.742	1	-2
424.084	1	13
424.425	1	-7
424.766	1	4
425.107	1	2
425.449	1	4
425.790	1	1
426.131	1	13
426.472	1	5
426.814	1	-3
427.155	1	13
427.496	1	-2
427.837	1	5
428.179	1	11
428.520	1	-2
428.861	1	6
429.202	1	0
429.544	1	-5
429.885	1	-1
430.226	1	5
430.567	1	2
430.909	1	-4
431.250	1	8
431.591	1	-5
431.932	1	-4
432.273	1	-1
432.615	1	6
432.956	1	8
433.297	1	-6
433.638	1	11
433.979	1	4
434.320	1	4
434.662	1	-10
435.003	1	7
435.344	1	0
435.685	1	3
436.026	1	3
436.368	1	3
436.709	1	-2
437.050	1	-10
437.391	1	3
437.732	1	5
438.073	1	2
438.414	1	-5
438.756	1	-3
439.097	1	3
439.438	1	0
439.779	1	13
440.120	1	-5
440.461	1	12
440.802	1	10
441.143	1	-2
441.485	1	0
441.826	1	11
442.167	1	-2
442.508	1	-9
442.849	1	-4
443.190	1	-6
443.531	1	4
443.872	1	-3
444.213	1	-6
444.554	1	-4
444.895	1	-14
445.237	1	-4
445.578	1	5
445.919	1	1
446.260	1	8
446.601	1	-3
446.942	1	-3
447.283	1	-1
447.624	1	-3
447.965	1	2
448.306	1	-5
448.647	1	-3
448.988	1	12
449.329	1	-4
449.670	1	-22
450.011	1	10
450.352	1	-6
450.693	1	-2
451.034	1	-3
451.375	1	2
451.716	1	6
452.057	1	1
452.398	1	0
452.739	1	-1
453.080	1	-2
453.421	1	10
453.762	1	6
454.103	1	4
454.444	1	0
454.785	1	-2
455.126	1	2
455.467	1	-13
455.808	1	10
456.149	1	4
456.490	1	1
456.831	1	-1
457.172	1	1
457.513	1	6
457.854	1	16
458.195	1	4
458.536	1	-3
458.877	1	7
459.218	1	-1
459.559	1	3
459.899	1	-2
460.240	1	6
460.581	1	6
460.922	1	-2
461.263	1	-2
461.604	1	13
461.945	1	5
462.286	1	-7
462.627	1	11
462.968	1	8
463.309	1	3
463.649	1	6
463.990	1	3
464.331	1	-1
464.672	1	-2
465.013	1	12
465.354	1	-3
465.695	1	6
466.036	1	-3
466.376	1	4
466.717	1	2
467.058	1	5
467.399	1	1
467.740	1	-4
468.081	1	-3
468.422	1	2
468.762	1	16
469.103	1	-13
469.444	1	5
469.785	1	0
470.126	1	7
470.467	1	6
470.807	1	5
471.148	1	4
471.489	1	6
471.830	1	2
472.171	1	4
472.511	1	4
472.852	1	13
473.193	1	-2
473.534	1	5
473.875	1	-2
474.215	1	8
474.556	1	7
474.897	1	4
475.238	1	-2
475.578	1	1
475.919	1	9
476.260	1	5
476.601	1	-7
476.942	1	0
477.282	1	8
477.623	1	13
477.964	1	11
478.305	1	0
478.645	1	5
478.986	1	0
479.327	1	-14
479.667	1	-2
480.008	1	-3
480.349	1	4
480.690	1	-3
481.030	1	0
481.371	1	6
481.712	1	2
482.053	1	1
482.393	1	4
482.734	1	10
483.075	1	-2
483.415	1	10
483.756	1	9
484.097	1	-5
484.437	1	5
484.778	1	-5
485.119	1	2
485.459	1	4
485.800	1	-2
486.141	1	11
486.481	1	-8
486.822	1	3
487.163	1	-1
487.503	1	-3
487.844	1	0
488.185	1	1
488.525	1	1
488.866	1	0
489.207	1	6
489.547	1	2
489.888	1	-4
490.228	1	-1
490.569	1	5
490.910	1	-2
491.250	1	0
491.591	1	8
491.932	1	2
492.272	1	15
492.613	1	6
492.953	1	6
493.294	1	0
493.635	1	-4
493.975	1	8
494.316	1	1
494.656	1	4
494.997	1	3
495.337	1	11
495.678	1	2
496.019	1	-2
496.359	1	4
496.700	1	12
497.040	1	6
497.381	1	7
497.721	1	-1
498.062	1	-2
498.403	1	3
498.743	1	6
499.084	1	2
499.424	1	-1
499.765	1	-12
500.105	1	-4
500.446	1	6
500.786	1	12
501.127	1	12
501.467	1	2
501.808	1	7
502.148	1	12
502.489	1	4
502.829	1	8
503.170	1	16
503.510	1	9
503.851	1	13
504.191	1	0
504.532	1	-3
504.872	1	12
505.213	1	0
505.553	1	4
505.894	1	13
506.234	1	-2
506.575	1	11
506.915	1	7
507.256	1	6
507.596	1	13
507.936	1	9
508.277	1	-8
508.617	1	7
508.958	1	0
509.298	1	12
509.639	1	13
509.979	1	6
510.319	1	-1
510.660	1	0
511.000	1	9
511.341	1	12
511.681	1	7
512.022	1	5
512.362	1	-4
512.702	1	-2
513.043	1	-1
513.383	1	9
513.724	1	3
514.064	1	1
514.404	1	2
514.745	1	6
515.085	1	-5
515.425	1	7
515.766	1	3
516.106	1	6
516.447	1	8
516.787	1	4
517.127	1	4
517.468	1	5
517.808	1	14
518.148	1	6
518.489	1	18
518.829	1	7
519.169	1	0
519.510	1	4
519.850	1	4
520.190	1	1
520.531	1	7
520.871	1	3
521.211	1	4
521.552	1	-2
521.892	1	-3
522.232	1	-2
522.573	1	4
522.913	1	6
523.253	1	9
523.593	1	8
523.934	1	1
524.274	1	0
524.614	1	15
524.955	1	4
525.295	1	11
525.635	1	12
525.975	1	4
526.316	1	6
526.656	1	9
526.996	1	10
527.337	1	7
527.677	1	3
528.017	1	6
528.357	1	-3
528.698	1	-3
529.038	1	-1
529.378	1	3
529.718	1	13
530.058	1	5
530.399	1	10
530.739	1	3
531.079	1	5
531.419	1	15
531.760	1	7
532.100	1	6
532.440	1	5
532.780	1	1
533.120	1	4
533.461	1	-2
533.801	1	-1
534.141	1	-4
534.481	1	13
534.821	1	7
535.162	1	13
535.502	1	16
535.842	1	7
536.182	1	3
536.522	1	6
536.862	1	18
537.203	1	9
537.543	1	0
537.883	1	7
538.223	1	4
538.563	1	0
538.903	1	6
539.243	1	3
539.584	1	8
539.924	1	-1
540.264	1	5
540.604	1	8
540.944	1	2
541.284	1	12
541.624	1	-1
541.964	1	6
542.305	1	7
542.645	1	0
542.985	1	8
543.325	1	3
543.665	1	9
544.005	1	11
544.345	1	6
544.685	1	10
545.025	1	4
545.365	1	8
545.705	1	7
546.045	1	11
546.386	1	12
546.726	1	-4
547.066	1	20
547.406	1	4
547.746	1	-6
548.086	1	10
548.426	1	9
548.766	1	9
549.106	1	13
549.446	1	1
549.786	1	4
550.126	1	9
550.466	1	-6
550.806	1	2
551.146	1	10
551.486	1	6
551.826	1	12
552.166	1	5
552.506	1	7
552.846	1	8
553.186	1	7
553.526	1	-9
553.866	1	2
554.206	1	9
554.546	1	-7
554.886	1	6
555.226	1	-9
555.566	1	2
555.906	1	-3
556.246	1	7
556.586	1	4
556.926	1	10
557.266	1	8
557.606	1	-6
557.946	1	13
558.286	1	10
558.626	1	12
558.966	1	3
559.306	1	13
559.646	1	1
559.986	1	4
560.325	1	0
560.665	1	3
561.005	1	-3
561.345	1	3
561.685	1	-3
562.025	1	-2
562.365	1	3
562.705	1	4
563.045	1	3
563.385	1	9
563.725	1	0
564.064	1	9
564.404	1	-10
564.744	1	2
565.084	1	12
565.424	1	3
565.764	1	-1
566.104	1	6
566.444	1	9
566.783	1	10
567.123	1	7
567.463	1	-7
567.803	1	9
568.143	1	-6
568.483	1	3
568.823	1	6
569.162	1	3
569.502	1	3
569.842	1	-4
570.182	1	0
570.522	1	-3
570.862	1	1
571.201	1	10
571.541	1	-3
571.881	1	5
572.221	1	8
572.561	1	2
572.900	1	0
573.240	1	6
573.580	1	13
573.920	1	5
574.260	1	2
574.599	1	9
574.939	1	5
575.279	1	2
575.619	1	9
575.959	1	-5
576.298	1	8
576.638	1	1
576.978	1	2
577.318	1	3
577.657	1	7
577.997	1	-2
578.337	1	6
578.677	1	3
579.016	1	4
579.356	1	7
579.696	1	-2
580.036	1	2
580.375	1	3
580.715	1	9
581.055	1	6
581.394	1	0
581.734	1	8
582.074	1	5
582.414	1	-7
582.753	1	7
583.093	1	7
583.433	1	5
583.772	1	-6
584.112	1	5
584.452	1	1
584.791	1	0
585.131	1	15
585.471	1	2
585.811	1	-7
586.150	1	1
586.490	1	12
586.830	1	6
587.169	1	14
587.509	1	2
587.849	1	3
588.188	1	1
588.528	1	2
588.867	1	1
589.207	1	5
589.547	1	2
589.886	1	-5
590.226	1	6
590.566	1	0
590.905	1	18
591.245	1	5
591.585	1	-4
591.924	1	-7
592.264	1	-1
592.603	1	3
592.943	1	10
593.283	1	7
593.622	1	-4
593.962	1	6
594.301	1	0
594.641	1	7
594.981	1	13
595.320	1	3
595.660	1	5
595.999	1	4
596.339	1	6
596.678	1	-12
597.018	1	-2
597.358	1	-2
597.697	1	4
598.037	1	1
598.376	1	3
598.716	1	2
599.055	1	1
599.395	1	2
599.734	1	14
600.074	1	-4
600.413	1	-9
600.753	1	5
601.092	1	-3
601.432	1	2
601.771	1	10
602.111	1	-4
602.451	1	14
602.790	1	13
603.130	1	-3
603.469	1	1
603.809	1	5
604.148	1	5
604.487	1	4
604.827	1	-7
605.166	1	6
605.506	1	2
605.845	1	4
606.185	1	8
606.524	1	6
606.864	1	1
607.203	1	2
607.543	1	11
607.882	1	-4
608.222	1	0
608.561	1	10
608.901	1	4
609.240	1	-5
609.579	1	-2
609.919	1	2
610.258	1	14
610.598	1	17
610.937	1	3
611.277	1	-6
611.616	1	4
611.955	1	1
612.295	1	5
612.634	1	-5
612.974	1	3
613.313	1	0
613.652	1	19
613.992	1	7
614.331	1	-3
614.671	1	6
615.010	1	9
615.349	1	7
615.689	1	16
616.028	1	1
616.368	1	5
616.707	1	13
617.046	1	-1
617.386	1	1
617.725	1	4
618.064	1	-2
618.404	1	1
618.743	1	3
619.082	1	11
619.422	1	-14
619.761	1	-1
620.100	1	-1
620.440	1	11
620.779	1	6
621.118	1	-5
621.458	1	4
621.797	1	3
622.136	1	7
622.476	1	1
622.815	1	5
623.154	1	13
623.494	1	2
623.833	1	10
624.172	1	1
624.511	1	14
624.851	1	1
625.190	1	11
625.529	1	8
625.869	1	7
626.208	1	-3
626.547	1	-2
626.886	1	9
627.226	1	6
627.565	1	1
627.904	1	1
628.243	1	-2
628.583	1	1
628.922	1	-1
629.261	1	4
629.600	1	-3
629.940	1	-2
630.279	1	2
630.618	1	-2
630.957	1	11
631.297	1	-4
631.636	1	13
631.975	1	0
632.314	1	11
632.653	1	1
632.993	1	7
633.332	1	7
633.671	1	9
634.010	1	11
634.349	1	0
634.689	1	4
635.028	1	-1
635.367	1	2
635.706	1	-1
636.045	1	7
636.384	1	-3
636.724	1	11
637.063	1	-4
637.402	1	8
637.741	1	0
638.080	1	9
638.419	1	-5
638.759	1	1
639.098	1	-4
639.437	1	-8
639.776	1	1
640.115	1	8
640.454	1	-3
640.793	1	1
641.132	1	4
641.472	1	0
641.811	1	7
642.150	1	7
642.489	1	5
642.828	1	2
643.167	1	-9
643.506	1	9
643.845	1	12
644.184	1	3
644.524	1	-4
644.863	1	-9
645.202	1	14
645.541	1	2
645.880	1	14
646.219	1	-1
646.558	1	18
646.897	1	10
647.236	1	-4
647.575	1	0
647.914	1	3
648.253	1	9
648.592	1	2
648.931	1	-2
649.270	1	-2
649.610	1	4
649.949	1	1
650.288	1	-6
650.627	1	-10
650.966	1	4
651.305	1	-6
651.644	1	10
651.983	1	0
652.322	1	4
652.661	1	8
653.000	1	-9
653.339	1	3
653.678	1	5
654.017	1	16
654.356	1	-1
654.695	1	8
655.034	1	0
655.373	1	5
655.712	1	-14
656.051	1	7
656.390	1	6
656.729	1	9
657.068	1	4
657.406	1	-3
657.745	1	12
658.084	1	-5
658.423	1	3
658.762	1	3
659.101	1	3
659.440	1	8
659.779	1	4
660.118	1	4
660.457	1	6
660.796	1	-2
661.135	1	-8
661.474	1	11
661.813	1	-6
662.152	1	-7
662.491	1	-1
662.829	1	-1
663.168	1	8
663.507	1	-1
663.846	1	-10
664.185	1	10
664.524	1	6
664.863	1	0
665.202	1	17
665.541	1	5
665.879	1	8
666.218	1	4
666.557	1	9
666.896	1	-1
667.235	1	1
667.574	1	-9
667.913	1	-7
668.251	1	9
668.590	1	6
668.929	1	9
669.268	1	2
669.607	1	0
669.946	1	8
670.285	1	12
670.623	1	6
670.962	1	2
671.301	1	2
671.640	1	6
671.979	1	6
672.317	1	1
672.656	1	6
672.995	1	-3
673.334	1	-1
673.673	1	-5
674.011	1	-3
674.350	1	4
674.689	1	1
675.028	1	5
675.367	1	-5
675.705	1	12
676.044	1	12
676.383	1	6
676.722	1	15
677.060	1	-4
677.399	1	-2
677.738	1	3
678.077	1	10
678.416	1	-3
678.754	1	6
679.093	1	-1
679.432	1	9
679.771	1	5
680.109	1	1
680.448	1	-1
680.787	1	-3
681.125	1	12
681.464	1	7
681.803	1	11
682.142	1	2
682.480	1	5
682.819	1	5
683.158	1	4
683.496	1	10
683.835	1	-1
684.174	1	-1
684.512	1	4
684.851	1	2
685.190	1	4
685.529	1	6
685.867	1	7
686.206	1	8
686.545	1	4
686.883	1	3
687.222	1	4
687.561	1	3
687.899	1	-6
688.238	1	-4
688.577	1	15
688.746	1	1