File: Data/GaN_170K_550ms/GaN_sample D_spot 18_UVVIS_170 K_200um_550 ms 2x2mm1_113.txt
340.368	1	-1
340.710	1	-8
341.052	1	4
341.394	1	6
341.737	1	5
342.079	1	6
342.421	1	6
342.763	1	8
343.105	1	2
343.447	1	-9
343.789	1	0
344.131	1	-2
344.473	1	-2
344.815	1	13
345.157	1	3
345.499	1	-6
345.841	1	6
346.183	1	5
346.526	1	8
346.868	1	8
347.210	1	-1
347.552	1	9
347.894	1	1
348.236	1	-6
348.578	1	4
348.920	1	2
349.262	1	12
349.604	1	9
349.946	1	8
350.288	1	5
350.630	1	12
350.972	1	2
351.314	1	7
351.656	1	3
351.998	1	2
352.340	1	4
352.682	1	3
353.024	1	-1
353.366	1	6
353.708	1	18
354.050	1	0
354.392	1	5
354.734	1	7
355.076	1	9
355.418	1	4
355.760	1	-3
356.102	1	6
356.444	1	-2
356.785	1	0
357.127	1	11
357.469	1	7
357.811	1	15
358.153	1	11
358.495	1	9
358.837	1	16
359.179	1	6
359.521	1	18
359.863	1	17
360.205	1	24
360.547	1	19
360.889	1	28
361.231	1	27
361.572	1	23
361.914	1	21
362.256	1	26
362.598	1	29
362.940	1	31
363.282	1	41
363.624	1	33
363.966	1	20
364.308	1	43
364.649	1	30
364.991	1	47
365.333	1	54
365.675	1	50
366.017	1	52
366.359	1	51
366.701	1	60
367.042	1	57
367.384	1	82
367.726	1	76
368.068	1	69
368.410	1	77
368.752	1	66
369.093	1	66
369.435	1	61
369.777	1	70
370.119	1	61
370.461	1	62
370.803	1	62
371.144	1	58
371.486	1	52
371.828	1	54
372.170	1	60
372.512	1	37
372.853	1	54
373.195	1	43
373.537	1	59
373.879	1	50
374.220	1	45
374.562	1	40
374.904	1	28
375.246	1	45
375.588	1	36
375.929	1	34
376.271	1	37
376.613	1	32
376.955	1	37
377.296	1	26
377.638	1	32
377.980	1	15
378.321	1	26
378.663	1	24
379.005	1	18
379.347	1	22
379.688	1	14
380.030	1	13
380.372	1	28
380.714	1	21
381.055	1	13
381.397	1	18
381.739	1	14
382.080	1	15
382.422	1	15
382.764	1	23
383.105	1	20
383.447	1	23
383.789	1	16
384.130	1	9
384.472	1	6
384.814	1	5
385.156	1	13
385.497	1	20
385.839	1	5
386.180	1	10
386.522	1	13
386.864	1	12
387.205	1	2
387.547	1	12
387.889	1	19
388.230	1	10
388.572	1	19
388.914	1	2
389.255	1	19
389.597	1	8
389.939	1	-2
390.280	1	3
390.622	1	1
390.963	1	9
391.305	1	3
391.647	1	2
391.988	1	14
392.330	1	13
392.671	1	4
393.013	1	6
393.355	1	9
393.696	1	12
394.038	1	-3
394.379	1	3
394.721	1	4
395.062	1	5
395.404	1	10
395.746	1	11
396.087	1	2
396.429	1	9
396.770	1	17
397.112	1	2
397.453	1	8
397.795	1	1
398.136	1	3
398.478	1	-1
398.819	1	9
399.161	1	-5
399.503	1	2
399.844	1	-3
400.186	1	-8
400.527	1	9
400.869	1	8
401.210	1	4
401.552	1	8
401.893	1	11
402.235	1	7
402.576	1	-2
402.918	1	-1
403.259	1	0
403.601	1	3
403.942	1	8
404.284	1	-3
404.625	1	6
404.967	1	9
405.308	1	12
405.649	1	-1
405.991	1	14
406.332	1	-2
406.674	1	5
407.015	1	3
407.357	1	3
407.698	1	0
408.040	1	2
408.381	1	3
408.722	1	1
409.064	1	5
409.405	1	5
409.747	1	2
410.088	1	16
410.430	1	0
410.771	1	2
411.112	1	12
411.454	1	9
411.795	1	6
412.137	1	0
412.478	1	-4
412.819	1	-8
413.161	1	12
413.502	1	-2
413.844	1	9
414.185	1	-1
414.526	1	3
414.868	1	9
415.209	1	-8
415.550	1	4
415.892	1	13
416.233	1	11
416.575	1	2
416.916	1	-7
417.257	1	1
417.599	1	1
417.940	1	-3
418.281	1	-14
418.623	1	3
418.964	1	-7
419.305	1	3
419.647	1	8
419.988	1	4
420.329	1	9
420.671	1	2
421.012	1	4
421.353	1	0
421.695	1	-6
422.036	1	2
422.377	1	8
422.718	1	17
423.060	1	1
423.401	1	-2
423.742	1	-5
424.084	1	10
424.425	1	-5
424.766	1	3
425.107	1	4
425.449	1	12
425.790	1	9
426.131	1	13
426.472	1	12
426.814	1	-4
427.155	1	12
427.496	1	9
427.837	1	0
428.179	1	7
428.520	1	1
428.861	1	4
429.202	1	-9
429.544	1	-5
429.885	1	2
430.226	1	4
430.567	1	2
430.909	1	3
431.250	1	10
431.591	1	8
431.932	1	1
432.273	1	-7
432.615	1	9
432.956	1	4
433.297	1	2
433.638	1	12
433.979	1	2
434.320	1	13
434.662	1	-9
435.003	1	4
435.344	1	4
435.685	1	2
436.026	1	4
436.368	1	0
436.709	1	-6
437.050	1	-3
437.391	1	0
437.732	1	7
438.073	1	3
438.414	1	0
438.756	1	8
439.097	1	-1
439.438	1	8
439.779	1	10
440.120	1	-4
440.461	1	18
440.802	1	17
441.143	1	-3
441.485	1	0
441.826	1	1
442.167	1	10
442.508	1	-1
442.849	1	1
443.190	1	4
443.531	1	3
443.872	1	-1
444.213	1	-3
444.554	1	5
444.895	1	-6
445.237	1	-7
445.578	1	15
445.919	1	4
446.260	1	4
446.601	1	-7
446.942	1	3
447.283	1	11
447.624	1	-2
447.965	1	12
448.306	1	3
448.647	1	2
448.988	1	11
449.329	1	7
449.670	1	-11
450.011	1	8
450.352	1	-5
450.693	1	3
451.034	1	-6
451.375	1	6
451.716	1	10
452.057	1	1
452.398	1	8
452.739	1	6
453.080	1	14
453.421	1	6
453.762	1	-3
454.103	1	-5
454.444	1	-1
454.785	1	4
455.126	1	12
455.467	1	-2
455.808	1	5
456.149	1	-2
456.490	1	0
456.831	1	-2
457.172	1	-5
457.513	1	6
457.854	1	15
458.195	1	1
458.536	1	-2
458.877	1	4
459.218	1	2
459.559	1	13
459.899	1	8
460.240	1	-1
460.581	1	14
460.922	1	1
461.263	1	7
461.604	1	12
461.945	1	0
462.286	1	-1
462.627	1	3
462.968	1	11
463.309	1	8
463.649	1	-2
463.990	1	-4
464.331	1	3
464.672	1	0
465.013	1	9
465.354	1	-2
465.695	1	6
466.036	1	-11
466.376	1	6
466.717	1	2
467.058	1	6
467.399	1	18
467.740	1	5
468.081	1	5
468.422	1	9
468.762	1	7
469.103	1	6
469.444	1	1
469.785	1	3
470.126	1	3
470.467	1	3
470.807	1	10
471.148	1	-3
471.489	1	12
471.830	1	2
472.171	1	-1
472.511	1	10
472.852	1	3
473.193	1	8
473.534	1	-1
473.875	1	5
474.215	1	5
474.556	1	8
474.897	1	2
475.238	1	0
475.578	1	5
475.919	1	6
476.260	1	16
476.601	1	7
476.942	1	-6
477.282	1	8
477.623	1	10
477.964	1	5
478.305	1	3
478.645	1	1
478.986	1	-4
479.327	1	-9
479.667	1	-2
480.008	1	8
480.349	1	2
480.690	1	3
481.030	1	1
481.371	1	3
481.712	1	6
482.053	1	-5
482.393	1	0
482.734	1	2
483.075	1	4
483.415	1	8
483.756	1	9
484.097	1	1
484.437	1	0
484.778	1	-6
485.119	1	8
485.459	1	3
485.800	1	0
486.141	1	17
486.481	1	6
486.822	1	3
487.163	1	8
487.503	1	6
487.844	1	9
488.185	1	9
488.525	1	12
488.866	1	9
489.207	1	8
489.547	1	7
489.888	1	9
490.228	1	-5
490.569	1	8
490.910	1	9
491.250	1	10
491.591	1	15
491.932	1	8
492.272	1	7
492.613	1	7
492.953	1	-1
493.294	1	3
493.635	1	4
493.975	1	10
494.316	1	1
494.656	1	11
494.997	1	2
495.337	1	9
495.678	1	2
496.019	1	-7
496.359	1	12
496.700	1	15
497.040	1	-2
497.381	1	10
497.721	1	5
498.062	1	12
498.403	1	6
498.743	1	7
499.084	1	6
499.424	1	12
499.765	1	-8
500.105	1	-8
500.446	1	2
500.786	1	-2
501.127	1	15
501.467	1	-2
501.808	1	7
502.148	1	5
502.489	1	8
502.829	1	14
503.170	1	15
503.510	1	7
503.851	1	10
504.191	1	-2
504.532	1	-6
504.872	1	9
505.213	1	0
505.553	1	8
505.894	1	11
506.234	1	-5
506.575	1	1
506.915	1	15
507.256	1	5
507.596	1	11
507.936	1	21
508.277	1	-2
508.617	1	9
508.958	1	8
509.298	1	6
509.639	1	19
509.979	1	17
510.319	1	2
510.660	1	1
511.000	1	15
511.341	1	8
511.681	1	1
512.022	1	17
512.362	1	-2
512.702	1	1
513.043	1	14
513.383	1	11
513.724	1	10
514.064	1	21
514.404	1	10
514.745	1	3
515.085	1	11
515.425	1	11
515.766	1	16
516.106	1	18
516.447	1	2
516.787	1	13
517.127	1	14
517.468	1	17
517.808	1	18
518.148	1	10
518.489	1	14
518.829	1	11
519.169	1	1
519.510	1	8
519.850	1	8
520.190	1	12
520.531	1	11
520.871	1	9
521.211	1	16
521.552	1	15
521.892	1	10
522.232	1	2
522.573	1	9
522.913	1	14
523.253	1	22
523.593	1	23
523.934	1	12
524.274	1	17
524.614	1	8
524.955	1	2
525.295	1	8
525.635	1	12
525.975	1	5
526.316	1	23
526.656	1	21
526.996	1	9
527.337	1	4
527.677	1	11
528.017	1	14
528.357	1	1
528.698	1	4
529.038	1	0
529.378	1	13
529.718	1	22
530.058	1	18
530.399	1	9
530.739	1	11
531.079	1	10
531.419	1	13
531.760	1	18
532.100	1	11
532.440	1	21
532.780	1	-2
533.120	1	16
533.461	1	10
533.801	1	12
534.141	1	7
534.481	1	13
534.821	1	9
535.162	1	16
535.502	1	12
535.842	1	11
536.182	1	11
536.522	1	13
536.862	1	23
537.203	1	6
537.543	1	10
537.883	1	20
538.223	1	9
538.563	1	12
538.903	1	23
539.243	1	6
539.584	1	12
539.924	1	12
540.264	1	11
540.604	1	0
540.944	1	2
541.284	1	21
541.624	1	9
541.964	1	17
542.305	1	12
542.645	1	-6
542.985	1	11
543.325	1	3
543.665	1	10
544.005	1	20
544.345	1	12
544.685	1	7
545.025	1	9
545.365	1	4
545.705	1	16
546.045	1	13
546.386	1	3
546.726	1	13
547.066	1	23
547.406	1	10
547.746	1	13
548.086	1	7
548.426	1	17
548.766	1	15
549.106	1	14
549.446	1	8
549.786	1	6
550.126	1	22
550.466	1	8
550.806	1	14
551.146	1	12
551.486	1	9
551.826	1	16
552.166	1	6
552.506	1	14
552.846	1	9
553.186	1	14
553.526	1	-3
553.866	1	3
554.206	1	8
554.546	1	-3
554.886	1	5
555.226	1	3
555.566	1	15
555.906	1	2
556.246	1	7
556.586	1	2
556.926	1	10
557.266	1	4
557.606	1	9
557.946	1	9
558.286	1	8
558.626	1	12
558.966	1	-1
559.306	1	9
559.646	1	13
559.986	1	17
560.325	1	3
560.665	1	17
561.005	1	6
561.345	1	5
561.685	1	4
562.025	1	0
562.365	1	12
562.705	1	12
563.045	1	0
563.385	1	19
563.725	1	9
564.064	1	4
564.404	1	2
564.744	1	5
565.084	1	6
565.424	1	5
565.764	1	4
566.104	1	10
566.444	1	6
566.783	1	9
567.123	1	8
567.463	1	2
567.803	1	5
568.143	1	-1
568.483	1	13
568.823	1	3
569.162	1	8
569.502	1	11
569.842	1	7
570.182	1	4
570.522	1	6
570.862	1	5
571.201	1	6
571.541	1	-1
571.881	1	-1
572.221	1	6
572.561	1	14
572.900	1	4
573.240	1	7
573.580	1	-4
573.920	1	18
574.260	1	8
574.599	1	10
574.939	1	-2
575.279	1	2
575.619	1	14
575.959	1	-4
576.298	1	11
576.638	1	7
576.978	1	-3
577.318	1	7
577.657	1	3
577.997	1	3
578.337	1	4
578.677	1	16
579.016	1	11
579.356	1	5
579.696	1	5
580.036	1	8
580.375	1	1
580.715	1	9
581.055	1	8
581.394	1	7
581.734	1	17
582.074	1	13
582.414	1	-7
582.753	1	4
583.093	1	3
583.433	1	13
583.772	1	2
584.112	1	13
584.452	1	2
584.791	1	7
585.131	1	8
585.471	1	10
585.811	1	-1
586.150	1	6
586.490	1	9
586.830	1	1
587.169	1	14
587.509	1	8
587.849	1	-1
588.188	1	6
588.528	1	1
588.867	1	-4
589.207	1	-5
589.547	1	16
589.886	1	10
590.226	1	8
590.566	1	-3
590.905	1	13
591.245	1	2
591.585	1	-5
591.924	1	2
592.264	1	1
592.603	1	5
592.943	1	12
593.283	1	10
593.622	1	-4
593.962	1	11
594.301	1	15
594.641	1	16
594.981	1	14
595.320	1	3
595.660	1	4
595.999	1	8
596.339	1	9
596.678	1	-8
597.018	1	-3
597.358	1	-3
597.697	1	0
598.037	1	5
598.376	1	-7
598.716	1	15
599.055	1	5
599.395	1	3
599.734	1	14
600.074	1	10
600.413	1	-1
600.753	1	4
601.092	1	2
601.432	1	-5
601.771	1	7
602.111	1	8
602.451	1	3
602.790	1	15
603.130	1	1
603.469	1	3
603.809	1	7
604.148	1	4
604.487	1	12
604.827	1	-4
605.166	1	8
605.506	1	2
605.845	1	12
606.185	1	5
606.524	1	5
606.864	1	-4
607.203	1	6
607.543	1	8
607.882	1	1
608.222	1	-3
608.561	1	7
608.901	1	5
609.240	1	0
609.579	1	11
609.919	1	-3
610.258	1	7
610.598	1	9
610.937	1	1
611.277	1	3
611.616	1	9
611.955	1	12
612.295	1	-4
612.634	1	1
612.974	1	9
613.313	1	2
613.652	1	9
613.992	1	2
614.331	1	6
614.671	1	11
615.010	1	-1
615.349	1	7
615.689	1	12
616.028	1	6
616.368	1	-1
616.707	1	11
617.046	1	-3
617.386	1	2
617.725	1	5
618.064	1	7
618.404	1	-2
618.743	1	9
619.082	1	6
619.422	1	-3
619.761	1	3
620.100	1	0
620.440	1	6
620.779	1	-1
621.118	1	-1
621.458	1	-6
621.797	1	3
622.136	1	5
622.476	1	-2
622.815	1	7
623.154	1	-1
623.494	1	-6
623.833	1	5
624.172	1	1
624.511	1	8
624.851	1	3
625.190	1	6
625.529	1	12
625.869	1	13
626.208	1	6
626.547	1	-10
626.886	1	2
627.226	1	2
627.565	1	5
627.904	1	2
628.243	1	5
628.583	1	0
628.922	1	-3
629.261	1	8
629.600	1	5
629.940	1	6
630.279	1	4
630.618	1	9
630.957	1	8
631.297	1	-1
631.636	1	7
631.975	1	-6
632.314	1	2
632.653	1	9
632.993	1	6
633.332	1	0
633.671	1	12
634.010	1	1
634.349	1	0
634.689	1	9
635.028	1	1
635.367	1	-1
635.706	1	1
636.045	1	7
636.384	1	-11
636.724	1	10
637.063	1	-3
637.402	1	11
637.741	1	-2
638.080	1	7
638.419	1	-14
638.759	1	8
639.098	1	-4
639.437	1	-4
639.776	1	9
640.115	1	8
640.454	1	1
640.793	1	4
641.132	1	6
641.472	1	2
641.811	1	13
642.150	1	2
642.489	1	-1
642.828	1	11
643.167	1	-1
643.506	1	3
643.845	1	9
644.184	1	9
644.524	1	9
644.863	1	-4
645.202	1	7
645.541	1	3
645.880	1	10
646.219	1	5
646.558	1	7
646.897	1	6
647.236	1	2
647.575	1	5
647.914	1	5
648.253	1	-2
648.592	1	0
648.931	1	-1
649.270	1	-4
649.610	1	1
649.949	1	1
650.288	1	-3
650.627	1	-7
650.966	1	6
651.305	1	-10
651.644	1	7
651.983	1	4
652.322	1	5
652.661	1	5
653.000	1	-5
653.339	1	0
653.678	1	3
654.017	1	6
654.356	1	4
654.695	1	13
655.034	1	5
655.373	1	9
655.712	1	-4
656.051	1	0
656.390	1	2
656.729	1	5
657.068	1	5
657.406	1	0
657.745	1	10
658.084	1	-3
658.423	1	2
658.762	1	-5
659.101	1	2
659.440	1	3
659.779	1	3
660.118	1	7
660.457	1	14
660.796	1	-3
661.135	1	-13
661.474	1	5
661.813	1	-3
662.152	1	-1
662.491	1	-9
662.829	1	1
663.168	1	2
663.507	1	-1
663.846	1	-3
664.185	1	8
664.524	1	2
664.863	1	0
665.202	1	13
665.541	1	3
665.879	1	12
666.218	1	8
666.557	1	5
666.896	1	2
667.235	1	-4
667.574	1	-11
667.913	1	-3
668.251	1	8
668.590	1	-5
668.929	1	9
669.268	1	-5
669.607	1	12
669.946	1	6
670.285	1	19
670.623	1	6
670.962	1	-5
671.301	1	4
671.640	1	4
671.979	1	0
672.317	1	8
672.656	1	-2
672.995	1	2
673.334	1	1
673.673	1	3
674.011	1	13
674.350	1	-1
674.689	1	5
675.028	1	3
675.367	1	0
675.705	1	9
676.044	1	10
676.383	1	-3
676.722	1	11
677.060	1	5
677.399	1	2
677.738	1	2
678.077	1	21
678.416	1	3
678.754	1	9
679.093	1	3
679.432	1	4
679.771	1	11
680.109	1	5
680.448	1	4
680.787	1	-1
681.125	1	13
681.464	1	12
681.803	1	16
682.142	1	2
682.480	1	9
682.819	1	14
683.158	1	-3
683.496	1	-1
683.835	1	-12
684.174	1	-2
684.512	1	-2
684.851	1	-7
685.190	1	3
685.529	1	17
685.867	1	5
686.206	1	-1
686.545	1	10
686.883	1	-7
687.222	1	-6
687.561	1	2
687.899	1	-2
688.238	1	0
688.577	1	9
688.746	1	-3