File: Data/GaN_170K_550ms/GaN_sample D_spot 18_UVVIS_170 K_200um_550 ms 2x2mm1_85.txt
340.368	1	-9
340.710	1	-3
341.052	1	9
341.394	1	8
341.737	1	-5
342.079	1	7
342.421	1	10
342.763	1	5
343.105	1	13
343.447	1	1
343.789	1	7
344.131	1	-1
344.473	1	11
344.815	1	14
345.157	1	4
345.499	1	1
345.841	1	16
346.183	1	7
346.526	1	4
346.868	1	8
347.210	1	0
347.552	1	22
347.894	1	6
348.236	1	3
348.578	1	3
348.920	1	-1
349.262	1	2
349.604	1	20
349.946	1	14
350.288	1	-1
350.630	1	10
350.972	1	-3
351.314	1	9
351.656	1	5
351.998	1	8
352.340	1	1
352.682	1	9
353.024	1	8
353.366	1	12
353.708	1	16
354.050	1	5
354.392	1	8
354.734	1	10
355.076	1	16
355.418	1	-4
355.760	1	9
356.102	1	15
356.444	1	1
356.785	1	14
357.127	1	7
357.469	1	12
357.811	1	18
358.153	1	14
358.495	1	14
358.837	1	22
359.179	1	22
359.521	1	23
359.863	1	28
360.205	1	34
360.547	1	37
360.889	1	41
361.231	1	45
361.572	1	42
361.914	1	45
362.256	1	41
362.598	1	47
362.940	1	63
363.282	1	64
363.624	1	60
363.966	1	66
364.308	1	77
364.649	1	78
364.991	1	106
365.333	1	89
365.675	1	112
366.017	1	116
366.359	1	132
366.701	1	124
367.042	1	122
367.384	1	147
367.726	1	149
368.068	1	150
368.410	1	158
368.752	1	147
369.093	1	140
369.435	1	140
369.777	1	158
370.119	1	134
370.461	1	127
370.803	1	126
371.144	1	124
371.486	1	107
371.828	1	106
372.170	1	108
372.512	1	102
372.853	1	115
373.195	1	89
373.537	1	100
373.879	1	85
374.220	1	84
374.562	1	79
374.904	1	65
375.246	1	67
375.588	1	64
375.929	1	61
376.271	1	60
376.613	1	60
376.955	1	65
377.296	1	60
377.638	1	56
377.980	1	40
378.321	1	57
378.663	1	54
379.005	1	35
379.347	1	48
379.688	1	38
380.030	1	40
380.372	1	42
380.714	1	44
381.055	1	41
381.397	1	33
381.739	1	30
382.080	1	24
382.422	1	33
382.764	1	32
383.105	1	32
383.447	1	28
383.789	1	47
384.130	1	23
384.472	1	20
384.814	1	35
385.156	1	21
385.497	1	32
385.839	1	25
386.180	1	28
386.522	1	22
386.864	1	9
387.205	1	17
387.547	1	10
387.889	1	21
388.230	1	6
388.572	1	22
388.914	1	8
389.255	1	13
389.597	1	17
389.939	1	9
390.280	1	16
390.622	1	4
390.963	1	11
391.305	1	12
391.647	1	-6
391.988	1	11
392.330	1	16
392.671	1	10
393.013	1	10
393.355	1	4
393.696	1	18
394.038	1	7
394.379	1	3
394.721	1	11
395.062	1	-1
395.404	1	9
395.746	1	18
396.087	1	17
396.429	1	12
396.770	1	15
397.112	1	7
397.453	1	12
397.795	1	14
398.136	1	5
398.478	1	3
398.819	1	1
399.161	1	11
399.503	1	13
399.844	1	8
400.186	1	3
400.527	1	21
400.869	1	7
401.210	1	10
401.552	1	6
401.893	1	9
402.235	1	12
402.576	1	-3
402.918	1	7
403.259	1	5
403.601	1	8
403.942	1	14
404.284	1	-6
404.625	1	3
404.967	1	10
405.308	1	8
405.649	1	7
405.991	1	12
406.332	1	3
406.674	1	10
407.015	1	15
407.357	1	3
407.698	1	4
408.040	1	5
408.381	1	4
408.722	1	10
409.064	1	9
409.405	1	9
409.747	1	0
410.088	1	14
410.430	1	0
410.771	1	8
411.112	1	15
411.454	1	-2
411.795	1	15
412.137	1	-1
412.478	1	10
412.819	1	1
413.161	1	9
413.502	1	-2
413.844	1	6
414.185	1	-6
414.526	1	4
414.868	1	6
415.209	1	-13
415.550	1	11
415.892	1	14
416.233	1	19
416.575	1	-3
416.916	1	-8
417.257	1	6
417.599	1	5
417.940	1	12
418.281	1	1
418.623	1	1
418.964	1	-5
419.305	1	15
419.647	1	7
419.988	1	13
420.329	1	11
420.671	1	0
421.012	1	10
421.353	1	13
421.695	1	-4
422.036	1	15
422.377	1	12
422.718	1	18
423.060	1	0
423.401	1	3
423.742	1	0
424.084	1	14
424.425	1	-4
424.766	1	1
425.107	1	1
425.449	1	9
425.790	1	-2
426.131	1	3
426.472	1	0
426.814	1	-8
427.155	1	13
427.496	1	-2
427.837	1	17
428.179	1	8
428.520	1	1
428.861	1	8
429.202	1	4
429.544	1	1
429.885	1	5
430.226	1	0
430.567	1	5
430.909	1	-4
431.250	1	18
431.591	1	1
431.932	1	2
432.273	1	-6
432.615	1	2
432.956	1	10
433.297	1	1
433.638	1	8
433.979	1	7
434.320	1	19
434.662	1	-7
435.003	1	8
435.344	1	10
435.685	1	3
436.026	1	3
436.368	1	7
436.709	1	7
437.050	1	-4
437.391	1	-2
437.732	1	5
438.073	1	6
438.414	1	-1
438.756	1	5
439.097	1	5
439.438	1	6
439.779	1	15
440.120	1	2
440.461	1	20
440.802	1	7
441.143	1	3
441.485	1	-4
441.826	1	8
442.167	1	5
442.508	1	-1
442.849	1	2
443.190	1	4
443.531	1	7
443.872	1	-6
444.213	1	-6
444.554	1	4
444.895	1	-7
445.237	1	-3
445.578	1	11
445.919	1	6
446.260	1	12
446.601	1	0
446.942	1	5
447.283	1	8
447.624	1	-7
447.965	1	3
448.306	1	2
448.647	1	8
448.988	1	12
449.329	1	4
449.670	1	-11
450.011	1	9
450.352	1	-2
450.693	1	-2
451.034	1	-1
451.375	1	5
451.716	1	3
452.057	1	4
452.398	1	9
452.739	1	1
453.080	1	5
453.421	1	7
453.762	1	4
454.103	1	3
454.444	1	-2
454.785	1	3
455.126	1	10
455.467	1	-13
455.808	1	14
456.149	1	2
456.490	1	2
456.831	1	1
457.172	1	3
457.513	1	14
457.854	1	9
458.195	1	7
458.536	1	8
458.877	1	5
459.218	1	1
459.559	1	2
459.899	1	4
460.240	1	-5
460.581	1	11
460.922	1	-1
461.263	1	4
461.604	1	7
461.945	1	4
462.286	1	-2
462.627	1	8
462.968	1	5
463.309	1	7
463.649	1	10
463.990	1	8
464.331	1	6
464.672	1	-1
465.013	1	13
465.354	1	-3
465.695	1	6
466.036	1	-9
466.376	1	7
466.717	1	0
467.058	1	7
467.399	1	13
467.740	1	-2
468.081	1	-3
468.422	1	13
468.762	1	10
469.103	1	9
469.444	1	0
469.785	1	5
470.126	1	5
470.467	1	3
470.807	1	-2
471.148	1	-1
471.489	1	7
471.830	1	10
472.171	1	8
472.511	1	5
472.852	1	6
473.193	1	11
473.534	1	6
473.875	1	3
474.215	1	5
474.556	1	6
474.897	1	0
475.238	1	4
475.578	1	5
475.919	1	15
476.260	1	11
476.601	1	0
476.942	1	3
477.282	1	14
477.623	1	11
477.964	1	13
478.305	1	-2
478.645	1	14
478.986	1	7
479.327	1	-11
479.667	1	-3
480.008	1	2
480.349	1	13
480.690	1	13
481.030	1	7
481.371	1	5
481.712	1	15
482.053	1	-2
482.393	1	3
482.734	1	10
483.075	1	6
483.415	1	4
483.756	1	7
484.097	1	-6
484.437	1	3
484.778	1	-5
485.119	1	6
485.459	1	-4
485.800	1	-3
486.141	1	18
486.481	1	6
486.822	1	15
487.163	1	12
487.503	1	6
487.844	1	16
488.185	1	13
488.525	1	9
488.866	1	16
489.207	1	13
489.547	1	12
489.888	1	6
490.228	1	10
490.569	1	3
490.910	1	4
491.250	1	13
491.591	1	12
491.932	1	11
492.272	1	15
492.613	1	5
492.953	1	11
493.294	1	-2
493.635	1	8
493.975	1	8
494.316	1	11
494.656	1	12
494.997	1	4
495.337	1	15
495.678	1	11
496.019	1	-2
496.359	1	14
496.700	1	27
497.040	1	15
497.381	1	12
497.721	1	10
498.062	1	10
498.403	1	10
498.743	1	17
499.084	1	15
499.424	1	15
499.765	1	0
500.105	1	11
500.446	1	3
500.786	1	12
501.127	1	18
501.467	1	14
501.808	1	3
502.148	1	24
502.489	1	23
502.829	1	19
503.170	1	20
503.510	1	17
503.851	1	13
504.191	1	9
504.532	1	2
504.872	1	13
505.213	1	2
505.553	1	23
505.894	1	22
506.234	1	9
506.575	1	19
506.915	1	16
507.256	1	16
507.596	1	23
507.936	1	31
508.277	1	11
508.617	1	28
508.958	1	19
509.298	1	15
509.639	1	25
509.979	1	22
510.319	1	4
510.660	1	10
511.000	1	21
511.341	1	21
511.681	1	17
512.022	1	24
512.362	1	18
512.702	1	21
513.043	1	21
513.383	1	25
513.724	1	24
514.064	1	23
514.404	1	7
514.745	1	13
515.085	1	23
515.425	1	28
515.766	1	21
516.106	1	21
516.447	1	28
516.787	1	25
517.127	1	15
517.468	1	16
517.808	1	22
518.148	1	23
518.489	1	28
518.829	1	20
519.169	1	24
519.510	1	21
519.850	1	22
520.190	1	13
520.531	1	29
520.871	1	16
521.211	1	26
521.552	1	14
521.892	1	22
522.232	1	16
522.573	1	24
522.913	1	25
523.253	1	34
523.593	1	25
523.934	1	18
524.274	1	23
524.614	1	20
524.955	1	16
525.295	1	12
525.635	1	28
525.975	1	27
526.316	1	29
526.656	1	24
526.996	1	22
527.337	1	20
527.677	1	11
528.017	1	23
528.357	1	16
528.698	1	19
529.038	1	21
529.378	1	26
529.718	1	37
530.058	1	31
530.399	1	25
530.739	1	36
531.079	1	27
531.419	1	28
531.760	1	28
532.100	1	38
532.440	1	25
532.780	1	16
533.120	1	32
533.461	1	15
533.801	1	25
534.141	1	13
534.481	1	36
534.821	1	28
535.162	1	24
535.502	1	27
535.842	1	18
536.182	1	18
536.522	1	33
536.862	1	29
537.203	1	22
537.543	1	21
537.883	1	29
538.223	1	26
538.563	1	20
538.903	1	28
539.243	1	28
539.584	1	15
539.924	1	11
540.264	1	42
540.604	1	11
540.944	1	18
541.284	1	20
541.624	1	20
541.964	1	19
542.305	1	19
542.645	1	13
542.985	1	27
543.325	1	13
543.665	1	21
544.005	1	30
544.345	1	21
544.685	1	19
545.025	1	17
545.365	1	28
545.705	1	24
546.045	1	11
546.386	1	9
546.726	1	19
547.066	1	31
547.406	1	17
547.746	1	19
548.086	1	16
548.426	1	25
548.766	1	23
549.106	1	26
549.446	1	25
549.786	1	11
550.126	1	8
550.466	1	5
550.806	1	17
551.146	1	24
551.486	1	25
551.826	1	27
552.166	1	16
552.506	1	20
552.846	1	22
553.186	1	24
553.526	1	8
553.866	1	6
554.206	1	22
554.546	1	7
554.886	1	10
555.226	1	11
555.566	1	14
555.906	1	8
556.246	1	26
556.586	1	12
556.926	1	15
557.266	1	22
557.606	1	27
557.946	1	20
558.286	1	16
558.626	1	18
558.966	1	14
559.306	1	24
559.646	1	10
559.986	1	17
560.325	1	12
560.665	1	24
561.005	1	18
561.345	1	9
561.685	1	17
562.025	1	5
562.365	1	17
562.705	1	21
563.045	1	7
563.385	1	24
563.725	1	12
564.064	1	13
564.404	1	12
564.744	1	16
565.084	1	21
565.424	1	10
565.764	1	4
566.104	1	19
566.444	1	18
566.783	1	10
567.123	1	23
567.463	1	5
567.803	1	9
568.143	1	15
568.483	1	12
568.823	1	10
569.162	1	12
569.502	1	12
569.842	1	9
570.182	1	9
570.522	1	12
570.862	1	11
571.201	1	16
571.541	1	11
571.881	1	0
572.221	1	10
572.561	1	16
572.900	1	5
573.240	1	5
573.580	1	10
573.920	1	17
574.260	1	5
574.599	1	8
574.939	1	7
575.279	1	3
575.619	1	22
575.959	1	0
576.298	1	13
576.638	1	25
576.978	1	-2
577.318	1	14
577.657	1	6
577.997	1	8
578.337	1	20
578.677	1	10
579.016	1	13
579.356	1	12
579.696	1	0
580.036	1	10
580.375	1	6
580.715	1	20
581.055	1	10
581.394	1	9
581.734	1	16
582.074	1	8
582.414	1	-4
582.753	1	9
583.093	1	11
583.433	1	18
583.772	1	6
584.112	1	3
584.452	1	5
584.791	1	7
585.131	1	17
585.471	1	14
585.811	1	2
586.150	1	10
586.490	1	16
586.830	1	-2
587.169	1	18
587.509	1	14
587.849	1	11
588.188	1	2
588.528	1	7
588.867	1	9
589.207	1	-1
589.547	1	13
589.886	1	0
590.226	1	9
590.566	1	7
590.905	1	12
591.245	1	12
591.585	1	0
591.924	1	4
592.264	1	-8
592.603	1	9
592.943	1	13
593.283	1	9
593.622	1	5
593.962	1	3
594.301	1	16
594.641	1	11
594.981	1	15
595.320	1	4
595.660	1	11
595.999	1	12
596.339	1	10
596.678	1	6
597.018	1	4
597.358	1	2
597.697	1	9
598.037	1	11
598.376	1	-6
598.716	1	15
599.055	1	6
599.395	1	6
599.734	1	22
600.074	1	-5
600.413	1	1
600.753	1	15
601.092	1	9
601.432	1	-1
601.771	1	14
602.111	1	8
602.451	1	12
602.790	1	18
603.130	1	12
603.469	1	8
603.809	1	9
604.148	1	12
604.487	1	13
604.827	1	-2
605.166	1	6
605.506	1	9
605.845	1	3
606.185	1	6
606.524	1	5
606.864	1	12
607.203	1	13
607.543	1	12
607.882	1	3
608.222	1	4
608.561	1	6
608.901	1	8
609.240	1	8
609.579	1	14
609.919	1	-3
610.258	1	11
610.598	1	15
610.937	1	8
611.277	1	7
611.616	1	10
611.955	1	16
612.295	1	-1
612.634	1	6
612.974	1	4
613.313	1	3
613.652	1	18
613.992	1	1
614.331	1	-1
614.671	1	18
615.010	1	8
615.349	1	10
615.689	1	8
616.028	1	3
616.368	1	-2
616.707	1	5
617.046	1	0
617.386	1	3
617.725	1	-2
618.064	1	6
618.404	1	7
618.743	1	11
619.082	1	11
619.422	1	0
619.761	1	5
620.100	1	1
620.440	1	4
620.779	1	-1
621.118	1	1
621.458	1	17
621.797	1	8
622.136	1	11
622.476	1	-2
622.815	1	11
623.154	1	4
623.494	1	8
623.833	1	17
624.172	1	5
624.511	1	8
624.851	1	7
625.190	1	7
625.529	1	9
625.869	1	13
626.208	1	5
626.547	1	-2
626.886	1	13
627.226	1	5
627.565	1	12
627.904	1	-2
628.243	1	5
628.583	1	7
628.922	1	-3
629.261	1	-2
629.600	1	3
629.940	1	2
630.279	1	6
630.618	1	-9
630.957	1	16
631.297	1	1
631.636	1	16
631.975	1	12
632.314	1	6
632.653	1	11
632.993	1	4
633.332	1	7
633.671	1	11
634.010	1	20
634.349	1	-1
634.689	1	4
635.028	1	5
635.367	1	-1
635.706	1	3
636.045	1	11
636.384	1	-2
636.724	1	9
637.063	1	5
637.402	1	23
637.741	1	0
638.080	1	9
638.419	1	2
638.759	1	6
639.098	1	-2
639.437	1	0
639.776	1	1
640.115	1	5
640.454	1	5
640.793	1	-1
641.132	1	5
641.472	1	-3
641.811	1	4
642.150	1	-1
642.489	1	-3
642.828	1	7
643.167	1	1
643.506	1	9
643.845	1	8
644.184	1	8
644.524	1	2
644.863	1	-5
645.202	1	14
645.541	1	2
645.880	1	5
646.219	1	8
646.558	1	12
646.897	1	9
647.236	1	-6
647.575	1	-9
647.914	1	-2
648.253	1	12
648.592	1	1
648.931	1	7
649.270	1	5
649.610	1	7
649.949	1	5
650.288	1	4
650.627	1	-2
650.966	1	2
651.305	1	-2
651.644	1	2
651.983	1	5
652.322	1	14
652.661	1	5
653.000	1	0
653.339	1	3
653.678	1	9
654.017	1	15
654.356	1	2
654.695	1	7
655.034	1	3
655.373	1	5
655.712	1	-3
656.051	1	13
656.390	1	0
656.729	1	7
657.068	1	6
657.406	1	4
657.745	1	8
658.084	1	1
658.423	1	5
658.762	1	3
659.101	1	11
659.440	1	0
659.779	1	4
660.118	1	5
660.457	1	18
660.796	1	4
661.135	1	-7
661.474	1	8
661.813	1	7
662.152	1	0
662.491	1	-12
662.829	1	11
663.168	1	5
663.507	1	-3
663.846	1	-12
664.185	1	6
664.524	1	-6
664.863	1	2
665.202	1	11
665.541	1	7
665.879	1	19
666.218	1	12
666.557	1	11
666.896	1	6
667.235	1	6
667.574	1	-10
667.913	1	1
668.251	1	6
668.590	1	0
668.929	1	7
669.268	1	-1
669.607	1	-1
669.946	1	3
670.285	1	20
670.623	1	2
670.962	1	7
671.301	1	8
671.640	1	5
671.979	1	-5
672.317	1	3
672.656	1	5
672.995	1	-1
673.334	1	10
673.673	1	6
674.011	1	4
674.350	1	4
674.689	1	8
675.028	1	11
675.367	1	0
675.705	1	6
676.044	1	10
676.383	1	4
676.722	1	17
677.060	1	-1
677.399	1	2
677.738	1	3
678.077	1	13
678.416	1	6
678.754	1	8
679.093	1	7
679.432	1	1
679.771	1	8
680.109	1	4
680.448	1	4
680.787	1	6
681.125	1	11
681.464	1	8
681.803	1	9
682.142	1	1
682.480	1	4
682.819	1	16
683.158	1	6
683.496	1	-5
683.835	1	-3
684.174	1	13
684.512	1	6
684.851	1	-6
685.190	1	-2
685.529	1	13
685.867	1	7
686.206	1	5
686.545	1	13
686.883	1	11
687.222	1	0
687.561	1	9
687.899	1	0
688.238	1	3
688.577	1	10
688.746	1	-3