File: Data/GaN_170K_550ms/GaN_sample D_spot 18_UVVIS_170 K_200um_550 ms 2x2mm1_260.txt
340.368	1	3
340.710	1	-5
341.052	1	3
341.394	1	2
341.737	1	-4
342.079	1	5
342.421	1	0
342.763	1	2
343.105	1	-2
343.447	1	-5
343.789	1	10
344.131	1	-10
344.473	1	0
344.815	1	2
345.157	1	0
345.499	1	-3
345.841	1	10
346.183	1	6
346.526	1	-1
346.868	1	5
347.210	1	0
347.552	1	1
347.894	1	-1
348.236	1	-4
348.578	1	3
348.920	1	8
349.262	1	6
349.604	1	-1
349.946	1	7
350.288	1	-2
350.630	1	19
350.972	1	-5
351.314	1	4
351.656	1	-7
351.998	1	12
352.340	1	8
352.682	1	2
353.024	1	2
353.366	1	2
353.708	1	3
354.050	1	0
354.392	1	2
354.734	1	1
355.076	1	-3
355.418	1	-5
355.760	1	-2
356.102	1	9
356.444	1	0
356.785	1	7
357.127	1	1
357.469	1	4
357.811	1	0
358.153	1	11
358.495	1	0
358.837	1	7
359.179	1	-4
359.521	1	6
359.863	1	7
360.205	1	10
360.547	1	7
360.889	1	9
361.231	1	7
361.572	1	12
361.914	1	3
362.256	1	-1
362.598	1	8
362.940	1	9
363.282	1	16
363.624	1	9
363.966	1	11
364.308	1	15
364.649	1	-1
364.991	1	10
365.333	1	4
365.675	1	14
366.017	1	4
366.359	1	6
366.701	1	11
367.042	1	5
367.384	1	19
367.726	1	21
368.068	1	15
368.410	1	17
368.752	1	12
369.093	1	10
369.435	1	7
369.777	1	10
370.119	1	18
370.461	1	21
370.803	1	8
371.144	1	10
371.486	1	0
371.828	1	-1
372.170	1	4
372.512	1	1
372.853	1	8
373.195	1	1
373.537	1	10
373.879	1	9
374.220	1	17
374.562	1	-2
374.904	1	6
375.246	1	9
375.588	1	5
375.929	1	3
376.271	1	14
376.613	1	11
376.955	1	4
377.296	1	9
377.638	1	11
377.980	1	-6
378.321	1	0
378.663	1	1
379.005	1	3
379.347	1	5
379.688	1	5
380.030	1	16
380.372	1	8
380.714	1	14
381.055	1	6
381.397	1	2
381.739	1	1
382.080	1	5
382.422	1	12
382.764	1	6
383.105	1	5
383.447	1	8
383.789	1	9
384.130	1	0
384.472	1	0
384.814	1	2
385.156	1	-4
385.497	1	1
385.839	1	0
386.180	1	12
386.522	1	4
386.864	1	3
387.205	1	-7
387.547	1	6
387.889	1	8
388.230	1	-4
388.572	1	10
388.914	1	3
389.255	1	13
389.597	1	5
389.939	1	3
390.280	1	5
390.622	1	7
390.963	1	6
391.305	1	4
391.647	1	-11
391.988	1	5
392.330	1	9
392.671	1	-7
393.013	1	0
393.355	1	8
393.696	1	6
394.038	1	-3
394.379	1	1
394.721	1	-3
395.062	1	-4
395.404	1	5
395.746	1	4
396.087	1	3
396.429	1	1
396.770	1	7
397.112	1	4
397.453	1	5
397.795	1	-4
398.136	1	4
398.478	1	0
398.819	1	-3
399.161	1	0
399.503	1	7
399.844	1	-9
400.186	1	-5
400.527	1	8
400.869	1	-8
401.210	1	3
401.552	1	1
401.893	1	11
402.235	1	11
402.576	1	-1
402.918	1	0
403.259	1	3
403.601	1	10
403.942	1	1
404.284	1	-8
404.625	1	1
404.967	1	3
405.308	1	7
405.649	1	12
405.991	1	10
406.332	1	-10
406.674	1	2
407.015	1	1
407.357	1	1
407.698	1	1
408.040	1	-1
408.381	1	1
408.722	1	-4
409.064	1	16
409.405	1	3
409.747	1	-2
410.088	1	8
410.430	1	-10
410.771	1	5
411.112	1	-2
411.454	1	-1
411.795	1	14
412.137	1	-7
412.478	1	-8
412.819	1	-5
413.161	1	2
413.502	1	-1
413.844	1	6
414.185	1	-3
414.526	1	-5
414.868	1	3
415.209	1	-11
415.550	1	-2
415.892	1	7
416.233	1	2
416.575	1	0
416.916	1	-6
417.257	1	-7
417.599	1	0
417.940	1	-2
418.281	1	-6
418.623	1	-2
418.964	1	-10
419.305	1	4
419.647	1	2
419.988	1	9
420.329	1	4
420.671	1	2
421.012	1	-4
421.353	1	8
421.695	1	-1
422.036	1	-1
422.377	1	3
422.718	1	11
423.060	1	1
423.401	1	-2
423.742	1	0
424.084	1	8
424.425	1	-7
424.766	1	-3
425.107	1	2
425.449	1	8
425.790	1	4
426.131	1	10
426.472	1	2
426.814	1	-18
427.155	1	13
427.496	1	1
427.837	1	13
428.179	1	9
428.520	1	-3
428.861	1	3
429.202	1	2
429.544	1	2
429.885	1	5
430.226	1	1
430.567	1	2
430.909	1	-1
431.250	1	11
431.591	1	8
431.932	1	-4
432.273	1	-5
432.615	1	-5
432.956	1	1
433.297	1	2
433.638	1	3
433.979	1	11
434.320	1	14
434.662	1	-9
435.003	1	-3
435.344	1	-1
435.685	1	-3
436.026	1	5
436.368	1	9
436.709	1	4
437.050	1	-2
437.391	1	-12
437.732	1	0
438.073	1	-3
438.414	1	-14
438.756	1	-3
439.097	1	10
439.438	1	7
439.779	1	15
440.120	1	-3
440.461	1	12
440.802	1	3
441.143	1	-2
441.485	1	-3
441.826	1	6
442.167	1	0
442.508	1	-6
442.849	1	-9
443.190	1	4
443.531	1	8
443.872	1	1
444.213	1	-4
444.554	1	2
444.895	1	-12
445.237	1	-12
445.578	1	2
445.919	1	6
446.260	1	9
446.601	1	-6
446.942	1	3
447.283	1	-7
447.624	1	-4
447.965	1	4
448.306	1	1
448.647	1	3
448.988	1	9
449.329	1	8
449.670	1	-13
450.011	1	5
450.352	1	-6
450.693	1	-5
451.034	1	-7
451.375	1	-3
451.716	1	-4
452.057	1	5
452.398	1	9
452.739	1	1
453.080	1	3
453.421	1	7
453.762	1	-3
454.103	1	-4
454.444	1	-3
454.785	1	-6
455.126	1	7
455.467	1	1
455.808	1	6
456.149	1	7
456.490	1	7
456.831	1	3
457.172	1	-8
457.513	1	1
457.854	1	13
458.195	1	5
458.536	1	-3
458.877	1	11
459.218	1	3
459.559	1	1
459.899	1	-4
460.240	1	2
460.581	1	7
460.922	1	-8
461.263	1	-4
461.604	1	9
461.945	1	-1
462.286	1	0
462.627	1	4
462.968	1	4
463.309	1	8
463.649	1	5
463.990	1	-1
464.331	1	0
464.672	1	-7
465.013	1	10
465.354	1	-2
465.695	1	5
466.036	1	-6
466.376	1	4
466.717	1	-7
467.058	1	1
467.399	1	9
467.740	1	-5
468.081	1	-6
468.422	1	4
468.762	1	13
469.103	1	8
469.444	1	-5
469.785	1	-10
470.126	1	5
470.467	1	1
470.807	1	2
471.148	1	1
471.489	1	4
471.830	1	6
472.171	1	6
472.511	1	-1
472.852	1	6
473.193	1	2
473.534	1	4
473.875	1	0
474.215	1	0
474.556	1	-7
474.897	1	0
475.238	1	-3
475.578	1	6
475.919	1	9
476.260	1	10
476.601	1	1
476.942	1	-7
477.282	1	14
477.623	1	8
477.964	1	2
478.305	1	-6
478.645	1	5
478.986	1	4
479.327	1	-20
479.667	1	2
480.008	1	0
480.349	1	4
480.690	1	4
481.030	1	10
481.371	1	-2
481.712	1	-1
482.053	1	-11
482.393	1	-11
482.734	1	9
483.075	1	-2
483.415	1	-3
483.756	1	1
484.097	1	-10
484.437	1	1
484.778	1	-8
485.119	1	-1
485.459	1	5
485.800	1	-2
486.141	1	7
486.481	1	-3
486.822	1	5
487.163	1	5
487.503	1	0
487.844	1	4
488.185	1	6
488.525	1	6
488.866	1	4
489.207	1	7
489.547	1	13
489.888	1	-3
490.228	1	-5
490.569	1	4
490.910	1	-3
491.250	1	5
491.591	1	-5
491.932	1	4
492.272	1	11
492.613	1	3
492.953	1	6
493.294	1	-3
493.635	1	-10
493.975	1	6
494.316	1	0
494.656	1	0
494.997	1	3
495.337	1	5
495.678	1	1
496.019	1	-7
496.359	1	3
496.700	1	1
497.040	1	1
497.381	1	6
497.721	1	0
498.062	1	-6
498.403	1	12
498.743	1	1
499.084	1	7
499.424	1	11
499.765	1	-15
500.105	1	-8
500.446	1	0
500.786	1	-11
501.127	1	2
501.467	1	-1
501.808	1	-6
502.148	1	11
502.489	1	11
502.829	1	9
503.170	1	4
503.510	1	8
503.851	1	-4
504.191	1	0
504.532	1	-7
504.872	1	3
505.213	1	-7
505.553	1	-3
505.894	1	8
506.234	1	-1
506.575	1	9
506.915	1	9
507.256	1	0
507.596	1	0
507.936	1	6
508.277	1	-4
508.617	1	3
508.958	1	2
509.298	1	-2
509.639	1	2
509.979	1	-1
510.319	1	-6
510.660	1	-7
511.000	1	5
511.341	1	15
511.681	1	-2
512.022	1	9
512.362	1	-2
512.702	1	4
513.043	1	-2
513.383	1	14
513.724	1	5
514.064	1	11
514.404	1	-7
514.745	1	1
515.085	1	-4
515.425	1	9
515.766	1	6
516.106	1	6
516.447	1	-8
516.787	1	-2
517.127	1	4
517.468	1	3
517.808	1	8
518.148	1	2
518.489	1	6
518.829	1	2
519.169	1	1
519.510	1	2
519.850	1	2
520.190	1	-1
520.531	1	7
520.871	1	-1
521.211	1	7
521.552	1	11
521.892	1	-5
522.232	1	3
522.573	1	-1
522.913	1	9
523.253	1	11
523.593	1	11
523.934	1	-4
524.274	1	-3
524.614	1	-2
524.955	1	2
525.295	1	-4
525.635	1	2
525.975	1	4
526.316	1	6
526.656	1	7
526.996	1	9
527.337	1	-8
527.677	1	-2
528.017	1	7
528.357	1	1
528.698	1	-4
529.038	1	-2
529.378	1	1
529.718	1	14
530.058	1	11
530.399	1	5
530.739	1	-6
531.079	1	6
531.419	1	10
531.760	1	0
532.100	1	-3
532.440	1	-4
532.780	1	-6
533.120	1	10
533.461	1	-3
533.801	1	9
534.141	1	-2
534.481	1	9
534.821	1	4
535.162	1	7
535.502	1	9
535.842	1	5
536.182	1	4
536.522	1	8
536.862	1	3
537.203	1	4
537.543	1	-1
537.883	1	4
538.223	1	4
538.563	1	-2
538.903	1	7
539.243	1	-2
539.584	1	0
539.924	1	5
540.264	1	6
540.604	1	1
540.944	1	0
541.284	1	3
541.624	1	-4
541.964	1	5
542.305	1	8
542.645	1	3
542.985	1	1
543.325	1	6
543.665	1	1
544.005	1	12
544.345	1	6
544.685	1	9
545.025	1	-3
545.365	1	3
545.705	1	8
546.045	1	1
546.386	1	0
546.726	1	-3
547.066	1	8
547.406	1	-5
547.746	1	-3
548.086	1	12
548.426	1	3
548.766	1	0
549.106	1	1
549.446	1	-2
549.786	1	0
550.126	1	-2
550.466	1	1
550.806	1	4
551.146	1	9
551.486	1	0
551.826	1	4
552.166	1	-4
552.506	1	10
552.846	1	-5
553.186	1	1
553.526	1	-11
553.866	1	1
554.206	1	3
554.546	1	-9
554.886	1	5
555.226	1	-6
555.566	1	8
555.906	1	-2
556.246	1	-1
556.586	1	-2
556.926	1	6
557.266	1	5
557.606	1	5
557.946	1	5
558.286	1	12
558.626	1	15
558.966	1	11
559.306	1	12
559.646	1	4
559.986	1	4
560.325	1	0
560.665	1	6
561.005	1	-1
561.345	1	-9
561.685	1	8
562.025	1	0
562.365	1	1
562.705	1	8
563.045	1	-2
563.385	1	8
563.725	1	-6
564.064	1	6
564.404	1	5
564.744	1	-1
565.084	1	5
565.424	1	10
565.764	1	2
566.104	1	11
566.444	1	-9
566.783	1	-4
567.123	1	5
567.463	1	4
567.803	1	4
568.143	1	3
568.483	1	3
568.823	1	-7
569.162	1	1
569.502	1	1
569.842	1	-1
570.182	1	3
570.522	1	11
570.862	1	1
571.201	1	3
571.541	1	-3
571.881	1	-4
572.221	1	0
572.561	1	2
572.900	1	0
573.240	1	7
573.580	1	-3
573.920	1	7
574.260	1	10
574.599	1	-4
574.939	1	-7
575.279	1	5
575.619	1	14
575.959	1	-3
576.298	1	15
576.638	1	5
576.978	1	-2
577.318	1	-8
577.657	1	2
577.997	1	-10
578.337	1	7
578.677	1	-1
579.016	1	-2
579.356	1	-3
579.696	1	-2
580.036	1	1
580.375	1	-4
580.715	1	3
581.055	1	8
581.394	1	0
581.734	1	2
582.074	1	5
582.414	1	-1
582.753	1	4
583.093	1	3
583.433	1	9
583.772	1	-2
584.112	1	-4
584.452	1	-10
584.791	1	5
585.131	1	2
585.471	1	-1
585.811	1	-6
586.150	1	-10
586.490	1	11
586.830	1	-12
587.169	1	17
587.509	1	6
587.849	1	0
588.188	1	-3
588.528	1	-9
588.867	1	5
589.207	1	-9
589.547	1	12
589.886	1	-3
590.226	1	-3
590.566	1	6
590.905	1	11
591.245	1	0
591.585	1	0
591.924	1	-3
592.264	1	-5
592.603	1	-4
592.943	1	11
593.283	1	11
593.622	1	-7
593.962	1	3
594.301	1	9
594.641	1	4
594.981	1	5
595.320	1	6
595.660	1	1
595.999	1	5
596.339	1	5
596.678	1	-10
597.018	1	-6
597.358	1	-6
597.697	1	1
598.037	1	-3
598.376	1	-8
598.716	1	3
599.055	1	5
599.395	1	0
599.734	1	7
600.074	1	2
600.413	1	-12
600.753	1	8
601.092	1	-3
601.432	1	-4
601.771	1	9
602.111	1	5
602.451	1	5
602.790	1	7
603.130	1	-3
603.469	1	-1
603.809	1	1
604.148	1	0
604.487	1	2
604.827	1	-6
605.166	1	1
605.506	1	-7
605.845	1	3
606.185	1	2
606.524	1	-1
606.864	1	0
607.203	1	-3
607.543	1	18
607.882	1	-5
608.222	1	0
608.561	1	1
608.901	1	-5
609.240	1	-1
609.579	1	0
609.919	1	1
610.258	1	11
610.598	1	7
610.937	1	-1
611.277	1	12
611.616	1	5
611.955	1	0
612.295	1	-5
612.634	1	3
612.974	1	-3
613.313	1	0
613.652	1	18
613.992	1	10
614.331	1	4
614.671	1	8
615.010	1	2
615.349	1	9
615.689	1	8
616.028	1	-4
616.368	1	-6
616.707	1	2
617.046	1	0
617.386	1	-1
617.725	1	5
618.064	1	-4
618.404	1	4
618.743	1	4
619.082	1	7
619.422	1	1
619.761	1	-4
620.100	1	5
620.440	1	2
620.779	1	1
621.118	1	1
621.458	1	-1
621.797	1	4
622.136	1	6
622.476	1	0
622.815	1	2
623.154	1	-1
623.494	1	-4
623.833	1	1
624.172	1	8
624.511	1	4
624.851	1	11
625.190	1	-2
625.529	1	13
625.869	1	18
626.208	1	4
626.547	1	-4
626.886	1	-5
627.226	1	4
627.565	1	1
627.904	1	2
628.243	1	-8
628.583	1	3
628.922	1	-8
629.261	1	15
629.600	1	-3
629.940	1	1
630.279	1	5
630.618	1	-8
630.957	1	9
631.297	1	-3
631.636	1	7
631.975	1	3
632.314	1	0
632.653	1	7
632.993	1	-3
633.332	1	-2
633.671	1	10
634.010	1	3
634.349	1	-5
634.689	1	4
635.028	1	-1
635.367	1	-2
635.706	1	2
636.045	1	6
636.384	1	-4
636.724	1	-2
637.063	1	8
637.402	1	8
637.741	1	0
638.080	1	11
638.419	1	-10
638.759	1	2
639.098	1	-8
639.437	1	-10
639.776	1	4
640.115	1	6
640.454	1	1
640.793	1	5
641.132	1	5
641.472	1	-5
641.811	1	8
642.150	1	5
642.489	1	-5
642.828	1	-1
643.167	1	5
643.506	1	4
643.845	1	-4
644.184	1	11
644.524	1	6
644.863	1	-13
645.202	1	9
645.541	1	1
645.880	1	2
646.219	1	2
646.558	1	4
646.897	1	3
647.236	1	-8
647.575	1	0
647.914	1	0
648.253	1	0
648.592	1	0
648.931	1	7
649.270	1	-4
649.610	1	5
649.949	1	-10
650.288	1	-1
650.627	1	-4
650.966	1	5
651.305	1	-11
651.644	1	5
651.983	1	6
652.322	1	2
652.661	1	8
653.000	1	-12
653.339	1	-7
653.678	1	4
654.017	1	8
654.356	1	2
654.695	1	1
655.034	1	1
655.373	1	4
655.712	1	-3
656.051	1	5
656.390	1	-4
656.729	1	-2
657.068	1	2
657.406	1	5
657.745	1	6
658.084	1	-6
658.423	1	-4
658.762	1	-4
659.101	1	1
659.440	1	-4
659.779	1	3
660.118	1	-1
660.457	1	4
660.796	1	-4
661.135	1	-12
661.474	1	14
661.813	1	-1
662.152	1	-3
662.491	1	-6
662.829	1	-8
663.168	1	4
663.507	1	2
663.846	1	0
664.185	1	11
664.524	1	4
664.863	1	-1
665.202	1	7
665.541	1	3
665.879	1	3
666.218	1	7
666.557	1	8
666.896	1	4
667.235	1	-10
667.574	1	-8
667.913	1	-3
668.251	1	17
668.590	1	-4
668.929	1	0
669.268	1	0
669.607	1	3
669.946	1	-2
670.285	1	14
670.623	1	-2
670.962	1	-10
671.301	1	-3
671.640	1	7
671.979	1	-2
672.317	1	8
672.656	1	3
672.995	1	-2
673.334	1	-2
673.673	1	6
674.011	1	6
674.350	1	-1
674.689	1	4
675.028	1	0
675.367	1	-7
675.705	1	7
676.044	1	4
676.383	1	5
676.722	1	7
677.060	1	-3
677.399	1	-3
677.738	1	-5
678.077	1	17
678.416	1	-4
678.754	1	4
679.093	1	5
679.432	1	6
679.771	1	0
680.109	1	2
680.448	1	10
680.787	1	-14
681.125	1	3
681.464	1	4
681.803	1	10
682.142	1	-3
682.480	1	7
682.819	1	3
683.158	1	-1
683.496	1	1
683.835	1	-11
684.174	1	6
684.512	1	3
684.851	1	-4
685.190	1	3
685.529	1	15
685.867	1	2
686.206	1	5
686.545	1	7
686.883	1	8
687.222	1	0
687.561	1	1
687.899	1	-14
688.238	1	-4
688.577	1	12
688.746	1	2