File: Data/GaN_170K_550ms/GaN_sample D_spot 18_UVVIS_170 K_200um_550 ms 2x2mm1_298.txt
340.368	1	-3
340.710	1	-15
341.052	1	4
341.394	1	1
341.737	1	-1
342.079	1	-1
342.421	1	4
342.763	1	-5
343.105	1	17
343.447	1	-15
343.789	1	7
344.131	1	5
344.473	1	6
344.815	1	7
345.157	1	-7
345.499	1	-1
345.841	1	2
346.183	1	3
346.526	1	3
346.868	1	3
347.210	1	-16
347.552	1	5
347.894	1	3
348.236	1	10
348.578	1	0
348.920	1	-7
349.262	1	3
349.604	1	14
349.946	1	10
350.288	1	4
350.630	1	6
350.972	1	-3
351.314	1	-3
351.656	1	-1
351.998	1	8
352.340	1	4
352.682	1	2
353.024	1	-2
353.366	1	12
353.708	1	7
354.050	1	-3
354.392	1	7
354.734	1	1
355.076	1	3
355.418	1	-1
355.760	1	1
356.102	1	8
356.444	1	6
356.785	1	4
357.127	1	2
357.469	1	1
357.811	1	4
358.153	1	5
358.495	1	3
358.837	1	12
359.179	1	-4
359.521	1	11
359.863	1	2
360.205	1	12
360.547	1	11
360.889	1	11
361.231	1	4
361.572	1	7
361.914	1	3
362.256	1	4
362.598	1	12
362.940	1	13
363.282	1	3
363.624	1	6
363.966	1	1
364.308	1	6
364.649	1	1
364.991	1	4
365.333	1	4
365.675	1	12
366.017	1	6
366.359	1	4
366.701	1	12
367.042	1	3
367.384	1	17
367.726	1	12
368.068	1	13
368.410	1	10
368.752	1	12
369.093	1	4
369.435	1	2
369.777	1	10
370.119	1	7
370.461	1	6
370.803	1	-2
371.144	1	9
371.486	1	-5
371.828	1	4
372.170	1	8
372.512	1	-4
372.853	1	13
373.195	1	-1
373.537	1	17
373.879	1	15
374.220	1	14
374.562	1	-1
374.904	1	7
375.246	1	-2
375.588	1	10
375.929	1	7
376.271	1	12
376.613	1	3
376.955	1	2
377.296	1	11
377.638	1	13
377.980	1	-10
378.321	1	1
378.663	1	9
379.005	1	1
379.347	1	7
379.688	1	-2
380.030	1	2
380.372	1	3
380.714	1	14
381.055	1	3
381.397	1	7
381.739	1	-5
382.080	1	-7
382.422	1	1
382.764	1	4
383.105	1	15
383.447	1	5
383.789	1	10
384.130	1	-9
384.472	1	-8
384.814	1	8
385.156	1	0
385.497	1	5
385.839	1	3
386.180	1	10
386.522	1	5
386.864	1	7
387.205	1	-6
387.547	1	2
387.889	1	2
388.230	1	-6
388.572	1	4
388.914	1	-6
389.255	1	7
389.597	1	-3
389.939	1	-8
390.280	1	-4
390.622	1	-7
390.963	1	1
391.305	1	0
391.647	1	-9
391.988	1	4
392.330	1	5
392.671	1	-2
393.013	1	-1
393.355	1	2
393.696	1	1
394.038	1	-2
394.379	1	-1
394.721	1	-3
395.062	1	-2
395.404	1	6
395.746	1	5
396.087	1	3
396.429	1	4
396.770	1	10
397.112	1	2
397.453	1	5
397.795	1	1
398.136	1	4
398.478	1	-6
398.819	1	1
399.161	1	-3
399.503	1	10
399.844	1	-8
400.186	1	-7
400.527	1	11
400.869	1	-2
401.210	1	4
401.552	1	-1
401.893	1	12
402.235	1	2
402.576	1	-15
402.918	1	10
403.259	1	0
403.601	1	4
403.942	1	1
404.284	1	-4
404.625	1	-4
404.967	1	8
405.308	1	6
405.649	1	1
405.991	1	4
406.332	1	-5
406.674	1	13
407.015	1	10
407.357	1	0
407.698	1	1
408.040	1	-1
408.381	1	5
408.722	1	-4
409.064	1	0
409.405	1	-2
409.747	1	-3
410.088	1	13
410.430	1	-6
410.771	1	-7
411.112	1	-13
411.454	1	12
411.795	1	11
412.137	1	-7
412.478	1	-3
412.819	1	-3
413.161	1	3
413.502	1	-5
413.844	1	6
414.185	1	7
414.526	1	0
414.868	1	-3
415.209	1	-8
415.550	1	0
415.892	1	8
416.233	1	3
416.575	1	0
416.916	1	-3
417.257	1	0
417.599	1	-5
417.940	1	-4
418.281	1	-9
418.623	1	-4
418.964	1	-10
419.305	1	-1
419.647	1	3
419.988	1	-2
420.329	1	-5
420.671	1	-2
421.012	1	2
421.353	1	3
421.695	1	-8
422.036	1	-2
422.377	1	6
422.718	1	7
423.060	1	-8
423.401	1	-2
423.742	1	-2
424.084	1	16
424.425	1	-6
424.766	1	-6
425.107	1	-7
425.449	1	2
425.790	1	1
426.131	1	7
426.472	1	-2
426.814	1	-2
427.155	1	10
427.496	1	-4
427.837	1	6
428.179	1	9
428.520	1	0
428.861	1	7
429.202	1	-7
429.544	1	-5
429.885	1	6
430.226	1	9
430.567	1	10
430.909	1	-2
431.250	1	11
431.591	1	2
431.932	1	-7
432.273	1	4
432.615	1	-8
432.956	1	5
433.297	1	-2
433.638	1	2
433.979	1	2
434.320	1	12
434.662	1	-19
435.003	1	8
435.344	1	-5
435.685	1	4
436.026	1	-1
436.368	1	7
436.709	1	-4
437.050	1	-5
437.391	1	-15
437.732	1	1
438.073	1	0
438.414	1	-2
438.756	1	-3
439.097	1	4
439.438	1	4
439.779	1	14
440.120	1	0
440.461	1	11
440.802	1	9
441.143	1	-8
441.485	1	-10
441.826	1	-2
442.167	1	-4
442.508	1	2
442.849	1	-2
443.190	1	5
443.531	1	0
443.872	1	-8
444.213	1	0
444.554	1	1
444.895	1	-9
445.237	1	-18
445.578	1	6
445.919	1	7
446.260	1	4
446.601	1	-5
446.942	1	9
447.283	1	2
447.624	1	1
447.965	1	-2
448.306	1	3
448.647	1	6
448.988	1	5
449.329	1	-3
449.670	1	-9
450.011	1	9
450.352	1	-2
450.693	1	1
451.034	1	5
451.375	1	7
451.716	1	12
452.057	1	-1
452.398	1	-1
452.739	1	0
453.080	1	-1
453.421	1	7
453.762	1	-4
454.103	1	-7
454.444	1	1
454.785	1	2
455.126	1	9
455.467	1	-7
455.808	1	12
456.149	1	-2
456.490	1	0
456.831	1	-11
457.172	1	-3
457.513	1	10
457.854	1	6
458.195	1	6
458.536	1	-10
458.877	1	6
459.218	1	-1
459.559	1	-1
459.899	1	2
460.240	1	0
460.581	1	6
460.922	1	-4
461.263	1	-1
461.604	1	4
461.945	1	0
462.286	1	-18
462.627	1	13
462.968	1	15
463.309	1	7
463.649	1	3
463.990	1	-4
464.331	1	-1
464.672	1	-3
465.013	1	5
465.354	1	-7
465.695	1	4
466.036	1	-10
466.376	1	-3
466.717	1	8
467.058	1	-3
467.399	1	5
467.740	1	1
468.081	1	-4
468.422	1	3
468.762	1	8
469.103	1	9
469.444	1	8
469.785	1	0
470.126	1	0
470.467	1	7
470.807	1	-6
471.148	1	-7
471.489	1	3
471.830	1	0
472.171	1	16
472.511	1	3
472.852	1	5
473.193	1	3
473.534	1	5
473.875	1	8
474.215	1	0
474.556	1	7
474.897	1	-2
475.238	1	0
475.578	1	5
475.919	1	4
476.260	1	15
476.601	1	-5
476.942	1	-11
477.282	1	0
477.623	1	6
477.964	1	10
478.305	1	-5
478.645	1	3
478.986	1	-4
479.327	1	-6
479.667	1	-7
480.008	1	12
480.349	1	9
480.690	1	3
481.030	1	0
481.371	1	-5
481.712	1	-2
482.053	1	-2
482.393	1	3
482.734	1	14
483.075	1	3
483.415	1	3
483.756	1	-3
484.097	1	-11
484.437	1	0
484.778	1	-4
485.119	1	9
485.459	1	-5
485.800	1	-2
486.141	1	12
486.481	1	0
486.822	1	5
487.163	1	4
487.503	1	0
487.844	1	3
488.185	1	1
488.525	1	4
488.866	1	4
489.207	1	6
489.547	1	8
489.888	1	5
490.228	1	1
490.569	1	4
490.910	1	-2
491.250	1	10
491.591	1	8
491.932	1	-2
492.272	1	9
492.613	1	2
492.953	1	10
493.294	1	1
493.635	1	-5
493.975	1	4
494.316	1	6
494.656	1	3
494.997	1	-2
495.337	1	7
495.678	1	3
496.019	1	-15
496.359	1	5
496.700	1	8
497.040	1	5
497.381	1	4
497.721	1	-13
498.062	1	1
498.403	1	4
498.743	1	0
499.084	1	7
499.424	1	12
499.765	1	-3
500.105	1	3
500.446	1	-7
500.786	1	-5
501.127	1	6
501.467	1	4
501.808	1	2
502.148	1	-3
502.489	1	1
502.829	1	-5
503.170	1	10
503.510	1	1
503.851	1	0
504.191	1	-9
504.532	1	-12
504.872	1	0
505.213	1	-8
505.553	1	-3
505.894	1	12
506.234	1	9
506.575	1	11
506.915	1	2
507.256	1	7
507.596	1	1
507.936	1	7
508.277	1	-13
508.617	1	7
508.958	1	-1
509.298	1	-2
509.639	1	9
509.979	1	4
510.319	1	-14
510.660	1	-4
511.000	1	4
511.341	1	9
511.681	1	-1
512.022	1	2
512.362	1	-6
512.702	1	0
513.043	1	-7
513.383	1	1
513.724	1	-2
514.064	1	9
514.404	1	3
514.745	1	-2
515.085	1	3
515.425	1	0
515.766	1	7
516.106	1	6
516.447	1	6
516.787	1	8
517.127	1	8
517.468	1	1
517.808	1	13
518.148	1	-5
518.489	1	9
518.829	1	-5
519.169	1	-4
519.510	1	4
519.850	1	-1
520.190	1	5
520.531	1	5
520.871	1	1
521.211	1	9
521.552	1	6
521.892	1	-1
522.232	1	-10
522.573	1	2
522.913	1	7
523.253	1	17
523.593	1	8
523.934	1	4
524.274	1	4
524.614	1	2
524.955	1	-2
525.295	1	-3
525.635	1	7
525.975	1	5
526.316	1	10
526.656	1	13
526.996	1	3
527.337	1	-7
527.677	1	-1
528.017	1	0
528.357	1	-4
528.698	1	-8
529.038	1	-7
529.378	1	4
529.718	1	7
530.058	1	13
530.399	1	10
530.739	1	7
531.079	1	3
531.419	1	7
531.760	1	12
532.100	1	10
532.440	1	8
532.780	1	-8
533.120	1	5
533.461	1	-8
533.801	1	5
534.141	1	-2
534.481	1	8
534.821	1	1
535.162	1	9
535.502	1	9
535.842	1	10
536.182	1	-4
536.522	1	8
536.862	1	7
537.203	1	7
537.543	1	-4
537.883	1	7
538.223	1	0
538.563	1	-1
538.903	1	-1
539.243	1	0
539.584	1	-6
539.924	1	-9
540.264	1	4
540.604	1	0
540.944	1	0
541.284	1	9
541.624	1	-4
541.964	1	6
542.305	1	0
542.645	1	-2
542.985	1	7
543.325	1	-3
543.665	1	7
544.005	1	9
544.345	1	5
544.685	1	1
545.025	1	-1
545.365	1	0
545.705	1	4
546.045	1	3
546.386	1	0
546.726	1	0
547.066	1	10
547.406	1	1
547.746	1	-3
548.086	1	0
548.426	1	0
548.766	1	-7
549.106	1	2
549.446	1	-2
549.786	1	-1
550.126	1	4
550.466	1	2
550.806	1	0
551.146	1	5
551.486	1	1
551.826	1	6
552.166	1	6
552.506	1	6
552.846	1	9
553.186	1	5
553.526	1	-19
553.866	1	-11
554.206	1	9
554.546	1	-7
554.886	1	6
555.226	1	-13
555.566	1	4
555.906	1	-4
556.246	1	10
556.586	1	-1
556.926	1	14
557.266	1	2
557.606	1	-3
557.946	1	3
558.286	1	0
558.626	1	14
558.966	1	1
559.306	1	10
559.646	1	-2
559.986	1	6
560.325	1	4
560.665	1	6
561.005	1	1
561.345	1	1
561.685	1	3
562.025	1	-5
562.365	1	-1
562.705	1	10
563.045	1	-7
563.385	1	-2
563.725	1	-5
564.064	1	-1
564.404	1	5
564.744	1	2
565.084	1	-1
565.424	1	-2
565.764	1	-3
566.104	1	8
566.444	1	11
566.783	1	8
567.123	1	6
567.463	1	-2
567.803	1	6
568.143	1	9
568.483	1	8
568.823	1	6
569.162	1	-3
569.502	1	-4
569.842	1	-8
570.182	1	-1
570.522	1	-4
570.862	1	7
571.201	1	6
571.541	1	-1
571.881	1	4
572.221	1	9
572.561	1	4
572.900	1	4
573.240	1	5
573.580	1	6
573.920	1	11
574.260	1	6
574.599	1	1
574.939	1	-2
575.279	1	-8
575.619	1	11
575.959	1	-4
576.298	1	-1
576.638	1	4
576.978	1	0
577.318	1	7
577.657	1	1
577.997	1	-3
578.337	1	4
578.677	1	-1
579.016	1	4
579.356	1	5
579.696	1	-13
580.036	1	-2
580.375	1	-2
580.715	1	8
581.055	1	5
581.394	1	3
581.734	1	6
582.074	1	1
582.414	1	-7
582.753	1	4
583.093	1	1
583.433	1	5
583.772	1	-1
584.112	1	9
584.452	1	-2
584.791	1	-2
585.131	1	17
585.471	1	8
585.811	1	-4
586.150	1	-6
586.490	1	5
586.830	1	3
587.169	1	10
587.509	1	3
587.849	1	-4
588.188	1	0
588.528	1	-8
588.867	1	3
589.207	1	7
589.547	1	-2
589.886	1	-2
590.226	1	9
590.566	1	8
590.905	1	10
591.245	1	4
591.585	1	-4
591.924	1	-6
592.264	1	-10
592.603	1	2
592.943	1	-1
593.283	1	8
593.622	1	-8
593.962	1	1
594.301	1	-6
594.641	1	3
594.981	1	16
595.320	1	0
595.660	1	-6
595.999	1	-12
596.339	1	12
596.678	1	-6
597.018	1	-6
597.358	1	-14
597.697	1	-6
598.037	1	0
598.376	1	-9
598.716	1	-2
599.055	1	4
599.395	1	-5
599.734	1	7
600.074	1	-2
600.413	1	-2
600.753	1	3
601.092	1	-1
601.432	1	-1
601.771	1	9
602.111	1	-1
602.451	1	6
602.790	1	5
603.130	1	-7
603.469	1	-1
603.809	1	0
604.148	1	5
604.487	1	4
604.827	1	-7
605.166	1	8
605.506	1	0
605.845	1	9
606.185	1	5
606.524	1	-1
606.864	1	5
607.203	1	-4
607.543	1	3
607.882	1	-6
608.222	1	3
608.561	1	5
608.901	1	-1
609.240	1	-3
609.579	1	4
609.919	1	-4
610.258	1	5
610.598	1	6
610.937	1	4
611.277	1	-4
611.616	1	1
611.955	1	6
612.295	1	-5
612.634	1	-1
612.974	1	5
613.313	1	-1
613.652	1	14
613.992	1	8
614.331	1	1
614.671	1	12
615.010	1	5
615.349	1	7
615.689	1	6
616.028	1	2
616.368	1	3
616.707	1	2
617.046	1	-7
617.386	1	2
617.725	1	0
618.064	1	-3
618.404	1	-2
618.743	1	3
619.082	1	12
619.422	1	-4
619.761	1	5
620.100	1	-7
620.440	1	3
620.779	1	0
621.118	1	-4
621.458	1	5
621.797	1	7
622.136	1	3
622.476	1	-6
622.815	1	-1
623.154	1	-5
623.494	1	-5
623.833	1	6
624.172	1	-3
624.511	1	3
624.851	1	-4
625.190	1	1
625.529	1	11
625.869	1	11
626.208	1	0
626.547	1	-1
626.886	1	3
627.226	1	5
627.565	1	3
627.904	1	-7
628.243	1	-3
628.583	1	-8
628.922	1	-9
629.261	1	4
629.600	1	-3
629.940	1	3
630.279	1	-2
630.618	1	-4
630.957	1	4
631.297	1	-7
631.636	1	4
631.975	1	-2
632.314	1	3
632.653	1	12
632.993	1	1
633.332	1	4
633.671	1	3
634.010	1	9
634.349	1	-7
634.689	1	0
635.028	1	6
635.367	1	-5
635.706	1	7
636.045	1	7
636.384	1	-4
636.724	1	9
637.063	1	-1
637.402	1	11
637.741	1	-3
638.080	1	3
638.419	1	-1
638.759	1	12
639.098	1	-6
639.437	1	-4
639.776	1	-1
640.115	1	1
640.454	1	-4
640.793	1	-5
641.132	1	0
641.472	1	-5
641.811	1	12
642.150	1	-3
642.489	1	-4
642.828	1	6
643.167	1	-8
643.506	1	4
643.845	1	7
644.184	1	19
644.524	1	1
644.863	1	-10
645.202	1	16
645.541	1	-1
645.880	1	12
646.219	1	3
646.558	1	4
646.897	1	-2
647.236	1	-4
647.575	1	-2
647.914	1	-5
648.253	1	2
648.592	1	2
648.931	1	0
649.270	1	-2
649.610	1	6
649.949	1	-6
650.288	1	0
650.627	1	-6
650.966	1	8
651.305	1	0
651.644	1	7
651.983	1	1
652.322	1	-3
652.661	1	-5
653.000	1	-2
653.339	1	-8
653.678	1	-9
654.017	1	4
654.356	1	-2
654.695	1	19
655.034	1	1
655.373	1	6
655.712	1	-11
656.051	1	4
656.390	1	1
656.729	1	7
657.068	1	5
657.406	1	-7
657.745	1	5
658.084	1	-5
658.423	1	-1
658.762	1	-7
659.101	1	3
659.440	1	4
659.779	1	1
660.118	1	0
660.457	1	9
660.796	1	-3
661.135	1	-12
661.474	1	6
661.813	1	-3
662.152	1	-8
662.491	1	-10
662.829	1	1
663.168	1	-1
663.507	1	-1
663.846	1	-2
664.185	1	8
664.524	1	3
664.863	1	-1
665.202	1	8
665.541	1	-7
665.879	1	4
666.218	1	16
666.557	1	-10
666.896	1	-6
667.235	1	-6
667.574	1	-15
667.913	1	-6
668.251	1	0
668.590	1	-4
668.929	1	3
669.268	1	-1
669.607	1	4
669.946	1	3
670.285	1	11
670.623	1	4
670.962	1	-2
671.301	1	3
671.640	1	4
671.979	1	2
672.317	1	3
672.656	1	-1
672.995	1	-9
673.334	1	-1
673.673	1	1
674.011	1	1
674.350	1	-2
674.689	1	-5
675.028	1	-4
675.367	1	-4
675.705	1	15
676.044	1	16
676.383	1	4
676.722	1	12
677.060	1	-8
677.399	1	7
677.738	1	-4
678.077	1	15
678.416	1	-1
678.754	1	-3
679.093	1	11
679.432	1	-1
679.771	1	-1
680.109	1	-2
680.448	1	-3
680.787	1	1
681.125	1	9
681.464	1	6
681.803	1	9
682.142	1	-4
682.480	1	2
682.819	1	9
683.158	1	-5
683.496	1	3
683.835	1	-7
684.174	1	-4
684.512	1	-5
684.851	1	-7
685.190	1	4
685.529	1	-1
685.867	1	6
686.206	1	14
686.545	1	1
686.883	1	-4
687.222	1	1
687.561	1	-7
687.899	1	-11
688.238	1	1
688.577	1	5
688.746	1	3