File: Data/GaN_170K_550ms/GaN_sample D_spot 18_UVVIS_170 K_200um_550 ms 2x2mm1_220.txt
340.368	1	3
340.710	1	-11
341.052	1	2
341.394	1	7
341.737	1	-3
342.079	1	1
342.421	1	5
342.763	1	-3
343.105	1	13
343.447	1	-12
343.789	1	1
344.131	1	-1
344.473	1	3
344.815	1	7
345.157	1	-3
345.499	1	1
345.841	1	1
346.183	1	6
346.526	1	10
346.868	1	3
347.210	1	-9
347.552	1	13
347.894	1	3
348.236	1	3
348.578	1	2
348.920	1	-3
349.262	1	13
349.604	1	11
349.946	1	2
350.288	1	-2
350.630	1	13
350.972	1	-2
351.314	1	5
351.656	1	-7
351.998	1	1
352.340	1	8
352.682	1	-4
353.024	1	1
353.366	1	8
353.708	1	2
354.050	1	3
354.392	1	0
354.734	1	2
355.076	1	0
355.418	1	-7
355.760	1	3
356.102	1	7
356.444	1	0
356.785	1	1
357.127	1	3
357.469	1	8
357.811	1	5
358.153	1	3
358.495	1	0
358.837	1	7
359.179	1	-4
359.521	1	9
359.863	1	9
360.205	1	21
360.547	1	11
360.889	1	12
361.231	1	7
361.572	1	7
361.914	1	0
362.256	1	4
362.598	1	7
362.940	1	20
363.282	1	15
363.624	1	2
363.966	1	1
364.308	1	17
364.649	1	3
364.991	1	22
365.333	1	6
365.675	1	22
366.017	1	6
366.359	1	13
366.701	1	18
367.042	1	4
367.384	1	24
367.726	1	26
368.068	1	14
368.410	1	25
368.752	1	15
369.093	1	13
369.435	1	10
369.777	1	12
370.119	1	13
370.461	1	20
370.803	1	3
371.144	1	16
371.486	1	7
371.828	1	3
372.170	1	13
372.512	1	11
372.853	1	15
373.195	1	6
373.537	1	20
373.879	1	19
374.220	1	18
374.562	1	-4
374.904	1	10
375.246	1	7
375.588	1	12
375.929	1	9
376.271	1	11
376.613	1	13
376.955	1	12
377.296	1	6
377.638	1	11
377.980	1	-1
378.321	1	12
378.663	1	12
379.005	1	0
379.347	1	9
379.688	1	1
380.030	1	10
380.372	1	8
380.714	1	14
381.055	1	8
381.397	1	7
381.739	1	1
382.080	1	3
382.422	1	-7
382.764	1	11
383.105	1	13
383.447	1	11
383.789	1	14
384.130	1	-1
384.472	1	-4
384.814	1	12
385.156	1	1
385.497	1	11
385.839	1	-1
386.180	1	14
386.522	1	9
386.864	1	8
387.205	1	-1
387.547	1	7
387.889	1	5
388.230	1	2
388.572	1	1
388.914	1	-1
389.255	1	8
389.597	1	6
389.939	1	-2
390.280	1	8
390.622	1	7
390.963	1	-6
391.305	1	2
391.647	1	-4
391.988	1	8
392.330	1	2
392.671	1	-3
393.013	1	1
393.355	1	3
393.696	1	4
394.038	1	-6
394.379	1	-3
394.721	1	-5
395.062	1	0
395.404	1	5
395.746	1	12
396.087	1	3
396.429	1	-2
396.770	1	6
397.112	1	5
397.453	1	10
397.795	1	-7
398.136	1	1
398.478	1	1
398.819	1	1
399.161	1	-7
399.503	1	6
399.844	1	-3
400.186	1	-11
400.527	1	10
400.869	1	1
401.210	1	-4
401.552	1	5
401.893	1	11
402.235	1	12
402.576	1	4
402.918	1	2
403.259	1	1
403.601	1	9
403.942	1	-1
404.284	1	-9
404.625	1	3
404.967	1	4
405.308	1	14
405.649	1	1
405.991	1	2
406.332	1	-8
406.674	1	13
407.015	1	8
407.357	1	5
407.698	1	4
408.040	1	10
408.381	1	8
408.722	1	0
409.064	1	-3
409.405	1	5
409.747	1	-8
410.088	1	4
410.430	1	1
410.771	1	6
411.112	1	3
411.454	1	0
411.795	1	10
412.137	1	-7
412.478	1	-5
412.819	1	0
413.161	1	-2
413.502	1	0
413.844	1	14
414.185	1	-3
414.526	1	-4
414.868	1	-4
415.209	1	-7
415.550	1	-6
415.892	1	-3
416.233	1	2
416.575	1	-1
416.916	1	-5
417.257	1	-1
417.599	1	3
417.940	1	0
418.281	1	-14
418.623	1	0
418.964	1	-1
419.305	1	-2
419.647	1	2
419.988	1	6
420.329	1	5
420.671	1	-1
421.012	1	-2
421.353	1	9
421.695	1	-2
422.036	1	8
422.377	1	7
422.718	1	7
423.060	1	-7
423.401	1	-5
423.742	1	4
424.084	1	14
424.425	1	-1
424.766	1	-9
425.107	1	-1
425.449	1	3
425.790	1	8
426.131	1	4
426.472	1	4
426.814	1	-5
427.155	1	7
427.496	1	1
427.837	1	-3
428.179	1	2
428.520	1	-7
428.861	1	0
429.202	1	-8
429.544	1	11
429.885	1	3
430.226	1	6
430.567	1	4
430.909	1	0
431.250	1	14
431.591	1	2
431.932	1	3
432.273	1	-2
432.615	1	-7
432.956	1	3
433.297	1	-2
433.638	1	9
433.979	1	5
434.320	1	0
434.662	1	-17
435.003	1	12
435.344	1	-4
435.685	1	-3
436.026	1	-3
436.368	1	11
436.709	1	3
437.050	1	-6
437.391	1	-6
437.732	1	5
438.073	1	3
438.414	1	-6
438.756	1	-1
439.097	1	6
439.438	1	2
439.779	1	2
440.120	1	0
440.461	1	16
440.802	1	9
441.143	1	-3
441.485	1	-4
441.826	1	5
442.167	1	11
442.508	1	0
442.849	1	-5
443.190	1	4
443.531	1	1
443.872	1	-5
444.213	1	-1
444.554	1	-11
444.895	1	-13
445.237	1	-9
445.578	1	4
445.919	1	-1
446.260	1	6
446.601	1	-4
446.942	1	10
447.283	1	12
447.624	1	1
447.965	1	0
448.306	1	4
448.647	1	-3
448.988	1	11
449.329	1	5
449.670	1	-9
450.011	1	3
450.352	1	5
450.693	1	-6
451.034	1	-3
451.375	1	4
451.716	1	5
452.057	1	0
452.398	1	-9
452.739	1	3
453.080	1	7
453.421	1	2
453.762	1	0
454.103	1	-1
454.444	1	-2
454.785	1	-5
455.126	1	2
455.467	1	-11
455.808	1	10
456.149	1	1
456.490	1	0
456.831	1	-7
457.172	1	-6
457.513	1	12
457.854	1	12
458.195	1	-5
458.536	1	-4
458.877	1	1
459.218	1	8
459.559	1	5
459.899	1	8
460.240	1	-1
460.581	1	5
460.922	1	-3
461.263	1	-5
461.604	1	7
461.945	1	6
462.286	1	-5
462.627	1	0
462.968	1	8
463.309	1	8
463.649	1	5
463.990	1	-5
464.331	1	12
464.672	1	-2
465.013	1	8
465.354	1	-6
465.695	1	5
466.036	1	-5
466.376	1	7
466.717	1	-1
467.058	1	3
467.399	1	20
467.740	1	3
468.081	1	3
468.422	1	7
468.762	1	12
469.103	1	4
469.444	1	-3
469.785	1	-13
470.126	1	1
470.467	1	6
470.807	1	-1
471.148	1	-10
471.489	1	0
471.830	1	-4
472.171	1	5
472.511	1	-1
472.852	1	-5
473.193	1	10
473.534	1	6
473.875	1	3
474.215	1	9
474.556	1	3
474.897	1	1
475.238	1	-8
475.578	1	2
475.919	1	5
476.260	1	12
476.601	1	8
476.942	1	-3
477.282	1	4
477.623	1	11
477.964	1	-10
478.305	1	-9
478.645	1	2
478.986	1	-1
479.327	1	-8
479.667	1	4
480.008	1	4
480.349	1	11
480.690	1	5
481.030	1	6
481.371	1	3
481.712	1	3
482.053	1	-7
482.393	1	-2
482.734	1	8
483.075	1	2
483.415	1	6
483.756	1	4
484.097	1	-10
484.437	1	5
484.778	1	-6
485.119	1	7
485.459	1	3
485.800	1	-1
486.141	1	11
486.481	1	7
486.822	1	4
487.163	1	8
487.503	1	5
487.844	1	10
488.185	1	1
488.525	1	6
488.866	1	10
489.207	1	7
489.547	1	16
489.888	1	3
490.228	1	-5
490.569	1	-1
490.910	1	0
491.250	1	9
491.591	1	-7
491.932	1	8
492.272	1	6
492.613	1	11
492.953	1	1
493.294	1	4
493.635	1	0
493.975	1	-1
494.316	1	3
494.656	1	4
494.997	1	-2
495.337	1	8
495.678	1	0
496.019	1	-4
496.359	1	6
496.700	1	12
497.040	1	1
497.381	1	7
497.721	1	0
498.062	1	2
498.403	1	5
498.743	1	5
499.084	1	1
499.424	1	9
499.765	1	-8
500.105	1	-3
500.446	1	-1
500.786	1	-10
501.127	1	0
501.467	1	-4
501.808	1	3
502.148	1	9
502.489	1	-3
502.829	1	8
503.170	1	3
503.510	1	8
503.851	1	2
504.191	1	-6
504.532	1	-11
504.872	1	6
505.213	1	2
505.553	1	2
505.894	1	3
506.234	1	-7
506.575	1	7
506.915	1	3
507.256	1	-4
507.596	1	6
507.936	1	15
508.277	1	-1
508.617	1	6
508.958	1	0
509.298	1	9
509.639	1	10
509.979	1	2
510.319	1	-4
510.660	1	-11
511.000	1	5
511.341	1	9
511.681	1	1
512.022	1	8
512.362	1	-3
512.702	1	-12
513.043	1	-2
513.383	1	9
513.724	1	-2
514.064	1	4
514.404	1	-1
514.745	1	3
515.085	1	9
515.425	1	5
515.766	1	6
516.106	1	7
516.447	1	3
516.787	1	5
517.127	1	4
517.468	1	-1
517.808	1	8
518.148	1	6
518.489	1	11
518.829	1	7
519.169	1	-5
519.510	1	17
519.850	1	4
520.190	1	-2
520.531	1	7
520.871	1	1
521.211	1	4
521.552	1	1
521.892	1	6
522.232	1	-5
522.573	1	5
522.913	1	4
523.253	1	18
523.593	1	7
523.934	1	2
524.274	1	6
524.614	1	7
524.955	1	5
525.295	1	-4
525.635	1	10
525.975	1	-6
526.316	1	6
526.656	1	14
526.996	1	2
527.337	1	4
527.677	1	-4
528.017	1	6
528.357	1	-5
528.698	1	0
529.038	1	-8
529.378	1	3
529.718	1	6
530.058	1	-1
530.399	1	4
530.739	1	9
531.079	1	9
531.419	1	12
531.760	1	5
532.100	1	-3
532.440	1	7
532.780	1	-6
533.120	1	0
533.461	1	5
533.801	1	9
534.141	1	6
534.481	1	6
534.821	1	5
535.162	1	7
535.502	1	5
535.842	1	3
536.182	1	2
536.522	1	11
536.862	1	6
537.203	1	-4
537.543	1	-7
537.883	1	1
538.223	1	10
538.563	1	2
538.903	1	-2
539.243	1	1
539.584	1	2
539.924	1	-2
540.264	1	5
540.604	1	7
540.944	1	10
541.284	1	7
541.624	1	-5
541.964	1	2
542.305	1	3
542.645	1	-3
542.985	1	11
543.325	1	5
543.665	1	1
544.005	1	11
544.345	1	-1
544.685	1	8
545.025	1	-5
545.365	1	9
545.705	1	7
546.045	1	-3
546.386	1	3
546.726	1	-4
547.066	1	14
547.406	1	1
547.746	1	-1
548.086	1	4
548.426	1	0
548.766	1	-3
549.106	1	12
549.446	1	-1
549.786	1	1
550.126	1	5
550.466	1	7
550.806	1	8
551.146	1	6
551.486	1	2
551.826	1	11
552.166	1	-3
552.506	1	2
552.846	1	-5
553.186	1	8
553.526	1	-6
553.866	1	-2
554.206	1	4
554.546	1	-3
554.886	1	3
555.226	1	-7
555.566	1	8
555.906	1	-4
556.246	1	6
556.586	1	7
556.926	1	6
557.266	1	-2
557.606	1	9
557.946	1	12
558.286	1	-1
558.626	1	4
558.966	1	5
559.306	1	13
559.646	1	2
559.986	1	6
560.325	1	1
560.665	1	9
561.005	1	8
561.345	1	-7
561.685	1	6
562.025	1	-2
562.365	1	6
562.705	1	2
563.045	1	5
563.385	1	7
563.725	1	-3
564.064	1	9
564.404	1	6
564.744	1	8
565.084	1	3
565.424	1	-2
565.764	1	-2
566.104	1	-1
566.444	1	2
566.783	1	7
567.123	1	4
567.463	1	-5
567.803	1	11
568.143	1	7
568.483	1	1
568.823	1	-2
569.162	1	3
569.502	1	4
569.842	1	-1
570.182	1	-7
570.522	1	3
570.862	1	-2
571.201	1	11
571.541	1	-4
571.881	1	4
572.221	1	3
572.561	1	6
572.900	1	-4
573.240	1	3
573.580	1	-4
573.920	1	11
574.260	1	-3
574.599	1	1
574.939	1	-5
575.279	1	-3
575.619	1	2
575.959	1	-2
576.298	1	1
576.638	1	1
576.978	1	1
577.318	1	7
577.657	1	0
577.997	1	-7
578.337	1	5
578.677	1	-3
579.016	1	1
579.356	1	5
579.696	1	-3
580.036	1	-6
580.375	1	5
580.715	1	2
581.055	1	3
581.394	1	7
581.734	1	8
582.074	1	3
582.414	1	-5
582.753	1	-5
583.093	1	2
583.433	1	1
583.772	1	-5
584.112	1	4
584.452	1	-4
584.791	1	0
585.131	1	14
585.471	1	0
585.811	1	-6
586.150	1	-11
586.490	1	1
586.830	1	1
587.169	1	19
587.509	1	0
587.849	1	6
588.188	1	-5
588.528	1	0
588.867	1	3
589.207	1	-11
589.547	1	-1
589.886	1	-6
590.226	1	7
590.566	1	7
590.905	1	10
591.245	1	-1
591.585	1	5
591.924	1	3
592.264	1	-3
592.603	1	-3
592.943	1	2
593.283	1	3
593.622	1	-10
593.962	1	4
594.301	1	7
594.641	1	8
594.981	1	4
595.320	1	2
595.660	1	-2
595.999	1	5
596.339	1	8
596.678	1	2
597.018	1	-3
597.358	1	-16
597.697	1	-1
598.037	1	-9
598.376	1	-9
598.716	1	3
599.055	1	-4
599.395	1	1
599.734	1	6
600.074	1	-4
600.413	1	0
600.753	1	1
601.092	1	-5
601.432	1	-4
601.771	1	6
602.111	1	3
602.451	1	4
602.790	1	11
603.130	1	4
603.469	1	12
603.809	1	5
604.148	1	4
604.487	1	-1
604.827	1	-10
605.166	1	13
605.506	1	-1
605.845	1	4
606.185	1	2
606.524	1	-3
606.864	1	7
607.203	1	7
607.543	1	9
607.882	1	-10
608.222	1	-1
608.561	1	9
608.901	1	0
609.240	1	-8
609.579	1	6
609.919	1	-7
610.258	1	2
610.598	1	7
610.937	1	1
611.277	1	1
611.616	1	3
611.955	1	7
612.295	1	-9
612.634	1	4
612.974	1	7
613.313	1	-1
613.652	1	5
613.992	1	4
614.331	1	3
614.671	1	7
615.010	1	4
615.349	1	-2
615.689	1	19
616.028	1	10
616.368	1	4
616.707	1	12
617.046	1	5
617.386	1	2
617.725	1	5
618.064	1	-7
618.404	1	3
618.743	1	1
619.082	1	6
619.422	1	5
619.761	1	-4
620.100	1	2
620.440	1	-1
620.779	1	-3
621.118	1	-6
621.458	1	-4
621.797	1	2
622.136	1	-2
622.476	1	-9
622.815	1	1
623.154	1	0
623.494	1	0
623.833	1	9
624.172	1	7
624.511	1	16
624.851	1	-6
625.190	1	7
625.529	1	5
625.869	1	6
626.208	1	5
626.547	1	-3
626.886	1	4
627.226	1	-2
627.565	1	7
627.904	1	-6
628.243	1	-2
628.583	1	-5
628.922	1	-6
629.261	1	1
629.600	1	4
629.940	1	-1
630.279	1	-2
630.618	1	3
630.957	1	6
631.297	1	3
631.636	1	11
631.975	1	-4
632.314	1	5
632.653	1	7
632.993	1	5
633.332	1	-2
633.671	1	10
634.010	1	1
634.349	1	1
634.689	1	8
635.028	1	5
635.367	1	3
635.706	1	1
636.045	1	7
636.384	1	-8
636.724	1	11
637.063	1	-4
637.402	1	10
637.741	1	-4
638.080	1	11
638.419	1	-8
638.759	1	-1
639.098	1	-9
639.437	1	-13
639.776	1	-7
640.115	1	6
640.454	1	1
640.793	1	-3
641.132	1	6
641.472	1	3
641.811	1	17
642.150	1	-1
642.489	1	-10
642.828	1	-1
643.167	1	2
643.506	1	7
643.845	1	5
644.184	1	7
644.524	1	1
644.863	1	-12
645.202	1	11
645.541	1	-11
645.880	1	2
646.219	1	-6
646.558	1	5
646.897	1	15
647.236	1	0
647.575	1	0
647.914	1	2
648.253	1	6
648.592	1	6
648.931	1	9
649.270	1	1
649.610	1	8
649.949	1	8
650.288	1	7
650.627	1	13
650.966	1	10
651.305	1	-6
651.644	1	11
651.983	1	9
652.322	1	6
652.661	1	3
653.000	1	-7
653.339	1	0
653.678	1	4
654.017	1	7
654.356	1	1
654.695	1	10
655.034	1	-4
655.373	1	5
655.712	1	-8
656.051	1	1
656.390	1	0
656.729	1	3
657.068	1	10
657.406	1	0
657.745	1	14
658.084	1	-8
658.423	1	-3
658.762	1	-5
659.101	1	7
659.440	1	-1
659.779	1	2
660.118	1	-1
660.457	1	10
660.796	1	-4
661.135	1	-12
661.474	1	7
661.813	1	-3
662.152	1	4
662.491	1	-8
662.829	1	-1
663.168	1	7
663.507	1	1
663.846	1	-2
664.185	1	7
664.524	1	11
664.863	1	7
665.202	1	15
665.541	1	3
665.879	1	11
666.218	1	8
666.557	1	-2
666.896	1	2
667.235	1	2
667.574	1	-2
667.913	1	-2
668.251	1	0
668.590	1	-6
668.929	1	6
669.268	1	-1
669.607	1	-1
669.946	1	2
670.285	1	15
670.623	1	2
670.962	1	0
671.301	1	3
671.640	1	7
671.979	1	-3
672.317	1	0
672.656	1	-6
672.995	1	-3
673.334	1	4
673.673	1	9
674.011	1	2
674.350	1	12
674.689	1	2
675.028	1	0
675.367	1	-6
675.705	1	10
676.044	1	7
676.383	1	4
676.722	1	10
677.060	1	0
677.399	1	-1
677.738	1	8
678.077	1	15
678.416	1	4
678.754	1	10
679.093	1	1
679.432	1	4
679.771	1	10
680.109	1	-9
680.448	1	-2
680.787	1	-11
681.125	1	4
681.464	1	5
681.803	1	2
682.142	1	-9
682.480	1	-2
682.819	1	8
683.158	1	-2
683.496	1	3
683.835	1	-5
684.174	1	6
684.512	1	-12
684.851	1	-7
685.190	1	1
685.529	1	17
685.867	1	-3
686.206	1	9
686.545	1	6
686.883	1	-2
687.222	1	7
687.561	1	0
687.899	1	1
688.238	1	-6
688.577	1	7
688.746	1	-10