File: Data/GaN_170K_550ms/GaN_sample D_spot 18_UVVIS_170 K_200um_550 ms 2x2mm1_279.txt
340.368	1	0
340.710	1	-10
341.052	1	-1
341.394	1	1
341.737	1	-3
342.079	1	1
342.421	1	-2
342.763	1	-6
343.105	1	7
343.447	1	-10
343.789	1	2
344.131	1	0
344.473	1	1
344.815	1	3
345.157	1	-5
345.499	1	-5
345.841	1	2
346.183	1	-5
346.526	1	0
346.868	1	6
347.210	1	-5
347.552	1	14
347.894	1	5
348.236	1	-3
348.578	1	9
348.920	1	-11
349.262	1	6
349.604	1	13
349.946	1	14
350.288	1	5
350.630	1	10
350.972	1	-1
351.314	1	2
351.656	1	4
351.998	1	8
352.340	1	3
352.682	1	7
353.024	1	4
353.366	1	5
353.708	1	-1
354.050	1	-7
354.392	1	-4
354.734	1	7
355.076	1	0
355.418	1	-5
355.760	1	-4
356.102	1	7
356.444	1	-1
356.785	1	-6
357.127	1	-5
357.469	1	-3
357.811	1	1
358.153	1	-1
358.495	1	-2
358.837	1	5
359.179	1	-9
359.521	1	8
359.863	1	-2
360.205	1	5
360.547	1	19
360.889	1	4
361.231	1	7
361.572	1	8
361.914	1	4
362.256	1	7
362.598	1	5
362.940	1	16
363.282	1	6
363.624	1	7
363.966	1	2
364.308	1	12
364.649	1	2
364.991	1	17
365.333	1	-1
365.675	1	17
366.017	1	0
366.359	1	12
366.701	1	12
367.042	1	2
367.384	1	14
367.726	1	7
368.068	1	13
368.410	1	10
368.752	1	14
369.093	1	-6
369.435	1	2
369.777	1	8
370.119	1	2
370.461	1	11
370.803	1	1
371.144	1	6
371.486	1	8
371.828	1	5
372.170	1	3
372.512	1	3
372.853	1	8
373.195	1	8
373.537	1	9
373.879	1	11
374.220	1	11
374.562	1	5
374.904	1	-2
375.246	1	-1
375.588	1	9
375.929	1	1
376.271	1	11
376.613	1	5
376.955	1	7
377.296	1	-4
377.638	1	2
377.980	1	-2
378.321	1	2
378.663	1	8
379.005	1	4
379.347	1	0
379.688	1	9
380.030	1	6
380.372	1	5
380.714	1	11
381.055	1	2
381.397	1	11
381.739	1	-7
382.080	1	0
382.422	1	6
382.764	1	-1
383.105	1	7
383.447	1	13
383.789	1	7
384.130	1	-13
384.472	1	-10
384.814	1	9
385.156	1	-1
385.497	1	8
385.839	1	-9
386.180	1	7
386.522	1	2
386.864	1	6
387.205	1	-1
387.547	1	6
387.889	1	4
388.230	1	7
388.572	1	2
388.914	1	10
389.255	1	7
389.597	1	-1
389.939	1	-10
390.280	1	-5
390.622	1	4
390.963	1	-3
391.305	1	1
391.647	1	-6
391.988	1	4
392.330	1	8
392.671	1	0
393.013	1	1
393.355	1	11
393.696	1	8
394.038	1	-4
394.379	1	-2
394.721	1	5
395.062	1	3
395.404	1	8
395.746	1	7
396.087	1	7
396.429	1	0
396.770	1	8
397.112	1	-12
397.453	1	15
397.795	1	3
398.136	1	-3
398.478	1	-5
398.819	1	-4
399.161	1	2
399.503	1	8
399.844	1	1
400.186	1	-1
400.527	1	12
400.869	1	2
401.210	1	2
401.552	1	2
401.893	1	8
402.235	1	9
402.576	1	0
402.918	1	-8
403.259	1	4
403.601	1	10
403.942	1	4
404.284	1	-2
404.625	1	-5
404.967	1	-5
405.308	1	-1
405.649	1	9
405.991	1	5
406.332	1	-10
406.674	1	8
407.015	1	-2
407.357	1	-8
407.698	1	1
408.040	1	-1
408.381	1	1
408.722	1	-2
409.064	1	-2
409.405	1	3
409.747	1	-5
410.088	1	10
410.430	1	-2
410.771	1	6
411.112	1	7
411.454	1	2
411.795	1	3
412.137	1	-7
412.478	1	2
412.819	1	1
413.161	1	3
413.502	1	1
413.844	1	1
414.185	1	2
414.526	1	1
414.868	1	-1
415.209	1	-14
415.550	1	9
415.892	1	-5
416.233	1	9
416.575	1	-1
416.916	1	-4
417.257	1	6
417.599	1	-4
417.940	1	4
418.281	1	-4
418.623	1	-5
418.964	1	-4
419.305	1	-1
419.647	1	11
419.988	1	-1
420.329	1	-3
420.671	1	-10
421.012	1	-3
421.353	1	3
421.695	1	-4
422.036	1	7
422.377	1	2
422.718	1	6
423.060	1	-1
423.401	1	-1
423.742	1	-1
424.084	1	10
424.425	1	-5
424.766	1	-7
425.107	1	0
425.449	1	8
425.790	1	1
426.131	1	11
426.472	1	9
426.814	1	-7
427.155	1	12
427.496	1	-6
427.837	1	7
428.179	1	0
428.520	1	7
428.861	1	-2
429.202	1	6
429.544	1	-3
429.885	1	3
430.226	1	-5
430.567	1	0
430.909	1	-7
431.250	1	10
431.591	1	0
431.932	1	-2
432.273	1	5
432.615	1	3
432.956	1	0
433.297	1	-2
433.638	1	15
433.979	1	3
434.320	1	5
434.662	1	-15
435.003	1	-1
435.344	1	-2
435.685	1	-3
436.026	1	0
436.368	1	7
436.709	1	-3
437.050	1	-14
437.391	1	2
437.732	1	-3
438.073	1	-1
438.414	1	-7
438.756	1	-4
439.097	1	6
439.438	1	6
439.779	1	11
440.120	1	-6
440.461	1	12
440.802	1	5
441.143	1	-4
441.485	1	-6
441.826	1	8
442.167	1	4
442.508	1	-1
442.849	1	-2
443.190	1	-4
443.531	1	3
443.872	1	-8
444.213	1	-3
444.554	1	0
444.895	1	-19
445.237	1	-10
445.578	1	8
445.919	1	4
446.260	1	0
446.601	1	-13
446.942	1	0
447.283	1	3
447.624	1	3
447.965	1	-3
448.306	1	0
448.647	1	-4
448.988	1	14
449.329	1	-1
449.670	1	-13
450.011	1	4
450.352	1	-6
450.693	1	-2
451.034	1	-6
451.375	1	7
451.716	1	-3
452.057	1	-1
452.398	1	8
452.739	1	1
453.080	1	2
453.421	1	6
453.762	1	-2
454.103	1	-3
454.444	1	-8
454.785	1	-2
455.126	1	6
455.467	1	-4
455.808	1	11
456.149	1	3
456.490	1	6
456.831	1	-3
457.172	1	-2
457.513	1	10
457.854	1	10
458.195	1	-4
458.536	1	-8
458.877	1	-2
459.218	1	3
459.559	1	2
459.899	1	1
460.240	1	-1
460.581	1	5
460.922	1	-1
461.263	1	-5
461.604	1	6
461.945	1	0
462.286	1	-1
462.627	1	1
462.968	1	-1
463.309	1	8
463.649	1	2
463.990	1	-11
464.331	1	3
464.672	1	3
465.013	1	13
465.354	1	-6
465.695	1	-3
466.036	1	2
466.376	1	8
466.717	1	0
467.058	1	6
467.399	1	6
467.740	1	-2
468.081	1	-2
468.422	1	0
468.762	1	11
469.103	1	9
469.444	1	-1
469.785	1	-12
470.126	1	1
470.467	1	5
470.807	1	-1
471.148	1	-2
471.489	1	13
471.830	1	-6
472.171	1	-1
472.511	1	0
472.852	1	1
473.193	1	0
473.534	1	4
473.875	1	-1
474.215	1	-1
474.556	1	5
474.897	1	-2
475.238	1	5
475.578	1	1
475.919	1	12
476.260	1	8
476.601	1	15
476.942	1	-6
477.282	1	9
477.623	1	1
477.964	1	0
478.305	1	-1
478.645	1	10
478.986	1	-8
479.327	1	-15
479.667	1	0
480.008	1	-2
480.349	1	1
480.690	1	4
481.030	1	9
481.371	1	-4
481.712	1	8
482.053	1	1
482.393	1	-5
482.734	1	6
483.075	1	0
483.415	1	0
483.756	1	2
484.097	1	-12
484.437	1	-11
484.778	1	-6
485.119	1	6
485.459	1	-4
485.800	1	-2
486.141	1	13
486.481	1	-8
486.822	1	4
487.163	1	0
487.503	1	-5
487.844	1	5
488.185	1	3
488.525	1	4
488.866	1	3
489.207	1	11
489.547	1	6
489.888	1	10
490.228	1	-5
490.569	1	2
490.910	1	4
491.250	1	-1
491.591	1	-1
491.932	1	3
492.272	1	9
492.613	1	6
492.953	1	13
493.294	1	-3
493.635	1	-3
493.975	1	9
494.316	1	5
494.656	1	3
494.997	1	5
495.337	1	11
495.678	1	7
496.019	1	-5
496.359	1	5
496.700	1	9
497.040	1	-5
497.381	1	5
497.721	1	-3
498.062	1	-1
498.403	1	10
498.743	1	1
499.084	1	1
499.424	1	-4
499.765	1	-6
500.105	1	-3
500.446	1	2
500.786	1	4
501.127	1	-2
501.467	1	-1
501.808	1	-9
502.148	1	12
502.489	1	-1
502.829	1	4
503.170	1	11
503.510	1	0
503.851	1	5
504.191	1	-5
504.532	1	-8
504.872	1	-1
505.213	1	-4
505.553	1	-2
505.894	1	12
506.234	1	-2
506.575	1	3
506.915	1	3
507.256	1	-4
507.596	1	4
507.936	1	7
508.277	1	-7
508.617	1	-2
508.958	1	6
509.298	1	-9
509.639	1	13
509.979	1	3
510.319	1	-10
510.660	1	-3
511.000	1	8
511.341	1	18
511.681	1	-9
512.022	1	-1
512.362	1	0
512.702	1	-4
513.043	1	1
513.383	1	0
513.724	1	-6
514.064	1	10
514.404	1	-7
514.745	1	-8
515.085	1	-2
515.425	1	-1
515.766	1	3
516.106	1	2
516.447	1	-1
516.787	1	11
517.127	1	12
517.468	1	-2
517.808	1	12
518.148	1	0
518.489	1	7
518.829	1	6
519.169	1	-4
519.510	1	1
519.850	1	1
520.190	1	3
520.531	1	6
520.871	1	6
521.211	1	-1
521.552	1	7
521.892	1	-2
522.232	1	3
522.573	1	5
522.913	1	9
523.253	1	15
523.593	1	9
523.934	1	0
524.274	1	4
524.614	1	6
524.955	1	5
525.295	1	-6
525.635	1	4
525.975	1	1
526.316	1	12
526.656	1	9
526.996	1	0
527.337	1	1
527.677	1	-1
528.017	1	2
528.357	1	-8
528.698	1	-7
529.038	1	3
529.378	1	-4
529.718	1	13
530.058	1	4
530.399	1	1
530.739	1	2
531.079	1	9
531.419	1	5
531.760	1	-1
532.100	1	-2
532.440	1	-1
532.780	1	-2
533.120	1	1
533.461	1	4
533.801	1	12
534.141	1	-4
534.481	1	6
534.821	1	9
535.162	1	5
535.502	1	10
535.842	1	6
536.182	1	-6
536.522	1	2
536.862	1	5
537.203	1	6
537.543	1	0
537.883	1	9
538.223	1	-3
538.563	1	5
538.903	1	-1
539.243	1	-3
539.584	1	-5
539.924	1	2
540.264	1	15
540.604	1	3
540.944	1	2
541.284	1	2
541.624	1	3
541.964	1	-4
542.305	1	2
542.645	1	-4
542.985	1	1
543.325	1	4
543.665	1	4
544.005	1	4
544.345	1	-1
544.685	1	-2
545.025	1	-3
545.365	1	-4
545.705	1	9
546.045	1	6
546.386	1	-1
546.726	1	-2
547.066	1	13
547.406	1	8
547.746	1	-4
548.086	1	6
548.426	1	7
548.766	1	8
549.106	1	18
549.446	1	6
549.786	1	-4
550.126	1	8
550.466	1	-1
550.806	1	1
551.146	1	2
551.486	1	-1
551.826	1	9
552.166	1	1
552.506	1	4
552.846	1	-4
553.186	1	7
553.526	1	-8
553.866	1	-2
554.206	1	3
554.546	1	2
554.886	1	3
555.226	1	-1
555.566	1	2
555.906	1	-8
556.246	1	5
556.586	1	4
556.926	1	12
557.266	1	11
557.606	1	10
557.946	1	2
558.286	1	10
558.626	1	11
558.966	1	0
559.306	1	5
559.646	1	-3
559.986	1	-2
560.325	1	-2
560.665	1	-1
561.005	1	1
561.345	1	-16
561.685	1	6
562.025	1	-1
562.365	1	2
562.705	1	2
563.045	1	-6
563.385	1	9
563.725	1	-8
564.064	1	2
564.404	1	-2
564.744	1	3
565.084	1	9
565.424	1	0
565.764	1	6
566.104	1	2
566.444	1	2
566.783	1	8
567.123	1	1
567.463	1	3
567.803	1	1
568.143	1	7
568.483	1	-2
568.823	1	1
569.162	1	-7
569.502	1	5
569.842	1	-6
570.182	1	-5
570.522	1	-3
570.862	1	0
571.201	1	5
571.541	1	-1
571.881	1	-5
572.221	1	1
572.561	1	-6
572.900	1	2
573.240	1	8
573.580	1	1
573.920	1	14
574.260	1	2
574.599	1	1
574.939	1	-2
575.279	1	-7
575.619	1	8
575.959	1	-9
576.298	1	0
576.638	1	0
576.978	1	-4
577.318	1	-5
577.657	1	0
577.997	1	-5
578.337	1	-1
578.677	1	-9
579.016	1	6
579.356	1	-1
579.696	1	-4
580.036	1	5
580.375	1	2
580.715	1	-8
581.055	1	5
581.394	1	8
581.734	1	4
582.074	1	5
582.414	1	-5
582.753	1	1
583.093	1	8
583.433	1	1
583.772	1	0
584.112	1	1
584.452	1	-15
584.791	1	2
585.131	1	9
585.471	1	4
585.811	1	-11
586.150	1	-1
586.490	1	5
586.830	1	-6
587.169	1	13
587.509	1	3
587.849	1	5
588.188	1	0
588.528	1	-1
588.867	1	-4
589.207	1	9
589.547	1	13
589.886	1	0
590.226	1	7
590.566	1	5
590.905	1	5
591.245	1	-1
591.585	1	-5
591.924	1	3
592.264	1	-8
592.603	1	1
592.943	1	0
593.283	1	-3
593.622	1	-15
593.962	1	-2
594.301	1	2
594.641	1	1
594.981	1	9
595.320	1	-1
595.660	1	-2
595.999	1	-1
596.339	1	3
596.678	1	3
597.018	1	5
597.358	1	-7
597.697	1	-1
598.037	1	8
598.376	1	-6
598.716	1	6
599.055	1	3
599.395	1	1
599.734	1	10
600.074	1	-3
600.413	1	-4
600.753	1	2
601.092	1	3
601.432	1	-5
601.771	1	6
602.111	1	-1
602.451	1	12
602.790	1	4
603.130	1	-3
603.469	1	2
603.809	1	1
604.148	1	7
604.487	1	7
604.827	1	-13
605.166	1	2
605.506	1	-2
605.845	1	-3
606.185	1	5
606.524	1	3
606.864	1	-4
607.203	1	3
607.543	1	14
607.882	1	2
608.222	1	7
608.561	1	1
608.901	1	5
609.240	1	-2
609.579	1	2
609.919	1	-7
610.258	1	4
610.598	1	7
610.937	1	-1
611.277	1	-7
611.616	1	-1
611.955	1	4
612.295	1	-4
612.634	1	4
612.974	1	2
613.313	1	3
613.652	1	20
613.992	1	0
614.331	1	4
614.671	1	3
615.010	1	1
615.349	1	4
615.689	1	4
616.028	1	-4
616.368	1	1
616.707	1	3
617.046	1	-3
617.386	1	-2
617.725	1	8
618.064	1	-1
618.404	1	-2
618.743	1	15
619.082	1	3
619.422	1	-11
619.761	1	-7
620.100	1	-12
620.440	1	5
620.779	1	0
621.118	1	-6
621.458	1	-5
621.797	1	-4
622.136	1	4
622.476	1	-11
622.815	1	-9
623.154	1	-1
623.494	1	-4
623.833	1	0
624.172	1	10
624.511	1	14
624.851	1	-7
625.190	1	4
625.529	1	6
625.869	1	6
626.208	1	4
626.547	1	-8
626.886	1	0
627.226	1	-3
627.565	1	-3
627.904	1	8
628.243	1	-5
628.583	1	2
628.922	1	-2
629.261	1	-1
629.600	1	0
629.940	1	4
630.279	1	3
630.618	1	-1
630.957	1	2
631.297	1	1
631.636	1	5
631.975	1	-3
632.314	1	5
632.653	1	6
632.993	1	-9
633.332	1	8
633.671	1	3
634.010	1	5
634.349	1	-11
634.689	1	7
635.028	1	5
635.367	1	-1
635.706	1	2
636.045	1	7
636.384	1	-6
636.724	1	7
637.063	1	3
637.402	1	11
637.741	1	-2
638.080	1	2
638.419	1	-3
638.759	1	3
639.098	1	-6
639.437	1	-5
639.776	1	-2
640.115	1	4
640.454	1	0
640.793	1	-5
641.132	1	8
641.472	1	-5
641.811	1	11
642.150	1	-3
642.489	1	-6
642.828	1	6
643.167	1	-11
643.506	1	4
643.845	1	-2
644.184	1	4
644.524	1	-4
644.863	1	-15
645.202	1	9
645.541	1	1
645.880	1	4
646.219	1	-2
646.558	1	9
646.897	1	3
647.236	1	0
647.575	1	-5
647.914	1	3
648.253	1	6
648.592	1	3
648.931	1	0
649.270	1	0
649.610	1	-2
649.949	1	-4
650.288	1	1
650.627	1	-5
650.966	1	10
651.305	1	-6
651.644	1	-3
651.983	1	-3
652.322	1	3
652.661	1	0
653.000	1	-1
653.339	1	-10
653.678	1	4
654.017	1	4
654.356	1	0
654.695	1	3
655.034	1	-2
655.373	1	8
655.712	1	-5
656.051	1	0
656.390	1	-6
656.729	1	5
657.068	1	7
657.406	1	0
657.745	1	4
658.084	1	-1
658.423	1	-2
658.762	1	0
659.101	1	4
659.440	1	4
659.779	1	-3
660.118	1	-4
660.457	1	4
660.796	1	-4
661.135	1	-13
661.474	1	-1
661.813	1	1
662.152	1	3
662.491	1	-3
662.829	1	2
663.168	1	9
663.507	1	1
663.846	1	-3
664.185	1	6
664.524	1	2
664.863	1	-5
665.202	1	14
665.541	1	0
665.879	1	-1
666.218	1	6
666.557	1	-1
666.896	1	3
667.235	1	7
667.574	1	-5
667.913	1	2
668.251	1	6
668.590	1	-6
668.929	1	1
669.268	1	0
669.607	1	-3
669.946	1	-2
670.285	1	12
670.623	1	-2
670.962	1	-4
671.301	1	5
671.640	1	4
671.979	1	1
672.317	1	11
672.656	1	3
672.995	1	-11
673.334	1	-5
673.673	1	1
674.011	1	10
674.350	1	4
674.689	1	-4
675.028	1	0
675.367	1	-3
675.705	1	6
676.044	1	15
676.383	1	-1
676.722	1	14
677.060	1	-6
677.399	1	1
677.738	1	4
678.077	1	15
678.416	1	-2
678.754	1	4
679.093	1	3
679.432	1	-5
679.771	1	13
680.109	1	7
680.448	1	5
680.787	1	-6
681.125	1	4
681.464	1	1
681.803	1	3
682.142	1	-6
682.480	1	3
682.819	1	9
683.158	1	-3
683.496	1	7
683.835	1	-8
684.174	1	4
684.512	1	0
684.851	1	0
685.190	1	-3
685.529	1	6
685.867	1	4
686.206	1	3
686.545	1	9
686.883	1	-5
687.222	1	-7
687.561	1	3
687.899	1	-7
688.238	1	-1
688.577	1	13
688.746	1	-5