File: Data/GaN_170K_550ms/GaN_sample D_spot 18_UVVIS_170 K_200um_550 ms 2x2mm1_67.txt
340.368	1	-5
340.710	1	-2
341.052	1	9
341.394	1	-2
341.737	1	1
342.079	1	4
342.421	1	9
342.763	1	8
343.105	1	7
343.447	1	0
343.789	1	9
344.131	1	0
344.473	1	7
344.815	1	16
345.157	1	-1
345.499	1	4
345.841	1	0
346.183	1	9
346.526	1	10
346.868	1	-1
347.210	1	-1
347.552	1	5
347.894	1	6
348.236	1	3
348.578	1	7
348.920	1	-2
349.262	1	6
349.604	1	12
349.946	1	10
350.288	1	0
350.630	1	12
350.972	1	-1
351.314	1	8
351.656	1	8
351.998	1	16
352.340	1	14
352.682	1	3
353.024	1	13
353.366	1	19
353.708	1	21
354.050	1	8
354.392	1	16
354.734	1	21
355.076	1	12
355.418	1	7
355.760	1	13
356.102	1	19
356.444	1	18
356.785	1	29
357.127	1	23
357.469	1	23
357.811	1	34
358.153	1	28
358.495	1	34
358.837	1	33
359.179	1	36
359.521	1	52
359.863	1	50
360.205	1	49
360.547	1	64
360.889	1	63
361.231	1	71
361.572	1	74
361.914	1	82
362.256	1	87
362.598	1	100
362.940	1	116
363.282	1	112
363.624	1	126
363.966	1	138
364.308	1	165
364.649	1	174
364.991	1	218
365.333	1	215
365.675	1	253
366.017	1	264
366.359	1	288
366.701	1	321
367.042	1	333
367.384	1	371
367.726	1	366
368.068	1	377
368.410	1	381
368.752	1	411
369.093	1	364
369.435	1	385
369.777	1	370
370.119	1	354
370.461	1	355
370.803	1	301
371.144	1	294
371.486	1	273
371.828	1	271
372.170	1	268
372.512	1	236
372.853	1	228
373.195	1	214
373.537	1	215
373.879	1	202
374.220	1	192
374.562	1	166
374.904	1	156
375.246	1	154
375.588	1	150
375.929	1	150
376.271	1	124
376.613	1	116
376.955	1	124
377.296	1	111
377.638	1	114
377.980	1	101
378.321	1	99
378.663	1	98
379.005	1	79
379.347	1	84
379.688	1	74
380.030	1	80
380.372	1	72
380.714	1	73
381.055	1	65
381.397	1	66
381.739	1	52
382.080	1	60
382.422	1	54
382.764	1	56
383.105	1	49
383.447	1	60
383.789	1	55
384.130	1	48
384.472	1	46
384.814	1	54
385.156	1	47
385.497	1	55
385.839	1	38
386.180	1	45
386.522	1	50
386.864	1	40
387.205	1	37
387.547	1	35
387.889	1	40
388.230	1	29
388.572	1	33
388.914	1	31
389.255	1	33
389.597	1	28
389.939	1	23
390.280	1	32
390.622	1	28
390.963	1	22
391.305	1	29
391.647	1	17
391.988	1	28
392.330	1	16
392.671	1	19
393.013	1	33
393.355	1	24
393.696	1	26
394.038	1	13
394.379	1	10
394.721	1	19
395.062	1	13
395.404	1	24
395.746	1	16
396.087	1	21
396.429	1	21
396.770	1	21
397.112	1	17
397.453	1	20
397.795	1	11
398.136	1	14
398.478	1	11
398.819	1	22
399.161	1	10
399.503	1	13
399.844	1	6
400.186	1	11
400.527	1	21
400.869	1	7
401.210	1	8
401.552	1	17
401.893	1	19
402.235	1	16
402.576	1	16
402.918	1	15
403.259	1	8
403.601	1	23
403.942	1	13
404.284	1	11
404.625	1	21
404.967	1	8
405.308	1	4
405.649	1	13
405.991	1	7
406.332	1	-1
406.674	1	14
407.015	1	10
407.357	1	6
407.698	1	15
408.040	1	8
408.381	1	11
408.722	1	3
409.064	1	11
409.405	1	10
409.747	1	6
410.088	1	8
410.430	1	0
410.771	1	20
411.112	1	8
411.454	1	12
411.795	1	22
412.137	1	2
412.478	1	9
412.819	1	-10
413.161	1	5
413.502	1	9
413.844	1	11
414.185	1	4
414.526	1	13
414.868	1	10
415.209	1	-10
415.550	1	9
415.892	1	13
416.233	1	6
416.575	1	9
416.916	1	6
417.257	1	15
417.599	1	7
417.940	1	6
418.281	1	-4
418.623	1	0
418.964	1	1
419.305	1	12
419.647	1	16
419.988	1	16
420.329	1	8
420.671	1	-1
421.012	1	7
421.353	1	9
421.695	1	4
422.036	1	11
422.377	1	18
422.718	1	19
423.060	1	5
423.401	1	3
423.742	1	2
424.084	1	16
424.425	1	-1
424.766	1	9
425.107	1	-4
425.449	1	7
425.790	1	2
426.131	1	14
426.472	1	5
426.814	1	-5
427.155	1	17
427.496	1	11
427.837	1	4
428.179	1	5
428.520	1	7
428.861	1	9
429.202	1	1
429.544	1	12
429.885	1	13
430.226	1	11
430.567	1	7
430.909	1	-1
431.250	1	19
431.591	1	-5
431.932	1	-1
432.273	1	9
432.615	1	-3
432.956	1	11
433.297	1	-1
433.638	1	13
433.979	1	8
434.320	1	7
434.662	1	-10
435.003	1	14
435.344	1	3
435.685	1	6
436.026	1	-2
436.368	1	9
436.709	1	7
437.050	1	-2
437.391	1	-3
437.732	1	10
438.073	1	1
438.414	1	-3
438.756	1	3
439.097	1	10
439.438	1	11
439.779	1	13
440.120	1	4
440.461	1	14
440.802	1	12
441.143	1	6
441.485	1	8
441.826	1	7
442.167	1	15
442.508	1	7
442.849	1	-5
443.190	1	1
443.531	1	-1
443.872	1	6
444.213	1	4
444.554	1	7
444.895	1	-7
445.237	1	2
445.578	1	15
445.919	1	3
446.260	1	7
446.601	1	-8
446.942	1	7
447.283	1	8
447.624	1	0
447.965	1	12
448.306	1	-2
448.647	1	6
448.988	1	19
449.329	1	5
449.670	1	-2
450.011	1	11
450.352	1	2
450.693	1	12
451.034	1	5
451.375	1	9
451.716	1	12
452.057	1	10
452.398	1	11
452.739	1	6
453.080	1	4
453.421	1	-3
453.762	1	2
454.103	1	-1
454.444	1	-6
454.785	1	4
455.126	1	17
455.467	1	1
455.808	1	16
456.149	1	-3
456.490	1	7
456.831	1	4
457.172	1	5
457.513	1	12
457.854	1	10
458.195	1	-5
458.536	1	5
458.877	1	9
459.218	1	7
459.559	1	3
459.899	1	6
460.240	1	8
460.581	1	1
460.922	1	0
461.263	1	6
461.604	1	13
461.945	1	7
462.286	1	0
462.627	1	6
462.968	1	5
463.309	1	10
463.649	1	9
463.990	1	4
464.331	1	5
464.672	1	0
465.013	1	21
465.354	1	9
465.695	1	15
466.036	1	4
466.376	1	6
466.717	1	3
467.058	1	19
467.399	1	11
467.740	1	7
468.081	1	0
468.422	1	12
468.762	1	16
469.103	1	8
469.444	1	5
469.785	1	-7
470.126	1	6
470.467	1	8
470.807	1	5
471.148	1	5
471.489	1	10
471.830	1	1
472.171	1	11
472.511	1	5
472.852	1	6
473.193	1	11
473.534	1	9
473.875	1	2
474.215	1	0
474.556	1	11
474.897	1	6
475.238	1	1
475.578	1	10
475.919	1	2
476.260	1	13
476.601	1	7
476.942	1	-5
477.282	1	14
477.623	1	25
477.964	1	15
478.305	1	2
478.645	1	14
478.986	1	8
479.327	1	1
479.667	1	10
480.008	1	6
480.349	1	21
480.690	1	8
481.030	1	21
481.371	1	11
481.712	1	11
482.053	1	8
482.393	1	14
482.734	1	17
483.075	1	12
483.415	1	8
483.756	1	17
484.097	1	4
484.437	1	5
484.778	1	2
485.119	1	20
485.459	1	15
485.800	1	0
486.141	1	23
486.481	1	8
486.822	1	20
487.163	1	19
487.503	1	16
487.844	1	20
488.185	1	21
488.525	1	16
488.866	1	20
489.207	1	22
489.547	1	23
489.888	1	8
490.228	1	6
490.569	1	27
490.910	1	13
491.250	1	25
491.591	1	13
491.932	1	32
492.272	1	20
492.613	1	19
492.953	1	22
493.294	1	15
493.635	1	17
493.975	1	26
494.316	1	23
494.656	1	23
494.997	1	14
495.337	1	17
495.678	1	25
496.019	1	23
496.359	1	22
496.700	1	30
497.040	1	19
497.381	1	26
497.721	1	21
498.062	1	19
498.403	1	35
498.743	1	26
499.084	1	17
499.424	1	31
499.765	1	15
500.105	1	29
500.446	1	30
500.786	1	21
501.127	1	49
501.467	1	32
501.808	1	24
502.148	1	44
502.489	1	36
502.829	1	29
503.170	1	40
503.510	1	38
503.851	1	38
504.191	1	28
504.532	1	24
504.872	1	46
505.213	1	31
505.553	1	34
505.894	1	42
506.234	1	42
506.575	1	44
506.915	1	48
507.256	1	50
507.596	1	44
507.936	1	39
508.277	1	37
508.617	1	42
508.958	1	29
509.298	1	40
509.639	1	50
509.979	1	49
510.319	1	36
510.660	1	36
511.000	1	48
511.341	1	50
511.681	1	39
512.022	1	51
512.362	1	37
512.702	1	43
513.043	1	49
513.383	1	46
513.724	1	44
514.064	1	53
514.404	1	40
514.745	1	40
515.085	1	49
515.425	1	52
515.766	1	42
516.106	1	45
516.447	1	49
516.787	1	48
517.127	1	52
517.468	1	47
517.808	1	56
518.148	1	40
518.489	1	44
518.829	1	58
519.169	1	54
519.510	1	47
519.850	1	44
520.190	1	43
520.531	1	51
520.871	1	50
521.211	1	56
521.552	1	52
521.892	1	50
522.232	1	44
522.573	1	45
522.913	1	50
523.253	1	66
523.593	1	53
523.934	1	42
524.274	1	48
524.614	1	65
524.955	1	50
525.295	1	47
525.635	1	52
525.975	1	47
526.316	1	52
526.656	1	60
526.996	1	56
527.337	1	50
527.677	1	53
528.017	1	48
528.357	1	42
528.698	1	47
529.038	1	58
529.378	1	47
529.718	1	65
530.058	1	65
530.399	1	59
530.739	1	46
531.079	1	59
531.419	1	68
531.760	1	59
532.100	1	62
532.440	1	60
532.780	1	44
533.120	1	49
533.461	1	36
533.801	1	71
534.141	1	43
534.481	1	54
534.821	1	54
535.162	1	55
535.502	1	48
535.842	1	44
536.182	1	49
536.522	1	64
536.862	1	56
537.203	1	46
537.543	1	55
537.883	1	41
538.223	1	41
538.563	1	53
538.903	1	45
539.243	1	43
539.584	1	51
539.924	1	55
540.264	1	50
540.604	1	50
540.944	1	39
541.284	1	50
541.624	1	35
541.964	1	43
542.305	1	48
542.645	1	45
542.985	1	37
543.325	1	40
543.665	1	45
544.005	1	56
544.345	1	48
544.685	1	52
545.025	1	38
545.365	1	45
545.705	1	49
546.045	1	42
546.386	1	48
546.726	1	51
547.066	1	56
547.406	1	43
547.746	1	40
548.086	1	45
548.426	1	57
548.766	1	56
549.106	1	57
549.446	1	50
549.786	1	49
550.126	1	45
550.466	1	49
550.806	1	41
551.146	1	51
551.486	1	41
551.826	1	51
552.166	1	46
552.506	1	45
552.846	1	48
553.186	1	47
553.526	1	46
553.866	1	39
554.206	1	44
554.546	1	28
554.886	1	36
555.226	1	34
555.566	1	41
555.906	1	24
556.246	1	37
556.586	1	42
556.926	1	40
557.266	1	41
557.606	1	41
557.946	1	49
558.286	1	37
558.626	1	43
558.966	1	41
559.306	1	39
559.646	1	36
559.986	1	40
560.325	1	32
560.665	1	40
561.005	1	36
561.345	1	20
561.685	1	35
562.025	1	28
562.365	1	39
562.705	1	43
563.045	1	36
563.385	1	39
563.725	1	28
564.064	1	37
564.404	1	26
564.744	1	33
565.084	1	38
565.424	1	31
565.764	1	43
566.104	1	35
566.444	1	30
566.783	1	27
567.123	1	32
567.463	1	18
567.803	1	43
568.143	1	29
568.483	1	24
568.823	1	19
569.162	1	34
569.502	1	33
569.842	1	22
570.182	1	16
570.522	1	23
570.862	1	31
571.201	1	25
571.541	1	17
571.881	1	17
572.221	1	28
572.561	1	27
572.900	1	24
573.240	1	28
573.580	1	26
573.920	1	34
574.260	1	28
574.599	1	24
574.939	1	20
575.279	1	14
575.619	1	33
575.959	1	20
576.298	1	28
576.638	1	14
576.978	1	17
577.318	1	28
577.657	1	19
577.997	1	21
578.337	1	33
578.677	1	21
579.016	1	24
579.356	1	24
579.696	1	18
580.036	1	21
580.375	1	13
580.715	1	23
581.055	1	25
581.394	1	19
581.734	1	32
582.074	1	21
582.414	1	9
582.753	1	26
583.093	1	30
583.433	1	30
583.772	1	20
584.112	1	30
584.452	1	10
584.791	1	13
585.131	1	26
585.471	1	29
585.811	1	9
586.150	1	12
586.490	1	21
586.830	1	11
587.169	1	24
587.509	1	14
587.849	1	21
588.188	1	15
588.528	1	20
588.867	1	11
589.207	1	14
589.547	1	16
589.886	1	5
590.226	1	13
590.566	1	17
590.905	1	24
591.245	1	11
591.585	1	9
591.924	1	11
592.264	1	11
592.603	1	19
592.943	1	10
593.283	1	21
593.622	1	3
593.962	1	12
594.301	1	23
594.641	1	19
594.981	1	17
595.320	1	8
595.660	1	14
595.999	1	21
596.339	1	17
596.678	1	12
597.018	1	13
597.358	1	5
597.697	1	9
598.037	1	6
598.376	1	5
598.716	1	15
599.055	1	14
599.395	1	10
599.734	1	27
600.074	1	15
600.413	1	9
600.753	1	12
601.092	1	11
601.432	1	13
601.771	1	21
602.111	1	13
602.451	1	21
602.790	1	23
603.130	1	12
603.469	1	16
603.809	1	12
604.148	1	12
604.487	1	21
604.827	1	2
605.166	1	21
605.506	1	6
605.845	1	10
606.185	1	20
606.524	1	3
606.864	1	11
607.203	1	9
607.543	1	21
607.882	1	7
608.222	1	15
608.561	1	12
608.901	1	14
609.240	1	13
609.579	1	13
609.919	1	6
610.258	1	16
610.598	1	17
610.937	1	9
611.277	1	12
611.616	1	15
611.955	1	26
612.295	1	6
612.634	1	1
612.974	1	16
613.313	1	14
613.652	1	23
613.992	1	10
614.331	1	6
614.671	1	22
615.010	1	8
615.349	1	14
615.689	1	20
616.028	1	6
616.368	1	9
616.707	1	16
617.046	1	16
617.386	1	4
617.725	1	13
618.064	1	15
618.404	1	12
618.743	1	12
619.082	1	26
619.422	1	6
619.761	1	1
620.100	1	0
620.440	1	19
620.779	1	2
621.118	1	-6
621.458	1	5
621.797	1	12
622.136	1	14
622.476	1	2
622.815	1	13
623.154	1	16
623.494	1	5
623.833	1	15
624.172	1	7
624.511	1	12
624.851	1	4
625.190	1	18
625.529	1	9
625.869	1	13
626.208	1	10
626.547	1	11
626.886	1	16
627.226	1	9
627.565	1	8
627.904	1	5
628.243	1	14
628.583	1	10
628.922	1	3
629.261	1	11
629.600	1	13
629.940	1	13
630.279	1	12
630.618	1	-1
630.957	1	7
631.297	1	2
631.636	1	23
631.975	1	7
632.314	1	10
632.653	1	14
632.993	1	6
633.332	1	16
633.671	1	21
634.010	1	9
634.349	1	-2
634.689	1	22
635.028	1	19
635.367	1	7
635.706	1	9
636.045	1	11
636.384	1	-2
636.724	1	11
637.063	1	11
637.402	1	16
637.741	1	6
638.080	1	15
638.419	1	-4
638.759	1	17
639.098	1	-1
639.437	1	4
639.776	1	3
640.115	1	7
640.454	1	6
640.793	1	3
641.132	1	13
641.472	1	4
641.811	1	13
642.150	1	9
642.489	1	6
642.828	1	4
643.167	1	15
643.506	1	10
643.845	1	13
644.184	1	10
644.524	1	4
644.863	1	-2
645.202	1	18
645.541	1	10
645.880	1	13
646.219	1	12
646.558	1	19
646.897	1	14
647.236	1	-2
647.575	1	-1
647.914	1	-1
648.253	1	12
648.592	1	10
648.931	1	18
649.270	1	10
649.610	1	11
649.949	1	4
650.288	1	6
650.627	1	11
650.966	1	5
651.305	1	7
651.644	1	16
651.983	1	25
652.322	1	16
652.661	1	2
653.000	1	-1
653.339	1	1
653.678	1	11
654.017	1	13
654.356	1	3
654.695	1	10
655.034	1	6
655.373	1	13
655.712	1	0
656.051	1	9
656.390	1	7
656.729	1	10
657.068	1	17
657.406	1	10
657.745	1	5
658.084	1	1
658.423	1	1
658.762	1	8
659.101	1	15
659.440	1	11
659.779	1	8
660.118	1	7
660.457	1	6
660.796	1	7
661.135	1	-5
661.474	1	20
661.813	1	5
662.152	1	8
662.491	1	-4
662.829	1	1
663.168	1	14
663.507	1	11
663.846	1	1
664.185	1	15
664.524	1	6
664.863	1	11
665.202	1	17
665.541	1	1
665.879	1	9
666.218	1	17
666.557	1	-2
666.896	1	4
667.235	1	5
667.574	1	-9
667.913	1	0
668.251	1	11
668.590	1	6
668.929	1	11
669.268	1	1
669.607	1	11
669.946	1	16
670.285	1	16
670.623	1	4
670.962	1	2
671.301	1	12
671.640	1	15
671.979	1	7
672.317	1	11
672.656	1	0
672.995	1	2
673.334	1	1
673.673	1	11
674.011	1	6
674.350	1	8
674.689	1	7
675.028	1	4
675.367	1	0
675.705	1	12
676.044	1	18
676.383	1	9
676.722	1	21
677.060	1	2
677.399	1	7
677.738	1	9
678.077	1	10
678.416	1	2
678.754	1	10
679.093	1	13
679.432	1	4
679.771	1	5
680.109	1	4
680.448	1	17
680.787	1	3
681.125	1	15
681.464	1	10
681.803	1	16
682.142	1	3
682.480	1	12
682.819	1	11
683.158	1	9
683.496	1	17
683.835	1	3
684.174	1	9
684.512	1	1
684.851	1	7
685.190	1	8
685.529	1	19
685.867	1	10
686.206	1	11
686.545	1	14
686.883	1	9
687.222	1	8
687.561	1	13
687.899	1	0
688.238	1	17
688.577	1	17
688.746	1	-1