File: Data/GaN_170K_550ms/GaN_sample D_spot 18_UVVIS_170 K_200um_550 ms 2x2mm1_119.txt
340.368	1	-5
340.710	1	-4
341.052	1	2
341.394	1	1
341.737	1	3
342.079	1	-2
342.421	1	4
342.763	1	5
343.105	1	5
343.447	1	2
343.789	1	14
344.131	1	1
344.473	1	-1
344.815	1	14
345.157	1	-2
345.499	1	-5
345.841	1	7
346.183	1	7
346.526	1	5
346.868	1	8
347.210	1	-7
347.552	1	6
347.894	1	1
348.236	1	7
348.578	1	14
348.920	1	5
349.262	1	1
349.604	1	11
349.946	1	16
350.288	1	6
350.630	1	12
350.972	1	-4
351.314	1	15
351.656	1	0
351.998	1	10
352.340	1	3
352.682	1	3
353.024	1	9
353.366	1	10
353.708	1	6
354.050	1	2
354.392	1	3
354.734	1	8
355.076	1	7
355.418	1	1
355.760	1	4
356.102	1	5
356.444	1	3
356.785	1	6
357.127	1	6
357.469	1	4
357.811	1	12
358.153	1	12
358.495	1	7
358.837	1	17
359.179	1	4
359.521	1	18
359.863	1	14
360.205	1	25
360.547	1	26
360.889	1	26
361.231	1	21
361.572	1	28
361.914	1	19
362.256	1	22
362.598	1	22
362.940	1	38
363.282	1	33
363.624	1	39
363.966	1	38
364.308	1	33
364.649	1	36
364.991	1	44
365.333	1	41
365.675	1	51
366.017	1	37
366.359	1	43
366.701	1	53
367.042	1	47
367.384	1	61
367.726	1	58
368.068	1	55
368.410	1	61
368.752	1	65
369.093	1	51
369.435	1	54
369.777	1	57
370.119	1	68
370.461	1	64
370.803	1	46
371.144	1	55
371.486	1	45
371.828	1	46
372.170	1	51
372.512	1	34
372.853	1	51
373.195	1	39
373.537	1	52
373.879	1	35
374.220	1	37
374.562	1	34
374.904	1	22
375.246	1	37
375.588	1	24
375.929	1	22
376.271	1	35
376.613	1	35
376.955	1	27
377.296	1	34
377.638	1	27
377.980	1	6
378.321	1	25
378.663	1	22
379.005	1	18
379.347	1	25
379.688	1	20
380.030	1	19
380.372	1	13
380.714	1	24
381.055	1	19
381.397	1	12
381.739	1	14
382.080	1	2
382.422	1	3
382.764	1	0
383.105	1	12
383.447	1	15
383.789	1	24
384.130	1	3
384.472	1	7
384.814	1	18
385.156	1	12
385.497	1	8
385.839	1	4
386.180	1	7
386.522	1	14
386.864	1	12
387.205	1	4
387.547	1	15
387.889	1	14
388.230	1	7
388.572	1	13
388.914	1	2
389.255	1	20
389.597	1	10
389.939	1	5
390.280	1	13
390.622	1	4
390.963	1	5
391.305	1	-1
391.647	1	-1
391.988	1	16
392.330	1	13
392.671	1	-4
393.013	1	13
393.355	1	10
393.696	1	8
394.038	1	6
394.379	1	-1
394.721	1	5
395.062	1	0
395.404	1	15
395.746	1	8
396.087	1	6
396.429	1	2
396.770	1	9
397.112	1	7
397.453	1	9
397.795	1	3
398.136	1	6
398.478	1	8
398.819	1	1
399.161	1	-7
399.503	1	9
399.844	1	1
400.186	1	-2
400.527	1	10
400.869	1	7
401.210	1	14
401.552	1	3
401.893	1	17
402.235	1	12
402.576	1	4
402.918	1	9
403.259	1	11
403.601	1	15
403.942	1	5
404.284	1	-10
404.625	1	0
404.967	1	0
405.308	1	6
405.649	1	8
405.991	1	12
406.332	1	-5
406.674	1	11
407.015	1	11
407.357	1	-7
407.698	1	3
408.040	1	-5
408.381	1	5
408.722	1	-6
409.064	1	5
409.405	1	0
409.747	1	-4
410.088	1	15
410.430	1	-2
410.771	1	4
411.112	1	6
411.454	1	10
411.795	1	11
412.137	1	-6
412.478	1	-2
412.819	1	-2
413.161	1	1
413.502	1	2
413.844	1	12
414.185	1	-2
414.526	1	3
414.868	1	3
415.209	1	-3
415.550	1	8
415.892	1	5
416.233	1	8
416.575	1	2
416.916	1	-2
417.257	1	-2
417.599	1	-4
417.940	1	3
418.281	1	3
418.623	1	-1
418.964	1	-13
419.305	1	5
419.647	1	1
419.988	1	-1
420.329	1	3
420.671	1	-3
421.012	1	2
421.353	1	5
421.695	1	-10
422.036	1	4
422.377	1	1
422.718	1	8
423.060	1	-3
423.401	1	-6
423.742	1	7
424.084	1	17
424.425	1	-4
424.766	1	0
425.107	1	-8
425.449	1	5
425.790	1	10
426.131	1	15
426.472	1	3
426.814	1	-2
427.155	1	11
427.496	1	4
427.837	1	9
428.179	1	12
428.520	1	-2
428.861	1	5
429.202	1	-3
429.544	1	-2
429.885	1	5
430.226	1	1
430.567	1	11
430.909	1	-3
431.250	1	2
431.591	1	-1
431.932	1	-3
432.273	1	3
432.615	1	0
432.956	1	-3
433.297	1	1
433.638	1	5
433.979	1	6
434.320	1	10
434.662	1	-7
435.003	1	3
435.344	1	5
435.685	1	-2
436.026	1	4
436.368	1	9
436.709	1	5
437.050	1	-1
437.391	1	3
437.732	1	9
438.073	1	6
438.414	1	-3
438.756	1	-3
439.097	1	-3
439.438	1	5
439.779	1	11
440.120	1	3
440.461	1	7
440.802	1	8
441.143	1	-1
441.485	1	-1
441.826	1	12
442.167	1	6
442.508	1	-1
442.849	1	5
443.190	1	-3
443.531	1	-2
443.872	1	-5
444.213	1	7
444.554	1	3
444.895	1	-3
445.237	1	2
445.578	1	7
445.919	1	-1
446.260	1	8
446.601	1	-7
446.942	1	3
447.283	1	5
447.624	1	-2
447.965	1	2
448.306	1	5
448.647	1	6
448.988	1	10
449.329	1	-1
449.670	1	-8
450.011	1	11
450.352	1	-10
450.693	1	-3
451.034	1	-1
451.375	1	-1
451.716	1	1
452.057	1	-2
452.398	1	1
452.739	1	0
453.080	1	-4
453.421	1	6
453.762	1	-5
454.103	1	-4
454.444	1	-4
454.785	1	15
455.126	1	21
455.467	1	-9
455.808	1	10
456.149	1	1
456.490	1	3
456.831	1	1
457.172	1	1
457.513	1	11
457.854	1	18
458.195	1	3
458.536	1	-7
458.877	1	13
459.218	1	-4
459.559	1	1
459.899	1	6
460.240	1	-2
460.581	1	3
460.922	1	2
461.263	1	1
461.604	1	11
461.945	1	7
462.286	1	-6
462.627	1	1
462.968	1	11
463.309	1	5
463.649	1	4
463.990	1	8
464.331	1	9
464.672	1	-5
465.013	1	16
465.354	1	-9
465.695	1	4
466.036	1	-9
466.376	1	6
466.717	1	0
467.058	1	9
467.399	1	7
467.740	1	-2
468.081	1	-7
468.422	1	9
468.762	1	16
469.103	1	10
469.444	1	4
469.785	1	-2
470.126	1	-1
470.467	1	11
470.807	1	3
471.148	1	-1
471.489	1	-2
471.830	1	5
472.171	1	4
472.511	1	0
472.852	1	-3
473.193	1	11
473.534	1	-4
473.875	1	-3
474.215	1	5
474.556	1	6
474.897	1	2
475.238	1	3
475.578	1	4
475.919	1	14
476.260	1	13
476.601	1	2
476.942	1	-2
477.282	1	3
477.623	1	11
477.964	1	2
478.305	1	-7
478.645	1	1
478.986	1	-9
479.327	1	-2
479.667	1	-5
480.008	1	6
480.349	1	7
480.690	1	11
481.030	1	6
481.371	1	-1
481.712	1	5
482.053	1	-3
482.393	1	-1
482.734	1	5
483.075	1	-2
483.415	1	2
483.756	1	8
484.097	1	-2
484.437	1	-9
484.778	1	0
485.119	1	2
485.459	1	0
485.800	1	4
486.141	1	6
486.481	1	3
486.822	1	12
487.163	1	-2
487.503	1	10
487.844	1	19
488.185	1	-1
488.525	1	12
488.866	1	12
489.207	1	13
489.547	1	10
489.888	1	2
490.228	1	-4
490.569	1	3
490.910	1	7
491.250	1	8
491.591	1	11
491.932	1	8
492.272	1	3
492.613	1	1
492.953	1	12
493.294	1	-6
493.635	1	1
493.975	1	9
494.316	1	14
494.656	1	2
494.997	1	0
495.337	1	7
495.678	1	14
496.019	1	1
496.359	1	9
496.700	1	16
497.040	1	8
497.381	1	13
497.721	1	-6
498.062	1	-6
498.403	1	11
498.743	1	11
499.084	1	9
499.424	1	7
499.765	1	-3
500.105	1	1
500.446	1	8
500.786	1	5
501.127	1	10
501.467	1	2
501.808	1	4
502.148	1	10
502.489	1	6
502.829	1	8
503.170	1	12
503.510	1	7
503.851	1	5
504.191	1	-4
504.532	1	-15
504.872	1	7
505.213	1	7
505.553	1	11
505.894	1	13
506.234	1	3
506.575	1	8
506.915	1	16
507.256	1	2
507.596	1	14
507.936	1	21
508.277	1	5
508.617	1	14
508.958	1	12
509.298	1	10
509.639	1	14
509.979	1	7
510.319	1	3
510.660	1	-3
511.000	1	12
511.341	1	13
511.681	1	8
512.022	1	16
512.362	1	5
512.702	1	4
513.043	1	10
513.383	1	19
513.724	1	0
514.064	1	10
514.404	1	0
514.745	1	8
515.085	1	12
515.425	1	11
515.766	1	17
516.106	1	11
516.447	1	-4
516.787	1	12
517.127	1	4
517.468	1	2
517.808	1	15
518.148	1	7
518.489	1	13
518.829	1	10
519.169	1	12
519.510	1	20
519.850	1	12
520.190	1	12
520.531	1	22
520.871	1	4
521.211	1	8
521.552	1	16
521.892	1	1
522.232	1	6
522.573	1	19
522.913	1	15
523.253	1	16
523.593	1	12
523.934	1	17
524.274	1	8
524.614	1	10
524.955	1	15
525.295	1	7
525.635	1	12
525.975	1	10
526.316	1	9
526.656	1	22
526.996	1	7
527.337	1	-3
527.677	1	2
528.017	1	15
528.357	1	2
528.698	1	6
529.038	1	7
529.378	1	6
529.718	1	12
530.058	1	14
530.399	1	15
530.739	1	11
531.079	1	16
531.419	1	23
531.760	1	8
532.100	1	11
532.440	1	5
532.780	1	-2
533.120	1	13
533.461	1	15
533.801	1	15
534.141	1	9
534.481	1	13
534.821	1	12
535.162	1	16
535.502	1	8
535.842	1	9
536.182	1	11
536.522	1	20
536.862	1	18
537.203	1	5
537.543	1	8
537.883	1	17
538.223	1	0
538.563	1	5
538.903	1	5
539.243	1	7
539.584	1	8
539.924	1	-3
540.264	1	18
540.604	1	4
540.944	1	-4
541.284	1	17
541.624	1	2
541.964	1	7
542.305	1	11
542.645	1	1
542.985	1	14
543.325	1	13
543.665	1	12
544.005	1	6
544.345	1	8
544.685	1	12
545.025	1	9
545.365	1	19
545.705	1	20
546.045	1	0
546.386	1	3
546.726	1	1
547.066	1	10
547.406	1	4
547.746	1	3
548.086	1	8
548.426	1	10
548.766	1	0
549.106	1	8
549.446	1	9
549.786	1	7
550.126	1	17
550.466	1	1
550.806	1	5
551.146	1	4
551.486	1	1
551.826	1	16
552.166	1	9
552.506	1	9
552.846	1	6
553.186	1	9
553.526	1	3
553.866	1	4
554.206	1	16
554.546	1	0
554.886	1	-6
555.226	1	-1
555.566	1	8
555.906	1	-4
556.246	1	13
556.586	1	4
556.926	1	4
557.266	1	15
557.606	1	13
557.946	1	3
558.286	1	7
558.626	1	22
558.966	1	9
559.306	1	9
559.646	1	4
559.986	1	9
560.325	1	8
560.665	1	8
561.005	1	10
561.345	1	1
561.685	1	5
562.025	1	-8
562.365	1	7
562.705	1	14
563.045	1	4
563.385	1	6
563.725	1	6
564.064	1	9
564.404	1	2
564.744	1	8
565.084	1	-3
565.424	1	4
565.764	1	8
566.104	1	6
566.444	1	7
566.783	1	5
567.123	1	13
567.463	1	2
567.803	1	10
568.143	1	5
568.483	1	7
568.823	1	-3
569.162	1	12
569.502	1	1
569.842	1	-4
570.182	1	3
570.522	1	10
570.862	1	2
571.201	1	6
571.541	1	-2
571.881	1	-1
572.221	1	9
572.561	1	8
572.900	1	-3
573.240	1	5
573.580	1	4
573.920	1	15
574.260	1	14
574.599	1	5
574.939	1	-4
575.279	1	1
575.619	1	11
575.959	1	3
576.298	1	9
576.638	1	7
576.978	1	6
577.318	1	8
577.657	1	5
577.997	1	-3
578.337	1	0
578.677	1	8
579.016	1	6
579.356	1	-3
579.696	1	-2
580.036	1	3
580.375	1	7
580.715	1	8
581.055	1	15
581.394	1	10
581.734	1	13
582.074	1	4
582.414	1	-7
582.753	1	1
583.093	1	9
583.433	1	11
583.772	1	3
584.112	1	4
584.452	1	0
584.791	1	6
585.131	1	15
585.471	1	13
585.811	1	-5
586.150	1	-5
586.490	1	14
586.830	1	-2
587.169	1	8
587.509	1	1
587.849	1	1
588.188	1	4
588.528	1	-3
588.867	1	2
589.207	1	4
589.547	1	3
589.886	1	-1
590.226	1	8
590.566	1	5
590.905	1	12
591.245	1	-4
591.585	1	0
591.924	1	-3
592.264	1	1
592.603	1	4
592.943	1	14
593.283	1	2
593.622	1	-5
593.962	1	-3
594.301	1	1
594.641	1	4
594.981	1	7
595.320	1	1
595.660	1	3
595.999	1	3
596.339	1	11
596.678	1	-4
597.018	1	8
597.358	1	-4
597.697	1	0
598.037	1	-1
598.376	1	-10
598.716	1	7
599.055	1	0
599.395	1	6
599.734	1	8
600.074	1	6
600.413	1	-6
600.753	1	5
601.092	1	-2
601.432	1	-4
601.771	1	11
602.111	1	-5
602.451	1	16
602.790	1	18
603.130	1	-3
603.469	1	0
603.809	1	11
604.148	1	-1
604.487	1	0
604.827	1	-7
605.166	1	9
605.506	1	-1
605.845	1	16
606.185	1	8
606.524	1	5
606.864	1	3
607.203	1	2
607.543	1	12
607.882	1	4
608.222	1	-2
608.561	1	6
608.901	1	7
609.240	1	-1
609.579	1	3
609.919	1	5
610.258	1	6
610.598	1	4
610.937	1	-3
611.277	1	0
611.616	1	4
611.955	1	13
612.295	1	8
612.634	1	8
612.974	1	-2
613.313	1	4
613.652	1	8
613.992	1	2
614.331	1	5
614.671	1	12
615.010	1	7
615.349	1	7
615.689	1	12
616.028	1	5
616.368	1	3
616.707	1	15
617.046	1	5
617.386	1	5
617.725	1	5
618.064	1	-2
618.404	1	7
618.743	1	12
619.082	1	5
619.422	1	6
619.761	1	-1
620.100	1	5
620.440	1	2
620.779	1	0
621.118	1	-7
621.458	1	-1
621.797	1	7
622.136	1	6
622.476	1	-3
622.815	1	-3
623.154	1	-1
623.494	1	0
623.833	1	2
624.172	1	-3
624.511	1	5
624.851	1	4
625.190	1	14
625.529	1	6
625.869	1	8
626.208	1	8
626.547	1	2
626.886	1	0
627.226	1	2
627.565	1	7
627.904	1	6
628.243	1	-7
628.583	1	-4
628.922	1	-7
629.261	1	2
629.600	1	2
629.940	1	0
630.279	1	1
630.618	1	0
630.957	1	1
631.297	1	-2
631.636	1	13
631.975	1	-7
632.314	1	4
632.653	1	8
632.993	1	-1
633.332	1	5
633.671	1	11
634.010	1	4
634.349	1	-4
634.689	1	5
635.028	1	-1
635.367	1	8
635.706	1	9
636.045	1	6
636.384	1	-3
636.724	1	14
637.063	1	11
637.402	1	10
637.741	1	3
638.080	1	12
638.419	1	1
638.759	1	6
639.098	1	-4
639.437	1	-9
639.776	1	-2
640.115	1	18
640.454	1	3
640.793	1	-1
641.132	1	12
641.472	1	-3
641.811	1	18
642.150	1	2
642.489	1	-1
642.828	1	2
643.167	1	4
643.506	1	5
643.845	1	2
644.184	1	12
644.524	1	6
644.863	1	-12
645.202	1	2
645.541	1	8
645.880	1	6
646.219	1	2
646.558	1	4
646.897	1	1
647.236	1	-5
647.575	1	0
647.914	1	7
648.253	1	-2
648.592	1	8
648.931	1	7
649.270	1	-1
649.610	1	4
649.949	1	-3
650.288	1	6
650.627	1	-3
650.966	1	7
651.305	1	-5
651.644	1	8
651.983	1	12
652.322	1	3
652.661	1	8
653.000	1	0
653.339	1	-2
653.678	1	13
654.017	1	9
654.356	1	0
654.695	1	15
655.034	1	-1
655.373	1	10
655.712	1	-1
656.051	1	-4
656.390	1	-2
656.729	1	2
657.068	1	6
657.406	1	2
657.745	1	12
658.084	1	-4
658.423	1	4
658.762	1	-2
659.101	1	-4
659.440	1	5
659.779	1	6
660.118	1	2
660.457	1	10
660.796	1	-2
661.135	1	-8
661.474	1	0
661.813	1	-2
662.152	1	-1
662.491	1	-1
662.829	1	-5
663.168	1	3
663.507	1	7
663.846	1	-2
664.185	1	10
664.524	1	-1
664.863	1	5
665.202	1	23
665.541	1	-1
665.879	1	-1
666.218	1	9
666.557	1	3
666.896	1	1
667.235	1	-2
667.574	1	-6
667.913	1	6
668.251	1	14
668.590	1	-1
668.929	1	5
669.268	1	0
669.607	1	3
669.946	1	-3
670.285	1	19
670.623	1	5
670.962	1	-7
671.301	1	2
671.640	1	5
671.979	1	2
672.317	1	3
672.656	1	7
672.995	1	-6
673.334	1	-5
673.673	1	8
674.011	1	9
674.350	1	7
674.689	1	1
675.028	1	6
675.367	1	-4
675.705	1	10
676.044	1	17
676.383	1	4
676.722	1	15
677.060	1	-15
677.399	1	3
677.738	1	6
678.077	1	12
678.416	1	-1
678.754	1	4
679.093	1	7
679.432	1	1
679.771	1	10
680.109	1	-5
680.448	1	6
680.787	1	-5
681.125	1	7
681.464	1	8
681.803	1	5
682.142	1	-2
682.480	1	0
682.819	1	16
683.158	1	-1
683.496	1	12
683.835	1	-6
684.174	1	4
684.512	1	4
684.851	1	3
685.190	1	8
685.529	1	11
685.867	1	6
686.206	1	7
686.545	1	9
686.883	1	-1
687.222	1	-3
687.561	1	0
687.899	1	-9
688.238	1	-2
688.577	1	12
688.746	1	-6