File: Data/GaN_170K_550ms/GaN_sample D_spot 18_UVVIS_170 K_200um_550 ms 2x2mm1_253.txt
340.368	1	0
340.710	1	-11
341.052	1	3
341.394	1	-2
341.737	1	-4
342.079	1	3
342.421	1	8
342.763	1	1
343.105	1	8
343.447	1	-2
343.789	1	1
344.131	1	3
344.473	1	4
344.815	1	9
345.157	1	-12
345.499	1	-2
345.841	1	1
346.183	1	6
346.526	1	4
346.868	1	6
347.210	1	-8
347.552	1	13
347.894	1	7
348.236	1	-6
348.578	1	6
348.920	1	2
349.262	1	3
349.604	1	13
349.946	1	11
350.288	1	0
350.630	1	6
350.972	1	-2
351.314	1	2
351.656	1	-4
351.998	1	-3
352.340	1	-2
352.682	1	0
353.024	1	1
353.366	1	4
353.708	1	8
354.050	1	-11
354.392	1	-2
354.734	1	6
355.076	1	-3
355.418	1	0
355.760	1	-2
356.102	1	-3
356.444	1	0
356.785	1	2
357.127	1	4
357.469	1	1
357.811	1	-1
358.153	1	6
358.495	1	-4
358.837	1	10
359.179	1	-5
359.521	1	6
359.863	1	0
360.205	1	11
360.547	1	3
360.889	1	13
361.231	1	5
361.572	1	8
361.914	1	4
362.256	1	-1
362.598	1	13
362.940	1	16
363.282	1	16
363.624	1	12
363.966	1	9
364.308	1	13
364.649	1	4
364.991	1	7
365.333	1	2
365.675	1	16
366.017	1	13
366.359	1	2
366.701	1	4
367.042	1	3
367.384	1	19
367.726	1	12
368.068	1	10
368.410	1	22
368.752	1	15
369.093	1	-3
369.435	1	6
369.777	1	18
370.119	1	14
370.461	1	12
370.803	1	8
371.144	1	18
371.486	1	2
371.828	1	2
372.170	1	16
372.512	1	8
372.853	1	17
373.195	1	22
373.537	1	21
373.879	1	14
374.220	1	9
374.562	1	1
374.904	1	3
375.246	1	7
375.588	1	-1
375.929	1	3
376.271	1	14
376.613	1	7
376.955	1	8
377.296	1	17
377.638	1	6
377.980	1	-4
378.321	1	5
378.663	1	4
379.005	1	-1
379.347	1	9
379.688	1	3
380.030	1	9
380.372	1	6
380.714	1	12
381.055	1	12
381.397	1	6
381.739	1	-3
382.080	1	8
382.422	1	8
382.764	1	2
383.105	1	10
383.447	1	13
383.789	1	11
384.130	1	1
384.472	1	-2
384.814	1	9
385.156	1	12
385.497	1	10
385.839	1	1
386.180	1	5
386.522	1	6
386.864	1	10
387.205	1	1
387.547	1	9
387.889	1	9
388.230	1	1
388.572	1	1
388.914	1	-6
389.255	1	11
389.597	1	2
389.939	1	2
390.280	1	5
390.622	1	-6
390.963	1	7
391.305	1	-1
391.647	1	-2
391.988	1	4
392.330	1	7
392.671	1	-4
393.013	1	-8
393.355	1	0
393.696	1	11
394.038	1	-1
394.379	1	-7
394.721	1	2
395.062	1	-6
395.404	1	8
395.746	1	1
396.087	1	7
396.429	1	15
396.770	1	4
397.112	1	0
397.453	1	3
397.795	1	0
398.136	1	-1
398.478	1	-1
398.819	1	5
399.161	1	0
399.503	1	5
399.844	1	-9
400.186	1	1
400.527	1	7
400.869	1	-3
401.210	1	-3
401.552	1	1
401.893	1	7
402.235	1	13
402.576	1	6
402.918	1	-3
403.259	1	1
403.601	1	15
403.942	1	-1
404.284	1	-14
404.625	1	5
404.967	1	1
405.308	1	3
405.649	1	2
405.991	1	5
406.332	1	-1
406.674	1	7
407.015	1	4
407.357	1	-10
407.698	1	6
408.040	1	-1
408.381	1	3
408.722	1	-5
409.064	1	-11
409.405	1	1
409.747	1	2
410.088	1	4
410.430	1	-4
410.771	1	2
411.112	1	-1
411.454	1	8
411.795	1	3
412.137	1	0
412.478	1	8
412.819	1	-8
413.161	1	7
413.502	1	3
413.844	1	12
414.185	1	-1
414.526	1	-3
414.868	1	-7
415.209	1	-11
415.550	1	-4
415.892	1	-2
416.233	1	2
416.575	1	-4
416.916	1	-2
417.257	1	-1
417.599	1	-6
417.940	1	3
418.281	1	-16
418.623	1	7
418.964	1	-1
419.305	1	3
419.647	1	3
419.988	1	-1
420.329	1	6
420.671	1	-5
421.012	1	6
421.353	1	7
421.695	1	-10
422.036	1	-2
422.377	1	7
422.718	1	7
423.060	1	-8
423.401	1	-8
423.742	1	-3
424.084	1	22
424.425	1	-2
424.766	1	-8
425.107	1	2
425.449	1	-1
425.790	1	2
426.131	1	7
426.472	1	-1
426.814	1	-10
427.155	1	6
427.496	1	-3
427.837	1	11
428.179	1	2
428.520	1	0
428.861	1	5
429.202	1	3
429.544	1	-6
429.885	1	2
430.226	1	5
430.567	1	-4
430.909	1	-4
431.250	1	6
431.591	1	-2
431.932	1	-14
432.273	1	1
432.615	1	4
432.956	1	7
433.297	1	-1
433.638	1	6
433.979	1	-2
434.320	1	7
434.662	1	-16
435.003	1	8
435.344	1	2
435.685	1	0
436.026	1	-2
436.368	1	0
436.709	1	0
437.050	1	2
437.391	1	-8
437.732	1	5
438.073	1	-6
438.414	1	-11
438.756	1	1
439.097	1	-3
439.438	1	-1
439.779	1	4
440.120	1	-10
440.461	1	8
440.802	1	6
441.143	1	-3
441.485	1	-7
441.826	1	7
442.167	1	3
442.508	1	-4
442.849	1	-1
443.190	1	1
443.531	1	2
443.872	1	-3
444.213	1	0
444.554	1	2
444.895	1	-2
445.237	1	-7
445.578	1	8
445.919	1	2
446.260	1	2
446.601	1	-8
446.942	1	6
447.283	1	0
447.624	1	-4
447.965	1	4
448.306	1	-4
448.647	1	0
448.988	1	7
449.329	1	0
449.670	1	-13
450.011	1	7
450.352	1	-11
450.693	1	-7
451.034	1	4
451.375	1	0
451.716	1	1
452.057	1	6
452.398	1	10
452.739	1	-4
453.080	1	1
453.421	1	2
453.762	1	-4
454.103	1	-1
454.444	1	-7
454.785	1	-3
455.126	1	2
455.467	1	-11
455.808	1	10
456.149	1	-2
456.490	1	7
456.831	1	0
457.172	1	-3
457.513	1	8
457.854	1	9
458.195	1	3
458.536	1	-4
458.877	1	6
459.218	1	2
459.559	1	0
459.899	1	0
460.240	1	-8
460.581	1	1
460.922	1	3
461.263	1	0
461.604	1	6
461.945	1	2
462.286	1	-11
462.627	1	8
462.968	1	15
463.309	1	16
463.649	1	1
463.990	1	3
464.331	1	3
464.672	1	4
465.013	1	7
465.354	1	-5
465.695	1	-3
466.036	1	-1
466.376	1	5
466.717	1	-1
467.058	1	4
467.399	1	6
467.740	1	-3
468.081	1	4
468.422	1	3
468.762	1	8
469.103	1	11
469.444	1	5
469.785	1	-7
470.126	1	4
470.467	1	8
470.807	1	-4
471.148	1	1
471.489	1	9
471.830	1	2
472.171	1	8
472.511	1	2
472.852	1	0
473.193	1	5
473.534	1	2
473.875	1	3
474.215	1	12
474.556	1	6
474.897	1	1
475.238	1	-1
475.578	1	8
475.919	1	3
476.260	1	6
476.601	1	5
476.942	1	1
477.282	1	3
477.623	1	13
477.964	1	-2
478.305	1	-8
478.645	1	7
478.986	1	-1
479.327	1	-3
479.667	1	-13
480.008	1	10
480.349	1	-2
480.690	1	3
481.030	1	8
481.371	1	4
481.712	1	-4
482.053	1	-3
482.393	1	-5
482.734	1	7
483.075	1	4
483.415	1	-2
483.756	1	-1
484.097	1	-9
484.437	1	-2
484.778	1	-8
485.119	1	9
485.459	1	11
485.800	1	-2
486.141	1	4
486.481	1	-11
486.822	1	7
487.163	1	6
487.503	1	2
487.844	1	9
488.185	1	6
488.525	1	9
488.866	1	9
489.207	1	14
489.547	1	11
489.888	1	-2
490.228	1	0
490.569	1	11
490.910	1	1
491.250	1	1
491.591	1	0
491.932	1	8
492.272	1	11
492.613	1	5
492.953	1	2
493.294	1	1
493.635	1	-4
493.975	1	3
494.316	1	0
494.656	1	1
494.997	1	-1
495.337	1	8
495.678	1	-3
496.019	1	-15
496.359	1	2
496.700	1	9
497.040	1	4
497.381	1	6
497.721	1	-1
498.062	1	-8
498.403	1	5
498.743	1	-1
499.084	1	4
499.424	1	7
499.765	1	-15
500.105	1	-4
500.446	1	-1
500.786	1	-2
501.127	1	11
501.467	1	1
501.808	1	-7
502.148	1	8
502.489	1	-4
502.829	1	4
503.170	1	12
503.510	1	8
503.851	1	2
504.191	1	-5
504.532	1	-15
504.872	1	6
505.213	1	4
505.553	1	2
505.894	1	11
506.234	1	-6
506.575	1	2
506.915	1	0
507.256	1	1
507.596	1	3
507.936	1	11
508.277	1	-7
508.617	1	3
508.958	1	-5
509.298	1	5
509.639	1	8
509.979	1	0
510.319	1	-7
510.660	1	-2
511.000	1	-6
511.341	1	11
511.681	1	0
512.022	1	9
512.362	1	-5
512.702	1	-1
513.043	1	1
513.383	1	-2
513.724	1	-1
514.064	1	5
514.404	1	-5
514.745	1	-2
515.085	1	4
515.425	1	7
515.766	1	-1
516.106	1	10
516.447	1	1
516.787	1	1
517.127	1	13
517.468	1	9
517.808	1	14
518.148	1	1
518.489	1	11
518.829	1	6
519.169	1	5
519.510	1	11
519.850	1	7
520.190	1	4
520.531	1	12
520.871	1	-1
521.211	1	-1
521.552	1	5
521.892	1	-7
522.232	1	-13
522.573	1	3
522.913	1	9
523.253	1	11
523.593	1	3
523.934	1	7
524.274	1	1
524.614	1	5
524.955	1	-6
525.295	1	7
525.635	1	-1
525.975	1	4
526.316	1	4
526.656	1	7
526.996	1	1
527.337	1	1
527.677	1	5
528.017	1	2
528.357	1	1
528.698	1	-13
529.038	1	10
529.378	1	-4
529.718	1	16
530.058	1	13
530.399	1	4
530.739	1	9
531.079	1	6
531.419	1	6
531.760	1	7
532.100	1	4
532.440	1	1
532.780	1	-5
533.120	1	6
533.461	1	3
533.801	1	3
534.141	1	-2
534.481	1	13
534.821	1	7
535.162	1	2
535.502	1	4
535.842	1	8
536.182	1	-1
536.522	1	15
536.862	1	8
537.203	1	14
537.543	1	-4
537.883	1	13
538.223	1	6
538.563	1	-1
538.903	1	0
539.243	1	-2
539.584	1	2
539.924	1	0
540.264	1	2
540.604	1	4
540.944	1	-3
541.284	1	1
541.624	1	7
541.964	1	7
542.305	1	-5
542.645	1	-4
542.985	1	9
543.325	1	2
543.665	1	7
544.005	1	9
544.345	1	8
544.685	1	5
545.025	1	3
545.365	1	4
545.705	1	5
546.045	1	4
546.386	1	12
546.726	1	-2
547.066	1	13
547.406	1	3
547.746	1	-3
548.086	1	3
548.426	1	4
548.766	1	-1
549.106	1	11
549.446	1	1
549.786	1	-12
550.126	1	11
550.466	1	0
550.806	1	4
551.146	1	11
551.486	1	-3
551.826	1	4
552.166	1	4
552.506	1	-2
552.846	1	-3
553.186	1	3
553.526	1	-1
553.866	1	1
554.206	1	7
554.546	1	-1
554.886	1	4
555.226	1	-10
555.566	1	3
555.906	1	-1
556.246	1	4
556.586	1	-3
556.926	1	7
557.266	1	8
557.606	1	4
557.946	1	1
558.286	1	3
558.626	1	11
558.966	1	11
559.306	1	20
559.646	1	3
559.986	1	-1
560.325	1	1
560.665	1	5
561.005	1	6
561.345	1	-3
561.685	1	5
562.025	1	-8
562.365	1	3
562.705	1	5
563.045	1	5
563.385	1	5
563.725	1	-2
564.064	1	5
564.404	1	-5
564.744	1	4
565.084	1	3
565.424	1	3
565.764	1	-7
566.104	1	-1
566.444	1	4
566.783	1	-3
567.123	1	0
567.463	1	3
567.803	1	3
568.143	1	-1
568.483	1	2
568.823	1	-2
569.162	1	2
569.502	1	-7
569.842	1	-8
570.182	1	-6
570.522	1	3
570.862	1	1
571.201	1	0
571.541	1	1
571.881	1	-2
572.221	1	7
572.561	1	7
572.900	1	0
573.240	1	15
573.580	1	1
573.920	1	8
574.260	1	7
574.599	1	-1
574.939	1	-3
575.279	1	4
575.619	1	13
575.959	1	-5
576.298	1	2
576.638	1	5
576.978	1	3
577.318	1	2
577.657	1	2
577.997	1	-6
578.337	1	3
578.677	1	-5
579.016	1	2
579.356	1	0
579.696	1	0
580.036	1	2
580.375	1	2
580.715	1	6
581.055	1	15
581.394	1	2
581.734	1	-1
582.074	1	-3
582.414	1	1
582.753	1	2
583.093	1	1
583.433	1	6
583.772	1	5
584.112	1	8
584.452	1	-6
584.791	1	2
585.131	1	9
585.471	1	14
585.811	1	-3
586.150	1	-5
586.490	1	5
586.830	1	-8
587.169	1	8
587.509	1	1
587.849	1	-1
588.188	1	0
588.528	1	-3
588.867	1	-1
589.207	1	9
589.547	1	8
589.886	1	-2
590.226	1	5
590.566	1	4
590.905	1	6
591.245	1	2
591.585	1	-5
591.924	1	1
592.264	1	-9
592.603	1	3
592.943	1	-3
593.283	1	12
593.622	1	-9
593.962	1	5
594.301	1	10
594.641	1	11
594.981	1	18
595.320	1	5
595.660	1	6
595.999	1	-1
596.339	1	6
596.678	1	-8
597.018	1	-1
597.358	1	-14
597.697	1	3
598.037	1	6
598.376	1	-5
598.716	1	0
599.055	1	0
599.395	1	-5
599.734	1	2
600.074	1	-3
600.413	1	-1
600.753	1	5
601.092	1	1
601.432	1	1
601.771	1	1
602.111	1	3
602.451	1	7
602.790	1	10
603.130	1	-8
603.469	1	-4
603.809	1	8
604.148	1	5
604.487	1	10
604.827	1	-12
605.166	1	11
605.506	1	0
605.845	1	2
606.185	1	8
606.524	1	-3
606.864	1	8
607.203	1	3
607.543	1	6
607.882	1	-5
608.222	1	-2
608.561	1	-2
608.901	1	3
609.240	1	4
609.579	1	2
609.919	1	3
610.258	1	3
610.598	1	3
610.937	1	-3
611.277	1	7
611.616	1	-3
611.955	1	12
612.295	1	-2
612.634	1	-2
612.974	1	6
613.313	1	-7
613.652	1	19
613.992	1	1
614.331	1	3
614.671	1	11
615.010	1	11
615.349	1	-1
615.689	1	7
616.028	1	-4
616.368	1	-4
616.707	1	14
617.046	1	9
617.386	1	-2
617.725	1	3
618.064	1	-1
618.404	1	-4
618.743	1	4
619.082	1	16
619.422	1	-4
619.761	1	-2
620.100	1	-3
620.440	1	6
620.779	1	-3
621.118	1	-1
621.458	1	0
621.797	1	4
622.136	1	5
622.476	1	-9
622.815	1	5
623.154	1	2
623.494	1	1
623.833	1	6
624.172	1	-1
624.511	1	2
624.851	1	10
625.190	1	3
625.529	1	6
625.869	1	9
626.208	1	5
626.547	1	0
626.886	1	4
627.226	1	6
627.565	1	9
627.904	1	1
628.243	1	-7
628.583	1	-8
628.922	1	-2
629.261	1	4
629.600	1	2
629.940	1	-2
630.279	1	-7
630.618	1	-10
630.957	1	6
631.297	1	2
631.636	1	15
631.975	1	-10
632.314	1	0
632.653	1	7
632.993	1	-10
633.332	1	2
633.671	1	0
634.010	1	5
634.349	1	-18
634.689	1	13
635.028	1	-3
635.367	1	-2
635.706	1	-2
636.045	1	4
636.384	1	-10
636.724	1	9
637.063	1	4
637.402	1	13
637.741	1	-3
638.080	1	7
638.419	1	-7
638.759	1	2
639.098	1	-4
639.437	1	-7
639.776	1	0
640.115	1	2
640.454	1	-3
640.793	1	0
641.132	1	8
641.472	1	-8
641.811	1	16
642.150	1	1
642.489	1	-8
642.828	1	-3
643.167	1	-2
643.506	1	8
643.845	1	6
644.184	1	4
644.524	1	-4
644.863	1	-14
645.202	1	15
645.541	1	-3
645.880	1	7
646.219	1	-3
646.558	1	11
646.897	1	5
647.236	1	5
647.575	1	-5
647.914	1	4
648.253	1	2
648.592	1	4
648.931	1	11
649.270	1	-1
649.610	1	10
649.949	1	-3
650.288	1	9
650.627	1	-1
650.966	1	6
651.305	1	1
651.644	1	11
651.983	1	4
652.322	1	-2
652.661	1	6
653.000	1	-2
653.339	1	-3
653.678	1	-1
654.017	1	3
654.356	1	-11
654.695	1	4
655.034	1	-1
655.373	1	10
655.712	1	-5
656.051	1	1
656.390	1	-5
656.729	1	4
657.068	1	7
657.406	1	-9
657.745	1	0
658.084	1	0
658.423	1	8
658.762	1	5
659.101	1	0
659.440	1	0
659.779	1	0
660.118	1	-3
660.457	1	4
660.796	1	-6
661.135	1	-15
661.474	1	4
661.813	1	1
662.152	1	6
662.491	1	-11
662.829	1	1
663.168	1	9
663.507	1	-3
663.846	1	-5
664.185	1	6
664.524	1	-3
664.863	1	-4
665.202	1	12
665.541	1	2
665.879	1	4
666.218	1	12
666.557	1	2
666.896	1	0
667.235	1	4
667.574	1	-3
667.913	1	1
668.251	1	-8
668.590	1	3
668.929	1	3
669.268	1	-1
669.607	1	-2
669.946	1	4
670.285	1	16
670.623	1	0
670.962	1	7
671.301	1	0
671.640	1	10
671.979	1	2
672.317	1	5
672.656	1	0
672.995	1	-5
673.334	1	-1
673.673	1	1
674.011	1	1
674.350	1	0
674.689	1	3
675.028	1	-10
675.367	1	-2
675.705	1	7
676.044	1	17
676.383	1	4
676.722	1	6
677.060	1	-5
677.399	1	3
677.738	1	-6
678.077	1	6
678.416	1	-4
678.754	1	5
679.093	1	3
679.432	1	11
679.771	1	-3
680.109	1	5
680.448	1	-1
680.787	1	-6
681.125	1	8
681.464	1	2
681.803	1	9
682.142	1	-5
682.480	1	6
682.819	1	13
683.158	1	1
683.496	1	0
683.835	1	-3
684.174	1	-6
684.512	1	1
684.851	1	-5
685.190	1	2
685.529	1	9
685.867	1	13
686.206	1	6
686.545	1	12
686.883	1	-5
687.222	1	-1
687.561	1	-4
687.899	1	2
688.238	1	-3
688.577	1	7
688.746	1	-3