File: Data/GaN_170K_550ms/GaN_sample D_spot 18_UVVIS_170 K_200um_550 ms 2x2mm1_103.txt
340.368	1	6
340.710	1	-8
341.052	1	4
341.394	1	7
341.737	1	-6
342.079	1	5
342.421	1	8
342.763	1	-2
343.105	1	13
343.447	1	2
343.789	1	10
344.131	1	3
344.473	1	4
344.815	1	5
345.157	1	5
345.499	1	-1
345.841	1	7
346.183	1	5
346.526	1	6
346.868	1	10
347.210	1	-10
347.552	1	9
347.894	1	3
348.236	1	4
348.578	1	10
348.920	1	-1
349.262	1	4
349.604	1	14
349.946	1	7
350.288	1	5
350.630	1	7
350.972	1	-3
351.314	1	8
351.656	1	5
351.998	1	9
352.340	1	12
352.682	1	5
353.024	1	3
353.366	1	5
353.708	1	18
354.050	1	-2
354.392	1	6
354.734	1	11
355.076	1	10
355.418	1	-5
355.760	1	2
356.102	1	12
356.444	1	8
356.785	1	11
357.127	1	8
357.469	1	5
357.811	1	11
358.153	1	10
358.495	1	12
358.837	1	17
359.179	1	13
359.521	1	20
359.863	1	17
360.205	1	22
360.547	1	33
360.889	1	22
361.231	1	25
361.572	1	31
361.914	1	32
362.256	1	35
362.598	1	33
362.940	1	47
363.282	1	46
363.624	1	44
363.966	1	50
364.308	1	46
364.649	1	46
364.991	1	58
365.333	1	60
365.675	1	59
366.017	1	63
366.359	1	66
366.701	1	76
367.042	1	79
367.384	1	93
367.726	1	87
368.068	1	87
368.410	1	89
368.752	1	92
369.093	1	73
369.435	1	88
369.777	1	78
370.119	1	86
370.461	1	81
370.803	1	73
371.144	1	71
371.486	1	59
371.828	1	63
372.170	1	59
372.512	1	58
372.853	1	61
373.195	1	65
373.537	1	73
373.879	1	55
374.220	1	60
374.562	1	46
374.904	1	42
375.246	1	54
375.588	1	46
375.929	1	47
376.271	1	41
376.613	1	31
376.955	1	42
377.296	1	39
377.638	1	33
377.980	1	23
378.321	1	22
378.663	1	31
379.005	1	24
379.347	1	33
379.688	1	32
380.030	1	25
380.372	1	22
380.714	1	32
381.055	1	17
381.397	1	21
381.739	1	11
382.080	1	10
382.422	1	14
382.764	1	19
383.105	1	22
383.447	1	23
383.789	1	27
384.130	1	16
384.472	1	5
384.814	1	17
385.156	1	12
385.497	1	20
385.839	1	4
386.180	1	22
386.522	1	13
386.864	1	13
387.205	1	8
387.547	1	12
387.889	1	20
388.230	1	9
388.572	1	17
388.914	1	11
389.255	1	16
389.597	1	7
389.939	1	5
390.280	1	7
390.622	1	6
390.963	1	6
391.305	1	9
391.647	1	-2
391.988	1	16
392.330	1	11
392.671	1	-2
393.013	1	3
393.355	1	8
393.696	1	19
394.038	1	-3
394.379	1	-3
394.721	1	-1
395.062	1	4
395.404	1	14
395.746	1	6
396.087	1	15
396.429	1	14
396.770	1	19
397.112	1	-5
397.453	1	3
397.795	1	1
398.136	1	-1
398.478	1	7
398.819	1	10
399.161	1	-6
399.503	1	10
399.844	1	0
400.186	1	1
400.527	1	8
400.869	1	10
401.210	1	10
401.552	1	6
401.893	1	13
402.235	1	13
402.576	1	-2
402.918	1	-1
403.259	1	15
403.601	1	12
403.942	1	4
404.284	1	-2
404.625	1	7
404.967	1	2
405.308	1	4
405.649	1	13
405.991	1	8
406.332	1	-9
406.674	1	12
407.015	1	8
407.357	1	2
407.698	1	8
408.040	1	10
408.381	1	15
408.722	1	-3
409.064	1	2
409.405	1	4
409.747	1	4
410.088	1	10
410.430	1	3
410.771	1	5
411.112	1	8
411.454	1	2
411.795	1	3
412.137	1	7
412.478	1	-6
412.819	1	-2
413.161	1	16
413.502	1	4
413.844	1	5
414.185	1	2
414.526	1	7
414.868	1	-1
415.209	1	-11
415.550	1	-1
415.892	1	5
416.233	1	9
416.575	1	-3
416.916	1	10
417.257	1	-3
417.599	1	1
417.940	1	-6
418.281	1	-4
418.623	1	5
418.964	1	-1
419.305	1	8
419.647	1	3
419.988	1	3
420.329	1	0
420.671	1	-2
421.012	1	6
421.353	1	2
421.695	1	-2
422.036	1	1
422.377	1	12
422.718	1	13
423.060	1	0
423.401	1	4
423.742	1	1
424.084	1	19
424.425	1	-13
424.766	1	-1
425.107	1	6
425.449	1	1
425.790	1	3
426.131	1	8
426.472	1	8
426.814	1	-7
427.155	1	12
427.496	1	0
427.837	1	-4
428.179	1	4
428.520	1	3
428.861	1	0
429.202	1	2
429.544	1	-4
429.885	1	3
430.226	1	10
430.567	1	12
430.909	1	0
431.250	1	17
431.591	1	4
431.932	1	-5
432.273	1	-1
432.615	1	-1
432.956	1	14
433.297	1	-7
433.638	1	0
433.979	1	-5
434.320	1	12
434.662	1	-9
435.003	1	7
435.344	1	2
435.685	1	4
436.026	1	-5
436.368	1	11
436.709	1	6
437.050	1	-6
437.391	1	-7
437.732	1	2
438.073	1	-4
438.414	1	-2
438.756	1	2
439.097	1	3
439.438	1	6
439.779	1	8
440.120	1	0
440.461	1	10
440.802	1	13
441.143	1	-1
441.485	1	0
441.826	1	5
442.167	1	1
442.508	1	4
442.849	1	-8
443.190	1	1
443.531	1	9
443.872	1	3
444.213	1	3
444.554	1	14
444.895	1	-11
445.237	1	2
445.578	1	6
445.919	1	7
446.260	1	15
446.601	1	0
446.942	1	6
447.283	1	5
447.624	1	2
447.965	1	3
448.306	1	0
448.647	1	7
448.988	1	13
449.329	1	2
449.670	1	-16
450.011	1	14
450.352	1	-6
450.693	1	-2
451.034	1	2
451.375	1	6
451.716	1	4
452.057	1	-2
452.398	1	6
452.739	1	6
453.080	1	4
453.421	1	2
453.762	1	6
454.103	1	1
454.444	1	4
454.785	1	-1
455.126	1	6
455.467	1	-6
455.808	1	7
456.149	1	6
456.490	1	3
456.831	1	-9
457.172	1	4
457.513	1	3
457.854	1	16
458.195	1	-3
458.536	1	7
458.877	1	4
459.218	1	-6
459.559	1	3
459.899	1	4
460.240	1	10
460.581	1	7
460.922	1	-3
461.263	1	-1
461.604	1	13
461.945	1	2
462.286	1	4
462.627	1	9
462.968	1	9
463.309	1	15
463.649	1	7
463.990	1	-7
464.331	1	-1
464.672	1	-3
465.013	1	9
465.354	1	2
465.695	1	14
466.036	1	-7
466.376	1	9
466.717	1	-6
467.058	1	8
467.399	1	10
467.740	1	-6
468.081	1	1
468.422	1	5
468.762	1	12
469.103	1	2
469.444	1	-1
469.785	1	-2
470.126	1	4
470.467	1	0
470.807	1	3
471.148	1	-9
471.489	1	1
471.830	1	0
472.171	1	10
472.511	1	0
472.852	1	0
473.193	1	2
473.534	1	3
473.875	1	0
474.215	1	-2
474.556	1	2
474.897	1	8
475.238	1	2
475.578	1	4
475.919	1	9
476.260	1	12
476.601	1	4
476.942	1	-2
477.282	1	10
477.623	1	7
477.964	1	6
478.305	1	-2
478.645	1	4
478.986	1	-8
479.327	1	-6
479.667	1	-1
480.008	1	3
480.349	1	5
480.690	1	13
481.030	1	7
481.371	1	-1
481.712	1	3
482.053	1	-5
482.393	1	-5
482.734	1	2
483.075	1	-2
483.415	1	3
483.756	1	12
484.097	1	-11
484.437	1	1
484.778	1	-7
485.119	1	16
485.459	1	-1
485.800	1	0
486.141	1	15
486.481	1	5
486.822	1	10
487.163	1	11
487.503	1	1
487.844	1	10
488.185	1	-2
488.525	1	20
488.866	1	9
489.207	1	14
489.547	1	16
489.888	1	2
490.228	1	5
490.569	1	5
490.910	1	3
491.250	1	12
491.591	1	12
491.932	1	12
492.272	1	15
492.613	1	6
492.953	1	8
493.294	1	5
493.635	1	-3
493.975	1	7
494.316	1	7
494.656	1	10
494.997	1	8
495.337	1	14
495.678	1	8
496.019	1	-1
496.359	1	8
496.700	1	13
497.040	1	10
497.381	1	4
497.721	1	-3
498.062	1	15
498.403	1	11
498.743	1	0
499.084	1	5
499.424	1	19
499.765	1	-1
500.105	1	-1
500.446	1	15
500.786	1	2
501.127	1	8
501.467	1	6
501.808	1	8
502.148	1	15
502.489	1	9
502.829	1	18
503.170	1	14
503.510	1	21
503.851	1	9
504.191	1	7
504.532	1	-8
504.872	1	10
505.213	1	8
505.553	1	14
505.894	1	23
506.234	1	3
506.575	1	10
506.915	1	19
507.256	1	7
507.596	1	18
507.936	1	23
508.277	1	9
508.617	1	21
508.958	1	4
509.298	1	1
509.639	1	18
509.979	1	8
510.319	1	4
510.660	1	8
511.000	1	17
511.341	1	21
511.681	1	8
512.022	1	13
512.362	1	10
512.702	1	8
513.043	1	9
513.383	1	9
513.724	1	9
514.064	1	22
514.404	1	6
514.745	1	2
515.085	1	18
515.425	1	3
515.766	1	8
516.106	1	11
516.447	1	15
516.787	1	9
517.127	1	16
517.468	1	11
517.808	1	23
518.148	1	8
518.489	1	23
518.829	1	16
519.169	1	11
519.510	1	20
519.850	1	11
520.190	1	12
520.531	1	20
520.871	1	10
521.211	1	11
521.552	1	12
521.892	1	10
522.232	1	4
522.573	1	20
522.913	1	17
523.253	1	22
523.593	1	11
523.934	1	13
524.274	1	12
524.614	1	13
524.955	1	-1
525.295	1	16
525.635	1	16
525.975	1	8
526.316	1	19
526.656	1	22
526.996	1	15
527.337	1	8
527.677	1	10
528.017	1	14
528.357	1	12
528.698	1	-1
529.038	1	9
529.378	1	8
529.718	1	22
530.058	1	15
530.399	1	14
530.739	1	15
531.079	1	15
531.419	1	31
531.760	1	11
532.100	1	22
532.440	1	10
532.780	1	8
533.120	1	8
533.461	1	22
533.801	1	18
534.141	1	10
534.481	1	24
534.821	1	18
535.162	1	18
535.502	1	13
535.842	1	15
536.182	1	5
536.522	1	20
536.862	1	23
537.203	1	15
537.543	1	13
537.883	1	17
538.223	1	18
538.563	1	11
538.903	1	10
539.243	1	12
539.584	1	14
539.924	1	13
540.264	1	25
540.604	1	6
540.944	1	8
541.284	1	12
541.624	1	9
541.964	1	15
542.305	1	6
542.645	1	9
542.985	1	14
543.325	1	14
543.665	1	10
544.005	1	23
544.345	1	20
544.685	1	13
545.025	1	12
545.365	1	2
545.705	1	13
546.045	1	8
546.386	1	12
546.726	1	10
547.066	1	22
547.406	1	12
547.746	1	3
548.086	1	18
548.426	1	16
548.766	1	1
549.106	1	25
549.446	1	15
549.786	1	3
550.126	1	7
550.466	1	5
550.806	1	12
551.146	1	16
551.486	1	10
551.826	1	13
552.166	1	19
552.506	1	16
552.846	1	5
553.186	1	9
553.526	1	3
553.866	1	6
554.206	1	16
554.546	1	0
554.886	1	2
555.226	1	-1
555.566	1	18
555.906	1	2
556.246	1	4
556.586	1	4
556.926	1	17
557.266	1	22
557.606	1	15
557.946	1	10
558.286	1	2
558.626	1	16
558.966	1	12
559.306	1	18
559.646	1	2
559.986	1	15
560.325	1	5
560.665	1	17
561.005	1	13
561.345	1	6
561.685	1	11
562.025	1	3
562.365	1	9
562.705	1	14
563.045	1	4
563.385	1	16
563.725	1	1
564.064	1	9
564.404	1	13
564.744	1	17
565.084	1	12
565.424	1	4
565.764	1	7
566.104	1	7
566.444	1	8
566.783	1	14
567.123	1	9
567.463	1	8
567.803	1	11
568.143	1	5
568.483	1	6
568.823	1	5
569.162	1	9
569.502	1	14
569.842	1	-5
570.182	1	4
570.522	1	3
570.862	1	14
571.201	1	3
571.541	1	5
571.881	1	3
572.221	1	12
572.561	1	11
572.900	1	12
573.240	1	4
573.580	1	6
573.920	1	11
574.260	1	11
574.599	1	4
574.939	1	6
575.279	1	3
575.619	1	14
575.959	1	-2
576.298	1	13
576.638	1	9
576.978	1	7
577.318	1	4
577.657	1	7
577.997	1	-8
578.337	1	8
578.677	1	3
579.016	1	13
579.356	1	5
579.696	1	-2
580.036	1	6
580.375	1	8
580.715	1	8
581.055	1	14
581.394	1	11
581.734	1	6
582.074	1	1
582.414	1	11
582.753	1	4
583.093	1	8
583.433	1	5
583.772	1	5
584.112	1	7
584.452	1	8
584.791	1	10
585.131	1	18
585.471	1	16
585.811	1	-3
586.150	1	-3
586.490	1	10
586.830	1	-2
587.169	1	19
587.509	1	8
587.849	1	8
588.188	1	2
588.528	1	6
588.867	1	1
589.207	1	6
589.547	1	14
589.886	1	2
590.226	1	4
590.566	1	14
590.905	1	8
591.245	1	5
591.585	1	-1
591.924	1	5
592.264	1	-2
592.603	1	3
592.943	1	2
593.283	1	9
593.622	1	-9
593.962	1	8
594.301	1	12
594.641	1	5
594.981	1	2
595.320	1	9
595.660	1	7
595.999	1	9
596.339	1	9
596.678	1	-11
597.018	1	7
597.358	1	0
597.697	1	6
598.037	1	4
598.376	1	3
598.716	1	0
599.055	1	4
599.395	1	2
599.734	1	10
600.074	1	8
600.413	1	-2
600.753	1	7
601.092	1	4
601.432	1	2
601.771	1	13
602.111	1	3
602.451	1	15
602.790	1	19
603.130	1	7
603.469	1	8
603.809	1	8
604.148	1	10
604.487	1	8
604.827	1	-8
605.166	1	14
605.506	1	-3
605.845	1	14
606.185	1	13
606.524	1	-3
606.864	1	-6
607.203	1	15
607.543	1	18
607.882	1	1
608.222	1	2
608.561	1	7
608.901	1	4
609.240	1	-1
609.579	1	14
609.919	1	5
610.258	1	3
610.598	1	12
610.937	1	-1
611.277	1	3
611.616	1	4
611.955	1	6
612.295	1	-1
612.634	1	1
612.974	1	3
613.313	1	5
613.652	1	11
613.992	1	6
614.331	1	7
614.671	1	6
615.010	1	6
615.349	1	12
615.689	1	14
616.028	1	4
616.368	1	6
616.707	1	8
617.046	1	-4
617.386	1	6
617.725	1	4
618.064	1	1
618.404	1	2
618.743	1	6
619.082	1	13
619.422	1	3
619.761	1	-8
620.100	1	1
620.440	1	11
620.779	1	7
621.118	1	7
621.458	1	7
621.797	1	2
622.136	1	10
622.476	1	2
622.815	1	4
623.154	1	7
623.494	1	-12
623.833	1	10
624.172	1	-2
624.511	1	5
624.851	1	4
625.190	1	6
625.529	1	14
625.869	1	10
626.208	1	5
626.547	1	6
626.886	1	4
627.226	1	13
627.565	1	1
627.904	1	2
628.243	1	0
628.583	1	3
628.922	1	-2
629.261	1	6
629.600	1	2
629.940	1	-2
630.279	1	-2
630.618	1	-2
630.957	1	2
631.297	1	2
631.636	1	11
631.975	1	-6
632.314	1	4
632.653	1	13
632.993	1	4
633.332	1	2
633.671	1	12
634.010	1	5
634.349	1	2
634.689	1	14
635.028	1	2
635.367	1	-5
635.706	1	9
636.045	1	9
636.384	1	-6
636.724	1	9
637.063	1	-3
637.402	1	14
637.741	1	-1
638.080	1	4
638.419	1	-6
638.759	1	8
639.098	1	-4
639.437	1	1
639.776	1	-9
640.115	1	4
640.454	1	2
640.793	1	-2
641.132	1	3
641.472	1	-8
641.811	1	6
642.150	1	2
642.489	1	0
642.828	1	1
643.167	1	-3
643.506	1	9
643.845	1	13
644.184	1	14
644.524	1	6
644.863	1	4
645.202	1	16
645.541	1	2
645.880	1	9
646.219	1	2
646.558	1	5
646.897	1	6
647.236	1	0
647.575	1	3
647.914	1	9
648.253	1	1
648.592	1	8
648.931	1	11
649.270	1	3
649.610	1	5
649.949	1	3
650.288	1	0
650.627	1	0
650.966	1	7
651.305	1	-3
651.644	1	4
651.983	1	6
652.322	1	-4
652.661	1	3
653.000	1	-8
653.339	1	-5
653.678	1	9
654.017	1	9
654.356	1	-4
654.695	1	4
655.034	1	-3
655.373	1	5
655.712	1	-6
656.051	1	8
656.390	1	1
656.729	1	0
657.068	1	9
657.406	1	13
657.745	1	8
658.084	1	-9
658.423	1	3
658.762	1	-1
659.101	1	1
659.440	1	3
659.779	1	4
660.118	1	6
660.457	1	14
660.796	1	-6
661.135	1	-6
661.474	1	10
661.813	1	2
662.152	1	-1
662.491	1	-8
662.829	1	0
663.168	1	0
663.507	1	-3
663.846	1	-8
664.185	1	9
664.524	1	2
664.863	1	3
665.202	1	7
665.541	1	3
665.879	1	7
666.218	1	11
666.557	1	5
666.896	1	4
667.235	1	2
667.574	1	-5
667.913	1	-1
668.251	1	4
668.590	1	8
668.929	1	1
669.268	1	0
669.607	1	5
669.946	1	2
670.285	1	17
670.623	1	6
670.962	1	7
671.301	1	1
671.640	1	7
671.979	1	12
672.317	1	9
672.656	1	1
672.995	1	3
673.334	1	0
673.673	1	8
674.011	1	13
674.350	1	6
674.689	1	-2
675.028	1	-5
675.367	1	1
675.705	1	1
676.044	1	18
676.383	1	4
676.722	1	15
677.060	1	-1
677.399	1	-3
677.738	1	9
678.077	1	12
678.416	1	3
678.754	1	-1
679.093	1	3
679.432	1	8
679.771	1	-5
680.109	1	5
680.448	1	11
680.787	1	0
681.125	1	8
681.464	1	8
681.803	1	12
682.142	1	-5
682.480	1	3
682.819	1	4
683.158	1	5
683.496	1	11
683.835	1	3
684.174	1	-1
684.512	1	0
684.851	1	3
685.190	1	1
685.529	1	13
685.867	1	4
686.206	1	10
686.545	1	11
686.883	1	9
687.222	1	4
687.561	1	2
687.899	1	2
688.238	1	1
688.577	1	18
688.746	1	0