File: Data/GaN_170K_550ms/GaN_sample D_spot 18_UVVIS_170 K_200um_550 ms 2x2mm1_192.txt
340.368	1	0
340.710	1	-9
341.052	1	5
341.394	1	5
341.737	1	1
342.079	1	-4
342.421	1	14
342.763	1	1
343.105	1	9
343.447	1	-4
343.789	1	8
344.131	1	-1
344.473	1	-4
344.815	1	10
345.157	1	-2
345.499	1	-5
345.841	1	8
346.183	1	5
346.526	1	8
346.868	1	6
347.210	1	-3
347.552	1	14
347.894	1	-2
348.236	1	1
348.578	1	10
348.920	1	5
349.262	1	5
349.604	1	14
349.946	1	5
350.288	1	-1
350.630	1	9
350.972	1	1
351.314	1	5
351.656	1	0
351.998	1	8
352.340	1	-1
352.682	1	-5
353.024	1	0
353.366	1	6
353.708	1	7
354.050	1	-2
354.392	1	-2
354.734	1	13
355.076	1	-9
355.418	1	-6
355.760	1	0
356.102	1	2
356.444	1	5
356.785	1	-1
357.127	1	3
357.469	1	4
357.811	1	5
358.153	1	8
358.495	1	1
358.837	1	1
359.179	1	0
359.521	1	9
359.863	1	13
360.205	1	25
360.547	1	14
360.889	1	15
361.231	1	7
361.572	1	10
361.914	1	10
362.256	1	12
362.598	1	9
362.940	1	29
363.282	1	19
363.624	1	13
363.966	1	9
364.308	1	14
364.649	1	12
364.991	1	21
365.333	1	2
365.675	1	22
366.017	1	13
366.359	1	17
366.701	1	17
367.042	1	11
367.384	1	23
367.726	1	25
368.068	1	24
368.410	1	23
368.752	1	29
369.093	1	18
369.435	1	21
369.777	1	15
370.119	1	22
370.461	1	28
370.803	1	8
371.144	1	19
371.486	1	10
371.828	1	16
372.170	1	14
372.512	1	24
372.853	1	24
373.195	1	15
373.537	1	18
373.879	1	17
374.220	1	17
374.562	1	11
374.904	1	19
375.246	1	9
375.588	1	14
375.929	1	7
376.271	1	19
376.613	1	16
376.955	1	19
377.296	1	13
377.638	1	11
377.980	1	-8
378.321	1	17
378.663	1	11
379.005	1	4
379.347	1	12
379.688	1	9
380.030	1	11
380.372	1	9
380.714	1	13
381.055	1	11
381.397	1	8
381.739	1	-3
382.080	1	7
382.422	1	1
382.764	1	5
383.105	1	7
383.447	1	12
383.789	1	20
384.130	1	-2
384.472	1	-2
384.814	1	13
385.156	1	5
385.497	1	3
385.839	1	3
386.180	1	2
386.522	1	7
386.864	1	10
387.205	1	2
387.547	1	-2
387.889	1	8
388.230	1	10
388.572	1	8
388.914	1	3
389.255	1	16
389.597	1	7
389.939	1	0
390.280	1	16
390.622	1	-2
390.963	1	7
391.305	1	-2
391.647	1	-6
391.988	1	7
392.330	1	6
392.671	1	-6
393.013	1	0
393.355	1	4
393.696	1	12
394.038	1	0
394.379	1	-5
394.721	1	-3
395.062	1	5
395.404	1	10
395.746	1	6
396.087	1	17
396.429	1	9
396.770	1	-4
397.112	1	9
397.453	1	6
397.795	1	4
398.136	1	4
398.478	1	5
398.819	1	4
399.161	1	-3
399.503	1	-2
399.844	1	-9
400.186	1	-5
400.527	1	9
400.869	1	-1
401.210	1	8
401.552	1	-2
401.893	1	8
402.235	1	8
402.576	1	3
402.918	1	-4
403.259	1	6
403.601	1	17
403.942	1	4
404.284	1	-2
404.625	1	0
404.967	1	5
405.308	1	8
405.649	1	7
405.991	1	3
406.332	1	-4
406.674	1	0
407.015	1	11
407.357	1	-3
407.698	1	2
408.040	1	-4
408.381	1	5
408.722	1	-7
409.064	1	-3
409.405	1	4
409.747	1	-9
410.088	1	4
410.430	1	2
410.771	1	2
411.112	1	1
411.454	1	7
411.795	1	1
412.137	1	0
412.478	1	-1
412.819	1	-6
413.161	1	7
413.502	1	-2
413.844	1	4
414.185	1	2
414.526	1	2
414.868	1	2
415.209	1	-10
415.550	1	6
415.892	1	0
416.233	1	8
416.575	1	-7
416.916	1	-9
417.257	1	7
417.599	1	2
417.940	1	-6
418.281	1	-10
418.623	1	-3
418.964	1	-10
419.305	1	4
419.647	1	5
419.988	1	-1
420.329	1	8
420.671	1	-2
421.012	1	8
421.353	1	-3
421.695	1	-4
422.036	1	-8
422.377	1	13
422.718	1	22
423.060	1	-2
423.401	1	-3
423.742	1	3
424.084	1	21
424.425	1	-1
424.766	1	-2
425.107	1	3
425.449	1	4
425.790	1	8
426.131	1	2
426.472	1	3
426.814	1	-9
427.155	1	18
427.496	1	0
427.837	1	8
428.179	1	10
428.520	1	0
428.861	1	6
429.202	1	8
429.544	1	0
429.885	1	-1
430.226	1	3
430.567	1	1
430.909	1	3
431.250	1	5
431.591	1	-2
431.932	1	-3
432.273	1	6
432.615	1	-5
432.956	1	3
433.297	1	-3
433.638	1	11
433.979	1	7
434.320	1	2
434.662	1	-6
435.003	1	8
435.344	1	-1
435.685	1	-2
436.026	1	4
436.368	1	3
436.709	1	1
437.050	1	-7
437.391	1	-1
437.732	1	11
438.073	1	7
438.414	1	-7
438.756	1	4
439.097	1	2
439.438	1	3
439.779	1	12
440.120	1	-1
440.461	1	16
440.802	1	4
441.143	1	7
441.485	1	-4
441.826	1	2
442.167	1	7
442.508	1	-6
442.849	1	5
443.190	1	-1
443.531	1	2
443.872	1	-6
444.213	1	7
444.554	1	0
444.895	1	-12
445.237	1	-6
445.578	1	6
445.919	1	7
446.260	1	5
446.601	1	-1
446.942	1	8
447.283	1	1
447.624	1	1
447.965	1	3
448.306	1	-1
448.647	1	-2
448.988	1	10
449.329	1	1
449.670	1	-15
450.011	1	7
450.352	1	-1
450.693	1	4
451.034	1	-8
451.375	1	2
451.716	1	6
452.057	1	-1
452.398	1	3
452.739	1	-2
453.080	1	4
453.421	1	2
453.762	1	2
454.103	1	-4
454.444	1	-2
454.785	1	-10
455.126	1	14
455.467	1	-11
455.808	1	4
456.149	1	1
456.490	1	0
456.831	1	-2
457.172	1	-3
457.513	1	8
457.854	1	10
458.195	1	-3
458.536	1	-2
458.877	1	11
459.218	1	4
459.559	1	4
459.899	1	2
460.240	1	1
460.581	1	6
460.922	1	-3
461.263	1	1
461.604	1	11
461.945	1	-1
462.286	1	-3
462.627	1	13
462.968	1	12
463.309	1	17
463.649	1	7
463.990	1	-1
464.331	1	3
464.672	1	-12
465.013	1	-1
465.354	1	-4
465.695	1	3
466.036	1	-1
466.376	1	16
466.717	1	-5
467.058	1	4
467.399	1	5
467.740	1	-5
468.081	1	-3
468.422	1	11
468.762	1	9
469.103	1	7
469.444	1	-4
469.785	1	-9
470.126	1	-2
470.467	1	7
470.807	1	-3
471.148	1	-6
471.489	1	4
471.830	1	-5
472.171	1	6
472.511	1	-3
472.852	1	13
473.193	1	7
473.534	1	5
473.875	1	2
474.215	1	-5
474.556	1	8
474.897	1	1
475.238	1	-10
475.578	1	0
475.919	1	2
476.260	1	10
476.601	1	-1
476.942	1	-3
477.282	1	9
477.623	1	7
477.964	1	4
478.305	1	-2
478.645	1	7
478.986	1	-2
479.327	1	-6
479.667	1	6
480.008	1	4
480.349	1	9
480.690	1	4
481.030	1	1
481.371	1	0
481.712	1	-2
482.053	1	-6
482.393	1	-8
482.734	1	11
483.075	1	1
483.415	1	-1
483.756	1	-7
484.097	1	-9
484.437	1	-8
484.778	1	-4
485.119	1	6
485.459	1	-7
485.800	1	3
486.141	1	2
486.481	1	-1
486.822	1	7
487.163	1	1
487.503	1	2
487.844	1	5
488.185	1	3
488.525	1	12
488.866	1	10
489.207	1	4
489.547	1	7
489.888	1	4
490.228	1	-7
490.569	1	3
490.910	1	2
491.250	1	6
491.591	1	9
491.932	1	12
492.272	1	6
492.613	1	12
492.953	1	0
493.294	1	4
493.635	1	-5
493.975	1	8
494.316	1	1
494.656	1	4
494.997	1	10
495.337	1	0
495.678	1	-3
496.019	1	-8
496.359	1	6
496.700	1	7
497.040	1	5
497.381	1	5
497.721	1	1
498.062	1	2
498.403	1	7
498.743	1	5
499.084	1	5
499.424	1	7
499.765	1	-15
500.105	1	-4
500.446	1	-2
500.786	1	6
501.127	1	7
501.467	1	4
501.808	1	-2
502.148	1	12
502.489	1	7
502.829	1	8
503.170	1	12
503.510	1	14
503.851	1	1
504.191	1	-7
504.532	1	1
504.872	1	6
505.213	1	5
505.553	1	2
505.894	1	11
506.234	1	4
506.575	1	-4
506.915	1	2
507.256	1	1
507.596	1	-3
507.936	1	10
508.277	1	2
508.617	1	10
508.958	1	-9
509.298	1	-4
509.639	1	5
509.979	1	10
510.319	1	-3
510.660	1	-1
511.000	1	4
511.341	1	12
511.681	1	4
512.022	1	-1
512.362	1	2
512.702	1	7
513.043	1	6
513.383	1	11
513.724	1	1
514.064	1	2
514.404	1	-2
514.745	1	3
515.085	1	4
515.425	1	-2
515.766	1	6
516.106	1	2
516.447	1	1
516.787	1	7
517.127	1	8
517.468	1	14
517.808	1	8
518.148	1	11
518.489	1	5
518.829	1	-1
519.169	1	-2
519.510	1	5
519.850	1	5
520.190	1	8
520.531	1	16
520.871	1	5
521.211	1	-5
521.552	1	2
521.892	1	2
522.232	1	-12
522.573	1	12
522.913	1	6
523.253	1	17
523.593	1	10
523.934	1	6
524.274	1	3
524.614	1	4
524.955	1	1
525.295	1	9
525.635	1	6
525.975	1	8
526.316	1	16
526.656	1	-1
526.996	1	9
527.337	1	-4
527.677	1	-3
528.017	1	14
528.357	1	-3
528.698	1	-8
529.038	1	0
529.378	1	5
529.718	1	6
530.058	1	13
530.399	1	8
530.739	1	-2
531.079	1	15
531.419	1	5
531.760	1	-2
532.100	1	14
532.440	1	5
532.780	1	0
533.120	1	-3
533.461	1	3
533.801	1	3
534.141	1	7
534.481	1	10
534.821	1	9
535.162	1	-2
535.502	1	7
535.842	1	3
536.182	1	4
536.522	1	6
536.862	1	11
537.203	1	3
537.543	1	2
537.883	1	10
538.223	1	10
538.563	1	-2
538.903	1	7
539.243	1	-7
539.584	1	3
539.924	1	-5
540.264	1	12
540.604	1	1
540.944	1	-1
541.284	1	7
541.624	1	-5
541.964	1	1
542.305	1	8
542.645	1	4
542.985	1	6
543.325	1	8
543.665	1	-6
544.005	1	15
544.345	1	6
544.685	1	6
545.025	1	-5
545.365	1	6
545.705	1	14
546.045	1	5
546.386	1	-1
546.726	1	-4
547.066	1	19
547.406	1	8
547.746	1	0
548.086	1	5
548.426	1	9
548.766	1	11
549.106	1	12
549.446	1	0
549.786	1	6
550.126	1	-4
550.466	1	0
550.806	1	1
551.146	1	0
551.486	1	9
551.826	1	12
552.166	1	0
552.506	1	7
552.846	1	7
553.186	1	4
553.526	1	-2
553.866	1	-8
554.206	1	1
554.546	1	-6
554.886	1	9
555.226	1	-3
555.566	1	3
555.906	1	1
556.246	1	1
556.586	1	-1
556.926	1	0
557.266	1	2
557.606	1	7
557.946	1	11
558.286	1	0
558.626	1	14
558.966	1	9
559.306	1	6
559.646	1	6
559.986	1	6
560.325	1	-1
560.665	1	-2
561.005	1	0
561.345	1	-2
561.685	1	0
562.025	1	1
562.365	1	5
562.705	1	6
563.045	1	-8
563.385	1	12
563.725	1	-8
564.064	1	6
564.404	1	11
564.744	1	-4
565.084	1	3
565.424	1	-1
565.764	1	4
566.104	1	2
566.444	1	5
566.783	1	0
567.123	1	-3
567.463	1	1
567.803	1	8
568.143	1	3
568.483	1	2
568.823	1	-9
569.162	1	2
569.502	1	-5
569.842	1	-6
570.182	1	-10
570.522	1	5
570.862	1	2
571.201	1	14
571.541	1	5
571.881	1	-4
572.221	1	4
572.561	1	5
572.900	1	1
573.240	1	-1
573.580	1	-3
573.920	1	13
574.260	1	1
574.599	1	-9
574.939	1	1
575.279	1	-3
575.619	1	11
575.959	1	-5
576.298	1	7
576.638	1	4
576.978	1	3
577.318	1	0
577.657	1	5
577.997	1	-4
578.337	1	6
578.677	1	3
579.016	1	6
579.356	1	4
579.696	1	-3
580.036	1	-8
580.375	1	1
580.715	1	2
581.055	1	7
581.394	1	2
581.734	1	13
582.074	1	8
582.414	1	0
582.753	1	4
583.093	1	2
583.433	1	10
583.772	1	3
584.112	1	12
584.452	1	-4
584.791	1	1
585.131	1	10
585.471	1	10
585.811	1	-6
586.150	1	-3
586.490	1	1
586.830	1	-2
587.169	1	15
587.509	1	2
587.849	1	3
588.188	1	-2
588.528	1	-2
588.867	1	1
589.207	1	1
589.547	1	9
589.886	1	0
590.226	1	0
590.566	1	4
590.905	1	16
591.245	1	2
591.585	1	1
591.924	1	-6
592.264	1	-3
592.603	1	6
592.943	1	6
593.283	1	7
593.622	1	-10
593.962	1	2
594.301	1	9
594.641	1	4
594.981	1	4
595.320	1	0
595.660	1	-2
595.999	1	3
596.339	1	7
596.678	1	0
597.018	1	-2
597.358	1	-3
597.697	1	-3
598.037	1	-8
598.376	1	-3
598.716	1	6
599.055	1	5
599.395	1	-1
599.734	1	16
600.074	1	2
600.413	1	3
600.753	1	2
601.092	1	5
601.432	1	-1
601.771	1	6
602.111	1	-2
602.451	1	14
602.790	1	14
603.130	1	-11
603.469	1	2
603.809	1	0
604.148	1	1
604.487	1	12
604.827	1	-3
605.166	1	5
605.506	1	0
605.845	1	6
606.185	1	10
606.524	1	0
606.864	1	-4
607.203	1	4
607.543	1	14
607.882	1	6
608.222	1	-2
608.561	1	12
608.901	1	2
609.240	1	3
609.579	1	4
609.919	1	2
610.258	1	0
610.598	1	8
610.937	1	-1
611.277	1	0
611.616	1	0
611.955	1	-3
612.295	1	2
612.634	1	3
612.974	1	9
613.313	1	-3
613.652	1	6
613.992	1	13
614.331	1	2
614.671	1	11
615.010	1	4
615.349	1	5
615.689	1	11
616.028	1	9
616.368	1	-2
616.707	1	10
617.046	1	-8
617.386	1	7
617.725	1	1
618.064	1	3
618.404	1	4
618.743	1	12
619.082	1	8
619.422	1	-2
619.761	1	2
620.100	1	3
620.440	1	4
620.779	1	-1
621.118	1	0
621.458	1	-3
621.797	1	8
622.136	1	-2
622.476	1	2
622.815	1	5
623.154	1	6
623.494	1	0
623.833	1	-6
624.172	1	2
624.511	1	10
624.851	1	6
625.190	1	3
625.529	1	11
625.869	1	7
626.208	1	1
626.547	1	5
626.886	1	4
627.226	1	10
627.565	1	1
627.904	1	-2
628.243	1	9
628.583	1	-7
628.922	1	-2
629.261	1	1
629.600	1	5
629.940	1	0
630.279	1	6
630.618	1	-6
630.957	1	-4
631.297	1	-2
631.636	1	5
631.975	1	-8
632.314	1	9
632.653	1	0
632.993	1	-7
633.332	1	-2
633.671	1	11
634.010	1	9
634.349	1	-3
634.689	1	5
635.028	1	7
635.367	1	1
635.706	1	1
636.045	1	4
636.384	1	1
636.724	1	9
637.063	1	4
637.402	1	10
637.741	1	0
638.080	1	10
638.419	1	-3
638.759	1	-5
639.098	1	-1
639.437	1	-2
639.776	1	5
640.115	1	7
640.454	1	3
640.793	1	-11
641.132	1	-4
641.472	1	-2
641.811	1	13
642.150	1	6
642.489	1	1
642.828	1	1
643.167	1	5
643.506	1	15
643.845	1	2
644.184	1	11
644.524	1	2
644.863	1	-9
645.202	1	11
645.541	1	5
645.880	1	1
646.219	1	-1
646.558	1	10
646.897	1	4
647.236	1	4
647.575	1	5
647.914	1	5
648.253	1	0
648.592	1	-2
648.931	1	2
649.270	1	-4
649.610	1	3
649.949	1	-11
650.288	1	-2
650.627	1	-3
650.966	1	8
651.305	1	-3
651.644	1	9
651.983	1	0
652.322	1	3
652.661	1	6
653.000	1	-14
653.339	1	-4
653.678	1	-2
654.017	1	2
654.356	1	3
654.695	1	4
655.034	1	-4
655.373	1	10
655.712	1	-11
656.051	1	1
656.390	1	-4
656.729	1	7
657.068	1	-2
657.406	1	-3
657.745	1	0
658.084	1	-9
658.423	1	-4
658.762	1	1
659.101	1	-6
659.440	1	7
659.779	1	7
660.118	1	5
660.457	1	7
660.796	1	-3
661.135	1	-3
661.474	1	16
661.813	1	5
662.152	1	6
662.491	1	-3
662.829	1	-6
663.168	1	2
663.507	1	2
663.846	1	-4
664.185	1	8
664.524	1	5
664.863	1	4
665.202	1	16
665.541	1	9
665.879	1	9
666.218	1	9
666.557	1	-4
666.896	1	-1
667.235	1	2
667.574	1	-9
667.913	1	-4
668.251	1	-3
668.590	1	6
668.929	1	7
669.268	1	-6
669.607	1	1
669.946	1	6
670.285	1	12
670.623	1	5
670.962	1	-2
671.301	1	4
671.640	1	12
671.979	1	5
672.317	1	8
672.656	1	-1
672.995	1	-2
673.334	1	1
673.673	1	2
674.011	1	5
674.350	1	4
674.689	1	5
675.028	1	1
675.367	1	-1
675.705	1	2
676.044	1	8
676.383	1	4
676.722	1	6
677.060	1	-6
677.399	1	2
677.738	1	-3
678.077	1	6
678.416	1	-6
678.754	1	7
679.093	1	8
679.432	1	2
679.771	1	6
680.109	1	-2
680.448	1	0
680.787	1	2
681.125	1	7
681.464	1	6
681.803	1	6
682.142	1	4
682.480	1	0
682.819	1	5
683.158	1	-5
683.496	1	2
683.835	1	-4
684.174	1	-5
684.512	1	4
684.851	1	0
685.190	1	1
685.529	1	17
685.867	1	9
686.206	1	8
686.545	1	8
686.883	1	4
687.222	1	1
687.561	1	3
687.899	1	-9
688.238	1	-5
688.577	1	6
688.746	1	3