File: Data/GaN_170K_550ms/GaN_sample D_spot 18_UVVIS_170 K_200um_550 ms 2x2mm1_194.txt
340.368	1	1
340.710	1	-7
341.052	1	5
341.394	1	7
341.737	1	-4
342.079	1	8
342.421	1	9
342.763	1	-2
343.105	1	14
343.447	1	-6
343.789	1	6
344.131	1	1
344.473	1	-4
344.815	1	13
345.157	1	6
345.499	1	5
345.841	1	2
346.183	1	0
346.526	1	5
346.868	1	8
347.210	1	-7
347.552	1	5
347.894	1	0
348.236	1	-3
348.578	1	-1
348.920	1	1
349.262	1	10
349.604	1	12
349.946	1	10
350.288	1	5
350.630	1	10
350.972	1	3
351.314	1	-5
351.656	1	-4
351.998	1	6
352.340	1	-3
352.682	1	-1
353.024	1	4
353.366	1	-2
353.708	1	7
354.050	1	4
354.392	1	0
354.734	1	3
355.076	1	8
355.418	1	-6
355.760	1	5
356.102	1	4
356.444	1	1
356.785	1	1
357.127	1	4
357.469	1	-2
357.811	1	3
358.153	1	12
358.495	1	-5
358.837	1	0
359.179	1	-3
359.521	1	10
359.863	1	2
360.205	1	11
360.547	1	16
360.889	1	9
361.231	1	6
361.572	1	13
361.914	1	19
362.256	1	1
362.598	1	18
362.940	1	18
363.282	1	20
363.624	1	8
363.966	1	2
364.308	1	6
364.649	1	-2
364.991	1	23
365.333	1	11
365.675	1	25
366.017	1	19
366.359	1	11
366.701	1	27
367.042	1	7
367.384	1	27
367.726	1	21
368.068	1	22
368.410	1	25
368.752	1	21
369.093	1	20
369.435	1	14
369.777	1	21
370.119	1	22
370.461	1	22
370.803	1	12
371.144	1	14
371.486	1	20
371.828	1	9
372.170	1	23
372.512	1	9
372.853	1	23
373.195	1	24
373.537	1	22
373.879	1	16
374.220	1	23
374.562	1	18
374.904	1	12
375.246	1	14
375.588	1	20
375.929	1	7
376.271	1	13
376.613	1	12
376.955	1	12
377.296	1	18
377.638	1	12
377.980	1	-4
378.321	1	6
378.663	1	6
379.005	1	-4
379.347	1	9
379.688	1	3
380.030	1	9
380.372	1	6
380.714	1	8
381.055	1	8
381.397	1	10
381.739	1	1
382.080	1	6
382.422	1	8
382.764	1	3
383.105	1	9
383.447	1	9
383.789	1	15
384.130	1	-7
384.472	1	4
384.814	1	16
385.156	1	4
385.497	1	11
385.839	1	3
386.180	1	16
386.522	1	15
386.864	1	7
387.205	1	-4
387.547	1	11
387.889	1	16
388.230	1	3
388.572	1	13
388.914	1	6
389.255	1	13
389.597	1	2
389.939	1	3
390.280	1	-5
390.622	1	-2
390.963	1	0
391.305	1	-2
391.647	1	-5
391.988	1	6
392.330	1	6
392.671	1	-6
393.013	1	-5
393.355	1	10
393.696	1	7
394.038	1	-4
394.379	1	2
394.721	1	-6
395.062	1	-2
395.404	1	11
395.746	1	10
396.087	1	2
396.429	1	4
396.770	1	8
397.112	1	-4
397.453	1	5
397.795	1	4
398.136	1	2
398.478	1	-9
398.819	1	1
399.161	1	-13
399.503	1	7
399.844	1	-2
400.186	1	-5
400.527	1	19
400.869	1	2
401.210	1	2
401.552	1	3
401.893	1	15
402.235	1	-1
402.576	1	-1
402.918	1	-1
403.259	1	3
403.601	1	9
403.942	1	7
404.284	1	-5
404.625	1	-3
404.967	1	3
405.308	1	5
405.649	1	6
405.991	1	9
406.332	1	-7
406.674	1	15
407.015	1	6
407.357	1	-1
407.698	1	8
408.040	1	-1
408.381	1	0
408.722	1	-7
409.064	1	-1
409.405	1	5
409.747	1	-1
410.088	1	7
410.430	1	-3
410.771	1	-1
411.112	1	0
411.454	1	8
411.795	1	6
412.137	1	-3
412.478	1	3
412.819	1	-10
413.161	1	4
413.502	1	2
413.844	1	9
414.185	1	-4
414.526	1	7
414.868	1	-3
415.209	1	-15
415.550	1	-6
415.892	1	6
416.233	1	4
416.575	1	-3
416.916	1	-3
417.257	1	3
417.599	1	-4
417.940	1	-3
418.281	1	-9
418.623	1	-4
418.964	1	-1
419.305	1	2
419.647	1	8
419.988	1	4
420.329	1	4
420.671	1	-10
421.012	1	-2
421.353	1	7
421.695	1	-5
422.036	1	2
422.377	1	10
422.718	1	11
423.060	1	-2
423.401	1	-4
423.742	1	-8
424.084	1	20
424.425	1	-7
424.766	1	-3
425.107	1	-6
425.449	1	15
425.790	1	1
426.131	1	15
426.472	1	1
426.814	1	0
427.155	1	8
427.496	1	-6
427.837	1	7
428.179	1	3
428.520	1	3
428.861	1	7
429.202	1	-9
429.544	1	-8
429.885	1	7
430.226	1	-5
430.567	1	-2
430.909	1	-4
431.250	1	12
431.591	1	-1
431.932	1	-6
432.273	1	-2
432.615	1	7
432.956	1	-1
433.297	1	-3
433.638	1	11
433.979	1	11
434.320	1	11
434.662	1	-10
435.003	1	1
435.344	1	-6
435.685	1	7
436.026	1	-2
436.368	1	-5
436.709	1	2
437.050	1	-2
437.391	1	-6
437.732	1	1
438.073	1	4
438.414	1	-7
438.756	1	3
439.097	1	1
439.438	1	-1
439.779	1	8
440.120	1	-12
440.461	1	9
440.802	1	19
441.143	1	7
441.485	1	2
441.826	1	7
442.167	1	2
442.508	1	-4
442.849	1	-5
443.190	1	0
443.531	1	4
443.872	1	-4
444.213	1	-6
444.554	1	4
444.895	1	-10
445.237	1	-9
445.578	1	6
445.919	1	0
446.260	1	10
446.601	1	-12
446.942	1	3
447.283	1	6
447.624	1	2
447.965	1	1
448.306	1	-2
448.647	1	-3
448.988	1	13
449.329	1	2
449.670	1	-11
450.011	1	10
450.352	1	-12
450.693	1	0
451.034	1	-2
451.375	1	13
451.716	1	2
452.057	1	-1
452.398	1	5
452.739	1	1
453.080	1	3
453.421	1	-2
453.762	1	6
454.103	1	-10
454.444	1	-3
454.785	1	3
455.126	1	10
455.467	1	-6
455.808	1	12
456.149	1	7
456.490	1	1
456.831	1	-7
457.172	1	-7
457.513	1	10
457.854	1	15
458.195	1	2
458.536	1	3
458.877	1	5
459.218	1	0
459.559	1	4
459.899	1	0
460.240	1	8
460.581	1	1
460.922	1	-3
461.263	1	-7
461.604	1	5
461.945	1	0
462.286	1	-1
462.627	1	5
462.968	1	11
463.309	1	11
463.649	1	3
463.990	1	3
464.331	1	3
464.672	1	9
465.013	1	7
465.354	1	2
465.695	1	-3
466.036	1	-6
466.376	1	12
466.717	1	2
467.058	1	4
467.399	1	10
467.740	1	1
468.081	1	-6
468.422	1	2
468.762	1	8
469.103	1	10
469.444	1	-3
469.785	1	-8
470.126	1	-2
470.467	1	5
470.807	1	4
471.148	1	-4
471.489	1	4
471.830	1	7
472.171	1	11
472.511	1	-2
472.852	1	9
473.193	1	10
473.534	1	9
473.875	1	0
474.215	1	3
474.556	1	10
474.897	1	0
475.238	1	-9
475.578	1	6
475.919	1	7
476.260	1	14
476.601	1	5
476.942	1	-3
477.282	1	9
477.623	1	9
477.964	1	7
478.305	1	-9
478.645	1	5
478.986	1	2
479.327	1	-13
479.667	1	1
480.008	1	-5
480.349	1	0
480.690	1	2
481.030	1	0
481.371	1	2
481.712	1	2
482.053	1	-5
482.393	1	1
482.734	1	13
483.075	1	0
483.415	1	5
483.756	1	-4
484.097	1	-12
484.437	1	-4
484.778	1	-10
485.119	1	2
485.459	1	3
485.800	1	-7
486.141	1	0
486.481	1	4
486.822	1	-1
487.163	1	8
487.503	1	5
487.844	1	15
488.185	1	2
488.525	1	9
488.866	1	5
489.207	1	8
489.547	1	11
489.888	1	3
490.228	1	3
490.569	1	2
490.910	1	4
491.250	1	3
491.591	1	2
491.932	1	2
492.272	1	3
492.613	1	-3
492.953	1	-3
493.294	1	2
493.635	1	-4
493.975	1	4
494.316	1	1
494.656	1	8
494.997	1	-11
495.337	1	8
495.678	1	5
496.019	1	-11
496.359	1	1
496.700	1	6
497.040	1	0
497.381	1	13
497.721	1	-2
498.062	1	6
498.403	1	10
498.743	1	-1
499.084	1	4
499.424	1	9
499.765	1	-7
500.105	1	6
500.446	1	3
500.786	1	0
501.127	1	5
501.467	1	-2
501.808	1	-3
502.148	1	9
502.489	1	2
502.829	1	-2
503.170	1	13
503.510	1	10
503.851	1	-4
504.191	1	-4
504.532	1	-20
504.872	1	7
505.213	1	3
505.553	1	3
505.894	1	14
506.234	1	1
506.575	1	4
506.915	1	5
507.256	1	-2
507.596	1	15
507.936	1	11
508.277	1	3
508.617	1	8
508.958	1	3
509.298	1	5
509.639	1	17
509.979	1	4
510.319	1	0
510.660	1	2
511.000	1	4
511.341	1	12
511.681	1	1
512.022	1	8
512.362	1	-2
512.702	1	3
513.043	1	12
513.383	1	3
513.724	1	-3
514.064	1	10
514.404	1	-3
514.745	1	-2
515.085	1	3
515.425	1	-2
515.766	1	7
516.106	1	8
516.447	1	-2
516.787	1	5
517.127	1	5
517.468	1	6
517.808	1	20
518.148	1	6
518.489	1	10
518.829	1	-1
519.169	1	-5
519.510	1	7
519.850	1	2
520.190	1	-3
520.531	1	6
520.871	1	1
521.211	1	8
521.552	1	9
521.892	1	3
522.232	1	-5
522.573	1	1
522.913	1	13
523.253	1	9
523.593	1	5
523.934	1	-1
524.274	1	2
524.614	1	2
524.955	1	7
525.295	1	2
525.635	1	7
525.975	1	-2
526.316	1	9
526.656	1	8
526.996	1	9
527.337	1	0
527.677	1	8
528.017	1	6
528.357	1	-2
528.698	1	-5
529.038	1	6
529.378	1	-2
529.718	1	11
530.058	1	10
530.399	1	16
530.739	1	0
531.079	1	7
531.419	1	14
531.760	1	4
532.100	1	13
532.440	1	7
532.780	1	-5
533.120	1	13
533.461	1	9
533.801	1	14
534.141	1	8
534.481	1	6
534.821	1	9
535.162	1	4
535.502	1	3
535.842	1	11
536.182	1	9
536.522	1	7
536.862	1	-1
537.203	1	5
537.543	1	4
537.883	1	4
538.223	1	4
538.563	1	12
538.903	1	-1
539.243	1	0
539.584	1	-4
539.924	1	7
540.264	1	3
540.604	1	0
540.944	1	-7
541.284	1	1
541.624	1	0
541.964	1	9
542.305	1	3
542.645	1	2
542.985	1	4
543.325	1	19
543.665	1	10
544.005	1	16
544.345	1	-2
544.685	1	6
545.025	1	2
545.365	1	-3
545.705	1	4
546.045	1	-2
546.386	1	6
546.726	1	9
547.066	1	10
547.406	1	3
547.746	1	-4
548.086	1	7
548.426	1	9
548.766	1	0
549.106	1	17
549.446	1	5
549.786	1	5
550.126	1	10
550.466	1	-3
550.806	1	-2
551.146	1	4
551.486	1	1
551.826	1	7
552.166	1	-1
552.506	1	4
552.846	1	-4
553.186	1	15
553.526	1	-6
553.866	1	-6
554.206	1	4
554.546	1	1
554.886	1	4
555.226	1	7
555.566	1	4
555.906	1	-2
556.246	1	-1
556.586	1	-3
556.926	1	12
557.266	1	6
557.606	1	1
557.946	1	11
558.286	1	4
558.626	1	17
558.966	1	8
559.306	1	12
559.646	1	-2
559.986	1	10
560.325	1	3
560.665	1	7
561.005	1	5
561.345	1	1
561.685	1	0
562.025	1	-8
562.365	1	0
562.705	1	4
563.045	1	3
563.385	1	4
563.725	1	-4
564.064	1	10
564.404	1	-2
564.744	1	12
565.084	1	-2
565.424	1	7
565.764	1	-4
566.104	1	6
566.444	1	11
566.783	1	2
567.123	1	11
567.463	1	2
567.803	1	2
568.143	1	0
568.483	1	6
568.823	1	6
569.162	1	11
569.502	1	6
569.842	1	2
570.182	1	-5
570.522	1	-4
570.862	1	9
571.201	1	10
571.541	1	-4
571.881	1	-3
572.221	1	8
572.561	1	4
572.900	1	-5
573.240	1	-2
573.580	1	-1
573.920	1	13
574.260	1	18
574.599	1	-3
574.939	1	-2
575.279	1	0
575.619	1	14
575.959	1	-9
576.298	1	13
576.638	1	9
576.978	1	1
577.318	1	0
577.657	1	8
577.997	1	0
578.337	1	7
578.677	1	6
579.016	1	2
579.356	1	0
579.696	1	-12
580.036	1	7
580.375	1	-5
580.715	1	0
581.055	1	4
581.394	1	3
581.734	1	6
582.074	1	4
582.414	1	-3
582.753	1	-1
583.093	1	4
583.433	1	8
583.772	1	4
584.112	1	7
584.452	1	0
584.791	1	-1
585.131	1	8
585.471	1	6
585.811	1	-1
586.150	1	0
586.490	1	-1
586.830	1	-6
587.169	1	12
587.509	1	8
587.849	1	5
588.188	1	6
588.528	1	-1
588.867	1	5
589.207	1	-4
589.547	1	5
589.886	1	0
590.226	1	3
590.566	1	1
590.905	1	5
591.245	1	1
591.585	1	3
591.924	1	-1
592.264	1	-5
592.603	1	-4
592.943	1	2
593.283	1	8
593.622	1	-1
593.962	1	4
594.301	1	4
594.641	1	5
594.981	1	12
595.320	1	-2
595.660	1	2
595.999	1	3
596.339	1	6
596.678	1	-5
597.018	1	4
597.358	1	-7
597.697	1	9
598.037	1	4
598.376	1	-12
598.716	1	10
599.055	1	5
599.395	1	3
599.734	1	10
600.074	1	-6
600.413	1	-6
600.753	1	9
601.092	1	-2
601.432	1	-10
601.771	1	1
602.111	1	-8
602.451	1	2
602.790	1	4
603.130	1	2
603.469	1	4
603.809	1	3
604.148	1	2
604.487	1	-6
604.827	1	-2
605.166	1	-1
605.506	1	2
605.845	1	7
606.185	1	2
606.524	1	5
606.864	1	3
607.203	1	-3
607.543	1	11
607.882	1	3
608.222	1	-2
608.561	1	14
608.901	1	3
609.240	1	2
609.579	1	7
609.919	1	-6
610.258	1	12
610.598	1	11
610.937	1	4
611.277	1	4
611.616	1	6
611.955	1	3
612.295	1	1
612.634	1	-11
612.974	1	7
613.313	1	3
613.652	1	1
613.992	1	5
614.331	1	-10
614.671	1	8
615.010	1	1
615.349	1	-3
615.689	1	13
616.028	1	3
616.368	1	7
616.707	1	3
617.046	1	-2
617.386	1	-3
617.725	1	8
618.064	1	3
618.404	1	-5
618.743	1	13
619.082	1	12
619.422	1	3
619.761	1	2
620.100	1	7
620.440	1	5
620.779	1	4
621.118	1	-4
621.458	1	3
621.797	1	7
622.136	1	-1
622.476	1	5
622.815	1	12
623.154	1	1
623.494	1	-1
623.833	1	2
624.172	1	1
624.511	1	11
624.851	1	3
625.190	1	-1
625.529	1	9
625.869	1	6
626.208	1	-1
626.547	1	-3
626.886	1	3
627.226	1	6
627.565	1	11
627.904	1	5
628.243	1	8
628.583	1	0
628.922	1	-4
629.261	1	3
629.600	1	-4
629.940	1	-4
630.279	1	2
630.618	1	-6
630.957	1	-1
631.297	1	-4
631.636	1	12
631.975	1	-9
632.314	1	6
632.653	1	3
632.993	1	11
633.332	1	6
633.671	1	7
634.010	1	9
634.349	1	-5
634.689	1	5
635.028	1	2
635.367	1	-2
635.706	1	5
636.045	1	2
636.384	1	-1
636.724	1	4
637.063	1	3
637.402	1	4
637.741	1	0
638.080	1	11
638.419	1	-7
638.759	1	8
639.098	1	-7
639.437	1	-13
639.776	1	0
640.115	1	7
640.454	1	-6
640.793	1	6
641.132	1	-1
641.472	1	-6
641.811	1	4
642.150	1	-1
642.489	1	-3
642.828	1	3
643.167	1	-3
643.506	1	6
643.845	1	7
644.184	1	6
644.524	1	3
644.863	1	-7
645.202	1	7
645.541	1	4
645.880	1	11
646.219	1	-8
646.558	1	8
646.897	1	5
647.236	1	2
647.575	1	-11
647.914	1	-3
648.253	1	5
648.592	1	6
648.931	1	-1
649.270	1	1
649.610	1	-2
649.949	1	2
650.288	1	-1
650.627	1	-1
650.966	1	-5
651.305	1	-7
651.644	1	9
651.983	1	0
652.322	1	6
652.661	1	8
653.000	1	-4
653.339	1	0
653.678	1	1
654.017	1	10
654.356	1	-2
654.695	1	12
655.034	1	-6
655.373	1	1
655.712	1	-8
656.051	1	3
656.390	1	-4
656.729	1	3
657.068	1	8
657.406	1	-6
657.745	1	6
658.084	1	-2
658.423	1	1
658.762	1	-2
659.101	1	0
659.440	1	2
659.779	1	1
660.118	1	1
660.457	1	6
660.796	1	2
661.135	1	-16
661.474	1	-3
661.813	1	2
662.152	1	-3
662.491	1	-8
662.829	1	0
663.168	1	-2
663.507	1	6
663.846	1	2
664.185	1	5
664.524	1	7
664.863	1	-5
665.202	1	17
665.541	1	8
665.879	1	8
666.218	1	5
666.557	1	1
666.896	1	-2
667.235	1	-5
667.574	1	-9
667.913	1	-7
668.251	1	5
668.590	1	8
668.929	1	6
669.268	1	1
669.607	1	-5
669.946	1	3
670.285	1	8
670.623	1	-3
670.962	1	-4
671.301	1	0
671.640	1	5
671.979	1	-1
672.317	1	9
672.656	1	7
672.995	1	-3
673.334	1	-5
673.673	1	5
674.011	1	7
674.350	1	-2
674.689	1	-2
675.028	1	9
675.367	1	-2
675.705	1	10
676.044	1	9
676.383	1	4
676.722	1	6
677.060	1	-6
677.399	1	-2
677.738	1	-6
678.077	1	8
678.416	1	-10
678.754	1	1
679.093	1	4
679.432	1	-3
679.771	1	1
680.109	1	2
680.448	1	10
680.787	1	-7
681.125	1	8
681.464	1	1
681.803	1	3
682.142	1	-1
682.480	1	-2
682.819	1	6
683.158	1	7
683.496	1	-3
683.835	1	4
684.174	1	3
684.512	1	1
684.851	1	3
685.190	1	-2
685.529	1	9
685.867	1	4
686.206	1	-1
686.545	1	3
686.883	1	10
687.222	1	3
687.561	1	7
687.899	1	0
688.238	1	-2
688.577	1	12
688.746	1	-4