File: Data/GaN_170K_550ms/GaN_sample D_spot 18_UVVIS_170 K_200um_550 ms 2x2mm1_261.txt
340.368	1	-3
340.710	1	-9
341.052	1	4
341.394	1	0
341.737	1	4
342.079	1	0
342.421	1	5
342.763	1	4
343.105	1	4
343.447	1	-12
343.789	1	0
344.131	1	1
344.473	1	5
344.815	1	5
345.157	1	3
345.499	1	-1
345.841	1	7
346.183	1	13
346.526	1	0
346.868	1	-3
347.210	1	-1
347.552	1	10
347.894	1	3
348.236	1	1
348.578	1	2
348.920	1	0
349.262	1	4
349.604	1	10
349.946	1	1
350.288	1	1
350.630	1	10
350.972	1	-7
351.314	1	6
351.656	1	-7
351.998	1	5
352.340	1	12
352.682	1	12
353.024	1	-5
353.366	1	-1
353.708	1	2
354.050	1	-6
354.392	1	4
354.734	1	5
355.076	1	6
355.418	1	-11
355.760	1	1
356.102	1	1
356.444	1	-1
356.785	1	5
357.127	1	-7
357.469	1	-5
357.811	1	0
358.153	1	-4
358.495	1	1
358.837	1	4
359.179	1	1
359.521	1	0
359.863	1	9
360.205	1	6
360.547	1	12
360.889	1	8
361.231	1	4
361.572	1	5
361.914	1	5
362.256	1	0
362.598	1	3
362.940	1	17
363.282	1	4
363.624	1	8
363.966	1	10
364.308	1	-1
364.649	1	-2
364.991	1	16
365.333	1	4
365.675	1	8
366.017	1	6
366.359	1	10
366.701	1	14
367.042	1	6
367.384	1	14
367.726	1	22
368.068	1	15
368.410	1	22
368.752	1	10
369.093	1	4
369.435	1	6
369.777	1	11
370.119	1	3
370.461	1	11
370.803	1	3
371.144	1	8
371.486	1	6
371.828	1	8
372.170	1	3
372.512	1	-1
372.853	1	9
373.195	1	15
373.537	1	9
373.879	1	10
374.220	1	14
374.562	1	3
374.904	1	5
375.246	1	14
375.588	1	5
375.929	1	14
376.271	1	4
376.613	1	4
376.955	1	9
377.296	1	14
377.638	1	4
377.980	1	-5
378.321	1	3
378.663	1	7
379.005	1	-7
379.347	1	5
379.688	1	5
380.030	1	7
380.372	1	12
380.714	1	11
381.055	1	4
381.397	1	6
381.739	1	5
382.080	1	-2
382.422	1	7
382.764	1	10
383.105	1	11
383.447	1	2
383.789	1	10
384.130	1	-5
384.472	1	-1
384.814	1	4
385.156	1	-6
385.497	1	-2
385.839	1	2
386.180	1	3
386.522	1	18
386.864	1	10
387.205	1	-1
387.547	1	4
387.889	1	4
388.230	1	-3
388.572	1	4
388.914	1	-6
389.255	1	8
389.597	1	1
389.939	1	-6
390.280	1	3
390.622	1	-6
390.963	1	0
391.305	1	1
391.647	1	-7
391.988	1	8
392.330	1	10
392.671	1	-3
393.013	1	0
393.355	1	12
393.696	1	3
394.038	1	-3
394.379	1	-5
394.721	1	-3
395.062	1	4
395.404	1	-1
395.746	1	6
396.087	1	5
396.429	1	2
396.770	1	13
397.112	1	3
397.453	1	5
397.795	1	-2
398.136	1	12
398.478	1	-5
398.819	1	10
399.161	1	0
399.503	1	-3
399.844	1	0
400.186	1	-16
400.527	1	16
400.869	1	7
401.210	1	6
401.552	1	4
401.893	1	8
402.235	1	9
402.576	1	2
402.918	1	3
403.259	1	-6
403.601	1	17
403.942	1	4
404.284	1	-12
404.625	1	2
404.967	1	1
405.308	1	7
405.649	1	-2
405.991	1	-2
406.332	1	-6
406.674	1	4
407.015	1	6
407.357	1	-5
407.698	1	5
408.040	1	0
408.381	1	-3
408.722	1	-6
409.064	1	-1
409.405	1	3
409.747	1	0
410.088	1	7
410.430	1	-1
410.771	1	-6
411.112	1	6
411.454	1	0
411.795	1	16
412.137	1	-7
412.478	1	4
412.819	1	-9
413.161	1	-4
413.502	1	-1
413.844	1	6
414.185	1	6
414.526	1	4
414.868	1	0
415.209	1	-16
415.550	1	-10
415.892	1	2
416.233	1	10
416.575	1	-6
416.916	1	-7
417.257	1	4
417.599	1	6
417.940	1	14
418.281	1	-3
418.623	1	2
418.964	1	3
419.305	1	-4
419.647	1	11
419.988	1	-1
420.329	1	-2
420.671	1	-3
421.012	1	2
421.353	1	1
421.695	1	-4
422.036	1	4
422.377	1	5
422.718	1	22
423.060	1	-3
423.401	1	1
423.742	1	-3
424.084	1	11
424.425	1	3
424.766	1	-6
425.107	1	-5
425.449	1	2
425.790	1	5
426.131	1	9
426.472	1	4
426.814	1	-8
427.155	1	7
427.496	1	-1
427.837	1	9
428.179	1	-2
428.520	1	5
428.861	1	-2
429.202	1	-10
429.544	1	-1
429.885	1	0
430.226	1	4
430.567	1	6
430.909	1	-9
431.250	1	20
431.591	1	-4
431.932	1	0
432.273	1	-10
432.615	1	7
432.956	1	0
433.297	1	1
433.638	1	11
433.979	1	3
434.320	1	12
434.662	1	-15
435.003	1	3
435.344	1	-2
435.685	1	-2
436.026	1	2
436.368	1	2
436.709	1	-8
437.050	1	-5
437.391	1	-1
437.732	1	6
438.073	1	2
438.414	1	0
438.756	1	-5
439.097	1	3
439.438	1	10
439.779	1	1
440.120	1	1
440.461	1	11
440.802	1	6
441.143	1	3
441.485	1	-1
441.826	1	5
442.167	1	-7
442.508	1	-1
442.849	1	0
443.190	1	7
443.531	1	5
443.872	1	-6
444.213	1	-9
444.554	1	-15
444.895	1	-15
445.237	1	1
445.578	1	13
445.919	1	-1
446.260	1	6
446.601	1	-4
446.942	1	1
447.283	1	12
447.624	1	-3
447.965	1	-2
448.306	1	-2
448.647	1	-6
448.988	1	13
449.329	1	4
449.670	1	-12
450.011	1	8
450.352	1	-5
450.693	1	-6
451.034	1	0
451.375	1	4
451.716	1	-1
452.057	1	0
452.398	1	3
452.739	1	1
453.080	1	3
453.421	1	3
453.762	1	3
454.103	1	-4
454.444	1	-7
454.785	1	-3
455.126	1	2
455.467	1	1
455.808	1	9
456.149	1	1
456.490	1	-1
456.831	1	-6
457.172	1	-6
457.513	1	2
457.854	1	9
458.195	1	-4
458.536	1	-10
458.877	1	5
459.218	1	-1
459.559	1	-3
459.899	1	-1
460.240	1	-4
460.581	1	1
460.922	1	-9
461.263	1	2
461.604	1	-2
461.945	1	0
462.286	1	-6
462.627	1	8
462.968	1	13
463.309	1	12
463.649	1	3
463.990	1	-1
464.331	1	-5
464.672	1	-2
465.013	1	12
465.354	1	-10
465.695	1	4
466.036	1	-8
466.376	1	3
466.717	1	-5
467.058	1	9
467.399	1	2
467.740	1	4
468.081	1	-2
468.422	1	7
468.762	1	11
469.103	1	7
469.444	1	-2
469.785	1	-2
470.126	1	11
470.467	1	5
470.807	1	-4
471.148	1	0
471.489	1	3
471.830	1	0
472.171	1	3
472.511	1	4
472.852	1	4
473.193	1	1
473.534	1	4
473.875	1	0
474.215	1	2
474.556	1	2
474.897	1	-9
475.238	1	2
475.578	1	3
475.919	1	5
476.260	1	18
476.601	1	0
476.942	1	-5
477.282	1	9
477.623	1	12
477.964	1	2
478.305	1	-1
478.645	1	2
478.986	1	1
479.327	1	-10
479.667	1	-2
480.008	1	9
480.349	1	3
480.690	1	6
481.030	1	4
481.371	1	-6
481.712	1	1
482.053	1	-2
482.393	1	-3
482.734	1	5
483.075	1	3
483.415	1	7
483.756	1	2
484.097	1	-5
484.437	1	4
484.778	1	2
485.119	1	0
485.459	1	-4
485.800	1	-3
486.141	1	15
486.481	1	6
486.822	1	2
487.163	1	-1
487.503	1	1
487.844	1	3
488.185	1	8
488.525	1	6
488.866	1	5
489.207	1	10
489.547	1	15
489.888	1	1
490.228	1	-1
490.569	1	4
490.910	1	-2
491.250	1	-5
491.591	1	0
491.932	1	5
492.272	1	8
492.613	1	7
492.953	1	0
493.294	1	-10
493.635	1	-15
493.975	1	9
494.316	1	3
494.656	1	-7
494.997	1	-4
495.337	1	1
495.678	1	-2
496.019	1	-9
496.359	1	-5
496.700	1	4
497.040	1	3
497.381	1	7
497.721	1	2
498.062	1	2
498.403	1	-1
498.743	1	4
499.084	1	5
499.424	1	6
499.765	1	-12
500.105	1	-4
500.446	1	1
500.786	1	-3
501.127	1	-2
501.467	1	-3
501.808	1	2
502.148	1	11
502.489	1	3
502.829	1	1
503.170	1	10
503.510	1	4
503.851	1	-6
504.191	1	-1
504.532	1	-12
504.872	1	0
505.213	1	-2
505.553	1	4
505.894	1	12
506.234	1	0
506.575	1	3
506.915	1	6
507.256	1	0
507.596	1	7
507.936	1	6
508.277	1	-7
508.617	1	11
508.958	1	-8
509.298	1	4
509.639	1	7
509.979	1	5
510.319	1	-9
510.660	1	3
511.000	1	1
511.341	1	14
511.681	1	-6
512.022	1	5
512.362	1	-6
512.702	1	-1
513.043	1	8
513.383	1	0
513.724	1	-3
514.064	1	6
514.404	1	1
514.745	1	0
515.085	1	0
515.425	1	-2
515.766	1	5
516.106	1	1
516.447	1	2
516.787	1	3
517.127	1	4
517.468	1	7
517.808	1	13
518.148	1	4
518.489	1	17
518.829	1	1
519.169	1	-4
519.510	1	0
519.850	1	-1
520.190	1	-2
520.531	1	13
520.871	1	-2
521.211	1	8
521.552	1	8
521.892	1	-2
522.232	1	-7
522.573	1	4
522.913	1	13
523.253	1	11
523.593	1	2
523.934	1	1
524.274	1	-4
524.614	1	3
524.955	1	-3
525.295	1	3
525.635	1	3
525.975	1	-3
526.316	1	10
526.656	1	9
526.996	1	4
527.337	1	-8
527.677	1	-7
528.017	1	8
528.357	1	7
528.698	1	-7
529.038	1	-2
529.378	1	4
529.718	1	7
530.058	1	8
530.399	1	13
530.739	1	4
531.079	1	6
531.419	1	12
531.760	1	7
532.100	1	8
532.440	1	2
532.780	1	-5
533.120	1	3
533.461	1	0
533.801	1	4
534.141	1	-4
534.481	1	10
534.821	1	5
535.162	1	7
535.502	1	5
535.842	1	-1
536.182	1	-9
536.522	1	9
536.862	1	9
537.203	1	10
537.543	1	-4
537.883	1	3
538.223	1	3
538.563	1	2
538.903	1	1
539.243	1	3
539.584	1	6
539.924	1	1
540.264	1	0
540.604	1	-2
540.944	1	3
541.284	1	4
541.624	1	-5
541.964	1	13
542.305	1	2
542.645	1	3
542.985	1	8
543.325	1	8
543.665	1	5
544.005	1	4
544.345	1	5
544.685	1	0
545.025	1	-3
545.365	1	9
545.705	1	-1
546.045	1	3
546.386	1	9
546.726	1	2
547.066	1	3
547.406	1	-3
547.746	1	-1
548.086	1	7
548.426	1	3
548.766	1	6
549.106	1	0
549.446	1	12
549.786	1	1
550.126	1	12
550.466	1	-6
550.806	1	-1
551.146	1	5
551.486	1	-1
551.826	1	9
552.166	1	0
552.506	1	5
552.846	1	1
553.186	1	10
553.526	1	-11
553.866	1	-8
554.206	1	4
554.546	1	-10
554.886	1	-1
555.226	1	-3
555.566	1	4
555.906	1	-6
556.246	1	8
556.586	1	-1
556.926	1	9
557.266	1	2
557.606	1	4
557.946	1	1
558.286	1	-7
558.626	1	15
558.966	1	5
559.306	1	17
559.646	1	-4
559.986	1	-2
560.325	1	-3
560.665	1	7
561.005	1	1
561.345	1	-3
561.685	1	0
562.025	1	-5
562.365	1	8
562.705	1	12
563.045	1	4
563.385	1	14
563.725	1	1
564.064	1	9
564.404	1	3
564.744	1	-3
565.084	1	14
565.424	1	-1
565.764	1	4
566.104	1	5
566.444	1	-4
566.783	1	3
567.123	1	-3
567.463	1	-3
567.803	1	-4
568.143	1	3
568.483	1	3
568.823	1	3
569.162	1	2
569.502	1	-8
569.842	1	-4
570.182	1	-10
570.522	1	5
570.862	1	5
571.201	1	18
571.541	1	-12
571.881	1	-5
572.221	1	-3
572.561	1	0
572.900	1	7
573.240	1	5
573.580	1	-1
573.920	1	5
574.260	1	0
574.599	1	-3
574.939	1	1
575.279	1	0
575.619	1	0
575.959	1	-5
576.298	1	4
576.638	1	2
576.978	1	2
577.318	1	-3
577.657	1	4
577.997	1	-7
578.337	1	5
578.677	1	-6
579.016	1	2
579.356	1	-3
579.696	1	-4
580.036	1	0
580.375	1	-7
580.715	1	8
581.055	1	7
581.394	1	6
581.734	1	7
582.074	1	5
582.414	1	-13
582.753	1	4
583.093	1	-2
583.433	1	16
583.772	1	5
584.112	1	8
584.452	1	0
584.791	1	-2
585.131	1	15
585.471	1	5
585.811	1	-7
586.150	1	-5
586.490	1	2
586.830	1	-4
587.169	1	18
587.509	1	1
587.849	1	0
588.188	1	-6
588.528	1	-2
588.867	1	2
589.207	1	-7
589.547	1	2
589.886	1	-5
590.226	1	2
590.566	1	1
590.905	1	3
591.245	1	-3
591.585	1	1
591.924	1	2
592.264	1	0
592.603	1	6
592.943	1	4
593.283	1	3
593.622	1	-11
593.962	1	-3
594.301	1	13
594.641	1	2
594.981	1	10
595.320	1	-5
595.660	1	4
595.999	1	1
596.339	1	8
596.678	1	-8
597.018	1	8
597.358	1	-7
597.697	1	-5
598.037	1	0
598.376	1	-3
598.716	1	2
599.055	1	1
599.395	1	-6
599.734	1	7
600.074	1	2
600.413	1	2
600.753	1	8
601.092	1	-4
601.432	1	-5
601.771	1	6
602.111	1	-1
602.451	1	10
602.790	1	4
603.130	1	1
603.469	1	0
603.809	1	-1
604.148	1	2
604.487	1	2
604.827	1	-4
605.166	1	8
605.506	1	-5
605.845	1	4
606.185	1	4
606.524	1	-5
606.864	1	-2
607.203	1	-2
607.543	1	6
607.882	1	1
608.222	1	-2
608.561	1	6
608.901	1	0
609.240	1	0
609.579	1	3
609.919	1	-2
610.258	1	8
610.598	1	-5
610.937	1	-1
611.277	1	5
611.616	1	8
611.955	1	0
612.295	1	3
612.634	1	-5
612.974	1	1
613.313	1	-2
613.652	1	10
613.992	1	6
614.331	1	4
614.671	1	16
615.010	1	2
615.349	1	-1
615.689	1	8
616.028	1	1
616.368	1	5
616.707	1	-1
617.046	1	0
617.386	1	1
617.725	1	1
618.064	1	0
618.404	1	0
618.743	1	4
619.082	1	5
619.422	1	-4
619.761	1	-11
620.100	1	2
620.440	1	9
620.779	1	0
621.118	1	-4
621.458	1	1
621.797	1	3
622.136	1	-5
622.476	1	-1
622.815	1	7
623.154	1	8
623.494	1	-6
623.833	1	1
624.172	1	-1
624.511	1	3
624.851	1	-2
625.190	1	15
625.529	1	4
625.869	1	5
626.208	1	8
626.547	1	-5
626.886	1	6
627.226	1	-3
627.565	1	6
627.904	1	3
628.243	1	-13
628.583	1	-6
628.922	1	-13
629.261	1	0
629.600	1	1
629.940	1	-6
630.279	1	5
630.618	1	-2
630.957	1	5
631.297	1	2
631.636	1	5
631.975	1	-4
632.314	1	4
632.653	1	2
632.993	1	-3
633.332	1	-5
633.671	1	12
634.010	1	8
634.349	1	-3
634.689	1	6
635.028	1	-1
635.367	1	0
635.706	1	-2
636.045	1	2
636.384	1	-4
636.724	1	16
637.063	1	3
637.402	1	9
637.741	1	-4
638.080	1	1
638.419	1	-8
638.759	1	-5
639.098	1	-5
639.437	1	-4
639.776	1	2
640.115	1	4
640.454	1	-3
640.793	1	-2
641.132	1	2
641.472	1	6
641.811	1	16
642.150	1	-4
642.489	1	-3
642.828	1	0
643.167	1	-1
643.506	1	8
643.845	1	1
644.184	1	13
644.524	1	1
644.863	1	-8
645.202	1	14
645.541	1	12
645.880	1	9
646.219	1	-5
646.558	1	10
646.897	1	12
647.236	1	-12
647.575	1	-5
647.914	1	3
648.253	1	14
648.592	1	7
648.931	1	6
649.270	1	2
649.610	1	3
649.949	1	-6
650.288	1	9
650.627	1	2
650.966	1	7
651.305	1	-5
651.644	1	4
651.983	1	-1
652.322	1	2
652.661	1	-1
653.000	1	-4
653.339	1	-15
653.678	1	3
654.017	1	12
654.356	1	0
654.695	1	7
655.034	1	1
655.373	1	2
655.712	1	-8
656.051	1	7
656.390	1	-7
656.729	1	4
657.068	1	7
657.406	1	0
657.745	1	13
658.084	1	-4
658.423	1	1
658.762	1	1
659.101	1	7
659.440	1	12
659.779	1	4
660.118	1	8
660.457	1	0
660.796	1	-2
661.135	1	-13
661.474	1	8
661.813	1	-3
662.152	1	0
662.491	1	-10
662.829	1	-1
663.168	1	8
663.507	1	-4
663.846	1	-1
664.185	1	12
664.524	1	12
664.863	1	3
665.202	1	19
665.541	1	1
665.879	1	5
666.218	1	5
666.557	1	-6
666.896	1	-4
667.235	1	0
667.574	1	-4
667.913	1	2
668.251	1	4
668.590	1	7
668.929	1	12
669.268	1	0
669.607	1	5
669.946	1	1
670.285	1	15
670.623	1	1
670.962	1	-1
671.301	1	-5
671.640	1	8
671.979	1	0
672.317	1	-1
672.656	1	0
672.995	1	-9
673.334	1	2
673.673	1	-4
674.011	1	4
674.350	1	-1
674.689	1	0
675.028	1	0
675.367	1	-3
675.705	1	3
676.044	1	10
676.383	1	-5
676.722	1	20
677.060	1	3
677.399	1	2
677.738	1	6
678.077	1	10
678.416	1	-4
678.754	1	3
679.093	1	0
679.432	1	5
679.771	1	4
680.109	1	3
680.448	1	5
680.787	1	-3
681.125	1	5
681.464	1	-3
681.803	1	5
682.142	1	-1
682.480	1	9
682.819	1	-1
683.158	1	8
683.496	1	13
683.835	1	0
684.174	1	-6
684.512	1	-9
684.851	1	3
685.190	1	-10
685.529	1	3
685.867	1	6
686.206	1	4
686.545	1	5
686.883	1	0
687.222	1	9
687.561	1	-4
687.899	1	-5
688.238	1	-11
688.577	1	4
688.746	1	-2