File: Data/GaN_170K_550ms/GaN_sample D_spot 18_UVVIS_170 K_200um_550 ms 2x2mm1_206.txt
340.368	1	2
340.710	1	-5
341.052	1	-1
341.394	1	-2
341.737	1	2
342.079	1	4
342.421	1	2
342.763	1	14
343.105	1	6
343.447	1	-3
343.789	1	6
344.131	1	-5
344.473	1	1
344.815	1	12
345.157	1	8
345.499	1	-2
345.841	1	4
346.183	1	4
346.526	1	6
346.868	1	4
347.210	1	-2
347.552	1	7
347.894	1	6
348.236	1	-2
348.578	1	-1
348.920	1	-4
349.262	1	-1
349.604	1	0
349.946	1	9
350.288	1	1
350.630	1	3
350.972	1	-12
351.314	1	-1
351.656	1	4
351.998	1	5
352.340	1	9
352.682	1	7
353.024	1	1
353.366	1	-2
353.708	1	-1
354.050	1	-3
354.392	1	3
354.734	1	7
355.076	1	-1
355.418	1	0
355.760	1	-2
356.102	1	6
356.444	1	-8
356.785	1	8
357.127	1	-1
357.469	1	-1
357.811	1	3
358.153	1	13
358.495	1	9
358.837	1	10
359.179	1	-3
359.521	1	5
359.863	1	7
360.205	1	17
360.547	1	13
360.889	1	7
361.231	1	5
361.572	1	8
361.914	1	9
362.256	1	8
362.598	1	9
362.940	1	17
363.282	1	13
363.624	1	14
363.966	1	16
364.308	1	11
364.649	1	7
364.991	1	14
365.333	1	8
365.675	1	19
366.017	1	21
366.359	1	8
366.701	1	18
367.042	1	12
367.384	1	17
367.726	1	30
368.068	1	21
368.410	1	20
368.752	1	22
369.093	1	16
369.435	1	11
369.777	1	15
370.119	1	11
370.461	1	29
370.803	1	13
371.144	1	10
371.486	1	13
371.828	1	14
372.170	1	2
372.512	1	16
372.853	1	23
373.195	1	6
373.537	1	27
373.879	1	16
374.220	1	26
374.562	1	12
374.904	1	10
375.246	1	10
375.588	1	11
375.929	1	13
376.271	1	12
376.613	1	9
376.955	1	6
377.296	1	5
377.638	1	1
377.980	1	-6
378.321	1	12
378.663	1	7
379.005	1	2
379.347	1	7
379.688	1	11
380.030	1	9
380.372	1	17
380.714	1	15
381.055	1	7
381.397	1	4
381.739	1	-1
382.080	1	-6
382.422	1	1
382.764	1	1
383.105	1	10
383.447	1	6
383.789	1	11
384.130	1	5
384.472	1	4
384.814	1	9
385.156	1	2
385.497	1	16
385.839	1	0
386.180	1	12
386.522	1	5
386.864	1	10
387.205	1	-3
387.547	1	6
387.889	1	9
388.230	1	2
388.572	1	9
388.914	1	2
389.255	1	10
389.597	1	1
389.939	1	1
390.280	1	0
390.622	1	4
390.963	1	1
391.305	1	-2
391.647	1	-1
391.988	1	11
392.330	1	9
392.671	1	1
393.013	1	6
393.355	1	15
393.696	1	11
394.038	1	0
394.379	1	-3
394.721	1	2
395.062	1	-1
395.404	1	4
395.746	1	9
396.087	1	2
396.429	1	4
396.770	1	13
397.112	1	-3
397.453	1	7
397.795	1	0
398.136	1	4
398.478	1	10
398.819	1	0
399.161	1	5
399.503	1	3
399.844	1	-8
400.186	1	-1
400.527	1	14
400.869	1	0
401.210	1	7
401.552	1	4
401.893	1	10
402.235	1	3
402.576	1	3
402.918	1	6
403.259	1	-1
403.601	1	16
403.942	1	1
404.284	1	-9
404.625	1	-2
404.967	1	8
405.308	1	5
405.649	1	-5
405.991	1	1
406.332	1	1
406.674	1	2
407.015	1	2
407.357	1	-3
407.698	1	-2
408.040	1	1
408.381	1	3
408.722	1	0
409.064	1	-1
409.405	1	6
409.747	1	0
410.088	1	8
410.430	1	-1
410.771	1	5
411.112	1	7
411.454	1	-2
411.795	1	10
412.137	1	2
412.478	1	-5
412.819	1	-14
413.161	1	8
413.502	1	1
413.844	1	3
414.185	1	-4
414.526	1	6
414.868	1	-2
415.209	1	-16
415.550	1	-2
415.892	1	4
416.233	1	5
416.575	1	5
416.916	1	-6
417.257	1	8
417.599	1	1
417.940	1	3
418.281	1	-9
418.623	1	-3
418.964	1	3
419.305	1	7
419.647	1	11
419.988	1	1
420.329	1	9
420.671	1	-6
421.012	1	2
421.353	1	2
421.695	1	-9
422.036	1	8
422.377	1	3
422.718	1	9
423.060	1	-11
423.401	1	8
423.742	1	-8
424.084	1	19
424.425	1	-5
424.766	1	0
425.107	1	-4
425.449	1	3
425.790	1	7
426.131	1	12
426.472	1	1
426.814	1	1
427.155	1	19
427.496	1	4
427.837	1	12
428.179	1	2
428.520	1	1
428.861	1	11
429.202	1	-12
429.544	1	-11
429.885	1	3
430.226	1	1
430.567	1	7
430.909	1	-3
431.250	1	18
431.591	1	-1
431.932	1	-4
432.273	1	-10
432.615	1	1
432.956	1	0
433.297	1	2
433.638	1	13
433.979	1	-5
434.320	1	14
434.662	1	-7
435.003	1	-8
435.344	1	7
435.685	1	-1
436.026	1	3
436.368	1	2
436.709	1	7
437.050	1	-2
437.391	1	-4
437.732	1	4
438.073	1	2
438.414	1	-10
438.756	1	-6
439.097	1	4
439.438	1	3
439.779	1	11
440.120	1	-6
440.461	1	10
440.802	1	6
441.143	1	2
441.485	1	-2
441.826	1	7
442.167	1	5
442.508	1	-1
442.849	1	-3
443.190	1	6
443.531	1	2
443.872	1	-11
444.213	1	0
444.554	1	0
444.895	1	-7
445.237	1	-2
445.578	1	3
445.919	1	3
446.260	1	14
446.601	1	3
446.942	1	4
447.283	1	13
447.624	1	-4
447.965	1	-4
448.306	1	-8
448.647	1	1
448.988	1	12
449.329	1	-2
449.670	1	-18
450.011	1	5
450.352	1	3
450.693	1	8
451.034	1	-4
451.375	1	1
451.716	1	6
452.057	1	6
452.398	1	9
452.739	1	6
453.080	1	6
453.421	1	8
453.762	1	7
454.103	1	-3
454.444	1	-3
454.785	1	4
455.126	1	11
455.467	1	-8
455.808	1	12
456.149	1	4
456.490	1	3
456.831	1	-3
457.172	1	-3
457.513	1	12
457.854	1	8
458.195	1	-4
458.536	1	2
458.877	1	5
459.218	1	-2
459.559	1	-4
459.899	1	0
460.240	1	3
460.581	1	8
460.922	1	-8
461.263	1	-6
461.604	1	5
461.945	1	-2
462.286	1	-8
462.627	1	-2
462.968	1	4
463.309	1	7
463.649	1	5
463.990	1	-4
464.331	1	5
464.672	1	-5
465.013	1	16
465.354	1	-13
465.695	1	3
466.036	1	-9
466.376	1	10
466.717	1	0
467.058	1	1
467.399	1	5
467.740	1	1
468.081	1	1
468.422	1	9
468.762	1	13
469.103	1	10
469.444	1	-4
469.785	1	0
470.126	1	5
470.467	1	-1
470.807	1	2
471.148	1	-3
471.489	1	5
471.830	1	-5
472.171	1	1
472.511	1	5
472.852	1	9
473.193	1	4
473.534	1	6
473.875	1	4
474.215	1	2
474.556	1	7
474.897	1	-4
475.238	1	4
475.578	1	6
475.919	1	0
476.260	1	12
476.601	1	2
476.942	1	-7
477.282	1	6
477.623	1	4
477.964	1	-3
478.305	1	-3
478.645	1	-1
478.986	1	-2
479.327	1	-15
479.667	1	-6
480.008	1	6
480.349	1	4
480.690	1	2
481.030	1	5
481.371	1	3
481.712	1	7
482.053	1	1
482.393	1	-1
482.734	1	8
483.075	1	1
483.415	1	-6
483.756	1	8
484.097	1	-12
484.437	1	-4
484.778	1	-3
485.119	1	12
485.459	1	-5
485.800	1	0
486.141	1	12
486.481	1	8
486.822	1	5
487.163	1	7
487.503	1	3
487.844	1	11
488.185	1	2
488.525	1	14
488.866	1	7
489.207	1	7
489.547	1	15
489.888	1	6
490.228	1	5
490.569	1	7
490.910	1	4
491.250	1	3
491.591	1	2
491.932	1	9
492.272	1	8
492.613	1	9
492.953	1	8
493.294	1	4
493.635	1	4
493.975	1	3
494.316	1	8
494.656	1	7
494.997	1	0
495.337	1	7
495.678	1	3
496.019	1	-9
496.359	1	8
496.700	1	15
497.040	1	-2
497.381	1	13
497.721	1	-6
498.062	1	11
498.403	1	8
498.743	1	5
499.084	1	6
499.424	1	0
499.765	1	-10
500.105	1	-6
500.446	1	-2
500.786	1	3
501.127	1	4
501.467	1	0
501.808	1	-11
502.148	1	7
502.489	1	5
502.829	1	1
503.170	1	11
503.510	1	3
503.851	1	-2
504.191	1	-6
504.532	1	-11
504.872	1	-2
505.213	1	4
505.553	1	-6
505.894	1	14
506.234	1	-4
506.575	1	8
506.915	1	1
507.256	1	-2
507.596	1	1
507.936	1	6
508.277	1	-6
508.617	1	2
508.958	1	8
509.298	1	5
509.639	1	14
509.979	1	12
510.319	1	-2
510.660	1	-16
511.000	1	11
511.341	1	10
511.681	1	2
512.022	1	3
512.362	1	-2
512.702	1	-3
513.043	1	0
513.383	1	7
513.724	1	-2
514.064	1	11
514.404	1	1
514.745	1	-7
515.085	1	6
515.425	1	5
515.766	1	3
516.106	1	5
516.447	1	-5
516.787	1	2
517.127	1	5
517.468	1	8
517.808	1	10
518.148	1	5
518.489	1	5
518.829	1	2
519.169	1	-3
519.510	1	7
519.850	1	0
520.190	1	3
520.531	1	3
520.871	1	2
521.211	1	13
521.552	1	4
521.892	1	-1
522.232	1	-8
522.573	1	3
522.913	1	8
523.253	1	14
523.593	1	9
523.934	1	6
524.274	1	1
524.614	1	6
524.955	1	10
525.295	1	-3
525.635	1	16
525.975	1	-2
526.316	1	20
526.656	1	6
526.996	1	7
527.337	1	3
527.677	1	-2
528.017	1	6
528.357	1	2
528.698	1	-3
529.038	1	3
529.378	1	0
529.718	1	8
530.058	1	19
530.399	1	13
530.739	1	9
531.079	1	9
531.419	1	2
531.760	1	4
532.100	1	3
532.440	1	4
532.780	1	-5
533.120	1	-2
533.461	1	-1
533.801	1	6
534.141	1	-7
534.481	1	12
534.821	1	8
535.162	1	-2
535.502	1	9
535.842	1	-4
536.182	1	-1
536.522	1	12
536.862	1	11
537.203	1	2
537.543	1	1
537.883	1	5
538.223	1	4
538.563	1	10
538.903	1	8
539.243	1	-8
539.584	1	6
539.924	1	-7
540.264	1	9
540.604	1	7
540.944	1	-3
541.284	1	17
541.624	1	-1
541.964	1	7
542.305	1	2
542.645	1	-2
542.985	1	0
543.325	1	4
543.665	1	5
544.005	1	11
544.345	1	6
544.685	1	8
545.025	1	2
545.365	1	-4
545.705	1	11
546.045	1	5
546.386	1	-10
546.726	1	-5
547.066	1	21
547.406	1	-4
547.746	1	-8
548.086	1	-2
548.426	1	7
548.766	1	4
549.106	1	10
549.446	1	7
549.786	1	-6
550.126	1	2
550.466	1	2
550.806	1	4
551.146	1	2
551.486	1	6
551.826	1	3
552.166	1	1
552.506	1	10
552.846	1	5
553.186	1	5
553.526	1	1
553.866	1	-9
554.206	1	-3
554.546	1	6
554.886	1	-2
555.226	1	-8
555.566	1	3
555.906	1	-5
556.246	1	3
556.586	1	-3
556.926	1	8
557.266	1	10
557.606	1	-4
557.946	1	0
558.286	1	11
558.626	1	10
558.966	1	0
559.306	1	15
559.646	1	-5
559.986	1	1
560.325	1	7
560.665	1	2
561.005	1	-3
561.345	1	-5
561.685	1	5
562.025	1	-6
562.365	1	5
562.705	1	4
563.045	1	3
563.385	1	17
563.725	1	2
564.064	1	6
564.404	1	1
564.744	1	9
565.084	1	2
565.424	1	3
565.764	1	0
566.104	1	-2
566.444	1	4
566.783	1	0
567.123	1	3
567.463	1	2
567.803	1	8
568.143	1	2
568.483	1	-1
568.823	1	2
569.162	1	5
569.502	1	7
569.842	1	8
570.182	1	-2
570.522	1	2
570.862	1	-6
571.201	1	9
571.541	1	3
571.881	1	1
572.221	1	5
572.561	1	-7
572.900	1	-2
573.240	1	0
573.580	1	4
573.920	1	15
574.260	1	-2
574.599	1	-5
574.939	1	-8
575.279	1	2
575.619	1	7
575.959	1	-6
576.298	1	4
576.638	1	7
576.978	1	0
577.318	1	13
577.657	1	5
577.997	1	-7
578.337	1	0
578.677	1	9
579.016	1	8
579.356	1	4
579.696	1	-10
580.036	1	3
580.375	1	-3
580.715	1	10
581.055	1	1
581.394	1	5
581.734	1	9
582.074	1	7
582.414	1	-7
582.753	1	11
583.093	1	11
583.433	1	9
583.772	1	6
584.112	1	-2
584.452	1	-7
584.791	1	1
585.131	1	9
585.471	1	2
585.811	1	-8
586.150	1	0
586.490	1	4
586.830	1	-5
587.169	1	5
587.509	1	-5
587.849	1	7
588.188	1	3
588.528	1	-2
588.867	1	9
589.207	1	-2
589.547	1	-1
589.886	1	-4
590.226	1	2
590.566	1	0
590.905	1	4
591.245	1	-4
591.585	1	-3
591.924	1	1
592.264	1	-8
592.603	1	8
592.943	1	7
593.283	1	8
593.622	1	-1
593.962	1	12
594.301	1	6
594.641	1	5
594.981	1	7
595.320	1	-2
595.660	1	3
595.999	1	6
596.339	1	5
596.678	1	-3
597.018	1	-4
597.358	1	-7
597.697	1	2
598.037	1	0
598.376	1	-12
598.716	1	7
599.055	1	-1
599.395	1	-2
599.734	1	10
600.074	1	2
600.413	1	0
600.753	1	10
601.092	1	-1
601.432	1	-3
601.771	1	11
602.111	1	3
602.451	1	3
602.790	1	14
603.130	1	-2
603.469	1	5
603.809	1	2
604.148	1	3
604.487	1	2
604.827	1	-5
605.166	1	6
605.506	1	-2
605.845	1	4
606.185	1	9
606.524	1	-4
606.864	1	-1
607.203	1	7
607.543	1	11
607.882	1	1
608.222	1	-1
608.561	1	3
608.901	1	2
609.240	1	2
609.579	1	10
609.919	1	-6
610.258	1	2
610.598	1	10
610.937	1	4
611.277	1	10
611.616	1	0
611.955	1	11
612.295	1	-1
612.634	1	7
612.974	1	5
613.313	1	-1
613.652	1	10
613.992	1	0
614.331	1	5
614.671	1	0
615.010	1	2
615.349	1	3
615.689	1	12
616.028	1	-7
616.368	1	6
616.707	1	7
617.046	1	0
617.386	1	-3
617.725	1	2
618.064	1	3
618.404	1	-2
618.743	1	9
619.082	1	6
619.422	1	-4
619.761	1	0
620.100	1	-2
620.440	1	2
620.779	1	2
621.118	1	0
621.458	1	5
621.797	1	-6
622.136	1	5
622.476	1	3
622.815	1	2
623.154	1	3
623.494	1	-4
623.833	1	0
624.172	1	2
624.511	1	1
624.851	1	0
625.190	1	7
625.529	1	12
625.869	1	7
626.208	1	8
626.547	1	-1
626.886	1	6
627.226	1	1
627.565	1	-2
627.904	1	0
628.243	1	-6
628.583	1	-4
628.922	1	3
629.261	1	11
629.600	1	-2
629.940	1	-2
630.279	1	1
630.618	1	2
630.957	1	4
631.297	1	9
631.636	1	12
631.975	1	-2
632.314	1	4
632.653	1	10
632.993	1	7
633.332	1	4
633.671	1	-4
634.010	1	11
634.349	1	-4
634.689	1	8
635.028	1	4
635.367	1	-4
635.706	1	-3
636.045	1	15
636.384	1	-7
636.724	1	19
637.063	1	-3
637.402	1	7
637.741	1	-2
638.080	1	3
638.419	1	-3
638.759	1	8
639.098	1	-6
639.437	1	-4
639.776	1	-5
640.115	1	15
640.454	1	0
640.793	1	2
641.132	1	3
641.472	1	1
641.811	1	8
642.150	1	-4
642.489	1	-1
642.828	1	-6
643.167	1	1
643.506	1	10
643.845	1	8
644.184	1	2
644.524	1	-4
644.863	1	-8
645.202	1	9
645.541	1	4
645.880	1	15
646.219	1	3
646.558	1	7
646.897	1	11
647.236	1	1
647.575	1	3
647.914	1	6
648.253	1	-1
648.592	1	18
648.931	1	2
649.270	1	3
649.610	1	4
649.949	1	2
650.288	1	8
650.627	1	-2
650.966	1	11
651.305	1	-1
651.644	1	3
651.983	1	7
652.322	1	3
652.661	1	-6
653.000	1	-8
653.339	1	-5
653.678	1	9
654.017	1	11
654.356	1	2
654.695	1	3
655.034	1	-12
655.373	1	1
655.712	1	-3
656.051	1	6
656.390	1	1
656.729	1	7
657.068	1	2
657.406	1	2
657.745	1	12
658.084	1	-2
658.423	1	-1
658.762	1	0
659.101	1	10
659.440	1	7
659.779	1	0
660.118	1	13
660.457	1	3
660.796	1	-7
661.135	1	-9
661.474	1	9
661.813	1	-2
662.152	1	5
662.491	1	-12
662.829	1	0
663.168	1	-5
663.507	1	8
663.846	1	-3
664.185	1	7
664.524	1	-3
664.863	1	4
665.202	1	15
665.541	1	6
665.879	1	8
666.218	1	7
666.557	1	-2
666.896	1	-2
667.235	1	3
667.574	1	-6
667.913	1	-14
668.251	1	1
668.590	1	-1
668.929	1	1
669.268	1	-8
669.607	1	0
669.946	1	3
670.285	1	17
670.623	1	6
670.962	1	-3
671.301	1	1
671.640	1	4
671.979	1	5
672.317	1	1
672.656	1	-3
672.995	1	-2
673.334	1	-3
673.673	1	5
674.011	1	6
674.350	1	-6
674.689	1	10
675.028	1	-2
675.367	1	-1
675.705	1	6
676.044	1	14
676.383	1	4
676.722	1	15
677.060	1	0
677.399	1	3
677.738	1	8
678.077	1	12
678.416	1	-4
678.754	1	2
679.093	1	-3
679.432	1	12
679.771	1	3
680.109	1	3
680.448	1	1
680.787	1	-1
681.125	1	12
681.464	1	8
681.803	1	3
682.142	1	2
682.480	1	10
682.819	1	5
683.158	1	-2
683.496	1	2
683.835	1	-12
684.174	1	2
684.512	1	4
684.851	1	-8
685.190	1	-2
685.529	1	17
685.867	1	8
686.206	1	1
686.545	1	-1
686.883	1	-5
687.222	1	-4
687.561	1	-4
687.899	1	-7
688.238	1	1
688.577	1	10
688.746	1	-8