File: Data/GaN_170K_550ms/GaN_sample D_spot 18_UVVIS_170 K_200um_550 ms 2x2mm1_249.txt
340.368	1	-7
340.710	1	-13
341.052	1	3
341.394	1	4
341.737	1	1
342.079	1	-3
342.421	1	0
342.763	1	2
343.105	1	8
343.447	1	-6
343.789	1	8
344.131	1	0
344.473	1	7
344.815	1	14
345.157	1	-6
345.499	1	-4
345.841	1	8
346.183	1	4
346.526	1	12
346.868	1	8
347.210	1	-5
347.552	1	4
347.894	1	3
348.236	1	4
348.578	1	10
348.920	1	-1
349.262	1	4
349.604	1	7
349.946	1	10
350.288	1	4
350.630	1	6
350.972	1	0
351.314	1	9
351.656	1	-5
351.998	1	2
352.340	1	-1
352.682	1	3
353.024	1	-3
353.366	1	4
353.708	1	4
354.050	1	-5
354.392	1	5
354.734	1	-1
355.076	1	-2
355.418	1	-3
355.760	1	-6
356.102	1	3
356.444	1	-1
356.785	1	4
357.127	1	3
357.469	1	5
357.811	1	6
358.153	1	12
358.495	1	-4
358.837	1	3
359.179	1	2
359.521	1	2
359.863	1	12
360.205	1	13
360.547	1	2
360.889	1	1
361.231	1	3
361.572	1	14
361.914	1	10
362.256	1	7
362.598	1	6
362.940	1	17
363.282	1	5
363.624	1	6
363.966	1	9
364.308	1	18
364.649	1	-5
364.991	1	9
365.333	1	1
365.675	1	3
366.017	1	6
366.359	1	10
366.701	1	7
367.042	1	5
367.384	1	12
367.726	1	14
368.068	1	16
368.410	1	16
368.752	1	5
369.093	1	2
369.435	1	10
369.777	1	9
370.119	1	6
370.461	1	12
370.803	1	10
371.144	1	13
371.486	1	0
371.828	1	7
372.170	1	14
372.512	1	9
372.853	1	7
373.195	1	3
373.537	1	22
373.879	1	7
374.220	1	11
374.562	1	5
374.904	1	-2
375.246	1	15
375.588	1	2
375.929	1	2
376.271	1	8
376.613	1	8
376.955	1	15
377.296	1	-2
377.638	1	10
377.980	1	-4
378.321	1	3
378.663	1	7
379.005	1	-5
379.347	1	6
379.688	1	8
380.030	1	11
380.372	1	6
380.714	1	7
381.055	1	5
381.397	1	9
381.739	1	3
382.080	1	-3
382.422	1	4
382.764	1	3
383.105	1	9
383.447	1	5
383.789	1	16
384.130	1	-6
384.472	1	-10
384.814	1	12
385.156	1	3
385.497	1	12
385.839	1	-3
386.180	1	9
386.522	1	10
386.864	1	3
387.205	1	0
387.547	1	8
387.889	1	17
388.230	1	-7
388.572	1	15
388.914	1	3
389.255	1	4
389.597	1	2
389.939	1	0
390.280	1	4
390.622	1	2
390.963	1	-6
391.305	1	-1
391.647	1	0
391.988	1	10
392.330	1	7
392.671	1	-2
393.013	1	12
393.355	1	8
393.696	1	6
394.038	1	-5
394.379	1	-6
394.721	1	-7
395.062	1	2
395.404	1	15
395.746	1	8
396.087	1	12
396.429	1	0
396.770	1	5
397.112	1	-3
397.453	1	11
397.795	1	-10
398.136	1	6
398.478	1	2
398.819	1	11
399.161	1	-2
399.503	1	3
399.844	1	-5
400.186	1	1
400.527	1	18
400.869	1	3
401.210	1	12
401.552	1	2
401.893	1	13
402.235	1	6
402.576	1	-3
402.918	1	-6
403.259	1	5
403.601	1	5
403.942	1	12
404.284	1	-14
404.625	1	10
404.967	1	10
405.308	1	6
405.649	1	3
405.991	1	6
406.332	1	-12
406.674	1	6
407.015	1	4
407.357	1	-1
407.698	1	7
408.040	1	1
408.381	1	-5
408.722	1	-1
409.064	1	-1
409.405	1	1
409.747	1	5
410.088	1	4
410.430	1	-2
410.771	1	-5
411.112	1	2
411.454	1	3
411.795	1	12
412.137	1	-10
412.478	1	-4
412.819	1	-4
413.161	1	5
413.502	1	1
413.844	1	4
414.185	1	-2
414.526	1	10
414.868	1	-1
415.209	1	-6
415.550	1	3
415.892	1	5
416.233	1	-1
416.575	1	4
416.916	1	0
417.257	1	-1
417.599	1	5
417.940	1	3
418.281	1	-2
418.623	1	2
418.964	1	-11
419.305	1	4
419.647	1	4
419.988	1	6
420.329	1	3
420.671	1	0
421.012	1	-1
421.353	1	-4
421.695	1	-9
422.036	1	10
422.377	1	13
422.718	1	17
423.060	1	-6
423.401	1	-5
423.742	1	-2
424.084	1	12
424.425	1	-5
424.766	1	0
425.107	1	11
425.449	1	1
425.790	1	10
426.131	1	20
426.472	1	8
426.814	1	-12
427.155	1	15
427.496	1	-2
427.837	1	4
428.179	1	3
428.520	1	-4
428.861	1	5
429.202	1	-6
429.544	1	-1
429.885	1	3
430.226	1	5
430.567	1	13
430.909	1	-1
431.250	1	12
431.591	1	4
431.932	1	-7
432.273	1	1
432.615	1	1
432.956	1	11
433.297	1	-8
433.638	1	-1
433.979	1	7
434.320	1	8
434.662	1	-6
435.003	1	5
435.344	1	7
435.685	1	3
436.026	1	2
436.368	1	-5
436.709	1	3
437.050	1	-7
437.391	1	0
437.732	1	5
438.073	1	-2
438.414	1	-11
438.756	1	9
439.097	1	-4
439.438	1	2
439.779	1	10
440.120	1	6
440.461	1	15
440.802	1	6
441.143	1	-4
441.485	1	-10
441.826	1	2
442.167	1	3
442.508	1	-12
442.849	1	-2
443.190	1	7
443.531	1	2
443.872	1	-3
444.213	1	-2
444.554	1	1
444.895	1	-8
445.237	1	-11
445.578	1	-4
445.919	1	-2
446.260	1	8
446.601	1	-6
446.942	1	3
447.283	1	4
447.624	1	-5
447.965	1	2
448.306	1	3
448.647	1	2
448.988	1	6
449.329	1	6
449.670	1	-4
450.011	1	3
450.352	1	-3
450.693	1	1
451.034	1	-3
451.375	1	1
451.716	1	6
452.057	1	4
452.398	1	0
452.739	1	-7
453.080	1	-6
453.421	1	3
453.762	1	-3
454.103	1	-5
454.444	1	1
454.785	1	-2
455.126	1	16
455.467	1	2
455.808	1	17
456.149	1	0
456.490	1	2
456.831	1	-2
457.172	1	-4
457.513	1	9
457.854	1	3
458.195	1	9
458.536	1	-10
458.877	1	6
459.218	1	-5
459.559	1	3
459.899	1	-8
460.240	1	7
460.581	1	7
460.922	1	1
461.263	1	-1
461.604	1	7
461.945	1	2
462.286	1	0
462.627	1	8
462.968	1	7
463.309	1	3
463.649	1	5
463.990	1	3
464.331	1	-1
464.672	1	-4
465.013	1	16
465.354	1	-2
465.695	1	5
466.036	1	-2
466.376	1	-1
466.717	1	0
467.058	1	5
467.399	1	12
467.740	1	-5
468.081	1	-2
468.422	1	-2
468.762	1	10
469.103	1	5
469.444	1	1
469.785	1	-1
470.126	1	11
470.467	1	4
470.807	1	4
471.148	1	2
471.489	1	2
471.830	1	-4
472.171	1	6
472.511	1	0
472.852	1	10
473.193	1	13
473.534	1	6
473.875	1	2
474.215	1	-3
474.556	1	0
474.897	1	4
475.238	1	-5
475.578	1	2
475.919	1	5
476.260	1	15
476.601	1	6
476.942	1	-13
477.282	1	-1
477.623	1	14
477.964	1	5
478.305	1	-2
478.645	1	2
478.986	1	-1
479.327	1	-9
479.667	1	-5
480.008	1	10
480.349	1	9
480.690	1	8
481.030	1	3
481.371	1	-2
481.712	1	1
482.053	1	-7
482.393	1	-2
482.734	1	3
483.075	1	0
483.415	1	-1
483.756	1	6
484.097	1	-11
484.437	1	4
484.778	1	-1
485.119	1	2
485.459	1	-1
485.800	1	-5
486.141	1	2
486.481	1	2
486.822	1	2
487.163	1	1
487.503	1	3
487.844	1	5
488.185	1	0
488.525	1	8
488.866	1	6
489.207	1	11
489.547	1	2
489.888	1	2
490.228	1	-5
490.569	1	-3
490.910	1	6
491.250	1	5
491.591	1	-7
491.932	1	-3
492.272	1	8
492.613	1	9
492.953	1	2
493.294	1	1
493.635	1	-3
493.975	1	10
494.316	1	-7
494.656	1	11
494.997	1	0
495.337	1	12
495.678	1	1
496.019	1	-11
496.359	1	5
496.700	1	9
497.040	1	1
497.381	1	7
497.721	1	-7
498.062	1	-1
498.403	1	4
498.743	1	3
499.084	1	3
499.424	1	6
499.765	1	-7
500.105	1	-4
500.446	1	-2
500.786	1	-4
501.127	1	2
501.467	1	-7
501.808	1	-3
502.148	1	13
502.489	1	-1
502.829	1	-1
503.170	1	7
503.510	1	3
503.851	1	2
504.191	1	-10
504.532	1	-11
504.872	1	4
505.213	1	-3
505.553	1	1
505.894	1	8
506.234	1	-7
506.575	1	6
506.915	1	5
507.256	1	-6
507.596	1	7
507.936	1	14
508.277	1	-2
508.617	1	3
508.958	1	0
509.298	1	-2
509.639	1	16
509.979	1	5
510.319	1	-4
510.660	1	-13
511.000	1	13
511.341	1	14
511.681	1	3
512.022	1	0
512.362	1	-3
512.702	1	-8
513.043	1	1
513.383	1	8
513.724	1	-3
514.064	1	5
514.404	1	-3
514.745	1	6
515.085	1	6
515.425	1	10
515.766	1	3
516.106	1	1
516.447	1	6
516.787	1	7
517.127	1	-1
517.468	1	-4
517.808	1	9
518.148	1	2
518.489	1	7
518.829	1	7
519.169	1	1
519.510	1	7
519.850	1	1
520.190	1	3
520.531	1	10
520.871	1	-4
521.211	1	-2
521.552	1	2
521.892	1	4
522.232	1	-4
522.573	1	2
522.913	1	8
523.253	1	8
523.593	1	3
523.934	1	7
524.274	1	5
524.614	1	3
524.955	1	-4
525.295	1	4
525.635	1	11
525.975	1	2
526.316	1	12
526.656	1	12
526.996	1	3
527.337	1	6
527.677	1	-6
528.017	1	3
528.357	1	-1
528.698	1	-3
529.038	1	3
529.378	1	3
529.718	1	8
530.058	1	12
530.399	1	10
530.739	1	3
531.079	1	8
531.419	1	8
531.760	1	5
532.100	1	-3
532.440	1	6
532.780	1	-10
533.120	1	0
533.461	1	-5
533.801	1	1
534.141	1	1
534.481	1	14
534.821	1	10
535.162	1	1
535.502	1	2
535.842	1	9
536.182	1	0
536.522	1	10
536.862	1	13
537.203	1	7
537.543	1	-9
537.883	1	12
538.223	1	-1
538.563	1	7
538.903	1	6
539.243	1	1
539.584	1	3
539.924	1	-1
540.264	1	12
540.604	1	-1
540.944	1	-4
541.284	1	4
541.624	1	-3
541.964	1	11
542.305	1	-1
542.645	1	-2
542.985	1	4
543.325	1	0
543.665	1	1
544.005	1	13
544.345	1	3
544.685	1	1
545.025	1	2
545.365	1	3
545.705	1	3
546.045	1	2
546.386	1	-2
546.726	1	-4
547.066	1	14
547.406	1	7
547.746	1	-10
548.086	1	3
548.426	1	3
548.766	1	6
549.106	1	10
549.446	1	8
549.786	1	1
550.126	1	4
550.466	1	0
550.806	1	-2
551.146	1	5
551.486	1	1
551.826	1	2
552.166	1	3
552.506	1	8
552.846	1	2
553.186	1	9
553.526	1	2
553.866	1	-1
554.206	1	4
554.546	1	-6
554.886	1	0
555.226	1	5
555.566	1	7
555.906	1	-2
556.246	1	9
556.586	1	-1
556.926	1	4
557.266	1	4
557.606	1	2
557.946	1	4
558.286	1	-1
558.626	1	13
558.966	1	6
559.306	1	12
559.646	1	-5
559.986	1	5
560.325	1	-4
560.665	1	-1
561.005	1	1
561.345	1	-3
561.685	1	3
562.025	1	-6
562.365	1	0
562.705	1	12
563.045	1	-6
563.385	1	13
563.725	1	-6
564.064	1	4
564.404	1	0
564.744	1	4
565.084	1	10
565.424	1	1
565.764	1	8
566.104	1	-1
566.444	1	1
566.783	1	3
567.123	1	12
567.463	1	3
567.803	1	17
568.143	1	-7
568.483	1	2
568.823	1	6
569.162	1	-1
569.502	1	4
569.842	1	-5
570.182	1	-2
570.522	1	6
570.862	1	1
571.201	1	5
571.541	1	-1
571.881	1	-10
572.221	1	3
572.561	1	2
572.900	1	-11
573.240	1	0
573.580	1	-6
573.920	1	-1
574.260	1	9
574.599	1	-3
574.939	1	-6
575.279	1	5
575.619	1	6
575.959	1	-6
576.298	1	8
576.638	1	2
576.978	1	-1
577.318	1	4
577.657	1	-5
577.997	1	-5
578.337	1	8
578.677	1	3
579.016	1	8
579.356	1	5
579.696	1	1
580.036	1	-8
580.375	1	-3
580.715	1	-1
581.055	1	-4
581.394	1	2
581.734	1	10
582.074	1	-3
582.414	1	-3
582.753	1	-8
583.093	1	9
583.433	1	6
583.772	1	2
584.112	1	3
584.452	1	-3
584.791	1	-9
585.131	1	12
585.471	1	10
585.811	1	-4
586.150	1	-15
586.490	1	8
586.830	1	-5
587.169	1	12
587.509	1	4
587.849	1	-2
588.188	1	4
588.528	1	-11
588.867	1	-4
589.207	1	0
589.547	1	1
589.886	1	-9
590.226	1	1
590.566	1	5
590.905	1	-1
591.245	1	-5
591.585	1	4
591.924	1	1
592.264	1	1
592.603	1	3
592.943	1	-4
593.283	1	3
593.622	1	1
593.962	1	10
594.301	1	14
594.641	1	3
594.981	1	8
595.320	1	-1
595.660	1	0
595.999	1	0
596.339	1	11
596.678	1	-3
597.018	1	4
597.358	1	-2
597.697	1	0
598.037	1	7
598.376	1	-7
598.716	1	-3
599.055	1	0
599.395	1	8
599.734	1	18
600.074	1	-1
600.413	1	-1
600.753	1	4
601.092	1	3
601.432	1	-3
601.771	1	9
602.111	1	-3
602.451	1	0
602.790	1	1
603.130	1	-13
603.469	1	5
603.809	1	1
604.148	1	11
604.487	1	7
604.827	1	-3
605.166	1	3
605.506	1	3
605.845	1	2
606.185	1	13
606.524	1	-9
606.864	1	3
607.203	1	7
607.543	1	5
607.882	1	-2
608.222	1	-3
608.561	1	2
608.901	1	2
609.240	1	1
609.579	1	4
609.919	1	-5
610.258	1	6
610.598	1	3
610.937	1	3
611.277	1	-5
611.616	1	2
611.955	1	5
612.295	1	-2
612.634	1	2
612.974	1	-2
613.313	1	0
613.652	1	12
613.992	1	-5
614.331	1	-1
614.671	1	-5
615.010	1	8
615.349	1	11
615.689	1	10
616.028	1	2
616.368	1	-2
616.707	1	14
617.046	1	-3
617.386	1	-3
617.725	1	8
618.064	1	-9
618.404	1	1
618.743	1	9
619.082	1	7
619.422	1	-4
619.761	1	-1
620.100	1	3
620.440	1	4
620.779	1	2
621.118	1	-10
621.458	1	-4
621.797	1	2
622.136	1	0
622.476	1	-9
622.815	1	5
623.154	1	3
623.494	1	10
623.833	1	7
624.172	1	-2
624.511	1	9
624.851	1	2
625.190	1	6
625.529	1	14
625.869	1	14
626.208	1	0
626.547	1	-5
626.886	1	-2
627.226	1	4
627.565	1	3
627.904	1	0
628.243	1	-1
628.583	1	-4
628.922	1	-6
629.261	1	8
629.600	1	-6
629.940	1	-3
630.279	1	0
630.618	1	-3
630.957	1	1
631.297	1	-7
631.636	1	8
631.975	1	2
632.314	1	9
632.653	1	18
632.993	1	-3
633.332	1	8
633.671	1	9
634.010	1	6
634.349	1	-2
634.689	1	3
635.028	1	4
635.367	1	-4
635.706	1	-4
636.045	1	7
636.384	1	-6
636.724	1	10
637.063	1	4
637.402	1	5
637.741	1	1
638.080	1	1
638.419	1	-4
638.759	1	6
639.098	1	-12
639.437	1	-10
639.776	1	-1
640.115	1	9
640.454	1	5
640.793	1	2
641.132	1	-5
641.472	1	-6
641.811	1	4
642.150	1	0
642.489	1	-13
642.828	1	-11
643.167	1	-9
643.506	1	13
643.845	1	6
644.184	1	14
644.524	1	4
644.863	1	-8
645.202	1	4
645.541	1	4
645.880	1	6
646.219	1	3
646.558	1	4
646.897	1	9
647.236	1	-3
647.575	1	-9
647.914	1	-4
648.253	1	-4
648.592	1	3
648.931	1	2
649.270	1	4
649.610	1	7
649.949	1	-4
650.288	1	7
650.627	1	2
650.966	1	5
651.305	1	-1
651.644	1	8
651.983	1	5
652.322	1	3
652.661	1	0
653.000	1	-5
653.339	1	-1
653.678	1	15
654.017	1	5
654.356	1	2
654.695	1	3
655.034	1	1
655.373	1	0
655.712	1	-7
656.051	1	0
656.390	1	6
656.729	1	-2
657.068	1	9
657.406	1	-2
657.745	1	-2
658.084	1	-12
658.423	1	2
658.762	1	1
659.101	1	2
659.440	1	6
659.779	1	5
660.118	1	6
660.457	1	9
660.796	1	4
661.135	1	-12
661.474	1	7
661.813	1	-2
662.152	1	-3
662.491	1	-8
662.829	1	1
663.168	1	11
663.507	1	-2
663.846	1	-5
664.185	1	7
664.524	1	-2
664.863	1	9
665.202	1	16
665.541	1	0
665.879	1	6
666.218	1	1
666.557	1	1
666.896	1	0
667.235	1	1
667.574	1	-7
667.913	1	-8
668.251	1	5
668.590	1	-3
668.929	1	5
669.268	1	-2
669.607	1	-3
669.946	1	2
670.285	1	8
670.623	1	0
670.962	1	-2
671.301	1	2
671.640	1	8
671.979	1	6
672.317	1	7
672.656	1	3
672.995	1	-5
673.334	1	-5
673.673	1	4
674.011	1	9
674.350	1	-8
674.689	1	1
675.028	1	-3
675.367	1	1
675.705	1	10
676.044	1	14
676.383	1	6
676.722	1	14
677.060	1	-4
677.399	1	2
677.738	1	-4
678.077	1	21
678.416	1	-9
678.754	1	12
679.093	1	0
679.432	1	0
679.771	1	2
680.109	1	3
680.448	1	-4
680.787	1	2
681.125	1	7
681.464	1	1
681.803	1	9
682.142	1	-7
682.480	1	-2
682.819	1	6
683.158	1	-4
683.496	1	0
683.835	1	-2
684.174	1	0
684.512	1	-5
684.851	1	-8
685.190	1	-1
685.529	1	21
685.867	1	9
686.206	1	1
686.545	1	4
686.883	1	-4
687.222	1	5
687.561	1	4
687.899	1	-10
688.238	1	-5
688.577	1	12
688.746	1	-8