File: Data/GaN_170K_550ms/GaN_sample D_spot 18_UVVIS_170 K_200um_550 ms 2x2mm1_373.txt
340.368	1	1
340.710	1	-6
341.052	1	0
341.394	1	-2
341.737	1	-7
342.079	1	-6
342.421	1	0
342.763	1	12
343.105	1	9
343.447	1	-12
343.789	1	0
344.131	1	4
344.473	1	4
344.815	1	15
345.157	1	1
345.499	1	0
345.841	1	0
346.183	1	6
346.526	1	-4
346.868	1	4
347.210	1	-9
347.552	1	8
347.894	1	-6
348.236	1	-4
348.578	1	1
348.920	1	-4
349.262	1	3
349.604	1	1
349.946	1	6
350.288	1	0
350.630	1	9
350.972	1	-4
351.314	1	6
351.656	1	-12
351.998	1	-1
352.340	1	5
352.682	1	0
353.024	1	-2
353.366	1	-1
353.708	1	9
354.050	1	-3
354.392	1	-2
354.734	1	1
355.076	1	2
355.418	1	2
355.760	1	-4
356.102	1	-1
356.444	1	4
356.785	1	0
357.127	1	-4
357.469	1	4
357.811	1	2
358.153	1	8
358.495	1	-5
358.837	1	1
359.179	1	-7
359.521	1	8
359.863	1	-3
360.205	1	7
360.547	1	4
360.889	1	-2
361.231	1	12
361.572	1	7
361.914	1	-10
362.256	1	4
362.598	1	4
362.940	1	11
363.282	1	5
363.624	1	5
363.966	1	1
364.308	1	8
364.649	1	-8
364.991	1	7
365.333	1	0
365.675	1	8
366.017	1	1
366.359	1	-4
366.701	1	5
367.042	1	-1
367.384	1	14
367.726	1	9
368.068	1	10
368.410	1	10
368.752	1	6
369.093	1	-9
369.435	1	-5
369.777	1	8
370.119	1	2
370.461	1	0
370.803	1	-2
371.144	1	-1
371.486	1	-8
371.828	1	9
372.170	1	4
372.512	1	-1
372.853	1	3
373.195	1	6
373.537	1	13
373.879	1	9
374.220	1	6
374.562	1	-3
374.904	1	-3
375.246	1	3
375.588	1	1
375.929	1	1
376.271	1	4
376.613	1	3
376.955	1	12
377.296	1	11
377.638	1	1
377.980	1	-4
378.321	1	3
378.663	1	0
379.005	1	-2
379.347	1	6
379.688	1	-4
380.030	1	10
380.372	1	0
380.714	1	13
381.055	1	1
381.397	1	6
381.739	1	-8
382.080	1	-13
382.422	1	-1
382.764	1	-6
383.105	1	9
383.447	1	8
383.789	1	15
384.130	1	1
384.472	1	-5
384.814	1	7
385.156	1	1
385.497	1	11
385.839	1	-3
386.180	1	2
386.522	1	5
386.864	1	1
387.205	1	-6
387.547	1	-2
387.889	1	3
388.230	1	6
388.572	1	-4
388.914	1	5
389.255	1	9
389.597	1	-2
389.939	1	-8
390.280	1	-4
390.622	1	0
390.963	1	-5
391.305	1	8
391.647	1	-13
391.988	1	6
392.330	1	10
392.671	1	-10
393.013	1	-11
393.355	1	-3
393.696	1	6
394.038	1	-2
394.379	1	2
394.721	1	-2
395.062	1	-3
395.404	1	11
395.746	1	14
396.087	1	9
396.429	1	-2
396.770	1	4
397.112	1	-3
397.453	1	0
397.795	1	-16
398.136	1	-3
398.478	1	3
398.819	1	-2
399.161	1	-10
399.503	1	-1
399.844	1	-7
400.186	1	-2
400.527	1	14
400.869	1	2
401.210	1	6
401.552	1	3
401.893	1	9
402.235	1	5
402.576	1	-7
402.918	1	0
403.259	1	-3
403.601	1	3
403.942	1	1
404.284	1	-10
404.625	1	-2
404.967	1	2
405.308	1	3
405.649	1	-6
405.991	1	8
406.332	1	-14
406.674	1	12
407.015	1	3
407.357	1	-5
407.698	1	0
408.040	1	0
408.381	1	-4
408.722	1	-3
409.064	1	-8
409.405	1	-2
409.747	1	0
410.088	1	12
410.430	1	-8
410.771	1	9
411.112	1	5
411.454	1	11
411.795	1	7
412.137	1	-9
412.478	1	-3
412.819	1	-10
413.161	1	6
413.502	1	-1
413.844	1	13
414.185	1	1
414.526	1	5
414.868	1	-7
415.209	1	-16
415.550	1	-5
415.892	1	3
416.233	1	-5
416.575	1	-7
416.916	1	-2
417.257	1	4
417.599	1	-10
417.940	1	2
418.281	1	-4
418.623	1	0
418.964	1	-4
419.305	1	4
419.647	1	10
419.988	1	8
420.329	1	-1
420.671	1	-8
421.012	1	0
421.353	1	0
421.695	1	-7
422.036	1	4
422.377	1	8
422.718	1	-6
423.060	1	-13
423.401	1	-3
423.742	1	-2
424.084	1	18
424.425	1	-10
424.766	1	-11
425.107	1	-1
425.449	1	8
425.790	1	5
426.131	1	3
426.472	1	0
426.814	1	-6
427.155	1	13
427.496	1	-2
427.837	1	0
428.179	1	2
428.520	1	-5
428.861	1	5
429.202	1	-5
429.544	1	-9
429.885	1	-3
430.226	1	0
430.567	1	0
430.909	1	-1
431.250	1	2
431.591	1	-5
431.932	1	-5
432.273	1	-1
432.615	1	-2
432.956	1	3
433.297	1	-3
433.638	1	3
433.979	1	9
434.320	1	2
434.662	1	-11
435.003	1	12
435.344	1	4
435.685	1	-6
436.026	1	-6
436.368	1	5
436.709	1	1
437.050	1	-4
437.391	1	-11
437.732	1	0
438.073	1	3
438.414	1	0
438.756	1	-5
439.097	1	1
439.438	1	6
439.779	1	8
440.120	1	8
440.461	1	19
440.802	1	6
441.143	1	-1
441.485	1	-7
441.826	1	5
442.167	1	-5
442.508	1	-1
442.849	1	-9
443.190	1	-2
443.531	1	5
443.872	1	0
444.213	1	-4
444.554	1	2
444.895	1	-19
445.237	1	-7
445.578	1	8
445.919	1	-4
446.260	1	-3
446.601	1	-7
446.942	1	8
447.283	1	8
447.624	1	0
447.965	1	0
448.306	1	-5
448.647	1	1
448.988	1	6
449.329	1	3
449.670	1	-13
450.011	1	5
450.352	1	-2
450.693	1	-5
451.034	1	-2
451.375	1	10
451.716	1	2
452.057	1	5
452.398	1	-1
452.739	1	6
453.080	1	0
453.421	1	0
453.762	1	-4
454.103	1	-5
454.444	1	-9
454.785	1	-8
455.126	1	9
455.467	1	-8
455.808	1	7
456.149	1	-2
456.490	1	-1
456.831	1	-3
457.172	1	1
457.513	1	-1
457.854	1	-3
458.195	1	-5
458.536	1	-2
458.877	1	-3
459.218	1	-3
459.559	1	-1
459.899	1	-15
460.240	1	5
460.581	1	3
460.922	1	-4
461.263	1	-1
461.604	1	-2
461.945	1	1
462.286	1	-2
462.627	1	13
462.968	1	4
463.309	1	0
463.649	1	8
463.990	1	4
464.331	1	-1
464.672	1	-5
465.013	1	-3
465.354	1	-5
465.695	1	3
466.036	1	-7
466.376	1	-1
466.717	1	-1
467.058	1	0
467.399	1	8
467.740	1	6
468.081	1	0
468.422	1	5
468.762	1	1
469.103	1	2
469.444	1	3
469.785	1	-6
470.126	1	-1
470.467	1	1
470.807	1	1
471.148	1	-12
471.489	1	-2
471.830	1	4
472.171	1	12
472.511	1	3
472.852	1	-2
473.193	1	9
473.534	1	0
473.875	1	-8
474.215	1	4
474.556	1	-4
474.897	1	-3
475.238	1	-3
475.578	1	2
475.919	1	5
476.260	1	13
476.601	1	-6
476.942	1	-9
477.282	1	6
477.623	1	10
477.964	1	1
478.305	1	-4
478.645	1	0
478.986	1	-5
479.327	1	-8
479.667	1	-5
480.008	1	8
480.349	1	-2
480.690	1	3
481.030	1	4
481.371	1	-3
481.712	1	-1
482.053	1	-8
482.393	1	-6
482.734	1	6
483.075	1	1
483.415	1	3
483.756	1	-1
484.097	1	-1
484.437	1	-3
484.778	1	-12
485.119	1	-2
485.459	1	-6
485.800	1	2
486.141	1	12
486.481	1	0
486.822	1	3
487.163	1	3
487.503	1	-2
487.844	1	-9
488.185	1	-1
488.525	1	3
488.866	1	8
489.207	1	13
489.547	1	13
489.888	1	1
490.228	1	-7
490.569	1	0
490.910	1	0
491.250	1	9
491.591	1	0
491.932	1	-5
492.272	1	-1
492.613	1	8
492.953	1	-2
493.294	1	-6
493.635	1	-4
493.975	1	13
494.316	1	-2
494.656	1	0
494.997	1	-2
495.337	1	6
495.678	1	3
496.019	1	-9
496.359	1	3
496.700	1	13
497.040	1	6
497.381	1	5
497.721	1	0
498.062	1	-3
498.403	1	2
498.743	1	-2
499.084	1	3
499.424	1	9
499.765	1	-17
500.105	1	4
500.446	1	-10
500.786	1	-7
501.127	1	-5
501.467	1	-4
501.808	1	1
502.148	1	0
502.489	1	6
502.829	1	2
503.170	1	10
503.510	1	-3
503.851	1	-10
504.191	1	-9
504.532	1	-11
504.872	1	5
505.213	1	-11
505.553	1	-7
505.894	1	7
506.234	1	4
506.575	1	-3
506.915	1	-5
507.256	1	-9
507.596	1	-2
507.936	1	11
508.277	1	-2
508.617	1	11
508.958	1	-3
509.298	1	-2
509.639	1	3
509.979	1	-2
510.319	1	-1
510.660	1	-12
511.000	1	0
511.341	1	8
511.681	1	-3
512.022	1	4
512.362	1	-3
512.702	1	-10
513.043	1	-3
513.383	1	9
513.724	1	-6
514.064	1	7
514.404	1	-10
514.745	1	-3
515.085	1	6
515.425	1	-1
515.766	1	5
516.106	1	10
516.447	1	-9
516.787	1	5
517.127	1	6
517.468	1	2
517.808	1	-1
518.148	1	1
518.489	1	6
518.829	1	4
519.169	1	-3
519.510	1	7
519.850	1	4
520.190	1	3
520.531	1	9
520.871	1	-8
521.211	1	-3
521.552	1	-1
521.892	1	-4
522.232	1	-2
522.573	1	4
522.913	1	2
523.253	1	11
523.593	1	-1
523.934	1	1
524.274	1	-5
524.614	1	9
524.955	1	-8
525.295	1	0
525.635	1	5
525.975	1	0
526.316	1	1
526.656	1	11
526.996	1	0
527.337	1	-4
527.677	1	0
528.017	1	0
528.357	1	-6
528.698	1	-11
529.038	1	-6
529.378	1	2
529.718	1	16
530.058	1	-2
530.399	1	2
530.739	1	-1
531.079	1	7
531.419	1	11
531.760	1	5
532.100	1	-2
532.440	1	3
532.780	1	-8
533.120	1	12
533.461	1	-1
533.801	1	5
534.141	1	-7
534.481	1	7
534.821	1	7
535.162	1	6
535.502	1	0
535.842	1	2
536.182	1	2
536.522	1	1
536.862	1	12
537.203	1	11
537.543	1	-1
537.883	1	-1
538.223	1	1
538.563	1	-5
538.903	1	4
539.243	1	-3
539.584	1	-2
539.924	1	-2
540.264	1	7
540.604	1	0
540.944	1	1
541.284	1	-1
541.624	1	-4
541.964	1	6
542.305	1	2
542.645	1	0
542.985	1	8
543.325	1	6
543.665	1	7
544.005	1	17
544.345	1	8
544.685	1	1
545.025	1	-1
545.365	1	1
545.705	1	8
546.045	1	0
546.386	1	1
546.726	1	-11
547.066	1	13
547.406	1	1
547.746	1	1
548.086	1	2
548.426	1	14
548.766	1	-5
549.106	1	12
549.446	1	4
549.786	1	-3
550.126	1	4
550.466	1	1
550.806	1	-2
551.146	1	2
551.486	1	1
551.826	1	9
552.166	1	-7
552.506	1	11
552.846	1	7
553.186	1	11
553.526	1	-8
553.866	1	-12
554.206	1	2
554.546	1	-5
554.886	1	-10
555.226	1	-9
555.566	1	5
555.906	1	-6
556.246	1	-1
556.586	1	4
556.926	1	4
557.266	1	5
557.606	1	-2
557.946	1	1
558.286	1	1
558.626	1	11
558.966	1	4
559.306	1	13
559.646	1	-3
559.986	1	9
560.325	1	-7
560.665	1	-4
561.005	1	2
561.345	1	-10
561.685	1	2
562.025	1	-8
562.365	1	3
562.705	1	13
563.045	1	6
563.385	1	4
563.725	1	-6
564.064	1	12
564.404	1	-6
564.744	1	4
565.084	1	3
565.424	1	-9
565.764	1	4
566.104	1	-1
566.444	1	0
566.783	1	-5
567.123	1	4
567.463	1	-14
567.803	1	-2
568.143	1	-4
568.483	1	-4
568.823	1	-1
569.162	1	8
569.502	1	7
569.842	1	-5
570.182	1	-9
570.522	1	6
570.862	1	5
571.201	1	6
571.541	1	4
571.881	1	2
572.221	1	9
572.561	1	2
572.900	1	3
573.240	1	7
573.580	1	-9
573.920	1	16
574.260	1	0
574.599	1	-1
574.939	1	-10
575.279	1	-7
575.619	1	8
575.959	1	-10
576.298	1	2
576.638	1	2
576.978	1	-5
577.318	1	-4
577.657	1	7
577.997	1	-4
578.337	1	4
578.677	1	-4
579.016	1	-3
579.356	1	-10
579.696	1	-4
580.036	1	-3
580.375	1	-4
580.715	1	4
581.055	1	2
581.394	1	5
581.734	1	14
582.074	1	-3
582.414	1	-3
582.753	1	5
583.093	1	-7
583.433	1	9
583.772	1	-3
584.112	1	7
584.452	1	-9
584.791	1	-8
585.131	1	6
585.471	1	5
585.811	1	-7
586.150	1	-2
586.490	1	2
586.830	1	-13
587.169	1	18
587.509	1	4
587.849	1	-1
588.188	1	-4
588.528	1	2
588.867	1	0
589.207	1	-3
589.547	1	4
589.886	1	-8
590.226	1	1
590.566	1	6
590.905	1	5
591.245	1	-3
591.585	1	-1
591.924	1	-1
592.264	1	-13
592.603	1	5
592.943	1	5
593.283	1	1
593.622	1	-16
593.962	1	10
594.301	1	2
594.641	1	2
594.981	1	11
595.320	1	0
595.660	1	1
595.999	1	7
596.339	1	-5
596.678	1	-2
597.018	1	1
597.358	1	-4
597.697	1	-2
598.037	1	1
598.376	1	-16
598.716	1	4
599.055	1	7
599.395	1	-3
599.734	1	8
600.074	1	-9
600.413	1	-16
600.753	1	1
601.092	1	8
601.432	1	-7
601.771	1	13
602.111	1	-4
602.451	1	3
602.790	1	15
603.130	1	-13
603.469	1	-11
603.809	1	1
604.148	1	2
604.487	1	-2
604.827	1	-15
605.166	1	5
605.506	1	0
605.845	1	6
606.185	1	3
606.524	1	-12
606.864	1	-8
607.203	1	8
607.543	1	7
607.882	1	1
608.222	1	-2
608.561	1	15
608.901	1	-2
609.240	1	-3
609.579	1	6
609.919	1	-4
610.258	1	0
610.598	1	-3
610.937	1	0
611.277	1	-1
611.616	1	-6
611.955	1	-1
612.295	1	-4
612.634	1	0
612.974	1	-9
613.313	1	-7
613.652	1	9
613.992	1	-2
614.331	1	0
614.671	1	4
615.010	1	6
615.349	1	6
615.689	1	8
616.028	1	1
616.368	1	-2
616.707	1	14
617.046	1	-9
617.386	1	-5
617.725	1	5
618.064	1	3
618.404	1	1
618.743	1	6
619.082	1	8
619.422	1	-11
619.761	1	-6
620.100	1	1
620.440	1	5
620.779	1	-3
621.118	1	-1
621.458	1	-3
621.797	1	-5
622.136	1	5
622.476	1	-7
622.815	1	5
623.154	1	-4
623.494	1	2
623.833	1	-4
624.172	1	-2
624.511	1	3
624.851	1	-3
625.190	1	5
625.529	1	12
625.869	1	12
626.208	1	1
626.547	1	-11
626.886	1	13
627.226	1	5
627.565	1	3
627.904	1	-1
628.243	1	-3
628.583	1	-3
628.922	1	-7
629.261	1	1
629.600	1	1
629.940	1	-6
630.279	1	-1
630.618	1	-5
630.957	1	-2
631.297	1	-6
631.636	1	14
631.975	1	-2
632.314	1	2
632.653	1	-5
632.993	1	1
633.332	1	-2
633.671	1	10
634.010	1	9
634.349	1	-7
634.689	1	5
635.028	1	2
635.367	1	1
635.706	1	-7
636.045	1	5
636.384	1	-16
636.724	1	2
637.063	1	6
637.402	1	5
637.741	1	-3
638.080	1	10
638.419	1	-2
638.759	1	5
639.098	1	-3
639.437	1	-13
639.776	1	0
640.115	1	12
640.454	1	0
640.793	1	-6
641.132	1	8
641.472	1	-2
641.811	1	10
642.150	1	2
642.489	1	-6
642.828	1	4
643.167	1	9
643.506	1	1
643.845	1	5
644.184	1	15
644.524	1	3
644.863	1	-15
645.202	1	7
645.541	1	5
645.880	1	-1
646.219	1	-4
646.558	1	9
646.897	1	3
647.236	1	4
647.575	1	-5
647.914	1	-5
648.253	1	4
648.592	1	0
648.931	1	2
649.270	1	6
649.610	1	13
649.949	1	-4
650.288	1	0
650.627	1	-4
650.966	1	3
651.305	1	1
651.644	1	12
651.983	1	-3
652.322	1	8
652.661	1	6
653.000	1	-7
653.339	1	-4
653.678	1	7
654.017	1	5
654.356	1	7
654.695	1	9
655.034	1	4
655.373	1	8
655.712	1	-12
656.051	1	-6
656.390	1	-5
656.729	1	3
657.068	1	1
657.406	1	6
657.745	1	10
658.084	1	-2
658.423	1	-1
658.762	1	-1
659.101	1	2
659.440	1	8
659.779	1	2
660.118	1	-3
660.457	1	4
660.796	1	2
661.135	1	-18
661.474	1	6
661.813	1	-1
662.152	1	4
662.491	1	-10
662.829	1	-6
663.168	1	11
663.507	1	6
663.846	1	-5
664.185	1	2
664.524	1	-4
664.863	1	-1
665.202	1	12
665.541	1	8
665.879	1	10
666.218	1	16
666.557	1	0
666.896	1	3
667.235	1	-4
667.574	1	-13
667.913	1	-10
668.251	1	5
668.590	1	-1
668.929	1	2
669.268	1	-5
669.607	1	5
669.946	1	5
670.285	1	6
670.623	1	-2
670.962	1	-11
671.301	1	-8
671.640	1	-1
671.979	1	0
672.317	1	5
672.656	1	3
672.995	1	-1
673.334	1	-6
673.673	1	-1
674.011	1	6
674.350	1	6
674.689	1	3
675.028	1	1
675.367	1	-10
675.705	1	10
676.044	1	16
676.383	1	0
676.722	1	10
677.060	1	-8
677.399	1	-3
677.738	1	-3
678.077	1	2
678.416	1	0
678.754	1	3
679.093	1	-4
679.432	1	1
679.771	1	3
680.109	1	-1
680.448	1	8
680.787	1	-4
681.125	1	4
681.464	1	8
681.803	1	4
682.142	1	-4
682.480	1	-1
682.819	1	3
683.158	1	4
683.496	1	1
683.835	1	-2
684.174	1	-5
684.512	1	-6
684.851	1	-7
685.190	1	-8
685.529	1	4
685.867	1	4
686.206	1	9
686.545	1	5
686.883	1	-3
687.222	1	-6
687.561	1	-3
687.899	1	-5
688.238	1	-9
688.577	1	6
688.746	1	-5