File: Data/GaN_170K_550ms/GaN_sample D_spot 18_UVVIS_170 K_200um_550 ms 2x2mm1_347.txt
340.368	1	1
340.710	1	-12
341.052	1	0
341.394	1	5
341.737	1	-13
342.079	1	-15
342.421	1	-2
342.763	1	-4
343.105	1	8
343.447	1	-8
343.789	1	0
344.131	1	-4
344.473	1	2
344.815	1	10
345.157	1	-1
345.499	1	-6
345.841	1	0
346.183	1	8
346.526	1	1
346.868	1	7
347.210	1	-8
347.552	1	-1
347.894	1	0
348.236	1	-6
348.578	1	-4
348.920	1	-7
349.262	1	-2
349.604	1	-1
349.946	1	3
350.288	1	1
350.630	1	6
350.972	1	-4
351.314	1	-1
351.656	1	-2
351.998	1	13
352.340	1	-1
352.682	1	0
353.024	1	2
353.366	1	-5
353.708	1	9
354.050	1	6
354.392	1	0
354.734	1	6
355.076	1	2
355.418	1	-8
355.760	1	-3
356.102	1	0
356.444	1	-11
356.785	1	0
357.127	1	2
357.469	1	-4
357.811	1	-2
358.153	1	0
358.495	1	4
358.837	1	-4
359.179	1	-4
359.521	1	7
359.863	1	-4
360.205	1	11
360.547	1	9
360.889	1	8
361.231	1	8
361.572	1	15
361.914	1	3
362.256	1	2
362.598	1	8
362.940	1	20
363.282	1	1
363.624	1	-2
363.966	1	5
364.308	1	5
364.649	1	-3
364.991	1	6
365.333	1	3
365.675	1	9
366.017	1	2
366.359	1	3
366.701	1	6
367.042	1	0
367.384	1	13
367.726	1	7
368.068	1	6
368.410	1	8
368.752	1	8
369.093	1	2
369.435	1	-4
369.777	1	3
370.119	1	1
370.461	1	17
370.803	1	0
371.144	1	-4
371.486	1	-2
371.828	1	-2
372.170	1	-2
372.512	1	0
372.853	1	9
373.195	1	4
373.537	1	18
373.879	1	5
374.220	1	5
374.562	1	6
374.904	1	6
375.246	1	8
375.588	1	12
375.929	1	2
376.271	1	3
376.613	1	4
376.955	1	16
377.296	1	10
377.638	1	9
377.980	1	-5
378.321	1	8
378.663	1	0
379.005	1	-3
379.347	1	8
379.688	1	-1
380.030	1	-4
380.372	1	1
380.714	1	6
381.055	1	3
381.397	1	7
381.739	1	-8
382.080	1	-13
382.422	1	1
382.764	1	6
383.105	1	4
383.447	1	5
383.789	1	7
384.130	1	-8
384.472	1	-2
384.814	1	5
385.156	1	-5
385.497	1	4
385.839	1	1
386.180	1	7
386.522	1	12
386.864	1	-3
387.205	1	-2
387.547	1	2
387.889	1	4
388.230	1	-6
388.572	1	-5
388.914	1	0
389.255	1	5
389.597	1	5
389.939	1	-8
390.280	1	0
390.622	1	-2
390.963	1	0
391.305	1	-4
391.647	1	-15
391.988	1	9
392.330	1	3
392.671	1	-4
393.013	1	3
393.355	1	-3
393.696	1	5
394.038	1	-2
394.379	1	5
394.721	1	2
395.062	1	-1
395.404	1	13
395.746	1	9
396.087	1	9
396.429	1	0
396.770	1	6
397.112	1	1
397.453	1	7
397.795	1	-5
398.136	1	-3
398.478	1	-6
398.819	1	1
399.161	1	-6
399.503	1	8
399.844	1	-8
400.186	1	-9
400.527	1	16
400.869	1	7
401.210	1	8
401.552	1	2
401.893	1	11
402.235	1	6
402.576	1	-3
402.918	1	-3
403.259	1	-5
403.601	1	8
403.942	1	2
404.284	1	-14
404.625	1	10
404.967	1	1
405.308	1	0
405.649	1	6
405.991	1	4
406.332	1	-12
406.674	1	10
407.015	1	7
407.357	1	1
407.698	1	-7
408.040	1	-8
408.381	1	6
408.722	1	-4
409.064	1	4
409.405	1	1
409.747	1	-5
410.088	1	10
410.430	1	4
410.771	1	2
411.112	1	-4
411.454	1	4
411.795	1	7
412.137	1	-9
412.478	1	1
412.819	1	-9
413.161	1	8
413.502	1	5
413.844	1	10
414.185	1	-5
414.526	1	5
414.868	1	-9
415.209	1	-8
415.550	1	-7
415.892	1	-2
416.233	1	8
416.575	1	8
416.916	1	-15
417.257	1	6
417.599	1	-6
417.940	1	0
418.281	1	-8
418.623	1	-3
418.964	1	-9
419.305	1	-5
419.647	1	7
419.988	1	12
420.329	1	2
420.671	1	-7
421.012	1	0
421.353	1	3
421.695	1	-4
422.036	1	3
422.377	1	5
422.718	1	3
423.060	1	-2
423.401	1	-1
423.742	1	-14
424.084	1	17
424.425	1	-3
424.766	1	1
425.107	1	-4
425.449	1	2
425.790	1	5
426.131	1	4
426.472	1	1
426.814	1	-7
427.155	1	9
427.496	1	-7
427.837	1	10
428.179	1	12
428.520	1	6
428.861	1	-13
429.202	1	0
429.544	1	-2
429.885	1	2
430.226	1	10
430.567	1	-3
430.909	1	-4
431.250	1	5
431.591	1	-5
431.932	1	-11
432.273	1	-2
432.615	1	-5
432.956	1	4
433.297	1	-8
433.638	1	5
433.979	1	0
434.320	1	9
434.662	1	-17
435.003	1	0
435.344	1	1
435.685	1	0
436.026	1	-2
436.368	1	5
436.709	1	-4
437.050	1	-3
437.391	1	-4
437.732	1	5
438.073	1	3
438.414	1	-3
438.756	1	0
439.097	1	5
439.438	1	2
439.779	1	4
440.120	1	4
440.461	1	6
440.802	1	-2
441.143	1	-2
441.485	1	0
441.826	1	6
442.167	1	2
442.508	1	-3
442.849	1	-3
443.190	1	-9
443.531	1	-2
443.872	1	1
444.213	1	-4
444.554	1	0
444.895	1	-14
445.237	1	-17
445.578	1	10
445.919	1	5
446.260	1	1
446.601	1	-9
446.942	1	-6
447.283	1	7
447.624	1	-3
447.965	1	1
448.306	1	5
448.647	1	-4
448.988	1	7
449.329	1	4
449.670	1	-8
450.011	1	4
450.352	1	-8
450.693	1	-4
451.034	1	-9
451.375	1	2
451.716	1	7
452.057	1	-1
452.398	1	0
452.739	1	4
453.080	1	0
453.421	1	1
453.762	1	-5
454.103	1	-9
454.444	1	-7
454.785	1	2
455.126	1	11
455.467	1	-12
455.808	1	9
456.149	1	-4
456.490	1	-5
456.831	1	-6
457.172	1	-17
457.513	1	6
457.854	1	9
458.195	1	0
458.536	1	-12
458.877	1	4
459.218	1	3
459.559	1	3
459.899	1	-6
460.240	1	-1
460.581	1	5
460.922	1	0
461.263	1	-1
461.604	1	8
461.945	1	-3
462.286	1	-5
462.627	1	-3
462.968	1	5
463.309	1	9
463.649	1	17
463.990	1	-6
464.331	1	4
464.672	1	-7
465.013	1	11
465.354	1	-8
465.695	1	2
466.036	1	-12
466.376	1	6
466.717	1	-3
467.058	1	5
467.399	1	9
467.740	1	4
468.081	1	7
468.422	1	5
468.762	1	10
469.103	1	3
469.444	1	2
469.785	1	-8
470.126	1	9
470.467	1	4
470.807	1	-6
471.148	1	-4
471.489	1	-3
471.830	1	0
472.171	1	5
472.511	1	1
472.852	1	6
473.193	1	3
473.534	1	-3
473.875	1	-1
474.215	1	-1
474.556	1	8
474.897	1	1
475.238	1	1
475.578	1	-2
475.919	1	6
476.260	1	11
476.601	1	2
476.942	1	-10
477.282	1	7
477.623	1	4
477.964	1	4
478.305	1	-2
478.645	1	3
478.986	1	-2
479.327	1	-5
479.667	1	0
480.008	1	14
480.349	1	-1
480.690	1	4
481.030	1	2
481.371	1	-6
481.712	1	3
482.053	1	-11
482.393	1	-9
482.734	1	3
483.075	1	-1
483.415	1	4
483.756	1	-1
484.097	1	-10
484.437	1	9
484.778	1	-14
485.119	1	-2
485.459	1	-9
485.800	1	-9
486.141	1	5
486.481	1	0
486.822	1	1
487.163	1	8
487.503	1	5
487.844	1	2
488.185	1	-1
488.525	1	10
488.866	1	10
489.207	1	0
489.547	1	3
489.888	1	5
490.228	1	-2
490.569	1	-2
490.910	1	-5
491.250	1	2
491.591	1	4
491.932	1	10
492.272	1	6
492.613	1	3
492.953	1	-7
493.294	1	0
493.635	1	-8
493.975	1	12
494.316	1	-3
494.656	1	3
494.997	1	1
495.337	1	3
495.678	1	7
496.019	1	-12
496.359	1	3
496.700	1	7
497.040	1	2
497.381	1	7
497.721	1	-2
498.062	1	-3
498.403	1	10
498.743	1	2
499.084	1	-1
499.424	1	12
499.765	1	-4
500.105	1	-3
500.446	1	0
500.786	1	-8
501.127	1	0
501.467	1	0
501.808	1	-9
502.148	1	0
502.489	1	5
502.829	1	-3
503.170	1	5
503.510	1	0
503.851	1	-1
504.191	1	-3
504.532	1	-14
504.872	1	1
505.213	1	5
505.553	1	2
505.894	1	6
506.234	1	-8
506.575	1	7
506.915	1	-4
507.256	1	-2
507.596	1	5
507.936	1	21
508.277	1	-1
508.617	1	11
508.958	1	-4
509.298	1	-5
509.639	1	15
509.979	1	-3
510.319	1	-9
510.660	1	-11
511.000	1	0
511.341	1	11
511.681	1	-3
512.022	1	2
512.362	1	-6
512.702	1	-13
513.043	1	-1
513.383	1	-6
513.724	1	-7
514.064	1	0
514.404	1	-2
514.745	1	-2
515.085	1	-2
515.425	1	6
515.766	1	6
516.106	1	1
516.447	1	4
516.787	1	8
517.127	1	6
517.468	1	3
517.808	1	6
518.148	1	1
518.489	1	9
518.829	1	-1
519.169	1	-2
519.510	1	4
519.850	1	2
520.190	1	-8
520.531	1	4
520.871	1	3
521.211	1	1
521.552	1	3
521.892	1	6
522.232	1	-7
522.573	1	0
522.913	1	12
523.253	1	17
523.593	1	-3
523.934	1	0
524.274	1	1
524.614	1	2
524.955	1	3
525.295	1	-1
525.635	1	-1
525.975	1	5
526.316	1	7
526.656	1	6
526.996	1	3
527.337	1	-5
527.677	1	-1
528.017	1	10
528.357	1	-3
528.698	1	-12
529.038	1	-4
529.378	1	7
529.718	1	14
530.058	1	4
530.399	1	0
530.739	1	-1
531.079	1	5
531.419	1	6
531.760	1	2
532.100	1	0
532.440	1	-2
532.780	1	-1
533.120	1	9
533.461	1	3
533.801	1	-3
534.141	1	2
534.481	1	9
534.821	1	1
535.162	1	7
535.502	1	2
535.842	1	0
536.182	1	1
536.522	1	3
536.862	1	11
537.203	1	4
537.543	1	-1
537.883	1	3
538.223	1	0
538.563	1	7
538.903	1	3
539.243	1	1
539.584	1	3
539.924	1	-4
540.264	1	7
540.604	1	2
540.944	1	-6
541.284	1	12
541.624	1	-8
541.964	1	-5
542.305	1	2
542.645	1	-2
542.985	1	8
543.325	1	3
543.665	1	5
544.005	1	6
544.345	1	8
544.685	1	-1
545.025	1	0
545.365	1	2
545.705	1	10
546.045	1	7
546.386	1	0
546.726	1	3
547.066	1	8
547.406	1	6
547.746	1	-8
548.086	1	-5
548.426	1	-1
548.766	1	4
549.106	1	6
549.446	1	7
549.786	1	0
550.126	1	2
550.466	1	-3
550.806	1	1
551.146	1	3
551.486	1	2
551.826	1	5
552.166	1	3
552.506	1	-3
552.846	1	-6
553.186	1	0
553.526	1	-12
553.866	1	-1
554.206	1	3
554.546	1	-2
554.886	1	-12
555.226	1	-7
555.566	1	-1
555.906	1	-5
556.246	1	-1
556.586	1	-1
556.926	1	3
557.266	1	6
557.606	1	7
557.946	1	2
558.286	1	1
558.626	1	11
558.966	1	4
559.306	1	1
559.646	1	-7
559.986	1	4
560.325	1	-3
560.665	1	8
561.005	1	2
561.345	1	-9
561.685	1	-3
562.025	1	-1
562.365	1	1
562.705	1	1
563.045	1	1
563.385	1	5
563.725	1	-4
564.064	1	7
564.404	1	-6
564.744	1	1
565.084	1	7
565.424	1	2
565.764	1	6
566.104	1	-1
566.444	1	3
566.783	1	9
567.123	1	-2
567.463	1	4
567.803	1	4
568.143	1	3
568.483	1	2
568.823	1	1
569.162	1	6
569.502	1	-3
569.842	1	-2
570.182	1	-4
570.522	1	-11
570.862	1	3
571.201	1	-1
571.541	1	-3
571.881	1	0
572.221	1	6
572.561	1	-4
572.900	1	-2
573.240	1	1
573.580	1	-9
573.920	1	9
574.260	1	8
574.599	1	-1
574.939	1	-4
575.279	1	0
575.619	1	4
575.959	1	-9
576.298	1	4
576.638	1	3
576.978	1	-7
577.318	1	4
577.657	1	-2
577.997	1	0
578.337	1	5
578.677	1	1
579.016	1	1
579.356	1	-5
579.696	1	4
580.036	1	-8
580.375	1	-2
580.715	1	-1
581.055	1	9
581.394	1	-3
581.734	1	-1
582.074	1	8
582.414	1	-10
582.753	1	-3
583.093	1	0
583.433	1	12
583.772	1	-2
584.112	1	8
584.452	1	-5
584.791	1	2
585.131	1	13
585.471	1	2
585.811	1	-7
586.150	1	1
586.490	1	7
586.830	1	1
587.169	1	19
587.509	1	5
587.849	1	5
588.188	1	5
588.528	1	-5
588.867	1	-3
589.207	1	-7
589.547	1	4
589.886	1	2
590.226	1	-5
590.566	1	7
590.905	1	-1
591.245	1	1
591.585	1	0
591.924	1	-9
592.264	1	-8
592.603	1	1
592.943	1	2
593.283	1	4
593.622	1	-14
593.962	1	3
594.301	1	8
594.641	1	12
594.981	1	15
595.320	1	-1
595.660	1	8
595.999	1	-5
596.339	1	-1
596.678	1	-6
597.018	1	-2
597.358	1	-1
597.697	1	0
598.037	1	-5
598.376	1	-8
598.716	1	3
599.055	1	2
599.395	1	4
599.734	1	9
600.074	1	-2
600.413	1	-4
600.753	1	4
601.092	1	4
601.432	1	-6
601.771	1	7
602.111	1	-4
602.451	1	5
602.790	1	9
603.130	1	-2
603.469	1	0
603.809	1	-3
604.148	1	12
604.487	1	-1
604.827	1	-13
605.166	1	10
605.506	1	-3
605.845	1	3
606.185	1	3
606.524	1	-3
606.864	1	5
607.203	1	0
607.543	1	14
607.882	1	-2
608.222	1	0
608.561	1	4
608.901	1	6
609.240	1	2
609.579	1	1
609.919	1	-8
610.258	1	-3
610.598	1	1
610.937	1	-2
611.277	1	-1
611.616	1	1
611.955	1	5
612.295	1	-10
612.634	1	0
612.974	1	-2
613.313	1	-1
613.652	1	14
613.992	1	2
614.331	1	-10
614.671	1	4
615.010	1	0
615.349	1	4
615.689	1	11
616.028	1	2
616.368	1	-7
616.707	1	9
617.046	1	-1
617.386	1	-3
617.725	1	-4
618.064	1	-3
618.404	1	5
618.743	1	2
619.082	1	4
619.422	1	-3
619.761	1	0
620.100	1	11
620.440	1	7
620.779	1	-3
621.118	1	2
621.458	1	-2
621.797	1	-2
622.136	1	-3
622.476	1	-8
622.815	1	5
623.154	1	-4
623.494	1	4
623.833	1	3
624.172	1	4
624.511	1	0
624.851	1	-1
625.190	1	1
625.529	1	10
625.869	1	6
626.208	1	-7
626.547	1	-2
626.886	1	-1
627.226	1	5
627.565	1	-5
627.904	1	1
628.243	1	-3
628.583	1	-8
628.922	1	-6
629.261	1	6
629.600	1	-1
629.940	1	-1
630.279	1	-2
630.618	1	7
630.957	1	-5
631.297	1	-6
631.636	1	6
631.975	1	-3
632.314	1	-4
632.653	1	1
632.993	1	-6
633.332	1	1
633.671	1	10
634.010	1	1
634.349	1	-13
634.689	1	12
635.028	1	-1
635.367	1	1
635.706	1	-2
636.045	1	0
636.384	1	-15
636.724	1	3
637.063	1	0
637.402	1	9
637.741	1	8
638.080	1	5
638.419	1	-11
638.759	1	-2
639.098	1	-2
639.437	1	-10
639.776	1	2
640.115	1	4
640.454	1	-2
640.793	1	-6
641.132	1	-1
641.472	1	-5
641.811	1	12
642.150	1	-13
642.489	1	1
642.828	1	-3
643.167	1	-1
643.506	1	0
643.845	1	1
644.184	1	8
644.524	1	5
644.863	1	-8
645.202	1	3
645.541	1	1
645.880	1	5
646.219	1	-7
646.558	1	2
646.897	1	3
647.236	1	-8
647.575	1	-4
647.914	1	0
648.253	1	3
648.592	1	4
648.931	1	10
649.270	1	-10
649.610	1	4
649.949	1	-3
650.288	1	-4
650.627	1	1
650.966	1	11
651.305	1	-4
651.644	1	2
651.983	1	7
652.322	1	4
652.661	1	-3
653.000	1	-7
653.339	1	-8
653.678	1	6
654.017	1	-2
654.356	1	-7
654.695	1	7
655.034	1	-6
655.373	1	0
655.712	1	-14
656.051	1	2
656.390	1	-5
656.729	1	-4
657.068	1	4
657.406	1	3
657.745	1	4
658.084	1	-14
658.423	1	7
658.762	1	-11
659.101	1	1
659.440	1	-4
659.779	1	7
660.118	1	-4
660.457	1	3
660.796	1	1
661.135	1	-10
661.474	1	9
661.813	1	-7
662.152	1	0
662.491	1	-8
662.829	1	1
663.168	1	0
663.507	1	3
663.846	1	-1
664.185	1	-1
664.524	1	12
664.863	1	0
665.202	1	12
665.541	1	0
665.879	1	3
666.218	1	8
666.557	1	-5
666.896	1	0
667.235	1	6
667.574	1	-11
667.913	1	-1
668.251	1	10
668.590	1	2
668.929	1	2
669.268	1	-4
669.607	1	0
669.946	1	0
670.285	1	15
670.623	1	0
670.962	1	-12
671.301	1	-6
671.640	1	7
671.979	1	-7
672.317	1	5
672.656	1	9
672.995	1	-2
673.334	1	0
673.673	1	7
674.011	1	6
674.350	1	0
674.689	1	1
675.028	1	2
675.367	1	-7
675.705	1	2
676.044	1	3
676.383	1	-1
676.722	1	15
677.060	1	-1
677.399	1	-1
677.738	1	-2
678.077	1	-1
678.416	1	-6
678.754	1	4
679.093	1	-1
679.432	1	0
679.771	1	-4
680.109	1	-8
680.448	1	8
680.787	1	-10
681.125	1	12
681.464	1	-7
681.803	1	3
682.142	1	-8
682.480	1	-1
682.819	1	2
683.158	1	-4
683.496	1	5
683.835	1	-7
684.174	1	-4
684.512	1	-5
684.851	1	-12
685.190	1	-1
685.529	1	8
685.867	1	9
686.206	1	6
686.545	1	6
686.883	1	5
687.222	1	2
687.561	1	9
687.899	1	-7
688.238	1	-3
688.577	1	15
688.746	1	-6