File: Data/GaN_170K_550ms/GaN_sample D_spot 18_UVVIS_170 K_200um_550 ms 2x2mm1_210.txt
340.368	1	-6
340.710	1	-4
341.052	1	-2
341.394	1	3
341.737	1	2
342.079	1	0
342.421	1	2
342.763	1	4
343.105	1	9
343.447	1	-13
343.789	1	3
344.131	1	5
344.473	1	1
344.815	1	9
345.157	1	-4
345.499	1	-3
345.841	1	6
346.183	1	-4
346.526	1	0
346.868	1	3
347.210	1	-6
347.552	1	8
347.894	1	-1
348.236	1	-3
348.578	1	5
348.920	1	-5
349.262	1	-1
349.604	1	10
349.946	1	9
350.288	1	5
350.630	1	5
350.972	1	-14
351.314	1	10
351.656	1	-11
351.998	1	1
352.340	1	0
352.682	1	11
353.024	1	-1
353.366	1	13
353.708	1	14
354.050	1	-5
354.392	1	5
354.734	1	6
355.076	1	-5
355.418	1	6
355.760	1	-2
356.102	1	5
356.444	1	11
356.785	1	4
357.127	1	-6
357.469	1	-1
357.811	1	5
358.153	1	11
358.495	1	0
358.837	1	-2
359.179	1	-5
359.521	1	6
359.863	1	8
360.205	1	8
360.547	1	9
360.889	1	12
361.231	1	6
361.572	1	18
361.914	1	11
362.256	1	8
362.598	1	5
362.940	1	14
363.282	1	12
363.624	1	12
363.966	1	11
364.308	1	19
364.649	1	11
364.991	1	16
365.333	1	10
365.675	1	12
366.017	1	18
366.359	1	13
366.701	1	13
367.042	1	11
367.384	1	18
367.726	1	20
368.068	1	17
368.410	1	16
368.752	1	15
369.093	1	7
369.435	1	16
369.777	1	17
370.119	1	16
370.461	1	25
370.803	1	7
371.144	1	7
371.486	1	4
371.828	1	13
372.170	1	12
372.512	1	5
372.853	1	17
373.195	1	17
373.537	1	26
373.879	1	13
374.220	1	23
374.562	1	3
374.904	1	12
375.246	1	10
375.588	1	5
375.929	1	8
376.271	1	8
376.613	1	11
376.955	1	10
377.296	1	5
377.638	1	5
377.980	1	-1
378.321	1	-3
378.663	1	8
379.005	1	0
379.347	1	6
379.688	1	9
380.030	1	11
380.372	1	1
380.714	1	24
381.055	1	10
381.397	1	10
381.739	1	-2
382.080	1	-3
382.422	1	5
382.764	1	7
383.105	1	10
383.447	1	11
383.789	1	17
384.130	1	0
384.472	1	0
384.814	1	5
385.156	1	5
385.497	1	3
385.839	1	-7
386.180	1	8
386.522	1	7
386.864	1	10
387.205	1	-3
387.547	1	13
387.889	1	8
388.230	1	8
388.572	1	2
388.914	1	-7
389.255	1	12
389.597	1	5
389.939	1	0
390.280	1	-1
390.622	1	-3
390.963	1	1
391.305	1	-7
391.647	1	-10
391.988	1	12
392.330	1	-3
392.671	1	-4
393.013	1	-5
393.355	1	6
393.696	1	6
394.038	1	-4
394.379	1	-1
394.721	1	3
395.062	1	-3
395.404	1	4
395.746	1	17
396.087	1	10
396.429	1	3
396.770	1	14
397.112	1	5
397.453	1	7
397.795	1	4
398.136	1	12
398.478	1	-1
398.819	1	3
399.161	1	1
399.503	1	3
399.844	1	-4
400.186	1	-6
400.527	1	14
400.869	1	1
401.210	1	9
401.552	1	-3
401.893	1	11
402.235	1	-2
402.576	1	9
402.918	1	-1
403.259	1	7
403.601	1	13
403.942	1	14
404.284	1	-2
404.625	1	0
404.967	1	14
405.308	1	7
405.649	1	1
405.991	1	0
406.332	1	-10
406.674	1	9
407.015	1	11
407.357	1	-2
407.698	1	0
408.040	1	7
408.381	1	12
408.722	1	-4
409.064	1	1
409.405	1	2
409.747	1	-5
410.088	1	10
410.430	1	-3
410.771	1	12
411.112	1	7
411.454	1	3
411.795	1	15
412.137	1	-12
412.478	1	-3
412.819	1	-8
413.161	1	1
413.502	1	0
413.844	1	6
414.185	1	9
414.526	1	7
414.868	1	-3
415.209	1	-19
415.550	1	10
415.892	1	3
416.233	1	2
416.575	1	2
416.916	1	-5
417.257	1	3
417.599	1	-4
417.940	1	-3
418.281	1	-7
418.623	1	3
418.964	1	-3
419.305	1	-6
419.647	1	5
419.988	1	4
420.329	1	8
420.671	1	-4
421.012	1	3
421.353	1	1
421.695	1	-10
422.036	1	8
422.377	1	3
422.718	1	7
423.060	1	-9
423.401	1	1
423.742	1	2
424.084	1	17
424.425	1	-1
424.766	1	-5
425.107	1	4
425.449	1	10
425.790	1	3
426.131	1	2
426.472	1	2
426.814	1	-6
427.155	1	8
427.496	1	-5
427.837	1	7
428.179	1	3
428.520	1	3
428.861	1	-2
429.202	1	-15
429.544	1	0
429.885	1	6
430.226	1	-2
430.567	1	1
430.909	1	0
431.250	1	11
431.591	1	-1
431.932	1	0
432.273	1	5
432.615	1	4
432.956	1	2
433.297	1	-2
433.638	1	2
433.979	1	0
434.320	1	6
434.662	1	-15
435.003	1	6
435.344	1	7
435.685	1	0
436.026	1	8
436.368	1	7
436.709	1	-3
437.050	1	-9
437.391	1	-8
437.732	1	4
438.073	1	0
438.414	1	-8
438.756	1	-8
439.097	1	0
439.438	1	-4
439.779	1	6
440.120	1	-1
440.461	1	13
440.802	1	6
441.143	1	-9
441.485	1	2
441.826	1	8
442.167	1	7
442.508	1	-4
442.849	1	-1
443.190	1	0
443.531	1	-2
443.872	1	-1
444.213	1	-3
444.554	1	3
444.895	1	-20
445.237	1	-5
445.578	1	6
445.919	1	8
446.260	1	8
446.601	1	-2
446.942	1	10
447.283	1	5
447.624	1	-5
447.965	1	11
448.306	1	4
448.647	1	1
448.988	1	7
449.329	1	-2
449.670	1	-2
450.011	1	10
450.352	1	-6
450.693	1	-1
451.034	1	-2
451.375	1	8
451.716	1	3
452.057	1	3
452.398	1	-1
452.739	1	-2
453.080	1	-11
453.421	1	5
453.762	1	-2
454.103	1	-5
454.444	1	-3
454.785	1	-5
455.126	1	6
455.467	1	-11
455.808	1	6
456.149	1	3
456.490	1	4
456.831	1	4
457.172	1	-2
457.513	1	9
457.854	1	5
458.195	1	2
458.536	1	-4
458.877	1	11
459.218	1	2
459.559	1	2
459.899	1	4
460.240	1	-3
460.581	1	4
460.922	1	-4
461.263	1	-1
461.604	1	8
461.945	1	10
462.286	1	-9
462.627	1	4
462.968	1	7
463.309	1	7
463.649	1	-7
463.990	1	-2
464.331	1	-5
464.672	1	4
465.013	1	13
465.354	1	-4
465.695	1	5
466.036	1	-7
466.376	1	1
466.717	1	2
467.058	1	-2
467.399	1	2
467.740	1	1
468.081	1	3
468.422	1	6
468.762	1	20
469.103	1	7
469.444	1	4
469.785	1	-8
470.126	1	12
470.467	1	5
470.807	1	0
471.148	1	2
471.489	1	1
471.830	1	4
472.171	1	5
472.511	1	-1
472.852	1	8
473.193	1	1
473.534	1	3
473.875	1	4
474.215	1	-3
474.556	1	2
474.897	1	-1
475.238	1	-4
475.578	1	-6
475.919	1	8
476.260	1	9
476.601	1	-1
476.942	1	-2
477.282	1	8
477.623	1	3
477.964	1	-1
478.305	1	3
478.645	1	5
478.986	1	2
479.327	1	-11
479.667	1	1
480.008	1	3
480.349	1	-1
480.690	1	9
481.030	1	5
481.371	1	-3
481.712	1	-6
482.053	1	-3
482.393	1	-11
482.734	1	13
483.075	1	6
483.415	1	11
483.756	1	4
484.097	1	-7
484.437	1	4
484.778	1	-4
485.119	1	6
485.459	1	1
485.800	1	-5
486.141	1	8
486.481	1	1
486.822	1	10
487.163	1	6
487.503	1	4
487.844	1	8
488.185	1	-6
488.525	1	13
488.866	1	10
489.207	1	8
489.547	1	5
489.888	1	4
490.228	1	-3
490.569	1	-5
490.910	1	2
491.250	1	7
491.591	1	0
491.932	1	8
492.272	1	2
492.613	1	5
492.953	1	-2
493.294	1	-2
493.635	1	-4
493.975	1	12
494.316	1	0
494.656	1	6
494.997	1	2
495.337	1	13
495.678	1	5
496.019	1	-1
496.359	1	3
496.700	1	11
497.040	1	6
497.381	1	-2
497.721	1	-3
498.062	1	-8
498.403	1	11
498.743	1	2
499.084	1	4
499.424	1	0
499.765	1	-5
500.105	1	1
500.446	1	-5
500.786	1	-4
501.127	1	8
501.467	1	-8
501.808	1	3
502.148	1	6
502.489	1	2
502.829	1	2
503.170	1	5
503.510	1	7
503.851	1	4
504.191	1	-1
504.532	1	-9
504.872	1	2
505.213	1	-1
505.553	1	-4
505.894	1	10
506.234	1	-4
506.575	1	5
506.915	1	2
507.256	1	3
507.596	1	4
507.936	1	9
508.277	1	-7
508.617	1	9
508.958	1	-4
509.298	1	-2
509.639	1	3
509.979	1	-5
510.319	1	-3
510.660	1	-2
511.000	1	10
511.341	1	11
511.681	1	-5
512.022	1	1
512.362	1	-4
512.702	1	-6
513.043	1	2
513.383	1	9
513.724	1	-2
514.064	1	3
514.404	1	-4
514.745	1	7
515.085	1	13
515.425	1	5
515.766	1	2
516.106	1	3
516.447	1	-6
516.787	1	6
517.127	1	6
517.468	1	5
517.808	1	11
518.148	1	2
518.489	1	17
518.829	1	2
519.169	1	1
519.510	1	9
519.850	1	2
520.190	1	-3
520.531	1	7
520.871	1	0
521.211	1	12
521.552	1	4
521.892	1	1
522.232	1	-10
522.573	1	5
522.913	1	5
523.253	1	15
523.593	1	2
523.934	1	-2
524.274	1	-1
524.614	1	-4
524.955	1	1
525.295	1	-5
525.635	1	2
525.975	1	-6
526.316	1	22
526.656	1	8
526.996	1	13
527.337	1	-2
527.677	1	-4
528.017	1	11
528.357	1	-4
528.698	1	-3
529.038	1	-6
529.378	1	3
529.718	1	11
530.058	1	8
530.399	1	-2
530.739	1	9
531.079	1	7
531.419	1	6
531.760	1	18
532.100	1	0
532.440	1	1
532.780	1	-8
533.120	1	10
533.461	1	1
533.801	1	19
534.141	1	1
534.481	1	11
534.821	1	15
535.162	1	1
535.502	1	2
535.842	1	-3
536.182	1	-1
536.522	1	7
536.862	1	9
537.203	1	-3
537.543	1	1
537.883	1	4
538.223	1	7
538.563	1	13
538.903	1	0
539.243	1	6
539.584	1	3
539.924	1	5
540.264	1	14
540.604	1	10
540.944	1	-10
541.284	1	7
541.624	1	-7
541.964	1	6
542.305	1	-1
542.645	1	-3
542.985	1	7
543.325	1	7
543.665	1	7
544.005	1	15
544.345	1	3
544.685	1	9
545.025	1	1
545.365	1	-1
545.705	1	13
546.045	1	-3
546.386	1	2
546.726	1	3
547.066	1	6
547.406	1	5
547.746	1	-8
548.086	1	6
548.426	1	8
548.766	1	7
549.106	1	9
549.446	1	1
549.786	1	-3
550.126	1	4
550.466	1	8
550.806	1	2
551.146	1	6
551.486	1	6
551.826	1	4
552.166	1	7
552.506	1	7
552.846	1	-2
553.186	1	0
553.526	1	-9
553.866	1	-13
554.206	1	4
554.546	1	-4
554.886	1	5
555.226	1	-2
555.566	1	4
555.906	1	-3
556.246	1	11
556.586	1	-3
556.926	1	-1
557.266	1	11
557.606	1	0
557.946	1	1
558.286	1	-2
558.626	1	4
558.966	1	5
559.306	1	11
559.646	1	4
559.986	1	11
560.325	1	3
560.665	1	3
561.005	1	5
561.345	1	-1
561.685	1	7
562.025	1	-10
562.365	1	5
562.705	1	12
563.045	1	3
563.385	1	10
563.725	1	-8
564.064	1	2
564.404	1	2
564.744	1	1
565.084	1	4
565.424	1	-2
565.764	1	0
566.104	1	-8
566.444	1	3
566.783	1	10
567.123	1	2
567.463	1	-1
567.803	1	1
568.143	1	-3
568.483	1	4
568.823	1	-3
569.162	1	15
569.502	1	5
569.842	1	-2
570.182	1	-6
570.522	1	-9
570.862	1	-3
571.201	1	-1
571.541	1	-8
571.881	1	0
572.221	1	-2
572.561	1	4
572.900	1	3
573.240	1	2
573.580	1	10
573.920	1	12
574.260	1	12
574.599	1	1
574.939	1	-8
575.279	1	0
575.619	1	2
575.959	1	-4
576.298	1	8
576.638	1	8
576.978	1	5
577.318	1	3
577.657	1	5
577.997	1	-1
578.337	1	-1
578.677	1	3
579.016	1	3
579.356	1	8
579.696	1	-6
580.036	1	2
580.375	1	5
580.715	1	7
581.055	1	7
581.394	1	11
581.734	1	7
582.074	1	8
582.414	1	4
582.753	1	-5
583.093	1	5
583.433	1	10
583.772	1	0
584.112	1	6
584.452	1	-7
584.791	1	4
585.131	1	12
585.471	1	8
585.811	1	-3
586.150	1	-7
586.490	1	6
586.830	1	-5
587.169	1	7
587.509	1	-3
587.849	1	0
588.188	1	0
588.528	1	0
588.867	1	4
589.207	1	-4
589.547	1	3
589.886	1	2
590.226	1	9
590.566	1	0
590.905	1	5
591.245	1	12
591.585	1	1
591.924	1	-4
592.264	1	-7
592.603	1	-2
592.943	1	0
593.283	1	0
593.622	1	-8
593.962	1	-3
594.301	1	2
594.641	1	0
594.981	1	12
595.320	1	9
595.660	1	2
595.999	1	-3
596.339	1	11
596.678	1	2
597.018	1	-7
597.358	1	-5
597.697	1	-2
598.037	1	0
598.376	1	-7
598.716	1	7
599.055	1	2
599.395	1	-1
599.734	1	11
600.074	1	-7
600.413	1	0
600.753	1	-2
601.092	1	-4
601.432	1	1
601.771	1	12
602.111	1	2
602.451	1	-1
602.790	1	17
603.130	1	0
603.469	1	9
603.809	1	-6
604.148	1	-3
604.487	1	8
604.827	1	5
605.166	1	8
605.506	1	2
605.845	1	6
606.185	1	10
606.524	1	3
606.864	1	3
607.203	1	-2
607.543	1	9
607.882	1	0
608.222	1	0
608.561	1	2
608.901	1	2
609.240	1	-8
609.579	1	-5
609.919	1	3
610.258	1	10
610.598	1	5
610.937	1	-3
611.277	1	10
611.616	1	2
611.955	1	5
612.295	1	0
612.634	1	3
612.974	1	11
613.313	1	-7
613.652	1	8
613.992	1	-2
614.331	1	1
614.671	1	13
615.010	1	5
615.349	1	6
615.689	1	4
616.028	1	5
616.368	1	0
616.707	1	9
617.046	1	-11
617.386	1	3
617.725	1	1
618.064	1	5
618.404	1	1
618.743	1	1
619.082	1	7
619.422	1	-2
619.761	1	4
620.100	1	-5
620.440	1	2
620.779	1	4
621.118	1	-2
621.458	1	0
621.797	1	0
622.136	1	3
622.476	1	-2
622.815	1	1
623.154	1	6
623.494	1	-3
623.833	1	4
624.172	1	3
624.511	1	7
624.851	1	2
625.190	1	1
625.529	1	9
625.869	1	10
626.208	1	6
626.547	1	0
626.886	1	4
627.226	1	-3
627.565	1	1
627.904	1	-4
628.243	1	-5
628.583	1	-12
628.922	1	-13
629.261	1	9
629.600	1	-3
629.940	1	-1
630.279	1	7
630.618	1	-3
630.957	1	9
631.297	1	-4
631.636	1	12
631.975	1	-4
632.314	1	5
632.653	1	13
632.993	1	5
633.332	1	10
633.671	1	11
634.010	1	0
634.349	1	-7
634.689	1	4
635.028	1	5
635.367	1	-10
635.706	1	-6
636.045	1	10
636.384	1	-14
636.724	1	16
637.063	1	2
637.402	1	15
637.741	1	2
638.080	1	5
638.419	1	-7
638.759	1	10
639.098	1	-2
639.437	1	-5
639.776	1	-3
640.115	1	3
640.454	1	0
640.793	1	-7
641.132	1	1
641.472	1	-12
641.811	1	3
642.150	1	0
642.489	1	-4
642.828	1	4
643.167	1	-10
643.506	1	11
643.845	1	4
644.184	1	10
644.524	1	-9
644.863	1	-14
645.202	1	13
645.541	1	2
645.880	1	9
646.219	1	-2
646.558	1	14
646.897	1	8
647.236	1	2
647.575	1	-1
647.914	1	1
648.253	1	10
648.592	1	0
648.931	1	9
649.270	1	-2
649.610	1	13
649.949	1	0
650.288	1	-1
650.627	1	-2
650.966	1	8
651.305	1	-6
651.644	1	-1
651.983	1	6
652.322	1	5
652.661	1	1
653.000	1	-10
653.339	1	-7
653.678	1	0
654.017	1	14
654.356	1	-3
654.695	1	8
655.034	1	5
655.373	1	3
655.712	1	-12
656.051	1	-5
656.390	1	0
656.729	1	7
657.068	1	5
657.406	1	-1
657.745	1	-4
658.084	1	0
658.423	1	1
658.762	1	-5
659.101	1	3
659.440	1	-1
659.779	1	3
660.118	1	10
660.457	1	8
660.796	1	6
661.135	1	-10
661.474	1	11
661.813	1	0
662.152	1	5
662.491	1	0
662.829	1	-9
663.168	1	3
663.507	1	6
663.846	1	0
664.185	1	6
664.524	1	2
664.863	1	2
665.202	1	15
665.541	1	-6
665.879	1	4
666.218	1	11
666.557	1	5
666.896	1	8
667.235	1	1
667.574	1	-4
667.913	1	1
668.251	1	-4
668.590	1	-6
668.929	1	9
669.268	1	-5
669.607	1	6
669.946	1	0
670.285	1	8
670.623	1	11
670.962	1	6
671.301	1	1
671.640	1	-2
671.979	1	-7
672.317	1	10
672.656	1	5
672.995	1	-13
673.334	1	3
673.673	1	12
674.011	1	10
674.350	1	2
674.689	1	4
675.028	1	-1
675.367	1	-1
675.705	1	10
676.044	1	10
676.383	1	-4
676.722	1	15
677.060	1	0
677.399	1	1
677.738	1	1
678.077	1	8
678.416	1	0
678.754	1	-3
679.093	1	-6
679.432	1	2
679.771	1	3
680.109	1	3
680.448	1	6
680.787	1	-6
681.125	1	0
681.464	1	1
681.803	1	9
682.142	1	-3
682.480	1	-5
682.819	1	13
683.158	1	-3
683.496	1	13
683.835	1	-5
684.174	1	0
684.512	1	1
684.851	1	0
685.190	1	-3
685.529	1	12
685.867	1	2
686.206	1	3
686.545	1	11
686.883	1	5
687.222	1	2
687.561	1	6
687.899	1	-11
688.238	1	-5
688.577	1	6
688.746	1	-2