File: Data/GaN_170K_550ms/GaN_sample D_spot 18_UVVIS_170 K_200um_550 ms 2x2mm1_307.txt
340.368	1	-7
340.710	1	-16
341.052	1	-5
341.394	1	6
341.737	1	-4
342.079	1	0
342.421	1	5
342.763	1	-9
343.105	1	7
343.447	1	-2
343.789	1	9
344.131	1	-2
344.473	1	1
344.815	1	6
345.157	1	0
345.499	1	3
345.841	1	-2
346.183	1	-6
346.526	1	-1
346.868	1	0
347.210	1	-7
347.552	1	13
347.894	1	5
348.236	1	3
348.578	1	7
348.920	1	1
349.262	1	-1
349.604	1	5
349.946	1	5
350.288	1	-1
350.630	1	7
350.972	1	-1
351.314	1	-8
351.656	1	-1
351.998	1	4
352.340	1	3
352.682	1	-3
353.024	1	0
353.366	1	4
353.708	1	10
354.050	1	1
354.392	1	7
354.734	1	4
355.076	1	-5
355.418	1	-13
355.760	1	-1
356.102	1	-1
356.444	1	-8
356.785	1	-6
357.127	1	6
357.469	1	-2
357.811	1	-3
358.153	1	0
358.495	1	-3
358.837	1	9
359.179	1	-9
359.521	1	7
359.863	1	8
360.205	1	10
360.547	1	7
360.889	1	7
361.231	1	9
361.572	1	6
361.914	1	5
362.256	1	10
362.598	1	5
362.940	1	10
363.282	1	9
363.624	1	12
363.966	1	-4
364.308	1	7
364.649	1	5
364.991	1	4
365.333	1	-1
365.675	1	10
366.017	1	3
366.359	1	6
366.701	1	11
367.042	1	-5
367.384	1	11
367.726	1	23
368.068	1	16
368.410	1	9
368.752	1	9
369.093	1	-2
369.435	1	-1
369.777	1	5
370.119	1	6
370.461	1	8
370.803	1	0
371.144	1	9
371.486	1	1
371.828	1	5
372.170	1	10
372.512	1	5
372.853	1	16
373.195	1	9
373.537	1	16
373.879	1	12
374.220	1	13
374.562	1	2
374.904	1	3
375.246	1	-1
375.588	1	0
375.929	1	7
376.271	1	13
376.613	1	1
376.955	1	10
377.296	1	6
377.638	1	11
377.980	1	-6
378.321	1	-2
378.663	1	3
379.005	1	3
379.347	1	5
379.688	1	4
380.030	1	6
380.372	1	3
380.714	1	15
381.055	1	2
381.397	1	10
381.739	1	-1
382.080	1	-6
382.422	1	-4
382.764	1	6
383.105	1	6
383.447	1	10
383.789	1	13
384.130	1	-9
384.472	1	1
384.814	1	13
385.156	1	-2
385.497	1	2
385.839	1	0
386.180	1	5
386.522	1	6
386.864	1	3
387.205	1	-5
387.547	1	11
387.889	1	11
388.230	1	-2
388.572	1	-3
388.914	1	-8
389.255	1	14
389.597	1	0
389.939	1	0
390.280	1	2
390.622	1	-14
390.963	1	-2
391.305	1	-5
391.647	1	-5
391.988	1	1
392.330	1	-4
392.671	1	0
393.013	1	0
393.355	1	12
393.696	1	13
394.038	1	-2
394.379	1	2
394.721	1	4
395.062	1	-3
395.404	1	3
395.746	1	11
396.087	1	4
396.429	1	0
396.770	1	6
397.112	1	-5
397.453	1	4
397.795	1	2
398.136	1	0
398.478	1	-4
398.819	1	-4
399.161	1	-7
399.503	1	6
399.844	1	-10
400.186	1	-2
400.527	1	15
400.869	1	-2
401.210	1	6
401.552	1	8
401.893	1	5
402.235	1	9
402.576	1	-9
402.918	1	-1
403.259	1	7
403.601	1	9
403.942	1	3
404.284	1	-9
404.625	1	4
404.967	1	0
405.308	1	-6
405.649	1	-10
405.991	1	9
406.332	1	-9
406.674	1	4
407.015	1	4
407.357	1	-3
407.698	1	-2
408.040	1	4
408.381	1	3
408.722	1	-6
409.064	1	-2
409.405	1	-4
409.747	1	0
410.088	1	0
410.430	1	-2
410.771	1	6
411.112	1	-9
411.454	1	3
411.795	1	12
412.137	1	-7
412.478	1	5
412.819	1	-7
413.161	1	5
413.502	1	0
413.844	1	11
414.185	1	-4
414.526	1	3
414.868	1	-3
415.209	1	-12
415.550	1	-4
415.892	1	-3
416.233	1	1
416.575	1	-1
416.916	1	-11
417.257	1	3
417.599	1	-3
417.940	1	5
418.281	1	-7
418.623	1	-8
418.964	1	-7
419.305	1	4
419.647	1	2
419.988	1	1
420.329	1	2
420.671	1	-8
421.012	1	0
421.353	1	4
421.695	1	-1
422.036	1	4
422.377	1	6
422.718	1	3
423.060	1	-4
423.401	1	-2
423.742	1	10
424.084	1	21
424.425	1	-4
424.766	1	1
425.107	1	-7
425.449	1	7
425.790	1	1
426.131	1	7
426.472	1	5
426.814	1	-5
427.155	1	8
427.496	1	-6
427.837	1	5
428.179	1	1
428.520	1	4
428.861	1	1
429.202	1	-6
429.544	1	-4
429.885	1	2
430.226	1	-7
430.567	1	0
430.909	1	9
431.250	1	15
431.591	1	-1
431.932	1	-1
432.273	1	2
432.615	1	-3
432.956	1	2
433.297	1	-8
433.638	1	9
433.979	1	3
434.320	1	10
434.662	1	-8
435.003	1	0
435.344	1	7
435.685	1	0
436.026	1	-9
436.368	1	6
436.709	1	-3
437.050	1	-8
437.391	1	0
437.732	1	4
438.073	1	-6
438.414	1	-12
438.756	1	0
439.097	1	4
439.438	1	0
439.779	1	12
440.120	1	-3
440.461	1	12
440.802	1	2
441.143	1	-4
441.485	1	-8
441.826	1	5
442.167	1	1
442.508	1	-1
442.849	1	-8
443.190	1	8
443.531	1	-2
443.872	1	-9
444.213	1	-5
444.554	1	2
444.895	1	-15
445.237	1	-3
445.578	1	11
445.919	1	4
446.260	1	5
446.601	1	-7
446.942	1	-5
447.283	1	5
447.624	1	5
447.965	1	1
448.306	1	3
448.647	1	-7
448.988	1	13
449.329	1	6
449.670	1	-8
450.011	1	1
450.352	1	-2
450.693	1	-6
451.034	1	-6
451.375	1	2
451.716	1	-2
452.057	1	-4
452.398	1	6
452.739	1	9
453.080	1	2
453.421	1	8
453.762	1	-2
454.103	1	-2
454.444	1	-14
454.785	1	-3
455.126	1	17
455.467	1	-5
455.808	1	8
456.149	1	-2
456.490	1	3
456.831	1	1
457.172	1	-3
457.513	1	10
457.854	1	0
458.195	1	2
458.536	1	-9
458.877	1	5
459.218	1	3
459.559	1	3
459.899	1	-2
460.240	1	3
460.581	1	8
460.922	1	2
461.263	1	-5
461.604	1	6
461.945	1	0
462.286	1	2
462.627	1	0
462.968	1	10
463.309	1	2
463.649	1	10
463.990	1	-1
464.331	1	11
464.672	1	1
465.013	1	2
465.354	1	-2
465.695	1	-3
466.036	1	-7
466.376	1	7
466.717	1	-2
467.058	1	-3
467.399	1	6
467.740	1	-8
468.081	1	0
468.422	1	9
468.762	1	13
469.103	1	2
469.444	1	-2
469.785	1	-6
470.126	1	7
470.467	1	-1
470.807	1	-8
471.148	1	-8
471.489	1	-4
471.830	1	4
472.171	1	5
472.511	1	11
472.852	1	-3
473.193	1	-1
473.534	1	-1
473.875	1	6
474.215	1	3
474.556	1	9
474.897	1	4
475.238	1	-7
475.578	1	-5
475.919	1	4
476.260	1	7
476.601	1	2
476.942	1	-1
477.282	1	5
477.623	1	12
477.964	1	-5
478.305	1	-1
478.645	1	-1
478.986	1	-9
479.327	1	-3
479.667	1	-3
480.008	1	1
480.349	1	9
480.690	1	7
481.030	1	3
481.371	1	3
481.712	1	-2
482.053	1	-11
482.393	1	0
482.734	1	-2
483.075	1	4
483.415	1	6
483.756	1	2
484.097	1	-7
484.437	1	-2
484.778	1	-4
485.119	1	-3
485.459	1	0
485.800	1	-5
486.141	1	7
486.481	1	3
486.822	1	-2
487.163	1	-2
487.503	1	-1
487.844	1	5
488.185	1	3
488.525	1	1
488.866	1	5
489.207	1	4
489.547	1	7
489.888	1	1
490.228	1	3
490.569	1	3
490.910	1	2
491.250	1	3
491.591	1	1
491.932	1	8
492.272	1	8
492.613	1	8
492.953	1	-3
493.294	1	1
493.635	1	-15
493.975	1	1
494.316	1	0
494.656	1	1
494.997	1	5
495.337	1	7
495.678	1	7
496.019	1	-11
496.359	1	1
496.700	1	2
497.040	1	6
497.381	1	4
497.721	1	-7
498.062	1	-7
498.403	1	9
498.743	1	1
499.084	1	0
499.424	1	14
499.765	1	-8
500.105	1	-13
500.446	1	9
500.786	1	7
501.127	1	4
501.467	1	-1
501.808	1	0
502.148	1	10
502.489	1	3
502.829	1	3
503.170	1	14
503.510	1	6
503.851	1	-3
504.191	1	-6
504.532	1	-9
504.872	1	6
505.213	1	1
505.553	1	0
505.894	1	7
506.234	1	-10
506.575	1	3
506.915	1	4
507.256	1	-5
507.596	1	1
507.936	1	6
508.277	1	2
508.617	1	6
508.958	1	2
509.298	1	-6
509.639	1	3
509.979	1	-1
510.319	1	-10
510.660	1	-6
511.000	1	-1
511.341	1	4
511.681	1	12
512.022	1	8
512.362	1	-1
512.702	1	6
513.043	1	-3
513.383	1	3
513.724	1	-4
514.064	1	11
514.404	1	-2
514.745	1	-7
515.085	1	0
515.425	1	7
515.766	1	6
516.106	1	2
516.447	1	-6
516.787	1	-1
517.127	1	-5
517.468	1	7
517.808	1	9
518.148	1	4
518.489	1	10
518.829	1	-4
519.169	1	-3
519.510	1	4
519.850	1	-3
520.190	1	-6
520.531	1	8
520.871	1	-5
521.211	1	-1
521.552	1	9
521.892	1	3
522.232	1	-7
522.573	1	13
522.913	1	6
523.253	1	11
523.593	1	7
523.934	1	6
524.274	1	1
524.614	1	4
524.955	1	-1
525.295	1	4
525.635	1	-1
525.975	1	-3
526.316	1	5
526.656	1	2
526.996	1	1
527.337	1	-6
527.677	1	2
528.017	1	6
528.357	1	-5
528.698	1	-12
529.038	1	-1
529.378	1	-5
529.718	1	0
530.058	1	5
530.399	1	7
530.739	1	4
531.079	1	-6
531.419	1	11
531.760	1	6
532.100	1	7
532.440	1	0
532.780	1	-3
533.120	1	1
533.461	1	-4
533.801	1	2
534.141	1	-4
534.481	1	13
534.821	1	4
535.162	1	1
535.502	1	2
535.842	1	0
536.182	1	-4
536.522	1	5
536.862	1	-4
537.203	1	-3
537.543	1	-1
537.883	1	5
538.223	1	0
538.563	1	-1
538.903	1	3
539.243	1	0
539.584	1	0
539.924	1	-2
540.264	1	9
540.604	1	6
540.944	1	-6
541.284	1	10
541.624	1	2
541.964	1	11
542.305	1	2
542.645	1	-8
542.985	1	7
543.325	1	-1
543.665	1	-2
544.005	1	8
544.345	1	-4
544.685	1	1
545.025	1	5
545.365	1	1
545.705	1	8
546.045	1	4
546.386	1	-6
546.726	1	-10
547.066	1	10
547.406	1	4
547.746	1	1
548.086	1	14
548.426	1	5
548.766	1	1
549.106	1	8
549.446	1	6
549.786	1	1
550.126	1	0
550.466	1	5
550.806	1	10
551.146	1	6
551.486	1	-3
551.826	1	9
552.166	1	-1
552.506	1	7
552.846	1	-1
553.186	1	-1
553.526	1	-4
553.866	1	-9
554.206	1	7
554.546	1	-12
554.886	1	14
555.226	1	-1
555.566	1	5
555.906	1	-5
556.246	1	4
556.586	1	1
556.926	1	3
557.266	1	8
557.606	1	-2
557.946	1	-1
558.286	1	-7
558.626	1	11
558.966	1	11
559.306	1	4
559.646	1	0
559.986	1	2
560.325	1	1
560.665	1	-2
561.005	1	3
561.345	1	0
561.685	1	2
562.025	1	-4
562.365	1	1
562.705	1	8
563.045	1	2
563.385	1	4
563.725	1	-7
564.064	1	11
564.404	1	-5
564.744	1	2
565.084	1	9
565.424	1	-1
565.764	1	0
566.104	1	0
566.444	1	3
566.783	1	6
567.123	1	1
567.463	1	-1
567.803	1	2
568.143	1	-1
568.483	1	4
568.823	1	-3
569.162	1	3
569.502	1	7
569.842	1	-6
570.182	1	3
570.522	1	9
570.862	1	7
571.201	1	6
571.541	1	-6
571.881	1	-3
572.221	1	4
572.561	1	0
572.900	1	0
573.240	1	3
573.580	1	-1
573.920	1	11
574.260	1	3
574.599	1	-3
574.939	1	-6
575.279	1	-3
575.619	1	5
575.959	1	4
576.298	1	9
576.638	1	2
576.978	1	3
577.318	1	-2
577.657	1	1
577.997	1	0
578.337	1	-3
578.677	1	2
579.016	1	8
579.356	1	0
579.696	1	-3
580.036	1	10
580.375	1	2
580.715	1	5
581.055	1	-1
581.394	1	3
581.734	1	-6
582.074	1	4
582.414	1	-11
582.753	1	2
583.093	1	11
583.433	1	0
583.772	1	4
584.112	1	1
584.452	1	-4
584.791	1	-3
585.131	1	5
585.471	1	8
585.811	1	-6
586.150	1	-5
586.490	1	5
586.830	1	-6
587.169	1	12
587.509	1	9
587.849	1	0
588.188	1	0
588.528	1	-3
588.867	1	2
589.207	1	-3
589.547	1	-4
589.886	1	-6
590.226	1	5
590.566	1	1
590.905	1	7
591.245	1	9
591.585	1	-3
591.924	1	-3
592.264	1	6
592.603	1	4
592.943	1	2
593.283	1	12
593.622	1	-12
593.962	1	8
594.301	1	5
594.641	1	10
594.981	1	13
595.320	1	-5
595.660	1	-2
595.999	1	9
596.339	1	2
596.678	1	-8
597.018	1	-3
597.358	1	-8
597.697	1	-4
598.037	1	5
598.376	1	1
598.716	1	-8
599.055	1	1
599.395	1	-7
599.734	1	3
600.074	1	-3
600.413	1	-18
600.753	1	7
601.092	1	-1
601.432	1	-6
601.771	1	13
602.111	1	4
602.451	1	6
602.790	1	11
603.130	1	1
603.469	1	-1
603.809	1	5
604.148	1	6
604.487	1	1
604.827	1	-1
605.166	1	7
605.506	1	-7
605.845	1	4
606.185	1	12
606.524	1	-3
606.864	1	4
607.203	1	4
607.543	1	5
607.882	1	-7
608.222	1	4
608.561	1	8
608.901	1	-3
609.240	1	3
609.579	1	4
609.919	1	0
610.258	1	3
610.598	1	3
610.937	1	5
611.277	1	-4
611.616	1	0
611.955	1	10
612.295	1	2
612.634	1	-8
612.974	1	0
613.313	1	5
613.652	1	14
613.992	1	4
614.331	1	5
614.671	1	9
615.010	1	10
615.349	1	4
615.689	1	4
616.028	1	0
616.368	1	-6
616.707	1	-1
617.046	1	-5
617.386	1	-10
617.725	1	4
618.064	1	-2
618.404	1	-5
618.743	1	-6
619.082	1	3
619.422	1	-12
619.761	1	-2
620.100	1	-2
620.440	1	2
620.779	1	6
621.118	1	-3
621.458	1	6
621.797	1	2
622.136	1	2
622.476	1	-6
622.815	1	2
623.154	1	-8
623.494	1	7
623.833	1	4
624.172	1	-10
624.511	1	0
624.851	1	-6
625.190	1	6
625.529	1	4
625.869	1	2
626.208	1	0
626.547	1	-5
626.886	1	-10
627.226	1	9
627.565	1	10
627.904	1	-7
628.243	1	-5
628.583	1	-14
628.922	1	-17
629.261	1	6
629.600	1	-4
629.940	1	-2
630.279	1	-7
630.618	1	-4
630.957	1	2
631.297	1	-9
631.636	1	11
631.975	1	5
632.314	1	5
632.653	1	6
632.993	1	2
633.332	1	-3
633.671	1	10
634.010	1	5
634.349	1	-10
634.689	1	9
635.028	1	-3
635.367	1	0
635.706	1	0
636.045	1	7
636.384	1	-5
636.724	1	6
637.063	1	3
637.402	1	7
637.741	1	-3
638.080	1	10
638.419	1	-3
638.759	1	11
639.098	1	-2
639.437	1	-8
639.776	1	-2
640.115	1	1
640.454	1	-5
640.793	1	-1
641.132	1	-5
641.472	1	-2
641.811	1	11
642.150	1	5
642.489	1	-7
642.828	1	-1
643.167	1	-4
643.506	1	7
643.845	1	11
644.184	1	11
644.524	1	1
644.863	1	-18
645.202	1	10
645.541	1	2
645.880	1	-7
646.219	1	3
646.558	1	9
646.897	1	8
647.236	1	-3
647.575	1	-11
647.914	1	0
648.253	1	-1
648.592	1	5
648.931	1	-4
649.270	1	-4
649.610	1	1
649.949	1	5
650.288	1	-1
650.627	1	-6
650.966	1	1
651.305	1	1
651.644	1	2
651.983	1	7
652.322	1	6
652.661	1	8
653.000	1	-9
653.339	1	3
653.678	1	7
654.017	1	3
654.356	1	-7
654.695	1	3
655.034	1	2
655.373	1	5
655.712	1	-9
656.051	1	1
656.390	1	-7
656.729	1	10
657.068	1	2
657.406	1	-6
657.745	1	9
658.084	1	-2
658.423	1	-5
658.762	1	7
659.101	1	-3
659.440	1	5
659.779	1	-1
660.118	1	7
660.457	1	13
660.796	1	-8
661.135	1	-8
661.474	1	8
661.813	1	0
662.152	1	-3
662.491	1	-6
662.829	1	-6
663.168	1	2
663.507	1	-1
663.846	1	-5
664.185	1	10
664.524	1	1
664.863	1	5
665.202	1	13
665.541	1	-1
665.879	1	-1
666.218	1	10
666.557	1	4
666.896	1	1
667.235	1	-3
667.574	1	-12
667.913	1	1
668.251	1	3
668.590	1	3
668.929	1	3
669.268	1	-5
669.607	1	0
669.946	1	0
670.285	1	11
670.623	1	-1
670.962	1	-1
671.301	1	1
671.640	1	8
671.979	1	-1
672.317	1	8
672.656	1	-7
672.995	1	-6
673.334	1	0
673.673	1	5
674.011	1	18
674.350	1	2
674.689	1	1
675.028	1	1
675.367	1	-8
675.705	1	0
676.044	1	1
676.383	1	1
676.722	1	7
677.060	1	-6
677.399	1	7
677.738	1	1
678.077	1	11
678.416	1	-7
678.754	1	5
679.093	1	3
679.432	1	-3
679.771	1	7
680.109	1	2
680.448	1	0
680.787	1	-5
681.125	1	8
681.464	1	2
681.803	1	-6
682.142	1	1
682.480	1	2
682.819	1	2
683.158	1	-7
683.496	1	6
683.835	1	-7
684.174	1	-3
684.512	1	-1
684.851	1	-2
685.190	1	-4
685.529	1	10
685.867	1	8
686.206	1	6
686.545	1	5
686.883	1	1
687.222	1	2
687.561	1	7
687.899	1	0
688.238	1	-7
688.577	1	9
688.746	1	3