File: Data/GaN_170K_550ms/GaN_sample D_spot 18_UVVIS_170 K_200um_550 ms 2x2mm1_232.txt
340.368	1	1
340.710	1	-9
341.052	1	4
341.394	1	1
341.737	1	2
342.079	1	4
342.421	1	3
342.763	1	7
343.105	1	9
343.447	1	-4
343.789	1	-6
344.131	1	3
344.473	1	6
344.815	1	7
345.157	1	-3
345.499	1	-3
345.841	1	9
346.183	1	-2
346.526	1	1
346.868	1	5
347.210	1	-5
347.552	1	4
347.894	1	7
348.236	1	6
348.578	1	1
348.920	1	0
349.262	1	-2
349.604	1	8
349.946	1	7
350.288	1	3
350.630	1	5
350.972	1	-3
351.314	1	1
351.656	1	2
351.998	1	-3
352.340	1	4
352.682	1	5
353.024	1	4
353.366	1	8
353.708	1	1
354.050	1	-4
354.392	1	5
354.734	1	3
355.076	1	-10
355.418	1	2
355.760	1	3
356.102	1	5
356.444	1	-1
356.785	1	-3
357.127	1	-4
357.469	1	-7
357.811	1	6
358.153	1	5
358.495	1	3
358.837	1	-5
359.179	1	6
359.521	1	3
359.863	1	6
360.205	1	11
360.547	1	7
360.889	1	9
361.231	1	7
361.572	1	9
361.914	1	-3
362.256	1	4
362.598	1	11
362.940	1	18
363.282	1	17
363.624	1	15
363.966	1	4
364.308	1	15
364.649	1	-2
364.991	1	20
365.333	1	6
365.675	1	19
366.017	1	5
366.359	1	7
366.701	1	15
367.042	1	15
367.384	1	24
367.726	1	21
368.068	1	17
368.410	1	18
368.752	1	17
369.093	1	2
369.435	1	15
369.777	1	16
370.119	1	6
370.461	1	20
370.803	1	6
371.144	1	5
371.486	1	0
371.828	1	9
372.170	1	11
372.512	1	14
372.853	1	12
373.195	1	2
373.537	1	19
373.879	1	12
374.220	1	13
374.562	1	13
374.904	1	9
375.246	1	4
375.588	1	8
375.929	1	9
376.271	1	12
376.613	1	4
376.955	1	15
377.296	1	7
377.638	1	11
377.980	1	-2
378.321	1	10
378.663	1	13
379.005	1	-6
379.347	1	-1
379.688	1	1
380.030	1	4
380.372	1	-1
380.714	1	14
381.055	1	0
381.397	1	9
381.739	1	-4
382.080	1	2
382.422	1	7
382.764	1	-2
383.105	1	0
383.447	1	10
383.789	1	18
384.130	1	1
384.472	1	-6
384.814	1	3
385.156	1	2
385.497	1	11
385.839	1	-7
386.180	1	15
386.522	1	9
386.864	1	-4
387.205	1	1
387.547	1	7
387.889	1	8
388.230	1	4
388.572	1	1
388.914	1	2
389.255	1	15
389.597	1	2
389.939	1	3
390.280	1	1
390.622	1	0
390.963	1	2
391.305	1	-2
391.647	1	1
391.988	1	4
392.330	1	-3
392.671	1	-3
393.013	1	3
393.355	1	-3
393.696	1	7
394.038	1	-6
394.379	1	-3
394.721	1	-5
395.062	1	0
395.404	1	10
395.746	1	8
396.087	1	3
396.429	1	10
396.770	1	10
397.112	1	4
397.453	1	5
397.795	1	-3
398.136	1	7
398.478	1	-13
398.819	1	1
399.161	1	-5
399.503	1	3
399.844	1	2
400.186	1	-5
400.527	1	10
400.869	1	1
401.210	1	4
401.552	1	4
401.893	1	7
402.235	1	8
402.576	1	-3
402.918	1	-3
403.259	1	7
403.601	1	9
403.942	1	11
404.284	1	-10
404.625	1	2
404.967	1	8
405.308	1	0
405.649	1	2
405.991	1	4
406.332	1	-14
406.674	1	4
407.015	1	5
407.357	1	-6
407.698	1	0
408.040	1	4
408.381	1	0
408.722	1	2
409.064	1	-5
409.405	1	1
409.747	1	-3
410.088	1	10
410.430	1	-3
410.771	1	1
411.112	1	0
411.454	1	-2
411.795	1	9
412.137	1	-14
412.478	1	3
412.819	1	-6
413.161	1	4
413.502	1	7
413.844	1	15
414.185	1	-1
414.526	1	0
414.868	1	-4
415.209	1	-9
415.550	1	3
415.892	1	3
416.233	1	6
416.575	1	0
416.916	1	1
417.257	1	4
417.599	1	0
417.940	1	2
418.281	1	-4
418.623	1	2
418.964	1	-4
419.305	1	1
419.647	1	7
419.988	1	-1
420.329	1	4
420.671	1	-5
421.012	1	2
421.353	1	3
421.695	1	-2
422.036	1	11
422.377	1	12
422.718	1	13
423.060	1	-7
423.401	1	1
423.742	1	-2
424.084	1	16
424.425	1	-7
424.766	1	1
425.107	1	-7
425.449	1	0
425.790	1	-2
426.131	1	12
426.472	1	-4
426.814	1	0
427.155	1	11
427.496	1	0
427.837	1	3
428.179	1	6
428.520	1	-6
428.861	1	3
429.202	1	-1
429.544	1	-5
429.885	1	-4
430.226	1	5
430.567	1	2
430.909	1	-2
431.250	1	2
431.591	1	1
431.932	1	-10
432.273	1	4
432.615	1	7
432.956	1	-2
433.297	1	-3
433.638	1	11
433.979	1	4
434.320	1	15
434.662	1	-12
435.003	1	10
435.344	1	6
435.685	1	5
436.026	1	0
436.368	1	4
436.709	1	3
437.050	1	-5
437.391	1	0
437.732	1	-1
438.073	1	-3
438.414	1	-5
438.756	1	-2
439.097	1	1
439.438	1	7
439.779	1	9
440.120	1	2
440.461	1	15
440.802	1	0
441.143	1	-4
441.485	1	-4
441.826	1	8
442.167	1	-1
442.508	1	-9
442.849	1	-8
443.190	1	-4
443.531	1	-2
443.872	1	-4
444.213	1	1
444.554	1	3
444.895	1	-17
445.237	1	-12
445.578	1	9
445.919	1	5
446.260	1	6
446.601	1	-9
446.942	1	9
447.283	1	7
447.624	1	-3
447.965	1	3
448.306	1	10
448.647	1	-6
448.988	1	3
449.329	1	4
449.670	1	-8
450.011	1	4
450.352	1	-6
450.693	1	-6
451.034	1	0
451.375	1	7
451.716	1	5
452.057	1	1
452.398	1	7
452.739	1	3
453.080	1	-1
453.421	1	6
453.762	1	-7
454.103	1	7
454.444	1	-1
454.785	1	-7
455.126	1	10
455.467	1	-18
455.808	1	17
456.149	1	3
456.490	1	10
456.831	1	-8
457.172	1	-2
457.513	1	12
457.854	1	10
458.195	1	-6
458.536	1	-3
458.877	1	-2
459.218	1	-6
459.559	1	0
459.899	1	0
460.240	1	2
460.581	1	1
460.922	1	-6
461.263	1	-4
461.604	1	11
461.945	1	5
462.286	1	-1
462.627	1	6
462.968	1	6
463.309	1	13
463.649	1	8
463.990	1	5
464.331	1	5
464.672	1	1
465.013	1	12
465.354	1	-11
465.695	1	4
466.036	1	-6
466.376	1	0
466.717	1	0
467.058	1	7
467.399	1	9
467.740	1	-2
468.081	1	3
468.422	1	3
468.762	1	10
469.103	1	5
469.444	1	-1
469.785	1	1
470.126	1	4
470.467	1	7
470.807	1	-3
471.148	1	-9
471.489	1	6
471.830	1	-2
472.171	1	2
472.511	1	-6
472.852	1	6
473.193	1	5
473.534	1	3
473.875	1	2
474.215	1	-6
474.556	1	0
474.897	1	1
475.238	1	-2
475.578	1	3
475.919	1	12
476.260	1	18
476.601	1	1
476.942	1	-3
477.282	1	9
477.623	1	4
477.964	1	2
478.305	1	-4
478.645	1	3
478.986	1	-7
479.327	1	-11
479.667	1	-9
480.008	1	10
480.349	1	12
480.690	1	9
481.030	1	5
481.371	1	6
481.712	1	0
482.053	1	-7
482.393	1	-11
482.734	1	9
483.075	1	3
483.415	1	-1
483.756	1	-4
484.097	1	-8
484.437	1	-1
484.778	1	-9
485.119	1	1
485.459	1	-13
485.800	1	-10
486.141	1	2
486.481	1	3
486.822	1	6
487.163	1	0
487.503	1	10
487.844	1	3
488.185	1	-4
488.525	1	11
488.866	1	9
489.207	1	6
489.547	1	6
489.888	1	9
490.228	1	-5
490.569	1	7
490.910	1	-6
491.250	1	-1
491.591	1	3
491.932	1	9
492.272	1	6
492.613	1	8
492.953	1	9
493.294	1	-6
493.635	1	5
493.975	1	2
494.316	1	0
494.656	1	-6
494.997	1	8
495.337	1	19
495.678	1	0
496.019	1	-7
496.359	1	6
496.700	1	6
497.040	1	-6
497.381	1	3
497.721	1	-5
498.062	1	1
498.403	1	13
498.743	1	1
499.084	1	0
499.424	1	14
499.765	1	-8
500.105	1	0
500.446	1	7
500.786	1	-5
501.127	1	5
501.467	1	-5
501.808	1	-7
502.148	1	16
502.489	1	3
502.829	1	5
503.170	1	9
503.510	1	2
503.851	1	-4
504.191	1	-8
504.532	1	-14
504.872	1	5
505.213	1	0
505.553	1	2
505.894	1	2
506.234	1	3
506.575	1	1
506.915	1	7
507.256	1	-6
507.596	1	4
507.936	1	12
508.277	1	-10
508.617	1	1
508.958	1	5
509.298	1	7
509.639	1	15
509.979	1	4
510.319	1	-5
510.660	1	2
511.000	1	-1
511.341	1	11
511.681	1	9
512.022	1	9
512.362	1	7
512.702	1	-6
513.043	1	4
513.383	1	2
513.724	1	4
514.064	1	7
514.404	1	-5
514.745	1	0
515.085	1	8
515.425	1	0
515.766	1	5
516.106	1	4
516.447	1	7
516.787	1	6
517.127	1	11
517.468	1	4
517.808	1	12
518.148	1	-1
518.489	1	14
518.829	1	2
519.169	1	-7
519.510	1	8
519.850	1	4
520.190	1	1
520.531	1	2
520.871	1	-3
521.211	1	-2
521.552	1	3
521.892	1	5
522.232	1	-6
522.573	1	2
522.913	1	9
523.253	1	10
523.593	1	-4
523.934	1	-5
524.274	1	3
524.614	1	3
524.955	1	-1
525.295	1	5
525.635	1	2
525.975	1	-9
526.316	1	7
526.656	1	5
526.996	1	9
527.337	1	-6
527.677	1	-7
528.017	1	4
528.357	1	-12
528.698	1	-3
529.038	1	3
529.378	1	4
529.718	1	10
530.058	1	10
530.399	1	8
530.739	1	7
531.079	1	4
531.419	1	4
531.760	1	11
532.100	1	8
532.440	1	8
532.780	1	-1
533.120	1	2
533.461	1	1
533.801	1	12
534.141	1	2
534.481	1	8
534.821	1	4
535.162	1	8
535.502	1	6
535.842	1	-2
536.182	1	1
536.522	1	9
536.862	1	15
537.203	1	5
537.543	1	-1
537.883	1	14
538.223	1	-3
538.563	1	5
538.903	1	5
539.243	1	9
539.584	1	4
539.924	1	-2
540.264	1	10
540.604	1	1
540.944	1	6
541.284	1	12
541.624	1	-2
541.964	1	2
542.305	1	1
542.645	1	0
542.985	1	-3
543.325	1	0
543.665	1	5
544.005	1	15
544.345	1	1
544.685	1	-4
545.025	1	-3
545.365	1	7
545.705	1	11
546.045	1	3
546.386	1	7
546.726	1	-10
547.066	1	11
547.406	1	2
547.746	1	-1
548.086	1	-2
548.426	1	7
548.766	1	-1
549.106	1	12
549.446	1	10
549.786	1	2
550.126	1	0
550.466	1	-5
550.806	1	2
551.146	1	6
551.486	1	2
551.826	1	1
552.166	1	1
552.506	1	8
552.846	1	-5
553.186	1	-8
553.526	1	-2
553.866	1	-8
554.206	1	5
554.546	1	-4
554.886	1	4
555.226	1	-1
555.566	1	1
555.906	1	3
556.246	1	4
556.586	1	-4
556.926	1	6
557.266	1	0
557.606	1	2
557.946	1	6
558.286	1	-7
558.626	1	18
558.966	1	8
559.306	1	6
559.646	1	2
559.986	1	-3
560.325	1	4
560.665	1	3
561.005	1	1
561.345	1	-4
561.685	1	-4
562.025	1	-4
562.365	1	-1
562.705	1	5
563.045	1	-7
563.385	1	5
563.725	1	-2
564.064	1	3
564.404	1	-1
564.744	1	-2
565.084	1	-2
565.424	1	8
565.764	1	-2
566.104	1	-1
566.444	1	-3
566.783	1	7
567.123	1	3
567.463	1	-5
567.803	1	6
568.143	1	3
568.483	1	2
568.823	1	-1
569.162	1	0
569.502	1	-1
569.842	1	-4
570.182	1	1
570.522	1	-2
570.862	1	1
571.201	1	11
571.541	1	-4
571.881	1	-8
572.221	1	8
572.561	1	6
572.900	1	2
573.240	1	6
573.580	1	4
573.920	1	15
574.260	1	6
574.599	1	-2
574.939	1	-1
575.279	1	-3
575.619	1	10
575.959	1	-7
576.298	1	11
576.638	1	4
576.978	1	-1
577.318	1	8
577.657	1	-1
577.997	1	-6
578.337	1	-4
578.677	1	4
579.016	1	11
579.356	1	0
579.696	1	-5
580.036	1	1
580.375	1	1
580.715	1	11
581.055	1	6
581.394	1	3
581.734	1	6
582.074	1	4
582.414	1	-5
582.753	1	-2
583.093	1	7
583.433	1	14
583.772	1	2
584.112	1	5
584.452	1	-4
584.791	1	3
585.131	1	8
585.471	1	6
585.811	1	-10
586.150	1	-6
586.490	1	-4
586.830	1	2
587.169	1	17
587.509	1	3
587.849	1	3
588.188	1	4
588.528	1	-2
588.867	1	2
589.207	1	0
589.547	1	-1
589.886	1	-4
590.226	1	7
590.566	1	3
590.905	1	-2
591.245	1	8
591.585	1	7
591.924	1	-5
592.264	1	-11
592.603	1	-1
592.943	1	4
593.283	1	7
593.622	1	-5
593.962	1	6
594.301	1	5
594.641	1	0
594.981	1	8
595.320	1	-1
595.660	1	6
595.999	1	3
596.339	1	10
596.678	1	-5
597.018	1	7
597.358	1	-11
597.697	1	-5
598.037	1	-3
598.376	1	-12
598.716	1	9
599.055	1	-2
599.395	1	-4
599.734	1	4
600.074	1	-8
600.413	1	-2
600.753	1	5
601.092	1	4
601.432	1	-6
601.771	1	14
602.111	1	1
602.451	1	9
602.790	1	8
603.130	1	-1
603.469	1	3
603.809	1	4
604.148	1	5
604.487	1	7
604.827	1	-15
605.166	1	6
605.506	1	-5
605.845	1	3
606.185	1	4
606.524	1	-4
606.864	1	3
607.203	1	2
607.543	1	8
607.882	1	-8
608.222	1	-6
608.561	1	-1
608.901	1	-3
609.240	1	-4
609.579	1	10
609.919	1	-3
610.258	1	4
610.598	1	5
610.937	1	-1
611.277	1	0
611.616	1	10
611.955	1	4
612.295	1	3
612.634	1	-4
612.974	1	2
613.313	1	-1
613.652	1	9
613.992	1	-6
614.331	1	3
614.671	1	5
615.010	1	8
615.349	1	3
615.689	1	6
616.028	1	-6
616.368	1	3
616.707	1	10
617.046	1	0
617.386	1	4
617.725	1	2
618.064	1	3
618.404	1	4
618.743	1	0
619.082	1	15
619.422	1	1
619.761	1	-3
620.100	1	1
620.440	1	13
620.779	1	-5
621.118	1	-5
621.458	1	0
621.797	1	7
622.136	1	9
622.476	1	-6
622.815	1	9
623.154	1	-2
623.494	1	0
623.833	1	3
624.172	1	2
624.511	1	1
624.851	1	-4
625.190	1	10
625.529	1	9
625.869	1	1
626.208	1	-2
626.547	1	-3
626.886	1	2
627.226	1	-8
627.565	1	6
627.904	1	5
628.243	1	-5
628.583	1	-16
628.922	1	-5
629.261	1	3
629.600	1	5
629.940	1	-4
630.279	1	-2
630.618	1	0
630.957	1	6
631.297	1	3
631.636	1	3
631.975	1	-2
632.314	1	5
632.653	1	4
632.993	1	2
633.332	1	4
633.671	1	-3
634.010	1	3
634.349	1	-11
634.689	1	4
635.028	1	-1
635.367	1	1
635.706	1	-5
636.045	1	7
636.384	1	-1
636.724	1	3
637.063	1	0
637.402	1	9
637.741	1	3
638.080	1	12
638.419	1	-8
638.759	1	8
639.098	1	-2
639.437	1	-4
639.776	1	5
640.115	1	8
640.454	1	-6
640.793	1	-2
641.132	1	3
641.472	1	-10
641.811	1	6
642.150	1	-7
642.489	1	-6
642.828	1	0
643.167	1	-2
643.506	1	8
643.845	1	1
644.184	1	13
644.524	1	-1
644.863	1	-9
645.202	1	5
645.541	1	2
645.880	1	1
646.219	1	-3
646.558	1	12
646.897	1	4
647.236	1	-4
647.575	1	-13
647.914	1	-5
648.253	1	1
648.592	1	0
648.931	1	2
649.270	1	4
649.610	1	4
649.949	1	-3
650.288	1	-3
650.627	1	-3
650.966	1	-3
651.305	1	-13
651.644	1	7
651.983	1	7
652.322	1	1
652.661	1	8
653.000	1	-15
653.339	1	-3
653.678	1	4
654.017	1	2
654.356	1	-2
654.695	1	11
655.034	1	-5
655.373	1	14
655.712	1	-8
656.051	1	0
656.390	1	7
656.729	1	6
657.068	1	12
657.406	1	6
657.745	1	7
658.084	1	-9
658.423	1	-10
658.762	1	2
659.101	1	-1
659.440	1	4
659.779	1	-2
660.118	1	5
660.457	1	9
660.796	1	-4
661.135	1	-15
661.474	1	4
661.813	1	-2
662.152	1	0
662.491	1	-8
662.829	1	5
663.168	1	3
663.507	1	-6
663.846	1	-1
664.185	1	8
664.524	1	6
664.863	1	-2
665.202	1	10
665.541	1	2
665.879	1	3
666.218	1	3
666.557	1	2
666.896	1	2
667.235	1	-2
667.574	1	-13
667.913	1	-5
668.251	1	5
668.590	1	1
668.929	1	-2
669.268	1	-4
669.607	1	2
669.946	1	5
670.285	1	16
670.623	1	-5
670.962	1	-3
671.301	1	2
671.640	1	2
671.979	1	-1
672.317	1	0
672.656	1	-1
672.995	1	-12
673.334	1	4
673.673	1	2
674.011	1	7
674.350	1	10
674.689	1	-2
675.028	1	-5
675.367	1	-5
675.705	1	6
676.044	1	16
676.383	1	5
676.722	1	7
677.060	1	-9
677.399	1	9
677.738	1	-1
678.077	1	21
678.416	1	-3
678.754	1	1
679.093	1	9
679.432	1	3
679.771	1	7
680.109	1	-5
680.448	1	1
680.787	1	-4
681.125	1	3
681.464	1	0
681.803	1	6
682.142	1	7
682.480	1	5
682.819	1	9
683.158	1	-4
683.496	1	2
683.835	1	-1
684.174	1	1
684.512	1	6
684.851	1	-1
685.190	1	-3
685.529	1	9
685.867	1	9
686.206	1	8
686.545	1	4
686.883	1	6
687.222	1	4
687.561	1	3
687.899	1	-8
688.238	1	0
688.577	1	11
688.746	1	-2