File: Data/GaN_170K_550ms/GaN_sample D_spot 18_UVVIS_170 K_200um_550 ms 2x2mm1_181.txt
340.368	1	1
340.710	1	-7
341.052	1	6
341.394	1	1
341.737	1	0
342.079	1	0
342.421	1	-2
342.763	1	7
343.105	1	10
343.447	1	-9
343.789	1	5
344.131	1	-1
344.473	1	-2
344.815	1	12
345.157	1	4
345.499	1	4
345.841	1	2
346.183	1	9
346.526	1	14
346.868	1	2
347.210	1	-2
347.552	1	6
347.894	1	1
348.236	1	3
348.578	1	3
348.920	1	-2
349.262	1	-2
349.604	1	5
349.946	1	10
350.288	1	3
350.630	1	10
350.972	1	-8
351.314	1	1
351.656	1	-5
351.998	1	7
352.340	1	6
352.682	1	1
353.024	1	-1
353.366	1	2
353.708	1	15
354.050	1	-6
354.392	1	0
354.734	1	-5
355.076	1	6
355.418	1	-1
355.760	1	5
356.102	1	4
356.444	1	-2
356.785	1	0
357.127	1	0
357.469	1	2
357.811	1	5
358.153	1	10
358.495	1	1
358.837	1	4
359.179	1	1
359.521	1	8
359.863	1	13
360.205	1	11
360.547	1	5
360.889	1	18
361.231	1	4
361.572	1	21
361.914	1	7
362.256	1	13
362.598	1	13
362.940	1	18
363.282	1	15
363.624	1	12
363.966	1	8
364.308	1	20
364.649	1	8
364.991	1	14
365.333	1	13
365.675	1	22
366.017	1	15
366.359	1	15
366.701	1	21
367.042	1	18
367.384	1	28
367.726	1	35
368.068	1	15
368.410	1	22
368.752	1	33
369.093	1	15
369.435	1	24
369.777	1	30
370.119	1	16
370.461	1	23
370.803	1	22
371.144	1	18
371.486	1	11
371.828	1	31
372.170	1	19
372.512	1	16
372.853	1	24
373.195	1	17
373.537	1	27
373.879	1	25
374.220	1	18
374.562	1	13
374.904	1	19
375.246	1	10
375.588	1	7
375.929	1	12
376.271	1	16
376.613	1	16
376.955	1	17
377.296	1	9
377.638	1	16
377.980	1	2
378.321	1	17
378.663	1	17
379.005	1	9
379.347	1	7
379.688	1	4
380.030	1	8
380.372	1	6
380.714	1	17
381.055	1	3
381.397	1	5
381.739	1	5
382.080	1	9
382.422	1	19
382.764	1	5
383.105	1	8
383.447	1	1
383.789	1	23
384.130	1	2
384.472	1	4
384.814	1	-1
385.156	1	3
385.497	1	8
385.839	1	-2
386.180	1	16
386.522	1	6
386.864	1	2
387.205	1	2
387.547	1	0
387.889	1	3
388.230	1	-1
388.572	1	8
388.914	1	5
389.255	1	14
389.597	1	1
389.939	1	6
390.280	1	0
390.622	1	9
390.963	1	4
391.305	1	0
391.647	1	0
391.988	1	14
392.330	1	8
392.671	1	-5
393.013	1	-2
393.355	1	2
393.696	1	8
394.038	1	-6
394.379	1	-4
394.721	1	2
395.062	1	0
395.404	1	6
395.746	1	4
396.087	1	10
396.429	1	5
396.770	1	4
397.112	1	0
397.453	1	9
397.795	1	3
398.136	1	10
398.478	1	2
398.819	1	15
399.161	1	0
399.503	1	8
399.844	1	-1
400.186	1	-2
400.527	1	16
400.869	1	-1
401.210	1	8
401.552	1	7
401.893	1	7
402.235	1	5
402.576	1	3
402.918	1	-1
403.259	1	8
403.601	1	4
403.942	1	2
404.284	1	-7
404.625	1	1
404.967	1	13
405.308	1	2
405.649	1	0
405.991	1	3
406.332	1	-11
406.674	1	9
407.015	1	15
407.357	1	1
407.698	1	2
408.040	1	-1
408.381	1	1
408.722	1	-6
409.064	1	0
409.405	1	6
409.747	1	-1
410.088	1	18
410.430	1	0
410.771	1	-1
411.112	1	1
411.454	1	-2
411.795	1	12
412.137	1	-5
412.478	1	-1
412.819	1	2
413.161	1	7
413.502	1	0
413.844	1	13
414.185	1	3
414.526	1	6
414.868	1	2
415.209	1	-9
415.550	1	-4
415.892	1	1
416.233	1	5
416.575	1	2
416.916	1	-1
417.257	1	-1
417.599	1	-5
417.940	1	9
418.281	1	-6
418.623	1	2
418.964	1	-9
419.305	1	4
419.647	1	11
419.988	1	8
420.329	1	-7
420.671	1	-6
421.012	1	2
421.353	1	6
421.695	1	-6
422.036	1	11
422.377	1	11
422.718	1	15
423.060	1	-8
423.401	1	-1
423.742	1	4
424.084	1	9
424.425	1	-5
424.766	1	2
425.107	1	1
425.449	1	5
425.790	1	1
426.131	1	8
426.472	1	1
426.814	1	-3
427.155	1	10
427.496	1	-5
427.837	1	5
428.179	1	8
428.520	1	-3
428.861	1	-4
429.202	1	-3
429.544	1	2
429.885	1	2
430.226	1	-3
430.567	1	0
430.909	1	-4
431.250	1	16
431.591	1	-5
431.932	1	-12
432.273	1	2
432.615	1	4
432.956	1	8
433.297	1	-7
433.638	1	1
433.979	1	1
434.320	1	11
434.662	1	-21
435.003	1	5
435.344	1	-1
435.685	1	4
436.026	1	4
436.368	1	7
436.709	1	5
437.050	1	-8
437.391	1	-7
437.732	1	2
438.073	1	1
438.414	1	-4
438.756	1	0
439.097	1	1
439.438	1	1
439.779	1	8
440.120	1	-9
440.461	1	13
440.802	1	13
441.143	1	4
441.485	1	-2
441.826	1	4
442.167	1	2
442.508	1	-1
442.849	1	2
443.190	1	0
443.531	1	1
443.872	1	0
444.213	1	-3
444.554	1	-3
444.895	1	-13
445.237	1	0
445.578	1	8
445.919	1	2
446.260	1	8
446.601	1	0
446.942	1	6
447.283	1	5
447.624	1	5
447.965	1	-4
448.306	1	2
448.647	1	-3
448.988	1	20
449.329	1	4
449.670	1	-6
450.011	1	1
450.352	1	-4
450.693	1	1
451.034	1	-7
451.375	1	2
451.716	1	-2
452.057	1	-1
452.398	1	3
452.739	1	6
453.080	1	-3
453.421	1	8
453.762	1	-1
454.103	1	-8
454.444	1	0
454.785	1	-3
455.126	1	7
455.467	1	-9
455.808	1	6
456.149	1	7
456.490	1	-1
456.831	1	-1
457.172	1	3
457.513	1	2
457.854	1	15
458.195	1	-6
458.536	1	1
458.877	1	4
459.218	1	7
459.559	1	0
459.899	1	0
460.240	1	-6
460.581	1	12
460.922	1	-1
461.263	1	-4
461.604	1	4
461.945	1	4
462.286	1	-7
462.627	1	-5
462.968	1	8
463.309	1	-2
463.649	1	7
463.990	1	-1
464.331	1	-5
464.672	1	-3
465.013	1	7
465.354	1	3
465.695	1	11
466.036	1	0
466.376	1	1
466.717	1	-4
467.058	1	1
467.399	1	9
467.740	1	-5
468.081	1	-8
468.422	1	-1
468.762	1	21
469.103	1	7
469.444	1	1
469.785	1	0
470.126	1	9
470.467	1	6
470.807	1	-2
471.148	1	2
471.489	1	3
471.830	1	-8
472.171	1	9
472.511	1	7
472.852	1	3
473.193	1	-2
473.534	1	4
473.875	1	3
474.215	1	9
474.556	1	14
474.897	1	1
475.238	1	2
475.578	1	5
475.919	1	5
476.260	1	5
476.601	1	-6
476.942	1	-12
477.282	1	10
477.623	1	6
477.964	1	5
478.305	1	4
478.645	1	-1
478.986	1	7
479.327	1	-6
479.667	1	2
480.008	1	3
480.349	1	12
480.690	1	1
481.030	1	7
481.371	1	3
481.712	1	12
482.053	1	1
482.393	1	3
482.734	1	2
483.075	1	4
483.415	1	8
483.756	1	7
484.097	1	-5
484.437	1	3
484.778	1	0
485.119	1	-3
485.459	1	0
485.800	1	-10
486.141	1	9
486.481	1	4
486.822	1	7
487.163	1	1
487.503	1	-4
487.844	1	-5
488.185	1	1
488.525	1	5
488.866	1	6
489.207	1	-2
489.547	1	14
489.888	1	6
490.228	1	2
490.569	1	9
490.910	1	-2
491.250	1	1
491.591	1	-1
491.932	1	8
492.272	1	4
492.613	1	1
492.953	1	-8
493.294	1	4
493.635	1	7
493.975	1	7
494.316	1	5
494.656	1	2
494.997	1	3
495.337	1	11
495.678	1	5
496.019	1	-7
496.359	1	-2
496.700	1	4
497.040	1	4
497.381	1	5
497.721	1	0
498.062	1	-6
498.403	1	5
498.743	1	0
499.084	1	-1
499.424	1	13
499.765	1	-15
500.105	1	0
500.446	1	3
500.786	1	4
501.127	1	2
501.467	1	2
501.808	1	1
502.148	1	7
502.489	1	-3
502.829	1	7
503.170	1	17
503.510	1	5
503.851	1	12
504.191	1	-4
504.532	1	-11
504.872	1	5
505.213	1	8
505.553	1	-5
505.894	1	10
506.234	1	-14
506.575	1	1
506.915	1	3
507.256	1	-3
507.596	1	1
507.936	1	9
508.277	1	-2
508.617	1	14
508.958	1	3
509.298	1	-2
509.639	1	10
509.979	1	3
510.319	1	-3
510.660	1	-2
511.000	1	-1
511.341	1	10
511.681	1	-3
512.022	1	10
512.362	1	5
512.702	1	-8
513.043	1	0
513.383	1	5
513.724	1	-5
514.064	1	9
514.404	1	-3
514.745	1	5
515.085	1	11
515.425	1	10
515.766	1	3
516.106	1	6
516.447	1	0
516.787	1	13
517.127	1	-2
517.468	1	8
517.808	1	13
518.148	1	5
518.489	1	20
518.829	1	3
519.169	1	-6
519.510	1	5
519.850	1	6
520.190	1	15
520.531	1	6
520.871	1	4
521.211	1	8
521.552	1	11
521.892	1	2
522.232	1	1
522.573	1	6
522.913	1	-1
523.253	1	15
523.593	1	8
523.934	1	10
524.274	1	3
524.614	1	6
524.955	1	8
525.295	1	8
525.635	1	6
525.975	1	12
526.316	1	16
526.656	1	13
526.996	1	13
527.337	1	10
527.677	1	7
528.017	1	8
528.357	1	-4
528.698	1	-14
529.038	1	1
529.378	1	6
529.718	1	8
530.058	1	10
530.399	1	4
530.739	1	15
531.079	1	6
531.419	1	10
531.760	1	0
532.100	1	-3
532.440	1	6
532.780	1	-1
533.120	1	13
533.461	1	-2
533.801	1	6
534.141	1	-6
534.481	1	10
534.821	1	4
535.162	1	5
535.502	1	9
535.842	1	5
536.182	1	0
536.522	1	4
536.862	1	10
537.203	1	8
537.543	1	1
537.883	1	6
538.223	1	1
538.563	1	8
538.903	1	4
539.243	1	3
539.584	1	8
539.924	1	2
540.264	1	7
540.604	1	1
540.944	1	-7
541.284	1	8
541.624	1	-2
541.964	1	5
542.305	1	2
542.645	1	-2
542.985	1	8
543.325	1	7
543.665	1	2
544.005	1	12
544.345	1	5
544.685	1	3
545.025	1	7
545.365	1	1
545.705	1	13
546.045	1	1
546.386	1	5
546.726	1	6
547.066	1	15
547.406	1	13
547.746	1	-4
548.086	1	13
548.426	1	10
548.766	1	-1
549.106	1	14
549.446	1	12
549.786	1	0
550.126	1	1
550.466	1	11
550.806	1	1
551.146	1	10
551.486	1	-1
551.826	1	8
552.166	1	-3
552.506	1	11
552.846	1	-5
553.186	1	10
553.526	1	1
553.866	1	-5
554.206	1	5
554.546	1	-4
554.886	1	-1
555.226	1	0
555.566	1	12
555.906	1	-5
556.246	1	12
556.586	1	-4
556.926	1	12
557.266	1	4
557.606	1	9
557.946	1	3
558.286	1	-1
558.626	1	13
558.966	1	6
559.306	1	13
559.646	1	10
559.986	1	8
560.325	1	-1
560.665	1	16
561.005	1	3
561.345	1	-9
561.685	1	-9
562.025	1	-1
562.365	1	4
562.705	1	9
563.045	1	-1
563.385	1	8
563.725	1	0
564.064	1	10
564.404	1	6
564.744	1	0
565.084	1	6
565.424	1	6
565.764	1	-4
566.104	1	12
566.444	1	-3
566.783	1	11
567.123	1	6
567.463	1	5
567.803	1	3
568.143	1	5
568.483	1	4
568.823	1	9
569.162	1	3
569.502	1	3
569.842	1	-10
570.182	1	-1
570.522	1	5
570.862	1	3
571.201	1	8
571.541	1	-2
571.881	1	2
572.221	1	1
572.561	1	7
572.900	1	-6
573.240	1	7
573.580	1	4
573.920	1	8
574.260	1	4
574.599	1	1
574.939	1	-1
575.279	1	0
575.619	1	5
575.959	1	-8
576.298	1	3
576.638	1	11
576.978	1	-1
577.318	1	7
577.657	1	3
577.997	1	5
578.337	1	3
578.677	1	4
579.016	1	7
579.356	1	6
579.696	1	-3
580.036	1	-1
580.375	1	9
580.715	1	10
581.055	1	4
581.394	1	8
581.734	1	6
582.074	1	2
582.414	1	-10
582.753	1	-1
583.093	1	-1
583.433	1	8
583.772	1	-6
584.112	1	3
584.452	1	-3
584.791	1	1
585.131	1	18
585.471	1	11
585.811	1	-8
586.150	1	-1
586.490	1	0
586.830	1	-6
587.169	1	9
587.509	1	4
587.849	1	1
588.188	1	8
588.528	1	-1
588.867	1	0
589.207	1	-4
589.547	1	8
589.886	1	-2
590.226	1	2
590.566	1	-2
590.905	1	8
591.245	1	3
591.585	1	3
591.924	1	-10
592.264	1	-10
592.603	1	0
592.943	1	-2
593.283	1	2
593.622	1	-9
593.962	1	1
594.301	1	11
594.641	1	7
594.981	1	12
595.320	1	3
595.660	1	8
595.999	1	1
596.339	1	10
596.678	1	-2
597.018	1	3
597.358	1	-3
597.697	1	-6
598.037	1	8
598.376	1	-8
598.716	1	-1
599.055	1	-2
599.395	1	-5
599.734	1	6
600.074	1	0
600.413	1	1
600.753	1	9
601.092	1	0
601.432	1	-10
601.771	1	6
602.111	1	0
602.451	1	10
602.790	1	8
603.130	1	-9
603.469	1	-2
603.809	1	5
604.148	1	8
604.487	1	5
604.827	1	-6
605.166	1	2
605.506	1	9
605.845	1	3
606.185	1	1
606.524	1	-8
606.864	1	-1
607.203	1	3
607.543	1	5
607.882	1	-2
608.222	1	0
608.561	1	4
608.901	1	3
609.240	1	10
609.579	1	-2
609.919	1	0
610.258	1	9
610.598	1	5
610.937	1	13
611.277	1	2
611.616	1	5
611.955	1	-1
612.295	1	-3
612.634	1	0
612.974	1	3
613.313	1	0
613.652	1	9
613.992	1	-3
614.331	1	-5
614.671	1	14
615.010	1	2
615.349	1	-2
615.689	1	0
616.028	1	1
616.368	1	0
616.707	1	5
617.046	1	-8
617.386	1	0
617.725	1	5
618.064	1	-5
618.404	1	5
618.743	1	6
619.082	1	12
619.422	1	1
619.761	1	0
620.100	1	2
620.440	1	6
620.779	1	4
621.118	1	-1
621.458	1	3
621.797	1	-5
622.136	1	3
622.476	1	-1
622.815	1	7
623.154	1	9
623.494	1	-1
623.833	1	1
624.172	1	11
624.511	1	7
624.851	1	1
625.190	1	6
625.529	1	7
625.869	1	9
626.208	1	8
626.547	1	-10
626.886	1	12
627.226	1	4
627.565	1	2
627.904	1	0
628.243	1	4
628.583	1	-3
628.922	1	-6
629.261	1	0
629.600	1	8
629.940	1	-4
630.279	1	6
630.618	1	1
630.957	1	5
631.297	1	-3
631.636	1	6
631.975	1	-3
632.314	1	3
632.653	1	12
632.993	1	6
633.332	1	7
633.671	1	7
634.010	1	5
634.349	1	-7
634.689	1	10
635.028	1	4
635.367	1	1
635.706	1	7
636.045	1	5
636.384	1	-6
636.724	1	8
637.063	1	-1
637.402	1	8
637.741	1	-6
638.080	1	9
638.419	1	-6
638.759	1	8
639.098	1	-8
639.437	1	-1
639.776	1	-2
640.115	1	5
640.454	1	1
640.793	1	-6
641.132	1	6
641.472	1	-5
641.811	1	-1
642.150	1	5
642.489	1	-1
642.828	1	4
643.167	1	-2
643.506	1	3
643.845	1	-1
644.184	1	13
644.524	1	2
644.863	1	-7
645.202	1	3
645.541	1	6
645.880	1	-5
646.219	1	0
646.558	1	9
646.897	1	10
647.236	1	0
647.575	1	2
647.914	1	-4
648.253	1	-9
648.592	1	5
648.931	1	3
649.270	1	3
649.610	1	5
649.949	1	-1
650.288	1	11
650.627	1	-3
650.966	1	3
651.305	1	1
651.644	1	11
651.983	1	2
652.322	1	3
652.661	1	3
653.000	1	-6
653.339	1	-8
653.678	1	9
654.017	1	8
654.356	1	1
654.695	1	16
655.034	1	2
655.373	1	6
655.712	1	-10
656.051	1	3
656.390	1	0
656.729	1	-2
657.068	1	2
657.406	1	-1
657.745	1	11
658.084	1	-8
658.423	1	8
658.762	1	-5
659.101	1	-2
659.440	1	2
659.779	1	3
660.118	1	-3
660.457	1	6
660.796	1	-4
661.135	1	0
661.474	1	1
661.813	1	3
662.152	1	-3
662.491	1	1
662.829	1	2
663.168	1	3
663.507	1	0
663.846	1	2
664.185	1	7
664.524	1	-5
664.863	1	9
665.202	1	16
665.541	1	0
665.879	1	10
666.218	1	10
666.557	1	0
666.896	1	5
667.235	1	-6
667.574	1	-16
667.913	1	-2
668.251	1	3
668.590	1	5
668.929	1	4
669.268	1	0
669.607	1	-4
669.946	1	0
670.285	1	11
670.623	1	-3
670.962	1	4
671.301	1	-4
671.640	1	8
671.979	1	-3
672.317	1	5
672.656	1	1
672.995	1	-4
673.334	1	-2
673.673	1	-5
674.011	1	0
674.350	1	7
674.689	1	1
675.028	1	-2
675.367	1	-15
675.705	1	5
676.044	1	13
676.383	1	3
676.722	1	9
677.060	1	-6
677.399	1	-5
677.738	1	6
678.077	1	12
678.416	1	-3
678.754	1	0
679.093	1	1
679.432	1	2
679.771	1	0
680.109	1	-3
680.448	1	2
680.787	1	6
681.125	1	7
681.464	1	11
681.803	1	12
682.142	1	-1
682.480	1	1
682.819	1	13
683.158	1	-5
683.496	1	8
683.835	1	-4
684.174	1	0
684.512	1	4
684.851	1	-1
685.190	1	1
685.529	1	10
685.867	1	4
686.206	1	11
686.545	1	4
686.883	1	1
687.222	1	-4
687.561	1	4
687.899	1	-12
688.238	1	-1
688.577	1	6
688.746	1	-1