File: Data/GaN_170K_550ms/GaN_sample D_spot 18_UVVIS_170 K_200um_550 ms 2x2mm1_159.txt
340.368	1	0
340.710	1	-4
341.052	1	-3
341.394	1	2
341.737	1	-2
342.079	1	-3
342.421	1	7
342.763	1	8
343.105	1	13
343.447	1	-3
343.789	1	4
344.131	1	5
344.473	1	7
344.815	1	8
345.157	1	6
345.499	1	-6
345.841	1	11
346.183	1	7
346.526	1	-2
346.868	1	10
347.210	1	-1
347.552	1	7
347.894	1	8
348.236	1	4
348.578	1	15
348.920	1	2
349.262	1	-1
349.604	1	8
349.946	1	7
350.288	1	0
350.630	1	8
350.972	1	-3
351.314	1	5
351.656	1	-1
351.998	1	7
352.340	1	7
352.682	1	8
353.024	1	-5
353.366	1	8
353.708	1	10
354.050	1	0
354.392	1	5
354.734	1	12
355.076	1	-2
355.418	1	4
355.760	1	7
356.102	1	4
356.444	1	2
356.785	1	5
357.127	1	3
357.469	1	4
357.811	1	8
358.153	1	7
358.495	1	2
358.837	1	8
359.179	1	5
359.521	1	8
359.863	1	2
360.205	1	22
360.547	1	13
360.889	1	19
361.231	1	8
361.572	1	20
361.914	1	11
362.256	1	14
362.598	1	17
362.940	1	19
363.282	1	15
363.624	1	26
363.966	1	17
364.308	1	25
364.649	1	17
364.991	1	26
365.333	1	14
365.675	1	24
366.017	1	26
366.359	1	23
366.701	1	32
367.042	1	31
367.384	1	47
367.726	1	38
368.068	1	38
368.410	1	29
368.752	1	33
369.093	1	21
369.435	1	27
369.777	1	44
370.119	1	23
370.461	1	40
370.803	1	17
371.144	1	25
371.486	1	25
371.828	1	24
372.170	1	20
372.512	1	20
372.853	1	26
373.195	1	22
373.537	1	22
373.879	1	25
374.220	1	19
374.562	1	23
374.904	1	13
375.246	1	13
375.588	1	26
375.929	1	11
376.271	1	28
376.613	1	16
376.955	1	13
377.296	1	13
377.638	1	21
377.980	1	-1
378.321	1	15
378.663	1	10
379.005	1	3
379.347	1	9
379.688	1	11
380.030	1	9
380.372	1	17
380.714	1	16
381.055	1	14
381.397	1	12
381.739	1	9
382.080	1	2
382.422	1	3
382.764	1	6
383.105	1	5
383.447	1	11
383.789	1	14
384.130	1	-3
384.472	1	4
384.814	1	10
385.156	1	7
385.497	1	11
385.839	1	0
386.180	1	8
386.522	1	13
386.864	1	1
387.205	1	1
387.547	1	6
387.889	1	6
388.230	1	5
388.572	1	12
388.914	1	5
389.255	1	11
389.597	1	10
389.939	1	-5
390.280	1	0
390.622	1	-4
390.963	1	3
391.305	1	9
391.647	1	3
391.988	1	4
392.330	1	2
392.671	1	-4
393.013	1	-1
393.355	1	10
393.696	1	7
394.038	1	-9
394.379	1	-2
394.721	1	-4
395.062	1	-1
395.404	1	14
395.746	1	10
396.087	1	4
396.429	1	-2
396.770	1	11
397.112	1	3
397.453	1	18
397.795	1	1
398.136	1	5
398.478	1	3
398.819	1	9
399.161	1	3
399.503	1	6
399.844	1	-1
400.186	1	-3
400.527	1	12
400.869	1	0
401.210	1	9
401.552	1	8
401.893	1	9
402.235	1	1
402.576	1	1
402.918	1	3
403.259	1	8
403.601	1	9
403.942	1	6
404.284	1	-9
404.625	1	3
404.967	1	-3
405.308	1	5
405.649	1	9
405.991	1	9
406.332	1	-14
406.674	1	15
407.015	1	11
407.357	1	2
407.698	1	1
408.040	1	5
408.381	1	2
408.722	1	-1
409.064	1	-3
409.405	1	2
409.747	1	5
410.088	1	2
410.430	1	-1
410.771	1	0
411.112	1	5
411.454	1	1
411.795	1	6
412.137	1	-2
412.478	1	1
412.819	1	-6
413.161	1	3
413.502	1	6
413.844	1	9
414.185	1	-1
414.526	1	9
414.868	1	-8
415.209	1	-17
415.550	1	1
415.892	1	7
416.233	1	6
416.575	1	-3
416.916	1	-4
417.257	1	-7
417.599	1	0
417.940	1	4
418.281	1	-14
418.623	1	0
418.964	1	1
419.305	1	-2
419.647	1	2
419.988	1	6
420.329	1	2
420.671	1	-4
421.012	1	0
421.353	1	5
421.695	1	-6
422.036	1	8
422.377	1	15
422.718	1	16
423.060	1	-4
423.401	1	-1
423.742	1	3
424.084	1	15
424.425	1	3
424.766	1	-3
425.107	1	5
425.449	1	11
425.790	1	3
426.131	1	6
426.472	1	6
426.814	1	-1
427.155	1	16
427.496	1	1
427.837	1	7
428.179	1	12
428.520	1	0
428.861	1	0
429.202	1	-5
429.544	1	-2
429.885	1	1
430.226	1	9
430.567	1	4
430.909	1	0
431.250	1	14
431.591	1	-2
431.932	1	-2
432.273	1	3
432.615	1	6
432.956	1	5
433.297	1	1
433.638	1	7
433.979	1	8
434.320	1	9
434.662	1	-10
435.003	1	2
435.344	1	-8
435.685	1	-5
436.026	1	-6
436.368	1	3
436.709	1	0
437.050	1	-9
437.391	1	-8
437.732	1	3
438.073	1	3
438.414	1	-8
438.756	1	8
439.097	1	-6
439.438	1	4
439.779	1	10
440.120	1	-3
440.461	1	15
440.802	1	11
441.143	1	2
441.485	1	-8
441.826	1	4
442.167	1	-5
442.508	1	1
442.849	1	-3
443.190	1	-2
443.531	1	-1
443.872	1	-1
444.213	1	2
444.554	1	2
444.895	1	-20
445.237	1	-7
445.578	1	8
445.919	1	5
446.260	1	1
446.601	1	-4
446.942	1	4
447.283	1	5
447.624	1	-1
447.965	1	5
448.306	1	-2
448.647	1	5
448.988	1	18
449.329	1	-1
449.670	1	0
450.011	1	10
450.352	1	-6
450.693	1	-3
451.034	1	-2
451.375	1	5
451.716	1	3
452.057	1	1
452.398	1	10
452.739	1	-2
453.080	1	0
453.421	1	6
453.762	1	1
454.103	1	3
454.444	1	2
454.785	1	2
455.126	1	13
455.467	1	-8
455.808	1	13
456.149	1	0
456.490	1	-2
456.831	1	-6
457.172	1	1
457.513	1	12
457.854	1	6
458.195	1	0
458.536	1	1
458.877	1	5
459.218	1	5
459.559	1	2
459.899	1	-3
460.240	1	2
460.581	1	6
460.922	1	-5
461.263	1	1
461.604	1	11
461.945	1	-3
462.286	1	-9
462.627	1	10
462.968	1	13
463.309	1	7
463.649	1	9
463.990	1	1
464.331	1	-5
464.672	1	-7
465.013	1	6
465.354	1	-4
465.695	1	7
466.036	1	-3
466.376	1	0
466.717	1	-7
467.058	1	0
467.399	1	7
467.740	1	-4
468.081	1	-1
468.422	1	4
468.762	1	14
469.103	1	6
469.444	1	6
469.785	1	-14
470.126	1	9
470.467	1	0
470.807	1	-2
471.148	1	0
471.489	1	5
471.830	1	-2
472.171	1	9
472.511	1	9
472.852	1	4
473.193	1	5
473.534	1	7
473.875	1	4
474.215	1	0
474.556	1	5
474.897	1	-2
475.238	1	-4
475.578	1	7
475.919	1	9
476.260	1	12
476.601	1	10
476.942	1	-2
477.282	1	7
477.623	1	8
477.964	1	3
478.305	1	2
478.645	1	3
478.986	1	-1
479.327	1	-9
479.667	1	-5
480.008	1	17
480.349	1	11
480.690	1	3
481.030	1	9
481.371	1	-5
481.712	1	2
482.053	1	-3
482.393	1	-1
482.734	1	10
483.075	1	12
483.415	1	5
483.756	1	-2
484.097	1	-7
484.437	1	4
484.778	1	-6
485.119	1	1
485.459	1	-9
485.800	1	-2
486.141	1	9
486.481	1	2
486.822	1	4
487.163	1	12
487.503	1	0
487.844	1	4
488.185	1	8
488.525	1	7
488.866	1	15
489.207	1	7
489.547	1	10
489.888	1	7
490.228	1	-9
490.569	1	3
490.910	1	2
491.250	1	2
491.591	1	7
491.932	1	12
492.272	1	6
492.613	1	5
492.953	1	6
493.294	1	-2
493.635	1	8
493.975	1	7
494.316	1	2
494.656	1	1
494.997	1	9
495.337	1	8
495.678	1	7
496.019	1	-10
496.359	1	11
496.700	1	2
497.040	1	8
497.381	1	2
497.721	1	-7
498.062	1	-3
498.403	1	14
498.743	1	7
499.084	1	2
499.424	1	11
499.765	1	1
500.105	1	-1
500.446	1	4
500.786	1	3
501.127	1	8
501.467	1	-4
501.808	1	-1
502.148	1	9
502.489	1	3
502.829	1	-8
503.170	1	15
503.510	1	2
503.851	1	4
504.191	1	-4
504.532	1	-7
504.872	1	10
505.213	1	-1
505.553	1	7
505.894	1	13
506.234	1	-8
506.575	1	10
506.915	1	11
507.256	1	-9
507.596	1	3
507.936	1	8
508.277	1	-1
508.617	1	10
508.958	1	-1
509.298	1	0
509.639	1	13
509.979	1	10
510.319	1	-4
510.660	1	5
511.000	1	8
511.341	1	11
511.681	1	5
512.022	1	11
512.362	1	1
512.702	1	-5
513.043	1	3
513.383	1	9
513.724	1	-3
514.064	1	3
514.404	1	1
514.745	1	6
515.085	1	8
515.425	1	5
515.766	1	10
516.106	1	5
516.447	1	-1
516.787	1	7
517.127	1	9
517.468	1	15
517.808	1	11
518.148	1	7
518.489	1	5
518.829	1	6
519.169	1	6
519.510	1	16
519.850	1	3
520.190	1	2
520.531	1	12
520.871	1	3
521.211	1	5
521.552	1	2
521.892	1	-1
522.232	1	-6
522.573	1	7
522.913	1	13
523.253	1	11
523.593	1	5
523.934	1	4
524.274	1	3
524.614	1	10
524.955	1	0
525.295	1	6
525.635	1	6
525.975	1	-3
526.316	1	15
526.656	1	7
526.996	1	7
527.337	1	1
527.677	1	6
528.017	1	9
528.357	1	-1
528.698	1	-6
529.038	1	-3
529.378	1	0
529.718	1	13
530.058	1	14
530.399	1	16
530.739	1	6
531.079	1	18
531.419	1	12
531.760	1	11
532.100	1	8
532.440	1	4
532.780	1	-3
533.120	1	8
533.461	1	2
533.801	1	0
534.141	1	-2
534.481	1	14
534.821	1	7
535.162	1	9
535.502	1	10
535.842	1	9
536.182	1	-4
536.522	1	11
536.862	1	14
537.203	1	8
537.543	1	0
537.883	1	7
538.223	1	1
538.563	1	-2
538.903	1	10
539.243	1	6
539.584	1	2
539.924	1	10
540.264	1	14
540.604	1	8
540.944	1	1
541.284	1	3
541.624	1	0
541.964	1	8
542.305	1	8
542.645	1	-4
542.985	1	10
543.325	1	1
543.665	1	8
544.005	1	5
544.345	1	19
544.685	1	2
545.025	1	4
545.365	1	0
545.705	1	9
546.045	1	-3
546.386	1	-2
546.726	1	1
547.066	1	15
547.406	1	8
547.746	1	-1
548.086	1	7
548.426	1	10
548.766	1	6
549.106	1	7
549.446	1	7
549.786	1	-7
550.126	1	6
550.466	1	1
550.806	1	-5
551.146	1	9
551.486	1	12
551.826	1	12
552.166	1	5
552.506	1	11
552.846	1	1
553.186	1	7
553.526	1	-8
553.866	1	1
554.206	1	0
554.546	1	-5
554.886	1	2
555.226	1	-8
555.566	1	2
555.906	1	1
556.246	1	6
556.586	1	-5
556.926	1	6
557.266	1	10
557.606	1	9
557.946	1	4
558.286	1	2
558.626	1	18
558.966	1	7
559.306	1	15
559.646	1	-1
559.986	1	5
560.325	1	0
560.665	1	9
561.005	1	0
561.345	1	2
561.685	1	8
562.025	1	5
562.365	1	6
562.705	1	12
563.045	1	-3
563.385	1	11
563.725	1	7
564.064	1	13
564.404	1	5
564.744	1	4
565.084	1	4
565.424	1	-1
565.764	1	5
566.104	1	11
566.444	1	11
566.783	1	-2
567.123	1	7
567.463	1	3
567.803	1	5
568.143	1	12
568.483	1	2
568.823	1	-1
569.162	1	4
569.502	1	0
569.842	1	-2
570.182	1	0
570.522	1	4
570.862	1	11
571.201	1	14
571.541	1	-4
571.881	1	-3
572.221	1	0
572.561	1	3
572.900	1	0
573.240	1	8
573.580	1	-2
573.920	1	13
574.260	1	4
574.599	1	0
574.939	1	-2
575.279	1	-1
575.619	1	15
575.959	1	-7
576.298	1	9
576.638	1	9
576.978	1	-2
577.318	1	-2
577.657	1	6
577.997	1	-10
578.337	1	11
578.677	1	5
579.016	1	3
579.356	1	6
579.696	1	4
580.036	1	4
580.375	1	1
580.715	1	11
581.055	1	8
581.394	1	0
581.734	1	16
582.074	1	5
582.414	1	1
582.753	1	12
583.093	1	0
583.433	1	14
583.772	1	-5
584.112	1	5
584.452	1	3
584.791	1	-4
585.131	1	7
585.471	1	2
585.811	1	-4
586.150	1	-5
586.490	1	4
586.830	1	-1
587.169	1	1
587.509	1	-6
587.849	1	3
588.188	1	4
588.528	1	-6
588.867	1	2
589.207	1	0
589.547	1	7
589.886	1	0
590.226	1	-1
590.566	1	-2
590.905	1	8
591.245	1	1
591.585	1	2
591.924	1	4
592.264	1	-7
592.603	1	6
592.943	1	6
593.283	1	2
593.622	1	-5
593.962	1	5
594.301	1	3
594.641	1	5
594.981	1	11
595.320	1	7
595.660	1	2
595.999	1	2
596.339	1	15
596.678	1	-2
597.018	1	0
597.358	1	-8
597.697	1	-6
598.037	1	3
598.376	1	-4
598.716	1	3
599.055	1	-1
599.395	1	0
599.734	1	11
600.074	1	5
600.413	1	-2
600.753	1	4
601.092	1	-3
601.432	1	-1
601.771	1	2
602.111	1	13
602.451	1	16
602.790	1	7
603.130	1	-5
603.469	1	8
603.809	1	4
604.148	1	6
604.487	1	7
604.827	1	-7
605.166	1	13
605.506	1	-4
605.845	1	1
606.185	1	12
606.524	1	-1
606.864	1	3
607.203	1	6
607.543	1	6
607.882	1	-5
608.222	1	2
608.561	1	8
608.901	1	-5
609.240	1	-6
609.579	1	1
609.919	1	4
610.258	1	8
610.598	1	8
610.937	1	-1
611.277	1	2
611.616	1	2
611.955	1	9
612.295	1	2
612.634	1	-1
612.974	1	1
613.313	1	2
613.652	1	10
613.992	1	0
614.331	1	9
614.671	1	12
615.010	1	-1
615.349	1	1
615.689	1	9
616.028	1	-3
616.368	1	2
616.707	1	2
617.046	1	-4
617.386	1	0
617.725	1	3
618.064	1	-3
618.404	1	1
618.743	1	1
619.082	1	16
619.422	1	-5
619.761	1	-7
620.100	1	2
620.440	1	4
620.779	1	-2
621.118	1	-3
621.458	1	-7
621.797	1	4
622.136	1	1
622.476	1	-1
622.815	1	-9
623.154	1	5
623.494	1	-1
623.833	1	4
624.172	1	-6
624.511	1	0
624.851	1	-5
625.190	1	1
625.529	1	-4
625.869	1	3
626.208	1	-7
626.547	1	0
626.886	1	3
627.226	1	8
627.565	1	5
627.904	1	-4
628.243	1	0
628.583	1	-6
628.922	1	-3
629.261	1	12
629.600	1	-2
629.940	1	5
630.279	1	4
630.618	1	3
630.957	1	-3
631.297	1	0
631.636	1	10
631.975	1	7
632.314	1	4
632.653	1	5
632.993	1	0
633.332	1	5
633.671	1	6
634.010	1	13
634.349	1	-6
634.689	1	4
635.028	1	3
635.367	1	-6
635.706	1	0
636.045	1	-5
636.384	1	-5
636.724	1	7
637.063	1	3
637.402	1	8
637.741	1	3
638.080	1	7
638.419	1	-1
638.759	1	7
639.098	1	0
639.437	1	-8
639.776	1	-3
640.115	1	13
640.454	1	-1
640.793	1	5
641.132	1	11
641.472	1	-7
641.811	1	9
642.150	1	2
642.489	1	-1
642.828	1	-5
643.167	1	-1
643.506	1	-2
643.845	1	4
644.184	1	9
644.524	1	6
644.863	1	-7
645.202	1	8
645.541	1	11
645.880	1	10
646.219	1	1
646.558	1	9
646.897	1	6
647.236	1	-7
647.575	1	1
647.914	1	1
648.253	1	2
648.592	1	2
648.931	1	10
649.270	1	1
649.610	1	4
649.949	1	0
650.288	1	-1
650.627	1	-6
650.966	1	7
651.305	1	-9
651.644	1	8
651.983	1	6
652.322	1	-2
652.661	1	1
653.000	1	-1
653.339	1	-6
653.678	1	3
654.017	1	6
654.356	1	1
654.695	1	5
655.034	1	0
655.373	1	13
655.712	1	-3
656.051	1	1
656.390	1	1
656.729	1	7
657.068	1	12
657.406	1	0
657.745	1	9
658.084	1	0
658.423	1	6
658.762	1	0
659.101	1	2
659.440	1	6
659.779	1	11
660.118	1	2
660.457	1	10
660.796	1	1
661.135	1	-13
661.474	1	8
661.813	1	2
662.152	1	-1
662.491	1	4
662.829	1	-2
663.168	1	3
663.507	1	3
663.846	1	-3
664.185	1	12
664.524	1	-4
664.863	1	-3
665.202	1	16
665.541	1	4
665.879	1	9
666.218	1	16
666.557	1	3
666.896	1	4
667.235	1	0
667.574	1	-6
667.913	1	-9
668.251	1	8
668.590	1	4
668.929	1	9
669.268	1	-13
669.607	1	2
669.946	1	2
670.285	1	17
670.623	1	-1
670.962	1	-4
671.301	1	-3
671.640	1	5
671.979	1	4
672.317	1	-6
672.656	1	6
672.995	1	-4
673.334	1	5
673.673	1	8
674.011	1	3
674.350	1	2
674.689	1	10
675.028	1	2
675.367	1	6
675.705	1	4
676.044	1	10
676.383	1	2
676.722	1	10
677.060	1	-7
677.399	1	0
677.738	1	1
678.077	1	17
678.416	1	-10
678.754	1	5
679.093	1	4
679.432	1	8
679.771	1	6
680.109	1	1
680.448	1	7
680.787	1	-9
681.125	1	4
681.464	1	8
681.803	1	9
682.142	1	0
682.480	1	3
682.819	1	7
683.158	1	3
683.496	1	9
683.835	1	-4
684.174	1	-1
684.512	1	2
684.851	1	-4
685.190	1	1
685.529	1	8
685.867	1	15
686.206	1	-2
686.545	1	14
686.883	1	3
687.222	1	7
687.561	1	-1
687.899	1	-4
688.238	1	0
688.577	1	12
688.746	1	-4