File: Data/GaN_170K_550ms/GaN_sample D_spot 18_UVVIS_170 K_200um_550 ms 2x2mm1_305.txt
340.368	1	3
340.710	1	-15
341.052	1	3
341.394	1	-12
341.737	1	-3
342.079	1	3
342.421	1	11
342.763	1	3
343.105	1	8
343.447	1	-5
343.789	1	13
344.131	1	7
344.473	1	7
344.815	1	9
345.157	1	-5
345.499	1	-6
345.841	1	9
346.183	1	6
346.526	1	4
346.868	1	4
347.210	1	-10
347.552	1	8
347.894	1	-1
348.236	1	1
348.578	1	10
348.920	1	3
349.262	1	9
349.604	1	10
349.946	1	4
350.288	1	4
350.630	1	18
350.972	1	-1
351.314	1	3
351.656	1	-2
351.998	1	3
352.340	1	3
352.682	1	0
353.024	1	1
353.366	1	-3
353.708	1	7
354.050	1	-7
354.392	1	3
354.734	1	8
355.076	1	3
355.418	1	-9
355.760	1	-14
356.102	1	5
356.444	1	0
356.785	1	1
357.127	1	-9
357.469	1	2
357.811	1	0
358.153	1	8
358.495	1	-1
358.837	1	5
359.179	1	-8
359.521	1	7
359.863	1	4
360.205	1	9
360.547	1	7
360.889	1	14
361.231	1	1
361.572	1	15
361.914	1	7
362.256	1	3
362.598	1	4
362.940	1	16
363.282	1	1
363.624	1	3
363.966	1	3
364.308	1	8
364.649	1	-1
364.991	1	12
365.333	1	3
365.675	1	15
366.017	1	4
366.359	1	5
366.701	1	9
367.042	1	9
367.384	1	7
367.726	1	15
368.068	1	10
368.410	1	15
368.752	1	8
369.093	1	-1
369.435	1	3
369.777	1	11
370.119	1	10
370.461	1	19
370.803	1	3
371.144	1	0
371.486	1	1
371.828	1	6
372.170	1	10
372.512	1	0
372.853	1	14
373.195	1	-2
373.537	1	17
373.879	1	12
374.220	1	23
374.562	1	-2
374.904	1	-1
375.246	1	5
375.588	1	9
375.929	1	4
376.271	1	11
376.613	1	9
376.955	1	2
377.296	1	4
377.638	1	6
377.980	1	-5
378.321	1	7
378.663	1	0
379.005	1	1
379.347	1	1
379.688	1	-1
380.030	1	13
380.372	1	7
380.714	1	3
381.055	1	8
381.397	1	8
381.739	1	1
382.080	1	-2
382.422	1	2
382.764	1	-7
383.105	1	-3
383.447	1	12
383.789	1	15
384.130	1	-10
384.472	1	-7
384.814	1	11
385.156	1	-3
385.497	1	6
385.839	1	-6
386.180	1	12
386.522	1	9
386.864	1	2
387.205	1	-5
387.547	1	4
387.889	1	5
388.230	1	3
388.572	1	5
388.914	1	9
389.255	1	6
389.597	1	4
389.939	1	-7
390.280	1	-2
390.622	1	10
390.963	1	5
391.305	1	-3
391.647	1	-5
391.988	1	11
392.330	1	9
392.671	1	-7
393.013	1	-1
393.355	1	1
393.696	1	12
394.038	1	-4
394.379	1	-1
394.721	1	1
395.062	1	1
395.404	1	2
395.746	1	11
396.087	1	8
396.429	1	-2
396.770	1	14
397.112	1	-6
397.453	1	5
397.795	1	-9
398.136	1	-3
398.478	1	-8
398.819	1	-5
399.161	1	-2
399.503	1	6
399.844	1	-7
400.186	1	1
400.527	1	5
400.869	1	5
401.210	1	4
401.552	1	-3
401.893	1	10
402.235	1	-1
402.576	1	-3
402.918	1	3
403.259	1	6
403.601	1	18
403.942	1	3
404.284	1	-11
404.625	1	10
404.967	1	8
405.308	1	2
405.649	1	9
405.991	1	11
406.332	1	-5
406.674	1	9
407.015	1	12
407.357	1	4
407.698	1	3
408.040	1	5
408.381	1	2
408.722	1	-9
409.064	1	4
409.405	1	1
409.747	1	-1
410.088	1	-3
410.430	1	-5
410.771	1	6
411.112	1	6
411.454	1	4
411.795	1	9
412.137	1	-10
412.478	1	-4
412.819	1	-7
413.161	1	3
413.502	1	-2
413.844	1	11
414.185	1	1
414.526	1	2
414.868	1	-1
415.209	1	-15
415.550	1	-2
415.892	1	4
416.233	1	6
416.575	1	3
416.916	1	-3
417.257	1	9
417.599	1	-1
417.940	1	-1
418.281	1	-7
418.623	1	-3
418.964	1	2
419.305	1	-7
419.647	1	4
419.988	1	12
420.329	1	-2
420.671	1	-9
421.012	1	0
421.353	1	8
421.695	1	-8
422.036	1	7
422.377	1	-4
422.718	1	7
423.060	1	-1
423.401	1	-1
423.742	1	-4
424.084	1	4
424.425	1	-8
424.766	1	0
425.107	1	-1
425.449	1	3
425.790	1	-7
426.131	1	1
426.472	1	1
426.814	1	-8
427.155	1	5
427.496	1	-2
427.837	1	4
428.179	1	-2
428.520	1	-3
428.861	1	-1
429.202	1	-4
429.544	1	-4
429.885	1	0
430.226	1	0
430.567	1	-3
430.909	1	3
431.250	1	15
431.591	1	4
431.932	1	-1
432.273	1	-4
432.615	1	3
432.956	1	5
433.297	1	-2
433.638	1	4
433.979	1	3
434.320	1	5
434.662	1	-13
435.003	1	2
435.344	1	1
435.685	1	8
436.026	1	-1
436.368	1	7
436.709	1	-1
437.050	1	3
437.391	1	1
437.732	1	5
438.073	1	2
438.414	1	-12
438.756	1	-1
439.097	1	7
439.438	1	4
439.779	1	9
440.120	1	-8
440.461	1	14
440.802	1	2
441.143	1	-6
441.485	1	1
441.826	1	3
442.167	1	3
442.508	1	-11
442.849	1	-4
443.190	1	3
443.531	1	1
443.872	1	-8
444.213	1	-4
444.554	1	0
444.895	1	-21
445.237	1	-5
445.578	1	4
445.919	1	-1
446.260	1	2
446.601	1	-5
446.942	1	5
447.283	1	3
447.624	1	1
447.965	1	2
448.306	1	3
448.647	1	6
448.988	1	11
449.329	1	-6
449.670	1	-7
450.011	1	8
450.352	1	-3
450.693	1	-2
451.034	1	-16
451.375	1	8
451.716	1	8
452.057	1	3
452.398	1	9
452.739	1	2
453.080	1	2
453.421	1	0
453.762	1	2
454.103	1	-1
454.444	1	-4
454.785	1	-2
455.126	1	14
455.467	1	-7
455.808	1	6
456.149	1	-3
456.490	1	12
456.831	1	-7
457.172	1	-6
457.513	1	9
457.854	1	12
458.195	1	-3
458.536	1	1
458.877	1	2
459.218	1	-8
459.559	1	9
459.899	1	-2
460.240	1	-9
460.581	1	5
460.922	1	-3
461.263	1	-2
461.604	1	5
461.945	1	-3
462.286	1	-6
462.627	1	3
462.968	1	7
463.309	1	7
463.649	1	13
463.990	1	4
464.331	1	7
464.672	1	2
465.013	1	8
465.354	1	0
465.695	1	-5
466.036	1	-7
466.376	1	7
466.717	1	1
467.058	1	-2
467.399	1	15
467.740	1	-8
468.081	1	7
468.422	1	6
468.762	1	10
469.103	1	12
469.444	1	0
469.785	1	6
470.126	1	0
470.467	1	6
470.807	1	5
471.148	1	0
471.489	1	7
471.830	1	3
472.171	1	9
472.511	1	5
472.852	1	-2
473.193	1	6
473.534	1	5
473.875	1	-7
474.215	1	11
474.556	1	8
474.897	1	-1
475.238	1	-11
475.578	1	-3
475.919	1	9
476.260	1	5
476.601	1	7
476.942	1	-9
477.282	1	8
477.623	1	12
477.964	1	6
478.305	1	-2
478.645	1	-3
478.986	1	-7
479.327	1	-10
479.667	1	-2
480.008	1	3
480.349	1	-2
480.690	1	-4
481.030	1	3
481.371	1	10
481.712	1	-1
482.053	1	-11
482.393	1	-6
482.734	1	3
483.075	1	3
483.415	1	5
483.756	1	5
484.097	1	0
484.437	1	-6
484.778	1	-9
485.119	1	-4
485.459	1	-9
485.800	1	-14
486.141	1	7
486.481	1	-4
486.822	1	1
487.163	1	-4
487.503	1	1
487.844	1	3
488.185	1	-3
488.525	1	10
488.866	1	5
489.207	1	5
489.547	1	6
489.888	1	3
490.228	1	-5
490.569	1	3
490.910	1	-2
491.250	1	9
491.591	1	4
491.932	1	-4
492.272	1	14
492.613	1	7
492.953	1	4
493.294	1	-3
493.635	1	-1
493.975	1	3
494.316	1	-9
494.656	1	0
494.997	1	-5
495.337	1	7
495.678	1	4
496.019	1	-13
496.359	1	-2
496.700	1	9
497.040	1	-3
497.381	1	0
497.721	1	-5
498.062	1	-2
498.403	1	3
498.743	1	0
499.084	1	-2
499.424	1	7
499.765	1	-12
500.105	1	3
500.446	1	10
500.786	1	4
501.127	1	1
501.467	1	4
501.808	1	0
502.148	1	6
502.489	1	11
502.829	1	-2
503.170	1	7
503.510	1	-2
503.851	1	-3
504.191	1	-6
504.532	1	-9
504.872	1	2
505.213	1	2
505.553	1	0
505.894	1	5
506.234	1	-9
506.575	1	7
506.915	1	2
507.256	1	-8
507.596	1	10
507.936	1	9
508.277	1	-2
508.617	1	4
508.958	1	-2
509.298	1	0
509.639	1	1
509.979	1	1
510.319	1	-7
510.660	1	-15
511.000	1	8
511.341	1	7
511.681	1	-1
512.022	1	5
512.362	1	1
512.702	1	-9
513.043	1	2
513.383	1	3
513.724	1	2
514.064	1	4
514.404	1	-2
514.745	1	1
515.085	1	-1
515.425	1	5
515.766	1	7
516.106	1	11
516.447	1	1
516.787	1	7
517.127	1	9
517.468	1	7
517.808	1	14
518.148	1	-1
518.489	1	3
518.829	1	-3
519.169	1	-4
519.510	1	6
519.850	1	5
520.190	1	-3
520.531	1	5
520.871	1	-1
521.211	1	-1
521.552	1	6
521.892	1	-2
522.232	1	-12
522.573	1	4
522.913	1	13
523.253	1	15
523.593	1	-3
523.934	1	3
524.274	1	1
524.614	1	-2
524.955	1	-2
525.295	1	-3
525.635	1	8
525.975	1	2
526.316	1	8
526.656	1	9
526.996	1	0
527.337	1	-2
527.677	1	-8
528.017	1	7
528.357	1	-7
528.698	1	-7
529.038	1	-3
529.378	1	8
529.718	1	1
530.058	1	10
530.399	1	6
530.739	1	2
531.079	1	1
531.419	1	9
531.760	1	4
532.100	1	-4
532.440	1	5
532.780	1	-9
533.120	1	3
533.461	1	5
533.801	1	-4
534.141	1	5
534.481	1	12
534.821	1	9
535.162	1	-1
535.502	1	3
535.842	1	12
536.182	1	-1
536.522	1	17
536.862	1	8
537.203	1	7
537.543	1	-3
537.883	1	8
538.223	1	1
538.563	1	-3
538.903	1	1
539.243	1	1
539.584	1	-5
539.924	1	0
540.264	1	4
540.604	1	-4
540.944	1	-4
541.284	1	2
541.624	1	-6
541.964	1	11
542.305	1	1
542.645	1	0
542.985	1	5
543.325	1	0
543.665	1	0
544.005	1	10
544.345	1	5
544.685	1	1
545.025	1	3
545.365	1	-1
545.705	1	12
546.045	1	-3
546.386	1	7
546.726	1	0
547.066	1	10
547.406	1	1
547.746	1	2
548.086	1	8
548.426	1	1
548.766	1	-1
549.106	1	5
549.446	1	3
549.786	1	1
550.126	1	2
550.466	1	-3
550.806	1	1
551.146	1	10
551.486	1	0
551.826	1	4
552.166	1	-4
552.506	1	7
552.846	1	-4
553.186	1	-9
553.526	1	-2
553.866	1	-1
554.206	1	10
554.546	1	-9
554.886	1	5
555.226	1	-4
555.566	1	1
555.906	1	-4
556.246	1	-4
556.586	1	-10
556.926	1	10
557.266	1	8
557.606	1	1
557.946	1	3
558.286	1	0
558.626	1	9
558.966	1	7
559.306	1	4
559.646	1	5
559.986	1	1
560.325	1	1
560.665	1	8
561.005	1	4
561.345	1	0
561.685	1	-2
562.025	1	-8
562.365	1	2
562.705	1	8
563.045	1	2
563.385	1	1
563.725	1	-11
564.064	1	1
564.404	1	-1
564.744	1	0
565.084	1	0
565.424	1	-4
565.764	1	-4
566.104	1	-1
566.444	1	3
566.783	1	4
567.123	1	-6
567.463	1	-1
567.803	1	1
568.143	1	-1
568.483	1	4
568.823	1	7
569.162	1	7
569.502	1	8
569.842	1	4
570.182	1	-1
570.522	1	2
570.862	1	0
571.201	1	0
571.541	1	-5
571.881	1	-13
572.221	1	-5
572.561	1	1
572.900	1	-1
573.240	1	8
573.580	1	4
573.920	1	3
574.260	1	1
574.599	1	-3
574.939	1	-2
575.279	1	0
575.619	1	9
575.959	1	-4
576.298	1	6
576.638	1	7
576.978	1	-1
577.318	1	3
577.657	1	3
577.997	1	-4
578.337	1	4
578.677	1	2
579.016	1	6
579.356	1	3
579.696	1	-10
580.036	1	1
580.375	1	2
580.715	1	6
581.055	1	7
581.394	1	1
581.734	1	-1
582.074	1	-2
582.414	1	-6
582.753	1	-3
583.093	1	6
583.433	1	7
583.772	1	-1
584.112	1	1
584.452	1	3
584.791	1	0
585.131	1	11
585.471	1	6
585.811	1	-3
586.150	1	-9
586.490	1	10
586.830	1	-5
587.169	1	9
587.509	1	6
587.849	1	-4
588.188	1	3
588.528	1	-5
588.867	1	8
589.207	1	6
589.547	1	4
589.886	1	-5
590.226	1	10
590.566	1	6
590.905	1	4
591.245	1	1
591.585	1	1
591.924	1	-8
592.264	1	-5
592.603	1	9
592.943	1	1
593.283	1	3
593.622	1	-12
593.962	1	2
594.301	1	3
594.641	1	7
594.981	1	9
595.320	1	-4
595.660	1	-3
595.999	1	-1
596.339	1	6
596.678	1	0
597.018	1	0
597.358	1	-13
597.697	1	3
598.037	1	-3
598.376	1	-10
598.716	1	2
599.055	1	1
599.395	1	-4
599.734	1	9
600.074	1	4
600.413	1	-11
600.753	1	12
601.092	1	0
601.432	1	-7
601.771	1	0
602.111	1	-6
602.451	1	5
602.790	1	9
603.130	1	-3
603.469	1	0
603.809	1	-2
604.148	1	4
604.487	1	10
604.827	1	-6
605.166	1	7
605.506	1	5
605.845	1	6
606.185	1	6
606.524	1	6
606.864	1	5
607.203	1	3
607.543	1	1
607.882	1	-6
608.222	1	-3
608.561	1	8
608.901	1	4
609.240	1	-4
609.579	1	-4
609.919	1	-2
610.258	1	8
610.598	1	10
610.937	1	9
611.277	1	5
611.616	1	1
611.955	1	11
612.295	1	-2
612.634	1	0
612.974	1	5
613.313	1	-5
613.652	1	7
613.992	1	1
614.331	1	0
614.671	1	8
615.010	1	5
615.349	1	-8
615.689	1	14
616.028	1	7
616.368	1	-2
616.707	1	11
617.046	1	-7
617.386	1	6
617.725	1	7
618.064	1	-10
618.404	1	2
618.743	1	4
619.082	1	7
619.422	1	-10
619.761	1	-8
620.100	1	1
620.440	1	4
620.779	1	-4
621.118	1	-5
621.458	1	3
621.797	1	2
622.136	1	-1
622.476	1	-4
622.815	1	-2
623.154	1	-1
623.494	1	-8
623.833	1	-4
624.172	1	0
624.511	1	9
624.851	1	3
625.190	1	6
625.529	1	12
625.869	1	10
626.208	1	2
626.547	1	-4
626.886	1	7
627.226	1	-5
627.565	1	7
627.904	1	3
628.243	1	4
628.583	1	-2
628.922	1	-2
629.261	1	2
629.600	1	-2
629.940	1	-4
630.279	1	6
630.618	1	-8
630.957	1	5
631.297	1	0
631.636	1	8
631.975	1	-4
632.314	1	2
632.653	1	3
632.993	1	-2
633.332	1	14
633.671	1	0
634.010	1	5
634.349	1	-5
634.689	1	6
635.028	1	1
635.367	1	-2
635.706	1	-3
636.045	1	4
636.384	1	3
636.724	1	-1
637.063	1	5
637.402	1	3
637.741	1	-6
638.080	1	11
638.419	1	-11
638.759	1	2
639.098	1	-2
639.437	1	-8
639.776	1	1
640.115	1	2
640.454	1	5
640.793	1	-13
641.132	1	7
641.472	1	-2
641.811	1	8
642.150	1	-1
642.489	1	-10
642.828	1	-1
643.167	1	-5
643.506	1	6
643.845	1	3
644.184	1	11
644.524	1	-3
644.863	1	-17
645.202	1	10
645.541	1	-1
645.880	1	7
646.219	1	-1
646.558	1	3
646.897	1	3
647.236	1	-3
647.575	1	-7
647.914	1	3
648.253	1	-4
648.592	1	-2
648.931	1	9
649.270	1	2
649.610	1	3
649.949	1	-9
650.288	1	0
650.627	1	-7
650.966	1	4
651.305	1	-7
651.644	1	3
651.983	1	-8
652.322	1	5
652.661	1	-1
653.000	1	-5
653.339	1	-3
653.678	1	6
654.017	1	10
654.356	1	0
654.695	1	7
655.034	1	-3
655.373	1	9
655.712	1	-10
656.051	1	2
656.390	1	-3
656.729	1	11
657.068	1	2
657.406	1	4
657.745	1	8
658.084	1	-14
658.423	1	4
658.762	1	-2
659.101	1	2
659.440	1	3
659.779	1	3
660.118	1	7
660.457	1	7
660.796	1	4
661.135	1	-8
661.474	1	11
661.813	1	-10
662.152	1	4
662.491	1	-5
662.829	1	-1
663.168	1	9
663.507	1	-2
663.846	1	7
664.185	1	1
664.524	1	-5
664.863	1	-4
665.202	1	17
665.541	1	1
665.879	1	7
666.218	1	6
666.557	1	-2
666.896	1	-2
667.235	1	-2
667.574	1	-5
667.913	1	-2
668.251	1	0
668.590	1	-3
668.929	1	2
669.268	1	-7
669.607	1	5
669.946	1	2
670.285	1	10
670.623	1	8
670.962	1	5
671.301	1	-2
671.640	1	1
671.979	1	0
672.317	1	8
672.656	1	-3
672.995	1	-8
673.334	1	-9
673.673	1	7
674.011	1	-1
674.350	1	0
674.689	1	6
675.028	1	0
675.367	1	-3
675.705	1	-2
676.044	1	8
676.383	1	-8
676.722	1	19
677.060	1	-3
677.399	1	0
677.738	1	-4
678.077	1	11
678.416	1	-4
678.754	1	-2
679.093	1	-7
679.432	1	-1
679.771	1	0
680.109	1	3
680.448	1	12
680.787	1	-7
681.125	1	5
681.464	1	3
681.803	1	5
682.142	1	-3
682.480	1	3
682.819	1	3
683.158	1	-6
683.496	1	8
683.835	1	-6
684.174	1	0
684.512	1	5
684.851	1	-7
685.190	1	-3
685.529	1	13
685.867	1	5
686.206	1	0
686.545	1	2
686.883	1	-3
687.222	1	-1
687.561	1	4
687.899	1	-9
688.238	1	-2
688.577	1	9
688.746	1	-9