File: Data/GaN_170K_550ms/GaN_sample D_spot 18_UVVIS_170 K_200um_550 ms 2x2mm1_35.txt
340.368	1	-6
340.710	1	-5
341.052	1	2
341.394	1	4
341.737	1	-8
342.079	1	3
342.421	1	7
342.763	1	-1
343.105	1	-1
343.447	1	-4
343.789	1	5
344.131	1	-6
344.473	1	9
344.815	1	7
345.157	1	4
345.499	1	-8
345.841	1	5
346.183	1	8
346.526	1	8
346.868	1	10
347.210	1	1
347.552	1	14
347.894	1	-5
348.236	1	4
348.578	1	2
348.920	1	-1
349.262	1	5
349.604	1	9
349.946	1	8
350.288	1	-7
350.630	1	10
350.972	1	-3
351.314	1	3
351.656	1	0
351.998	1	1
352.340	1	9
352.682	1	5
353.024	1	7
353.366	1	5
353.708	1	2
354.050	1	-9
354.392	1	4
354.734	1	5
355.076	1	3
355.418	1	-9
355.760	1	-1
356.102	1	6
356.444	1	3
356.785	1	1
357.127	1	-1
357.469	1	-3
357.811	1	-1
358.153	1	7
358.495	1	4
358.837	1	2
359.179	1	-1
359.521	1	7
359.863	1	-4
360.205	1	0
360.547	1	3
360.889	1	6
361.231	1	3
361.572	1	8
361.914	1	-1
362.256	1	0
362.598	1	2
362.940	1	9
363.282	1	0
363.624	1	-1
363.966	1	-6
364.308	1	4
364.649	1	-5
364.991	1	6
365.333	1	-5
365.675	1	0
366.017	1	1
366.359	1	-2
366.701	1	-2
367.042	1	-4
367.384	1	8
367.726	1	9
368.068	1	4
368.410	1	6
368.752	1	2
369.093	1	-7
369.435	1	-1
369.777	1	2
370.119	1	-1
370.461	1	3
370.803	1	-7
371.144	1	0
371.486	1	-6
371.828	1	-9
372.170	1	10
372.512	1	-7
372.853	1	3
373.195	1	2
373.537	1	5
373.879	1	8
374.220	1	6
374.562	1	1
374.904	1	-1
375.246	1	-5
375.588	1	-12
375.929	1	1
376.271	1	1
376.613	1	4
376.955	1	10
377.296	1	1
377.638	1	1
377.980	1	-4
378.321	1	-3
378.663	1	-6
379.005	1	3
379.347	1	-3
379.688	1	3
380.030	1	7
380.372	1	0
380.714	1	10
381.055	1	-5
381.397	1	7
381.739	1	-9
382.080	1	-1
382.422	1	1
382.764	1	0
383.105	1	0
383.447	1	-2
383.789	1	12
384.130	1	-4
384.472	1	-3
384.814	1	2
385.156	1	-5
385.497	1	5
385.839	1	2
386.180	1	11
386.522	1	2
386.864	1	5
387.205	1	0
387.547	1	4
387.889	1	2
388.230	1	2
388.572	1	12
388.914	1	-5
389.255	1	9
389.597	1	5
389.939	1	3
390.280	1	-6
390.622	1	0
390.963	1	-1
391.305	1	-6
391.647	1	-10
391.988	1	11
392.330	1	1
392.671	1	-8
393.013	1	0
393.355	1	4
393.696	1	0
394.038	1	-6
394.379	1	3
394.721	1	-1
395.062	1	-3
395.404	1	14
395.746	1	10
396.087	1	5
396.429	1	8
396.770	1	3
397.112	1	1
397.453	1	0
397.795	1	-4
398.136	1	6
398.478	1	-4
398.819	1	-4
399.161	1	-9
399.503	1	-3
399.844	1	-7
400.186	1	1
400.527	1	11
400.869	1	3
401.210	1	0
401.552	1	10
401.893	1	5
402.235	1	5
402.576	1	-7
402.918	1	1
403.259	1	8
403.601	1	8
403.942	1	7
404.284	1	-12
404.625	1	-2
404.967	1	7
405.308	1	11
405.649	1	8
405.991	1	9
406.332	1	-5
406.674	1	1
407.015	1	0
407.357	1	-5
407.698	1	4
408.040	1	7
408.381	1	2
408.722	1	-2
409.064	1	-4
409.405	1	9
409.747	1	-1
410.088	1	7
410.430	1	0
410.771	1	-5
411.112	1	-5
411.454	1	6
411.795	1	7
412.137	1	-4
412.478	1	6
412.819	1	-5
413.161	1	-2
413.502	1	-2
413.844	1	7
414.185	1	-2
414.526	1	-2
414.868	1	4
415.209	1	-11
415.550	1	4
415.892	1	12
416.233	1	5
416.575	1	-1
416.916	1	-4
417.257	1	-2
417.599	1	-4
417.940	1	0
418.281	1	-8
418.623	1	-3
418.964	1	-7
419.305	1	1
419.647	1	10
419.988	1	9
420.329	1	6
420.671	1	-3
421.012	1	0
421.353	1	-8
421.695	1	-7
422.036	1	2
422.377	1	4
422.718	1	8
423.060	1	-4
423.401	1	2
423.742	1	-10
424.084	1	12
424.425	1	3
424.766	1	-4
425.107	1	-1
425.449	1	10
425.790	1	2
426.131	1	4
426.472	1	3
426.814	1	-3
427.155	1	6
427.496	1	-6
427.837	1	-2
428.179	1	0
428.520	1	-3
428.861	1	4
429.202	1	-7
429.544	1	-2
429.885	1	9
430.226	1	5
430.567	1	4
430.909	1	-2
431.250	1	23
431.591	1	2
431.932	1	-7
432.273	1	2
432.615	1	2
432.956	1	6
433.297	1	0
433.638	1	5
433.979	1	-2
434.320	1	6
434.662	1	-15
435.003	1	0
435.344	1	-2
435.685	1	3
436.026	1	-3
436.368	1	5
436.709	1	-3
437.050	1	-2
437.391	1	0
437.732	1	6
438.073	1	0
438.414	1	-1
438.756	1	-1
439.097	1	-3
439.438	1	4
439.779	1	8
440.120	1	-5
440.461	1	10
440.802	1	5
441.143	1	-10
441.485	1	3
441.826	1	9
442.167	1	2
442.508	1	-2
442.849	1	-4
443.190	1	7
443.531	1	3
443.872	1	-3
444.213	1	2
444.554	1	2
444.895	1	-16
445.237	1	-2
445.578	1	9
445.919	1	-3
446.260	1	5
446.601	1	-7
446.942	1	2
447.283	1	2
447.624	1	-5
447.965	1	-3
448.306	1	-3
448.647	1	0
448.988	1	8
449.329	1	12
449.670	1	-10
450.011	1	5
450.352	1	-8
450.693	1	1
451.034	1	-10
451.375	1	-2
451.716	1	7
452.057	1	-3
452.398	1	0
452.739	1	8
453.080	1	0
453.421	1	1
453.762	1	6
454.103	1	-1
454.444	1	-6
454.785	1	-3
455.126	1	5
455.467	1	-8
455.808	1	-1
456.149	1	2
456.490	1	2
456.831	1	-4
457.172	1	-2
457.513	1	10
457.854	1	6
458.195	1	-6
458.536	1	-10
458.877	1	6
459.218	1	0
459.559	1	-1
459.899	1	2
460.240	1	-3
460.581	1	6
460.922	1	-6
461.263	1	-5
461.604	1	11
461.945	1	1
462.286	1	1
462.627	1	8
462.968	1	3
463.309	1	8
463.649	1	5
463.990	1	1
464.331	1	3
464.672	1	-8
465.013	1	5
465.354	1	-7
465.695	1	0
466.036	1	-4
466.376	1	4
466.717	1	-4
467.058	1	4
467.399	1	12
467.740	1	0
468.081	1	-1
468.422	1	7
468.762	1	5
469.103	1	10
469.444	1	-4
469.785	1	-2
470.126	1	-4
470.467	1	3
470.807	1	11
471.148	1	-9
471.489	1	13
471.830	1	-7
472.171	1	4
472.511	1	3
472.852	1	-5
473.193	1	3
473.534	1	8
473.875	1	0
474.215	1	-5
474.556	1	9
474.897	1	-3
475.238	1	-1
475.578	1	-1
475.919	1	4
476.260	1	18
476.601	1	2
476.942	1	-2
477.282	1	3
477.623	1	9
477.964	1	-3
478.305	1	-6
478.645	1	-4
478.986	1	-4
479.327	1	-9
479.667	1	-2
480.008	1	3
480.349	1	2
480.690	1	11
481.030	1	7
481.371	1	1
481.712	1	9
482.053	1	-12
482.393	1	-2
482.734	1	9
483.075	1	4
483.415	1	9
483.756	1	5
484.097	1	-3
484.437	1	0
484.778	1	-6
485.119	1	5
485.459	1	-11
485.800	1	-7
486.141	1	7
486.481	1	-5
486.822	1	5
487.163	1	4
487.503	1	4
487.844	1	-1
488.185	1	-5
488.525	1	5
488.866	1	7
489.207	1	6
489.547	1	9
489.888	1	0
490.228	1	-3
490.569	1	1
490.910	1	4
491.250	1	9
491.591	1	-1
491.932	1	-1
492.272	1	9
492.613	1	2
492.953	1	7
493.294	1	-6
493.635	1	-2
493.975	1	1
494.316	1	-3
494.656	1	4
494.997	1	-2
495.337	1	16
495.678	1	-7
496.019	1	-8
496.359	1	-2
496.700	1	12
497.040	1	-1
497.381	1	4
497.721	1	-1
498.062	1	-11
498.403	1	7
498.743	1	4
499.084	1	12
499.424	1	0
499.765	1	-9
500.105	1	-6
500.446	1	10
500.786	1	-2
501.127	1	0
501.467	1	-5
501.808	1	0
502.148	1	11
502.489	1	-3
502.829	1	-3
503.170	1	8
503.510	1	5
503.851	1	-1
504.191	1	1
504.532	1	-8
504.872	1	-3
505.213	1	-8
505.553	1	-2
505.894	1	12
506.234	1	-1
506.575	1	7
506.915	1	5
507.256	1	-6
507.596	1	-3
507.936	1	11
508.277	1	-10
508.617	1	1
508.958	1	8
509.298	1	-11
509.639	1	3
509.979	1	5
510.319	1	-8
510.660	1	-7
511.000	1	-1
511.341	1	7
511.681	1	-6
512.022	1	4
512.362	1	-5
512.702	1	-6
513.043	1	2
513.383	1	1
513.724	1	-10
514.064	1	6
514.404	1	-6
514.745	1	-1
515.085	1	-2
515.425	1	7
515.766	1	1
516.106	1	3
516.447	1	2
516.787	1	5
517.127	1	3
517.468	1	5
517.808	1	3
518.148	1	0
518.489	1	7
518.829	1	1
519.169	1	-3
519.510	1	4
519.850	1	-3
520.190	1	2
520.531	1	13
520.871	1	-3
521.211	1	4
521.552	1	-1
521.892	1	-2
522.232	1	-9
522.573	1	11
522.913	1	6
523.253	1	14
523.593	1	1
523.934	1	4
524.274	1	2
524.614	1	6
524.955	1	4
525.295	1	3
525.635	1	14
525.975	1	1
526.316	1	14
526.656	1	11
526.996	1	4
527.337	1	-2
527.677	1	-1
528.017	1	4
528.357	1	-12
528.698	1	-6
529.038	1	0
529.378	1	-3
529.718	1	8
530.058	1	1
530.399	1	-2
530.739	1	-1
531.079	1	11
531.419	1	1
531.760	1	5
532.100	1	-2
532.440	1	7
532.780	1	-4
533.120	1	7
533.461	1	6
533.801	1	13
534.141	1	-4
534.481	1	10
534.821	1	4
535.162	1	9
535.502	1	-4
535.842	1	-3
536.182	1	4
536.522	1	4
536.862	1	-3
537.203	1	6
537.543	1	-7
537.883	1	6
538.223	1	2
538.563	1	3
538.903	1	-4
539.243	1	5
539.584	1	-3
539.924	1	5
540.264	1	9
540.604	1	1
540.944	1	0
541.284	1	6
541.624	1	-2
541.964	1	-2
542.305	1	1
542.645	1	-3
542.985	1	7
543.325	1	7
543.665	1	-4
544.005	1	5
544.345	1	-2
544.685	1	6
545.025	1	2
545.365	1	-2
545.705	1	5
546.045	1	5
546.386	1	-3
546.726	1	-11
547.066	1	15
547.406	1	8
547.746	1	-3
548.086	1	5
548.426	1	2
548.766	1	5
549.106	1	9
549.446	1	1
549.786	1	-8
550.126	1	-1
550.466	1	-1
550.806	1	6
551.146	1	10
551.486	1	-1
551.826	1	3
552.166	1	-1
552.506	1	5
552.846	1	1
553.186	1	3
553.526	1	-7
553.866	1	-6
554.206	1	10
554.546	1	-12
554.886	1	-4
555.226	1	-5
555.566	1	7
555.906	1	1
556.246	1	3
556.586	1	-2
556.926	1	-1
557.266	1	9
557.606	1	3
557.946	1	-1
558.286	1	1
558.626	1	11
558.966	1	-1
559.306	1	15
559.646	1	-2
559.986	1	-1
560.325	1	-6
560.665	1	-2
561.005	1	8
561.345	1	-4
561.685	1	10
562.025	1	-9
562.365	1	1
562.705	1	7
563.045	1	2
563.385	1	2
563.725	1	-8
564.064	1	4
564.404	1	-5
564.744	1	2
565.084	1	4
565.424	1	2
565.764	1	3
566.104	1	-4
566.444	1	3
566.783	1	2
567.123	1	0
567.463	1	-4
567.803	1	-4
568.143	1	1
568.483	1	-5
568.823	1	-10
569.162	1	1
569.502	1	1
569.842	1	-4
570.182	1	2
570.522	1	4
570.862	1	-3
571.201	1	2
571.541	1	-6
571.881	1	-7
572.221	1	-3
572.561	1	6
572.900	1	5
573.240	1	3
573.580	1	2
573.920	1	8
574.260	1	10
574.599	1	-2
574.939	1	-6
575.279	1	-4
575.619	1	13
575.959	1	-3
576.298	1	11
576.638	1	12
576.978	1	-2
577.318	1	10
577.657	1	1
577.997	1	-7
578.337	1	5
578.677	1	6
579.016	1	3
579.356	1	-1
579.696	1	-2
580.036	1	-1
580.375	1	0
580.715	1	4
581.055	1	4
581.394	1	9
581.734	1	3
582.074	1	7
582.414	1	-1
582.753	1	-6
583.093	1	9
583.433	1	6
583.772	1	2
584.112	1	4
584.452	1	-11
584.791	1	4
585.131	1	10
585.471	1	11
585.811	1	-7
586.150	1	-3
586.490	1	3
586.830	1	1
587.169	1	12
587.509	1	-3
587.849	1	-3
588.188	1	3
588.528	1	-4
588.867	1	0
589.207	1	1
589.547	1	5
589.886	1	-7
590.226	1	0
590.566	1	-1
590.905	1	2
591.245	1	-5
591.585	1	5
591.924	1	-1
592.264	1	-12
592.603	1	0
592.943	1	2
593.283	1	3
593.622	1	-5
593.962	1	4
594.301	1	10
594.641	1	2
594.981	1	0
595.320	1	-5
595.660	1	-3
595.999	1	2
596.339	1	-3
596.678	1	-5
597.018	1	5
597.358	1	-5
597.697	1	1
598.037	1	-3
598.376	1	-2
598.716	1	9
599.055	1	3
599.395	1	-2
599.734	1	14
600.074	1	4
600.413	1	-6
600.753	1	9
601.092	1	-6
601.432	1	-6
601.771	1	9
602.111	1	-2
602.451	1	4
602.790	1	4
603.130	1	-11
603.469	1	4
603.809	1	0
604.148	1	3
604.487	1	2
604.827	1	-10
605.166	1	11
605.506	1	-4
605.845	1	3
606.185	1	4
606.524	1	-4
606.864	1	0
607.203	1	11
607.543	1	12
607.882	1	-4
608.222	1	5
608.561	1	7
608.901	1	5
609.240	1	-9
609.579	1	3
609.919	1	-5
610.258	1	3
610.598	1	11
610.937	1	-1
611.277	1	7
611.616	1	11
611.955	1	5
612.295	1	3
612.634	1	-6
612.974	1	-4
613.313	1	-9
613.652	1	5
613.992	1	-3
614.331	1	2
614.671	1	4
615.010	1	5
615.349	1	13
615.689	1	11
616.028	1	2
616.368	1	-8
616.707	1	10
617.046	1	5
617.386	1	-4
617.725	1	4
618.064	1	-10
618.404	1	3
618.743	1	6
619.082	1	9
619.422	1	-5
619.761	1	-5
620.100	1	-3
620.440	1	6
620.779	1	1
621.118	1	-5
621.458	1	-3
621.797	1	8
622.136	1	-1
622.476	1	-4
622.815	1	0
623.154	1	5
623.494	1	0
623.833	1	5
624.172	1	-1
624.511	1	8
624.851	1	1
625.190	1	6
625.529	1	12
625.869	1	9
626.208	1	-5
626.547	1	1
626.886	1	-3
627.226	1	9
627.565	1	6
627.904	1	-3
628.243	1	-8
628.583	1	1
628.922	1	-9
629.261	1	6
629.600	1	0
629.940	1	-8
630.279	1	1
630.618	1	-5
630.957	1	5
631.297	1	-7
631.636	1	16
631.975	1	-9
632.314	1	3
632.653	1	10
632.993	1	5
633.332	1	0
633.671	1	12
634.010	1	9
634.349	1	-9
634.689	1	7
635.028	1	-4
635.367	1	-2
635.706	1	-7
636.045	1	8
636.384	1	-5
636.724	1	9
637.063	1	6
637.402	1	9
637.741	1	-1
638.080	1	19
638.419	1	-3
638.759	1	-2
639.098	1	-5
639.437	1	-1
639.776	1	4
640.115	1	4
640.454	1	-4
640.793	1	-3
641.132	1	6
641.472	1	-1
641.811	1	15
642.150	1	1
642.489	1	2
642.828	1	6
643.167	1	-7
643.506	1	3
643.845	1	11
644.184	1	15
644.524	1	1
644.863	1	-12
645.202	1	4
645.541	1	2
645.880	1	10
646.219	1	-8
646.558	1	8
646.897	1	5
647.236	1	-10
647.575	1	-8
647.914	1	2
648.253	1	-2
648.592	1	-5
648.931	1	6
649.270	1	-8
649.610	1	3
649.949	1	-7
650.288	1	-3
650.627	1	-5
650.966	1	3
651.305	1	-3
651.644	1	4
651.983	1	8
652.322	1	12
652.661	1	-3
653.000	1	-14
653.339	1	10
653.678	1	12
654.017	1	2
654.356	1	7
654.695	1	3
655.034	1	-7
655.373	1	10
655.712	1	-2
656.051	1	4
656.390	1	1
656.729	1	-2
657.068	1	12
657.406	1	9
657.745	1	7
658.084	1	-3
658.423	1	4
658.762	1	3
659.101	1	3
659.440	1	5
659.779	1	-3
660.118	1	3
660.457	1	7
660.796	1	4
661.135	1	-19
661.474	1	7
661.813	1	-2
662.152	1	5
662.491	1	-4
662.829	1	0
663.168	1	12
663.507	1	4
663.846	1	-1
664.185	1	3
664.524	1	0
664.863	1	2
665.202	1	10
665.541	1	3
665.879	1	8
666.218	1	17
666.557	1	-4
666.896	1	3
667.235	1	-1
667.574	1	-5
667.913	1	-10
668.251	1	-5
668.590	1	-5
668.929	1	3
669.268	1	-7
669.607	1	-2
669.946	1	2
670.285	1	15
670.623	1	7
670.962	1	-8
671.301	1	-5
671.640	1	5
671.979	1	-2
672.317	1	0
672.656	1	6
672.995	1	-4
673.334	1	2
673.673	1	7
674.011	1	6
674.350	1	-2
674.689	1	5
675.028	1	-2
675.367	1	-8
675.705	1	3
676.044	1	9
676.383	1	10
676.722	1	8
677.060	1	-4
677.399	1	-1
677.738	1	1
678.077	1	8
678.416	1	-4
678.754	1	13
679.093	1	3
679.432	1	-1
679.771	1	-1
680.109	1	-6
680.448	1	7
680.787	1	-17
681.125	1	6
681.464	1	3
681.803	1	9
682.142	1	0
682.480	1	-2
682.819	1	11
683.158	1	0
683.496	1	5
683.835	1	-1
684.174	1	-3
684.512	1	2
684.851	1	5
685.190	1	-1
685.529	1	16
685.867	1	1
686.206	1	7
686.545	1	4
686.883	1	-4
687.222	1	3
687.561	1	0
687.899	1	-12
688.238	1	-8
688.577	1	11
688.746	1	4