File: Data/GaN_170K_550ms/GaN_sample D_spot 18_UVVIS_170 K_200um_550 ms 2x2mm1_14.txt
340.368	1	2
340.710	1	-8
341.052	1	-6
341.394	1	14
341.737	1	-9
342.079	1	-4
342.421	1	-8
342.763	1	5
343.105	1	11
343.447	1	0
343.789	1	5
344.131	1	6
344.473	1	0
344.815	1	3
345.157	1	-2
345.499	1	3
345.841	1	1
346.183	1	5
346.526	1	-4
346.868	1	1
347.210	1	-8
347.552	1	4
347.894	1	2
348.236	1	-3
348.578	1	-7
348.920	1	0
349.262	1	4
349.604	1	8
349.946	1	1
350.288	1	2
350.630	1	8
350.972	1	-5
351.314	1	5
351.656	1	-7
351.998	1	-1
352.340	1	2
352.682	1	8
353.024	1	-3
353.366	1	8
353.708	1	-3
354.050	1	-2
354.392	1	3
354.734	1	4
355.076	1	3
355.418	1	-2
355.760	1	-6
356.102	1	1
356.444	1	0
356.785	1	-5
357.127	1	-2
357.469	1	-2
357.811	1	5
358.153	1	4
358.495	1	-3
358.837	1	-2
359.179	1	-6
359.521	1	-1
359.863	1	-3
360.205	1	3
360.547	1	10
360.889	1	10
361.231	1	10
361.572	1	11
361.914	1	2
362.256	1	-4
362.598	1	-2
362.940	1	13
363.282	1	10
363.624	1	4
363.966	1	3
364.308	1	1
364.649	1	0
364.991	1	11
365.333	1	-4
365.675	1	2
366.017	1	5
366.359	1	-1
366.701	1	-1
367.042	1	-5
367.384	1	3
367.726	1	9
368.068	1	7
368.410	1	10
368.752	1	9
369.093	1	-7
369.435	1	3
369.777	1	3
370.119	1	-8
370.461	1	3
370.803	1	-2
371.144	1	4
371.486	1	-13
371.828	1	5
372.170	1	0
372.512	1	-2
372.853	1	6
373.195	1	6
373.537	1	7
373.879	1	5
374.220	1	1
374.562	1	2
374.904	1	-4
375.246	1	-4
375.588	1	-3
375.929	1	-3
376.271	1	9
376.613	1	-2
376.955	1	7
377.296	1	-3
377.638	1	4
377.980	1	-4
378.321	1	0
378.663	1	7
379.005	1	-1
379.347	1	2
379.688	1	-3
380.030	1	3
380.372	1	5
380.714	1	11
381.055	1	3
381.397	1	0
381.739	1	-7
382.080	1	1
382.422	1	3
382.764	1	-2
383.105	1	2
383.447	1	6
383.789	1	11
384.130	1	-9
384.472	1	-5
384.814	1	-7
385.156	1	-7
385.497	1	12
385.839	1	-5
386.180	1	9
386.522	1	8
386.864	1	9
387.205	1	-1
387.547	1	5
387.889	1	-3
388.230	1	0
388.572	1	4
388.914	1	-3
389.255	1	2
389.597	1	-2
389.939	1	-1
390.280	1	-3
390.622	1	0
390.963	1	5
391.305	1	-1
391.647	1	-7
391.988	1	-1
392.330	1	6
392.671	1	-5
393.013	1	-1
393.355	1	11
393.696	1	10
394.038	1	-6
394.379	1	1
394.721	1	3
395.062	1	-5
395.404	1	15
395.746	1	7
396.087	1	8
396.429	1	18
396.770	1	8
397.112	1	-3
397.453	1	6
397.795	1	7
398.136	1	8
398.478	1	3
398.819	1	1
399.161	1	-11
399.503	1	3
399.844	1	0
400.186	1	-7
400.527	1	14
400.869	1	6
401.210	1	2
401.552	1	-1
401.893	1	11
402.235	1	6
402.576	1	-11
402.918	1	-1
403.259	1	5
403.601	1	11
403.942	1	5
404.284	1	-13
404.625	1	4
404.967	1	-2
405.308	1	6
405.649	1	-2
405.991	1	5
406.332	1	-9
406.674	1	8
407.015	1	4
407.357	1	3
407.698	1	-5
408.040	1	0
408.381	1	4
408.722	1	-2
409.064	1	-4
409.405	1	1
409.747	1	2
410.088	1	11
410.430	1	-9
410.771	1	-6
411.112	1	-3
411.454	1	2
411.795	1	9
412.137	1	-5
412.478	1	-3
412.819	1	-5
413.161	1	4
413.502	1	-7
413.844	1	3
414.185	1	-4
414.526	1	1
414.868	1	4
415.209	1	-12
415.550	1	-3
415.892	1	11
416.233	1	3
416.575	1	-1
416.916	1	-2
417.257	1	7
417.599	1	-3
417.940	1	-1
418.281	1	-12
418.623	1	4
418.964	1	-10
419.305	1	1
419.647	1	-3
419.988	1	10
420.329	1	2
420.671	1	-3
421.012	1	4
421.353	1	5
421.695	1	-14
422.036	1	2
422.377	1	8
422.718	1	5
423.060	1	-6
423.401	1	-4
423.742	1	-3
424.084	1	17
424.425	1	-11
424.766	1	-2
425.107	1	-3
425.449	1	10
425.790	1	7
426.131	1	2
426.472	1	6
426.814	1	-10
427.155	1	7
427.496	1	2
427.837	1	7
428.179	1	3
428.520	1	5
428.861	1	1
429.202	1	-11
429.544	1	-1
429.885	1	9
430.226	1	-3
430.567	1	2
430.909	1	-6
431.250	1	7
431.591	1	-7
431.932	1	-6
432.273	1	0
432.615	1	-1
432.956	1	12
433.297	1	-4
433.638	1	16
433.979	1	2
434.320	1	6
434.662	1	-17
435.003	1	12
435.344	1	1
435.685	1	4
436.026	1	0
436.368	1	1
436.709	1	4
437.050	1	-9
437.391	1	-4
437.732	1	1
438.073	1	-4
438.414	1	-8
438.756	1	-11
439.097	1	2
439.438	1	8
439.779	1	9
440.120	1	0
440.461	1	10
440.802	1	4
441.143	1	-2
441.485	1	5
441.826	1	-6
442.167	1	-1
442.508	1	-8
442.849	1	6
443.190	1	1
443.531	1	7
443.872	1	-2
444.213	1	5
444.554	1	2
444.895	1	-6
445.237	1	-10
445.578	1	2
445.919	1	6
446.260	1	14
446.601	1	-2
446.942	1	4
447.283	1	13
447.624	1	-6
447.965	1	2
448.306	1	2
448.647	1	-6
448.988	1	10
449.329	1	12
449.670	1	-8
450.011	1	16
450.352	1	-5
450.693	1	-2
451.034	1	-2
451.375	1	10
451.716	1	1
452.057	1	5
452.398	1	2
452.739	1	4
453.080	1	4
453.421	1	0
453.762	1	6
454.103	1	-8
454.444	1	-9
454.785	1	-6
455.126	1	10
455.467	1	-2
455.808	1	6
456.149	1	5
456.490	1	0
456.831	1	-6
457.172	1	4
457.513	1	11
457.854	1	7
458.195	1	0
458.536	1	-4
458.877	1	2
459.218	1	0
459.559	1	9
459.899	1	2
460.240	1	-3
460.581	1	14
460.922	1	-1
461.263	1	5
461.604	1	2
461.945	1	1
462.286	1	-3
462.627	1	8
462.968	1	14
463.309	1	6
463.649	1	0
463.990	1	-1
464.331	1	1
464.672	1	4
465.013	1	10
465.354	1	4
465.695	1	-2
466.036	1	-4
466.376	1	8
466.717	1	-1
467.058	1	-2
467.399	1	7
467.740	1	-7
468.081	1	11
468.422	1	6
468.762	1	4
469.103	1	7
469.444	1	11
469.785	1	-7
470.126	1	3
470.467	1	10
470.807	1	-5
471.148	1	0
471.489	1	6
471.830	1	1
472.171	1	6
472.511	1	-1
472.852	1	4
473.193	1	5
473.534	1	10
473.875	1	-1
474.215	1	4
474.556	1	9
474.897	1	5
475.238	1	-1
475.578	1	-1
475.919	1	3
476.260	1	14
476.601	1	-3
476.942	1	-3
477.282	1	9
477.623	1	2
477.964	1	-2
478.305	1	-3
478.645	1	5
478.986	1	-4
479.327	1	-8
479.667	1	2
480.008	1	4
480.349	1	1
480.690	1	8
481.030	1	1
481.371	1	-4
481.712	1	4
482.053	1	-2
482.393	1	-5
482.734	1	2
483.075	1	1
483.415	1	6
483.756	1	4
484.097	1	0
484.437	1	-1
484.778	1	-7
485.119	1	7
485.459	1	-1
485.800	1	-3
486.141	1	9
486.481	1	-1
486.822	1	3
487.163	1	3
487.503	1	-2
487.844	1	6
488.185	1	1
488.525	1	-2
488.866	1	2
489.207	1	8
489.547	1	11
489.888	1	3
490.228	1	-7
490.569	1	5
490.910	1	2
491.250	1	2
491.591	1	1
491.932	1	1
492.272	1	10
492.613	1	7
492.953	1	2
493.294	1	-2
493.635	1	2
493.975	1	7
494.316	1	-7
494.656	1	-1
494.997	1	2
495.337	1	6
495.678	1	3
496.019	1	-21
496.359	1	8
496.700	1	11
497.040	1	-4
497.381	1	7
497.721	1	2
498.062	1	-10
498.403	1	11
498.743	1	6
499.084	1	-5
499.424	1	10
499.765	1	-11
500.105	1	-5
500.446	1	-6
500.786	1	-7
501.127	1	5
501.467	1	-6
501.808	1	1
502.148	1	10
502.489	1	8
502.829	1	1
503.170	1	13
503.510	1	-2
503.851	1	-5
504.191	1	-7
504.532	1	-14
504.872	1	7
505.213	1	2
505.553	1	-6
505.894	1	8
506.234	1	-5
506.575	1	8
506.915	1	6
507.256	1	-8
507.596	1	-2
507.936	1	9
508.277	1	-1
508.617	1	3
508.958	1	7
509.298	1	-9
509.639	1	13
509.979	1	13
510.319	1	-12
510.660	1	-7
511.000	1	3
511.341	1	17
511.681	1	3
512.022	1	5
512.362	1	0
512.702	1	-3
513.043	1	9
513.383	1	6
513.724	1	-5
514.064	1	6
514.404	1	-6
514.745	1	4
515.085	1	5
515.425	1	13
515.766	1	10
516.106	1	2
516.447	1	-15
516.787	1	8
517.127	1	0
517.468	1	1
517.808	1	6
518.148	1	6
518.489	1	5
518.829	1	0
519.169	1	0
519.510	1	-2
519.850	1	0
520.190	1	8
520.531	1	7
520.871	1	-7
521.211	1	8
521.552	1	5
521.892	1	5
522.232	1	-5
522.573	1	8
522.913	1	2
523.253	1	8
523.593	1	5
523.934	1	0
524.274	1	-3
524.614	1	-3
524.955	1	-6
525.295	1	1
525.635	1	-3
525.975	1	1
526.316	1	10
526.656	1	7
526.996	1	3
527.337	1	-7
527.677	1	0
528.017	1	7
528.357	1	-4
528.698	1	-13
529.038	1	-10
529.378	1	5
529.718	1	11
530.058	1	5
530.399	1	-6
530.739	1	-7
531.079	1	4
531.419	1	2
531.760	1	0
532.100	1	0
532.440	1	6
532.780	1	1
533.120	1	7
533.461	1	0
533.801	1	11
534.141	1	-2
534.481	1	0
534.821	1	3
535.162	1	11
535.502	1	3
535.842	1	3
536.182	1	-3
536.522	1	8
536.862	1	4
537.203	1	4
537.543	1	-5
537.883	1	-1
538.223	1	6
538.563	1	5
538.903	1	-4
539.243	1	-2
539.584	1	-2
539.924	1	0
540.264	1	4
540.604	1	1
540.944	1	1
541.284	1	8
541.624	1	0
541.964	1	2
542.305	1	-2
542.645	1	-2
542.985	1	4
543.325	1	9
543.665	1	6
544.005	1	-5
544.345	1	2
544.685	1	2
545.025	1	-5
545.365	1	-4
545.705	1	5
546.045	1	-2
546.386	1	5
546.726	1	-5
547.066	1	16
547.406	1	-1
547.746	1	-7
548.086	1	10
548.426	1	5
548.766	1	-2
549.106	1	8
549.446	1	3
549.786	1	1
550.126	1	2
550.466	1	-1
550.806	1	4
551.146	1	4
551.486	1	-2
551.826	1	3
552.166	1	-3
552.506	1	3
552.846	1	9
553.186	1	-3
553.526	1	1
553.866	1	-4
554.206	1	3
554.546	1	-12
554.886	1	-1
555.226	1	-5
555.566	1	1
555.906	1	0
556.246	1	3
556.586	1	2
556.926	1	3
557.266	1	2
557.606	1	-1
557.946	1	10
558.286	1	0
558.626	1	5
558.966	1	3
559.306	1	9
559.646	1	-3
559.986	1	0
560.325	1	-5
560.665	1	3
561.005	1	5
561.345	1	6
561.685	1	1
562.025	1	-10
562.365	1	6
562.705	1	3
563.045	1	2
563.385	1	3
563.725	1	-10
564.064	1	3
564.404	1	1
564.744	1	-5
565.084	1	8
565.424	1	2
565.764	1	4
566.104	1	1
566.444	1	5
566.783	1	6
567.123	1	-3
567.463	1	-6
567.803	1	4
568.143	1	-1
568.483	1	0
568.823	1	1
569.162	1	7
569.502	1	4
569.842	1	-5
570.182	1	-4
570.522	1	1
570.862	1	1
571.201	1	1
571.541	1	-6
571.881	1	4
572.221	1	-2
572.561	1	0
572.900	1	0
573.240	1	5
573.580	1	-5
573.920	1	6
574.260	1	7
574.599	1	-7
574.939	1	0
575.279	1	-5
575.619	1	14
575.959	1	-1
576.298	1	4
576.638	1	8
576.978	1	3
577.318	1	2
577.657	1	0
577.997	1	-9
578.337	1	6
578.677	1	-4
579.016	1	2
579.356	1	-1
579.696	1	-4
580.036	1	3
580.375	1	5
580.715	1	9
581.055	1	8
581.394	1	-9
581.734	1	7
582.074	1	7
582.414	1	-2
582.753	1	5
583.093	1	8
583.433	1	6
583.772	1	1
584.112	1	9
584.452	1	-5
584.791	1	2
585.131	1	11
585.471	1	4
585.811	1	-8
586.150	1	-2
586.490	1	6
586.830	1	-6
587.169	1	12
587.509	1	0
587.849	1	-5
588.188	1	1
588.528	1	-10
588.867	1	6
589.207	1	3
589.547	1	10
589.886	1	2
590.226	1	2
590.566	1	9
590.905	1	9
591.245	1	-2
591.585	1	6
591.924	1	-2
592.264	1	-6
592.603	1	-5
592.943	1	1
593.283	1	3
593.622	1	-7
593.962	1	4
594.301	1	8
594.641	1	-1
594.981	1	12
595.320	1	-11
595.660	1	-3
595.999	1	9
596.339	1	4
596.678	1	-4
597.018	1	-4
597.358	1	2
597.697	1	4
598.037	1	-1
598.376	1	-5
598.716	1	-1
599.055	1	-1
599.395	1	4
599.734	1	9
600.074	1	-3
600.413	1	-4
600.753	1	1
601.092	1	7
601.432	1	-2
601.771	1	12
602.111	1	-3
602.451	1	1
602.790	1	8
603.130	1	2
603.469	1	0
603.809	1	4
604.148	1	4
604.487	1	8
604.827	1	-8
605.166	1	13
605.506	1	-2
605.845	1	1
606.185	1	0
606.524	1	0
606.864	1	1
607.203	1	-1
607.543	1	8
607.882	1	7
608.222	1	2
608.561	1	16
608.901	1	-4
609.240	1	-5
609.579	1	2
609.919	1	-2
610.258	1	3
610.598	1	6
610.937	1	1
611.277	1	8
611.616	1	2
611.955	1	-1
612.295	1	1
612.634	1	-3
612.974	1	6
613.313	1	0
613.652	1	13
613.992	1	-5
614.331	1	6
614.671	1	6
615.010	1	2
615.349	1	1
615.689	1	4
616.028	1	-1
616.368	1	3
616.707	1	3
617.046	1	-4
617.386	1	-10
617.725	1	3
618.064	1	-2
618.404	1	7
618.743	1	9
619.082	1	4
619.422	1	-15
619.761	1	-7
620.100	1	3
620.440	1	9
620.779	1	4
621.118	1	-3
621.458	1	2
621.797	1	-1
622.136	1	3
622.476	1	-5
622.815	1	-1
623.154	1	4
623.494	1	-1
623.833	1	6
624.172	1	0
624.511	1	5
624.851	1	-3
625.190	1	9
625.529	1	8
625.869	1	9
626.208	1	1
626.547	1	-7
626.886	1	-3
627.226	1	-1
627.565	1	4
627.904	1	-1
628.243	1	-1
628.583	1	3
628.922	1	-8
629.261	1	8
629.600	1	-5
629.940	1	-5
630.279	1	-5
630.618	1	-12
630.957	1	3
631.297	1	-2
631.636	1	6
631.975	1	2
632.314	1	-4
632.653	1	0
632.993	1	-2
633.332	1	6
633.671	1	12
634.010	1	5
634.349	1	-11
634.689	1	5
635.028	1	0
635.367	1	-5
635.706	1	-1
636.045	1	7
636.384	1	-9
636.724	1	8
637.063	1	7
637.402	1	15
637.741	1	2
638.080	1	9
638.419	1	-9
638.759	1	11
639.098	1	-10
639.437	1	-6
639.776	1	-3
640.115	1	11
640.454	1	1
640.793	1	1
641.132	1	8
641.472	1	-5
641.811	1	5
642.150	1	3
642.489	1	-9
642.828	1	-4
643.167	1	-4
643.506	1	-2
643.845	1	4
644.184	1	9
644.524	1	4
644.863	1	-8
645.202	1	11
645.541	1	15
645.880	1	1
646.219	1	1
646.558	1	4
646.897	1	9
647.236	1	-1
647.575	1	-7
647.914	1	4
648.253	1	1
648.592	1	5
648.931	1	4
649.270	1	-4
649.610	1	2
649.949	1	-5
650.288	1	3
650.627	1	-1
650.966	1	1
651.305	1	-5
651.644	1	9
651.983	1	0
652.322	1	0
652.661	1	2
653.000	1	-4
653.339	1	0
653.678	1	7
654.017	1	1
654.356	1	3
654.695	1	6
655.034	1	-1
655.373	1	2
655.712	1	0
656.051	1	7
656.390	1	3
656.729	1	-2
657.068	1	7
657.406	1	0
657.745	1	7
658.084	1	0
658.423	1	-4
658.762	1	6
659.101	1	10
659.440	1	-2
659.779	1	-2
660.118	1	-3
660.457	1	7
660.796	1	-4
661.135	1	-12
661.474	1	9
661.813	1	1
662.152	1	6
662.491	1	-1
662.829	1	-4
663.168	1	-1
663.507	1	7
663.846	1	-3
664.185	1	11
664.524	1	8
664.863	1	-2
665.202	1	13
665.541	1	5
665.879	1	10
666.218	1	7
666.557	1	1
666.896	1	0
667.235	1	-4
667.574	1	-10
667.913	1	-13
668.251	1	8
668.590	1	4
668.929	1	1
669.268	1	-10
669.607	1	-7
669.946	1	1
670.285	1	12
670.623	1	-2
670.962	1	-1
671.301	1	6
671.640	1	0
671.979	1	-1
672.317	1	10
672.656	1	-1
672.995	1	-9
673.334	1	-14
673.673	1	-3
674.011	1	-2
674.350	1	-1
674.689	1	-5
675.028	1	1
675.367	1	-3
675.705	1	13
676.044	1	9
676.383	1	3
676.722	1	12
677.060	1	-5
677.399	1	2
677.738	1	4
678.077	1	7
678.416	1	-10
678.754	1	-7
679.093	1	9
679.432	1	4
679.771	1	5
680.109	1	0
680.448	1	8
680.787	1	-5
681.125	1	7
681.464	1	4
681.803	1	18
682.142	1	-6
682.480	1	3
682.819	1	6
683.158	1	0
683.496	1	1
683.835	1	-4
684.174	1	-1
684.512	1	1
684.851	1	1
685.190	1	5
685.529	1	15
685.867	1	5
686.206	1	17
686.545	1	15
686.883	1	0
687.222	1	0
687.561	1	-3
687.899	1	-2
688.238	1	-8
688.577	1	12
688.746	1	-5