File: Data/GaN_170K_550ms/GaN_sample D_spot 18_UVVIS_170 K_200um_550 ms 2x2mm1_69.txt
340.368	1	6
340.710	1	-8
341.052	1	3
341.394	1	8
341.737	1	-1
342.079	1	-2
342.421	1	12
342.763	1	8
343.105	1	16
343.447	1	-3
343.789	1	12
344.131	1	5
344.473	1	8
344.815	1	4
345.157	1	1
345.499	1	5
345.841	1	10
346.183	1	10
346.526	1	4
346.868	1	7
347.210	1	1
347.552	1	18
347.894	1	-1
348.236	1	8
348.578	1	6
348.920	1	5
349.262	1	8
349.604	1	5
349.946	1	10
350.288	1	5
350.630	1	19
350.972	1	-2
351.314	1	2
351.656	1	-1
351.998	1	12
352.340	1	5
352.682	1	14
353.024	1	11
353.366	1	9
353.708	1	18
354.050	1	7
354.392	1	18
354.734	1	12
355.076	1	12
355.418	1	15
355.760	1	12
356.102	1	18
356.444	1	6
356.785	1	22
357.127	1	20
357.469	1	23
357.811	1	29
358.153	1	33
358.495	1	26
358.837	1	35
359.179	1	31
359.521	1	45
359.863	1	54
360.205	1	55
360.547	1	51
360.889	1	53
361.231	1	55
361.572	1	73
361.914	1	82
362.256	1	83
362.598	1	88
362.940	1	109
363.282	1	122
363.624	1	125
363.966	1	140
364.308	1	136
364.649	1	176
364.991	1	192
365.333	1	202
365.675	1	229
366.017	1	243
366.359	1	258
366.701	1	269
367.042	1	290
367.384	1	316
367.726	1	335
368.068	1	333
368.410	1	357
368.752	1	348
369.093	1	322
369.435	1	334
369.777	1	339
370.119	1	310
370.461	1	311
370.803	1	290
371.144	1	279
371.486	1	260
371.828	1	248
372.170	1	227
372.512	1	208
372.853	1	215
373.195	1	194
373.537	1	192
373.879	1	178
374.220	1	166
374.562	1	159
374.904	1	151
375.246	1	138
375.588	1	128
375.929	1	120
376.271	1	119
376.613	1	114
376.955	1	118
377.296	1	99
377.638	1	104
377.980	1	78
378.321	1	88
378.663	1	85
379.005	1	78
379.347	1	79
379.688	1	74
380.030	1	69
380.372	1	76
380.714	1	81
381.055	1	60
381.397	1	69
381.739	1	51
382.080	1	53
382.422	1	56
382.764	1	50
383.105	1	44
383.447	1	59
383.789	1	68
384.130	1	48
384.472	1	33
384.814	1	44
385.156	1	39
385.497	1	50
385.839	1	33
386.180	1	48
386.522	1	43
386.864	1	38
387.205	1	28
387.547	1	37
387.889	1	45
388.230	1	26
388.572	1	28
388.914	1	29
389.255	1	37
389.597	1	33
389.939	1	24
390.280	1	30
390.622	1	22
390.963	1	21
391.305	1	14
391.647	1	13
391.988	1	18
392.330	1	28
392.671	1	24
393.013	1	24
393.355	1	12
393.696	1	12
394.038	1	11
394.379	1	11
394.721	1	18
395.062	1	17
395.404	1	19
395.746	1	23
396.087	1	20
396.429	1	26
396.770	1	24
397.112	1	9
397.453	1	20
397.795	1	10
398.136	1	8
398.478	1	-2
398.819	1	14
399.161	1	11
399.503	1	17
399.844	1	3
400.186	1	8
400.527	1	15
400.869	1	9
401.210	1	20
401.552	1	14
401.893	1	15
402.235	1	13
402.576	1	9
402.918	1	10
403.259	1	5
403.601	1	7
403.942	1	18
404.284	1	-4
404.625	1	15
404.967	1	9
405.308	1	10
405.649	1	10
405.991	1	12
406.332	1	6
406.674	1	10
407.015	1	14
407.357	1	8
407.698	1	7
408.040	1	8
408.381	1	13
408.722	1	6
409.064	1	5
409.405	1	9
409.747	1	10
410.088	1	17
410.430	1	9
410.771	1	1
411.112	1	9
411.454	1	5
411.795	1	16
412.137	1	5
412.478	1	6
412.819	1	2
413.161	1	2
413.502	1	4
413.844	1	7
414.185	1	5
414.526	1	7
414.868	1	4
415.209	1	1
415.550	1	6
415.892	1	12
416.233	1	12
416.575	1	7
416.916	1	-9
417.257	1	12
417.599	1	1
417.940	1	6
418.281	1	1
418.623	1	11
418.964	1	2
419.305	1	5
419.647	1	8
419.988	1	3
420.329	1	6
420.671	1	2
421.012	1	2
421.353	1	4
421.695	1	-2
422.036	1	8
422.377	1	-1
422.718	1	2
423.060	1	7
423.401	1	6
423.742	1	-4
424.084	1	26
424.425	1	1
424.766	1	2
425.107	1	-1
425.449	1	16
425.790	1	1
426.131	1	7
426.472	1	5
426.814	1	-3
427.155	1	22
427.496	1	2
427.837	1	17
428.179	1	8
428.520	1	-5
428.861	1	5
429.202	1	8
429.544	1	3
429.885	1	4
430.226	1	6
430.567	1	11
430.909	1	12
431.250	1	11
431.591	1	8
431.932	1	-5
432.273	1	1
432.615	1	8
432.956	1	6
433.297	1	10
433.638	1	10
433.979	1	3
434.320	1	10
434.662	1	-5
435.003	1	4
435.344	1	5
435.685	1	8
436.026	1	8
436.368	1	-1
436.709	1	6
437.050	1	-5
437.391	1	0
437.732	1	6
438.073	1	5
438.414	1	-5
438.756	1	9
439.097	1	5
439.438	1	7
439.779	1	13
440.120	1	-2
440.461	1	10
440.802	1	8
441.143	1	-2
441.485	1	-8
441.826	1	12
442.167	1	9
442.508	1	3
442.849	1	-5
443.190	1	6
443.531	1	8
443.872	1	-6
444.213	1	12
444.554	1	8
444.895	1	-8
445.237	1	-6
445.578	1	4
445.919	1	4
446.260	1	8
446.601	1	-1
446.942	1	9
447.283	1	8
447.624	1	5
447.965	1	4
448.306	1	9
448.647	1	0
448.988	1	18
449.329	1	11
449.670	1	-6
450.011	1	16
450.352	1	-5
450.693	1	8
451.034	1	2
451.375	1	13
451.716	1	6
452.057	1	7
452.398	1	10
452.739	1	7
453.080	1	3
453.421	1	1
453.762	1	6
454.103	1	-2
454.444	1	4
454.785	1	3
455.126	1	7
455.467	1	-5
455.808	1	9
456.149	1	1
456.490	1	8
456.831	1	1
457.172	1	-1
457.513	1	13
457.854	1	15
458.195	1	7
458.536	1	5
458.877	1	6
459.218	1	5
459.559	1	10
459.899	1	9
460.240	1	2
460.581	1	-1
460.922	1	3
461.263	1	3
461.604	1	12
461.945	1	4
462.286	1	-2
462.627	1	4
462.968	1	9
463.309	1	-1
463.649	1	11
463.990	1	10
464.331	1	10
464.672	1	-2
465.013	1	18
465.354	1	9
465.695	1	8
466.036	1	-6
466.376	1	5
466.717	1	-7
467.058	1	14
467.399	1	18
467.740	1	5
468.081	1	-3
468.422	1	6
468.762	1	14
469.103	1	5
469.444	1	9
469.785	1	-2
470.126	1	4
470.467	1	15
470.807	1	4
471.148	1	-8
471.489	1	1
471.830	1	4
472.171	1	12
472.511	1	2
472.852	1	12
473.193	1	4
473.534	1	15
473.875	1	9
474.215	1	4
474.556	1	7
474.897	1	9
475.238	1	-4
475.578	1	5
475.919	1	8
476.260	1	16
476.601	1	4
476.942	1	1
477.282	1	14
477.623	1	14
477.964	1	4
478.305	1	-3
478.645	1	9
478.986	1	1
479.327	1	1
479.667	1	0
480.008	1	10
480.349	1	9
480.690	1	12
481.030	1	11
481.371	1	12
481.712	1	7
482.053	1	2
482.393	1	1
482.734	1	10
483.075	1	21
483.415	1	22
483.756	1	16
484.097	1	7
484.437	1	6
484.778	1	1
485.119	1	11
485.459	1	15
485.800	1	3
486.141	1	14
486.481	1	6
486.822	1	10
487.163	1	17
487.503	1	13
487.844	1	14
488.185	1	10
488.525	1	24
488.866	1	16
489.207	1	21
489.547	1	19
489.888	1	13
490.228	1	13
490.569	1	13
490.910	1	12
491.250	1	17
491.591	1	22
491.932	1	15
492.272	1	19
492.613	1	20
492.953	1	23
493.294	1	21
493.635	1	27
493.975	1	22
494.316	1	16
494.656	1	19
494.997	1	13
495.337	1	31
495.678	1	32
496.019	1	18
496.359	1	27
496.700	1	26
497.040	1	26
497.381	1	26
497.721	1	14
498.062	1	16
498.403	1	26
498.743	1	25
499.084	1	22
499.424	1	31
499.765	1	16
500.105	1	8
500.446	1	22
500.786	1	24
501.127	1	32
501.467	1	21
501.808	1	22
502.148	1	36
502.489	1	24
502.829	1	33
503.170	1	42
503.510	1	39
503.851	1	35
504.191	1	32
504.532	1	27
504.872	1	49
505.213	1	28
505.553	1	39
505.894	1	41
506.234	1	25
506.575	1	48
506.915	1	45
507.256	1	32
507.596	1	35
507.936	1	40
508.277	1	31
508.617	1	42
508.958	1	47
509.298	1	39
509.639	1	42
509.979	1	42
510.319	1	29
510.660	1	34
511.000	1	43
511.341	1	48
511.681	1	30
512.022	1	42
512.362	1	43
512.702	1	42
513.043	1	42
513.383	1	42
513.724	1	38
514.064	1	43
514.404	1	35
514.745	1	35
515.085	1	38
515.425	1	35
515.766	1	42
516.106	1	41
516.447	1	38
516.787	1	52
517.127	1	45
517.468	1	54
517.808	1	49
518.148	1	43
518.489	1	48
518.829	1	54
519.169	1	51
519.510	1	42
519.850	1	39
520.190	1	42
520.531	1	46
520.871	1	55
521.211	1	47
521.552	1	56
521.892	1	45
522.232	1	42
522.573	1	43
522.913	1	53
523.253	1	60
523.593	1	46
523.934	1	56
524.274	1	43
524.614	1	46
524.955	1	43
525.295	1	41
525.635	1	63
525.975	1	41
526.316	1	50
526.656	1	53
526.996	1	58
527.337	1	47
527.677	1	46
528.017	1	57
528.357	1	51
528.698	1	36
529.038	1	46
529.378	1	46
529.718	1	53
530.058	1	45
530.399	1	52
530.739	1	53
531.079	1	49
531.419	1	54
531.760	1	48
532.100	1	57
532.440	1	50
532.780	1	51
533.120	1	52
533.461	1	40
533.801	1	50
534.141	1	42
534.481	1	48
534.821	1	44
535.162	1	56
535.502	1	45
535.842	1	43
536.182	1	45
536.522	1	54
536.862	1	42
537.203	1	50
537.543	1	40
537.883	1	54
538.223	1	46
538.563	1	39
538.903	1	39
539.243	1	38
539.584	1	50
539.924	1	43
540.264	1	47
540.604	1	42
540.944	1	37
541.284	1	43
541.624	1	41
541.964	1	54
542.305	1	42
542.645	1	39
542.985	1	44
543.325	1	37
543.665	1	42
544.005	1	45
544.345	1	44
544.685	1	39
545.025	1	34
545.365	1	45
545.705	1	44
546.045	1	40
546.386	1	47
546.726	1	36
547.066	1	49
547.406	1	37
547.746	1	43
548.086	1	43
548.426	1	51
548.766	1	44
549.106	1	52
549.446	1	42
549.786	1	49
550.126	1	42
550.466	1	40
550.806	1	49
551.146	1	45
551.486	1	49
551.826	1	44
552.166	1	43
552.506	1	48
552.846	1	39
553.186	1	41
553.526	1	32
553.866	1	31
554.206	1	42
554.546	1	41
554.886	1	35
555.226	1	39
555.566	1	41
555.906	1	34
556.246	1	30
556.586	1	39
556.926	1	39
557.266	1	36
557.606	1	42
557.946	1	36
558.286	1	31
558.626	1	32
558.966	1	44
559.306	1	42
559.646	1	30
559.986	1	45
560.325	1	30
560.665	1	33
561.005	1	35
561.345	1	28
561.685	1	27
562.025	1	19
562.365	1	30
562.705	1	28
563.045	1	35
563.385	1	34
563.725	1	26
564.064	1	30
564.404	1	34
564.744	1	29
565.084	1	35
565.424	1	27
565.764	1	28
566.104	1	30
566.444	1	33
566.783	1	26
567.123	1	22
567.463	1	26
567.803	1	32
568.143	1	24
568.483	1	23
568.823	1	34
569.162	1	28
569.502	1	29
569.842	1	18
570.182	1	18
570.522	1	22
570.862	1	31
571.201	1	24
571.541	1	20
571.881	1	28
572.221	1	31
572.561	1	32
572.900	1	16
573.240	1	23
573.580	1	17
573.920	1	32
574.260	1	25
574.599	1	15
574.939	1	18
575.279	1	23
575.619	1	30
575.959	1	9
576.298	1	25
576.638	1	27
576.978	1	30
577.318	1	29
577.657	1	24
577.997	1	17
578.337	1	20
578.677	1	17
579.016	1	21
579.356	1	21
579.696	1	11
580.036	1	15
580.375	1	28
580.715	1	19
581.055	1	17
581.394	1	15
581.734	1	22
582.074	1	2
582.414	1	16
582.753	1	15
583.093	1	18
583.433	1	23
583.772	1	23
584.112	1	17
584.452	1	17
584.791	1	20
585.131	1	27
585.471	1	18
585.811	1	9
586.150	1	10
586.490	1	24
586.830	1	4
587.169	1	32
587.509	1	12
587.849	1	22
588.188	1	10
588.528	1	17
588.867	1	7
589.207	1	13
589.547	1	26
589.886	1	3
590.226	1	18
590.566	1	11
590.905	1	24
591.245	1	11
591.585	1	13
591.924	1	12
592.264	1	5
592.603	1	11
592.943	1	19
593.283	1	27
593.622	1	1
593.962	1	13
594.301	1	24
594.641	1	11
594.981	1	13
595.320	1	15
595.660	1	22
595.999	1	12
596.339	1	21
596.678	1	13
597.018	1	13
597.358	1	8
597.697	1	12
598.037	1	8
598.376	1	0
598.716	1	11
599.055	1	10
599.395	1	9
599.734	1	14
600.074	1	7
600.413	1	8
600.753	1	17
601.092	1	7
601.432	1	6
601.771	1	13
602.111	1	11
602.451	1	17
602.790	1	22
603.130	1	9
603.469	1	23
603.809	1	14
604.148	1	14
604.487	1	11
604.827	1	8
605.166	1	22
605.506	1	7
605.845	1	19
606.185	1	17
606.524	1	12
606.864	1	6
607.203	1	11
607.543	1	21
607.882	1	14
608.222	1	-4
608.561	1	17
608.901	1	15
609.240	1	15
609.579	1	8
609.919	1	2
610.258	1	23
610.598	1	18
610.937	1	10
611.277	1	6
611.616	1	11
611.955	1	16
612.295	1	17
612.634	1	3
612.974	1	8
613.313	1	8
613.652	1	12
613.992	1	15
614.331	1	8
614.671	1	18
615.010	1	6
615.349	1	10
615.689	1	16
616.028	1	5
616.368	1	11
616.707	1	17
617.046	1	7
617.386	1	2
617.725	1	15
618.064	1	9
618.404	1	8
618.743	1	11
619.082	1	16
619.422	1	9
619.761	1	-1
620.100	1	15
620.440	1	14
620.779	1	6
621.118	1	7
621.458	1	5
621.797	1	11
622.136	1	13
622.476	1	3
622.815	1	5
623.154	1	10
623.494	1	4
623.833	1	5
624.172	1	4
624.511	1	18
624.851	1	3
625.190	1	3
625.529	1	9
625.869	1	12
626.208	1	2
626.547	1	9
626.886	1	15
627.226	1	8
627.565	1	16
627.904	1	1
628.243	1	6
628.583	1	13
628.922	1	1
629.261	1	4
629.600	1	1
629.940	1	6
630.279	1	11
630.618	1	-2
630.957	1	6
631.297	1	0
631.636	1	11
631.975	1	10
632.314	1	12
632.653	1	14
632.993	1	7
633.332	1	6
633.671	1	13
634.010	1	15
634.349	1	8
634.689	1	12
635.028	1	11
635.367	1	3
635.706	1	8
636.045	1	20
636.384	1	7
636.724	1	21
637.063	1	11
637.402	1	13
637.741	1	11
638.080	1	16
638.419	1	10
638.759	1	9
639.098	1	-2
639.437	1	-2
639.776	1	3
640.115	1	12
640.454	1	11
640.793	1	2
641.132	1	13
641.472	1	-3
641.811	1	14
642.150	1	8
642.489	1	6
642.828	1	2
643.167	1	-1
643.506	1	14
643.845	1	12
644.184	1	18
644.524	1	9
644.863	1	-2
645.202	1	13
645.541	1	20
645.880	1	13
646.219	1	5
646.558	1	13
646.897	1	17
647.236	1	10
647.575	1	4
647.914	1	3
648.253	1	7
648.592	1	0
648.931	1	7
649.270	1	6
649.610	1	16
649.949	1	11
650.288	1	3
650.627	1	4
650.966	1	12
651.305	1	9
651.644	1	14
651.983	1	15
652.322	1	17
652.661	1	3
653.000	1	1
653.339	1	-2
653.678	1	11
654.017	1	13
654.356	1	6
654.695	1	12
655.034	1	3
655.373	1	13
655.712	1	-5
656.051	1	7
656.390	1	2
656.729	1	9
657.068	1	12
657.406	1	9
657.745	1	13
658.084	1	-12
658.423	1	2
658.762	1	0
659.101	1	15
659.440	1	7
659.779	1	6
660.118	1	2
660.457	1	19
660.796	1	4
661.135	1	-4
661.474	1	6
661.813	1	3
662.152	1	8
662.491	1	-4
662.829	1	-4
663.168	1	7
663.507	1	13
663.846	1	-1
664.185	1	-3
664.524	1	1
664.863	1	4
665.202	1	14
665.541	1	5
665.879	1	5
666.218	1	18
666.557	1	0
666.896	1	12
667.235	1	-2
667.574	1	-10
667.913	1	4
668.251	1	1
668.590	1	5
668.929	1	4
669.268	1	5
669.607	1	16
669.946	1	8
670.285	1	15
670.623	1	1
670.962	1	4
671.301	1	1
671.640	1	15
671.979	1	8
672.317	1	8
672.656	1	13
672.995	1	-3
673.334	1	14
673.673	1	2
674.011	1	6
674.350	1	5
674.689	1	2
675.028	1	7
675.367	1	2
675.705	1	10
676.044	1	18
676.383	1	10
676.722	1	15
677.060	1	-4
677.399	1	15
677.738	1	2
678.077	1	22
678.416	1	4
678.754	1	7
679.093	1	9
679.432	1	15
679.771	1	9
680.109	1	6
680.448	1	12
680.787	1	-9
681.125	1	5
681.464	1	7
681.803	1	17
682.142	1	5
682.480	1	9
682.819	1	19
683.158	1	11
683.496	1	9
683.835	1	3
684.174	1	4
684.512	1	13
684.851	1	13
685.190	1	-2
685.529	1	25
685.867	1	12
686.206	1	12
686.545	1	15
686.883	1	6
687.222	1	0
687.561	1	7
687.899	1	-1
688.238	1	9
688.577	1	15
688.746	1	0