File: Data/GaN_170K_550ms/GaN_sample D_spot 18_UVVIS_170 K_200um_550 ms 2x2mm1_384.txt
340.368	1	3
340.710	1	-9
341.052	1	4
341.394	1	4
341.737	1	-12
342.079	1	-7
342.421	1	-3
342.763	1	4
343.105	1	13
343.447	1	-15
343.789	1	4
344.131	1	-8
344.473	1	1
344.815	1	4
345.157	1	-6
345.499	1	-2
345.841	1	5
346.183	1	8
346.526	1	-1
346.868	1	9
347.210	1	-12
347.552	1	11
347.894	1	0
348.236	1	-5
348.578	1	3
348.920	1	0
349.262	1	5
349.604	1	7
349.946	1	4
350.288	1	-8
350.630	1	6
350.972	1	-7
351.314	1	5
351.656	1	-2
351.998	1	7
352.340	1	-6
352.682	1	0
353.024	1	-3
353.366	1	3
353.708	1	2
354.050	1	-7
354.392	1	-2
354.734	1	5
355.076	1	-6
355.418	1	-7
355.760	1	-1
356.102	1	-3
356.444	1	-6
356.785	1	-1
357.127	1	-8
357.469	1	-11
357.811	1	-6
358.153	1	0
358.495	1	-2
358.837	1	-3
359.179	1	-10
359.521	1	0
359.863	1	2
360.205	1	8
360.547	1	2
360.889	1	2
361.231	1	1
361.572	1	1
361.914	1	-1
362.256	1	-10
362.598	1	-7
362.940	1	2
363.282	1	1
363.624	1	3
363.966	1	-7
364.308	1	0
364.649	1	-8
364.991	1	9
365.333	1	-1
365.675	1	4
366.017	1	-3
366.359	1	-6
366.701	1	-2
367.042	1	-5
367.384	1	4
367.726	1	10
368.068	1	-5
368.410	1	5
368.752	1	1
369.093	1	-18
369.435	1	-10
369.777	1	3
370.119	1	-4
370.461	1	2
370.803	1	-11
371.144	1	-9
371.486	1	-2
371.828	1	-3
372.170	1	-4
372.512	1	-1
372.853	1	-5
373.195	1	-4
373.537	1	6
373.879	1	10
374.220	1	9
374.562	1	-8
374.904	1	-4
375.246	1	-2
375.588	1	4
375.929	1	7
376.271	1	6
376.613	1	0
376.955	1	14
377.296	1	3
377.638	1	3
377.980	1	-11
378.321	1	2
378.663	1	5
379.005	1	-9
379.347	1	-2
379.688	1	-11
380.030	1	5
380.372	1	0
380.714	1	0
381.055	1	-3
381.397	1	4
381.739	1	-12
382.080	1	-10
382.422	1	-5
382.764	1	-9
383.105	1	0
383.447	1	11
383.789	1	7
384.130	1	-15
384.472	1	-8
384.814	1	3
385.156	1	2
385.497	1	-3
385.839	1	-6
386.180	1	9
386.522	1	4
386.864	1	13
387.205	1	0
387.547	1	3
387.889	1	6
388.230	1	-6
388.572	1	3
388.914	1	-1
389.255	1	-1
389.597	1	-5
389.939	1	-4
390.280	1	-4
390.622	1	-12
390.963	1	-6
391.305	1	3
391.647	1	-11
391.988	1	-3
392.330	1	0
392.671	1	-6
393.013	1	-2
393.355	1	2
393.696	1	-1
394.038	1	-9
394.379	1	-8
394.721	1	-1
395.062	1	3
395.404	1	9
395.746	1	9
396.087	1	3
396.429	1	7
396.770	1	-5
397.112	1	-12
397.453	1	6
397.795	1	-2
398.136	1	2
398.478	1	-2
398.819	1	0
399.161	1	-4
399.503	1	1
399.844	1	0
400.186	1	-6
400.527	1	11
400.869	1	-4
401.210	1	4
401.552	1	-1
401.893	1	9
402.235	1	2
402.576	1	-4
402.918	1	-7
403.259	1	2
403.601	1	7
403.942	1	-5
404.284	1	-13
404.625	1	1
404.967	1	3
405.308	1	-1
405.649	1	-4
405.991	1	-7
406.332	1	-11
406.674	1	4
407.015	1	15
407.357	1	-10
407.698	1	5
408.040	1	-5
408.381	1	-10
408.722	1	-13
409.064	1	-1
409.405	1	6
409.747	1	-5
410.088	1	7
410.430	1	-8
410.771	1	0
411.112	1	-4
411.454	1	3
411.795	1	5
412.137	1	-5
412.478	1	6
412.819	1	-6
413.161	1	7
413.502	1	1
413.844	1	7
414.185	1	-4
414.526	1	6
414.868	1	-12
415.209	1	-11
415.550	1	-1
415.892	1	13
416.233	1	8
416.575	1	0
416.916	1	-6
417.257	1	14
417.599	1	-4
417.940	1	1
418.281	1	-7
418.623	1	-4
418.964	1	-5
419.305	1	3
419.647	1	3
419.988	1	1
420.329	1	0
420.671	1	-10
421.012	1	-1
421.353	1	1
421.695	1	-6
422.036	1	5
422.377	1	10
422.718	1	4
423.060	1	0
423.401	1	-8
423.742	1	-5
424.084	1	7
424.425	1	-19
424.766	1	-3
425.107	1	0
425.449	1	2
425.790	1	-4
426.131	1	4
426.472	1	-5
426.814	1	-5
427.155	1	7
427.496	1	-4
427.837	1	-3
428.179	1	-1
428.520	1	0
428.861	1	-3
429.202	1	-11
429.544	1	-9
429.885	1	-1
430.226	1	-1
430.567	1	7
430.909	1	-3
431.250	1	6
431.591	1	2
431.932	1	-8
432.273	1	-1
432.615	1	1
432.956	1	-6
433.297	1	-6
433.638	1	10
433.979	1	-6
434.320	1	0
434.662	1	-16
435.003	1	-6
435.344	1	-5
435.685	1	0
436.026	1	-8
436.368	1	-2
436.709	1	1
437.050	1	-10
437.391	1	-12
437.732	1	0
438.073	1	-1
438.414	1	-10
438.756	1	-6
439.097	1	6
439.438	1	4
439.779	1	0
440.120	1	-7
440.461	1	4
440.802	1	9
441.143	1	-1
441.485	1	-8
441.826	1	8
442.167	1	0
442.508	1	-6
442.849	1	-11
443.190	1	-2
443.531	1	6
443.872	1	0
444.213	1	-3
444.554	1	-8
444.895	1	-22
445.237	1	-9
445.578	1	6
445.919	1	1
446.260	1	6
446.601	1	-9
446.942	1	-4
447.283	1	3
447.624	1	0
447.965	1	-8
448.306	1	-2
448.647	1	-4
448.988	1	-3
449.329	1	-1
449.670	1	-22
450.011	1	1
450.352	1	-17
450.693	1	-5
451.034	1	-5
451.375	1	6
451.716	1	-4
452.057	1	1
452.398	1	4
452.739	1	5
453.080	1	0
453.421	1	-1
453.762	1	-16
454.103	1	-7
454.444	1	-10
454.785	1	1
455.126	1	7
455.467	1	-16
455.808	1	1
456.149	1	-7
456.490	1	-3
456.831	1	-4
457.172	1	-5
457.513	1	-2
457.854	1	5
458.195	1	-1
458.536	1	1
458.877	1	-3
459.218	1	-4
459.559	1	-4
459.899	1	-8
460.240	1	2
460.581	1	5
460.922	1	-12
461.263	1	3
461.604	1	5
461.945	1	-1
462.286	1	-7
462.627	1	11
462.968	1	3
463.309	1	2
463.649	1	5
463.990	1	-9
464.331	1	2
464.672	1	-3
465.013	1	9
465.354	1	-4
465.695	1	8
466.036	1	-13
466.376	1	2
466.717	1	-7
467.058	1	0
467.399	1	1
467.740	1	-1
468.081	1	-1
468.422	1	1
468.762	1	9
469.103	1	8
469.444	1	0
469.785	1	-11
470.126	1	-2
470.467	1	-1
470.807	1	-1
471.148	1	2
471.489	1	7
471.830	1	-2
472.171	1	1
472.511	1	3
472.852	1	13
473.193	1	-3
473.534	1	7
473.875	1	-4
474.215	1	-1
474.556	1	9
474.897	1	4
475.238	1	1
475.578	1	-4
475.919	1	8
476.260	1	5
476.601	1	0
476.942	1	-5
477.282	1	1
477.623	1	-1
477.964	1	1
478.305	1	-11
478.645	1	6
478.986	1	-8
479.327	1	-10
479.667	1	-3
480.008	1	2
480.349	1	5
480.690	1	1
481.030	1	5
481.371	1	-1
481.712	1	4
482.053	1	-14
482.393	1	-5
482.734	1	1
483.075	1	0
483.415	1	2
483.756	1	0
484.097	1	-8
484.437	1	-4
484.778	1	-12
485.119	1	-3
485.459	1	-12
485.800	1	-6
486.141	1	8
486.481	1	-4
486.822	1	-3
487.163	1	3
487.503	1	2
487.844	1	1
488.185	1	0
488.525	1	1
488.866	1	6
489.207	1	8
489.547	1	14
489.888	1	3
490.228	1	-6
490.569	1	0
490.910	1	-12
491.250	1	4
491.591	1	3
491.932	1	-2
492.272	1	2
492.613	1	2
492.953	1	0
493.294	1	-2
493.635	1	-6
493.975	1	-4
494.316	1	0
494.656	1	5
494.997	1	4
495.337	1	3
495.678	1	-3
496.019	1	-11
496.359	1	5
496.700	1	13
497.040	1	-1
497.381	1	8
497.721	1	-16
498.062	1	0
498.403	1	8
498.743	1	-4
499.084	1	2
499.424	1	6
499.765	1	-3
500.105	1	-1
500.446	1	-4
500.786	1	1
501.127	1	0
501.467	1	0
501.808	1	-3
502.148	1	7
502.489	1	-1
502.829	1	-7
503.170	1	5
503.510	1	-1
503.851	1	-7
504.191	1	-14
504.532	1	-12
504.872	1	1
505.213	1	-8
505.553	1	0
505.894	1	7
506.234	1	-5
506.575	1	0
506.915	1	2
507.256	1	-2
507.596	1	-2
507.936	1	7
508.277	1	-12
508.617	1	2
508.958	1	-1
509.298	1	2
509.639	1	3
509.979	1	-1
510.319	1	-9
510.660	1	-13
511.000	1	2
511.341	1	2
511.681	1	5
512.022	1	4
512.362	1	-6
512.702	1	-5
513.043	1	6
513.383	1	-2
513.724	1	0
514.064	1	-4
514.404	1	-7
514.745	1	-4
515.085	1	-2
515.425	1	-9
515.766	1	1
516.106	1	4
516.447	1	-3
516.787	1	5
517.127	1	1
517.468	1	7
517.808	1	3
518.148	1	-4
518.489	1	10
518.829	1	0
519.169	1	-4
519.510	1	0
519.850	1	1
520.190	1	-2
520.531	1	2
520.871	1	-3
521.211	1	-1
521.552	1	-5
521.892	1	11
522.232	1	-9
522.573	1	6
522.913	1	4
523.253	1	8
523.593	1	-1
523.934	1	2
524.274	1	-3
524.614	1	1
524.955	1	-1
525.295	1	-3
525.635	1	-10
525.975	1	-3
526.316	1	7
526.656	1	9
526.996	1	-5
527.337	1	1
527.677	1	0
528.017	1	7
528.357	1	-6
528.698	1	-18
529.038	1	-10
529.378	1	-6
529.718	1	11
530.058	1	13
530.399	1	4
530.739	1	3
531.079	1	1
531.419	1	7
531.760	1	-1
532.100	1	-9
532.440	1	-2
532.780	1	-18
533.120	1	6
533.461	1	2
533.801	1	0
534.141	1	-7
534.481	1	4
534.821	1	2
535.162	1	-8
535.502	1	3
535.842	1	-5
536.182	1	-5
536.522	1	3
536.862	1	8
537.203	1	0
537.543	1	-5
537.883	1	4
538.223	1	6
538.563	1	-2
538.903	1	0
539.243	1	-2
539.584	1	-2
539.924	1	-2
540.264	1	9
540.604	1	-6
540.944	1	-10
541.284	1	3
541.624	1	-1
541.964	1	-2
542.305	1	-3
542.645	1	-9
542.985	1	-3
543.325	1	-2
543.665	1	-4
544.005	1	5
544.345	1	-3
544.685	1	0
545.025	1	-2
545.365	1	-6
545.705	1	14
546.045	1	6
546.386	1	-11
546.726	1	1
547.066	1	10
547.406	1	3
547.746	1	-8
548.086	1	0
548.426	1	-2
548.766	1	-7
549.106	1	3
549.446	1	-4
549.786	1	-8
550.126	1	-8
550.466	1	-1
550.806	1	1
551.146	1	5
551.486	1	3
551.826	1	1
552.166	1	-2
552.506	1	1
552.846	1	0
553.186	1	1
553.526	1	-11
553.866	1	-6
554.206	1	4
554.546	1	-10
554.886	1	-5
555.226	1	-5
555.566	1	3
555.906	1	-8
556.246	1	2
556.586	1	3
556.926	1	5
557.266	1	2
557.606	1	3
557.946	1	1
558.286	1	-4
558.626	1	14
558.966	1	-3
559.306	1	11
559.646	1	-7
559.986	1	1
560.325	1	-4
560.665	1	0
561.005	1	-2
561.345	1	-12
561.685	1	2
562.025	1	-8
562.365	1	3
562.705	1	8
563.045	1	2
563.385	1	-3
563.725	1	-6
564.064	1	-6
564.404	1	3
564.744	1	-3
565.084	1	2
565.424	1	-3
565.764	1	-6
566.104	1	-1
566.444	1	1
566.783	1	-5
567.123	1	0
567.463	1	-3
567.803	1	-1
568.143	1	-3
568.483	1	-4
568.823	1	-4
569.162	1	5
569.502	1	-8
569.842	1	-5
570.182	1	-2
570.522	1	-4
570.862	1	3
571.201	1	1
571.541	1	-5
571.881	1	-3
572.221	1	3
572.561	1	-7
572.900	1	-3
573.240	1	-1
573.580	1	-11
573.920	1	13
574.260	1	-3
574.599	1	0
574.939	1	-8
575.279	1	-7
575.619	1	5
575.959	1	-8
576.298	1	5
576.638	1	3
576.978	1	4
577.318	1	0
577.657	1	-2
577.997	1	-12
578.337	1	0
578.677	1	0
579.016	1	1
579.356	1	-2
579.696	1	-4
580.036	1	3
580.375	1	3
580.715	1	1
581.055	1	3
581.394	1	5
581.734	1	0
582.074	1	0
582.414	1	-13
582.753	1	-4
583.093	1	1
583.433	1	11
583.772	1	-1
584.112	1	6
584.452	1	-2
584.791	1	2
585.131	1	3
585.471	1	3
585.811	1	-10
586.150	1	-2
586.490	1	0
586.830	1	-5
587.169	1	14
587.509	1	-3
587.849	1	-5
588.188	1	0
588.528	1	1
588.867	1	2
589.207	1	-3
589.547	1	1
589.886	1	-2
590.226	1	4
590.566	1	-9
590.905	1	2
591.245	1	4
591.585	1	-3
591.924	1	-9
592.264	1	-12
592.603	1	4
592.943	1	-1
593.283	1	-2
593.622	1	-10
593.962	1	2
594.301	1	6
594.641	1	3
594.981	1	8
595.320	1	-10
595.660	1	-2
595.999	1	-4
596.339	1	0
596.678	1	-11
597.018	1	-5
597.358	1	-8
597.697	1	0
598.037	1	-2
598.376	1	-10
598.716	1	5
599.055	1	-10
599.395	1	0
599.734	1	10
600.074	1	2
600.413	1	-1
600.753	1	-2
601.092	1	0
601.432	1	-7
601.771	1	4
602.111	1	-8
602.451	1	2
602.790	1	8
603.130	1	-8
603.469	1	0
603.809	1	0
604.148	1	6
604.487	1	0
604.827	1	-15
605.166	1	5
605.506	1	-11
605.845	1	-3
606.185	1	2
606.524	1	-3
606.864	1	-1
607.203	1	8
607.543	1	2
607.882	1	-4
608.222	1	-1
608.561	1	-1
608.901	1	-2
609.240	1	-5
609.579	1	-2
609.919	1	-4
610.258	1	-3
610.598	1	10
610.937	1	-1
611.277	1	2
611.616	1	2
611.955	1	-8
612.295	1	-6
612.634	1	-5
612.974	1	7
613.313	1	-7
613.652	1	5
613.992	1	-7
614.331	1	-11
614.671	1	0
615.010	1	2
615.349	1	1
615.689	1	3
616.028	1	-13
616.368	1	-1
616.707	1	4
617.046	1	3
617.386	1	2
617.725	1	-4
618.064	1	4
618.404	1	-12
618.743	1	3
619.082	1	3
619.422	1	2
619.761	1	-7
620.100	1	8
620.440	1	2
620.779	1	-7
621.118	1	-10
621.458	1	6
621.797	1	1
622.136	1	-6
622.476	1	-13
622.815	1	5
623.154	1	4
623.494	1	-2
623.833	1	-4
624.172	1	-3
624.511	1	-4
624.851	1	-4
625.190	1	13
625.529	1	7
625.869	1	9
626.208	1	-2
626.547	1	1
626.886	1	-1
627.226	1	-3
627.565	1	-3
627.904	1	-3
628.243	1	-7
628.583	1	-8
628.922	1	-8
629.261	1	1
629.600	1	-7
629.940	1	-6
630.279	1	-3
630.618	1	-11
630.957	1	-5
631.297	1	5
631.636	1	10
631.975	1	-1
632.314	1	0
632.653	1	0
632.993	1	-3
633.332	1	4
633.671	1	2
634.010	1	2
634.349	1	-10
634.689	1	-1
635.028	1	4
635.367	1	0
635.706	1	-8
636.045	1	10
636.384	1	-2
636.724	1	4
637.063	1	-1
637.402	1	-1
637.741	1	-1
638.080	1	7
638.419	1	-7
638.759	1	-1
639.098	1	-6
639.437	1	-10
639.776	1	2
640.115	1	5
640.454	1	1
640.793	1	-8
641.132	1	-6
641.472	1	-1
641.811	1	4
642.150	1	-2
642.489	1	-7
642.828	1	6
643.167	1	-8
643.506	1	2
643.845	1	3
644.184	1	11
644.524	1	1
644.863	1	-12
645.202	1	4
645.541	1	-4
645.880	1	7
646.219	1	1
646.558	1	12
646.897	1	1
647.236	1	-13
647.575	1	-10
647.914	1	1
648.253	1	4
648.592	1	-5
648.931	1	7
649.270	1	-6
649.610	1	0
649.949	1	-6
650.288	1	-5
650.627	1	-5
650.966	1	4
651.305	1	-11
651.644	1	1
651.983	1	-2
652.322	1	7
652.661	1	-4
653.000	1	-8
653.339	1	-5
653.678	1	-2
654.017	1	9
654.356	1	-9
654.695	1	7
655.034	1	-8
655.373	1	10
655.712	1	-4
656.051	1	2
656.390	1	-7
656.729	1	7
657.068	1	7
657.406	1	-2
657.745	1	3
658.084	1	-18
658.423	1	-2
658.762	1	-3
659.101	1	-8
659.440	1	1
659.779	1	-1
660.118	1	5
660.457	1	9
660.796	1	3
661.135	1	-10
661.474	1	0
661.813	1	-3
662.152	1	-1
662.491	1	-6
662.829	1	-1
663.168	1	4
663.507	1	0
663.846	1	-3
664.185	1	0
664.524	1	6
664.863	1	1
665.202	1	15
665.541	1	1
665.879	1	-2
666.218	1	19
666.557	1	-5
666.896	1	-2
667.235	1	6
667.574	1	-7
667.913	1	-3
668.251	1	-1
668.590	1	4
668.929	1	-2
669.268	1	-4
669.607	1	-2
669.946	1	5
670.285	1	13
670.623	1	1
670.962	1	-5
671.301	1	-1
671.640	1	-1
671.979	1	-7
672.317	1	3
672.656	1	4
672.995	1	-8
673.334	1	-3
673.673	1	4
674.011	1	6
674.350	1	-6
674.689	1	-1
675.028	1	-9
675.367	1	1
675.705	1	5
676.044	1	15
676.383	1	-11
676.722	1	8
677.060	1	-9
677.399	1	5
677.738	1	-3
678.077	1	7
678.416	1	-9
678.754	1	1
679.093	1	0
679.432	1	1
679.771	1	3
680.109	1	-6
680.448	1	3
680.787	1	-2
681.125	1	1
681.464	1	-1
681.803	1	-1
682.142	1	-5
682.480	1	-3
682.819	1	9
683.158	1	-7
683.496	1	-2
683.835	1	-13
684.174	1	-3
684.512	1	1
684.851	1	-8
685.190	1	-6
685.529	1	12
685.867	1	9
686.206	1	12
686.545	1	-3
686.883	1	-4
687.222	1	-5
687.561	1	2
687.899	1	-8
688.238	1	-2
688.577	1	7
688.746	1	-8