File: Data/GaN_170K_550ms/GaN_sample D_spot 18_UVVIS_170 K_200um_550 ms 2x2mm1_57.txt
340.368	1	-5
340.710	1	-2
341.052	1	7
341.394	1	5
341.737	1	4
342.079	1	1
342.421	1	6
342.763	1	5
343.105	1	9
343.447	1	-2
343.789	1	1
344.131	1	-3
344.473	1	2
344.815	1	10
345.157	1	8
345.499	1	12
345.841	1	17
346.183	1	6
346.526	1	12
346.868	1	14
347.210	1	3
347.552	1	9
347.894	1	8
348.236	1	-1
348.578	1	10
348.920	1	9
349.262	1	5
349.604	1	22
349.946	1	17
350.288	1	8
350.630	1	23
350.972	1	10
351.314	1	15
351.656	1	13
351.998	1	17
352.340	1	15
352.682	1	12
353.024	1	16
353.366	1	14
353.708	1	25
354.050	1	19
354.392	1	13
354.734	1	26
355.076	1	27
355.418	1	35
355.760	1	19
356.102	1	29
356.444	1	32
356.785	1	33
357.127	1	45
357.469	1	41
357.811	1	48
358.153	1	58
358.495	1	49
358.837	1	56
359.179	1	55
359.521	1	71
359.863	1	79
360.205	1	99
360.547	1	101
360.889	1	105
361.231	1	117
361.572	1	147
361.914	1	149
362.256	1	166
362.598	1	204
362.940	1	251
363.282	1	261
363.624	1	310
363.966	1	328
364.308	1	403
364.649	1	451
364.991	1	522
365.333	1	587
365.675	1	675
366.017	1	787
366.359	1	859
366.701	1	930
367.042	1	1005
367.384	1	1106
367.726	1	1160
368.068	1	1233
368.410	1	1253
368.752	1	1238
369.093	1	1198
369.435	1	1190
369.777	1	1156
370.119	1	1113
370.461	1	1050
370.803	1	964
371.144	1	917
371.486	1	840
371.828	1	781
372.170	1	736
372.512	1	675
372.853	1	631
373.195	1	588
373.537	1	577
373.879	1	545
374.220	1	515
374.562	1	480
374.904	1	450
375.246	1	426
375.588	1	382
375.929	1	381
376.271	1	340
376.613	1	345
376.955	1	320
377.296	1	292
377.638	1	283
377.980	1	253
378.321	1	237
378.663	1	235
379.005	1	214
379.347	1	204
379.688	1	185
380.030	1	189
380.372	1	177
380.714	1	164
381.055	1	154
381.397	1	153
381.739	1	148
382.080	1	138
382.422	1	158
382.764	1	129
383.105	1	126
383.447	1	141
383.789	1	139
384.130	1	127
384.472	1	120
384.814	1	134
385.156	1	104
385.497	1	124
385.839	1	98
386.180	1	109
386.522	1	111
386.864	1	101
387.205	1	90
387.547	1	88
387.889	1	91
388.230	1	84
388.572	1	87
388.914	1	76
389.255	1	81
389.597	1	77
389.939	1	75
390.280	1	76
390.622	1	73
390.963	1	71
391.305	1	66
391.647	1	66
391.988	1	67
392.330	1	67
392.671	1	58
393.013	1	56
393.355	1	50
393.696	1	58
394.038	1	46
394.379	1	48
394.721	1	44
395.062	1	43
395.404	1	46
395.746	1	51
396.087	1	59
396.429	1	56
396.770	1	54
397.112	1	52
397.453	1	49
397.795	1	46
398.136	1	47
398.478	1	51
398.819	1	42
399.161	1	49
399.503	1	46
399.844	1	39
400.186	1	36
400.527	1	43
400.869	1	39
401.210	1	37
401.552	1	34
401.893	1	50
402.235	1	34
402.576	1	38
402.918	1	28
403.259	1	33
403.601	1	42
403.942	1	33
404.284	1	31
404.625	1	33
404.967	1	31
405.308	1	34
405.649	1	38
405.991	1	34
406.332	1	24
406.674	1	37
407.015	1	37
407.357	1	22
407.698	1	32
408.040	1	33
408.381	1	23
408.722	1	19
409.064	1	31
409.405	1	21
409.747	1	21
410.088	1	27
410.430	1	23
410.771	1	35
411.112	1	29
411.454	1	28
411.795	1	30
412.137	1	14
412.478	1	12
412.819	1	11
413.161	1	28
413.502	1	28
413.844	1	19
414.185	1	21
414.526	1	16
414.868	1	18
415.209	1	3
415.550	1	19
415.892	1	27
416.233	1	22
416.575	1	17
416.916	1	9
417.257	1	20
417.599	1	16
417.940	1	24
418.281	1	5
418.623	1	22
418.964	1	13
419.305	1	12
419.647	1	16
419.988	1	21
420.329	1	28
420.671	1	10
421.012	1	14
421.353	1	24
421.695	1	9
422.036	1	24
422.377	1	17
422.718	1	16
423.060	1	8
423.401	1	19
423.742	1	19
424.084	1	29
424.425	1	15
424.766	1	11
425.107	1	14
425.449	1	23
425.790	1	22
426.131	1	25
426.472	1	19
426.814	1	4
427.155	1	27
427.496	1	8
427.837	1	16
428.179	1	20
428.520	1	17
428.861	1	24
429.202	1	1
429.544	1	8
429.885	1	13
430.226	1	13
430.567	1	20
430.909	1	9
431.250	1	30
431.591	1	8
431.932	1	6
432.273	1	15
432.615	1	22
432.956	1	17
433.297	1	1
433.638	1	18
433.979	1	15
434.320	1	19
434.662	1	0
435.003	1	13
435.344	1	9
435.685	1	15
436.026	1	10
436.368	1	23
436.709	1	10
437.050	1	9
437.391	1	5
437.732	1	19
438.073	1	9
438.414	1	7
438.756	1	11
439.097	1	13
439.438	1	10
439.779	1	21
440.120	1	9
440.461	1	26
440.802	1	14
441.143	1	5
441.485	1	8
441.826	1	26
442.167	1	12
442.508	1	6
442.849	1	9
443.190	1	12
443.531	1	12
443.872	1	-3
444.213	1	11
444.554	1	13
444.895	1	1
445.237	1	10
445.578	1	14
445.919	1	17
446.260	1	24
446.601	1	9
446.942	1	23
447.283	1	10
447.624	1	12
447.965	1	17
448.306	1	7
448.647	1	7
448.988	1	19
449.329	1	5
449.670	1	-1
450.011	1	22
450.352	1	0
450.693	1	17
451.034	1	11
451.375	1	17
451.716	1	16
452.057	1	13
452.398	1	13
452.739	1	6
453.080	1	6
453.421	1	10
453.762	1	15
454.103	1	6
454.444	1	3
454.785	1	3
455.126	1	20
455.467	1	1
455.808	1	26
456.149	1	19
456.490	1	17
456.831	1	7
457.172	1	8
457.513	1	16
457.854	1	13
458.195	1	9
458.536	1	3
458.877	1	12
459.218	1	14
459.559	1	7
459.899	1	8
460.240	1	9
460.581	1	16
460.922	1	9
461.263	1	9
461.604	1	13
461.945	1	7
462.286	1	9
462.627	1	6
462.968	1	18
463.309	1	15
463.649	1	14
463.990	1	15
464.331	1	18
464.672	1	10
465.013	1	20
465.354	1	9
465.695	1	12
466.036	1	4
466.376	1	25
466.717	1	17
467.058	1	13
467.399	1	13
467.740	1	6
468.081	1	11
468.422	1	12
468.762	1	22
469.103	1	14
469.444	1	5
469.785	1	8
470.126	1	15
470.467	1	23
470.807	1	9
471.148	1	6
471.489	1	30
471.830	1	9
472.171	1	24
472.511	1	20
472.852	1	19
473.193	1	23
473.534	1	14
473.875	1	12
474.215	1	19
474.556	1	20
474.897	1	19
475.238	1	10
475.578	1	18
475.919	1	20
476.260	1	28
476.601	1	19
476.942	1	9
477.282	1	21
477.623	1	29
477.964	1	23
478.305	1	13
478.645	1	25
478.986	1	23
479.327	1	14
479.667	1	14
480.008	1	20
480.349	1	12
480.690	1	31
481.030	1	21
481.371	1	19
481.712	1	14
482.053	1	20
482.393	1	24
482.734	1	23
483.075	1	20
483.415	1	27
483.756	1	27
484.097	1	12
484.437	1	30
484.778	1	14
485.119	1	25
485.459	1	28
485.800	1	32
486.141	1	38
486.481	1	33
486.822	1	41
487.163	1	46
487.503	1	30
487.844	1	49
488.185	1	28
488.525	1	51
488.866	1	47
489.207	1	48
489.547	1	56
489.888	1	51
490.228	1	46
490.569	1	44
490.910	1	40
491.250	1	48
491.591	1	42
491.932	1	46
492.272	1	55
492.613	1	47
492.953	1	49
493.294	1	45
493.635	1	56
493.975	1	53
494.316	1	56
494.656	1	47
494.997	1	45
495.337	1	55
495.678	1	48
496.019	1	45
496.359	1	53
496.700	1	68
497.040	1	54
497.381	1	61
497.721	1	51
498.062	1	57
498.403	1	66
498.743	1	61
499.084	1	64
499.424	1	55
499.765	1	50
500.105	1	64
500.446	1	62
500.786	1	61
501.127	1	70
501.467	1	70
501.808	1	78
502.148	1	79
502.489	1	81
502.829	1	81
503.170	1	95
503.510	1	76
503.851	1	182
504.191	1	79
504.532	1	74
504.872	1	86
505.213	1	81
505.553	1	84
505.894	1	96
506.234	1	80
506.575	1	84
506.915	1	92
507.256	1	89
507.596	1	99
507.936	1	93
508.277	1	73
508.617	1	91
508.958	1	96
509.298	1	91
509.639	1	97
509.979	1	82
510.319	1	92
510.660	1	92
511.000	1	95
511.341	1	110
511.681	1	87
512.022	1	101
512.362	1	92
512.702	1	96
513.043	1	108
513.383	1	103
513.724	1	96
514.064	1	104
514.404	1	100
514.745	1	104
515.085	1	105
515.425	1	103
515.766	1	111
516.106	1	108
516.447	1	108
516.787	1	120
517.127	1	115
517.468	1	108
517.808	1	117
518.148	1	109
518.489	1	124
518.829	1	115
519.169	1	111
519.510	1	110
519.850	1	119
520.190	1	111
520.531	1	130
520.871	1	128
521.211	1	120
521.552	1	121
521.892	1	121
522.232	1	100
522.573	1	125
522.913	1	122
523.253	1	123
523.593	1	129
523.934	1	120
524.274	1	115
524.614	1	138
524.955	1	127
525.295	1	125
525.635	1	123
525.975	1	118
526.316	1	128
526.656	1	139
526.996	1	128
527.337	1	117
527.677	1	115
528.017	1	133
528.357	1	131
528.698	1	125
529.038	1	138
529.378	1	125
529.718	1	141
530.058	1	142
530.399	1	138
530.739	1	146
531.079	1	142
531.419	1	135
531.760	1	136
532.100	1	142
532.440	1	142
532.780	1	133
533.120	1	128
533.461	1	132
533.801	1	140
534.141	1	125
534.481	1	137
534.821	1	132
535.162	1	123
535.502	1	133
535.842	1	133
536.182	1	120
536.522	1	134
536.862	1	132
537.203	1	129
537.543	1	102
537.883	1	126
538.223	1	124
538.563	1	113
538.903	1	108
539.243	1	109
539.584	1	111
539.924	1	113
540.264	1	125
540.604	1	127
540.944	1	113
541.284	1	124
541.624	1	115
541.964	1	123
542.305	1	118
542.645	1	122
542.985	1	117
543.325	1	128
543.665	1	117
544.005	1	131
544.345	1	126
544.685	1	121
545.025	1	119
545.365	1	130
545.705	1	121
546.045	1	130
546.386	1	121
546.726	1	116
547.066	1	127
547.406	1	132
547.746	1	127
548.086	1	124
548.426	1	136
548.766	1	125
549.106	1	122
549.446	1	126
549.786	1	120
550.126	1	128
550.466	1	128
550.806	1	128
551.146	1	120
551.486	1	122
551.826	1	114
552.166	1	122
552.506	1	128
552.846	1	126
553.186	1	119
553.526	1	109
553.866	1	112
554.206	1	119
554.546	1	106
554.886	1	111
555.226	1	108
555.566	1	113
555.906	1	92
556.246	1	114
556.586	1	114
556.926	1	107
557.266	1	105
557.606	1	107
557.946	1	116
558.286	1	102
558.626	1	115
558.966	1	106
559.306	1	122
559.646	1	109
559.986	1	101
560.325	1	110
560.665	1	108
561.005	1	87
561.345	1	99
561.685	1	95
562.025	1	97
562.365	1	102
562.705	1	110
563.045	1	95
563.385	1	94
563.725	1	94
564.064	1	94
564.404	1	101
564.744	1	95
565.084	1	100
565.424	1	98
565.764	1	97
566.104	1	90
566.444	1	99
566.783	1	99
567.123	1	95
567.463	1	101
567.803	1	92
568.143	1	86
568.483	1	88
568.823	1	79
569.162	1	103
569.502	1	93
569.842	1	76
570.182	1	79
570.522	1	86
570.862	1	96
571.201	1	104
571.541	1	93
571.881	1	77
572.221	1	93
572.561	1	93
572.900	1	77
573.240	1	88
573.580	1	81
573.920	1	96
574.260	1	91
574.599	1	83
574.939	1	67
575.279	1	86
575.619	1	91
575.959	1	72
576.298	1	87
576.638	1	75
576.978	1	64
577.318	1	71
577.657	1	71
577.997	1	75
578.337	1	74
578.677	1	83
579.016	1	75
579.356	1	73
579.696	1	84
580.036	1	75
580.375	1	65
580.715	1	80
581.055	1	87
581.394	1	71
581.734	1	87
582.074	1	84
582.414	1	69
582.753	1	80
583.093	1	74
583.433	1	80
583.772	1	68
584.112	1	75
584.452	1	64
584.791	1	71
585.131	1	85
585.471	1	77
585.811	1	62
586.150	1	70
586.490	1	70
586.830	1	58
587.169	1	72
587.509	1	60
587.849	1	64
588.188	1	63
588.528	1	66
588.867	1	55
589.207	1	57
589.547	1	62
589.886	1	51
590.226	1	55
590.566	1	52
590.905	1	61
591.245	1	61
591.585	1	67
591.924	1	50
592.264	1	44
592.603	1	45
592.943	1	56
593.283	1	56
593.622	1	36
593.962	1	60
594.301	1	61
594.641	1	60
594.981	1	63
595.320	1	46
595.660	1	54
595.999	1	49
596.339	1	67
596.678	1	52
597.018	1	48
597.358	1	45
597.697	1	44
598.037	1	58
598.376	1	48
598.716	1	53
599.055	1	58
599.395	1	53
599.734	1	59
600.074	1	52
600.413	1	50
600.753	1	59
601.092	1	46
601.432	1	56
601.771	1	51
602.111	1	52
602.451	1	59
602.790	1	59
603.130	1	48
603.469	1	57
603.809	1	49
604.148	1	56
604.487	1	53
604.827	1	46
605.166	1	58
605.506	1	51
605.845	1	58
606.185	1	54
606.524	1	48
606.864	1	50
607.203	1	52
607.543	1	63
607.882	1	49
608.222	1	66
608.561	1	73
608.901	1	49
609.240	1	49
609.579	1	60
609.919	1	47
610.258	1	52
610.598	1	48
610.937	1	55
611.277	1	45
611.616	1	53
611.955	1	55
612.295	1	47
612.634	1	42
612.974	1	50
613.313	1	47
613.652	1	43
613.992	1	34
614.331	1	41
614.671	1	51
615.010	1	44
615.349	1	44
615.689	1	50
616.028	1	45
616.368	1	36
616.707	1	45
617.046	1	26
617.386	1	38
617.725	1	45
618.064	1	38
618.404	1	44
618.743	1	46
619.082	1	42
619.422	1	29
619.761	1	35
620.100	1	35
620.440	1	48
620.779	1	30
621.118	1	31
621.458	1	40
621.797	1	38
622.136	1	41
622.476	1	30
622.815	1	33
623.154	1	48
623.494	1	34
623.833	1	35
624.172	1	32
624.511	1	44
624.851	1	27
625.190	1	39
625.529	1	32
625.869	1	47
626.208	1	34
626.547	1	46
626.886	1	37
627.226	1	38
627.565	1	34
627.904	1	33
628.243	1	31
628.583	1	33
628.922	1	40
629.261	1	40
629.600	1	35
629.940	1	23
630.279	1	30
630.618	1	25
630.957	1	33
631.297	1	25
631.636	1	46
631.975	1	31
632.314	1	37
632.653	1	40
632.993	1	33
633.332	1	47
633.671	1	45
634.010	1	35
634.349	1	33
634.689	1	31
635.028	1	38
635.367	1	28
635.706	1	22
636.045	1	35
636.384	1	25
636.724	1	36
637.063	1	28
637.402	1	44
637.741	1	30
638.080	1	32
638.419	1	22
638.759	1	37
639.098	1	12
639.437	1	28
639.776	1	31
640.115	1	29
640.454	1	30
640.793	1	31
641.132	1	29
641.472	1	17
641.811	1	20
642.150	1	35
642.489	1	27
642.828	1	37
643.167	1	14
643.506	1	32
643.845	1	30
644.184	1	26
644.524	1	21
644.863	1	17
645.202	1	38
645.541	1	35
645.880	1	24
646.219	1	29
646.558	1	40
646.897	1	26
647.236	1	28
647.575	1	27
647.914	1	27
648.253	1	33
648.592	1	29
648.931	1	33
649.270	1	21
649.610	1	25
649.949	1	17
650.288	1	21
650.627	1	20
650.966	1	23
651.305	1	18
651.644	1	27
651.983	1	34
652.322	1	23
652.661	1	29
653.000	1	18
653.339	1	18
653.678	1	39
654.017	1	24
654.356	1	24
654.695	1	29
655.034	1	22
655.373	1	29
655.712	1	9
656.051	1	32
656.390	1	23
656.729	1	20
657.068	1	29
657.406	1	23
657.745	1	26
658.084	1	9
658.423	1	12
658.762	1	13
659.101	1	23
659.440	1	20
659.779	1	26
660.118	1	22
660.457	1	27
660.796	1	15
661.135	1	0
661.474	1	13
661.813	1	26
662.152	1	20
662.491	1	4
662.829	1	16
663.168	1	21
663.507	1	17
663.846	1	18
664.185	1	20
664.524	1	20
664.863	1	22
665.202	1	31
665.541	1	23
665.879	1	20
666.218	1	32
666.557	1	12
666.896	1	11
667.235	1	19
667.574	1	7
667.913	1	17
668.251	1	14
668.590	1	14
668.929	1	14
669.268	1	22
669.607	1	16
669.946	1	20
670.285	1	22
670.623	1	22
670.962	1	14
671.301	1	9
671.640	1	17
671.979	1	13
672.317	1	20
672.656	1	20
672.995	1	7
673.334	1	20
673.673	1	23
674.011	1	26
674.350	1	23
674.689	1	15
675.028	1	16
675.367	1	14
675.705	1	28
676.044	1	30
676.383	1	22
676.722	1	28
677.060	1	7
677.399	1	15
677.738	1	18
678.077	1	33
678.416	1	4
678.754	1	17
679.093	1	20
679.432	1	17
679.771	1	23
680.109	1	17
680.448	1	23
680.787	1	8
681.125	1	22
681.464	1	18
681.803	1	25
682.142	1	15
682.480	1	16
682.819	1	27
683.158	1	2
683.496	1	18
683.835	1	16
684.174	1	17
684.512	1	14
684.851	1	18
685.190	1	18
685.529	1	28
685.867	1	19
686.206	1	19
686.545	1	27
686.883	1	17
687.222	1	17
687.561	1	17
687.899	1	16
688.238	1	20
688.577	1	26
688.746	1	11