File: Data/GaN_170K_550ms/GaN_sample D_spot 18_UVVIS_170 K_200um_550 ms 2x2mm1_335.txt
340.368	1	-3
340.710	1	-9
341.052	1	-6
341.394	1	7
341.737	1	-6
342.079	1	3
342.421	1	8
342.763	1	4
343.105	1	5
343.447	1	-5
343.789	1	7
344.131	1	-3
344.473	1	1
344.815	1	2
345.157	1	5
345.499	1	-7
345.841	1	4
346.183	1	1
346.526	1	6
346.868	1	0
347.210	1	-1
347.552	1	9
347.894	1	-4
348.236	1	-4
348.578	1	5
348.920	1	-5
349.262	1	0
349.604	1	10
349.946	1	4
350.288	1	4
350.630	1	1
350.972	1	-6
351.314	1	4
351.656	1	-9
351.998	1	4
352.340	1	8
352.682	1	5
353.024	1	-5
353.366	1	2
353.708	1	10
354.050	1	-1
354.392	1	0
354.734	1	3
355.076	1	6
355.418	1	1
355.760	1	-1
356.102	1	0
356.444	1	-8
356.785	1	-1
357.127	1	3
357.469	1	-12
357.811	1	-4
358.153	1	6
358.495	1	-2
358.837	1	8
359.179	1	-10
359.521	1	5
359.863	1	6
360.205	1	7
360.547	1	9
360.889	1	11
361.231	1	0
361.572	1	20
361.914	1	6
362.256	1	1
362.598	1	7
362.940	1	13
363.282	1	2
363.624	1	-1
363.966	1	5
364.308	1	11
364.649	1	-6
364.991	1	5
365.333	1	0
365.675	1	7
366.017	1	1
366.359	1	7
366.701	1	6
367.042	1	-3
367.384	1	14
367.726	1	13
368.068	1	15
368.410	1	16
368.752	1	10
369.093	1	-8
369.435	1	0
369.777	1	6
370.119	1	5
370.461	1	14
370.803	1	0
371.144	1	1
371.486	1	3
371.828	1	-4
372.170	1	8
372.512	1	-2
372.853	1	15
373.195	1	2
373.537	1	8
373.879	1	8
374.220	1	8
374.562	1	-3
374.904	1	4
375.246	1	4
375.588	1	2
375.929	1	18
376.271	1	15
376.613	1	5
376.955	1	11
377.296	1	2
377.638	1	3
377.980	1	-7
378.321	1	-3
378.663	1	4
379.005	1	-6
379.347	1	6
379.688	1	6
380.030	1	9
380.372	1	14
380.714	1	17
381.055	1	-1
381.397	1	2
381.739	1	-3
382.080	1	-5
382.422	1	2
382.764	1	9
383.105	1	3
383.447	1	7
383.789	1	16
384.130	1	0
384.472	1	-2
384.814	1	7
385.156	1	-2
385.497	1	3
385.839	1	-2
386.180	1	7
386.522	1	6
386.864	1	2
387.205	1	1
387.547	1	3
387.889	1	9
388.230	1	-2
388.572	1	10
388.914	1	3
389.255	1	10
389.597	1	4
389.939	1	-10
390.280	1	1
390.622	1	1
390.963	1	-2
391.305	1	3
391.647	1	-9
391.988	1	2
392.330	1	6
392.671	1	-10
393.013	1	-3
393.355	1	3
393.696	1	3
394.038	1	-8
394.379	1	-1
394.721	1	-2
395.062	1	-2
395.404	1	3
395.746	1	8
396.087	1	-2
396.429	1	6
396.770	1	14
397.112	1	-2
397.453	1	0
397.795	1	-2
398.136	1	-4
398.478	1	4
398.819	1	-2
399.161	1	-1
399.503	1	3
399.844	1	-2
400.186	1	-13
400.527	1	14
400.869	1	6
401.210	1	0
401.552	1	-1
401.893	1	6
402.235	1	0
402.576	1	-4
402.918	1	0
403.259	1	-1
403.601	1	9
403.942	1	5
404.284	1	-13
404.625	1	3
404.967	1	1
405.308	1	-2
405.649	1	2
405.991	1	3
406.332	1	-6
406.674	1	11
407.015	1	2
407.357	1	-2
407.698	1	9
408.040	1	6
408.381	1	1
408.722	1	-5
409.064	1	1
409.405	1	5
409.747	1	2
410.088	1	7
410.430	1	-6
410.771	1	2
411.112	1	2
411.454	1	-4
411.795	1	-2
412.137	1	-7
412.478	1	6
412.819	1	-9
413.161	1	4
413.502	1	1
413.844	1	2
414.185	1	0
414.526	1	8
414.868	1	-10
415.209	1	-23
415.550	1	-3
415.892	1	10
416.233	1	9
416.575	1	-4
416.916	1	-7
417.257	1	1
417.599	1	1
417.940	1	4
418.281	1	-6
418.623	1	-3
418.964	1	-1
419.305	1	2
419.647	1	5
419.988	1	4
420.329	1	2
420.671	1	-3
421.012	1	-2
421.353	1	-3
421.695	1	-14
422.036	1	2
422.377	1	9
422.718	1	9
423.060	1	-13
423.401	1	3
423.742	1	-6
424.084	1	10
424.425	1	-8
424.766	1	9
425.107	1	-8
425.449	1	13
425.790	1	-3
426.131	1	17
426.472	1	-2
426.814	1	-8
427.155	1	10
427.496	1	-7
427.837	1	2
428.179	1	-8
428.520	1	-3
428.861	1	0
429.202	1	-1
429.544	1	-3
429.885	1	8
430.226	1	-4
430.567	1	6
430.909	1	-6
431.250	1	9
431.591	1	-1
431.932	1	-6
432.273	1	-1
432.615	1	5
432.956	1	-1
433.297	1	-12
433.638	1	1
433.979	1	1
434.320	1	8
434.662	1	-14
435.003	1	0
435.344	1	1
435.685	1	4
436.026	1	-5
436.368	1	9
436.709	1	-7
437.050	1	-4
437.391	1	-11
437.732	1	5
438.073	1	-14
438.414	1	-13
438.756	1	-7
439.097	1	0
439.438	1	3
439.779	1	7
440.120	1	-4
440.461	1	1
440.802	1	10
441.143	1	-3
441.485	1	-8
441.826	1	7
442.167	1	-1
442.508	1	-12
442.849	1	0
443.190	1	4
443.531	1	7
443.872	1	-15
444.213	1	2
444.554	1	1
444.895	1	-8
445.237	1	-8
445.578	1	10
445.919	1	2
446.260	1	3
446.601	1	-7
446.942	1	4
447.283	1	0
447.624	1	-3
447.965	1	0
448.306	1	-9
448.647	1	-5
448.988	1	8
449.329	1	-7
449.670	1	-11
450.011	1	5
450.352	1	-6
450.693	1	-10
451.034	1	3
451.375	1	4
451.716	1	-1
452.057	1	-2
452.398	1	3
452.739	1	2
453.080	1	-4
453.421	1	0
453.762	1	-5
454.103	1	-6
454.444	1	-7
454.785	1	2
455.126	1	10
455.467	1	-7
455.808	1	13
456.149	1	3
456.490	1	4
456.831	1	-5
457.172	1	3
457.513	1	5
457.854	1	9
458.195	1	-3
458.536	1	-6
458.877	1	12
459.218	1	3
459.559	1	3
459.899	1	1
460.240	1	3
460.581	1	-3
460.922	1	-2
461.263	1	6
461.604	1	12
461.945	1	-2
462.286	1	-4
462.627	1	-2
462.968	1	6
463.309	1	6
463.649	1	-2
463.990	1	-1
464.331	1	8
464.672	1	2
465.013	1	0
465.354	1	-6
465.695	1	-2
466.036	1	-11
466.376	1	5
466.717	1	2
467.058	1	1
467.399	1	6
467.740	1	-6
468.081	1	-1
468.422	1	7
468.762	1	3
469.103	1	12
469.444	1	2
469.785	1	-3
470.126	1	-1
470.467	1	3
470.807	1	8
471.148	1	-1
471.489	1	6
471.830	1	-5
472.171	1	-1
472.511	1	5
472.852	1	-3
473.193	1	10
473.534	1	9
473.875	1	-5
474.215	1	10
474.556	1	-3
474.897	1	3
475.238	1	-5
475.578	1	-3
475.919	1	3
476.260	1	6
476.601	1	1
476.942	1	-6
477.282	1	5
477.623	1	6
477.964	1	-1
478.305	1	-2
478.645	1	-7
478.986	1	-5
479.327	1	-11
479.667	1	-3
480.008	1	0
480.349	1	-4
480.690	1	-9
481.030	1	-4
481.371	1	0
481.712	1	1
482.053	1	-7
482.393	1	2
482.734	1	0
483.075	1	0
483.415	1	5
483.756	1	4
484.097	1	-10
484.437	1	-5
484.778	1	-10
485.119	1	-1
485.459	1	2
485.800	1	-3
486.141	1	4
486.481	1	4
486.822	1	1
487.163	1	6
487.503	1	3
487.844	1	7
488.185	1	-1
488.525	1	5
488.866	1	12
489.207	1	6
489.547	1	14
489.888	1	7
490.228	1	4
490.569	1	-6
490.910	1	0
491.250	1	-5
491.591	1	2
491.932	1	-4
492.272	1	6
492.613	1	0
492.953	1	-1
493.294	1	-4
493.635	1	4
493.975	1	4
494.316	1	4
494.656	1	1
494.997	1	-4
495.337	1	4
495.678	1	-2
496.019	1	-14
496.359	1	-2
496.700	1	-6
497.040	1	-4
497.381	1	-2
497.721	1	-3
498.062	1	-10
498.403	1	0
498.743	1	3
499.084	1	0
499.424	1	7
499.765	1	-13
500.105	1	-3
500.446	1	-3
500.786	1	4
501.127	1	-3
501.467	1	-9
501.808	1	-4
502.148	1	4
502.489	1	9
502.829	1	-2
503.170	1	14
503.510	1	3
503.851	1	4
504.191	1	-3
504.532	1	-13
504.872	1	5
505.213	1	6
505.553	1	0
505.894	1	1
506.234	1	-7
506.575	1	6
506.915	1	4
507.256	1	-7
507.596	1	7
507.936	1	12
508.277	1	-6
508.617	1	8
508.958	1	5
509.298	1	-10
509.639	1	9
509.979	1	6
510.319	1	-4
510.660	1	-4
511.000	1	-6
511.341	1	10
511.681	1	-2
512.022	1	-1
512.362	1	-8
512.702	1	-1
513.043	1	3
513.383	1	6
513.724	1	-6
514.064	1	5
514.404	1	2
514.745	1	5
515.085	1	3
515.425	1	2
515.766	1	1
516.106	1	4
516.447	1	-3
516.787	1	5
517.127	1	6
517.468	1	-5
517.808	1	0
518.148	1	7
518.489	1	9
518.829	1	-1
519.169	1	-9
519.510	1	2
519.850	1	-4
520.190	1	1
520.531	1	10
520.871	1	-2
521.211	1	-6
521.552	1	2
521.892	1	-3
522.232	1	-8
522.573	1	12
522.913	1	2
523.253	1	10
523.593	1	9
523.934	1	0
524.274	1	-12
524.614	1	13
524.955	1	-3
525.295	1	-2
525.635	1	8
525.975	1	2
526.316	1	5
526.656	1	4
526.996	1	11
527.337	1	-3
527.677	1	-5
528.017	1	5
528.357	1	-4
528.698	1	-13
529.038	1	0
529.378	1	-2
529.718	1	14
530.058	1	9
530.399	1	7
530.739	1	8
531.079	1	5
531.419	1	11
531.760	1	2
532.100	1	1
532.440	1	7
532.780	1	-12
533.120	1	7
533.461	1	-4
533.801	1	3
534.141	1	-4
534.481	1	5
534.821	1	-1
535.162	1	5
535.502	1	-1
535.842	1	-1
536.182	1	-4
536.522	1	-1
536.862	1	-2
537.203	1	3
537.543	1	1
537.883	1	5
538.223	1	4
538.563	1	-2
538.903	1	-3
539.243	1	-3
539.584	1	-2
539.924	1	1
540.264	1	6
540.604	1	1
540.944	1	5
541.284	1	2
541.624	1	0
541.964	1	1
542.305	1	-4
542.645	1	-4
542.985	1	12
543.325	1	-4
543.665	1	3
544.005	1	3
544.345	1	5
544.685	1	5
545.025	1	-9
545.365	1	8
545.705	1	3
546.045	1	4
546.386	1	4
546.726	1	-1
547.066	1	10
547.406	1	2
547.746	1	-3
548.086	1	5
548.426	1	8
548.766	1	10
549.106	1	13
549.446	1	5
549.786	1	-2
550.126	1	3
550.466	1	-4
550.806	1	1
551.146	1	-1
551.486	1	-2
551.826	1	11
552.166	1	3
552.506	1	-1
552.846	1	0
553.186	1	2
553.526	1	-7
553.866	1	-5
554.206	1	1
554.546	1	-6
554.886	1	-2
555.226	1	-7
555.566	1	5
555.906	1	-9
556.246	1	8
556.586	1	1
556.926	1	6
557.266	1	-2
557.606	1	5
557.946	1	2
558.286	1	-2
558.626	1	8
558.966	1	-10
559.306	1	8
559.646	1	-8
559.986	1	9
560.325	1	-4
560.665	1	1
561.005	1	8
561.345	1	-7
561.685	1	5
562.025	1	-6
562.365	1	-4
562.705	1	-3
563.045	1	5
563.385	1	6
563.725	1	-2
564.064	1	0
564.404	1	2
564.744	1	-1
565.084	1	7
565.424	1	2
565.764	1	0
566.104	1	5
566.444	1	5
566.783	1	-8
567.123	1	2
567.463	1	3
567.803	1	2
568.143	1	1
568.483	1	-3
568.823	1	0
569.162	1	4
569.502	1	-6
569.842	1	-3
570.182	1	-3
570.522	1	4
570.862	1	2
571.201	1	2
571.541	1	4
571.881	1	0
572.221	1	0
572.561	1	11
572.900	1	-1
573.240	1	5
573.580	1	-5
573.920	1	17
574.260	1	0
574.599	1	-8
574.939	1	-2
575.279	1	-6
575.619	1	0
575.959	1	-9
576.298	1	10
576.638	1	-1
576.978	1	-3
577.318	1	7
577.657	1	2
577.997	1	0
578.337	1	15
578.677	1	7
579.016	1	4
579.356	1	-1
579.696	1	-9
580.036	1	3
580.375	1	1
580.715	1	0
581.055	1	2
581.394	1	-2
581.734	1	4
582.074	1	7
582.414	1	-6
582.753	1	8
583.093	1	3
583.433	1	14
583.772	1	-3
584.112	1	3
584.452	1	-5
584.791	1	8
585.131	1	2
585.471	1	9
585.811	1	-3
586.150	1	-6
586.490	1	0
586.830	1	-6
587.169	1	9
587.509	1	4
587.849	1	-1
588.188	1	-1
588.528	1	-4
588.867	1	0
589.207	1	0
589.547	1	1
589.886	1	-1
590.226	1	-4
590.566	1	-6
590.905	1	6
591.245	1	3
591.585	1	1
591.924	1	-2
592.264	1	-10
592.603	1	-5
592.943	1	-2
593.283	1	2
593.622	1	-6
593.962	1	3
594.301	1	-1
594.641	1	-2
594.981	1	10
595.320	1	-3
595.660	1	6
595.999	1	-5
596.339	1	3
596.678	1	-11
597.018	1	-2
597.358	1	-3
597.697	1	-2
598.037	1	0
598.376	1	-8
598.716	1	0
599.055	1	-3
599.395	1	1
599.734	1	13
600.074	1	8
600.413	1	-9
600.753	1	-6
601.092	1	-5
601.432	1	-7
601.771	1	0
602.111	1	-6
602.451	1	10
602.790	1	10
603.130	1	1
603.469	1	3
603.809	1	-2
604.148	1	-1
604.487	1	4
604.827	1	-2
605.166	1	9
605.506	1	-6
605.845	1	5
606.185	1	5
606.524	1	-2
606.864	1	1
607.203	1	0
607.543	1	0
607.882	1	2
608.222	1	0
608.561	1	4
608.901	1	-1
609.240	1	-7
609.579	1	-3
609.919	1	-6
610.258	1	4
610.598	1	2
610.937	1	5
611.277	1	-1
611.616	1	-7
611.955	1	-1
612.295	1	6
612.634	1	2
612.974	1	1
613.313	1	-7
613.652	1	11
613.992	1	2
614.331	1	4
614.671	1	11
615.010	1	9
615.349	1	11
615.689	1	11
616.028	1	6
616.368	1	-1
616.707	1	4
617.046	1	-3
617.386	1	-4
617.725	1	6
618.064	1	0
618.404	1	-1
618.743	1	8
619.082	1	5
619.422	1	-10
619.761	1	-4
620.100	1	0
620.440	1	7
620.779	1	-2
621.118	1	-6
621.458	1	-5
621.797	1	3
622.136	1	2
622.476	1	-7
622.815	1	4
623.154	1	2
623.494	1	-11
623.833	1	-7
624.172	1	-3
624.511	1	8
624.851	1	-5
625.190	1	4
625.529	1	10
625.869	1	13
626.208	1	-4
626.547	1	1
626.886	1	2
627.226	1	4
627.565	1	3
627.904	1	-7
628.243	1	-5
628.583	1	-2
628.922	1	-9
629.261	1	10
629.600	1	0
629.940	1	-1
630.279	1	-2
630.618	1	-2
630.957	1	8
631.297	1	0
631.636	1	12
631.975	1	-3
632.314	1	7
632.653	1	12
632.993	1	-3
633.332	1	-2
633.671	1	3
634.010	1	3
634.349	1	-9
634.689	1	4
635.028	1	-3
635.367	1	-8
635.706	1	-8
636.045	1	9
636.384	1	-2
636.724	1	8
637.063	1	5
637.402	1	9
637.741	1	-16
638.080	1	7
638.419	1	-4
638.759	1	3
639.098	1	-3
639.437	1	-7
639.776	1	-4
640.115	1	7
640.454	1	8
640.793	1	-1
641.132	1	1
641.472	1	-7
641.811	1	1
642.150	1	3
642.489	1	7
642.828	1	-8
643.167	1	-8
643.506	1	9
643.845	1	5
644.184	1	6
644.524	1	3
644.863	1	-5
645.202	1	6
645.541	1	4
645.880	1	1
646.219	1	0
646.558	1	6
646.897	1	5
647.236	1	1
647.575	1	-10
647.914	1	-4
648.253	1	1
648.592	1	4
648.931	1	5
649.270	1	3
649.610	1	5
649.949	1	-3
650.288	1	-1
650.627	1	-8
650.966	1	6
651.305	1	0
651.644	1	17
651.983	1	7
652.322	1	-4
652.661	1	-2
653.000	1	3
653.339	1	-10
653.678	1	-2
654.017	1	9
654.356	1	9
654.695	1	6
655.034	1	-5
655.373	1	8
655.712	1	-9
656.051	1	-6
656.390	1	-6
656.729	1	0
657.068	1	0
657.406	1	1
657.745	1	0
658.084	1	-10
658.423	1	1
658.762	1	-4
659.101	1	2
659.440	1	2
659.779	1	0
660.118	1	-2
660.457	1	9
660.796	1	2
661.135	1	-18
661.474	1	13
661.813	1	-2
662.152	1	10
662.491	1	-11
662.829	1	3
663.168	1	4
663.507	1	-5
663.846	1	3
664.185	1	2
664.524	1	6
664.863	1	-1
665.202	1	15
665.541	1	1
665.879	1	-1
666.218	1	14
666.557	1	-9
666.896	1	1
667.235	1	2
667.574	1	-13
667.913	1	-8
668.251	1	6
668.590	1	-8
668.929	1	12
669.268	1	4
669.607	1	-9
669.946	1	-5
670.285	1	3
670.623	1	-1
670.962	1	-3
671.301	1	-6
671.640	1	5
671.979	1	10
672.317	1	5
672.656	1	2
672.995	1	-4
673.334	1	0
673.673	1	4
674.011	1	-1
674.350	1	0
674.689	1	-1
675.028	1	-2
675.367	1	-10
675.705	1	8
676.044	1	8
676.383	1	7
676.722	1	2
677.060	1	-12
677.399	1	1
677.738	1	1
678.077	1	17
678.416	1	-16
678.754	1	0
679.093	1	1
679.432	1	-2
679.771	1	6
680.109	1	-6
680.448	1	3
680.787	1	0
681.125	1	4
681.464	1	3
681.803	1	1
682.142	1	0
682.480	1	5
682.819	1	13
683.158	1	-2
683.496	1	-5
683.835	1	-1
684.174	1	3
684.512	1	9
684.851	1	3
685.190	1	-5
685.529	1	5
685.867	1	4
686.206	1	2
686.545	1	5
686.883	1	2
687.222	1	-3
687.561	1	6
687.899	1	-6
688.238	1	-2
688.577	1	3
688.746	1	-14