File: Data/GaN_170K_550ms/GaN_sample D_spot 18_UVVIS_170 K_200um_550 ms 2x2mm1_147.txt
340.368	1	2
340.710	1	-10
341.052	1	0
341.394	1	7
341.737	1	2
342.079	1	-8
342.421	1	4
342.763	1	11
343.105	1	3
343.447	1	-3
343.789	1	5
344.131	1	5
344.473	1	7
344.815	1	9
345.157	1	-7
345.499	1	1
345.841	1	6
346.183	1	2
346.526	1	6
346.868	1	7
347.210	1	-6
347.552	1	4
347.894	1	8
348.236	1	11
348.578	1	11
348.920	1	5
349.262	1	8
349.604	1	9
349.946	1	9
350.288	1	4
350.630	1	6
350.972	1	-1
351.314	1	10
351.656	1	-4
351.998	1	7
352.340	1	3
352.682	1	-4
353.024	1	2
353.366	1	7
353.708	1	8
354.050	1	-7
354.392	1	1
354.734	1	8
355.076	1	6
355.418	1	7
355.760	1	7
356.102	1	7
356.444	1	0
356.785	1	3
357.127	1	1
357.469	1	-3
357.811	1	2
358.153	1	16
358.495	1	4
358.837	1	11
359.179	1	-2
359.521	1	8
359.863	1	16
360.205	1	19
360.547	1	15
360.889	1	20
361.231	1	16
361.572	1	22
361.914	1	10
362.256	1	11
362.598	1	12
362.940	1	20
363.282	1	20
363.624	1	17
363.966	1	24
364.308	1	20
364.649	1	17
364.991	1	24
365.333	1	19
365.675	1	32
366.017	1	18
366.359	1	20
366.701	1	37
367.042	1	30
367.384	1	27
367.726	1	43
368.068	1	47
368.410	1	45
368.752	1	45
369.093	1	28
369.435	1	34
369.777	1	39
370.119	1	32
370.461	1	43
370.803	1	29
371.144	1	26
371.486	1	20
371.828	1	28
372.170	1	36
372.512	1	35
372.853	1	27
373.195	1	30
373.537	1	38
373.879	1	27
374.220	1	27
374.562	1	12
374.904	1	26
375.246	1	12
375.588	1	20
375.929	1	14
376.271	1	19
376.613	1	26
376.955	1	32
377.296	1	16
377.638	1	24
377.980	1	0
378.321	1	9
378.663	1	13
379.005	1	12
379.347	1	24
379.688	1	14
380.030	1	17
380.372	1	11
380.714	1	17
381.055	1	11
381.397	1	13
381.739	1	11
382.080	1	9
382.422	1	1
382.764	1	-2
383.105	1	6
383.447	1	24
383.789	1	25
384.130	1	2
384.472	1	4
384.814	1	11
385.156	1	6
385.497	1	21
385.839	1	3
386.180	1	14
386.522	1	10
386.864	1	11
387.205	1	7
387.547	1	12
387.889	1	10
388.230	1	3
388.572	1	5
388.914	1	3
389.255	1	16
389.597	1	1
389.939	1	2
390.280	1	1
390.622	1	5
390.963	1	3
391.305	1	3
391.647	1	-4
391.988	1	5
392.330	1	9
392.671	1	-5
393.013	1	-1
393.355	1	19
393.696	1	1
394.038	1	-4
394.379	1	6
394.721	1	10
395.062	1	-1
395.404	1	12
395.746	1	5
396.087	1	9
396.429	1	4
396.770	1	14
397.112	1	0
397.453	1	8
397.795	1	3
398.136	1	-1
398.478	1	4
398.819	1	-6
399.161	1	-4
399.503	1	5
399.844	1	-7
400.186	1	-8
400.527	1	14
400.869	1	6
401.210	1	10
401.552	1	8
401.893	1	17
402.235	1	-1
402.576	1	4
402.918	1	1
403.259	1	5
403.601	1	11
403.942	1	3
404.284	1	-2
404.625	1	-2
404.967	1	-1
405.308	1	-1
405.649	1	5
405.991	1	6
406.332	1	-10
406.674	1	14
407.015	1	10
407.357	1	-3
407.698	1	3
408.040	1	-1
408.381	1	6
408.722	1	-2
409.064	1	9
409.405	1	0
409.747	1	2
410.088	1	3
410.430	1	-6
410.771	1	0
411.112	1	2
411.454	1	3
411.795	1	9
412.137	1	-2
412.478	1	1
412.819	1	-5
413.161	1	-3
413.502	1	-5
413.844	1	6
414.185	1	6
414.526	1	4
414.868	1	2
415.209	1	1
415.550	1	1
415.892	1	12
416.233	1	-1
416.575	1	-1
416.916	1	-3
417.257	1	0
417.599	1	3
417.940	1	9
418.281	1	-1
418.623	1	2
418.964	1	-4
419.305	1	11
419.647	1	-5
419.988	1	5
420.329	1	3
420.671	1	-4
421.012	1	3
421.353	1	2
421.695	1	-8
422.036	1	16
422.377	1	14
422.718	1	5
423.060	1	-5
423.401	1	-3
423.742	1	-5
424.084	1	10
424.425	1	-6
424.766	1	-5
425.107	1	1
425.449	1	7
425.790	1	6
426.131	1	11
426.472	1	3
426.814	1	-9
427.155	1	12
427.496	1	-4
427.837	1	8
428.179	1	10
428.520	1	2
428.861	1	5
429.202	1	0
429.544	1	1
429.885	1	3
430.226	1	-3
430.567	1	-3
430.909	1	3
431.250	1	8
431.591	1	5
431.932	1	-10
432.273	1	0
432.615	1	6
432.956	1	10
433.297	1	-2
433.638	1	0
433.979	1	-2
434.320	1	8
434.662	1	-13
435.003	1	5
435.344	1	-1
435.685	1	-6
436.026	1	6
436.368	1	8
436.709	1	7
437.050	1	0
437.391	1	-10
437.732	1	2
438.073	1	-2
438.414	1	-3
438.756	1	-4
439.097	1	-3
439.438	1	1
439.779	1	11
440.120	1	2
440.461	1	9
440.802	1	10
441.143	1	2
441.485	1	-4
441.826	1	7
442.167	1	6
442.508	1	-5
442.849	1	1
443.190	1	-6
443.531	1	7
443.872	1	-8
444.213	1	-3
444.554	1	-3
444.895	1	-14
445.237	1	-7
445.578	1	7
445.919	1	3
446.260	1	8
446.601	1	-4
446.942	1	8
447.283	1	14
447.624	1	5
447.965	1	5
448.306	1	0
448.647	1	2
448.988	1	3
449.329	1	8
449.670	1	-15
450.011	1	0
450.352	1	-6
450.693	1	-4
451.034	1	-6
451.375	1	5
451.716	1	3
452.057	1	4
452.398	1	13
452.739	1	1
453.080	1	-2
453.421	1	-3
453.762	1	3
454.103	1	-3
454.444	1	-1
454.785	1	-4
455.126	1	13
455.467	1	-9
455.808	1	10
456.149	1	7
456.490	1	6
456.831	1	2
457.172	1	-3
457.513	1	8
457.854	1	9
458.195	1	9
458.536	1	-2
458.877	1	8
459.218	1	4
459.559	1	-1
459.899	1	1
460.240	1	0
460.581	1	4
460.922	1	7
461.263	1	-2
461.604	1	11
461.945	1	-3
462.286	1	3
462.627	1	6
462.968	1	0
463.309	1	10
463.649	1	0
463.990	1	-4
464.331	1	0
464.672	1	2
465.013	1	8
465.354	1	-1
465.695	1	6
466.036	1	-4
466.376	1	9
466.717	1	4
467.058	1	-6
467.399	1	12
467.740	1	0
468.081	1	-6
468.422	1	2
468.762	1	11
469.103	1	7
469.444	1	4
469.785	1	-5
470.126	1	0
470.467	1	6
470.807	1	3
471.148	1	0
471.489	1	1
471.830	1	-1
472.171	1	7
472.511	1	7
472.852	1	8
473.193	1	9
473.534	1	11
473.875	1	-5
474.215	1	3
474.556	1	13
474.897	1	6
475.238	1	1
475.578	1	14
475.919	1	8
476.260	1	15
476.601	1	1
476.942	1	0
477.282	1	13
477.623	1	11
477.964	1	2
478.305	1	-8
478.645	1	8
478.986	1	9
479.327	1	-7
479.667	1	-7
480.008	1	13
480.349	1	8
480.690	1	-1
481.030	1	9
481.371	1	1
481.712	1	5
482.053	1	-2
482.393	1	-4
482.734	1	8
483.075	1	2
483.415	1	6
483.756	1	-2
484.097	1	-4
484.437	1	3
484.778	1	-4
485.119	1	7
485.459	1	-7
485.800	1	-10
486.141	1	17
486.481	1	5
486.822	1	3
487.163	1	8
487.503	1	4
487.844	1	9
488.185	1	8
488.525	1	13
488.866	1	10
489.207	1	14
489.547	1	5
489.888	1	5
490.228	1	5
490.569	1	2
490.910	1	8
491.250	1	7
491.591	1	5
491.932	1	14
492.272	1	9
492.613	1	7
492.953	1	4
493.294	1	5
493.635	1	-2
493.975	1	6
494.316	1	8
494.656	1	8
494.997	1	3
495.337	1	10
495.678	1	11
496.019	1	-9
496.359	1	9
496.700	1	9
497.040	1	12
497.381	1	2
497.721	1	-3
498.062	1	-6
498.403	1	9
498.743	1	6
499.084	1	15
499.424	1	7
499.765	1	-13
500.105	1	-9
500.446	1	1
500.786	1	1
501.127	1	3
501.467	1	-3
501.808	1	-1
502.148	1	12
502.489	1	-1
502.829	1	10
503.170	1	9
503.510	1	0
503.851	1	10
504.191	1	3
504.532	1	-9
504.872	1	4
505.213	1	8
505.553	1	7
505.894	1	6
506.234	1	-4
506.575	1	8
506.915	1	6
507.256	1	5
507.596	1	11
507.936	1	22
508.277	1	0
508.617	1	2
508.958	1	5
509.298	1	-1
509.639	1	10
509.979	1	7
510.319	1	-2
510.660	1	3
511.000	1	9
511.341	1	18
511.681	1	4
512.022	1	13
512.362	1	1
512.702	1	5
513.043	1	5
513.383	1	2
513.724	1	6
514.064	1	9
514.404	1	-3
514.745	1	10
515.085	1	5
515.425	1	-1
515.766	1	12
516.106	1	2
516.447	1	9
516.787	1	8
517.127	1	9
517.468	1	16
517.808	1	12
518.148	1	8
518.489	1	11
518.829	1	5
519.169	1	11
519.510	1	14
519.850	1	0
520.190	1	-5
520.531	1	12
520.871	1	6
521.211	1	16
521.552	1	-4
521.892	1	9
522.232	1	-3
522.573	1	12
522.913	1	6
523.253	1	18
523.593	1	10
523.934	1	9
524.274	1	6
524.614	1	11
524.955	1	2
525.295	1	-2
525.635	1	8
525.975	1	4
526.316	1	15
526.656	1	14
526.996	1	8
527.337	1	5
527.677	1	-7
528.017	1	5
528.357	1	6
528.698	1	-8
529.038	1	0
529.378	1	5
529.718	1	12
530.058	1	17
530.399	1	-2
530.739	1	6
531.079	1	17
531.419	1	5
531.760	1	15
532.100	1	3
532.440	1	5
532.780	1	-8
533.120	1	8
533.461	1	3
533.801	1	13
534.141	1	3
534.481	1	16
534.821	1	12
535.162	1	5
535.502	1	6
535.842	1	14
536.182	1	11
536.522	1	7
536.862	1	14
537.203	1	7
537.543	1	3
537.883	1	8
538.223	1	13
538.563	1	12
538.903	1	3
539.243	1	4
539.584	1	0
539.924	1	-1
540.264	1	6
540.604	1	9
540.944	1	-2
541.284	1	7
541.624	1	6
541.964	1	6
542.305	1	4
542.645	1	-7
542.985	1	10
543.325	1	9
543.665	1	7
544.005	1	12
544.345	1	2
544.685	1	7
545.025	1	7
545.365	1	13
545.705	1	12
546.045	1	6
546.386	1	1
546.726	1	2
547.066	1	18
547.406	1	5
547.746	1	0
548.086	1	9
548.426	1	6
548.766	1	10
549.106	1	15
549.446	1	8
549.786	1	5
550.126	1	-7
550.466	1	-1
550.806	1	3
551.146	1	10
551.486	1	10
551.826	1	11
552.166	1	-1
552.506	1	4
552.846	1	-1
553.186	1	6
553.526	1	2
553.866	1	9
554.206	1	2
554.546	1	-2
554.886	1	1
555.226	1	1
555.566	1	4
555.906	1	3
556.246	1	5
556.586	1	0
556.926	1	12
557.266	1	13
557.606	1	8
557.946	1	5
558.286	1	4
558.626	1	15
558.966	1	17
559.306	1	12
559.646	1	0
559.986	1	8
560.325	1	0
560.665	1	0
561.005	1	3
561.345	1	-2
561.685	1	8
562.025	1	-2
562.365	1	15
562.705	1	15
563.045	1	-2
563.385	1	11
563.725	1	-1
564.064	1	15
564.404	1	-2
564.744	1	3
565.084	1	9
565.424	1	6
565.764	1	7
566.104	1	-2
566.444	1	10
566.783	1	3
567.123	1	-4
567.463	1	1
567.803	1	1
568.143	1	9
568.483	1	7
568.823	1	10
569.162	1	4
569.502	1	1
569.842	1	-1
570.182	1	9
570.522	1	0
570.862	1	-1
571.201	1	0
571.541	1	-3
571.881	1	-1
572.221	1	8
572.561	1	6
572.900	1	7
573.240	1	2
573.580	1	8
573.920	1	18
574.260	1	21
574.599	1	5
574.939	1	2
575.279	1	8
575.619	1	15
575.959	1	-6
576.298	1	7
576.638	1	7
576.978	1	-6
577.318	1	6
577.657	1	-6
577.997	1	-7
578.337	1	4
578.677	1	9
579.016	1	2
579.356	1	11
579.696	1	-4
580.036	1	4
580.375	1	16
580.715	1	6
581.055	1	14
581.394	1	10
581.734	1	6
582.074	1	7
582.414	1	-3
582.753	1	7
583.093	1	0
583.433	1	13
583.772	1	-1
584.112	1	1
584.452	1	-2
584.791	1	-1
585.131	1	7
585.471	1	3
585.811	1	2
586.150	1	-6
586.490	1	11
586.830	1	1
587.169	1	11
587.509	1	7
587.849	1	4
588.188	1	10
588.528	1	9
588.867	1	8
589.207	1	1
589.547	1	5
589.886	1	-7
590.226	1	5
590.566	1	7
590.905	1	7
591.245	1	3
591.585	1	1
591.924	1	0
592.264	1	-6
592.603	1	0
592.943	1	5
593.283	1	13
593.622	1	-9
593.962	1	3
594.301	1	4
594.641	1	9
594.981	1	8
595.320	1	0
595.660	1	5
595.999	1	7
596.339	1	-1
596.678	1	-2
597.018	1	6
597.358	1	-13
597.697	1	-4
598.037	1	1
598.376	1	-4
598.716	1	3
599.055	1	3
599.395	1	1
599.734	1	9
600.074	1	4
600.413	1	-5
600.753	1	9
601.092	1	-3
601.432	1	-2
601.771	1	5
602.111	1	2
602.451	1	4
602.790	1	10
603.130	1	-2
603.469	1	3
603.809	1	7
604.148	1	9
604.487	1	2
604.827	1	2
605.166	1	13
605.506	1	-5
605.845	1	6
606.185	1	17
606.524	1	0
606.864	1	3
607.203	1	1
607.543	1	6
607.882	1	-2
608.222	1	4
608.561	1	1
608.901	1	7
609.240	1	0
609.579	1	-5
609.919	1	6
610.258	1	6
610.598	1	8
610.937	1	0
611.277	1	2
611.616	1	3
611.955	1	9
612.295	1	-1
612.634	1	5
612.974	1	3
613.313	1	1
613.652	1	12
613.992	1	1
614.331	1	-1
614.671	1	9
615.010	1	4
615.349	1	9
615.689	1	6
616.028	1	9
616.368	1	4
616.707	1	9
617.046	1	-5
617.386	1	-3
617.725	1	13
618.064	1	-4
618.404	1	6
618.743	1	10
619.082	1	5
619.422	1	-2
619.761	1	-5
620.100	1	3
620.440	1	4
620.779	1	1
621.118	1	3
621.458	1	8
621.797	1	-1
622.136	1	0
622.476	1	-5
622.815	1	-2
623.154	1	1
623.494	1	-2
623.833	1	7
624.172	1	7
624.511	1	12
624.851	1	-2
625.190	1	10
625.529	1	1
625.869	1	10
626.208	1	5
626.547	1	-2
626.886	1	-5
627.226	1	0
627.565	1	7
627.904	1	4
628.243	1	-4
628.583	1	-6
628.922	1	-10
629.261	1	3
629.600	1	-6
629.940	1	3
630.279	1	-1
630.618	1	-6
630.957	1	10
631.297	1	0
631.636	1	14
631.975	1	3
632.314	1	-1
632.653	1	7
632.993	1	3
633.332	1	6
633.671	1	10
634.010	1	7
634.349	1	-3
634.689	1	-2
635.028	1	5
635.367	1	-1
635.706	1	-3
636.045	1	5
636.384	1	-2
636.724	1	11
637.063	1	-4
637.402	1	12
637.741	1	0
638.080	1	14
638.419	1	-4
638.759	1	9
639.098	1	5
639.437	1	-11
639.776	1	1
640.115	1	6
640.454	1	7
640.793	1	4
641.132	1	-2
641.472	1	-10
641.811	1	9
642.150	1	-10
642.489	1	-2
642.828	1	6
643.167	1	-6
643.506	1	4
643.845	1	5
644.184	1	11
644.524	1	-5
644.863	1	-5
645.202	1	13
645.541	1	0
645.880	1	5
646.219	1	-2
646.558	1	10
646.897	1	12
647.236	1	5
647.575	1	-2
647.914	1	8
648.253	1	5
648.592	1	5
648.931	1	10
649.270	1	-7
649.610	1	4
649.949	1	0
650.288	1	8
650.627	1	-1
650.966	1	8
651.305	1	-1
651.644	1	14
651.983	1	-1
652.322	1	5
652.661	1	6
653.000	1	-2
653.339	1	-2
653.678	1	4
654.017	1	5
654.356	1	-3
654.695	1	9
655.034	1	-4
655.373	1	7
655.712	1	-2
656.051	1	11
656.390	1	3
656.729	1	4
657.068	1	10
657.406	1	1
657.745	1	7
658.084	1	-8
658.423	1	1
658.762	1	6
659.101	1	8
659.440	1	5
659.779	1	11
660.118	1	-2
660.457	1	12
660.796	1	0
661.135	1	-15
661.474	1	6
661.813	1	0
662.152	1	3
662.491	1	-9
662.829	1	-5
663.168	1	3
663.507	1	8
663.846	1	-1
664.185	1	6
664.524	1	8
664.863	1	-2
665.202	1	15
665.541	1	4
665.879	1	1
666.218	1	16
666.557	1	-7
666.896	1	9
667.235	1	7
667.574	1	-9
667.913	1	-13
668.251	1	8
668.590	1	5
668.929	1	12
669.268	1	-4
669.607	1	0
669.946	1	5
670.285	1	15
670.623	1	6
670.962	1	-4
671.301	1	1
671.640	1	10
671.979	1	2
672.317	1	0
672.656	1	2
672.995	1	-5
673.334	1	1
673.673	1	2
674.011	1	4
674.350	1	5
674.689	1	4
675.028	1	2
675.367	1	0
675.705	1	1
676.044	1	12
676.383	1	2
676.722	1	14
677.060	1	-5
677.399	1	-3
677.738	1	-5
678.077	1	12
678.416	1	-1
678.754	1	8
679.093	1	-2
679.432	1	7
679.771	1	3
680.109	1	3
680.448	1	15
680.787	1	4
681.125	1	1
681.464	1	2
681.803	1	11
682.142	1	-6
682.480	1	4
682.819	1	5
683.158	1	1
683.496	1	9
683.835	1	-3
684.174	1	-2
684.512	1	-2
684.851	1	5
685.190	1	-1
685.529	1	8
685.867	1	12
686.206	1	14
686.545	1	11
686.883	1	7
687.222	1	2
687.561	1	8
687.899	1	-3
688.238	1	-5
688.577	1	20
688.746	1	-1