File: Data/GaN_170K_550ms/GaN_sample D_spot 18_UVVIS_170 K_200um_550 ms 2x2mm1_204.txt
340.368	1	7
340.710	1	-12
341.052	1	2
341.394	1	4
341.737	1	-1
342.079	1	4
342.421	1	-3
342.763	1	2
343.105	1	15
343.447	1	-15
343.789	1	7
344.131	1	-3
344.473	1	3
344.815	1	7
345.157	1	-9
345.499	1	-1
345.841	1	10
346.183	1	5
346.526	1	-3
346.868	1	5
347.210	1	5
347.552	1	9
347.894	1	6
348.236	1	3
348.578	1	16
348.920	1	6
349.262	1	-2
349.604	1	4
349.946	1	7
350.288	1	5
350.630	1	4
350.972	1	-3
351.314	1	-3
351.656	1	0
351.998	1	3
352.340	1	9
352.682	1	-1
353.024	1	8
353.366	1	4
353.708	1	9
354.050	1	-8
354.392	1	3
354.734	1	5
355.076	1	1
355.418	1	-5
355.760	1	-6
356.102	1	10
356.444	1	2
356.785	1	-10
357.127	1	1
357.469	1	-5
357.811	1	3
358.153	1	5
358.495	1	2
358.837	1	8
359.179	1	1
359.521	1	9
359.863	1	9
360.205	1	15
360.547	1	5
360.889	1	16
361.231	1	-5
361.572	1	17
361.914	1	2
362.256	1	0
362.598	1	10
362.940	1	18
363.282	1	25
363.624	1	4
363.966	1	13
364.308	1	6
364.649	1	6
364.991	1	20
365.333	1	1
365.675	1	16
366.017	1	24
366.359	1	11
366.701	1	13
367.042	1	21
367.384	1	17
367.726	1	21
368.068	1	24
368.410	1	24
368.752	1	17
369.093	1	11
369.435	1	12
369.777	1	20
370.119	1	11
370.461	1	18
370.803	1	16
371.144	1	8
371.486	1	8
371.828	1	13
372.170	1	8
372.512	1	9
372.853	1	21
373.195	1	11
373.537	1	22
373.879	1	14
374.220	1	24
374.562	1	12
374.904	1	16
375.246	1	14
375.588	1	3
375.929	1	5
376.271	1	8
376.613	1	10
376.955	1	5
377.296	1	-3
377.638	1	9
377.980	1	-6
378.321	1	10
378.663	1	2
379.005	1	5
379.347	1	4
379.688	1	11
380.030	1	13
380.372	1	7
380.714	1	10
381.055	1	10
381.397	1	11
381.739	1	-1
382.080	1	1
382.422	1	1
382.764	1	9
383.105	1	5
383.447	1	18
383.789	1	18
384.130	1	-6
384.472	1	-11
384.814	1	11
385.156	1	1
385.497	1	14
385.839	1	-3
386.180	1	12
386.522	1	6
386.864	1	1
387.205	1	-1
387.547	1	9
387.889	1	11
388.230	1	4
388.572	1	12
388.914	1	9
389.255	1	7
389.597	1	6
389.939	1	3
390.280	1	-2
390.622	1	-1
390.963	1	9
391.305	1	-6
391.647	1	-12
391.988	1	11
392.330	1	6
392.671	1	-3
393.013	1	-3
393.355	1	9
393.696	1	7
394.038	1	-5
394.379	1	5
394.721	1	-2
395.062	1	-1
395.404	1	14
395.746	1	12
396.087	1	14
396.429	1	-3
396.770	1	6
397.112	1	-1
397.453	1	14
397.795	1	-3
398.136	1	5
398.478	1	-4
398.819	1	5
399.161	1	-9
399.503	1	-3
399.844	1	-5
400.186	1	-3
400.527	1	9
400.869	1	0
401.210	1	6
401.552	1	6
401.893	1	5
402.235	1	5
402.576	1	2
402.918	1	1
403.259	1	5
403.601	1	10
403.942	1	6
404.284	1	-9
404.625	1	-2
404.967	1	2
405.308	1	3
405.649	1	6
405.991	1	9
406.332	1	-6
406.674	1	0
407.015	1	8
407.357	1	2
407.698	1	1
408.040	1	-3
408.381	1	3
408.722	1	1
409.064	1	1
409.405	1	2
409.747	1	-2
410.088	1	10
410.430	1	1
410.771	1	1
411.112	1	-4
411.454	1	0
411.795	1	2
412.137	1	-3
412.478	1	-2
412.819	1	-6
413.161	1	10
413.502	1	4
413.844	1	4
414.185	1	1
414.526	1	7
414.868	1	-1
415.209	1	-7
415.550	1	-3
415.892	1	1
416.233	1	6
416.575	1	4
416.916	1	-9
417.257	1	12
417.599	1	4
417.940	1	0
418.281	1	-14
418.623	1	-1
418.964	1	-7
419.305	1	-7
419.647	1	6
419.988	1	5
420.329	1	-2
420.671	1	-2
421.012	1	0
421.353	1	-3
421.695	1	-2
422.036	1	6
422.377	1	5
422.718	1	12
423.060	1	-1
423.401	1	4
423.742	1	-7
424.084	1	17
424.425	1	-4
424.766	1	-6
425.107	1	-9
425.449	1	5
425.790	1	9
426.131	1	6
426.472	1	-3
426.814	1	-7
427.155	1	10
427.496	1	-2
427.837	1	3
428.179	1	6
428.520	1	6
428.861	1	-2
429.202	1	2
429.544	1	-2
429.885	1	0
430.226	1	1
430.567	1	-1
430.909	1	3
431.250	1	16
431.591	1	4
431.932	1	-2
432.273	1	0
432.615	1	7
432.956	1	5
433.297	1	-4
433.638	1	6
433.979	1	-2
434.320	1	2
434.662	1	-18
435.003	1	1
435.344	1	2
435.685	1	6
436.026	1	0
436.368	1	7
436.709	1	4
437.050	1	-13
437.391	1	-4
437.732	1	0
438.073	1	2
438.414	1	-10
438.756	1	2
439.097	1	4
439.438	1	4
439.779	1	14
440.120	1	-5
440.461	1	10
440.802	1	4
441.143	1	2
441.485	1	-1
441.826	1	9
442.167	1	4
442.508	1	-2
442.849	1	3
443.190	1	-3
443.531	1	-1
443.872	1	1
444.213	1	-5
444.554	1	-3
444.895	1	-12
445.237	1	-5
445.578	1	4
445.919	1	0
446.260	1	-1
446.601	1	-6
446.942	1	5
447.283	1	9
447.624	1	0
447.965	1	-4
448.306	1	-1
448.647	1	3
448.988	1	17
449.329	1	1
449.670	1	-12
450.011	1	3
450.352	1	-3
450.693	1	-11
451.034	1	0
451.375	1	1
451.716	1	5
452.057	1	-4
452.398	1	4
452.739	1	2
453.080	1	3
453.421	1	5
453.762	1	0
454.103	1	-9
454.444	1	-7
454.785	1	-1
455.126	1	8
455.467	1	-7
455.808	1	15
456.149	1	0
456.490	1	4
456.831	1	-2
457.172	1	3
457.513	1	11
457.854	1	9
458.195	1	5
458.536	1	-5
458.877	1	8
459.218	1	-7
459.559	1	3
459.899	1	-3
460.240	1	1
460.581	1	0
460.922	1	4
461.263	1	5
461.604	1	8
461.945	1	7
462.286	1	-4
462.627	1	13
462.968	1	10
463.309	1	2
463.649	1	4
463.990	1	-3
464.331	1	7
464.672	1	-1
465.013	1	11
465.354	1	1
465.695	1	1
466.036	1	-2
466.376	1	8
466.717	1	-5
467.058	1	6
467.399	1	7
467.740	1	-3
468.081	1	3
468.422	1	5
468.762	1	18
469.103	1	11
469.444	1	3
469.785	1	2
470.126	1	-1
470.467	1	6
470.807	1	-6
471.148	1	6
471.489	1	0
471.830	1	-5
472.171	1	6
472.511	1	0
472.852	1	2
473.193	1	5
473.534	1	8
473.875	1	4
474.215	1	-3
474.556	1	1
474.897	1	0
475.238	1	-3
475.578	1	3
475.919	1	5
476.260	1	16
476.601	1	2
476.942	1	-9
477.282	1	8
477.623	1	9
477.964	1	-1
478.305	1	-6
478.645	1	3
478.986	1	-6
479.327	1	-19
479.667	1	0
480.008	1	3
480.349	1	4
480.690	1	7
481.030	1	2
481.371	1	-6
481.712	1	1
482.053	1	-7
482.393	1	-4
482.734	1	11
483.075	1	6
483.415	1	6
483.756	1	4
484.097	1	-3
484.437	1	-3
484.778	1	-9
485.119	1	0
485.459	1	5
485.800	1	-6
486.141	1	6
486.481	1	0
486.822	1	1
487.163	1	10
487.503	1	2
487.844	1	2
488.185	1	4
488.525	1	7
488.866	1	11
489.207	1	1
489.547	1	13
489.888	1	7
490.228	1	-1
490.569	1	5
490.910	1	-3
491.250	1	6
491.591	1	2
491.932	1	6
492.272	1	7
492.613	1	7
492.953	1	6
493.294	1	-4
493.635	1	0
493.975	1	2
494.316	1	4
494.656	1	-2
494.997	1	4
495.337	1	14
495.678	1	2
496.019	1	-11
496.359	1	3
496.700	1	14
497.040	1	1
497.381	1	3
497.721	1	-11
498.062	1	1
498.403	1	-1
498.743	1	12
499.084	1	4
499.424	1	12
499.765	1	-9
500.105	1	-4
500.446	1	9
500.786	1	1
501.127	1	7
501.467	1	-2
501.808	1	0
502.148	1	9
502.489	1	3
502.829	1	9
503.170	1	11
503.510	1	4
503.851	1	-1
504.191	1	-5
504.532	1	-4
504.872	1	3
505.213	1	3
505.553	1	4
505.894	1	12
506.234	1	-7
506.575	1	6
506.915	1	-1
507.256	1	1
507.596	1	4
507.936	1	10
508.277	1	-2
508.617	1	12
508.958	1	-1
509.298	1	-2
509.639	1	6
509.979	1	8
510.319	1	-5
510.660	1	-2
511.000	1	3
511.341	1	9
511.681	1	1
512.022	1	9
512.362	1	-3
512.702	1	-3
513.043	1	5
513.383	1	4
513.724	1	-1
514.064	1	4
514.404	1	-2
514.745	1	0
515.085	1	16
515.425	1	2
515.766	1	6
516.106	1	5
516.447	1	1
516.787	1	1
517.127	1	7
517.468	1	-3
517.808	1	11
518.148	1	8
518.489	1	7
518.829	1	13
519.169	1	9
519.510	1	13
519.850	1	5
520.190	1	1
520.531	1	9
520.871	1	8
521.211	1	9
521.552	1	9
521.892	1	6
522.232	1	-3
522.573	1	2
522.913	1	15
523.253	1	21
523.593	1	3
523.934	1	2
524.274	1	2
524.614	1	6
524.955	1	6
525.295	1	6
525.635	1	9
525.975	1	5
526.316	1	13
526.656	1	9
526.996	1	7
527.337	1	4
527.677	1	-9
528.017	1	3
528.357	1	2
528.698	1	-7
529.038	1	7
529.378	1	0
529.718	1	3
530.058	1	8
530.399	1	2
530.739	1	1
531.079	1	10
531.419	1	16
531.760	1	5
532.100	1	4
532.440	1	4
532.780	1	1
533.120	1	7
533.461	1	4
533.801	1	4
534.141	1	2
534.481	1	13
534.821	1	2
535.162	1	4
535.502	1	4
535.842	1	1
536.182	1	2
536.522	1	1
536.862	1	8
537.203	1	4
537.543	1	6
537.883	1	10
538.223	1	-1
538.563	1	1
538.903	1	11
539.243	1	5
539.584	1	7
539.924	1	4
540.264	1	1
540.604	1	-2
540.944	1	-6
541.284	1	6
541.624	1	-3
541.964	1	0
542.305	1	1
542.645	1	-1
542.985	1	7
543.325	1	6
543.665	1	0
544.005	1	9
544.345	1	5
544.685	1	2
545.025	1	2
545.365	1	7
545.705	1	14
546.045	1	-10
546.386	1	0
546.726	1	6
547.066	1	16
547.406	1	3
547.746	1	-7
548.086	1	0
548.426	1	2
548.766	1	-3
549.106	1	10
549.446	1	2
549.786	1	-1
550.126	1	4
550.466	1	2
550.806	1	11
551.146	1	6
551.486	1	-4
551.826	1	4
552.166	1	8
552.506	1	9
552.846	1	5
553.186	1	5
553.526	1	-7
553.866	1	6
554.206	1	10
554.546	1	2
554.886	1	-3
555.226	1	-4
555.566	1	0
555.906	1	0
556.246	1	5
556.586	1	3
556.926	1	8
557.266	1	8
557.606	1	-1
557.946	1	10
558.286	1	1
558.626	1	13
558.966	1	3
559.306	1	11
559.646	1	-8
559.986	1	4
560.325	1	1
560.665	1	5
561.005	1	-2
561.345	1	4
561.685	1	0
562.025	1	-7
562.365	1	3
562.705	1	3
563.045	1	2
563.385	1	13
563.725	1	-4
564.064	1	0
564.404	1	3
564.744	1	5
565.084	1	8
565.424	1	6
565.764	1	0
566.104	1	0
566.444	1	1
566.783	1	1
567.123	1	-2
567.463	1	2
567.803	1	8
568.143	1	-3
568.483	1	6
568.823	1	-3
569.162	1	3
569.502	1	1
569.842	1	1
570.182	1	-3
570.522	1	-1
570.862	1	7
571.201	1	8
571.541	1	-9
571.881	1	-9
572.221	1	6
572.561	1	-3
572.900	1	-1
573.240	1	-1
573.580	1	0
573.920	1	12
574.260	1	5
574.599	1	-2
574.939	1	-6
575.279	1	-2
575.619	1	10
575.959	1	-4
576.298	1	5
576.638	1	10
576.978	1	3
577.318	1	4
577.657	1	5
577.997	1	-3
578.337	1	1
578.677	1	-4
579.016	1	13
579.356	1	2
579.696	1	-12
580.036	1	-1
580.375	1	-2
580.715	1	5
581.055	1	15
581.394	1	5
581.734	1	12
582.074	1	2
582.414	1	8
582.753	1	6
583.093	1	2
583.433	1	5
583.772	1	-5
584.112	1	6
584.452	1	-3
584.791	1	4
585.131	1	11
585.471	1	5
585.811	1	0
586.150	1	-2
586.490	1	5
586.830	1	2
587.169	1	13
587.509	1	5
587.849	1	2
588.188	1	-1
588.528	1	-7
588.867	1	-1
589.207	1	3
589.547	1	11
589.886	1	-8
590.226	1	5
590.566	1	1
590.905	1	18
591.245	1	-1
591.585	1	-8
591.924	1	-4
592.264	1	-10
592.603	1	-6
592.943	1	9
593.283	1	8
593.622	1	-5
593.962	1	2
594.301	1	4
594.641	1	4
594.981	1	16
595.320	1	-2
595.660	1	5
595.999	1	9
596.339	1	11
596.678	1	-3
597.018	1	5
597.358	1	-7
597.697	1	1
598.037	1	3
598.376	1	-6
598.716	1	3
599.055	1	3
599.395	1	-4
599.734	1	13
600.074	1	3
600.413	1	-5
600.753	1	5
601.092	1	2
601.432	1	5
601.771	1	11
602.111	1	-6
602.451	1	9
602.790	1	9
603.130	1	-8
603.469	1	4
603.809	1	6
604.148	1	10
604.487	1	12
604.827	1	-7
605.166	1	8
605.506	1	0
605.845	1	12
606.185	1	7
606.524	1	5
606.864	1	6
607.203	1	5
607.543	1	10
607.882	1	-2
608.222	1	0
608.561	1	-2
608.901	1	6
609.240	1	1
609.579	1	-2
609.919	1	-3
610.258	1	14
610.598	1	1
610.937	1	1
611.277	1	-1
611.616	1	9
611.955	1	0
612.295	1	3
612.634	1	8
612.974	1	6
613.313	1	0
613.652	1	2
613.992	1	4
614.331	1	4
614.671	1	6
615.010	1	-4
615.349	1	2
615.689	1	14
616.028	1	5
616.368	1	5
616.707	1	8
617.046	1	-3
617.386	1	3
617.725	1	10
618.064	1	-5
618.404	1	5
618.743	1	4
619.082	1	9
619.422	1	-5
619.761	1	2
620.100	1	7
620.440	1	4
620.779	1	-3
621.118	1	-6
621.458	1	-5
621.797	1	2
622.136	1	-4
622.476	1	-3
622.815	1	1
623.154	1	3
623.494	1	5
623.833	1	10
624.172	1	6
624.511	1	10
624.851	1	0
625.190	1	5
625.529	1	5
625.869	1	-2
626.208	1	4
626.547	1	-13
626.886	1	11
627.226	1	3
627.565	1	5
627.904	1	3
628.243	1	-5
628.583	1	-6
628.922	1	-6
629.261	1	4
629.600	1	6
629.940	1	-3
630.279	1	3
630.618	1	-8
630.957	1	-1
631.297	1	0
631.636	1	13
631.975	1	-1
632.314	1	-2
632.653	1	6
632.993	1	5
633.332	1	1
633.671	1	10
634.010	1	10
634.349	1	-11
634.689	1	6
635.028	1	0
635.367	1	-7
635.706	1	-9
636.045	1	2
636.384	1	-2
636.724	1	16
637.063	1	-1
637.402	1	5
637.741	1	-9
638.080	1	9
638.419	1	-9
638.759	1	-5
639.098	1	-7
639.437	1	-12
639.776	1	-5
640.115	1	13
640.454	1	-5
640.793	1	-1
641.132	1	5
641.472	1	-2
641.811	1	5
642.150	1	-1
642.489	1	2
642.828	1	4
643.167	1	-3
643.506	1	5
643.845	1	11
644.184	1	15
644.524	1	1
644.863	1	-7
645.202	1	6
645.541	1	6
645.880	1	9
646.219	1	5
646.558	1	7
646.897	1	6
647.236	1	4
647.575	1	-3
647.914	1	-3
648.253	1	0
648.592	1	-1
648.931	1	4
649.270	1	1
649.610	1	3
649.949	1	1
650.288	1	1
650.627	1	-8
650.966	1	10
651.305	1	1
651.644	1	-1
651.983	1	2
652.322	1	10
652.661	1	3
653.000	1	4
653.339	1	-2
653.678	1	4
654.017	1	7
654.356	1	4
654.695	1	7
655.034	1	-5
655.373	1	3
655.712	1	-5
656.051	1	8
656.390	1	2
656.729	1	5
657.068	1	8
657.406	1	7
657.745	1	10
658.084	1	-12
658.423	1	2
658.762	1	-10
659.101	1	4
659.440	1	-1
659.779	1	-2
660.118	1	3
660.457	1	6
660.796	1	-1
661.135	1	-11
661.474	1	-5
661.813	1	1
662.152	1	1
662.491	1	-12
662.829	1	1
663.168	1	0
663.507	1	-1
663.846	1	3
664.185	1	4
664.524	1	5
664.863	1	5
665.202	1	12
665.541	1	3
665.879	1	4
666.218	1	9
666.557	1	-7
666.896	1	9
667.235	1	-10
667.574	1	-7
667.913	1	-4
668.251	1	5
668.590	1	-3
668.929	1	5
669.268	1	-5
669.607	1	-1
669.946	1	6
670.285	1	13
670.623	1	-1
670.962	1	-3
671.301	1	7
671.640	1	2
671.979	1	3
672.317	1	3
672.656	1	-1
672.995	1	-9
673.334	1	-1
673.673	1	-3
674.011	1	14
674.350	1	6
674.689	1	3
675.028	1	0
675.367	1	-7
675.705	1	3
676.044	1	14
676.383	1	0
676.722	1	4
677.060	1	-4
677.399	1	-1
677.738	1	11
678.077	1	9
678.416	1	-12
678.754	1	1
679.093	1	-6
679.432	1	-2
679.771	1	3
680.109	1	3
680.448	1	0
680.787	1	2
681.125	1	5
681.464	1	6
681.803	1	11
682.142	1	-2
682.480	1	1
682.819	1	3
683.158	1	-1
683.496	1	4
683.835	1	-6
684.174	1	-2
684.512	1	2
684.851	1	-1
685.190	1	0
685.529	1	13
685.867	1	10
686.206	1	11
686.545	1	10
686.883	1	0
687.222	1	6
687.561	1	0
687.899	1	-5
688.238	1	-3
688.577	1	12
688.746	1	-4