File: Data/GaN_170K_550ms/GaN_sample D_spot 18_UVVIS_170 K_200um_550 ms 2x2mm1_179.txt
340.368	1	0
340.710	1	-9
341.052	1	5
341.394	1	-2
341.737	1	-1
342.079	1	-3
342.421	1	9
342.763	1	9
343.105	1	12
343.447	1	-3
343.789	1	5
344.131	1	2
344.473	1	6
344.815	1	16
345.157	1	-1
345.499	1	-13
345.841	1	10
346.183	1	6
346.526	1	12
346.868	1	-3
347.210	1	-7
347.552	1	12
347.894	1	-1
348.236	1	1
348.578	1	7
348.920	1	1
349.262	1	4
349.604	1	12
349.946	1	11
350.288	1	-1
350.630	1	9
350.972	1	-14
351.314	1	9
351.656	1	5
351.998	1	6
352.340	1	11
352.682	1	3
353.024	1	1
353.366	1	0
353.708	1	15
354.050	1	-8
354.392	1	3
354.734	1	-1
355.076	1	4
355.418	1	3
355.760	1	-1
356.102	1	6
356.444	1	-2
356.785	1	1
357.127	1	4
357.469	1	-3
357.811	1	7
358.153	1	6
358.495	1	6
358.837	1	1
359.179	1	5
359.521	1	9
359.863	1	9
360.205	1	16
360.547	1	10
360.889	1	12
361.231	1	11
361.572	1	8
361.914	1	15
362.256	1	5
362.598	1	2
362.940	1	17
363.282	1	23
363.624	1	16
363.966	1	19
364.308	1	21
364.649	1	11
364.991	1	27
365.333	1	20
365.675	1	24
366.017	1	17
366.359	1	19
366.701	1	17
367.042	1	23
367.384	1	26
367.726	1	29
368.068	1	17
368.410	1	34
368.752	1	23
369.093	1	9
369.435	1	20
369.777	1	19
370.119	1	7
370.461	1	35
370.803	1	15
371.144	1	20
371.486	1	14
371.828	1	21
372.170	1	23
372.512	1	10
372.853	1	18
373.195	1	16
373.537	1	25
373.879	1	21
374.220	1	24
374.562	1	11
374.904	1	8
375.246	1	14
375.588	1	7
375.929	1	12
376.271	1	22
376.613	1	7
376.955	1	19
377.296	1	-1
377.638	1	16
377.980	1	-1
378.321	1	14
378.663	1	13
379.005	1	5
379.347	1	11
379.688	1	17
380.030	1	9
380.372	1	7
380.714	1	15
381.055	1	7
381.397	1	17
381.739	1	7
382.080	1	2
382.422	1	5
382.764	1	18
383.105	1	14
383.447	1	14
383.789	1	14
384.130	1	7
384.472	1	-2
384.814	1	14
385.156	1	-3
385.497	1	13
385.839	1	0
386.180	1	6
386.522	1	11
386.864	1	2
387.205	1	-1
387.547	1	4
387.889	1	11
388.230	1	5
388.572	1	10
388.914	1	3
389.255	1	8
389.597	1	4
389.939	1	-7
390.280	1	2
390.622	1	4
390.963	1	-2
391.305	1	-1
391.647	1	-3
391.988	1	4
392.330	1	-3
392.671	1	-9
393.013	1	9
393.355	1	5
393.696	1	2
394.038	1	6
394.379	1	0
394.721	1	9
395.062	1	5
395.404	1	14
395.746	1	14
396.087	1	9
396.429	1	2
396.770	1	7
397.112	1	-5
397.453	1	13
397.795	1	2
398.136	1	2
398.478	1	13
398.819	1	8
399.161	1	-2
399.503	1	8
399.844	1	-9
400.186	1	0
400.527	1	5
400.869	1	-2
401.210	1	0
401.552	1	8
401.893	1	10
402.235	1	-1
402.576	1	7
402.918	1	5
403.259	1	7
403.601	1	7
403.942	1	4
404.284	1	-10
404.625	1	0
404.967	1	3
405.308	1	5
405.649	1	8
405.991	1	8
406.332	1	-11
406.674	1	7
407.015	1	9
407.357	1	-1
407.698	1	5
408.040	1	7
408.381	1	8
408.722	1	-6
409.064	1	-3
409.405	1	10
409.747	1	-5
410.088	1	11
410.430	1	0
410.771	1	-3
411.112	1	-1
411.454	1	2
411.795	1	12
412.137	1	-13
412.478	1	-3
412.819	1	-11
413.161	1	7
413.502	1	4
413.844	1	4
414.185	1	5
414.526	1	5
414.868	1	0
415.209	1	-12
415.550	1	6
415.892	1	3
416.233	1	6
416.575	1	10
416.916	1	-7
417.257	1	8
417.599	1	2
417.940	1	-1
418.281	1	-9
418.623	1	10
418.964	1	7
419.305	1	4
419.647	1	7
419.988	1	4
420.329	1	0
420.671	1	-1
421.012	1	-3
421.353	1	2
421.695	1	-5
422.036	1	9
422.377	1	-2
422.718	1	4
423.060	1	2
423.401	1	12
423.742	1	9
424.084	1	10
424.425	1	-8
424.766	1	1
425.107	1	3
425.449	1	7
425.790	1	7
426.131	1	8
426.472	1	-2
426.814	1	-2
427.155	1	13
427.496	1	-3
427.837	1	6
428.179	1	-1
428.520	1	4
428.861	1	2
429.202	1	4
429.544	1	-1
429.885	1	-2
430.226	1	7
430.567	1	3
430.909	1	1
431.250	1	14
431.591	1	4
431.932	1	-7
432.273	1	4
432.615	1	9
432.956	1	4
433.297	1	7
433.638	1	5
433.979	1	1
434.320	1	6
434.662	1	-19
435.003	1	3
435.344	1	8
435.685	1	-1
436.026	1	4
436.368	1	5
436.709	1	7
437.050	1	-1
437.391	1	3
437.732	1	5
438.073	1	-3
438.414	1	-6
438.756	1	-6
439.097	1	2
439.438	1	-2
439.779	1	13
440.120	1	-9
440.461	1	14
440.802	1	1
441.143	1	-7
441.485	1	-8
441.826	1	5
442.167	1	6
442.508	1	-1
442.849	1	-7
443.190	1	7
443.531	1	7
443.872	1	0
444.213	1	0
444.554	1	-2
444.895	1	-15
445.237	1	-3
445.578	1	11
445.919	1	9
446.260	1	10
446.601	1	-4
446.942	1	13
447.283	1	9
447.624	1	6
447.965	1	-3
448.306	1	5
448.647	1	-8
448.988	1	8
449.329	1	0
449.670	1	-13
450.011	1	3
450.352	1	0
450.693	1	-3
451.034	1	-1
451.375	1	7
451.716	1	5
452.057	1	-6
452.398	1	4
452.739	1	-3
453.080	1	5
453.421	1	10
453.762	1	5
454.103	1	-3
454.444	1	-15
454.785	1	1
455.126	1	11
455.467	1	-15
455.808	1	6
456.149	1	-2
456.490	1	3
456.831	1	-6
457.172	1	-5
457.513	1	8
457.854	1	10
458.195	1	3
458.536	1	-10
458.877	1	6
459.218	1	1
459.559	1	4
459.899	1	7
460.240	1	-3
460.581	1	2
460.922	1	-7
461.263	1	-2
461.604	1	2
461.945	1	10
462.286	1	-2
462.627	1	8
462.968	1	6
463.309	1	7
463.649	1	5
463.990	1	2
464.331	1	-3
464.672	1	-7
465.013	1	8
465.354	1	-11
465.695	1	1
466.036	1	-11
466.376	1	2
466.717	1	0
467.058	1	3
467.399	1	11
467.740	1	1
468.081	1	-1
468.422	1	-2
468.762	1	17
469.103	1	3
469.444	1	0
469.785	1	-4
470.126	1	6
470.467	1	6
470.807	1	-8
471.148	1	-2
471.489	1	4
471.830	1	-3
472.171	1	11
472.511	1	4
472.852	1	3
473.193	1	6
473.534	1	-2
473.875	1	6
474.215	1	7
474.556	1	1
474.897	1	-2
475.238	1	-5
475.578	1	4
475.919	1	8
476.260	1	10
476.601	1	1
476.942	1	-5
477.282	1	9
477.623	1	11
477.964	1	1
478.305	1	-1
478.645	1	7
478.986	1	0
479.327	1	-3
479.667	1	-3
480.008	1	1
480.349	1	9
480.690	1	-2
481.030	1	6
481.371	1	-3
481.712	1	3
482.053	1	-7
482.393	1	0
482.734	1	6
483.075	1	2
483.415	1	6
483.756	1	7
484.097	1	2
484.437	1	6
484.778	1	-4
485.119	1	7
485.459	1	2
485.800	1	-1
486.141	1	6
486.481	1	0
486.822	1	2
487.163	1	-1
487.503	1	10
487.844	1	7
488.185	1	-4
488.525	1	4
488.866	1	8
489.207	1	-6
489.547	1	9
489.888	1	5
490.228	1	2
490.569	1	3
490.910	1	-6
491.250	1	9
491.591	1	8
491.932	1	5
492.272	1	3
492.613	1	-3
492.953	1	4
493.294	1	-7
493.635	1	-4
493.975	1	8
494.316	1	-2
494.656	1	1
494.997	1	5
495.337	1	7
495.678	1	14
496.019	1	-13
496.359	1	6
496.700	1	8
497.040	1	-4
497.381	1	14
497.721	1	-7
498.062	1	-3
498.403	1	7
498.743	1	5
499.084	1	3
499.424	1	6
499.765	1	-9
500.105	1	-1
500.446	1	2
500.786	1	6
501.127	1	2
501.467	1	-2
501.808	1	-5
502.148	1	5
502.489	1	-2
502.829	1	0
503.170	1	6
503.510	1	4
503.851	1	11
504.191	1	2
504.532	1	-9
504.872	1	3
505.213	1	-4
505.553	1	-3
505.894	1	16
506.234	1	-3
506.575	1	5
506.915	1	13
507.256	1	0
507.596	1	7
507.936	1	15
508.277	1	-11
508.617	1	6
508.958	1	-5
509.298	1	2
509.639	1	15
509.979	1	7
510.319	1	-7
510.660	1	1
511.000	1	0
511.341	1	13
511.681	1	2
512.022	1	8
512.362	1	-10
512.702	1	7
513.043	1	1
513.383	1	11
513.724	1	2
514.064	1	13
514.404	1	-1
514.745	1	5
515.085	1	6
515.425	1	13
515.766	1	7
516.106	1	-4
516.447	1	-1
516.787	1	10
517.127	1	5
517.468	1	3
517.808	1	11
518.148	1	6
518.489	1	11
518.829	1	1
519.169	1	0
519.510	1	-1
519.850	1	5
520.190	1	0
520.531	1	13
520.871	1	1
521.211	1	7
521.552	1	4
521.892	1	0
522.232	1	-3
522.573	1	14
522.913	1	6
523.253	1	17
523.593	1	6
523.934	1	7
524.274	1	0
524.614	1	4
524.955	1	5
525.295	1	1
525.635	1	9
525.975	1	0
526.316	1	8
526.656	1	15
526.996	1	1
527.337	1	-1
527.677	1	-2
528.017	1	4
528.357	1	-11
528.698	1	-4
529.038	1	2
529.378	1	1
529.718	1	19
530.058	1	10
530.399	1	5
530.739	1	12
531.079	1	5
531.419	1	10
531.760	1	3
532.100	1	2
532.440	1	8
532.780	1	-1
533.120	1	4
533.461	1	1
533.801	1	10
534.141	1	3
534.481	1	11
534.821	1	5
535.162	1	5
535.502	1	7
535.842	1	8
536.182	1	9
536.522	1	8
536.862	1	2
537.203	1	-2
537.543	1	-5
537.883	1	11
538.223	1	7
538.563	1	0
538.903	1	10
539.243	1	2
539.584	1	-6
539.924	1	3
540.264	1	12
540.604	1	4
540.944	1	-4
541.284	1	1
541.624	1	-4
541.964	1	5
542.305	1	18
542.645	1	-1
542.985	1	19
543.325	1	7
543.665	1	6
544.005	1	7
544.345	1	1
544.685	1	8
545.025	1	2
545.365	1	8
545.705	1	3
546.045	1	-1
546.386	1	4
546.726	1	1
547.066	1	18
547.406	1	8
547.746	1	10
548.086	1	4
548.426	1	8
548.766	1	2
549.106	1	3
549.446	1	7
549.786	1	-1
550.126	1	7
550.466	1	2
550.806	1	6
551.146	1	3
551.486	1	4
551.826	1	12
552.166	1	3
552.506	1	2
552.846	1	-2
553.186	1	6
553.526	1	0
553.866	1	6
554.206	1	4
554.546	1	-2
554.886	1	-4
555.226	1	-8
555.566	1	6
555.906	1	-4
556.246	1	-3
556.586	1	1
556.926	1	7
557.266	1	8
557.606	1	2
557.946	1	-1
558.286	1	6
558.626	1	9
558.966	1	-6
559.306	1	15
559.646	1	-6
559.986	1	2
560.325	1	1
560.665	1	11
561.005	1	9
561.345	1	-8
561.685	1	-4
562.025	1	-13
562.365	1	3
562.705	1	12
563.045	1	-5
563.385	1	8
563.725	1	-8
564.064	1	8
564.404	1	-1
564.744	1	3
565.084	1	6
565.424	1	2
565.764	1	5
566.104	1	7
566.444	1	3
566.783	1	12
567.123	1	2
567.463	1	5
567.803	1	4
568.143	1	9
568.483	1	-2
568.823	1	10
569.162	1	4
569.502	1	7
569.842	1	6
570.182	1	-3
570.522	1	8
570.862	1	3
571.201	1	8
571.541	1	-3
571.881	1	-6
572.221	1	6
572.561	1	9
572.900	1	1
573.240	1	1
573.580	1	-2
573.920	1	18
574.260	1	6
574.599	1	0
574.939	1	-4
575.279	1	-4
575.619	1	9
575.959	1	-3
576.298	1	3
576.638	1	12
576.978	1	4
577.318	1	7
577.657	1	-2
577.997	1	-5
578.337	1	2
578.677	1	7
579.016	1	5
579.356	1	1
579.696	1	0
580.036	1	-1
580.375	1	-2
580.715	1	0
581.055	1	3
581.394	1	3
581.734	1	11
582.074	1	8
582.414	1	4
582.753	1	6
583.093	1	10
583.433	1	18
583.772	1	-1
584.112	1	1
584.452	1	-1
584.791	1	10
585.131	1	1
585.471	1	12
585.811	1	-1
586.150	1	-3
586.490	1	9
586.830	1	-1
587.169	1	16
587.509	1	4
587.849	1	0
588.188	1	11
588.528	1	8
588.867	1	-6
589.207	1	-2
589.547	1	3
589.886	1	-6
590.226	1	3
590.566	1	7
590.905	1	12
591.245	1	3
591.585	1	3
591.924	1	2
592.264	1	-3
592.603	1	6
592.943	1	-1
593.283	1	8
593.622	1	-5
593.962	1	0
594.301	1	10
594.641	1	9
594.981	1	11
595.320	1	5
595.660	1	1
595.999	1	7
596.339	1	13
596.678	1	-5
597.018	1	8
597.358	1	-3
597.697	1	5
598.037	1	6
598.376	1	-11
598.716	1	6
599.055	1	5
599.395	1	9
599.734	1	7
600.074	1	-1
600.413	1	-12
600.753	1	0
601.092	1	4
601.432	1	-2
601.771	1	11
602.111	1	5
602.451	1	13
602.790	1	6
603.130	1	4
603.469	1	4
603.809	1	-4
604.148	1	1
604.487	1	5
604.827	1	-12
605.166	1	5
605.506	1	1
605.845	1	5
606.185	1	11
606.524	1	-1
606.864	1	-3
607.203	1	9
607.543	1	4
607.882	1	0
608.222	1	-1
608.561	1	5
608.901	1	10
609.240	1	3
609.579	1	1
609.919	1	-4
610.258	1	11
610.598	1	5
610.937	1	-2
611.277	1	1
611.616	1	4
611.955	1	5
612.295	1	-4
612.634	1	-5
612.974	1	1
613.313	1	3
613.652	1	12
613.992	1	5
614.331	1	-8
614.671	1	11
615.010	1	2
615.349	1	7
615.689	1	10
616.028	1	-2
616.368	1	-3
616.707	1	11
617.046	1	5
617.386	1	2
617.725	1	4
618.064	1	7
618.404	1	-1
618.743	1	9
619.082	1	12
619.422	1	-3
619.761	1	2
620.100	1	6
620.440	1	1
620.779	1	-13
621.118	1	-2
621.458	1	0
621.797	1	-3
622.136	1	-2
622.476	1	-6
622.815	1	6
623.154	1	6
623.494	1	6
623.833	1	5
624.172	1	2
624.511	1	2
624.851	1	0
625.190	1	4
625.529	1	8
625.869	1	5
626.208	1	5
626.547	1	-6
626.886	1	0
627.226	1	4
627.565	1	2
627.904	1	4
628.243	1	-2
628.583	1	-8
628.922	1	-3
629.261	1	7
629.600	1	0
629.940	1	-6
630.279	1	1
630.618	1	-6
630.957	1	3
631.297	1	4
631.636	1	10
631.975	1	-1
632.314	1	-3
632.653	1	2
632.993	1	1
633.332	1	2
633.671	1	13
634.010	1	11
634.349	1	-1
634.689	1	14
635.028	1	8
635.367	1	-6
635.706	1	0
636.045	1	9
636.384	1	-8
636.724	1	5
637.063	1	2
637.402	1	13
637.741	1	-11
638.080	1	6
638.419	1	-5
638.759	1	12
639.098	1	-7
639.437	1	-3
639.776	1	0
640.115	1	4
640.454	1	2
640.793	1	-7
641.132	1	-5
641.472	1	-5
641.811	1	15
642.150	1	-1
642.489	1	-7
642.828	1	2
643.167	1	-7
643.506	1	6
643.845	1	1
644.184	1	9
644.524	1	5
644.863	1	-7
645.202	1	6
645.541	1	8
645.880	1	-3
646.219	1	3
646.558	1	9
646.897	1	7
647.236	1	-1
647.575	1	-2
647.914	1	-1
648.253	1	-1
648.592	1	4
648.931	1	3
649.270	1	-1
649.610	1	6
649.949	1	-1
650.288	1	5
650.627	1	2
650.966	1	6
651.305	1	-6
651.644	1	6
651.983	1	6
652.322	1	0
652.661	1	6
653.000	1	-4
653.339	1	-6
653.678	1	-2
654.017	1	5
654.356	1	0
654.695	1	14
655.034	1	-3
655.373	1	4
655.712	1	-5
656.051	1	8
656.390	1	-9
656.729	1	-3
657.068	1	4
657.406	1	9
657.745	1	12
658.084	1	-13
658.423	1	-8
658.762	1	-3
659.101	1	0
659.440	1	4
659.779	1	9
660.118	1	5
660.457	1	4
660.796	1	4
661.135	1	-10
661.474	1	10
661.813	1	-4
662.152	1	5
662.491	1	-5
662.829	1	-7
663.168	1	5
663.507	1	6
663.846	1	0
664.185	1	8
664.524	1	-5
664.863	1	-5
665.202	1	15
665.541	1	-1
665.879	1	3
666.218	1	12
666.557	1	-8
666.896	1	-4
667.235	1	4
667.574	1	-7
667.913	1	-4
668.251	1	8
668.590	1	6
668.929	1	3
669.268	1	3
669.607	1	2
669.946	1	-2
670.285	1	11
670.623	1	2
670.962	1	-9
671.301	1	7
671.640	1	1
671.979	1	2
672.317	1	5
672.656	1	5
672.995	1	-6
673.334	1	-1
673.673	1	0
674.011	1	8
674.350	1	6
674.689	1	2
675.028	1	-1
675.367	1	-3
675.705	1	4
676.044	1	17
676.383	1	0
676.722	1	11
677.060	1	-5
677.399	1	7
677.738	1	5
678.077	1	9
678.416	1	-2
678.754	1	4
679.093	1	7
679.432	1	7
679.771	1	5
680.109	1	-7
680.448	1	5
680.787	1	-3
681.125	1	5
681.464	1	5
681.803	1	15
682.142	1	-3
682.480	1	8
682.819	1	6
683.158	1	4
683.496	1	8
683.835	1	-3
684.174	1	1
684.512	1	8
684.851	1	6
685.190	1	4
685.529	1	12
685.867	1	8
686.206	1	9
686.545	1	8
686.883	1	-5
687.222	1	3
687.561	1	1
687.899	1	-12
688.238	1	-2
688.577	1	11
688.746	1	-9