File: Data/GaN_170K_550ms/GaN_sample D_spot 18_UVVIS_170 K_200um_550 ms 2x2mm1_163.txt
340.368	1	-2
340.710	1	-12
341.052	1	5
341.394	1	5
341.737	1	-1
342.079	1	3
342.421	1	-1
342.763	1	8
343.105	1	20
343.447	1	-4
343.789	1	6
344.131	1	-10
344.473	1	6
344.815	1	14
345.157	1	-3
345.499	1	-3
345.841	1	0
346.183	1	5
346.526	1	3
346.868	1	7
347.210	1	-5
347.552	1	9
347.894	1	4
348.236	1	1
348.578	1	3
348.920	1	-2
349.262	1	-7
349.604	1	6
349.946	1	9
350.288	1	-6
350.630	1	11
350.972	1	-9
351.314	1	10
351.656	1	0
351.998	1	4
352.340	1	11
352.682	1	8
353.024	1	-1
353.366	1	8
353.708	1	10
354.050	1	-3
354.392	1	4
354.734	1	-4
355.076	1	1
355.418	1	0
355.760	1	-1
356.102	1	8
356.444	1	-9
356.785	1	10
357.127	1	0
357.469	1	4
357.811	1	9
358.153	1	15
358.495	1	6
358.837	1	11
359.179	1	3
359.521	1	16
359.863	1	8
360.205	1	14
360.547	1	16
360.889	1	10
361.231	1	4
361.572	1	18
361.914	1	10
362.256	1	9
362.598	1	12
362.940	1	29
363.282	1	15
363.624	1	13
363.966	1	17
364.308	1	28
364.649	1	9
364.991	1	19
365.333	1	20
365.675	1	20
366.017	1	10
366.359	1	27
366.701	1	22
367.042	1	25
367.384	1	38
367.726	1	44
368.068	1	38
368.410	1	29
368.752	1	30
369.093	1	18
369.435	1	22
369.777	1	37
370.119	1	37
370.461	1	35
370.803	1	27
371.144	1	33
371.486	1	14
371.828	1	39
372.170	1	24
372.512	1	17
372.853	1	28
373.195	1	14
373.537	1	27
373.879	1	14
374.220	1	22
374.562	1	15
374.904	1	20
375.246	1	11
375.588	1	10
375.929	1	14
376.271	1	18
376.613	1	15
376.955	1	22
377.296	1	5
377.638	1	14
377.980	1	0
378.321	1	16
378.663	1	16
379.005	1	9
379.347	1	9
379.688	1	8
380.030	1	14
380.372	1	11
380.714	1	16
381.055	1	16
381.397	1	12
381.739	1	1
382.080	1	4
382.422	1	-2
382.764	1	16
383.105	1	7
383.447	1	5
383.789	1	18
384.130	1	9
384.472	1	8
384.814	1	3
385.156	1	6
385.497	1	12
385.839	1	7
386.180	1	10
386.522	1	9
386.864	1	8
387.205	1	-1
387.547	1	10
387.889	1	15
388.230	1	-2
388.572	1	8
388.914	1	-5
389.255	1	6
389.597	1	2
389.939	1	-2
390.280	1	2
390.622	1	3
390.963	1	0
391.305	1	1
391.647	1	0
391.988	1	10
392.330	1	10
392.671	1	3
393.013	1	0
393.355	1	11
393.696	1	11
394.038	1	2
394.379	1	-4
394.721	1	8
395.062	1	1
395.404	1	18
395.746	1	9
396.087	1	-3
396.429	1	2
396.770	1	16
397.112	1	6
397.453	1	15
397.795	1	7
398.136	1	11
398.478	1	6
398.819	1	2
399.161	1	7
399.503	1	10
399.844	1	2
400.186	1	-2
400.527	1	14
400.869	1	2
401.210	1	6
401.552	1	-1
401.893	1	6
402.235	1	2
402.576	1	-2
402.918	1	2
403.259	1	12
403.601	1	16
403.942	1	6
404.284	1	-8
404.625	1	4
404.967	1	-2
405.308	1	7
405.649	1	3
405.991	1	2
406.332	1	-11
406.674	1	-10
407.015	1	6
407.357	1	-6
407.698	1	0
408.040	1	-5
408.381	1	4
408.722	1	-6
409.064	1	4
409.405	1	1
409.747	1	2
410.088	1	9
410.430	1	0
410.771	1	3
411.112	1	5
411.454	1	5
411.795	1	12
412.137	1	-9
412.478	1	-1
412.819	1	-1
413.161	1	8
413.502	1	-3
413.844	1	8
414.185	1	-2
414.526	1	4
414.868	1	5
415.209	1	-10
415.550	1	4
415.892	1	5
416.233	1	-1
416.575	1	-3
416.916	1	-6
417.257	1	-6
417.599	1	-2
417.940	1	3
418.281	1	-15
418.623	1	-3
418.964	1	-4
419.305	1	1
419.647	1	9
419.988	1	6
420.329	1	8
420.671	1	-8
421.012	1	-4
421.353	1	4
421.695	1	-5
422.036	1	6
422.377	1	6
422.718	1	6
423.060	1	-5
423.401	1	4
423.742	1	1
424.084	1	19
424.425	1	-6
424.766	1	-2
425.107	1	3
425.449	1	14
425.790	1	2
426.131	1	3
426.472	1	3
426.814	1	-3
427.155	1	19
427.496	1	-4
427.837	1	7
428.179	1	9
428.520	1	7
428.861	1	-1
429.202	1	-6
429.544	1	2
429.885	1	0
430.226	1	8
430.567	1	-3
430.909	1	6
431.250	1	10
431.591	1	11
431.932	1	-8
432.273	1	5
432.615	1	-2
432.956	1	5
433.297	1	-3
433.638	1	9
433.979	1	2
434.320	1	5
434.662	1	-11
435.003	1	13
435.344	1	1
435.685	1	-4
436.026	1	-8
436.368	1	11
436.709	1	3
437.050	1	-3
437.391	1	-8
437.732	1	7
438.073	1	-3
438.414	1	-2
438.756	1	5
439.097	1	-3
439.438	1	6
439.779	1	8
440.120	1	-2
440.461	1	16
440.802	1	8
441.143	1	2
441.485	1	-4
441.826	1	6
442.167	1	1
442.508	1	6
442.849	1	1
443.190	1	5
443.531	1	6
443.872	1	-6
444.213	1	7
444.554	1	1
444.895	1	-15
445.237	1	-9
445.578	1	10
445.919	1	6
446.260	1	7
446.601	1	4
446.942	1	-2
447.283	1	4
447.624	1	-7
447.965	1	0
448.306	1	0
448.647	1	-4
448.988	1	5
449.329	1	3
449.670	1	-9
450.011	1	9
450.352	1	-4
450.693	1	-9
451.034	1	-6
451.375	1	5
451.716	1	-1
452.057	1	-2
452.398	1	3
452.739	1	10
453.080	1	5
453.421	1	8
453.762	1	3
454.103	1	-7
454.444	1	0
454.785	1	-6
455.126	1	10
455.467	1	-9
455.808	1	9
456.149	1	-1
456.490	1	3
456.831	1	0
457.172	1	-10
457.513	1	1
457.854	1	6
458.195	1	3
458.536	1	-3
458.877	1	9
459.218	1	-1
459.559	1	-2
459.899	1	11
460.240	1	4
460.581	1	7
460.922	1	0
461.263	1	0
461.604	1	6
461.945	1	1
462.286	1	-5
462.627	1	9
462.968	1	1
463.309	1	3
463.649	1	8
463.990	1	-2
464.331	1	4
464.672	1	-6
465.013	1	10
465.354	1	-8
465.695	1	11
466.036	1	-2
466.376	1	-3
466.717	1	0
467.058	1	5
467.399	1	9
467.740	1	7
468.081	1	6
468.422	1	8
468.762	1	3
469.103	1	3
469.444	1	6
469.785	1	-6
470.126	1	5
470.467	1	6
470.807	1	-5
471.148	1	-2
471.489	1	4
471.830	1	3
472.171	1	9
472.511	1	8
472.852	1	6
473.193	1	8
473.534	1	4
473.875	1	-5
474.215	1	11
474.556	1	2
474.897	1	8
475.238	1	-2
475.578	1	2
475.919	1	2
476.260	1	9
476.601	1	7
476.942	1	-11
477.282	1	10
477.623	1	3
477.964	1	6
478.305	1	1
478.645	1	5
478.986	1	4
479.327	1	-10
479.667	1	-7
480.008	1	8
480.349	1	7
480.690	1	2
481.030	1	3
481.371	1	1
481.712	1	2
482.053	1	-6
482.393	1	-2
482.734	1	3
483.075	1	-4
483.415	1	4
483.756	1	3
484.097	1	-10
484.437	1	-1
484.778	1	-4
485.119	1	14
485.459	1	-1
485.800	1	-4
486.141	1	10
486.481	1	5
486.822	1	3
487.163	1	16
487.503	1	5
487.844	1	5
488.185	1	0
488.525	1	9
488.866	1	4
489.207	1	8
489.547	1	3
489.888	1	-2
490.228	1	-9
490.569	1	9
490.910	1	3
491.250	1	10
491.591	1	-3
491.932	1	6
492.272	1	16
492.613	1	-2
492.953	1	7
493.294	1	3
493.635	1	4
493.975	1	3
494.316	1	-5
494.656	1	2
494.997	1	7
495.337	1	13
495.678	1	-1
496.019	1	-6
496.359	1	-1
496.700	1	15
497.040	1	-4
497.381	1	7
497.721	1	1
498.062	1	5
498.403	1	13
498.743	1	7
499.084	1	5
499.424	1	8
499.765	1	-13
500.105	1	-7
500.446	1	6
500.786	1	4
501.127	1	7
501.467	1	-1
501.808	1	-1
502.148	1	13
502.489	1	3
502.829	1	-4
503.170	1	4
503.510	1	7
503.851	1	-1
504.191	1	0
504.532	1	-14
504.872	1	6
505.213	1	-1
505.553	1	-1
505.894	1	9
506.234	1	1
506.575	1	2
506.915	1	10
507.256	1	0
507.596	1	12
507.936	1	13
508.277	1	-1
508.617	1	11
508.958	1	2
509.298	1	1
509.639	1	5
509.979	1	10
510.319	1	-1
510.660	1	-4
511.000	1	1
511.341	1	11
511.681	1	-4
512.022	1	15
512.362	1	-1
512.702	1	-1
513.043	1	11
513.383	1	9
513.724	1	-5
514.064	1	22
514.404	1	-6
514.745	1	-3
515.085	1	11
515.425	1	1
515.766	1	3
516.106	1	13
516.447	1	9
516.787	1	3
517.127	1	3
517.468	1	7
517.808	1	13
518.148	1	6
518.489	1	17
518.829	1	0
519.169	1	0
519.510	1	6
519.850	1	5
520.190	1	1
520.531	1	5
520.871	1	-9
521.211	1	0
521.552	1	4
521.892	1	3
522.232	1	-4
522.573	1	10
522.913	1	8
523.253	1	18
523.593	1	3
523.934	1	0
524.274	1	-2
524.614	1	5
524.955	1	11
525.295	1	2
525.635	1	9
525.975	1	-1
526.316	1	6
526.656	1	9
526.996	1	12
527.337	1	0
527.677	1	-6
528.017	1	9
528.357	1	3
528.698	1	0
529.038	1	6
529.378	1	10
529.718	1	18
530.058	1	15
530.399	1	8
530.739	1	11
531.079	1	8
531.419	1	14
531.760	1	1
532.100	1	3
532.440	1	4
532.780	1	-4
533.120	1	5
533.461	1	4
533.801	1	12
534.141	1	-4
534.481	1	7
534.821	1	8
535.162	1	12
535.502	1	12
535.842	1	8
536.182	1	6
536.522	1	8
536.862	1	11
537.203	1	7
537.543	1	1
537.883	1	10
538.223	1	11
538.563	1	9
538.903	1	8
539.243	1	-2
539.584	1	8
539.924	1	-9
540.264	1	14
540.604	1	4
540.944	1	14
541.284	1	4
541.624	1	-9
541.964	1	11
542.305	1	6
542.645	1	2
542.985	1	13
543.325	1	0
543.665	1	-4
544.005	1	16
544.345	1	7
544.685	1	6
545.025	1	-1
545.365	1	-1
545.705	1	7
546.045	1	10
546.386	1	9
546.726	1	3
547.066	1	12
547.406	1	15
547.746	1	-6
548.086	1	8
548.426	1	10
548.766	1	15
549.106	1	17
549.446	1	8
549.786	1	1
550.126	1	7
550.466	1	8
550.806	1	5
551.146	1	8
551.486	1	0
551.826	1	8
552.166	1	1
552.506	1	4
552.846	1	5
553.186	1	0
553.526	1	-8
553.866	1	-4
554.206	1	11
554.546	1	-13
554.886	1	10
555.226	1	-4
555.566	1	-1
555.906	1	-11
556.246	1	13
556.586	1	-6
556.926	1	10
557.266	1	11
557.606	1	12
557.946	1	8
558.286	1	7
558.626	1	16
558.966	1	7
559.306	1	10
559.646	1	0
559.986	1	10
560.325	1	11
560.665	1	-8
561.005	1	2
561.345	1	-4
561.685	1	1
562.025	1	-9
562.365	1	9
562.705	1	5
563.045	1	2
563.385	1	7
563.725	1	-4
564.064	1	6
564.404	1	6
564.744	1	4
565.084	1	1
565.424	1	5
565.764	1	5
566.104	1	4
566.444	1	11
566.783	1	1
567.123	1	7
567.463	1	-2
567.803	1	10
568.143	1	3
568.483	1	5
568.823	1	0
569.162	1	5
569.502	1	5
569.842	1	2
570.182	1	1
570.522	1	1
570.862	1	3
571.201	1	3
571.541	1	-2
571.881	1	2
572.221	1	3
572.561	1	6
572.900	1	1
573.240	1	2
573.580	1	7
573.920	1	8
574.260	1	5
574.599	1	-12
574.939	1	-1
575.279	1	4
575.619	1	16
575.959	1	-11
576.298	1	6
576.638	1	11
576.978	1	4
577.318	1	2
577.657	1	7
577.997	1	-4
578.337	1	4
578.677	1	11
579.016	1	6
579.356	1	10
579.696	1	-4
580.036	1	8
580.375	1	1
580.715	1	15
581.055	1	6
581.394	1	1
581.734	1	5
582.074	1	2
582.414	1	0
582.753	1	2
583.093	1	0
583.433	1	9
583.772	1	8
584.112	1	5
584.452	1	-1
584.791	1	6
585.131	1	10
585.471	1	6
585.811	1	-13
586.150	1	6
586.490	1	1
586.830	1	5
587.169	1	15
587.509	1	6
587.849	1	-4
588.188	1	-5
588.528	1	1
588.867	1	3
589.207	1	-4
589.547	1	2
589.886	1	-7
590.226	1	2
590.566	1	0
590.905	1	9
591.245	1	-2
591.585	1	8
591.924	1	2
592.264	1	-8
592.603	1	-6
592.943	1	4
593.283	1	3
593.622	1	-9
593.962	1	-1
594.301	1	10
594.641	1	2
594.981	1	12
595.320	1	9
595.660	1	5
595.999	1	5
596.339	1	-4
596.678	1	-5
597.018	1	7
597.358	1	-1
597.697	1	0
598.037	1	-2
598.376	1	-6
598.716	1	9
599.055	1	8
599.395	1	-2
599.734	1	15
600.074	1	0
600.413	1	2
600.753	1	9
601.092	1	-4
601.432	1	-7
601.771	1	9
602.111	1	2
602.451	1	13
602.790	1	10
603.130	1	-6
603.469	1	0
603.809	1	2
604.148	1	5
604.487	1	3
604.827	1	-10
605.166	1	6
605.506	1	0
605.845	1	5
606.185	1	2
606.524	1	13
606.864	1	3
607.203	1	-2
607.543	1	8
607.882	1	-5
608.222	1	-1
608.561	1	10
608.901	1	0
609.240	1	-4
609.579	1	9
609.919	1	1
610.258	1	3
610.598	1	8
610.937	1	-2
611.277	1	5
611.616	1	2
611.955	1	8
612.295	1	1
612.634	1	6
612.974	1	1
613.313	1	0
613.652	1	20
613.992	1	-1
614.331	1	0
614.671	1	14
615.010	1	7
615.349	1	15
615.689	1	8
616.028	1	1
616.368	1	9
616.707	1	4
617.046	1	1
617.386	1	-3
617.725	1	10
618.064	1	9
618.404	1	2
618.743	1	2
619.082	1	2
619.422	1	-9
619.761	1	-4
620.100	1	4
620.440	1	8
620.779	1	-4
621.118	1	-3
621.458	1	3
621.797	1	2
622.136	1	4
622.476	1	-3
622.815	1	7
623.154	1	2
623.494	1	-1
623.833	1	2
624.172	1	5
624.511	1	5
624.851	1	-2
625.190	1	2
625.529	1	14
625.869	1	9
626.208	1	1
626.547	1	-5
626.886	1	0
627.226	1	7
627.565	1	6
627.904	1	-3
628.243	1	2
628.583	1	-4
628.922	1	-5
629.261	1	0
629.600	1	-11
629.940	1	0
630.279	1	5
630.618	1	-1
630.957	1	8
631.297	1	-9
631.636	1	12
631.975	1	-3
632.314	1	5
632.653	1	8
632.993	1	0
633.332	1	0
633.671	1	10
634.010	1	4
634.349	1	-9
634.689	1	10
635.028	1	-2
635.367	1	-6
635.706	1	1
636.045	1	3
636.384	1	-3
636.724	1	7
637.063	1	3
637.402	1	10
637.741	1	-2
638.080	1	8
638.419	1	-10
638.759	1	6
639.098	1	-2
639.437	1	-11
639.776	1	1
640.115	1	1
640.454	1	-4
640.793	1	-2
641.132	1	-2
641.472	1	-1
641.811	1	15
642.150	1	5
642.489	1	0
642.828	1	3
643.167	1	-3
643.506	1	2
643.845	1	4
644.184	1	13
644.524	1	4
644.863	1	-9
645.202	1	9
645.541	1	-1
645.880	1	12
646.219	1	-2
646.558	1	11
646.897	1	8
647.236	1	5
647.575	1	-1
647.914	1	6
648.253	1	0
648.592	1	-1
648.931	1	10
649.270	1	0
649.610	1	8
649.949	1	-10
650.288	1	-3
650.627	1	-5
650.966	1	13
651.305	1	-2
651.644	1	4
651.983	1	9
652.322	1	5
652.661	1	5
653.000	1	-2
653.339	1	2
653.678	1	6
654.017	1	-2
654.356	1	6
654.695	1	7
655.034	1	4
655.373	1	-2
655.712	1	-10
656.051	1	2
656.390	1	5
656.729	1	15
657.068	1	2
657.406	1	-5
657.745	1	13
658.084	1	-4
658.423	1	2
658.762	1	-2
659.101	1	10
659.440	1	6
659.779	1	0
660.118	1	11
660.457	1	8
660.796	1	8
661.135	1	-10
661.474	1	2
661.813	1	2
662.152	1	9
662.491	1	-7
662.829	1	4
663.168	1	0
663.507	1	5
663.846	1	-4
664.185	1	3
664.524	1	-1
664.863	1	4
665.202	1	15
665.541	1	5
665.879	1	16
666.218	1	10
666.557	1	0
666.896	1	-1
667.235	1	3
667.574	1	-5
667.913	1	-4
668.251	1	11
668.590	1	-4
668.929	1	4
669.268	1	4
669.607	1	-7
669.946	1	0
670.285	1	11
670.623	1	0
670.962	1	-2
671.301	1	0
671.640	1	4
671.979	1	7
672.317	1	5
672.656	1	6
672.995	1	-3
673.334	1	-4
673.673	1	0
674.011	1	7
674.350	1	8
674.689	1	5
675.028	1	6
675.367	1	-2
675.705	1	10
676.044	1	11
676.383	1	-3
676.722	1	10
677.060	1	-5
677.399	1	0
677.738	1	2
678.077	1	20
678.416	1	-2
678.754	1	7
679.093	1	3
679.432	1	2
679.771	1	6
680.109	1	2
680.448	1	1
680.787	1	-11
681.125	1	4
681.464	1	-1
681.803	1	2
682.142	1	3
682.480	1	2
682.819	1	12
683.158	1	-7
683.496	1	7
683.835	1	-1
684.174	1	-1
684.512	1	-1
684.851	1	-3
685.190	1	4
685.529	1	12
685.867	1	8
686.206	1	4
686.545	1	3
686.883	1	7
687.222	1	2
687.561	1	2
687.899	1	-8
688.238	1	2
688.577	1	10
688.746	1	-3