File: Data/GaN_170K_550ms/GaN_sample D_spot 18_UVVIS_170 K_200um_550 ms 2x2mm1_182.txt
340.368	1	-13
340.710	1	-15
341.052	1	2
341.394	1	5
341.737	1	5
342.079	1	-7
342.421	1	4
342.763	1	3
343.105	1	7
343.447	1	5
343.789	1	10
344.131	1	6
344.473	1	2
344.815	1	9
345.157	1	3
345.499	1	-2
345.841	1	-1
346.183	1	5
346.526	1	0
346.868	1	15
347.210	1	-14
347.552	1	14
347.894	1	-1
348.236	1	-3
348.578	1	6
348.920	1	8
349.262	1	-1
349.604	1	13
349.946	1	-2
350.288	1	7
350.630	1	6
350.972	1	-4
351.314	1	2
351.656	1	-9
351.998	1	6
352.340	1	1
352.682	1	0
353.024	1	3
353.366	1	10
353.708	1	16
354.050	1	-1
354.392	1	-1
354.734	1	4
355.076	1	11
355.418	1	-4
355.760	1	1
356.102	1	5
356.444	1	-1
356.785	1	6
357.127	1	3
357.469	1	6
357.811	1	6
358.153	1	11
358.495	1	5
358.837	1	5
359.179	1	-1
359.521	1	8
359.863	1	3
360.205	1	9
360.547	1	3
360.889	1	6
361.231	1	9
361.572	1	11
361.914	1	14
362.256	1	14
362.598	1	10
362.940	1	12
363.282	1	15
363.624	1	8
363.966	1	10
364.308	1	20
364.649	1	8
364.991	1	22
365.333	1	16
365.675	1	15
366.017	1	15
366.359	1	14
366.701	1	23
367.042	1	19
367.384	1	25
367.726	1	27
368.068	1	30
368.410	1	27
368.752	1	21
369.093	1	15
369.435	1	15
369.777	1	23
370.119	1	19
370.461	1	24
370.803	1	19
371.144	1	11
371.486	1	15
371.828	1	21
372.170	1	14
372.512	1	21
372.853	1	26
373.195	1	25
373.537	1	24
373.879	1	18
374.220	1	20
374.562	1	9
374.904	1	6
375.246	1	14
375.588	1	14
375.929	1	9
376.271	1	11
376.613	1	17
376.955	1	20
377.296	1	10
377.638	1	17
377.980	1	-3
378.321	1	11
378.663	1	14
379.005	1	12
379.347	1	8
379.688	1	8
380.030	1	13
380.372	1	11
380.714	1	14
381.055	1	7
381.397	1	15
381.739	1	2
382.080	1	3
382.422	1	4
382.764	1	-2
383.105	1	-4
383.447	1	3
383.789	1	9
384.130	1	-4
384.472	1	0
384.814	1	9
385.156	1	2
385.497	1	11
385.839	1	0
386.180	1	10
386.522	1	14
386.864	1	7
387.205	1	-4
387.547	1	7
387.889	1	4
388.230	1	1
388.572	1	4
388.914	1	1
389.255	1	8
389.597	1	1
389.939	1	6
390.280	1	5
390.622	1	8
390.963	1	4
391.305	1	-5
391.647	1	2
391.988	1	14
392.330	1	8
392.671	1	3
393.013	1	4
393.355	1	12
393.696	1	4
394.038	1	-6
394.379	1	1
394.721	1	7
395.062	1	2
395.404	1	2
395.746	1	9
396.087	1	3
396.429	1	3
396.770	1	2
397.112	1	0
397.453	1	11
397.795	1	0
398.136	1	3
398.478	1	-3
398.819	1	4
399.161	1	1
399.503	1	6
399.844	1	-1
400.186	1	0
400.527	1	10
400.869	1	-3
401.210	1	4
401.552	1	-11
401.893	1	-1
402.235	1	9
402.576	1	-2
402.918	1	7
403.259	1	9
403.601	1	20
403.942	1	4
404.284	1	-14
404.625	1	6
404.967	1	-4
405.308	1	6
405.649	1	1
405.991	1	2
406.332	1	-3
406.674	1	5
407.015	1	14
407.357	1	2
407.698	1	12
408.040	1	-4
408.381	1	6
408.722	1	-2
409.064	1	6
409.405	1	3
409.747	1	10
410.088	1	14
410.430	1	0
410.771	1	-1
411.112	1	4
411.454	1	1
411.795	1	4
412.137	1	-7
412.478	1	-2
412.819	1	-3
413.161	1	10
413.502	1	-2
413.844	1	10
414.185	1	0
414.526	1	5
414.868	1	2
415.209	1	-10
415.550	1	-5
415.892	1	8
416.233	1	7
416.575	1	3
416.916	1	-2
417.257	1	2
417.599	1	0
417.940	1	10
418.281	1	-1
418.623	1	-8
418.964	1	-3
419.305	1	-2
419.647	1	4
419.988	1	8
420.329	1	1
420.671	1	1
421.012	1	3
421.353	1	7
421.695	1	-8
422.036	1	5
422.377	1	3
422.718	1	11
423.060	1	-4
423.401	1	6
423.742	1	-7
424.084	1	16
424.425	1	-10
424.766	1	-1
425.107	1	-4
425.449	1	6
425.790	1	-4
426.131	1	8
426.472	1	-10
426.814	1	-6
427.155	1	17
427.496	1	-11
427.837	1	11
428.179	1	0
428.520	1	3
428.861	1	6
429.202	1	-3
429.544	1	-6
429.885	1	6
430.226	1	11
430.567	1	6
430.909	1	-3
431.250	1	21
431.591	1	6
431.932	1	0
432.273	1	-7
432.615	1	11
432.956	1	2
433.297	1	-2
433.638	1	10
433.979	1	6
434.320	1	2
434.662	1	-9
435.003	1	7
435.344	1	-2
435.685	1	3
436.026	1	5
436.368	1	4
436.709	1	-2
437.050	1	-12
437.391	1	-2
437.732	1	4
438.073	1	4
438.414	1	-9
438.756	1	-1
439.097	1	1
439.438	1	-2
439.779	1	8
440.120	1	-6
440.461	1	8
440.802	1	2
441.143	1	4
441.485	1	-6
441.826	1	6
442.167	1	7
442.508	1	-8
442.849	1	-4
443.190	1	-2
443.531	1	10
443.872	1	-7
444.213	1	-5
444.554	1	5
444.895	1	-18
445.237	1	-4
445.578	1	11
445.919	1	3
446.260	1	5
446.601	1	0
446.942	1	4
447.283	1	6
447.624	1	-1
447.965	1	-1
448.306	1	-2
448.647	1	-1
448.988	1	8
449.329	1	6
449.670	1	-5
450.011	1	1
450.352	1	-3
450.693	1	2
451.034	1	-6
451.375	1	7
451.716	1	10
452.057	1	2
452.398	1	11
452.739	1	6
453.080	1	-2
453.421	1	1
453.762	1	2
454.103	1	-5
454.444	1	-4
454.785	1	-9
455.126	1	14
455.467	1	-10
455.808	1	15
456.149	1	1
456.490	1	9
456.831	1	-5
457.172	1	-5
457.513	1	4
457.854	1	10
458.195	1	-3
458.536	1	-5
458.877	1	4
459.218	1	-1
459.559	1	1
459.899	1	3
460.240	1	3
460.581	1	3
460.922	1	0
461.263	1	3
461.604	1	4
461.945	1	0
462.286	1	1
462.627	1	4
462.968	1	11
463.309	1	7
463.649	1	6
463.990	1	1
464.331	1	-9
464.672	1	-4
465.013	1	3
465.354	1	-5
465.695	1	4
466.036	1	-3
466.376	1	6
466.717	1	-3
467.058	1	3
467.399	1	15
467.740	1	3
468.081	1	6
468.422	1	3
468.762	1	9
469.103	1	4
469.444	1	4
469.785	1	-8
470.126	1	0
470.467	1	6
470.807	1	-4
471.148	1	-2
471.489	1	-1
471.830	1	-4
472.171	1	8
472.511	1	-6
472.852	1	-9
473.193	1	2
473.534	1	0
473.875	1	-1
474.215	1	3
474.556	1	10
474.897	1	-1
475.238	1	-1
475.578	1	6
475.919	1	3
476.260	1	9
476.601	1	1
476.942	1	0
477.282	1	7
477.623	1	11
477.964	1	-1
478.305	1	2
478.645	1	9
478.986	1	-3
479.327	1	-7
479.667	1	-2
480.008	1	0
480.349	1	-2
480.690	1	-1
481.030	1	-5
481.371	1	0
481.712	1	3
482.053	1	-8
482.393	1	-3
482.734	1	14
483.075	1	-2
483.415	1	2
483.756	1	6
484.097	1	-8
484.437	1	-7
484.778	1	-7
485.119	1	0
485.459	1	-3
485.800	1	-2
486.141	1	-1
486.481	1	2
486.822	1	2
487.163	1	3
487.503	1	-6
487.844	1	6
488.185	1	1
488.525	1	8
488.866	1	-1
489.207	1	6
489.547	1	2
489.888	1	6
490.228	1	-5
490.569	1	0
490.910	1	-9
491.250	1	-4
491.591	1	1
491.932	1	6
492.272	1	5
492.613	1	16
492.953	1	-3
493.294	1	3
493.635	1	-7
493.975	1	-3
494.316	1	4
494.656	1	9
494.997	1	4
495.337	1	11
495.678	1	2
496.019	1	-9
496.359	1	4
496.700	1	11
497.040	1	3
497.381	1	7
497.721	1	-2
498.062	1	3
498.403	1	15
498.743	1	4
499.084	1	3
499.424	1	8
499.765	1	-8
500.105	1	0
500.446	1	4
500.786	1	4
501.127	1	2
501.467	1	7
501.808	1	3
502.148	1	14
502.489	1	4
502.829	1	2
503.170	1	18
503.510	1	6
503.851	1	1
504.191	1	-3
504.532	1	-9
504.872	1	-2
505.213	1	-14
505.553	1	-6
505.894	1	14
506.234	1	-10
506.575	1	9
506.915	1	-4
507.256	1	-8
507.596	1	12
507.936	1	13
508.277	1	-11
508.617	1	8
508.958	1	2
509.298	1	2
509.639	1	19
509.979	1	0
510.319	1	-4
510.660	1	-10
511.000	1	-1
511.341	1	2
511.681	1	4
512.022	1	5
512.362	1	6
512.702	1	3
513.043	1	0
513.383	1	0
513.724	1	-2
514.064	1	4
514.404	1	-5
514.745	1	-3
515.085	1	1
515.425	1	3
515.766	1	8
516.106	1	6
516.447	1	-3
516.787	1	5
517.127	1	5
517.468	1	10
517.808	1	16
518.148	1	9
518.489	1	19
518.829	1	3
519.169	1	5
519.510	1	11
519.850	1	3
520.190	1	4
520.531	1	12
520.871	1	2
521.211	1	9
521.552	1	5
521.892	1	8
522.232	1	-2
522.573	1	1
522.913	1	5
523.253	1	12
523.593	1	3
523.934	1	2
524.274	1	7
524.614	1	8
524.955	1	0
525.295	1	8
525.635	1	15
525.975	1	4
526.316	1	8
526.656	1	9
526.996	1	10
527.337	1	-2
527.677	1	2
528.017	1	5
528.357	1	-3
528.698	1	-6
529.038	1	1
529.378	1	9
529.718	1	15
530.058	1	8
530.399	1	8
530.739	1	2
531.079	1	5
531.419	1	13
531.760	1	-1
532.100	1	7
532.440	1	10
532.780	1	-1
533.120	1	2
533.461	1	-2
533.801	1	1
534.141	1	0
534.481	1	15
534.821	1	9
535.162	1	3
535.502	1	-1
535.842	1	11
536.182	1	1
536.522	1	11
536.862	1	8
537.203	1	5
537.543	1	-4
537.883	1	12
538.223	1	6
538.563	1	3
538.903	1	11
539.243	1	0
539.584	1	3
539.924	1	-2
540.264	1	7
540.604	1	2
540.944	1	7
541.284	1	9
541.624	1	-14
541.964	1	13
542.305	1	8
542.645	1	0
542.985	1	7
543.325	1	4
543.665	1	7
544.005	1	11
544.345	1	10
544.685	1	0
545.025	1	-5
545.365	1	2
545.705	1	8
546.045	1	8
546.386	1	7
546.726	1	3
547.066	1	12
547.406	1	3
547.746	1	6
548.086	1	11
548.426	1	9
548.766	1	-8
549.106	1	6
549.446	1	11
549.786	1	4
550.126	1	-1
550.466	1	0
550.806	1	3
551.146	1	6
551.486	1	10
551.826	1	9
552.166	1	-2
552.506	1	9
552.846	1	7
553.186	1	4
553.526	1	-7
553.866	1	-7
554.206	1	7
554.546	1	2
554.886	1	7
555.226	1	-8
555.566	1	9
555.906	1	-2
556.246	1	9
556.586	1	-1
556.926	1	7
557.266	1	3
557.606	1	0
557.946	1	8
558.286	1	-2
558.626	1	4
558.966	1	7
559.306	1	1
559.646	1	-2
559.986	1	8
560.325	1	-1
560.665	1	6
561.005	1	2
561.345	1	-6
561.685	1	2
562.025	1	-4
562.365	1	5
562.705	1	13
563.045	1	5
563.385	1	13
563.725	1	5
564.064	1	0
564.404	1	-6
564.744	1	2
565.084	1	6
565.424	1	4
565.764	1	-3
566.104	1	6
566.444	1	12
566.783	1	6
567.123	1	2
567.463	1	3
567.803	1	7
568.143	1	3
568.483	1	4
568.823	1	-1
569.162	1	3
569.502	1	-5
569.842	1	-2
570.182	1	3
570.522	1	6
570.862	1	-2
571.201	1	3
571.541	1	1
571.881	1	-6
572.221	1	6
572.561	1	-2
572.900	1	4
573.240	1	4
573.580	1	4
573.920	1	14
574.260	1	13
574.599	1	-4
574.939	1	-2
575.279	1	10
575.619	1	3
575.959	1	-1
576.298	1	2
576.638	1	4
576.978	1	-1
577.318	1	-3
577.657	1	5
577.997	1	-1
578.337	1	5
578.677	1	-2
579.016	1	2
579.356	1	5
579.696	1	-2
580.036	1	1
580.375	1	-1
580.715	1	10
581.055	1	3
581.394	1	4
581.734	1	7
582.074	1	4
582.414	1	-2
582.753	1	5
583.093	1	12
583.433	1	7
583.772	1	5
584.112	1	1
584.452	1	0
584.791	1	9
585.131	1	19
585.471	1	2
585.811	1	-6
586.150	1	-3
586.490	1	16
586.830	1	-7
587.169	1	13
587.509	1	4
587.849	1	1
588.188	1	5
588.528	1	-3
588.867	1	-4
589.207	1	10
589.547	1	5
589.886	1	0
590.226	1	6
590.566	1	-1
590.905	1	9
591.245	1	0
591.585	1	2
591.924	1	-1
592.264	1	0
592.603	1	-1
592.943	1	1
593.283	1	2
593.622	1	-6
593.962	1	1
594.301	1	-3
594.641	1	9
594.981	1	8
595.320	1	1
595.660	1	2
595.999	1	7
596.339	1	14
596.678	1	-2
597.018	1	2
597.358	1	-9
597.697	1	-2
598.037	1	-2
598.376	1	-2
598.716	1	3
599.055	1	3
599.395	1	0
599.734	1	10
600.074	1	3
600.413	1	-2
600.753	1	9
601.092	1	3
601.432	1	2
601.771	1	5
602.111	1	-2
602.451	1	5
602.790	1	6
603.130	1	-2
603.469	1	8
603.809	1	-1
604.148	1	4
604.487	1	15
604.827	1	1
605.166	1	3
605.506	1	-2
605.845	1	3
606.185	1	14
606.524	1	-4
606.864	1	2
607.203	1	9
607.543	1	11
607.882	1	-5
608.222	1	8
608.561	1	12
608.901	1	-1
609.240	1	-2
609.579	1	4
609.919	1	7
610.258	1	7
610.598	1	9
610.937	1	5
611.277	1	-9
611.616	1	4
611.955	1	4
612.295	1	3
612.634	1	0
612.974	1	10
613.313	1	-2
613.652	1	13
613.992	1	7
614.331	1	8
614.671	1	10
615.010	1	9
615.349	1	-2
615.689	1	6
616.028	1	-5
616.368	1	8
616.707	1	17
617.046	1	-3
617.386	1	-5
617.725	1	3
618.064	1	7
618.404	1	1
618.743	1	6
619.082	1	15
619.422	1	-2
619.761	1	-3
620.100	1	-1
620.440	1	7
620.779	1	6
621.118	1	-1
621.458	1	1
621.797	1	1
622.136	1	4
622.476	1	-8
622.815	1	2
623.154	1	-1
623.494	1	2
623.833	1	2
624.172	1	4
624.511	1	0
624.851	1	-3
625.190	1	0
625.529	1	8
625.869	1	9
626.208	1	7
626.547	1	-4
626.886	1	-4
627.226	1	9
627.565	1	2
627.904	1	3
628.243	1	-5
628.583	1	-6
628.922	1	-7
629.261	1	7
629.600	1	0
629.940	1	-3
630.279	1	1
630.618	1	3
630.957	1	7
631.297	1	-4
631.636	1	9
631.975	1	0
632.314	1	6
632.653	1	2
632.993	1	11
633.332	1	5
633.671	1	7
634.010	1	0
634.349	1	1
634.689	1	2
635.028	1	8
635.367	1	7
635.706	1	4
636.045	1	8
636.384	1	-6
636.724	1	5
637.063	1	5
637.402	1	8
637.741	1	1
638.080	1	3
638.419	1	-13
638.759	1	-2
639.098	1	-5
639.437	1	-8
639.776	1	8
640.115	1	3
640.454	1	-1
640.793	1	-4
641.132	1	4
641.472	1	-3
641.811	1	6
642.150	1	0
642.489	1	0
642.828	1	7
643.167	1	-10
643.506	1	9
643.845	1	8
644.184	1	8
644.524	1	1
644.863	1	-17
645.202	1	12
645.541	1	3
645.880	1	9
646.219	1	5
646.558	1	11
646.897	1	6
647.236	1	0
647.575	1	-4
647.914	1	3
648.253	1	5
648.592	1	3
648.931	1	6
649.270	1	-2
649.610	1	10
649.949	1	1
650.288	1	3
650.627	1	2
650.966	1	3
651.305	1	-10
651.644	1	9
651.983	1	4
652.322	1	2
652.661	1	8
653.000	1	-6
653.339	1	-4
653.678	1	3
654.017	1	6
654.356	1	-3
654.695	1	11
655.034	1	-3
655.373	1	8
655.712	1	-6
656.051	1	-1
656.390	1	4
656.729	1	-3
657.068	1	16
657.406	1	-3
657.745	1	7
658.084	1	-5
658.423	1	-9
658.762	1	-4
659.101	1	-4
659.440	1	4
659.779	1	6
660.118	1	0
660.457	1	9
660.796	1	1
661.135	1	-6
661.474	1	6
661.813	1	4
662.152	1	3
662.491	1	-5
662.829	1	5
663.168	1	2
663.507	1	4
663.846	1	4
664.185	1	1
664.524	1	6
664.863	1	4
665.202	1	10
665.541	1	-4
665.879	1	3
666.218	1	9
666.557	1	-5
666.896	1	-1
667.235	1	0
667.574	1	-14
667.913	1	-7
668.251	1	1
668.590	1	0
668.929	1	12
669.268	1	-2
669.607	1	5
669.946	1	6
670.285	1	19
670.623	1	2
670.962	1	1
671.301	1	10
671.640	1	4
671.979	1	5
672.317	1	5
672.656	1	5
672.995	1	-9
673.334	1	1
673.673	1	4
674.011	1	10
674.350	1	5
674.689	1	5
675.028	1	-10
675.367	1	-8
675.705	1	10
676.044	1	9
676.383	1	2
676.722	1	11
677.060	1	-5
677.399	1	1
677.738	1	-4
678.077	1	13
678.416	1	-7
678.754	1	7
679.093	1	4
679.432	1	3
679.771	1	4
680.109	1	2
680.448	1	4
680.787	1	1
681.125	1	1
681.464	1	11
681.803	1	10
682.142	1	-7
682.480	1	-2
682.819	1	2
683.158	1	5
683.496	1	8
683.835	1	-1
684.174	1	-1
684.512	1	1
684.851	1	1
685.190	1	-3
685.529	1	10
685.867	1	16
686.206	1	3
686.545	1	12
686.883	1	3
687.222	1	-9
687.561	1	3
687.899	1	-4
688.238	1	-4
688.577	1	5
688.746	1	-1