File: Data/GaN_170K_550ms/GaN_sample D_spot 18_UVVIS_170 K_200um_550 ms 2x2mm1_68.txt
340.368	1	10
340.710	1	-10
341.052	1	6
341.394	1	4
341.737	1	2
342.079	1	4
342.421	1	8
342.763	1	-4
343.105	1	4
343.447	1	-4
343.789	1	9
344.131	1	4
344.473	1	7
344.815	1	5
345.157	1	9
345.499	1	0
345.841	1	3
346.183	1	9
346.526	1	8
346.868	1	12
347.210	1	-4
347.552	1	18
347.894	1	5
348.236	1	4
348.578	1	3
348.920	1	4
349.262	1	4
349.604	1	15
349.946	1	14
350.288	1	2
350.630	1	7
350.972	1	1
351.314	1	11
351.656	1	16
351.998	1	5
352.340	1	11
352.682	1	8
353.024	1	4
353.366	1	23
353.708	1	19
354.050	1	4
354.392	1	2
354.734	1	11
355.076	1	10
355.418	1	7
355.760	1	20
356.102	1	18
356.444	1	19
356.785	1	18
357.127	1	15
357.469	1	20
357.811	1	28
358.153	1	33
358.495	1	31
358.837	1	34
359.179	1	25
359.521	1	45
359.863	1	43
360.205	1	53
360.547	1	63
360.889	1	62
361.231	1	65
361.572	1	83
361.914	1	76
362.256	1	73
362.598	1	97
362.940	1	116
363.282	1	121
363.624	1	125
363.966	1	140
364.308	1	161
364.649	1	161
364.991	1	190
365.333	1	206
365.675	1	240
366.017	1	246
366.359	1	272
366.701	1	291
367.042	1	302
367.384	1	347
367.726	1	356
368.068	1	353
368.410	1	361
368.752	1	368
369.093	1	343
369.435	1	363
369.777	1	343
370.119	1	327
370.461	1	333
370.803	1	301
371.144	1	290
371.486	1	257
371.828	1	255
372.170	1	260
372.512	1	240
372.853	1	232
373.195	1	221
373.537	1	209
373.879	1	171
374.220	1	179
374.562	1	164
374.904	1	143
375.246	1	162
375.588	1	141
375.929	1	135
376.271	1	134
376.613	1	120
376.955	1	117
377.296	1	100
377.638	1	97
377.980	1	91
378.321	1	100
378.663	1	91
379.005	1	78
379.347	1	73
379.688	1	78
380.030	1	76
380.372	1	61
380.714	1	70
381.055	1	69
381.397	1	70
381.739	1	56
382.080	1	51
382.422	1	55
382.764	1	54
383.105	1	54
383.447	1	62
383.789	1	60
384.130	1	45
384.472	1	42
384.814	1	55
385.156	1	37
385.497	1	52
385.839	1	35
386.180	1	45
386.522	1	43
386.864	1	46
387.205	1	30
387.547	1	30
387.889	1	30
388.230	1	31
388.572	1	42
388.914	1	33
389.255	1	25
389.597	1	36
389.939	1	25
390.280	1	29
390.622	1	26
390.963	1	32
391.305	1	18
391.647	1	15
391.988	1	27
392.330	1	22
392.671	1	14
393.013	1	17
393.355	1	24
393.696	1	26
394.038	1	10
394.379	1	4
394.721	1	9
395.062	1	13
395.404	1	18
395.746	1	27
396.087	1	22
396.429	1	11
396.770	1	19
397.112	1	4
397.453	1	21
397.795	1	13
398.136	1	12
398.478	1	1
398.819	1	8
399.161	1	2
399.503	1	22
399.844	1	12
400.186	1	4
400.527	1	29
400.869	1	22
401.210	1	11
401.552	1	6
401.893	1	19
402.235	1	16
402.576	1	17
402.918	1	9
403.259	1	8
403.601	1	20
403.942	1	21
404.284	1	6
404.625	1	7
404.967	1	15
405.308	1	14
405.649	1	11
405.991	1	6
406.332	1	5
406.674	1	19
407.015	1	17
407.357	1	0
407.698	1	9
408.040	1	9
408.381	1	6
408.722	1	11
409.064	1	2
409.405	1	13
409.747	1	9
410.088	1	9
410.430	1	6
410.771	1	13
411.112	1	1
411.454	1	15
411.795	1	10
412.137	1	6
412.478	1	1
412.819	1	4
413.161	1	-3
413.502	1	-4
413.844	1	8
414.185	1	9
414.526	1	-2
414.868	1	4
415.209	1	-4
415.550	1	-1
415.892	1	8
416.233	1	15
416.575	1	6
416.916	1	-2
417.257	1	1
417.599	1	7
417.940	1	2
418.281	1	-8
418.623	1	13
418.964	1	5
419.305	1	8
419.647	1	8
419.988	1	0
420.329	1	5
420.671	1	-2
421.012	1	13
421.353	1	16
421.695	1	-1
422.036	1	11
422.377	1	7
422.718	1	13
423.060	1	0
423.401	1	0
423.742	1	-1
424.084	1	21
424.425	1	0
424.766	1	4
425.107	1	3
425.449	1	7
425.790	1	8
426.131	1	12
426.472	1	4
426.814	1	-7
427.155	1	20
427.496	1	0
427.837	1	6
428.179	1	11
428.520	1	0
428.861	1	11
429.202	1	-2
429.544	1	8
429.885	1	-5
430.226	1	12
430.567	1	8
430.909	1	3
431.250	1	15
431.591	1	2
431.932	1	6
432.273	1	7
432.615	1	10
432.956	1	6
433.297	1	7
433.638	1	4
433.979	1	-4
434.320	1	10
434.662	1	0
435.003	1	4
435.344	1	-4
435.685	1	-1
436.026	1	4
436.368	1	11
436.709	1	13
437.050	1	-1
437.391	1	0
437.732	1	8
438.073	1	14
438.414	1	0
438.756	1	-4
439.097	1	11
439.438	1	5
439.779	1	13
440.120	1	-8
440.461	1	13
440.802	1	13
441.143	1	7
441.485	1	-1
441.826	1	9
442.167	1	12
442.508	1	6
442.849	1	2
443.190	1	3
443.531	1	9
443.872	1	-1
444.213	1	5
444.554	1	1
444.895	1	-11
445.237	1	-1
445.578	1	12
445.919	1	10
446.260	1	18
446.601	1	-4
446.942	1	7
447.283	1	11
447.624	1	4
447.965	1	8
448.306	1	5
448.647	1	3
448.988	1	9
449.329	1	9
449.670	1	-11
450.011	1	6
450.352	1	-8
450.693	1	0
451.034	1	2
451.375	1	12
451.716	1	14
452.057	1	7
452.398	1	11
452.739	1	5
453.080	1	6
453.421	1	12
453.762	1	-1
454.103	1	-1
454.444	1	5
454.785	1	9
455.126	1	10
455.467	1	-5
455.808	1	14
456.149	1	1
456.490	1	14
456.831	1	7
457.172	1	2
457.513	1	19
457.854	1	16
458.195	1	5
458.536	1	-3
458.877	1	10
459.218	1	1
459.559	1	5
459.899	1	16
460.240	1	1
460.581	1	6
460.922	1	3
461.263	1	5
461.604	1	10
461.945	1	7
462.286	1	1
462.627	1	5
462.968	1	3
463.309	1	6
463.649	1	6
463.990	1	-1
464.331	1	4
464.672	1	8
465.013	1	8
465.354	1	-6
465.695	1	10
466.036	1	-5
466.376	1	5
466.717	1	1
467.058	1	11
467.399	1	9
467.740	1	-4
468.081	1	-1
468.422	1	5
468.762	1	9
469.103	1	15
469.444	1	3
469.785	1	1
470.126	1	2
470.467	1	5
470.807	1	1
471.148	1	-8
471.489	1	9
471.830	1	9
472.171	1	9
472.511	1	6
472.852	1	7
473.193	1	10
473.534	1	10
473.875	1	7
474.215	1	8
474.556	1	17
474.897	1	5
475.238	1	4
475.578	1	2
475.919	1	17
476.260	1	20
476.601	1	19
476.942	1	3
477.282	1	19
477.623	1	17
477.964	1	15
478.305	1	7
478.645	1	12
478.986	1	3
479.327	1	-2
479.667	1	1
480.008	1	14
480.349	1	5
480.690	1	9
481.030	1	3
481.371	1	10
481.712	1	13
482.053	1	6
482.393	1	7
482.734	1	20
483.075	1	14
483.415	1	10
483.756	1	13
484.097	1	-1
484.437	1	17
484.778	1	5
485.119	1	13
485.459	1	8
485.800	1	6
486.141	1	25
486.481	1	13
486.822	1	23
487.163	1	24
487.503	1	17
487.844	1	17
488.185	1	22
488.525	1	21
488.866	1	20
489.207	1	16
489.547	1	23
489.888	1	16
490.228	1	8
490.569	1	16
490.910	1	20
491.250	1	17
491.591	1	25
491.932	1	25
492.272	1	14
492.613	1	22
492.953	1	23
493.294	1	12
493.635	1	11
493.975	1	13
494.316	1	19
494.656	1	20
494.997	1	30
495.337	1	26
495.678	1	17
496.019	1	22
496.359	1	14
496.700	1	28
497.040	1	18
497.381	1	26
497.721	1	17
498.062	1	15
498.403	1	29
498.743	1	25
499.084	1	20
499.424	1	27
499.765	1	13
500.105	1	23
500.446	1	35
500.786	1	30
501.127	1	36
501.467	1	30
501.808	1	26
502.148	1	26
502.489	1	36
502.829	1	27
503.170	1	41
503.510	1	37
503.851	1	29
504.191	1	27
504.532	1	27
504.872	1	42
505.213	1	30
505.553	1	34
505.894	1	43
506.234	1	28
506.575	1	36
506.915	1	42
507.256	1	35
507.596	1	48
507.936	1	43
508.277	1	35
508.617	1	41
508.958	1	36
509.298	1	31
509.639	1	42
509.979	1	37
510.319	1	30
510.660	1	38
511.000	1	33
511.341	1	49
511.681	1	41
512.022	1	44
512.362	1	39
512.702	1	30
513.043	1	55
513.383	1	42
513.724	1	30
514.064	1	47
514.404	1	32
514.745	1	34
515.085	1	51
515.425	1	42
515.766	1	44
516.106	1	55
516.447	1	38
516.787	1	48
517.127	1	54
517.468	1	52
517.808	1	54
518.148	1	48
518.489	1	54
518.829	1	49
519.169	1	41
519.510	1	49
519.850	1	36
520.190	1	48
520.531	1	51
520.871	1	40
521.211	1	41
521.552	1	46
521.892	1	53
522.232	1	38
522.573	1	53
522.913	1	40
523.253	1	63
523.593	1	50
523.934	1	39
524.274	1	50
524.614	1	45
524.955	1	52
525.295	1	46
525.635	1	55
525.975	1	45
526.316	1	51
526.656	1	59
526.996	1	50
527.337	1	51
527.677	1	50
528.017	1	53
528.357	1	46
528.698	1	46
529.038	1	52
529.378	1	50
529.718	1	67
530.058	1	57
530.399	1	54
530.739	1	51
531.079	1	51
531.419	1	64
531.760	1	62
532.100	1	48
532.440	1	46
532.780	1	45
533.120	1	58
533.461	1	54
533.801	1	61
534.141	1	48
534.481	1	64
534.821	1	43
535.162	1	50
535.502	1	51
535.842	1	51
536.182	1	45
536.522	1	53
536.862	1	53
537.203	1	46
537.543	1	37
537.883	1	42
538.223	1	38
538.563	1	41
538.903	1	51
539.243	1	41
539.584	1	43
539.924	1	42
540.264	1	48
540.604	1	41
540.944	1	35
541.284	1	48
541.624	1	37
541.964	1	49
542.305	1	41
542.645	1	42
542.985	1	47
543.325	1	61
543.665	1	41
544.005	1	53
544.345	1	41
544.685	1	45
545.025	1	29
545.365	1	47
545.705	1	49
546.045	1	43
546.386	1	44
546.726	1	32
547.066	1	52
547.406	1	45
547.746	1	39
548.086	1	52
548.426	1	51
548.766	1	46
549.106	1	51
549.446	1	48
549.786	1	41
550.126	1	62
550.466	1	40
550.806	1	36
551.146	1	46
551.486	1	48
551.826	1	52
552.166	1	38
552.506	1	45
552.846	1	39
553.186	1	43
553.526	1	27
553.866	1	31
554.206	1	37
554.546	1	30
554.886	1	32
555.226	1	33
555.566	1	42
555.906	1	29
556.246	1	39
556.586	1	27
556.926	1	38
557.266	1	39
557.606	1	42
557.946	1	39
558.286	1	37
558.626	1	42
558.966	1	48
559.306	1	43
559.646	1	28
559.986	1	30
560.325	1	34
560.665	1	31
561.005	1	37
561.345	1	32
561.685	1	33
562.025	1	20
562.365	1	33
562.705	1	39
563.045	1	32
563.385	1	39
563.725	1	30
564.064	1	38
564.404	1	29
564.744	1	28
565.084	1	36
565.424	1	43
565.764	1	17
566.104	1	26
566.444	1	40
566.783	1	31
567.123	1	18
567.463	1	31
567.803	1	28
568.143	1	31
568.483	1	35
568.823	1	29
569.162	1	34
569.502	1	27
569.842	1	24
570.182	1	31
570.522	1	24
570.862	1	28
571.201	1	27
571.541	1	15
571.881	1	24
572.221	1	19
572.561	1	33
572.900	1	24
573.240	1	21
573.580	1	14
573.920	1	41
574.260	1	24
574.599	1	16
574.939	1	23
575.279	1	15
575.619	1	27
575.959	1	6
576.298	1	27
576.638	1	32
576.978	1	19
577.318	1	26
577.657	1	21
577.997	1	21
578.337	1	21
578.677	1	27
579.016	1	28
579.356	1	29
579.696	1	16
580.036	1	24
580.375	1	10
580.715	1	23
581.055	1	25
581.394	1	27
581.734	1	24
582.074	1	17
582.414	1	9
582.753	1	17
583.093	1	25
583.433	1	25
583.772	1	27
584.112	1	27
584.452	1	10
584.791	1	23
585.131	1	30
585.471	1	21
585.811	1	11
586.150	1	9
586.490	1	16
586.830	1	4
587.169	1	27
587.509	1	23
587.849	1	14
588.188	1	22
588.528	1	12
588.867	1	24
589.207	1	16
589.547	1	22
589.886	1	14
590.226	1	20
590.566	1	19
590.905	1	18
591.245	1	22
591.585	1	17
591.924	1	10
592.264	1	8
592.603	1	12
592.943	1	10
593.283	1	16
593.622	1	-2
593.962	1	22
594.301	1	19
594.641	1	19
594.981	1	21
595.320	1	15
595.660	1	12
595.999	1	16
596.339	1	12
596.678	1	-1
597.018	1	8
597.358	1	9
597.697	1	9
598.037	1	8
598.376	1	9
598.716	1	16
599.055	1	12
599.395	1	3
599.734	1	18
600.074	1	14
600.413	1	0
600.753	1	11
601.092	1	10
601.432	1	12
601.771	1	23
602.111	1	14
602.451	1	20
602.790	1	13
603.130	1	18
603.469	1	14
603.809	1	17
604.148	1	16
604.487	1	16
604.827	1	7
605.166	1	23
605.506	1	11
605.845	1	25
606.185	1	5
606.524	1	9
606.864	1	18
607.203	1	7
607.543	1	19
607.882	1	10
608.222	1	14
608.561	1	21
608.901	1	13
609.240	1	9
609.579	1	17
609.919	1	10
610.258	1	19
610.598	1	12
610.937	1	19
611.277	1	14
611.616	1	14
611.955	1	14
612.295	1	11
612.634	1	16
612.974	1	13
613.313	1	6
613.652	1	10
613.992	1	10
614.331	1	10
614.671	1	17
615.010	1	8
615.349	1	13
615.689	1	14
616.028	1	12
616.368	1	4
616.707	1	15
617.046	1	5
617.386	1	9
617.725	1	15
618.064	1	10
618.404	1	0
618.743	1	4
619.082	1	6
619.422	1	3
619.761	1	0
620.100	1	9
620.440	1	8
620.779	1	15
621.118	1	11
621.458	1	10
621.797	1	15
622.136	1	3
622.476	1	5
622.815	1	6
623.154	1	9
623.494	1	9
623.833	1	11
624.172	1	1
624.511	1	16
624.851	1	8
625.190	1	8
625.529	1	12
625.869	1	15
626.208	1	6
626.547	1	4
626.886	1	15
627.226	1	19
627.565	1	12
627.904	1	4
628.243	1	4
628.583	1	8
628.922	1	2
629.261	1	6
629.600	1	11
629.940	1	0
630.279	1	6
630.618	1	11
630.957	1	17
631.297	1	1
631.636	1	16
631.975	1	-1
632.314	1	5
632.653	1	10
632.993	1	5
633.332	1	7
633.671	1	15
634.010	1	12
634.349	1	1
634.689	1	14
635.028	1	5
635.367	1	1
635.706	1	-2
636.045	1	16
636.384	1	4
636.724	1	18
637.063	1	11
637.402	1	17
637.741	1	9
638.080	1	15
638.419	1	11
638.759	1	2
639.098	1	-7
639.437	1	-4
639.776	1	9
640.115	1	13
640.454	1	15
640.793	1	4
641.132	1	8
641.472	1	3
641.811	1	19
642.150	1	9
642.489	1	6
642.828	1	15
643.167	1	4
643.506	1	19
643.845	1	10
644.184	1	19
644.524	1	6
644.863	1	-1
645.202	1	17
645.541	1	12
645.880	1	9
646.219	1	10
646.558	1	14
646.897	1	14
647.236	1	1
647.575	1	-1
647.914	1	3
648.253	1	2
648.592	1	10
648.931	1	8
649.270	1	6
649.610	1	13
649.949	1	3
650.288	1	5
650.627	1	0
650.966	1	7
651.305	1	-6
651.644	1	14
651.983	1	9
652.322	1	6
652.661	1	13
653.000	1	-2
653.339	1	4
653.678	1	5
654.017	1	18
654.356	1	7
654.695	1	9
655.034	1	4
655.373	1	12
655.712	1	-2
656.051	1	3
656.390	1	6
656.729	1	15
657.068	1	9
657.406	1	5
657.745	1	10
658.084	1	-2
658.423	1	6
658.762	1	-4
659.101	1	1
659.440	1	9
659.779	1	10
660.118	1	4
660.457	1	17
660.796	1	2
661.135	1	-4
661.474	1	16
661.813	1	-2
662.152	1	1
662.491	1	-2
662.829	1	10
663.168	1	12
663.507	1	15
663.846	1	-6
664.185	1	12
664.524	1	9
664.863	1	8
665.202	1	20
665.541	1	6
665.879	1	14
666.218	1	13
666.557	1	9
666.896	1	0
667.235	1	8
667.574	1	4
667.913	1	4
668.251	1	8
668.590	1	-1
668.929	1	9
669.268	1	4
669.607	1	7
669.946	1	9
670.285	1	11
670.623	1	4
670.962	1	-1
671.301	1	2
671.640	1	12
671.979	1	3
672.317	1	16
672.656	1	7
672.995	1	1
673.334	1	3
673.673	1	7
674.011	1	6
674.350	1	1
674.689	1	8
675.028	1	3
675.367	1	4
675.705	1	6
676.044	1	25
676.383	1	1
676.722	1	19
677.060	1	3
677.399	1	14
677.738	1	10
678.077	1	24
678.416	1	6
678.754	1	1
679.093	1	8
679.432	1	0
679.771	1	9
680.109	1	9
680.448	1	8
680.787	1	-5
681.125	1	10
681.464	1	8
681.803	1	14
682.142	1	-2
682.480	1	12
682.819	1	14
683.158	1	10
683.496	1	13
683.835	1	4
684.174	1	7
684.512	1	5
684.851	1	7
685.190	1	11
685.529	1	17
685.867	1	8
686.206	1	22
686.545	1	15
686.883	1	14
687.222	1	1
687.561	1	5
687.899	1	-2
688.238	1	6
688.577	1	19
688.746	1	4