File: Data/GaN_170K_550ms/GaN_sample D_spot 18_UVVIS_170 K_200um_550 ms 2x2mm1_17.txt
340.368	1	-8
340.710	1	-9
341.052	1	3
341.394	1	7
341.737	1	2
342.079	1	3
342.421	1	4
342.763	1	4
343.105	1	5
343.447	1	-8
343.789	1	9
344.131	1	-6
344.473	1	2
344.815	1	9
345.157	1	2
345.499	1	5
345.841	1	-3
346.183	1	9
346.526	1	2
346.868	1	15
347.210	1	-2
347.552	1	10
347.894	1	4
348.236	1	-2
348.578	1	2
348.920	1	11
349.262	1	3
349.604	1	6
349.946	1	9
350.288	1	-6
350.630	1	18
350.972	1	-3
351.314	1	5
351.656	1	0
351.998	1	1
352.340	1	12
352.682	1	5
353.024	1	0
353.366	1	6
353.708	1	9
354.050	1	0
354.392	1	0
354.734	1	7
355.076	1	-7
355.418	1	-10
355.760	1	-9
356.102	1	-2
356.444	1	4
356.785	1	-2
357.127	1	-2
357.469	1	5
357.811	1	-4
358.153	1	-2
358.495	1	-2
358.837	1	3
359.179	1	-4
359.521	1	2
359.863	1	4
360.205	1	7
360.547	1	8
360.889	1	9
361.231	1	9
361.572	1	5
361.914	1	-2
362.256	1	2
362.598	1	8
362.940	1	11
363.282	1	5
363.624	1	6
363.966	1	0
364.308	1	3
364.649	1	-1
364.991	1	12
365.333	1	-7
365.675	1	7
366.017	1	-1
366.359	1	-4
366.701	1	5
367.042	1	-10
367.384	1	6
367.726	1	7
368.068	1	-2
368.410	1	3
368.752	1	-6
369.093	1	-11
369.435	1	-9
369.777	1	-4
370.119	1	-3
370.461	1	8
370.803	1	-3
371.144	1	1
371.486	1	-9
371.828	1	6
372.170	1	4
372.512	1	-1
372.853	1	14
373.195	1	3
373.537	1	12
373.879	1	1
374.220	1	8
374.562	1	-3
374.904	1	4
375.246	1	-3
375.588	1	-2
375.929	1	3
376.271	1	10
376.613	1	-8
376.955	1	14
377.296	1	2
377.638	1	-5
377.980	1	-9
378.321	1	-3
378.663	1	-1
379.005	1	-6
379.347	1	-4
379.688	1	6
380.030	1	0
380.372	1	-3
380.714	1	8
381.055	1	1
381.397	1	-5
381.739	1	-9
382.080	1	-1
382.422	1	4
382.764	1	3
383.105	1	11
383.447	1	9
383.789	1	18
384.130	1	-10
384.472	1	-11
384.814	1	-2
385.156	1	5
385.497	1	9
385.839	1	-15
386.180	1	16
386.522	1	8
386.864	1	0
387.205	1	-3
387.547	1	4
387.889	1	6
388.230	1	-6
388.572	1	1
388.914	1	-3
389.255	1	10
389.597	1	-1
389.939	1	1
390.280	1	-3
390.622	1	4
390.963	1	-1
391.305	1	-2
391.647	1	-17
391.988	1	7
392.330	1	9
392.671	1	3
393.013	1	-3
393.355	1	1
393.696	1	3
394.038	1	-11
394.379	1	-10
394.721	1	-2
395.062	1	-7
395.404	1	6
395.746	1	9
396.087	1	4
396.429	1	11
396.770	1	3
397.112	1	9
397.453	1	9
397.795	1	-2
398.136	1	4
398.478	1	-8
398.819	1	2
399.161	1	-14
399.503	1	-1
399.844	1	2
400.186	1	1
400.527	1	8
400.869	1	5
401.210	1	4
401.552	1	3
401.893	1	4
402.235	1	1
402.576	1	-3
402.918	1	-1
403.259	1	-1
403.601	1	12
403.942	1	3
404.284	1	-10
404.625	1	1
404.967	1	3
405.308	1	8
405.649	1	9
405.991	1	3
406.332	1	-5
406.674	1	1
407.015	1	2
407.357	1	-2
407.698	1	5
408.040	1	3
408.381	1	1
408.722	1	3
409.064	1	4
409.405	1	9
409.747	1	1
410.088	1	7
410.430	1	-2
410.771	1	4
411.112	1	-6
411.454	1	6
411.795	1	13
412.137	1	-3
412.478	1	-2
412.819	1	-10
413.161	1	6
413.502	1	-4
413.844	1	10
414.185	1	6
414.526	1	5
414.868	1	-10
415.209	1	-8
415.550	1	-3
415.892	1	1
416.233	1	-1
416.575	1	-5
416.916	1	-3
417.257	1	7
417.599	1	2
417.940	1	-1
418.281	1	-8
418.623	1	4
418.964	1	1
419.305	1	1
419.647	1	7
419.988	1	10
420.329	1	-2
420.671	1	-8
421.012	1	1
421.353	1	8
421.695	1	-6
422.036	1	6
422.377	1	5
422.718	1	5
423.060	1	-2
423.401	1	-4
423.742	1	-5
424.084	1	12
424.425	1	-8
424.766	1	1
425.107	1	2
425.449	1	1
425.790	1	5
426.131	1	0
426.472	1	-3
426.814	1	-4
427.155	1	8
427.496	1	-1
427.837	1	0
428.179	1	7
428.520	1	2
428.861	1	4
429.202	1	-1
429.544	1	-4
429.885	1	1
430.226	1	11
430.567	1	8
430.909	1	-2
431.250	1	5
431.591	1	-3
431.932	1	-5
432.273	1	3
432.615	1	6
432.956	1	7
433.297	1	-6
433.638	1	5
433.979	1	-1
434.320	1	10
434.662	1	-8
435.003	1	4
435.344	1	-1
435.685	1	-3
436.026	1	-1
436.368	1	7
436.709	1	4
437.050	1	-6
437.391	1	-7
437.732	1	8
438.073	1	-3
438.414	1	-3
438.756	1	2
439.097	1	2
439.438	1	0
439.779	1	9
440.120	1	-8
440.461	1	11
440.802	1	2
441.143	1	-8
441.485	1	-3
441.826	1	0
442.167	1	3
442.508	1	-10
442.849	1	-3
443.190	1	-4
443.531	1	-2
443.872	1	1
444.213	1	-8
444.554	1	-3
444.895	1	-13
445.237	1	-13
445.578	1	9
445.919	1	4
446.260	1	3
446.601	1	-9
446.942	1	15
447.283	1	5
447.624	1	-3
447.965	1	-1
448.306	1	-3
448.647	1	0
448.988	1	12
449.329	1	-4
449.670	1	-10
450.011	1	4
450.352	1	-1
450.693	1	-4
451.034	1	-8
451.375	1	6
451.716	1	4
452.057	1	0
452.398	1	4
452.739	1	2
453.080	1	4
453.421	1	3
453.762	1	3
454.103	1	2
454.444	1	-11
454.785	1	-2
455.126	1	16
455.467	1	-7
455.808	1	7
456.149	1	5
456.490	1	1
456.831	1	-5
457.172	1	-3
457.513	1	10
457.854	1	10
458.195	1	3
458.536	1	-6
458.877	1	7
459.218	1	3
459.559	1	3
459.899	1	-2
460.240	1	-3
460.581	1	6
460.922	1	0
461.263	1	-9
461.604	1	2
461.945	1	0
462.286	1	0
462.627	1	7
462.968	1	6
463.309	1	3
463.649	1	2
463.990	1	0
464.331	1	6
464.672	1	-9
465.013	1	12
465.354	1	-12
465.695	1	2
466.036	1	-3
466.376	1	4
466.717	1	4
467.058	1	7
467.399	1	14
467.740	1	-1
468.081	1	-9
468.422	1	0
468.762	1	7
469.103	1	2
469.444	1	0
469.785	1	0
470.126	1	1
470.467	1	10
470.807	1	0
471.148	1	-5
471.489	1	-3
471.830	1	7
472.171	1	5
472.511	1	6
472.852	1	2
473.193	1	6
473.534	1	-1
473.875	1	2
474.215	1	7
474.556	1	2
474.897	1	10
475.238	1	-11
475.578	1	7
475.919	1	6
476.260	1	18
476.601	1	5
476.942	1	-6
477.282	1	10
477.623	1	14
477.964	1	3
478.305	1	-7
478.645	1	6
478.986	1	4
479.327	1	-3
479.667	1	7
480.008	1	6
480.349	1	3
480.690	1	6
481.030	1	10
481.371	1	-1
481.712	1	-4
482.053	1	-5
482.393	1	-10
482.734	1	8
483.075	1	2
483.415	1	6
483.756	1	0
484.097	1	-8
484.437	1	-7
484.778	1	-3
485.119	1	8
485.459	1	5
485.800	1	-3
486.141	1	1
486.481	1	1
486.822	1	6
487.163	1	4
487.503	1	-2
487.844	1	1
488.185	1	6
488.525	1	4
488.866	1	2
489.207	1	10
489.547	1	4
489.888	1	-5
490.228	1	1
490.569	1	11
490.910	1	6
491.250	1	11
491.591	1	0
491.932	1	2
492.272	1	2
492.613	1	0
492.953	1	-2
493.294	1	-3
493.635	1	-8
493.975	1	4
494.316	1	-1
494.656	1	7
494.997	1	1
495.337	1	12
495.678	1	7
496.019	1	-6
496.359	1	7
496.700	1	6
497.040	1	3
497.381	1	0
497.721	1	-1
498.062	1	-1
498.403	1	6
498.743	1	7
499.084	1	7
499.424	1	13
499.765	1	-7
500.105	1	-4
500.446	1	6
500.786	1	2
501.127	1	-3
501.467	1	6
501.808	1	-3
502.148	1	1
502.489	1	2
502.829	1	7
503.170	1	11
503.510	1	2
503.851	1	2
504.191	1	3
504.532	1	-8
504.872	1	3
505.213	1	-8
505.553	1	7
505.894	1	3
506.234	1	-2
506.575	1	-1
506.915	1	0
507.256	1	-7
507.596	1	10
507.936	1	11
508.277	1	-9
508.617	1	14
508.958	1	2
509.298	1	2
509.639	1	11
509.979	1	6
510.319	1	-5
510.660	1	-6
511.000	1	6
511.341	1	11
511.681	1	-6
512.022	1	-3
512.362	1	-10
512.702	1	2
513.043	1	5
513.383	1	2
513.724	1	-8
514.064	1	5
514.404	1	-2
514.745	1	0
515.085	1	3
515.425	1	-1
515.766	1	7
516.106	1	1
516.447	1	1
516.787	1	-2
517.127	1	3
517.468	1	-2
517.808	1	6
518.148	1	0
518.489	1	5
518.829	1	5
519.169	1	1
519.510	1	-1
519.850	1	2
520.190	1	-5
520.531	1	6
520.871	1	-9
521.211	1	3
521.552	1	5
521.892	1	-1
522.232	1	-7
522.573	1	9
522.913	1	1
523.253	1	13
523.593	1	-7
523.934	1	5
524.274	1	0
524.614	1	8
524.955	1	3
525.295	1	-3
525.635	1	8
525.975	1	1
526.316	1	7
526.656	1	8
526.996	1	-3
527.337	1	-4
527.677	1	-3
528.017	1	6
528.357	1	-9
528.698	1	-8
529.038	1	3
529.378	1	1
529.718	1	8
530.058	1	6
530.399	1	9
530.739	1	2
531.079	1	2
531.419	1	14
531.760	1	3
532.100	1	1
532.440	1	7
532.780	1	-11
533.120	1	-3
533.461	1	-8
533.801	1	8
534.141	1	5
534.481	1	3
534.821	1	5
535.162	1	-4
535.502	1	-5
535.842	1	8
536.182	1	3
536.522	1	8
536.862	1	6
537.203	1	2
537.543	1	0
537.883	1	3
538.223	1	2
538.563	1	-6
538.903	1	6
539.243	1	3
539.584	1	-3
539.924	1	4
540.264	1	10
540.604	1	1
540.944	1	-2
541.284	1	0
541.624	1	-1
541.964	1	-1
542.305	1	-1
542.645	1	-3
542.985	1	1
543.325	1	3
543.665	1	4
544.005	1	8
544.345	1	9
544.685	1	-7
545.025	1	6
545.365	1	8
545.705	1	-1
546.045	1	1
546.386	1	-4
546.726	1	-4
547.066	1	11
547.406	1	-2
547.746	1	-4
548.086	1	-1
548.426	1	2
548.766	1	4
549.106	1	0
549.446	1	2
549.786	1	-3
550.126	1	-5
550.466	1	-4
550.806	1	2
551.146	1	5
551.486	1	7
551.826	1	6
552.166	1	-4
552.506	1	9
552.846	1	-11
553.186	1	4
553.526	1	-8
553.866	1	1
554.206	1	9
554.546	1	-3
554.886	1	0
555.226	1	-8
555.566	1	2
555.906	1	-5
556.246	1	1
556.586	1	-2
556.926	1	7
557.266	1	-6
557.606	1	-3
557.946	1	5
558.286	1	-1
558.626	1	14
558.966	1	5
559.306	1	11
559.646	1	11
559.986	1	4
560.325	1	-6
560.665	1	6
561.005	1	2
561.345	1	-8
561.685	1	4
562.025	1	1
562.365	1	3
562.705	1	2
563.045	1	3
563.385	1	5
563.725	1	-8
564.064	1	-3
564.404	1	-4
564.744	1	9
565.084	1	-1
565.424	1	0
565.764	1	2
566.104	1	-2
566.444	1	7
566.783	1	7
567.123	1	8
567.463	1	2
567.803	1	-1
568.143	1	0
568.483	1	3
568.823	1	7
569.162	1	1
569.502	1	-1
569.842	1	5
570.182	1	3
570.522	1	5
570.862	1	12
571.201	1	9
571.541	1	-2
571.881	1	0
572.221	1	2
572.561	1	6
572.900	1	-6
573.240	1	3
573.580	1	4
573.920	1	4
574.260	1	9
574.599	1	1
574.939	1	-6
575.279	1	9
575.619	1	6
575.959	1	-19
576.298	1	11
576.638	1	10
576.978	1	1
577.318	1	-2
577.657	1	3
577.997	1	0
578.337	1	3
578.677	1	4
579.016	1	-2
579.356	1	-4
579.696	1	-7
580.036	1	-4
580.375	1	2
580.715	1	0
581.055	1	5
581.394	1	8
581.734	1	6
582.074	1	4
582.414	1	4
582.753	1	6
583.093	1	10
583.433	1	6
583.772	1	1
584.112	1	7
584.452	1	3
584.791	1	0
585.131	1	13
585.471	1	9
585.811	1	-4
586.150	1	-14
586.490	1	8
586.830	1	-3
587.169	1	10
587.509	1	-7
587.849	1	-1
588.188	1	-6
588.528	1	-4
588.867	1	-2
589.207	1	3
589.547	1	12
589.886	1	-3
590.226	1	0
590.566	1	3
590.905	1	-1
591.245	1	0
591.585	1	7
591.924	1	-4
592.264	1	8
592.603	1	-2
592.943	1	0
593.283	1	6
593.622	1	-3
593.962	1	6
594.301	1	7
594.641	1	10
594.981	1	4
595.320	1	-3
595.660	1	3
595.999	1	-6
596.339	1	4
596.678	1	-2
597.018	1	-7
597.358	1	-3
597.697	1	-12
598.037	1	-4
598.376	1	-13
598.716	1	2
599.055	1	2
599.395	1	0
599.734	1	6
600.074	1	1
600.413	1	-8
600.753	1	6
601.092	1	4
601.432	1	-11
601.771	1	5
602.111	1	-1
602.451	1	10
602.790	1	10
603.130	1	-6
603.469	1	4
603.809	1	-4
604.148	1	2
604.487	1	6
604.827	1	-3
605.166	1	9
605.506	1	1
605.845	1	6
606.185	1	3
606.524	1	-4
606.864	1	0
607.203	1	2
607.543	1	9
607.882	1	2
608.222	1	-3
608.561	1	12
608.901	1	2
609.240	1	-6
609.579	1	1
609.919	1	1
610.258	1	0
610.598	1	3
610.937	1	-1
611.277	1	3
611.616	1	5
611.955	1	2
612.295	1	0
612.634	1	-8
612.974	1	3
613.313	1	-3
613.652	1	7
613.992	1	2
614.331	1	0
614.671	1	7
615.010	1	0
615.349	1	10
615.689	1	4
616.028	1	-4
616.368	1	-2
616.707	1	5
617.046	1	-7
617.386	1	-4
617.725	1	4
618.064	1	0
618.404	1	2
618.743	1	0
619.082	1	5
619.422	1	-2
619.761	1	-3
620.100	1	6
620.440	1	1
620.779	1	-3
621.118	1	-11
621.458	1	0
621.797	1	7
622.136	1	-4
622.476	1	-4
622.815	1	-3
623.154	1	7
623.494	1	-1
623.833	1	7
624.172	1	-3
624.511	1	4
624.851	1	-3
625.190	1	2
625.529	1	10
625.869	1	7
626.208	1	2
626.547	1	2
626.886	1	4
627.226	1	4
627.565	1	2
627.904	1	-4
628.243	1	-8
628.583	1	-4
628.922	1	-9
629.261	1	3
629.600	1	-1
629.940	1	-15
630.279	1	-10
630.618	1	-9
630.957	1	11
631.297	1	-2
631.636	1	13
631.975	1	-10
632.314	1	6
632.653	1	4
632.993	1	-1
633.332	1	4
633.671	1	2
634.010	1	1
634.349	1	-11
634.689	1	11
635.028	1	7
635.367	1	5
635.706	1	3
636.045	1	6
636.384	1	-2
636.724	1	9
637.063	1	-1
637.402	1	8
637.741	1	-6
638.080	1	4
638.419	1	3
638.759	1	2
639.098	1	-8
639.437	1	-2
639.776	1	-5
640.115	1	1
640.454	1	-11
640.793	1	-4
641.132	1	1
641.472	1	-4
641.811	1	6
642.150	1	-1
642.489	1	-5
642.828	1	-3
643.167	1	-5
643.506	1	5
643.845	1	3
644.184	1	7
644.524	1	4
644.863	1	-12
645.202	1	11
645.541	1	-1
645.880	1	3
646.219	1	-4
646.558	1	2
646.897	1	4
647.236	1	-7
647.575	1	-4
647.914	1	6
648.253	1	0
648.592	1	0
648.931	1	6
649.270	1	-7
649.610	1	-3
649.949	1	0
650.288	1	2
650.627	1	-3
650.966	1	8
651.305	1	-5
651.644	1	-4
651.983	1	1
652.322	1	-3
652.661	1	4
653.000	1	4
653.339	1	-1
653.678	1	5
654.017	1	12
654.356	1	5
654.695	1	7
655.034	1	3
655.373	1	10
655.712	1	-3
656.051	1	9
656.390	1	-8
656.729	1	9
657.068	1	4
657.406	1	4
657.745	1	12
658.084	1	-9
658.423	1	-9
658.762	1	-1
659.101	1	0
659.440	1	-4
659.779	1	1
660.118	1	1
660.457	1	11
660.796	1	6
661.135	1	-10
661.474	1	-3
661.813	1	5
662.152	1	-4
662.491	1	-1
662.829	1	-7
663.168	1	2
663.507	1	-4
663.846	1	9
664.185	1	8
664.524	1	1
664.863	1	-3
665.202	1	12
665.541	1	4
665.879	1	5
666.218	1	9
666.557	1	0
666.896	1	3
667.235	1	0
667.574	1	-11
667.913	1	-11
668.251	1	3
668.590	1	-11
668.929	1	5
669.268	1	3
669.607	1	-3
669.946	1	2
670.285	1	8
670.623	1	2
670.962	1	-1
671.301	1	0
671.640	1	9
671.979	1	-2
672.317	1	9
672.656	1	3
672.995	1	-2
673.334	1	-1
673.673	1	6
674.011	1	7
674.350	1	8
674.689	1	2
675.028	1	6
675.367	1	0
675.705	1	10
676.044	1	11
676.383	1	-1
676.722	1	5
677.060	1	-4
677.399	1	-11
677.738	1	-4
678.077	1	14
678.416	1	-2
678.754	1	-3
679.093	1	5
679.432	1	2
679.771	1	2
680.109	1	-6
680.448	1	-1
680.787	1	-6
681.125	1	-3
681.464	1	6
681.803	1	2
682.142	1	9
682.480	1	6
682.819	1	5
683.158	1	-2
683.496	1	5
683.835	1	-5
684.174	1	5
684.512	1	-7
684.851	1	-1
685.190	1	-3
685.529	1	12
685.867	1	4
686.206	1	8
686.545	1	4
686.883	1	8
687.222	1	3
687.561	1	3
687.899	1	-3
688.238	1	-6
688.577	1	11
688.746	1	-8