File: Data/GaN_170K_550ms/GaN_sample D_spot 18_UVVIS_170 K_200um_550 ms 2x2mm1_320.txt
340.368	1	1
340.710	1	-3
341.052	1	0
341.394	1	-7
341.737	1	3
342.079	1	1
342.421	1	4
342.763	1	0
343.105	1	3
343.447	1	-7
343.789	1	3
344.131	1	3
344.473	1	2
344.815	1	7
345.157	1	-6
345.499	1	-2
345.841	1	1
346.183	1	-4
346.526	1	-1
346.868	1	2
347.210	1	-5
347.552	1	11
347.894	1	3
348.236	1	-3
348.578	1	0
348.920	1	6
349.262	1	-4
349.604	1	0
349.946	1	9
350.288	1	-2
350.630	1	11
350.972	1	-2
351.314	1	3
351.656	1	1
351.998	1	9
352.340	1	3
352.682	1	3
353.024	1	-2
353.366	1	11
353.708	1	7
354.050	1	-10
354.392	1	1
354.734	1	3
355.076	1	-5
355.418	1	2
355.760	1	-4
356.102	1	3
356.444	1	-4
356.785	1	4
357.127	1	6
357.469	1	6
357.811	1	-8
358.153	1	2
358.495	1	4
358.837	1	11
359.179	1	-8
359.521	1	6
359.863	1	-1
360.205	1	4
360.547	1	-1
360.889	1	5
361.231	1	-8
361.572	1	6
361.914	1	-1
362.256	1	0
362.598	1	3
362.940	1	11
363.282	1	6
363.624	1	4
363.966	1	-2
364.308	1	7
364.649	1	-1
364.991	1	16
365.333	1	-1
365.675	1	7
366.017	1	6
366.359	1	-5
366.701	1	1
367.042	1	-1
367.384	1	9
367.726	1	15
368.068	1	13
368.410	1	18
368.752	1	3
369.093	1	-2
369.435	1	5
369.777	1	9
370.119	1	5
370.461	1	20
370.803	1	6
371.144	1	5
371.486	1	1
371.828	1	7
372.170	1	-4
372.512	1	2
372.853	1	10
373.195	1	5
373.537	1	8
373.879	1	7
374.220	1	15
374.562	1	4
374.904	1	-7
375.246	1	6
375.588	1	1
375.929	1	8
376.271	1	10
376.613	1	3
376.955	1	1
377.296	1	-3
377.638	1	12
377.980	1	-17
378.321	1	1
378.663	1	-1
379.005	1	-10
379.347	1	1
379.688	1	-1
380.030	1	11
380.372	1	7
380.714	1	10
381.055	1	7
381.397	1	3
381.739	1	7
382.080	1	-7
382.422	1	6
382.764	1	3
383.105	1	8
383.447	1	8
383.789	1	13
384.130	1	-5
384.472	1	-5
384.814	1	4
385.156	1	-5
385.497	1	12
385.839	1	-7
386.180	1	13
386.522	1	13
386.864	1	1
387.205	1	-8
387.547	1	6
387.889	1	-5
388.230	1	2
388.572	1	5
388.914	1	-8
389.255	1	4
389.597	1	0
389.939	1	-4
390.280	1	3
390.622	1	9
390.963	1	1
391.305	1	-1
391.647	1	-9
391.988	1	0
392.330	1	0
392.671	1	-9
393.013	1	-2
393.355	1	5
393.696	1	9
394.038	1	-7
394.379	1	-6
394.721	1	3
395.062	1	-3
395.404	1	4
395.746	1	9
396.087	1	-2
396.429	1	6
396.770	1	13
397.112	1	-1
397.453	1	7
397.795	1	-3
398.136	1	2
398.478	1	-1
398.819	1	-5
399.161	1	-5
399.503	1	1
399.844	1	-2
400.186	1	-7
400.527	1	11
400.869	1	4
401.210	1	-1
401.552	1	4
401.893	1	3
402.235	1	1
402.576	1	0
402.918	1	-10
403.259	1	7
403.601	1	3
403.942	1	8
404.284	1	-8
404.625	1	-3
404.967	1	3
405.308	1	3
405.649	1	7
405.991	1	-4
406.332	1	-4
406.674	1	6
407.015	1	1
407.357	1	-2
407.698	1	1
408.040	1	-5
408.381	1	12
408.722	1	-6
409.064	1	-3
409.405	1	7
409.747	1	2
410.088	1	17
410.430	1	4
410.771	1	-3
411.112	1	-3
411.454	1	0
411.795	1	1
412.137	1	-9
412.478	1	0
412.819	1	-10
413.161	1	10
413.502	1	5
413.844	1	5
414.185	1	-2
414.526	1	8
414.868	1	-2
415.209	1	-8
415.550	1	-2
415.892	1	-8
416.233	1	-5
416.575	1	0
416.916	1	-4
417.257	1	-5
417.599	1	0
417.940	1	-1
418.281	1	-9
418.623	1	-1
418.964	1	-2
419.305	1	5
419.647	1	0
419.988	1	10
420.329	1	-5
420.671	1	-7
421.012	1	2
421.353	1	13
421.695	1	-3
422.036	1	7
422.377	1	10
422.718	1	8
423.060	1	-1
423.401	1	6
423.742	1	-3
424.084	1	18
424.425	1	-5
424.766	1	-4
425.107	1	-2
425.449	1	1
425.790	1	12
426.131	1	2
426.472	1	-3
426.814	1	-9
427.155	1	11
427.496	1	-7
427.837	1	6
428.179	1	5
428.520	1	-2
428.861	1	9
429.202	1	-1
429.544	1	1
429.885	1	-5
430.226	1	3
430.567	1	6
430.909	1	3
431.250	1	15
431.591	1	-3
431.932	1	-3
432.273	1	2
432.615	1	-1
432.956	1	1
433.297	1	2
433.638	1	-1
433.979	1	-3
434.320	1	8
434.662	1	-15
435.003	1	0
435.344	1	3
435.685	1	-2
436.026	1	0
436.368	1	9
436.709	1	-6
437.050	1	-4
437.391	1	-3
437.732	1	10
438.073	1	4
438.414	1	0
438.756	1	-5
439.097	1	9
439.438	1	2
439.779	1	10
440.120	1	-4
440.461	1	16
440.802	1	4
441.143	1	2
441.485	1	-5
441.826	1	3
442.167	1	11
442.508	1	0
442.849	1	-7
443.190	1	4
443.531	1	-2
443.872	1	0
444.213	1	-5
444.554	1	1
444.895	1	-7
445.237	1	-13
445.578	1	13
445.919	1	-2
446.260	1	0
446.601	1	-8
446.942	1	8
447.283	1	7
447.624	1	-7
447.965	1	0
448.306	1	-3
448.647	1	0
448.988	1	10
449.329	1	6
449.670	1	-9
450.011	1	19
450.352	1	-7
450.693	1	-2
451.034	1	-2
451.375	1	5
451.716	1	14
452.057	1	5
452.398	1	0
452.739	1	0
453.080	1	-3
453.421	1	6
453.762	1	-4
454.103	1	-12
454.444	1	4
454.785	1	-3
455.126	1	13
455.467	1	-11
455.808	1	5
456.149	1	-4
456.490	1	7
456.831	1	-12
457.172	1	-4
457.513	1	9
457.854	1	12
458.195	1	-7
458.536	1	-3
458.877	1	0
459.218	1	3
459.559	1	3
459.899	1	1
460.240	1	-2
460.581	1	5
460.922	1	-2
461.263	1	-10
461.604	1	0
461.945	1	4
462.286	1	3
462.627	1	4
462.968	1	5
463.309	1	4
463.649	1	12
463.990	1	0
464.331	1	2
464.672	1	-9
465.013	1	8
465.354	1	-2
465.695	1	-4
466.036	1	-10
466.376	1	0
466.717	1	6
467.058	1	-4
467.399	1	4
467.740	1	0
468.081	1	-4
468.422	1	5
468.762	1	11
469.103	1	12
469.444	1	-3
469.785	1	1
470.126	1	0
470.467	1	4
470.807	1	-7
471.148	1	-12
471.489	1	0
471.830	1	-2
472.171	1	3
472.511	1	9
472.852	1	-1
473.193	1	9
473.534	1	-2
473.875	1	-2
474.215	1	2
474.556	1	2
474.897	1	4
475.238	1	-5
475.578	1	2
475.919	1	10
476.260	1	5
476.601	1	-1
476.942	1	-3
477.282	1	5
477.623	1	16
477.964	1	0
478.305	1	-3
478.645	1	4
478.986	1	-2
479.327	1	-13
479.667	1	-8
480.008	1	-3
480.349	1	1
480.690	1	1
481.030	1	5
481.371	1	-9
481.712	1	1
482.053	1	-7
482.393	1	3
482.734	1	1
483.075	1	11
483.415	1	7
483.756	1	3
484.097	1	-14
484.437	1	-1
484.778	1	-13
485.119	1	8
485.459	1	-4
485.800	1	-3
486.141	1	7
486.481	1	-4
486.822	1	4
487.163	1	3
487.503	1	5
487.844	1	11
488.185	1	-1
488.525	1	6
488.866	1	12
489.207	1	5
489.547	1	13
489.888	1	0
490.228	1	-10
490.569	1	-4
490.910	1	11
491.250	1	0
491.591	1	6
491.932	1	3
492.272	1	13
492.613	1	6
492.953	1	5
493.294	1	-1
493.635	1	3
493.975	1	4
494.316	1	-4
494.656	1	-3
494.997	1	-3
495.337	1	9
495.678	1	3
496.019	1	-8
496.359	1	5
496.700	1	6
497.040	1	8
497.381	1	7
497.721	1	-7
498.062	1	-2
498.403	1	11
498.743	1	1
499.084	1	-1
499.424	1	3
499.765	1	-10
500.105	1	3
500.446	1	0
500.786	1	4
501.127	1	0
501.467	1	3
501.808	1	-2
502.148	1	4
502.489	1	-1
502.829	1	-4
503.170	1	5
503.510	1	1
503.851	1	-3
504.191	1	3
504.532	1	-3
504.872	1	4
505.213	1	2
505.553	1	1
505.894	1	10
506.234	1	-17
506.575	1	7
506.915	1	3
507.256	1	-9
507.596	1	-1
507.936	1	5
508.277	1	-1
508.617	1	4
508.958	1	-3
509.298	1	-6
509.639	1	5
509.979	1	10
510.319	1	-8
510.660	1	2
511.000	1	-5
511.341	1	14
511.681	1	0
512.022	1	8
512.362	1	-1
512.702	1	-6
513.043	1	-1
513.383	1	-5
513.724	1	-3
514.064	1	4
514.404	1	-2
514.745	1	-2
515.085	1	0
515.425	1	9
515.766	1	-5
516.106	1	2
516.447	1	-1
516.787	1	-1
517.127	1	15
517.468	1	3
517.808	1	11
518.148	1	5
518.489	1	10
518.829	1	4
519.169	1	1
519.510	1	7
519.850	1	2
520.190	1	-5
520.531	1	0
520.871	1	-2
521.211	1	6
521.552	1	6
521.892	1	2
522.232	1	0
522.573	1	8
522.913	1	2
523.253	1	9
523.593	1	2
523.934	1	5
524.274	1	0
524.614	1	0
524.955	1	-2
525.295	1	4
525.635	1	-1
525.975	1	4
526.316	1	1
526.656	1	9
526.996	1	3
527.337	1	-16
527.677	1	5
528.017	1	6
528.357	1	-3
528.698	1	-11
529.038	1	-6
529.378	1	-6
529.718	1	13
530.058	1	19
530.399	1	-2
530.739	1	5
531.079	1	6
531.419	1	8
531.760	1	8
532.100	1	-1
532.440	1	0
532.780	1	-11
533.120	1	-5
533.461	1	-8
533.801	1	0
534.141	1	-6
534.481	1	2
534.821	1	10
535.162	1	1
535.502	1	2
535.842	1	1
536.182	1	1
536.522	1	1
536.862	1	4
537.203	1	6
537.543	1	0
537.883	1	9
538.223	1	1
538.563	1	14
538.903	1	-3
539.243	1	1
539.584	1	-6
539.924	1	-7
540.264	1	12
540.604	1	-3
540.944	1	-6
541.284	1	4
541.624	1	-1
541.964	1	12
542.305	1	-4
542.645	1	-6
542.985	1	2
543.325	1	-2
543.665	1	8
544.005	1	13
544.345	1	0
544.685	1	-5
545.025	1	-8
545.365	1	0
545.705	1	0
546.045	1	4
546.386	1	-11
546.726	1	1
547.066	1	11
547.406	1	2
547.746	1	-17
548.086	1	6
548.426	1	7
548.766	1	5
549.106	1	10
549.446	1	5
549.786	1	-4
550.126	1	-7
550.466	1	3
550.806	1	3
551.146	1	3
551.486	1	-8
551.826	1	12
552.166	1	-3
552.506	1	7
552.846	1	0
553.186	1	0
553.526	1	2
553.866	1	-7
554.206	1	2
554.546	1	-6
554.886	1	10
555.226	1	-7
555.566	1	5
555.906	1	-6
556.246	1	1
556.586	1	-6
556.926	1	-2
557.266	1	5
557.606	1	0
557.946	1	5
558.286	1	2
558.626	1	12
558.966	1	1
559.306	1	5
559.646	1	-11
559.986	1	6
560.325	1	0
560.665	1	-5
561.005	1	3
561.345	1	1
561.685	1	3
562.025	1	-6
562.365	1	0
562.705	1	5
563.045	1	-1
563.385	1	6
563.725	1	-2
564.064	1	-3
564.404	1	-2
564.744	1	-2
565.084	1	6
565.424	1	4
565.764	1	-2
566.104	1	-4
566.444	1	-2
566.783	1	6
567.123	1	1
567.463	1	-4
567.803	1	-3
568.143	1	2
568.483	1	-5
568.823	1	6
569.162	1	7
569.502	1	4
569.842	1	0
570.182	1	-1
570.522	1	-4
570.862	1	8
571.201	1	1
571.541	1	0
571.881	1	-2
572.221	1	1
572.561	1	-1
572.900	1	-2
573.240	1	2
573.580	1	4
573.920	1	7
574.260	1	-3
574.599	1	-7
574.939	1	-5
575.279	1	3
575.619	1	8
575.959	1	-12
576.298	1	3
576.638	1	6
576.978	1	-4
577.318	1	0
577.657	1	-3
577.997	1	-11
578.337	1	6
578.677	1	1
579.016	1	-2
579.356	1	-1
579.696	1	-1
580.036	1	1
580.375	1	4
580.715	1	7
581.055	1	5
581.394	1	6
581.734	1	3
582.074	1	5
582.414	1	-5
582.753	1	-3
583.093	1	2
583.433	1	5
583.772	1	2
584.112	1	3
584.452	1	-3
584.791	1	2
585.131	1	7
585.471	1	9
585.811	1	-11
586.150	1	5
586.490	1	3
586.830	1	-4
587.169	1	8
587.509	1	-1
587.849	1	-6
588.188	1	4
588.528	1	-7
588.867	1	5
589.207	1	-3
589.547	1	6
589.886	1	0
590.226	1	2
590.566	1	1
590.905	1	3
591.245	1	-3
591.585	1	-3
591.924	1	-7
592.264	1	-1
592.603	1	6
592.943	1	-2
593.283	1	7
593.622	1	-7
593.962	1	4
594.301	1	7
594.641	1	-4
594.981	1	7
595.320	1	1
595.660	1	9
595.999	1	0
596.339	1	6
596.678	1	-13
597.018	1	-7
597.358	1	-7
597.697	1	-2
598.037	1	-7
598.376	1	-2
598.716	1	3
599.055	1	0
599.395	1	9
599.734	1	0
600.074	1	2
600.413	1	0
600.753	1	5
601.092	1	-4
601.432	1	1
601.771	1	4
602.111	1	2
602.451	1	13
602.790	1	4
603.130	1	-9
603.469	1	-5
603.809	1	1
604.148	1	2
604.487	1	5
604.827	1	2
605.166	1	7
605.506	1	-7
605.845	1	7
606.185	1	5
606.524	1	-4
606.864	1	9
607.203	1	1
607.543	1	8
607.882	1	-3
608.222	1	4
608.561	1	4
608.901	1	-1
609.240	1	-3
609.579	1	3
609.919	1	4
610.258	1	5
610.598	1	-1
610.937	1	-7
611.277	1	-2
611.616	1	4
611.955	1	-2
612.295	1	3
612.634	1	-7
612.974	1	-1
613.313	1	0
613.652	1	16
613.992	1	-4
614.331	1	7
614.671	1	10
615.010	1	2
615.349	1	1
615.689	1	5
616.028	1	-6
616.368	1	-5
616.707	1	9
617.046	1	0
617.386	1	-6
617.725	1	3
618.064	1	-8
618.404	1	-1
618.743	1	0
619.082	1	-2
619.422	1	-13
619.761	1	-2
620.100	1	4
620.440	1	11
620.779	1	0
621.118	1	-8
621.458	1	1
621.797	1	3
622.136	1	9
622.476	1	-14
622.815	1	2
623.154	1	5
623.494	1	-2
623.833	1	0
624.172	1	1
624.511	1	4
624.851	1	-10
625.190	1	-2
625.529	1	9
625.869	1	6
626.208	1	1
626.547	1	-5
626.886	1	5
627.226	1	4
627.565	1	4
627.904	1	4
628.243	1	-7
628.583	1	-8
628.922	1	-1
629.261	1	4
629.600	1	-1
629.940	1	1
630.279	1	9
630.618	1	-5
630.957	1	4
631.297	1	-5
631.636	1	12
631.975	1	-7
632.314	1	-2
632.653	1	-3
632.993	1	-5
633.332	1	-2
633.671	1	6
634.010	1	2
634.349	1	-5
634.689	1	-2
635.028	1	7
635.367	1	-2
635.706	1	-4
636.045	1	0
636.384	1	-8
636.724	1	4
637.063	1	6
637.402	1	9
637.741	1	3
638.080	1	6
638.419	1	-13
638.759	1	-2
639.098	1	-6
639.437	1	-3
639.776	1	-4
640.115	1	2
640.454	1	-5
640.793	1	-6
641.132	1	3
641.472	1	-1
641.811	1	12
642.150	1	6
642.489	1	-2
642.828	1	1
643.167	1	-4
643.506	1	7
643.845	1	1
644.184	1	8
644.524	1	4
644.863	1	-6
645.202	1	8
645.541	1	7
645.880	1	1
646.219	1	1
646.558	1	8
646.897	1	4
647.236	1	-10
647.575	1	3
647.914	1	-9
648.253	1	-2
648.592	1	3
648.931	1	-1
649.270	1	-6
649.610	1	3
649.949	1	-2
650.288	1	-5
650.627	1	-1
650.966	1	15
651.305	1	-5
651.644	1	13
651.983	1	2
652.322	1	-2
652.661	1	5
653.000	1	-8
653.339	1	-7
653.678	1	7
654.017	1	8
654.356	1	1
654.695	1	11
655.034	1	-3
655.373	1	5
655.712	1	0
656.051	1	0
656.390	1	0
656.729	1	5
657.068	1	1
657.406	1	-5
657.745	1	-3
658.084	1	-8
658.423	1	1
658.762	1	-1
659.101	1	-1
659.440	1	1
659.779	1	5
660.118	1	5
660.457	1	2
660.796	1	1
661.135	1	-11
661.474	1	-4
661.813	1	-2
662.152	1	1
662.491	1	-5
662.829	1	-8
663.168	1	11
663.507	1	-3
663.846	1	1
664.185	1	6
664.524	1	5
664.863	1	-8
665.202	1	8
665.541	1	-1
665.879	1	12
666.218	1	8
666.557	1	-6
666.896	1	-9
667.235	1	6
667.574	1	-10
667.913	1	-6
668.251	1	9
668.590	1	-1
668.929	1	10
669.268	1	2
669.607	1	2
669.946	1	5
670.285	1	14
670.623	1	-2
670.962	1	-8
671.301	1	11
671.640	1	0
671.979	1	-4
672.317	1	0
672.656	1	-6
672.995	1	-3
673.334	1	-2
673.673	1	-1
674.011	1	6
674.350	1	0
674.689	1	2
675.028	1	1
675.367	1	3
675.705	1	6
676.044	1	8
676.383	1	5
676.722	1	13
677.060	1	-2
677.399	1	4
677.738	1	-5
678.077	1	11
678.416	1	-3
678.754	1	3
679.093	1	-1
679.432	1	-3
679.771	1	-2
680.109	1	-3
680.448	1	5
680.787	1	-9
681.125	1	5
681.464	1	8
681.803	1	1
682.142	1	-1
682.480	1	-7
682.819	1	11
683.158	1	-9
683.496	1	0
683.835	1	-5
684.174	1	-15
684.512	1	0
684.851	1	2
685.190	1	-2
685.529	1	12
685.867	1	10
686.206	1	6
686.545	1	3
686.883	1	-6
687.222	1	5
687.561	1	6
687.899	1	-7
688.238	1	-13
688.577	1	5
688.746	1	2