File: Data/GaN_170K_550ms/GaN_sample D_spot 18_UVVIS_170 K_200um_550 ms 2x2mm1_236.txt
340.368	1	-4
340.710	1	-10
341.052	1	0
341.394	1	0
341.737	1	-6
342.079	1	-1
342.421	1	6
342.763	1	6
343.105	1	7
343.447	1	-8
343.789	1	9
344.131	1	3
344.473	1	0
344.815	1	12
345.157	1	-8
345.499	1	-1
345.841	1	1
346.183	1	2
346.526	1	5
346.868	1	5
347.210	1	0
347.552	1	4
347.894	1	-6
348.236	1	-7
348.578	1	0
348.920	1	4
349.262	1	6
349.604	1	8
349.946	1	4
350.288	1	-8
350.630	1	20
350.972	1	3
351.314	1	11
351.656	1	-5
351.998	1	0
352.340	1	2
352.682	1	-5
353.024	1	2
353.366	1	6
353.708	1	7
354.050	1	-2
354.392	1	-1
354.734	1	11
355.076	1	3
355.418	1	-9
355.760	1	0
356.102	1	8
356.444	1	-6
356.785	1	1
357.127	1	3
357.469	1	-1
357.811	1	8
358.153	1	8
358.495	1	5
358.837	1	9
359.179	1	-2
359.521	1	9
359.863	1	13
360.205	1	8
360.547	1	16
360.889	1	4
361.231	1	9
361.572	1	9
361.914	1	0
362.256	1	7
362.598	1	9
362.940	1	12
363.282	1	7
363.624	1	6
363.966	1	3
364.308	1	11
364.649	1	5
364.991	1	15
365.333	1	12
365.675	1	23
366.017	1	10
366.359	1	10
366.701	1	11
367.042	1	12
367.384	1	21
367.726	1	22
368.068	1	14
368.410	1	26
368.752	1	12
369.093	1	-2
369.435	1	6
369.777	1	20
370.119	1	11
370.461	1	20
370.803	1	3
371.144	1	3
371.486	1	7
371.828	1	15
372.170	1	21
372.512	1	8
372.853	1	18
373.195	1	8
373.537	1	30
373.879	1	23
374.220	1	12
374.562	1	6
374.904	1	1
375.246	1	6
375.588	1	9
375.929	1	7
376.271	1	19
376.613	1	9
376.955	1	9
377.296	1	-3
377.638	1	-1
377.980	1	-6
378.321	1	-5
378.663	1	4
379.005	1	5
379.347	1	-2
379.688	1	4
380.030	1	2
380.372	1	4
380.714	1	14
381.055	1	3
381.397	1	8
381.739	1	-1
382.080	1	-3
382.422	1	8
382.764	1	8
383.105	1	10
383.447	1	13
383.789	1	18
384.130	1	-1
384.472	1	-3
384.814	1	13
385.156	1	5
385.497	1	5
385.839	1	-5
386.180	1	18
386.522	1	9
386.864	1	4
387.205	1	6
387.547	1	11
387.889	1	3
388.230	1	1
388.572	1	11
388.914	1	-1
389.255	1	9
389.597	1	7
389.939	1	0
390.280	1	2
390.622	1	0
390.963	1	7
391.305	1	-2
391.647	1	-5
391.988	1	12
392.330	1	6
392.671	1	5
393.013	1	7
393.355	1	7
393.696	1	6
394.038	1	2
394.379	1	-3
394.721	1	4
395.062	1	-4
395.404	1	8
395.746	1	10
396.087	1	4
396.429	1	8
396.770	1	12
397.112	1	-3
397.453	1	6
397.795	1	1
398.136	1	1
398.478	1	-7
398.819	1	4
399.161	1	-11
399.503	1	4
399.844	1	-6
400.186	1	-1
400.527	1	18
400.869	1	3
401.210	1	2
401.552	1	0
401.893	1	2
402.235	1	-3
402.576	1	8
402.918	1	0
403.259	1	9
403.601	1	9
403.942	1	10
404.284	1	-11
404.625	1	4
404.967	1	11
405.308	1	10
405.649	1	3
405.991	1	8
406.332	1	-8
406.674	1	15
407.015	1	2
407.357	1	5
407.698	1	9
408.040	1	4
408.381	1	9
408.722	1	-4
409.064	1	4
409.405	1	1
409.747	1	-5
410.088	1	6
410.430	1	2
410.771	1	2
411.112	1	0
411.454	1	10
411.795	1	8
412.137	1	-15
412.478	1	-1
412.819	1	-4
413.161	1	4
413.502	1	3
413.844	1	8
414.185	1	-6
414.526	1	-1
414.868	1	-1
415.209	1	-10
415.550	1	9
415.892	1	7
416.233	1	3
416.575	1	2
416.916	1	-7
417.257	1	-2
417.599	1	-3
417.940	1	-3
418.281	1	-3
418.623	1	-4
418.964	1	-6
419.305	1	-4
419.647	1	-9
419.988	1	2
420.329	1	4
420.671	1	-4
421.012	1	-3
421.353	1	0
421.695	1	-9
422.036	1	5
422.377	1	5
422.718	1	15
423.060	1	3
423.401	1	-2
423.742	1	1
424.084	1	15
424.425	1	-5
424.766	1	-7
425.107	1	4
425.449	1	0
425.790	1	4
426.131	1	9
426.472	1	2
426.814	1	-7
427.155	1	10
427.496	1	1
427.837	1	4
428.179	1	3
428.520	1	-6
428.861	1	-3
429.202	1	-5
429.544	1	0
429.885	1	-1
430.226	1	3
430.567	1	8
430.909	1	-8
431.250	1	10
431.591	1	0
431.932	1	1
432.273	1	2
432.615	1	1
432.956	1	1
433.297	1	-1
433.638	1	9
433.979	1	-1
434.320	1	11
434.662	1	-8
435.003	1	10
435.344	1	-10
435.685	1	8
436.026	1	2
436.368	1	10
436.709	1	-7
437.050	1	0
437.391	1	-5
437.732	1	-4
438.073	1	-3
438.414	1	-6
438.756	1	0
439.097	1	6
439.438	1	3
439.779	1	7
440.120	1	3
440.461	1	14
440.802	1	7
441.143	1	-4
441.485	1	-10
441.826	1	11
442.167	1	-1
442.508	1	-9
442.849	1	-3
443.190	1	-8
443.531	1	5
443.872	1	-10
444.213	1	-1
444.554	1	3
444.895	1	-13
445.237	1	-5
445.578	1	-3
445.919	1	7
446.260	1	12
446.601	1	-1
446.942	1	5
447.283	1	7
447.624	1	5
447.965	1	-5
448.306	1	6
448.647	1	1
448.988	1	7
449.329	1	7
449.670	1	-11
450.011	1	13
450.352	1	0
450.693	1	0
451.034	1	-10
451.375	1	6
451.716	1	17
452.057	1	1
452.398	1	-1
452.739	1	-4
453.080	1	-7
453.421	1	0
453.762	1	1
454.103	1	-5
454.444	1	-8
454.785	1	-10
455.126	1	3
455.467	1	-6
455.808	1	7
456.149	1	-8
456.490	1	1
456.831	1	-7
457.172	1	2
457.513	1	1
457.854	1	5
458.195	1	1
458.536	1	2
458.877	1	4
459.218	1	5
459.559	1	8
459.899	1	0
460.240	1	-2
460.581	1	-4
460.922	1	-5
461.263	1	-8
461.604	1	11
461.945	1	3
462.286	1	5
462.627	1	4
462.968	1	12
463.309	1	7
463.649	1	-4
463.990	1	0
464.331	1	0
464.672	1	0
465.013	1	8
465.354	1	-5
465.695	1	6
466.036	1	-2
466.376	1	-6
466.717	1	-4
467.058	1	2
467.399	1	2
467.740	1	-3
468.081	1	3
468.422	1	2
468.762	1	9
469.103	1	13
469.444	1	0
469.785	1	-9
470.126	1	4
470.467	1	2
470.807	1	-6
471.148	1	-7
471.489	1	1
471.830	1	6
472.171	1	4
472.511	1	0
472.852	1	10
473.193	1	9
473.534	1	-3
473.875	1	1
474.215	1	-1
474.556	1	16
474.897	1	0
475.238	1	-7
475.578	1	8
475.919	1	9
476.260	1	11
476.601	1	3
476.942	1	-12
477.282	1	1
477.623	1	5
477.964	1	0
478.305	1	-2
478.645	1	-7
478.986	1	-3
479.327	1	-7
479.667	1	2
480.008	1	3
480.349	1	9
480.690	1	1
481.030	1	2
481.371	1	6
481.712	1	10
482.053	1	-4
482.393	1	-1
482.734	1	7
483.075	1	3
483.415	1	2
483.756	1	-5
484.097	1	-12
484.437	1	0
484.778	1	-2
485.119	1	2
485.459	1	-4
485.800	1	-3
486.141	1	17
486.481	1	9
486.822	1	1
487.163	1	0
487.503	1	3
487.844	1	-4
488.185	1	1
488.525	1	4
488.866	1	7
489.207	1	6
489.547	1	13
489.888	1	5
490.228	1	7
490.569	1	-1
490.910	1	1
491.250	1	-1
491.591	1	3
491.932	1	4
492.272	1	3
492.613	1	7
492.953	1	6
493.294	1	6
493.635	1	2
493.975	1	-1
494.316	1	3
494.656	1	6
494.997	1	12
495.337	1	1
495.678	1	4
496.019	1	-12
496.359	1	6
496.700	1	8
497.040	1	-4
497.381	1	1
497.721	1	-9
498.062	1	-6
498.403	1	-6
498.743	1	5
499.084	1	7
499.424	1	11
499.765	1	-7
500.105	1	-5
500.446	1	3
500.786	1	2
501.127	1	2
501.467	1	5
501.808	1	-11
502.148	1	9
502.489	1	6
502.829	1	5
503.170	1	11
503.510	1	-2
503.851	1	0
504.191	1	-11
504.532	1	-13
504.872	1	7
505.213	1	-6
505.553	1	2
505.894	1	7
506.234	1	-7
506.575	1	4
506.915	1	7
507.256	1	-7
507.596	1	4
507.936	1	2
508.277	1	-6
508.617	1	4
508.958	1	8
509.298	1	6
509.639	1	11
509.979	1	2
510.319	1	-10
510.660	1	-5
511.000	1	3
511.341	1	0
511.681	1	4
512.022	1	4
512.362	1	5
512.702	1	2
513.043	1	8
513.383	1	3
513.724	1	0
514.064	1	15
514.404	1	0
514.745	1	4
515.085	1	-3
515.425	1	5
515.766	1	7
516.106	1	6
516.447	1	-2
516.787	1	4
517.127	1	10
517.468	1	6
517.808	1	12
518.148	1	7
518.489	1	5
518.829	1	5
519.169	1	4
519.510	1	6
519.850	1	1
520.190	1	-4
520.531	1	-4
520.871	1	3
521.211	1	9
521.552	1	16
521.892	1	6
522.232	1	-1
522.573	1	9
522.913	1	10
523.253	1	9
523.593	1	3
523.934	1	5
524.274	1	-1
524.614	1	2
524.955	1	-1
525.295	1	-1
525.635	1	9
525.975	1	1
526.316	1	11
526.656	1	4
526.996	1	6
527.337	1	-6
527.677	1	4
528.017	1	3
528.357	1	-5
528.698	1	-3
529.038	1	-5
529.378	1	3
529.718	1	7
530.058	1	18
530.399	1	10
530.739	1	3
531.079	1	9
531.419	1	13
531.760	1	4
532.100	1	3
532.440	1	-2
532.780	1	5
533.120	1	3
533.461	1	3
533.801	1	7
534.141	1	-10
534.481	1	2
534.821	1	-1
535.162	1	9
535.502	1	8
535.842	1	8
536.182	1	8
536.522	1	11
536.862	1	11
537.203	1	2
537.543	1	4
537.883	1	11
538.223	1	-2
538.563	1	1
538.903	1	5
539.243	1	-1
539.584	1	-4
539.924	1	-1
540.264	1	7
540.604	1	6
540.944	1	-3
541.284	1	2
541.624	1	-2
541.964	1	4
542.305	1	1
542.645	1	2
542.985	1	0
543.325	1	11
543.665	1	-3
544.005	1	13
544.345	1	6
544.685	1	-5
545.025	1	0
545.365	1	5
545.705	1	3
546.045	1	-4
546.386	1	-3
546.726	1	3
547.066	1	10
547.406	1	8
547.746	1	-8
548.086	1	-1
548.426	1	9
548.766	1	2
549.106	1	8
549.446	1	11
549.786	1	0
550.126	1	8
550.466	1	2
550.806	1	0
551.146	1	3
551.486	1	-4
551.826	1	4
552.166	1	2
552.506	1	5
552.846	1	3
553.186	1	3
553.526	1	-2
553.866	1	7
554.206	1	8
554.546	1	-14
554.886	1	3
555.226	1	-14
555.566	1	4
555.906	1	-1
556.246	1	5
556.586	1	-6
556.926	1	9
557.266	1	2
557.606	1	6
557.946	1	7
558.286	1	2
558.626	1	22
558.966	1	3
559.306	1	11
559.646	1	-5
559.986	1	6
560.325	1	0
560.665	1	9
561.005	1	2
561.345	1	-8
561.685	1	1
562.025	1	-9
562.365	1	7
562.705	1	13
563.045	1	3
563.385	1	3
563.725	1	3
564.064	1	7
564.404	1	6
564.744	1	4
565.084	1	7
565.424	1	5
565.764	1	-2
566.104	1	-1
566.444	1	-3
566.783	1	1
567.123	1	4
567.463	1	-6
567.803	1	7
568.143	1	0
568.483	1	3
568.823	1	3
569.162	1	-2
569.502	1	5
569.842	1	3
570.182	1	3
570.522	1	0
570.862	1	13
571.201	1	7
571.541	1	8
571.881	1	-2
572.221	1	3
572.561	1	-2
572.900	1	-4
573.240	1	4
573.580	1	-6
573.920	1	11
574.260	1	6
574.599	1	0
574.939	1	-3
575.279	1	2
575.619	1	12
575.959	1	-1
576.298	1	10
576.638	1	4
576.978	1	0
577.318	1	0
577.657	1	1
577.997	1	-2
578.337	1	4
578.677	1	3
579.016	1	5
579.356	1	-3
579.696	1	-3
580.036	1	4
580.375	1	-3
580.715	1	-1
581.055	1	6
581.394	1	9
581.734	1	9
582.074	1	1
582.414	1	3
582.753	1	5
583.093	1	-2
583.433	1	9
583.772	1	2
584.112	1	2
584.452	1	-4
584.791	1	-7
585.131	1	12
585.471	1	-1
585.811	1	-6
586.150	1	-8
586.490	1	5
586.830	1	-8
587.169	1	9
587.509	1	5
587.849	1	0
588.188	1	-6
588.528	1	-4
588.867	1	12
589.207	1	-1
589.547	1	3
589.886	1	-3
590.226	1	0
590.566	1	-1
590.905	1	5
591.245	1	-5
591.585	1	4
591.924	1	-2
592.264	1	-9
592.603	1	2
592.943	1	5
593.283	1	4
593.622	1	-2
593.962	1	0
594.301	1	6
594.641	1	4
594.981	1	15
595.320	1	2
595.660	1	-1
595.999	1	0
596.339	1	3
596.678	1	-8
597.018	1	3
597.358	1	-5
597.697	1	4
598.037	1	6
598.376	1	-14
598.716	1	8
599.055	1	0
599.395	1	-2
599.734	1	12
600.074	1	-3
600.413	1	-8
600.753	1	8
601.092	1	1
601.432	1	3
601.771	1	-1
602.111	1	-3
602.451	1	9
602.790	1	9
603.130	1	-6
603.469	1	5
603.809	1	-1
604.148	1	-7
604.487	1	3
604.827	1	-12
605.166	1	10
605.506	1	-4
605.845	1	6
606.185	1	-1
606.524	1	-5
606.864	1	1
607.203	1	-6
607.543	1	10
607.882	1	-5
608.222	1	-6
608.561	1	6
608.901	1	5
609.240	1	-6
609.579	1	9
609.919	1	4
610.258	1	0
610.598	1	8
610.937	1	1
611.277	1	3
611.616	1	2
611.955	1	10
612.295	1	-1
612.634	1	-7
612.974	1	4
613.313	1	-2
613.652	1	11
613.992	1	0
614.331	1	-1
614.671	1	4
615.010	1	3
615.349	1	2
615.689	1	0
616.028	1	-3
616.368	1	0
616.707	1	10
617.046	1	-1
617.386	1	2
617.725	1	9
618.064	1	-1
618.404	1	0
618.743	1	6
619.082	1	3
619.422	1	-10
619.761	1	0
620.100	1	3
620.440	1	9
620.779	1	-6
621.118	1	-9
621.458	1	-7
621.797	1	1
622.136	1	10
622.476	1	-5
622.815	1	7
623.154	1	7
623.494	1	0
623.833	1	5
624.172	1	2
624.511	1	7
624.851	1	-5
625.190	1	9
625.529	1	5
625.869	1	5
626.208	1	5
626.547	1	-12
626.886	1	2
627.226	1	8
627.565	1	2
627.904	1	-5
628.243	1	-8
628.583	1	-4
628.922	1	-2
629.261	1	4
629.600	1	-2
629.940	1	5
630.279	1	2
630.618	1	-11
630.957	1	4
631.297	1	2
631.636	1	11
631.975	1	-8
632.314	1	-1
632.653	1	9
632.993	1	-1
633.332	1	1
633.671	1	0
634.010	1	8
634.349	1	-7
634.689	1	8
635.028	1	-6
635.367	1	-3
635.706	1	-11
636.045	1	7
636.384	1	-9
636.724	1	7
637.063	1	8
637.402	1	10
637.741	1	0
638.080	1	3
638.419	1	-6
638.759	1	7
639.098	1	-5
639.437	1	-9
639.776	1	0
640.115	1	4
640.454	1	2
640.793	1	-8
641.132	1	-3
641.472	1	-9
641.811	1	4
642.150	1	-3
642.489	1	-7
642.828	1	1
643.167	1	-11
643.506	1	3
643.845	1	5
644.184	1	14
644.524	1	1
644.863	1	-2
645.202	1	7
645.541	1	8
645.880	1	2
646.219	1	0
646.558	1	4
646.897	1	4
647.236	1	0
647.575	1	3
647.914	1	-1
648.253	1	2
648.592	1	4
648.931	1	7
649.270	1	-1
649.610	1	1
649.949	1	-6
650.288	1	-8
650.627	1	-3
650.966	1	5
651.305	1	-1
651.644	1	7
651.983	1	6
652.322	1	2
652.661	1	5
653.000	1	-3
653.339	1	-3
653.678	1	3
654.017	1	6
654.356	1	5
654.695	1	13
655.034	1	1
655.373	1	4
655.712	1	-3
656.051	1	-2
656.390	1	3
656.729	1	4
657.068	1	4
657.406	1	-4
657.745	1	10
658.084	1	-12
658.423	1	-6
658.762	1	-3
659.101	1	0
659.440	1	-1
659.779	1	10
660.118	1	-2
660.457	1	-1
660.796	1	-7
661.135	1	-7
661.474	1	6
661.813	1	2
662.152	1	7
662.491	1	-8
662.829	1	-1
663.168	1	2
663.507	1	7
663.846	1	-4
664.185	1	7
664.524	1	9
664.863	1	5
665.202	1	11
665.541	1	-13
665.879	1	9
666.218	1	3
666.557	1	2
666.896	1	13
667.235	1	6
667.574	1	2
667.913	1	-6
668.251	1	9
668.590	1	0
668.929	1	4
669.268	1	-6
669.607	1	1
669.946	1	3
670.285	1	9
670.623	1	6
670.962	1	-3
671.301	1	6
671.640	1	8
671.979	1	4
672.317	1	7
672.656	1	6
672.995	1	0
673.334	1	3
673.673	1	2
674.011	1	4
674.350	1	3
674.689	1	4
675.028	1	3
675.367	1	-4
675.705	1	3
676.044	1	11
676.383	1	-4
676.722	1	13
677.060	1	-6
677.399	1	-10
677.738	1	-2
678.077	1	14
678.416	1	5
678.754	1	-2
679.093	1	5
679.432	1	4
679.771	1	8
680.109	1	2
680.448	1	11
680.787	1	-7
681.125	1	-4
681.464	1	6
681.803	1	9
682.142	1	-1
682.480	1	-2
682.819	1	6
683.158	1	-1
683.496	1	5
683.835	1	-5
684.174	1	3
684.512	1	-3
684.851	1	1
685.190	1	-4
685.529	1	8
685.867	1	5
686.206	1	6
686.545	1	2
686.883	1	2
687.222	1	5
687.561	1	-2
687.899	1	-4
688.238	1	-2
688.577	1	131
688.746	1	732