File: Data/GaN_170K_550ms/GaN_sample D_spot 18_UVVIS_170 K_200um_550 ms 2x2mm1_357.txt
340.368	1	0
340.710	1	-15
341.052	1	7
341.394	1	2
341.737	1	-2
342.079	1	-3
342.421	1	7
342.763	1	1
343.105	1	15
343.447	1	-8
343.789	1	-6
344.131	1	-3
344.473	1	1
344.815	1	5
345.157	1	0
345.499	1	-11
345.841	1	1
346.183	1	3
346.526	1	3
346.868	1	-3
347.210	1	-10
347.552	1	7
347.894	1	1
348.236	1	1
348.578	1	3
348.920	1	-2
349.262	1	1
349.604	1	0
349.946	1	9
350.288	1	-7
350.630	1	6
350.972	1	-8
351.314	1	0
351.656	1	-8
351.998	1	5
352.340	1	7
352.682	1	-3
353.024	1	2
353.366	1	5
353.708	1	7
354.050	1	1
354.392	1	1
354.734	1	11
355.076	1	-4
355.418	1	-6
355.760	1	-8
356.102	1	7
356.444	1	-5
356.785	1	-4
357.127	1	3
357.469	1	-4
357.811	1	3
358.153	1	-3
358.495	1	-2
358.837	1	-4
359.179	1	-9
359.521	1	5
359.863	1	-3
360.205	1	6
360.547	1	10
360.889	1	10
361.231	1	1
361.572	1	7
361.914	1	2
362.256	1	2
362.598	1	-8
362.940	1	11
363.282	1	9
363.624	1	2
363.966	1	6
364.308	1	13
364.649	1	-5
364.991	1	3
365.333	1	0
365.675	1	13
366.017	1	3
366.359	1	1
366.701	1	5
367.042	1	-2
367.384	1	10
367.726	1	10
368.068	1	10
368.410	1	7
368.752	1	10
369.093	1	3
369.435	1	-3
369.777	1	8
370.119	1	0
370.461	1	12
370.803	1	-6
371.144	1	7
371.486	1	1
371.828	1	-1
372.170	1	6
372.512	1	2
372.853	1	11
373.195	1	10
373.537	1	5
373.879	1	4
374.220	1	12
374.562	1	-4
374.904	1	1
375.246	1	4
375.588	1	4
375.929	1	-5
376.271	1	1
376.613	1	-2
376.955	1	7
377.296	1	3
377.638	1	-2
377.980	1	-8
378.321	1	7
378.663	1	7
379.005	1	3
379.347	1	-8
379.688	1	-1
380.030	1	8
380.372	1	4
380.714	1	12
381.055	1	5
381.397	1	8
381.739	1	-1
382.080	1	-8
382.422	1	3
382.764	1	2
383.105	1	10
383.447	1	13
383.789	1	12
384.130	1	-3
384.472	1	-5
384.814	1	4
385.156	1	1
385.497	1	8
385.839	1	-5
386.180	1	-1
386.522	1	10
386.864	1	10
387.205	1	-1
387.547	1	0
387.889	1	4
388.230	1	1
388.572	1	4
388.914	1	-5
389.255	1	11
389.597	1	2
389.939	1	-4
390.280	1	-2
390.622	1	-1
390.963	1	5
391.305	1	-4
391.647	1	-6
391.988	1	14
392.330	1	7
392.671	1	-2
393.013	1	-1
393.355	1	5
393.696	1	4
394.038	1	-5
394.379	1	-1
394.721	1	-3
395.062	1	0
395.404	1	3
395.746	1	-1
396.087	1	3
396.429	1	5
396.770	1	10
397.112	1	-5
397.453	1	0
397.795	1	-6
398.136	1	-3
398.478	1	-2
398.819	1	6
399.161	1	-14
399.503	1	-2
399.844	1	-8
400.186	1	-3
400.527	1	14
400.869	1	6
401.210	1	1
401.552	1	2
401.893	1	8
402.235	1	7
402.576	1	2
402.918	1	-7
403.259	1	-3
403.601	1	14
403.942	1	11
404.284	1	-10
404.625	1	2
404.967	1	-3
405.308	1	1
405.649	1	8
405.991	1	-2
406.332	1	-7
406.674	1	6
407.015	1	7
407.357	1	-2
407.698	1	10
408.040	1	1
408.381	1	6
408.722	1	-7
409.064	1	-1
409.405	1	4
409.747	1	2
410.088	1	5
410.430	1	3
410.771	1	-2
411.112	1	-3
411.454	1	1
411.795	1	6
412.137	1	-9
412.478	1	-6
412.819	1	-10
413.161	1	0
413.502	1	1
413.844	1	-1
414.185	1	-3
414.526	1	-4
414.868	1	-3
415.209	1	-13
415.550	1	4
415.892	1	3
416.233	1	4
416.575	1	5
416.916	1	-10
417.257	1	3
417.599	1	-10
417.940	1	4
418.281	1	-1
418.623	1	-1
418.964	1	-8
419.305	1	4
419.647	1	4
419.988	1	5
420.329	1	5
420.671	1	-3
421.012	1	-4
421.353	1	-2
421.695	1	-14
422.036	1	7
422.377	1	5
422.718	1	9
423.060	1	-1
423.401	1	-4
423.742	1	0
424.084	1	20
424.425	1	-7
424.766	1	-1
425.107	1	0
425.449	1	7
425.790	1	9
426.131	1	4
426.472	1	1
426.814	1	-5
427.155	1	2
427.496	1	0
427.837	1	-4
428.179	1	5
428.520	1	5
428.861	1	2
429.202	1	-1
429.544	1	-4
429.885	1	4
430.226	1	4
430.567	1	-2
430.909	1	-6
431.250	1	15
431.591	1	4
431.932	1	-5
432.273	1	-2
432.615	1	-2
432.956	1	4
433.297	1	4
433.638	1	13
433.979	1	3
434.320	1	5
434.662	1	-6
435.003	1	5
435.344	1	6
435.685	1	-4
436.026	1	1
436.368	1	3
436.709	1	-3
437.050	1	-5
437.391	1	-9
437.732	1	2
438.073	1	-2
438.414	1	-3
438.756	1	-9
439.097	1	3
439.438	1	-4
439.779	1	4
440.120	1	-3
440.461	1	8
440.802	1	10
441.143	1	3
441.485	1	-6
441.826	1	5
442.167	1	-5
442.508	1	1
442.849	1	5
443.190	1	-3
443.531	1	-1
443.872	1	0
444.213	1	-2
444.554	1	-1
444.895	1	-13
445.237	1	-15
445.578	1	14
445.919	1	-1
446.260	1	6
446.601	1	-10
446.942	1	1
447.283	1	13
447.624	1	-4
447.965	1	-1
448.306	1	2
448.647	1	-3
448.988	1	9
449.329	1	-4
449.670	1	-14
450.011	1	6
450.352	1	-10
450.693	1	2
451.034	1	-2
451.375	1	5
451.716	1	0
452.057	1	0
452.398	1	1
452.739	1	1
453.080	1	5
453.421	1	5
453.762	1	0
454.103	1	-9
454.444	1	-6
454.785	1	-4
455.126	1	4
455.467	1	-14
455.808	1	3
456.149	1	7
456.490	1	5
456.831	1	-9
457.172	1	-3
457.513	1	10
457.854	1	11
458.195	1	3
458.536	1	-5
458.877	1	-2
459.218	1	-5
459.559	1	0
459.899	1	3
460.240	1	-4
460.581	1	-6
460.922	1	-6
461.263	1	-4
461.604	1	5
461.945	1	-2
462.286	1	2
462.627	1	0
462.968	1	2
463.309	1	7
463.649	1	3
463.990	1	1
464.331	1	-4
464.672	1	-6
465.013	1	11
465.354	1	-8
465.695	1	10
466.036	1	-15
466.376	1	0
466.717	1	0
467.058	1	1
467.399	1	10
467.740	1	-2
468.081	1	-9
468.422	1	6
468.762	1	16
469.103	1	9
469.444	1	-1
469.785	1	-1
470.126	1	0
470.467	1	8
470.807	1	5
471.148	1	-4
471.489	1	-3
471.830	1	2
472.171	1	3
472.511	1	4
472.852	1	2
473.193	1	5
473.534	1	10
473.875	1	-1
474.215	1	5
474.556	1	8
474.897	1	-9
475.238	1	-1
475.578	1	7
475.919	1	-1
476.260	1	10
476.601	1	-3
476.942	1	-11
477.282	1	5
477.623	1	7
477.964	1	3
478.305	1	-6
478.645	1	4
478.986	1	-1
479.327	1	-5
479.667	1	-2
480.008	1	9
480.349	1	6
480.690	1	5
481.030	1	3
481.371	1	-1
481.712	1	-2
482.053	1	-5
482.393	1	-6
482.734	1	-1
483.075	1	-2
483.415	1	-1
483.756	1	5
484.097	1	-3
484.437	1	1
484.778	1	-11
485.119	1	5
485.459	1	-6
485.800	1	-4
486.141	1	15
486.481	1	-4
486.822	1	2
487.163	1	6
487.503	1	-6
487.844	1	14
488.185	1	-7
488.525	1	9
488.866	1	4
489.207	1	7
489.547	1	3
489.888	1	3
490.228	1	-6
490.569	1	8
490.910	1	0
491.250	1	-5
491.591	1	1
491.932	1	12
492.272	1	12
492.613	1	8
492.953	1	1
493.294	1	0
493.635	1	-11
493.975	1	11
494.316	1	-3
494.656	1	1
494.997	1	5
495.337	1	10
495.678	1	17
496.019	1	5
496.359	1	4
496.700	1	1
497.040	1	0
497.381	1	5
497.721	1	-4
498.062	1	-5
498.403	1	-4
498.743	1	2
499.084	1	-2
499.424	1	0
499.765	1	-6
500.105	1	-12
500.446	1	-7
500.786	1	-9
501.127	1	1
501.467	1	2
501.808	1	2
502.148	1	0
502.489	1	-2
502.829	1	7
503.170	1	6
503.510	1	-2
503.851	1	-6
504.191	1	-9
504.532	1	-14
504.872	1	4
505.213	1	-7
505.553	1	3
505.894	1	14
506.234	1	2
506.575	1	5
506.915	1	5
507.256	1	-3
507.596	1	2
507.936	1	11
508.277	1	-10
508.617	1	9
508.958	1	-2
509.298	1	0
509.639	1	5
509.979	1	-2
510.319	1	-5
510.660	1	-4
511.000	1	4
511.341	1	14
511.681	1	3
512.022	1	6
512.362	1	-1
512.702	1	-8
513.043	1	5
513.383	1	5
513.724	1	1
514.064	1	5
514.404	1	-8
514.745	1	-7
515.085	1	8
515.425	1	6
515.766	1	6
516.106	1	4
516.447	1	2
516.787	1	8
517.127	1	2
517.468	1	-1
517.808	1	5
518.148	1	-1
518.489	1	3
518.829	1	-1
519.169	1	-12
519.510	1	14
519.850	1	0
520.190	1	2
520.531	1	-1
520.871	1	-3
521.211	1	-2
521.552	1	-2
521.892	1	6
522.232	1	-12
522.573	1	9
522.913	1	-1
523.253	1	16
523.593	1	10
523.934	1	-1
524.274	1	-5
524.614	1	9
524.955	1	3
525.295	1	2
525.635	1	-4
525.975	1	-7
526.316	1	13
526.656	1	11
526.996	1	8
527.337	1	-2
527.677	1	0
528.017	1	9
528.357	1	-6
528.698	1	-6
529.038	1	-4
529.378	1	0
529.718	1	5
530.058	1	11
530.399	1	-4
530.739	1	-2
531.079	1	10
531.419	1	-2
531.760	1	-5
532.100	1	3
532.440	1	0
532.780	1	-3
533.120	1	-3
533.461	1	-6
533.801	1	2
534.141	1	-8
534.481	1	7
534.821	1	5
535.162	1	7
535.502	1	7
535.842	1	-6
536.182	1	-4
536.522	1	7
536.862	1	-7
537.203	1	2
537.543	1	-1
537.883	1	8
538.223	1	10
538.563	1	1
538.903	1	4
539.243	1	-14
539.584	1	0
539.924	1	-8
540.264	1	13
540.604	1	-1
540.944	1	-9
541.284	1	12
541.624	1	-9
541.964	1	12
542.305	1	-2
542.645	1	2
542.985	1	6
543.325	1	6
543.665	1	-1
544.005	1	8
544.345	1	-5
544.685	1	1
545.025	1	-5
545.365	1	6
545.705	1	1
546.045	1	3
546.386	1	-3
546.726	1	-4
547.066	1	17
547.406	1	-6
547.746	1	-5
548.086	1	-2
548.426	1	3
548.766	1	0
549.106	1	10
549.446	1	-3
549.786	1	-3
550.126	1	8
550.466	1	-3
550.806	1	-7
551.146	1	3
551.486	1	-1
551.826	1	14
552.166	1	-9
552.506	1	12
552.846	1	4
553.186	1	3
553.526	1	-10
553.866	1	-8
554.206	1	-6
554.546	1	-10
554.886	1	-1
555.226	1	-3
555.566	1	7
555.906	1	-1
556.246	1	1
556.586	1	1
556.926	1	6
557.266	1	3
557.606	1	3
557.946	1	-1
558.286	1	2
558.626	1	7
558.966	1	5
559.306	1	3
559.646	1	-2
559.986	1	6
560.325	1	-5
560.665	1	10
561.005	1	-2
561.345	1	-2
561.685	1	0
562.025	1	-7
562.365	1	6
562.705	1	6
563.045	1	0
563.385	1	9
563.725	1	-4
564.064	1	4
564.404	1	6
564.744	1	-3
565.084	1	8
565.424	1	-2
565.764	1	-2
566.104	1	-2
566.444	1	7
566.783	1	3
567.123	1	-4
567.463	1	-4
567.803	1	-2
568.143	1	-1
568.483	1	-4
568.823	1	7
569.162	1	4
569.502	1	-1
569.842	1	3
570.182	1	0
570.522	1	1
570.862	1	3
571.201	1	2
571.541	1	0
571.881	1	-4
572.221	1	6
572.561	1	-4
572.900	1	-1
573.240	1	1
573.580	1	-1
573.920	1	0
574.260	1	6
574.599	1	3
574.939	1	-2
575.279	1	2
575.619	1	12
575.959	1	-10
576.298	1	8
576.638	1	5
576.978	1	-6
577.318	1	9
577.657	1	1
577.997	1	-9
578.337	1	5
578.677	1	-6
579.016	1	3
579.356	1	4
579.696	1	0
580.036	1	1
580.375	1	5
580.715	1	4
581.055	1	10
581.394	1	4
581.734	1	8
582.074	1	-1
582.414	1	-5
582.753	1	-3
583.093	1	2
583.433	1	13
583.772	1	-6
584.112	1	0
584.452	1	-7
584.791	1	4
585.131	1	13
585.471	1	3
585.811	1	-9
586.150	1	-5
586.490	1	6
586.830	1	-4
587.169	1	10
587.509	1	4
587.849	1	-4
588.188	1	8
588.528	1	-4
588.867	1	4
589.207	1	-6
589.547	1	4
589.886	1	-4
590.226	1	-2
590.566	1	3
590.905	1	3
591.245	1	-3
591.585	1	0
591.924	1	1
592.264	1	-17
592.603	1	-6
592.943	1	1
593.283	1	-3
593.622	1	-6
593.962	1	-1
594.301	1	9
594.641	1	0
594.981	1	4
595.320	1	-5
595.660	1	3
595.999	1	2
596.339	1	4
596.678	1	3
597.018	1	3
597.358	1	-6
597.697	1	-7
598.037	1	-6
598.376	1	-12
598.716	1	-9
599.055	1	-2
599.395	1	-3
599.734	1	0
600.074	1	-16
600.413	1	-2
600.753	1	6
601.092	1	1
601.432	1	-2
601.771	1	13
602.111	1	-5
602.451	1	-3
602.790	1	1
603.130	1	-2
603.469	1	4
603.809	1	4
604.148	1	12
604.487	1	8
604.827	1	-11
605.166	1	11
605.506	1	0
605.845	1	2
606.185	1	9
606.524	1	1
606.864	1	-3
607.203	1	3
607.543	1	9
607.882	1	4
608.222	1	-5
608.561	1	1
608.901	1	-4
609.240	1	1
609.579	1	3
609.919	1	0
610.258	1	8
610.598	1	-5
610.937	1	4
611.277	1	2
611.616	1	2
611.955	1	6
612.295	1	0
612.634	1	-4
612.974	1	1
613.313	1	-2
613.652	1	8
613.992	1	0
614.331	1	0
614.671	1	7
615.010	1	-3
615.349	1	6
615.689	1	11
616.028	1	-8
616.368	1	-1
616.707	1	-3
617.046	1	-1
617.386	1	-1
617.725	1	3
618.064	1	2
618.404	1	1
618.743	1	3
619.082	1	8
619.422	1	-10
619.761	1	1
620.100	1	5
620.440	1	1
620.779	1	3
621.118	1	4
621.458	1	0
621.797	1	13
622.136	1	-8
622.476	1	-4
622.815	1	1
623.154	1	-1
623.494	1	2
623.833	1	8
624.172	1	-1
624.511	1	2
624.851	1	-1
625.190	1	3
625.529	1	10
625.869	1	5
626.208	1	0
626.547	1	-9
626.886	1	5
627.226	1	11
627.565	1	2
627.904	1	-1
628.243	1	10
628.583	1	-8
628.922	1	-15
629.261	1	-1
629.600	1	2
629.940	1	-3
630.279	1	4
630.618	1	-5
630.957	1	6
631.297	1	-6
631.636	1	10
631.975	1	3
632.314	1	5
632.653	1	14
632.993	1	0
633.332	1	1
633.671	1	2
634.010	1	-5
634.349	1	-16
634.689	1	4
635.028	1	-2
635.367	1	1
635.706	1	-4
636.045	1	2
636.384	1	-10
636.724	1	0
637.063	1	1
637.402	1	12
637.741	1	-5
638.080	1	6
638.419	1	-13
638.759	1	4
639.098	1	-5
639.437	1	-1
639.776	1	3
640.115	1	1
640.454	1	-2
640.793	1	-2
641.132	1	12
641.472	1	-7
641.811	1	18
642.150	1	-4
642.489	1	-4
642.828	1	-2
643.167	1	-8
643.506	1	4
643.845	1	-1
644.184	1	11
644.524	1	-1
644.863	1	-9
645.202	1	14
645.541	1	-6
645.880	1	0
646.219	1	0
646.558	1	3
646.897	1	1
647.236	1	0
647.575	1	-4
647.914	1	-6
648.253	1	9
648.592	1	-5
648.931	1	1
649.270	1	3
649.610	1	7
649.949	1	1
650.288	1	-4
650.627	1	-3
650.966	1	1
651.305	1	-4
651.644	1	4
651.983	1	8
652.322	1	6
652.661	1	0
653.000	1	-1
653.339	1	-8
653.678	1	5
654.017	1	-1
654.356	1	-5
654.695	1	15
655.034	1	-1
655.373	1	1
655.712	1	-8
656.051	1	10
656.390	1	-1
656.729	1	-6
657.068	1	8
657.406	1	-10
657.745	1	9
658.084	1	-3
658.423	1	0
658.762	1	-6
659.101	1	12
659.440	1	3
659.779	1	2
660.118	1	-3
660.457	1	4
660.796	1	-5
661.135	1	-14
661.474	1	4
661.813	1	-4
662.152	1	-7
662.491	1	-6
662.829	1	-9
663.168	1	3
663.507	1	7
663.846	1	3
664.185	1	7
664.524	1	10
664.863	1	-4
665.202	1	13
665.541	1	7
665.879	1	7
666.218	1	5
666.557	1	-1
666.896	1	3
667.235	1	1
667.574	1	-8
667.913	1	3
668.251	1	4
668.590	1	3
668.929	1	-2
669.268	1	-9
669.607	1	-6
669.946	1	0
670.285	1	5
670.623	1	4
670.962	1	-8
671.301	1	3
671.640	1	3
671.979	1	-4
672.317	1	11
672.656	1	-1
672.995	1	-4
673.334	1	-11
673.673	1	-4
674.011	1	9
674.350	1	7
674.689	1	4
675.028	1	7
675.367	1	-1
675.705	1	6
676.044	1	8
676.383	1	1
676.722	1	10
677.060	1	-3
677.399	1	-6
677.738	1	1
678.077	1	15
678.416	1	-3
678.754	1	2
679.093	1	5
679.432	1	0
679.771	1	3
680.109	1	3
680.448	1	-3
680.787	1	-5
681.125	1	3
681.464	1	0
681.803	1	0
682.142	1	-4
682.480	1	3
682.819	1	8
683.158	1	-2
683.496	1	1
683.835	1	-3
684.174	1	-3
684.512	1	1
684.851	1	6
685.190	1	9
685.529	1	6
685.867	1	4
686.206	1	11
686.545	1	9
686.883	1	10
687.222	1	-2
687.561	1	-1
687.899	1	-11
688.238	1	-7
688.577	1	12
688.746	1	-2