File: Data/GaN_170K_550ms/GaN_sample D_spot 18_UVVIS_170 K_200um_550 ms 2x2mm1_110.txt
340.368	1	0
340.710	1	-6
341.052	1	6
341.394	1	8
341.737	1	-2
342.079	1	6
342.421	1	3
342.763	1	-1
343.105	1	12
343.447	1	-8
343.789	1	2
344.131	1	-1
344.473	1	0
344.815	1	6
345.157	1	-3
345.499	1	-2
345.841	1	8
346.183	1	9
346.526	1	10
346.868	1	-2
347.210	1	-3
347.552	1	16
347.894	1	-9
348.236	1	3
348.578	1	7
348.920	1	6
349.262	1	4
349.604	1	14
349.946	1	8
350.288	1	-3
350.630	1	13
350.972	1	1
351.314	1	9
351.656	1	13
351.998	1	8
352.340	1	-1
352.682	1	5
353.024	1	7
353.366	1	7
353.708	1	14
354.050	1	1
354.392	1	5
354.734	1	9
355.076	1	11
355.418	1	-4
355.760	1	1
356.102	1	13
356.444	1	11
356.785	1	0
357.127	1	11
357.469	1	6
357.811	1	12
358.153	1	23
358.495	1	9
358.837	1	18
359.179	1	12
359.521	1	19
359.863	1	18
360.205	1	19
360.547	1	17
360.889	1	23
361.231	1	19
361.572	1	38
361.914	1	23
362.256	1	22
362.598	1	27
362.940	1	33
363.282	1	39
363.624	1	37
363.966	1	40
364.308	1	39
364.649	1	39
364.991	1	48
365.333	1	45
365.675	1	68
366.017	1	59
366.359	1	55
366.701	1	46
367.042	1	68
367.384	1	70
367.726	1	78
368.068	1	70
368.410	1	79
368.752	1	73
369.093	1	49
369.435	1	72
369.777	1	67
370.119	1	65
370.461	1	75
370.803	1	53
371.144	1	61
371.486	1	62
371.828	1	52
372.170	1	53
372.512	1	49
372.853	1	60
373.195	1	57
373.537	1	47
373.879	1	47
374.220	1	55
374.562	1	40
374.904	1	43
375.246	1	34
375.588	1	28
375.929	1	33
376.271	1	39
376.613	1	42
376.955	1	36
377.296	1	27
377.638	1	41
377.980	1	16
378.321	1	34
378.663	1	23
379.005	1	14
379.347	1	15
379.688	1	21
380.030	1	22
380.372	1	23
380.714	1	28
381.055	1	23
381.397	1	21
381.739	1	23
382.080	1	5
382.422	1	19
382.764	1	21
383.105	1	18
383.447	1	17
383.789	1	26
384.130	1	9
384.472	1	11
384.814	1	20
385.156	1	13
385.497	1	20
385.839	1	2
386.180	1	18
386.522	1	23
386.864	1	12
387.205	1	9
387.547	1	14
387.889	1	19
388.230	1	6
388.572	1	16
388.914	1	9
389.255	1	19
389.597	1	10
389.939	1	4
390.280	1	6
390.622	1	1
390.963	1	5
391.305	1	2
391.647	1	-4
391.988	1	18
392.330	1	7
392.671	1	0
393.013	1	5
393.355	1	8
393.696	1	14
394.038	1	4
394.379	1	0
394.721	1	7
395.062	1	5
395.404	1	5
395.746	1	8
396.087	1	14
396.429	1	8
396.770	1	11
397.112	1	0
397.453	1	18
397.795	1	3
398.136	1	12
398.478	1	-3
398.819	1	6
399.161	1	-8
399.503	1	1
399.844	1	3
400.186	1	6
400.527	1	24
400.869	1	8
401.210	1	11
401.552	1	5
401.893	1	15
402.235	1	2
402.576	1	8
402.918	1	5
403.259	1	2
403.601	1	13
403.942	1	12
404.284	1	-5
404.625	1	0
404.967	1	6
405.308	1	8
405.649	1	7
405.991	1	4
406.332	1	-7
406.674	1	11
407.015	1	6
407.357	1	4
407.698	1	6
408.040	1	7
408.381	1	11
408.722	1	-5
409.064	1	4
409.405	1	9
409.747	1	2
410.088	1	12
410.430	1	-5
410.771	1	6
411.112	1	7
411.454	1	10
411.795	1	9
412.137	1	-1
412.478	1	0
412.819	1	-2
413.161	1	4
413.502	1	-3
413.844	1	13
414.185	1	-3
414.526	1	3
414.868	1	2
415.209	1	-4
415.550	1	-3
415.892	1	9
416.233	1	5
416.575	1	-2
416.916	1	-5
417.257	1	2
417.599	1	8
417.940	1	3
418.281	1	-9
418.623	1	-2
418.964	1	-5
419.305	1	3
419.647	1	3
419.988	1	5
420.329	1	-3
420.671	1	-10
421.012	1	3
421.353	1	3
421.695	1	4
422.036	1	1
422.377	1	12
422.718	1	6
423.060	1	1
423.401	1	0
423.742	1	-3
424.084	1	20
424.425	1	1
424.766	1	-3
425.107	1	3
425.449	1	2
425.790	1	4
426.131	1	7
426.472	1	5
426.814	1	-3
427.155	1	13
427.496	1	-6
427.837	1	9
428.179	1	8
428.520	1	-1
428.861	1	-4
429.202	1	-8
429.544	1	-10
429.885	1	10
430.226	1	2
430.567	1	5
430.909	1	0
431.250	1	13
431.591	1	-3
431.932	1	-2
432.273	1	0
432.615	1	13
432.956	1	4
433.297	1	0
433.638	1	17
433.979	1	4
434.320	1	5
434.662	1	-18
435.003	1	5
435.344	1	1
435.685	1	-2
436.026	1	3
436.368	1	5
436.709	1	0
437.050	1	0
437.391	1	3
437.732	1	2
438.073	1	-2
438.414	1	6
438.756	1	10
439.097	1	11
439.438	1	5
439.779	1	10
440.120	1	-1
440.461	1	16
440.802	1	7
441.143	1	1
441.485	1	0
441.826	1	3
442.167	1	6
442.508	1	1
442.849	1	-6
443.190	1	0
443.531	1	5
443.872	1	-10
444.213	1	3
444.554	1	2
444.895	1	-16
445.237	1	-1
445.578	1	12
445.919	1	6
446.260	1	6
446.601	1	4
446.942	1	4
447.283	1	11
447.624	1	-3
447.965	1	-6
448.306	1	2
448.647	1	6
448.988	1	14
449.329	1	3
449.670	1	-11
450.011	1	8
450.352	1	-4
450.693	1	1
451.034	1	-4
451.375	1	2
451.716	1	11
452.057	1	-5
452.398	1	7
452.739	1	1
453.080	1	-5
453.421	1	0
453.762	1	-2
454.103	1	-2
454.444	1	0
454.785	1	1
455.126	1	7
455.467	1	-10
455.808	1	5
456.149	1	-11
456.490	1	7
456.831	1	-6
457.172	1	-3
457.513	1	11
457.854	1	20
458.195	1	2
458.536	1	-1
458.877	1	0
459.218	1	-3
459.559	1	4
459.899	1	7
460.240	1	1
460.581	1	9
460.922	1	-5
461.263	1	3
461.604	1	11
461.945	1	-5
462.286	1	-6
462.627	1	10
462.968	1	4
463.309	1	5
463.649	1	8
463.990	1	1
464.331	1	3
464.672	1	-9
465.013	1	12
465.354	1	-5
465.695	1	6
466.036	1	2
466.376	1	4
466.717	1	-2
467.058	1	3
467.399	1	13
467.740	1	-4
468.081	1	0
468.422	1	9
468.762	1	5
469.103	1	8
469.444	1	0
469.785	1	0
470.126	1	11
470.467	1	13
470.807	1	-5
471.148	1	-4
471.489	1	2
471.830	1	-5
472.171	1	12
472.511	1	5
472.852	1	12
473.193	1	11
473.534	1	4
473.875	1	7
474.215	1	13
474.556	1	7
474.897	1	-2
475.238	1	-8
475.578	1	3
475.919	1	9
476.260	1	21
476.601	1	2
476.942	1	-5
477.282	1	16
477.623	1	25
477.964	1	-2
478.305	1	4
478.645	1	5
478.986	1	7
479.327	1	2
479.667	1	3
480.008	1	5
480.349	1	3
480.690	1	12
481.030	1	13
481.371	1	3
481.712	1	1
482.053	1	7
482.393	1	2
482.734	1	7
483.075	1	-1
483.415	1	1
483.756	1	-3
484.097	1	-11
484.437	1	4
484.778	1	-10
485.119	1	5
485.459	1	0
485.800	1	0
486.141	1	12
486.481	1	1
486.822	1	8
487.163	1	3
487.503	1	9
487.844	1	8
488.185	1	3
488.525	1	6
488.866	1	14
489.207	1	10
489.547	1	9
489.888	1	5
490.228	1	1
490.569	1	6
490.910	1	2
491.250	1	15
491.591	1	6
491.932	1	20
492.272	1	18
492.613	1	2
492.953	1	2
493.294	1	-1
493.635	1	3
493.975	1	6
494.316	1	0
494.656	1	-3
494.997	1	11
495.337	1	10
495.678	1	9
496.019	1	-2
496.359	1	7
496.700	1	6
497.040	1	13
497.381	1	10
497.721	1	-11
498.062	1	-1
498.403	1	9
498.743	1	10
499.084	1	1
499.424	1	6
499.765	1	-10
500.105	1	2
500.446	1	8
500.786	1	9
501.127	1	11
501.467	1	7
501.808	1	7
502.148	1	11
502.489	1	14
502.829	1	14
503.170	1	9
503.510	1	8
503.851	1	8
504.191	1	2
504.532	1	-2
504.872	1	2
505.213	1	3
505.553	1	7
505.894	1	14
506.234	1	2
506.575	1	11
506.915	1	12
507.256	1	9
507.596	1	9
507.936	1	16
508.277	1	4
508.617	1	12
508.958	1	3
509.298	1	9
509.639	1	15
509.979	1	7
510.319	1	2
510.660	1	5
511.000	1	15
511.341	1	21
511.681	1	5
512.022	1	1
512.362	1	4
512.702	1	2
513.043	1	15
513.383	1	13
513.724	1	3
514.064	1	14
514.404	1	5
514.745	1	9
515.085	1	6
515.425	1	12
515.766	1	14
516.106	1	1
516.447	1	6
516.787	1	13
517.127	1	14
517.468	1	15
517.808	1	23
518.148	1	9
518.489	1	21
518.829	1	13
519.169	1	6
519.510	1	17
519.850	1	13
520.190	1	7
520.531	1	10
520.871	1	10
521.211	1	7
521.552	1	5
521.892	1	11
522.232	1	1
522.573	1	9
522.913	1	12
523.253	1	20
523.593	1	13
523.934	1	5
524.274	1	6
524.614	1	14
524.955	1	11
525.295	1	5
525.635	1	20
525.975	1	17
526.316	1	14
526.656	1	15
526.996	1	17
527.337	1	12
527.677	1	2
528.017	1	13
528.357	1	6
528.698	1	2
529.038	1	8
529.378	1	9
529.718	1	21
530.058	1	20
530.399	1	14
530.739	1	19
531.079	1	6
531.419	1	21
531.760	1	16
532.100	1	11
532.440	1	9
532.780	1	3
533.120	1	19
533.461	1	7
533.801	1	16
534.141	1	9
534.481	1	18
534.821	1	14
535.162	1	28
535.502	1	9
535.842	1	14
536.182	1	5
536.522	1	14
536.862	1	25
537.203	1	11
537.543	1	-1
537.883	1	15
538.223	1	14
538.563	1	7
538.903	1	11
539.243	1	2
539.584	1	19
539.924	1	8
540.264	1	20
540.604	1	5
540.944	1	12
541.284	1	19
541.624	1	-2
541.964	1	17
542.305	1	7
542.645	1	4
542.985	1	15
543.325	1	13
543.665	1	12
544.005	1	11
544.345	1	12
544.685	1	14
545.025	1	14
545.365	1	13
545.705	1	15
546.045	1	4
546.386	1	4
546.726	1	12
547.066	1	18
547.406	1	6
547.746	1	6
548.086	1	17
548.426	1	16
548.766	1	6
549.106	1	16
549.446	1	11
549.786	1	8
550.126	1	7
550.466	1	7
550.806	1	6
551.146	1	7
551.486	1	2
551.826	1	12
552.166	1	6
552.506	1	19
552.846	1	-5
553.186	1	12
553.526	1	8
553.866	1	0
554.206	1	9
554.546	1	4
554.886	1	-2
555.226	1	-2
555.566	1	9
555.906	1	-2
556.246	1	4
556.586	1	5
556.926	1	12
557.266	1	1
557.606	1	10
557.946	1	13
558.286	1	13
558.626	1	22
558.966	1	8
559.306	1	14
559.646	1	4
559.986	1	16
560.325	1	-1
560.665	1	10
561.005	1	7
561.345	1	-3
561.685	1	4
562.025	1	-2
562.365	1	4
562.705	1	18
563.045	1	10
563.385	1	13
563.725	1	2
564.064	1	14
564.404	1	9
564.744	1	8
565.084	1	14
565.424	1	5
565.764	1	1
566.104	1	7
566.444	1	14
566.783	1	9
567.123	1	8
567.463	1	5
567.803	1	13
568.143	1	6
568.483	1	5
568.823	1	10
569.162	1	8
569.502	1	-2
569.842	1	-2
570.182	1	7
570.522	1	9
570.862	1	11
571.201	1	15
571.541	1	5
571.881	1	0
572.221	1	4
572.561	1	2
572.900	1	2
573.240	1	8
573.580	1	3
573.920	1	15
574.260	1	7
574.599	1	4
574.939	1	-4
575.279	1	5
575.619	1	16
575.959	1	-7
576.298	1	9
576.638	1	5
576.978	1	2
577.318	1	10
577.657	1	11
577.997	1	2
578.337	1	4
578.677	1	12
579.016	1	15
579.356	1	7
579.696	1	-2
580.036	1	10
580.375	1	7
580.715	1	13
581.055	1	11
581.394	1	2
581.734	1	7
582.074	1	6
582.414	1	3
582.753	1	5
583.093	1	12
583.433	1	19
583.772	1	7
584.112	1	5
584.452	1	5
584.791	1	4
585.131	1	14
585.471	1	8
585.811	1	-4
586.150	1	3
586.490	1	9
586.830	1	4
587.169	1	17
587.509	1	0
587.849	1	-4
588.188	1	8
588.528	1	-6
588.867	1	11
589.207	1	4
589.547	1	12
589.886	1	-4
590.226	1	9
590.566	1	9
590.905	1	7
591.245	1	16
591.585	1	5
591.924	1	-7
592.264	1	-3
592.603	1	3
592.943	1	8
593.283	1	3
593.622	1	-4
593.962	1	13
594.301	1	14
594.641	1	13
594.981	1	20
595.320	1	4
595.660	1	2
595.999	1	8
596.339	1	5
596.678	1	-2
597.018	1	7
597.358	1	-2
597.697	1	0
598.037	1	14
598.376	1	-3
598.716	1	1
599.055	1	7
599.395	1	-4
599.734	1	12
600.074	1	9
600.413	1	-1
600.753	1	6
601.092	1	4
601.432	1	-10
601.771	1	7
602.111	1	7
602.451	1	12
602.790	1	4
603.130	1	-3
603.469	1	1
603.809	1	8
604.148	1	3
604.487	1	1
604.827	1	7
605.166	1	-4
605.506	1	-4
605.845	1	8
606.185	1	8
606.524	1	3
606.864	1	10
607.203	1	12
607.543	1	12
607.882	1	5
608.222	1	6
608.561	1	13
608.901	1	8
609.240	1	1
609.579	1	0
609.919	1	9
610.258	1	11
610.598	1	4
610.937	1	15
611.277	1	2
611.616	1	-2
611.955	1	5
612.295	1	5
612.634	1	-3
612.974	1	1
613.313	1	-5
613.652	1	16
613.992	1	-1
614.331	1	6
614.671	1	15
615.010	1	6
615.349	1	5
615.689	1	17
616.028	1	6
616.368	1	6
616.707	1	10
617.046	1	-5
617.386	1	3
617.725	1	11
618.064	1	0
618.404	1	6
618.743	1	13
619.082	1	7
619.422	1	0
619.761	1	-3
620.100	1	0
620.440	1	8
620.779	1	7
621.118	1	7
621.458	1	-3
621.797	1	5
622.136	1	7
622.476	1	1
622.815	1	3
623.154	1	10
623.494	1	12
623.833	1	10
624.172	1	-2
624.511	1	23
624.851	1	7
625.190	1	6
625.529	1	16
625.869	1	15
626.208	1	2
626.547	1	-1
626.886	1	4
627.226	1	0
627.565	1	2
627.904	1	11
628.243	1	-4
628.583	1	-1
628.922	1	1
629.261	1	4
629.600	1	0
629.940	1	8
630.279	1	8
630.618	1	-5
630.957	1	11
631.297	1	2
631.636	1	5
631.975	1	-2
632.314	1	12
632.653	1	13
632.993	1	3
633.332	1	1
633.671	1	5
634.010	1	0
634.349	1	-6
634.689	1	6
635.028	1	4
635.367	1	3
635.706	1	-7
636.045	1	10
636.384	1	0
636.724	1	8
637.063	1	12
637.402	1	12
637.741	1	-3
638.080	1	10
638.419	1	-2
638.759	1	5
639.098	1	-5
639.437	1	-2
639.776	1	-5
640.115	1	10
640.454	1	-1
640.793	1	-1
641.132	1	-1
641.472	1	-1
641.811	1	6
642.150	1	-7
642.489	1	-4
642.828	1	2
643.167	1	-2
643.506	1	6
643.845	1	8
644.184	1	10
644.524	1	1
644.863	1	-9
645.202	1	12
645.541	1	6
645.880	1	10
646.219	1	-1
646.558	1	2
646.897	1	12
647.236	1	3
647.575	1	-5
647.914	1	6
648.253	1	2
648.592	1	7
648.931	1	1
649.270	1	5
649.610	1	2
649.949	1	2
650.288	1	-3
650.627	1	0
650.966	1	6
651.305	1	-6
651.644	1	9
651.983	1	10
652.322	1	4
652.661	1	12
653.000	1	3
653.339	1	-4
653.678	1	5
654.017	1	16
654.356	1	2
654.695	1	8
655.034	1	-1
655.373	1	12
655.712	1	3
656.051	1	3
656.390	1	4
656.729	1	8
657.068	1	12
657.406	1	4
657.745	1	14
658.084	1	-4
658.423	1	2
658.762	1	3
659.101	1	5
659.440	1	5
659.779	1	4
660.118	1	5
660.457	1	10
660.796	1	-3
661.135	1	-9
661.474	1	11
661.813	1	3
662.152	1	13
662.491	1	-6
662.829	1	4
663.168	1	8
663.507	1	3
663.846	1	-4
664.185	1	10
664.524	1	-3
664.863	1	3
665.202	1	16
665.541	1	5
665.879	1	7
666.218	1	10
666.557	1	2
666.896	1	4
667.235	1	1
667.574	1	-16
667.913	1	0
668.251	1	6
668.590	1	5
668.929	1	6
669.268	1	2
669.607	1	3
669.946	1	-3
670.285	1	17
670.623	1	2
670.962	1	-4
671.301	1	4
671.640	1	3
671.979	1	3
672.317	1	0
672.656	1	-4
672.995	1	-3
673.334	1	1
673.673	1	8
674.011	1	7
674.350	1	1
674.689	1	6
675.028	1	-5
675.367	1	-11
675.705	1	7
676.044	1	19
676.383	1	15
676.722	1	13
677.060	1	-2
677.399	1	12
677.738	1	2
678.077	1	18
678.416	1	-4
678.754	1	6
679.093	1	0
679.432	1	9
679.771	1	9
680.109	1	2
680.448	1	8
680.787	1	-6
681.125	1	3
681.464	1	6
681.803	1	11
682.142	1	3
682.480	1	6
682.819	1	9
683.158	1	-4
683.496	1	8
683.835	1	-1
684.174	1	2
684.512	1	6
684.851	1	3
685.190	1	0
685.529	1	19
685.867	1	2
686.206	1	12
686.545	1	18
686.883	1	2
687.222	1	3
687.561	1	6
687.899	1	-8
688.238	1	-1
688.577	1	25
688.746	1	-4