File: Data/GaN_170K_550ms/GaN_sample D_spot 18_UVVIS_170 K_200um_550 ms 2x2mm1_310.txt
340.368	1	0
340.710	1	-12
341.052	1	9
341.394	1	-1
341.737	1	1
342.079	1	3
342.421	1	3
342.763	1	2
343.105	1	2
343.447	1	-12
343.789	1	3
344.131	1	-4
344.473	1	2
344.815	1	11
345.157	1	1
345.499	1	-2
345.841	1	10
346.183	1	-1
346.526	1	0
346.868	1	4
347.210	1	-5
347.552	1	5
347.894	1	11
348.236	1	-6
348.578	1	8
348.920	1	5
349.262	1	6
349.604	1	5
349.946	1	6
350.288	1	2
350.630	1	12
350.972	1	-1
351.314	1	0
351.656	1	-1
351.998	1	3
352.340	1	1
352.682	1	2
353.024	1	0
353.366	1	-1
353.708	1	11
354.050	1	-12
354.392	1	0
354.734	1	4
355.076	1	2
355.418	1	-9
355.760	1	0
356.102	1	-2
356.444	1	-2
356.785	1	1
357.127	1	0
357.469	1	-6
357.811	1	4
358.153	1	2
358.495	1	6
358.837	1	6
359.179	1	-4
359.521	1	3
359.863	1	-5
360.205	1	7
360.547	1	2
360.889	1	6
361.231	1	0
361.572	1	11
361.914	1	5
362.256	1	-2
362.598	1	-4
362.940	1	11
363.282	1	14
363.624	1	2
363.966	1	-1
364.308	1	9
364.649	1	-1
364.991	1	7
365.333	1	4
365.675	1	8
366.017	1	6
366.359	1	16
366.701	1	12
367.042	1	4
367.384	1	14
367.726	1	17
368.068	1	4
368.410	1	16
368.752	1	9
369.093	1	-1
369.435	1	-4
369.777	1	16
370.119	1	-4
370.461	1	18
370.803	1	1
371.144	1	6
371.486	1	-1
371.828	1	3
372.170	1	0
372.512	1	3
372.853	1	17
373.195	1	5
373.537	1	19
373.879	1	3
374.220	1	11
374.562	1	2
374.904	1	4
375.246	1	5
375.588	1	4
375.929	1	-4
376.271	1	1
376.613	1	8
376.955	1	6
377.296	1	-3
377.638	1	5
377.980	1	-9
378.321	1	-1
378.663	1	-6
379.005	1	3
379.347	1	0
379.688	1	4
380.030	1	8
380.372	1	4
380.714	1	8
381.055	1	4
381.397	1	-6
381.739	1	0
382.080	1	5
382.422	1	-6
382.764	1	-1
383.105	1	4
383.447	1	11
383.789	1	10
384.130	1	-1
384.472	1	-4
384.814	1	2
385.156	1	0
385.497	1	4
385.839	1	-6
386.180	1	15
386.522	1	12
386.864	1	-3
387.205	1	-2
387.547	1	1
387.889	1	8
388.230	1	-6
388.572	1	-5
388.914	1	-4
389.255	1	8
389.597	1	6
389.939	1	4
390.280	1	-2
390.622	1	2
390.963	1	-6
391.305	1	-3
391.647	1	-5
391.988	1	10
392.330	1	10
392.671	1	-6
393.013	1	0
393.355	1	3
393.696	1	5
394.038	1	-7
394.379	1	-5
394.721	1	0
395.062	1	-5
395.404	1	6
395.746	1	7
396.087	1	10
396.429	1	4
396.770	1	6
397.112	1	-4
397.453	1	7
397.795	1	-3
398.136	1	4
398.478	1	-1
398.819	1	-2
399.161	1	-7
399.503	1	1
399.844	1	-1
400.186	1	-6
400.527	1	15
400.869	1	2
401.210	1	9
401.552	1	8
401.893	1	11
402.235	1	-5
402.576	1	-1
402.918	1	2
403.259	1	1
403.601	1	-2
403.942	1	1
404.284	1	-5
404.625	1	4
404.967	1	10
405.308	1	2
405.649	1	2
405.991	1	-5
406.332	1	-4
406.674	1	11
407.015	1	4
407.357	1	-3
407.698	1	1
408.040	1	9
408.381	1	5
408.722	1	-4
409.064	1	-9
409.405	1	2
409.747	1	5
410.088	1	3
410.430	1	-3
410.771	1	3
411.112	1	-2
411.454	1	7
411.795	1	10
412.137	1	1
412.478	1	-14
412.819	1	-12
413.161	1	0
413.502	1	-1
413.844	1	0
414.185	1	4
414.526	1	1
414.868	1	-12
415.209	1	-10
415.550	1	-9
415.892	1	7
416.233	1	1
416.575	1	-10
416.916	1	-8
417.257	1	0
417.599	1	3
417.940	1	-6
418.281	1	-9
418.623	1	2
418.964	1	-15
419.305	1	-3
419.647	1	6
419.988	1	-4
420.329	1	4
420.671	1	-9
421.012	1	-2
421.353	1	4
421.695	1	-5
422.036	1	5
422.377	1	6
422.718	1	6
423.060	1	1
423.401	1	2
423.742	1	-6
424.084	1	13
424.425	1	-8
424.766	1	-5
425.107	1	-6
425.449	1	11
425.790	1	-1
426.131	1	12
426.472	1	-1
426.814	1	-14
427.155	1	6
427.496	1	6
427.837	1	-3
428.179	1	1
428.520	1	2
428.861	1	5
429.202	1	-6
429.544	1	-5
429.885	1	-4
430.226	1	-2
430.567	1	1
430.909	1	2
431.250	1	4
431.591	1	0
431.932	1	-13
432.273	1	1
432.615	1	3
432.956	1	5
433.297	1	2
433.638	1	8
433.979	1	-3
434.320	1	5
434.662	1	-8
435.003	1	3
435.344	1	-5
435.685	1	-2
436.026	1	1
436.368	1	4
436.709	1	7
437.050	1	-8
437.391	1	-15
437.732	1	1
438.073	1	-4
438.414	1	-12
438.756	1	1
439.097	1	6
439.438	1	-1
439.779	1	-1
440.120	1	-4
440.461	1	15
440.802	1	6
441.143	1	-6
441.485	1	-3
441.826	1	3
442.167	1	0
442.508	1	-3
442.849	1	4
443.190	1	-4
443.531	1	-8
443.872	1	-3
444.213	1	2
444.554	1	-3
444.895	1	-21
445.237	1	-8
445.578	1	5
445.919	1	3
446.260	1	-3
446.601	1	-10
446.942	1	3
447.283	1	14
447.624	1	-1
447.965	1	-8
448.306	1	-3
448.647	1	1
448.988	1	3
449.329	1	-10
449.670	1	-12
450.011	1	3
450.352	1	-4
450.693	1	6
451.034	1	-5
451.375	1	5
451.716	1	6
452.057	1	-4
452.398	1	1
452.739	1	11
453.080	1	-3
453.421	1	8
453.762	1	-3
454.103	1	-4
454.444	1	-4
454.785	1	-7
455.126	1	10
455.467	1	-5
455.808	1	13
456.149	1	3
456.490	1	1
456.831	1	2
457.172	1	-5
457.513	1	-4
457.854	1	8
458.195	1	0
458.536	1	-7
458.877	1	2
459.218	1	5
459.559	1	1
459.899	1	1
460.240	1	-5
460.581	1	5
460.922	1	-4
461.263	1	2
461.604	1	11
461.945	1	-5
462.286	1	2
462.627	1	9
462.968	1	12
463.309	1	6
463.649	1	8
463.990	1	-4
464.331	1	-1
464.672	1	1
465.013	1	7
465.354	1	-6
465.695	1	-1
466.036	1	-16
466.376	1	4
466.717	1	3
467.058	1	5
467.399	1	10
467.740	1	-1
468.081	1	0
468.422	1	-1
468.762	1	10
469.103	1	9
469.444	1	4
469.785	1	-4
470.126	1	-6
470.467	1	2
470.807	1	1
471.148	1	-1
471.489	1	-1
471.830	1	-2
472.171	1	7
472.511	1	3
472.852	1	-1
473.193	1	4
473.534	1	-4
473.875	1	4
474.215	1	-4
474.556	1	9
474.897	1	-1
475.238	1	-6
475.578	1	4
475.919	1	4
476.260	1	11
476.601	1	-3
476.942	1	-7
477.282	1	12
477.623	1	6
477.964	1	0
478.305	1	-4
478.645	1	1
478.986	1	-2
479.327	1	-8
479.667	1	-9
480.008	1	1
480.349	1	6
480.690	1	0
481.030	1	0
481.371	1	4
481.712	1	-4
482.053	1	-2
482.393	1	-9
482.734	1	5
483.075	1	-3
483.415	1	-1
483.756	1	0
484.097	1	-12
484.437	1	0
484.778	1	-14
485.119	1	14
485.459	1	-2
485.800	1	-2
486.141	1	4
486.481	1	-1
486.822	1	3
487.163	1	-8
487.503	1	-2
487.844	1	-1
488.185	1	3
488.525	1	7
488.866	1	9
489.207	1	-2
489.547	1	8
489.888	1	4
490.228	1	-6
490.569	1	8
490.910	1	-9
491.250	1	4
491.591	1	3
491.932	1	3
492.272	1	8
492.613	1	0
492.953	1	1
493.294	1	3
493.635	1	-8
493.975	1	0
494.316	1	2
494.656	1	11
494.997	1	0
495.337	1	10
495.678	1	8
496.019	1	-11
496.359	1	9
496.700	1	7
497.040	1	-3
497.381	1	9
497.721	1	-4
498.062	1	2
498.403	1	9
498.743	1	0
499.084	1	10
499.424	1	3
499.765	1	-12
500.105	1	-7
500.446	1	2
500.786	1	2
501.127	1	3
501.467	1	2
501.808	1	-10
502.148	1	6
502.489	1	1
502.829	1	6
503.170	1	-2
503.510	1	4
503.851	1	-4
504.191	1	0
504.532	1	-7
504.872	1	-4
505.213	1	-7
505.553	1	0
505.894	1	16
506.234	1	-6
506.575	1	6
506.915	1	15
507.256	1	-5
507.596	1	9
507.936	1	11
508.277	1	-6
508.617	1	8
508.958	1	4
509.298	1	3
509.639	1	11
509.979	1	-2
510.319	1	-7
510.660	1	0
511.000	1	-8
511.341	1	9
511.681	1	-1
512.022	1	4
512.362	1	0
512.702	1	-8
513.043	1	4
513.383	1	-9
513.724	1	-4
514.064	1	4
514.404	1	4
514.745	1	-8
515.085	1	8
515.425	1	4
515.766	1	-1
516.106	1	11
516.447	1	-2
516.787	1	6
517.127	1	5
517.468	1	3
517.808	1	2
518.148	1	1
518.489	1	8
518.829	1	-1
519.169	1	-6
519.510	1	10
519.850	1	1
520.190	1	-3
520.531	1	6
520.871	1	0
521.211	1	5
521.552	1	2
521.892	1	-2
522.232	1	-5
522.573	1	15
522.913	1	10
523.253	1	14
523.593	1	5
523.934	1	6
524.274	1	0
524.614	1	4
524.955	1	0
525.295	1	1
525.635	1	-3
525.975	1	-8
526.316	1	8
526.656	1	10
526.996	1	5
527.337	1	3
527.677	1	-2
528.017	1	8
528.357	1	-3
528.698	1	-10
529.038	1	-3
529.378	1	0
529.718	1	1
530.058	1	3
530.399	1	8
530.739	1	10
531.079	1	-1
531.419	1	7
531.760	1	3
532.100	1	-4
532.440	1	1
532.780	1	-1
533.120	1	1
533.461	1	0
533.801	1	5
534.141	1	2
534.481	1	13
534.821	1	5
535.162	1	3
535.502	1	4
535.842	1	7
536.182	1	0
536.522	1	13
536.862	1	-2
537.203	1	3
537.543	1	-8
537.883	1	-1
538.223	1	4
538.563	1	-1
538.903	1	10
539.243	1	9
539.584	1	3
539.924	1	-3
540.264	1	12
540.604	1	-1
540.944	1	-2
541.284	1	3
541.624	1	-3
541.964	1	1
542.305	1	3
542.645	1	-7
542.985	1	10
543.325	1	-4
543.665	1	1
544.005	1	16
544.345	1	0
544.685	1	-2
545.025	1	-2
545.365	1	5
545.705	1	1
546.045	1	4
546.386	1	-5
546.726	1	3
547.066	1	12
547.406	1	0
547.746	1	-8
548.086	1	1
548.426	1	8
548.766	1	-5
549.106	1	8
549.446	1	3
549.786	1	1
550.126	1	4
550.466	1	-7
550.806	1	-1
551.146	1	7
551.486	1	-7
551.826	1	1
552.166	1	2
552.506	1	2
552.846	1	7
553.186	1	2
553.526	1	-4
553.866	1	0
554.206	1	6
554.546	1	-10
554.886	1	-2
555.226	1	2
555.566	1	9
555.906	1	-9
556.246	1	5
556.586	1	-14
556.926	1	1
557.266	1	4
557.606	1	13
557.946	1	1
558.286	1	-4
558.626	1	7
558.966	1	7
559.306	1	8
559.646	1	-6
559.986	1	-4
560.325	1	-5
560.665	1	-4
561.005	1	-2
561.345	1	-4
561.685	1	-1
562.025	1	-8
562.365	1	-3
562.705	1	-1
563.045	1	0
563.385	1	8
563.725	1	-7
564.064	1	7
564.404	1	3
564.744	1	10
565.084	1	3
565.424	1	-1
565.764	1	4
566.104	1	3
566.444	1	1
566.783	1	5
567.123	1	1
567.463	1	1
567.803	1	-1
568.143	1	-2
568.483	1	2
568.823	1	3
569.162	1	-1
569.502	1	-3
569.842	1	-7
570.182	1	3
570.522	1	1
570.862	1	8
571.201	1	0
571.541	1	-7
571.881	1	-8
572.221	1	-1
572.561	1	-2
572.900	1	0
573.240	1	6
573.580	1	0
573.920	1	14
574.260	1	4
574.599	1	-6
574.939	1	-4
575.279	1	-2
575.619	1	5
575.959	1	-6
576.298	1	8
576.638	1	6
576.978	1	-2
577.318	1	0
577.657	1	7
577.997	1	-1
578.337	1	2
578.677	1	6
579.016	1	2
579.356	1	2
579.696	1	-4
580.036	1	2
580.375	1	0
580.715	1	5
581.055	1	-2
581.394	1	8
581.734	1	1
582.074	1	7
582.414	1	-8
582.753	1	6
583.093	1	0
583.433	1	4
583.772	1	-1
584.112	1	-3
584.452	1	-8
584.791	1	-3
585.131	1	2
585.471	1	10
585.811	1	-9
586.150	1	-2
586.490	1	4
586.830	1	-5
587.169	1	13
587.509	1	9
587.849	1	-1
588.188	1	-4
588.528	1	-8
588.867	1	-2
589.207	1	-2
589.547	1	5
589.886	1	-7
590.226	1	6
590.566	1	-4
590.905	1	13
591.245	1	2
591.585	1	-2
591.924	1	-3
592.264	1	-14
592.603	1	-6
592.943	1	11
593.283	1	4
593.622	1	-11
593.962	1	0
594.301	1	11
594.641	1	4
594.981	1	17
595.320	1	-3
595.660	1	3
595.999	1	1
596.339	1	5
596.678	1	1
597.018	1	-2
597.358	1	-13
597.697	1	0
598.037	1	0
598.376	1	-9
598.716	1	2
599.055	1	-4
599.395	1	-2
599.734	1	13
600.074	1	-10
600.413	1	0
600.753	1	6
601.092	1	1
601.432	1	4
601.771	1	-1
602.111	1	0
602.451	1	3
602.790	1	6
603.130	1	1
603.469	1	2
603.809	1	6
604.148	1	4
604.487	1	-1
604.827	1	-9
605.166	1	12
605.506	1	3
605.845	1	4
606.185	1	9
606.524	1	-9
606.864	1	-2
607.203	1	-4
607.543	1	9
607.882	1	-10
608.222	1	-7
608.561	1	12
608.901	1	9
609.240	1	0
609.579	1	3
609.919	1	2
610.258	1	3
610.598	1	8
610.937	1	4
611.277	1	6
611.616	1	4
611.955	1	4
612.295	1	-6
612.634	1	-2
612.974	1	0
613.313	1	3
613.652	1	14
613.992	1	-3
614.331	1	-6
614.671	1	7
615.010	1	0
615.349	1	10
615.689	1	3
616.028	1	0
616.368	1	0
616.707	1	13
617.046	1	-6
617.386	1	2
617.725	1	0
618.064	1	-5
618.404	1	2
618.743	1	-1
619.082	1	0
619.422	1	-16
619.761	1	-5
620.100	1	0
620.440	1	6
620.779	1	0
621.118	1	-4
621.458	1	-2
621.797	1	12
622.136	1	-1
622.476	1	-4
622.815	1	0
623.154	1	2
623.494	1	-4
623.833	1	-1
624.172	1	6
624.511	1	7
624.851	1	-4
625.190	1	-3
625.529	1	9
625.869	1	10
626.208	1	2
626.547	1	-9
626.886	1	-4
627.226	1	5
627.565	1	-4
627.904	1	-1
628.243	1	-5
628.583	1	-8
628.922	1	-10
629.261	1	1
629.600	1	-2
629.940	1	1
630.279	1	-1
630.618	1	-2
630.957	1	6
631.297	1	3
631.636	1	-1
631.975	1	-6
632.314	1	0
632.653	1	7
632.993	1	0
633.332	1	6
633.671	1	3
634.010	1	5
634.349	1	-7
634.689	1	2
635.028	1	2
635.367	1	-2
635.706	1	-7
636.045	1	4
636.384	1	-2
636.724	1	0
637.063	1	1
637.402	1	1
637.741	1	-2
638.080	1	9
638.419	1	-9
638.759	1	1
639.098	1	-11
639.437	1	-7
639.776	1	-5
640.115	1	5
640.454	1	1
640.793	1	-6
641.132	1	0
641.472	1	0
641.811	1	1
642.150	1	-2
642.489	1	-4
642.828	1	-2
643.167	1	-6
643.506	1	3
643.845	1	-3
644.184	1	7
644.524	1	0
644.863	1	-10
645.202	1	6
645.541	1	-3
645.880	1	-3
646.219	1	-1
646.558	1	2
646.897	1	3
647.236	1	-8
647.575	1	-1
647.914	1	5
648.253	1	-6
648.592	1	-3
648.931	1	3
649.270	1	-8
649.610	1	3
649.949	1	-8
650.288	1	-1
650.627	1	0
650.966	1	6
651.305	1	-5
651.644	1	1
651.983	1	5
652.322	1	-2
652.661	1	-1
653.000	1	4
653.339	1	-5
653.678	1	-1
654.017	1	-7
654.356	1	-6
654.695	1	4
655.034	1	-3
655.373	1	1
655.712	1	-13
656.051	1	-1
656.390	1	-6
656.729	1	5
657.068	1	4
657.406	1	1
657.745	1	13
658.084	1	-6
658.423	1	4
658.762	1	-3
659.101	1	13
659.440	1	-5
659.779	1	0
660.118	1	10
660.457	1	1
660.796	1	-3
661.135	1	-18
661.474	1	4
661.813	1	1
662.152	1	4
662.491	1	-10
662.829	1	-2
663.168	1	9
663.507	1	3
663.846	1	-2
664.185	1	8
664.524	1	-1
664.863	1	-2
665.202	1	13
665.541	1	8
665.879	1	1
666.218	1	13
666.557	1	-11
666.896	1	-3
667.235	1	1
667.574	1	-7
667.913	1	0
668.251	1	1
668.590	1	-10
668.929	1	4
669.268	1	-3
669.607	1	-1
669.946	1	-5
670.285	1	12
670.623	1	-2
670.962	1	-13
671.301	1	-3
671.640	1	-4
671.979	1	5
672.317	1	2
672.656	1	-3
672.995	1	-3
673.334	1	-9
673.673	1	9
674.011	1	8
674.350	1	5
674.689	1	-1
675.028	1	3
675.367	1	-4
675.705	1	-2
676.044	1	3
676.383	1	5
676.722	1	9
677.060	1	-3
677.399	1	-4
677.738	1	0
678.077	1	14
678.416	1	-11
678.754	1	5
679.093	1	-2
679.432	1	3
679.771	1	11
680.109	1	-10
680.448	1	5
680.787	1	0
681.125	1	5
681.464	1	8
681.803	1	3
682.142	1	-5
682.480	1	3
682.819	1	9
683.158	1	0
683.496	1	-1
683.835	1	-12
684.174	1	-4
684.512	1	-3
684.851	1	-6
685.190	1	-2
685.529	1	15
685.867	1	10
686.206	1	3
686.545	1	4
686.883	1	1
687.222	1	-13
687.561	1	1
687.899	1	-9
688.238	1	-6
688.577	1	16
688.746	1	-8