File: Data/GaN_170K_550ms/GaN_sample D_spot 18_UVVIS_170 K_200um_550 ms 2x2mm1_88.txt
340.368	1	-5
340.710	1	-11
341.052	1	9
341.394	1	18
341.737	1	-2
342.079	1	-2
342.421	1	2
342.763	1	6
343.105	1	11
343.447	1	-4
343.789	1	20
344.131	1	7
344.473	1	1
344.815	1	6
345.157	1	-4
345.499	1	-2
345.841	1	6
346.183	1	6
346.526	1	13
346.868	1	10
347.210	1	-5
347.552	1	14
347.894	1	8
348.236	1	1
348.578	1	8
348.920	1	6
349.262	1	8
349.604	1	18
349.946	1	9
350.288	1	7
350.630	1	15
350.972	1	-9
351.314	1	5
351.656	1	4
351.998	1	13
352.340	1	17
352.682	1	4
353.024	1	10
353.366	1	5
353.708	1	16
354.050	1	12
354.392	1	12
354.734	1	17
355.076	1	8
355.418	1	8
355.760	1	6
356.102	1	13
356.444	1	7
356.785	1	12
357.127	1	11
357.469	1	10
357.811	1	24
358.153	1	20
358.495	1	18
358.837	1	18
359.179	1	18
359.521	1	25
359.863	1	26
360.205	1	32
360.547	1	29
360.889	1	36
361.231	1	35
361.572	1	46
361.914	1	42
362.256	1	49
362.598	1	53
362.940	1	60
363.282	1	55
363.624	1	53
363.966	1	61
364.308	1	70
364.649	1	68
364.991	1	84
365.333	1	83
365.675	1	106
366.017	1	104
366.359	1	97
366.701	1	109
367.042	1	125
367.384	1	130
367.726	1	128
368.068	1	135
368.410	1	143
368.752	1	139
369.093	1	128
369.435	1	135
369.777	1	128
370.119	1	118
370.461	1	119
370.803	1	113
371.144	1	115
371.486	1	108
371.828	1	102
372.170	1	99
372.512	1	93
372.853	1	97
373.195	1	81
373.537	1	102
373.879	1	82
374.220	1	80
374.562	1	70
374.904	1	61
375.246	1	60
375.588	1	60
375.929	1	67
376.271	1	63
376.613	1	57
376.955	1	53
377.296	1	54
377.638	1	48
377.980	1	43
378.321	1	45
378.663	1	44
379.005	1	38
379.347	1	43
379.688	1	33
380.030	1	36
380.372	1	35
380.714	1	39
381.055	1	22
381.397	1	37
381.739	1	20
382.080	1	21
382.422	1	32
382.764	1	29
383.105	1	25
383.447	1	30
383.789	1	34
384.130	1	17
384.472	1	17
384.814	1	21
385.156	1	12
385.497	1	30
385.839	1	14
386.180	1	30
386.522	1	22
386.864	1	24
387.205	1	7
387.547	1	12
387.889	1	21
388.230	1	13
388.572	1	18
388.914	1	12
389.255	1	22
389.597	1	12
389.939	1	6
390.280	1	15
390.622	1	9
390.963	1	16
391.305	1	9
391.647	1	0
391.988	1	25
392.330	1	11
392.671	1	13
393.013	1	6
393.355	1	8
393.696	1	25
394.038	1	4
394.379	1	8
394.721	1	-2
395.062	1	10
395.404	1	10
395.746	1	6
396.087	1	12
396.429	1	12
396.770	1	13
397.112	1	4
397.453	1	15
397.795	1	10
398.136	1	14
398.478	1	10
398.819	1	8
399.161	1	-2
399.503	1	6
399.844	1	-3
400.186	1	18
400.527	1	14
400.869	1	5
401.210	1	11
401.552	1	-1
401.893	1	7
402.235	1	16
402.576	1	6
402.918	1	2
403.259	1	6
403.601	1	12
403.942	1	6
404.284	1	-4
404.625	1	5
404.967	1	8
405.308	1	11
405.649	1	7
405.991	1	9
406.332	1	-9
406.674	1	14
407.015	1	13
407.357	1	6
407.698	1	1
408.040	1	15
408.381	1	10
408.722	1	5
409.064	1	5
409.405	1	4
409.747	1	0
410.088	1	15
410.430	1	1
410.771	1	0
411.112	1	8
411.454	1	10
411.795	1	15
412.137	1	8
412.478	1	3
412.819	1	-1
413.161	1	5
413.502	1	13
413.844	1	9
414.185	1	-3
414.526	1	-1
414.868	1	1
415.209	1	-9
415.550	1	3
415.892	1	4
416.233	1	6
416.575	1	5
416.916	1	1
417.257	1	6
417.599	1	9
417.940	1	9
418.281	1	-5
418.623	1	16
418.964	1	-6
419.305	1	-3
419.647	1	8
419.988	1	10
420.329	1	2
420.671	1	-4
421.012	1	13
421.353	1	9
421.695	1	1
422.036	1	12
422.377	1	14
422.718	1	12
423.060	1	6
423.401	1	2
423.742	1	-2
424.084	1	14
424.425	1	-3
424.766	1	2
425.107	1	2
425.449	1	2
425.790	1	-2
426.131	1	11
426.472	1	2
426.814	1	-6
427.155	1	6
427.496	1	10
427.837	1	2
428.179	1	8
428.520	1	6
428.861	1	7
429.202	1	4
429.544	1	1
429.885	1	7
430.226	1	-1
430.567	1	9
430.909	1	-5
431.250	1	7
431.591	1	-2
431.932	1	5
432.273	1	8
432.615	1	-1
432.956	1	12
433.297	1	2
433.638	1	10
433.979	1	9
434.320	1	7
434.662	1	-10
435.003	1	11
435.344	1	3
435.685	1	8
436.026	1	2
436.368	1	1
436.709	1	7
437.050	1	-4
437.391	1	0
437.732	1	5
438.073	1	-10
438.414	1	-9
438.756	1	-4
439.097	1	9
439.438	1	7
439.779	1	16
440.120	1	-13
440.461	1	20
440.802	1	12
441.143	1	0
441.485	1	5
441.826	1	-1
442.167	1	16
442.508	1	-4
442.849	1	-3
443.190	1	0
443.531	1	-2
443.872	1	-1
444.213	1	-3
444.554	1	5
444.895	1	-14
445.237	1	-10
445.578	1	11
445.919	1	4
446.260	1	1
446.601	1	-3
446.942	1	6
447.283	1	4
447.624	1	4
447.965	1	-1
448.306	1	0
448.647	1	2
448.988	1	8
449.329	1	2
449.670	1	-15
450.011	1	7
450.352	1	-1
450.693	1	3
451.034	1	0
451.375	1	5
451.716	1	11
452.057	1	0
452.398	1	1
452.739	1	4
453.080	1	2
453.421	1	7
453.762	1	10
454.103	1	-6
454.444	1	-4
454.785	1	1
455.126	1	8
455.467	1	-3
455.808	1	12
456.149	1	4
456.490	1	1
456.831	1	-2
457.172	1	-3
457.513	1	8
457.854	1	13
458.195	1	-3
458.536	1	-3
458.877	1	13
459.218	1	6
459.559	1	8
459.899	1	2
460.240	1	-8
460.581	1	10
460.922	1	3
461.263	1	-1
461.604	1	6
461.945	1	7
462.286	1	6
462.627	1	8
462.968	1	19
463.309	1	2
463.649	1	14
463.990	1	3
464.331	1	-1
464.672	1	4
465.013	1	16
465.354	1	3
465.695	1	8
466.036	1	0
466.376	1	10
466.717	1	1
467.058	1	12
467.399	1	22
467.740	1	1
468.081	1	2
468.422	1	7
468.762	1	18
469.103	1	4
469.444	1	3
469.785	1	3
470.126	1	12
470.467	1	9
470.807	1	3
471.148	1	2
471.489	1	5
471.830	1	2
472.171	1	13
472.511	1	5
472.852	1	7
473.193	1	11
473.534	1	10
473.875	1	4
474.215	1	9
474.556	1	3
474.897	1	8
475.238	1	-3
475.578	1	-1
475.919	1	8
476.260	1	10
476.601	1	8
476.942	1	-2
477.282	1	14
477.623	1	18
477.964	1	4
478.305	1	-2
478.645	1	4
478.986	1	7
479.327	1	-4
479.667	1	-4
480.008	1	12
480.349	1	9
480.690	1	17
481.030	1	5
481.371	1	7
481.712	1	4
482.053	1	7
482.393	1	4
482.734	1	12
483.075	1	3
483.415	1	8
483.756	1	7
484.097	1	8
484.437	1	7
484.778	1	2
485.119	1	14
485.459	1	12
485.800	1	1
486.141	1	17
486.481	1	-1
486.822	1	15
487.163	1	9
487.503	1	6
487.844	1	3
488.185	1	12
488.525	1	9
488.866	1	10
489.207	1	4
489.547	1	12
489.888	1	4
490.228	1	5
490.569	1	3
490.910	1	11
491.250	1	8
491.591	1	14
491.932	1	14
492.272	1	6
492.613	1	9
492.953	1	8
493.294	1	3
493.635	1	5
493.975	1	15
494.316	1	8
494.656	1	8
494.997	1	7
495.337	1	22
495.678	1	18
496.019	1	3
496.359	1	5
496.700	1	23
497.040	1	13
497.381	1	7
497.721	1	11
498.062	1	8
498.403	1	18
498.743	1	14
499.084	1	14
499.424	1	13
499.765	1	-3
500.105	1	3
500.446	1	7
500.786	1	11
501.127	1	13
501.467	1	9
501.808	1	9
502.148	1	14
502.489	1	22
502.829	1	14
503.170	1	19
503.510	1	15
503.851	1	17
504.191	1	9
504.532	1	8
504.872	1	11
505.213	1	6
505.553	1	7
505.894	1	20
506.234	1	7
506.575	1	27
506.915	1	8
507.256	1	9
507.596	1	24
507.936	1	25
508.277	1	13
508.617	1	21
508.958	1	14
509.298	1	19
509.639	1	30
509.979	1	18
510.319	1	2
510.660	1	10
511.000	1	23
511.341	1	22
511.681	1	21
512.022	1	23
512.362	1	11
512.702	1	3
513.043	1	19
513.383	1	15
513.724	1	16
514.064	1	27
514.404	1	11
514.745	1	13
515.085	1	19
515.425	1	20
515.766	1	13
516.106	1	17
516.447	1	12
516.787	1	22
517.127	1	23
517.468	1	21
517.808	1	27
518.148	1	18
518.489	1	29
518.829	1	22
519.169	1	20
519.510	1	27
519.850	1	21
520.190	1	21
520.531	1	27
520.871	1	20
521.211	1	21
521.552	1	22
521.892	1	16
522.232	1	19
522.573	1	16
522.913	1	20
523.253	1	32
523.593	1	15
523.934	1	17
524.274	1	14
524.614	1	25
524.955	1	14
525.295	1	25
525.635	1	24
525.975	1	15
526.316	1	32
526.656	1	23
526.996	1	22
527.337	1	11
527.677	1	22
528.017	1	20
528.357	1	16
528.698	1	18
529.038	1	16
529.378	1	19
529.718	1	44
530.058	1	18
530.399	1	21
530.739	1	28
531.079	1	25
531.419	1	24
531.760	1	28
532.100	1	12
532.440	1	31
532.780	1	12
533.120	1	23
533.461	1	22
533.801	1	29
534.141	1	11
534.481	1	21
534.821	1	27
535.162	1	20
535.502	1	20
535.842	1	20
536.182	1	21
536.522	1	29
536.862	1	21
537.203	1	22
537.543	1	21
537.883	1	18
538.223	1	19
538.563	1	25
538.903	1	16
539.243	1	16
539.584	1	9
539.924	1	1
540.264	1	15
540.604	1	16
540.944	1	16
541.284	1	21
541.624	1	14
541.964	1	17
542.305	1	26
542.645	1	12
542.985	1	16
543.325	1	16
543.665	1	17
544.005	1	24
544.345	1	18
544.685	1	18
545.025	1	28
545.365	1	13
545.705	1	15
546.045	1	18
546.386	1	13
546.726	1	30
547.066	1	30
547.406	1	15
547.746	1	14
548.086	1	18
548.426	1	18
548.766	1	20
549.106	1	34
549.446	1	21
549.786	1	18
550.126	1	30
550.466	1	18
550.806	1	22
551.146	1	25
551.486	1	23
551.826	1	23
552.166	1	14
552.506	1	19
552.846	1	12
553.186	1	27
553.526	1	15
553.866	1	8
554.206	1	16
554.546	1	11
554.886	1	15
555.226	1	16
555.566	1	16
555.906	1	11
556.246	1	17
556.586	1	22
556.926	1	20
557.266	1	21
557.606	1	13
557.946	1	19
558.286	1	15
558.626	1	26
558.966	1	26
559.306	1	20
559.646	1	10
559.986	1	17
560.325	1	8
560.665	1	23
561.005	1	14
561.345	1	17
561.685	1	10
562.025	1	5
562.365	1	9
562.705	1	24
563.045	1	15
563.385	1	18
563.725	1	18
564.064	1	13
564.404	1	11
564.744	1	7
565.084	1	17
565.424	1	17
565.764	1	6
566.104	1	7
566.444	1	20
566.783	1	13
567.123	1	10
567.463	1	14
567.803	1	15
568.143	1	12
568.483	1	7
568.823	1	14
569.162	1	11
569.502	1	5
569.842	1	12
570.182	1	17
570.522	1	4
570.862	1	18
571.201	1	15
571.541	1	5
571.881	1	9
572.221	1	10
572.561	1	11
572.900	1	4
573.240	1	14
573.580	1	8
573.920	1	23
574.260	1	15
574.599	1	9
574.939	1	7
575.279	1	6
575.619	1	22
575.959	1	5
576.298	1	13
576.638	1	21
576.978	1	2
577.318	1	12
577.657	1	7
577.997	1	8
578.337	1	7
578.677	1	11
579.016	1	11
579.356	1	12
579.696	1	2
580.036	1	16
580.375	1	7
580.715	1	20
581.055	1	15
581.394	1	10
581.734	1	10
582.074	1	13
582.414	1	7
582.753	1	8
583.093	1	5
583.433	1	13
583.772	1	0
584.112	1	15
584.452	1	9
584.791	1	6
585.131	1	13
585.471	1	10
585.811	1	7
586.150	1	-3
586.490	1	17
586.830	1	-1
587.169	1	18
587.509	1	5
587.849	1	10
588.188	1	7
588.528	1	12
588.867	1	2
589.207	1	6
589.547	1	13
589.886	1	5
590.226	1	6
590.566	1	1
590.905	1	20
591.245	1	11
591.585	1	6
591.924	1	13
592.264	1	6
592.603	1	7
592.943	1	2
593.283	1	5
593.622	1	2
593.962	1	7
594.301	1	13
594.641	1	6
594.981	1	18
595.320	1	-2
595.660	1	1
595.999	1	16
596.339	1	9
596.678	1	8
597.018	1	1
597.358	1	-3
597.697	1	4
598.037	1	10
598.376	1	5
598.716	1	8
599.055	1	2
599.395	1	4
599.734	1	23
600.074	1	5
600.413	1	-3
600.753	1	17
601.092	1	4
601.432	1	-1
601.771	1	14
602.111	1	3
602.451	1	10
602.790	1	16
603.130	1	6
603.469	1	14
603.809	1	9
604.148	1	7
604.487	1	6
604.827	1	-1
605.166	1	11
605.506	1	-7
605.845	1	2
606.185	1	1
606.524	1	2
606.864	1	6
607.203	1	2
607.543	1	6
607.882	1	0
608.222	1	2
608.561	1	17
608.901	1	3
609.240	1	-7
609.579	1	6
609.919	1	6
610.258	1	6
610.598	1	8
610.937	1	5
611.277	1	3
611.616	1	1
611.955	1	15
612.295	1	-9
612.634	1	-8
612.974	1	-1
613.313	1	12
613.652	1	12
613.992	1	-3
614.331	1	5
614.671	1	12
615.010	1	9
615.349	1	6
615.689	1	25
616.028	1	4
616.368	1	5
616.707	1	13
617.046	1	-2
617.386	1	3
617.725	1	4
618.064	1	-4
618.404	1	10
618.743	1	4
619.082	1	14
619.422	1	-1
619.761	1	3
620.100	1	-1
620.440	1	8
620.779	1	-2
621.118	1	-2
621.458	1	1
621.797	1	4
622.136	1	6
622.476	1	-3
622.815	1	3
623.154	1	1
623.494	1	1
623.833	1	6
624.172	1	3
624.511	1	4
624.851	1	9
625.190	1	8
625.529	1	12
625.869	1	12
626.208	1	4
626.547	1	3
626.886	1	3
627.226	1	7
627.565	1	1
627.904	1	5
628.243	1	0
628.583	1	0
628.922	1	-9
629.261	1	11
629.600	1	4
629.940	1	2
630.279	1	5
630.618	1	-1
630.957	1	11
631.297	1	-2
631.636	1	12
631.975	1	-1
632.314	1	0
632.653	1	6
632.993	1	-4
633.332	1	9
633.671	1	13
634.010	1	11
634.349	1	-9
634.689	1	6
635.028	1	5
635.367	1	7
635.706	1	6
636.045	1	2
636.384	1	-1
636.724	1	20
637.063	1	-5
637.402	1	18
637.741	1	9
638.080	1	16
638.419	1	4
638.759	1	5
639.098	1	-3
639.437	1	-3
639.776	1	0
640.115	1	10
640.454	1	5
640.793	1	4
641.132	1	10
641.472	1	1
641.811	1	9
642.150	1	5
642.489	1	0
642.828	1	5
643.167	1	-1
643.506	1	10
643.845	1	7
644.184	1	13
644.524	1	2
644.863	1	-3
645.202	1	15
645.541	1	6
645.880	1	1
646.219	1	10
646.558	1	9
646.897	1	7
647.236	1	-4
647.575	1	6
647.914	1	7
648.253	1	7
648.592	1	3
648.931	1	14
649.270	1	5
649.610	1	3
649.949	1	6
650.288	1	7
650.627	1	3
650.966	1	12
651.305	1	13
651.644	1	4
651.983	1	0
652.322	1	6
652.661	1	2
653.000	1	-2
653.339	1	2
653.678	1	4
654.017	1	11
654.356	1	2
654.695	1	11
655.034	1	11
655.373	1	-5
655.712	1	0
656.051	1	7
656.390	1	3
656.729	1	9
657.068	1	14
657.406	1	3
657.745	1	12
658.084	1	-3
658.423	1	-2
658.762	1	1
659.101	1	9
659.440	1	5
659.779	1	-3
660.118	1	5
660.457	1	5
660.796	1	2
661.135	1	-5
661.474	1	14
661.813	1	1
662.152	1	-3
662.491	1	-1
662.829	1	2
663.168	1	2
663.507	1	5
663.846	1	5
664.185	1	3
664.524	1	-2
664.863	1	2
665.202	1	17
665.541	1	1
665.879	1	10
666.218	1	20
666.557	1	4
666.896	1	9
667.235	1	-1
667.574	1	-5
667.913	1	-4
668.251	1	9
668.590	1	-2
668.929	1	14
669.268	1	2
669.607	1	7
669.946	1	13
670.285	1	14
670.623	1	7
670.962	1	4
671.301	1	3
671.640	1	12
671.979	1	-4
672.317	1	14
672.656	1	5
672.995	1	7
673.334	1	5
673.673	1	5
674.011	1	-2
674.350	1	3
674.689	1	8
675.028	1	4
675.367	1	5
675.705	1	10
676.044	1	8
676.383	1	6
676.722	1	13
677.060	1	3
677.399	1	1
677.738	1	4
678.077	1	13
678.416	1	1
678.754	1	1
679.093	1	4
679.432	1	-2
679.771	1	6
680.109	1	-4
680.448	1	14
680.787	1	4
681.125	1	11
681.464	1	15
681.803	1	8
682.142	1	0
682.480	1	6
682.819	1	8
683.158	1	5
683.496	1	3
683.835	1	3
684.174	1	6
684.512	1	6
684.851	1	6
685.190	1	1
685.529	1	19
685.867	1	18
686.206	1	13
686.545	1	11
686.883	1	5
687.222	1	3
687.561	1	14
687.899	1	5
688.238	1	-4
688.577	1	6
688.746	1	-1