File: Data/GaN_170K_550ms/GaN_sample D_spot 18_UVVIS_170 K_200um_550 ms 2x2mm1_199.txt
340.368	1	7
340.710	1	-8
341.052	1	6
341.394	1	0
341.737	1	8
342.079	1	-2
342.421	1	6
342.763	1	9
343.105	1	7
343.447	1	-7
343.789	1	7
344.131	1	-10
344.473	1	3
344.815	1	7
345.157	1	5
345.499	1	-9
345.841	1	10
346.183	1	11
346.526	1	9
346.868	1	8
347.210	1	-6
347.552	1	16
347.894	1	0
348.236	1	3
348.578	1	5
348.920	1	5
349.262	1	-2
349.604	1	-3
349.946	1	9
350.288	1	3
350.630	1	16
350.972	1	2
351.314	1	1
351.656	1	-1
351.998	1	-2
352.340	1	1
352.682	1	3
353.024	1	-6
353.366	1	8
353.708	1	3
354.050	1	-4
354.392	1	13
354.734	1	5
355.076	1	8
355.418	1	4
355.760	1	-9
356.102	1	6
356.444	1	-1
356.785	1	5
357.127	1	1
357.469	1	-5
357.811	1	10
358.153	1	10
358.495	1	-7
358.837	1	4
359.179	1	-7
359.521	1	9
359.863	1	12
360.205	1	15
360.547	1	17
360.889	1	13
361.231	1	11
361.572	1	12
361.914	1	13
362.256	1	8
362.598	1	3
362.940	1	22
363.282	1	12
363.624	1	13
363.966	1	6
364.308	1	1
364.649	1	5
364.991	1	27
365.333	1	15
365.675	1	21
366.017	1	18
366.359	1	21
366.701	1	19
367.042	1	11
367.384	1	22
367.726	1	30
368.068	1	20
368.410	1	23
368.752	1	19
369.093	1	6
369.435	1	14
369.777	1	18
370.119	1	18
370.461	1	29
370.803	1	12
371.144	1	17
371.486	1	15
371.828	1	17
372.170	1	19
372.512	1	4
372.853	1	18
373.195	1	15
373.537	1	25
373.879	1	20
374.220	1	27
374.562	1	9
374.904	1	7
375.246	1	13
375.588	1	10
375.929	1	11
376.271	1	10
376.613	1	3
376.955	1	6
377.296	1	7
377.638	1	4
377.980	1	-5
378.321	1	7
378.663	1	15
379.005	1	0
379.347	1	4
379.688	1	5
380.030	1	7
380.372	1	7
380.714	1	8
381.055	1	7
381.397	1	13
381.739	1	-3
382.080	1	2
382.422	1	10
382.764	1	10
383.105	1	16
383.447	1	9
383.789	1	6
384.130	1	-7
384.472	1	-4
384.814	1	6
385.156	1	3
385.497	1	18
385.839	1	5
386.180	1	1
386.522	1	10
386.864	1	0
387.205	1	0
387.547	1	4
387.889	1	11
388.230	1	6
388.572	1	11
388.914	1	0
389.255	1	3
389.597	1	0
389.939	1	-6
390.280	1	8
390.622	1	-6
390.963	1	0
391.305	1	-8
391.647	1	-3
391.988	1	7
392.330	1	6
392.671	1	0
393.013	1	-1
393.355	1	3
393.696	1	3
394.038	1	-4
394.379	1	2
394.721	1	0
395.062	1	-2
395.404	1	10
395.746	1	14
396.087	1	0
396.429	1	1
396.770	1	9
397.112	1	-8
397.453	1	11
397.795	1	1
398.136	1	9
398.478	1	-5
398.819	1	0
399.161	1	-1
399.503	1	2
399.844	1	-3
400.186	1	6
400.527	1	10
400.869	1	10
401.210	1	12
401.552	1	4
401.893	1	13
402.235	1	2
402.576	1	6
402.918	1	-3
403.259	1	10
403.601	1	12
403.942	1	3
404.284	1	0
404.625	1	3
404.967	1	-1
405.308	1	-1
405.649	1	3
405.991	1	1
406.332	1	-8
406.674	1	3
407.015	1	0
407.357	1	6
407.698	1	-4
408.040	1	9
408.381	1	5
408.722	1	-4
409.064	1	0
409.405	1	7
409.747	1	-6
410.088	1	6
410.430	1	4
410.771	1	2
411.112	1	0
411.454	1	7
411.795	1	14
412.137	1	2
412.478	1	4
412.819	1	0
413.161	1	7
413.502	1	13
413.844	1	14
414.185	1	3
414.526	1	6
414.868	1	6
415.209	1	-11
415.550	1	2
415.892	1	12
416.233	1	5
416.575	1	1
416.916	1	1
417.257	1	12
417.599	1	-1
417.940	1	-1
418.281	1	-5
418.623	1	3
418.964	1	-3
419.305	1	-2
419.647	1	3
419.988	1	12
420.329	1	6
420.671	1	-3
421.012	1	7
421.353	1	4
421.695	1	-7
422.036	1	-3
422.377	1	9
422.718	1	6
423.060	1	0
423.401	1	-1
423.742	1	2
424.084	1	15
424.425	1	-4
424.766	1	2
425.107	1	-1
425.449	1	-1
425.790	1	3
426.131	1	5
426.472	1	7
426.814	1	-9
427.155	1	10
427.496	1	4
427.837	1	1
428.179	1	3
428.520	1	3
428.861	1	0
429.202	1	0
429.544	1	-5
429.885	1	2
430.226	1	9
430.567	1	7
430.909	1	-4
431.250	1	12
431.591	1	3
431.932	1	-5
432.273	1	-8
432.615	1	4
432.956	1	0
433.297	1	5
433.638	1	6
433.979	1	4
434.320	1	5
434.662	1	-15
435.003	1	-2
435.344	1	6
435.685	1	10
436.026	1	5
436.368	1	4
436.709	1	1
437.050	1	-2
437.391	1	-7
437.732	1	14
438.073	1	-3
438.414	1	-4
438.756	1	-5
439.097	1	3
439.438	1	5
439.779	1	6
440.120	1	-6
440.461	1	8
440.802	1	13
441.143	1	4
441.485	1	0
441.826	1	2
442.167	1	4
442.508	1	0
442.849	1	-9
443.190	1	7
443.531	1	-1
443.872	1	-5
444.213	1	-8
444.554	1	-2
444.895	1	-7
445.237	1	-4
445.578	1	6
445.919	1	8
446.260	1	3
446.601	1	8
446.942	1	1
447.283	1	8
447.624	1	1
447.965	1	-1
448.306	1	-2
448.647	1	-6
448.988	1	9
449.329	1	8
449.670	1	-10
450.011	1	5
450.352	1	0
450.693	1	-14
451.034	1	-5
451.375	1	6
451.716	1	1
452.057	1	2
452.398	1	4
452.739	1	-5
453.080	1	6
453.421	1	2
453.762	1	-2
454.103	1	-5
454.444	1	0
454.785	1	2
455.126	1	17
455.467	1	-11
455.808	1	9
456.149	1	-6
456.490	1	10
456.831	1	-8
457.172	1	4
457.513	1	17
457.854	1	10
458.195	1	-1
458.536	1	-5
458.877	1	6
459.218	1	-5
459.559	1	-3
459.899	1	-5
460.240	1	5
460.581	1	2
460.922	1	-5
461.263	1	1
461.604	1	6
461.945	1	1
462.286	1	-10
462.627	1	6
462.968	1	9
463.309	1	7
463.649	1	11
463.990	1	-6
464.331	1	13
464.672	1	3
465.013	1	7
465.354	1	-6
465.695	1	12
466.036	1	-9
466.376	1	10
466.717	1	3
467.058	1	0
467.399	1	8
467.740	1	-1
468.081	1	-6
468.422	1	7
468.762	1	17
469.103	1	6
469.444	1	1
469.785	1	-8
470.126	1	10
470.467	1	1
470.807	1	-1
471.148	1	1
471.489	1	1
471.830	1	-2
472.171	1	8
472.511	1	0
472.852	1	6
473.193	1	3
473.534	1	-4
473.875	1	-5
474.215	1	7
474.556	1	4
474.897	1	4
475.238	1	2
475.578	1	-6
475.919	1	13
476.260	1	11
476.601	1	2
476.942	1	-10
477.282	1	12
477.623	1	8
477.964	1	5
478.305	1	-6
478.645	1	3
478.986	1	-1
479.327	1	-5
479.667	1	-3
480.008	1	11
480.349	1	4
480.690	1	-1
481.030	1	11
481.371	1	-3
481.712	1	5
482.053	1	-2
482.393	1	2
482.734	1	1
483.075	1	7
483.415	1	7
483.756	1	-3
484.097	1	-13
484.437	1	5
484.778	1	-10
485.119	1	4
485.459	1	2
485.800	1	-3
486.141	1	9
486.481	1	-4
486.822	1	6
487.163	1	0
487.503	1	2
487.844	1	8
488.185	1	5
488.525	1	4
488.866	1	11
489.207	1	4
489.547	1	15
489.888	1	8
490.228	1	3
490.569	1	7
490.910	1	-1
491.250	1	3
491.591	1	2
491.932	1	7
492.272	1	8
492.613	1	6
492.953	1	-4
493.294	1	-5
493.635	1	1
493.975	1	5
494.316	1	2
494.656	1	-1
494.997	1	-1
495.337	1	12
495.678	1	-2
496.019	1	-10
496.359	1	13
496.700	1	7
497.040	1	8
497.381	1	3
497.721	1	1
498.062	1	6
498.403	1	6
498.743	1	7
499.084	1	5
499.424	1	2
499.765	1	-7
500.105	1	-6
500.446	1	-2
500.786	1	0
501.127	1	2
501.467	1	-1
501.808	1	0
502.148	1	11
502.489	1	8
502.829	1	1
503.170	1	10
503.510	1	10
503.851	1	8
504.191	1	-6
504.532	1	-7
504.872	1	2
505.213	1	-1
505.553	1	-1
505.894	1	5
506.234	1	-5
506.575	1	4
506.915	1	5
507.256	1	-2
507.596	1	14
507.936	1	11
508.277	1	-1
508.617	1	10
508.958	1	-2
509.298	1	-6
509.639	1	9
509.979	1	0
510.319	1	-10
510.660	1	-2
511.000	1	9
511.341	1	6
511.681	1	2
512.022	1	3
512.362	1	2
512.702	1	2
513.043	1	3
513.383	1	-1
513.724	1	0
514.064	1	7
514.404	1	-4
514.745	1	3
515.085	1	11
515.425	1	11
515.766	1	4
516.106	1	3
516.447	1	-7
516.787	1	10
517.127	1	10
517.468	1	7
517.808	1	10
518.148	1	5
518.489	1	16
518.829	1	10
519.169	1	2
519.510	1	9
519.850	1	2
520.190	1	5
520.531	1	10
520.871	1	0
521.211	1	-6
521.552	1	11
521.892	1	11
522.232	1	-3
522.573	1	10
522.913	1	8
523.253	1	14
523.593	1	-3
523.934	1	5
524.274	1	6
524.614	1	9
524.955	1	-1
525.295	1	-1
525.635	1	11
525.975	1	2
526.316	1	11
526.656	1	8
526.996	1	7
527.337	1	-2
527.677	1	0
528.017	1	11
528.357	1	-2
528.698	1	-14
529.038	1	-1
529.378	1	2
529.718	1	5
530.058	1	9
530.399	1	3
530.739	1	4
531.079	1	8
531.419	1	13
531.760	1	-4
532.100	1	0
532.440	1	7
532.780	1	1
533.120	1	6
533.461	1	9
533.801	1	12
534.141	1	-4
534.481	1	8
534.821	1	11
535.162	1	0
535.502	1	1
535.842	1	10
536.182	1	1
536.522	1	3
536.862	1	6
537.203	1	3
537.543	1	6
537.883	1	13
538.223	1	6
538.563	1	12
538.903	1	7
539.243	1	-1
539.584	1	6
539.924	1	-4
540.264	1	8
540.604	1	-1
540.944	1	3
541.284	1	9
541.624	1	-4
541.964	1	7
542.305	1	5
542.645	1	2
542.985	1	6
543.325	1	8
543.665	1	1
544.005	1	5
544.345	1	2
544.685	1	1
545.025	1	3
545.365	1	3
545.705	1	8
546.045	1	-7
546.386	1	0
546.726	1	-3
547.066	1	21
547.406	1	14
547.746	1	-1
548.086	1	-3
548.426	1	5
548.766	1	-3
549.106	1	11
549.446	1	4
549.786	1	-2
550.126	1	2
550.466	1	4
550.806	1	2
551.146	1	9
551.486	1	2
551.826	1	8
552.166	1	2
552.506	1	5
552.846	1	-2
553.186	1	6
553.526	1	1
553.866	1	-5
554.206	1	7
554.546	1	-6
554.886	1	7
555.226	1	-5
555.566	1	6
555.906	1	-4
556.246	1	7
556.586	1	8
556.926	1	7
557.266	1	7
557.606	1	2
557.946	1	5
558.286	1	3
558.626	1	14
558.966	1	7
559.306	1	8
559.646	1	3
559.986	1	2
560.325	1	-2
560.665	1	7
561.005	1	6
561.345	1	-2
561.685	1	2
562.025	1	-2
562.365	1	-6
562.705	1	8
563.045	1	-1
563.385	1	4
563.725	1	-4
564.064	1	9
564.404	1	-3
564.744	1	3
565.084	1	4
565.424	1	5
565.764	1	6
566.104	1	-2
566.444	1	8
566.783	1	0
567.123	1	8
567.463	1	-1
567.803	1	-1
568.143	1	1
568.483	1	4
568.823	1	7
569.162	1	5
569.502	1	1
569.842	1	-4
570.182	1	0
570.522	1	3
570.862	1	6
571.201	1	7
571.541	1	-4
571.881	1	3
572.221	1	2
572.561	1	2
572.900	1	5
573.240	1	3
573.580	1	-6
573.920	1	13
574.260	1	8
574.599	1	-10
574.939	1	-5
575.279	1	3
575.619	1	11
575.959	1	-11
576.298	1	7
576.638	1	2
576.978	1	-2
577.318	1	10
577.657	1	3
577.997	1	-3
578.337	1	6
578.677	1	2
579.016	1	4
579.356	1	-9
579.696	1	2
580.036	1	6
580.375	1	4
580.715	1	2
581.055	1	12
581.394	1	4
581.734	1	10
582.074	1	7
582.414	1	-4
582.753	1	2
583.093	1	13
583.433	1	6
583.772	1	-2
584.112	1	8
584.452	1	-6
584.791	1	-5
585.131	1	8
585.471	1	6
585.811	1	-6
586.150	1	8
586.490	1	3
586.830	1	0
587.169	1	15
587.509	1	12
587.849	1	-2
588.188	1	1
588.528	1	-1
588.867	1	7
589.207	1	3
589.547	1	7
589.886	1	-7
590.226	1	9
590.566	1	3
590.905	1	-1
591.245	1	-4
591.585	1	8
591.924	1	0
592.264	1	-2
592.603	1	-3
592.943	1	-2
593.283	1	12
593.622	1	-4
593.962	1	0
594.301	1	16
594.641	1	7
594.981	1	11
595.320	1	1
595.660	1	2
595.999	1	5
596.339	1	5
596.678	1	-7
597.018	1	7
597.358	1	2
597.697	1	-9
598.037	1	6
598.376	1	-1
598.716	1	7
599.055	1	4
599.395	1	-5
599.734	1	8
600.074	1	-3
600.413	1	-9
600.753	1	0
601.092	1	-1
601.432	1	-12
601.771	1	8
602.111	1	-1
602.451	1	8
602.790	1	7
603.130	1	-9
603.469	1	4
603.809	1	0
604.148	1	8
604.487	1	2
604.827	1	-4
605.166	1	4
605.506	1	6
605.845	1	7
606.185	1	2
606.524	1	0
606.864	1	2
607.203	1	4
607.543	1	10
607.882	1	2
608.222	1	1
608.561	1	10
608.901	1	10
609.240	1	-4
609.579	1	0
609.919	1	-8
610.258	1	6
610.598	1	12
610.937	1	12
611.277	1	5
611.616	1	1
611.955	1	1
612.295	1	-1
612.634	1	-4
612.974	1	1
613.313	1	-7
613.652	1	12
613.992	1	-2
614.331	1	-2
614.671	1	8
615.010	1	13
615.349	1	5
615.689	1	14
616.028	1	-3
616.368	1	3
616.707	1	16
617.046	1	0
617.386	1	-9
617.725	1	5
618.064	1	-3
618.404	1	0
618.743	1	7
619.082	1	8
619.422	1	-4
619.761	1	-4
620.100	1	-11
620.440	1	4
620.779	1	-3
621.118	1	1
621.458	1	-10
621.797	1	0
622.136	1	-3
622.476	1	-10
622.815	1	2
623.154	1	3
623.494	1	1
623.833	1	-2
624.172	1	-4
624.511	1	8
624.851	1	-2
625.190	1	13
625.529	1	5
625.869	1	8
626.208	1	10
626.547	1	-1
626.886	1	3
627.226	1	1
627.565	1	3
627.904	1	-4
628.243	1	-4
628.583	1	-3
628.922	1	-4
629.261	1	2
629.600	1	-1
629.940	1	-3
630.279	1	-5
630.618	1	-11
630.957	1	5
631.297	1	-1
631.636	1	16
631.975	1	2
632.314	1	2
632.653	1	2
632.993	1	-2
633.332	1	-4
633.671	1	7
634.010	1	8
634.349	1	-1
634.689	1	12
635.028	1	3
635.367	1	-3
635.706	1	4
636.045	1	13
636.384	1	-2
636.724	1	10
637.063	1	0
637.402	1	15
637.741	1	-4
638.080	1	14
638.419	1	0
638.759	1	0
639.098	1	-4
639.437	1	-2
639.776	1	4
640.115	1	8
640.454	1	-2
640.793	1	0
641.132	1	7
641.472	1	0
641.811	1	3
642.150	1	-2
642.489	1	-6
642.828	1	3
643.167	1	0
643.506	1	11
643.845	1	8
644.184	1	20
644.524	1	-7
644.863	1	0
645.202	1	14
645.541	1	3
645.880	1	7
646.219	1	3
646.558	1	6
646.897	1	7
647.236	1	3
647.575	1	-9
647.914	1	-3
648.253	1	3
648.592	1	4
648.931	1	7
649.270	1	-7
649.610	1	5
649.949	1	2
650.288	1	-1
650.627	1	2
650.966	1	6
651.305	1	-1
651.644	1	6
651.983	1	-3
652.322	1	9
652.661	1	7
653.000	1	4
653.339	1	0
653.678	1	3
654.017	1	5
654.356	1	6
654.695	1	10
655.034	1	0
655.373	1	8
655.712	1	6
656.051	1	3
656.390	1	7
656.729	1	9
657.068	1	6
657.406	1	4
657.745	1	8
658.084	1	-6
658.423	1	0
658.762	1	2
659.101	1	6
659.440	1	1
659.779	1	4
660.118	1	2
660.457	1	4
660.796	1	-3
661.135	1	-5
661.474	1	1
661.813	1	-5
662.152	1	0
662.491	1	-5
662.829	1	6
663.168	1	8
663.507	1	-6
663.846	1	-7
664.185	1	11
664.524	1	5
664.863	1	-3
665.202	1	8
665.541	1	-2
665.879	1	7
666.218	1	15
666.557	1	4
666.896	1	2
667.235	1	-3
667.574	1	-9
667.913	1	1
668.251	1	11
668.590	1	7
668.929	1	-2
669.268	1	8
669.607	1	1
669.946	1	10
670.285	1	7
670.623	1	2
670.962	1	2
671.301	1	-2
671.640	1	-1
671.979	1	-7
672.317	1	-3
672.656	1	6
672.995	1	0
673.334	1	-3
673.673	1	1
674.011	1	9
674.350	1	0
674.689	1	0
675.028	1	2
675.367	1	1
675.705	1	0
676.044	1	13
676.383	1	2
676.722	1	14
677.060	1	-9
677.399	1	4
677.738	1	-1
678.077	1	12
678.416	1	-1
678.754	1	-5
679.093	1	8
679.432	1	4
679.771	1	11
680.109	1	2
680.448	1	0
680.787	1	-9
681.125	1	11
681.464	1	6
681.803	1	9
682.142	1	-4
682.480	1	8
682.819	1	14
683.158	1	9
683.496	1	2
683.835	1	-11
684.174	1	-4
684.512	1	-1
684.851	1	-8
685.190	1	-3
685.529	1	4
685.867	1	12
686.206	1	12
686.545	1	7
686.883	1	8
687.222	1	6
687.561	1	5
687.899	1	-4
688.238	1	12
688.577	1	12
688.746	1	-5