File: Data/GaN_170K_550ms/GaN_sample D_spot 18_UVVIS_170 K_200um_550 ms 2x2mm1_187.txt
340.368	1	-1
340.710	1	-9
341.052	1	4
341.394	1	2
341.737	1	-2
342.079	1	-5
342.421	1	4
342.763	1	4
343.105	1	9
343.447	1	-9
343.789	1	0
344.131	1	-2
344.473	1	0
344.815	1	8
345.157	1	0
345.499	1	-3
345.841	1	1
346.183	1	9
346.526	1	2
346.868	1	11
347.210	1	-10
347.552	1	10
347.894	1	0
348.236	1	1
348.578	1	6
348.920	1	-3
349.262	1	1
349.604	1	10
349.946	1	4
350.288	1	0
350.630	1	5
350.972	1	-8
351.314	1	8
351.656	1	-2
351.998	1	-3
352.340	1	3
352.682	1	7
353.024	1	4
353.366	1	9
353.708	1	13
354.050	1	4
354.392	1	-5
354.734	1	10
355.076	1	-1
355.418	1	-1
355.760	1	1
356.102	1	-1
356.444	1	1
356.785	1	6
357.127	1	-3
357.469	1	2
357.811	1	8
358.153	1	2
358.495	1	9
358.837	1	8
359.179	1	0
359.521	1	10
359.863	1	8
360.205	1	13
360.547	1	19
360.889	1	15
361.231	1	9
361.572	1	17
361.914	1	8
362.256	1	5
362.598	1	3
362.940	1	21
363.282	1	6
363.624	1	15
363.966	1	12
364.308	1	17
364.649	1	6
364.991	1	20
365.333	1	17
365.675	1	23
366.017	1	16
366.359	1	7
366.701	1	18
367.042	1	13
367.384	1	35
367.726	1	19
368.068	1	31
368.410	1	29
368.752	1	19
369.093	1	9
369.435	1	17
369.777	1	26
370.119	1	21
370.461	1	35
370.803	1	18
371.144	1	14
371.486	1	19
371.828	1	7
372.170	1	23
372.512	1	16
372.853	1	18
373.195	1	13
373.537	1	20
373.879	1	15
374.220	1	22
374.562	1	13
374.904	1	14
375.246	1	5
375.588	1	10
375.929	1	22
376.271	1	14
376.613	1	7
376.955	1	14
377.296	1	7
377.638	1	11
377.980	1	1
378.321	1	20
378.663	1	9
379.005	1	3
379.347	1	11
379.688	1	-2
380.030	1	12
380.372	1	9
380.714	1	12
381.055	1	14
381.397	1	18
381.739	1	-7
382.080	1	-3
382.422	1	2
382.764	1	-2
383.105	1	9
383.447	1	12
383.789	1	19
384.130	1	0
384.472	1	-9
384.814	1	10
385.156	1	3
385.497	1	12
385.839	1	0
386.180	1	13
386.522	1	9
386.864	1	8
387.205	1	3
387.547	1	15
387.889	1	3
388.230	1	8
388.572	1	5
388.914	1	-3
389.255	1	8
389.597	1	-3
389.939	1	6
390.280	1	1
390.622	1	5
390.963	1	-3
391.305	1	4
391.647	1	1
391.988	1	5
392.330	1	2
392.671	1	2
393.013	1	-3
393.355	1	3
393.696	1	9
394.038	1	-1
394.379	1	-1
394.721	1	2
395.062	1	-6
395.404	1	5
395.746	1	15
396.087	1	12
396.429	1	15
396.770	1	9
397.112	1	10
397.453	1	14
397.795	1	3
398.136	1	-1
398.478	1	0
398.819	1	1
399.161	1	-10
399.503	1	-4
399.844	1	-5
400.186	1	-8
400.527	1	11
400.869	1	8
401.210	1	4
401.552	1	6
401.893	1	3
402.235	1	7
402.576	1	-1
402.918	1	2
403.259	1	4
403.601	1	12
403.942	1	5
404.284	1	-4
404.625	1	-1
404.967	1	-1
405.308	1	3
405.649	1	3
405.991	1	4
406.332	1	-10
406.674	1	12
407.015	1	7
407.357	1	-1
407.698	1	-2
408.040	1	6
408.381	1	2
408.722	1	-2
409.064	1	-1
409.405	1	0
409.747	1	3
410.088	1	10
410.430	1	-4
410.771	1	7
411.112	1	-4
411.454	1	8
411.795	1	6
412.137	1	-7
412.478	1	0
412.819	1	6
413.161	1	5
413.502	1	2
413.844	1	8
414.185	1	1
414.526	1	9
414.868	1	-8
415.209	1	-14
415.550	1	-6
415.892	1	3
416.233	1	5
416.575	1	-1
416.916	1	-5
417.257	1	2
417.599	1	-3
417.940	1	6
418.281	1	-11
418.623	1	9
418.964	1	-15
419.305	1	3
419.647	1	5
419.988	1	2
420.329	1	6
420.671	1	-1
421.012	1	-2
421.353	1	5
421.695	1	-6
422.036	1	10
422.377	1	6
422.718	1	15
423.060	1	-2
423.401	1	-5
423.742	1	-3
424.084	1	12
424.425	1	3
424.766	1	-8
425.107	1	4
425.449	1	5
425.790	1	5
426.131	1	11
426.472	1	10
426.814	1	2
427.155	1	14
427.496	1	-4
427.837	1	5
428.179	1	4
428.520	1	-3
428.861	1	3
429.202	1	-8
429.544	1	-3
429.885	1	4
430.226	1	-3
430.567	1	-3
430.909	1	4
431.250	1	21
431.591	1	-2
431.932	1	-12
432.273	1	-6
432.615	1	6
432.956	1	-1
433.297	1	0
433.638	1	-1
433.979	1	4
434.320	1	10
434.662	1	-9
435.003	1	-3
435.344	1	7
435.685	1	3
436.026	1	5
436.368	1	8
436.709	1	-1
437.050	1	-17
437.391	1	-7
437.732	1	6
438.073	1	-6
438.414	1	-4
438.756	1	-1
439.097	1	4
439.438	1	6
439.779	1	10
440.120	1	-6
440.461	1	16
440.802	1	0
441.143	1	6
441.485	1	4
441.826	1	9
442.167	1	5
442.508	1	-5
442.849	1	1
443.190	1	6
443.531	1	6
443.872	1	-6
444.213	1	-1
444.554	1	-1
444.895	1	-11
445.237	1	-4
445.578	1	9
445.919	1	1
446.260	1	8
446.601	1	-3
446.942	1	-1
447.283	1	4
447.624	1	0
447.965	1	3
448.306	1	-4
448.647	1	-1
448.988	1	11
449.329	1	1
449.670	1	-6
450.011	1	8
450.352	1	-7
450.693	1	-3
451.034	1	-4
451.375	1	2
451.716	1	6
452.057	1	-4
452.398	1	3
452.739	1	5
453.080	1	9
453.421	1	4
453.762	1	0
454.103	1	-6
454.444	1	-3
454.785	1	0
455.126	1	12
455.467	1	-3
455.808	1	6
456.149	1	1
456.490	1	2
456.831	1	1
457.172	1	-6
457.513	1	9
457.854	1	6
458.195	1	4
458.536	1	-5
458.877	1	5
459.218	1	-1
459.559	1	2
459.899	1	3
460.240	1	-2
460.581	1	-1
460.922	1	-8
461.263	1	2
461.604	1	18
461.945	1	6
462.286	1	-6
462.627	1	-1
462.968	1	15
463.309	1	6
463.649	1	8
463.990	1	3
464.331	1	-1
464.672	1	4
465.013	1	15
465.354	1	-6
465.695	1	10
466.036	1	0
466.376	1	3
466.717	1	7
467.058	1	12
467.399	1	20
467.740	1	0
468.081	1	2
468.422	1	-2
468.762	1	9
469.103	1	3
469.444	1	-4
469.785	1	2
470.126	1	8
470.467	1	7
470.807	1	7
471.148	1	2
471.489	1	-2
471.830	1	-2
472.171	1	3
472.511	1	6
472.852	1	2
473.193	1	2
473.534	1	4
473.875	1	8
474.215	1	7
474.556	1	1
474.897	1	1
475.238	1	-5
475.578	1	3
475.919	1	4
476.260	1	6
476.601	1	12
476.942	1	-1
477.282	1	5
477.623	1	4
477.964	1	4
478.305	1	-9
478.645	1	0
478.986	1	-4
479.327	1	-5
479.667	1	6
480.008	1	9
480.349	1	2
480.690	1	7
481.030	1	7
481.371	1	-2
481.712	1	9
482.053	1	-8
482.393	1	7
482.734	1	9
483.075	1	1
483.415	1	0
483.756	1	2
484.097	1	-9
484.437	1	-5
484.778	1	-4
485.119	1	5
485.459	1	-7
485.800	1	-1
486.141	1	5
486.481	1	2
486.822	1	2
487.163	1	6
487.503	1	-2
487.844	1	-4
488.185	1	10
488.525	1	8
488.866	1	16
489.207	1	5
489.547	1	8
489.888	1	-2
490.228	1	-1
490.569	1	1
490.910	1	3
491.250	1	8
491.591	1	-2
491.932	1	9
492.272	1	13
492.613	1	-1
492.953	1	4
493.294	1	4
493.635	1	1
493.975	1	11
494.316	1	11
494.656	1	9
494.997	1	-8
495.337	1	2
495.678	1	7
496.019	1	-15
496.359	1	5
496.700	1	12
497.040	1	7
497.381	1	2
497.721	1	-4
498.062	1	-8
498.403	1	10
498.743	1	2
499.084	1	-4
499.424	1	4
499.765	1	0
500.105	1	2
500.446	1	-4
500.786	1	-1
501.127	1	6
501.467	1	4
501.808	1	1
502.148	1	4
502.489	1	7
502.829	1	6
503.170	1	11
503.510	1	1
503.851	1	8
504.191	1	-4
504.532	1	-14
504.872	1	-2
505.213	1	4
505.553	1	-1
505.894	1	11
506.234	1	8
506.575	1	3
506.915	1	5
507.256	1	-5
507.596	1	14
507.936	1	9
508.277	1	-10
508.617	1	6
508.958	1	1
509.298	1	-3
509.639	1	13
509.979	1	0
510.319	1	0
510.660	1	0
511.000	1	4
511.341	1	11
511.681	1	2
512.022	1	8
512.362	1	5
512.702	1	-4
513.043	1	0
513.383	1	11
513.724	1	4
514.064	1	6
514.404	1	7
514.745	1	-5
515.085	1	0
515.425	1	9
515.766	1	5
516.106	1	1
516.447	1	-2
516.787	1	9
517.127	1	9
517.468	1	16
517.808	1	14
518.148	1	1
518.489	1	5
518.829	1	3
519.169	1	-2
519.510	1	4
519.850	1	1
520.190	1	7
520.531	1	7
520.871	1	-2
521.211	1	2
521.552	1	3
521.892	1	6
522.232	1	-1
522.573	1	3
522.913	1	5
523.253	1	15
523.593	1	8
523.934	1	10
524.274	1	13
524.614	1	6
524.955	1	6
525.295	1	-2
525.635	1	7
525.975	1	-5
526.316	1	7
526.656	1	4
526.996	1	6
527.337	1	5
527.677	1	-4
528.017	1	8
528.357	1	-3
528.698	1	-9
529.038	1	2
529.378	1	-6
529.718	1	6
530.058	1	16
530.399	1	5
530.739	1	2
531.079	1	4
531.419	1	11
531.760	1	7
532.100	1	8
532.440	1	7
532.780	1	-3
533.120	1	9
533.461	1	7
533.801	1	9
534.141	1	5
534.481	1	10
534.821	1	-1
535.162	1	8
535.502	1	-4
535.842	1	1
536.182	1	3
536.522	1	7
536.862	1	6
537.203	1	3
537.543	1	5
537.883	1	12
538.223	1	12
538.563	1	1
538.903	1	6
539.243	1	-3
539.584	1	2
539.924	1	-4
540.264	1	3
540.604	1	0
540.944	1	2
541.284	1	1
541.624	1	2
541.964	1	8
542.305	1	6
542.645	1	-10
542.985	1	10
543.325	1	7
543.665	1	-1
544.005	1	15
544.345	1	-1
544.685	1	-1
545.025	1	7
545.365	1	6
545.705	1	14
546.045	1	-8
546.386	1	1
546.726	1	0
547.066	1	18
547.406	1	-2
547.746	1	8
548.086	1	6
548.426	1	10
548.766	1	8
549.106	1	10
549.446	1	8
549.786	1	6
550.126	1	3
550.466	1	6
550.806	1	-6
551.146	1	7
551.486	1	0
551.826	1	10
552.166	1	-5
552.506	1	14
552.846	1	-2
553.186	1	1
553.526	1	3
553.866	1	3
554.206	1	2
554.546	1	4
554.886	1	-3
555.226	1	-3
555.566	1	-1
555.906	1	2
556.246	1	6
556.586	1	1
556.926	1	14
557.266	1	0
557.606	1	6
557.946	1	9
558.286	1	1
558.626	1	12
558.966	1	6
559.306	1	3
559.646	1	5
559.986	1	9
560.325	1	-9
560.665	1	5
561.005	1	8
561.345	1	-3
561.685	1	0
562.025	1	2
562.365	1	4
562.705	1	11
563.045	1	2
563.385	1	17
563.725	1	-5
564.064	1	6
564.404	1	-8
564.744	1	7
565.084	1	5
565.424	1	0
565.764	1	3
566.104	1	-2
566.444	1	10
566.783	1	10
567.123	1	-4
567.463	1	-3
567.803	1	3
568.143	1	4
568.483	1	1
568.823	1	8
569.162	1	12
569.502	1	9
569.842	1	-14
570.182	1	2
570.522	1	-5
570.862	1	2
571.201	1	10
571.541	1	-5
571.881	1	-7
572.221	1	8
572.561	1	6
572.900	1	-3
573.240	1	-1
573.580	1	-3
573.920	1	13
574.260	1	-1
574.599	1	5
574.939	1	-10
575.279	1	0
575.619	1	14
575.959	1	-11
576.298	1	6
576.638	1	3
576.978	1	5
577.318	1	11
577.657	1	0
577.997	1	7
578.337	1	3
578.677	1	2
579.016	1	4
579.356	1	11
579.696	1	1
580.036	1	-2
580.375	1	-1
580.715	1	6
581.055	1	9
581.394	1	6
581.734	1	14
582.074	1	0
582.414	1	-3
582.753	1	-5
583.093	1	2
583.433	1	8
583.772	1	-1
584.112	1	8
584.452	1	-5
584.791	1	0
585.131	1	11
585.471	1	10
585.811	1	-9
586.150	1	-2
586.490	1	-1
586.830	1	-2
587.169	1	13
587.509	1	2
587.849	1	6
588.188	1	2
588.528	1	3
588.867	1	4
589.207	1	-4
589.547	1	9
589.886	1	0
590.226	1	3
590.566	1	0
590.905	1	19
591.245	1	4
591.585	1	3
591.924	1	1
592.264	1	-7
592.603	1	-2
592.943	1	0
593.283	1	5
593.622	1	-10
593.962	1	-1
594.301	1	8
594.641	1	3
594.981	1	8
595.320	1	-6
595.660	1	0
595.999	1	9
596.339	1	10
596.678	1	3
597.018	1	0
597.358	1	-9
597.697	1	4
598.037	1	-1
598.376	1	-11
598.716	1	-3
599.055	1	3
599.395	1	-2
599.734	1	4
600.074	1	-2
600.413	1	-7
600.753	1	8
601.092	1	1
601.432	1	0
601.771	1	-2
602.111	1	-1
602.451	1	9
602.790	1	14
603.130	1	-2
603.469	1	4
603.809	1	6
604.148	1	10
604.487	1	5
604.827	1	-5
605.166	1	13
605.506	1	2
605.845	1	8
606.185	1	2
606.524	1	-4
606.864	1	-9
607.203	1	7
607.543	1	8
607.882	1	-4
608.222	1	-4
608.561	1	8
608.901	1	-2
609.240	1	14
609.579	1	2
609.919	1	2
610.258	1	11
610.598	1	-2
610.937	1	0
611.277	1	3
611.616	1	-7
611.955	1	12
612.295	1	7
612.634	1	1
612.974	1	10
613.313	1	4
613.652	1	11
613.992	1	6
614.331	1	1
614.671	1	6
615.010	1	8
615.349	1	-1
615.689	1	11
616.028	1	3
616.368	1	-3
616.707	1	9
617.046	1	1
617.386	1	5
617.725	1	3
618.064	1	-13
618.404	1	1
618.743	1	12
619.082	1	3
619.422	1	-1
619.761	1	-1
620.100	1	8
620.440	1	10
620.779	1	6
621.118	1	-6
621.458	1	-1
621.797	1	13
622.136	1	2
622.476	1	-5
622.815	1	6
623.154	1	-4
623.494	1	1
623.833	1	12
624.172	1	5
624.511	1	8
624.851	1	-4
625.190	1	2
625.529	1	5
625.869	1	17
626.208	1	0
626.547	1	-6
626.886	1	2
627.226	1	3
627.565	1	5
627.904	1	0
628.243	1	1
628.583	1	-4
628.922	1	-3
629.261	1	6
629.600	1	2
629.940	1	6
630.279	1	3
630.618	1	-4
630.957	1	8
631.297	1	-2
631.636	1	13
631.975	1	5
632.314	1	4
632.653	1	0
632.993	1	-4
633.332	1	2
633.671	1	9
634.010	1	9
634.349	1	2
634.689	1	9
635.028	1	0
635.367	1	0
635.706	1	7
636.045	1	5
636.384	1	-4
636.724	1	6
637.063	1	10
637.402	1	9
637.741	1	-5
638.080	1	7
638.419	1	1
638.759	1	-3
639.098	1	-6
639.437	1	-6
639.776	1	3
640.115	1	10
640.454	1	0
640.793	1	-3
641.132	1	8
641.472	1	-4
641.811	1	10
642.150	1	5
642.489	1	0
642.828	1	6
643.167	1	-5
643.506	1	10
643.845	1	9
644.184	1	7
644.524	1	-5
644.863	1	-13
645.202	1	8
645.541	1	6
645.880	1	-4
646.219	1	-1
646.558	1	7
646.897	1	8
647.236	1	-4
647.575	1	-12
647.914	1	3
648.253	1	2
648.592	1	6
648.931	1	12
649.270	1	-9
649.610	1	8
649.949	1	1
650.288	1	-3
650.627	1	-4
650.966	1	4
651.305	1	-3
651.644	1	5
651.983	1	9
652.322	1	3
652.661	1	6
653.000	1	-5
653.339	1	-2
653.678	1	0
654.017	1	2
654.356	1	-2
654.695	1	9
655.034	1	-3
655.373	1	6
655.712	1	-4
656.051	1	6
656.390	1	-5
656.729	1	5
657.068	1	7
657.406	1	0
657.745	1	6
658.084	1	5
658.423	1	-11
658.762	1	0
659.101	1	-1
659.440	1	-1
659.779	1	4
660.118	1	-5
660.457	1	6
660.796	1	-3
661.135	1	-17
661.474	1	9
661.813	1	0
662.152	1	5
662.491	1	-3
662.829	1	-2
663.168	1	10
663.507	1	7
663.846	1	-3
664.185	1	9
664.524	1	-3
664.863	1	-5
665.202	1	8
665.541	1	1
665.879	1	4
666.218	1	11
666.557	1	4
666.896	1	-3
667.235	1	9
667.574	1	-14
667.913	1	4
668.251	1	2
668.590	1	11
668.929	1	9
669.268	1	-9
669.607	1	4
669.946	1	12
670.285	1	7
670.623	1	2
670.962	1	-1
671.301	1	1
671.640	1	7
671.979	1	6
672.317	1	5
672.656	1	1
672.995	1	2
673.334	1	4
673.673	1	5
674.011	1	11
674.350	1	9
674.689	1	7
675.028	1	1
675.367	1	3
675.705	1	10
676.044	1	6
676.383	1	-3
676.722	1	16
677.060	1	-6
677.399	1	5
677.738	1	-1
678.077	1	15
678.416	1	-4
678.754	1	-2
679.093	1	4
679.432	1	-7
679.771	1	2
680.109	1	1
680.448	1	4
680.787	1	-4
681.125	1	10
681.464	1	8
681.803	1	5
682.142	1	3
682.480	1	5
682.819	1	7
683.158	1	7
683.496	1	3
683.835	1	1
684.174	1	2
684.512	1	-1
684.851	1	-4
685.190	1	0
685.529	1	18
685.867	1	6
686.206	1	6
686.545	1	15
686.883	1	10
687.222	1	6
687.561	1	4
687.899	1	-2
688.238	1	-2
688.577	1	15
688.746	1	-7