File: Data/GaN_170K_550ms/GaN_sample D_spot 18_UVVIS_170 K_200um_550 ms 2x2mm1_61.txt
340.368	1	-4
340.710	1	0
341.052	1	1
341.394	1	-1
341.737	1	2
342.079	1	4
342.421	1	2
342.763	1	7
343.105	1	10
343.447	1	-5
343.789	1	10
344.131	1	3
344.473	1	5
344.815	1	5
345.157	1	7
345.499	1	-4
345.841	1	11
346.183	1	9
346.526	1	4
346.868	1	13
347.210	1	6
347.552	1	12
347.894	1	6
348.236	1	6
348.578	1	8
348.920	1	1
349.262	1	6
349.604	1	22
349.946	1	14
350.288	1	13
350.630	1	16
350.972	1	1
351.314	1	15
351.656	1	6
351.998	1	9
352.340	1	9
352.682	1	14
353.024	1	19
353.366	1	14
353.708	1	17
354.050	1	12
354.392	1	25
354.734	1	15
355.076	1	20
355.418	1	19
355.760	1	16
356.102	1	26
356.444	1	21
356.785	1	22
357.127	1	28
357.469	1	31
357.811	1	32
358.153	1	53
358.495	1	41
358.837	1	52
359.179	1	38
359.521	1	52
359.863	1	63
360.205	1	78
360.547	1	72
360.889	1	88
361.231	1	92
361.572	1	108
361.914	1	110
362.256	1	125
362.598	1	136
362.940	1	169
363.282	1	202
363.624	1	204
363.966	1	233
364.308	1	255
364.649	1	289
364.991	1	339
365.333	1	373
365.675	1	417
366.017	1	447
366.359	1	488
366.701	1	546
367.042	1	580
367.384	1	632
367.726	1	644
368.068	1	672
368.410	1	703
368.752	1	708
369.093	1	670
369.435	1	646
369.777	1	670
370.119	1	632
370.461	1	593
370.803	1	548
371.144	1	516
371.486	1	481
371.828	1	472
372.170	1	434
372.512	1	397
372.853	1	381
373.195	1	360
373.537	1	350
373.879	1	327
374.220	1	314
374.562	1	290
374.904	1	277
375.246	1	267
375.588	1	247
375.929	1	230
376.271	1	218
376.613	1	189
376.955	1	192
377.296	1	170
377.638	1	173
377.980	1	151
378.321	1	156
378.663	1	137
379.005	1	129
379.347	1	136
379.688	1	129
380.030	1	110
380.372	1	102
380.714	1	118
381.055	1	95
381.397	1	111
381.739	1	82
382.080	1	91
382.422	1	77
382.764	1	84
383.105	1	78
383.447	1	98
383.789	1	86
384.130	1	70
384.472	1	82
384.814	1	76
385.156	1	68
385.497	1	70
385.839	1	60
386.180	1	69
386.522	1	69
386.864	1	65
387.205	1	47
387.547	1	58
387.889	1	63
388.230	1	33
388.572	1	51
388.914	1	48
389.255	1	54
389.597	1	30
389.939	1	43
390.280	1	44
390.622	1	36
390.963	1	45
391.305	1	36
391.647	1	22
391.988	1	40
392.330	1	39
392.671	1	33
393.013	1	31
393.355	1	44
393.696	1	33
394.038	1	32
394.379	1	27
394.721	1	39
395.062	1	24
395.404	1	36
395.746	1	32
396.087	1	38
396.429	1	33
396.770	1	21
397.112	1	25
397.453	1	29
397.795	1	27
398.136	1	25
398.478	1	26
398.819	1	26
399.161	1	18
399.503	1	32
399.844	1	16
400.186	1	24
400.527	1	32
400.869	1	25
401.210	1	20
401.552	1	25
401.893	1	28
402.235	1	21
402.576	1	15
402.918	1	21
403.259	1	16
403.601	1	23
403.942	1	26
404.284	1	2
404.625	1	16
404.967	1	12
405.308	1	13
405.649	1	13
405.991	1	13
406.332	1	5
406.674	1	21
407.015	1	14
407.357	1	3
407.698	1	7
408.040	1	16
408.381	1	13
408.722	1	11
409.064	1	16
409.405	1	9
409.747	1	12
410.088	1	21
410.430	1	21
410.771	1	18
411.112	1	13
411.454	1	8
411.795	1	20
412.137	1	8
412.478	1	6
412.819	1	0
413.161	1	9
413.502	1	7
413.844	1	20
414.185	1	14
414.526	1	11
414.868	1	5
415.209	1	-4
415.550	1	15
415.892	1	11
416.233	1	16
416.575	1	8
416.916	1	10
417.257	1	6
417.599	1	8
417.940	1	14
418.281	1	3
418.623	1	9
418.964	1	5
419.305	1	17
419.647	1	13
419.988	1	11
420.329	1	13
420.671	1	-1
421.012	1	13
421.353	1	10
421.695	1	-1
422.036	1	13
422.377	1	16
422.718	1	15
423.060	1	6
423.401	1	15
423.742	1	-2
424.084	1	15
424.425	1	3
424.766	1	7
425.107	1	3
425.449	1	19
425.790	1	11
426.131	1	21
426.472	1	5
426.814	1	-4
427.155	1	18
427.496	1	8
427.837	1	18
428.179	1	6
428.520	1	7
428.861	1	13
429.202	1	2
429.544	1	13
429.885	1	5
430.226	1	12
430.567	1	9
430.909	1	-4
431.250	1	14
431.591	1	-4
431.932	1	4
432.273	1	1
432.615	1	18
432.956	1	2
433.297	1	1
433.638	1	11
433.979	1	7
434.320	1	17
434.662	1	-12
435.003	1	8
435.344	1	4
435.685	1	11
436.026	1	7
436.368	1	10
436.709	1	1
437.050	1	1
437.391	1	11
437.732	1	11
438.073	1	4
438.414	1	-1
438.756	1	5
439.097	1	5
439.438	1	10
439.779	1	21
440.120	1	0
440.461	1	23
440.802	1	10
441.143	1	15
441.485	1	6
441.826	1	4
442.167	1	2
442.508	1	-3
442.849	1	-1
443.190	1	-1
443.531	1	18
443.872	1	4
444.213	1	10
444.554	1	5
444.895	1	-9
445.237	1	-1
445.578	1	20
445.919	1	9
446.260	1	11
446.601	1	7
446.942	1	15
447.283	1	14
447.624	1	7
447.965	1	9
448.306	1	-1
448.647	1	4
448.988	1	16
449.329	1	15
449.670	1	0
450.011	1	11
450.352	1	5
450.693	1	5
451.034	1	-1
451.375	1	8
451.716	1	15
452.057	1	0
452.398	1	9
452.739	1	7
453.080	1	6
453.421	1	6
453.762	1	7
454.103	1	2
454.444	1	0
454.785	1	-10
455.126	1	14
455.467	1	2
455.808	1	10
456.149	1	7
456.490	1	11
456.831	1	7
457.172	1	4
457.513	1	20
457.854	1	17
458.195	1	4
458.536	1	10
458.877	1	6
459.218	1	6
459.559	1	7
459.899	1	13
460.240	1	4
460.581	1	5
460.922	1	7
461.263	1	6
461.604	1	7
461.945	1	4
462.286	1	-1
462.627	1	11
462.968	1	10
463.309	1	15
463.649	1	9
463.990	1	2
464.331	1	8
464.672	1	2
465.013	1	19
465.354	1	11
465.695	1	1
466.036	1	2
466.376	1	7
466.717	1	2
467.058	1	12
467.399	1	18
467.740	1	9
468.081	1	6
468.422	1	8
468.762	1	15
469.103	1	17
469.444	1	6
469.785	1	-1
470.126	1	11
470.467	1	13
470.807	1	6
471.148	1	7
471.489	1	9
471.830	1	6
472.171	1	17
472.511	1	8
472.852	1	12
473.193	1	20
473.534	1	21
473.875	1	8
474.215	1	3
474.556	1	16
474.897	1	10
475.238	1	-3
475.578	1	12
475.919	1	16
476.260	1	15
476.601	1	19
476.942	1	14
477.282	1	27
477.623	1	23
477.964	1	22
478.305	1	5
478.645	1	11
478.986	1	9
479.327	1	2
479.667	1	13
480.008	1	24
480.349	1	15
480.690	1	7
481.030	1	12
481.371	1	16
481.712	1	24
482.053	1	19
482.393	1	16
482.734	1	18
483.075	1	13
483.415	1	19
483.756	1	21
484.097	1	9
484.437	1	8
484.778	1	11
485.119	1	7
485.459	1	11
485.800	1	18
486.141	1	22
486.481	1	15
486.822	1	26
487.163	1	27
487.503	1	25
487.844	1	25
488.185	1	30
488.525	1	29
488.866	1	30
489.207	1	42
489.547	1	28
489.888	1	29
490.228	1	25
490.569	1	30
490.910	1	26
491.250	1	34
491.591	1	28
491.932	1	40
492.272	1	44
492.613	1	37
492.953	1	21
493.294	1	30
493.635	1	29
493.975	1	30
494.316	1	33
494.656	1	32
494.997	1	27
495.337	1	46
495.678	1	34
496.019	1	32
496.359	1	38
496.700	1	37
497.040	1	35
497.381	1	41
497.721	1	42
498.062	1	49
498.403	1	40
498.743	1	44
499.084	1	43
499.424	1	46
499.765	1	28
500.105	1	37
500.446	1	43
500.786	1	41
501.127	1	52
501.467	1	57
501.808	1	36
502.148	1	48
502.489	1	53
502.829	1	49
503.170	1	63
503.510	1	48
503.851	1	58
504.191	1	48
504.532	1	41
504.872	1	61
505.213	1	47
505.553	1	52
505.894	1	63
506.234	1	52
506.575	1	55
506.915	1	51
507.256	1	50
507.596	1	57
507.936	1	71
508.277	1	51
508.617	1	64
508.958	1	62
509.298	1	59
509.639	1	74
509.979	1	68
510.319	1	59
510.660	1	45
511.000	1	70
511.341	1	73
511.681	1	57
512.022	1	62
512.362	1	52
512.702	1	47
513.043	1	76
513.383	1	70
513.724	1	64
514.064	1	68
514.404	1	61
514.745	1	64
515.085	1	64
515.425	1	60
515.766	1	65
516.106	1	71
516.447	1	63
516.787	1	76
517.127	1	75
517.468	1	67
517.808	1	89
518.148	1	77
518.489	1	77
518.829	1	70
519.169	1	66
519.510	1	84
519.850	1	76
520.190	1	72
520.531	1	76
520.871	1	68
521.211	1	68
521.552	1	82
521.892	1	73
522.232	1	70
522.573	1	86
522.913	1	72
523.253	1	90
523.593	1	67
523.934	1	70
524.274	1	73
524.614	1	76
524.955	1	86
525.295	1	76
525.635	1	78
525.975	1	78
526.316	1	83
526.656	1	82
526.996	1	82
527.337	1	80
527.677	1	80
528.017	1	79
528.357	1	75
528.698	1	76
529.038	1	89
529.378	1	86
529.718	1	90
530.058	1	104
530.399	1	71
530.739	1	87
531.079	1	86
531.419	1	85
531.760	1	87
532.100	1	78
532.440	1	78
532.780	1	86
533.120	1	82
533.461	1	90
533.801	1	77
534.141	1	78
534.481	1	86
534.821	1	87
535.162	1	75
535.502	1	85
535.842	1	85
536.182	1	75
536.522	1	76
536.862	1	87
537.203	1	67
537.543	1	65
537.883	1	78
538.223	1	73
538.563	1	76
538.903	1	68
539.243	1	70
539.584	1	68
539.924	1	67
540.264	1	78
540.604	1	69
540.944	1	68
541.284	1	77
541.624	1	59
541.964	1	75
542.305	1	68
542.645	1	71
542.985	1	77
543.325	1	69
543.665	1	65
544.005	1	84
544.345	1	74
544.685	1	72
545.025	1	75
545.365	1	73
545.705	1	65
546.045	1	67
546.386	1	67
546.726	1	74
547.066	1	82
547.406	1	82
547.746	1	67
548.086	1	77
548.426	1	90
548.766	1	78
549.106	1	80
549.446	1	78
549.786	1	64
550.126	1	68
550.466	1	76
550.806	1	77
551.146	1	82
551.486	1	72
551.826	1	70
552.166	1	69
552.506	1	72
552.846	1	74
553.186	1	74
553.526	1	66
553.866	1	63
554.206	1	64
554.546	1	51
554.886	1	69
555.226	1	55
555.566	1	62
555.906	1	53
556.246	1	63
556.586	1	49
556.926	1	62
557.266	1	70
557.606	1	63
557.946	1	64
558.286	1	50
558.626	1	71
558.966	1	58
559.306	1	63
559.646	1	57
559.986	1	60
560.325	1	65
560.665	1	64
561.005	1	55
561.345	1	51
561.685	1	56
562.025	1	45
562.365	1	59
562.705	1	56
563.045	1	50
563.385	1	59
563.725	1	38
564.064	1	51
564.404	1	59
564.744	1	53
565.084	1	51
565.424	1	56
565.764	1	52
566.104	1	44
566.444	1	62
566.783	1	54
567.123	1	51
567.463	1	35
567.803	1	55
568.143	1	45
568.483	1	43
568.823	1	44
569.162	1	51
569.502	1	50
569.842	1	40
570.182	1	48
570.522	1	41
570.862	1	43
571.201	1	52
571.541	1	43
571.881	1	41
572.221	1	49
572.561	1	53
572.900	1	49
573.240	1	45
573.580	1	42
573.920	1	54
574.260	1	43
574.599	1	35
574.939	1	41
575.279	1	36
575.619	1	49
575.959	1	37
576.298	1	43
576.638	1	40
576.978	1	38
577.318	1	45
577.657	1	39
577.997	1	36
578.337	1	48
578.677	1	41
579.016	1	38
579.356	1	46
579.696	1	32
580.036	1	38
580.375	1	40
580.715	1	44
581.055	1	52
581.394	1	34
581.734	1	48
582.074	1	40
582.414	1	32
582.753	1	38
583.093	1	46
583.433	1	44
583.772	1	28
584.112	1	51
584.452	1	31
584.791	1	37
585.131	1	48
585.471	1	40
585.811	1	30
586.150	1	35
586.490	1	42
586.830	1	26
587.169	1	39
587.509	1	34
587.849	1	33
588.188	1	27
588.528	1	29
588.867	1	32
589.207	1	38
589.547	1	32
589.886	1	15
590.226	1	36
590.566	1	33
590.905	1	31
591.245	1	26
591.585	1	28
591.924	1	20
592.264	1	32
592.603	1	32
592.943	1	28
593.283	1	36
593.622	1	10
593.962	1	21
594.301	1	32
594.641	1	19
594.981	1	35
595.320	1	32
595.660	1	20
595.999	1	20
596.339	1	28
596.678	1	17
597.018	1	28
597.358	1	17
597.697	1	15
598.037	1	30
598.376	1	12
598.716	1	28
599.055	1	22
599.395	1	26
599.734	1	30
600.074	1	16
600.413	1	17
600.753	1	38
601.092	1	28
601.432	1	15
601.771	1	22
602.111	1	22
602.451	1	31
602.790	1	36
603.130	1	12
603.469	1	27
603.809	1	17
604.148	1	29
604.487	1	27
604.827	1	12
605.166	1	38
605.506	1	12
605.845	1	25
606.185	1	34
606.524	1	16
606.864	1	17
607.203	1	24
607.543	1	28
607.882	1	17
608.222	1	20
608.561	1	26
608.901	1	21
609.240	1	27
609.579	1	20
609.919	1	11
610.258	1	27
610.598	1	24
610.937	1	27
611.277	1	25
611.616	1	22
611.955	1	26
612.295	1	7
612.634	1	10
612.974	1	18
613.313	1	18
613.652	1	31
613.992	1	12
614.331	1	21
614.671	1	29
615.010	1	33
615.349	1	18
615.689	1	22
616.028	1	14
616.368	1	13
616.707	1	18
617.046	1	17
617.386	1	10
617.725	1	19
618.064	1	8
618.404	1	18
618.743	1	19
619.082	1	28
619.422	1	10
619.761	1	14
620.100	1	12
620.440	1	19
620.779	1	12
621.118	1	11
621.458	1	15
621.797	1	25
622.136	1	12
622.476	1	11
622.815	1	17
623.154	1	20
623.494	1	11
623.833	1	13
624.172	1	16
624.511	1	16
624.851	1	16
625.190	1	21
625.529	1	24
625.869	1	17
626.208	1	16
626.547	1	8
626.886	1	28
627.226	1	21
627.565	1	17
627.904	1	6
628.243	1	14
628.583	1	4
628.922	1	15
629.261	1	17
629.600	1	7
629.940	1	16
630.279	1	8
630.618	1	13
630.957	1	23
631.297	1	14
631.636	1	25
631.975	1	13
632.314	1	14
632.653	1	17
632.993	1	10
633.332	1	18
633.671	1	16
634.010	1	20
634.349	1	3
634.689	1	25
635.028	1	16
635.367	1	18
635.706	1	10
636.045	1	16
636.384	1	3
636.724	1	16
637.063	1	14
637.402	1	19
637.741	1	10
638.080	1	22
638.419	1	3
638.759	1	17
639.098	1	9
639.437	1	10
639.776	1	10
640.115	1	10
640.454	1	8
640.793	1	9
641.132	1	11
641.472	1	6
641.811	1	14
642.150	1	10
642.489	1	4
642.828	1	3
643.167	1	9
643.506	1	17
643.845	1	10
644.184	1	20
644.524	1	6
644.863	1	8
645.202	1	26
645.541	1	10
645.880	1	22
646.219	1	10
646.558	1	20
646.897	1	17
647.236	1	7
647.575	1	5
647.914	1	14
648.253	1	28
648.592	1	13
648.931	1	15
649.270	1	15
649.610	1	22
649.949	1	9
650.288	1	2
650.627	1	13
650.966	1	17
651.305	1	10
651.644	1	13
651.983	1	12
652.322	1	12
652.661	1	11
653.000	1	14
653.339	1	10
653.678	1	18
654.017	1	20
654.356	1	8
654.695	1	24
655.034	1	14
655.373	1	21
655.712	1	5
656.051	1	12
656.390	1	12
656.729	1	9
657.068	1	11
657.406	1	10
657.745	1	19
658.084	1	9
658.423	1	2
658.762	1	16
659.101	1	18
659.440	1	16
659.779	1	7
660.118	1	19
660.457	1	7
660.796	1	9
661.135	1	5
661.474	1	14
661.813	1	12
662.152	1	19
662.491	1	-1
662.829	1	3
663.168	1	13
663.507	1	12
663.846	1	2
664.185	1	13
664.524	1	12
664.863	1	13
665.202	1	23
665.541	1	15
665.879	1	15
666.218	1	19
666.557	1	11
666.896	1	7
667.235	1	4
667.574	1	0
667.913	1	-4
668.251	1	10
668.590	1	9
668.929	1	17
669.268	1	1
669.607	1	11
669.946	1	12
670.285	1	24
670.623	1	11
670.962	1	1
671.301	1	13
671.640	1	14
671.979	1	6
672.317	1	13
672.656	1	4
672.995	1	4
673.334	1	11
673.673	1	13
674.011	1	21
674.350	1	12
674.689	1	7
675.028	1	14
675.367	1	5
675.705	1	11
676.044	1	18
676.383	1	7
676.722	1	15
677.060	1	5
677.399	1	8
677.738	1	6
678.077	1	21
678.416	1	4
678.754	1	15
679.093	1	17
679.432	1	10
679.771	1	10
680.109	1	9
680.448	1	12
680.787	1	9
681.125	1	18
681.464	1	10
681.803	1	13
682.142	1	6
682.480	1	6
682.819	1	17
683.158	1	9
683.496	1	15
683.835	1	12
684.174	1	16
684.512	1	0
684.851	1	6
685.190	1	4
685.529	1	23
685.867	1	12
686.206	1	12
686.545	1	11
686.883	1	5
687.222	1	5
687.561	1	12
687.899	1	6
688.238	1	7
688.577	1	27
688.746	1	6