File: Data/GaN_170K_550ms/GaN_sample D_spot 18_UVVIS_170 K_200um_550 ms 2x2mm1_97.txt
340.368	1	2
340.710	1	-9
341.052	1	8
341.394	1	1
341.737	1	5
342.079	1	6
342.421	1	2
342.763	1	5
343.105	1	16
343.447	1	-4
343.789	1	6
344.131	1	3
344.473	1	3
344.815	1	9
345.157	1	3
345.499	1	2
345.841	1	5
346.183	1	6
346.526	1	3
346.868	1	14
347.210	1	-6
347.552	1	8
347.894	1	5
348.236	1	1
348.578	1	11
348.920	1	3
349.262	1	10
349.604	1	9
349.946	1	12
350.288	1	14
350.630	1	6
350.972	1	-9
351.314	1	14
351.656	1	6
351.998	1	6
352.340	1	16
352.682	1	11
353.024	1	12
353.366	1	13
353.708	1	16
354.050	1	-5
354.392	1	7
354.734	1	18
355.076	1	5
355.418	1	6
355.760	1	-1
356.102	1	8
356.444	1	4
356.785	1	10
357.127	1	8
357.469	1	7
357.811	1	14
358.153	1	14
358.495	1	11
358.837	1	22
359.179	1	10
359.521	1	25
359.863	1	20
360.205	1	23
360.547	1	32
360.889	1	23
361.231	1	22
361.572	1	35
361.914	1	28
362.256	1	20
362.598	1	45
362.940	1	55
363.282	1	49
363.624	1	53
363.966	1	46
364.308	1	53
364.649	1	42
364.991	1	68
365.333	1	56
365.675	1	78
366.017	1	73
366.359	1	86
366.701	1	90
367.042	1	89
367.384	1	98
367.726	1	107
368.068	1	106
368.410	1	99
368.752	1	105
369.093	1	96
369.435	1	97
369.777	1	107
370.119	1	94
370.461	1	88
370.803	1	86
371.144	1	77
371.486	1	79
371.828	1	86
372.170	1	82
372.512	1	55
372.853	1	70
373.195	1	61
373.537	1	77
373.879	1	63
374.220	1	63
374.562	1	48
374.904	1	58
375.246	1	60
375.588	1	51
375.929	1	43
376.271	1	45
376.613	1	41
376.955	1	53
377.296	1	36
377.638	1	36
377.980	1	31
378.321	1	34
378.663	1	31
379.005	1	36
379.347	1	34
379.688	1	30
380.030	1	38
380.372	1	36
380.714	1	33
381.055	1	22
381.397	1	31
381.739	1	23
382.080	1	11
382.422	1	23
382.764	1	30
383.105	1	19
383.447	1	35
383.789	1	24
384.130	1	15
384.472	1	12
384.814	1	16
385.156	1	16
385.497	1	16
385.839	1	16
386.180	1	19
386.522	1	20
386.864	1	16
387.205	1	9
387.547	1	19
387.889	1	16
388.230	1	6
388.572	1	23
388.914	1	10
389.255	1	18
389.597	1	22
389.939	1	8
390.280	1	6
390.622	1	10
390.963	1	6
391.305	1	5
391.647	1	-2
391.988	1	8
392.330	1	16
392.671	1	5
393.013	1	10
393.355	1	12
393.696	1	15
394.038	1	1
394.379	1	2
394.721	1	6
395.062	1	4
395.404	1	18
395.746	1	17
396.087	1	9
396.429	1	6
396.770	1	13
397.112	1	0
397.453	1	6
397.795	1	5
398.136	1	14
398.478	1	3
398.819	1	2
399.161	1	11
399.503	1	13
399.844	1	5
400.186	1	4
400.527	1	11
400.869	1	6
401.210	1	8
401.552	1	0
401.893	1	9
402.235	1	-1
402.576	1	1
402.918	1	4
403.259	1	4
403.601	1	22
403.942	1	7
404.284	1	-6
404.625	1	8
404.967	1	4
405.308	1	18
405.649	1	12
405.991	1	12
406.332	1	-2
406.674	1	9
407.015	1	6
407.357	1	4
407.698	1	4
408.040	1	4
408.381	1	8
408.722	1	1
409.064	1	4
409.405	1	4
409.747	1	9
410.088	1	11
410.430	1	7
410.771	1	2
411.112	1	-4
411.454	1	6
411.795	1	13
412.137	1	-5
412.478	1	1
412.819	1	-2
413.161	1	9
413.502	1	1
413.844	1	13
414.185	1	-1
414.526	1	11
414.868	1	4
415.209	1	-13
415.550	1	1
415.892	1	2
416.233	1	9
416.575	1	4
416.916	1	-4
417.257	1	2
417.599	1	4
417.940	1	8
418.281	1	-8
418.623	1	7
418.964	1	3
419.305	1	2
419.647	1	12
419.988	1	18
420.329	1	6
420.671	1	-1
421.012	1	10
421.353	1	4
421.695	1	0
422.036	1	5
422.377	1	5
422.718	1	6
423.060	1	3
423.401	1	5
423.742	1	3
424.084	1	13
424.425	1	-5
424.766	1	3
425.107	1	2
425.449	1	4
425.790	1	3
426.131	1	14
426.472	1	-3
426.814	1	-4
427.155	1	5
427.496	1	3
427.837	1	7
428.179	1	9
428.520	1	4
428.861	1	-6
429.202	1	-3
429.544	1	-3
429.885	1	5
430.226	1	4
430.567	1	11
430.909	1	3
431.250	1	10
431.591	1	3
431.932	1	4
432.273	1	4
432.615	1	7
432.956	1	0
433.297	1	3
433.638	1	5
433.979	1	2
434.320	1	6
434.662	1	0
435.003	1	7
435.344	1	0
435.685	1	5
436.026	1	5
436.368	1	9
436.709	1	2
437.050	1	-2
437.391	1	6
437.732	1	11
438.073	1	3
438.414	1	6
438.756	1	2
439.097	1	10
439.438	1	11
439.779	1	7
440.120	1	-4
440.461	1	22
440.802	1	11
441.143	1	-4
441.485	1	-3
441.826	1	6
442.167	1	5
442.508	1	-2
442.849	1	-2
443.190	1	8
443.531	1	5
443.872	1	-5
444.213	1	-5
444.554	1	2
444.895	1	-12
445.237	1	-2
445.578	1	10
445.919	1	6
446.260	1	11
446.601	1	-10
446.942	1	2
447.283	1	4
447.624	1	-4
447.965	1	7
448.306	1	8
448.647	1	1
448.988	1	11
449.329	1	8
449.670	1	-8
450.011	1	12
450.352	1	-5
450.693	1	-3
451.034	1	-1
451.375	1	9
451.716	1	8
452.057	1	4
452.398	1	5
452.739	1	-1
453.080	1	1
453.421	1	5
453.762	1	0
454.103	1	-1
454.444	1	0
454.785	1	1
455.126	1	4
455.467	1	-13
455.808	1	12
456.149	1	-1
456.490	1	-2
456.831	1	0
457.172	1	1
457.513	1	11
457.854	1	15
458.195	1	-4
458.536	1	6
458.877	1	11
459.218	1	0
459.559	1	5
459.899	1	3
460.240	1	7
460.581	1	2
460.922	1	1
461.263	1	-7
461.604	1	4
461.945	1	3
462.286	1	1
462.627	1	12
462.968	1	4
463.309	1	11
463.649	1	8
463.990	1	8
464.331	1	-2
464.672	1	0
465.013	1	10
465.354	1	-1
465.695	1	13
466.036	1	-2
466.376	1	11
466.717	1	7
467.058	1	10
467.399	1	10
467.740	1	16
468.081	1	-2
468.422	1	4
468.762	1	16
469.103	1	15
469.444	1	0
469.785	1	0
470.126	1	2
470.467	1	-1
470.807	1	-4
471.148	1	-1
471.489	1	-4
471.830	1	4
472.171	1	10
472.511	1	5
472.852	1	3
473.193	1	15
473.534	1	-4
473.875	1	5
474.215	1	5
474.556	1	9
474.897	1	4
475.238	1	3
475.578	1	2
475.919	1	9
476.260	1	15
476.601	1	1
476.942	1	-7
477.282	1	11
477.623	1	11
477.964	1	14
478.305	1	-5
478.645	1	5
478.986	1	1
479.327	1	-3
479.667	1	2
480.008	1	0
480.349	1	10
480.690	1	8
481.030	1	9
481.371	1	8
481.712	1	3
482.053	1	-1
482.393	1	4
482.734	1	9
483.075	1	3
483.415	1	6
483.756	1	12
484.097	1	-5
484.437	1	4
484.778	1	-10
485.119	1	3
485.459	1	3
485.800	1	-2
486.141	1	16
486.481	1	0
486.822	1	1
487.163	1	16
487.503	1	4
487.844	1	5
488.185	1	8
488.525	1	8
488.866	1	10
489.207	1	10
489.547	1	13
489.888	1	5
490.228	1	-1
490.569	1	9
490.910	1	6
491.250	1	5
491.591	1	4
491.932	1	7
492.272	1	8
492.613	1	11
492.953	1	5
493.294	1	0
493.635	1	-1
493.975	1	15
494.316	1	10
494.656	1	8
494.997	1	1
495.337	1	8
495.678	1	2
496.019	1	-3
496.359	1	11
496.700	1	25
497.040	1	10
497.381	1	7
497.721	1	4
498.062	1	8
498.403	1	14
498.743	1	13
499.084	1	14
499.424	1	6
499.765	1	-5
500.105	1	7
500.446	1	3
500.786	1	13
501.127	1	14
501.467	1	7
501.808	1	9
502.148	1	17
502.489	1	6
502.829	1	17
503.170	1	15
503.510	1	7
503.851	1	5
504.191	1	4
504.532	1	0
504.872	1	13
505.213	1	11
505.553	1	6
505.894	1	15
506.234	1	4
506.575	1	12
506.915	1	23
507.256	1	8
507.596	1	10
507.936	1	23
508.277	1	6
508.617	1	18
508.958	1	16
509.298	1	9
509.639	1	11
509.979	1	10
510.319	1	9
510.660	1	4
511.000	1	18
511.341	1	22
511.681	1	9
512.022	1	20
512.362	1	9
512.702	1	5
513.043	1	12
513.383	1	25
513.724	1	14
514.064	1	18
514.404	1	10
514.745	1	16
515.085	1	18
515.425	1	10
515.766	1	13
516.106	1	15
516.447	1	10
516.787	1	12
517.127	1	20
517.468	1	22
517.808	1	17
518.148	1	3
518.489	1	18
518.829	1	22
519.169	1	13
519.510	1	23
519.850	1	11
520.190	1	20
520.531	1	17
520.871	1	20
521.211	1	13
521.552	1	22
521.892	1	15
522.232	1	12
522.573	1	17
522.913	1	23
523.253	1	19
523.593	1	19
523.934	1	12
524.274	1	17
524.614	1	18
524.955	1	13
525.295	1	22
525.635	1	18
525.975	1	15
526.316	1	20
526.656	1	18
526.996	1	19
527.337	1	9
527.677	1	4
528.017	1	21
528.357	1	14
528.698	1	-1
529.038	1	9
529.378	1	12
529.718	1	20
530.058	1	19
530.399	1	9
530.739	1	10
531.079	1	29
531.419	1	22
531.760	1	25
532.100	1	15
532.440	1	19
532.780	1	1
533.120	1	15
533.461	1	22
533.801	1	20
534.141	1	15
534.481	1	13
534.821	1	22
535.162	1	17
535.502	1	14
535.842	1	13
536.182	1	17
536.522	1	22
536.862	1	25
537.203	1	16
537.543	1	8
537.883	1	16
538.223	1	13
538.563	1	14
538.903	1	10
539.243	1	11
539.584	1	12
539.924	1	8
540.264	1	24
540.604	1	11
540.944	1	11
541.284	1	15
541.624	1	9
541.964	1	21
542.305	1	17
542.645	1	14
542.985	1	14
543.325	1	14
543.665	1	25
544.005	1	28
544.345	1	11
544.685	1	13
545.025	1	9
545.365	1	23
545.705	1	21
546.045	1	12
546.386	1	8
546.726	1	11
547.066	1	28
547.406	1	7
547.746	1	13
548.086	1	11
548.426	1	20
548.766	1	15
549.106	1	19
549.446	1	19
549.786	1	18
550.126	1	14
550.466	1	24
550.806	1	9
551.146	1	19
551.486	1	8
551.826	1	16
552.166	1	13
552.506	1	11
552.846	1	9
553.186	1	10
553.526	1	11
553.866	1	2
554.206	1	12
554.546	1	2
554.886	1	5
555.226	1	10
555.566	1	13
555.906	1	12
556.246	1	11
556.586	1	5
556.926	1	14
557.266	1	12
557.606	1	10
557.946	1	15
558.286	1	12
558.626	1	24
558.966	1	21
559.306	1	23
559.646	1	4
559.986	1	8
560.325	1	15
560.665	1	18
561.005	1	9
561.345	1	1
561.685	1	8
562.025	1	2
562.365	1	14
562.705	1	7
563.045	1	5
563.385	1	17
563.725	1	-1
564.064	1	10
564.404	1	9
564.744	1	10
565.084	1	13
565.424	1	21
565.764	1	17
566.104	1	9
566.444	1	9
566.783	1	6
567.123	1	8
567.463	1	6
567.803	1	16
568.143	1	10
568.483	1	12
568.823	1	5
569.162	1	20
569.502	1	5
569.842	1	8
570.182	1	5
570.522	1	3
570.862	1	9
571.201	1	11
571.541	1	4
571.881	1	7
572.221	1	12
572.561	1	14
572.900	1	1
573.240	1	4
573.580	1	4
573.920	1	22
574.260	1	18
574.599	1	4
574.939	1	-2
575.279	1	8
575.619	1	14
575.959	1	0
576.298	1	14
576.638	1	14
576.978	1	5
577.318	1	13
577.657	1	9
577.997	1	6
578.337	1	1
578.677	1	5
579.016	1	5
579.356	1	4
579.696	1	1
580.036	1	5
580.375	1	8
580.715	1	17
581.055	1	9
581.394	1	12
581.734	1	8
582.074	1	14
582.414	1	1
582.753	1	14
583.093	1	2
583.433	1	12
583.772	1	11
584.112	1	10
584.452	1	-5
584.791	1	1
585.131	1	13
585.471	1	5
585.811	1	-3
586.150	1	4
586.490	1	3
586.830	1	-5
587.169	1	16
587.509	1	7
587.849	1	10
588.188	1	8
588.528	1	8
588.867	1	1
589.207	1	7
589.547	1	4
589.886	1	0
590.226	1	7
590.566	1	5
590.905	1	8
591.245	1	2
591.585	1	11
591.924	1	-1
592.264	1	-5
592.603	1	12
592.943	1	7
593.283	1	16
593.622	1	-6
593.962	1	10
594.301	1	15
594.641	1	14
594.981	1	20
595.320	1	1
595.660	1	7
595.999	1	9
596.339	1	7
596.678	1	2
597.018	1	6
597.358	1	-1
597.697	1	1
598.037	1	1
598.376	1	-7
598.716	1	8
599.055	1	0
599.395	1	5
599.734	1	15
600.074	1	4
600.413	1	3
600.753	1	16
601.092	1	9
601.432	1	4
601.771	1	12
602.111	1	8
602.451	1	9
602.790	1	9
603.130	1	-4
603.469	1	6
603.809	1	4
604.148	1	11
604.487	1	7
604.827	1	-4
605.166	1	15
605.506	1	4
605.845	1	15
606.185	1	5
606.524	1	1
606.864	1	-1
607.203	1	2
607.543	1	9
607.882	1	0
608.222	1	7
608.561	1	11
608.901	1	5
609.240	1	5
609.579	1	2
609.919	1	4
610.258	1	9
610.598	1	5
610.937	1	2
611.277	1	-1
611.616	1	7
611.955	1	7
612.295	1	0
612.634	1	4
612.974	1	8
613.313	1	1
613.652	1	18
613.992	1	7
614.331	1	5
614.671	1	3
615.010	1	8
615.349	1	6
615.689	1	13
616.028	1	0
616.368	1	-1
616.707	1	15
617.046	1	-1
617.386	1	0
617.725	1	0
618.064	1	8
618.404	1	3
618.743	1	2
619.082	1	5
619.422	1	-1
619.761	1	-3
620.100	1	-5
620.440	1	6
620.779	1	5
621.118	1	-1
621.458	1	5
621.797	1	9
622.136	1	0
622.476	1	-6
622.815	1	8
623.154	1	5
623.494	1	-4
623.833	1	4
624.172	1	2
624.511	1	16
624.851	1	-7
625.190	1	5
625.529	1	17
625.869	1	10
626.208	1	1
626.547	1	-1
626.886	1	-2
627.226	1	4
627.565	1	9
627.904	1	-5
628.243	1	0
628.583	1	-12
628.922	1	3
629.261	1	14
629.600	1	12
629.940	1	-4
630.279	1	0
630.618	1	-4
630.957	1	2
631.297	1	-1
631.636	1	10
631.975	1	5
632.314	1	7
632.653	1	8
632.993	1	2
633.332	1	3
633.671	1	15
634.010	1	5
634.349	1	5
634.689	1	15
635.028	1	7
635.367	1	-2
635.706	1	-3
636.045	1	12
636.384	1	-3
636.724	1	10
637.063	1	5
637.402	1	8
637.741	1	4
638.080	1	10
638.419	1	-2
638.759	1	8
639.098	1	-9
639.437	1	1
639.776	1	5
640.115	1	0
640.454	1	0
640.793	1	-1
641.132	1	10
641.472	1	2
641.811	1	11
642.150	1	0
642.489	1	-2
642.828	1	4
643.167	1	6
643.506	1	4
643.845	1	7
644.184	1	10
644.524	1	-1
644.863	1	-9
645.202	1	16
645.541	1	11
645.880	1	2
646.219	1	2
646.558	1	16
646.897	1	7
647.236	1	4
647.575	1	-2
647.914	1	-2
648.253	1	8
648.592	1	7
648.931	1	5
649.270	1	6
649.610	1	1
649.949	1	5
650.288	1	-2
650.627	1	-4
650.966	1	5
651.305	1	1
651.644	1	9
651.983	1	2
652.322	1	5
652.661	1	7
653.000	1	0
653.339	1	4
653.678	1	4
654.017	1	3
654.356	1	9
654.695	1	12
655.034	1	12
655.373	1	6
655.712	1	-13
656.051	1	1
656.390	1	7
656.729	1	10
657.068	1	5
657.406	1	5
657.745	1	14
658.084	1	-7
658.423	1	5
658.762	1	-4
659.101	1	12
659.440	1	4
659.779	1	6
660.118	1	2
660.457	1	13
660.796	1	3
661.135	1	-14
661.474	1	7
661.813	1	9
662.152	1	1
662.491	1	-2
662.829	1	2
663.168	1	5
663.507	1	1
663.846	1	-3
664.185	1	5
664.524	1	12
664.863	1	-1
665.202	1	20
665.541	1	8
665.879	1	7
666.218	1	7
666.557	1	10
666.896	1	5
667.235	1	7
667.574	1	-7
667.913	1	2
668.251	1	11
668.590	1	10
668.929	1	7
669.268	1	2
669.607	1	3
669.946	1	8
670.285	1	14
670.623	1	10
670.962	1	5
671.301	1	2
671.640	1	8
671.979	1	5
672.317	1	16
672.656	1	-1
672.995	1	5
673.334	1	3
673.673	1	5
674.011	1	8
674.350	1	12
674.689	1	4
675.028	1	6
675.367	1	2
675.705	1	12
676.044	1	18
676.383	1	14
676.722	1	16
677.060	1	-7
677.399	1	0
677.738	1	4
678.077	1	6
678.416	1	4
678.754	1	4
679.093	1	-1
679.432	1	6
679.771	1	-1
680.109	1	7
680.448	1	14
680.787	1	4
681.125	1	14
681.464	1	7
681.803	1	10
682.142	1	-2
682.480	1	2
682.819	1	9
683.158	1	2
683.496	1	6
683.835	1	4
684.174	1	3
684.512	1	5
684.851	1	-5
685.190	1	2
685.529	1	13
685.867	1	9
686.206	1	15
686.545	1	13
686.883	1	-3
687.222	1	8
687.561	1	5
687.899	1	-3
688.238	1	-5
688.577	1	12
688.746	1	3