File: Data/GaN_170K_550ms/GaN_sample D_spot 18_UVVIS_170 K_200um_550 ms 2x2mm1_315.txt
340.368	1	1
340.710	1	-10
341.052	1	-1
341.394	1	5
341.737	1	-6
342.079	1	2
342.421	1	9
342.763	1	2
343.105	1	2
343.447	1	-5
343.789	1	-3
344.131	1	6
344.473	1	0
344.815	1	6
345.157	1	4
345.499	1	-3
345.841	1	9
346.183	1	8
346.526	1	7
346.868	1	4
347.210	1	-8
347.552	1	7
347.894	1	-1
348.236	1	9
348.578	1	5
348.920	1	-4
349.262	1	-5
349.604	1	9
349.946	1	11
350.288	1	-2
350.630	1	10
350.972	1	-11
351.314	1	9
351.656	1	-2
351.998	1	8
352.340	1	3
352.682	1	-1
353.024	1	5
353.366	1	3
353.708	1	6
354.050	1	-8
354.392	1	3
354.734	1	0
355.076	1	-1
355.418	1	-3
355.760	1	-6
356.102	1	2
356.444	1	-3
356.785	1	-1
357.127	1	0
357.469	1	-2
357.811	1	5
358.153	1	10
358.495	1	4
358.837	1	5
359.179	1	1
359.521	1	3
359.863	1	5
360.205	1	14
360.547	1	7
360.889	1	24
361.231	1	5
361.572	1	2
361.914	1	6
362.256	1	5
362.598	1	-1
362.940	1	12
363.282	1	2
363.624	1	6
363.966	1	-2
364.308	1	0
364.649	1	-8
364.991	1	9
365.333	1	9
365.675	1	13
366.017	1	5
366.359	1	12
366.701	1	5
367.042	1	4
367.384	1	12
367.726	1	15
368.068	1	12
368.410	1	12
368.752	1	14
369.093	1	-7
369.435	1	10
369.777	1	12
370.119	1	7
370.461	1	10
370.803	1	6
371.144	1	5
371.486	1	-6
371.828	1	10
372.170	1	5
372.512	1	5
372.853	1	12
373.195	1	7
373.537	1	16
373.879	1	14
374.220	1	15
374.562	1	0
374.904	1	3
375.246	1	3
375.588	1	-6
375.929	1	-2
376.271	1	15
376.613	1	8
376.955	1	10
377.296	1	5
377.638	1	11
377.980	1	-1
378.321	1	4
378.663	1	6
379.005	1	-3
379.347	1	-2
379.688	1	12
380.030	1	9
380.372	1	-1
380.714	1	13
381.055	1	3
381.397	1	3
381.739	1	0
382.080	1	-4
382.422	1	-2
382.764	1	10
383.105	1	1
383.447	1	11
383.789	1	11
384.130	1	-4
384.472	1	-8
384.814	1	8
385.156	1	5
385.497	1	12
385.839	1	-3
386.180	1	7
386.522	1	13
386.864	1	2
387.205	1	-6
387.547	1	1
387.889	1	5
388.230	1	3
388.572	1	12
388.914	1	-1
389.255	1	8
389.597	1	7
389.939	1	-1
390.280	1	0
390.622	1	-1
390.963	1	8
391.305	1	5
391.647	1	-10
391.988	1	15
392.330	1	4
392.671	1	0
393.013	1	4
393.355	1	1
393.696	1	3
394.038	1	1
394.379	1	-10
394.721	1	3
395.062	1	-5
395.404	1	9
395.746	1	10
396.087	1	7
396.429	1	6
396.770	1	10
397.112	1	-2
397.453	1	3
397.795	1	-4
398.136	1	9
398.478	1	-6
398.819	1	3
399.161	1	-6
399.503	1	1
399.844	1	-7
400.186	1	-3
400.527	1	17
400.869	1	0
401.210	1	0
401.552	1	-5
401.893	1	4
402.235	1	7
402.576	1	-3
402.918	1	0
403.259	1	-4
403.601	1	11
403.942	1	9
404.284	1	-10
404.625	1	5
404.967	1	4
405.308	1	1
405.649	1	-3
405.991	1	3
406.332	1	-15
406.674	1	3
407.015	1	9
407.357	1	-2
407.698	1	6
408.040	1	-5
408.381	1	11
408.722	1	-8
409.064	1	1
409.405	1	-3
409.747	1	2
410.088	1	5
410.430	1	-4
410.771	1	10
411.112	1	17
411.454	1	-1
411.795	1	0
412.137	1	-6
412.478	1	2
412.819	1	-7
413.161	1	5
413.502	1	-1
413.844	1	6
414.185	1	1
414.526	1	3
414.868	1	0
415.209	1	-15
415.550	1	-7
415.892	1	3
416.233	1	4
416.575	1	4
416.916	1	-14
417.257	1	2
417.599	1	-1
417.940	1	4
418.281	1	-12
418.623	1	7
418.964	1	-4
419.305	1	2
419.647	1	14
419.988	1	0
420.329	1	4
420.671	1	-2
421.012	1	-1
421.353	1	-6
421.695	1	-6
422.036	1	8
422.377	1	10
422.718	1	8
423.060	1	-3
423.401	1	-5
423.742	1	-2
424.084	1	9
424.425	1	-3
424.766	1	1
425.107	1	-2
425.449	1	3
425.790	1	10
426.131	1	1
426.472	1	3
426.814	1	-12
427.155	1	4
427.496	1	6
427.837	1	4
428.179	1	-5
428.520	1	-1
428.861	1	3
429.202	1	-1
429.544	1	-1
429.885	1	1
430.226	1	4
430.567	1	14
430.909	1	0
431.250	1	6
431.591	1	-8
431.932	1	-12
432.273	1	3
432.615	1	4
432.956	1	0
433.297	1	-2
433.638	1	7
433.979	1	-2
434.320	1	7
434.662	1	-12
435.003	1	-1
435.344	1	-3
435.685	1	3
436.026	1	-2
436.368	1	7
436.709	1	-1
437.050	1	-5
437.391	1	-2
437.732	1	2
438.073	1	-1
438.414	1	-3
438.756	1	1
439.097	1	12
439.438	1	9
439.779	1	17
440.120	1	-6
440.461	1	15
440.802	1	6
441.143	1	-1
441.485	1	-12
441.826	1	6
442.167	1	2
442.508	1	-5
442.849	1	-8
443.190	1	7
443.531	1	1
443.872	1	-6
444.213	1	-2
444.554	1	-4
444.895	1	-6
445.237	1	0
445.578	1	2
445.919	1	3
446.260	1	6
446.601	1	-7
446.942	1	5
447.283	1	5
447.624	1	-1
447.965	1	-6
448.306	1	-3
448.647	1	-5
448.988	1	5
449.329	1	1
449.670	1	-11
450.011	1	9
450.352	1	-5
450.693	1	0
451.034	1	3
451.375	1	3
451.716	1	1
452.057	1	2
452.398	1	-4
452.739	1	11
453.080	1	-3
453.421	1	-6
453.762	1	1
454.103	1	-9
454.444	1	-5
454.785	1	-3
455.126	1	9
455.467	1	-15
455.808	1	6
456.149	1	2
456.490	1	4
456.831	1	-4
457.172	1	-9
457.513	1	8
457.854	1	15
458.195	1	4
458.536	1	-8
458.877	1	4
459.218	1	10
459.559	1	0
459.899	1	4
460.240	1	-5
460.581	1	2
460.922	1	-3
461.263	1	-2
461.604	1	8
461.945	1	0
462.286	1	-3
462.627	1	11
462.968	1	15
463.309	1	4
463.649	1	8
463.990	1	-3
464.331	1	-1
464.672	1	-2
465.013	1	11
465.354	1	-2
465.695	1	5
466.036	1	-3
466.376	1	0
466.717	1	-3
467.058	1	8
467.399	1	14
467.740	1	-1
468.081	1	1
468.422	1	8
468.762	1	9
469.103	1	10
469.444	1	5
469.785	1	-6
470.126	1	2
470.467	1	5
470.807	1	-1
471.148	1	-1
471.489	1	4
471.830	1	-5
472.171	1	8
472.511	1	-1
472.852	1	3
473.193	1	-2
473.534	1	4
473.875	1	0
474.215	1	2
474.556	1	6
474.897	1	-3
475.238	1	2
475.578	1	3
475.919	1	5
476.260	1	21
476.601	1	1
476.942	1	-5
477.282	1	10
477.623	1	9
477.964	1	-2
478.305	1	0
478.645	1	2
478.986	1	-7
479.327	1	-6
479.667	1	0
480.008	1	11
480.349	1	2
480.690	1	-6
481.030	1	8
481.371	1	-3
481.712	1	1
482.053	1	-2
482.393	1	-10
482.734	1	9
483.075	1	1
483.415	1	6
483.756	1	3
484.097	1	-10
484.437	1	-2
484.778	1	-3
485.119	1	5
485.459	1	-6
485.800	1	-2
486.141	1	12
486.481	1	4
486.822	1	0
487.163	1	-1
487.503	1	2
487.844	1	7
488.185	1	14
488.525	1	3
488.866	1	5
489.207	1	4
489.547	1	-2
489.888	1	6
490.228	1	0
490.569	1	6
490.910	1	1
491.250	1	2
491.591	1	2
491.932	1	2
492.272	1	6
492.613	1	-2
492.953	1	-4
493.294	1	-1
493.635	1	-11
493.975	1	9
494.316	1	2
494.656	1	1
494.997	1	2
495.337	1	4
495.678	1	3
496.019	1	-6
496.359	1	13
496.700	1	3
497.040	1	-1
497.381	1	8
497.721	1	-3
498.062	1	-3
498.403	1	5
498.743	1	3
499.084	1	2
499.424	1	0
499.765	1	-6
500.105	1	-5
500.446	1	3
500.786	1	0
501.127	1	-5
501.467	1	1
501.808	1	1
502.148	1	7
502.489	1	3
502.829	1	5
503.170	1	11
503.510	1	0
503.851	1	-1
504.191	1	-9
504.532	1	-13
504.872	1	1
505.213	1	-5
505.553	1	0
505.894	1	3
506.234	1	-4
506.575	1	7
506.915	1	5
507.256	1	3
507.596	1	-1
507.936	1	12
508.277	1	-10
508.617	1	10
508.958	1	-1
509.298	1	-2
509.639	1	11
509.979	1	5
510.319	1	2
510.660	1	-10
511.000	1	4
511.341	1	6
511.681	1	-6
512.022	1	7
512.362	1	-5
512.702	1	-3
513.043	1	1
513.383	1	-4
513.724	1	-6
514.064	1	8
514.404	1	-2
514.745	1	-3
515.085	1	7
515.425	1	1
515.766	1	4
516.106	1	8
516.447	1	4
516.787	1	10
517.127	1	1
517.468	1	-3
517.808	1	4
518.148	1	-3
518.489	1	-1
518.829	1	-2
519.169	1	-4
519.510	1	6
519.850	1	0
520.190	1	-7
520.531	1	7
520.871	1	-2
521.211	1	9
521.552	1	-4
521.892	1	1
522.232	1	-14
522.573	1	5
522.913	1	0
523.253	1	7
523.593	1	1
523.934	1	-1
524.274	1	1
524.614	1	1
524.955	1	13
525.295	1	-4
525.635	1	8
525.975	1	-7
526.316	1	4
526.656	1	3
526.996	1	4
527.337	1	-3
527.677	1	8
528.017	1	5
528.357	1	-8
528.698	1	-3
529.038	1	-1
529.378	1	-3
529.718	1	7
530.058	1	13
530.399	1	15
530.739	1	8
531.079	1	3
531.419	1	4
531.760	1	4
532.100	1	1
532.440	1	4
532.780	1	-6
533.120	1	1
533.461	1	2
533.801	1	5
534.141	1	-12
534.481	1	11
534.821	1	7
535.162	1	5
535.502	1	8
535.842	1	7
536.182	1	5
536.522	1	5
536.862	1	10
537.203	1	7
537.543	1	-7
537.883	1	8
538.223	1	3
538.563	1	-1
538.903	1	3
539.243	1	4
539.584	1	2
539.924	1	2
540.264	1	8
540.604	1	-4
540.944	1	-2
541.284	1	7
541.624	1	1
541.964	1	0
542.305	1	1
542.645	1	2
542.985	1	2
543.325	1	7
543.665	1	7
544.005	1	6
544.345	1	2
544.685	1	8
545.025	1	0
545.365	1	1
545.705	1	3
546.045	1	-1
546.386	1	-1
546.726	1	-3
547.066	1	10
547.406	1	-3
547.746	1	4
548.086	1	0
548.426	1	10
548.766	1	-1
549.106	1	10
549.446	1	5
549.786	1	-4
550.126	1	9
550.466	1	-4
550.806	1	-2
551.146	1	7
551.486	1	0
551.826	1	3
552.166	1	0
552.506	1	6
552.846	1	0
553.186	1	4
553.526	1	-9
553.866	1	-5
554.206	1	8
554.546	1	-17
554.886	1	0
555.226	1	-3
555.566	1	5
555.906	1	-1
556.246	1	3
556.586	1	-1
556.926	1	8
557.266	1	0
557.606	1	0
557.946	1	-3
558.286	1	-2
558.626	1	12
558.966	1	7
559.306	1	13
559.646	1	-8
559.986	1	3
560.325	1	-1
560.665	1	-1
561.005	1	3
561.345	1	-18
561.685	1	0
562.025	1	-1
562.365	1	9
562.705	1	11
563.045	1	-5
563.385	1	2
563.725	1	-3
564.064	1	4
564.404	1	-9
564.744	1	-3
565.084	1	6
565.424	1	5
565.764	1	-9
566.104	1	1
566.444	1	2
566.783	1	3
567.123	1	0
567.463	1	3
567.803	1	1
568.143	1	-2
568.483	1	-3
568.823	1	0
569.162	1	5
569.502	1	7
569.842	1	3
570.182	1	2
570.522	1	-9
570.862	1	5
571.201	1	10
571.541	1	2
571.881	1	-3
572.221	1	-2
572.561	1	3
572.900	1	7
573.240	1	10
573.580	1	0
573.920	1	17
574.260	1	3
574.599	1	-6
574.939	1	-7
575.279	1	-1
575.619	1	5
575.959	1	-6
576.298	1	9
576.638	1	11
576.978	1	-6
577.318	1	1
577.657	1	9
577.997	1	-8
578.337	1	0
578.677	1	3
579.016	1	-2
579.356	1	-1
579.696	1	-4
580.036	1	-2
580.375	1	4
580.715	1	0
581.055	1	4
581.394	1	1
581.734	1	12
582.074	1	5
582.414	1	-3
582.753	1	6
583.093	1	3
583.433	1	5
583.772	1	1
584.112	1	7
584.452	1	-4
584.791	1	2
585.131	1	6
585.471	1	-1
585.811	1	-12
586.150	1	-4
586.490	1	11
586.830	1	-6
587.169	1	6
587.509	1	0
587.849	1	-3
588.188	1	2
588.528	1	-4
588.867	1	-4
589.207	1	3
589.547	1	5
589.886	1	-1
590.226	1	-2
590.566	1	-2
590.905	1	7
591.245	1	-3
591.585	1	-2
591.924	1	0
592.264	1	-2
592.603	1	-3
592.943	1	2
593.283	1	7
593.622	1	-11
593.962	1	1
594.301	1	13
594.641	1	10
594.981	1	12
595.320	1	9
595.660	1	1
595.999	1	6
596.339	1	2
596.678	1	-2
597.018	1	-1
597.358	1	-13
597.697	1	-8
598.037	1	-2
598.376	1	-12
598.716	1	-6
599.055	1	-4
599.395	1	4
599.734	1	7
600.074	1	-5
600.413	1	-8
600.753	1	6
601.092	1	-4
601.432	1	-9
601.771	1	9
602.111	1	4
602.451	1	6
602.790	1	7
603.130	1	-10
603.469	1	-1
603.809	1	4
604.148	1	2
604.487	1	10
604.827	1	-9
605.166	1	4
605.506	1	-11
605.845	1	-4
606.185	1	12
606.524	1	2
606.864	1	-4
607.203	1	6
607.543	1	15
607.882	1	-8
608.222	1	-3
608.561	1	-2
608.901	1	-2
609.240	1	-4
609.579	1	6
609.919	1	-1
610.258	1	14
610.598	1	6
610.937	1	7
611.277	1	2
611.616	1	-3
611.955	1	1
612.295	1	-3
612.634	1	-12
612.974	1	3
613.313	1	2
613.652	1	11
613.992	1	3
614.331	1	-6
614.671	1	7
615.010	1	10
615.349	1	5
615.689	1	8
616.028	1	-8
616.368	1	0
616.707	1	8
617.046	1	-6
617.386	1	-3
617.725	1	7
618.064	1	0
618.404	1	-6
618.743	1	0
619.082	1	3
619.422	1	-2
619.761	1	-1
620.100	1	2
620.440	1	4
620.779	1	2
621.118	1	-1
621.458	1	-3
621.797	1	-4
622.136	1	7
622.476	1	-6
622.815	1	2
623.154	1	0
623.494	1	-9
623.833	1	0
624.172	1	1
624.511	1	5
624.851	1	-6
625.190	1	6
625.529	1	13
625.869	1	11
626.208	1	6
626.547	1	-9
626.886	1	5
627.226	1	7
627.565	1	0
627.904	1	3
628.243	1	0
628.583	1	-2
628.922	1	-6
629.261	1	-3
629.600	1	-3
629.940	1	-1
630.279	1	2
630.618	1	-4
630.957	1	-3
631.297	1	4
631.636	1	6
631.975	1	-2
632.314	1	-5
632.653	1	8
632.993	1	-5
633.332	1	5
633.671	1	0
634.010	1	2
634.349	1	-14
634.689	1	5
635.028	1	-1
635.367	1	2
635.706	1	6
636.045	1	7
636.384	1	-2
636.724	1	3
637.063	1	2
637.402	1	7
637.741	1	-4
638.080	1	11
638.419	1	-3
638.759	1	1
639.098	1	-1
639.437	1	-9
639.776	1	3
640.115	1	-2
640.454	1	1
640.793	1	-1
641.132	1	5
641.472	1	-5
641.811	1	8
642.150	1	-8
642.489	1	-6
642.828	1	2
643.167	1	3
643.506	1	8
643.845	1	3
644.184	1	8
644.524	1	-3
644.863	1	-20
645.202	1	7
645.541	1	6
645.880	1	0
646.219	1	0
646.558	1	6
646.897	1	-1
647.236	1	-1
647.575	1	-11
647.914	1	1
648.253	1	-1
648.592	1	2
648.931	1	-3
649.270	1	2
649.610	1	2
649.949	1	1
650.288	1	-8
650.627	1	-2
650.966	1	2
651.305	1	-10
651.644	1	11
651.983	1	1
652.322	1	-8
652.661	1	-3
653.000	1	-6
653.339	1	-4
653.678	1	1
654.017	1	0
654.356	1	-1
654.695	1	6
655.034	1	-1
655.373	1	4
655.712	1	-16
656.051	1	0
656.390	1	2
656.729	1	5
657.068	1	2
657.406	1	4
657.745	1	3
658.084	1	-17
658.423	1	3
658.762	1	-2
659.101	1	1
659.440	1	1
659.779	1	4
660.118	1	0
660.457	1	9
660.796	1	-5
661.135	1	-16
661.474	1	5
661.813	1	-7
662.152	1	5
662.491	1	-8
662.829	1	0
663.168	1	1
663.507	1	0
663.846	1	0
664.185	1	3
664.524	1	6
664.863	1	-2
665.202	1	20
665.541	1	-4
665.879	1	7
666.218	1	9
666.557	1	2
666.896	1	4
667.235	1	1
667.574	1	-12
667.913	1	-9
668.251	1	0
668.590	1	-4
668.929	1	9
669.268	1	-6
669.607	1	-2
669.946	1	-2
670.285	1	15
670.623	1	-1
670.962	1	3
671.301	1	-1
671.640	1	7
671.979	1	0
672.317	1	-7
672.656	1	-4
672.995	1	-14
673.334	1	2
673.673	1	-1
674.011	1	12
674.350	1	9
674.689	1	8
675.028	1	8
675.367	1	-2
675.705	1	6
676.044	1	13
676.383	1	-1
676.722	1	11
677.060	1	-18
677.399	1	1
677.738	1	1
678.077	1	10
678.416	1	2
678.754	1	5
679.093	1	4
679.432	1	-2
679.771	1	5
680.109	1	-9
680.448	1	3
680.787	1	-3
681.125	1	4
681.464	1	2
681.803	1	6
682.142	1	3
682.480	1	5
682.819	1	12
683.158	1	-1
683.496	1	9
683.835	1	-11
684.174	1	2
684.512	1	1
684.851	1	-2
685.190	1	-9
685.529	1	8
685.867	1	5
686.206	1	8
686.545	1	9
686.883	1	0
687.222	1	-5
687.561	1	1
687.899	1	-6
688.238	1	4
688.577	1	3
688.746	1	-10