File: Data/GaN_170K_550ms/GaN_sample D_spot 18_UVVIS_170 K_200um_550 ms 2x2mm1_150.txt
340.368	1	-5
340.710	1	-8
341.052	1	4
341.394	1	0
341.737	1	-14
342.079	1	-2
342.421	1	-2
342.763	1	9
343.105	1	17
343.447	1	2
343.789	1	12
344.131	1	-3
344.473	1	6
344.815	1	12
345.157	1	1
345.499	1	-3
345.841	1	13
346.183	1	15
346.526	1	1
346.868	1	8
347.210	1	-7
347.552	1	6
347.894	1	-4
348.236	1	-5
348.578	1	4
348.920	1	5
349.262	1	-1
349.604	1	11
349.946	1	12
350.288	1	-2
350.630	1	8
350.972	1	-2
351.314	1	1
351.656	1	-2
351.998	1	5
352.340	1	11
352.682	1	-2
353.024	1	-5
353.366	1	4
353.708	1	12
354.050	1	-5
354.392	1	5
354.734	1	5
355.076	1	5
355.418	1	-3
355.760	1	10
356.102	1	5
356.444	1	-2
356.785	1	10
357.127	1	8
357.469	1	5
357.811	1	9
358.153	1	-1
358.495	1	3
358.837	1	8
359.179	1	7
359.521	1	11
359.863	1	15
360.205	1	14
360.547	1	9
360.889	1	13
361.231	1	8
361.572	1	25
361.914	1	15
362.256	1	9
362.598	1	13
362.940	1	21
363.282	1	26
363.624	1	21
363.966	1	16
364.308	1	12
364.649	1	22
364.991	1	24
365.333	1	23
365.675	1	30
366.017	1	27
366.359	1	30
366.701	1	25
367.042	1	36
367.384	1	29
367.726	1	42
368.068	1	43
368.410	1	42
368.752	1	41
369.093	1	35
369.435	1	34
369.777	1	38
370.119	1	36
370.461	1	38
370.803	1	34
371.144	1	26
371.486	1	32
371.828	1	22
372.170	1	28
372.512	1	23
372.853	1	50
373.195	1	20
373.537	1	38
373.879	1	27
374.220	1	26
374.562	1	26
374.904	1	21
375.246	1	13
375.588	1	25
375.929	1	19
376.271	1	22
376.613	1	19
376.955	1	16
377.296	1	23
377.638	1	14
377.980	1	2
378.321	1	10
378.663	1	11
379.005	1	15
379.347	1	6
379.688	1	3
380.030	1	20
380.372	1	18
380.714	1	25
381.055	1	10
381.397	1	16
381.739	1	3
382.080	1	2
382.422	1	10
382.764	1	8
383.105	1	13
383.447	1	17
383.789	1	23
384.130	1	-3
384.472	1	-5
384.814	1	6
385.156	1	9
385.497	1	7
385.839	1	-4
386.180	1	12
386.522	1	13
386.864	1	10
387.205	1	8
387.547	1	6
387.889	1	6
388.230	1	1
388.572	1	12
388.914	1	0
389.255	1	13
389.597	1	8
389.939	1	5
390.280	1	1
390.622	1	5
390.963	1	8
391.305	1	-1
391.647	1	2
391.988	1	23
392.330	1	12
392.671	1	0
393.013	1	3
393.355	1	7
393.696	1	10
394.038	1	-2
394.379	1	8
394.721	1	-3
395.062	1	-1
395.404	1	9
395.746	1	12
396.087	1	4
396.429	1	9
396.770	1	14
397.112	1	-3
397.453	1	18
397.795	1	-5
398.136	1	4
398.478	1	3
398.819	1	8
399.161	1	2
399.503	1	-3
399.844	1	-7
400.186	1	-8
400.527	1	15
400.869	1	6
401.210	1	5
401.552	1	8
401.893	1	8
402.235	1	11
402.576	1	9
402.918	1	-2
403.259	1	11
403.601	1	6
403.942	1	2
404.284	1	-1
404.625	1	5
404.967	1	5
405.308	1	14
405.649	1	1
405.991	1	5
406.332	1	-7
406.674	1	-1
407.015	1	6
407.357	1	-3
407.698	1	13
408.040	1	12
408.381	1	1
408.722	1	-7
409.064	1	7
409.405	1	6
409.747	1	4
410.088	1	9
410.430	1	-1
410.771	1	6
411.112	1	-1
411.454	1	-2
411.795	1	13
412.137	1	-3
412.478	1	0
412.819	1	-3
413.161	1	4
413.502	1	5
413.844	1	10
414.185	1	-1
414.526	1	6
414.868	1	-4
415.209	1	-15
415.550	1	-1
415.892	1	5
416.233	1	17
416.575	1	2
416.916	1	3
417.257	1	-4
417.599	1	2
417.940	1	9
418.281	1	4
418.623	1	6
418.964	1	-9
419.305	1	0
419.647	1	7
419.988	1	4
420.329	1	3
420.671	1	-6
421.012	1	-1
421.353	1	3
421.695	1	-4
422.036	1	5
422.377	1	5
422.718	1	8
423.060	1	-1
423.401	1	2
423.742	1	-6
424.084	1	15
424.425	1	-10
424.766	1	-4
425.107	1	-2
425.449	1	5
425.790	1	2
426.131	1	-1
426.472	1	5
426.814	1	-8
427.155	1	8
427.496	1	-1
427.837	1	10
428.179	1	1
428.520	1	-3
428.861	1	-2
429.202	1	3
429.544	1	8
429.885	1	7
430.226	1	4
430.567	1	12
430.909	1	-6
431.250	1	9
431.591	1	5
431.932	1	-7
432.273	1	4
432.615	1	-2
432.956	1	-3
433.297	1	2
433.638	1	15
433.979	1	5
434.320	1	3
434.662	1	-13
435.003	1	0
435.344	1	-1
435.685	1	1
436.026	1	-8
436.368	1	1
436.709	1	8
437.050	1	-8
437.391	1	-14
437.732	1	-1
438.073	1	-1
438.414	1	0
438.756	1	-3
439.097	1	5
439.438	1	-3
439.779	1	5
440.120	1	-7
440.461	1	16
440.802	1	12
441.143	1	2
441.485	1	-14
441.826	1	10
442.167	1	0
442.508	1	-6
442.849	1	0
443.190	1	-3
443.531	1	2
443.872	1	-6
444.213	1	-4
444.554	1	3
444.895	1	-15
445.237	1	-7
445.578	1	0
445.919	1	0
446.260	1	9
446.601	1	-8
446.942	1	14
447.283	1	5
447.624	1	-1
447.965	1	1
448.306	1	0
448.647	1	-6
448.988	1	12
449.329	1	1
449.670	1	-6
450.011	1	6
450.352	1	-2
450.693	1	-5
451.034	1	5
451.375	1	5
451.716	1	4
452.057	1	1
452.398	1	9
452.739	1	-4
453.080	1	10
453.421	1	2
453.762	1	1
454.103	1	-3
454.444	1	-3
454.785	1	0
455.126	1	18
455.467	1	-1
455.808	1	10
456.149	1	9
456.490	1	4
456.831	1	-6
457.172	1	2
457.513	1	11
457.854	1	10
458.195	1	5
458.536	1	4
458.877	1	7
459.218	1	7
459.559	1	3
459.899	1	2
460.240	1	-2
460.581	1	-1
460.922	1	-3
461.263	1	-9
461.604	1	5
461.945	1	-3
462.286	1	-9
462.627	1	0
462.968	1	8
463.309	1	8
463.649	1	2
463.990	1	-4
464.331	1	6
464.672	1	-1
465.013	1	8
465.354	1	-7
465.695	1	12
466.036	1	-3
466.376	1	7
466.717	1	-1
467.058	1	5
467.399	1	3
467.740	1	-3
468.081	1	-3
468.422	1	-1
468.762	1	16
469.103	1	8
469.444	1	6
469.785	1	-1
470.126	1	3
470.467	1	7
470.807	1	4
471.148	1	-6
471.489	1	11
471.830	1	5
472.171	1	9
472.511	1	-5
472.852	1	3
473.193	1	-3
473.534	1	11
473.875	1	-1
474.215	1	9
474.556	1	10
474.897	1	-1
475.238	1	0
475.578	1	-3
475.919	1	4
476.260	1	16
476.601	1	6
476.942	1	3
477.282	1	6
477.623	1	6
477.964	1	5
478.305	1	0
478.645	1	7
478.986	1	-8
479.327	1	-13
479.667	1	5
480.008	1	4
480.349	1	-5
480.690	1	0
481.030	1	9
481.371	1	-4
481.712	1	1
482.053	1	-8
482.393	1	-8
482.734	1	8
483.075	1	-1
483.415	1	4
483.756	1	4
484.097	1	-15
484.437	1	1
484.778	1	-9
485.119	1	6
485.459	1	-3
485.800	1	-3
486.141	1	13
486.481	1	5
486.822	1	16
487.163	1	-3
487.503	1	7
487.844	1	8
488.185	1	2
488.525	1	7
488.866	1	11
489.207	1	4
489.547	1	18
489.888	1	3
490.228	1	-3
490.569	1	7
490.910	1	9
491.250	1	2
491.591	1	-3
491.932	1	0
492.272	1	3
492.613	1	11
492.953	1	3
493.294	1	-2
493.635	1	2
493.975	1	-2
494.316	1	2
494.656	1	2
494.997	1	-2
495.337	1	13
495.678	1	9
496.019	1	0
496.359	1	-1
496.700	1	13
497.040	1	7
497.381	1	-2
497.721	1	0
498.062	1	2
498.403	1	14
498.743	1	17
499.084	1	9
499.424	1	5
499.765	1	-4
500.105	1	-10
500.446	1	0
500.786	1	5
501.127	1	5
501.467	1	0
501.808	1	-8
502.148	1	19
502.489	1	0
502.829	1	6
503.170	1	19
503.510	1	11
503.851	1	-2
504.191	1	0
504.532	1	-7
504.872	1	5
505.213	1	5
505.553	1	4
505.894	1	14
506.234	1	-2
506.575	1	11
506.915	1	13
507.256	1	5
507.596	1	8
507.936	1	14
508.277	1	-2
508.617	1	3
508.958	1	-1
509.298	1	4
509.639	1	11
509.979	1	10
510.319	1	-3
510.660	1	-3
511.000	1	10
511.341	1	8
511.681	1	0
512.022	1	7
512.362	1	-1
512.702	1	-1
513.043	1	10
513.383	1	2
513.724	1	-2
514.064	1	14
514.404	1	4
514.745	1	6
515.085	1	1
515.425	1	7
515.766	1	14
516.106	1	15
516.447	1	11
516.787	1	8
517.127	1	5
517.468	1	8
517.808	1	16
518.148	1	8
518.489	1	18
518.829	1	9
519.169	1	8
519.510	1	0
519.850	1	-3
520.190	1	10
520.531	1	12
520.871	1	10
521.211	1	13
521.552	1	2
521.892	1	1
522.232	1	-3
522.573	1	15
522.913	1	7
523.253	1	12
523.593	1	9
523.934	1	5
524.274	1	8
524.614	1	12
524.955	1	4
525.295	1	11
525.635	1	9
525.975	1	7
526.316	1	11
526.656	1	15
526.996	1	10
527.337	1	-1
527.677	1	5
528.017	1	6
528.357	1	-1
528.698	1	-10
529.038	1	3
529.378	1	8
529.718	1	1
530.058	1	6
530.399	1	5
530.739	1	7
531.079	1	9
531.419	1	9
531.760	1	4
532.100	1	8
532.440	1	4
532.780	1	5
533.120	1	7
533.461	1	3
533.801	1	12
534.141	1	7
534.481	1	18
534.821	1	9
535.162	1	13
535.502	1	7
535.842	1	6
536.182	1	4
536.522	1	8
536.862	1	14
537.203	1	15
537.543	1	4
537.883	1	9
538.223	1	4
538.563	1	5
538.903	1	3
539.243	1	1
539.584	1	6
539.924	1	0
540.264	1	9
540.604	1	3
540.944	1	-4
541.284	1	11
541.624	1	8
541.964	1	12
542.305	1	9
542.645	1	1
542.985	1	13
543.325	1	4
543.665	1	5
544.005	1	14
544.345	1	11
544.685	1	-1
545.025	1	5
545.365	1	3
545.705	1	7
546.045	1	-2
546.386	1	5
546.726	1	0
547.066	1	16
547.406	1	-5
547.746	1	1
548.086	1	7
548.426	1	16
548.766	1	8
549.106	1	8
549.446	1	3
549.786	1	11
550.126	1	-3
550.466	1	5
550.806	1	1
551.146	1	18
551.486	1	3
551.826	1	8
552.166	1	6
552.506	1	6
552.846	1	-5
553.186	1	3
553.526	1	-2
553.866	1	-4
554.206	1	8
554.546	1	-5
554.886	1	0
555.226	1	-7
555.566	1	5
555.906	1	0
556.246	1	9
556.586	1	-1
556.926	1	12
557.266	1	4
557.606	1	6
557.946	1	5
558.286	1	6
558.626	1	14
558.966	1	1
559.306	1	9
559.646	1	-3
559.986	1	5
560.325	1	7
560.665	1	4
561.005	1	6
561.345	1	-1
561.685	1	2
562.025	1	3
562.365	1	3
562.705	1	8
563.045	1	3
563.385	1	2
563.725	1	3
564.064	1	-1
564.404	1	4
564.744	1	2
565.084	1	6
565.424	1	12
565.764	1	0
566.104	1	8
566.444	1	2
566.783	1	7
567.123	1	3
567.463	1	7
567.803	1	0
568.143	1	1
568.483	1	5
568.823	1	2
569.162	1	-3
569.502	1	5
569.842	1	10
570.182	1	-5
570.522	1	4
570.862	1	7
571.201	1	8
571.541	1	-2
571.881	1	2
572.221	1	1
572.561	1	-1
572.900	1	4
573.240	1	6
573.580	1	2
573.920	1	14
574.260	1	14
574.599	1	2
574.939	1	-6
575.279	1	-4
575.619	1	11
575.959	1	-9
576.298	1	3
576.638	1	10
576.978	1	2
577.318	1	8
577.657	1	5
577.997	1	-6
578.337	1	-1
578.677	1	2
579.016	1	1
579.356	1	7
579.696	1	0
580.036	1	-1
580.375	1	0
580.715	1	-1
581.055	1	9
581.394	1	11
581.734	1	6
582.074	1	8
582.414	1	2
582.753	1	3
583.093	1	8
583.433	1	5
583.772	1	-1
584.112	1	-1
584.452	1	-8
584.791	1	6
585.131	1	10
585.471	1	9
585.811	1	-2
586.150	1	3
586.490	1	14
586.830	1	-5
587.169	1	7
587.509	1	12
587.849	1	2
588.188	1	3
588.528	1	-3
588.867	1	2
589.207	1	9
589.547	1	6
589.886	1	-11
590.226	1	3
590.566	1	1
590.905	1	9
591.245	1	9
591.585	1	5
591.924	1	-1
592.264	1	-2
592.603	1	-2
592.943	1	12
593.283	1	18
593.622	1	-6
593.962	1	5
594.301	1	7
594.641	1	6
594.981	1	11
595.320	1	-3
595.660	1	2
595.999	1	10
596.339	1	0
596.678	1	-2
597.018	1	4
597.358	1	3
597.697	1	5
598.037	1	0
598.376	1	-4
598.716	1	5
599.055	1	4
599.395	1	-3
599.734	1	6
600.074	1	-3
600.413	1	-2
600.753	1	13
601.092	1	-2
601.432	1	-1
601.771	1	14
602.111	1	4
602.451	1	11
602.790	1	10
603.130	1	-3
603.469	1	0
603.809	1	5
604.148	1	-1
604.487	1	8
604.827	1	-3
605.166	1	6
605.506	1	-2
605.845	1	7
606.185	1	3
606.524	1	-2
606.864	1	8
607.203	1	3
607.543	1	14
607.882	1	1
608.222	1	0
608.561	1	0
608.901	1	3
609.240	1	-1
609.579	1	7
609.919	1	6
610.258	1	14
610.598	1	11
610.937	1	-4
611.277	1	-3
611.616	1	2
611.955	1	3
612.295	1	3
612.634	1	2
612.974	1	-1
613.313	1	-3
613.652	1	16
613.992	1	-1
614.331	1	0
614.671	1	1
615.010	1	8
615.349	1	-3
615.689	1	13
616.028	1	7
616.368	1	-7
616.707	1	9
617.046	1	6
617.386	1	6
617.725	1	8
618.064	1	4
618.404	1	2
618.743	1	0
619.082	1	2
619.422	1	-2
619.761	1	2
620.100	1	4
620.440	1	4
620.779	1	-3
621.118	1	-3
621.458	1	0
621.797	1	0
622.136	1	4
622.476	1	-4
622.815	1	1
623.154	1	2
623.494	1	-1
623.833	1	6
624.172	1	8
624.511	1	8
624.851	1	-8
625.190	1	8
625.529	1	8
625.869	1	7
626.208	1	-3
626.547	1	-4
626.886	1	8
627.226	1	11
627.565	1	7
627.904	1	-1
628.243	1	-5
628.583	1	7
628.922	1	-5
629.261	1	3
629.600	1	5
629.940	1	-2
630.279	1	-2
630.618	1	1
630.957	1	2
631.297	1	0
631.636	1	8
631.975	1	-10
632.314	1	6
632.653	1	2
632.993	1	-10
633.332	1	11
633.671	1	9
634.010	1	-1
634.349	1	1
634.689	1	4
635.028	1	12
635.367	1	-1
635.706	1	-5
636.045	1	7
636.384	1	-10
636.724	1	5
637.063	1	7
637.402	1	5
637.741	1	1
638.080	1	12
638.419	1	-6
638.759	1	6
639.098	1	-12
639.437	1	-2
639.776	1	2
640.115	1	3
640.454	1	0
640.793	1	-1
641.132	1	6
641.472	1	-8
641.811	1	3
642.150	1	3
642.489	1	1
642.828	1	9
643.167	1	5
643.506	1	16
643.845	1	11
644.184	1	8
644.524	1	5
644.863	1	-11
645.202	1	11
645.541	1	9
645.880	1	-1
646.219	1	-1
646.558	1	4
646.897	1	8
647.236	1	-4
647.575	1	-3
647.914	1	12
648.253	1	-3
648.592	1	-2
648.931	1	14
649.270	1	-2
649.610	1	3
649.949	1	-5
650.288	1	5
650.627	1	-9
650.966	1	10
651.305	1	-7
651.644	1	11
651.983	1	12
652.322	1	1
652.661	1	3
653.000	1	-1
653.339	1	0
653.678	1	1
654.017	1	7
654.356	1	3
654.695	1	14
655.034	1	5
655.373	1	7
655.712	1	-7
656.051	1	-1
656.390	1	-1
656.729	1	7
657.068	1	4
657.406	1	-3
657.745	1	10
658.084	1	-3
658.423	1	10
658.762	1	6
659.101	1	-1
659.440	1	5
659.779	1	8
660.118	1	-10
660.457	1	13
660.796	1	0
661.135	1	-11
661.474	1	9
661.813	1	-4
662.152	1	4
662.491	1	-12
662.829	1	2
663.168	1	11
663.507	1	3
663.846	1	7
664.185	1	3
664.524	1	2
664.863	1	3
665.202	1	16
665.541	1	-4
665.879	1	7
666.218	1	14
666.557	1	1
666.896	1	-1
667.235	1	2
667.574	1	-11
667.913	1	-1
668.251	1	1
668.590	1	-1
668.929	1	9
669.268	1	-10
669.607	1	1
669.946	1	2
670.285	1	17
670.623	1	1
670.962	1	0
671.301	1	8
671.640	1	7
671.979	1	2
672.317	1	-2
672.656	1	0
672.995	1	0
673.334	1	4
673.673	1	7
674.011	1	13
674.350	1	5
674.689	1	-4
675.028	1	-6
675.367	1	-4
675.705	1	6
676.044	1	14
676.383	1	4
676.722	1	9
677.060	1	0
677.399	1	7
677.738	1	0
678.077	1	11
678.416	1	0
678.754	1	10
679.093	1	0
679.432	1	-3
679.771	1	3
680.109	1	-6
680.448	1	4
680.787	1	-13
681.125	1	8
681.464	1	4
681.803	1	7
682.142	1	2
682.480	1	2
682.819	1	9
683.158	1	4
683.496	1	3
683.835	1	1
684.174	1	1
684.512	1	1
684.851	1	-2
685.190	1	-1
685.529	1	17
685.867	1	4
686.206	1	7
686.545	1	5
686.883	1	-1
687.222	1	-1
687.561	1	10
687.899	1	-3
688.238	1	0
688.577	1	7
688.746	1	-6