File: Data/GaN_170K_550ms/GaN_sample D_spot 18_UVVIS_170 K_200um_550 ms 2x2mm1_354.txt
340.368	1	0
340.710	1	-9
341.052	1	-8
341.394	1	5
341.737	1	-4
342.079	1	-2
342.421	1	0
342.763	1	-3
343.105	1	10
343.447	1	-5
343.789	1	5
344.131	1	3
344.473	1	-5
344.815	1	2
345.157	1	-2
345.499	1	-6
345.841	1	2
346.183	1	6
346.526	1	3
346.868	1	15
347.210	1	-7
347.552	1	8
347.894	1	-3
348.236	1	2
348.578	1	6
348.920	1	-2
349.262	1	6
349.604	1	5
349.946	1	13
350.288	1	-2
350.630	1	3
350.972	1	-4
351.314	1	1
351.656	1	-6
351.998	1	4
352.340	1	3
352.682	1	0
353.024	1	4
353.366	1	-1
353.708	1	5
354.050	1	-4
354.392	1	1
354.734	1	1
355.076	1	-5
355.418	1	-7
355.760	1	-1
356.102	1	0
356.444	1	8
356.785	1	-2
357.127	1	-6
357.469	1	-3
357.811	1	0
358.153	1	7
358.495	1	-2
358.837	1	2
359.179	1	-1
359.521	1	6
359.863	1	2
360.205	1	11
360.547	1	6
360.889	1	16
361.231	1	5
361.572	1	10
361.914	1	2
362.256	1	0
362.598	1	-1
362.940	1	19
363.282	1	10
363.624	1	5
363.966	1	-5
364.308	1	4
364.649	1	-5
364.991	1	11
365.333	1	2
365.675	1	10
366.017	1	9
366.359	1	-2
366.701	1	3
367.042	1	-5
367.384	1	14
367.726	1	9
368.068	1	8
368.410	1	6
368.752	1	13
369.093	1	-5
369.435	1	3
369.777	1	6
370.119	1	-1
370.461	1	4
370.803	1	-1
371.144	1	3
371.486	1	-3
371.828	1	3
372.170	1	3
372.512	1	1
372.853	1	13
373.195	1	0
373.537	1	13
373.879	1	11
374.220	1	3
374.562	1	-5
374.904	1	0
375.246	1	0
375.588	1	5
375.929	1	9
376.271	1	5
376.613	1	5
376.955	1	14
377.296	1	7
377.638	1	1
377.980	1	-7
378.321	1	9
378.663	1	2
379.005	1	1
379.347	1	-1
379.688	1	4
380.030	1	5
380.372	1	11
380.714	1	12
381.055	1	8
381.397	1	4
381.739	1	1
382.080	1	-8
382.422	1	1
382.764	1	-1
383.105	1	4
383.447	1	3
383.789	1	8
384.130	1	-10
384.472	1	-10
384.814	1	1
385.156	1	2
385.497	1	3
385.839	1	-5
386.180	1	0
386.522	1	1
386.864	1	1
387.205	1	-5
387.547	1	0
387.889	1	6
388.230	1	-8
388.572	1	-3
388.914	1	-5
389.255	1	7
389.597	1	4
389.939	1	-8
390.280	1	3
390.622	1	-9
390.963	1	4
391.305	1	3
391.647	1	-3
391.988	1	3
392.330	1	8
392.671	1	0
393.013	1	1
393.355	1	8
393.696	1	7
394.038	1	-5
394.379	1	-6
394.721	1	3
395.062	1	-3
395.404	1	6
395.746	1	10
396.087	1	9
396.429	1	4
396.770	1	6
397.112	1	1
397.453	1	3
397.795	1	0
398.136	1	3
398.478	1	-10
398.819	1	4
399.161	1	-3
399.503	1	0
399.844	1	1
400.186	1	-2
400.527	1	0
400.869	1	2
401.210	1	0
401.552	1	2
401.893	1	13
402.235	1	0
402.576	1	-1
402.918	1	-6
403.259	1	5
403.601	1	12
403.942	1	-3
404.284	1	-9
404.625	1	0
404.967	1	-6
405.308	1	8
405.649	1	2
405.991	1	2
406.332	1	-6
406.674	1	6
407.015	1	4
407.357	1	-1
407.698	1	4
408.040	1	5
408.381	1	-4
408.722	1	-7
409.064	1	2
409.405	1	2
409.747	1	1
410.088	1	4
410.430	1	-4
410.771	1	1
411.112	1	-6
411.454	1	0
411.795	1	8
412.137	1	-5
412.478	1	5
412.819	1	-8
413.161	1	9
413.502	1	-2
413.844	1	11
414.185	1	-6
414.526	1	3
414.868	1	-6
415.209	1	-16
415.550	1	6
415.892	1	4
416.233	1	-1
416.575	1	6
416.916	1	-6
417.257	1	-1
417.599	1	-7
417.940	1	1
418.281	1	-21
418.623	1	-6
418.964	1	-8
419.305	1	-3
419.647	1	3
419.988	1	-3
420.329	1	6
420.671	1	-2
421.012	1	-6
421.353	1	-1
421.695	1	-3
422.036	1	4
422.377	1	3
422.718	1	14
423.060	1	-2
423.401	1	-1
423.742	1	-4
424.084	1	14
424.425	1	-9
424.766	1	-6
425.107	1	1
425.449	1	3
425.790	1	2
426.131	1	12
426.472	1	6
426.814	1	-7
427.155	1	4
427.496	1	0
427.837	1	10
428.179	1	10
428.520	1	-7
428.861	1	-5
429.202	1	0
429.544	1	-5
429.885	1	-1
430.226	1	1
430.567	1	3
430.909	1	-10
431.250	1	16
431.591	1	-2
431.932	1	-10
432.273	1	0
432.615	1	3
432.956	1	0
433.297	1	-8
433.638	1	6
433.979	1	0
434.320	1	4
434.662	1	-14
435.003	1	-5
435.344	1	-2
435.685	1	-1
436.026	1	3
436.368	1	-2
436.709	1	5
437.050	1	-6
437.391	1	-10
437.732	1	-2
438.073	1	-4
438.414	1	-6
438.756	1	0
439.097	1	7
439.438	1	-3
439.779	1	9
440.120	1	-3
440.461	1	16
440.802	1	4
441.143	1	-6
441.485	1	1
441.826	1	10
442.167	1	1
442.508	1	-7
442.849	1	-7
443.190	1	-4
443.531	1	2
443.872	1	-6
444.213	1	-5
444.554	1	2
444.895	1	-13
445.237	1	-1
445.578	1	8
445.919	1	-2
446.260	1	5
446.601	1	-1
446.942	1	8
447.283	1	0
447.624	1	-6
447.965	1	-7
448.306	1	5
448.647	1	-2
448.988	1	9
449.329	1	2
449.670	1	-16
450.011	1	3
450.352	1	-5
450.693	1	0
451.034	1	-2
451.375	1	3
451.716	1	-2
452.057	1	5
452.398	1	-4
452.739	1	-4
453.080	1	-10
453.421	1	-11
453.762	1	-1
454.103	1	-2
454.444	1	-2
454.785	1	-8
455.126	1	13
455.467	1	-13
455.808	1	11
456.149	1	-5
456.490	1	0
456.831	1	-4
457.172	1	-5
457.513	1	4
457.854	1	15
458.195	1	-2
458.536	1	3
458.877	1	-3
459.218	1	7
459.559	1	0
459.899	1	1
460.240	1	0
460.581	1	-3
460.922	1	-4
461.263	1	-3
461.604	1	9
461.945	1	0
462.286	1	-4
462.627	1	-7
462.968	1	12
463.309	1	0
463.649	1	3
463.990	1	-2
464.331	1	-4
464.672	1	-5
465.013	1	2
465.354	1	-9
465.695	1	3
466.036	1	-4
466.376	1	7
466.717	1	-1
467.058	1	3
467.399	1	6
467.740	1	1
468.081	1	-2
468.422	1	8
468.762	1	6
469.103	1	6
469.444	1	-5
469.785	1	-5
470.126	1	0
470.467	1	2
470.807	1	-1
471.148	1	-1
471.489	1	6
471.830	1	0
472.171	1	5
472.511	1	-3
472.852	1	-1
473.193	1	5
473.534	1	7
473.875	1	-6
474.215	1	-3
474.556	1	7
474.897	1	1
475.238	1	-8
475.578	1	1
475.919	1	4
476.260	1	11
476.601	1	7
476.942	1	-5
477.282	1	10
477.623	1	6
477.964	1	-4
478.305	1	-17
478.645	1	1
478.986	1	-3
479.327	1	-8
479.667	1	-13
480.008	1	0
480.349	1	6
480.690	1	4
481.030	1	8
481.371	1	-3
481.712	1	-4
482.053	1	-10
482.393	1	0
482.734	1	8
483.075	1	-3
483.415	1	-6
483.756	1	-2
484.097	1	-6
484.437	1	7
484.778	1	-6
485.119	1	2
485.459	1	-3
485.800	1	-6
486.141	1	10
486.481	1	9
486.822	1	5
487.163	1	-6
487.503	1	3
487.844	1	-1
488.185	1	4
488.525	1	4
488.866	1	6
489.207	1	4
489.547	1	7
489.888	1	2
490.228	1	-8
490.569	1	-5
490.910	1	-6
491.250	1	11
491.591	1	6
491.932	1	8
492.272	1	2
492.613	1	2
492.953	1	2
493.294	1	0
493.635	1	-3
493.975	1	2
494.316	1	2
494.656	1	2
494.997	1	5
495.337	1	4
495.678	1	-2
496.019	1	-9
496.359	1	2
496.700	1	12
497.040	1	4
497.381	1	7
497.721	1	-11
498.062	1	8
498.403	1	3
498.743	1	-3
499.084	1	-6
499.424	1	0
499.765	1	-7
500.105	1	-3
500.446	1	-7
500.786	1	-1
501.127	1	0
501.467	1	-5
501.808	1	-5
502.148	1	12
502.489	1	2
502.829	1	2
503.170	1	4
503.510	1	3
503.851	1	-7
504.191	1	-4
504.532	1	-11
504.872	1	8
505.213	1	-6
505.553	1	10
505.894	1	9
506.234	1	-12
506.575	1	2
506.915	1	-4
507.256	1	-2
507.596	1	12
507.936	1	3
508.277	1	-17
508.617	1	-1
508.958	1	2
509.298	1	-2
509.639	1	11
509.979	1	-6
510.319	1	-10
510.660	1	-15
511.000	1	-4
511.341	1	6
511.681	1	4
512.022	1	6
512.362	1	-2
512.702	1	-12
513.043	1	2
513.383	1	5
513.724	1	7
514.064	1	-1
514.404	1	-8
514.745	1	-1
515.085	1	6
515.425	1	6
515.766	1	8
516.106	1	5
516.447	1	-1
516.787	1	0
517.127	1	-6
517.468	1	4
517.808	1	14
518.148	1	7
518.489	1	-4
518.829	1	-1
519.169	1	-6
519.510	1	2
519.850	1	-2
520.190	1	2
520.531	1	5
520.871	1	-6
521.211	1	-3
521.552	1	-3
521.892	1	-9
522.232	1	-5
522.573	1	8
522.913	1	4
523.253	1	11
523.593	1	4
523.934	1	3
524.274	1	-5
524.614	1	8
524.955	1	-2
525.295	1	0
525.635	1	8
525.975	1	-3
526.316	1	13
526.656	1	10
526.996	1	4
527.337	1	-4
527.677	1	-1
528.017	1	16
528.357	1	-8
528.698	1	-9
529.038	1	1
529.378	1	-1
529.718	1	11
530.058	1	2
530.399	1	4
530.739	1	-4
531.079	1	4
531.419	1	4
531.760	1	-3
532.100	1	-4
532.440	1	1
532.780	1	1
533.120	1	8
533.461	1	-2
533.801	1	6
534.141	1	-2
534.481	1	15
534.821	1	16
535.162	1	6
535.502	1	5
535.842	1	0
536.182	1	2
536.522	1	8
536.862	1	0
537.203	1	3
537.543	1	1
537.883	1	3
538.223	1	-7
538.563	1	4
538.903	1	3
539.243	1	-8
539.584	1	9
539.924	1	-1
540.264	1	10
540.604	1	0
540.944	1	-7
541.284	1	1
541.624	1	-12
541.964	1	3
542.305	1	0
542.645	1	-6
542.985	1	1
543.325	1	-6
543.665	1	1
544.005	1	6
544.345	1	-8
544.685	1	-1
545.025	1	-2
545.365	1	-5
545.705	1	10
546.045	1	3
546.386	1	5
546.726	1	-1
547.066	1	9
547.406	1	0
547.746	1	6
548.086	1	2
548.426	1	4
548.766	1	-2
549.106	1	6
549.446	1	3
549.786	1	-2
550.126	1	-4
550.466	1	2
550.806	1	8
551.146	1	3
551.486	1	-7
551.826	1	0
552.166	1	6
552.506	1	4
552.846	1	2
553.186	1	-2
553.526	1	-4
553.866	1	-7
554.206	1	4
554.546	1	-8
554.886	1	-4
555.226	1	-6
555.566	1	2
555.906	1	-6
556.246	1	2
556.586	1	-2
556.926	1	6
557.266	1	1
557.606	1	-2
557.946	1	10
558.286	1	-10
558.626	1	13
558.966	1	3
559.306	1	2
559.646	1	-2
559.986	1	2
560.325	1	4
560.665	1	-4
561.005	1	3
561.345	1	-5
561.685	1	4
562.025	1	-9
562.365	1	11
562.705	1	0
563.045	1	-7
563.385	1	-1
563.725	1	-7
564.064	1	-4
564.404	1	-3
564.744	1	0
565.084	1	4
565.424	1	6
565.764	1	-1
566.104	1	8
566.444	1	6
566.783	1	11
567.123	1	2
567.463	1	-8
567.803	1	7
568.143	1	1
568.483	1	-4
568.823	1	9
569.162	1	3
569.502	1	4
569.842	1	0
570.182	1	-6
570.522	1	6
570.862	1	-10
571.201	1	8
571.541	1	-4
571.881	1	4
572.221	1	0
572.561	1	1
572.900	1	-2
573.240	1	7
573.580	1	-2
573.920	1	13
574.260	1	3
574.599	1	-10
574.939	1	-8
575.279	1	-6
575.619	1	0
575.959	1	-4
576.298	1	8
576.638	1	0
576.978	1	3
577.318	1	1
577.657	1	-1
577.997	1	-6
578.337	1	3
578.677	1	3
579.016	1	3
579.356	1	2
579.696	1	-5
580.036	1	4
580.375	1	5
580.715	1	1
581.055	1	7
581.394	1	-1
581.734	1	7
582.074	1	12
582.414	1	-6
582.753	1	4
583.093	1	5
583.433	1	5
583.772	1	1
584.112	1	0
584.452	1	-10
584.791	1	5
585.131	1	5
585.471	1	5
585.811	1	-8
586.150	1	-5
586.490	1	1
586.830	1	-3
587.169	1	5
587.509	1	1
587.849	1	-7
588.188	1	9
588.528	1	8
588.867	1	5
589.207	1	-6
589.547	1	7
589.886	1	-3
590.226	1	5
590.566	1	5
590.905	1	13
591.245	1	-3
591.585	1	6
591.924	1	-4
592.264	1	7
592.603	1	-1
592.943	1	0
593.283	1	17
593.622	1	-10
593.962	1	2
594.301	1	8
594.641	1	10
594.981	1	7
595.320	1	-2
595.660	1	-3
595.999	1	-2
596.339	1	-3
596.678	1	-7
597.018	1	7
597.358	1	-11
597.697	1	0
598.037	1	0
598.376	1	-14
598.716	1	2
599.055	1	-3
599.395	1	-7
599.734	1	8
600.074	1	-4
600.413	1	-16
600.753	1	3
601.092	1	-7
601.432	1	-17
601.771	1	5
602.111	1	-4
602.451	1	5
602.790	1	5
603.130	1	-5
603.469	1	3
603.809	1	4
604.148	1	1
604.487	1	3
604.827	1	-10
605.166	1	1
605.506	1	8
605.845	1	1
606.185	1	-7
606.524	1	-5
606.864	1	-4
607.203	1	6
607.543	1	11
607.882	1	-1
608.222	1	-6
608.561	1	1
608.901	1	0
609.240	1	-10
609.579	1	-2
609.919	1	-1
610.258	1	5
610.598	1	7
610.937	1	-3
611.277	1	-4
611.616	1	4
611.955	1	9
612.295	1	-1
612.634	1	0
612.974	1	-1
613.313	1	-1
613.652	1	16
613.992	1	6
614.331	1	-5
614.671	1	9
615.010	1	4
615.349	1	4
615.689	1	4
616.028	1	-4
616.368	1	3
616.707	1	10
617.046	1	-5
617.386	1	-3
617.725	1	1
618.064	1	-4
618.404	1	-2
618.743	1	8
619.082	1	-3
619.422	1	-10
619.761	1	-12
620.100	1	1
620.440	1	8
620.779	1	2
621.118	1	-3
621.458	1	7
621.797	1	3
622.136	1	-8
622.476	1	-5
622.815	1	2
623.154	1	5
623.494	1	-2
623.833	1	6
624.172	1	-7
624.511	1	7
624.851	1	0
625.190	1	11
625.529	1	13
625.869	1	6
626.208	1	-1
626.547	1	-8
626.886	1	8
627.226	1	6
627.565	1	3
627.904	1	-1
628.243	1	-12
628.583	1	-8
628.922	1	-9
629.261	1	-4
629.600	1	-2
629.940	1	-5
630.279	1	-1
630.618	1	-4
630.957	1	-5
631.297	1	1
631.636	1	10
631.975	1	-3
632.314	1	-5
632.653	1	3
632.993	1	1
633.332	1	8
633.671	1	7
634.010	1	2
634.349	1	4
634.689	1	5
635.028	1	3
635.367	1	-3
635.706	1	-6
636.045	1	10
636.384	1	2
636.724	1	-1
637.063	1	0
637.402	1	10
637.741	1	-13
638.080	1	9
638.419	1	6
638.759	1	5
639.098	1	4
639.437	1	-5
639.776	1	-4
640.115	1	4
640.454	1	0
640.793	1	-5
641.132	1	4
641.472	1	-5
641.811	1	8
642.150	1	-1
642.489	1	-8
642.828	1	-4
643.167	1	-4
643.506	1	11
643.845	1	2
644.184	1	14
644.524	1	2
644.863	1	-9
645.202	1	8
645.541	1	-4
645.880	1	-2
646.219	1	1
646.558	1	2
646.897	1	5
647.236	1	-8
647.575	1	-2
647.914	1	-1
648.253	1	3
648.592	1	0
648.931	1	6
649.270	1	0
649.610	1	5
649.949	1	-3
650.288	1	8
650.627	1	-1
650.966	1	5
651.305	1	-14
651.644	1	-6
651.983	1	8
652.322	1	2
652.661	1	0
653.000	1	-7
653.339	1	-7
653.678	1	0
654.017	1	8
654.356	1	2
654.695	1	3
655.034	1	3
655.373	1	11
655.712	1	-20
656.051	1	4
656.390	1	-5
656.729	1	5
657.068	1	9
657.406	1	-8
657.745	1	8
658.084	1	-9
658.423	1	-5
658.762	1	-9
659.101	1	3
659.440	1	-3
659.779	1	0
660.118	1	0
660.457	1	3
660.796	1	-7
661.135	1	-22
661.474	1	7
661.813	1	3
662.152	1	9
662.491	1	-21
662.829	1	-2
663.168	1	-1
663.507	1	5
663.846	1	3
664.185	1	1
664.524	1	3
664.863	1	5
665.202	1	13
665.541	1	0
665.879	1	9
666.218	1	10
666.557	1	2
666.896	1	5
667.235	1	-2
667.574	1	-10
667.913	1	3
668.251	1	-2
668.590	1	-2
668.929	1	4
669.268	1	-9
669.607	1	4
669.946	1	1
670.285	1	6
670.623	1	2
670.962	1	-5
671.301	1	-4
671.640	1	0
671.979	1	-3
672.317	1	3
672.656	1	1
672.995	1	-5
673.334	1	-7
673.673	1	13
674.011	1	7
674.350	1	-7
674.689	1	-3
675.028	1	2
675.367	1	0
675.705	1	5
676.044	1	13
676.383	1	-3
676.722	1	12
677.060	1	-1
677.399	1	-13
677.738	1	-10
678.077	1	14
678.416	1	0
678.754	1	2
679.093	1	-3
679.432	1	-8
679.771	1	4
680.109	1	7
680.448	1	-2
680.787	1	6
681.125	1	5
681.464	1	1
681.803	1	-2
682.142	1	-7
682.480	1	-3
682.819	1	10
683.158	1	0
683.496	1	7
683.835	1	2
684.174	1	-4
684.512	1	-8
684.851	1	1
685.190	1	-5
685.529	1	20
685.867	1	2
686.206	1	2
686.545	1	6
686.883	1	-1
687.222	1	-5
687.561	1	-1
687.899	1	0
688.238	1	-9
688.577	1	11
688.746	1	-1