File: Data/GaN_170K_550ms/GaN_sample D_spot 18_UVVIS_170 K_200um_550 ms 2x2mm1_215.txt
340.368	1	-1
340.710	1	-6
341.052	1	9
341.394	1	1
341.737	1	-1
342.079	1	0
342.421	1	5
342.763	1	-8
343.105	1	4
343.447	1	-16
343.789	1	4
344.131	1	-8
344.473	1	5
344.815	1	14
345.157	1	-6
345.499	1	-6
345.841	1	12
346.183	1	10
346.526	1	-6
346.868	1	4
347.210	1	-8
347.552	1	9
347.894	1	1
348.236	1	1
348.578	1	10
348.920	1	11
349.262	1	3
349.604	1	8
349.946	1	2
350.288	1	-5
350.630	1	4
350.972	1	-7
351.314	1	4
351.656	1	2
351.998	1	12
352.340	1	12
352.682	1	3
353.024	1	7
353.366	1	3
353.708	1	6
354.050	1	-1
354.392	1	-5
354.734	1	9
355.076	1	-3
355.418	1	-3
355.760	1	-3
356.102	1	3
356.444	1	3
356.785	1	0
357.127	1	-2
357.469	1	-2
357.811	1	11
358.153	1	3
358.495	1	-1
358.837	1	8
359.179	1	-7
359.521	1	6
359.863	1	10
360.205	1	9
360.547	1	8
360.889	1	6
361.231	1	1
361.572	1	10
361.914	1	7
362.256	1	6
362.598	1	11
362.940	1	18
363.282	1	10
363.624	1	8
363.966	1	7
364.308	1	7
364.649	1	0
364.991	1	15
365.333	1	10
365.675	1	18
366.017	1	8
366.359	1	7
366.701	1	20
367.042	1	11
367.384	1	12
367.726	1	24
368.068	1	22
368.410	1	27
368.752	1	18
369.093	1	10
369.435	1	14
369.777	1	9
370.119	1	11
370.461	1	23
370.803	1	8
371.144	1	9
371.486	1	8
371.828	1	9
372.170	1	9
372.512	1	9
372.853	1	20
373.195	1	6
373.537	1	15
373.879	1	21
374.220	1	12
374.562	1	12
374.904	1	10
375.246	1	7
375.588	1	7
375.929	1	6
376.271	1	12
376.613	1	11
376.955	1	14
377.296	1	10
377.638	1	12
377.980	1	5
378.321	1	11
378.663	1	-2
379.005	1	13
379.347	1	3
379.688	1	7
380.030	1	5
380.372	1	15
380.714	1	9
381.055	1	5
381.397	1	4
381.739	1	3
382.080	1	-2
382.422	1	0
382.764	1	11
383.105	1	9
383.447	1	18
383.789	1	21
384.130	1	-8
384.472	1	-3
384.814	1	9
385.156	1	-3
385.497	1	12
385.839	1	3
386.180	1	6
386.522	1	3
386.864	1	8
387.205	1	0
387.547	1	4
387.889	1	7
388.230	1	7
388.572	1	9
388.914	1	-2
389.255	1	15
389.597	1	5
389.939	1	2
390.280	1	2
390.622	1	-6
390.963	1	-4
391.305	1	-7
391.647	1	-1
391.988	1	-3
392.330	1	-6
392.671	1	-5
393.013	1	-3
393.355	1	6
393.696	1	1
394.038	1	-5
394.379	1	1
394.721	1	-2
395.062	1	-2
395.404	1	9
395.746	1	11
396.087	1	5
396.429	1	13
396.770	1	13
397.112	1	0
397.453	1	12
397.795	1	-1
398.136	1	6
398.478	1	2
398.819	1	1
399.161	1	-7
399.503	1	-2
399.844	1	0
400.186	1	0
400.527	1	14
400.869	1	12
401.210	1	4
401.552	1	2
401.893	1	9
402.235	1	3
402.576	1	-3
402.918	1	5
403.259	1	9
403.601	1	9
403.942	1	7
404.284	1	-1
404.625	1	0
404.967	1	2
405.308	1	3
405.649	1	3
405.991	1	7
406.332	1	-11
406.674	1	6
407.015	1	9
407.357	1	-2
407.698	1	6
408.040	1	5
408.381	1	1
408.722	1	7
409.064	1	2
409.405	1	2
409.747	1	3
410.088	1	5
410.430	1	-5
410.771	1	6
411.112	1	5
411.454	1	7
411.795	1	1
412.137	1	-5
412.478	1	6
412.819	1	-8
413.161	1	1
413.502	1	4
413.844	1	8
414.185	1	-6
414.526	1	3
414.868	1	-4
415.209	1	-13
415.550	1	9
415.892	1	4
416.233	1	8
416.575	1	-5
416.916	1	-9
417.257	1	3
417.599	1	4
417.940	1	2
418.281	1	-6
418.623	1	4
418.964	1	-15
419.305	1	3
419.647	1	15
419.988	1	-1
420.329	1	0
420.671	1	-2
421.012	1	-7
421.353	1	3
421.695	1	-8
422.036	1	12
422.377	1	6
422.718	1	-4
423.060	1	3
423.401	1	4
423.742	1	0
424.084	1	20
424.425	1	-6
424.766	1	0
425.107	1	1
425.449	1	7
425.790	1	5
426.131	1	11
426.472	1	2
426.814	1	-3
427.155	1	8
427.496	1	3
427.837	1	1
428.179	1	5
428.520	1	2
428.861	1	-3
429.202	1	-5
429.544	1	-5
429.885	1	2
430.226	1	10
430.567	1	17
430.909	1	-2
431.250	1	11
431.591	1	5
431.932	1	-10
432.273	1	-1
432.615	1	-2
432.956	1	-1
433.297	1	3
433.638	1	10
433.979	1	-1
434.320	1	10
434.662	1	-16
435.003	1	11
435.344	1	2
435.685	1	-3
436.026	1	2
436.368	1	7
436.709	1	-10
437.050	1	-4
437.391	1	-7
437.732	1	5
438.073	1	1
438.414	1	-9
438.756	1	-9
439.097	1	2
439.438	1	4
439.779	1	3
440.120	1	2
440.461	1	3
440.802	1	4
441.143	1	-6
441.485	1	-6
441.826	1	1
442.167	1	4
442.508	1	-3
442.849	1	-3
443.190	1	-4
443.531	1	4
443.872	1	3
444.213	1	-2
444.554	1	-10
444.895	1	-20
445.237	1	-6
445.578	1	8
445.919	1	5
446.260	1	8
446.601	1	-8
446.942	1	4
447.283	1	7
447.624	1	4
447.965	1	7
448.306	1	0
448.647	1	0
448.988	1	12
449.329	1	-2
449.670	1	-7
450.011	1	9
450.352	1	4
450.693	1	-7
451.034	1	-1
451.375	1	8
451.716	1	5
452.057	1	4
452.398	1	6
452.739	1	9
453.080	1	1
453.421	1	1
453.762	1	5
454.103	1	-10
454.444	1	1
454.785	1	-4
455.126	1	16
455.467	1	-7
455.808	1	6
456.149	1	3
456.490	1	3
456.831	1	-4
457.172	1	-6
457.513	1	3
457.854	1	11
458.195	1	1
458.536	1	-3
458.877	1	14
459.218	1	4
459.559	1	1
459.899	1	0
460.240	1	3
460.581	1	3
460.922	1	-5
461.263	1	-3
461.604	1	9
461.945	1	6
462.286	1	-8
462.627	1	2
462.968	1	7
463.309	1	11
463.649	1	4
463.990	1	-2
464.331	1	-8
464.672	1	-7
465.013	1	5
465.354	1	2
465.695	1	5
466.036	1	-2
466.376	1	8
466.717	1	-4
467.058	1	5
467.399	1	4
467.740	1	-6
468.081	1	-5
468.422	1	10
468.762	1	9
469.103	1	4
469.444	1	-1
469.785	1	-6
470.126	1	-1
470.467	1	7
470.807	1	4
471.148	1	-4
471.489	1	4
471.830	1	-9
472.171	1	4
472.511	1	-1
472.852	1	7
473.193	1	4
473.534	1	0
473.875	1	4
474.215	1	4
474.556	1	10
474.897	1	2
475.238	1	0
475.578	1	6
475.919	1	2
476.260	1	12
476.601	1	2
476.942	1	1
477.282	1	8
477.623	1	5
477.964	1	0
478.305	1	-6
478.645	1	-2
478.986	1	-1
479.327	1	-15
479.667	1	3
480.008	1	-3
480.349	1	4
480.690	1	5
481.030	1	7
481.371	1	-3
481.712	1	4
482.053	1	-8
482.393	1	-1
482.734	1	5
483.075	1	3
483.415	1	-1
483.756	1	4
484.097	1	-8
484.437	1	-6
484.778	1	-9
485.119	1	7
485.459	1	-5
485.800	1	2
486.141	1	15
486.481	1	4
486.822	1	3
487.163	1	11
487.503	1	4
487.844	1	5
488.185	1	12
488.525	1	6
488.866	1	9
489.207	1	10
489.547	1	12
489.888	1	3
490.228	1	2
490.569	1	6
490.910	1	6
491.250	1	3
491.591	1	7
491.932	1	5
492.272	1	1
492.613	1	3
492.953	1	-3
493.294	1	-1
493.635	1	-3
493.975	1	7
494.316	1	-2
494.656	1	-3
494.997	1	7
495.337	1	1
495.678	1	7
496.019	1	-7
496.359	1	6
496.700	1	9
497.040	1	0
497.381	1	6
497.721	1	0
498.062	1	-2
498.403	1	6
498.743	1	1
499.084	1	5
499.424	1	5
499.765	1	-15
500.105	1	0
500.446	1	0
500.786	1	6
501.127	1	6
501.467	1	5
501.808	1	-1
502.148	1	3
502.489	1	-4
502.829	1	2
503.170	1	3
503.510	1	8
503.851	1	1
504.191	1	-1
504.532	1	-7
504.872	1	4
505.213	1	8
505.553	1	8
505.894	1	16
506.234	1	-3
506.575	1	7
506.915	1	8
507.256	1	-6
507.596	1	12
507.936	1	8
508.277	1	-1
508.617	1	2
508.958	1	0
509.298	1	-1
509.639	1	4
509.979	1	0
510.319	1	-9
510.660	1	-3
511.000	1	12
511.341	1	15
511.681	1	-1
512.022	1	9
512.362	1	-3
512.702	1	-1
513.043	1	6
513.383	1	10
513.724	1	1
514.064	1	5
514.404	1	-1
514.745	1	-2
515.085	1	16
515.425	1	9
515.766	1	3
516.106	1	7
516.447	1	-2
516.787	1	2
517.127	1	10
517.468	1	-2
517.808	1	10
518.148	1	2
518.489	1	9
518.829	1	2
519.169	1	0
519.510	1	2
519.850	1	2
520.190	1	-3
520.531	1	12
520.871	1	7
521.211	1	2
521.552	1	1
521.892	1	-1
522.232	1	-8
522.573	1	8
522.913	1	16
523.253	1	14
523.593	1	-5
523.934	1	-1
524.274	1	1
524.614	1	0
524.955	1	0
525.295	1	3
525.635	1	6
525.975	1	1
526.316	1	14
526.656	1	11
526.996	1	12
527.337	1	0
527.677	1	-7
528.017	1	11
528.357	1	1
528.698	1	0
529.038	1	-3
529.378	1	3
529.718	1	7
530.058	1	10
530.399	1	9
530.739	1	6
531.079	1	14
531.419	1	8
531.760	1	2
532.100	1	5
532.440	1	7
532.780	1	-2
533.120	1	5
533.461	1	3
533.801	1	-2
534.141	1	0
534.481	1	7
534.821	1	7
535.162	1	7
535.502	1	7
535.842	1	5
536.182	1	-2
536.522	1	9
536.862	1	11
537.203	1	-5
537.543	1	2
537.883	1	11
538.223	1	7
538.563	1	4
538.903	1	6
539.243	1	2
539.584	1	2
539.924	1	-3
540.264	1	6
540.604	1	2
540.944	1	-4
541.284	1	2
541.624	1	-9
541.964	1	4
542.305	1	3
542.645	1	0
542.985	1	5
543.325	1	9
543.665	1	5
544.005	1	12
544.345	1	2
544.685	1	8
545.025	1	3
545.365	1	6
545.705	1	7
546.045	1	11
546.386	1	0
546.726	1	-2
547.066	1	8
547.406	1	2
547.746	1	-4
548.086	1	1
548.426	1	10
548.766	1	-5
549.106	1	13
549.446	1	6
549.786	1	0
550.126	1	4
550.466	1	1
550.806	1	-2
551.146	1	3
551.486	1	-1
551.826	1	1
552.166	1	4
552.506	1	2
552.846	1	-1
553.186	1	1
553.526	1	-4
553.866	1	-1
554.206	1	3
554.546	1	2
554.886	1	9
555.226	1	-12
555.566	1	6
555.906	1	-8
556.246	1	0
556.586	1	-3
556.926	1	3
557.266	1	-2
557.606	1	-3
557.946	1	-1
558.286	1	6
558.626	1	22
558.966	1	-3
559.306	1	13
559.646	1	-1
559.986	1	3
560.325	1	-5
560.665	1	7
561.005	1	8
561.345	1	1
561.685	1	-3
562.025	1	-14
562.365	1	5
562.705	1	3
563.045	1	-2
563.385	1	9
563.725	1	-4
564.064	1	3
564.404	1	-1
564.744	1	4
565.084	1	4
565.424	1	9
565.764	1	3
566.104	1	5
566.444	1	3
566.783	1	8
567.123	1	5
567.463	1	-9
567.803	1	1
568.143	1	7
568.483	1	1
568.823	1	-1
569.162	1	3
569.502	1	7
569.842	1	-7
570.182	1	4
570.522	1	-3
570.862	1	-2
571.201	1	10
571.541	1	-3
571.881	1	-3
572.221	1	5
572.561	1	-5
572.900	1	-2
573.240	1	-1
573.580	1	-3
573.920	1	7
574.260	1	5
574.599	1	0
574.939	1	0
575.279	1	-10
575.619	1	7
575.959	1	-8
576.298	1	6
576.638	1	6
576.978	1	-1
577.318	1	-1
577.657	1	4
577.997	1	-10
578.337	1	-8
578.677	1	3
579.016	1	7
579.356	1	-3
579.696	1	-6
580.036	1	2
580.375	1	-3
580.715	1	1
581.055	1	6
581.394	1	-1
581.734	1	13
582.074	1	9
582.414	1	0
582.753	1	9
583.093	1	10
583.433	1	6
583.772	1	6
584.112	1	6
584.452	1	1
584.791	1	2
585.131	1	18
585.471	1	6
585.811	1	-7
586.150	1	5
586.490	1	5
586.830	1	-1
587.169	1	13
587.509	1	4
587.849	1	-8
588.188	1	-2
588.528	1	1
588.867	1	1
589.207	1	-5
589.547	1	3
589.886	1	-1
590.226	1	-1
590.566	1	-1
590.905	1	4
591.245	1	0
591.585	1	-8
591.924	1	-2
592.264	1	-6
592.603	1	-1
592.943	1	1
593.283	1	1
593.622	1	0
593.962	1	3
594.301	1	5
594.641	1	2
594.981	1	20
595.320	1	-3
595.660	1	-5
595.999	1	-2
596.339	1	6
596.678	1	-3
597.018	1	4
597.358	1	8
597.697	1	1
598.037	1	0
598.376	1	-5
598.716	1	3
599.055	1	-5
599.395	1	-3
599.734	1	2
600.074	1	-5
600.413	1	4
600.753	1	6
601.092	1	0
601.432	1	-5
601.771	1	10
602.111	1	-2
602.451	1	13
602.790	1	10
603.130	1	-5
603.469	1	4
603.809	1	9
604.148	1	6
604.487	1	6
604.827	1	0
605.166	1	7
605.506	1	-7
605.845	1	4
606.185	1	4
606.524	1	8
606.864	1	-9
607.203	1	1
607.543	1	18
607.882	1	-5
608.222	1	2
608.561	1	4
608.901	1	5
609.240	1	3
609.579	1	2
609.919	1	0
610.258	1	5
610.598	1	9
610.937	1	2
611.277	1	-1
611.616	1	5
611.955	1	4
612.295	1	0
612.634	1	-1
612.974	1	-6
613.313	1	9
613.652	1	15
613.992	1	0
614.331	1	1
614.671	1	10
615.010	1	11
615.349	1	7
615.689	1	16
616.028	1	6
616.368	1	2
616.707	1	10
617.046	1	-9
617.386	1	-5
617.725	1	-1
618.064	1	-2
618.404	1	4
618.743	1	4
619.082	1	8
619.422	1	-10
619.761	1	-2
620.100	1	5
620.440	1	9
620.779	1	-5
621.118	1	-6
621.458	1	1
621.797	1	8
622.136	1	5
622.476	1	-4
622.815	1	11
623.154	1	7
623.494	1	-2
623.833	1	9
624.172	1	6
624.511	1	10
624.851	1	-9
625.190	1	1
625.529	1	13
625.869	1	11
626.208	1	1
626.547	1	1
626.886	1	0
627.226	1	7
627.565	1	5
627.904	1	5
628.243	1	0
628.583	1	-5
628.922	1	-8
629.261	1	-6
629.600	1	-7
629.940	1	-8
630.279	1	2
630.618	1	-7
630.957	1	8
631.297	1	-6
631.636	1	11
631.975	1	-5
632.314	1	-1
632.653	1	5
632.993	1	-3
633.332	1	4
633.671	1	8
634.010	1	1
634.349	1	-2
634.689	1	3
635.028	1	0
635.367	1	-1
635.706	1	-4
636.045	1	3
636.384	1	2
636.724	1	9
637.063	1	-6
637.402	1	9
637.741	1	2
638.080	1	8
638.419	1	-4
638.759	1	9
639.098	1	5
639.437	1	4
639.776	1	-2
640.115	1	8
640.454	1	4
640.793	1	4
641.132	1	9
641.472	1	-5
641.811	1	8
642.150	1	0
642.489	1	-1
642.828	1	6
643.167	1	1
643.506	1	1
643.845	1	8
644.184	1	8
644.524	1	0
644.863	1	-14
645.202	1	4
645.541	1	-1
645.880	1	-1
646.219	1	-6
646.558	1	4
646.897	1	14
647.236	1	4
647.575	1	-12
647.914	1	6
648.253	1	-4
648.592	1	2
648.931	1	7
649.270	1	-8
649.610	1	9
649.949	1	1
650.288	1	1
650.627	1	-7
650.966	1	3
651.305	1	3
651.644	1	-3
651.983	1	5
652.322	1	2
652.661	1	-2
653.000	1	0
653.339	1	1
653.678	1	6
654.017	1	7
654.356	1	-1
654.695	1	9
655.034	1	-8
655.373	1	-3
655.712	1	1
656.051	1	15
656.390	1	4
656.729	1	4
657.068	1	8
657.406	1	-7
657.745	1	4
658.084	1	-5
658.423	1	1
658.762	1	6
659.101	1	7
659.440	1	14
659.779	1	7
660.118	1	-5
660.457	1	8
660.796	1	5
661.135	1	-11
661.474	1	3
661.813	1	-2
662.152	1	9
662.491	1	-10
662.829	1	0
663.168	1	9
663.507	1	2
663.846	1	6
664.185	1	9
664.524	1	-1
664.863	1	-3
665.202	1	4
665.541	1	0
665.879	1	9
666.218	1	14
666.557	1	4
666.896	1	-1
667.235	1	-5
667.574	1	-9
667.913	1	-7
668.251	1	4
668.590	1	-1
668.929	1	12
669.268	1	-8
669.607	1	-1
669.946	1	12
670.285	1	19
670.623	1	4
670.962	1	-4
671.301	1	-6
671.640	1	13
671.979	1	-1
672.317	1	8
672.656	1	-3
672.995	1	-1
673.334	1	4
673.673	1	5
674.011	1	7
674.350	1	-3
674.689	1	5
675.028	1	2
675.367	1	-5
675.705	1	5
676.044	1	4
676.383	1	8
676.722	1	13
677.060	1	0
677.399	1	-9
677.738	1	-4
678.077	1	12
678.416	1	-6
678.754	1	8
679.093	1	-1
679.432	1	0
679.771	1	4
680.109	1	0
680.448	1	6
680.787	1	-8
681.125	1	11
681.464	1	8
681.803	1	0
682.142	1	-5
682.480	1	0
682.819	1	13
683.158	1	-6
683.496	1	3
683.835	1	-5
684.174	1	4
684.512	1	1
684.851	1	-2
685.190	1	0
685.529	1	9
685.867	1	1
686.206	1	4
686.545	1	4
686.883	1	-1
687.222	1	5
687.561	1	2
687.899	1	-3
688.238	1	-4
688.577	1	17
688.746	1	-3