File: Data/GaN_170K_550ms/GaN_sample D_spot 18_UVVIS_170 K_200um_550 ms 2x2mm1_99.txt
340.368	1	-2
340.710	1	-7
341.052	1	3
341.394	1	1
341.737	1	-7
342.079	1	4
342.421	1	6
342.763	1	14
343.105	1	5
343.447	1	-3
343.789	1	2
344.131	1	1
344.473	1	1
344.815	1	8
345.157	1	7
345.499	1	5
345.841	1	6
346.183	1	6
346.526	1	5
346.868	1	9
347.210	1	-3
347.552	1	23
347.894	1	0
348.236	1	3
348.578	1	6
348.920	1	2
349.262	1	5
349.604	1	7
349.946	1	8
350.288	1	3
350.630	1	7
350.972	1	-6
351.314	1	3
351.656	1	1
351.998	1	13
352.340	1	15
352.682	1	10
353.024	1	1
353.366	1	7
353.708	1	10
354.050	1	7
354.392	1	6
354.734	1	12
355.076	1	7
355.418	1	4
355.760	1	13
356.102	1	14
356.444	1	6
356.785	1	9
357.127	1	11
357.469	1	15
357.811	1	17
358.153	1	16
358.495	1	12
358.837	1	14
359.179	1	13
359.521	1	15
359.863	1	21
360.205	1	29
360.547	1	31
360.889	1	32
361.231	1	33
361.572	1	34
361.914	1	36
362.256	1	28
362.598	1	40
362.940	1	48
363.282	1	43
363.624	1	48
363.966	1	51
364.308	1	56
364.649	1	48
364.991	1	70
365.333	1	57
365.675	1	66
366.017	1	72
366.359	1	77
366.701	1	75
367.042	1	85
367.384	1	98
367.726	1	97
368.068	1	98
368.410	1	102
368.752	1	107
369.093	1	91
369.435	1	103
369.777	1	87
370.119	1	91
370.461	1	102
370.803	1	78
371.144	1	66
371.486	1	79
371.828	1	64
372.170	1	77
372.512	1	54
372.853	1	67
373.195	1	54
373.537	1	74
373.879	1	60
374.220	1	71
374.562	1	38
374.904	1	53
375.246	1	49
375.588	1	44
375.929	1	35
376.271	1	52
376.613	1	44
376.955	1	47
377.296	1	33
377.638	1	43
377.980	1	25
378.321	1	39
378.663	1	24
379.005	1	29
379.347	1	34
379.688	1	30
380.030	1	26
380.372	1	32
380.714	1	35
381.055	1	24
381.397	1	27
381.739	1	12
382.080	1	11
382.422	1	26
382.764	1	18
383.105	1	23
383.447	1	24
383.789	1	27
384.130	1	13
384.472	1	2
384.814	1	17
385.156	1	13
385.497	1	22
385.839	1	10
386.180	1	18
386.522	1	20
386.864	1	14
387.205	1	5
387.547	1	17
387.889	1	18
388.230	1	4
388.572	1	21
388.914	1	13
389.255	1	18
389.597	1	14
389.939	1	5
390.280	1	9
390.622	1	13
390.963	1	7
391.305	1	12
391.647	1	-1
391.988	1	13
392.330	1	14
392.671	1	9
393.013	1	7
393.355	1	12
393.696	1	17
394.038	1	0
394.379	1	3
394.721	1	9
395.062	1	8
395.404	1	0
395.746	1	9
396.087	1	7
396.429	1	4
396.770	1	17
397.112	1	5
397.453	1	10
397.795	1	1
398.136	1	6
398.478	1	1
398.819	1	11
399.161	1	2
399.503	1	6
399.844	1	-3
400.186	1	-1
400.527	1	20
400.869	1	7
401.210	1	15
401.552	1	11
401.893	1	14
402.235	1	1
402.576	1	4
402.918	1	5
403.259	1	1
403.601	1	14
403.942	1	9
404.284	1	-10
404.625	1	12
404.967	1	13
405.308	1	5
405.649	1	9
405.991	1	-2
406.332	1	-11
406.674	1	10
407.015	1	16
407.357	1	-8
407.698	1	-2
408.040	1	1
408.381	1	10
408.722	1	1
409.064	1	8
409.405	1	-1
409.747	1	3
410.088	1	14
410.430	1	-1
410.771	1	14
411.112	1	6
411.454	1	10
411.795	1	18
412.137	1	4
412.478	1	1
412.819	1	-4
413.161	1	6
413.502	1	3
413.844	1	9
414.185	1	-1
414.526	1	1
414.868	1	-6
415.209	1	-15
415.550	1	-2
415.892	1	5
416.233	1	14
416.575	1	6
416.916	1	0
417.257	1	8
417.599	1	-1
417.940	1	3
418.281	1	-8
418.623	1	4
418.964	1	-3
419.305	1	2
419.647	1	8
419.988	1	1
420.329	1	2
420.671	1	0
421.012	1	-3
421.353	1	3
421.695	1	-13
422.036	1	10
422.377	1	12
422.718	1	8
423.060	1	-2
423.401	1	3
423.742	1	0
424.084	1	15
424.425	1	-10
424.766	1	-5
425.107	1	6
425.449	1	3
425.790	1	9
426.131	1	6
426.472	1	15
426.814	1	3
427.155	1	13
427.496	1	-3
427.837	1	9
428.179	1	11
428.520	1	-3
428.861	1	7
429.202	1	2
429.544	1	0
429.885	1	-1
430.226	1	3
430.567	1	5
430.909	1	3
431.250	1	14
431.591	1	2
431.932	1	1
432.273	1	0
432.615	1	2
432.956	1	2
433.297	1	3
433.638	1	1
433.979	1	1
434.320	1	7
434.662	1	-5
435.003	1	0
435.344	1	10
435.685	1	1
436.026	1	1
436.368	1	2
436.709	1	5
437.050	1	-7
437.391	1	-1
437.732	1	5
438.073	1	-2
438.414	1	-3
438.756	1	-2
439.097	1	8
439.438	1	9
439.779	1	10
440.120	1	-4
440.461	1	9
440.802	1	25
441.143	1	0
441.485	1	-4
441.826	1	6
442.167	1	7
442.508	1	-1
442.849	1	3
443.190	1	0
443.531	1	8
443.872	1	-6
444.213	1	3
444.554	1	-1
444.895	1	-10
445.237	1	0
445.578	1	11
445.919	1	6
446.260	1	6
446.601	1	-1
446.942	1	4
447.283	1	17
447.624	1	-3
447.965	1	1
448.306	1	6
448.647	1	-6
448.988	1	12
449.329	1	7
449.670	1	-12
450.011	1	9
450.352	1	-3
450.693	1	-1
451.034	1	2
451.375	1	5
451.716	1	1
452.057	1	7
452.398	1	4
452.739	1	-3
453.080	1	7
453.421	1	3
453.762	1	1
454.103	1	2
454.444	1	-5
454.785	1	-7
455.126	1	16
455.467	1	2
455.808	1	8
456.149	1	7
456.490	1	6
456.831	1	-1
457.172	1	2
457.513	1	5
457.854	1	20
458.195	1	0
458.536	1	-9
458.877	1	9
459.218	1	4
459.559	1	0
459.899	1	12
460.240	1	5
460.581	1	2
460.922	1	-5
461.263	1	-7
461.604	1	15
461.945	1	2
462.286	1	-2
462.627	1	8
462.968	1	14
463.309	1	5
463.649	1	1
463.990	1	-2
464.331	1	4
464.672	1	-5
465.013	1	11
465.354	1	-7
465.695	1	10
466.036	1	-11
466.376	1	6
466.717	1	2
467.058	1	10
467.399	1	8
467.740	1	-4
468.081	1	-1
468.422	1	-1
468.762	1	9
469.103	1	6
469.444	1	5
469.785	1	-9
470.126	1	3
470.467	1	5
470.807	1	3
471.148	1	-5
471.489	1	0
471.830	1	3
472.171	1	8
472.511	1	7
472.852	1	4
473.193	1	4
473.534	1	6
473.875	1	-8
474.215	1	6
474.556	1	11
474.897	1	-3
475.238	1	-4
475.578	1	10
475.919	1	8
476.260	1	6
476.601	1	7
476.942	1	-7
477.282	1	7
477.623	1	7
477.964	1	11
478.305	1	0
478.645	1	6
478.986	1	3
479.327	1	-19
479.667	1	1
480.008	1	10
480.349	1	6
480.690	1	9
481.030	1	6
481.371	1	3
481.712	1	-2
482.053	1	-1
482.393	1	7
482.734	1	10
483.075	1	5
483.415	1	10
483.756	1	4
484.097	1	4
484.437	1	7
484.778	1	-5
485.119	1	8
485.459	1	-1
485.800	1	8
486.141	1	13
486.481	1	10
486.822	1	12
487.163	1	11
487.503	1	3
487.844	1	11
488.185	1	6
488.525	1	15
488.866	1	8
489.207	1	7
489.547	1	15
489.888	1	2
490.228	1	-1
490.569	1	18
490.910	1	10
491.250	1	12
491.591	1	8
491.932	1	12
492.272	1	20
492.613	1	13
492.953	1	9
493.294	1	2
493.635	1	5
493.975	1	16
494.316	1	10
494.656	1	-2
494.997	1	11
495.337	1	10
495.678	1	13
496.019	1	-6
496.359	1	13
496.700	1	20
497.040	1	15
497.381	1	12
497.721	1	2
498.062	1	-4
498.403	1	12
498.743	1	7
499.084	1	4
499.424	1	12
499.765	1	-3
500.105	1	5
500.446	1	7
500.786	1	9
501.127	1	8
501.467	1	16
501.808	1	14
502.148	1	16
502.489	1	12
502.829	1	11
503.170	1	21
503.510	1	15
503.851	1	11
504.191	1	0
504.532	1	-3
504.872	1	12
505.213	1	11
505.553	1	6
505.894	1	15
506.234	1	0
506.575	1	12
506.915	1	20
507.256	1	9
507.596	1	15
507.936	1	10
508.277	1	-2
508.617	1	12
508.958	1	11
509.298	1	0
509.639	1	28
509.979	1	10
510.319	1	3
510.660	1	4
511.000	1	20
511.341	1	22
511.681	1	11
512.022	1	17
512.362	1	9
512.702	1	15
513.043	1	16
513.383	1	18
513.724	1	4
514.064	1	23
514.404	1	3
514.745	1	13
515.085	1	15
515.425	1	21
515.766	1	16
516.106	1	17
516.447	1	12
516.787	1	16
517.127	1	22
517.468	1	19
517.808	1	20
518.148	1	10
518.489	1	21
518.829	1	17
519.169	1	17
519.510	1	21
519.850	1	12
520.190	1	15
520.531	1	17
520.871	1	15
521.211	1	15
521.552	1	16
521.892	1	15
522.232	1	1
522.573	1	20
522.913	1	20
523.253	1	29
523.593	1	14
523.934	1	16
524.274	1	6
524.614	1	19
524.955	1	13
525.295	1	13
525.635	1	12
525.975	1	15
526.316	1	20
526.656	1	13
526.996	1	17
527.337	1	14
527.677	1	20
528.017	1	21
528.357	1	11
528.698	1	1
529.038	1	6
529.378	1	13
529.718	1	26
530.058	1	27
530.399	1	18
530.739	1	12
531.079	1	14
531.419	1	30
531.760	1	20
532.100	1	18
532.440	1	21
532.780	1	11
533.120	1	14
533.461	1	13
533.801	1	13
534.141	1	15
534.481	1	28
534.821	1	20
535.162	1	16
535.502	1	17
535.842	1	13
536.182	1	14
536.522	1	20
536.862	1	18
537.203	1	11
537.543	1	9
537.883	1	21
538.223	1	10
538.563	1	18
538.903	1	20
539.243	1	3
539.584	1	16
539.924	1	9
540.264	1	20
540.604	1	11
540.944	1	15
541.284	1	19
541.624	1	8
541.964	1	12
542.305	1	13
542.645	1	7
542.985	1	20
543.325	1	17
543.665	1	12
544.005	1	17
544.345	1	12
544.685	1	9
545.025	1	10
545.365	1	5
545.705	1	16
546.045	1	17
546.386	1	15
546.726	1	8
547.066	1	17
547.406	1	19
547.746	1	4
548.086	1	17
548.426	1	18
548.766	1	16
549.106	1	15
549.446	1	12
549.786	1	7
550.126	1	14
550.466	1	13
550.806	1	2
551.146	1	21
551.486	1	5
551.826	1	17
552.166	1	12
552.506	1	11
552.846	1	12
553.186	1	12
553.526	1	9
553.866	1	5
554.206	1	16
554.546	1	2
554.886	1	6
555.226	1	0
555.566	1	9
555.906	1	4
556.246	1	7
556.586	1	-2
556.926	1	17
557.266	1	16
557.606	1	11
557.946	1	18
558.286	1	13
558.626	1	28
558.966	1	9
559.306	1	13
559.646	1	9
559.986	1	15
560.325	1	9
560.665	1	11
561.005	1	11
561.345	1	0
561.685	1	5
562.025	1	0
562.365	1	9
562.705	1	20
563.045	1	5
563.385	1	17
563.725	1	5
564.064	1	12
564.404	1	2
564.744	1	8
565.084	1	10
565.424	1	7
565.764	1	13
566.104	1	13
566.444	1	20
566.783	1	22
567.123	1	14
567.463	1	5
567.803	1	10
568.143	1	5
568.483	1	13
568.823	1	7
569.162	1	9
569.502	1	13
569.842	1	9
570.182	1	6
570.522	1	11
570.862	1	5
571.201	1	12
571.541	1	-2
571.881	1	2
572.221	1	10
572.561	1	8
572.900	1	11
573.240	1	8
573.580	1	14
573.920	1	26
574.260	1	3
574.599	1	5
574.939	1	1
575.279	1	6
575.619	1	6
575.959	1	3
576.298	1	4
576.638	1	13
576.978	1	5
577.318	1	5
577.657	1	15
577.997	1	-2
578.337	1	15
578.677	1	2
579.016	1	10
579.356	1	8
579.696	1	6
580.036	1	5
580.375	1	2
580.715	1	9
581.055	1	3
581.394	1	11
581.734	1	16
582.074	1	5
582.414	1	5
582.753	1	9
583.093	1	14
583.433	1	13
583.772	1	10
584.112	1	10
584.452	1	-7
584.791	1	15
585.131	1	22
585.471	1	9
585.811	1	-4
586.150	1	7
586.490	1	18
586.830	1	4
587.169	1	19
587.509	1	14
587.849	1	8
588.188	1	1
588.528	1	2
588.867	1	-3
589.207	1	0
589.547	1	12
589.886	1	-4
590.226	1	17
590.566	1	4
590.905	1	2
591.245	1	6
591.585	1	4
591.924	1	2
592.264	1	0
592.603	1	0
592.943	1	5
593.283	1	5
593.622	1	1
593.962	1	3
594.301	1	11
594.641	1	14
594.981	1	9
595.320	1	3
595.660	1	4
595.999	1	3
596.339	1	7
596.678	1	-2
597.018	1	6
597.358	1	-5
597.697	1	-5
598.037	1	3
598.376	1	-6
598.716	1	5
599.055	1	6
599.395	1	-2
599.734	1	13
600.074	1	-5
600.413	1	-2
600.753	1	10
601.092	1	-2
601.432	1	-4
601.771	1	10
602.111	1	4
602.451	1	6
602.790	1	6
603.130	1	0
603.469	1	6
603.809	1	1
604.148	1	0
604.487	1	6
604.827	1	-3
605.166	1	1
605.506	1	-1
605.845	1	12
606.185	1	5
606.524	1	1
606.864	1	0
607.203	1	8
607.543	1	9
607.882	1	6
608.222	1	-1
608.561	1	17
608.901	1	3
609.240	1	-10
609.579	1	3
609.919	1	11
610.258	1	9
610.598	1	12
610.937	1	9
611.277	1	-2
611.616	1	2
611.955	1	11
612.295	1	0
612.634	1	7
612.974	1	6
613.313	1	9
613.652	1	9
613.992	1	7
614.331	1	-5
614.671	1	7
615.010	1	10
615.349	1	1
615.689	1	14
616.028	1	-2
616.368	1	8
616.707	1	10
617.046	1	0
617.386	1	1
617.725	1	3
618.064	1	1
618.404	1	1
618.743	1	7
619.082	1	6
619.422	1	2
619.761	1	-11
620.100	1	1
620.440	1	14
620.779	1	0
621.118	1	-1
621.458	1	9
621.797	1	5
622.136	1	5
622.476	1	4
622.815	1	7
623.154	1	8
623.494	1	0
623.833	1	10
624.172	1	1
624.511	1	11
624.851	1	1
625.190	1	6
625.529	1	15
625.869	1	17
626.208	1	7
626.547	1	3
626.886	1	8
627.226	1	9
627.565	1	5
627.904	1	3
628.243	1	0
628.583	1	3
628.922	1	-3
629.261	1	10
629.600	1	2
629.940	1	-2
630.279	1	3
630.618	1	-2
630.957	1	7
631.297	1	-5
631.636	1	9
631.975	1	0
632.314	1	-1
632.653	1	8
632.993	1	-1
633.332	1	5
633.671	1	9
634.010	1	7
634.349	1	1
634.689	1	4
635.028	1	5
635.367	1	7
635.706	1	-1
636.045	1	10
636.384	1	4
636.724	1	10
637.063	1	2
637.402	1	12
637.741	1	3
638.080	1	7
638.419	1	0
638.759	1	11
639.098	1	1
639.437	1	-4
639.776	1	2
640.115	1	11
640.454	1	-8
640.793	1	-4
641.132	1	10
641.472	1	-4
641.811	1	13
642.150	1	-1
642.489	1	3
642.828	1	2
643.167	1	1
643.506	1	10
643.845	1	12
644.184	1	10
644.524	1	14
644.863	1	1
645.202	1	19
645.541	1	6
645.880	1	3
646.219	1	-7
646.558	1	9
646.897	1	7
647.236	1	4
647.575	1	-3
647.914	1	-2
648.253	1	2
648.592	1	4
648.931	1	4
649.270	1	4
649.610	1	1
649.949	1	2
650.288	1	6
650.627	1	-3
650.966	1	5
651.305	1	-5
651.644	1	1
651.983	1	8
652.322	1	0
652.661	1	5
653.000	1	10
653.339	1	0
653.678	1	10
654.017	1	9
654.356	1	3
654.695	1	11
655.034	1	-1
655.373	1	4
655.712	1	-10
656.051	1	9
656.390	1	7
656.729	1	5
657.068	1	6
657.406	1	0
657.745	1	15
658.084	1	-2
658.423	1	5
658.762	1	-5
659.101	1	-2
659.440	1	-5
659.779	1	2
660.118	1	6
660.457	1	7
660.796	1	0
661.135	1	-8
661.474	1	9
661.813	1	1
662.152	1	1
662.491	1	-6
662.829	1	4
663.168	1	-2
663.507	1	-3
663.846	1	2
664.185	1	11
664.524	1	6
664.863	1	9
665.202	1	15
665.541	1	1
665.879	1	5
666.218	1	9
666.557	1	8
666.896	1	3
667.235	1	4
667.574	1	-6
667.913	1	3
668.251	1	9
668.590	1	3
668.929	1	4
669.268	1	-1
669.607	1	-1
669.946	1	-5
670.285	1	9
670.623	1	-2
670.962	1	-2
671.301	1	3
671.640	1	11
671.979	1	4
672.317	1	13
672.656	1	13
672.995	1	6
673.334	1	6
673.673	1	3
674.011	1	9
674.350	1	2
674.689	1	9
675.028	1	13
675.367	1	2
675.705	1	7
676.044	1	10
676.383	1	3
676.722	1	13
677.060	1	2
677.399	1	9
677.738	1	-4
678.077	1	17
678.416	1	0
678.754	1	13
679.093	1	5
679.432	1	10
679.771	1	11
680.109	1	6
680.448	1	10
680.787	1	-5
681.125	1	6
681.464	1	-1
681.803	1	9
682.142	1	-4
682.480	1	7
682.819	1	15
683.158	1	2
683.496	1	11
683.835	1	0
684.174	1	6
684.512	1	-4
684.851	1	0
685.190	1	1
685.529	1	20
685.867	1	12
686.206	1	11
686.545	1	8
686.883	1	2
687.222	1	1
687.561	1	10
687.899	1	-2
688.238	1	0
688.577	1	9
688.746	1	0