File: Data/GaN_170K_550ms/GaN_sample D_spot 18_UVVIS_170 K_200um_550 ms 2x2mm1_151.txt
340.368	1	2
340.710	1	-10
341.052	1	-2
341.394	1	2
341.737	1	7
342.079	1	-1
342.421	1	4
342.763	1	3
343.105	1	12
343.447	1	-1
343.789	1	3
344.131	1	-1
344.473	1	2
344.815	1	-3
345.157	1	9
345.499	1	3
345.841	1	6
346.183	1	8
346.526	1	2
346.868	1	6
347.210	1	-4
347.552	1	11
347.894	1	7
348.236	1	2
348.578	1	6
348.920	1	2
349.262	1	5
349.604	1	10
349.946	1	7
350.288	1	3
350.630	1	9
350.972	1	0
351.314	1	10
351.656	1	3
351.998	1	15
352.340	1	6
352.682	1	4
353.024	1	0
353.366	1	9
353.708	1	7
354.050	1	-4
354.392	1	4
354.734	1	10
355.076	1	2
355.418	1	-1
355.760	1	7
356.102	1	3
356.444	1	7
356.785	1	5
357.127	1	-2
357.469	1	-5
357.811	1	11
358.153	1	8
358.495	1	9
358.837	1	14
359.179	1	-3
359.521	1	10
359.863	1	8
360.205	1	8
360.547	1	17
360.889	1	18
361.231	1	9
361.572	1	20
361.914	1	10
362.256	1	14
362.598	1	25
362.940	1	31
363.282	1	24
363.624	1	17
363.966	1	21
364.308	1	15
364.649	1	13
364.991	1	31
365.333	1	26
365.675	1	31
366.017	1	23
366.359	1	25
366.701	1	33
367.042	1	33
367.384	1	31
367.726	1	46
368.068	1	46
368.410	1	36
368.752	1	43
369.093	1	37
369.435	1	28
369.777	1	43
370.119	1	33
370.461	1	41
370.803	1	25
371.144	1	31
371.486	1	18
371.828	1	27
372.170	1	30
372.512	1	13
372.853	1	32
373.195	1	30
373.537	1	25
373.879	1	22
374.220	1	28
374.562	1	21
374.904	1	12
375.246	1	5
375.588	1	20
375.929	1	16
376.271	1	28
376.613	1	22
376.955	1	13
377.296	1	15
377.638	1	17
377.980	1	5
378.321	1	19
378.663	1	19
379.005	1	9
379.347	1	13
379.688	1	8
380.030	1	12
380.372	1	21
380.714	1	17
381.055	1	16
381.397	1	8
381.739	1	7
382.080	1	-1
382.422	1	11
382.764	1	10
383.105	1	19
383.447	1	10
383.789	1	14
384.130	1	-2
384.472	1	-1
384.814	1	12
385.156	1	4
385.497	1	10
385.839	1	2
386.180	1	9
386.522	1	7
386.864	1	7
387.205	1	0
387.547	1	7
387.889	1	13
388.230	1	-1
388.572	1	12
388.914	1	2
389.255	1	5
389.597	1	10
389.939	1	-3
390.280	1	10
390.622	1	-1
390.963	1	3
391.305	1	10
391.647	1	-9
391.988	1	10
392.330	1	7
392.671	1	0
393.013	1	0
393.355	1	9
393.696	1	4
394.038	1	3
394.379	1	-1
394.721	1	3
395.062	1	-7
395.404	1	8
395.746	1	13
396.087	1	0
396.429	1	-2
396.770	1	14
397.112	1	-1
397.453	1	5
397.795	1	-2
398.136	1	10
398.478	1	1
398.819	1	7
399.161	1	-9
399.503	1	1
399.844	1	-4
400.186	1	-7
400.527	1	4
400.869	1	0
401.210	1	1
401.552	1	1
401.893	1	7
402.235	1	1
402.576	1	-1
402.918	1	-4
403.259	1	9
403.601	1	15
403.942	1	7
404.284	1	-5
404.625	1	7
404.967	1	0
405.308	1	13
405.649	1	0
405.991	1	6
406.332	1	-9
406.674	1	5
407.015	1	4
407.357	1	-4
407.698	1	5
408.040	1	-3
408.381	1	3
408.722	1	-2
409.064	1	-2
409.405	1	-1
409.747	1	1
410.088	1	6
410.430	1	0
410.771	1	5
411.112	1	-2
411.454	1	4
411.795	1	17
412.137	1	-5
412.478	1	3
412.819	1	-5
413.161	1	9
413.502	1	-1
413.844	1	8
414.185	1	-4
414.526	1	2
414.868	1	1
415.209	1	-7
415.550	1	7
415.892	1	5
416.233	1	8
416.575	1	8
416.916	1	-4
417.257	1	6
417.599	1	2
417.940	1	6
418.281	1	-3
418.623	1	-5
418.964	1	-1
419.305	1	-2
419.647	1	9
419.988	1	10
420.329	1	-1
420.671	1	-3
421.012	1	8
421.353	1	8
421.695	1	-5
422.036	1	10
422.377	1	7
422.718	1	9
423.060	1	-3
423.401	1	2
423.742	1	3
424.084	1	21
424.425	1	-3
424.766	1	5
425.107	1	-8
425.449	1	5
425.790	1	4
426.131	1	10
426.472	1	0
426.814	1	-13
427.155	1	13
427.496	1	-5
427.837	1	6
428.179	1	5
428.520	1	-4
428.861	1	4
429.202	1	-3
429.544	1	-3
429.885	1	-2
430.226	1	4
430.567	1	1
430.909	1	-9
431.250	1	12
431.591	1	7
431.932	1	3
432.273	1	1
432.615	1	6
432.956	1	1
433.297	1	4
433.638	1	13
433.979	1	5
434.320	1	8
434.662	1	-12
435.003	1	5
435.344	1	-5
435.685	1	-4
436.026	1	-3
436.368	1	13
436.709	1	5
437.050	1	-9
437.391	1	0
437.732	1	-2
438.073	1	5
438.414	1	-2
438.756	1	-3
439.097	1	4
439.438	1	0
439.779	1	14
440.120	1	-7
440.461	1	14
440.802	1	8
441.143	1	-1
441.485	1	1
441.826	1	9
442.167	1	5
442.508	1	-4
442.849	1	-4
443.190	1	1
443.531	1	0
443.872	1	1
444.213	1	5
444.554	1	-5
444.895	1	-2
445.237	1	-10
445.578	1	9
445.919	1	6
446.260	1	4
446.601	1	-5
446.942	1	1
447.283	1	10
447.624	1	0
447.965	1	6
448.306	1	-3
448.647	1	-2
448.988	1	3
449.329	1	3
449.670	1	-17
450.011	1	9
450.352	1	-5
450.693	1	0
451.034	1	1
451.375	1	6
451.716	1	11
452.057	1	-2
452.398	1	-4
452.739	1	2
453.080	1	1
453.421	1	4
453.762	1	6
454.103	1	1
454.444	1	2
454.785	1	10
455.126	1	11
455.467	1	-12
455.808	1	7
456.149	1	1
456.490	1	-2
456.831	1	2
457.172	1	-6
457.513	1	11
457.854	1	15
458.195	1	-4
458.536	1	-2
458.877	1	3
459.218	1	1
459.559	1	-3
459.899	1	2
460.240	1	-1
460.581	1	10
460.922	1	-4
461.263	1	2
461.604	1	2
461.945	1	0
462.286	1	-6
462.627	1	4
462.968	1	8
463.309	1	7
463.649	1	4
463.990	1	-1
464.331	1	4
464.672	1	-9
465.013	1	8
465.354	1	-1
465.695	1	-1
466.036	1	-1
466.376	1	-3
466.717	1	7
467.058	1	5
467.399	1	15
467.740	1	0
468.081	1	1
468.422	1	7
468.762	1	8
469.103	1	6
469.444	1	-2
469.785	1	2
470.126	1	3
470.467	1	3
470.807	1	5
471.148	1	-2
471.489	1	-2
471.830	1	-2
472.171	1	11
472.511	1	2
472.852	1	8
473.193	1	6
473.534	1	8
473.875	1	3
474.215	1	1
474.556	1	3
474.897	1	10
475.238	1	2
475.578	1	-5
475.919	1	12
476.260	1	14
476.601	1	7
476.942	1	0
477.282	1	6
477.623	1	12
477.964	1	4
478.305	1	0
478.645	1	-6
478.986	1	-1
479.327	1	1
479.667	1	-2
480.008	1	12
480.349	1	6
480.690	1	4
481.030	1	0
481.371	1	-8
481.712	1	3
482.053	1	-6
482.393	1	-6
482.734	1	7
483.075	1	9
483.415	1	11
483.756	1	6
484.097	1	-5
484.437	1	-4
484.778	1	-3
485.119	1	-2
485.459	1	-10
485.800	1	-4
486.141	1	17
486.481	1	4
486.822	1	12
487.163	1	6
487.503	1	6
487.844	1	0
488.185	1	4
488.525	1	6
488.866	1	1
489.207	1	9
489.547	1	13
489.888	1	6
490.228	1	-3
490.569	1	11
490.910	1	-4
491.250	1	-3
491.591	1	1
491.932	1	11
492.272	1	2
492.613	1	2
492.953	1	3
493.294	1	1
493.635	1	1
493.975	1	5
494.316	1	3
494.656	1	8
494.997	1	-2
495.337	1	15
495.678	1	-2
496.019	1	-5
496.359	1	-2
496.700	1	16
497.040	1	7
497.381	1	6
497.721	1	-2
498.062	1	-10
498.403	1	4
498.743	1	3
499.084	1	-3
499.424	1	6
499.765	1	-10
500.105	1	4
500.446	1	-2
500.786	1	3
501.127	1	6
501.467	1	4
501.808	1	3
502.148	1	11
502.489	1	1
502.829	1	3
503.170	1	14
503.510	1	-1
503.851	1	3
504.191	1	-5
504.532	1	-13
504.872	1	8
505.213	1	0
505.553	1	2
505.894	1	9
506.234	1	-4
506.575	1	7
506.915	1	4
507.256	1	-1
507.596	1	5
507.936	1	16
508.277	1	-1
508.617	1	12
508.958	1	4
509.298	1	-7
509.639	1	9
509.979	1	3
510.319	1	-6
510.660	1	0
511.000	1	7
511.341	1	17
511.681	1	2
512.022	1	2
512.362	1	-3
512.702	1	0
513.043	1	-3
513.383	1	-1
513.724	1	1
514.064	1	14
514.404	1	6
514.745	1	3
515.085	1	3
515.425	1	2
515.766	1	6
516.106	1	7
516.447	1	1
516.787	1	10
517.127	1	6
517.468	1	9
517.808	1	14
518.148	1	4
518.489	1	11
518.829	1	6
519.169	1	8
519.510	1	12
519.850	1	2
520.190	1	5
520.531	1	7
520.871	1	5
521.211	1	11
521.552	1	9
521.892	1	7
522.232	1	-3
522.573	1	14
522.913	1	12
523.253	1	23
523.593	1	3
523.934	1	6
524.274	1	6
524.614	1	16
524.955	1	5
525.295	1	3
525.635	1	19
525.975	1	4
526.316	1	8
526.656	1	2
526.996	1	-1
527.337	1	-1
527.677	1	-3
528.017	1	18
528.357	1	-3
528.698	1	-6
529.038	1	-2
529.378	1	11
529.718	1	12
530.058	1	17
530.399	1	4
530.739	1	5
531.079	1	13
531.419	1	-1
531.760	1	2
532.100	1	-2
532.440	1	9
532.780	1	5
533.120	1	11
533.461	1	4
533.801	1	11
534.141	1	-3
534.481	1	12
534.821	1	10
535.162	1	8
535.502	1	9
535.842	1	12
536.182	1	5
536.522	1	18
536.862	1	11
537.203	1	5
537.543	1	-3
537.883	1	6
538.223	1	4
538.563	1	4
538.903	1	3
539.243	1	-2
539.584	1	8
539.924	1	0
540.264	1	12
540.604	1	7
540.944	1	-3
541.284	1	13
541.624	1	-4
541.964	1	11
542.305	1	-5
542.645	1	7
542.985	1	7
543.325	1	9
543.665	1	14
544.005	1	10
544.345	1	2
544.685	1	2
545.025	1	3
545.365	1	7
545.705	1	6
546.045	1	2
546.386	1	3
546.726	1	4
547.066	1	10
547.406	1	11
547.746	1	0
548.086	1	12
548.426	1	11
548.766	1	-2
549.106	1	4
549.446	1	4
549.786	1	4
550.126	1	4
550.466	1	5
550.806	1	-6
551.146	1	14
551.486	1	7
551.826	1	9
552.166	1	6
552.506	1	11
552.846	1	12
553.186	1	3
553.526	1	-7
553.866	1	-5
554.206	1	3
554.546	1	0
554.886	1	-1
555.226	1	-7
555.566	1	1
555.906	1	-4
556.246	1	4
556.586	1	2
556.926	1	6
557.266	1	10
557.606	1	5
557.946	1	15
558.286	1	-2
558.626	1	16
558.966	1	7
559.306	1	10
559.646	1	2
559.986	1	7
560.325	1	4
560.665	1	14
561.005	1	8
561.345	1	4
561.685	1	8
562.025	1	0
562.365	1	6
562.705	1	12
563.045	1	-7
563.385	1	5
563.725	1	-3
564.064	1	15
564.404	1	-3
564.744	1	7
565.084	1	17
565.424	1	-4
565.764	1	14
566.104	1	-2
566.444	1	14
566.783	1	3
567.123	1	3
567.463	1	-7
567.803	1	9
568.143	1	3
568.483	1	4
568.823	1	6
569.162	1	2
569.502	1	4
569.842	1	-4
570.182	1	2
570.522	1	1
570.862	1	10
571.201	1	2
571.541	1	1
571.881	1	0
572.221	1	4
572.561	1	6
572.900	1	3
573.240	1	1
573.580	1	5
573.920	1	0
574.260	1	10
574.599	1	6
574.939	1	0
575.279	1	11
575.619	1	11
575.959	1	-4
576.298	1	11
576.638	1	11
576.978	1	-7
577.318	1	4
577.657	1	-5
577.997	1	-6
578.337	1	10
578.677	1	3
579.016	1	-1
579.356	1	7
579.696	1	0
580.036	1	12
580.375	1	-5
580.715	1	5
581.055	1	6
581.394	1	12
581.734	1	3
582.074	1	11
582.414	1	-1
582.753	1	-2
583.093	1	7
583.433	1	11
583.772	1	3
584.112	1	4
584.452	1	3
584.791	1	5
585.131	1	11
585.471	1	6
585.811	1	-7
586.150	1	-3
586.490	1	11
586.830	1	-9
587.169	1	11
587.509	1	-1
587.849	1	5
588.188	1	1
588.528	1	0
588.867	1	5
589.207	1	8
589.547	1	3
589.886	1	-3
590.226	1	3
590.566	1	5
590.905	1	-1
591.245	1	8
591.585	1	-2
591.924	1	4
592.264	1	-7
592.603	1	5
592.943	1	8
593.283	1	6
593.622	1	-8
593.962	1	-4
594.301	1	11
594.641	1	10
594.981	1	11
595.320	1	4
595.660	1	-1
595.999	1	8
596.339	1	6
596.678	1	8
597.018	1	-8
597.358	1	-3
597.697	1	2
598.037	1	-6
598.376	1	-8
598.716	1	5
599.055	1	1
599.395	1	-2
599.734	1	15
600.074	1	10
600.413	1	-6
600.753	1	11
601.092	1	2
601.432	1	-2
601.771	1	9
602.111	1	-5
602.451	1	15
602.790	1	11
603.130	1	-2
603.469	1	-1
603.809	1	4
604.148	1	8
604.487	1	2
604.827	1	-3
605.166	1	6
605.506	1	0
605.845	1	3
606.185	1	12
606.524	1	4
606.864	1	0
607.203	1	-2
607.543	1	8
607.882	1	-3
608.222	1	1
608.561	1	7
608.901	1	13
609.240	1	-1
609.579	1	-1
609.919	1	-4
610.258	1	9
610.598	1	1
610.937	1	2
611.277	1	3
611.616	1	7
611.955	1	7
612.295	1	3
612.634	1	-7
612.974	1	-5
613.313	1	4
613.652	1	4
613.992	1	3
614.331	1	-12
614.671	1	9
615.010	1	0
615.349	1	4
615.689	1	12
616.028	1	-3
616.368	1	2
616.707	1	7
617.046	1	-7
617.386	1	-1
617.725	1	-2
618.064	1	4
618.404	1	2
618.743	1	6
619.082	1	13
619.422	1	-5
619.761	1	-2
620.100	1	-2
620.440	1	1
620.779	1	11
621.118	1	5
621.458	1	5
621.797	1	10
622.136	1	0
622.476	1	0
622.815	1	4
623.154	1	8
623.494	1	-3
623.833	1	2
624.172	1	1
624.511	1	8
624.851	1	-3
625.190	1	13
625.529	1	13
625.869	1	5
626.208	1	1
626.547	1	-3
626.886	1	0
627.226	1	7
627.565	1	-1
627.904	1	-8
628.243	1	-6
628.583	1	-9
628.922	1	-5
629.261	1	-2
629.600	1	0
629.940	1	-5
630.279	1	0
630.618	1	-1
630.957	1	1
631.297	1	-8
631.636	1	11
631.975	1	-5
632.314	1	3
632.653	1	14
632.993	1	-10
633.332	1	5
633.671	1	15
634.010	1	7
634.349	1	-5
634.689	1	10
635.028	1	8
635.367	1	1
635.706	1	6
636.045	1	5
636.384	1	-3
636.724	1	11
637.063	1	0
637.402	1	13
637.741	1	-1
638.080	1	8
638.419	1	-2
638.759	1	3
639.098	1	-3
639.437	1	-8
639.776	1	1
640.115	1	6
640.454	1	3
640.793	1	1
641.132	1	5
641.472	1	-4
641.811	1	7
642.150	1	2
642.489	1	-3
642.828	1	10
643.167	1	5
643.506	1	14
643.845	1	7
644.184	1	10
644.524	1	0
644.863	1	-11
645.202	1	18
645.541	1	9
645.880	1	7
646.219	1	-4
646.558	1	4
646.897	1	5
647.236	1	5
647.575	1	3
647.914	1	3
648.253	1	-5
648.592	1	7
648.931	1	-5
649.270	1	1
649.610	1	10
649.949	1	7
650.288	1	2
650.627	1	-9
650.966	1	9
651.305	1	-6
651.644	1	1
651.983	1	8
652.322	1	5
652.661	1	3
653.000	1	-1
653.339	1	0
653.678	1	3
654.017	1	8
654.356	1	6
654.695	1	7
655.034	1	0
655.373	1	12
655.712	1	-1
656.051	1	1
656.390	1	-10
656.729	1	7
657.068	1	6
657.406	1	1
657.745	1	9
658.084	1	3
658.423	1	2
658.762	1	4
659.101	1	8
659.440	1	5
659.779	1	4
660.118	1	11
660.457	1	9
660.796	1	1
661.135	1	-5
661.474	1	13
661.813	1	-1
662.152	1	-2
662.491	1	-13
662.829	1	3
663.168	1	-1
663.507	1	-1
663.846	1	4
664.185	1	0
664.524	1	3
664.863	1	1
665.202	1	11
665.541	1	-2
665.879	1	2
666.218	1	16
666.557	1	1
666.896	1	-3
667.235	1	8
667.574	1	-11
667.913	1	-7
668.251	1	3
668.590	1	4
668.929	1	5
669.268	1	-5
669.607	1	4
669.946	1	2
670.285	1	10
670.623	1	-4
670.962	1	-2
671.301	1	1
671.640	1	3
671.979	1	7
672.317	1	4
672.656	1	-2
672.995	1	-8
673.334	1	-2
673.673	1	8
674.011	1	6
674.350	1	8
674.689	1	7
675.028	1	3
675.367	1	-3
675.705	1	7
676.044	1	6
676.383	1	4
676.722	1	11
677.060	1	-4
677.399	1	-3
677.738	1	2
678.077	1	12
678.416	1	5
678.754	1	-7
679.093	1	10
679.432	1	10
679.771	1	6
680.109	1	8
680.448	1	4
680.787	1	2
681.125	1	14
681.464	1	12
681.803	1	20
682.142	1	5
682.480	1	5
682.819	1	16
683.158	1	2
683.496	1	8
683.835	1	-8
684.174	1	0
684.512	1	-6
684.851	1	1
685.190	1	0
685.529	1	17
685.867	1	8
686.206	1	6
686.545	1	15
686.883	1	2
687.222	1	0
687.561	1	5
687.899	1	-13
688.238	1	4
688.577	1	6
688.746	1	-8