File: Data/GaN_170K_550ms/GaN_sample D_spot 18_UVVIS_170 K_200um_550 ms 2x2mm1_351.txt
340.368	1	-5
340.710	1	-4
341.052	1	3
341.394	1	-3
341.737	1	1
342.079	1	3
342.421	1	2
342.763	1	-1
343.105	1	10
343.447	1	-16
343.789	1	6
344.131	1	2
344.473	1	1
344.815	1	7
345.157	1	-7
345.499	1	-5
345.841	1	-1
346.183	1	2
346.526	1	3
346.868	1	4
347.210	1	-13
347.552	1	0
347.894	1	8
348.236	1	-8
348.578	1	2
348.920	1	-5
349.262	1	6
349.604	1	11
349.946	1	4
350.288	1	1
350.630	1	2
350.972	1	-6
351.314	1	3
351.656	1	-3
351.998	1	2
352.340	1	-5
352.682	1	2
353.024	1	-7
353.366	1	-2
353.708	1	4
354.050	1	-5
354.392	1	-2
354.734	1	2
355.076	1	0
355.418	1	-5
355.760	1	-2
356.102	1	12
356.444	1	-8
356.785	1	-3
357.127	1	2
357.469	1	-1
357.811	1	-5
358.153	1	-7
358.495	1	4
358.837	1	-2
359.179	1	-9
359.521	1	2
359.863	1	-1
360.205	1	5
360.547	1	7
360.889	1	9
361.231	1	3
361.572	1	16
361.914	1	4
362.256	1	1
362.598	1	5
362.940	1	11
363.282	1	5
363.624	1	9
363.966	1	-4
364.308	1	3
364.649	1	-6
364.991	1	10
365.333	1	3
365.675	1	9
366.017	1	10
366.359	1	0
366.701	1	7
367.042	1	-3
367.384	1	9
367.726	1	7
368.068	1	12
368.410	1	16
368.752	1	8
369.093	1	-4
369.435	1	-3
369.777	1	2
370.119	1	3
370.461	1	11
370.803	1	-2
371.144	1	-4
371.486	1	-3
371.828	1	6
372.170	1	6
372.512	1	1
372.853	1	11
373.195	1	7
373.537	1	16
373.879	1	7
374.220	1	15
374.562	1	-7
374.904	1	7
375.246	1	-2
375.588	1	-2
375.929	1	6
376.271	1	10
376.613	1	3
376.955	1	5
377.296	1	2
377.638	1	2
377.980	1	-9
378.321	1	6
378.663	1	-4
379.005	1	0
379.347	1	4
379.688	1	5
380.030	1	6
380.372	1	6
380.714	1	2
381.055	1	2
381.397	1	5
381.739	1	-1
382.080	1	-8
382.422	1	8
382.764	1	5
383.105	1	2
383.447	1	9
383.789	1	8
384.130	1	-8
384.472	1	-4
384.814	1	6
385.156	1	-5
385.497	1	3
385.839	1	-2
386.180	1	7
386.522	1	8
386.864	1	6
387.205	1	-5
387.547	1	0
387.889	1	2
388.230	1	-12
388.572	1	3
388.914	1	-1
389.255	1	3
389.597	1	2
389.939	1	1
390.280	1	0
390.622	1	0
390.963	1	0
391.305	1	2
391.647	1	-10
391.988	1	9
392.330	1	3
392.671	1	-1
393.013	1	6
393.355	1	5
393.696	1	14
394.038	1	-3
394.379	1	-7
394.721	1	-9
395.062	1	-6
395.404	1	1
395.746	1	8
396.087	1	7
396.429	1	0
396.770	1	0
397.112	1	-6
397.453	1	6
397.795	1	-5
398.136	1	-1
398.478	1	3
398.819	1	-4
399.161	1	-1
399.503	1	0
399.844	1	-5
400.186	1	-17
400.527	1	8
400.869	1	1
401.210	1	5
401.552	1	6
401.893	1	5
402.235	1	3
402.576	1	-2
402.918	1	-3
403.259	1	7
403.601	1	20
403.942	1	4
404.284	1	-8
404.625	1	-1
404.967	1	-3
405.308	1	0
405.649	1	2
405.991	1	2
406.332	1	-11
406.674	1	1
407.015	1	11
407.357	1	-4
407.698	1	0
408.040	1	2
408.381	1	6
408.722	1	-9
409.064	1	-2
409.405	1	12
409.747	1	-1
410.088	1	6
410.430	1	-3
410.771	1	2
411.112	1	4
411.454	1	-1
411.795	1	9
412.137	1	-10
412.478	1	-2
412.819	1	-5
413.161	1	2
413.502	1	7
413.844	1	13
414.185	1	-4
414.526	1	7
414.868	1	0
415.209	1	-19
415.550	1	1
415.892	1	-1
416.233	1	-2
416.575	1	-8
416.916	1	-7
417.257	1	2
417.599	1	-2
417.940	1	3
418.281	1	-11
418.623	1	3
418.964	1	-1
419.305	1	1
419.647	1	-2
419.988	1	2
420.329	1	2
420.671	1	-7
421.012	1	1
421.353	1	1
421.695	1	-11
422.036	1	-6
422.377	1	4
422.718	1	12
423.060	1	0
423.401	1	2
423.742	1	-1
424.084	1	4
424.425	1	-4
424.766	1	-9
425.107	1	3
425.449	1	-7
425.790	1	-3
426.131	1	11
426.472	1	7
426.814	1	-9
427.155	1	11
427.496	1	-6
427.837	1	3
428.179	1	-2
428.520	1	-4
428.861	1	-1
429.202	1	-1
429.544	1	-1
429.885	1	-2
430.226	1	2
430.567	1	4
430.909	1	0
431.250	1	13
431.591	1	3
431.932	1	-6
432.273	1	-3
432.615	1	0
432.956	1	0
433.297	1	-1
433.638	1	8
433.979	1	1
434.320	1	5
434.662	1	-12
435.003	1	-9
435.344	1	1
435.685	1	-5
436.026	1	-6
436.368	1	3
436.709	1	-2
437.050	1	-6
437.391	1	-8
437.732	1	8
438.073	1	-3
438.414	1	-1
438.756	1	-3
439.097	1	8
439.438	1	0
439.779	1	5
440.120	1	-10
440.461	1	12
440.802	1	11
441.143	1	1
441.485	1	-5
441.826	1	9
442.167	1	-1
442.508	1	-4
442.849	1	-6
443.190	1	3
443.531	1	-2
443.872	1	0
444.213	1	-7
444.554	1	3
444.895	1	-18
445.237	1	-4
445.578	1	6
445.919	1	6
446.260	1	6
446.601	1	-9
446.942	1	2
447.283	1	8
447.624	1	-1
447.965	1	0
448.306	1	-2
448.647	1	4
448.988	1	5
449.329	1	-2
449.670	1	-15
450.011	1	1
450.352	1	1
450.693	1	-3
451.034	1	0
451.375	1	-2
451.716	1	8
452.057	1	-5
452.398	1	3
452.739	1	-4
453.080	1	-1
453.421	1	2
453.762	1	-1
454.103	1	-4
454.444	1	1
454.785	1	-3
455.126	1	6
455.467	1	-6
455.808	1	4
456.149	1	-1
456.490	1	3
456.831	1	-7
457.172	1	5
457.513	1	7
457.854	1	9
458.195	1	-7
458.536	1	-1
458.877	1	10
459.218	1	-9
459.559	1	5
459.899	1	5
460.240	1	-6
460.581	1	2
460.922	1	-8
461.263	1	2
461.604	1	8
461.945	1	0
462.286	1	-8
462.627	1	-4
462.968	1	6
463.309	1	7
463.649	1	0
463.990	1	-2
464.331	1	2
464.672	1	-6
465.013	1	5
465.354	1	-12
465.695	1	1
466.036	1	-9
466.376	1	8
466.717	1	-7
467.058	1	5
467.399	1	5
467.740	1	1
468.081	1	-1
468.422	1	12
468.762	1	8
469.103	1	2
469.444	1	2
469.785	1	0
470.126	1	2
470.467	1	5
470.807	1	-2
471.148	1	-8
471.489	1	-5
471.830	1	-3
472.171	1	5
472.511	1	-2
472.852	1	3
473.193	1	11
473.534	1	12
473.875	1	-6
474.215	1	1
474.556	1	-1
474.897	1	-4
475.238	1	-5
475.578	1	2
475.919	1	9
476.260	1	-1
476.601	1	4
476.942	1	-1
477.282	1	16
477.623	1	11
477.964	1	9
478.305	1	-10
478.645	1	1
478.986	1	-9
479.327	1	-11
479.667	1	-5
480.008	1	6
480.349	1	2
480.690	1	3
481.030	1	4
481.371	1	3
481.712	1	0
482.053	1	-10
482.393	1	0
482.734	1	1
483.075	1	0
483.415	1	4
483.756	1	-3
484.097	1	-5
484.437	1	-3
484.778	1	-13
485.119	1	1
485.459	1	-13
485.800	1	-9
486.141	1	10
486.481	1	3
486.822	1	3
487.163	1	1
487.503	1	-4
487.844	1	5
488.185	1	5
488.525	1	6
488.866	1	8
489.207	1	9
489.547	1	4
489.888	1	-3
490.228	1	-8
490.569	1	0
490.910	1	-2
491.250	1	9
491.591	1	7
491.932	1	-4
492.272	1	2
492.613	1	6
492.953	1	-2
493.294	1	-2
493.635	1	-2
493.975	1	2
494.316	1	-4
494.656	1	-1
494.997	1	6
495.337	1	5
495.678	1	1
496.019	1	-13
496.359	1	5
496.700	1	10
497.040	1	4
497.381	1	6
497.721	1	-2
498.062	1	-2
498.403	1	4
498.743	1	8
499.084	1	8
499.424	1	6
499.765	1	-10
500.105	1	-10
500.446	1	4
500.786	1	-1
501.127	1	-4
501.467	1	-6
501.808	1	-4
502.148	1	11
502.489	1	-6
502.829	1	-10
503.170	1	6
503.510	1	-5
503.851	1	-2
504.191	1	2
504.532	1	-10
504.872	1	14
505.213	1	-2
505.553	1	6
505.894	1	3
506.234	1	0
506.575	1	2
506.915	1	7
507.256	1	-1
507.596	1	-7
507.936	1	16
508.277	1	-3
508.617	1	14
508.958	1	4
509.298	1	1
509.639	1	8
509.979	1	2
510.319	1	0
510.660	1	-11
511.000	1	-2
511.341	1	8
511.681	1	-2
512.022	1	4
512.362	1	3
512.702	1	-5
513.043	1	-9
513.383	1	-3
513.724	1	0
514.064	1	0
514.404	1	-12
514.745	1	-4
515.085	1	7
515.425	1	10
515.766	1	3
516.106	1	9
516.447	1	-1
516.787	1	8
517.127	1	9
517.468	1	0
517.808	1	10
518.148	1	-6
518.489	1	6
518.829	1	2
519.169	1	-3
519.510	1	3
519.850	1	1
520.190	1	3
520.531	1	4
520.871	1	-2
521.211	1	2
521.552	1	-7
521.892	1	9
522.232	1	2
522.573	1	11
522.913	1	2
523.253	1	11
523.593	1	5
523.934	1	4
524.274	1	1
524.614	1	0
524.955	1	-1
525.295	1	1
525.635	1	7
525.975	1	-5
526.316	1	10
526.656	1	12
526.996	1	1
527.337	1	2
527.677	1	-9
528.017	1	0
528.357	1	-7
528.698	1	1
529.038	1	-6
529.378	1	2
529.718	1	8
530.058	1	5
530.399	1	3
530.739	1	-3
531.079	1	-5
531.419	1	7
531.760	1	5
532.100	1	-6
532.440	1	7
532.780	1	-5
533.120	1	14
533.461	1	-5
533.801	1	6
534.141	1	-7
534.481	1	13
534.821	1	13
535.162	1	4
535.502	1	5
535.842	1	2
536.182	1	2
536.522	1	1
536.862	1	7
537.203	1	5
537.543	1	-3
537.883	1	6
538.223	1	-2
538.563	1	3
538.903	1	11
539.243	1	-6
539.584	1	1
539.924	1	-1
540.264	1	6
540.604	1	0
540.944	1	-6
541.284	1	1
541.624	1	-1
541.964	1	1
542.305	1	6
542.645	1	-5
542.985	1	8
543.325	1	3
543.665	1	-2
544.005	1	6
544.345	1	-3
544.685	1	3
545.025	1	-12
545.365	1	-3
545.705	1	10
546.045	1	0
546.386	1	5
546.726	1	-1
547.066	1	2
547.406	1	1
547.746	1	-4
548.086	1	-1
548.426	1	9
548.766	1	1
549.106	1	3
549.446	1	-3
549.786	1	-4
550.126	1	5
550.466	1	-3
550.806	1	1
551.146	1	1
551.486	1	-2
551.826	1	4
552.166	1	3
552.506	1	-3
552.846	1	-5
553.186	1	3
553.526	1	-4
553.866	1	-6
554.206	1	4
554.546	1	-2
554.886	1	-1
555.226	1	-1
555.566	1	-5
555.906	1	-1
556.246	1	-3
556.586	1	-1
556.926	1	0
557.266	1	-4
557.606	1	3
557.946	1	6
558.286	1	6
558.626	1	15
558.966	1	-1
559.306	1	5
559.646	1	-8
559.986	1	4
560.325	1	-4
560.665	1	1
561.005	1	-2
561.345	1	2
561.685	1	-3
562.025	1	-4
562.365	1	7
562.705	1	0
563.045	1	-3
563.385	1	-2
563.725	1	-2
564.064	1	8
564.404	1	4
564.744	1	-4
565.084	1	-3
565.424	1	-10
565.764	1	1
566.104	1	6
566.444	1	5
566.783	1	1
567.123	1	5
567.463	1	-1
567.803	1	-1
568.143	1	-4
568.483	1	5
568.823	1	5
569.162	1	15
569.502	1	1
569.842	1	-2
570.182	1	0
570.522	1	-3
570.862	1	-1
571.201	1	7
571.541	1	5
571.881	1	3
572.221	1	10
572.561	1	6
572.900	1	8
573.240	1	2
573.580	1	-9
573.920	1	13
574.260	1	3
574.599	1	-5
574.939	1	-8
575.279	1	-1
575.619	1	9
575.959	1	-8
576.298	1	9
576.638	1	2
576.978	1	-7
577.318	1	2
577.657	1	2
577.997	1	-3
578.337	1	-2
578.677	1	-2
579.016	1	-2
579.356	1	1
579.696	1	-5
580.036	1	-5
580.375	1	1
580.715	1	2
581.055	1	2
581.394	1	3
581.734	1	3
582.074	1	4
582.414	1	-9
582.753	1	3
583.093	1	3
583.433	1	8
583.772	1	-1
584.112	1	2
584.452	1	-6
584.791	1	-3
585.131	1	12
585.471	1	7
585.811	1	-10
586.150	1	0
586.490	1	7
586.830	1	-4
587.169	1	8
587.509	1	-1
587.849	1	-1
588.188	1	3
588.528	1	-3
588.867	1	-4
589.207	1	7
589.547	1	9
589.886	1	-12
590.226	1	-4
590.566	1	2
590.905	1	8
591.245	1	3
591.585	1	-4
591.924	1	1
592.264	1	-11
592.603	1	4
592.943	1	4
593.283	1	8
593.622	1	-6
593.962	1	10
594.301	1	11
594.641	1	2
594.981	1	10
595.320	1	-8
595.660	1	5
595.999	1	3
596.339	1	2
596.678	1	-3
597.018	1	2
597.358	1	-6
597.697	1	-1
598.037	1	1
598.376	1	-2
598.716	1	5
599.055	1	0
599.395	1	-10
599.734	1	15
600.074	1	4
600.413	1	-1
600.753	1	8
601.092	1	-8
601.432	1	-11
601.771	1	8
602.111	1	2
602.451	1	3
602.790	1	6
603.130	1	-8
603.469	1	0
603.809	1	9
604.148	1	5
604.487	1	8
604.827	1	-2
605.166	1	12
605.506	1	1
605.845	1	1
606.185	1	5
606.524	1	4
606.864	1	-5
607.203	1	-1
607.543	1	6
607.882	1	-1
608.222	1	3
608.561	1	12
608.901	1	3
609.240	1	-7
609.579	1	1
609.919	1	2
610.258	1	5
610.598	1	-2
610.937	1	-2
611.277	1	12
611.616	1	-1
611.955	1	5
612.295	1	-4
612.634	1	-9
612.974	1	0
613.313	1	2
613.652	1	13
613.992	1	-10
614.331	1	0
614.671	1	7
615.010	1	2
615.349	1	-2
615.689	1	14
616.028	1	2
616.368	1	-3
616.707	1	12
617.046	1	3
617.386	1	-8
617.725	1	2
618.064	1	-2
618.404	1	-3
618.743	1	7
619.082	1	0
619.422	1	-6
619.761	1	2
620.100	1	4
620.440	1	2
620.779	1	0
621.118	1	-8
621.458	1	-10
621.797	1	0
622.136	1	4
622.476	1	-6
622.815	1	1
623.154	1	8
623.494	1	-6
623.833	1	0
624.172	1	-5
624.511	1	3
624.851	1	-1
625.190	1	7
625.529	1	11
625.869	1	1
626.208	1	6
626.547	1	-5
626.886	1	3
627.226	1	2
627.565	1	5
627.904	1	-5
628.243	1	-3
628.583	1	-3
628.922	1	-1
629.261	1	1
629.600	1	-7
629.940	1	-6
630.279	1	-14
630.618	1	-8
630.957	1	-1
631.297	1	-3
631.636	1	8
631.975	1	-4
632.314	1	8
632.653	1	6
632.993	1	-1
633.332	1	-4
633.671	1	6
634.010	1	1
634.349	1	-9
634.689	1	7
635.028	1	8
635.367	1	1
635.706	1	1
636.045	1	9
636.384	1	-10
636.724	1	8
637.063	1	-3
637.402	1	9
637.741	1	-3
638.080	1	13
638.419	1	-4
638.759	1	1
639.098	1	-2
639.437	1	-8
639.776	1	-3
640.115	1	1
640.454	1	-8
640.793	1	-7
641.132	1	-2
641.472	1	-2
641.811	1	6
642.150	1	-4
642.489	1	-3
642.828	1	3
643.167	1	-9
643.506	1	10
643.845	1	-3
644.184	1	4
644.524	1	-1
644.863	1	-10
645.202	1	13
645.541	1	6
645.880	1	9
646.219	1	1
646.558	1	6
646.897	1	12
647.236	1	-2
647.575	1	4
647.914	1	-3
648.253	1	2
648.592	1	3
648.931	1	8
649.270	1	0
649.610	1	1
649.949	1	-2
650.288	1	-4
650.627	1	-1
650.966	1	4
651.305	1	-8
651.644	1	5
651.983	1	-2
652.322	1	3
652.661	1	0
653.000	1	-4
653.339	1	3
653.678	1	-6
654.017	1	-3
654.356	1	-1
654.695	1	7
655.034	1	-4
655.373	1	8
655.712	1	-12
656.051	1	4
656.390	1	3
656.729	1	-1
657.068	1	7
657.406	1	-3
657.745	1	10
658.084	1	-7
658.423	1	8
658.762	1	-5
659.101	1	2
659.440	1	-1
659.779	1	1
660.118	1	6
660.457	1	7
660.796	1	-10
661.135	1	-11
661.474	1	2
661.813	1	-5
662.152	1	-9
662.491	1	-9
662.829	1	3
663.168	1	1
663.507	1	9
663.846	1	1
664.185	1	4
664.524	1	10
664.863	1	4
665.202	1	13
665.541	1	0
665.879	1	16
666.218	1	9
666.557	1	-1
666.896	1	-4
667.235	1	0
667.574	1	-13
667.913	1	-9
668.251	1	4
668.590	1	0
668.929	1	6
669.268	1	2
669.607	1	-2
669.946	1	7
670.285	1	14
670.623	1	-3
670.962	1	-4
671.301	1	0
671.640	1	10
671.979	1	4
672.317	1	5
672.656	1	4
672.995	1	-6
673.334	1	-5
673.673	1	-1
674.011	1	5
674.350	1	-2
674.689	1	-7
675.028	1	-5
675.367	1	-6
675.705	1	14
676.044	1	7
676.383	1	5
676.722	1	5
677.060	1	-8
677.399	1	3
677.738	1	0
678.077	1	11
678.416	1	-15
678.754	1	4
679.093	1	3
679.432	1	2
679.771	1	0
680.109	1	2
680.448	1	1
680.787	1	-11
681.125	1	6
681.464	1	9
681.803	1	7
682.142	1	0
682.480	1	2
682.819	1	7
683.158	1	-8
683.496	1	1
683.835	1	-14
684.174	1	-2
684.512	1	1
684.851	1	2
685.190	1	1
685.529	1	8
685.867	1	-1
686.206	1	7
686.545	1	2
686.883	1	2
687.222	1	-10
687.561	1	-3
687.899	1	-1
688.238	1	5
688.577	1	14
688.746	1	-10