File: Data/GaN_170K_550ms/GaN_sample D_spot 18_UVVIS_170 K_200um_550 ms 2x2mm1_317.txt
340.368	1	-5
340.710	1	-13
341.052	1	2
341.394	1	-7
341.737	1	-1
342.079	1	-2
342.421	1	4
342.763	1	3
343.105	1	12
343.447	1	-10
343.789	1	5
344.131	1	-8
344.473	1	1
344.815	1	12
345.157	1	-3
345.499	1	-3
345.841	1	4
346.183	1	-1
346.526	1	5
346.868	1	3
347.210	1	1
347.552	1	9
347.894	1	-2
348.236	1	-2
348.578	1	9
348.920	1	-6
349.262	1	-1
349.604	1	3
349.946	1	9
350.288	1	2
350.630	1	9
350.972	1	-11
351.314	1	-3
351.656	1	-9
351.998	1	3
352.340	1	2
352.682	1	2
353.024	1	-5
353.366	1	-3
353.708	1	14
354.050	1	-4
354.392	1	3
354.734	1	11
355.076	1	6
355.418	1	-4
355.760	1	-4
356.102	1	-5
356.444	1	-2
356.785	1	2
357.127	1	-1
357.469	1	-5
357.811	1	-4
358.153	1	-1
358.495	1	-4
358.837	1	1
359.179	1	-2
359.521	1	3
359.863	1	1
360.205	1	1
360.547	1	-3
360.889	1	8
361.231	1	7
361.572	1	11
361.914	1	-5
362.256	1	0
362.598	1	7
362.940	1	15
363.282	1	1
363.624	1	5
363.966	1	1
364.308	1	3
364.649	1	-10
364.991	1	11
365.333	1	4
365.675	1	7
366.017	1	3
366.359	1	-1
366.701	1	8
367.042	1	4
367.384	1	12
367.726	1	10
368.068	1	10
368.410	1	17
368.752	1	19
369.093	1	-1
369.435	1	9
369.777	1	6
370.119	1	-3
370.461	1	13
370.803	1	7
371.144	1	-5
371.486	1	-2
371.828	1	3
372.170	1	9
372.512	1	4
372.853	1	13
373.195	1	8
373.537	1	18
373.879	1	8
374.220	1	8
374.562	1	-2
374.904	1	0
375.246	1	-1
375.588	1	3
375.929	1	-2
376.271	1	13
376.613	1	4
376.955	1	8
377.296	1	-1
377.638	1	11
377.980	1	-7
378.321	1	-2
378.663	1	2
379.005	1	-8
379.347	1	8
379.688	1	1
380.030	1	2
380.372	1	8
380.714	1	14
381.055	1	-1
381.397	1	3
381.739	1	-9
382.080	1	-6
382.422	1	2
382.764	1	4
383.105	1	11
383.447	1	13
383.789	1	10
384.130	1	0
384.472	1	-5
384.814	1	3
385.156	1	-7
385.497	1	9
385.839	1	-12
386.180	1	13
386.522	1	6
386.864	1	14
387.205	1	4
387.547	1	2
387.889	1	9
388.230	1	-7
388.572	1	4
388.914	1	-5
389.255	1	9
389.597	1	11
389.939	1	-2
390.280	1	0
390.622	1	-11
390.963	1	-3
391.305	1	1
391.647	1	-11
391.988	1	6
392.330	1	5
392.671	1	-2
393.013	1	-8
393.355	1	-2
393.696	1	5
394.038	1	-1
394.379	1	-6
394.721	1	-2
395.062	1	-7
395.404	1	10
395.746	1	9
396.087	1	5
396.429	1	10
396.770	1	5
397.112	1	5
397.453	1	-2
397.795	1	2
398.136	1	-4
398.478	1	1
398.819	1	-4
399.161	1	4
399.503	1	10
399.844	1	-10
400.186	1	1
400.527	1	18
400.869	1	4
401.210	1	2
401.552	1	-2
401.893	1	9
402.235	1	3
402.576	1	2
402.918	1	6
403.259	1	7
403.601	1	5
403.942	1	-2
404.284	1	-4
404.625	1	1
404.967	1	0
405.308	1	4
405.649	1	-4
405.991	1	5
406.332	1	-8
406.674	1	2
407.015	1	10
407.357	1	1
407.698	1	-7
408.040	1	8
408.381	1	-2
408.722	1	-8
409.064	1	3
409.405	1	-9
409.747	1	-2
410.088	1	6
410.430	1	1
410.771	1	-2
411.112	1	8
411.454	1	-4
411.795	1	13
412.137	1	-1
412.478	1	0
412.819	1	-7
413.161	1	1
413.502	1	4
413.844	1	7
414.185	1	4
414.526	1	-4
414.868	1	-5
415.209	1	-12
415.550	1	-2
415.892	1	4
416.233	1	11
416.575	1	1
416.916	1	-14
417.257	1	4
417.599	1	0
417.940	1	3
418.281	1	-11
418.623	1	-1
418.964	1	-4
419.305	1	5
419.647	1	8
419.988	1	2
420.329	1	0
420.671	1	-9
421.012	1	1
421.353	1	8
421.695	1	-3
422.036	1	-1
422.377	1	6
422.718	1	6
423.060	1	-7
423.401	1	-4
423.742	1	-4
424.084	1	6
424.425	1	2
424.766	1	-6
425.107	1	2
425.449	1	6
425.790	1	-3
426.131	1	6
426.472	1	4
426.814	1	-3
427.155	1	6
427.496	1	-1
427.837	1	3
428.179	1	5
428.520	1	-5
428.861	1	-1
429.202	1	1
429.544	1	-12
429.885	1	-1
430.226	1	-1
430.567	1	-3
430.909	1	4
431.250	1	3
431.591	1	-7
431.932	1	-14
432.273	1	6
432.615	1	2
432.956	1	-6
433.297	1	3
433.638	1	13
433.979	1	-3
434.320	1	11
434.662	1	-11
435.003	1	6
435.344	1	-7
435.685	1	4
436.026	1	-6
436.368	1	10
436.709	1	0
437.050	1	-10
437.391	1	2
437.732	1	5
438.073	1	1
438.414	1	-7
438.756	1	-6
439.097	1	-2
439.438	1	2
439.779	1	8
440.120	1	-8
440.461	1	10
440.802	1	7
441.143	1	-11
441.485	1	-7
441.826	1	11
442.167	1	6
442.508	1	-9
442.849	1	-5
443.190	1	4
443.531	1	-1
443.872	1	-10
444.213	1	2
444.554	1	6
444.895	1	-6
445.237	1	-7
445.578	1	10
445.919	1	8
446.260	1	4
446.601	1	4
446.942	1	-1
447.283	1	11
447.624	1	-7
447.965	1	4
448.306	1	-4
448.647	1	-6
448.988	1	7
449.329	1	1
449.670	1	-16
450.011	1	3
450.352	1	-11
450.693	1	-5
451.034	1	0
451.375	1	0
451.716	1	10
452.057	1	-12
452.398	1	0
452.739	1	3
453.080	1	0
453.421	1	11
453.762	1	3
454.103	1	-5
454.444	1	-1
454.785	1	-3
455.126	1	7
455.467	1	-12
455.808	1	11
456.149	1	8
456.490	1	-7
456.831	1	-13
457.172	1	-1
457.513	1	1
457.854	1	12
458.195	1	5
458.536	1	-5
458.877	1	-1
459.218	1	-5
459.559	1	0
459.899	1	1
460.240	1	4
460.581	1	8
460.922	1	3
461.263	1	-2
461.604	1	6
461.945	1	1
462.286	1	-6
462.627	1	2
462.968	1	11
463.309	1	6
463.649	1	0
463.990	1	-4
464.331	1	6
464.672	1	-1
465.013	1	12
465.354	1	-5
465.695	1	-3
466.036	1	-18
466.376	1	5
466.717	1	-5
467.058	1	4
467.399	1	6
467.740	1	2
468.081	1	2
468.422	1	9
468.762	1	11
469.103	1	0
469.444	1	5
469.785	1	-6
470.126	1	-4
470.467	1	0
470.807	1	-3
471.148	1	-1
471.489	1	5
471.830	1	2
472.171	1	4
472.511	1	-3
472.852	1	5
473.193	1	9
473.534	1	1
473.875	1	-1
474.215	1	2
474.556	1	-2
474.897	1	-3
475.238	1	-10
475.578	1	-1
475.919	1	1
476.260	1	10
476.601	1	0
476.942	1	-6
477.282	1	6
477.623	1	7
477.964	1	0
478.305	1	-4
478.645	1	-1
478.986	1	1
479.327	1	-4
479.667	1	-4
480.008	1	8
480.349	1	-1
480.690	1	1
481.030	1	2
481.371	1	5
481.712	1	6
482.053	1	-9
482.393	1	-8
482.734	1	11
483.075	1	2
483.415	1	2
483.756	1	2
484.097	1	-7
484.437	1	4
484.778	1	-15
485.119	1	0
485.459	1	-7
485.800	1	-2
486.141	1	11
486.481	1	5
486.822	1	5
487.163	1	6
487.503	1	-2
487.844	1	12
488.185	1	-5
488.525	1	-3
488.866	1	-1
489.207	1	11
489.547	1	4
489.888	1	5
490.228	1	-12
490.569	1	3
490.910	1	3
491.250	1	4
491.591	1	6
491.932	1	5
492.272	1	3
492.613	1	2
492.953	1	-2
493.294	1	-9
493.635	1	0
493.975	1	5
494.316	1	1
494.656	1	-5
494.997	1	-3
495.337	1	3
495.678	1	-4
496.019	1	-9
496.359	1	4
496.700	1	3
497.040	1	14
497.381	1	7
497.721	1	-8
498.062	1	-5
498.403	1	8
498.743	1	9
499.084	1	-5
499.424	1	5
499.765	1	-10
500.105	1	-12
500.446	1	-1
500.786	1	-4
501.127	1	-2
501.467	1	0
501.808	1	-2
502.148	1	13
502.489	1	9
502.829	1	4
503.170	1	7
503.510	1	9
503.851	1	3
504.191	1	-11
504.532	1	-16
504.872	1	6
505.213	1	-1
505.553	1	2
505.894	1	7
506.234	1	-8
506.575	1	0
506.915	1	-3
507.256	1	-3
507.596	1	8
507.936	1	11
508.277	1	-14
508.617	1	9
508.958	1	2
509.298	1	0
509.639	1	7
509.979	1	0
510.319	1	-7
510.660	1	-10
511.000	1	0
511.341	1	5
511.681	1	4
512.022	1	8
512.362	1	-6
512.702	1	-4
513.043	1	9
513.383	1	3
513.724	1	7
514.064	1	5
514.404	1	-9
514.745	1	1
515.085	1	3
515.425	1	3
515.766	1	7
516.106	1	8
516.447	1	3
516.787	1	6
517.127	1	11
517.468	1	4
517.808	1	11
518.148	1	8
518.489	1	12
518.829	1	-1
519.169	1	4
519.510	1	4
519.850	1	0
520.190	1	-5
520.531	1	6
520.871	1	-4
521.211	1	9
521.552	1	6
521.892	1	3
522.232	1	-2
522.573	1	6
522.913	1	6
523.253	1	5
523.593	1	9
523.934	1	-7
524.274	1	-3
524.614	1	4
524.955	1	-3
525.295	1	-12
525.635	1	6
525.975	1	5
526.316	1	3
526.656	1	11
526.996	1	4
527.337	1	-4
527.677	1	-3
528.017	1	8
528.357	1	0
528.698	1	-9
529.038	1	4
529.378	1	-2
529.718	1	22
530.058	1	10
530.399	1	1
530.739	1	-6
531.079	1	5
531.419	1	8
531.760	1	-1
532.100	1	-4
532.440	1	4
532.780	1	-7
533.120	1	8
533.461	1	-5
533.801	1	8
534.141	1	-6
534.481	1	10
534.821	1	3
535.162	1	5
535.502	1	8
535.842	1	0
536.182	1	-1
536.522	1	-4
536.862	1	17
537.203	1	7
537.543	1	-7
537.883	1	2
538.223	1	0
538.563	1	2
538.903	1	5
539.243	1	1
539.584	1	4
539.924	1	-3
540.264	1	15
540.604	1	4
540.944	1	-11
541.284	1	6
541.624	1	-6
541.964	1	7
542.305	1	-2
542.645	1	-4
542.985	1	7
543.325	1	5
543.665	1	1
544.005	1	17
544.345	1	-1
544.685	1	-5
545.025	1	1
545.365	1	5
545.705	1	7
546.045	1	-1
546.386	1	7
546.726	1	6
547.066	1	12
547.406	1	1
547.746	1	0
548.086	1	-7
548.426	1	11
548.766	1	4
549.106	1	13
549.446	1	-3
549.786	1	-6
550.126	1	-4
550.466	1	7
550.806	1	0
551.146	1	7
551.486	1	0
551.826	1	6
552.166	1	3
552.506	1	6
552.846	1	3
553.186	1	-6
553.526	1	-12
553.866	1	-14
554.206	1	11
554.546	1	-11
554.886	1	0
555.226	1	1
555.566	1	5
555.906	1	-10
556.246	1	6
556.586	1	1
556.926	1	4
557.266	1	4
557.606	1	-3
557.946	1	5
558.286	1	-1
558.626	1	13
558.966	1	6
559.306	1	9
559.646	1	-1
559.986	1	3
560.325	1	6
560.665	1	3
561.005	1	3
561.345	1	-6
561.685	1	2
562.025	1	-9
562.365	1	0
562.705	1	4
563.045	1	0
563.385	1	5
563.725	1	-9
564.064	1	7
564.404	1	-2
564.744	1	-7
565.084	1	-1
565.424	1	7
565.764	1	0
566.104	1	-4
566.444	1	8
566.783	1	4
567.123	1	0
567.463	1	3
567.803	1	1
568.143	1	-6
568.483	1	5
568.823	1	3
569.162	1	7
569.502	1	6
569.842	1	-9
570.182	1	-5
570.522	1	1
570.862	1	3
571.201	1	1
571.541	1	-3
571.881	1	0
572.221	1	4
572.561	1	1
572.900	1	1
573.240	1	5
573.580	1	-4
573.920	1	3
574.260	1	9
574.599	1	-4
574.939	1	6
575.279	1	-1
575.619	1	7
575.959	1	-13
576.298	1	16
576.638	1	5
576.978	1	-5
577.318	1	-2
577.657	1	-2
577.997	1	-1
578.337	1	5
578.677	1	4
579.016	1	2
579.356	1	2
579.696	1	-9
580.036	1	3
580.375	1	-7
580.715	1	8
581.055	1	9
581.394	1	-2
581.734	1	1
582.074	1	5
582.414	1	-11
582.753	1	-3
583.093	1	-8
583.433	1	4
583.772	1	-1
584.112	1	7
584.452	1	-6
584.791	1	-6
585.131	1	11
585.471	1	16
585.811	1	-7
586.150	1	-6
586.490	1	3
586.830	1	-3
587.169	1	12
587.509	1	-1
587.849	1	-2
588.188	1	4
588.528	1	-5
588.867	1	-5
589.207	1	-4
589.547	1	0
589.886	1	-8
590.226	1	5
590.566	1	1
590.905	1	9
591.245	1	5
591.585	1	-4
591.924	1	3
592.264	1	-8
592.603	1	2
592.943	1	3
593.283	1	3
593.622	1	-9
593.962	1	6
594.301	1	-4
594.641	1	9
594.981	1	12
595.320	1	-1
595.660	1	5
595.999	1	5
596.339	1	5
596.678	1	0
597.018	1	9
597.358	1	-12
597.697	1	-3
598.037	1	8
598.376	1	-5
598.716	1	-1
599.055	1	-4
599.395	1	1
599.734	1	4
600.074	1	4
600.413	1	-10
600.753	1	10
601.092	1	-8
601.432	1	-6
601.771	1	6
602.111	1	5
602.451	1	9
602.790	1	2
603.130	1	-2
603.469	1	7
603.809	1	1
604.148	1	4
604.487	1	-2
604.827	1	-3
605.166	1	7
605.506	1	-4
605.845	1	2
606.185	1	6
606.524	1	2
606.864	1	-2
607.203	1	-3
607.543	1	12
607.882	1	0
608.222	1	1
608.561	1	3
608.901	1	2
609.240	1	2
609.579	1	-1
609.919	1	-2
610.258	1	16
610.598	1	8
610.937	1	3
611.277	1	-10
611.616	1	-4
611.955	1	6
612.295	1	-1
612.634	1	-1
612.974	1	-2
613.313	1	2
613.652	1	7
613.992	1	-4
614.331	1	0
614.671	1	9
615.010	1	2
615.349	1	-4
615.689	1	4
616.028	1	6
616.368	1	-1
616.707	1	11
617.046	1	-6
617.386	1	-4
617.725	1	2
618.064	1	-7
618.404	1	6
618.743	1	7
619.082	1	12
619.422	1	-6
619.761	1	-2
620.100	1	-6
620.440	1	11
620.779	1	7
621.118	1	-6
621.458	1	0
621.797	1	4
622.136	1	-2
622.476	1	4
622.815	1	3
623.154	1	5
623.494	1	-6
623.833	1	3
624.172	1	-2
624.511	1	6
624.851	1	-8
625.190	1	-1
625.529	1	5
625.869	1	5
626.208	1	-3
626.547	1	1
626.886	1	11
627.226	1	-2
627.565	1	6
627.904	1	-9
628.243	1	-2
628.583	1	-9
628.922	1	3
629.261	1	4
629.600	1	-3
629.940	1	-4
630.279	1	3
630.618	1	-11
630.957	1	2
631.297	1	2
631.636	1	19
631.975	1	-4
632.314	1	2
632.653	1	0
632.993	1	-8
633.332	1	1
633.671	1	8
634.010	1	-2
634.349	1	-5
634.689	1	11
635.028	1	1
635.367	1	-1
635.706	1	-1
636.045	1	13
636.384	1	-9
636.724	1	8
637.063	1	6
637.402	1	11
637.741	1	-2
638.080	1	15
638.419	1	-13
638.759	1	-5
639.098	1	-6
639.437	1	-9
639.776	1	5
640.115	1	10
640.454	1	-7
640.793	1	1
641.132	1	1
641.472	1	-11
641.811	1	7
642.150	1	5
642.489	1	-2
642.828	1	-1
643.167	1	0
643.506	1	6
643.845	1	3
644.184	1	15
644.524	1	2
644.863	1	-2
645.202	1	4
645.541	1	4
645.880	1	-4
646.219	1	3
646.558	1	0
646.897	1	1
647.236	1	-3
647.575	1	-11
647.914	1	0
648.253	1	5
648.592	1	1
648.931	1	-7
649.270	1	0
649.610	1	5
649.949	1	0
650.288	1	-4
650.627	1	-5
650.966	1	2
651.305	1	-8
651.644	1	9
651.983	1	-2
652.322	1	3
652.661	1	4
653.000	1	0
653.339	1	-12
653.678	1	2
654.017	1	7
654.356	1	4
654.695	1	7
655.034	1	-5
655.373	1	-11
655.712	1	-9
656.051	1	-3
656.390	1	2
656.729	1	2
657.068	1	8
657.406	1	-1
657.745	1	9
658.084	1	-2
658.423	1	5
658.762	1	-11
659.101	1	-5
659.440	1	3
659.779	1	2
660.118	1	-4
660.457	1	13
660.796	1	0
661.135	1	-5
661.474	1	2
661.813	1	0
662.152	1	-5
662.491	1	-13
662.829	1	-9
663.168	1	3
663.507	1	8
663.846	1	-4
664.185	1	1
664.524	1	-2
664.863	1	-1
665.202	1	10
665.541	1	15
665.879	1	4
666.218	1	19
666.557	1	-1
666.896	1	2
667.235	1	-2
667.574	1	-1
667.913	1	-9
668.251	1	2
668.590	1	0
668.929	1	6
669.268	1	-7
669.607	1	-4
669.946	1	2
670.285	1	6
670.623	1	3
670.962	1	-3
671.301	1	-1
671.640	1	6
671.979	1	2
672.317	1	-1
672.656	1	4
672.995	1	-5
673.334	1	5
673.673	1	3
674.011	1	1
674.350	1	-3
674.689	1	1
675.028	1	6
675.367	1	15
675.705	1	2
676.044	1	14
676.383	1	11
676.722	1	19
677.060	1	-3
677.399	1	-1
677.738	1	-1
678.077	1	-1
678.416	1	-3
678.754	1	7
679.093	1	1
679.432	1	0
679.771	1	6
680.109	1	-5
680.448	1	4
680.787	1	-6
681.125	1	6
681.464	1	3
681.803	1	8
682.142	1	-2
682.480	1	1
682.819	1	7
683.158	1	-3
683.496	1	2
683.835	1	-4
684.174	1	-1
684.512	1	3
684.851	1	0
685.190	1	-4
685.529	1	8
685.867	1	7
686.206	1	7
686.545	1	6
686.883	1	0
687.222	1	0
687.561	1	-3
687.899	1	-4
688.238	1	-4
688.577	1	17
688.746	1	-9