File: Data/GaN_170K_550ms/GaN_sample D_spot 18_UVVIS_170 K_200um_550 ms 2x2mm1_325.txt
340.368	1	10
340.710	1	-13
341.052	1	-2
341.394	1	0
341.737	1	0
342.079	1	2
342.421	1	-2
342.763	1	-4
343.105	1	2
343.447	1	-11
343.789	1	0
344.131	1	0
344.473	1	-1
344.815	1	-1
345.157	1	0
345.499	1	-2
345.841	1	0
346.183	1	4
346.526	1	1
346.868	1	3
347.210	1	-7
347.552	1	1
347.894	1	0
348.236	1	2
348.578	1	-11
348.920	1	0
349.262	1	6
349.604	1	4
349.946	1	9
350.288	1	3
350.630	1	3
350.972	1	-4
351.314	1	12
351.656	1	-3
351.998	1	-2
352.340	1	4
352.682	1	-3
353.024	1	-3
353.366	1	-4
353.708	1	15
354.050	1	-5
354.392	1	3
354.734	1	5
355.076	1	-1
355.418	1	-6
355.760	1	-7
356.102	1	1
356.444	1	-1
356.785	1	5
357.127	1	2
357.469	1	1
357.811	1	2
358.153	1	7
358.495	1	-4
358.837	1	2
359.179	1	-9
359.521	1	7
359.863	1	5
360.205	1	15
360.547	1	-2
360.889	1	8
361.231	1	7
361.572	1	14
361.914	1	9
362.256	1	8
362.598	1	3
362.940	1	12
363.282	1	0
363.624	1	3
363.966	1	1
364.308	1	10
364.649	1	-2
364.991	1	8
365.333	1	0
365.675	1	16
366.017	1	8
366.359	1	4
366.701	1	-2
367.042	1	-2
367.384	1	9
367.726	1	21
368.068	1	5
368.410	1	17
368.752	1	9
369.093	1	-9
369.435	1	4
369.777	1	1
370.119	1	-1
370.461	1	9
370.803	1	4
371.144	1	3
371.486	1	-2
371.828	1	11
372.170	1	3
372.512	1	1
372.853	1	9
373.195	1	4
373.537	1	11
373.879	1	6
374.220	1	12
374.562	1	2
374.904	1	4
375.246	1	7
375.588	1	1
375.929	1	6
376.271	1	11
376.613	1	0
376.955	1	16
377.296	1	-2
377.638	1	2
377.980	1	-9
378.321	1	10
378.663	1	1
379.005	1	-4
379.347	1	5
379.688	1	6
380.030	1	10
380.372	1	5
380.714	1	14
381.055	1	2
381.397	1	-3
381.739	1	-8
382.080	1	0
382.422	1	1
382.764	1	-1
383.105	1	6
383.447	1	3
383.789	1	5
384.130	1	-3
384.472	1	-13
384.814	1	8
385.156	1	-2
385.497	1	9
385.839	1	-4
386.180	1	12
386.522	1	18
386.864	1	5
387.205	1	0
387.547	1	-2
387.889	1	9
388.230	1	3
388.572	1	1
388.914	1	2
389.255	1	6
389.597	1	3
389.939	1	-2
390.280	1	-2
390.622	1	0
390.963	1	7
391.305	1	2
391.647	1	-11
391.988	1	13
392.330	1	1
392.671	1	-7
393.013	1	-4
393.355	1	-1
393.696	1	3
394.038	1	-9
394.379	1	-4
394.721	1	7
395.062	1	-1
395.404	1	9
395.746	1	15
396.087	1	2
396.429	1	0
396.770	1	9
397.112	1	-1
397.453	1	10
397.795	1	-6
398.136	1	3
398.478	1	-6
398.819	1	3
399.161	1	-11
399.503	1	0
399.844	1	-6
400.186	1	-5
400.527	1	15
400.869	1	0
401.210	1	9
401.552	1	-4
401.893	1	9
402.235	1	6
402.576	1	-6
402.918	1	-3
403.259	1	-7
403.601	1	11
403.942	1	17
404.284	1	-10
404.625	1	2
404.967	1	-4
405.308	1	3
405.649	1	4
405.991	1	5
406.332	1	-5
406.674	1	4
407.015	1	3
407.357	1	0
407.698	1	8
408.040	1	-2
408.381	1	2
408.722	1	-6
409.064	1	-2
409.405	1	0
409.747	1	-1
410.088	1	2
410.430	1	-3
410.771	1	-1
411.112	1	-5
411.454	1	0
411.795	1	14
412.137	1	-10
412.478	1	-3
412.819	1	-13
413.161	1	5
413.502	1	5
413.844	1	7
414.185	1	-2
414.526	1	5
414.868	1	3
415.209	1	-13
415.550	1	-2
415.892	1	6
416.233	1	0
416.575	1	4
416.916	1	-3
417.257	1	4
417.599	1	2
417.940	1	2
418.281	1	-5
418.623	1	-1
418.964	1	-1
419.305	1	-4
419.647	1	-2
419.988	1	6
420.329	1	4
420.671	1	-5
421.012	1	4
421.353	1	4
421.695	1	-8
422.036	1	7
422.377	1	-3
422.718	1	8
423.060	1	-3
423.401	1	1
423.742	1	-8
424.084	1	16
424.425	1	-7
424.766	1	-4
425.107	1	-4
425.449	1	5
425.790	1	0
426.131	1	3
426.472	1	-4
426.814	1	-4
427.155	1	10
427.496	1	-2
427.837	1	3
428.179	1	0
428.520	1	1
428.861	1	6
429.202	1	-13
429.544	1	-4
429.885	1	5
430.226	1	4
430.567	1	-4
430.909	1	6
431.250	1	10
431.591	1	4
431.932	1	-6
432.273	1	0
432.615	1	-1
432.956	1	1
433.297	1	-6
433.638	1	5
433.979	1	6
434.320	1	-3
434.662	1	-17
435.003	1	2
435.344	1	-5
435.685	1	1
436.026	1	-8
436.368	1	3
436.709	1	-4
437.050	1	-14
437.391	1	-11
437.732	1	2
438.073	1	-2
438.414	1	-6
438.756	1	-6
439.097	1	5
439.438	1	3
439.779	1	2
440.120	1	-8
440.461	1	16
440.802	1	5
441.143	1	1
441.485	1	0
441.826	1	5
442.167	1	5
442.508	1	-4
442.849	1	-1
443.190	1	0
443.531	1	2
443.872	1	1
444.213	1	-4
444.554	1	-1
444.895	1	-7
445.237	1	1
445.578	1	8
445.919	1	2
446.260	1	0
446.601	1	-1
446.942	1	5
447.283	1	9
447.624	1	0
447.965	1	0
448.306	1	7
448.647	1	2
448.988	1	12
449.329	1	4
449.670	1	-11
450.011	1	14
450.352	1	-5
450.693	1	-6
451.034	1	-1
451.375	1	3
451.716	1	8
452.057	1	-1
452.398	1	1
452.739	1	5
453.080	1	-4
453.421	1	-1
453.762	1	2
454.103	1	4
454.444	1	-3
454.785	1	-1
455.126	1	7
455.467	1	-16
455.808	1	11
456.149	1	-11
456.490	1	4
456.831	1	-4
457.172	1	-11
457.513	1	6
457.854	1	7
458.195	1	2
458.536	1	-4
458.877	1	2
459.218	1	-3
459.559	1	0
459.899	1	4
460.240	1	8
460.581	1	4
460.922	1	-6
461.263	1	-1
461.604	1	12
461.945	1	3
462.286	1	-7
462.627	1	6
462.968	1	14
463.309	1	9
463.649	1	-4
463.990	1	-3
464.331	1	4
464.672	1	-6
465.013	1	6
465.354	1	-5
465.695	1	-1
466.036	1	-7
466.376	1	12
466.717	1	1
467.058	1	0
467.399	1	5
467.740	1	-4
468.081	1	-7
468.422	1	-1
468.762	1	3
469.103	1	2
469.444	1	-7
469.785	1	-6
470.126	1	5
470.467	1	5
470.807	1	10
471.148	1	-6
471.489	1	6
471.830	1	-7
472.171	1	8
472.511	1	-1
472.852	1	4
473.193	1	3
473.534	1	10
473.875	1	-7
474.215	1	-1
474.556	1	-1
474.897	1	6
475.238	1	-3
475.578	1	0
475.919	1	6
476.260	1	-3
476.601	1	-4
476.942	1	-1
477.282	1	11
477.623	1	6
477.964	1	-5
478.305	1	2
478.645	1	-2
478.986	1	4
479.327	1	-8
479.667	1	-2
480.008	1	8
480.349	1	-5
480.690	1	6
481.030	1	6
481.371	1	-4
481.712	1	4
482.053	1	-8
482.393	1	-6
482.734	1	10
483.075	1	4
483.415	1	0
483.756	1	0
484.097	1	-5
484.437	1	2
484.778	1	-6
485.119	1	4
485.459	1	-5
485.800	1	-2
486.141	1	9
486.481	1	4
486.822	1	2
487.163	1	0
487.503	1	5
487.844	1	3
488.185	1	4
488.525	1	2
488.866	1	-1
489.207	1	1
489.547	1	-4
489.888	1	0
490.228	1	-4
490.569	1	4
490.910	1	-8
491.250	1	-1
491.591	1	8
491.932	1	6
492.272	1	5
492.613	1	4
492.953	1	8
493.294	1	-5
493.635	1	-3
493.975	1	5
494.316	1	-9
494.656	1	5
494.997	1	-4
495.337	1	9
495.678	1	10
496.019	1	-4
496.359	1	4
496.700	1	13
497.040	1	7
497.381	1	4
497.721	1	-5
498.062	1	3
498.403	1	13
498.743	1	-7
499.084	1	-3
499.424	1	4
499.765	1	-8
500.105	1	2
500.446	1	-4
500.786	1	2
501.127	1	4
501.467	1	6
501.808	1	0
502.148	1	11
502.489	1	-2
502.829	1	0
503.170	1	7
503.510	1	6
503.851	1	1
504.191	1	-6
504.532	1	-14
504.872	1	13
505.213	1	6
505.553	1	5
505.894	1	4
506.234	1	-10
506.575	1	9
506.915	1	1
507.256	1	-4
507.596	1	-4
507.936	1	8
508.277	1	-10
508.617	1	5
508.958	1	-1
509.298	1	-5
509.639	1	9
509.979	1	2
510.319	1	-6
510.660	1	-4
511.000	1	11
511.341	1	5
511.681	1	0
512.022	1	6
512.362	1	1
512.702	1	-1
513.043	1	1
513.383	1	7
513.724	1	-2
514.064	1	8
514.404	1	-1
514.745	1	-7
515.085	1	1
515.425	1	-3
515.766	1	2
516.106	1	3
516.447	1	2
516.787	1	10
517.127	1	4
517.468	1	0
517.808	1	8
518.148	1	2
518.489	1	4
518.829	1	3
519.169	1	-1
519.510	1	6
519.850	1	3
520.190	1	-3
520.531	1	1
520.871	1	-1
521.211	1	4
521.552	1	2
521.892	1	7
522.232	1	3
522.573	1	-1
522.913	1	6
523.253	1	13
523.593	1	-3
523.934	1	6
524.274	1	3
524.614	1	11
524.955	1	0
525.295	1	-1
525.635	1	1
525.975	1	2
526.316	1	4
526.656	1	4
526.996	1	0
527.337	1	-4
527.677	1	-1
528.017	1	5
528.357	1	-8
528.698	1	-8
529.038	1	5
529.378	1	2
529.718	1	14
530.058	1	6
530.399	1	1
530.739	1	-3
531.079	1	8
531.419	1	9
531.760	1	-3
532.100	1	-7
532.440	1	4
532.780	1	1
533.120	1	1
533.461	1	-6
533.801	1	-2
534.141	1	5
534.481	1	4
534.821	1	4
535.162	1	-2
535.502	1	-1
535.842	1	5
536.182	1	4
536.522	1	3
536.862	1	3
537.203	1	2
537.543	1	-9
537.883	1	14
538.223	1	7
538.563	1	-5
538.903	1	-1
539.243	1	3
539.584	1	2
539.924	1	-1
540.264	1	0
540.604	1	0
540.944	1	1
541.284	1	3
541.624	1	5
541.964	1	2
542.305	1	3
542.645	1	-6
542.985	1	6
543.325	1	8
543.665	1	13
544.005	1	14
544.345	1	0
544.685	1	-1
545.025	1	2
545.365	1	5
545.705	1	8
546.045	1	-2
546.386	1	-5
546.726	1	-5
547.066	1	11
547.406	1	3
547.746	1	-3
548.086	1	-2
548.426	1	-6
548.766	1	4
549.106	1	4
549.446	1	3
549.786	1	6
550.126	1	1
550.466	1	1
550.806	1	-2
551.146	1	10
551.486	1	-3
551.826	1	2
552.166	1	-1
552.506	1	5
552.846	1	4
553.186	1	-3
553.526	1	-12
553.866	1	-9
554.206	1	-2
554.546	1	-9
554.886	1	-3
555.226	1	-6
555.566	1	-5
555.906	1	-2
556.246	1	3
556.586	1	-2
556.926	1	5
557.266	1	11
557.606	1	2
557.946	1	8
558.286	1	2
558.626	1	5
558.966	1	8
559.306	1	10
559.646	1	5
559.986	1	6
560.325	1	5
560.665	1	3
561.005	1	3
561.345	1	-4
561.685	1	0
562.025	1	-12
562.365	1	4
562.705	1	0
563.045	1	-2
563.385	1	9
563.725	1	-3
564.064	1	1
564.404	1	-4
564.744	1	-3
565.084	1	0
565.424	1	2
565.764	1	-6
566.104	1	0
566.444	1	3
566.783	1	5
567.123	1	3
567.463	1	-1
567.803	1	-1
568.143	1	2
568.483	1	6
568.823	1	1
569.162	1	1
569.502	1	1
569.842	1	-7
570.182	1	-3
570.522	1	-1
570.862	1	-1
571.201	1	9
571.541	1	-6
571.881	1	-16
572.221	1	4
572.561	1	4
572.900	1	-2
573.240	1	4
573.580	1	2
573.920	1	5
574.260	1	12
574.599	1	5
574.939	1	-7
575.279	1	3
575.619	1	4
575.959	1	-7
576.298	1	4
576.638	1	9
576.978	1	-1
577.318	1	3
577.657	1	-2
577.997	1	-5
578.337	1	3
578.677	1	4
579.016	1	7
579.356	1	10
579.696	1	-2
580.036	1	0
580.375	1	8
580.715	1	1
581.055	1	10
581.394	1	4
581.734	1	3
582.074	1	8
582.414	1	-5
582.753	1	1
583.093	1	-3
583.433	1	15
583.772	1	-1
584.112	1	0
584.452	1	-7
584.791	1	-3
585.131	1	11
585.471	1	-2
585.811	1	-3
586.150	1	-7
586.490	1	6
586.830	1	-3
587.169	1	10
587.509	1	-4
587.849	1	-2
588.188	1	5
588.528	1	2
588.867	1	-2
589.207	1	-3
589.547	1	9
589.886	1	2
590.226	1	3
590.566	1	3
590.905	1	4
591.245	1	-1
591.585	1	5
591.924	1	-3
592.264	1	-4
592.603	1	-2
592.943	1	7
593.283	1	2
593.622	1	-6
593.962	1	0
594.301	1	6
594.641	1	3
594.981	1	10
595.320	1	-4
595.660	1	2
595.999	1	3
596.339	1	7
596.678	1	-4
597.018	1	10
597.358	1	-7
597.697	1	-2
598.037	1	8
598.376	1	2
598.716	1	3
599.055	1	-7
599.395	1	-7
599.734	1	6
600.074	1	0
600.413	1	-14
600.753	1	14
601.092	1	-4
601.432	1	-4
601.771	1	8
602.111	1	2
602.451	1	1
602.790	1	3
603.130	1	-4
603.469	1	0
603.809	1	1
604.148	1	6
604.487	1	3
604.827	1	-2
605.166	1	5
605.506	1	2
605.845	1	4
606.185	1	3
606.524	1	2
606.864	1	-4
607.203	1	-2
607.543	1	7
607.882	1	7
608.222	1	-5
608.561	1	5
608.901	1	11
609.240	1	-4
609.579	1	1
609.919	1	-6
610.258	1	9
610.598	1	13
610.937	1	1
611.277	1	3
611.616	1	0
611.955	1	7
612.295	1	-6
612.634	1	-2
612.974	1	-2
613.313	1	0
613.652	1	20
613.992	1	3
614.331	1	6
614.671	1	6
615.010	1	5
615.349	1	6
615.689	1	5
616.028	1	-6
616.368	1	-6
616.707	1	7
617.046	1	-9
617.386	1	1
617.725	1	-2
618.064	1	-3
618.404	1	4
618.743	1	1
619.082	1	1
619.422	1	-7
619.761	1	-2
620.100	1	5
620.440	1	-3
620.779	1	3
621.118	1	-9
621.458	1	-4
621.797	1	4
622.136	1	2
622.476	1	-1
622.815	1	-5
623.154	1	4
623.494	1	-3
623.833	1	13
624.172	1	2
624.511	1	7
624.851	1	1
625.190	1	0
625.529	1	4
625.869	1	3
626.208	1	-2
626.547	1	1
626.886	1	5
627.226	1	10
627.565	1	0
627.904	1	6
628.243	1	2
628.583	1	-7
628.922	1	-8
629.261	1	4
629.600	1	2
629.940	1	-4
630.279	1	-5
630.618	1	-3
630.957	1	4
631.297	1	-7
631.636	1	4
631.975	1	-12
632.314	1	3
632.653	1	7
632.993	1	1
633.332	1	6
633.671	1	7
634.010	1	10
634.349	1	-6
634.689	1	10
635.028	1	-1
635.367	1	-3
635.706	1	-1
636.045	1	5
636.384	1	-4
636.724	1	6
637.063	1	-1
637.402	1	10
637.741	1	1
638.080	1	3
638.419	1	-5
638.759	1	7
639.098	1	-3
639.437	1	-15
639.776	1	3
640.115	1	5
640.454	1	3
640.793	1	-4
641.132	1	-6
641.472	1	1
641.811	1	7
642.150	1	-9
642.489	1	-2
642.828	1	7
643.167	1	-1
643.506	1	3
643.845	1	7
644.184	1	7
644.524	1	3
644.863	1	-13
645.202	1	12
645.541	1	-1
645.880	1	11
646.219	1	-2
646.558	1	2
646.897	1	10
647.236	1	4
647.575	1	-5
647.914	1	3
648.253	1	-1
648.592	1	-7
648.931	1	6
649.270	1	-2
649.610	1	-9
649.949	1	0
650.288	1	-1
650.627	1	3
650.966	1	-1
651.305	1	-7
651.644	1	7
651.983	1	0
652.322	1	-1
652.661	1	1
653.000	1	1
653.339	1	-14
653.678	1	9
654.017	1	3
654.356	1	-2
654.695	1	7
655.034	1	-2
655.373	1	7
655.712	1	-9
656.051	1	-1
656.390	1	-3
656.729	1	4
657.068	1	8
657.406	1	1
657.745	1	1
658.084	1	-13
658.423	1	2
658.762	1	-3
659.101	1	8
659.440	1	-7
659.779	1	1
660.118	1	4
660.457	1	15
660.796	1	-1
661.135	1	-9
661.474	1	7
661.813	1	-1
662.152	1	3
662.491	1	-8
662.829	1	-3
663.168	1	0
663.507	1	2
663.846	1	-2
664.185	1	13
664.524	1	1
664.863	1	-13
665.202	1	8
665.541	1	1
665.879	1	7
666.218	1	7
666.557	1	-8
666.896	1	1
667.235	1	8
667.574	1	-4
667.913	1	-6
668.251	1	2
668.590	1	-10
668.929	1	0
669.268	1	-3
669.607	1	-1
669.946	1	1
670.285	1	10
670.623	1	-2
670.962	1	-3
671.301	1	-6
671.640	1	5
671.979	1	7
672.317	1	4
672.656	1	-3
672.995	1	-5
673.334	1	3
673.673	1	-4
674.011	1	10
674.350	1	12
674.689	1	-1
675.028	1	-4
675.367	1	-8
675.705	1	3
676.044	1	11
676.383	1	0
676.722	1	12
677.060	1	-12
677.399	1	-1
677.738	1	1
678.077	1	11
678.416	1	-1
678.754	1	-1
679.093	1	1
679.432	1	8
679.771	1	7
680.109	1	-6
680.448	1	-3
680.787	1	-7
681.125	1	4
681.464	1	2
681.803	1	10
682.142	1	-5
682.480	1	0
682.819	1	6
683.158	1	-7
683.496	1	1
683.835	1	-2
684.174	1	-6
684.512	1	1
684.851	1	-9
685.190	1	-4
685.529	1	17
685.867	1	1
686.206	1	0
686.545	1	-3
686.883	1	5
687.222	1	2
687.561	1	-2
687.899	1	-11
688.238	1	-4
688.577	1	5
688.746	1	-3