File: Data/GaN_170K_550ms/GaN_sample D_spot 18_UVVIS_170 K_200um_550 ms 2x2mm1_359.txt
340.368	1	-3
340.710	1	-5
341.052	1	1
341.394	1	5
341.737	1	10
342.079	1	-14
342.421	1	7
342.763	1	1
343.105	1	3
343.447	1	-11
343.789	1	14
344.131	1	-8
344.473	1	-12
344.815	1	4
345.157	1	1
345.499	1	1
345.841	1	0
346.183	1	2
346.526	1	3
346.868	1	-3
347.210	1	-3
347.552	1	5
347.894	1	-2
348.236	1	1
348.578	1	1
348.920	1	2
349.262	1	2
349.604	1	8
349.946	1	5
350.288	1	0
350.630	1	2
350.972	1	-9
351.314	1	-1
351.656	1	-5
351.998	1	-3
352.340	1	8
352.682	1	5
353.024	1	0
353.366	1	4
353.708	1	3
354.050	1	4
354.392	1	1
354.734	1	6
355.076	1	0
355.418	1	-7
355.760	1	-2
356.102	1	6
356.444	1	-7
356.785	1	1
357.127	1	-2
357.469	1	3
357.811	1	5
358.153	1	-5
358.495	1	0
358.837	1	4
359.179	1	-4
359.521	1	5
359.863	1	1
360.205	1	-3
360.547	1	11
360.889	1	-1
361.231	1	1
361.572	1	16
361.914	1	3
362.256	1	-1
362.598	1	7
362.940	1	13
363.282	1	8
363.624	1	9
363.966	1	12
364.308	1	11
364.649	1	3
364.991	1	0
365.333	1	-1
365.675	1	11
366.017	1	1
366.359	1	-1
366.701	1	5
367.042	1	-8
367.384	1	16
367.726	1	15
368.068	1	10
368.410	1	15
368.752	1	7
369.093	1	3
369.435	1	-1
369.777	1	3
370.119	1	0
370.461	1	11
370.803	1	2
371.144	1	0
371.486	1	-4
371.828	1	-1
372.170	1	6
372.512	1	3
372.853	1	7
373.195	1	-2
373.537	1	15
373.879	1	8
374.220	1	7
374.562	1	0
374.904	1	2
375.246	1	0
375.588	1	6
375.929	1	2
376.271	1	8
376.613	1	-1
376.955	1	4
377.296	1	5
377.638	1	3
377.980	1	-6
378.321	1	-2
378.663	1	3
379.005	1	-1
379.347	1	5
379.688	1	-4
380.030	1	5
380.372	1	2
380.714	1	8
381.055	1	10
381.397	1	3
381.739	1	9
382.080	1	1
382.422	1	-4
382.764	1	2
383.105	1	12
383.447	1	7
383.789	1	5
384.130	1	-1
384.472	1	-2
384.814	1	0
385.156	1	3
385.497	1	9
385.839	1	-2
386.180	1	5
386.522	1	10
386.864	1	4
387.205	1	-2
387.547	1	0
387.889	1	6
388.230	1	-13
388.572	1	1
388.914	1	-9
389.255	1	6
389.597	1	-5
389.939	1	-4
390.280	1	-1
390.622	1	-4
390.963	1	-4
391.305	1	3
391.647	1	-11
391.988	1	13
392.330	1	6
392.671	1	2
393.013	1	6
393.355	1	-2
393.696	1	8
394.038	1	-9
394.379	1	-2
394.721	1	-4
395.062	1	-6
395.404	1	8
395.746	1	4
396.087	1	0
396.429	1	5
396.770	1	13
397.112	1	-4
397.453	1	11
397.795	1	-2
398.136	1	-3
398.478	1	-4
398.819	1	1
399.161	1	-5
399.503	1	4
399.844	1	-7
400.186	1	-7
400.527	1	15
400.869	1	0
401.210	1	3
401.552	1	1
401.893	1	5
402.235	1	5
402.576	1	-7
402.918	1	-4
403.259	1	1
403.601	1	15
403.942	1	2
404.284	1	-10
404.625	1	6
404.967	1	-4
405.308	1	3
405.649	1	-4
405.991	1	7
406.332	1	-6
406.674	1	4
407.015	1	8
407.357	1	0
407.698	1	3
408.040	1	-11
408.381	1	3
408.722	1	-7
409.064	1	2
409.405	1	3
409.747	1	-7
410.088	1	2
410.430	1	-3
410.771	1	-9
411.112	1	5
411.454	1	1
411.795	1	4
412.137	1	-2
412.478	1	-1
412.819	1	-10
413.161	1	13
413.502	1	-2
413.844	1	6
414.185	1	-7
414.526	1	0
414.868	1	6
415.209	1	-4
415.550	1	-2
415.892	1	3
416.233	1	5
416.575	1	3
416.916	1	-2
417.257	1	7
417.599	1	5
417.940	1	1
418.281	1	-10
418.623	1	-2
418.964	1	-2
419.305	1	-1
419.647	1	3
419.988	1	4
420.329	1	1
420.671	1	-6
421.012	1	-1
421.353	1	8
421.695	1	-10
422.036	1	-3
422.377	1	10
422.718	1	7
423.060	1	-5
423.401	1	0
423.742	1	-6
424.084	1	14
424.425	1	4
424.766	1	-3
425.107	1	-12
425.449	1	2
425.790	1	0
426.131	1	7
426.472	1	0
426.814	1	-6
427.155	1	4
427.496	1	0
427.837	1	3
428.179	1	2
428.520	1	-1
428.861	1	0
429.202	1	-3
429.544	1	-6
429.885	1	6
430.226	1	6
430.567	1	5
430.909	1	-7
431.250	1	16
431.591	1	-2
431.932	1	-10
432.273	1	6
432.615	1	11
432.956	1	11
433.297	1	4
433.638	1	9
433.979	1	6
434.320	1	5
434.662	1	-11
435.003	1	-6
435.344	1	3
435.685	1	-1
436.026	1	-8
436.368	1	5
436.709	1	-4
437.050	1	-7
437.391	1	-4
437.732	1	2
438.073	1	-2
438.414	1	-6
438.756	1	-1
439.097	1	1
439.438	1	2
439.779	1	1
440.120	1	-2
440.461	1	17
440.802	1	8
441.143	1	5
441.485	1	-6
441.826	1	5
442.167	1	4
442.508	1	0
442.849	1	-6
443.190	1	5
443.531	1	0
443.872	1	-6
444.213	1	-2
444.554	1	-1
444.895	1	-17
445.237	1	2
445.578	1	2
445.919	1	0
446.260	1	1
446.601	1	-2
446.942	1	1
447.283	1	4
447.624	1	2
447.965	1	0
448.306	1	-2
448.647	1	5
448.988	1	10
449.329	1	5
449.670	1	-13
450.011	1	10
450.352	1	-5
450.693	1	-12
451.034	1	-1
451.375	1	8
451.716	1	4
452.057	1	4
452.398	1	-5
452.739	1	1
453.080	1	-2
453.421	1	5
453.762	1	2
454.103	1	-5
454.444	1	-3
454.785	1	-11
455.126	1	19
455.467	1	-12
455.808	1	9
456.149	1	-1
456.490	1	3
456.831	1	-7
457.172	1	-4
457.513	1	9
457.854	1	8
458.195	1	-10
458.536	1	2
458.877	1	1
459.218	1	-5
459.559	1	4
459.899	1	-1
460.240	1	0
460.581	1	2
460.922	1	-1
461.263	1	4
461.604	1	4
461.945	1	2
462.286	1	0
462.627	1	7
462.968	1	6
463.309	1	6
463.649	1	1
463.990	1	0
464.331	1	0
464.672	1	-7
465.013	1	8
465.354	1	-12
465.695	1	0
466.036	1	-8
466.376	1	8
466.717	1	-10
467.058	1	2
467.399	1	10
467.740	1	-5
468.081	1	3
468.422	1	7
468.762	1	4
469.103	1	4
469.444	1	0
469.785	1	-7
470.126	1	3
470.467	1	10
470.807	1	-2
471.148	1	-12
471.489	1	4
471.830	1	5
472.171	1	0
472.511	1	-2
472.852	1	0
473.193	1	6
473.534	1	1
473.875	1	-1
474.215	1	6
474.556	1	9
474.897	1	-4
475.238	1	-3
475.578	1	-10
475.919	1	7
476.260	1	0
476.601	1	5
476.942	1	-5
477.282	1	7
477.623	1	3
477.964	1	1
478.305	1	-10
478.645	1	-1
478.986	1	-7
479.327	1	-13
479.667	1	-6
480.008	1	5
480.349	1	-1
480.690	1	1
481.030	1	2
481.371	1	-5
481.712	1	1
482.053	1	-2
482.393	1	-11
482.734	1	14
483.075	1	8
483.415	1	1
483.756	1	-2
484.097	1	-6
484.437	1	-1
484.778	1	-12
485.119	1	-1
485.459	1	-8
485.800	1	-4
486.141	1	12
486.481	1	1
486.822	1	8
487.163	1	5
487.503	1	2
487.844	1	2
488.185	1	-1
488.525	1	9
488.866	1	-1
489.207	1	5
489.547	1	2
489.888	1	6
490.228	1	-8
490.569	1	-1
490.910	1	-4
491.250	1	6
491.591	1	0
491.932	1	7
492.272	1	-1
492.613	1	3
492.953	1	2
493.294	1	-5
493.635	1	-3
493.975	1	7
494.316	1	-6
494.656	1	-9
494.997	1	-2
495.337	1	5
495.678	1	1
496.019	1	-4
496.359	1	3
496.700	1	4
497.040	1	4
497.381	1	0
497.721	1	-5
498.062	1	-1
498.403	1	1
498.743	1	3
499.084	1	6
499.424	1	5
499.765	1	-17
500.105	1	-8
500.446	1	0
500.786	1	7
501.127	1	6
501.467	1	9
501.808	1	-2
502.148	1	14
502.489	1	-1
502.829	1	-5
503.170	1	6
503.510	1	7
503.851	1	-2
504.191	1	-8
504.532	1	-3
504.872	1	3
505.213	1	-7
505.553	1	-3
505.894	1	6
506.234	1	-9
506.575	1	2
506.915	1	4
507.256	1	-2
507.596	1	9
507.936	1	10
508.277	1	-8
508.617	1	3
508.958	1	6
509.298	1	-6
509.639	1	9
509.979	1	3
510.319	1	-6
510.660	1	-7
511.000	1	-1
511.341	1	3
511.681	1	-1
512.022	1	7
512.362	1	3
512.702	1	-1
513.043	1	-6
513.383	1	4
513.724	1	-9
514.064	1	-1
514.404	1	-2
514.745	1	-5
515.085	1	0
515.425	1	0
515.766	1	7
516.106	1	9
516.447	1	4
516.787	1	4
517.127	1	-4
517.468	1	9
517.808	1	11
518.148	1	6
518.489	1	6
518.829	1	-3
519.169	1	3
519.510	1	6
519.850	1	6
520.190	1	0
520.531	1	8
520.871	1	0
521.211	1	2
521.552	1	-1
521.892	1	1
522.232	1	-5
522.573	1	7
522.913	1	3
523.253	1	9
523.593	1	7
523.934	1	-4
524.274	1	-7
524.614	1	5
524.955	1	-1
525.295	1	-6
525.635	1	2
525.975	1	-5
526.316	1	8
526.656	1	8
526.996	1	3
527.337	1	-2
527.677	1	-4
528.017	1	11
528.357	1	-9
528.698	1	-7
529.038	1	2
529.378	1	-4
529.718	1	7
530.058	1	10
530.399	1	1
530.739	1	5
531.079	1	8
531.419	1	9
531.760	1	-2
532.100	1	3
532.440	1	2
532.780	1	-6
533.120	1	1
533.461	1	-1
533.801	1	5
534.141	1	-1
534.481	1	0
534.821	1	-4
535.162	1	1
535.502	1	5
535.842	1	-2
536.182	1	4
536.522	1	1
536.862	1	10
537.203	1	-1
537.543	1	-8
537.883	1	1
538.223	1	0
538.563	1	4
538.903	1	3
539.243	1	0
539.584	1	-10
539.924	1	-11
540.264	1	-4
540.604	1	4
540.944	1	-1
541.284	1	1
541.624	1	-5
541.964	1	-1
542.305	1	-5
542.645	1	-8
542.985	1	2
543.325	1	-7
543.665	1	7
544.005	1	-1
544.345	1	13
544.685	1	2
545.025	1	1
545.365	1	-2
545.705	1	3
546.045	1	9
546.386	1	-2
546.726	1	2
547.066	1	12
547.406	1	1
547.746	1	-3
548.086	1	-1
548.426	1	7
548.766	1	5
549.106	1	10
549.446	1	5
549.786	1	-5
550.126	1	-3
550.466	1	-4
550.806	1	-3
551.146	1	0
551.486	1	1
551.826	1	5
552.166	1	-2
552.506	1	7
552.846	1	-9
553.186	1	7
553.526	1	-3
553.866	1	-10
554.206	1	8
554.546	1	-11
554.886	1	-1
555.226	1	-6
555.566	1	1
555.906	1	-12
556.246	1	8
556.586	1	4
556.926	1	5
557.266	1	3
557.606	1	-4
557.946	1	4
558.286	1	-3
558.626	1	5
558.966	1	1
559.306	1	14
559.646	1	4
559.986	1	2
560.325	1	-8
560.665	1	2
561.005	1	1
561.345	1	-6
561.685	1	2
562.025	1	-13
562.365	1	6
562.705	1	8
563.045	1	0
563.385	1	10
563.725	1	-11
564.064	1	1
564.404	1	-3
564.744	1	2
565.084	1	-6
565.424	1	1
565.764	1	1
566.104	1	-2
566.444	1	4
566.783	1	-5
567.123	1	-5
567.463	1	2
567.803	1	2
568.143	1	-6
568.483	1	9
568.823	1	1
569.162	1	1
569.502	1	-5
569.842	1	-4
570.182	1	-2
570.522	1	-2
570.862	1	1
571.201	1	3
571.541	1	2
571.881	1	2
572.221	1	3
572.561	1	6
572.900	1	-6
573.240	1	9
573.580	1	-5
573.920	1	0
574.260	1	0
574.599	1	-5
574.939	1	-4
575.279	1	-3
575.619	1	8
575.959	1	-11
576.298	1	0
576.638	1	3
576.978	1	1
577.318	1	-2
577.657	1	8
577.997	1	-3
578.337	1	2
578.677	1	3
579.016	1	-4
579.356	1	-1
579.696	1	2
580.036	1	7
580.375	1	2
580.715	1	11
581.055	1	7
581.394	1	3
581.734	1	5
582.074	1	2
582.414	1	-3
582.753	1	3
583.093	1	5
583.433	1	4
583.772	1	-1
584.112	1	4
584.452	1	-5
584.791	1	-5
585.131	1	13
585.471	1	7
585.811	1	-4
586.150	1	-3
586.490	1	4
586.830	1	-7
587.169	1	7
587.509	1	3
587.849	1	-1
588.188	1	2
588.528	1	-3
588.867	1	8
589.207	1	-9
589.547	1	-1
589.886	1	-7
590.226	1	1
590.566	1	1
590.905	1	10
591.245	1	-3
591.585	1	3
591.924	1	4
592.264	1	-9
592.603	1	4
592.943	1	0
593.283	1	2
593.622	1	-13
593.962	1	-5
594.301	1	13
594.641	1	5
594.981	1	14
595.320	1	3
595.660	1	4
595.999	1	2
596.339	1	9
596.678	1	-9
597.018	1	3
597.358	1	-3
597.697	1	-2
598.037	1	-10
598.376	1	-10
598.716	1	1
599.055	1	5
599.395	1	1
599.734	1	0
600.074	1	-6
600.413	1	-13
600.753	1	5
601.092	1	-1
601.432	1	-4
601.771	1	1
602.111	1	-8
602.451	1	5
602.790	1	14
603.130	1	-3
603.469	1	-2
603.809	1	3
604.148	1	6
604.487	1	4
604.827	1	-12
605.166	1	13
605.506	1	0
605.845	1	-2
606.185	1	-4
606.524	1	-2
606.864	1	-1
607.203	1	-3
607.543	1	10
607.882	1	-10
608.222	1	-4
608.561	1	8
608.901	1	-2
609.240	1	0
609.579	1	-5
609.919	1	-4
610.258	1	8
610.598	1	5
610.937	1	-4
611.277	1	5
611.616	1	6
611.955	1	5
612.295	1	2
612.634	1	-5
612.974	1	1
613.313	1	2
613.652	1	8
613.992	1	-1
614.331	1	1
614.671	1	9
615.010	1	7
615.349	1	-2
615.689	1	10
616.028	1	-4
616.368	1	0
616.707	1	1
617.046	1	-9
617.386	1	1
617.725	1	-1
618.064	1	-1
618.404	1	-10
618.743	1	8
619.082	1	7
619.422	1	-4
619.761	1	2
620.100	1	4
620.440	1	10
620.779	1	1
621.118	1	-7
621.458	1	-3
621.797	1	-3
622.136	1	3
622.476	1	-10
622.815	1	4
623.154	1	-2
623.494	1	-14
623.833	1	7
624.172	1	0
624.511	1	9
624.851	1	-8
625.190	1	10
625.529	1	11
625.869	1	11
626.208	1	0
626.547	1	-5
626.886	1	6
627.226	1	0
627.565	1	-1
627.904	1	-9
628.243	1	-2
628.583	1	-2
628.922	1	-1
629.261	1	3
629.600	1	-6
629.940	1	-5
630.279	1	-5
630.618	1	-3
630.957	1	2
631.297	1	-3
631.636	1	5
631.975	1	-5
632.314	1	-1
632.653	1	3
632.993	1	2
633.332	1	11
633.671	1	15
634.010	1	-2
634.349	1	-11
634.689	1	10
635.028	1	-4
635.367	1	-4
635.706	1	-1
636.045	1	10
636.384	1	-2
636.724	1	4
637.063	1	-2
637.402	1	3
637.741	1	-9
638.080	1	14
638.419	1	-3
638.759	1	-4
639.098	1	-11
639.437	1	-4
639.776	1	0
640.115	1	4
640.454	1	2
640.793	1	-7
641.132	1	6
641.472	1	-8
641.811	1	2
642.150	1	5
642.489	1	-4
642.828	1	5
643.167	1	3
643.506	1	7
643.845	1	-1
644.184	1	7
644.524	1	2
644.863	1	-10
645.202	1	4
645.541	1	-1
645.880	1	4
646.219	1	2
646.558	1	2
646.897	1	5
647.236	1	-1
647.575	1	-4
647.914	1	0
648.253	1	2
648.592	1	9
648.931	1	10
649.270	1	-3
649.610	1	6
649.949	1	-4
650.288	1	1
650.627	1	-4
650.966	1	5
651.305	1	-2
651.644	1	2
651.983	1	2
652.322	1	0
652.661	1	1
653.000	1	3
653.339	1	4
653.678	1	3
654.017	1	0
654.356	1	-5
654.695	1	11
655.034	1	3
655.373	1	1
655.712	1	-13
656.051	1	0
656.390	1	4
656.729	1	0
657.068	1	1
657.406	1	-7
657.745	1	9
658.084	1	-8
658.423	1	-2
658.762	1	-4
659.101	1	-1
659.440	1	0
659.779	1	1
660.118	1	8
660.457	1	12
660.796	1	-5
661.135	1	-2
661.474	1	4
661.813	1	-5
662.152	1	-1
662.491	1	-9
662.829	1	0
663.168	1	3
663.507	1	-11
663.846	1	6
664.185	1	3
664.524	1	3
664.863	1	-5
665.202	1	11
665.541	1	-1
665.879	1	11
666.218	1	3
666.557	1	1
666.896	1	3
667.235	1	1
667.574	1	-10
667.913	1	-12
668.251	1	1
668.590	1	-1
668.929	1	5
669.268	1	-6
669.607	1	1
669.946	1	2
670.285	1	7
670.623	1	0
670.962	1	2
671.301	1	-3
671.640	1	-1
671.979	1	-1
672.317	1	8
672.656	1	1
672.995	1	-14
673.334	1	-3
673.673	1	-2
674.011	1	0
674.350	1	-4
674.689	1	1
675.028	1	-7
675.367	1	-2
675.705	1	12
676.044	1	15
676.383	1	1
676.722	1	13
677.060	1	-4
677.399	1	-1
677.738	1	-3
678.077	1	14
678.416	1	7
678.754	1	-1
679.093	1	5
679.432	1	0
679.771	1	0
680.109	1	-4
680.448	1	3
680.787	1	-7
681.125	1	12
681.464	1	11
681.803	1	11
682.142	1	-2
682.480	1	1
682.819	1	11
683.158	1	4
683.496	1	5
683.835	1	1
684.174	1	1
684.512	1	-6
684.851	1	-4
685.190	1	-11
685.529	1	13
685.867	1	-1
686.206	1	4
686.545	1	3
686.883	1	4
687.222	1	-5
687.561	1	1
687.899	1	-8
688.238	1	-2
688.577	1	12
688.746	1	-6