File: Data/GaN_170K_550ms/GaN_sample D_spot 18_UVVIS_170 K_200um_550 ms 2x2mm1_207.txt
340.368	1	2
340.710	1	-8
341.052	1	2
341.394	1	0
341.737	1	2
342.079	1	7
342.421	1	0
342.763	1	6
343.105	1	8
343.447	1	-9
343.789	1	13
344.131	1	-8
344.473	1	7
344.815	1	10
345.157	1	-5
345.499	1	-2
345.841	1	0
346.183	1	11
346.526	1	8
346.868	1	2
347.210	1	-2
347.552	1	7
347.894	1	-9
348.236	1	7
348.578	1	9
348.920	1	-6
349.262	1	3
349.604	1	7
349.946	1	6
350.288	1	9
350.630	1	10
350.972	1	-9
351.314	1	11
351.656	1	-1
351.998	1	13
352.340	1	2
352.682	1	1
353.024	1	-5
353.366	1	5
353.708	1	11
354.050	1	-7
354.392	1	-1
354.734	1	2
355.076	1	-1
355.418	1	3
355.760	1	-7
356.102	1	7
356.444	1	5
356.785	1	9
357.127	1	0
357.469	1	-2
357.811	1	7
358.153	1	4
358.495	1	-3
358.837	1	10
359.179	1	1
359.521	1	1
359.863	1	-3
360.205	1	14
360.547	1	10
360.889	1	15
361.231	1	7
361.572	1	10
361.914	1	3
362.256	1	13
362.598	1	10
362.940	1	19
363.282	1	14
363.624	1	16
363.966	1	6
364.308	1	16
364.649	1	3
364.991	1	20
365.333	1	8
365.675	1	22
366.017	1	21
366.359	1	9
366.701	1	13
367.042	1	7
367.384	1	23
367.726	1	28
368.068	1	21
368.410	1	24
368.752	1	18
369.093	1	10
369.435	1	7
369.777	1	30
370.119	1	9
370.461	1	14
370.803	1	8
371.144	1	19
371.486	1	10
371.828	1	13
372.170	1	16
372.512	1	11
372.853	1	18
373.195	1	4
373.537	1	26
373.879	1	15
374.220	1	21
374.562	1	8
374.904	1	18
375.246	1	6
375.588	1	8
375.929	1	10
376.271	1	6
376.613	1	20
376.955	1	9
377.296	1	7
377.638	1	18
377.980	1	-3
378.321	1	10
378.663	1	8
379.005	1	2
379.347	1	5
379.688	1	11
380.030	1	11
380.372	1	2
380.714	1	12
381.055	1	5
381.397	1	11
381.739	1	5
382.080	1	6
382.422	1	2
382.764	1	1
383.105	1	19
383.447	1	19
383.789	1	16
384.130	1	-7
384.472	1	-2
384.814	1	13
385.156	1	3
385.497	1	5
385.839	1	1
386.180	1	11
386.522	1	15
386.864	1	10
387.205	1	-1
387.547	1	8
387.889	1	2
388.230	1	5
388.572	1	3
388.914	1	1
389.255	1	4
389.597	1	1
389.939	1	5
390.280	1	-1
390.622	1	-3
390.963	1	1
391.305	1	-2
391.647	1	-5
391.988	1	9
392.330	1	6
392.671	1	-10
393.013	1	-3
393.355	1	3
393.696	1	10
394.038	1	3
394.379	1	4
394.721	1	3
395.062	1	0
395.404	1	8
395.746	1	6
396.087	1	7
396.429	1	5
396.770	1	7
397.112	1	-2
397.453	1	7
397.795	1	-3
398.136	1	-1
398.478	1	-1
398.819	1	0
399.161	1	-6
399.503	1	5
399.844	1	-1
400.186	1	0
400.527	1	20
400.869	1	-2
401.210	1	8
401.552	1	1
401.893	1	8
402.235	1	2
402.576	1	6
402.918	1	-2
403.259	1	10
403.601	1	8
403.942	1	5
404.284	1	-14
404.625	1	6
404.967	1	4
405.308	1	2
405.649	1	0
405.991	1	-1
406.332	1	-5
406.674	1	12
407.015	1	8
407.357	1	-1
407.698	1	8
408.040	1	2
408.381	1	-2
408.722	1	-10
409.064	1	-2
409.405	1	8
409.747	1	-1
410.088	1	8
410.430	1	-4
410.771	1	-1
411.112	1	2
411.454	1	-3
411.795	1	6
412.137	1	-3
412.478	1	1
412.819	1	-7
413.161	1	0
413.502	1	-4
413.844	1	1
414.185	1	3
414.526	1	5
414.868	1	-1
415.209	1	-18
415.550	1	6
415.892	1	9
416.233	1	4
416.575	1	-2
416.916	1	-10
417.257	1	2
417.599	1	1
417.940	1	10
418.281	1	-9
418.623	1	1
418.964	1	-6
419.305	1	-2
419.647	1	0
419.988	1	-4
420.329	1	2
420.671	1	-4
421.012	1	5
421.353	1	6
421.695	1	-20
422.036	1	6
422.377	1	0
422.718	1	12
423.060	1	4
423.401	1	-1
423.742	1	-2
424.084	1	22
424.425	1	-8
424.766	1	-5
425.107	1	-7
425.449	1	2
425.790	1	8
426.131	1	12
426.472	1	-2
426.814	1	-5
427.155	1	6
427.496	1	4
427.837	1	6
428.179	1	6
428.520	1	-2
428.861	1	7
429.202	1	0
429.544	1	-4
429.885	1	7
430.226	1	-5
430.567	1	-1
430.909	1	-2
431.250	1	14
431.591	1	0
431.932	1	3
432.273	1	-2
432.615	1	1
432.956	1	-2
433.297	1	-4
433.638	1	2
433.979	1	-1
434.320	1	0
434.662	1	-10
435.003	1	1
435.344	1	-4
435.685	1	2
436.026	1	12
436.368	1	-3
436.709	1	0
437.050	1	-5
437.391	1	-1
437.732	1	12
438.073	1	0
438.414	1	-2
438.756	1	2
439.097	1	5
439.438	1	6
439.779	1	2
440.120	1	-5
440.461	1	13
440.802	1	6
441.143	1	-6
441.485	1	-8
441.826	1	14
442.167	1	6
442.508	1	3
442.849	1	-2
443.190	1	1
443.531	1	-2
443.872	1	-2
444.213	1	1
444.554	1	-4
444.895	1	-12
445.237	1	-5
445.578	1	8
445.919	1	6
446.260	1	5
446.601	1	-6
446.942	1	7
447.283	1	9
447.624	1	-5
447.965	1	4
448.306	1	-8
448.647	1	-2
448.988	1	13
449.329	1	14
449.670	1	-16
450.011	1	7
450.352	1	2
450.693	1	-5
451.034	1	2
451.375	1	3
451.716	1	9
452.057	1	2
452.398	1	-1
452.739	1	5
453.080	1	-3
453.421	1	1
453.762	1	-5
454.103	1	-10
454.444	1	-7
454.785	1	3
455.126	1	8
455.467	1	-10
455.808	1	13
456.149	1	-2
456.490	1	4
456.831	1	-7
457.172	1	1
457.513	1	10
457.854	1	11
458.195	1	1
458.536	1	1
458.877	1	5
459.218	1	4
459.559	1	-1
459.899	1	1
460.240	1	3
460.581	1	7
460.922	1	2
461.263	1	3
461.604	1	5
461.945	1	5
462.286	1	0
462.627	1	0
462.968	1	15
463.309	1	-6
463.649	1	8
463.990	1	0
464.331	1	-2
464.672	1	-4
465.013	1	10
465.354	1	-1
465.695	1	2
466.036	1	-3
466.376	1	5
466.717	1	-3
467.058	1	0
467.399	1	9
467.740	1	-2
468.081	1	-4
468.422	1	3
468.762	1	14
469.103	1	8
469.444	1	0
469.785	1	2
470.126	1	1
470.467	1	-9
470.807	1	4
471.148	1	-5
471.489	1	6
471.830	1	1
472.171	1	4
472.511	1	1
472.852	1	1
473.193	1	13
473.534	1	2
473.875	1	-1
474.215	1	6
474.556	1	9
474.897	1	10
475.238	1	1
475.578	1	5
475.919	1	6
476.260	1	6
476.601	1	-3
476.942	1	-4
477.282	1	12
477.623	1	11
477.964	1	5
478.305	1	0
478.645	1	4
478.986	1	-2
479.327	1	0
479.667	1	-5
480.008	1	5
480.349	1	9
480.690	1	13
481.030	1	8
481.371	1	-8
481.712	1	9
482.053	1	-7
482.393	1	-2
482.734	1	11
483.075	1	9
483.415	1	2
483.756	1	-4
484.097	1	-5
484.437	1	-4
484.778	1	-10
485.119	1	-2
485.459	1	0
485.800	1	-5
486.141	1	12
486.481	1	13
486.822	1	-2
487.163	1	-2
487.503	1	5
487.844	1	4
488.185	1	-1
488.525	1	9
488.866	1	8
489.207	1	4
489.547	1	8
489.888	1	7
490.228	1	-4
490.569	1	4
490.910	1	7
491.250	1	5
491.591	1	7
491.932	1	6
492.272	1	13
492.613	1	-5
492.953	1	-3
493.294	1	-5
493.635	1	0
493.975	1	13
494.316	1	0
494.656	1	4
494.997	1	-4
495.337	1	13
495.678	1	0
496.019	1	-15
496.359	1	8
496.700	1	7
497.040	1	2
497.381	1	11
497.721	1	2
498.062	1	-6
498.403	1	4
498.743	1	2
499.084	1	1
499.424	1	6
499.765	1	-5
500.105	1	-7
500.446	1	5
500.786	1	0
501.127	1	-1
501.467	1	1
501.808	1	3
502.148	1	9
502.489	1	2
502.829	1	0
503.170	1	8
503.510	1	4
503.851	1	-3
504.191	1	6
504.532	1	-13
504.872	1	2
505.213	1	-6
505.553	1	-2
505.894	1	5
506.234	1	-3
506.575	1	7
506.915	1	-1
507.256	1	0
507.596	1	-2
507.936	1	18
508.277	1	-7
508.617	1	8
508.958	1	-2
509.298	1	-3
509.639	1	15
509.979	1	5
510.319	1	-5
510.660	1	2
511.000	1	1
511.341	1	15
511.681	1	5
512.022	1	14
512.362	1	-3
512.702	1	0
513.043	1	-2
513.383	1	3
513.724	1	3
514.064	1	9
514.404	1	-5
514.745	1	3
515.085	1	5
515.425	1	8
515.766	1	8
516.106	1	7
516.447	1	4
516.787	1	6
517.127	1	6
517.468	1	4
517.808	1	8
518.148	1	4
518.489	1	12
518.829	1	6
519.169	1	0
519.510	1	7
519.850	1	6
520.190	1	7
520.531	1	9
520.871	1	4
521.211	1	1
521.552	1	-3
521.892	1	-3
522.232	1	-6
522.573	1	8
522.913	1	12
523.253	1	18
523.593	1	2
523.934	1	4
524.274	1	2
524.614	1	7
524.955	1	3
525.295	1	-1
525.635	1	17
525.975	1	4
526.316	1	15
526.656	1	18
526.996	1	11
527.337	1	-4
527.677	1	4
528.017	1	10
528.357	1	-8
528.698	1	-5
529.038	1	0
529.378	1	9
529.718	1	10
530.058	1	9
530.399	1	-2
530.739	1	2
531.079	1	9
531.419	1	13
531.760	1	0
532.100	1	-2
532.440	1	3
532.780	1	-1
533.120	1	2
533.461	1	-4
533.801	1	9
534.141	1	-5
534.481	1	11
534.821	1	4
535.162	1	-2
535.502	1	-4
535.842	1	10
536.182	1	4
536.522	1	11
536.862	1	14
537.203	1	-1
537.543	1	-4
537.883	1	7
538.223	1	-1
538.563	1	2
538.903	1	2
539.243	1	-1
539.584	1	4
539.924	1	-4
540.264	1	4
540.604	1	4
540.944	1	2
541.284	1	6
541.624	1	4
541.964	1	10
542.305	1	4
542.645	1	0
542.985	1	4
543.325	1	7
543.665	1	-2
544.005	1	13
544.345	1	8
544.685	1	0
545.025	1	2
545.365	1	4
545.705	1	9
546.045	1	8
546.386	1	8
546.726	1	6
547.066	1	10
547.406	1	17
547.746	1	-2
548.086	1	4
548.426	1	6
548.766	1	-1
549.106	1	12
549.446	1	7
549.786	1	3
550.126	1	-1
550.466	1	-2
550.806	1	11
551.146	1	7
551.486	1	0
551.826	1	6
552.166	1	-4
552.506	1	11
552.846	1	4
553.186	1	15
553.526	1	6
553.866	1	1
554.206	1	8
554.546	1	-9
554.886	1	-5
555.226	1	-3
555.566	1	-3
555.906	1	0
556.246	1	5
556.586	1	-5
556.926	1	5
557.266	1	7
557.606	1	8
557.946	1	4
558.286	1	4
558.626	1	3
558.966	1	8
559.306	1	16
559.646	1	-1
559.986	1	4
560.325	1	5
560.665	1	11
561.005	1	2
561.345	1	-11
561.685	1	1
562.025	1	-2
562.365	1	9
562.705	1	10
563.045	1	-1
563.385	1	3
563.725	1	-8
564.064	1	3
564.404	1	2
564.744	1	3
565.084	1	6
565.424	1	-1
565.764	1	3
566.104	1	1
566.444	1	4
566.783	1	5
567.123	1	-3
567.463	1	7
567.803	1	2
568.143	1	1
568.483	1	-7
568.823	1	1
569.162	1	2
569.502	1	9
569.842	1	-6
570.182	1	2
570.522	1	3
570.862	1	12
571.201	1	1
571.541	1	-5
571.881	1	-3
572.221	1	3
572.561	1	5
572.900	1	4
573.240	1	-6
573.580	1	3
573.920	1	13
574.260	1	14
574.599	1	1
574.939	1	2
575.279	1	2
575.619	1	6
575.959	1	-6
576.298	1	3
576.638	1	11
576.978	1	-1
577.318	1	4
577.657	1	0
577.997	1	0
578.337	1	8
578.677	1	5
579.016	1	3
579.356	1	4
579.696	1	-1
580.036	1	-7
580.375	1	15
580.715	1	5
581.055	1	7
581.394	1	7
581.734	1	6
582.074	1	5
582.414	1	-1
582.753	1	7
583.093	1	3
583.433	1	8
583.772	1	-5
584.112	1	-1
584.452	1	0
584.791	1	4
585.131	1	13
585.471	1	1
585.811	1	-14
586.150	1	-11
586.490	1	4
586.830	1	7
587.169	1	15
587.509	1	3
587.849	1	-3
588.188	1	-3
588.528	1	-6
588.867	1	6
589.207	1	-7
589.547	1	10
589.886	1	3
590.226	1	7
590.566	1	0
590.905	1	3
591.245	1	5
591.585	1	5
591.924	1	-5
592.264	1	-2
592.603	1	1
592.943	1	5
593.283	1	-3
593.622	1	-8
593.962	1	-1
594.301	1	13
594.641	1	16
594.981	1	18
595.320	1	7
595.660	1	5
595.999	1	6
596.339	1	11
596.678	1	2
597.018	1	5
597.358	1	-5
597.697	1	2
598.037	1	-6
598.376	1	-6
598.716	1	-4
599.055	1	-3
599.395	1	-4
599.734	1	12
600.074	1	5
600.413	1	-2
600.753	1	4
601.092	1	-8
601.432	1	-8
601.771	1	9
602.111	1	4
602.451	1	7
602.790	1	-1
603.130	1	-7
603.469	1	0
603.809	1	6
604.148	1	-2
604.487	1	0
604.827	1	-8
605.166	1	2
605.506	1	2
605.845	1	3
606.185	1	4
606.524	1	8
606.864	1	5
607.203	1	5
607.543	1	17
607.882	1	-2
608.222	1	-6
608.561	1	0
608.901	1	7
609.240	1	-1
609.579	1	-2
609.919	1	2
610.258	1	3
610.598	1	6
610.937	1	-6
611.277	1	2
611.616	1	2
611.955	1	5
612.295	1	5
612.634	1	2
612.974	1	9
613.313	1	4
613.652	1	16
613.992	1	5
614.331	1	5
614.671	1	1
615.010	1	1
615.349	1	1
615.689	1	11
616.028	1	6
616.368	1	8
616.707	1	3
617.046	1	-6
617.386	1	-5
617.725	1	0
618.064	1	0
618.404	1	2
618.743	1	6
619.082	1	7
619.422	1	0
619.761	1	-7
620.100	1	4
620.440	1	17
620.779	1	0
621.118	1	-7
621.458	1	8
621.797	1	8
622.136	1	4
622.476	1	-12
622.815	1	-3
623.154	1	-3
623.494	1	-6
623.833	1	5
624.172	1	-2
624.511	1	-3
624.851	1	1
625.190	1	5
625.529	1	3
625.869	1	2
626.208	1	2
626.547	1	-4
626.886	1	-2
627.226	1	2
627.565	1	1
627.904	1	-6
628.243	1	-5
628.583	1	-4
628.922	1	-5
629.261	1	-4
629.600	1	-2
629.940	1	-2
630.279	1	3
630.618	1	-4
630.957	1	7
631.297	1	1
631.636	1	16
631.975	1	1
632.314	1	5
632.653	1	12
632.993	1	5
633.332	1	3
633.671	1	7
634.010	1	9
634.349	1	-4
634.689	1	0
635.028	1	-2
635.367	1	-10
635.706	1	4
636.045	1	6
636.384	1	-4
636.724	1	2
637.063	1	11
637.402	1	13
637.741	1	-6
638.080	1	16
638.419	1	0
638.759	1	10
639.098	1	-11
639.437	1	-7
639.776	1	2
640.115	1	1
640.454	1	-5
640.793	1	5
641.132	1	-3
641.472	1	-12
641.811	1	6
642.150	1	8
642.489	1	5
642.828	1	-4
643.167	1	-1
643.506	1	2
643.845	1	4
644.184	1	5
644.524	1	0
644.863	1	-3
645.202	1	15
645.541	1	0
645.880	1	10
646.219	1	2
646.558	1	3
646.897	1	4
647.236	1	-2
647.575	1	-5
647.914	1	0
648.253	1	5
648.592	1	4
648.931	1	5
649.270	1	-3
649.610	1	2
649.949	1	-9
650.288	1	-3
650.627	1	-7
650.966	1	-2
651.305	1	-5
651.644	1	14
651.983	1	-2
652.322	1	-2
652.661	1	7
653.000	1	0
653.339	1	-6
653.678	1	5
654.017	1	1
654.356	1	0
654.695	1	16
655.034	1	-8
655.373	1	2
655.712	1	-7
656.051	1	4
656.390	1	-1
656.729	1	5
657.068	1	12
657.406	1	-1
657.745	1	7
658.084	1	-5
658.423	1	-1
658.762	1	-1
659.101	1	2
659.440	1	4
659.779	1	5
660.118	1	5
660.457	1	4
660.796	1	2
661.135	1	-10
661.474	1	3
661.813	1	-3
662.152	1	0
662.491	1	-8
662.829	1	-2
663.168	1	1
663.507	1	7
663.846	1	-4
664.185	1	7
664.524	1	3
664.863	1	-2
665.202	1	24
665.541	1	9
665.879	1	13
666.218	1	16
666.557	1	2
666.896	1	2
667.235	1	4
667.574	1	-14
667.913	1	-11
668.251	1	3
668.590	1	5
668.929	1	6
669.268	1	-9
669.607	1	4
669.946	1	7
670.285	1	8
670.623	1	1
670.962	1	2
671.301	1	3
671.640	1	14
671.979	1	1
672.317	1	12
672.656	1	-6
672.995	1	-8
673.334	1	-8
673.673	1	2
674.011	1	9
674.350	1	2
674.689	1	8
675.028	1	-5
675.367	1	6
675.705	1	1
676.044	1	8
676.383	1	-1
676.722	1	11
677.060	1	-7
677.399	1	-1
677.738	1	0
678.077	1	19
678.416	1	-7
678.754	1	4
679.093	1	3
679.432	1	4
679.771	1	10
680.109	1	-3
680.448	1	5
680.787	1	-3
681.125	1	0
681.464	1	14
681.803	1	-1
682.142	1	3
682.480	1	-2
682.819	1	8
683.158	1	-3
683.496	1	-3
683.835	1	-6
684.174	1	-3
684.512	1	4
684.851	1	-4
685.190	1	-8
685.529	1	4
685.867	1	6
686.206	1	6
686.545	1	2
686.883	1	-1
687.222	1	4
687.561	1	10
687.899	1	-7
688.238	1	2
688.577	1	20
688.746	1	-6