File: Data/GaN_170K_550ms/GaN_sample D_spot 18_UVVIS_170 K_200um_550 ms 2x2mm1_73.txt
340.368	1	-4
340.710	1	-6
341.052	1	6
341.394	1	6
341.737	1	-1
342.079	1	2
342.421	1	4
342.763	1	5
343.105	1	13
343.447	1	-5
343.789	1	4
344.131	1	-1
344.473	1	-4
344.815	1	16
345.157	1	8
345.499	1	-10
345.841	1	6
346.183	1	3
346.526	1	4
346.868	1	8
347.210	1	-8
347.552	1	14
347.894	1	2
348.236	1	10
348.578	1	10
348.920	1	6
349.262	1	8
349.604	1	14
349.946	1	10
350.288	1	3
350.630	1	10
350.972	1	-3
351.314	1	12
351.656	1	10
351.998	1	16
352.340	1	11
352.682	1	16
353.024	1	6
353.366	1	14
353.708	1	18
354.050	1	4
354.392	1	2
354.734	1	16
355.076	1	8
355.418	1	14
355.760	1	14
356.102	1	16
356.444	1	17
356.785	1	24
357.127	1	17
357.469	1	15
357.811	1	14
358.153	1	33
358.495	1	20
358.837	1	28
359.179	1	34
359.521	1	37
359.863	1	27
360.205	1	43
360.547	1	54
360.889	1	52
361.231	1	59
361.572	1	57
361.914	1	60
362.256	1	62
362.598	1	79
362.940	1	93
363.282	1	100
363.624	1	106
363.966	1	112
364.308	1	112
364.649	1	114
364.991	1	155
365.333	1	147
365.675	1	173
366.017	1	188
366.359	1	191
366.701	1	212
367.042	1	233
367.384	1	234
367.726	1	256
368.068	1	251
368.410	1	271
368.752	1	269
369.093	1	252
369.435	1	239
369.777	1	258
370.119	1	251
370.461	1	234
370.803	1	215
371.144	1	213
371.486	1	202
371.828	1	179
372.170	1	174
372.512	1	176
372.853	1	160
373.195	1	157
373.537	1	163
373.879	1	140
374.220	1	137
374.562	1	107
374.904	1	118
375.246	1	113
375.588	1	97
375.929	1	105
376.271	1	98
376.613	1	91
376.955	1	101
377.296	1	83
377.638	1	79
377.980	1	66
378.321	1	70
378.663	1	71
379.005	1	66
379.347	1	62
379.688	1	58
380.030	1	57
380.372	1	55
380.714	1	55
381.055	1	55
381.397	1	51
381.739	1	44
382.080	1	46
382.422	1	41
382.764	1	53
383.105	1	45
383.447	1	38
383.789	1	37
384.130	1	42
384.472	1	31
384.814	1	35
385.156	1	36
385.497	1	49
385.839	1	23
386.180	1	44
386.522	1	37
386.864	1	38
387.205	1	30
387.547	1	25
387.889	1	28
388.230	1	28
388.572	1	20
388.914	1	21
389.255	1	22
389.597	1	16
389.939	1	14
390.280	1	24
390.622	1	17
390.963	1	15
391.305	1	12
391.647	1	10
391.988	1	17
392.330	1	20
392.671	1	11
393.013	1	10
393.355	1	13
393.696	1	11
394.038	1	10
394.379	1	6
394.721	1	22
395.062	1	0
395.404	1	15
395.746	1	19
396.087	1	22
396.429	1	12
396.770	1	23
397.112	1	13
397.453	1	15
397.795	1	12
398.136	1	11
398.478	1	7
398.819	1	6
399.161	1	3
399.503	1	13
399.844	1	5
400.186	1	2
400.527	1	28
400.869	1	10
401.210	1	16
401.552	1	12
401.893	1	12
402.235	1	8
402.576	1	6
402.918	1	4
403.259	1	8
403.601	1	14
403.942	1	12
404.284	1	3
404.625	1	17
404.967	1	6
405.308	1	21
405.649	1	5
405.991	1	3
406.332	1	-2
406.674	1	13
407.015	1	9
407.357	1	7
407.698	1	7
408.040	1	7
408.381	1	11
408.722	1	0
409.064	1	-1
409.405	1	12
409.747	1	6
410.088	1	16
410.430	1	10
410.771	1	7
411.112	1	10
411.454	1	5
411.795	1	17
412.137	1	0
412.478	1	3
412.819	1	-14
413.161	1	12
413.502	1	4
413.844	1	9
414.185	1	-1
414.526	1	9
414.868	1	0
415.209	1	2
415.550	1	10
415.892	1	-1
416.233	1	16
416.575	1	4
416.916	1	-6
417.257	1	10
417.599	1	3
417.940	1	11
418.281	1	-1
418.623	1	12
418.964	1	4
419.305	1	11
419.647	1	12
419.988	1	4
420.329	1	9
420.671	1	3
421.012	1	8
421.353	1	6
421.695	1	-5
422.036	1	10
422.377	1	3
422.718	1	13
423.060	1	6
423.401	1	6
423.742	1	4
424.084	1	13
424.425	1	-4
424.766	1	-2
425.107	1	7
425.449	1	5
425.790	1	12
426.131	1	6
426.472	1	11
426.814	1	-3
427.155	1	11
427.496	1	0
427.837	1	15
428.179	1	13
428.520	1	4
428.861	1	9
429.202	1	6
429.544	1	-3
429.885	1	6
430.226	1	11
430.567	1	9
430.909	1	-8
431.250	1	10
431.591	1	4
431.932	1	-2
432.273	1	-2
432.615	1	11
432.956	1	6
433.297	1	7
433.638	1	0
433.979	1	12
434.320	1	9
434.662	1	-10
435.003	1	-3
435.344	1	-4
435.685	1	6
436.026	1	3
436.368	1	10
436.709	1	8
437.050	1	-5
437.391	1	0
437.732	1	5
438.073	1	8
438.414	1	5
438.756	1	1
439.097	1	7
439.438	1	13
439.779	1	14
440.120	1	-4
440.461	1	19
440.802	1	8
441.143	1	10
441.485	1	-3
441.826	1	9
442.167	1	6
442.508	1	-3
442.849	1	-3
443.190	1	1
443.531	1	3
443.872	1	1
444.213	1	6
444.554	1	-1
444.895	1	-9
445.237	1	-7
445.578	1	16
445.919	1	5
446.260	1	7
446.601	1	-6
446.942	1	8
447.283	1	9
447.624	1	7
447.965	1	3
448.306	1	4
448.647	1	6
448.988	1	6
449.329	1	6
449.670	1	-11
450.011	1	18
450.352	1	-1
450.693	1	-2
451.034	1	4
451.375	1	5
451.716	1	8
452.057	1	5
452.398	1	8
452.739	1	2
453.080	1	11
453.421	1	8
453.762	1	3
454.103	1	-1
454.444	1	0
454.785	1	-2
455.126	1	8
455.467	1	-4
455.808	1	14
456.149	1	5
456.490	1	11
456.831	1	-3
457.172	1	-2
457.513	1	8
457.854	1	9
458.195	1	-1
458.536	1	5
458.877	1	3
459.218	1	14
459.559	1	4
459.899	1	1
460.240	1	3
460.581	1	5
460.922	1	9
461.263	1	-1
461.604	1	15
461.945	1	2
462.286	1	3
462.627	1	6
462.968	1	10
463.309	1	10
463.649	1	16
463.990	1	-6
464.331	1	4
464.672	1	-6
465.013	1	12
465.354	1	0
465.695	1	10
466.036	1	-2
466.376	1	4
466.717	1	1
467.058	1	4
467.399	1	21
467.740	1	10
468.081	1	8
468.422	1	16
468.762	1	12
469.103	1	16
469.444	1	-1
469.785	1	-2
470.126	1	4
470.467	1	11
470.807	1	-3
471.148	1	1
471.489	1	9
471.830	1	3
472.171	1	13
472.511	1	10
472.852	1	10
473.193	1	7
473.534	1	15
473.875	1	13
474.215	1	8
474.556	1	12
474.897	1	8
475.238	1	7
475.578	1	-2
475.919	1	8
476.260	1	13
476.601	1	10
476.942	1	0
477.282	1	17
477.623	1	16
477.964	1	7
478.305	1	6
478.645	1	2
478.986	1	1
479.327	1	-5
479.667	1	7
480.008	1	5
480.349	1	10
480.690	1	9
481.030	1	5
481.371	1	11
481.712	1	6
482.053	1	4
482.393	1	9
482.734	1	12
483.075	1	1
483.415	1	15
483.756	1	12
484.097	1	-1
484.437	1	11
484.778	1	-1
485.119	1	14
485.459	1	8
485.800	1	3
486.141	1	21
486.481	1	6
486.822	1	24
487.163	1	9
487.503	1	5
487.844	1	18
488.185	1	17
488.525	1	28
488.866	1	16
489.207	1	18
489.547	1	19
489.888	1	17
490.228	1	7
490.569	1	7
490.910	1	13
491.250	1	18
491.591	1	11
491.932	1	12
492.272	1	23
492.613	1	22
492.953	1	23
493.294	1	14
493.635	1	9
493.975	1	15
494.316	1	16
494.656	1	15
494.997	1	8
495.337	1	19
495.678	1	14
496.019	1	9
496.359	1	11
496.700	1	22
497.040	1	14
497.381	1	21
497.721	1	12
498.062	1	14
498.403	1	23
498.743	1	24
499.084	1	22
499.424	1	25
499.765	1	8
500.105	1	16
500.446	1	17
500.786	1	10
501.127	1	28
501.467	1	26
501.808	1	16
502.148	1	30
502.489	1	24
502.829	1	22
503.170	1	34
503.510	1	20
503.851	1	21
504.191	1	14
504.532	1	17
504.872	1	28
505.213	1	20
505.553	1	30
505.894	1	37
506.234	1	25
506.575	1	39
506.915	1	25
507.256	1	29
507.596	1	26
507.936	1	43
508.277	1	28
508.617	1	38
508.958	1	30
509.298	1	27
509.639	1	26
509.979	1	32
510.319	1	26
510.660	1	29
511.000	1	28
511.341	1	40
511.681	1	16
512.022	1	36
512.362	1	34
512.702	1	22
513.043	1	31
513.383	1	28
513.724	1	27
514.064	1	42
514.404	1	26
514.745	1	27
515.085	1	35
515.425	1	34
515.766	1	31
516.106	1	39
516.447	1	26
516.787	1	44
517.127	1	37
517.468	1	34
517.808	1	48
518.148	1	37
518.489	1	42
518.829	1	42
519.169	1	34
519.510	1	43
519.850	1	31
520.190	1	39
520.531	1	40
520.871	1	32
521.211	1	34
521.552	1	35
521.892	1	36
522.232	1	31
522.573	1	41
522.913	1	35
523.253	1	40
523.593	1	41
523.934	1	45
524.274	1	34
524.614	1	40
524.955	1	35
525.295	1	39
525.635	1	36
525.975	1	30
526.316	1	48
526.656	1	45
526.996	1	39
527.337	1	35
527.677	1	33
528.017	1	40
528.357	1	33
528.698	1	25
529.038	1	40
529.378	1	43
529.718	1	45
530.058	1	45
530.399	1	48
530.739	1	37
531.079	1	40
531.419	1	50
531.760	1	29
532.100	1	39
532.440	1	44
532.780	1	32
533.120	1	38
533.461	1	38
533.801	1	48
534.141	1	32
534.481	1	45
534.821	1	40
535.162	1	46
535.502	1	39
535.842	1	33
536.182	1	39
536.522	1	34
536.862	1	39
537.203	1	37
537.543	1	28
537.883	1	33
538.223	1	40
538.563	1	27
538.903	1	39
539.243	1	32
539.584	1	41
539.924	1	37
540.264	1	47
540.604	1	39
540.944	1	24
541.284	1	37
541.624	1	30
541.964	1	40
542.305	1	20
542.645	1	29
542.985	1	40
543.325	1	36
543.665	1	35
544.005	1	38
544.345	1	36
544.685	1	26
545.025	1	29
545.365	1	39
545.705	1	35
546.045	1	34
546.386	1	43
546.726	1	27
547.066	1	48
547.406	1	45
547.746	1	25
548.086	1	31
548.426	1	40
548.766	1	44
549.106	1	41
549.446	1	41
549.786	1	30
550.126	1	35
550.466	1	40
550.806	1	35
551.146	1	35
551.486	1	32
551.826	1	39
552.166	1	34
552.506	1	42
552.846	1	35
553.186	1	37
553.526	1	30
553.866	1	25
554.206	1	25
554.546	1	16
554.886	1	19
555.226	1	17
555.566	1	25
555.906	1	31
556.246	1	27
556.586	1	31
556.926	1	41
557.266	1	38
557.606	1	28
557.946	1	23
558.286	1	28
558.626	1	37
558.966	1	34
559.306	1	31
559.646	1	28
559.986	1	34
560.325	1	31
560.665	1	18
561.005	1	27
561.345	1	21
561.685	1	16
562.025	1	9
562.365	1	39
562.705	1	28
563.045	1	26
563.385	1	19
563.725	1	16
564.064	1	34
564.404	1	30
564.744	1	29
565.084	1	25
565.424	1	25
565.764	1	26
566.104	1	12
566.444	1	19
566.783	1	17
567.123	1	17
567.463	1	9
567.803	1	22
568.143	1	23
568.483	1	18
568.823	1	28
569.162	1	27
569.502	1	16
569.842	1	4
570.182	1	17
570.522	1	17
570.862	1	12
571.201	1	15
571.541	1	12
571.881	1	21
572.221	1	21
572.561	1	23
572.900	1	22
573.240	1	15
573.580	1	13
573.920	1	30
574.260	1	21
574.599	1	13
574.939	1	13
575.279	1	13
575.619	1	25
575.959	1	10
576.298	1	17
576.638	1	21
576.978	1	15
577.318	1	18
577.657	1	18
577.997	1	14
578.337	1	18
578.677	1	5
579.016	1	20
579.356	1	21
579.696	1	19
580.036	1	23
580.375	1	16
580.715	1	16
581.055	1	22
581.394	1	12
581.734	1	16
582.074	1	13
582.414	1	7
582.753	1	22
583.093	1	16
583.433	1	29
583.772	1	14
584.112	1	7
584.452	1	12
584.791	1	10
585.131	1	23
585.471	1	19
585.811	1	12
586.150	1	11
586.490	1	13
586.830	1	7
587.169	1	25
587.509	1	15
587.849	1	17
588.188	1	10
588.528	1	12
588.867	1	14
589.207	1	9
589.547	1	9
589.886	1	7
590.226	1	11
590.566	1	16
590.905	1	15
591.245	1	18
591.585	1	17
591.924	1	19
592.264	1	2
592.603	1	4
592.943	1	4
593.283	1	17
593.622	1	-1
593.962	1	13
594.301	1	9
594.641	1	11
594.981	1	17
595.320	1	13
595.660	1	13
595.999	1	3
596.339	1	9
596.678	1	6
597.018	1	14
597.358	1	-5
597.697	1	12
598.037	1	18
598.376	1	4
598.716	1	13
599.055	1	11
599.395	1	11
599.734	1	14
600.074	1	14
600.413	1	5
600.753	1	5
601.092	1	13
601.432	1	7
601.771	1	14
602.111	1	6
602.451	1	15
602.790	1	17
603.130	1	5
603.469	1	24
603.809	1	10
604.148	1	11
604.487	1	8
604.827	1	9
605.166	1	18
605.506	1	12
605.845	1	12
606.185	1	11
606.524	1	7
606.864	1	15
607.203	1	9
607.543	1	19
607.882	1	-2
608.222	1	11
608.561	1	14
608.901	1	7
609.240	1	6
609.579	1	7
609.919	1	4
610.258	1	10
610.598	1	14
610.937	1	14
611.277	1	13
611.616	1	6
611.955	1	12
612.295	1	4
612.634	1	2
612.974	1	13
613.313	1	7
613.652	1	20
613.992	1	12
614.331	1	12
614.671	1	22
615.010	1	7
615.349	1	16
615.689	1	10
616.028	1	4
616.368	1	10
616.707	1	7
617.046	1	1
617.386	1	8
617.725	1	2
618.064	1	10
618.404	1	11
618.743	1	8
619.082	1	11
619.422	1	6
619.761	1	-2
620.100	1	4
620.440	1	11
620.779	1	1
621.118	1	5
621.458	1	9
621.797	1	7
622.136	1	11
622.476	1	5
622.815	1	11
623.154	1	13
623.494	1	7
623.833	1	7
624.172	1	2
624.511	1	16
624.851	1	1
625.190	1	11
625.529	1	12
625.869	1	10
626.208	1	-2
626.547	1	5
626.886	1	6
627.226	1	5
627.565	1	8
627.904	1	6
628.243	1	10
628.583	1	6
628.922	1	-5
629.261	1	11
629.600	1	4
629.940	1	5
630.279	1	9
630.618	1	1
630.957	1	1
631.297	1	3
631.636	1	7
631.975	1	0
632.314	1	1
632.653	1	20
632.993	1	7
633.332	1	18
633.671	1	13
634.010	1	15
634.349	1	1
634.689	1	13
635.028	1	10
635.367	1	0
635.706	1	4
636.045	1	6
636.384	1	1
636.724	1	1
637.063	1	7
637.402	1	5
637.741	1	11
638.080	1	13
638.419	1	2
638.759	1	12
639.098	1	4
639.437	1	0
639.776	1	3
640.115	1	13
640.454	1	4
640.793	1	7
641.132	1	6
641.472	1	-1
641.811	1	14
642.150	1	2
642.489	1	5
642.828	1	0
643.167	1	7
643.506	1	26
643.845	1	9
644.184	1	11
644.524	1	6
644.863	1	-1
645.202	1	15
645.541	1	11
645.880	1	7
646.219	1	2
646.558	1	9
646.897	1	16
647.236	1	0
647.575	1	8
647.914	1	3
648.253	1	1
648.592	1	0
648.931	1	14
649.270	1	6
649.610	1	10
649.949	1	-3
650.288	1	13
650.627	1	7
650.966	1	5
651.305	1	-5
651.644	1	12
651.983	1	13
652.322	1	4
652.661	1	6
653.000	1	-5
653.339	1	-1
653.678	1	10
654.017	1	7
654.356	1	4
654.695	1	15
655.034	1	11
655.373	1	5
655.712	1	-1
656.051	1	8
656.390	1	6
656.729	1	9
657.068	1	6
657.406	1	6
657.745	1	12
658.084	1	2
658.423	1	2
658.762	1	7
659.101	1	6
659.440	1	9
659.779	1	6
660.118	1	10
660.457	1	3
660.796	1	7
661.135	1	-3
661.474	1	17
661.813	1	2
662.152	1	9
662.491	1	-4
662.829	1	0
663.168	1	5
663.507	1	7
663.846	1	2
664.185	1	11
664.524	1	8
664.863	1	5
665.202	1	19
665.541	1	3
665.879	1	6
666.218	1	12
666.557	1	10
666.896	1	4
667.235	1	3
667.574	1	-11
667.913	1	4
668.251	1	3
668.590	1	-2
668.929	1	0
669.268	1	2
669.607	1	5
669.946	1	2
670.285	1	16
670.623	1	3
670.962	1	-1
671.301	1	3
671.640	1	4
671.979	1	8
672.317	1	10
672.656	1	14
672.995	1	0
673.334	1	-3
673.673	1	8
674.011	1	14
674.350	1	11
674.689	1	19
675.028	1	4
675.367	1	6
675.705	1	8
676.044	1	19
676.383	1	9
676.722	1	8
677.060	1	2
677.399	1	4
677.738	1	5
678.077	1	19
678.416	1	3
678.754	1	13
679.093	1	7
679.432	1	2
679.771	1	4
680.109	1	3
680.448	1	9
680.787	1	4
681.125	1	15
681.464	1	11
681.803	1	13
682.142	1	5
682.480	1	5
682.819	1	9
683.158	1	8
683.496	1	14
683.835	1	7
684.174	1	5
684.512	1	2
684.851	1	6
685.190	1	-4
685.529	1	18
685.867	1	4
686.206	1	10
686.545	1	10
686.883	1	7
687.222	1	6
687.561	1	5
687.899	1	4
688.238	1	1
688.577	1	20
688.746	1	10