File: Data/GaN_170K_550ms/GaN_sample D_spot 18_UVVIS_170 K_200um_550 ms 2x2mm1_32.txt
340.368	1	-2
340.710	1	-6
341.052	1	1
341.394	1	12
341.737	1	0
342.079	1	0
342.421	1	5
342.763	1	3
343.105	1	14
343.447	1	-6
343.789	1	6
344.131	1	7
344.473	1	3
344.815	1	4
345.157	1	-2
345.499	1	-8
345.841	1	5
346.183	1	10
346.526	1	2
346.868	1	9
347.210	1	-3
347.552	1	2
347.894	1	6
348.236	1	4
348.578	1	7
348.920	1	6
349.262	1	6
349.604	1	11
349.946	1	12
350.288	1	1
350.630	1	4
350.972	1	-7
351.314	1	4
351.656	1	2
351.998	1	9
352.340	1	1
352.682	1	5
353.024	1	-1
353.366	1	6
353.708	1	9
354.050	1	-11
354.392	1	-2
354.734	1	-3
355.076	1	-4
355.418	1	-2
355.760	1	-1
356.102	1	4
356.444	1	-6
356.785	1	2
357.127	1	-5
357.469	1	-3
357.811	1	-4
358.153	1	0
358.495	1	-5
358.837	1	4
359.179	1	1
359.521	1	3
359.863	1	1
360.205	1	6
360.547	1	2
360.889	1	6
361.231	1	0
361.572	1	10
361.914	1	-9
362.256	1	-4
362.598	1	2
362.940	1	12
363.282	1	2
363.624	1	-8
363.966	1	2
364.308	1	1
364.649	1	2
364.991	1	2
365.333	1	0
365.675	1	2
366.017	1	-3
366.359	1	0
366.701	1	8
367.042	1	-5
367.384	1	9
367.726	1	5
368.068	1	3
368.410	1	13
368.752	1	5
369.093	1	-3
369.435	1	-3
369.777	1	3
370.119	1	-2
370.461	1	5
370.803	1	-6
371.144	1	0
371.486	1	-1
371.828	1	2
372.170	1	0
372.512	1	-2
372.853	1	2
373.195	1	-3
373.537	1	2
373.879	1	8
374.220	1	12
374.562	1	1
374.904	1	-5
375.246	1	-2
375.588	1	2
375.929	1	-2
376.271	1	8
376.613	1	-1
376.955	1	-2
377.296	1	4
377.638	1	2
377.980	1	-11
378.321	1	6
378.663	1	4
379.005	1	1
379.347	1	-2
379.688	1	4
380.030	1	5
380.372	1	4
380.714	1	7
381.055	1	9
381.397	1	-3
381.739	1	-2
382.080	1	-10
382.422	1	1
382.764	1	3
383.105	1	5
383.447	1	12
383.789	1	17
384.130	1	-5
384.472	1	-6
384.814	1	0
385.156	1	-8
385.497	1	3
385.839	1	1
386.180	1	7
386.522	1	6
386.864	1	-1
387.205	1	0
387.547	1	0
387.889	1	5
388.230	1	1
388.572	1	1
388.914	1	-1
389.255	1	10
389.597	1	6
389.939	1	-7
390.280	1	0
390.622	1	4
390.963	1	3
391.305	1	-2
391.647	1	-8
391.988	1	10
392.330	1	4
392.671	1	-6
393.013	1	-3
393.355	1	1
393.696	1	6
394.038	1	4
394.379	1	-4
394.721	1	2
395.062	1	-2
395.404	1	5
395.746	1	7
396.087	1	-3
396.429	1	7
396.770	1	11
397.112	1	-1
397.453	1	5
397.795	1	-6
398.136	1	2
398.478	1	-3
398.819	1	-1
399.161	1	-3
399.503	1	8
399.844	1	-10
400.186	1	-1
400.527	1	13
400.869	1	3
401.210	1	1
401.552	1	2
401.893	1	2
402.235	1	-2
402.576	1	-2
402.918	1	0
403.259	1	5
403.601	1	12
403.942	1	8
404.284	1	-6
404.625	1	4
404.967	1	4
405.308	1	0
405.649	1	1
405.991	1	-2
406.332	1	-7
406.674	1	2
407.015	1	2
407.357	1	-7
407.698	1	3
408.040	1	0
408.381	1	1
408.722	1	-2
409.064	1	1
409.405	1	0
409.747	1	-3
410.088	1	2
410.430	1	-7
410.771	1	8
411.112	1	6
411.454	1	-1
411.795	1	1
412.137	1	-12
412.478	1	-2
412.819	1	-7
413.161	1	-1
413.502	1	-2
413.844	1	0
414.185	1	2
414.526	1	-4
414.868	1	5
415.209	1	-1
415.550	1	0
415.892	1	9
416.233	1	5
416.575	1	-2
416.916	1	-12
417.257	1	11
417.599	1	-1
417.940	1	0
418.281	1	-6
418.623	1	-1
418.964	1	10
419.305	1	5
419.647	1	4
419.988	1	8
420.329	1	-2
420.671	1	-1
421.012	1	7
421.353	1	3
421.695	1	-12
422.036	1	8
422.377	1	3
422.718	1	13
423.060	1	5
423.401	1	1
423.742	1	0
424.084	1	8
424.425	1	-5
424.766	1	-1
425.107	1	-3
425.449	1	4
425.790	1	10
426.131	1	4
426.472	1	1
426.814	1	-6
427.155	1	10
427.496	1	-5
427.837	1	10
428.179	1	8
428.520	1	-1
428.861	1	1
429.202	1	-4
429.544	1	5
429.885	1	-2
430.226	1	4
430.567	1	1
430.909	1	-2
431.250	1	10
431.591	1	-6
431.932	1	-2
432.273	1	-1
432.615	1	6
432.956	1	3
433.297	1	-4
433.638	1	15
433.979	1	3
434.320	1	12
434.662	1	-11
435.003	1	4
435.344	1	-4
435.685	1	1
436.026	1	0
436.368	1	5
436.709	1	5
437.050	1	-5
437.391	1	-9
437.732	1	10
438.073	1	2
438.414	1	-1
438.756	1	-4
439.097	1	0
439.438	1	3
439.779	1	7
440.120	1	-7
440.461	1	6
440.802	1	9
441.143	1	-8
441.485	1	-6
441.826	1	11
442.167	1	4
442.508	1	-1
442.849	1	-1
443.190	1	0
443.531	1	-3
443.872	1	-2
444.213	1	4
444.554	1	-3
444.895	1	-18
445.237	1	-1
445.578	1	4
445.919	1	11
446.260	1	-4
446.601	1	0
446.942	1	8
447.283	1	6
447.624	1	-3
447.965	1	6
448.306	1	-3
448.647	1	-3
448.988	1	10
449.329	1	11
449.670	1	-14
450.011	1	11
450.352	1	-11
450.693	1	-2
451.034	1	-6
451.375	1	-3
451.716	1	3
452.057	1	2
452.398	1	2
452.739	1	2
453.080	1	3
453.421	1	11
453.762	1	2
454.103	1	-1
454.444	1	2
454.785	1	5
455.126	1	6
455.467	1	-4
455.808	1	8
456.149	1	4
456.490	1	12
456.831	1	-5
457.172	1	1
457.513	1	9
457.854	1	4
458.195	1	8
458.536	1	-2
458.877	1	5
459.218	1	1
459.559	1	-3
459.899	1	3
460.240	1	-2
460.581	1	9
460.922	1	-9
461.263	1	-1
461.604	1	9
461.945	1	2
462.286	1	-15
462.627	1	11
462.968	1	6
463.309	1	9
463.649	1	1
463.990	1	-2
464.331	1	2
464.672	1	0
465.013	1	4
465.354	1	-8
465.695	1	4
466.036	1	-2
466.376	1	3
466.717	1	-1
467.058	1	2
467.399	1	8
467.740	1	-6
468.081	1	-5
468.422	1	4
468.762	1	12
469.103	1	6
469.444	1	0
469.785	1	1
470.126	1	6
470.467	1	-2
470.807	1	-4
471.148	1	-4
471.489	1	-6
471.830	1	-4
472.171	1	7
472.511	1	5
472.852	1	2
473.193	1	3
473.534	1	3
473.875	1	3
474.215	1	3
474.556	1	3
474.897	1	-1
475.238	1	-3
475.578	1	4
475.919	1	4
476.260	1	5
476.601	1	-2
476.942	1	0
477.282	1	5
477.623	1	5
477.964	1	6
478.305	1	2
478.645	1	4
478.986	1	2
479.327	1	-4
479.667	1	0
480.008	1	8
480.349	1	4
480.690	1	0
481.030	1	7
481.371	1	0
481.712	1	-3
482.053	1	-5
482.393	1	-7
482.734	1	7
483.075	1	2
483.415	1	0
483.756	1	3
484.097	1	-4
484.437	1	-2
484.778	1	-7
485.119	1	-4
485.459	1	-8
485.800	1	-7
486.141	1	11
486.481	1	-1
486.822	1	3
487.163	1	7
487.503	1	3
487.844	1	2
488.185	1	0
488.525	1	2
488.866	1	14
489.207	1	3
489.547	1	1
489.888	1	3
490.228	1	-1
490.569	1	2
490.910	1	-1
491.250	1	-2
491.591	1	-1
491.932	1	4
492.272	1	2
492.613	1	-3
492.953	1	8
493.294	1	-4
493.635	1	-13
493.975	1	1
494.316	1	0
494.656	1	-4
494.997	1	2
495.337	1	8
495.678	1	-3
496.019	1	-11
496.359	1	0
496.700	1	7
497.040	1	-3
497.381	1	0
497.721	1	-7
498.062	1	-12
498.403	1	15
498.743	1	7
499.084	1	6
499.424	1	10
499.765	1	-9
500.105	1	-9
500.446	1	5
500.786	1	0
501.127	1	-2
501.467	1	-1
501.808	1	1
502.148	1	10
502.489	1	-9
502.829	1	3
503.170	1	6
503.510	1	2
503.851	1	-2
504.191	1	-5
504.532	1	-5
504.872	1	9
505.213	1	-3
505.553	1	-4
505.894	1	12
506.234	1	-11
506.575	1	14
506.915	1	1
507.256	1	-10
507.596	1	5
507.936	1	5
508.277	1	1
508.617	1	8
508.958	1	-2
509.298	1	2
509.639	1	9
509.979	1	9
510.319	1	-2
510.660	1	-8
511.000	1	-2
511.341	1	19
511.681	1	0
512.022	1	0
512.362	1	-3
512.702	1	-9
513.043	1	-1
513.383	1	1
513.724	1	5
514.064	1	6
514.404	1	0
514.745	1	-9
515.085	1	2
515.425	1	6
515.766	1	14
516.106	1	6
516.447	1	-5
516.787	1	-5
517.127	1	2
517.468	1	4
517.808	1	9
518.148	1	3
518.489	1	11
518.829	1	2
519.169	1	-7
519.510	1	-1
519.850	1	2
520.190	1	4
520.531	1	10
520.871	1	-2
521.211	1	7
521.552	1	-1
521.892	1	-1
522.232	1	-3
522.573	1	4
522.913	1	4
523.253	1	15
523.593	1	11
523.934	1	5
524.274	1	-4
524.614	1	4
524.955	1	0
525.295	1	3
525.635	1	4
525.975	1	3
526.316	1	10
526.656	1	10
526.996	1	3
527.337	1	6
527.677	1	0
528.017	1	6
528.357	1	1
528.698	1	-4
529.038	1	-10
529.378	1	3
529.718	1	11
530.058	1	9
530.399	1	3
530.739	1	12
531.079	1	8
531.419	1	1
531.760	1	-1
532.100	1	-4
532.440	1	2
532.780	1	-6
533.120	1	9
533.461	1	-4
533.801	1	12
534.141	1	-8
534.481	1	10
534.821	1	6
535.162	1	6
535.502	1	-1
535.842	1	10
536.182	1	6
536.522	1	7
536.862	1	-2
537.203	1	6
537.543	1	-4
537.883	1	8
538.223	1	-1
538.563	1	2
538.903	1	7
539.243	1	-8
539.584	1	9
539.924	1	-6
540.264	1	8
540.604	1	3
540.944	1	-2
541.284	1	12
541.624	1	-2
541.964	1	3
542.305	1	0
542.645	1	-6
542.985	1	1
543.325	1	3
543.665	1	8
544.005	1	14
544.345	1	3
544.685	1	2
545.025	1	-3
545.365	1	2
545.705	1	2
546.045	1	-7
546.386	1	0
546.726	1	0
547.066	1	16
547.406	1	4
547.746	1	-9
548.086	1	4
548.426	1	6
548.766	1	-4
549.106	1	8
549.446	1	6
549.786	1	5
550.126	1	0
550.466	1	-3
550.806	1	2
551.146	1	5
551.486	1	0
551.826	1	4
552.166	1	4
552.506	1	1
552.846	1	6
553.186	1	2
553.526	1	-1
553.866	1	-10
554.206	1	7
554.546	1	-9
554.886	1	3
555.226	1	-3
555.566	1	4
555.906	1	-10
556.246	1	-3
556.586	1	-10
556.926	1	2
557.266	1	5
557.606	1	0
557.946	1	10
558.286	1	1
558.626	1	13
558.966	1	8
559.306	1	8
559.646	1	1
559.986	1	6
560.325	1	-1
560.665	1	0
561.005	1	3
561.345	1	-7
561.685	1	8
562.025	1	-12
562.365	1	0
562.705	1	5
563.045	1	-8
563.385	1	8
563.725	1	-5
564.064	1	-1
564.404	1	-3
564.744	1	11
565.084	1	7
565.424	1	8
565.764	1	-1
566.104	1	1
566.444	1	15
566.783	1	4
567.123	1	0
567.463	1	-6
567.803	1	3
568.143	1	3
568.483	1	0
568.823	1	-1
569.162	1	-3
569.502	1	-10
569.842	1	-2
570.182	1	1
570.522	1	6
570.862	1	11
571.201	1	10
571.541	1	0
571.881	1	-2
572.221	1	1
572.561	1	10
572.900	1	1
573.240	1	6
573.580	1	12
573.920	1	15
574.260	1	9
574.599	1	-5
574.939	1	-4
575.279	1	-1
575.619	1	5
575.959	1	-11
576.298	1	7
576.638	1	4
576.978	1	0
577.318	1	1
577.657	1	1
577.997	1	-3
578.337	1	7
578.677	1	-1
579.016	1	5
579.356	1	-2
579.696	1	-6
580.036	1	-1
580.375	1	-7
580.715	1	5
581.055	1	-2
581.394	1	2
581.734	1	1
582.074	1	6
582.414	1	-4
582.753	1	1
583.093	1	9
583.433	1	7
583.772	1	-8
584.112	1	-1
584.452	1	-3
584.791	1	4
585.131	1	8
585.471	1	-1
585.811	1	-9
586.150	1	-8
586.490	1	9
586.830	1	-11
587.169	1	13
587.509	1	2
587.849	1	7
588.188	1	-5
588.528	1	-4
588.867	1	-7
589.207	1	-4
589.547	1	5
589.886	1	-2
590.226	1	-2
590.566	1	-4
590.905	1	9
591.245	1	-1
591.585	1	-3
591.924	1	-6
592.264	1	-11
592.603	1	-5
592.943	1	2
593.283	1	2
593.622	1	-9
593.962	1	-4
594.301	1	5
594.641	1	15
594.981	1	8
595.320	1	-2
595.660	1	-2
595.999	1	1
596.339	1	10
596.678	1	1
597.018	1	5
597.358	1	-6
597.697	1	-7
598.037	1	-2
598.376	1	-13
598.716	1	10
599.055	1	-3
599.395	1	-3
599.734	1	3
600.074	1	-1
600.413	1	-2
600.753	1	12
601.092	1	-1
601.432	1	-12
601.771	1	5
602.111	1	-5
602.451	1	7
602.790	1	5
603.130	1	-6
603.469	1	9
603.809	1	4
604.148	1	5
604.487	1	-2
604.827	1	-2
605.166	1	9
605.506	1	1
605.845	1	4
606.185	1	-2
606.524	1	6
606.864	1	7
607.203	1	4
607.543	1	0
607.882	1	1
608.222	1	1
608.561	1	9
608.901	1	8
609.240	1	1
609.579	1	1
609.919	1	-4
610.258	1	9
610.598	1	4
610.937	1	0
611.277	1	3
611.616	1	0
611.955	1	7
612.295	1	-11
612.634	1	9
612.974	1	-4
613.313	1	-1
613.652	1	7
613.992	1	-12
614.331	1	-1
614.671	1	9
615.010	1	-3
615.349	1	6
615.689	1	14
616.028	1	4
616.368	1	-1
616.707	1	10
617.046	1	-6
617.386	1	3
617.725	1	2
618.064	1	-2
618.404	1	3
618.743	1	-1
619.082	1	8
619.422	1	2
619.761	1	9
620.100	1	-2
620.440	1	3
620.779	1	-1
621.118	1	2
621.458	1	-3
621.797	1	9
622.136	1	0
622.476	1	-9
622.815	1	6
623.154	1	-1
623.494	1	0
623.833	1	3
624.172	1	5
624.511	1	4
624.851	1	-7
625.190	1	5
625.529	1	9
625.869	1	4
626.208	1	11
626.547	1	-6
626.886	1	-1
627.226	1	6
627.565	1	7
627.904	1	0
628.243	1	-9
628.583	1	0
628.922	1	-8
629.261	1	9
629.600	1	1
629.940	1	-7
630.279	1	5
630.618	1	-4
630.957	1	-2
631.297	1	-1
631.636	1	3
631.975	1	-4
632.314	1	0
632.653	1	9
632.993	1	-5
633.332	1	0
633.671	1	6
634.010	1	7
634.349	1	7
634.689	1	8
635.028	1	-3
635.367	1	-4
635.706	1	-3
636.045	1	16
636.384	1	-3
636.724	1	9
637.063	1	4
637.402	1	10
637.741	1	2
638.080	1	-4
638.419	1	-6
638.759	1	1
639.098	1	-1
639.437	1	-8
639.776	1	-2
640.115	1	8
640.454	1	-1
640.793	1	4
641.132	1	-2
641.472	1	-7
641.811	1	3
642.150	1	2
642.489	1	-4
642.828	1	1
643.167	1	-5
643.506	1	7
643.845	1	4
644.184	1	13
644.524	1	-2
644.863	1	-8
645.202	1	14
645.541	1	7
645.880	1	8
646.219	1	3
646.558	1	9
646.897	1	1
647.236	1	-2
647.575	1	1
647.914	1	-2
648.253	1	0
648.592	1	-7
648.931	1	7
649.270	1	-7
649.610	1	13
649.949	1	-4
650.288	1	3
650.627	1	-4
650.966	1	1
651.305	1	-7
651.644	1	3
651.983	1	3
652.322	1	6
652.661	1	3
653.000	1	-2
653.339	1	-3
653.678	1	1
654.017	1	4
654.356	1	-8
654.695	1	12
655.034	1	0
655.373	1	14
655.712	1	-10
656.051	1	6
656.390	1	6
656.729	1	3
657.068	1	1
657.406	1	0
657.745	1	2
658.084	1	-6
658.423	1	6
658.762	1	1
659.101	1	10
659.440	1	10
659.779	1	12
660.118	1	9
660.457	1	6
660.796	1	-1
661.135	1	-5
661.474	1	19
661.813	1	-5
662.152	1	5
662.491	1	2
662.829	1	-1
663.168	1	9
663.507	1	1
663.846	1	1
664.185	1	-1
664.524	1	4
664.863	1	-1
665.202	1	13
665.541	1	6
665.879	1	10
666.218	1	8
666.557	1	-1
666.896	1	-1
667.235	1	-4
667.574	1	-6
667.913	1	3
668.251	1	2
668.590	1	-1
668.929	1	4
669.268	1	-6
669.607	1	9
669.946	1	8
670.285	1	12
670.623	1	5
670.962	1	0
671.301	1	-6
671.640	1	2
671.979	1	-15
672.317	1	12
672.656	1	2
672.995	1	-12
673.334	1	-9
673.673	1	2
674.011	1	14
674.350	1	5
674.689	1	-1
675.028	1	2
675.367	1	3
675.705	1	6
676.044	1	15
676.383	1	-4
676.722	1	14
677.060	1	-8
677.399	1	-1
677.738	1	-14
678.077	1	15
678.416	1	-3
678.754	1	-1
679.093	1	5
679.432	1	-1
679.771	1	3
680.109	1	4
680.448	1	4
680.787	1	-7
681.125	1	2
681.464	1	6
681.803	1	12
682.142	1	-5
682.480	1	4
682.819	1	10
683.158	1	-8
683.496	1	4
683.835	1	-3
684.174	1	2
684.512	1	2
684.851	1	-8
685.190	1	4
685.529	1	8
685.867	1	7
686.206	1	5
686.545	1	6
686.883	1	-1
687.222	1	-5
687.561	1	3
687.899	1	-3
688.238	1	0
688.577	1	8
688.746	1	-2