File: Data/GaN_170K_550ms/GaN_sample D_spot 18_UVVIS_170 K_200um_550 ms 2x2mm1_8.txt
340.368	1	-5
340.710	1	-11
341.052	1	7
341.394	1	-1
341.737	1	0
342.079	1	-2
342.421	1	4
342.763	1	9
343.105	1	22
343.447	1	-10
343.789	1	3
344.131	1	3
344.473	1	0
344.815	1	13
345.157	1	-3
345.499	1	0
345.841	1	6
346.183	1	13
346.526	1	10
346.868	1	6
347.210	1	-6
347.552	1	6
347.894	1	-4
348.236	1	-4
348.578	1	5
348.920	1	-1
349.262	1	-3
349.604	1	9
349.946	1	4
350.288	1	-5
350.630	1	4
350.972	1	4
351.314	1	0
351.656	1	-13
351.998	1	4
352.340	1	2
352.682	1	3
353.024	1	0
353.366	1	1
353.708	1	7
354.050	1	-10
354.392	1	-2
354.734	1	-3
355.076	1	1
355.418	1	-5
355.760	1	-6
356.102	1	0
356.444	1	-6
356.785	1	1
357.127	1	1
357.469	1	-1
357.811	1	4
358.153	1	1
358.495	1	-3
358.837	1	-2
359.179	1	-5
359.521	1	3
359.863	1	1
360.205	1	3
360.547	1	2
360.889	1	-1
361.231	1	-7
361.572	1	5
361.914	1	-7
362.256	1	-7
362.598	1	2
362.940	1	11
363.282	1	6
363.624	1	-2
363.966	1	-3
364.308	1	-4
364.649	1	-5
364.991	1	1
365.333	1	-2
365.675	1	5
366.017	1	-2
366.359	1	-1
366.701	1	6
367.042	1	-2
367.384	1	7
367.726	1	11
368.068	1	6
368.410	1	5
368.752	1	0
369.093	1	-9
369.435	1	-2
369.777	1	6
370.119	1	-1
370.461	1	2
370.803	1	-14
371.144	1	6
371.486	1	-7
371.828	1	-2
372.170	1	-5
372.512	1	-2
372.853	1	7
373.195	1	7
373.537	1	11
373.879	1	10
374.220	1	7
374.562	1	2
374.904	1	0
375.246	1	-2
375.588	1	1
375.929	1	3
376.271	1	-5
376.613	1	4
376.955	1	6
377.296	1	3
377.638	1	-1
377.980	1	-12
378.321	1	0
378.663	1	3
379.005	1	-7
379.347	1	1
379.688	1	1
380.030	1	-8
380.372	1	2
380.714	1	2
381.055	1	3
381.397	1	-4
381.739	1	2
382.080	1	2
382.422	1	7
382.764	1	-1
383.105	1	7
383.447	1	19
383.789	1	8
384.130	1	-6
384.472	1	-1
384.814	1	-1
385.156	1	-5
385.497	1	6
385.839	1	-10
386.180	1	8
386.522	1	0
386.864	1	2
387.205	1	-7
387.547	1	14
387.889	1	-1
388.230	1	2
388.572	1	9
388.914	1	4
389.255	1	8
389.597	1	-4
389.939	1	10
390.280	1	-8
390.622	1	0
390.963	1	-1
391.305	1	1
391.647	1	-10
391.988	1	8
392.330	1	0
392.671	1	-10
393.013	1	0
393.355	1	10
393.696	1	6
394.038	1	-2
394.379	1	-1
394.721	1	1
395.062	1	-1
395.404	1	6
395.746	1	4
396.087	1	-10
396.429	1	7
396.770	1	7
397.112	1	-1
397.453	1	4
397.795	1	2
398.136	1	-3
398.478	1	-7
398.819	1	0
399.161	1	1
399.503	1	-3
399.844	1	-11
400.186	1	-7
400.527	1	7
400.869	1	5
401.210	1	5
401.552	1	11
401.893	1	4
402.235	1	7
402.576	1	3
402.918	1	1
403.259	1	-1
403.601	1	5
403.942	1	0
404.284	1	-5
404.625	1	-2
404.967	1	4
405.308	1	4
405.649	1	-8
405.991	1	3
406.332	1	-6
406.674	1	6
407.015	1	2
407.357	1	-3
407.698	1	4
408.040	1	3
408.381	1	0
408.722	1	-8
409.064	1	-4
409.405	1	3
409.747	1	-2
410.088	1	6
410.430	1	-5
410.771	1	-1
411.112	1	1
411.454	1	6
411.795	1	10
412.137	1	-3
412.478	1	-9
412.819	1	-12
413.161	1	7
413.502	1	-2
413.844	1	-5
414.185	1	-6
414.526	1	-1
414.868	1	-8
415.209	1	-3
415.550	1	10
415.892	1	-1
416.233	1	11
416.575	1	3
416.916	1	-12
417.257	1	4
417.599	1	0
417.940	1	6
418.281	1	-8
418.623	1	4
418.964	1	-7
419.305	1	2
419.647	1	5
419.988	1	9
420.329	1	0
420.671	1	8
421.012	1	4
421.353	1	4
421.695	1	-3
422.036	1	7
422.377	1	-1
422.718	1	4
423.060	1	2
423.401	1	2
423.742	1	-2
424.084	1	16
424.425	1	-11
424.766	1	2
425.107	1	0
425.449	1	2
425.790	1	1
426.131	1	8
426.472	1	3
426.814	1	-2
427.155	1	4
427.496	1	-3
427.837	1	10
428.179	1	2
428.520	1	-5
428.861	1	3
429.202	1	-5
429.544	1	-4
429.885	1	0
430.226	1	1
430.567	1	2
430.909	1	12
431.250	1	6
431.591	1	-4
431.932	1	-6
432.273	1	-6
432.615	1	2
432.956	1	-6
433.297	1	1
433.638	1	1
433.979	1	0
434.320	1	8
434.662	1	-5
435.003	1	9
435.344	1	-8
435.685	1	1
436.026	1	-7
436.368	1	4
436.709	1	4
437.050	1	-9
437.391	1	-9
437.732	1	4
438.073	1	-2
438.414	1	-3
438.756	1	-1
439.097	1	0
439.438	1	3
439.779	1	11
440.120	1	3
440.461	1	7
440.802	1	6
441.143	1	-7
441.485	1	-5
441.826	1	5
442.167	1	4
442.508	1	-8
442.849	1	1
443.190	1	-1
443.531	1	1
443.872	1	3
444.213	1	-7
444.554	1	5
444.895	1	-11
445.237	1	-1
445.578	1	6
445.919	1	2
446.260	1	7
446.601	1	2
446.942	1	7
447.283	1	6
447.624	1	-3
447.965	1	-2
448.306	1	3
448.647	1	10
448.988	1	6
449.329	1	3
449.670	1	-11
450.011	1	8
450.352	1	-7
450.693	1	0
451.034	1	-4
451.375	1	5
451.716	1	10
452.057	1	-1
452.398	1	6
452.739	1	0
453.080	1	-4
453.421	1	-2
453.762	1	1
454.103	1	7
454.444	1	-5
454.785	1	-1
455.126	1	10
455.467	1	-11
455.808	1	7
456.149	1	2
456.490	1	-7
456.831	1	-1
457.172	1	2
457.513	1	8
457.854	1	1
458.195	1	4
458.536	1	-5
458.877	1	4
459.218	1	-1
459.559	1	8
459.899	1	7
460.240	1	-6
460.581	1	6
460.922	1	-4
461.263	1	4
461.604	1	9
461.945	1	-2
462.286	1	1
462.627	1	-5
462.968	1	4
463.309	1	2
463.649	1	16
463.990	1	-5
464.331	1	-5
464.672	1	1
465.013	1	13
465.354	1	-2
465.695	1	11
466.036	1	-8
466.376	1	-1
466.717	1	-4
467.058	1	5
467.399	1	8
467.740	1	-9
468.081	1	-1
468.422	1	7
468.762	1	15
469.103	1	3
469.444	1	4
469.785	1	-7
470.126	1	4
470.467	1	8
470.807	1	-4
471.148	1	-1
471.489	1	4
471.830	1	0
472.171	1	3
472.511	1	7
472.852	1	3
473.193	1	5
473.534	1	1
473.875	1	3
474.215	1	2
474.556	1	1
474.897	1	-3
475.238	1	-6
475.578	1	-8
475.919	1	0
476.260	1	7
476.601	1	7
476.942	1	-14
477.282	1	10
477.623	1	2
477.964	1	-5
478.305	1	4
478.645	1	12
478.986	1	0
479.327	1	-6
479.667	1	-3
480.008	1	7
480.349	1	5
480.690	1	-1
481.030	1	-3
481.371	1	4
481.712	1	0
482.053	1	-10
482.393	1	-8
482.734	1	7
483.075	1	5
483.415	1	0
483.756	1	-6
484.097	1	-7
484.437	1	1
484.778	1	-12
485.119	1	0
485.459	1	-2
485.800	1	4
486.141	1	6
486.481	1	3
486.822	1	3
487.163	1	4
487.503	1	3
487.844	1	3
488.185	1	-7
488.525	1	3
488.866	1	9
489.207	1	2
489.547	1	11
489.888	1	5
490.228	1	-8
490.569	1	-1
490.910	1	0
491.250	1	0
491.591	1	-2
491.932	1	11
492.272	1	6
492.613	1	1
492.953	1	-4
493.294	1	0
493.635	1	-8
493.975	1	4
494.316	1	-5
494.656	1	6
494.997	1	-2
495.337	1	2
495.678	1	4
496.019	1	-11
496.359	1	0
496.700	1	4
497.040	1	4
497.381	1	0
497.721	1	-10
498.062	1	-4
498.403	1	6
498.743	1	2
499.084	1	-3
499.424	1	2
499.765	1	-5
500.105	1	-4
500.446	1	-3
500.786	1	0
501.127	1	-1
501.467	1	-4
501.808	1	-9
502.148	1	-1
502.489	1	-11
502.829	1	-1
503.170	1	6
503.510	1	-4
503.851	1	0
504.191	1	0
504.532	1	-16
504.872	1	9
505.213	1	-2
505.553	1	1
505.894	1	5
506.234	1	-8
506.575	1	6
506.915	1	0
507.256	1	-1
507.596	1	15
507.936	1	6
508.277	1	-12
508.617	1	7
508.958	1	-5
509.298	1	-3
509.639	1	7
509.979	1	1
510.319	1	-7
510.660	1	-1
511.000	1	2
511.341	1	7
511.681	1	0
512.022	1	10
512.362	1	6
512.702	1	-8
513.043	1	6
513.383	1	4
513.724	1	2
514.064	1	14
514.404	1	-4
514.745	1	-6
515.085	1	3
515.425	1	2
515.766	1	9
516.106	1	3
516.447	1	-5
516.787	1	6
517.127	1	1
517.468	1	2
517.808	1	4
518.148	1	3
518.489	1	7
518.829	1	-1
519.169	1	-3
519.510	1	4
519.850	1	-7
520.190	1	-4
520.531	1	7
520.871	1	-3
521.211	1	-6
521.552	1	1
521.892	1	1
522.232	1	-7
522.573	1	6
522.913	1	4
523.253	1	11
523.593	1	1
523.934	1	4
524.274	1	0
524.614	1	7
524.955	1	-1
525.295	1	-1
525.635	1	3
525.975	1	-4
526.316	1	9
526.656	1	4
526.996	1	5
527.337	1	1
527.677	1	-4
528.017	1	6
528.357	1	0
528.698	1	-1
529.038	1	-5
529.378	1	-6
529.718	1	8
530.058	1	8
530.399	1	5
530.739	1	2
531.079	1	8
531.419	1	10
531.760	1	-1
532.100	1	9
532.440	1	0
532.780	1	-7
533.120	1	2
533.461	1	1
533.801	1	8
534.141	1	-1
534.481	1	13
534.821	1	5
535.162	1	8
535.502	1	3
535.842	1	3
536.182	1	-4
536.522	1	1
536.862	1	16
537.203	1	3
537.543	1	-8
537.883	1	4
538.223	1	-1
538.563	1	0
538.903	1	-5
539.243	1	0
539.584	1	2
539.924	1	-8
540.264	1	3
540.604	1	0
540.944	1	-7
541.284	1	11
541.624	1	-5
541.964	1	2
542.305	1	-1
542.645	1	-9
542.985	1	6
543.325	1	2
543.665	1	8
544.005	1	10
544.345	1	-1
544.685	1	1
545.025	1	-5
545.365	1	4
545.705	1	0
546.045	1	-2
546.386	1	-1
546.726	1	3
547.066	1	8
547.406	1	-5
547.746	1	-5
548.086	1	-8
548.426	1	5
548.766	1	-2
549.106	1	11
549.446	1	3
549.786	1	-3
550.126	1	8
550.466	1	5
550.806	1	6
551.146	1	2
551.486	1	3
551.826	1	4
552.166	1	1
552.506	1	7
552.846	1	-7
553.186	1	-7
553.526	1	-5
553.866	1	-1
554.206	1	3
554.546	1	-11
554.886	1	-4
555.226	1	-7
555.566	1	-1
555.906	1	-8
556.246	1	4
556.586	1	0
556.926	1	2
557.266	1	-2
557.606	1	-1
557.946	1	4
558.286	1	-6
558.626	1	11
558.966	1	-3
559.306	1	11
559.646	1	2
559.986	1	6
560.325	1	-6
560.665	1	3
561.005	1	3
561.345	1	-4
561.685	1	-4
562.025	1	-11
562.365	1	4
562.705	1	5
563.045	1	-2
563.385	1	5
563.725	1	-4
564.064	1	-4
564.404	1	1
564.744	1	0
565.084	1	4
565.424	1	-2
565.764	1	6
566.104	1	-1
566.444	1	5
566.783	1	0
567.123	1	-5
567.463	1	-5
567.803	1	-1
568.143	1	-5
568.483	1	-4
568.823	1	-1
569.162	1	7
569.502	1	1
569.842	1	-8
570.182	1	-3
570.522	1	-9
570.862	1	0
571.201	1	-4
571.541	1	-7
571.881	1	-8
572.221	1	3
572.561	1	2
572.900	1	2
573.240	1	5
573.580	1	3
573.920	1	12
574.260	1	5
574.599	1	-6
574.939	1	2
575.279	1	-7
575.619	1	15
575.959	1	-8
576.298	1	7
576.638	1	4
576.978	1	5
577.318	1	8
577.657	1	1
577.997	1	-2
578.337	1	-3
578.677	1	17
579.016	1	-1
579.356	1	-3
579.696	1	-5
580.036	1	1
580.375	1	2
580.715	1	-2
581.055	1	1
581.394	1	3
581.734	1	11
582.074	1	2
582.414	1	-5
582.753	1	6
583.093	1	2
583.433	1	12
583.772	1	1
584.112	1	2
584.452	1	-4
584.791	1	0
585.131	1	14
585.471	1	0
585.811	1	-7
586.150	1	-2
586.490	1	4
586.830	1	-6
587.169	1	6
587.509	1	-8
587.849	1	-3
588.188	1	-4
588.528	1	3
588.867	1	5
589.207	1	-3
589.547	1	6
589.886	1	-10
590.226	1	-7
590.566	1	-1
590.905	1	2
591.245	1	2
591.585	1	-2
591.924	1	3
592.264	1	-9
592.603	1	3
592.943	1	2
593.283	1	8
593.622	1	-6
593.962	1	4
594.301	1	0
594.641	1	3
594.981	1	7
595.320	1	15
595.660	1	2
595.999	1	8
596.339	1	3
596.678	1	-3
597.018	1	3
597.358	1	-6
597.697	1	-2
598.037	1	4
598.376	1	-5
598.716	1	7
599.055	1	-1
599.395	1	0
599.734	1	8
600.074	1	-7
600.413	1	-5
600.753	1	8
601.092	1	-1
601.432	1	0
601.771	1	10
602.111	1	-1
602.451	1	7
602.790	1	6
603.130	1	-9
603.469	1	-1
603.809	1	1
604.148	1	-1
604.487	1	2
604.827	1	-5
605.166	1	12
605.506	1	-5
605.845	1	4
606.185	1	-3
606.524	1	-4
606.864	1	0
607.203	1	11
607.543	1	2
607.882	1	-1
608.222	1	-6
608.561	1	0
608.901	1	1
609.240	1	-12
609.579	1	4
609.919	1	1
610.258	1	4
610.598	1	1
610.937	1	-2
611.277	1	5
611.616	1	2
611.955	1	4
612.295	1	-2
612.634	1	0
612.974	1	3
613.313	1	-4
613.652	1	19
613.992	1	-2
614.331	1	5
614.671	1	5
615.010	1	7
615.349	1	8
615.689	1	8
616.028	1	-1
616.368	1	1
616.707	1	5
617.046	1	-1
617.386	1	1
617.725	1	2
618.064	1	-3
618.404	1	-2
618.743	1	2
619.082	1	10
619.422	1	2
619.761	1	-1
620.100	1	1
620.440	1	17
620.779	1	1
621.118	1	-9
621.458	1	3
621.797	1	-1
622.136	1	2
622.476	1	-4
622.815	1	2
623.154	1	8
623.494	1	-2
623.833	1	5
624.172	1	3
624.511	1	2
624.851	1	0
625.190	1	6
625.529	1	11
625.869	1	7
626.208	1	-4
626.547	1	-7
626.886	1	-2
627.226	1	7
627.565	1	-3
627.904	1	-3
628.243	1	-2
628.583	1	-6
628.922	1	-12
629.261	1	0
629.600	1	-8
629.940	1	-3
630.279	1	-2
630.618	1	2
630.957	1	1
631.297	1	0
631.636	1	12
631.975	1	-4
632.314	1	3
632.653	1	13
632.993	1	4
633.332	1	4
633.671	1	8
634.010	1	-3
634.349	1	-5
634.689	1	7
635.028	1	0
635.367	1	-3
635.706	1	-6
636.045	1	0
636.384	1	-2
636.724	1	-2
637.063	1	8
637.402	1	4
637.741	1	7
638.080	1	9
638.419	1	-1
638.759	1	7
639.098	1	-11
639.437	1	-7
639.776	1	-3
640.115	1	7
640.454	1	-1
640.793	1	-8
641.132	1	3
641.472	1	-3
641.811	1	8
642.150	1	-5
642.489	1	-5
642.828	1	-5
643.167	1	-5
643.506	1	6
643.845	1	6
644.184	1	20
644.524	1	4
644.863	1	-10
645.202	1	3
645.541	1	-1
645.880	1	0
646.219	1	1
646.558	1	7
646.897	1	-2
647.236	1	3
647.575	1	1
647.914	1	-2
648.253	1	-2
648.592	1	4
648.931	1	3
649.270	1	0
649.610	1	-1
649.949	1	-3
650.288	1	5
650.627	1	0
650.966	1	8
651.305	1	2
651.644	1	1
651.983	1	2
652.322	1	0
652.661	1	-5
653.000	1	-8
653.339	1	-3
653.678	1	7
654.017	1	11
654.356	1	-5
654.695	1	4
655.034	1	0
655.373	1	5
655.712	1	-2
656.051	1	-1
656.390	1	-9
656.729	1	4
657.068	1	2
657.406	1	7
657.745	1	0
658.084	1	-3
658.423	1	10
658.762	1	1
659.101	1	-4
659.440	1	0
659.779	1	6
660.118	1	2
660.457	1	3
660.796	1	-7
661.135	1	-11
661.474	1	9
661.813	1	-2
662.152	1	-1
662.491	1	-8
662.829	1	0
663.168	1	-5
663.507	1	6
663.846	1	-2
664.185	1	5
664.524	1	1
664.863	1	2
665.202	1	16
665.541	1	3
665.879	1	5
666.218	1	13
666.557	1	5
666.896	1	1
667.235	1	3
667.574	1	-7
667.913	1	-5
668.251	1	2
668.590	1	1
668.929	1	1
669.268	1	-2
669.607	1	7
669.946	1	-1
670.285	1	7
670.623	1	-8
670.962	1	-9
671.301	1	4
671.640	1	9
671.979	1	3
672.317	1	5
672.656	1	1
672.995	1	-4
673.334	1	-4
673.673	1	0
674.011	1	6
674.350	1	1
674.689	1	4
675.028	1	7
675.367	1	-3
675.705	1	7
676.044	1	10
676.383	1	6
676.722	1	12
677.060	1	-16
677.399	1	6
677.738	1	5
678.077	1	10
678.416	1	-8
678.754	1	7
679.093	1	-1
679.432	1	3
679.771	1	5
680.109	1	2
680.448	1	1
680.787	1	-15
681.125	1	9
681.464	1	12
681.803	1	14
682.142	1	7
682.480	1	0
682.819	1	0
683.158	1	-4
683.496	1	11
683.835	1	-7
684.174	1	0
684.512	1	1
684.851	1	-2
685.190	1	-5
685.529	1	12
685.867	1	0
686.206	1	13
686.545	1	2
686.883	1	0
687.222	1	-3
687.561	1	2
687.899	1	-9
688.238	1	-6
688.577	1	14
688.746	1	-10