File: Data/GaN_170K_550ms/GaN_sample D_spot 18_UVVIS_170 K_200um_550 ms 2x2mm1_20.txt
340.368	1	-2
340.710	1	-13
341.052	1	3
341.394	1	0
341.737	1	-7
342.079	1	-10
342.421	1	1
342.763	1	-6
343.105	1	2
343.447	1	-8
343.789	1	7
344.131	1	-1
344.473	1	-3
344.815	1	3
345.157	1	2
345.499	1	-3
345.841	1	3
346.183	1	7
346.526	1	4
346.868	1	3
347.210	1	1
347.552	1	5
347.894	1	-1
348.236	1	5
348.578	1	10
348.920	1	-1
349.262	1	3
349.604	1	0
349.946	1	12
350.288	1	9
350.630	1	9
350.972	1	-2
351.314	1	6
351.656	1	-5
351.998	1	6
352.340	1	6
352.682	1	4
353.024	1	-1
353.366	1	-5
353.708	1	11
354.050	1	-7
354.392	1	-4
354.734	1	11
355.076	1	-9
355.418	1	-6
355.760	1	-2
356.102	1	14
356.444	1	-6
356.785	1	1
357.127	1	-7
357.469	1	3
357.811	1	0
358.153	1	2
358.495	1	-8
358.837	1	-8
359.179	1	-8
359.521	1	6
359.863	1	-1
360.205	1	5
360.547	1	2
360.889	1	13
361.231	1	-1
361.572	1	13
361.914	1	-4
362.256	1	2
362.598	1	6
362.940	1	7
363.282	1	2
363.624	1	-1
363.966	1	1
364.308	1	2
364.649	1	-8
364.991	1	-1
365.333	1	2
365.675	1	2
366.017	1	2
366.359	1	2
366.701	1	0
367.042	1	-2
367.384	1	2
367.726	1	11
368.068	1	10
368.410	1	1
368.752	1	-1
369.093	1	-4
369.435	1	-6
369.777	1	0
370.119	1	-2
370.461	1	9
370.803	1	-1
371.144	1	-1
371.486	1	-5
371.828	1	-2
372.170	1	-3
372.512	1	-8
372.853	1	5
373.195	1	-3
373.537	1	17
373.879	1	9
374.220	1	7
374.562	1	3
374.904	1	6
375.246	1	0
375.588	1	-5
375.929	1	2
376.271	1	5
376.613	1	4
376.955	1	5
377.296	1	1
377.638	1	6
377.980	1	-7
378.321	1	-2
378.663	1	-3
379.005	1	-9
379.347	1	2
379.688	1	1
380.030	1	3
380.372	1	-1
380.714	1	0
381.055	1	-2
381.397	1	8
381.739	1	-1
382.080	1	-5
382.422	1	0
382.764	1	-3
383.105	1	12
383.447	1	1
383.789	1	9
384.130	1	-6
384.472	1	-2
384.814	1	6
385.156	1	4
385.497	1	11
385.839	1	-3
386.180	1	14
386.522	1	-3
386.864	1	5
387.205	1	-4
387.547	1	2
387.889	1	9
388.230	1	8
388.572	1	7
388.914	1	-2
389.255	1	7
389.597	1	3
389.939	1	-12
390.280	1	5
390.622	1	-1
390.963	1	-4
391.305	1	-8
391.647	1	-6
391.988	1	4
392.330	1	1
392.671	1	-2
393.013	1	-8
393.355	1	5
393.696	1	13
394.038	1	-4
394.379	1	6
394.721	1	-5
395.062	1	-2
395.404	1	4
395.746	1	4
396.087	1	4
396.429	1	6
396.770	1	12
397.112	1	-5
397.453	1	-3
397.795	1	-7
398.136	1	-2
398.478	1	-8
398.819	1	7
399.161	1	-5
399.503	1	2
399.844	1	-4
400.186	1	2
400.527	1	10
400.869	1	9
401.210	1	4
401.552	1	4
401.893	1	5
402.235	1	1
402.576	1	12
402.918	1	3
403.259	1	4
403.601	1	11
403.942	1	4
404.284	1	-13
404.625	1	2
404.967	1	3
405.308	1	13
405.649	1	1
405.991	1	-1
406.332	1	-7
406.674	1	6
407.015	1	0
407.357	1	-1
407.698	1	7
408.040	1	-4
408.381	1	13
408.722	1	2
409.064	1	-3
409.405	1	3
409.747	1	0
410.088	1	9
410.430	1	3
410.771	1	-1
411.112	1	-8
411.454	1	-2
411.795	1	7
412.137	1	-5
412.478	1	-6
412.819	1	-8
413.161	1	8
413.502	1	5
413.844	1	8
414.185	1	-1
414.526	1	0
414.868	1	-4
415.209	1	-11
415.550	1	-8
415.892	1	12
416.233	1	4
416.575	1	8
416.916	1	-3
417.257	1	4
417.599	1	3
417.940	1	-4
418.281	1	-10
418.623	1	-6
418.964	1	-7
419.305	1	-6
419.647	1	5
419.988	1	1
420.329	1	6
420.671	1	-9
421.012	1	2
421.353	1	-2
421.695	1	-3
422.036	1	3
422.377	1	9
422.718	1	8
423.060	1	-5
423.401	1	-5
423.742	1	-10
424.084	1	11
424.425	1	-1
424.766	1	-9
425.107	1	-6
425.449	1	6
425.790	1	8
426.131	1	6
426.472	1	-1
426.814	1	-10
427.155	1	10
427.496	1	1
427.837	1	12
428.179	1	8
428.520	1	7
428.861	1	1
429.202	1	-1
429.544	1	-2
429.885	1	1
430.226	1	1
430.567	1	2
430.909	1	-4
431.250	1	8
431.591	1	0
431.932	1	0
432.273	1	2
432.615	1	-3
432.956	1	3
433.297	1	-3
433.638	1	9
433.979	1	0
434.320	1	9
434.662	1	-10
435.003	1	-2
435.344	1	1
435.685	1	8
436.026	1	1
436.368	1	4
436.709	1	1
437.050	1	-5
437.391	1	0
437.732	1	6
438.073	1	1
438.414	1	3
438.756	1	2
439.097	1	-2
439.438	1	3
439.779	1	7
440.120	1	0
440.461	1	19
440.802	1	5
441.143	1	-9
441.485	1	-6
441.826	1	1
442.167	1	4
442.508	1	-5
442.849	1	-5
443.190	1	1
443.531	1	-7
443.872	1	-10
444.213	1	-3
444.554	1	1
444.895	1	-1
445.237	1	-8
445.578	1	4
445.919	1	1
446.260	1	3
446.601	1	0
446.942	1	8
447.283	1	5
447.624	1	1
447.965	1	-2
448.306	1	3
448.647	1	0
448.988	1	3
449.329	1	-1
449.670	1	-9
450.011	1	8
450.352	1	-3
450.693	1	2
451.034	1	4
451.375	1	0
451.716	1	3
452.057	1	-6
452.398	1	1
452.739	1	4
453.080	1	1
453.421	1	11
453.762	1	1
454.103	1	-5
454.444	1	0
454.785	1	-7
455.126	1	15
455.467	1	-8
455.808	1	11
456.149	1	4
456.490	1	-10
456.831	1	3
457.172	1	-3
457.513	1	7
457.854	1	18
458.195	1	0
458.536	1	-1
458.877	1	-3
459.218	1	0
459.559	1	-3
459.899	1	-2
460.240	1	3
460.581	1	6
460.922	1	-2
461.263	1	-3
461.604	1	-4
461.945	1	-1
462.286	1	4
462.627	1	-1
462.968	1	10
463.309	1	14
463.649	1	3
463.990	1	3
464.331	1	-2
464.672	1	1
465.013	1	8
465.354	1	-5
465.695	1	3
466.036	1	-5
466.376	1	0
466.717	1	-3
467.058	1	9
467.399	1	12
467.740	1	-1
468.081	1	-4
468.422	1	1
468.762	1	8
469.103	1	8
469.444	1	-1
469.785	1	-9
470.126	1	-4
470.467	1	4
470.807	1	-11
471.148	1	-4
471.489	1	3
471.830	1	-2
472.171	1	7
472.511	1	-6
472.852	1	-5
473.193	1	12
473.534	1	6
473.875	1	1
474.215	1	2
474.556	1	14
474.897	1	1
475.238	1	1
475.578	1	2
475.919	1	7
476.260	1	4
476.601	1	-1
476.942	1	-6
477.282	1	6
477.623	1	10
477.964	1	-2
478.305	1	-6
478.645	1	-2
478.986	1	-1
479.327	1	-10
479.667	1	-2
480.008	1	0
480.349	1	6
480.690	1	-1
481.030	1	6
481.371	1	0
481.712	1	7
482.053	1	-1
482.393	1	-4
482.734	1	9
483.075	1	-2
483.415	1	2
483.756	1	6
484.097	1	-10
484.437	1	-1
484.778	1	-10
485.119	1	3
485.459	1	-5
485.800	1	-11
486.141	1	14
486.481	1	-4
486.822	1	2
487.163	1	6
487.503	1	-5
487.844	1	8
488.185	1	0
488.525	1	15
488.866	1	17
489.207	1	9
489.547	1	3
489.888	1	2
490.228	1	-11
490.569	1	6
490.910	1	-3
491.250	1	-2
491.591	1	-1
491.932	1	7
492.272	1	8
492.613	1	4
492.953	1	2
493.294	1	1
493.635	1	-5
493.975	1	3
494.316	1	-1
494.656	1	7
494.997	1	-2
495.337	1	1
495.678	1	3
496.019	1	-11
496.359	1	2
496.700	1	4
497.040	1	0
497.381	1	4
497.721	1	-8
498.062	1	4
498.403	1	5
498.743	1	-6
499.084	1	7
499.424	1	9
499.765	1	-13
500.105	1	-2
500.446	1	2
500.786	1	6
501.127	1	6
501.467	1	-3
501.808	1	2
502.148	1	9
502.489	1	-7
502.829	1	0
503.170	1	5
503.510	1	1
503.851	1	0
504.191	1	-3
504.532	1	-10
504.872	1	4
505.213	1	-1
505.553	1	0
505.894	1	10
506.234	1	1
506.575	1	11
506.915	1	-7
507.256	1	-1
507.596	1	13
507.936	1	4
508.277	1	-5
508.617	1	1
508.958	1	-1
509.298	1	6
509.639	1	2
509.979	1	2
510.319	1	-3
510.660	1	-3
511.000	1	1
511.341	1	12
511.681	1	-3
512.022	1	9
512.362	1	-1
512.702	1	-6
513.043	1	1
513.383	1	12
513.724	1	-2
514.064	1	8
514.404	1	-11
514.745	1	-3
515.085	1	-1
515.425	1	-1
515.766	1	-4
516.106	1	5
516.447	1	-3
516.787	1	0
517.127	1	-2
517.468	1	9
517.808	1	9
518.148	1	3
518.489	1	9
518.829	1	2
519.169	1	-3
519.510	1	0
519.850	1	5
520.190	1	0
520.531	1	7
520.871	1	-3
521.211	1	7
521.552	1	2
521.892	1	3
522.232	1	-5
522.573	1	13
522.913	1	6
523.253	1	10
523.593	1	2
523.934	1	5
524.274	1	3
524.614	1	8
524.955	1	-2
525.295	1	2
525.635	1	11
525.975	1	-8
526.316	1	12
526.656	1	3
526.996	1	10
527.337	1	-2
527.677	1	-5
528.017	1	2
528.357	1	-3
528.698	1	-12
529.038	1	-4
529.378	1	2
529.718	1	13
530.058	1	10
530.399	1	-1
530.739	1	-1
531.079	1	4
531.419	1	7
531.760	1	-1
532.100	1	-7
532.440	1	-8
532.780	1	-5
533.120	1	1
533.461	1	-4
533.801	1	-1
534.141	1	-8
534.481	1	10
534.821	1	8
535.162	1	2
535.502	1	4
535.842	1	5
536.182	1	5
536.522	1	7
536.862	1	-1
537.203	1	0
537.543	1	-6
537.883	1	6
538.223	1	-7
538.563	1	1
538.903	1	-2
539.243	1	4
539.584	1	-2
539.924	1	-6
540.264	1	6
540.604	1	0
540.944	1	-6
541.284	1	9
541.624	1	-6
541.964	1	3
542.305	1	0
542.645	1	-5
542.985	1	7
543.325	1	-7
543.665	1	9
544.005	1	8
544.345	1	2
544.685	1	0
545.025	1	-7
545.365	1	7
545.705	1	7
546.045	1	4
546.386	1	-5
546.726	1	-3
547.066	1	16
547.406	1	-5
547.746	1	-1
548.086	1	6
548.426	1	0
548.766	1	3
549.106	1	-2
549.446	1	12
549.786	1	-6
550.126	1	8
550.466	1	3
550.806	1	-2
551.146	1	5
551.486	1	2
551.826	1	1
552.166	1	6
552.506	1	1
552.846	1	-3
553.186	1	6
553.526	1	-7
553.866	1	-8
554.206	1	-2
554.546	1	-10
554.886	1	-5
555.226	1	-7
555.566	1	-2
555.906	1	-6
556.246	1	4
556.586	1	0
556.926	1	6
557.266	1	0
557.606	1	-1
557.946	1	0
558.286	1	7
558.626	1	14
558.966	1	3
559.306	1	4
559.646	1	-5
559.986	1	1
560.325	1	-3
560.665	1	2
561.005	1	-3
561.345	1	-3
561.685	1	-2
562.025	1	0
562.365	1	5
562.705	1	6
563.045	1	-5
563.385	1	5
563.725	1	-6
564.064	1	1
564.404	1	-1
564.744	1	3
565.084	1	0
565.424	1	-2
565.764	1	4
566.104	1	10
566.444	1	6
566.783	1	0
567.123	1	-6
567.463	1	0
567.803	1	0
568.143	1	-3
568.483	1	5
568.823	1	7
569.162	1	1
569.502	1	-2
569.842	1	-12
570.182	1	2
570.522	1	-5
570.862	1	3
571.201	1	1
571.541	1	-6
571.881	1	-2
572.221	1	4
572.561	1	3
572.900	1	3
573.240	1	4
573.580	1	-1
573.920	1	16
574.260	1	10
574.599	1	-14
574.939	1	-20
575.279	1	-3
575.619	1	18
575.959	1	0
576.298	1	8
576.638	1	5
576.978	1	4
577.318	1	4
577.657	1	0
577.997	1	-2
578.337	1	4
578.677	1	6
579.016	1	1
579.356	1	-5
579.696	1	-5
580.036	1	0
580.375	1	-2
580.715	1	10
581.055	1	13
581.394	1	-5
581.734	1	7
582.074	1	4
582.414	1	-12
582.753	1	4
583.093	1	-4
583.433	1	7
583.772	1	-3
584.112	1	-1
584.452	1	-3
584.791	1	12
585.131	1	6
585.471	1	1
585.811	1	-3
586.150	1	-5
586.490	1	9
586.830	1	-3
587.169	1	10
587.509	1	7
587.849	1	-7
588.188	1	2
588.528	1	1
588.867	1	-3
589.207	1	5
589.547	1	14
589.886	1	1
590.226	1	5
590.566	1	4
590.905	1	7
591.245	1	10
591.585	1	4
591.924	1	-5
592.264	1	-5
592.603	1	-5
592.943	1	4
593.283	1	7
593.622	1	-18
593.962	1	11
594.301	1	5
594.641	1	3
594.981	1	6
595.320	1	5
595.660	1	4
595.999	1	1
596.339	1	-4
596.678	1	-3
597.018	1	3
597.358	1	-6
597.697	1	-2
598.037	1	0
598.376	1	-2
598.716	1	6
599.055	1	-3
599.395	1	-1
599.734	1	7
600.074	1	-3
600.413	1	-7
600.753	1	4
601.092	1	1
601.432	1	-1
601.771	1	2
602.111	1	-13
602.451	1	8
602.790	1	6
603.130	1	-6
603.469	1	-2
603.809	1	-4
604.148	1	11
604.487	1	6
604.827	1	1
605.166	1	14
605.506	1	1
605.845	1	11
606.185	1	5
606.524	1	3
606.864	1	-8
607.203	1	-3
607.543	1	8
607.882	1	-6
608.222	1	0
608.561	1	10
608.901	1	2
609.240	1	1
609.579	1	2
609.919	1	-2
610.258	1	5
610.598	1	11
610.937	1	3
611.277	1	5
611.616	1	-2
611.955	1	7
612.295	1	-4
612.634	1	4
612.974	1	8
613.313	1	-4
613.652	1	8
613.992	1	-5
614.331	1	-2
614.671	1	7
615.010	1	11
615.349	1	-3
615.689	1	14
616.028	1	3
616.368	1	-2
616.707	1	1
617.046	1	-5
617.386	1	-7
617.725	1	7
618.064	1	-2
618.404	1	0
618.743	1	13
619.082	1	16
619.422	1	0
619.761	1	-7
620.100	1	-3
620.440	1	1
620.779	1	1
621.118	1	0
621.458	1	-2
621.797	1	4
622.136	1	-2
622.476	1	-12
622.815	1	4
623.154	1	-6
623.494	1	-1
623.833	1	6
624.172	1	2
624.511	1	2
624.851	1	-1
625.190	1	1
625.529	1	6
625.869	1	5
626.208	1	4
626.547	1	1
626.886	1	-5
627.226	1	6
627.565	1	7
627.904	1	-2
628.243	1	1
628.583	1	-7
628.922	1	-7
629.261	1	5
629.600	1	-10
629.940	1	0
630.279	1	5
630.618	1	-5
630.957	1	2
631.297	1	-13
631.636	1	17
631.975	1	1
632.314	1	-6
632.653	1	10
632.993	1	5
633.332	1	-1
633.671	1	10
634.010	1	2
634.349	1	-10
634.689	1	9
635.028	1	1
635.367	1	-5
635.706	1	-9
636.045	1	14
636.384	1	-8
636.724	1	8
637.063	1	3
637.402	1	15
637.741	1	-4
638.080	1	4
638.419	1	-5
638.759	1	-7
639.098	1	-10
639.437	1	-1
639.776	1	7
640.115	1	1
640.454	1	0
640.793	1	2
641.132	1	2
641.472	1	-4
641.811	1	4
642.150	1	-7
642.489	1	-3
642.828	1	0
643.167	1	-1
643.506	1	4
643.845	1	6
644.184	1	11
644.524	1	4
644.863	1	-7
645.202	1	15
645.541	1	4
645.880	1	6
646.219	1	7
646.558	1	7
646.897	1	8
647.236	1	-2
647.575	1	-6
647.914	1	8
648.253	1	-3
648.592	1	3
648.931	1	3
649.270	1	-4
649.610	1	4
649.949	1	-3
650.288	1	6
650.627	1	-5
650.966	1	3
651.305	1	-6
651.644	1	8
651.983	1	3
652.322	1	-1
652.661	1	2
653.000	1	-12
653.339	1	-3
653.678	1	5
654.017	1	4
654.356	1	7
654.695	1	16
655.034	1	3
655.373	1	0
655.712	1	-11
656.051	1	-3
656.390	1	0
656.729	1	3
657.068	1	-3
657.406	1	9
657.745	1	3
658.084	1	1
658.423	1	4
658.762	1	0
659.101	1	-1
659.440	1	9
659.779	1	4
660.118	1	6
660.457	1	3
660.796	1	4
661.135	1	-14
661.474	1	5
661.813	1	4
662.152	1	-1
662.491	1	-12
662.829	1	0
663.168	1	-5
663.507	1	11
663.846	1	-5
664.185	1	11
664.524	1	3
664.863	1	1
665.202	1	18
665.541	1	4
665.879	1	4
666.218	1	9
666.557	1	-3
666.896	1	-6
667.235	1	0
667.574	1	-5
667.913	1	-2
668.251	1	-2
668.590	1	-4
668.929	1	-1
669.268	1	-5
669.607	1	1
669.946	1	4
670.285	1	8
670.623	1	8
670.962	1	-1
671.301	1	-1
671.640	1	7
671.979	1	-3
672.317	1	7
672.656	1	2
672.995	1	-7
673.334	1	-1
673.673	1	6
674.011	1	5
674.350	1	-3
674.689	1	5
675.028	1	7
675.367	1	3
675.705	1	7
676.044	1	13
676.383	1	-2
676.722	1	13
677.060	1	-4
677.399	1	0
677.738	1	0
678.077	1	4
678.416	1	-8
678.754	1	7
679.093	1	1
679.432	1	6
679.771	1	5
680.109	1	5
680.448	1	4
680.787	1	-1
681.125	1	6
681.464	1	5
681.803	1	2
682.142	1	-10
682.480	1	2
682.819	1	13
683.158	1	-2
683.496	1	-3
683.835	1	-3
684.174	1	6
684.512	1	-1
684.851	1	-1
685.190	1	-5
685.529	1	12
685.867	1	-2
686.206	1	7
686.545	1	10
686.883	1	1
687.222	1	3
687.561	1	1
687.899	1	2
688.238	1	-8
688.577	1	15
688.746	1	-3