File: Data/GaN_170K_550ms/GaN_sample D_spot 18_UVVIS_170 K_200um_550 ms 2x2mm1_189.txt
340.368	1	-2
340.710	1	-9
341.052	1	4
341.394	1	3
341.737	1	-2
342.079	1	0
342.421	1	9
342.763	1	7
343.105	1	4
343.447	1	-15
343.789	1	14
344.131	1	2
344.473	1	-3
344.815	1	6
345.157	1	2
345.499	1	-6
345.841	1	13
346.183	1	4
346.526	1	10
346.868	1	8
347.210	1	-2
347.552	1	14
347.894	1	6
348.236	1	-3
348.578	1	4
348.920	1	3
349.262	1	-2
349.604	1	18
349.946	1	1
350.288	1	4
350.630	1	5
350.972	1	-4
351.314	1	0
351.656	1	2
351.998	1	6
352.340	1	2
352.682	1	-1
353.024	1	5
353.366	1	3
353.708	1	7
354.050	1	3
354.392	1	9
354.734	1	3
355.076	1	2
355.418	1	0
355.760	1	0
356.102	1	5
356.444	1	3
356.785	1	-5
357.127	1	-7
357.469	1	-2
357.811	1	7
358.153	1	9
358.495	1	7
358.837	1	7
359.179	1	5
359.521	1	12
359.863	1	8
360.205	1	13
360.547	1	15
360.889	1	11
361.231	1	9
361.572	1	15
361.914	1	13
362.256	1	7
362.598	1	17
362.940	1	13
363.282	1	13
363.624	1	11
363.966	1	14
364.308	1	11
364.649	1	7
364.991	1	22
365.333	1	6
365.675	1	23
366.017	1	15
366.359	1	8
366.701	1	18
367.042	1	15
367.384	1	30
367.726	1	31
368.068	1	36
368.410	1	28
368.752	1	13
369.093	1	19
369.435	1	6
369.777	1	15
370.119	1	20
370.461	1	24
370.803	1	13
371.144	1	17
371.486	1	10
371.828	1	14
372.170	1	21
372.512	1	26
372.853	1	24
373.195	1	10
373.537	1	30
373.879	1	15
374.220	1	15
374.562	1	0
374.904	1	19
375.246	1	17
375.588	1	5
375.929	1	10
376.271	1	11
376.613	1	14
376.955	1	15
377.296	1	14
377.638	1	0
377.980	1	0
378.321	1	6
378.663	1	12
379.005	1	11
379.347	1	13
379.688	1	6
380.030	1	11
380.372	1	10
380.714	1	11
381.055	1	9
381.397	1	8
381.739	1	7
382.080	1	-1
382.422	1	4
382.764	1	5
383.105	1	6
383.447	1	12
383.789	1	15
384.130	1	1
384.472	1	-6
384.814	1	9
385.156	1	5
385.497	1	9
385.839	1	4
386.180	1	14
386.522	1	10
386.864	1	6
387.205	1	4
387.547	1	4
387.889	1	10
388.230	1	1
388.572	1	8
388.914	1	-3
389.255	1	8
389.597	1	1
389.939	1	-3
390.280	1	4
390.622	1	2
390.963	1	3
391.305	1	-2
391.647	1	-9
391.988	1	9
392.330	1	0
392.671	1	-8
393.013	1	8
393.355	1	13
393.696	1	14
394.038	1	-1
394.379	1	-3
394.721	1	-3
395.062	1	-9
395.404	1	10
395.746	1	14
396.087	1	1
396.429	1	6
396.770	1	9
397.112	1	5
397.453	1	4
397.795	1	-5
398.136	1	6
398.478	1	2
398.819	1	7
399.161	1	-4
399.503	1	5
399.844	1	4
400.186	1	2
400.527	1	13
400.869	1	1
401.210	1	-1
401.552	1	3
401.893	1	11
402.235	1	6
402.576	1	5
402.918	1	6
403.259	1	1
403.601	1	10
403.942	1	7
404.284	1	-3
404.625	1	3
404.967	1	4
405.308	1	5
405.649	1	-2
405.991	1	6
406.332	1	-6
406.674	1	11
407.015	1	10
407.357	1	-4
407.698	1	1
408.040	1	6
408.381	1	5
408.722	1	0
409.064	1	-4
409.405	1	7
409.747	1	-2
410.088	1	11
410.430	1	-2
410.771	1	5
411.112	1	5
411.454	1	4
411.795	1	12
412.137	1	-7
412.478	1	3
412.819	1	-1
413.161	1	5
413.502	1	6
413.844	1	9
414.185	1	-4
414.526	1	1
414.868	1	-4
415.209	1	-18
415.550	1	-1
415.892	1	0
416.233	1	-1
416.575	1	-2
416.916	1	2
417.257	1	-3
417.599	1	3
417.940	1	1
418.281	1	0
418.623	1	-5
418.964	1	-2
419.305	1	0
419.647	1	3
419.988	1	5
420.329	1	-2
420.671	1	-10
421.012	1	7
421.353	1	10
421.695	1	-7
422.036	1	2
422.377	1	5
422.718	1	1
423.060	1	-3
423.401	1	5
423.742	1	-1
424.084	1	8
424.425	1	2
424.766	1	-4
425.107	1	-7
425.449	1	3
425.790	1	8
426.131	1	6
426.472	1	0
426.814	1	-4
427.155	1	5
427.496	1	9
427.837	1	2
428.179	1	4
428.520	1	6
428.861	1	3
429.202	1	0
429.544	1	2
429.885	1	5
430.226	1	-1
430.567	1	3
430.909	1	-2
431.250	1	5
431.591	1	3
431.932	1	-9
432.273	1	-1
432.615	1	-1
432.956	1	10
433.297	1	-3
433.638	1	18
433.979	1	3
434.320	1	-6
434.662	1	-18
435.003	1	3
435.344	1	11
435.685	1	-1
436.026	1	3
436.368	1	1
436.709	1	2
437.050	1	-12
437.391	1	-5
437.732	1	2
438.073	1	-7
438.414	1	-4
438.756	1	0
439.097	1	11
439.438	1	4
439.779	1	13
440.120	1	-1
440.461	1	6
440.802	1	9
441.143	1	0
441.485	1	7
441.826	1	4
442.167	1	3
442.508	1	1
442.849	1	-5
443.190	1	-1
443.531	1	1
443.872	1	-3
444.213	1	-3
444.554	1	10
444.895	1	-12
445.237	1	-3
445.578	1	8
445.919	1	4
446.260	1	8
446.601	1	5
446.942	1	-3
447.283	1	5
447.624	1	8
447.965	1	-2
448.306	1	4
448.647	1	7
448.988	1	10
449.329	1	-3
449.670	1	-12
450.011	1	11
450.352	1	-1
450.693	1	4
451.034	1	-3
451.375	1	-2
451.716	1	1
452.057	1	2
452.398	1	1
452.739	1	1
453.080	1	-4
453.421	1	7
453.762	1	-4
454.103	1	-2
454.444	1	-8
454.785	1	-4
455.126	1	13
455.467	1	-12
455.808	1	10
456.149	1	6
456.490	1	-7
456.831	1	0
457.172	1	-6
457.513	1	5
457.854	1	6
458.195	1	2
458.536	1	-7
458.877	1	5
459.218	1	-7
459.559	1	-1
459.899	1	-9
460.240	1	-2
460.581	1	6
460.922	1	-6
461.263	1	1
461.604	1	-2
461.945	1	0
462.286	1	-4
462.627	1	4
462.968	1	15
463.309	1	4
463.649	1	-2
463.990	1	-3
464.331	1	5
464.672	1	-2
465.013	1	1
465.354	1	3
465.695	1	7
466.036	1	-2
466.376	1	5
466.717	1	3
467.058	1	1
467.399	1	11
467.740	1	-8
468.081	1	-4
468.422	1	-8
468.762	1	4
469.103	1	9
469.444	1	4
469.785	1	-2
470.126	1	-5
470.467	1	11
470.807	1	-1
471.148	1	-3
471.489	1	6
471.830	1	2
472.171	1	5
472.511	1	5
472.852	1	8
473.193	1	2
473.534	1	16
473.875	1	-5
474.215	1	2
474.556	1	1
474.897	1	0
475.238	1	-1
475.578	1	-3
475.919	1	2
476.260	1	11
476.601	1	6
476.942	1	-10
477.282	1	3
477.623	1	17
477.964	1	-6
478.305	1	-2
478.645	1	6
478.986	1	-6
479.327	1	-11
479.667	1	4
480.008	1	0
480.349	1	0
480.690	1	3
481.030	1	6
481.371	1	-4
481.712	1	9
482.053	1	-6
482.393	1	3
482.734	1	4
483.075	1	3
483.415	1	4
483.756	1	0
484.097	1	-17
484.437	1	-2
484.778	1	-14
485.119	1	3
485.459	1	-9
485.800	1	1
486.141	1	10
486.481	1	5
486.822	1	9
487.163	1	2
487.503	1	-1
487.844	1	0
488.185	1	4
488.525	1	8
488.866	1	8
489.207	1	8
489.547	1	10
489.888	1	7
490.228	1	-7
490.569	1	-1
490.910	1	0
491.250	1	9
491.591	1	-2
491.932	1	1
492.272	1	5
492.613	1	6
492.953	1	9
493.294	1	2
493.635	1	-4
493.975	1	7
494.316	1	-3
494.656	1	9
494.997	1	0
495.337	1	-4
495.678	1	-3
496.019	1	-8
496.359	1	7
496.700	1	13
497.040	1	7
497.381	1	4
497.721	1	-3
498.062	1	-1
498.403	1	5
498.743	1	7
499.084	1	8
499.424	1	7
499.765	1	-4
500.105	1	6
500.446	1	7
500.786	1	-2
501.127	1	0
501.467	1	-1
501.808	1	4
502.148	1	5
502.489	1	1
502.829	1	1
503.170	1	12
503.510	1	8
503.851	1	-1
504.191	1	0
504.532	1	-10
504.872	1	4
505.213	1	-1
505.553	1	4
505.894	1	3
506.234	1	0
506.575	1	7
506.915	1	15
507.256	1	4
507.596	1	6
507.936	1	8
508.277	1	-2
508.617	1	1
508.958	1	2
509.298	1	1
509.639	1	7
509.979	1	5
510.319	1	-7
510.660	1	-2
511.000	1	1
511.341	1	2
511.681	1	3
512.022	1	5
512.362	1	6
512.702	1	3
513.043	1	6
513.383	1	-1
513.724	1	1
514.064	1	12
514.404	1	-8
514.745	1	-2
515.085	1	-3
515.425	1	5
515.766	1	3
516.106	1	13
516.447	1	0
516.787	1	8
517.127	1	7
517.468	1	20
517.808	1	19
518.148	1	3
518.489	1	13
518.829	1	8
519.169	1	1
519.510	1	11
519.850	1	2
520.190	1	7
520.531	1	10
520.871	1	2
521.211	1	-3
521.552	1	10
521.892	1	-3
522.232	1	-8
522.573	1	12
522.913	1	10
523.253	1	17
523.593	1	-1
523.934	1	5
524.274	1	6
524.614	1	8
524.955	1	11
525.295	1	7
525.635	1	14
525.975	1	6
526.316	1	11
526.656	1	11
526.996	1	7
527.337	1	-1
527.677	1	-7
528.017	1	7
528.357	1	1
528.698	1	-6
529.038	1	1
529.378	1	1
529.718	1	8
530.058	1	4
530.399	1	-1
530.739	1	-5
531.079	1	4
531.419	1	12
531.760	1	6
532.100	1	4
532.440	1	-2
532.780	1	-2
533.120	1	4
533.461	1	13
533.801	1	4
534.141	1	-3
534.481	1	11
534.821	1	8
535.162	1	13
535.502	1	9
535.842	1	-1
536.182	1	3
536.522	1	10
536.862	1	4
537.203	1	7
537.543	1	2
537.883	1	-1
538.223	1	4
538.563	1	-1
538.903	1	1
539.243	1	1
539.584	1	-1
539.924	1	-7
540.264	1	13
540.604	1	0
540.944	1	2
541.284	1	6
541.624	1	-4
541.964	1	11
542.305	1	1
542.645	1	7
542.985	1	3
543.325	1	2
543.665	1	4
544.005	1	15
544.345	1	0
544.685	1	5
545.025	1	1
545.365	1	7
545.705	1	5
546.045	1	5
546.386	1	0
546.726	1	4
547.066	1	12
547.406	1	-4
547.746	1	3
548.086	1	5
548.426	1	9
548.766	1	4
549.106	1	6
549.446	1	14
549.786	1	4
550.126	1	5
550.466	1	-1
550.806	1	3
551.146	1	6
551.486	1	2
551.826	1	10
552.166	1	-1
552.506	1	6
552.846	1	-2
553.186	1	6
553.526	1	-3
553.866	1	6
554.206	1	9
554.546	1	-2
554.886	1	3
555.226	1	1
555.566	1	8
555.906	1	2
556.246	1	2
556.586	1	8
556.926	1	-2
557.266	1	9
557.606	1	5
557.946	1	8
558.286	1	8
558.626	1	9
558.966	1	0
559.306	1	16
559.646	1	0
559.986	1	3
560.325	1	-4
560.665	1	0
561.005	1	-2
561.345	1	-7
561.685	1	7
562.025	1	-2
562.365	1	8
562.705	1	5
563.045	1	6
563.385	1	3
563.725	1	-5
564.064	1	3
564.404	1	3
564.744	1	-1
565.084	1	2
565.424	1	3
565.764	1	1
566.104	1	4
566.444	1	10
566.783	1	11
567.123	1	-3
567.463	1	3
567.803	1	7
568.143	1	3
568.483	1	-1
568.823	1	3
569.162	1	8
569.502	1	7
569.842	1	1
570.182	1	-1
570.522	1	-3
570.862	1	2
571.201	1	2
571.541	1	-10
571.881	1	3
572.221	1	0
572.561	1	1
572.900	1	-1
573.240	1	10
573.580	1	1
573.920	1	17
574.260	1	8
574.599	1	3
574.939	1	-2
575.279	1	-1
575.619	1	4
575.959	1	-8
576.298	1	10
576.638	1	-3
576.978	1	-1
577.318	1	-8
577.657	1	13
577.997	1	3
578.337	1	7
578.677	1	6
579.016	1	5
579.356	1	2
579.696	1	-9
580.036	1	-2
580.375	1	1
580.715	1	9
581.055	1	5
581.394	1	2
581.734	1	10
582.074	1	0
582.414	1	5
582.753	1	-1
583.093	1	9
583.433	1	6
583.772	1	3
584.112	1	6
584.452	1	-6
584.791	1	-1
585.131	1	9
585.471	1	4
585.811	1	-12
586.150	1	-5
586.490	1	5
586.830	1	0
587.169	1	12
587.509	1	4
587.849	1	2
588.188	1	-1
588.528	1	2
588.867	1	7
589.207	1	1
589.547	1	10
589.886	1	1
590.226	1	-1
590.566	1	2
590.905	1	8
591.245	1	3
591.585	1	1
591.924	1	3
592.264	1	-7
592.603	1	-5
592.943	1	4
593.283	1	5
593.622	1	-10
593.962	1	1
594.301	1	3
594.641	1	12
594.981	1	14
595.320	1	2
595.660	1	1
595.999	1	5
596.339	1	-2
596.678	1	-5
597.018	1	-4
597.358	1	-5
597.697	1	-3
598.037	1	-7
598.376	1	-4
598.716	1	7
599.055	1	6
599.395	1	5
599.734	1	4
600.074	1	-3
600.413	1	3
600.753	1	5
601.092	1	1
601.432	1	-5
601.771	1	3
602.111	1	1
602.451	1	3
602.790	1	14
603.130	1	0
603.469	1	1
603.809	1	10
604.148	1	4
604.487	1	5
604.827	1	-5
605.166	1	-2
605.506	1	-8
605.845	1	5
606.185	1	5
606.524	1	2
606.864	1	2
607.203	1	-4
607.543	1	5
607.882	1	-7
608.222	1	1
608.561	1	6
608.901	1	5
609.240	1	-3
609.579	1	6
609.919	1	-2
610.258	1	8
610.598	1	-2
610.937	1	3
611.277	1	1
611.616	1	1
611.955	1	9
612.295	1	-7
612.634	1	-9
612.974	1	-10
613.313	1	1
613.652	1	10
613.992	1	8
614.331	1	1
614.671	1	6
615.010	1	0
615.349	1	9
615.689	1	13
616.028	1	6
616.368	1	4
616.707	1	12
617.046	1	3
617.386	1	1
617.725	1	-6
618.064	1	-1
618.404	1	10
618.743	1	8
619.082	1	7
619.422	1	-3
619.761	1	-1
620.100	1	1
620.440	1	3
620.779	1	-2
621.118	1	-3
621.458	1	3
621.797	1	5
622.136	1	5
622.476	1	-10
622.815	1	0
623.154	1	3
623.494	1	-8
623.833	1	-1
624.172	1	-3
624.511	1	8
624.851	1	3
625.190	1	4
625.529	1	9
625.869	1	17
626.208	1	-2
626.547	1	-4
626.886	1	8
627.226	1	-1
627.565	1	4
627.904	1	-7
628.243	1	0
628.583	1	-3
628.922	1	-8
629.261	1	6
629.600	1	-9
629.940	1	-3
630.279	1	-1
630.618	1	2
630.957	1	6
631.297	1	-2
631.636	1	7
631.975	1	0
632.314	1	5
632.653	1	1
632.993	1	2
633.332	1	-3
633.671	1	6
634.010	1	10
634.349	1	-6
634.689	1	13
635.028	1	4
635.367	1	-6
635.706	1	-3
636.045	1	8
636.384	1	6
636.724	1	9
637.063	1	5
637.402	1	10
637.741	1	-11
638.080	1	7
638.419	1	-4
638.759	1	8
639.098	1	-12
639.437	1	-8
639.776	1	7
640.115	1	2
640.454	1	-4
640.793	1	6
641.132	1	8
641.472	1	5
641.811	1	12
642.150	1	1
642.489	1	3
642.828	1	-4
643.167	1	-4
643.506	1	6
643.845	1	11
644.184	1	3
644.524	1	5
644.863	1	-2
645.202	1	10
645.541	1	5
645.880	1	5
646.219	1	0
646.558	1	-1
646.897	1	5
647.236	1	-2
647.575	1	-7
647.914	1	1
648.253	1	-6
648.592	1	-3
648.931	1	7
649.270	1	0
649.610	1	-2
649.949	1	-3
650.288	1	0
650.627	1	-5
650.966	1	14
651.305	1	2
651.644	1	16
651.983	1	5
652.322	1	-4
652.661	1	3
653.000	1	-8
653.339	1	10
653.678	1	3
654.017	1	2
654.356	1	-7
654.695	1	12
655.034	1	-4
655.373	1	2
655.712	1	-2
656.051	1	-6
656.390	1	2
656.729	1	0
657.068	1	4
657.406	1	-3
657.745	1	-1
658.084	1	-12
658.423	1	6
658.762	1	2
659.101	1	2
659.440	1	1
659.779	1	5
660.118	1	-2
660.457	1	8
660.796	1	2
661.135	1	-8
661.474	1	5
661.813	1	-4
662.152	1	-3
662.491	1	-14
662.829	1	2
663.168	1	8
663.507	1	-4
663.846	1	-8
664.185	1	2
664.524	1	8
664.863	1	1
665.202	1	19
665.541	1	7
665.879	1	10
666.218	1	17
666.557	1	-1
666.896	1	6
667.235	1	2
667.574	1	-2
667.913	1	-3
668.251	1	4
668.590	1	-4
668.929	1	5
669.268	1	-1
669.607	1	1
669.946	1	-3
670.285	1	11
670.623	1	-3
670.962	1	-5
671.301	1	-6
671.640	1	4
671.979	1	-1
672.317	1	-5
672.656	1	6
672.995	1	-5
673.334	1	-2
673.673	1	0
674.011	1	10
674.350	1	2
674.689	1	4
675.028	1	-10
675.367	1	0
675.705	1	-3
676.044	1	15
676.383	1	1
676.722	1	14
677.060	1	-10
677.399	1	1
677.738	1	1
678.077	1	14
678.416	1	-3
678.754	1	4
679.093	1	2
679.432	1	0
679.771	1	0
680.109	1	-2
680.448	1	6
680.787	1	-7
681.125	1	5
681.464	1	8
681.803	1	5
682.142	1	0
682.480	1	4
682.819	1	11
683.158	1	-4
683.496	1	9
683.835	1	-4
684.174	1	4
684.512	1	7
684.851	1	-1
685.190	1	-2
685.529	1	16
685.867	1	8
686.206	1	0
686.545	1	2
686.883	1	1
687.222	1	1
687.561	1	10
687.899	1	-6
688.238	1	3
688.577	1	13
688.746	1	-8