File: Data/GaN_170K_550ms/GaN_sample D_spot 18_UVVIS_170 K_200um_550 ms 2x2mm1_142.txt
340.368	1	4
340.710	1	-4
341.052	1	4
341.394	1	0
341.737	1	3
342.079	1	-7
342.421	1	3
342.763	1	0
343.105	1	7
343.447	1	-7
343.789	1	7
344.131	1	-3
344.473	1	4
344.815	1	8
345.157	1	6
345.499	1	-1
345.841	1	12
346.183	1	8
346.526	1	11
346.868	1	11
347.210	1	-5
347.552	1	13
347.894	1	8
348.236	1	3
348.578	1	5
348.920	1	5
349.262	1	5
349.604	1	16
349.946	1	13
350.288	1	2
350.630	1	12
350.972	1	-3
351.314	1	4
351.656	1	1
351.998	1	9
352.340	1	2
352.682	1	7
353.024	1	12
353.366	1	8
353.708	1	12
354.050	1	6
354.392	1	12
354.734	1	7
355.076	1	11
355.418	1	-8
355.760	1	12
356.102	1	12
356.444	1	1
356.785	1	4
357.127	1	6
357.469	1	2
357.811	1	9
358.153	1	14
358.495	1	6
358.837	1	10
359.179	1	9
359.521	1	15
359.863	1	8
360.205	1	10
360.547	1	9
360.889	1	17
361.231	1	14
361.572	1	11
361.914	1	20
362.256	1	18
362.598	1	20
362.940	1	26
363.282	1	29
363.624	1	19
363.966	1	8
364.308	1	21
364.649	1	18
364.991	1	23
365.333	1	26
365.675	1	23
366.017	1	27
366.359	1	39
366.701	1	37
367.042	1	33
367.384	1	36
367.726	1	48
368.068	1	40
368.410	1	45
368.752	1	36
369.093	1	29
369.435	1	32
369.777	1	41
370.119	1	43
370.461	1	34
370.803	1	30
371.144	1	38
371.486	1	26
371.828	1	24
372.170	1	36
372.512	1	30
372.853	1	29
373.195	1	25
373.537	1	30
373.879	1	40
374.220	1	29
374.562	1	22
374.904	1	30
375.246	1	22
375.588	1	16
375.929	1	24
376.271	1	26
376.613	1	15
376.955	1	20
377.296	1	15
377.638	1	24
377.980	1	3
378.321	1	16
378.663	1	19
379.005	1	13
379.347	1	9
379.688	1	14
380.030	1	9
380.372	1	11
380.714	1	17
381.055	1	18
381.397	1	11
381.739	1	1
382.080	1	9
382.422	1	7
382.764	1	13
383.105	1	8
383.447	1	12
383.789	1	26
384.130	1	5
384.472	1	3
384.814	1	8
385.156	1	9
385.497	1	8
385.839	1	2
386.180	1	9
386.522	1	14
386.864	1	17
387.205	1	4
387.547	1	9
387.889	1	11
388.230	1	0
388.572	1	17
388.914	1	-1
389.255	1	13
389.597	1	-3
389.939	1	-3
390.280	1	6
390.622	1	1
390.963	1	2
391.305	1	10
391.647	1	-8
391.988	1	15
392.330	1	18
392.671	1	-2
393.013	1	4
393.355	1	9
393.696	1	8
394.038	1	1
394.379	1	-1
394.721	1	7
395.062	1	-2
395.404	1	6
395.746	1	8
396.087	1	12
396.429	1	9
396.770	1	8
397.112	1	4
397.453	1	10
397.795	1	9
398.136	1	4
398.478	1	3
398.819	1	2
399.161	1	-2
399.503	1	5
399.844	1	-4
400.186	1	-10
400.527	1	14
400.869	1	7
401.210	1	2
401.552	1	-2
401.893	1	1
402.235	1	8
402.576	1	12
402.918	1	5
403.259	1	15
403.601	1	3
403.942	1	3
404.284	1	1
404.625	1	9
404.967	1	8
405.308	1	9
405.649	1	0
405.991	1	3
406.332	1	0
406.674	1	16
407.015	1	13
407.357	1	-3
407.698	1	1
408.040	1	-4
408.381	1	3
408.722	1	-5
409.064	1	2
409.405	1	4
409.747	1	-1
410.088	1	9
410.430	1	6
410.771	1	2
411.112	1	5
411.454	1	14
411.795	1	14
412.137	1	-11
412.478	1	4
412.819	1	-3
413.161	1	6
413.502	1	1
413.844	1	6
414.185	1	5
414.526	1	1
414.868	1	2
415.209	1	-6
415.550	1	3
415.892	1	2
416.233	1	7
416.575	1	3
416.916	1	-11
417.257	1	-3
417.599	1	-3
417.940	1	6
418.281	1	-6
418.623	1	-7
418.964	1	6
419.305	1	-4
419.647	1	5
419.988	1	14
420.329	1	7
420.671	1	-7
421.012	1	4
421.353	1	4
421.695	1	-11
422.036	1	1
422.377	1	4
422.718	1	19
423.060	1	-6
423.401	1	3
423.742	1	-4
424.084	1	23
424.425	1	-1
424.766	1	1
425.107	1	-1
425.449	1	2
425.790	1	1
426.131	1	7
426.472	1	-10
426.814	1	-2
427.155	1	14
427.496	1	-3
427.837	1	10
428.179	1	5
428.520	1	3
428.861	1	4
429.202	1	2
429.544	1	-2
429.885	1	9
430.226	1	6
430.567	1	12
430.909	1	4
431.250	1	12
431.591	1	4
431.932	1	-7
432.273	1	2
432.615	1	-4
432.956	1	-1
433.297	1	-10
433.638	1	11
433.979	1	5
434.320	1	3
434.662	1	-7
435.003	1	1
435.344	1	-4
435.685	1	2
436.026	1	-7
436.368	1	8
436.709	1	-1
437.050	1	-6
437.391	1	-10
437.732	1	2
438.073	1	8
438.414	1	-1
438.756	1	-1
439.097	1	3
439.438	1	5
439.779	1	7
440.120	1	-2
440.461	1	12
440.802	1	11
441.143	1	-1
441.485	1	-6
441.826	1	4
442.167	1	4
442.508	1	4
442.849	1	2
443.190	1	3
443.531	1	2
443.872	1	4
444.213	1	-6
444.554	1	3
444.895	1	-12
445.237	1	0
445.578	1	8
445.919	1	6
446.260	1	9
446.601	1	-9
446.942	1	11
447.283	1	14
447.624	1	2
447.965	1	2
448.306	1	-4
448.647	1	1
448.988	1	10
449.329	1	2
449.670	1	3
450.011	1	11
450.352	1	-7
450.693	1	2
451.034	1	-6
451.375	1	10
451.716	1	9
452.057	1	-2
452.398	1	8
452.739	1	-4
453.080	1	0
453.421	1	9
453.762	1	2
454.103	1	-5
454.444	1	0
454.785	1	-2
455.126	1	13
455.467	1	-7
455.808	1	11
456.149	1	4
456.490	1	4
456.831	1	-7
457.172	1	-5
457.513	1	11
457.854	1	10
458.195	1	4
458.536	1	1
458.877	1	8
459.218	1	5
459.559	1	-3
459.899	1	1
460.240	1	-4
460.581	1	6
460.922	1	-4
461.263	1	-2
461.604	1	10
461.945	1	6
462.286	1	-2
462.627	1	-1
462.968	1	7
463.309	1	4
463.649	1	6
463.990	1	8
464.331	1	5
464.672	1	1
465.013	1	7
465.354	1	-9
465.695	1	10
466.036	1	-10
466.376	1	-1
466.717	1	-1
467.058	1	2
467.399	1	6
467.740	1	3
468.081	1	-2
468.422	1	3
468.762	1	15
469.103	1	9
469.444	1	2
469.785	1	-8
470.126	1	5
470.467	1	3
470.807	1	-1
471.148	1	-13
471.489	1	5
471.830	1	-9
472.171	1	6
472.511	1	-4
472.852	1	7
473.193	1	6
473.534	1	6
473.875	1	1
474.215	1	1
474.556	1	2
474.897	1	0
475.238	1	-10
475.578	1	2
475.919	1	9
476.260	1	4
476.601	1	-5
476.942	1	4
477.282	1	6
477.623	1	21
477.964	1	7
478.305	1	-7
478.645	1	5
478.986	1	-3
479.327	1	-12
479.667	1	-3
480.008	1	7
480.349	1	3
480.690	1	7
481.030	1	2
481.371	1	4
481.712	1	0
482.053	1	-3
482.393	1	-8
482.734	1	9
483.075	1	-3
483.415	1	1
483.756	1	-4
484.097	1	-6
484.437	1	-1
484.778	1	-6
485.119	1	9
485.459	1	2
485.800	1	-1
486.141	1	13
486.481	1	4
486.822	1	15
487.163	1	5
487.503	1	1
487.844	1	1
488.185	1	-2
488.525	1	-2
488.866	1	5
489.207	1	8
489.547	1	15
489.888	1	11
490.228	1	-14
490.569	1	5
490.910	1	-1
491.250	1	8
491.591	1	3
491.932	1	4
492.272	1	7
492.613	1	10
492.953	1	2
493.294	1	0
493.635	1	1
493.975	1	13
494.316	1	7
494.656	1	2
494.997	1	1
495.337	1	4
495.678	1	0
496.019	1	-2
496.359	1	-1
496.700	1	9
497.040	1	10
497.381	1	14
497.721	1	-2
498.062	1	-1
498.403	1	13
498.743	1	3
499.084	1	7
499.424	1	16
499.765	1	-14
500.105	1	3
500.446	1	3
500.786	1	1
501.127	1	7
501.467	1	5
501.808	1	2
502.148	1	6
502.489	1	10
502.829	1	6
503.170	1	10
503.510	1	3
503.851	1	5
504.191	1	-1
504.532	1	-14
504.872	1	4
505.213	1	-1
505.553	1	-2
505.894	1	12
506.234	1	0
506.575	1	8
506.915	1	13
507.256	1	-10
507.596	1	7
507.936	1	11
508.277	1	6
508.617	1	16
508.958	1	11
509.298	1	4
509.639	1	18
509.979	1	5
510.319	1	4
510.660	1	-3
511.000	1	7
511.341	1	10
511.681	1	0
512.022	1	5
512.362	1	7
512.702	1	-1
513.043	1	-1
513.383	1	7
513.724	1	1
514.064	1	8
514.404	1	-15
514.745	1	-3
515.085	1	6
515.425	1	9
515.766	1	3
516.106	1	7
516.447	1	5
516.787	1	2
517.127	1	4
517.468	1	10
517.808	1	6
518.148	1	4
518.489	1	8
518.829	1	17
519.169	1	5
519.510	1	9
519.850	1	5
520.190	1	7
520.531	1	12
520.871	1	0
521.211	1	9
521.552	1	5
521.892	1	17
522.232	1	-2
522.573	1	10
522.913	1	13
523.253	1	20
523.593	1	15
523.934	1	3
524.274	1	11
524.614	1	3
524.955	1	4
525.295	1	5
525.635	1	5
525.975	1	3
526.316	1	14
526.656	1	17
526.996	1	15
527.337	1	4
527.677	1	3
528.017	1	7
528.357	1	1
528.698	1	-8
529.038	1	3
529.378	1	13
529.718	1	13
530.058	1	10
530.399	1	6
530.739	1	8
531.079	1	5
531.419	1	16
531.760	1	7
532.100	1	4
532.440	1	15
532.780	1	-5
533.120	1	20
533.461	1	2
533.801	1	11
534.141	1	-3
534.481	1	23
534.821	1	11
535.162	1	2
535.502	1	5
535.842	1	4
536.182	1	4
536.522	1	10
536.862	1	5
537.203	1	8
537.543	1	2
537.883	1	15
538.223	1	6
538.563	1	-2
538.903	1	8
539.243	1	-1
539.584	1	6
539.924	1	1
540.264	1	13
540.604	1	6
540.944	1	-1
541.284	1	13
541.624	1	-4
541.964	1	11
542.305	1	8
542.645	1	0
542.985	1	6
543.325	1	16
543.665	1	6
544.005	1	15
544.345	1	9
544.685	1	10
545.025	1	5
545.365	1	5
545.705	1	5
546.045	1	-1
546.386	1	9
546.726	1	-2
547.066	1	19
547.406	1	5
547.746	1	0
548.086	1	14
548.426	1	16
548.766	1	10
549.106	1	18
549.446	1	4
549.786	1	2
550.126	1	11
550.466	1	-2
550.806	1	0
551.146	1	9
551.486	1	1
551.826	1	2
552.166	1	5
552.506	1	10
552.846	1	3
553.186	1	6
553.526	1	1
553.866	1	-2
554.206	1	14
554.546	1	2
554.886	1	4
555.226	1	-2
555.566	1	17
555.906	1	4
556.246	1	0
556.586	1	8
556.926	1	7
557.266	1	5
557.606	1	5
557.946	1	9
558.286	1	2
558.626	1	16
558.966	1	8
559.306	1	7
559.646	1	14
559.986	1	-3
560.325	1	-5
560.665	1	10
561.005	1	-1
561.345	1	3
561.685	1	5
562.025	1	-5
562.365	1	10
562.705	1	9
563.045	1	4
563.385	1	7
563.725	1	0
564.064	1	12
564.404	1	6
564.744	1	-2
565.084	1	14
565.424	1	9
565.764	1	6
566.104	1	4
566.444	1	5
566.783	1	9
567.123	1	9
567.463	1	8
567.803	1	5
568.143	1	2
568.483	1	1
568.823	1	0
569.162	1	8
569.502	1	-2
569.842	1	-8
570.182	1	1
570.522	1	4
570.862	1	2
571.201	1	4
571.541	1	3
571.881	1	3
572.221	1	8
572.561	1	3
572.900	1	-1
573.240	1	9
573.580	1	-1
573.920	1	8
574.260	1	6
574.599	1	2
574.939	1	-3
575.279	1	-1
575.619	1	7
575.959	1	-2
576.298	1	5
576.638	1	11
576.978	1	3
577.318	1	-1
577.657	1	10
577.997	1	3
578.337	1	4
578.677	1	6
579.016	1	9
579.356	1	-3
579.696	1	4
580.036	1	4
580.375	1	5
580.715	1	3
581.055	1	6
581.394	1	5
581.734	1	11
582.074	1	-1
582.414	1	-5
582.753	1	3
583.093	1	4
583.433	1	11
583.772	1	3
584.112	1	5
584.452	1	-9
584.791	1	11
585.131	1	17
585.471	1	0
585.811	1	-5
586.150	1	-1
586.490	1	4
586.830	1	-12
587.169	1	13
587.509	1	5
587.849	1	-1
588.188	1	4
588.528	1	7
588.867	1	3
589.207	1	-2
589.547	1	14
589.886	1	-2
590.226	1	2
590.566	1	-2
590.905	1	12
591.245	1	5
591.585	1	4
591.924	1	-1
592.264	1	-2
592.603	1	3
592.943	1	5
593.283	1	2
593.622	1	-4
593.962	1	7
594.301	1	4
594.641	1	2
594.981	1	8
595.320	1	3
595.660	1	1
595.999	1	0
596.339	1	5
596.678	1	-11
597.018	1	6
597.358	1	1
597.697	1	3
598.037	1	1
598.376	1	-7
598.716	1	2
599.055	1	-3
599.395	1	8
599.734	1	3
600.074	1	5
600.413	1	1
600.753	1	12
601.092	1	0
601.432	1	0
601.771	1	12
602.111	1	1
602.451	1	10
602.790	1	0
603.130	1	2
603.469	1	2
603.809	1	3
604.148	1	8
604.487	1	-1
604.827	1	-13
605.166	1	8
605.506	1	5
605.845	1	6
606.185	1	6
606.524	1	-3
606.864	1	-1
607.203	1	5
607.543	1	12
607.882	1	1
608.222	1	4
608.561	1	8
608.901	1	-2
609.240	1	-2
609.579	1	13
609.919	1	0
610.258	1	5
610.598	1	12
610.937	1	6
611.277	1	9
611.616	1	0
611.955	1	5
612.295	1	-5
612.634	1	3
612.974	1	5
613.313	1	1
613.652	1	13
613.992	1	11
614.331	1	0
614.671	1	18
615.010	1	9
615.349	1	13
615.689	1	11
616.028	1	10
616.368	1	1
616.707	1	9
617.046	1	2
617.386	1	4
617.725	1	12
618.064	1	4
618.404	1	-2
618.743	1	1
619.082	1	13
619.422	1	-4
619.761	1	-5
620.100	1	2
620.440	1	10
620.779	1	5
621.118	1	0
621.458	1	4
621.797	1	5
622.136	1	-1
622.476	1	-2
622.815	1	2
623.154	1	1
623.494	1	-3
623.833	1	8
624.172	1	0
624.511	1	6
624.851	1	6
625.190	1	7
625.529	1	6
625.869	1	4
626.208	1	-2
626.547	1	-1
626.886	1	4
627.226	1	4
627.565	1	-2
627.904	1	1
628.243	1	-2
628.583	1	-1
628.922	1	-4
629.261	1	2
629.600	1	-3
629.940	1	7
630.279	1	7
630.618	1	2
630.957	1	5
631.297	1	-2
631.636	1	14
631.975	1	-6
632.314	1	8
632.653	1	5
632.993	1	-4
633.332	1	-2
633.671	1	10
634.010	1	11
634.349	1	-9
634.689	1	1
635.028	1	-1
635.367	1	4
635.706	1	-5
636.045	1	9
636.384	1	-11
636.724	1	6
637.063	1	2
637.402	1	15
637.741	1	-4
638.080	1	13
638.419	1	-12
638.759	1	10
639.098	1	-4
639.437	1	-13
639.776	1	1
640.115	1	3
640.454	1	4
640.793	1	4
641.132	1	2
641.472	1	2
641.811	1	4
642.150	1	-3
642.489	1	3
642.828	1	6
643.167	1	-3
643.506	1	7
643.845	1	-1
644.184	1	4
644.524	1	-4
644.863	1	-7
645.202	1	3
645.541	1	3
645.880	1	10
646.219	1	1
646.558	1	11
646.897	1	10
647.236	1	3
647.575	1	-2
647.914	1	3
648.253	1	7
648.592	1	0
648.931	1	7
649.270	1	0
649.610	1	0
649.949	1	-3
650.288	1	5
650.627	1	-7
650.966	1	12
651.305	1	0
651.644	1	5
651.983	1	7
652.322	1	1
652.661	1	6
653.000	1	-2
653.339	1	3
653.678	1	4
654.017	1	12
654.356	1	5
654.695	1	9
655.034	1	5
655.373	1	1
655.712	1	-8
656.051	1	0
656.390	1	4
656.729	1	10
657.068	1	5
657.406	1	-1
657.745	1	6
658.084	1	-4
658.423	1	0
658.762	1	4
659.101	1	-3
659.440	1	5
659.779	1	2
660.118	1	7
660.457	1	11
660.796	1	-5
661.135	1	-11
661.474	1	8
661.813	1	-2
662.152	1	-4
662.491	1	-6
662.829	1	2
663.168	1	9
663.507	1	0
663.846	1	1
664.185	1	2
664.524	1	4
664.863	1	6
665.202	1	18
665.541	1	5
665.879	1	-4
666.218	1	7
666.557	1	1
666.896	1	7
667.235	1	-5
667.574	1	-3
667.913	1	-4
668.251	1	7
668.590	1	-7
668.929	1	3
669.268	1	1
669.607	1	3
669.946	1	2
670.285	1	9
670.623	1	3
670.962	1	-3
671.301	1	-2
671.640	1	0
671.979	1	4
672.317	1	8
672.656	1	5
672.995	1	-6
673.334	1	-1
673.673	1	2
674.011	1	3
674.350	1	3
674.689	1	5
675.028	1	-1
675.367	1	-2
675.705	1	2
676.044	1	8
676.383	1	9
676.722	1	8
677.060	1	0
677.399	1	-1
677.738	1	5
678.077	1	18
678.416	1	-5
678.754	1	-2
679.093	1	3
679.432	1	9
679.771	1	4
680.109	1	-1
680.448	1	0
680.787	1	-2
681.125	1	3
681.464	1	12
681.803	1	16
682.142	1	-8
682.480	1	0
682.819	1	12
683.158	1	14
683.496	1	1
683.835	1	-9
684.174	1	7
684.512	1	2
684.851	1	2
685.190	1	1
685.529	1	15
685.867	1	10
686.206	1	8
686.545	1	14
686.883	1	-5
687.222	1	0
687.561	1	-1
687.899	1	-5
688.238	1	-2
688.577	1	14
688.746	1	-2