File: Data/GaN_170K_550ms/GaN_sample D_spot 18_UVVIS_170 K_200um_550 ms 2x2mm1_77.txt
340.368	1	3
340.710	1	-7
341.052	1	10
341.394	1	10
341.737	1	-5
342.079	1	-6
342.421	1	8
342.763	1	9
343.105	1	6
343.447	1	-7
343.789	1	5
344.131	1	-6
344.473	1	-1
344.815	1	15
345.157	1	-3
345.499	1	-5
345.841	1	10
346.183	1	11
346.526	1	8
346.868	1	5
347.210	1	0
347.552	1	24
347.894	1	5
348.236	1	3
348.578	1	6
348.920	1	6
349.262	1	8
349.604	1	8
349.946	1	14
350.288	1	9
350.630	1	11
350.972	1	2
351.314	1	12
351.656	1	10
351.998	1	16
352.340	1	9
352.682	1	10
353.024	1	6
353.366	1	10
353.708	1	30
354.050	1	6
354.392	1	11
354.734	1	15
355.076	1	8
355.418	1	8
355.760	1	7
356.102	1	18
356.444	1	12
356.785	1	22
357.127	1	15
357.469	1	14
357.811	1	20
358.153	1	26
358.495	1	22
358.837	1	24
359.179	1	21
359.521	1	38
359.863	1	29
360.205	1	49
360.547	1	48
360.889	1	45
361.231	1	51
361.572	1	58
361.914	1	54
362.256	1	62
362.598	1	59
362.940	1	86
363.282	1	90
363.624	1	91
363.966	1	84
364.308	1	102
364.649	1	110
364.991	1	137
365.333	1	134
365.675	1	142
366.017	1	141
366.359	1	162
366.701	1	184
367.042	1	190
367.384	1	203
367.726	1	214
368.068	1	219
368.410	1	218
368.752	1	199
369.093	1	212
369.435	1	204
369.777	1	204
370.119	1	192
370.461	1	193
370.803	1	190
371.144	1	184
371.486	1	152
371.828	1	158
372.170	1	146
372.512	1	139
372.853	1	146
373.195	1	128
373.537	1	128
373.879	1	117
374.220	1	118
374.562	1	106
374.904	1	98
375.246	1	91
375.588	1	80
375.929	1	87
376.271	1	74
376.613	1	79
376.955	1	94
377.296	1	80
377.638	1	69
377.980	1	58
378.321	1	67
378.663	1	59
379.005	1	54
379.347	1	67
379.688	1	49
380.030	1	46
380.372	1	46
380.714	1	55
381.055	1	40
381.397	1	52
381.739	1	42
382.080	1	42
382.422	1	34
382.764	1	42
383.105	1	36
383.447	1	46
383.789	1	43
384.130	1	30
384.472	1	29
384.814	1	33
385.156	1	35
385.497	1	32
385.839	1	25
386.180	1	35
386.522	1	31
386.864	1	28
387.205	1	25
387.547	1	28
387.889	1	25
388.230	1	24
388.572	1	14
388.914	1	18
389.255	1	30
389.597	1	21
389.939	1	11
390.280	1	20
390.622	1	7
390.963	1	22
391.305	1	6
391.647	1	2
391.988	1	17
392.330	1	15
392.671	1	8
393.013	1	14
393.355	1	19
393.696	1	19
394.038	1	10
394.379	1	0
394.721	1	10
395.062	1	7
395.404	1	17
395.746	1	24
396.087	1	9
396.429	1	7
396.770	1	19
397.112	1	8
397.453	1	22
397.795	1	12
398.136	1	18
398.478	1	4
398.819	1	10
399.161	1	3
399.503	1	11
399.844	1	5
400.186	1	6
400.527	1	14
400.869	1	4
401.210	1	12
401.552	1	15
401.893	1	11
402.235	1	3
402.576	1	1
402.918	1	5
403.259	1	9
403.601	1	13
403.942	1	11
404.284	1	-3
404.625	1	12
404.967	1	8
405.308	1	14
405.649	1	13
405.991	1	7
406.332	1	-2
406.674	1	14
407.015	1	14
407.357	1	6
407.698	1	7
408.040	1	8
408.381	1	6
408.722	1	-2
409.064	1	12
409.405	1	7
409.747	1	2
410.088	1	11
410.430	1	2
410.771	1	7
411.112	1	6
411.454	1	6
411.795	1	14
412.137	1	-2
412.478	1	0
412.819	1	0
413.161	1	9
413.502	1	3
413.844	1	11
414.185	1	6
414.526	1	6
414.868	1	3
415.209	1	-5
415.550	1	5
415.892	1	10
416.233	1	13
416.575	1	0
416.916	1	2
417.257	1	12
417.599	1	4
417.940	1	9
418.281	1	-1
418.623	1	3
418.964	1	-1
419.305	1	5
419.647	1	19
419.988	1	3
420.329	1	8
420.671	1	0
421.012	1	10
421.353	1	12
421.695	1	-11
422.036	1	0
422.377	1	7
422.718	1	17
423.060	1	-2
423.401	1	7
423.742	1	6
424.084	1	19
424.425	1	-3
424.766	1	2
425.107	1	4
425.449	1	5
425.790	1	9
426.131	1	12
426.472	1	9
426.814	1	-3
427.155	1	18
427.496	1	1
427.837	1	17
428.179	1	9
428.520	1	9
428.861	1	9
429.202	1	-11
429.544	1	2
429.885	1	4
430.226	1	15
430.567	1	7
430.909	1	5
431.250	1	15
431.591	1	4
431.932	1	0
432.273	1	3
432.615	1	4
432.956	1	7
433.297	1	-3
433.638	1	7
433.979	1	7
434.320	1	1
434.662	1	-10
435.003	1	8
435.344	1	1
435.685	1	1
436.026	1	3
436.368	1	6
436.709	1	-3
437.050	1	-3
437.391	1	-3
437.732	1	10
438.073	1	-7
438.414	1	-3
438.756	1	1
439.097	1	9
439.438	1	4
439.779	1	18
440.120	1	6
440.461	1	13
440.802	1	7
441.143	1	2
441.485	1	0
441.826	1	8
442.167	1	4
442.508	1	1
442.849	1	2
443.190	1	10
443.531	1	3
443.872	1	0
444.213	1	-1
444.554	1	3
444.895	1	-16
445.237	1	-4
445.578	1	8
445.919	1	8
446.260	1	9
446.601	1	-1
446.942	1	11
447.283	1	6
447.624	1	5
447.965	1	2
448.306	1	-2
448.647	1	4
448.988	1	11
449.329	1	11
449.670	1	-9
450.011	1	4
450.352	1	-5
450.693	1	2
451.034	1	-3
451.375	1	-2
451.716	1	0
452.057	1	-1
452.398	1	6
452.739	1	0
453.080	1	0
453.421	1	6
453.762	1	1
454.103	1	1
454.444	1	12
454.785	1	-3
455.126	1	12
455.467	1	-6
455.808	1	16
456.149	1	6
456.490	1	5
456.831	1	-2
457.172	1	-7
457.513	1	5
457.854	1	17
458.195	1	-6
458.536	1	2
458.877	1	6
459.218	1	-8
459.559	1	1
459.899	1	2
460.240	1	11
460.581	1	7
460.922	1	1
461.263	1	9
461.604	1	12
461.945	1	-7
462.286	1	-1
462.627	1	7
462.968	1	10
463.309	1	10
463.649	1	11
463.990	1	3
464.331	1	6
464.672	1	0
465.013	1	11
465.354	1	0
465.695	1	9
466.036	1	-3
466.376	1	6
466.717	1	9
467.058	1	4
467.399	1	17
467.740	1	7
468.081	1	-5
468.422	1	10
468.762	1	19
469.103	1	10
469.444	1	3
469.785	1	3
470.126	1	10
470.467	1	12
470.807	1	6
471.148	1	2
471.489	1	1
471.830	1	-1
472.171	1	11
472.511	1	12
472.852	1	9
473.193	1	1
473.534	1	5
473.875	1	6
474.215	1	3
474.556	1	14
474.897	1	1
475.238	1	3
475.578	1	12
475.919	1	20
476.260	1	13
476.601	1	1
476.942	1	-8
477.282	1	13
477.623	1	17
477.964	1	12
478.305	1	4
478.645	1	8
478.986	1	10
479.327	1	-2
479.667	1	0
480.008	1	8
480.349	1	8
480.690	1	0
481.030	1	8
481.371	1	1
481.712	1	9
482.053	1	3
482.393	1	-1
482.734	1	14
483.075	1	3
483.415	1	9
483.756	1	15
484.097	1	-2
484.437	1	3
484.778	1	-2
485.119	1	10
485.459	1	7
485.800	1	7
486.141	1	11
486.481	1	16
486.822	1	17
487.163	1	0
487.503	1	7
487.844	1	8
488.185	1	11
488.525	1	9
488.866	1	16
489.207	1	19
489.547	1	24
489.888	1	14
490.228	1	10
490.569	1	11
490.910	1	18
491.250	1	12
491.591	1	20
491.932	1	22
492.272	1	14
492.613	1	8
492.953	1	14
493.294	1	16
493.635	1	5
493.975	1	23
494.316	1	9
494.656	1	15
494.997	1	13
495.337	1	18
495.678	1	16
496.019	1	6
496.359	1	14
496.700	1	18
497.040	1	10
497.381	1	15
497.721	1	10
498.062	1	11
498.403	1	23
498.743	1	5
499.084	1	12
499.424	1	24
499.765	1	5
500.105	1	15
500.446	1	13
500.786	1	15
501.127	1	19
501.467	1	16
501.808	1	13
502.148	1	24
502.489	1	21
502.829	1	24
503.170	1	27
503.510	1	19
503.851	1	15
504.191	1	13
504.532	1	16
504.872	1	25
505.213	1	17
505.553	1	16
505.894	1	47
506.234	1	14
506.575	1	31
506.915	1	27
507.256	1	14
507.596	1	19
507.936	1	31
508.277	1	18
508.617	1	28
508.958	1	20
509.298	1	20
509.639	1	28
509.979	1	15
510.319	1	18
510.660	1	25
511.000	1	20
511.341	1	31
511.681	1	22
512.022	1	36
512.362	1	16
512.702	1	20
513.043	1	31
513.383	1	22
513.724	1	16
514.064	1	38
514.404	1	24
514.745	1	35
515.085	1	31
515.425	1	30
515.766	1	27
516.106	1	32
516.447	1	32
516.787	1	39
517.127	1	28
517.468	1	33
517.808	1	47
518.148	1	30
518.489	1	43
518.829	1	29
519.169	1	34
519.510	1	27
519.850	1	29
520.190	1	36
520.531	1	27
520.871	1	34
521.211	1	33
521.552	1	29
521.892	1	32
522.232	1	24
522.573	1	39
522.913	1	39
523.253	1	41
523.593	1	31
523.934	1	34
524.274	1	36
524.614	1	37
524.955	1	30
525.295	1	38
525.635	1	34
525.975	1	33
526.316	1	32
526.656	1	41
526.996	1	33
527.337	1	34
527.677	1	24
528.017	1	35
528.357	1	34
528.698	1	31
529.038	1	33
529.378	1	37
529.718	1	36
530.058	1	36
530.399	1	38
530.739	1	33
531.079	1	52
531.419	1	43
531.760	1	35
532.100	1	30
532.440	1	43
532.780	1	22
533.120	1	40
533.461	1	32
533.801	1	42
534.141	1	37
534.481	1	41
534.821	1	37
535.162	1	37
535.502	1	31
535.842	1	36
536.182	1	36
536.522	1	36
536.862	1	40
537.203	1	31
537.543	1	32
537.883	1	34
538.223	1	21
538.563	1	30
538.903	1	36
539.243	1	36
539.584	1	28
539.924	1	32
540.264	1	32
540.604	1	21
540.944	1	22
541.284	1	30
541.624	1	27
541.964	1	32
542.305	1	26
542.645	1	32
542.985	1	35
543.325	1	29
543.665	1	29
544.005	1	47
544.345	1	18
544.685	1	33
545.025	1	28
545.365	1	21
545.705	1	35
546.045	1	30
546.386	1	30
546.726	1	26
547.066	1	44
547.406	1	26
547.746	1	27
548.086	1	32
548.426	1	35
548.766	1	31
549.106	1	38
549.446	1	33
549.786	1	32
550.126	1	26
550.466	1	26
550.806	1	33
551.146	1	33
551.486	1	24
551.826	1	42
552.166	1	27
552.506	1	28
552.846	1	19
553.186	1	24
553.526	1	21
553.866	1	16
554.206	1	25
554.546	1	16
554.886	1	20
555.226	1	15
555.566	1	25
555.906	1	14
556.246	1	16
556.586	1	25
556.926	1	25
557.266	1	21
557.606	1	33
557.946	1	19
558.286	1	27
558.626	1	25
558.966	1	19
559.306	1	35
559.646	1	14
559.986	1	28
560.325	1	23
560.665	1	30
561.005	1	17
561.345	1	13
561.685	1	16
562.025	1	13
562.365	1	21
562.705	1	25
563.045	1	20
563.385	1	30
563.725	1	12
564.064	1	22
564.404	1	17
564.744	1	18
565.084	1	23
565.424	1	13
565.764	1	25
566.104	1	18
566.444	1	20
566.783	1	17
567.123	1	18
567.463	1	21
567.803	1	20
568.143	1	12
568.483	1	10
568.823	1	15
569.162	1	32
569.502	1	12
569.842	1	13
570.182	1	18
570.522	1	13
570.862	1	22
571.201	1	14
571.541	1	7
571.881	1	13
572.221	1	12
572.561	1	13
572.900	1	11
573.240	1	17
573.580	1	16
573.920	1	24
574.260	1	20
574.599	1	-1
574.939	1	11
575.279	1	11
575.619	1	20
575.959	1	8
576.298	1	19
576.638	1	17
576.978	1	12
577.318	1	18
577.657	1	14
577.997	1	5
578.337	1	17
578.677	1	17
579.016	1	19
579.356	1	18
579.696	1	9
580.036	1	9
580.375	1	10
580.715	1	22
581.055	1	5
581.394	1	15
581.734	1	14
582.074	1	12
582.414	1	6
582.753	1	16
583.093	1	26
583.433	1	14
583.772	1	16
584.112	1	13
584.452	1	5
584.791	1	18
585.131	1	18
585.471	1	19
585.811	1	9
586.150	1	0
586.490	1	17
586.830	1	-1
587.169	1	20
587.509	1	10
587.849	1	16
588.188	1	3
588.528	1	11
588.867	1	14
589.207	1	3
589.547	1	18
589.886	1	6
590.226	1	16
590.566	1	14
590.905	1	22
591.245	1	5
591.585	1	12
591.924	1	12
592.264	1	2
592.603	1	11
592.943	1	9
593.283	1	14
593.622	1	-2
593.962	1	10
594.301	1	13
594.641	1	4
594.981	1	15
595.320	1	4
595.660	1	10
595.999	1	7
596.339	1	17
596.678	1	0
597.018	1	7
597.358	1	-3
597.697	1	7
598.037	1	7
598.376	1	-2
598.716	1	16
599.055	1	17
599.395	1	4
599.734	1	16
600.074	1	5
600.413	1	0
600.753	1	12
601.092	1	10
601.432	1	-6
601.771	1	21
602.111	1	7
602.451	1	12
602.790	1	3
603.130	1	-4
603.469	1	7
603.809	1	13
604.148	1	15
604.487	1	12
604.827	1	-3
605.166	1	11
605.506	1	7
605.845	1	10
606.185	1	3
606.524	1	1
606.864	1	13
607.203	1	3
607.543	1	20
607.882	1	1
608.222	1	5
608.561	1	10
608.901	1	-2
609.240	1	6
609.579	1	5
609.919	1	4
610.258	1	14
610.598	1	14
610.937	1	7
611.277	1	6
611.616	1	5
611.955	1	20
612.295	1	11
612.634	1	-3
612.974	1	9
613.313	1	1
613.652	1	21
613.992	1	5
614.331	1	10
614.671	1	11
615.010	1	8
615.349	1	12
615.689	1	14
616.028	1	6
616.368	1	7
616.707	1	9
617.046	1	1
617.386	1	0
617.725	1	-1
618.064	1	7
618.404	1	7
618.743	1	15
619.082	1	11
619.422	1	-3
619.761	1	5
620.100	1	0
620.440	1	-1
620.779	1	-1
621.118	1	-3
621.458	1	0
621.797	1	2
622.136	1	3
622.476	1	-2
622.815	1	11
623.154	1	11
623.494	1	4
623.833	1	8
624.172	1	7
624.511	1	10
624.851	1	2
625.190	1	10
625.529	1	21
625.869	1	9
626.208	1	1
626.547	1	-4
626.886	1	-1
627.226	1	16
627.565	1	9
627.904	1	-4
628.243	1	2
628.583	1	-2
628.922	1	1
629.261	1	11
629.600	1	3
629.940	1	5
630.279	1	12
630.618	1	7
630.957	1	9
631.297	1	-5
631.636	1	18
631.975	1	5
632.314	1	14
632.653	1	2
632.993	1	7
633.332	1	1
633.671	1	11
634.010	1	10
634.349	1	-3
634.689	1	19
635.028	1	0
635.367	1	-3
635.706	1	7
636.045	1	6
636.384	1	3
636.724	1	3
637.063	1	5
637.402	1	14
637.741	1	2
638.080	1	12
638.419	1	1
638.759	1	10
639.098	1	-4
639.437	1	1
639.776	1	2
640.115	1	6
640.454	1	11
640.793	1	8
641.132	1	7
641.472	1	3
641.811	1	13
642.150	1	11
642.489	1	3
642.828	1	-1
643.167	1	12
643.506	1	9
643.845	1	7
644.184	1	8
644.524	1	3
644.863	1	-3
645.202	1	17
645.541	1	12
645.880	1	5
646.219	1	1
646.558	1	12
646.897	1	11
647.236	1	7
647.575	1	2
647.914	1	6
648.253	1	11
648.592	1	-3
648.931	1	12
649.270	1	9
649.610	1	13
649.949	1	1
650.288	1	4
650.627	1	0
650.966	1	15
651.305	1	-3
651.644	1	7
651.983	1	0
652.322	1	1
652.661	1	10
653.000	1	-8
653.339	1	4
653.678	1	7
654.017	1	3
654.356	1	7
654.695	1	13
655.034	1	2
655.373	1	11
655.712	1	3
656.051	1	13
656.390	1	1
656.729	1	12
657.068	1	6
657.406	1	11
657.745	1	16
658.084	1	0
658.423	1	3
658.762	1	9
659.101	1	7
659.440	1	0
659.779	1	6
660.118	1	5
660.457	1	10
660.796	1	-3
661.135	1	-7
661.474	1	11
661.813	1	3
662.152	1	6
662.491	1	-2
662.829	1	7
663.168	1	12
663.507	1	0
663.846	1	-3
664.185	1	9
664.524	1	10
664.863	1	0
665.202	1	12
665.541	1	6
665.879	1	20
666.218	1	16
666.557	1	4
666.896	1	8
667.235	1	6
667.574	1	-7
667.913	1	1
668.251	1	12
668.590	1	5
668.929	1	0
669.268	1	-1
669.607	1	2
669.946	1	13
670.285	1	14
670.623	1	1
670.962	1	-3
671.301	1	8
671.640	1	8
671.979	1	5
672.317	1	14
672.656	1	9
672.995	1	-5
673.334	1	7
673.673	1	4
674.011	1	6
674.350	1	2
674.689	1	7
675.028	1	-1
675.367	1	2
675.705	1	15
676.044	1	13
676.383	1	12
676.722	1	22
677.060	1	0
677.399	1	-1
677.738	1	1
678.077	1	19
678.416	1	-2
678.754	1	13
679.093	1	12
679.432	1	12
679.771	1	4
680.109	1	3
680.448	1	14
680.787	1	4
681.125	1	10
681.464	1	11
681.803	1	17
682.142	1	-2
682.480	1	6
682.819	1	14
683.158	1	-1
683.496	1	3
683.835	1	-3
684.174	1	5
684.512	1	5
684.851	1	10
685.190	1	2
685.529	1	8
685.867	1	14
686.206	1	14
686.545	1	8
686.883	1	4
687.222	1	7
687.561	1	4
687.899	1	4
688.238	1	2
688.577	1	6
688.746	1	5