File: Data/GaN_170K_550ms/GaN_sample D_spot 18_UVVIS_170 K_200um_550 ms 2x2mm1_168.txt
340.368	1	0
340.710	1	-14
341.052	1	2
341.394	1	8
341.737	1	-4
342.079	1	-2
342.421	1	4
342.763	1	-1
343.105	1	16
343.447	1	-4
343.789	1	1
344.131	1	3
344.473	1	3
344.815	1	7
345.157	1	11
345.499	1	-3
345.841	1	-2
346.183	1	-5
346.526	1	1
346.868	1	14
347.210	1	-3
347.552	1	-4
347.894	1	4
348.236	1	-6
348.578	1	8
348.920	1	-7
349.262	1	9
349.604	1	4
349.946	1	4
350.288	1	4
350.630	1	18
350.972	1	-8
351.314	1	12
351.656	1	2
351.998	1	13
352.340	1	4
352.682	1	-3
353.024	1	5
353.366	1	3
353.708	1	6
354.050	1	-3
354.392	1	10
354.734	1	8
355.076	1	1
355.418	1	4
355.760	1	-3
356.102	1	2
356.444	1	1
356.785	1	14
357.127	1	8
357.469	1	-2
357.811	1	3
358.153	1	8
358.495	1	14
358.837	1	12
359.179	1	-2
359.521	1	5
359.863	1	11
360.205	1	18
360.547	1	9
360.889	1	11
361.231	1	13
361.572	1	16
361.914	1	21
362.256	1	11
362.598	1	8
362.940	1	35
363.282	1	11
363.624	1	12
363.966	1	6
364.308	1	13
364.649	1	14
364.991	1	21
365.333	1	18
365.675	1	19
366.017	1	16
366.359	1	22
366.701	1	20
367.042	1	22
367.384	1	27
367.726	1	31
368.068	1	33
368.410	1	30
368.752	1	32
369.093	1	14
369.435	1	23
369.777	1	46
370.119	1	27
370.461	1	38
370.803	1	26
371.144	1	32
371.486	1	19
371.828	1	28
372.170	1	27
372.512	1	14
372.853	1	25
373.195	1	22
373.537	1	29
373.879	1	17
374.220	1	19
374.562	1	15
374.904	1	17
375.246	1	13
375.588	1	11
375.929	1	8
376.271	1	16
376.613	1	19
376.955	1	20
377.296	1	12
377.638	1	18
377.980	1	0
378.321	1	15
378.663	1	6
379.005	1	7
379.347	1	10
379.688	1	10
380.030	1	15
380.372	1	3
380.714	1	19
381.055	1	8
381.397	1	19
381.739	1	3
382.080	1	10
382.422	1	1
382.764	1	11
383.105	1	14
383.447	1	17
383.789	1	17
384.130	1	6
384.472	1	-1
384.814	1	10
385.156	1	1
385.497	1	11
385.839	1	-4
386.180	1	14
386.522	1	9
386.864	1	13
387.205	1	2
387.547	1	6
387.889	1	4
388.230	1	10
388.572	1	5
388.914	1	-7
389.255	1	12
389.597	1	9
389.939	1	-2
390.280	1	3
390.622	1	1
390.963	1	-4
391.305	1	0
391.647	1	-4
391.988	1	10
392.330	1	13
392.671	1	-4
393.013	1	2
393.355	1	15
393.696	1	3
394.038	1	5
394.379	1	-16
394.721	1	-5
395.062	1	-6
395.404	1	16
395.746	1	19
396.087	1	3
396.429	1	7
396.770	1	11
397.112	1	11
397.453	1	8
397.795	1	3
398.136	1	-2
398.478	1	9
398.819	1	5
399.161	1	0
399.503	1	8
399.844	1	-8
400.186	1	-4
400.527	1	11
400.869	1	2
401.210	1	8
401.552	1	2
401.893	1	5
402.235	1	10
402.576	1	4
402.918	1	-1
403.259	1	6
403.601	1	5
403.942	1	7
404.284	1	-15
404.625	1	0
404.967	1	7
405.308	1	10
405.649	1	6
405.991	1	3
406.332	1	-13
406.674	1	3
407.015	1	7
407.357	1	-5
407.698	1	-2
408.040	1	5
408.381	1	4
408.722	1	-3
409.064	1	9
409.405	1	2
409.747	1	1
410.088	1	12
410.430	1	-2
410.771	1	2
411.112	1	-6
411.454	1	8
411.795	1	10
412.137	1	-1
412.478	1	1
412.819	1	3
413.161	1	-3
413.502	1	-4
413.844	1	4
414.185	1	3
414.526	1	14
414.868	1	-6
415.209	1	-11
415.550	1	5
415.892	1	0
416.233	1	11
416.575	1	-4
416.916	1	-6
417.257	1	-3
417.599	1	0
417.940	1	5
418.281	1	-3
418.623	1	0
418.964	1	-4
419.305	1	-4
419.647	1	15
419.988	1	6
420.329	1	3
420.671	1	-7
421.012	1	-3
421.353	1	5
421.695	1	-9
422.036	1	11
422.377	1	2
422.718	1	8
423.060	1	-4
423.401	1	-1
423.742	1	0
424.084	1	15
424.425	1	0
424.766	1	13
425.107	1	-2
425.449	1	12
425.790	1	6
426.131	1	4
426.472	1	2
426.814	1	-7
427.155	1	6
427.496	1	-3
427.837	1	5
428.179	1	2
428.520	1	7
428.861	1	4
429.202	1	-9
429.544	1	4
429.885	1	5
430.226	1	9
430.567	1	9
430.909	1	-1
431.250	1	15
431.591	1	-2
431.932	1	-9
432.273	1	-2
432.615	1	10
432.956	1	6
433.297	1	-7
433.638	1	4
433.979	1	4
434.320	1	6
434.662	1	-8
435.003	1	1
435.344	1	-2
435.685	1	-3
436.026	1	-2
436.368	1	2
436.709	1	5
437.050	1	-4
437.391	1	-8
437.732	1	-1
438.073	1	-5
438.414	1	1
438.756	1	-3
439.097	1	-2
439.438	1	2
439.779	1	9
440.120	1	-8
440.461	1	12
440.802	1	9
441.143	1	1
441.485	1	0
441.826	1	9
442.167	1	8
442.508	1	-10
442.849	1	6
443.190	1	-1
443.531	1	-5
443.872	1	-8
444.213	1	-8
444.554	1	2
444.895	1	-2
445.237	1	-5
445.578	1	8
445.919	1	2
446.260	1	1
446.601	1	-5
446.942	1	11
447.283	1	6
447.624	1	2
447.965	1	-5
448.306	1	-3
448.647	1	-3
448.988	1	8
449.329	1	4
449.670	1	-13
450.011	1	-4
450.352	1	-4
450.693	1	5
451.034	1	-12
451.375	1	0
451.716	1	1
452.057	1	0
452.398	1	9
452.739	1	3
453.080	1	-1
453.421	1	9
453.762	1	10
454.103	1	-8
454.444	1	-3
454.785	1	0
455.126	1	4
455.467	1	-5
455.808	1	11
456.149	1	5
456.490	1	0
456.831	1	2
457.172	1	-3
457.513	1	16
457.854	1	10
458.195	1	6
458.536	1	1
458.877	1	5
459.218	1	5
459.559	1	2
459.899	1	-4
460.240	1	4
460.581	1	7
460.922	1	4
461.263	1	3
461.604	1	4
461.945	1	4
462.286	1	0
462.627	1	5
462.968	1	-1
463.309	1	12
463.649	1	2
463.990	1	0
464.331	1	10
464.672	1	3
465.013	1	8
465.354	1	-3
465.695	1	8
466.036	1	-6
466.376	1	3
466.717	1	2
467.058	1	5
467.399	1	9
467.740	1	3
468.081	1	3
468.422	1	9
468.762	1	9
469.103	1	8
469.444	1	-3
469.785	1	-4
470.126	1	6
470.467	1	7
470.807	1	-2
471.148	1	-4
471.489	1	4
471.830	1	-1
472.171	1	4
472.511	1	4
472.852	1	5
473.193	1	5
473.534	1	0
473.875	1	1
474.215	1	6
474.556	1	5
474.897	1	7
475.238	1	-3
475.578	1	6
475.919	1	3
476.260	1	4
476.601	1	0
476.942	1	-4
477.282	1	11
477.623	1	7
477.964	1	2
478.305	1	4
478.645	1	8
478.986	1	-1
479.327	1	-6
479.667	1	-5
480.008	1	12
480.349	1	2
480.690	1	1
481.030	1	9
481.371	1	8
481.712	1	4
482.053	1	-4
482.393	1	3
482.734	1	-5
483.075	1	0
483.415	1	5
483.756	1	2
484.097	1	-7
484.437	1	-2
484.778	1	-9
485.119	1	5
485.459	1	2
485.800	1	-11
486.141	1	6
486.481	1	11
486.822	1	8
487.163	1	9
487.503	1	3
487.844	1	11
488.185	1	5
488.525	1	1
488.866	1	4
489.207	1	5
489.547	1	5
489.888	1	3
490.228	1	-4
490.569	1	5
490.910	1	-1
491.250	1	0
491.591	1	5
491.932	1	11
492.272	1	1
492.613	1	3
492.953	1	5
493.294	1	5
493.635	1	6
493.975	1	10
494.316	1	6
494.656	1	3
494.997	1	-1
495.337	1	7
495.678	1	-2
496.019	1	-5
496.359	1	7
496.700	1	1
497.040	1	-1
497.381	1	1
497.721	1	-4
498.062	1	2
498.403	1	12
498.743	1	11
499.084	1	7
499.424	1	9
499.765	1	3
500.105	1	2
500.446	1	-1
500.786	1	2
501.127	1	9
501.467	1	1
501.808	1	0
502.148	1	8
502.489	1	1
502.829	1	2
503.170	1	3
503.510	1	6
503.851	1	1
504.191	1	-9
504.532	1	-7
504.872	1	7
505.213	1	-1
505.553	1	8
505.894	1	-1
506.234	1	1
506.575	1	12
506.915	1	11
507.256	1	-3
507.596	1	8
507.936	1	2
508.277	1	-8
508.617	1	8
508.958	1	-1
509.298	1	5
509.639	1	7
509.979	1	9
510.319	1	-11
510.660	1	6
511.000	1	6
511.341	1	15
511.681	1	7
512.022	1	11
512.362	1	6
512.702	1	0
513.043	1	-1
513.383	1	4
513.724	1	0
514.064	1	14
514.404	1	-2
514.745	1	3
515.085	1	7
515.425	1	-4
515.766	1	8
516.106	1	5
516.447	1	6
516.787	1	15
517.127	1	11
517.468	1	10
517.808	1	15
518.148	1	7
518.489	1	11
518.829	1	2
519.169	1	9
519.510	1	6
519.850	1	12
520.190	1	1
520.531	1	8
520.871	1	7
521.211	1	5
521.552	1	6
521.892	1	6
522.232	1	-5
522.573	1	1
522.913	1	8
523.253	1	21
523.593	1	17
523.934	1	5
524.274	1	10
524.614	1	5
524.955	1	4
525.295	1	7
525.635	1	12
525.975	1	1
526.316	1	15
526.656	1	9
526.996	1	6
527.337	1	-6
527.677	1	0
528.017	1	12
528.357	1	-1
528.698	1	0
529.038	1	2
529.378	1	6
529.718	1	12
530.058	1	7
530.399	1	11
530.739	1	6
531.079	1	10
531.419	1	10
531.760	1	10
532.100	1	3
532.440	1	8
532.780	1	4
533.120	1	3
533.461	1	5
533.801	1	8
534.141	1	3
534.481	1	5
534.821	1	3
535.162	1	2
535.502	1	3
535.842	1	4
536.182	1	5
536.522	1	3
536.862	1	11
537.203	1	6
537.543	1	-6
537.883	1	5
538.223	1	5
538.563	1	6
538.903	1	8
539.243	1	-4
539.584	1	4
539.924	1	3
540.264	1	19
540.604	1	-2
540.944	1	-2
541.284	1	11
541.624	1	-3
541.964	1	4
542.305	1	3
542.645	1	3
542.985	1	8
543.325	1	3
543.665	1	9
544.005	1	18
544.345	1	1
544.685	1	10
545.025	1	-8
545.365	1	3
545.705	1	8
546.045	1	0
546.386	1	2
546.726	1	-3
547.066	1	18
547.406	1	3
547.746	1	-7
548.086	1	5
548.426	1	11
548.766	1	7
549.106	1	13
549.446	1	5
549.786	1	1
550.126	1	-4
550.466	1	5
550.806	1	3
551.146	1	7
551.486	1	11
551.826	1	15
552.166	1	3
552.506	1	8
552.846	1	2
553.186	1	1
553.526	1	-3
553.866	1	-6
554.206	1	10
554.546	1	8
554.886	1	2
555.226	1	3
555.566	1	-2
555.906	1	-3
556.246	1	-3
556.586	1	3
556.926	1	7
557.266	1	16
557.606	1	4
557.946	1	18
558.286	1	-2
558.626	1	18
558.966	1	6
559.306	1	7
559.646	1	-5
559.986	1	7
560.325	1	7
560.665	1	11
561.005	1	7
561.345	1	0
561.685	1	4
562.025	1	-3
562.365	1	8
562.705	1	12
563.045	1	4
563.385	1	5
563.725	1	-4
564.064	1	6
564.404	1	6
564.744	1	10
565.084	1	5
565.424	1	15
565.764	1	3
566.104	1	2
566.444	1	8
566.783	1	1
567.123	1	5
567.463	1	1
567.803	1	6
568.143	1	3
568.483	1	-1
568.823	1	10
569.162	1	11
569.502	1	-4
569.842	1	2
570.182	1	-1
570.522	1	-3
570.862	1	3
571.201	1	8
571.541	1	-1
571.881	1	-4
572.221	1	5
572.561	1	2
572.900	1	-4
573.240	1	10
573.580	1	3
573.920	1	13
574.260	1	8
574.599	1	-1
574.939	1	-3
575.279	1	9
575.619	1	12
575.959	1	-3
576.298	1	7
576.638	1	1
576.978	1	2
577.318	1	2
577.657	1	0
577.997	1	7
578.337	1	2
578.677	1	5
579.016	1	5
579.356	1	7
579.696	1	-4
580.036	1	1
580.375	1	-3
580.715	1	13
581.055	1	12
581.394	1	3
581.734	1	2
582.074	1	1
582.414	1	0
582.753	1	2
583.093	1	1
583.433	1	15
583.772	1	-1
584.112	1	4
584.452	1	-5
584.791	1	-1
585.131	1	10
585.471	1	2
585.811	1	-2
586.150	1	-4
586.490	1	5
586.830	1	-8
587.169	1	7
587.509	1	7
587.849	1	1
588.188	1	-2
588.528	1	0
588.867	1	2
589.207	1	-4
589.547	1	10
589.886	1	-8
590.226	1	-9
590.566	1	1
590.905	1	8
591.245	1	9
591.585	1	1
591.924	1	5
592.264	1	-7
592.603	1	0
592.943	1	6
593.283	1	8
593.622	1	-11
593.962	1	0
594.301	1	10
594.641	1	10
594.981	1	3
595.320	1	2
595.660	1	8
595.999	1	12
596.339	1	-3
596.678	1	-6
597.018	1	0
597.358	1	-8
597.697	1	2
598.037	1	-5
598.376	1	-3
598.716	1	1
599.055	1	2
599.395	1	4
599.734	1	11
600.074	1	4
600.413	1	-4
600.753	1	9
601.092	1	2
601.432	1	-7
601.771	1	4
602.111	1	2
602.451	1	4
602.790	1	19
603.130	1	-4
603.469	1	0
603.809	1	0
604.148	1	9
604.487	1	4
604.827	1	-6
605.166	1	12
605.506	1	5
605.845	1	7
606.185	1	1
606.524	1	-3
606.864	1	-6
607.203	1	15
607.543	1	14
607.882	1	7
608.222	1	-3
608.561	1	11
608.901	1	4
609.240	1	-2
609.579	1	-4
609.919	1	2
610.258	1	13
610.598	1	8
610.937	1	8
611.277	1	1
611.616	1	-6
611.955	1	10
612.295	1	0
612.634	1	-2
612.974	1	2
613.313	1	-11
613.652	1	17
613.992	1	-1
614.331	1	1
614.671	1	9
615.010	1	8
615.349	1	8
615.689	1	12
616.028	1	-5
616.368	1	-1
616.707	1	12
617.046	1	-7
617.386	1	1
617.725	1	6
618.064	1	3
618.404	1	5
618.743	1	9
619.082	1	15
619.422	1	-5
619.761	1	-8
620.100	1	3
620.440	1	7
620.779	1	-5
621.118	1	-6
621.458	1	1
621.797	1	3
622.136	1	0
622.476	1	-6
622.815	1	2
623.154	1	4
623.494	1	1
623.833	1	-2
624.172	1	-3
624.511	1	5
624.851	1	-8
625.190	1	0
625.529	1	1
625.869	1	13
626.208	1	4
626.547	1	-2
626.886	1	1
627.226	1	12
627.565	1	8
627.904	1	1
628.243	1	4
628.583	1	-7
628.922	1	1
629.261	1	4
629.600	1	3
629.940	1	-4
630.279	1	4
630.618	1	-5
630.957	1	1
631.297	1	-3
631.636	1	12
631.975	1	-4
632.314	1	-2
632.653	1	19
632.993	1	1
633.332	1	7
633.671	1	7
634.010	1	7
634.349	1	-11
634.689	1	7
635.028	1	8
635.367	1	-5
635.706	1	0
636.045	1	8
636.384	1	-7
636.724	1	9
637.063	1	12
637.402	1	11
637.741	1	-3
638.080	1	5
638.419	1	0
638.759	1	4
639.098	1	-7
639.437	1	-8
639.776	1	-1
640.115	1	8
640.454	1	-1
640.793	1	-1
641.132	1	2
641.472	1	-8
641.811	1	5
642.150	1	2
642.489	1	-6
642.828	1	7
643.167	1	-2
643.506	1	10
643.845	1	7
644.184	1	16
644.524	1	0
644.863	1	-5
645.202	1	7
645.541	1	7
645.880	1	3
646.219	1	-5
646.558	1	7
646.897	1	3
647.236	1	-1
647.575	1	-4
647.914	1	12
648.253	1	-1
648.592	1	-5
648.931	1	9
649.270	1	-6
649.610	1	5
649.949	1	-12
650.288	1	6
650.627	1	1
650.966	1	5
651.305	1	-4
651.644	1	3
651.983	1	4
652.322	1	6
652.661	1	3
653.000	1	-9
653.339	1	-8
653.678	1	3
654.017	1	2
654.356	1	-9
654.695	1	9
655.034	1	-1
655.373	1	8
655.712	1	-4
656.051	1	10
656.390	1	2
656.729	1	7
657.068	1	7
657.406	1	0
657.745	1	7
658.084	1	-6
658.423	1	-2
658.762	1	1
659.101	1	-2
659.440	1	1
659.779	1	4
660.118	1	8
660.457	1	4
660.796	1	-2
661.135	1	-7
661.474	1	11
661.813	1	4
662.152	1	-3
662.491	1	-6
662.829	1	5
663.168	1	4
663.507	1	10
663.846	1	11
664.185	1	9
664.524	1	10
664.863	1	6
665.202	1	14
665.541	1	1
665.879	1	16
666.218	1	9
666.557	1	0
666.896	1	5
667.235	1	-3
667.574	1	-9
667.913	1	3
668.251	1	8
668.590	1	-5
668.929	1	3
669.268	1	-5
669.607	1	10
669.946	1	1
670.285	1	15
670.623	1	5
670.962	1	0
671.301	1	0
671.640	1	-5
671.979	1	1
672.317	1	10
672.656	1	1
672.995	1	-9
673.334	1	4
673.673	1	0
674.011	1	2
674.350	1	15
674.689	1	5
675.028	1	1
675.367	1	2
675.705	1	2
676.044	1	9
676.383	1	4
676.722	1	9
677.060	1	0
677.399	1	-1
677.738	1	-2
678.077	1	14
678.416	1	-5
678.754	1	-4
679.093	1	7
679.432	1	3
679.771	1	5
680.109	1	5
680.448	1	5
680.787	1	-8
681.125	1	12
681.464	1	4
681.803	1	13
682.142	1	-3
682.480	1	0
682.819	1	9
683.158	1	0
683.496	1	-3
683.835	1	1
684.174	1	9
684.512	1	-9
684.851	1	0
685.190	1	2
685.529	1	16
685.867	1	1
686.206	1	1
686.545	1	12
686.883	1	1
687.222	1	-2
687.561	1	1
687.899	1	-9
688.238	1	2
688.577	1	10
688.746	1	-1