File: Data/GaN_170K_550ms/GaN_sample D_spot 18_UVVIS_170 K_200um_550 ms 2x2mm1_295.txt
340.368	1	-7
340.710	1	-12
341.052	1	6
341.394	1	3
341.737	1	-1
342.079	1	-2
342.421	1	2
342.763	1	8
343.105	1	11
343.447	1	-8
343.789	1	2
344.131	1	-3
344.473	1	1
344.815	1	6
345.157	1	3
345.499	1	-11
345.841	1	5
346.183	1	4
346.526	1	0
346.868	1	10
347.210	1	-13
347.552	1	9
347.894	1	1
348.236	1	0
348.578	1	-1
348.920	1	-1
349.262	1	2
349.604	1	3
349.946	1	8
350.288	1	-3
350.630	1	8
350.972	1	-5
351.314	1	9
351.656	1	-3
351.998	1	0
352.340	1	3
352.682	1	6
353.024	1	-1
353.366	1	0
353.708	1	11
354.050	1	-10
354.392	1	-4
354.734	1	1
355.076	1	-2
355.418	1	0
355.760	1	-4
356.102	1	0
356.444	1	0
356.785	1	-7
357.127	1	-5
357.469	1	2
357.811	1	-4
358.153	1	12
358.495	1	5
358.837	1	6
359.179	1	-6
359.521	1	5
359.863	1	6
360.205	1	3
360.547	1	2
360.889	1	8
361.231	1	6
361.572	1	4
361.914	1	2
362.256	1	0
362.598	1	11
362.940	1	14
363.282	1	10
363.624	1	6
363.966	1	0
364.308	1	13
364.649	1	-2
364.991	1	17
365.333	1	3
365.675	1	1
366.017	1	1
366.359	1	-1
366.701	1	9
367.042	1	-2
367.384	1	10
367.726	1	20
368.068	1	8
368.410	1	7
368.752	1	19
369.093	1	4
369.435	1	3
369.777	1	13
370.119	1	11
370.461	1	15
370.803	1	0
371.144	1	0
371.486	1	1
371.828	1	-2
372.170	1	14
372.512	1	5
372.853	1	18
373.195	1	13
373.537	1	19
373.879	1	10
374.220	1	8
374.562	1	-6
374.904	1	5
375.246	1	3
375.588	1	-1
375.929	1	8
376.271	1	7
376.613	1	5
376.955	1	-1
377.296	1	2
377.638	1	6
377.980	1	-8
378.321	1	8
378.663	1	4
379.005	1	0
379.347	1	5
379.688	1	-2
380.030	1	1
380.372	1	2
380.714	1	12
381.055	1	3
381.397	1	6
381.739	1	4
382.080	1	-1
382.422	1	2
382.764	1	6
383.105	1	2
383.447	1	4
383.789	1	18
384.130	1	-7
384.472	1	-1
384.814	1	9
385.156	1	-2
385.497	1	10
385.839	1	1
386.180	1	8
386.522	1	8
386.864	1	10
387.205	1	-5
387.547	1	3
387.889	1	10
388.230	1	-4
388.572	1	0
388.914	1	-2
389.255	1	2
389.597	1	-4
389.939	1	0
390.280	1	1
390.622	1	-4
390.963	1	-4
391.305	1	-1
391.647	1	-3
391.988	1	12
392.330	1	2
392.671	1	-5
393.013	1	-6
393.355	1	5
393.696	1	7
394.038	1	-5
394.379	1	0
394.721	1	1
395.062	1	9
395.404	1	1
395.746	1	1
396.087	1	4
396.429	1	7
396.770	1	9
397.112	1	5
397.453	1	6
397.795	1	-2
398.136	1	8
398.478	1	-3
398.819	1	10
399.161	1	-8
399.503	1	5
399.844	1	-8
400.186	1	2
400.527	1	10
400.869	1	0
401.210	1	-2
401.552	1	0
401.893	1	2
402.235	1	6
402.576	1	-2
402.918	1	4
403.259	1	-5
403.601	1	3
403.942	1	1
404.284	1	-13
404.625	1	-1
404.967	1	3
405.308	1	3
405.649	1	-7
405.991	1	8
406.332	1	-12
406.674	1	3
407.015	1	6
407.357	1	1
407.698	1	-1
408.040	1	7
408.381	1	7
408.722	1	-3
409.064	1	-3
409.405	1	3
409.747	1	-5
410.088	1	4
410.430	1	-8
410.771	1	-1
411.112	1	-2
411.454	1	7
411.795	1	10
412.137	1	-6
412.478	1	0
412.819	1	-17
413.161	1	8
413.502	1	-6
413.844	1	4
414.185	1	-4
414.526	1	3
414.868	1	-12
415.209	1	-9
415.550	1	-4
415.892	1	-4
416.233	1	8
416.575	1	4
416.916	1	-6
417.257	1	4
417.599	1	4
417.940	1	6
418.281	1	-7
418.623	1	5
418.964	1	-9
419.305	1	1
419.647	1	7
419.988	1	5
420.329	1	5
420.671	1	-9
421.012	1	6
421.353	1	3
421.695	1	-11
422.036	1	9
422.377	1	3
422.718	1	12
423.060	1	-8
423.401	1	-5
423.742	1	-5
424.084	1	24
424.425	1	-7
424.766	1	-4
425.107	1	-3
425.449	1	5
425.790	1	6
426.131	1	8
426.472	1	-1
426.814	1	-5
427.155	1	15
427.496	1	2
427.837	1	0
428.179	1	3
428.520	1	1
428.861	1	4
429.202	1	-6
429.544	1	-6
429.885	1	4
430.226	1	3
430.567	1	1
430.909	1	-3
431.250	1	14
431.591	1	-6
431.932	1	-9
432.273	1	-2
432.615	1	-4
432.956	1	5
433.297	1	-2
433.638	1	4
433.979	1	-1
434.320	1	-2
434.662	1	-13
435.003	1	6
435.344	1	1
435.685	1	-3
436.026	1	-6
436.368	1	8
436.709	1	-3
437.050	1	-2
437.391	1	-2
437.732	1	1
438.073	1	-9
438.414	1	-10
438.756	1	-2
439.097	1	3
439.438	1	9
439.779	1	3
440.120	1	-6
440.461	1	9
440.802	1	5
441.143	1	0
441.485	1	-7
441.826	1	-1
442.167	1	2
442.508	1	2
442.849	1	-2
443.190	1	-4
443.531	1	8
443.872	1	-6
444.213	1	0
444.554	1	-2
444.895	1	-14
445.237	1	3
445.578	1	10
445.919	1	5
446.260	1	11
446.601	1	-6
446.942	1	0
447.283	1	6
447.624	1	-3
447.965	1	4
448.306	1	-2
448.647	1	3
448.988	1	9
449.329	1	11
449.670	1	-15
450.011	1	8
450.352	1	3
450.693	1	-9
451.034	1	1
451.375	1	4
451.716	1	5
452.057	1	-1
452.398	1	1
452.739	1	3
453.080	1	4
453.421	1	5
453.762	1	-6
454.103	1	-3
454.444	1	-7
454.785	1	-3
455.126	1	10
455.467	1	-12
455.808	1	11
456.149	1	6
456.490	1	0
456.831	1	-6
457.172	1	0
457.513	1	5
457.854	1	5
458.195	1	4
458.536	1	3
458.877	1	8
459.218	1	1
459.559	1	2
459.899	1	-4
460.240	1	-3
460.581	1	4
460.922	1	-7
461.263	1	-1
461.604	1	6
461.945	1	4
462.286	1	-7
462.627	1	5
462.968	1	12
463.309	1	4
463.649	1	12
463.990	1	0
464.331	1	-4
464.672	1	-13
465.013	1	-2
465.354	1	1
465.695	1	2
466.036	1	-4
466.376	1	-4
466.717	1	4
467.058	1	13
467.399	1	8
467.740	1	3
468.081	1	1
468.422	1	-2
468.762	1	8
469.103	1	10
469.444	1	-3
469.785	1	-8
470.126	1	-1
470.467	1	6
470.807	1	3
471.148	1	0
471.489	1	-7
471.830	1	3
472.171	1	7
472.511	1	2
472.852	1	9
473.193	1	-1
473.534	1	5
473.875	1	4
474.215	1	9
474.556	1	3
474.897	1	9
475.238	1	-10
475.578	1	8
475.919	1	10
476.260	1	8
476.601	1	-1
476.942	1	-1
477.282	1	4
477.623	1	7
477.964	1	-3
478.305	1	-1
478.645	1	2
478.986	1	-1
479.327	1	-9
479.667	1	-4
480.008	1	0
480.349	1	3
480.690	1	9
481.030	1	10
481.371	1	1
481.712	1	3
482.053	1	-1
482.393	1	-5
482.734	1	3
483.075	1	-3
483.415	1	-1
483.756	1	0
484.097	1	-12
484.437	1	-5
484.778	1	-9
485.119	1	10
485.459	1	-4
485.800	1	-1
486.141	1	11
486.481	1	6
486.822	1	0
487.163	1	-1
487.503	1	-1
487.844	1	3
488.185	1	-7
488.525	1	8
488.866	1	13
489.207	1	2
489.547	1	-2
489.888	1	-6
490.228	1	3
490.569	1	10
490.910	1	1
491.250	1	10
491.591	1	-3
491.932	1	10
492.272	1	9
492.613	1	5
492.953	1	-5
493.294	1	1
493.635	1	-5
493.975	1	-7
494.316	1	6
494.656	1	-4
494.997	1	-12
495.337	1	9
495.678	1	-2
496.019	1	-7
496.359	1	8
496.700	1	6
497.040	1	1
497.381	1	8
497.721	1	-1
498.062	1	4
498.403	1	7
498.743	1	0
499.084	1	-4
499.424	1	3
499.765	1	-9
500.105	1	-4
500.446	1	6
500.786	1	0
501.127	1	7
501.467	1	3
501.808	1	-3
502.148	1	8
502.489	1	1
502.829	1	8
503.170	1	18
503.510	1	6
503.851	1	1
504.191	1	-3
504.532	1	-14
504.872	1	5
505.213	1	-2
505.553	1	2
505.894	1	12
506.234	1	1
506.575	1	5
506.915	1	0
507.256	1	-1
507.596	1	8
507.936	1	10
508.277	1	-7
508.617	1	9
508.958	1	-1
509.298	1	4
509.639	1	9
509.979	1	2
510.319	1	-3
510.660	1	-9
511.000	1	10
511.341	1	13
511.681	1	1
512.022	1	0
512.362	1	5
512.702	1	-6
513.043	1	0
513.383	1	-5
513.724	1	1
514.064	1	9
514.404	1	-1
514.745	1	0
515.085	1	1
515.425	1	7
515.766	1	-1
516.106	1	12
516.447	1	-4
516.787	1	1
517.127	1	5
517.468	1	4
517.808	1	9
518.148	1	0
518.489	1	11
518.829	1	5
519.169	1	7
519.510	1	4
519.850	1	6
520.190	1	2
520.531	1	8
520.871	1	4
521.211	1	5
521.552	1	5
521.892	1	3
522.232	1	-13
522.573	1	4
522.913	1	4
523.253	1	16
523.593	1	12
523.934	1	-3
524.274	1	-4
524.614	1	5
524.955	1	-4
525.295	1	1
525.635	1	8
525.975	1	-3
526.316	1	9
526.656	1	12
526.996	1	7
527.337	1	-4
527.677	1	3
528.017	1	6
528.357	1	1
528.698	1	-15
529.038	1	-5
529.378	1	3
529.718	1	9
530.058	1	11
530.399	1	5
530.739	1	0
531.079	1	0
531.419	1	10
531.760	1	-7
532.100	1	5
532.440	1	5
532.780	1	-4
533.120	1	4
533.461	1	-3
533.801	1	5
534.141	1	0
534.481	1	10
534.821	1	7
535.162	1	4
535.502	1	-3
535.842	1	6
536.182	1	4
536.522	1	7
536.862	1	18
537.203	1	-1
537.543	1	1
537.883	1	10
538.223	1	-2
538.563	1	-1
538.903	1	-2
539.243	1	1
539.584	1	-7
539.924	1	-3
540.264	1	16
540.604	1	2
540.944	1	2
541.284	1	5
541.624	1	3
541.964	1	-1
542.305	1	1
542.645	1	-5
542.985	1	3
543.325	1	-3
543.665	1	4
544.005	1	11
544.345	1	0
544.685	1	-7
545.025	1	3
545.365	1	-8
545.705	1	4
546.045	1	2
546.386	1	-3
546.726	1	1
547.066	1	7
547.406	1	-4
547.746	1	-2
548.086	1	2
548.426	1	7
548.766	1	2
549.106	1	-3
549.446	1	2
549.786	1	5
550.126	1	1
550.466	1	1
550.806	1	4
551.146	1	6
551.486	1	3
551.826	1	6
552.166	1	4
552.506	1	-1
552.846	1	3
553.186	1	9
553.526	1	-14
553.866	1	6
554.206	1	0
554.546	1	-7
554.886	1	-6
555.226	1	-5
555.566	1	8
555.906	1	-1
556.246	1	4
556.586	1	5
556.926	1	8
557.266	1	1
557.606	1	7
557.946	1	2
558.286	1	3
558.626	1	8
558.966	1	3
559.306	1	7
559.646	1	-2
559.986	1	4
560.325	1	-8
560.665	1	2
561.005	1	-1
561.345	1	-9
561.685	1	6
562.025	1	-2
562.365	1	-3
562.705	1	1
563.045	1	6
563.385	1	3
563.725	1	-2
564.064	1	-2
564.404	1	0
564.744	1	-1
565.084	1	5
565.424	1	-4
565.764	1	5
566.104	1	-6
566.444	1	0
566.783	1	-2
567.123	1	4
567.463	1	-2
567.803	1	11
568.143	1	0
568.483	1	4
568.823	1	4
569.162	1	6
569.502	1	-1
569.842	1	-11
570.182	1	-3
570.522	1	3
570.862	1	-4
571.201	1	5
571.541	1	-2
571.881	1	-1
572.221	1	-3
572.561	1	6
572.900	1	2
573.240	1	3
573.580	1	3
573.920	1	10
574.260	1	10
574.599	1	-5
574.939	1	-4
575.279	1	-3
575.619	1	9
575.959	1	-2
576.298	1	-1
576.638	1	-4
576.978	1	-14
577.318	1	6
577.657	1	-1
577.997	1	5
578.337	1	1
578.677	1	3
579.016	1	6
579.356	1	-1
579.696	1	1
580.036	1	-3
580.375	1	4
580.715	1	4
581.055	1	11
581.394	1	-1
581.734	1	7
582.074	1	-1
582.414	1	0
582.753	1	10
583.093	1	2
583.433	1	4
583.772	1	-5
584.112	1	1
584.452	1	-5
584.791	1	4
585.131	1	19
585.471	1	-2
585.811	1	-7
586.150	1	-5
586.490	1	-1
586.830	1	-5
587.169	1	7
587.509	1	-2
587.849	1	1
588.188	1	-7
588.528	1	-2
588.867	1	1
589.207	1	-5
589.547	1	6
589.886	1	-8
590.226	1	-7
590.566	1	-6
590.905	1	11
591.245	1	8
591.585	1	3
591.924	1	2
592.264	1	-10
592.603	1	-7
592.943	1	5
593.283	1	-1
593.622	1	-4
593.962	1	-3
594.301	1	8
594.641	1	-1
594.981	1	19
595.320	1	8
595.660	1	-3
595.999	1	4
596.339	1	4
596.678	1	-4
597.018	1	0
597.358	1	-5
597.697	1	0
598.037	1	5
598.376	1	-12
598.716	1	0
599.055	1	-4
599.395	1	1
599.734	1	5
600.074	1	-3
600.413	1	-7
600.753	1	7
601.092	1	-4
601.432	1	-6
601.771	1	-1
602.111	1	3
602.451	1	12
602.790	1	13
603.130	1	-5
603.469	1	6
603.809	1	-1
604.148	1	2
604.487	1	9
604.827	1	-6
605.166	1	9
605.506	1	-2
605.845	1	7
606.185	1	3
606.524	1	-2
606.864	1	-7
607.203	1	-2
607.543	1	7
607.882	1	-9
608.222	1	-3
608.561	1	10
608.901	1	10
609.240	1	-11
609.579	1	7
609.919	1	-5
610.258	1	4
610.598	1	3
610.937	1	4
611.277	1	5
611.616	1	10
611.955	1	11
612.295	1	-1
612.634	1	-4
612.974	1	6
613.313	1	-1
613.652	1	14
613.992	1	-1
614.331	1	2
614.671	1	12
615.010	1	6
615.349	1	7
615.689	1	11
616.028	1	-1
616.368	1	-6
616.707	1	8
617.046	1	3
617.386	1	1
617.725	1	2
618.064	1	0
618.404	1	-1
618.743	1	10
619.082	1	8
619.422	1	-5
619.761	1	-3
620.100	1	1
620.440	1	3
620.779	1	-1
621.118	1	-3
621.458	1	1
621.797	1	4
622.136	1	-4
622.476	1	-9
622.815	1	-10
623.154	1	6
623.494	1	-3
623.833	1	8
624.172	1	-8
624.511	1	-3
624.851	1	-2
625.190	1	8
625.529	1	7
625.869	1	5
626.208	1	0
626.547	1	-2
626.886	1	2
627.226	1	0
627.565	1	6
627.904	1	2
628.243	1	1
628.583	1	0
628.922	1	-6
629.261	1	1
629.600	1	-2
629.940	1	-3
630.279	1	-2
630.618	1	-5
630.957	1	5
631.297	1	-3
631.636	1	5
631.975	1	-1
632.314	1	3
632.653	1	11
632.993	1	-12
633.332	1	5
633.671	1	-1
634.010	1	4
634.349	1	-4
634.689	1	3
635.028	1	2
635.367	1	1
635.706	1	-5
636.045	1	14
636.384	1	-5
636.724	1	4
637.063	1	3
637.402	1	7
637.741	1	-4
638.080	1	11
638.419	1	-1
638.759	1	-1
639.098	1	-11
639.437	1	-8
639.776	1	1
640.115	1	2
640.454	1	6
640.793	1	3
641.132	1	5
641.472	1	-7
641.811	1	10
642.150	1	-1
642.489	1	4
642.828	1	2
643.167	1	-14
643.506	1	1
643.845	1	-5
644.184	1	11
644.524	1	2
644.863	1	7
645.202	1	8
645.541	1	4
645.880	1	-5
646.219	1	-4
646.558	1	5
646.897	1	7
647.236	1	-2
647.575	1	-1
647.914	1	-3
648.253	1	0
648.592	1	-2
648.931	1	9
649.270	1	3
649.610	1	-3
649.949	1	-3
650.288	1	4
650.627	1	-8
650.966	1	8
651.305	1	-3
651.644	1	-3
651.983	1	-5
652.322	1	1
652.661	1	0
653.000	1	-11
653.339	1	0
653.678	1	3
654.017	1	9
654.356	1	-2
654.695	1	11
655.034	1	-8
655.373	1	5
655.712	1	-11
656.051	1	5
656.390	1	-8
656.729	1	2
657.068	1	6
657.406	1	3
657.745	1	9
658.084	1	-8
658.423	1	1
658.762	1	-2
659.101	1	-3
659.440	1	4
659.779	1	-1
660.118	1	0
660.457	1	5
660.796	1	-7
661.135	1	-10
661.474	1	0
661.813	1	-5
662.152	1	1
662.491	1	-4
662.829	1	2
663.168	1	-3
663.507	1	-3
663.846	1	-3
664.185	1	7
664.524	1	1
664.863	1	0
665.202	1	14
665.541	1	5
665.879	1	6
666.218	1	10
666.557	1	-1
666.896	1	1
667.235	1	-4
667.574	1	-6
667.913	1	-17
668.251	1	-1
668.590	1	-6
668.929	1	4
669.268	1	0
669.607	1	-2
669.946	1	3
670.285	1	7
670.623	1	-6
670.962	1	1
671.301	1	2
671.640	1	11
671.979	1	3
672.317	1	8
672.656	1	3
672.995	1	-9
673.334	1	-4
673.673	1	3
674.011	1	15
674.350	1	4
674.689	1	-4
675.028	1	-4
675.367	1	-1
675.705	1	11
676.044	1	7
676.383	1	1
676.722	1	11
677.060	1	-7
677.399	1	-2
677.738	1	-5
678.077	1	16
678.416	1	2
678.754	1	0
679.093	1	-2
679.432	1	3
679.771	1	2
680.109	1	1
680.448	1	8
680.787	1	-2
681.125	1	9
681.464	1	-3
681.803	1	5
682.142	1	-3
682.480	1	4
682.819	1	8
683.158	1	-5
683.496	1	4
683.835	1	-1
684.174	1	-6
684.512	1	-4
684.851	1	-2
685.190	1	-4
685.529	1	6
685.867	1	5
686.206	1	5
686.545	1	10
686.883	1	2
687.222	1	8
687.561	1	-5
687.899	1	-12
688.238	1	4
688.577	1	6
688.746	1	-2