File: Data/GaN_170K_550ms/GaN_sample D_spot 18_UVVIS_170 K_200um_550 ms 2x2mm1_154.txt
340.368	1	-5
340.710	1	-12
341.052	1	4
341.394	1	6
341.737	1	-9
342.079	1	-3
342.421	1	2
342.763	1	-3
343.105	1	14
343.447	1	-3
343.789	1	7
344.131	1	1
344.473	1	7
344.815	1	18
345.157	1	3
345.499	1	-12
345.841	1	8
346.183	1	8
346.526	1	2
346.868	1	3
347.210	1	-7
347.552	1	8
347.894	1	-3
348.236	1	0
348.578	1	0
348.920	1	-6
349.262	1	2
349.604	1	3
349.946	1	20
350.288	1	4
350.630	1	18
350.972	1	-6
351.314	1	5
351.656	1	1
351.998	1	8
352.340	1	5
352.682	1	3
353.024	1	3
353.366	1	11
353.708	1	4
354.050	1	6
354.392	1	2
354.734	1	5
355.076	1	-3
355.418	1	-3
355.760	1	-6
356.102	1	7
356.444	1	-3
356.785	1	12
357.127	1	15
357.469	1	-2
357.811	1	8
358.153	1	7
358.495	1	0
358.837	1	3
359.179	1	-2
359.521	1	11
359.863	1	14
360.205	1	16
360.547	1	15
360.889	1	19
361.231	1	8
361.572	1	21
361.914	1	12
362.256	1	13
362.598	1	16
362.940	1	24
363.282	1	14
363.624	1	14
363.966	1	21
364.308	1	21
364.649	1	13
364.991	1	22
365.333	1	10
365.675	1	21
366.017	1	16
366.359	1	22
366.701	1	40
367.042	1	31
367.384	1	39
367.726	1	40
368.068	1	38
368.410	1	47
368.752	1	33
369.093	1	25
369.435	1	24
369.777	1	37
370.119	1	25
370.461	1	33
370.803	1	19
371.144	1	22
371.486	1	21
371.828	1	31
372.170	1	29
372.512	1	25
372.853	1	37
373.195	1	29
373.537	1	34
373.879	1	23
374.220	1	41
374.562	1	9
374.904	1	16
375.246	1	16
375.588	1	10
375.929	1	21
376.271	1	15
376.613	1	21
376.955	1	17
377.296	1	17
377.638	1	19
377.980	1	-1
378.321	1	19
378.663	1	9
379.005	1	10
379.347	1	12
379.688	1	9
380.030	1	22
380.372	1	7
380.714	1	13
381.055	1	4
381.397	1	18
381.739	1	2
382.080	1	5
382.422	1	6
382.764	1	11
383.105	1	9
383.447	1	22
383.789	1	17
384.130	1	-2
384.472	1	3
384.814	1	5
385.156	1	4
385.497	1	11
385.839	1	4
386.180	1	6
386.522	1	7
386.864	1	17
387.205	1	2
387.547	1	17
387.889	1	9
388.230	1	-3
388.572	1	15
388.914	1	8
389.255	1	5
389.597	1	8
389.939	1	4
390.280	1	9
390.622	1	-7
390.963	1	-1
391.305	1	1
391.647	1	-5
391.988	1	11
392.330	1	9
392.671	1	0
393.013	1	2
393.355	1	9
393.696	1	6
394.038	1	0
394.379	1	0
394.721	1	2
395.062	1	10
395.404	1	6
395.746	1	5
396.087	1	8
396.429	1	5
396.770	1	4
397.112	1	3
397.453	1	5
397.795	1	0
398.136	1	4
398.478	1	4
398.819	1	4
399.161	1	-4
399.503	1	4
399.844	1	0
400.186	1	1
400.527	1	15
400.869	1	5
401.210	1	5
401.552	1	2
401.893	1	11
402.235	1	10
402.576	1	3
402.918	1	-3
403.259	1	11
403.601	1	2
403.942	1	2
404.284	1	-7
404.625	1	3
404.967	1	7
405.308	1	9
405.649	1	7
405.991	1	-3
406.332	1	-3
406.674	1	7
407.015	1	9
407.357	1	7
407.698	1	12
408.040	1	6
408.381	1	-3
408.722	1	-2
409.064	1	-3
409.405	1	12
409.747	1	-2
410.088	1	9
410.430	1	-2
410.771	1	4
411.112	1	-3
411.454	1	2
411.795	1	8
412.137	1	3
412.478	1	2
412.819	1	-3
413.161	1	13
413.502	1	2
413.844	1	15
414.185	1	4
414.526	1	2
414.868	1	-2
415.209	1	-11
415.550	1	7
415.892	1	1
416.233	1	6
416.575	1	-1
416.916	1	-4
417.257	1	2
417.599	1	1
417.940	1	-8
418.281	1	-3
418.623	1	3
418.964	1	-4
419.305	1	-1
419.647	1	12
419.988	1	3
420.329	1	6
420.671	1	-6
421.012	1	-2
421.353	1	4
421.695	1	-7
422.036	1	5
422.377	1	10
422.718	1	1
423.060	1	1
423.401	1	4
423.742	1	-4
424.084	1	16
424.425	1	-15
424.766	1	3
425.107	1	11
425.449	1	3
425.790	1	-2
426.131	1	7
426.472	1	5
426.814	1	-8
427.155	1	9
427.496	1	1
427.837	1	5
428.179	1	0
428.520	1	-5
428.861	1	3
429.202	1	-5
429.544	1	-4
429.885	1	5
430.226	1	-1
430.567	1	-3
430.909	1	-1
431.250	1	12
431.591	1	-2
431.932	1	0
432.273	1	7
432.615	1	5
432.956	1	7
433.297	1	5
433.638	1	16
433.979	1	2
434.320	1	3
434.662	1	-19
435.003	1	8
435.344	1	3
435.685	1	-3
436.026	1	-1
436.368	1	4
436.709	1	-2
437.050	1	-11
437.391	1	-2
437.732	1	10
438.073	1	0
438.414	1	-2
438.756	1	4
439.097	1	4
439.438	1	3
439.779	1	10
440.120	1	-7
440.461	1	9
440.802	1	6
441.143	1	-2
441.485	1	0
441.826	1	7
442.167	1	6
442.508	1	1
442.849	1	1
443.190	1	6
443.531	1	-1
443.872	1	-5
444.213	1	3
444.554	1	-1
444.895	1	-11
445.237	1	-10
445.578	1	14
445.919	1	6
446.260	1	12
446.601	1	-5
446.942	1	4
447.283	1	-4
447.624	1	-4
447.965	1	8
448.306	1	1
448.647	1	0
448.988	1	9
449.329	1	7
449.670	1	-13
450.011	1	0
450.352	1	-1
450.693	1	4
451.034	1	1
451.375	1	-1
451.716	1	15
452.057	1	-6
452.398	1	0
452.739	1	9
453.080	1	10
453.421	1	7
453.762	1	-3
454.103	1	-3
454.444	1	0
454.785	1	5
455.126	1	17
455.467	1	-4
455.808	1	15
456.149	1	8
456.490	1	1
456.831	1	-1
457.172	1	3
457.513	1	16
457.854	1	3
458.195	1	3
458.536	1	0
458.877	1	5
459.218	1	-1
459.559	1	4
459.899	1	6
460.240	1	-10
460.581	1	3
460.922	1	0
461.263	1	10
461.604	1	9
461.945	1	1
462.286	1	-11
462.627	1	5
462.968	1	11
463.309	1	6
463.649	1	5
463.990	1	-2
464.331	1	8
464.672	1	-1
465.013	1	7
465.354	1	-4
465.695	1	7
466.036	1	-2
466.376	1	0
466.717	1	-6
467.058	1	1
467.399	1	13
467.740	1	-1
468.081	1	1
468.422	1	6
468.762	1	12
469.103	1	3
469.444	1	3
469.785	1	-6
470.126	1	9
470.467	1	6
470.807	1	-2
471.148	1	-6
471.489	1	-3
471.830	1	-1
472.171	1	6
472.511	1	3
472.852	1	-3
473.193	1	0
473.534	1	0
473.875	1	4
474.215	1	8
474.556	1	5
474.897	1	-2
475.238	1	1
475.578	1	4
475.919	1	4
476.260	1	5
476.601	1	7
476.942	1	-1
477.282	1	3
477.623	1	8
477.964	1	4
478.305	1	-9
478.645	1	1
478.986	1	3
479.327	1	-9
479.667	1	1
480.008	1	-2
480.349	1	-2
480.690	1	3
481.030	1	4
481.371	1	4
481.712	1	0
482.053	1	2
482.393	1	1
482.734	1	2
483.075	1	-2
483.415	1	4
483.756	1	1
484.097	1	-10
484.437	1	-3
484.778	1	-10
485.119	1	3
485.459	1	4
485.800	1	-2
486.141	1	6
486.481	1	-4
486.822	1	10
487.163	1	2
487.503	1	6
487.844	1	9
488.185	1	11
488.525	1	11
488.866	1	8
489.207	1	8
489.547	1	9
489.888	1	2
490.228	1	-4
490.569	1	11
490.910	1	5
491.250	1	9
491.591	1	5
491.932	1	4
492.272	1	10
492.613	1	8
492.953	1	4
493.294	1	2
493.635	1	0
493.975	1	6
494.316	1	5
494.656	1	-3
494.997	1	8
495.337	1	3
495.678	1	12
496.019	1	-5
496.359	1	-1
496.700	1	10
497.040	1	0
497.381	1	10
497.721	1	-12
498.062	1	-2
498.403	1	11
498.743	1	9
499.084	1	12
499.424	1	6
499.765	1	-1
500.105	1	1
500.446	1	4
500.786	1	4
501.127	1	1
501.467	1	3
501.808	1	-1
502.148	1	14
502.489	1	2
502.829	1	8
503.170	1	5
503.510	1	1
503.851	1	2
504.191	1	5
504.532	1	-4
504.872	1	5
505.213	1	-11
505.553	1	6
505.894	1	10
506.234	1	0
506.575	1	6
506.915	1	8
507.256	1	1
507.596	1	11
507.936	1	13
508.277	1	-2
508.617	1	6
508.958	1	2
509.298	1	12
509.639	1	13
509.979	1	10
510.319	1	-2
510.660	1	-5
511.000	1	9
511.341	1	18
511.681	1	6
512.022	1	12
512.362	1	-1
512.702	1	1
513.043	1	8
513.383	1	10
513.724	1	1
514.064	1	12
514.404	1	2
514.745	1	12
515.085	1	9
515.425	1	2
515.766	1	2
516.106	1	6
516.447	1	-1
516.787	1	5
517.127	1	1
517.468	1	2
517.808	1	11
518.148	1	7
518.489	1	11
518.829	1	10
519.169	1	0
519.510	1	7
519.850	1	7
520.190	1	7
520.531	1	8
520.871	1	12
521.211	1	11
521.552	1	-1
521.892	1	6
522.232	1	-3
522.573	1	8
522.913	1	2
523.253	1	13
523.593	1	2
523.934	1	2
524.274	1	9
524.614	1	7
524.955	1	2
525.295	1	15
525.635	1	11
525.975	1	9
526.316	1	9
526.656	1	14
526.996	1	7
527.337	1	7
527.677	1	-4
528.017	1	9
528.357	1	1
528.698	1	-2
529.038	1	3
529.378	1	8
529.718	1	9
530.058	1	23
530.399	1	12
530.739	1	10
531.079	1	6
531.419	1	17
531.760	1	6
532.100	1	8
532.440	1	-2
532.780	1	0
533.120	1	10
533.461	1	5
533.801	1	7
534.141	1	1
534.481	1	21
534.821	1	13
535.162	1	3
535.502	1	6
535.842	1	11
536.182	1	0
536.522	1	9
536.862	1	7
537.203	1	5
537.543	1	9
537.883	1	9
538.223	1	2
538.563	1	5
538.903	1	-1
539.243	1	3
539.584	1	11
539.924	1	-3
540.264	1	16
540.604	1	13
540.944	1	2
541.284	1	5
541.624	1	4
541.964	1	12
542.305	1	10
542.645	1	3
542.985	1	12
543.325	1	6
543.665	1	19
544.005	1	8
544.345	1	10
544.685	1	1
545.025	1	0
545.365	1	1
545.705	1	5
546.045	1	6
546.386	1	6
546.726	1	1
547.066	1	18
547.406	1	-2
547.746	1	-7
548.086	1	10
548.426	1	13
548.766	1	4
549.106	1	12
549.446	1	7
549.786	1	5
550.126	1	8
550.466	1	-1
550.806	1	-7
551.146	1	7
551.486	1	5
551.826	1	10
552.166	1	2
552.506	1	5
552.846	1	0
553.186	1	10
553.526	1	6
553.866	1	-9
554.206	1	4
554.546	1	2
554.886	1	9
555.226	1	6
555.566	1	12
555.906	1	0
556.246	1	6
556.586	1	7
556.926	1	8
557.266	1	9
557.606	1	-2
557.946	1	3
558.286	1	-6
558.626	1	13
558.966	1	13
559.306	1	11
559.646	1	6
559.986	1	4
560.325	1	-1
560.665	1	11
561.005	1	12
561.345	1	-4
561.685	1	6
562.025	1	-2
562.365	1	9
562.705	1	11
563.045	1	7
563.385	1	4
563.725	1	0
564.064	1	13
564.404	1	5
564.744	1	-2
565.084	1	4
565.424	1	7
565.764	1	5
566.104	1	5
566.444	1	11
566.783	1	4
567.123	1	0
567.463	1	-2
567.803	1	2
568.143	1	3
568.483	1	7
568.823	1	-4
569.162	1	10
569.502	1	3
569.842	1	0
570.182	1	6
570.522	1	5
570.862	1	2
571.201	1	1
571.541	1	-1
571.881	1	1
572.221	1	2
572.561	1	5
572.900	1	0
573.240	1	7
573.580	1	3
573.920	1	15
574.260	1	8
574.599	1	-2
574.939	1	-1
575.279	1	0
575.619	1	13
575.959	1	5
576.298	1	0
576.638	1	10
576.978	1	3
577.318	1	5
577.657	1	-2
577.997	1	-1
578.337	1	6
578.677	1	11
579.016	1	4
579.356	1	12
579.696	1	-5
580.036	1	5
580.375	1	2
580.715	1	0
581.055	1	3
581.394	1	2
581.734	1	4
582.074	1	2
582.414	1	-3
582.753	1	9
583.093	1	7
583.433	1	2
583.772	1	-3
584.112	1	5
584.452	1	-7
584.791	1	2
585.131	1	11
585.471	1	5
585.811	1	2
586.150	1	-5
586.490	1	5
586.830	1	-6
587.169	1	13
587.509	1	4
587.849	1	5
588.188	1	3
588.528	1	0
588.867	1	-3
589.207	1	2
589.547	1	9
589.886	1	-8
590.226	1	1
590.566	1	6
590.905	1	9
591.245	1	9
591.585	1	3
591.924	1	-6
592.264	1	-5
592.603	1	6
592.943	1	1
593.283	1	3
593.622	1	-8
593.962	1	1
594.301	1	10
594.641	1	4
594.981	1	16
595.320	1	5
595.660	1	0
595.999	1	6
596.339	1	2
596.678	1	5
597.018	1	0
597.358	1	-5
597.697	1	0
598.037	1	5
598.376	1	-5
598.716	1	7
599.055	1	8
599.395	1	2
599.734	1	20
600.074	1	-2
600.413	1	-3
600.753	1	0
601.092	1	4
601.432	1	3
601.771	1	6
602.111	1	10
602.451	1	4
602.790	1	14
603.130	1	-4
603.469	1	0
603.809	1	6
604.148	1	2
604.487	1	7
604.827	1	-9
605.166	1	10
605.506	1	6
605.845	1	7
606.185	1	13
606.524	1	-1
606.864	1	-7
607.203	1	7
607.543	1	8
607.882	1	2
608.222	1	1
608.561	1	9
608.901	1	1
609.240	1	-3
609.579	1	-4
609.919	1	-4
610.258	1	6
610.598	1	12
610.937	1	1
611.277	1	2
611.616	1	4
611.955	1	10
612.295	1	6
612.634	1	5
612.974	1	7
613.313	1	-4
613.652	1	2
613.992	1	2
614.331	1	5
614.671	1	14
615.010	1	7
615.349	1	3
615.689	1	12
616.028	1	7
616.368	1	5
616.707	1	12
617.046	1	-8
617.386	1	-4
617.725	1	8
618.064	1	1
618.404	1	2
618.743	1	6
619.082	1	10
619.422	1	-5
619.761	1	1
620.100	1	6
620.440	1	10
620.779	1	-7
621.118	1	-3
621.458	1	-2
621.797	1	-1
622.136	1	2
622.476	1	-3
622.815	1	5
623.154	1	-1
623.494	1	2
623.833	1	2
624.172	1	1
624.511	1	3
624.851	1	-6
625.190	1	0
625.529	1	9
625.869	1	7
626.208	1	0
626.547	1	2
626.886	1	2
627.226	1	2
627.565	1	7
627.904	1	3
628.243	1	3
628.583	1	-6
628.922	1	-7
629.261	1	5
629.600	1	2
629.940	1	0
630.279	1	4
630.618	1	-7
630.957	1	10
631.297	1	-4
631.636	1	3
631.975	1	-2
632.314	1	2
632.653	1	2
632.993	1	0
633.332	1	2
633.671	1	7
634.010	1	7
634.349	1	-9
634.689	1	3
635.028	1	4
635.367	1	6
635.706	1	2
636.045	1	9
636.384	1	-12
636.724	1	18
637.063	1	12
637.402	1	10
637.741	1	-3
638.080	1	9
638.419	1	-10
638.759	1	-2
639.098	1	-9
639.437	1	-13
639.776	1	2
640.115	1	4
640.454	1	-2
640.793	1	-6
641.132	1	4
641.472	1	-5
641.811	1	9
642.150	1	1
642.489	1	7
642.828	1	-1
643.167	1	-2
643.506	1	9
643.845	1	4
644.184	1	19
644.524	1	-4
644.863	1	0
645.202	1	13
645.541	1	2
645.880	1	7
646.219	1	-6
646.558	1	4
646.897	1	9
647.236	1	-6
647.575	1	3
647.914	1	-2
648.253	1	2
648.592	1	9
648.931	1	1
649.270	1	1
649.610	1	12
649.949	1	-8
650.288	1	1
650.627	1	3
650.966	1	6
651.305	1	-12
651.644	1	15
651.983	1	7
652.322	1	-2
652.661	1	2
653.000	1	-14
653.339	1	1
653.678	1	1
654.017	1	3
654.356	1	0
654.695	1	16
655.034	1	3
655.373	1	13
655.712	1	-3
656.051	1	-4
656.390	1	4
656.729	1	-1
657.068	1	10
657.406	1	3
657.745	1	15
658.084	1	-1
658.423	1	7
658.762	1	-8
659.101	1	-2
659.440	1	3
659.779	1	-1
660.118	1	10
660.457	1	5
660.796	1	9
661.135	1	-20
661.474	1	1
661.813	1	-15
662.152	1	-1
662.491	1	-9
662.829	1	-4
663.168	1	2
663.507	1	-1
663.846	1	3
664.185	1	4
664.524	1	4
664.863	1	0
665.202	1	8
665.541	1	4
665.879	1	4
666.218	1	14
666.557	1	-1
666.896	1	1
667.235	1	0
667.574	1	-2
667.913	1	-4
668.251	1	10
668.590	1	-10
668.929	1	4
669.268	1	-1
669.607	1	-4
669.946	1	6
670.285	1	8
670.623	1	6
670.962	1	-5
671.301	1	3
671.640	1	1
671.979	1	7
672.317	1	10
672.656	1	-1
672.995	1	-6
673.334	1	-2
673.673	1	10
674.011	1	8
674.350	1	5
674.689	1	2
675.028	1	2
675.367	1	-2
675.705	1	10
676.044	1	14
676.383	1	1
676.722	1	9
677.060	1	2
677.399	1	0
677.738	1	-1
678.077	1	13
678.416	1	-4
678.754	1	8
679.093	1	2
679.432	1	1
679.771	1	5
680.109	1	-6
680.448	1	8
680.787	1	-3
681.125	1	6
681.464	1	9
681.803	1	11
682.142	1	-1
682.480	1	2
682.819	1	11
683.158	1	-3
683.496	1	4
683.835	1	-5
684.174	1	0
684.512	1	-3
684.851	1	0
685.190	1	-3
685.529	1	14
685.867	1	5
686.206	1	7
686.545	1	7
686.883	1	-1
687.222	1	4
687.561	1	3
687.899	1	-7
688.238	1	-4
688.577	1	11
688.746	1	-2