File: Data/GaN_170K_550ms/GaN_sample D_spot 18_UVVIS_170 K_200um_550 ms 2x2mm1_82.txt
340.368	1	0
340.710	1	-1
341.052	1	3
341.394	1	3
341.737	1	8
342.079	1	2
342.421	1	8
342.763	1	3
343.105	1	15
343.447	1	-2
343.789	1	11
344.131	1	3
344.473	1	5
344.815	1	8
345.157	1	1
345.499	1	1
345.841	1	5
346.183	1	12
346.526	1	5
346.868	1	4
347.210	1	3
347.552	1	11
347.894	1	8
348.236	1	-4
348.578	1	7
348.920	1	4
349.262	1	9
349.604	1	15
349.946	1	4
350.288	1	-3
350.630	1	11
350.972	1	-2
351.314	1	10
351.656	1	10
351.998	1	19
352.340	1	11
352.682	1	9
353.024	1	5
353.366	1	8
353.708	1	13
354.050	1	2
354.392	1	10
354.734	1	16
355.076	1	11
355.418	1	0
355.760	1	0
356.102	1	14
356.444	1	8
356.785	1	8
357.127	1	11
357.469	1	14
357.811	1	22
358.153	1	21
358.495	1	9
358.837	1	20
359.179	1	15
359.521	1	27
359.863	1	29
360.205	1	36
360.547	1	40
360.889	1	40
361.231	1	48
361.572	1	54
361.914	1	46
362.256	1	43
362.598	1	58
362.940	1	66
363.282	1	62
363.624	1	73
363.966	1	73
364.308	1	80
364.649	1	74
364.991	1	103
365.333	1	105
365.675	1	116
366.017	1	127
366.359	1	116
366.701	1	141
367.042	1	148
367.384	1	161
367.726	1	160
368.068	1	159
368.410	1	158
368.752	1	179
369.093	1	149
369.435	1	145
369.777	1	156
370.119	1	153
370.461	1	160
370.803	1	134
371.144	1	126
371.486	1	122
371.828	1	118
372.170	1	119
372.512	1	107
372.853	1	117
373.195	1	95
373.537	1	94
373.879	1	99
374.220	1	92
374.562	1	78
374.904	1	86
375.246	1	81
375.588	1	73
375.929	1	69
376.271	1	64
376.613	1	63
376.955	1	64
377.296	1	51
377.638	1	60
377.980	1	40
378.321	1	52
378.663	1	58
379.005	1	43
379.347	1	42
379.688	1	47
380.030	1	47
380.372	1	36
380.714	1	42
381.055	1	43
381.397	1	38
381.739	1	26
382.080	1	35
382.422	1	31
382.764	1	30
383.105	1	33
383.447	1	41
383.789	1	44
384.130	1	25
384.472	1	17
384.814	1	30
385.156	1	28
385.497	1	25
385.839	1	26
386.180	1	29
386.522	1	24
386.864	1	20
387.205	1	18
387.547	1	20
387.889	1	25
388.230	1	13
388.572	1	17
388.914	1	14
389.255	1	20
389.597	1	13
389.939	1	7
390.280	1	3
390.622	1	9
390.963	1	8
391.305	1	11
391.647	1	2
391.988	1	23
392.330	1	10
392.671	1	10
393.013	1	18
393.355	1	12
393.696	1	23
394.038	1	8
394.379	1	8
394.721	1	7
395.062	1	13
395.404	1	19
395.746	1	10
396.087	1	11
396.429	1	13
396.770	1	10
397.112	1	9
397.453	1	11
397.795	1	6
398.136	1	14
398.478	1	7
398.819	1	10
399.161	1	2
399.503	1	14
399.844	1	3
400.186	1	5
400.527	1	6
400.869	1	-1
401.210	1	3
401.552	1	3
401.893	1	10
402.235	1	9
402.576	1	7
402.918	1	13
403.259	1	13
403.601	1	10
403.942	1	3
404.284	1	-1
404.625	1	5
404.967	1	5
405.308	1	13
405.649	1	13
405.991	1	3
406.332	1	-5
406.674	1	15
407.015	1	5
407.357	1	-1
407.698	1	1
408.040	1	6
408.381	1	9
408.722	1	0
409.064	1	0
409.405	1	7
409.747	1	5
410.088	1	16
410.430	1	18
410.771	1	15
411.112	1	3
411.454	1	7
411.795	1	5
412.137	1	3
412.478	1	2
412.819	1	5
413.161	1	0
413.502	1	0
413.844	1	15
414.185	1	-2
414.526	1	10
414.868	1	-8
415.209	1	-18
415.550	1	15
415.892	1	7
416.233	1	10
416.575	1	4
416.916	1	4
417.257	1	7
417.599	1	8
417.940	1	14
418.281	1	-11
418.623	1	5
418.964	1	-4
419.305	1	4
419.647	1	5
419.988	1	8
420.329	1	10
420.671	1	1
421.012	1	10
421.353	1	4
421.695	1	-6
422.036	1	10
422.377	1	10
422.718	1	13
423.060	1	8
423.401	1	3
423.742	1	-2
424.084	1	13
424.425	1	-4
424.766	1	3
425.107	1	3
425.449	1	5
425.790	1	8
426.131	1	6
426.472	1	11
426.814	1	-4
427.155	1	6
427.496	1	9
427.837	1	8
428.179	1	9
428.520	1	-7
428.861	1	1
429.202	1	-1
429.544	1	-3
429.885	1	10
430.226	1	6
430.567	1	13
430.909	1	3
431.250	1	11
431.591	1	3
431.932	1	0
432.273	1	1
432.615	1	3
432.956	1	4
433.297	1	6
433.638	1	14
433.979	1	2
434.320	1	10
434.662	1	-8
435.003	1	2
435.344	1	5
435.685	1	1
436.026	1	1
436.368	1	10
436.709	1	5
437.050	1	-1
437.391	1	-2
437.732	1	3
438.073	1	2
438.414	1	-2
438.756	1	-5
439.097	1	5
439.438	1	10
439.779	1	16
440.120	1	-1
440.461	1	14
440.802	1	6
441.143	1	2
441.485	1	3
441.826	1	6
442.167	1	8
442.508	1	7
442.849	1	-1
443.190	1	8
443.531	1	4
443.872	1	2
444.213	1	6
444.554	1	3
444.895	1	-4
445.237	1	-2
445.578	1	10
445.919	1	8
446.260	1	12
446.601	1	-8
446.942	1	3
447.283	1	3
447.624	1	2
447.965	1	3
448.306	1	0
448.647	1	-5
448.988	1	12
449.329	1	4
449.670	1	-8
450.011	1	10
450.352	1	-7
450.693	1	2
451.034	1	-3
451.375	1	8
451.716	1	9
452.057	1	3
452.398	1	5
452.739	1	8
453.080	1	-5
453.421	1	1
453.762	1	-8
454.103	1	-2
454.444	1	-6
454.785	1	8
455.126	1	6
455.467	1	-5
455.808	1	7
456.149	1	3
456.490	1	3
456.831	1	0
457.172	1	0
457.513	1	11
457.854	1	7
458.195	1	7
458.536	1	-3
458.877	1	9
459.218	1	5
459.559	1	10
459.899	1	-1
460.240	1	1
460.581	1	8
460.922	1	0
461.263	1	-4
461.604	1	7
461.945	1	-4
462.286	1	4
462.627	1	4
462.968	1	13
463.309	1	3
463.649	1	11
463.990	1	-2
464.331	1	9
464.672	1	-1
465.013	1	14
465.354	1	5
465.695	1	-1
466.036	1	-3
466.376	1	6
466.717	1	-8
467.058	1	11
467.399	1	7
467.740	1	2
468.081	1	-4
468.422	1	6
468.762	1	9
469.103	1	9
469.444	1	0
469.785	1	-5
470.126	1	9
470.467	1	8
470.807	1	5
471.148	1	-5
471.489	1	8
471.830	1	-2
472.171	1	13
472.511	1	7
472.852	1	9
473.193	1	10
473.534	1	6
473.875	1	9
474.215	1	1
474.556	1	16
474.897	1	9
475.238	1	-2
475.578	1	3
475.919	1	10
476.260	1	16
476.601	1	6
476.942	1	-2
477.282	1	21
477.623	1	15
477.964	1	5
478.305	1	2
478.645	1	9
478.986	1	7
479.327	1	-5
479.667	1	0
480.008	1	11
480.349	1	8
480.690	1	13
481.030	1	18
481.371	1	8
481.712	1	6
482.053	1	-4
482.393	1	-1
482.734	1	10
483.075	1	11
483.415	1	11
483.756	1	-1
484.097	1	2
484.437	1	8
484.778	1	-4
485.119	1	18
485.459	1	8
485.800	1	2
486.141	1	14
486.481	1	13
486.822	1	12
487.163	1	6
487.503	1	2
487.844	1	16
488.185	1	15
488.525	1	21
488.866	1	21
489.207	1	20
489.547	1	17
489.888	1	16
490.228	1	-6
490.569	1	9
490.910	1	7
491.250	1	12
491.591	1	9
491.932	1	15
492.272	1	20
492.613	1	12
492.953	1	13
493.294	1	7
493.635	1	0
493.975	1	15
494.316	1	10
494.656	1	10
494.997	1	5
495.337	1	24
495.678	1	16
496.019	1	5
496.359	1	17
496.700	1	15
497.040	1	14
497.381	1	11
497.721	1	5
498.062	1	6
498.403	1	6
498.743	1	13
499.084	1	18
499.424	1	18
499.765	1	7
500.105	1	9
500.446	1	9
500.786	1	16
501.127	1	21
501.467	1	11
501.808	1	9
502.148	1	16
502.489	1	14
502.829	1	22
503.170	1	20
503.510	1	18
503.851	1	11
504.191	1	9
504.532	1	12
504.872	1	7
505.213	1	13
505.553	1	13
505.894	1	29
506.234	1	11
506.575	1	18
506.915	1	2
507.256	1	4
507.596	1	17
507.936	1	22
508.277	1	17
508.617	1	27
508.958	1	15
509.298	1	19
509.639	1	18
509.979	1	24
510.319	1	13
510.660	1	11
511.000	1	28
511.341	1	26
511.681	1	17
512.022	1	25
512.362	1	14
512.702	1	14
513.043	1	18
513.383	1	25
513.724	1	13
514.064	1	30
514.404	1	10
514.745	1	9
515.085	1	29
515.425	1	24
515.766	1	23
516.106	1	15
516.447	1	21
516.787	1	20
517.127	1	35
517.468	1	19
517.808	1	26
518.148	1	30
518.489	1	40
518.829	1	25
519.169	1	26
519.510	1	22
519.850	1	28
520.190	1	19
520.531	1	42
520.871	1	27
521.211	1	23
521.552	1	27
521.892	1	37
522.232	1	22
522.573	1	19
522.913	1	30
523.253	1	35
523.593	1	26
523.934	1	28
524.274	1	33
524.614	1	18
524.955	1	9
525.295	1	24
525.635	1	25
525.975	1	27
526.316	1	38
526.656	1	30
526.996	1	25
527.337	1	30
527.677	1	34
528.017	1	28
528.357	1	30
528.698	1	14
529.038	1	13
529.378	1	30
529.718	1	29
530.058	1	32
530.399	1	33
530.739	1	26
531.079	1	27
531.419	1	36
531.760	1	39
532.100	1	41
532.440	1	24
532.780	1	23
533.120	1	37
533.461	1	30
533.801	1	38
534.141	1	16
534.481	1	37
534.821	1	39
535.162	1	22
535.502	1	26
535.842	1	21
536.182	1	16
536.522	1	31
536.862	1	28
537.203	1	26
537.543	1	20
537.883	1	31
538.223	1	30
538.563	1	19
538.903	1	21
539.243	1	13
539.584	1	18
539.924	1	13
540.264	1	27
540.604	1	21
540.944	1	27
541.284	1	25
541.624	1	15
541.964	1	25
542.305	1	12
542.645	1	18
542.985	1	19
543.325	1	15
543.665	1	24
544.005	1	28
544.345	1	14
544.685	1	22
545.025	1	17
545.365	1	30
545.705	1	25
546.045	1	17
546.386	1	25
546.726	1	21
547.066	1	23
547.406	1	30
547.746	1	15
548.086	1	23
548.426	1	32
548.766	1	19
549.106	1	20
549.446	1	26
549.786	1	19
550.126	1	18
550.466	1	16
550.806	1	17
551.146	1	17
551.486	1	27
551.826	1	24
552.166	1	23
552.506	1	32
552.846	1	7
553.186	1	23
553.526	1	18
553.866	1	12
554.206	1	19
554.546	1	2
554.886	1	17
555.226	1	8
555.566	1	26
555.906	1	20
556.246	1	21
556.586	1	18
556.926	1	24
557.266	1	22
557.606	1	26
557.946	1	29
558.286	1	23
558.626	1	23
558.966	1	16
559.306	1	28
559.646	1	18
559.986	1	16
560.325	1	18
560.665	1	23
561.005	1	11
561.345	1	7
561.685	1	15
562.025	1	11
562.365	1	13
562.705	1	21
563.045	1	16
563.385	1	26
563.725	1	8
564.064	1	25
564.404	1	6
564.744	1	13
565.084	1	19
565.424	1	19
565.764	1	18
566.104	1	2
566.444	1	14
566.783	1	17
567.123	1	24
567.463	1	6
567.803	1	11
568.143	1	19
568.483	1	29
568.823	1	13
569.162	1	15
569.502	1	15
569.842	1	12
570.182	1	3
570.522	1	20
570.862	1	0
571.201	1	18
571.541	1	4
571.881	1	4
572.221	1	12
572.561	1	25
572.900	1	1
573.240	1	21
573.580	1	6
573.920	1	22
574.260	1	16
574.599	1	16
574.939	1	4
575.279	1	11
575.619	1	15
575.959	1	5
576.298	1	8
576.638	1	17
576.978	1	6
577.318	1	17
577.657	1	19
577.997	1	9
578.337	1	15
578.677	1	19
579.016	1	2
579.356	1	13
579.696	1	5
580.036	1	15
580.375	1	9
580.715	1	17
581.055	1	8
581.394	1	18
581.734	1	14
582.074	1	12
582.414	1	5
582.753	1	15
583.093	1	17
583.433	1	18
583.772	1	10
584.112	1	17
584.452	1	11
584.791	1	16
585.131	1	17
585.471	1	19
585.811	1	5
586.150	1	6
586.490	1	6
586.830	1	4
587.169	1	12
587.509	1	12
587.849	1	2
588.188	1	-2
588.528	1	7
588.867	1	4
589.207	1	6
589.547	1	15
589.886	1	0
590.226	1	2
590.566	1	7
590.905	1	12
591.245	1	4
591.585	1	7
591.924	1	1
592.264	1	-2
592.603	1	3
592.943	1	0
593.283	1	14
593.622	1	0
593.962	1	9
594.301	1	-1
594.641	1	20
594.981	1	8
595.320	1	2
595.660	1	10
595.999	1	15
596.339	1	13
596.678	1	10
597.018	1	3
597.358	1	-7
597.697	1	8
598.037	1	10
598.376	1	11
598.716	1	1
599.055	1	0
599.395	1	11
599.734	1	17
600.074	1	4
600.413	1	-2
600.753	1	7
601.092	1	4
601.432	1	2
601.771	1	12
602.111	1	4
602.451	1	12
602.790	1	16
603.130	1	9
603.469	1	13
603.809	1	10
604.148	1	7
604.487	1	8
604.827	1	-1
605.166	1	7
605.506	1	10
605.845	1	-1
606.185	1	11
606.524	1	3
606.864	1	10
607.203	1	5
607.543	1	12
607.882	1	2
608.222	1	0
608.561	1	17
608.901	1	4
609.240	1	2
609.579	1	4
609.919	1	4
610.258	1	9
610.598	1	5
610.937	1	4
611.277	1	1
611.616	1	12
611.955	1	10
612.295	1	1
612.634	1	5
612.974	1	4
613.313	1	-3
613.652	1	20
613.992	1	2
614.331	1	9
614.671	1	18
615.010	1	3
615.349	1	12
615.689	1	11
616.028	1	0
616.368	1	-9
616.707	1	12
617.046	1	6
617.386	1	-1
617.725	1	11
618.064	1	2
618.404	1	8
618.743	1	21
619.082	1	6
619.422	1	-8
619.761	1	0
620.100	1	10
620.440	1	10
620.779	1	10
621.118	1	7
621.458	1	1
621.797	1	-5
622.136	1	6
622.476	1	7
622.815	1	4
623.154	1	17
623.494	1	-1
623.833	1	15
624.172	1	6
624.511	1	12
624.851	1	8
625.190	1	9
625.529	1	18
625.869	1	9
626.208	1	7
626.547	1	4
626.886	1	-4
627.226	1	8
627.565	1	-4
627.904	1	2
628.243	1	6
628.583	1	7
628.922	1	6
629.261	1	10
629.600	1	0
629.940	1	9
630.279	1	-4
630.618	1	-4
630.957	1	10
631.297	1	-4
631.636	1	8
631.975	1	0
632.314	1	11
632.653	1	18
632.993	1	3
633.332	1	9
633.671	1	11
634.010	1	9
634.349	1	-7
634.689	1	13
635.028	1	4
635.367	1	-1
635.706	1	-3
636.045	1	9
636.384	1	-8
636.724	1	12
637.063	1	5
637.402	1	23
637.741	1	3
638.080	1	11
638.419	1	-1
638.759	1	5
639.098	1	4
639.437	1	-6
639.776	1	7
640.115	1	6
640.454	1	0
640.793	1	-7
641.132	1	5
641.472	1	3
641.811	1	12
642.150	1	-1
642.489	1	3
642.828	1	8
643.167	1	2
643.506	1	10
643.845	1	6
644.184	1	10
644.524	1	4
644.863	1	-3
645.202	1	9
645.541	1	5
645.880	1	9
646.219	1	5
646.558	1	11
646.897	1	18
647.236	1	7
647.575	1	-2
647.914	1	18
648.253	1	11
648.592	1	1
648.931	1	15
649.270	1	-2
649.610	1	7
649.949	1	13
650.288	1	4
650.627	1	1
650.966	1	-1
651.305	1	-1
651.644	1	17
651.983	1	1
652.322	1	4
652.661	1	-4
653.000	1	-4
653.339	1	-8
653.678	1	10
654.017	1	3
654.356	1	2
654.695	1	5
655.034	1	3
655.373	1	13
655.712	1	-1
656.051	1	10
656.390	1	-1
656.729	1	8
657.068	1	13
657.406	1	4
657.745	1	17
658.084	1	0
658.423	1	7
658.762	1	-4
659.101	1	10
659.440	1	2
659.779	1	10
660.118	1	3
660.457	1	6
660.796	1	-4
661.135	1	-2
661.474	1	12
661.813	1	12
662.152	1	2
662.491	1	-6
662.829	1	-2
663.168	1	4
663.507	1	10
663.846	1	-3
664.185	1	5
664.524	1	12
664.863	1	2
665.202	1	14
665.541	1	11
665.879	1	8
666.218	1	20
666.557	1	2
666.896	1	1
667.235	1	2
667.574	1	-3
667.913	1	-4
668.251	1	11
668.590	1	5
668.929	1	7
669.268	1	6
669.607	1	13
669.946	1	7
670.285	1	14
670.623	1	2
670.962	1	0
671.301	1	7
671.640	1	12
671.979	1	11
672.317	1	-2
672.656	1	2
672.995	1	-6
673.334	1	13
673.673	1	5
674.011	1	8
674.350	1	4
674.689	1	11
675.028	1	3
675.367	1	11
675.705	1	15
676.044	1	20
676.383	1	11
676.722	1	16
677.060	1	3
677.399	1	8
677.738	1	8
678.077	1	14
678.416	1	2
678.754	1	6
679.093	1	9
679.432	1	8
679.771	1	1
680.109	1	6
680.448	1	7
680.787	1	0
681.125	1	10
681.464	1	12
681.803	1	11
682.142	1	0
682.480	1	2
682.819	1	14
683.158	1	4
683.496	1	7
683.835	1	6
684.174	1	-1
684.512	1	7
684.851	1	3
685.190	1	7
685.529	1	16
685.867	1	11
686.206	1	17
686.545	1	8
686.883	1	13
687.222	1	6
687.561	1	0
687.899	1	-1
688.238	1	-2
688.577	1	21
688.746	1	-3