File: Data/GaN_170K_550ms/GaN_sample D_spot 18_UVVIS_170 K_200um_550 ms 2x2mm1_244.txt
340.368	1	5
340.710	1	-5
341.052	1	4
341.394	1	0
341.737	1	-2
342.079	1	4
342.421	1	9
342.763	1	7
343.105	1	5
343.447	1	-9
343.789	1	2
344.131	1	-10
344.473	1	0
344.815	1	5
345.157	1	-1
345.499	1	-5
345.841	1	9
346.183	1	-3
346.526	1	12
346.868	1	9
347.210	1	-4
347.552	1	9
347.894	1	3
348.236	1	-9
348.578	1	-1
348.920	1	-3
349.262	1	7
349.604	1	12
349.946	1	5
350.288	1	2
350.630	1	8
350.972	1	-13
351.314	1	-4
351.656	1	-3
351.998	1	5
352.340	1	5
352.682	1	3
353.024	1	3
353.366	1	4
353.708	1	10
354.050	1	-4
354.392	1	3
354.734	1	4
355.076	1	4
355.418	1	-2
355.760	1	1
356.102	1	3
356.444	1	-2
356.785	1	1
357.127	1	-4
357.469	1	-1
357.811	1	4
358.153	1	4
358.495	1	6
358.837	1	4
359.179	1	4
359.521	1	-1
359.863	1	1
360.205	1	12
360.547	1	9
360.889	1	7
361.231	1	5
361.572	1	14
361.914	1	2
362.256	1	-1
362.598	1	4
362.940	1	18
363.282	1	9
363.624	1	9
363.966	1	6
364.308	1	2
364.649	1	1
364.991	1	15
365.333	1	4
365.675	1	13
366.017	1	-1
366.359	1	5
366.701	1	15
367.042	1	1
367.384	1	25
367.726	1	17
368.068	1	11
368.410	1	17
368.752	1	12
369.093	1	9
369.435	1	7
369.777	1	10
370.119	1	3
370.461	1	16
370.803	1	12
371.144	1	13
371.486	1	4
371.828	1	8
372.170	1	13
372.512	1	6
372.853	1	13
373.195	1	5
373.537	1	22
373.879	1	2
374.220	1	9
374.562	1	3
374.904	1	14
375.246	1	9
375.588	1	-3
375.929	1	3
376.271	1	9
376.613	1	10
376.955	1	20
377.296	1	9
377.638	1	5
377.980	1	-2
378.321	1	2
378.663	1	3
379.005	1	5
379.347	1	3
379.688	1	0
380.030	1	2
380.372	1	11
380.714	1	17
381.055	1	8
381.397	1	7
381.739	1	2
382.080	1	7
382.422	1	11
382.764	1	5
383.105	1	10
383.447	1	6
383.789	1	23
384.130	1	-5
384.472	1	-9
384.814	1	2
385.156	1	1
385.497	1	12
385.839	1	-5
386.180	1	2
386.522	1	12
386.864	1	4
387.205	1	-4
387.547	1	10
387.889	1	6
388.230	1	0
388.572	1	1
388.914	1	0
389.255	1	7
389.597	1	6
389.939	1	-3
390.280	1	2
390.622	1	0
390.963	1	3
391.305	1	1
391.647	1	-9
391.988	1	3
392.330	1	9
392.671	1	-8
393.013	1	-5
393.355	1	1
393.696	1	-4
394.038	1	-8
394.379	1	-4
394.721	1	-3
395.062	1	-5
395.404	1	7
395.746	1	12
396.087	1	-1
396.429	1	-2
396.770	1	13
397.112	1	-3
397.453	1	10
397.795	1	1
398.136	1	4
398.478	1	-9
398.819	1	2
399.161	1	-10
399.503	1	0
399.844	1	-9
400.186	1	-4
400.527	1	15
400.869	1	0
401.210	1	9
401.552	1	5
401.893	1	10
402.235	1	9
402.576	1	-3
402.918	1	1
403.259	1	-2
403.601	1	11
403.942	1	4
404.284	1	-9
404.625	1	-1
404.967	1	6
405.308	1	8
405.649	1	0
405.991	1	5
406.332	1	-10
406.674	1	6
407.015	1	7
407.357	1	2
407.698	1	-4
408.040	1	-2
408.381	1	2
408.722	1	-2
409.064	1	-2
409.405	1	4
409.747	1	4
410.088	1	12
410.430	1	-5
410.771	1	0
411.112	1	-6
411.454	1	1
411.795	1	13
412.137	1	-12
412.478	1	-9
412.819	1	-7
413.161	1	7
413.502	1	-3
413.844	1	8
414.185	1	0
414.526	1	2
414.868	1	-2
415.209	1	-8
415.550	1	8
415.892	1	8
416.233	1	7
416.575	1	4
416.916	1	-13
417.257	1	0
417.599	1	2
417.940	1	2
418.281	1	-5
418.623	1	3
418.964	1	-4
419.305	1	7
419.647	1	5
419.988	1	9
420.329	1	4
420.671	1	-5
421.012	1	1
421.353	1	9
421.695	1	-7
422.036	1	-3
422.377	1	2
422.718	1	7
423.060	1	0
423.401	1	3
423.742	1	2
424.084	1	8
424.425	1	-8
424.766	1	-1
425.107	1	1
425.449	1	2
425.790	1	2
426.131	1	2
426.472	1	-2
426.814	1	-13
427.155	1	10
427.496	1	-6
427.837	1	7
428.179	1	10
428.520	1	-5
428.861	1	-4
429.202	1	-7
429.544	1	5
429.885	1	5
430.226	1	5
430.567	1	4
430.909	1	0
431.250	1	9
431.591	1	4
431.932	1	-12
432.273	1	-2
432.615	1	-1
432.956	1	-4
433.297	1	-1
433.638	1	3
433.979	1	-1
434.320	1	6
434.662	1	-10
435.003	1	4
435.344	1	0
435.685	1	2
436.026	1	4
436.368	1	8
436.709	1	-5
437.050	1	-8
437.391	1	-10
437.732	1	-8
438.073	1	-4
438.414	1	-9
438.756	1	-3
439.097	1	-3
439.438	1	3
439.779	1	13
440.120	1	-5
440.461	1	18
440.802	1	5
441.143	1	3
441.485	1	-4
441.826	1	8
442.167	1	7
442.508	1	-2
442.849	1	-3
443.190	1	-6
443.531	1	0
443.872	1	-5
444.213	1	-4
444.554	1	-8
444.895	1	-15
445.237	1	-6
445.578	1	7
445.919	1	-1
446.260	1	-1
446.601	1	-8
446.942	1	-2
447.283	1	8
447.624	1	-1
447.965	1	-1
448.306	1	3
448.647	1	-1
448.988	1	9
449.329	1	8
449.670	1	-9
450.011	1	15
450.352	1	3
450.693	1	-2
451.034	1	-2
451.375	1	9
451.716	1	1
452.057	1	-2
452.398	1	-1
452.739	1	1
453.080	1	5
453.421	1	9
453.762	1	-2
454.103	1	-8
454.444	1	0
454.785	1	-2
455.126	1	10
455.467	1	-11
455.808	1	5
456.149	1	-7
456.490	1	-7
456.831	1	-2
457.172	1	6
457.513	1	12
457.854	1	8
458.195	1	2
458.536	1	3
458.877	1	10
459.218	1	-3
459.559	1	-4
459.899	1	9
460.240	1	-8
460.581	1	8
460.922	1	-6
461.263	1	-5
461.604	1	4
461.945	1	4
462.286	1	-5
462.627	1	13
462.968	1	12
463.309	1	4
463.649	1	6
463.990	1	-1
464.331	1	7
464.672	1	-1
465.013	1	5
465.354	1	-10
465.695	1	5
466.036	1	-2
466.376	1	0
466.717	1	-3
467.058	1	-2
467.399	1	10
467.740	1	-1
468.081	1	6
468.422	1	8
468.762	1	4
469.103	1	3
469.444	1	-5
469.785	1	-4
470.126	1	-1
470.467	1	1
470.807	1	6
471.148	1	-6
471.489	1	4
471.830	1	10
472.171	1	4
472.511	1	3
472.852	1	1
473.193	1	5
473.534	1	9
473.875	1	-1
474.215	1	4
474.556	1	0
474.897	1	4
475.238	1	-5
475.578	1	3
475.919	1	9
476.260	1	9
476.601	1	-1
476.942	1	-6
477.282	1	4
477.623	1	3
477.964	1	-1
478.305	1	-6
478.645	1	-3
478.986	1	5
479.327	1	-12
479.667	1	1
480.008	1	-5
480.349	1	11
480.690	1	3
481.030	1	8
481.371	1	-4
481.712	1	0
482.053	1	-1
482.393	1	1
482.734	1	11
483.075	1	-5
483.415	1	5
483.756	1	3
484.097	1	-14
484.437	1	-4
484.778	1	-14
485.119	1	12
485.459	1	2
485.800	1	-1
486.141	1	14
486.481	1	4
486.822	1	4
487.163	1	-3
487.503	1	-3
487.844	1	3
488.185	1	1
488.525	1	3
488.866	1	10
489.207	1	8
489.547	1	3
489.888	1	-6
490.228	1	1
490.569	1	3
490.910	1	1
491.250	1	5
491.591	1	-1
491.932	1	-2
492.272	1	7
492.613	1	0
492.953	1	5
493.294	1	-2
493.635	1	-8
493.975	1	0
494.316	1	0
494.656	1	-1
494.997	1	8
495.337	1	8
495.678	1	7
496.019	1	-8
496.359	1	5
496.700	1	5
497.040	1	3
497.381	1	7
497.721	1	-12
498.062	1	8
498.403	1	-1
498.743	1	6
499.084	1	5
499.424	1	9
499.765	1	-7
500.105	1	-3
500.446	1	8
500.786	1	3
501.127	1	2
501.467	1	-3
501.808	1	1
502.148	1	10
502.489	1	-5
502.829	1	4
503.170	1	10
503.510	1	4
503.851	1	7
504.191	1	-2
504.532	1	-7
504.872	1	4
505.213	1	4
505.553	1	11
505.894	1	11
506.234	1	-4
506.575	1	5
506.915	1	0
507.256	1	-5
507.596	1	7
507.936	1	10
508.277	1	-6
508.617	1	11
508.958	1	1
509.298	1	-4
509.639	1	16
509.979	1	-1
510.319	1	-8
510.660	1	-4
511.000	1	7
511.341	1	12
511.681	1	-1
512.022	1	3
512.362	1	5
512.702	1	-10
513.043	1	5
513.383	1	6
513.724	1	-5
514.064	1	10
514.404	1	-1
514.745	1	-6
515.085	1	7
515.425	1	12
515.766	1	0
516.106	1	3
516.447	1	-1
516.787	1	-1
517.127	1	2
517.468	1	10
517.808	1	-1
518.148	1	6
518.489	1	4
518.829	1	6
519.169	1	-5
519.510	1	8
519.850	1	6
520.190	1	3
520.531	1	10
520.871	1	5
521.211	1	1
521.552	1	11
521.892	1	5
522.232	1	-5
522.573	1	7
522.913	1	-5
523.253	1	8
523.593	1	2
523.934	1	1
524.274	1	-1
524.614	1	0
524.955	1	0
525.295	1	-4
525.635	1	10
525.975	1	0
526.316	1	8
526.656	1	11
526.996	1	12
527.337	1	2
527.677	1	-2
528.017	1	9
528.357	1	-5
528.698	1	-9
529.038	1	-4
529.378	1	10
529.718	1	9
530.058	1	8
530.399	1	3
530.739	1	4
531.079	1	1
531.419	1	5
531.760	1	9
532.100	1	9
532.440	1	1
532.780	1	1
533.120	1	8
533.461	1	-1
533.801	1	17
534.141	1	2
534.481	1	16
534.821	1	5
535.162	1	7
535.502	1	5
535.842	1	8
536.182	1	0
536.522	1	2
536.862	1	3
537.203	1	1
537.543	1	-1
537.883	1	8
538.223	1	5
538.563	1	5
538.903	1	0
539.243	1	-4
539.584	1	0
539.924	1	-6
540.264	1	8
540.604	1	2
540.944	1	-2
541.284	1	6
541.624	1	0
541.964	1	14
542.305	1	3
542.645	1	-6
542.985	1	8
543.325	1	5
543.665	1	0
544.005	1	15
544.345	1	1
544.685	1	7
545.025	1	-4
545.365	1	7
545.705	1	10
546.045	1	2
546.386	1	7
546.726	1	0
547.066	1	9
547.406	1	1
547.746	1	-4
548.086	1	3
548.426	1	10
548.766	1	4
549.106	1	10
549.446	1	3
549.786	1	-5
550.126	1	2
550.466	1	-5
550.806	1	-3
551.146	1	14
551.486	1	5
551.826	1	5
552.166	1	2
552.506	1	10
552.846	1	-1
553.186	1	0
553.526	1	2
553.866	1	-14
554.206	1	-3
554.546	1	-8
554.886	1	-6
555.226	1	-6
555.566	1	1
555.906	1	-8
556.246	1	0
556.586	1	-5
556.926	1	8
557.266	1	1
557.606	1	6
557.946	1	5
558.286	1	1
558.626	1	11
558.966	1	2
559.306	1	13
559.646	1	-2
559.986	1	0
560.325	1	-3
560.665	1	7
561.005	1	2
561.345	1	-4
561.685	1	2
562.025	1	-7
562.365	1	7
562.705	1	14
563.045	1	-2
563.385	1	8
563.725	1	-10
564.064	1	7
564.404	1	-3
564.744	1	6
565.084	1	8
565.424	1	7
565.764	1	-5
566.104	1	2
566.444	1	8
566.783	1	2
567.123	1	6
567.463	1	6
567.803	1	4
568.143	1	-2
568.483	1	8
568.823	1	5
569.162	1	3
569.502	1	-7
569.842	1	-6
570.182	1	-5
570.522	1	0
570.862	1	-3
571.201	1	3
571.541	1	-7
571.881	1	-7
572.221	1	12
572.561	1	7
572.900	1	1
573.240	1	0
573.580	1	4
573.920	1	11
574.260	1	2
574.599	1	0
574.939	1	0
575.279	1	4
575.619	1	10
575.959	1	-7
576.298	1	6
576.638	1	4
576.978	1	3
577.318	1	-4
577.657	1	7
577.997	1	-4
578.337	1	6
578.677	1	5
579.016	1	-1
579.356	1	-3
579.696	1	-6
580.036	1	2
580.375	1	4
580.715	1	9
581.055	1	6
581.394	1	5
581.734	1	8
582.074	1	-1
582.414	1	-3
582.753	1	-8
583.093	1	4
583.433	1	6
583.772	1	5
584.112	1	7
584.452	1	-6
584.791	1	1
585.131	1	8
585.471	1	1
585.811	1	-16
586.150	1	-4
586.490	1	9
586.830	1	-7
587.169	1	5
587.509	1	3
587.849	1	-6
588.188	1	0
588.528	1	-8
588.867	1	-4
589.207	1	-4
589.547	1	9
589.886	1	-9
590.226	1	-8
590.566	1	9
590.905	1	7
591.245	1	-1
591.585	1	1
591.924	1	2
592.264	1	-4
592.603	1	5
592.943	1	6
593.283	1	18
593.622	1	-9
593.962	1	7
594.301	1	4
594.641	1	12
594.981	1	18
595.320	1	-1
595.660	1	2
595.999	1	0
596.339	1	4
596.678	1	1
597.018	1	-4
597.358	1	-8
597.697	1	-5
598.037	1	6
598.376	1	-6
598.716	1	10
599.055	1	-3
599.395	1	1
599.734	1	10
600.074	1	-1
600.413	1	-10
600.753	1	7
601.092	1	0
601.432	1	-1
601.771	1	13
602.111	1	4
602.451	1	15
602.790	1	9
603.130	1	-9
603.469	1	7
603.809	1	-3
604.148	1	5
604.487	1	3
604.827	1	-5
605.166	1	4
605.506	1	-7
605.845	1	11
606.185	1	-6
606.524	1	-7
606.864	1	-3
607.203	1	1
607.543	1	15
607.882	1	-3
608.222	1	12
608.561	1	0
608.901	1	5
609.240	1	-3
609.579	1	6
609.919	1	3
610.258	1	8
610.598	1	12
610.937	1	0
611.277	1	-1
611.616	1	-8
611.955	1	6
612.295	1	1
612.634	1	-3
612.974	1	11
613.313	1	-1
613.652	1	18
613.992	1	4
614.331	1	0
614.671	1	8
615.010	1	6
615.349	1	2
615.689	1	3
616.028	1	3
616.368	1	-2
616.707	1	10
617.046	1	2
617.386	1	7
617.725	1	10
618.064	1	-5
618.404	1	3
618.743	1	6
619.082	1	3
619.422	1	-4
619.761	1	-8
620.100	1	2
620.440	1	12
620.779	1	0
621.118	1	-3
621.458	1	5
621.797	1	2
622.136	1	13
622.476	1	-9
622.815	1	7
623.154	1	8
623.494	1	3
623.833	1	2
624.172	1	1
624.511	1	8
624.851	1	0
625.190	1	4
625.529	1	14
625.869	1	6
626.208	1	10
626.547	1	-7
626.886	1	0
627.226	1	-6
627.565	1	10
627.904	1	-3
628.243	1	1
628.583	1	-9
628.922	1	-15
629.261	1	-2
629.600	1	4
629.940	1	1
630.279	1	10
630.618	1	-7
630.957	1	10
631.297	1	-1
631.636	1	8
631.975	1	2
632.314	1	3
632.653	1	7
632.993	1	6
633.332	1	6
633.671	1	0
634.010	1	6
634.349	1	-13
634.689	1	3
635.028	1	7
635.367	1	-11
635.706	1	3
636.045	1	7
636.384	1	-8
636.724	1	11
637.063	1	4
637.402	1	5
637.741	1	-3
638.080	1	11
638.419	1	-3
638.759	1	5
639.098	1	-2
639.437	1	-7
639.776	1	-3
640.115	1	6
640.454	1	-2
640.793	1	-4
641.132	1	12
641.472	1	-5
641.811	1	10
642.150	1	3
642.489	1	-4
642.828	1	-2
643.167	1	1
643.506	1	4
643.845	1	15
644.184	1	6
644.524	1	-1
644.863	1	-9
645.202	1	14
645.541	1	7
645.880	1	8
646.219	1	5
646.558	1	7
646.897	1	10
647.236	1	3
647.575	1	3
647.914	1	-2
648.253	1	4
648.592	1	-5
648.931	1	-2
649.270	1	-2
649.610	1	12
649.949	1	-4
650.288	1	-1
650.627	1	-5
650.966	1	0
651.305	1	-3
651.644	1	2
651.983	1	3
652.322	1	5
652.661	1	10
653.000	1	-4
653.339	1	-4
653.678	1	10
654.017	1	6
654.356	1	-8
654.695	1	11
655.034	1	4
655.373	1	4
655.712	1	-9
656.051	1	3
656.390	1	-3
656.729	1	4
657.068	1	7
657.406	1	3
657.745	1	2
658.084	1	-10
658.423	1	1
658.762	1	-11
659.101	1	0
659.440	1	1
659.779	1	-2
660.118	1	-3
660.457	1	12
660.796	1	0
661.135	1	-9
661.474	1	10
661.813	1	-1
662.152	1	5
662.491	1	-9
662.829	1	1
663.168	1	-4
663.507	1	3
663.846	1	-12
664.185	1	10
664.524	1	-6
664.863	1	5
665.202	1	13
665.541	1	0
665.879	1	3
666.218	1	8
666.557	1	-5
666.896	1	-9
667.235	1	0
667.574	1	-11
667.913	1	-7
668.251	1	6
668.590	1	0
668.929	1	9
669.268	1	-6
669.607	1	5
669.946	1	8
670.285	1	6
670.623	1	9
670.962	1	2
671.301	1	-1
671.640	1	7
671.979	1	0
672.317	1	5
672.656	1	2
672.995	1	-1
673.334	1	0
673.673	1	4
674.011	1	2
674.350	1	6
674.689	1	-4
675.028	1	8
675.367	1	-4
675.705	1	4
676.044	1	14
676.383	1	7
676.722	1	12
677.060	1	-7
677.399	1	0
677.738	1	-1
678.077	1	18
678.416	1	0
678.754	1	8
679.093	1	6
679.432	1	3
679.771	1	-1
680.109	1	-4
680.448	1	1
680.787	1	-5
681.125	1	1
681.464	1	9
681.803	1	10
682.142	1	-5
682.480	1	3
682.819	1	10
683.158	1	-9
683.496	1	3
683.835	1	-5
684.174	1	-7
684.512	1	-9
684.851	1	2
685.190	1	1
685.529	1	7
685.867	1	11
686.206	1	10
686.545	1	5
686.883	1	4
687.222	1	3
687.561	1	3
687.899	1	-9
688.238	1	-9
688.577	1	8
688.746	1	-3