File: Data/GaN_170K_550ms/GaN_sample D_spot 18_UVVIS_170 K_200um_550 ms 2x2mm1_217.txt
340.368	1	-5
340.710	1	-11
341.052	1	4
341.394	1	5
341.737	1	0
342.079	1	-5
342.421	1	1
342.763	1	-2
343.105	1	9
343.447	1	-12
343.789	1	8
344.131	1	-3
344.473	1	-6
344.815	1	14
345.157	1	-3
345.499	1	-10
345.841	1	4
346.183	1	11
346.526	1	6
346.868	1	9
347.210	1	-4
347.552	1	13
347.894	1	-2
348.236	1	1
348.578	1	9
348.920	1	-2
349.262	1	11
349.604	1	10
349.946	1	9
350.288	1	0
350.630	1	20
350.972	1	-7
351.314	1	7
351.656	1	-4
351.998	1	6
352.340	1	3
352.682	1	4
353.024	1	2
353.366	1	5
353.708	1	8
354.050	1	-3
354.392	1	6
354.734	1	3
355.076	1	-1
355.418	1	5
355.760	1	0
356.102	1	6
356.444	1	2
356.785	1	10
357.127	1	7
357.469	1	-1
357.811	1	-1
358.153	1	1
358.495	1	2
358.837	1	7
359.179	1	-7
359.521	1	8
359.863	1	9
360.205	1	8
360.547	1	14
360.889	1	12
361.231	1	10
361.572	1	9
361.914	1	6
362.256	1	8
362.598	1	12
362.940	1	13
363.282	1	14
363.624	1	8
363.966	1	9
364.308	1	9
364.649	1	2
364.991	1	19
365.333	1	11
365.675	1	16
366.017	1	17
366.359	1	11
366.701	1	9
367.042	1	13
367.384	1	11
367.726	1	28
368.068	1	29
368.410	1	21
368.752	1	18
369.093	1	6
369.435	1	6
369.777	1	20
370.119	1	10
370.461	1	19
370.803	1	12
371.144	1	10
371.486	1	12
371.828	1	14
372.170	1	16
372.512	1	6
372.853	1	3
373.195	1	11
373.537	1	24
373.879	1	18
374.220	1	15
374.562	1	7
374.904	1	19
375.246	1	9
375.588	1	13
375.929	1	9
376.271	1	6
376.613	1	8
376.955	1	10
377.296	1	6
377.638	1	6
377.980	1	5
378.321	1	14
378.663	1	9
379.005	1	1
379.347	1	5
379.688	1	4
380.030	1	2
380.372	1	5
380.714	1	15
381.055	1	3
381.397	1	12
381.739	1	-10
382.080	1	8
382.422	1	10
382.764	1	6
383.105	1	1
383.447	1	15
383.789	1	13
384.130	1	6
384.472	1	-1
384.814	1	10
385.156	1	-4
385.497	1	10
385.839	1	-3
386.180	1	6
386.522	1	7
386.864	1	5
387.205	1	-9
387.547	1	6
387.889	1	6
388.230	1	1
388.572	1	11
388.914	1	1
389.255	1	11
389.597	1	8
389.939	1	2
390.280	1	2
390.622	1	9
390.963	1	0
391.305	1	-4
391.647	1	-7
391.988	1	15
392.330	1	4
392.671	1	2
393.013	1	2
393.355	1	8
393.696	1	1
394.038	1	-2
394.379	1	1
394.721	1	-1
395.062	1	-2
395.404	1	10
395.746	1	9
396.087	1	9
396.429	1	-2
396.770	1	1
397.112	1	-10
397.453	1	7
397.795	1	2
398.136	1	1
398.478	1	2
398.819	1	1
399.161	1	-3
399.503	1	4
399.844	1	-5
400.186	1	-2
400.527	1	19
400.869	1	-1
401.210	1	7
401.552	1	8
401.893	1	11
402.235	1	6
402.576	1	0
402.918	1	-2
403.259	1	12
403.601	1	4
403.942	1	7
404.284	1	-6
404.625	1	3
404.967	1	2
405.308	1	-6
405.649	1	9
405.991	1	3
406.332	1	0
406.674	1	12
407.015	1	1
407.357	1	1
407.698	1	-4
408.040	1	1
408.381	1	5
408.722	1	-5
409.064	1	5
409.405	1	3
409.747	1	-2
410.088	1	6
410.430	1	2
410.771	1	-1
411.112	1	-7
411.454	1	8
411.795	1	5
412.137	1	2
412.478	1	9
412.819	1	-11
413.161	1	5
413.502	1	-1
413.844	1	9
414.185	1	-6
414.526	1	4
414.868	1	-2
415.209	1	-8
415.550	1	0
415.892	1	6
416.233	1	-6
416.575	1	-6
416.916	1	-4
417.257	1	4
417.599	1	2
417.940	1	7
418.281	1	-10
418.623	1	1
418.964	1	-5
419.305	1	2
419.647	1	8
419.988	1	0
420.329	1	3
420.671	1	4
421.012	1	4
421.353	1	7
421.695	1	-3
422.036	1	1
422.377	1	1
422.718	1	6
423.060	1	4
423.401	1	1
423.742	1	-1
424.084	1	11
424.425	1	-11
424.766	1	-10
425.107	1	-2
425.449	1	3
425.790	1	-3
426.131	1	6
426.472	1	1
426.814	1	-7
427.155	1	14
427.496	1	2
427.837	1	12
428.179	1	7
428.520	1	0
428.861	1	0
429.202	1	-2
429.544	1	1
429.885	1	-1
430.226	1	8
430.567	1	1
430.909	1	1
431.250	1	11
431.591	1	1
431.932	1	-9
432.273	1	3
432.615	1	0
432.956	1	8
433.297	1	-6
433.638	1	10
433.979	1	-3
434.320	1	8
434.662	1	-9
435.003	1	4
435.344	1	3
435.685	1	2
436.026	1	0
436.368	1	5
436.709	1	0
437.050	1	-9
437.391	1	-4
437.732	1	5
438.073	1	-2
438.414	1	-5
438.756	1	-4
439.097	1	8
439.438	1	-1
439.779	1	6
440.120	1	5
440.461	1	11
440.802	1	8
441.143	1	-9
441.485	1	-8
441.826	1	6
442.167	1	8
442.508	1	3
442.849	1	1
443.190	1	4
443.531	1	-2
443.872	1	-5
444.213	1	-2
444.554	1	-8
444.895	1	-9
445.237	1	-13
445.578	1	12
445.919	1	2
446.260	1	9
446.601	1	3
446.942	1	6
447.283	1	13
447.624	1	3
447.965	1	-4
448.306	1	0
448.647	1	-2
448.988	1	15
449.329	1	1
449.670	1	-13
450.011	1	1
450.352	1	-11
450.693	1	0
451.034	1	1
451.375	1	3
451.716	1	8
452.057	1	1
452.398	1	3
452.739	1	-1
453.080	1	-7
453.421	1	0
453.762	1	-3
454.103	1	-9
454.444	1	-8
454.785	1	-3
455.126	1	13
455.467	1	0
455.808	1	19
456.149	1	4
456.490	1	0
456.831	1	-10
457.172	1	7
457.513	1	5
457.854	1	4
458.195	1	-6
458.536	1	5
458.877	1	2
459.218	1	-3
459.559	1	5
459.899	1	1
460.240	1	1
460.581	1	-2
460.922	1	0
461.263	1	-11
461.604	1	13
461.945	1	3
462.286	1	-6
462.627	1	11
462.968	1	1
463.309	1	3
463.649	1	-4
463.990	1	-10
464.331	1	6
464.672	1	-10
465.013	1	10
465.354	1	1
465.695	1	7
466.036	1	-9
466.376	1	-1
466.717	1	1
467.058	1	4
467.399	1	7
467.740	1	-6
468.081	1	9
468.422	1	0
468.762	1	13
469.103	1	10
469.444	1	10
469.785	1	-1
470.126	1	0
470.467	1	2
470.807	1	5
471.148	1	-8
471.489	1	4
471.830	1	4
472.171	1	0
472.511	1	1
472.852	1	4
473.193	1	5
473.534	1	6
473.875	1	-4
474.215	1	4
474.556	1	6
474.897	1	-3
475.238	1	0
475.578	1	0
475.919	1	10
476.260	1	17
476.601	1	6
476.942	1	-7
477.282	1	12
477.623	1	9
477.964	1	8
478.305	1	-13
478.645	1	0
478.986	1	1
479.327	1	-9
479.667	1	1
480.008	1	-2
480.349	1	5
480.690	1	3
481.030	1	-1
481.371	1	-1
481.712	1	6
482.053	1	-4
482.393	1	-3
482.734	1	9
483.075	1	1
483.415	1	8
483.756	1	0
484.097	1	-6
484.437	1	4
484.778	1	-4
485.119	1	12
485.459	1	-3
485.800	1	2
486.141	1	10
486.481	1	4
486.822	1	-1
487.163	1	0
487.503	1	-3
487.844	1	-2
488.185	1	6
488.525	1	5
488.866	1	11
489.207	1	0
489.547	1	8
489.888	1	0
490.228	1	-6
490.569	1	4
490.910	1	-4
491.250	1	1
491.591	1	3
491.932	1	-3
492.272	1	3
492.613	1	12
492.953	1	8
493.294	1	2
493.635	1	-10
493.975	1	13
494.316	1	9
494.656	1	5
494.997	1	-1
495.337	1	7
495.678	1	6
496.019	1	0
496.359	1	0
496.700	1	7
497.040	1	0
497.381	1	11
497.721	1	-8
498.062	1	-9
498.403	1	9
498.743	1	7
499.084	1	0
499.424	1	0
499.765	1	-10
500.105	1	-7
500.446	1	-2
500.786	1	5
501.127	1	4
501.467	1	0
501.808	1	-11
502.148	1	3
502.489	1	1
502.829	1	6
503.170	1	7
503.510	1	3
503.851	1	-1
504.191	1	5
504.532	1	-11
504.872	1	-1
505.213	1	-4
505.553	1	-3
505.894	1	10
506.234	1	-3
506.575	1	6
506.915	1	10
507.256	1	5
507.596	1	10
507.936	1	13
508.277	1	-6
508.617	1	11
508.958	1	11
509.298	1	5
509.639	1	5
509.979	1	7
510.319	1	-4
510.660	1	-2
511.000	1	10
511.341	1	5
511.681	1	-1
512.022	1	1
512.362	1	1
512.702	1	2
513.043	1	5
513.383	1	3
513.724	1	9
514.064	1	13
514.404	1	-9
514.745	1	-4
515.085	1	8
515.425	1	8
515.766	1	6
516.106	1	3
516.447	1	3
516.787	1	0
517.127	1	6
517.468	1	12
517.808	1	5
518.148	1	6
518.489	1	5
518.829	1	11
519.169	1	1
519.510	1	9
519.850	1	0
520.190	1	1
520.531	1	4
520.871	1	1
521.211	1	11
521.552	1	5
521.892	1	0
522.232	1	-8
522.573	1	2
522.913	1	6
523.253	1	13
523.593	1	10
523.934	1	-3
524.274	1	0
524.614	1	-1
524.955	1	4
525.295	1	-3
525.635	1	3
525.975	1	8
526.316	1	8
526.656	1	11
526.996	1	12
527.337	1	3
527.677	1	4
528.017	1	14
528.357	1	-2
528.698	1	1
529.038	1	5
529.378	1	6
529.718	1	10
530.058	1	5
530.399	1	2
530.739	1	5
531.079	1	6
531.419	1	12
531.760	1	6
532.100	1	0
532.440	1	2
532.780	1	-7
533.120	1	5
533.461	1	2
533.801	1	6
534.141	1	-4
534.481	1	14
534.821	1	3
535.162	1	3
535.502	1	2
535.842	1	6
536.182	1	0
536.522	1	5
536.862	1	13
537.203	1	0
537.543	1	6
537.883	1	11
538.223	1	6
538.563	1	2
538.903	1	4
539.243	1	0
539.584	1	-7
539.924	1	-6
540.264	1	7
540.604	1	-2
540.944	1	4
541.284	1	3
541.624	1	-3
541.964	1	-2
542.305	1	-5
542.645	1	-3
542.985	1	5
543.325	1	1
543.665	1	3
544.005	1	6
544.345	1	9
544.685	1	7
545.025	1	4
545.365	1	4
545.705	1	11
546.045	1	4
546.386	1	-1
546.726	1	2
547.066	1	4
547.406	1	4
547.746	1	-1
548.086	1	3
548.426	1	6
548.766	1	6
549.106	1	13
549.446	1	-1
549.786	1	-2
550.126	1	-1
550.466	1	-1
550.806	1	-2
551.146	1	9
551.486	1	0
551.826	1	7
552.166	1	-1
552.506	1	3
552.846	1	6
553.186	1	6
553.526	1	-8
553.866	1	-6
554.206	1	2
554.546	1	-10
554.886	1	9
555.226	1	-4
555.566	1	3
555.906	1	-5
556.246	1	4
556.586	1	-7
556.926	1	11
557.266	1	5
557.606	1	10
557.946	1	10
558.286	1	7
558.626	1	10
558.966	1	2
559.306	1	8
559.646	1	2
559.986	1	-1
560.325	1	-4
560.665	1	-2
561.005	1	0
561.345	1	-7
561.685	1	2
562.025	1	-8
562.365	1	4
562.705	1	15
563.045	1	-1
563.385	1	7
563.725	1	-2
564.064	1	1
564.404	1	0
564.744	1	-1
565.084	1	11
565.424	1	5
565.764	1	2
566.104	1	4
566.444	1	9
566.783	1	11
567.123	1	5
567.463	1	1
567.803	1	-13
568.143	1	-4
568.483	1	-2
568.823	1	2
569.162	1	3
569.502	1	1
569.842	1	-8
570.182	1	-4
570.522	1	-2
570.862	1	2
571.201	1	1
571.541	1	-1
571.881	1	-10
572.221	1	3
572.561	1	-6
572.900	1	-5
573.240	1	11
573.580	1	-6
573.920	1	9
574.260	1	7
574.599	1	-5
574.939	1	-12
575.279	1	6
575.619	1	6
575.959	1	-9
576.298	1	5
576.638	1	10
576.978	1	0
577.318	1	1
577.657	1	8
577.997	1	-9
578.337	1	5
578.677	1	-5
579.016	1	5
579.356	1	2
579.696	1	-7
580.036	1	5
580.375	1	3
580.715	1	1
581.055	1	2
581.394	1	6
581.734	1	12
582.074	1	0
582.414	1	-11
582.753	1	7
583.093	1	7
583.433	1	17
583.772	1	-3
584.112	1	6
584.452	1	-10
584.791	1	-1
585.131	1	15
585.471	1	9
585.811	1	-14
586.150	1	-1
586.490	1	-2
586.830	1	-5
587.169	1	15
587.509	1	5
587.849	1	4
588.188	1	6
588.528	1	2
588.867	1	6
589.207	1	-2
589.547	1	8
589.886	1	-8
590.226	1	10
590.566	1	3
590.905	1	9
591.245	1	-5
591.585	1	-4
591.924	1	0
592.264	1	-6
592.603	1	-1
592.943	1	1
593.283	1	2
593.622	1	1
593.962	1	3
594.301	1	8
594.641	1	1
594.981	1	6
595.320	1	-4
595.660	1	5
595.999	1	-2
596.339	1	11
596.678	1	-9
597.018	1	-3
597.358	1	-9
597.697	1	2
598.037	1	-7
598.376	1	-6
598.716	1	-2
599.055	1	-2
599.395	1	-2
599.734	1	13
600.074	1	-3
600.413	1	-10
600.753	1	7
601.092	1	7
601.432	1	-1
601.771	1	6
602.111	1	-6
602.451	1	0
602.790	1	13
603.130	1	-10
603.469	1	3
603.809	1	2
604.148	1	8
604.487	1	4
604.827	1	-9
605.166	1	11
605.506	1	-1
605.845	1	11
606.185	1	4
606.524	1	6
606.864	1	-1
607.203	1	7
607.543	1	7
607.882	1	-11
608.222	1	-9
608.561	1	1
608.901	1	10
609.240	1	1
609.579	1	10
609.919	1	-3
610.258	1	12
610.598	1	11
610.937	1	2
611.277	1	7
611.616	1	-5
611.955	1	5
612.295	1	-5
612.634	1	-1
612.974	1	-4
613.313	1	2
613.652	1	8
613.992	1	4
614.331	1	2
614.671	1	12
615.010	1	9
615.349	1	4
615.689	1	10
616.028	1	-4
616.368	1	5
616.707	1	12
617.046	1	0
617.386	1	-3
617.725	1	4
618.064	1	2
618.404	1	9
618.743	1	8
619.082	1	4
619.422	1	-6
619.761	1	-10
620.100	1	-3
620.440	1	4
620.779	1	-1
621.118	1	-6
621.458	1	2
621.797	1	-1
622.136	1	-2
622.476	1	-11
622.815	1	2
623.154	1	3
623.494	1	-3
623.833	1	10
624.172	1	-1
624.511	1	4
624.851	1	6
625.190	1	0
625.529	1	7
625.869	1	5
626.208	1	0
626.547	1	-4
626.886	1	6
627.226	1	4
627.565	1	3
627.904	1	-1
628.243	1	1
628.583	1	-4
628.922	1	-9
629.261	1	1
629.600	1	-1
629.940	1	3
630.279	1	7
630.618	1	-8
630.957	1	-2
631.297	1	4
631.636	1	13
631.975	1	5
632.314	1	-7
632.653	1	6
632.993	1	-5
633.332	1	0
633.671	1	4
634.010	1	11
634.349	1	-12
634.689	1	14
635.028	1	4
635.367	1	2
635.706	1	-4
636.045	1	1
636.384	1	-2
636.724	1	12
637.063	1	-2
637.402	1	9
637.741	1	-6
638.080	1	7
638.419	1	-3
638.759	1	2
639.098	1	0
639.437	1	-4
639.776	1	2
640.115	1	12
640.454	1	-1
640.793	1	-7
641.132	1	6
641.472	1	-6
641.811	1	9
642.150	1	6
642.489	1	-3
642.828	1	-2
643.167	1	1
643.506	1	4
643.845	1	8
644.184	1	7
644.524	1	2
644.863	1	-7
645.202	1	3
645.541	1	3
645.880	1	6
646.219	1	-4
646.558	1	5
646.897	1	6
647.236	1	2
647.575	1	-4
647.914	1	11
648.253	1	-1
648.592	1	-6
648.931	1	4
649.270	1	-1
649.610	1	5
649.949	1	-12
650.288	1	8
650.627	1	-10
650.966	1	3
651.305	1	-5
651.644	1	4
651.983	1	9
652.322	1	8
652.661	1	-1
653.000	1	3
653.339	1	-2
653.678	1	8
654.017	1	8
654.356	1	4
654.695	1	11
655.034	1	-8
655.373	1	-1
655.712	1	-11
656.051	1	8
656.390	1	-1
656.729	1	3
657.068	1	9
657.406	1	3
657.745	1	8
658.084	1	-8
658.423	1	2
658.762	1	1
659.101	1	3
659.440	1	1
659.779	1	2
660.118	1	6
660.457	1	12
660.796	1	6
661.135	1	-8
661.474	1	11
661.813	1	0
662.152	1	8
662.491	1	-2
662.829	1	6
663.168	1	6
663.507	1	6
663.846	1	-1
664.185	1	15
664.524	1	2
664.863	1	1
665.202	1	21
665.541	1	15
665.879	1	6
666.218	1	12
666.557	1	-5
666.896	1	0
667.235	1	1
667.574	1	-10
667.913	1	3
668.251	1	7
668.590	1	1
668.929	1	5
669.268	1	-4
669.607	1	5
669.946	1	2
670.285	1	20
670.623	1	-6
670.962	1	1
671.301	1	6
671.640	1	7
671.979	1	3
672.317	1	11
672.656	1	6
672.995	1	-8
673.334	1	0
673.673	1	-4
674.011	1	4
674.350	1	3
674.689	1	3
675.028	1	-7
675.367	1	2
675.705	1	9
676.044	1	14
676.383	1	8
676.722	1	15
677.060	1	-7
677.399	1	-2
677.738	1	0
678.077	1	16
678.416	1	-5
678.754	1	0
679.093	1	4
679.432	1	4
679.771	1	7
680.109	1	-2
680.448	1	-2
680.787	1	-9
681.125	1	9
681.464	1	9
681.803	1	5
682.142	1	2
682.480	1	0
682.819	1	7
683.158	1	-2
683.496	1	-3
683.835	1	2
684.174	1	1
684.512	1	-6
684.851	1	0
685.190	1	2
685.529	1	17
685.867	1	6
686.206	1	7
686.545	1	15
686.883	1	-4
687.222	1	0
687.561	1	8
687.899	1	-2
688.238	1	-8
688.577	1	5
688.746	1	-3