File: Data/GaN_170K_550ms/GaN_sample D_spot 18_UVVIS_170 K_200um_550 ms 2x2mm1_36.txt
340.368	1	3
340.710	1	-1
341.052	1	7
341.394	1	-2
341.737	1	-14
342.079	1	2
342.421	1	-3
342.763	1	1
343.105	1	9
343.447	1	-12
343.789	1	3
344.131	1	-1
344.473	1	7
344.815	1	14
345.157	1	-3
345.499	1	-11
345.841	1	14
346.183	1	13
346.526	1	0
346.868	1	3
347.210	1	-3
347.552	1	10
347.894	1	2
348.236	1	1
348.578	1	8
348.920	1	1
349.262	1	7
349.604	1	6
349.946	1	8
350.288	1	-6
350.630	1	9
350.972	1	-7
351.314	1	6
351.656	1	-15
351.998	1	5
352.340	1	5
352.682	1	4
353.024	1	8
353.366	1	4
353.708	1	2
354.050	1	-5
354.392	1	-4
354.734	1	5
355.076	1	-2
355.418	1	-6
355.760	1	0
356.102	1	1
356.444	1	-4
356.785	1	0
357.127	1	2
357.469	1	-6
357.811	1	2
358.153	1	6
358.495	1	-3
358.837	1	6
359.179	1	-7
359.521	1	4
359.863	1	0
360.205	1	13
360.547	1	3
360.889	1	-1
361.231	1	9
361.572	1	3
361.914	1	-3
362.256	1	-5
362.598	1	5
362.940	1	16
363.282	1	4
363.624	1	2
363.966	1	3
364.308	1	5
364.649	1	1
364.991	1	5
365.333	1	-12
365.675	1	4
366.017	1	-2
366.359	1	0
366.701	1	-4
367.042	1	-8
367.384	1	4
367.726	1	2
368.068	1	11
368.410	1	4
368.752	1	2
369.093	1	-10
369.435	1	-2
369.777	1	12
370.119	1	-4
370.461	1	2
370.803	1	0
371.144	1	-5
371.486	1	0
371.828	1	-3
372.170	1	4
372.512	1	-2
372.853	1	8
373.195	1	-11
373.537	1	9
373.879	1	-4
374.220	1	7
374.562	1	-3
374.904	1	0
375.246	1	1
375.588	1	0
375.929	1	2
376.271	1	8
376.613	1	0
376.955	1	1
377.296	1	-5
377.638	1	9
377.980	1	-1
378.321	1	6
378.663	1	0
379.005	1	-1
379.347	1	-8
379.688	1	2
380.030	1	0
380.372	1	11
380.714	1	14
381.055	1	11
381.397	1	3
381.739	1	-1
382.080	1	-1
382.422	1	3
382.764	1	2
383.105	1	8
383.447	1	9
383.789	1	14
384.130	1	-15
384.472	1	-4
384.814	1	6
385.156	1	2
385.497	1	1
385.839	1	-6
386.180	1	9
386.522	1	8
386.864	1	0
387.205	1	-2
387.547	1	9
387.889	1	3
388.230	1	4
388.572	1	0
388.914	1	-5
389.255	1	5
389.597	1	4
389.939	1	-4
390.280	1	0
390.622	1	-4
390.963	1	3
391.305	1	0
391.647	1	-7
391.988	1	6
392.330	1	2
392.671	1	0
393.013	1	-9
393.355	1	8
393.696	1	5
394.038	1	-7
394.379	1	0
394.721	1	-6
395.062	1	0
395.404	1	9
395.746	1	3
396.087	1	7
396.429	1	8
396.770	1	9
397.112	1	3
397.453	1	10
397.795	1	-3
398.136	1	-1
398.478	1	6
398.819	1	7
399.161	1	-12
399.503	1	8
399.844	1	-5
400.186	1	4
400.527	1	2
400.869	1	4
401.210	1	5
401.552	1	4
401.893	1	9
402.235	1	7
402.576	1	-6
402.918	1	-3
403.259	1	4
403.601	1	9
403.942	1	10
404.284	1	-15
404.625	1	5
404.967	1	3
405.308	1	10
405.649	1	9
405.991	1	5
406.332	1	-4
406.674	1	0
407.015	1	1
407.357	1	1
407.698	1	0
408.040	1	2
408.381	1	8
408.722	1	1
409.064	1	-3
409.405	1	4
409.747	1	-2
410.088	1	4
410.430	1	-4
410.771	1	2
411.112	1	3
411.454	1	7
411.795	1	10
412.137	1	-8
412.478	1	-3
412.819	1	-4
413.161	1	11
413.502	1	-1
413.844	1	7
414.185	1	4
414.526	1	0
414.868	1	-4
415.209	1	-9
415.550	1	-1
415.892	1	1
416.233	1	4
416.575	1	0
416.916	1	-2
417.257	1	2
417.599	1	5
417.940	1	-2
418.281	1	0
418.623	1	-7
418.964	1	-4
419.305	1	-3
419.647	1	4
419.988	1	3
420.329	1	8
420.671	1	0
421.012	1	0
421.353	1	8
421.695	1	-11
422.036	1	10
422.377	1	6
422.718	1	9
423.060	1	3
423.401	1	9
423.742	1	-2
424.084	1	15
424.425	1	-10
424.766	1	3
425.107	1	-2
425.449	1	2
425.790	1	4
426.131	1	10
426.472	1	-1
426.814	1	-7
427.155	1	21
427.496	1	5
427.837	1	7
428.179	1	-1
428.520	1	1
428.861	1	4
429.202	1	-5
429.544	1	-2
429.885	1	5
430.226	1	4
430.567	1	6
430.909	1	3
431.250	1	19
431.591	1	0
431.932	1	1
432.273	1	1
432.615	1	-3
432.956	1	6
433.297	1	-4
433.638	1	3
433.979	1	5
434.320	1	4
434.662	1	-13
435.003	1	-2
435.344	1	4
435.685	1	0
436.026	1	1
436.368	1	15
436.709	1	-6
437.050	1	-7
437.391	1	-3
437.732	1	2
438.073	1	-4
438.414	1	-2
438.756	1	-5
439.097	1	1
439.438	1	5
439.779	1	15
440.120	1	-3
440.461	1	6
440.802	1	11
441.143	1	-3
441.485	1	-4
441.826	1	6
442.167	1	-1
442.508	1	-6
442.849	1	3
443.190	1	6
443.531	1	-3
443.872	1	-1
444.213	1	7
444.554	1	-4
444.895	1	-11
445.237	1	4
445.578	1	3
445.919	1	6
446.260	1	11
446.601	1	1
446.942	1	0
447.283	1	5
447.624	1	4
447.965	1	0
448.306	1	6
448.647	1	-5
448.988	1	4
449.329	1	-1
449.670	1	-10
450.011	1	12
450.352	1	-3
450.693	1	-9
451.034	1	3
451.375	1	-4
451.716	1	6
452.057	1	-9
452.398	1	-4
452.739	1	-2
453.080	1	5
453.421	1	5
453.762	1	3
454.103	1	-13
454.444	1	2
454.785	1	-2
455.126	1	11
455.467	1	-9
455.808	1	11
456.149	1	0
456.490	1	2
456.831	1	-1
457.172	1	-7
457.513	1	12
457.854	1	9
458.195	1	1
458.536	1	-9
458.877	1	0
459.218	1	3
459.559	1	-6
459.899	1	3
460.240	1	-7
460.581	1	4
460.922	1	-9
461.263	1	0
461.604	1	6
461.945	1	0
462.286	1	-2
462.627	1	7
462.968	1	9
463.309	1	1
463.649	1	4
463.990	1	-4
464.331	1	3
464.672	1	-1
465.013	1	4
465.354	1	-4
465.695	1	6
466.036	1	-9
466.376	1	6
466.717	1	-6
467.058	1	-3
467.399	1	5
467.740	1	-3
468.081	1	0
468.422	1	4
468.762	1	7
469.103	1	6
469.444	1	-3
469.785	1	-3
470.126	1	0
470.467	1	2
470.807	1	-2
471.148	1	4
471.489	1	0
471.830	1	-2
472.171	1	3
472.511	1	0
472.852	1	6
473.193	1	0
473.534	1	8
473.875	1	-9
474.215	1	5
474.556	1	2
474.897	1	-1
475.238	1	5
475.578	1	3
475.919	1	1
476.260	1	6
476.601	1	4
476.942	1	-7
477.282	1	5
477.623	1	7
477.964	1	4
478.305	1	-13
478.645	1	2
478.986	1	-1
479.327	1	-12
479.667	1	-2
480.008	1	-1
480.349	1	6
480.690	1	-5
481.030	1	5
481.371	1	1
481.712	1	1
482.053	1	-4
482.393	1	5
482.734	1	9
483.075	1	-1
483.415	1	2
483.756	1	-7
484.097	1	-11
484.437	1	1
484.778	1	0
485.119	1	11
485.459	1	-4
485.800	1	-9
486.141	1	6
486.481	1	3
486.822	1	8
487.163	1	-1
487.503	1	-2
487.844	1	4
488.185	1	6
488.525	1	4
488.866	1	3
489.207	1	6
489.547	1	5
489.888	1	4
490.228	1	-4
490.569	1	4
490.910	1	-2
491.250	1	1
491.591	1	-4
491.932	1	5
492.272	1	4
492.613	1	1
492.953	1	-3
493.294	1	-2
493.635	1	-3
493.975	1	3
494.316	1	9
494.656	1	6
494.997	1	5
495.337	1	10
495.678	1	4
496.019	1	-2
496.359	1	0
496.700	1	6
497.040	1	2
497.381	1	6
497.721	1	2
498.062	1	-7
498.403	1	0
498.743	1	-1
499.084	1	1
499.424	1	8
499.765	1	-8
500.105	1	-7
500.446	1	-4
500.786	1	-4
501.127	1	11
501.467	1	-6
501.808	1	-4
502.148	1	7
502.489	1	1
502.829	1	9
503.170	1	4
503.510	1	12
503.851	1	9
504.191	1	-2
504.532	1	-7
504.872	1	9
505.213	1	-6
505.553	1	5
505.894	1	8
506.234	1	-7
506.575	1	9
506.915	1	9
507.256	1	7
507.596	1	2
507.936	1	8
508.277	1	-5
508.617	1	4
508.958	1	-4
509.298	1	2
509.639	1	12
509.979	1	7
510.319	1	-2
510.660	1	-7
511.000	1	0
511.341	1	18
511.681	1	-3
512.022	1	6
512.362	1	-2
512.702	1	-12
513.043	1	-4
513.383	1	2
513.724	1	2
514.064	1	5
514.404	1	0
514.745	1	-1
515.085	1	7
515.425	1	-1
515.766	1	0
516.106	1	7
516.447	1	-7
516.787	1	9
517.127	1	1
517.468	1	2
517.808	1	15
518.148	1	3
518.489	1	2
518.829	1	-3
519.169	1	-4
519.510	1	-3
519.850	1	2
520.190	1	5
520.531	1	10
520.871	1	-2
521.211	1	8
521.552	1	0
521.892	1	4
522.232	1	-12
522.573	1	0
522.913	1	1
523.253	1	0
523.593	1	10
523.934	1	-8
524.274	1	4
524.614	1	-1
524.955	1	-1
525.295	1	3
525.635	1	-2
525.975	1	3
526.316	1	3
526.656	1	10
526.996	1	-3
527.337	1	-4
527.677	1	-3
528.017	1	-2
528.357	1	0
528.698	1	-8
529.038	1	0
529.378	1	2
529.718	1	3
530.058	1	13
530.399	1	3
530.739	1	0
531.079	1	8
531.419	1	9
531.760	1	5
532.100	1	-2
532.440	1	3
532.780	1	-3
533.120	1	8
533.461	1	0
533.801	1	15
534.141	1	-2
534.481	1	6
534.821	1	9
535.162	1	7
535.502	1	2
535.842	1	12
536.182	1	0
536.522	1	6
536.862	1	11
537.203	1	6
537.543	1	-9
537.883	1	8
538.223	1	10
538.563	1	-2
538.903	1	-4
539.243	1	-1
539.584	1	5
539.924	1	-7
540.264	1	10
540.604	1	4
540.944	1	-11
541.284	1	7
541.624	1	-1
541.964	1	3
542.305	1	-4
542.645	1	-4
542.985	1	7
543.325	1	2
543.665	1	-3
544.005	1	11
544.345	1	3
544.685	1	2
545.025	1	-5
545.365	1	-1
545.705	1	7
546.045	1	-3
546.386	1	-3
546.726	1	-7
547.066	1	23
547.406	1	7
547.746	1	-7
548.086	1	2
548.426	1	10
548.766	1	3
549.106	1	3
549.446	1	5
549.786	1	8
550.126	1	4
550.466	1	-6
550.806	1	6
551.146	1	9
551.486	1	4
551.826	1	-1
552.166	1	4
552.506	1	3
552.846	1	7
553.186	1	7
553.526	1	-7
553.866	1	-3
554.206	1	3
554.546	1	-11
554.886	1	3
555.226	1	-13
555.566	1	4
555.906	1	1
556.246	1	1
556.586	1	0
556.926	1	1
557.266	1	14
557.606	1	3
557.946	1	1
558.286	1	-3
558.626	1	2
558.966	1	4
559.306	1	5
559.646	1	-5
559.986	1	8
560.325	1	-3
560.665	1	4
561.005	1	5
561.345	1	-6
561.685	1	3
562.025	1	-9
562.365	1	-3
562.705	1	2
563.045	1	-4
563.385	1	-4
563.725	1	-5
564.064	1	10
564.404	1	-3
564.744	1	5
565.084	1	7
565.424	1	-4
565.764	1	-2
566.104	1	4
566.444	1	0
566.783	1	1
567.123	1	-2
567.463	1	-2
567.803	1	10
568.143	1	4
568.483	1	6
568.823	1	7
569.162	1	1
569.502	1	5
569.842	1	-4
570.182	1	0
570.522	1	0
570.862	1	9
571.201	1	-2
571.541	1	0
571.881	1	-13
572.221	1	5
572.561	1	1
572.900	1	3
573.240	1	4
573.580	1	2
573.920	1	6
574.260	1	7
574.599	1	-6
574.939	1	-3
575.279	1	-5
575.619	1	1
575.959	1	-9
576.298	1	-1
576.638	1	10
576.978	1	1
577.318	1	-3
577.657	1	-2
577.997	1	-6
578.337	1	0
578.677	1	1
579.016	1	-1
579.356	1	-2
579.696	1	-9
580.036	1	4
580.375	1	-4
580.715	1	3
581.055	1	10
581.394	1	3
581.734	1	-1
582.074	1	2
582.414	1	8
582.753	1	1
583.093	1	-4
583.433	1	10
583.772	1	0
584.112	1	8
584.452	1	-3
584.791	1	-2
585.131	1	10
585.471	1	8
585.811	1	0
586.150	1	-8
586.490	1	-1
586.830	1	-4
587.169	1	8
587.509	1	5
587.849	1	1
588.188	1	-1
588.528	1	9
588.867	1	-5
589.207	1	2
589.547	1	4
589.886	1	-12
590.226	1	-5
590.566	1	0
590.905	1	-5
591.245	1	-5
591.585	1	9
591.924	1	2
592.264	1	-4
592.603	1	2
592.943	1	4
593.283	1	6
593.622	1	-10
593.962	1	4
594.301	1	2
594.641	1	3
594.981	1	9
595.320	1	-2
595.660	1	6
595.999	1	5
596.339	1	6
596.678	1	4
597.018	1	-2
597.358	1	-4
597.697	1	-3
598.037	1	-1
598.376	1	-5
598.716	1	5
599.055	1	-1
599.395	1	2
599.734	1	8
600.074	1	1
600.413	1	-8
600.753	1	2
601.092	1	-8
601.432	1	4
601.771	1	12
602.111	1	6
602.451	1	3
602.790	1	8
603.130	1	-2
603.469	1	-1
603.809	1	-1
604.148	1	9
604.487	1	18
604.827	1	-7
605.166	1	18
605.506	1	6
605.845	1	6
606.185	1	10
606.524	1	-5
606.864	1	-1
607.203	1	0
607.543	1	6
607.882	1	0
608.222	1	1
608.561	1	-1
608.901	1	0
609.240	1	1
609.579	1	-4
609.919	1	-7
610.258	1	5
610.598	1	1
610.937	1	7
611.277	1	8
611.616	1	0
611.955	1	4
612.295	1	-4
612.634	1	2
612.974	1	3
613.313	1	2
613.652	1	8
613.992	1	-3
614.331	1	-3
614.671	1	4
615.010	1	4
615.349	1	13
615.689	1	1
616.028	1	-4
616.368	1	-7
616.707	1	8
617.046	1	1
617.386	1	-2
617.725	1	3
618.064	1	-5
618.404	1	-1
618.743	1	10
619.082	1	10
619.422	1	0
619.761	1	-8
620.100	1	-2
620.440	1	8
620.779	1	4
621.118	1	2
621.458	1	-9
621.797	1	-6
622.136	1	2
622.476	1	-4
622.815	1	1
623.154	1	2
623.494	1	5
623.833	1	4
624.172	1	0
624.511	1	9
624.851	1	1
625.190	1	3
625.529	1	13
625.869	1	4
626.208	1	-5
626.547	1	-11
626.886	1	4
627.226	1	6
627.565	1	3
627.904	1	-4
628.243	1	-4
628.583	1	-1
628.922	1	0
629.261	1	8
629.600	1	-6
629.940	1	-1
630.279	1	-2
630.618	1	-10
630.957	1	7
631.297	1	-5
631.636	1	12
631.975	1	-4
632.314	1	7
632.653	1	14
632.993	1	-13
633.332	1	1
633.671	1	4
634.010	1	2
634.349	1	-9
634.689	1	13
635.028	1	2
635.367	1	3
635.706	1	-1
636.045	1	8
636.384	1	-12
636.724	1	8
637.063	1	1
637.402	1	8
637.741	1	-6
638.080	1	11
638.419	1	-9
638.759	1	4
639.098	1	-13
639.437	1	1
639.776	1	1
640.115	1	3
640.454	1	4
640.793	1	1
641.132	1	-2
641.472	1	4
641.811	1	13
642.150	1	1
642.489	1	-8
642.828	1	-8
643.167	1	4
643.506	1	-1
643.845	1	2
644.184	1	12
644.524	1	0
644.863	1	-12
645.202	1	10
645.541	1	5
645.880	1	7
646.219	1	5
646.558	1	10
646.897	1	8
647.236	1	6
647.575	1	3
647.914	1	1
648.253	1	5
648.592	1	9
648.931	1	9
649.270	1	4
649.610	1	7
649.949	1	0
650.288	1	4
650.627	1	-5
650.966	1	8
651.305	1	1
651.644	1	11
651.983	1	-1
652.322	1	4
652.661	1	10
653.000	1	4
653.339	1	1
653.678	1	4
654.017	1	9
654.356	1	1
654.695	1	15
655.034	1	-4
655.373	1	8
655.712	1	0
656.051	1	3
656.390	1	-4
656.729	1	10
657.068	1	11
657.406	1	-5
657.745	1	13
658.084	1	-12
658.423	1	-4
658.762	1	1
659.101	1	1
659.440	1	4
659.779	1	3
660.118	1	11
660.457	1	7
660.796	1	13
661.135	1	-5
661.474	1	11
661.813	1	4
662.152	1	2
662.491	1	-10
662.829	1	-4
663.168	1	7
663.507	1	-1
663.846	1	5
664.185	1	4
664.524	1	2
664.863	1	3
665.202	1	17
665.541	1	0
665.879	1	7
666.218	1	15
666.557	1	-2
666.896	1	2
667.235	1	2
667.574	1	-1
667.913	1	-1
668.251	1	6
668.590	1	-6
668.929	1	11
669.268	1	0
669.607	1	7
669.946	1	7
670.285	1	15
670.623	1	1
670.962	1	-3
671.301	1	-1
671.640	1	5
671.979	1	3
672.317	1	7
672.656	1	1
672.995	1	-3
673.334	1	2
673.673	1	-1
674.011	1	6
674.350	1	3
674.689	1	0
675.028	1	6
675.367	1	-1
675.705	1	-1
676.044	1	15
676.383	1	3
676.722	1	2
677.060	1	-3
677.399	1	-1
677.738	1	3
678.077	1	7
678.416	1	1
678.754	1	9
679.093	1	-3
679.432	1	1
679.771	1	7
680.109	1	0
680.448	1	0
680.787	1	6
681.125	1	14
681.464	1	1
681.803	1	11
682.142	1	-14
682.480	1	2
682.819	1	7
683.158	1	-1
683.496	1	3
683.835	1	-5
684.174	1	-4
684.512	1	-3
684.851	1	-1
685.190	1	6
685.529	1	8
685.867	1	7
686.206	1	2
686.545	1	11
686.883	1	-4
687.222	1	-2
687.561	1	2
687.899	1	-8
688.238	1	-1
688.577	1	12
688.746	1	0