File: Data/GaN_170K_550ms/GaN_sample D_spot 18_UVVIS_170 K_200um_550 ms 2x2mm1_134.txt
340.368	1	-2
340.710	1	-5
341.052	1	3
341.394	1	7
341.737	1	3
342.079	1	0
342.421	1	0
342.763	1	2
343.105	1	11
343.447	1	-8
343.789	1	12
344.131	1	-2
344.473	1	1
344.815	1	2
345.157	1	-7
345.499	1	-7
345.841	1	13
346.183	1	12
346.526	1	3
346.868	1	12
347.210	1	-1
347.552	1	11
347.894	1	1
348.236	1	-2
348.578	1	3
348.920	1	1
349.262	1	6
349.604	1	14
349.946	1	9
350.288	1	2
350.630	1	11
350.972	1	2
351.314	1	-6
351.656	1	3
351.998	1	7
352.340	1	2
352.682	1	8
353.024	1	2
353.366	1	5
353.708	1	10
354.050	1	1
354.392	1	6
354.734	1	10
355.076	1	2
355.418	1	4
355.760	1	-4
356.102	1	15
356.444	1	3
356.785	1	0
357.127	1	2
357.469	1	0
357.811	1	9
358.153	1	7
358.495	1	3
358.837	1	14
359.179	1	-4
359.521	1	12
359.863	1	19
360.205	1	19
360.547	1	11
360.889	1	21
361.231	1	9
361.572	1	19
361.914	1	21
362.256	1	15
362.598	1	21
362.940	1	26
363.282	1	19
363.624	1	20
363.966	1	18
364.308	1	25
364.649	1	30
364.991	1	34
365.333	1	32
365.675	1	40
366.017	1	37
366.359	1	28
366.701	1	49
367.042	1	35
367.384	1	51
367.726	1	49
368.068	1	49
368.410	1	46
368.752	1	58
369.093	1	35
369.435	1	47
369.777	1	46
370.119	1	41
370.461	1	53
370.803	1	38
371.144	1	42
371.486	1	34
371.828	1	38
372.170	1	34
372.512	1	29
372.853	1	38
373.195	1	36
373.537	1	37
373.879	1	41
374.220	1	39
374.562	1	29
374.904	1	27
375.246	1	34
375.588	1	22
375.929	1	27
376.271	1	24
376.613	1	22
376.955	1	26
377.296	1	22
377.638	1	28
377.980	1	3
378.321	1	15
378.663	1	10
379.005	1	10
379.347	1	18
379.688	1	18
380.030	1	16
380.372	1	19
380.714	1	25
381.055	1	9
381.397	1	13
381.739	1	15
382.080	1	16
382.422	1	3
382.764	1	16
383.105	1	16
383.447	1	17
383.789	1	19
384.130	1	2
384.472	1	1
384.814	1	18
385.156	1	8
385.497	1	13
385.839	1	1
386.180	1	16
386.522	1	10
386.864	1	14
387.205	1	1
387.547	1	9
387.889	1	17
388.230	1	1
388.572	1	14
388.914	1	-1
389.255	1	5
389.597	1	3
389.939	1	-1
390.280	1	9
390.622	1	11
390.963	1	13
391.305	1	5
391.647	1	-10
391.988	1	20
392.330	1	10
392.671	1	-4
393.013	1	7
393.355	1	12
393.696	1	7
394.038	1	-2
394.379	1	3
394.721	1	-2
395.062	1	6
395.404	1	12
395.746	1	13
396.087	1	14
396.429	1	-4
396.770	1	6
397.112	1	14
397.453	1	6
397.795	1	-12
398.136	1	13
398.478	1	4
398.819	1	12
399.161	1	-8
399.503	1	9
399.844	1	-3
400.186	1	2
400.527	1	20
400.869	1	11
401.210	1	3
401.552	1	10
401.893	1	7
402.235	1	12
402.576	1	9
402.918	1	4
403.259	1	6
403.601	1	11
403.942	1	7
404.284	1	-9
404.625	1	4
404.967	1	9
405.308	1	10
405.649	1	3
405.991	1	7
406.332	1	-3
406.674	1	8
407.015	1	10
407.357	1	-2
407.698	1	-3
408.040	1	6
408.381	1	2
408.722	1	0
409.064	1	-1
409.405	1	12
409.747	1	-1
410.088	1	15
410.430	1	-5
410.771	1	-2
411.112	1	0
411.454	1	13
411.795	1	13
412.137	1	-4
412.478	1	-3
412.819	1	-10
413.161	1	4
413.502	1	2
413.844	1	8
414.185	1	0
414.526	1	8
414.868	1	-9
415.209	1	-3
415.550	1	0
415.892	1	9
416.233	1	8
416.575	1	7
416.916	1	-7
417.257	1	3
417.599	1	-4
417.940	1	7
418.281	1	-4
418.623	1	0
418.964	1	2
419.305	1	-1
419.647	1	8
419.988	1	-1
420.329	1	6
420.671	1	1
421.012	1	6
421.353	1	3
421.695	1	-5
422.036	1	8
422.377	1	16
422.718	1	8
423.060	1	-9
423.401	1	5
423.742	1	0
424.084	1	15
424.425	1	2
424.766	1	1
425.107	1	6
425.449	1	2
425.790	1	-4
426.131	1	13
426.472	1	-1
426.814	1	-5
427.155	1	9
427.496	1	-6
427.837	1	6
428.179	1	12
428.520	1	3
428.861	1	7
429.202	1	4
429.544	1	2
429.885	1	5
430.226	1	4
430.567	1	9
430.909	1	2
431.250	1	20
431.591	1	5
431.932	1	-3
432.273	1	1
432.615	1	2
432.956	1	0
433.297	1	-3
433.638	1	1
433.979	1	1
434.320	1	6
434.662	1	-8
435.003	1	9
435.344	1	-6
435.685	1	-1
436.026	1	1
436.368	1	8
436.709	1	1
437.050	1	-12
437.391	1	-7
437.732	1	2
438.073	1	1
438.414	1	-2
438.756	1	4
439.097	1	-6
439.438	1	5
439.779	1	16
440.120	1	-5
440.461	1	10
440.802	1	9
441.143	1	-6
441.485	1	-7
441.826	1	9
442.167	1	-1
442.508	1	-4
442.849	1	-2
443.190	1	-2
443.531	1	5
443.872	1	-4
444.213	1	-4
444.554	1	3
444.895	1	-16
445.237	1	-8
445.578	1	9
445.919	1	3
446.260	1	7
446.601	1	-2
446.942	1	0
447.283	1	5
447.624	1	-7
447.965	1	5
448.306	1	0
448.647	1	0
448.988	1	11
449.329	1	-1
449.670	1	-10
450.011	1	13
450.352	1	-9
450.693	1	2
451.034	1	3
451.375	1	10
451.716	1	-2
452.057	1	2
452.398	1	1
452.739	1	5
453.080	1	6
453.421	1	10
453.762	1	1
454.103	1	-2
454.444	1	-2
454.785	1	-2
455.126	1	8
455.467	1	-6
455.808	1	8
456.149	1	-1
456.490	1	-3
456.831	1	-6
457.172	1	2
457.513	1	12
457.854	1	10
458.195	1	-2
458.536	1	-6
458.877	1	4
459.218	1	-4
459.559	1	-3
459.899	1	-2
460.240	1	2
460.581	1	1
460.922	1	-7
461.263	1	-3
461.604	1	1
461.945	1	-4
462.286	1	-4
462.627	1	11
462.968	1	9
463.309	1	1
463.649	1	6
463.990	1	-4
464.331	1	7
464.672	1	-1
465.013	1	16
465.354	1	3
465.695	1	7
466.036	1	-2
466.376	1	1
466.717	1	-1
467.058	1	2
467.399	1	12
467.740	1	0
468.081	1	-7
468.422	1	5
468.762	1	12
469.103	1	0
469.444	1	0
469.785	1	-4
470.126	1	2
470.467	1	6
470.807	1	5
471.148	1	-2
471.489	1	1
471.830	1	2
472.171	1	3
472.511	1	2
472.852	1	11
473.193	1	8
473.534	1	-2
473.875	1	-1
474.215	1	7
474.556	1	10
474.897	1	-1
475.238	1	-4
475.578	1	4
475.919	1	9
476.260	1	11
476.601	1	5
476.942	1	-3
477.282	1	9
477.623	1	7
477.964	1	1
478.305	1	-3
478.645	1	3
478.986	1	3
479.327	1	-9
479.667	1	3
480.008	1	6
480.349	1	7
480.690	1	5
481.030	1	8
481.371	1	-3
481.712	1	-1
482.053	1	3
482.393	1	-7
482.734	1	8
483.075	1	12
483.415	1	5
483.756	1	6
484.097	1	-4
484.437	1	7
484.778	1	-8
485.119	1	5
485.459	1	2
485.800	1	-4
486.141	1	4
486.481	1	2
486.822	1	3
487.163	1	1
487.503	1	5
487.844	1	13
488.185	1	3
488.525	1	14
488.866	1	7
489.207	1	10
489.547	1	-3
489.888	1	9
490.228	1	-9
490.569	1	8
490.910	1	3
491.250	1	4
491.591	1	11
491.932	1	5
492.272	1	10
492.613	1	8
492.953	1	9
493.294	1	-1
493.635	1	3
493.975	1	11
494.316	1	-1
494.656	1	1
494.997	1	5
495.337	1	11
495.678	1	7
496.019	1	-5
496.359	1	4
496.700	1	8
497.040	1	7
497.381	1	11
497.721	1	0
498.062	1	4
498.403	1	12
498.743	1	1
499.084	1	1
499.424	1	13
499.765	1	-3
500.105	1	5
500.446	1	-1
500.786	1	4
501.127	1	14
501.467	1	7
501.808	1	1
502.148	1	17
502.489	1	2
502.829	1	1
503.170	1	16
503.510	1	4
503.851	1	-2
504.191	1	-1
504.532	1	-4
504.872	1	10
505.213	1	-1
505.553	1	6
505.894	1	4
506.234	1	1
506.575	1	11
506.915	1	13
507.256	1	-4
507.596	1	12
507.936	1	6
508.277	1	2
508.617	1	16
508.958	1	5
509.298	1	0
509.639	1	10
509.979	1	13
510.319	1	3
510.660	1	-4
511.000	1	14
511.341	1	14
511.681	1	1
512.022	1	6
512.362	1	2
512.702	1	0
513.043	1	9
513.383	1	13
513.724	1	1
514.064	1	7
514.404	1	-5
514.745	1	6
515.085	1	3
515.425	1	5
515.766	1	5
516.106	1	2
516.447	1	0
516.787	1	8
517.127	1	-3
517.468	1	9
517.808	1	16
518.148	1	5
518.489	1	4
518.829	1	4
519.169	1	6
519.510	1	15
519.850	1	7
520.190	1	11
520.531	1	11
520.871	1	2
521.211	1	12
521.552	1	10
521.892	1	11
522.232	1	0
522.573	1	16
522.913	1	8
523.253	1	12
523.593	1	8
523.934	1	9
524.274	1	8
524.614	1	12
524.955	1	2
525.295	1	9
525.635	1	13
525.975	1	8
526.316	1	13
526.656	1	19
526.996	1	12
527.337	1	6
527.677	1	1
528.017	1	5
528.357	1	7
528.698	1	2
529.038	1	5
529.378	1	3
529.718	1	9
530.058	1	23
530.399	1	9
530.739	1	10
531.079	1	13
531.419	1	16
531.760	1	12
532.100	1	7
532.440	1	7
532.780	1	1
533.120	1	7
533.461	1	2
533.801	1	19
534.141	1	6
534.481	1	15
534.821	1	7
535.162	1	6
535.502	1	4
535.842	1	16
536.182	1	10
536.522	1	8
536.862	1	9
537.203	1	6
537.543	1	9
537.883	1	10
538.223	1	9
538.563	1	2
538.903	1	3
539.243	1	2
539.584	1	1
539.924	1	-2
540.264	1	14
540.604	1	5
540.944	1	8
541.284	1	18
541.624	1	-3
541.964	1	13
542.305	1	5
542.645	1	2
542.985	1	8
543.325	1	15
543.665	1	2
544.005	1	23
544.345	1	10
544.685	1	2
545.025	1	5
545.365	1	4
545.705	1	15
546.045	1	4
546.386	1	0
546.726	1	1
547.066	1	23
547.406	1	13
547.746	1	6
548.086	1	8
548.426	1	14
548.766	1	4
549.106	1	19
549.446	1	11
549.786	1	7
550.126	1	1
550.466	1	13
550.806	1	8
551.146	1	12
551.486	1	8
551.826	1	8
552.166	1	11
552.506	1	10
552.846	1	12
553.186	1	10
553.526	1	1
553.866	1	-5
554.206	1	11
554.546	1	-6
554.886	1	4
555.226	1	-4
555.566	1	3
555.906	1	5
556.246	1	6
556.586	1	3
556.926	1	8
557.266	1	14
557.606	1	7
557.946	1	13
558.286	1	15
558.626	1	10
558.966	1	14
559.306	1	14
559.646	1	8
559.986	1	13
560.325	1	-3
560.665	1	3
561.005	1	3
561.345	1	3
561.685	1	8
562.025	1	-3
562.365	1	2
562.705	1	6
563.045	1	-4
563.385	1	1
563.725	1	-3
564.064	1	6
564.404	1	5
564.744	1	-1
565.084	1	10
565.424	1	7
565.764	1	7
566.104	1	-2
566.444	1	10
566.783	1	-2
567.123	1	5
567.463	1	-3
567.803	1	5
568.143	1	-1
568.483	1	6
568.823	1	7
569.162	1	11
569.502	1	2
569.842	1	0
570.182	1	2
570.522	1	10
570.862	1	10
571.201	1	4
571.541	1	5
571.881	1	9
572.221	1	12
572.561	1	4
572.900	1	-3
573.240	1	8
573.580	1	7
573.920	1	12
574.260	1	5
574.599	1	0
574.939	1	-6
575.279	1	-7
575.619	1	11
575.959	1	-10
576.298	1	3
576.638	1	11
576.978	1	5
577.318	1	-2
577.657	1	10
577.997	1	-4
578.337	1	4
578.677	1	2
579.016	1	11
579.356	1	4
579.696	1	6
580.036	1	3
580.375	1	4
580.715	1	3
581.055	1	9
581.394	1	9
581.734	1	2
582.074	1	9
582.414	1	-8
582.753	1	8
583.093	1	4
583.433	1	7
583.772	1	2
584.112	1	-1
584.452	1	-1
584.791	1	2
585.131	1	0
585.471	1	15
585.811	1	-15
586.150	1	-8
586.490	1	7
586.830	1	-4
587.169	1	10
587.509	1	12
587.849	1	0
588.188	1	2
588.528	1	-1
588.867	1	10
589.207	1	0
589.547	1	15
589.886	1	-2
590.226	1	10
590.566	1	7
590.905	1	8
591.245	1	4
591.585	1	5
591.924	1	7
592.264	1	-6
592.603	1	0
592.943	1	4
593.283	1	8
593.622	1	-4
593.962	1	8
594.301	1	5
594.641	1	11
594.981	1	11
595.320	1	7
595.660	1	5
595.999	1	2
596.339	1	15
596.678	1	-1
597.018	1	-3
597.358	1	-1
597.697	1	-6
598.037	1	3
598.376	1	-3
598.716	1	-3
599.055	1	5
599.395	1	2
599.734	1	3
600.074	1	-4
600.413	1	4
600.753	1	12
601.092	1	0
601.432	1	7
601.771	1	10
602.111	1	1
602.451	1	4
602.790	1	15
603.130	1	0
603.469	1	7
603.809	1	8
604.148	1	5
604.487	1	7
604.827	1	-1
605.166	1	4
605.506	1	-5
605.845	1	2
606.185	1	3
606.524	1	5
606.864	1	-2
607.203	1	-3
607.543	1	14
607.882	1	9
608.222	1	5
608.561	1	5
608.901	1	8
609.240	1	9
609.579	1	6
609.919	1	2
610.258	1	12
610.598	1	12
610.937	1	-3
611.277	1	9
611.616	1	-5
611.955	1	-1
612.295	1	3
612.634	1	4
612.974	1	14
613.313	1	2
613.652	1	12
613.992	1	1
614.331	1	5
614.671	1	10
615.010	1	10
615.349	1	6
615.689	1	8
616.028	1	-2
616.368	1	9
616.707	1	3
617.046	1	6
617.386	1	-4
617.725	1	0
618.064	1	0
618.404	1	4
618.743	1	10
619.082	1	13
619.422	1	-6
619.761	1	-3
620.100	1	-3
620.440	1	3
620.779	1	4
621.118	1	0
621.458	1	-2
621.797	1	5
622.136	1	-1
622.476	1	-5
622.815	1	9
623.154	1	8
623.494	1	-1
623.833	1	15
624.172	1	7
624.511	1	3
624.851	1	1
625.190	1	6
625.529	1	14
625.869	1	6
626.208	1	12
626.547	1	3
626.886	1	8
627.226	1	6
627.565	1	-3
627.904	1	5
628.243	1	-6
628.583	1	7
628.922	1	-5
629.261	1	9
629.600	1	-7
629.940	1	-7
630.279	1	-3
630.618	1	-10
630.957	1	9
631.297	1	3
631.636	1	5
631.975	1	-1
632.314	1	6
632.653	1	7
632.993	1	5
633.332	1	7
633.671	1	6
634.010	1	-3
634.349	1	-15
634.689	1	9
635.028	1	9
635.367	1	-5
635.706	1	-2
636.045	1	8
636.384	1	-3
636.724	1	18
637.063	1	11
637.402	1	9
637.741	1	-5
638.080	1	12
638.419	1	-9
638.759	1	8
639.098	1	-7
639.437	1	-12
639.776	1	0
640.115	1	2
640.454	1	5
640.793	1	0
641.132	1	-3
641.472	1	-2
641.811	1	6
642.150	1	1
642.489	1	-2
642.828	1	3
643.167	1	-6
643.506	1	10
643.845	1	11
644.184	1	14
644.524	1	2
644.863	1	-9
645.202	1	5
645.541	1	-3
645.880	1	14
646.219	1	-7
646.558	1	4
646.897	1	10
647.236	1	2
647.575	1	-6
647.914	1	6
648.253	1	-1
648.592	1	12
648.931	1	3
649.270	1	-9
649.610	1	1
649.949	1	-2
650.288	1	2
650.627	1	3
650.966	1	2
651.305	1	-4
651.644	1	6
651.983	1	12
652.322	1	5
652.661	1	6
653.000	1	-2
653.339	1	-2
653.678	1	10
654.017	1	7
654.356	1	9
654.695	1	9
655.034	1	3
655.373	1	2
655.712	1	-1
656.051	1	1
656.390	1	1
656.729	1	-13
657.068	1	9
657.406	1	0
657.745	1	10
658.084	1	-8
658.423	1	1
658.762	1	1
659.101	1	-2
659.440	1	1
659.779	1	7
660.118	1	5
660.457	1	5
660.796	1	7
661.135	1	-18
661.474	1	13
661.813	1	0
662.152	1	1
662.491	1	1
662.829	1	-4
663.168	1	2
663.507	1	6
663.846	1	0
664.185	1	8
664.524	1	1
664.863	1	3
665.202	1	14
665.541	1	2
665.879	1	12
666.218	1	11
666.557	1	4
666.896	1	5
667.235	1	3
667.574	1	-11
667.913	1	-4
668.251	1	4
668.590	1	-15
668.929	1	10
669.268	1	-8
669.607	1	5
669.946	1	7
670.285	1	14
670.623	1	7
670.962	1	1
671.301	1	-1
671.640	1	6
671.979	1	2
672.317	1	3
672.656	1	8
672.995	1	-4
673.334	1	1
673.673	1	3
674.011	1	5
674.350	1	-3
674.689	1	-2
675.028	1	-3
675.367	1	-5
675.705	1	7
676.044	1	12
676.383	1	-3
676.722	1	9
677.060	1	-13
677.399	1	0
677.738	1	5
678.077	1	13
678.416	1	-2
678.754	1	6
679.093	1	11
679.432	1	11
679.771	1	6
680.109	1	7
680.448	1	-1
680.787	1	1
681.125	1	0
681.464	1	3
681.803	1	4
682.142	1	-3
682.480	1	-1
682.819	1	10
683.158	1	1
683.496	1	1
683.835	1	-10
684.174	1	3
684.512	1	2
684.851	1	-1
685.190	1	-5
685.529	1	8
685.867	1	11
686.206	1	13
686.545	1	7
686.883	1	-1
687.222	1	3
687.561	1	2
687.899	1	-12
688.238	1	-3
688.577	1	14
688.746	1	-1