File: Data/GaN_170K_550ms/GaN_sample D_spot 18_UVVIS_170 K_200um_550 ms 2x2mm1_128.txt
340.368	1	6
340.710	1	-11
341.052	1	8
341.394	1	7
341.737	1	-1
342.079	1	-1
342.421	1	3
342.763	1	5
343.105	1	14
343.447	1	6
343.789	1	2
344.131	1	-3
344.473	1	5
344.815	1	9
345.157	1	4
345.499	1	-3
345.841	1	7
346.183	1	1
346.526	1	6
346.868	1	6
347.210	1	-4
347.552	1	14
347.894	1	10
348.236	1	7
348.578	1	15
348.920	1	0
349.262	1	-4
349.604	1	5
349.946	1	11
350.288	1	-2
350.630	1	2
350.972	1	-3
351.314	1	2
351.656	1	2
351.998	1	6
352.340	1	11
352.682	1	2
353.024	1	2
353.366	1	11
353.708	1	8
354.050	1	6
354.392	1	4
354.734	1	10
355.076	1	4
355.418	1	-4
355.760	1	2
356.102	1	4
356.444	1	14
356.785	1	-2
357.127	1	-6
357.469	1	-5
357.811	1	16
358.153	1	13
358.495	1	6
358.837	1	18
359.179	1	5
359.521	1	18
359.863	1	13
360.205	1	6
360.547	1	15
360.889	1	25
361.231	1	14
361.572	1	23
361.914	1	18
362.256	1	12
362.598	1	19
362.940	1	31
363.282	1	42
363.624	1	30
363.966	1	21
364.308	1	32
364.649	1	31
364.991	1	35
365.333	1	29
365.675	1	40
366.017	1	37
366.359	1	37
366.701	1	44
367.042	1	41
367.384	1	58
367.726	1	56
368.068	1	47
368.410	1	62
368.752	1	54
369.093	1	37
369.435	1	35
369.777	1	54
370.119	1	53
370.461	1	48
370.803	1	35
371.144	1	40
371.486	1	36
371.828	1	40
372.170	1	51
372.512	1	31
372.853	1	47
373.195	1	37
373.537	1	52
373.879	1	40
374.220	1	43
374.562	1	19
374.904	1	32
375.246	1	26
375.588	1	25
375.929	1	25
376.271	1	12
376.613	1	26
376.955	1	23
377.296	1	15
377.638	1	19
377.980	1	13
378.321	1	21
378.663	1	12
379.005	1	13
379.347	1	18
379.688	1	22
380.030	1	18
380.372	1	17
380.714	1	19
381.055	1	11
381.397	1	14
381.739	1	9
382.080	1	-3
382.422	1	3
382.764	1	15
383.105	1	16
383.447	1	17
383.789	1	22
384.130	1	9
384.472	1	7
384.814	1	18
385.156	1	9
385.497	1	10
385.839	1	-1
386.180	1	13
386.522	1	15
386.864	1	14
387.205	1	2
387.547	1	6
387.889	1	14
388.230	1	10
388.572	1	14
388.914	1	4
389.255	1	14
389.597	1	13
389.939	1	6
390.280	1	2
390.622	1	6
390.963	1	7
391.305	1	12
391.647	1	-5
391.988	1	19
392.330	1	6
392.671	1	11
393.013	1	1
393.355	1	9
393.696	1	9
394.038	1	-3
394.379	1	-6
394.721	1	4
395.062	1	4
395.404	1	12
395.746	1	11
396.087	1	17
396.429	1	4
396.770	1	7
397.112	1	8
397.453	1	14
397.795	1	9
398.136	1	3
398.478	1	1
398.819	1	6
399.161	1	-2
399.503	1	8
399.844	1	7
400.186	1	3
400.527	1	7
400.869	1	3
401.210	1	8
401.552	1	7
401.893	1	6
402.235	1	5
402.576	1	8
402.918	1	4
403.259	1	12
403.601	1	12
403.942	1	13
404.284	1	-5
404.625	1	4
404.967	1	5
405.308	1	6
405.649	1	12
405.991	1	2
406.332	1	-5
406.674	1	8
407.015	1	13
407.357	1	3
407.698	1	5
408.040	1	1
408.381	1	4
408.722	1	0
409.064	1	8
409.405	1	-3
409.747	1	0
410.088	1	7
410.430	1	-1
410.771	1	9
411.112	1	10
411.454	1	3
411.795	1	6
412.137	1	-5
412.478	1	7
412.819	1	-6
413.161	1	7
413.502	1	3
413.844	1	4
414.185	1	-4
414.526	1	4
414.868	1	-8
415.209	1	-5
415.550	1	-1
415.892	1	12
416.233	1	4
416.575	1	1
416.916	1	-6
417.257	1	10
417.599	1	10
417.940	1	-2
418.281	1	-10
418.623	1	5
418.964	1	-8
419.305	1	-3
419.647	1	15
419.988	1	6
420.329	1	4
420.671	1	-6
421.012	1	6
421.353	1	2
421.695	1	-3
422.036	1	6
422.377	1	5
422.718	1	4
423.060	1	1
423.401	1	4
423.742	1	4
424.084	1	15
424.425	1	-2
424.766	1	2
425.107	1	-1
425.449	1	12
425.790	1	9
426.131	1	10
426.472	1	5
426.814	1	-5
427.155	1	9
427.496	1	4
427.837	1	9
428.179	1	6
428.520	1	-2
428.861	1	1
429.202	1	-8
429.544	1	-3
429.885	1	5
430.226	1	5
430.567	1	2
430.909	1	3
431.250	1	12
431.591	1	-1
431.932	1	2
432.273	1	-1
432.615	1	1
432.956	1	6
433.297	1	2
433.638	1	3
433.979	1	9
434.320	1	18
434.662	1	-8
435.003	1	9
435.344	1	5
435.685	1	7
436.026	1	-2
436.368	1	6
436.709	1	2
437.050	1	-8
437.391	1	-6
437.732	1	5
438.073	1	-4
438.414	1	-6
438.756	1	0
439.097	1	2
439.438	1	2
439.779	1	-1
440.120	1	-9
440.461	1	15
440.802	1	1
441.143	1	0
441.485	1	-6
441.826	1	2
442.167	1	11
442.508	1	-3
442.849	1	0
443.190	1	0
443.531	1	-3
443.872	1	-4
444.213	1	2
444.554	1	-2
444.895	1	-10
445.237	1	-3
445.578	1	10
445.919	1	-4
446.260	1	12
446.601	1	-11
446.942	1	7
447.283	1	10
447.624	1	1
447.965	1	6
448.306	1	-5
448.647	1	-3
448.988	1	8
449.329	1	7
449.670	1	-7
450.011	1	13
450.352	1	0
450.693	1	6
451.034	1	1
451.375	1	3
451.716	1	4
452.057	1	-2
452.398	1	5
452.739	1	-2
453.080	1	-2
453.421	1	5
453.762	1	4
454.103	1	0
454.444	1	-3
454.785	1	4
455.126	1	9
455.467	1	-3
455.808	1	14
456.149	1	-4
456.490	1	2
456.831	1	7
457.172	1	0
457.513	1	3
457.854	1	6
458.195	1	-8
458.536	1	-4
458.877	1	8
459.218	1	6
459.559	1	-8
459.899	1	2
460.240	1	0
460.581	1	6
460.922	1	0
461.263	1	-1
461.604	1	5
461.945	1	1
462.286	1	1
462.627	1	6
462.968	1	18
463.309	1	13
463.649	1	7
463.990	1	-2
464.331	1	6
464.672	1	1
465.013	1	5
465.354	1	-8
465.695	1	3
466.036	1	-8
466.376	1	5
466.717	1	-5
467.058	1	2
467.399	1	14
467.740	1	5
468.081	1	-2
468.422	1	3
468.762	1	13
469.103	1	12
469.444	1	0
469.785	1	-4
470.126	1	9
470.467	1	3
470.807	1	-1
471.148	1	4
471.489	1	-1
471.830	1	2
472.171	1	11
472.511	1	-1
472.852	1	7
473.193	1	2
473.534	1	8
473.875	1	0
474.215	1	0
474.556	1	6
474.897	1	-2
475.238	1	-1
475.578	1	1
475.919	1	13
476.260	1	11
476.601	1	5
476.942	1	-10
477.282	1	6
477.623	1	9
477.964	1	10
478.305	1	-1
478.645	1	5
478.986	1	3
479.327	1	-10
479.667	1	6
480.008	1	9
480.349	1	6
480.690	1	16
481.030	1	4
481.371	1	-1
481.712	1	5
482.053	1	3
482.393	1	-1
482.734	1	6
483.075	1	5
483.415	1	4
483.756	1	7
484.097	1	6
484.437	1	6
484.778	1	-4
485.119	1	6
485.459	1	-1
485.800	1	-8
486.141	1	4
486.481	1	-6
486.822	1	9
487.163	1	1
487.503	1	12
487.844	1	7
488.185	1	3
488.525	1	16
488.866	1	1
489.207	1	8
489.547	1	9
489.888	1	5
490.228	1	-1
490.569	1	2
490.910	1	-2
491.250	1	-1
491.591	1	10
491.932	1	15
492.272	1	14
492.613	1	3
492.953	1	-2
493.294	1	2
493.635	1	5
493.975	1	-8
494.316	1	3
494.656	1	0
494.997	1	-3
495.337	1	12
495.678	1	8
496.019	1	-2
496.359	1	7
496.700	1	16
497.040	1	3
497.381	1	11
497.721	1	-4
498.062	1	2
498.403	1	4
498.743	1	10
499.084	1	7
499.424	1	10
499.765	1	-5
500.105	1	1
500.446	1	7
500.786	1	7
501.127	1	9
501.467	1	-7
501.808	1	-1
502.148	1	14
502.489	1	2
502.829	1	0
503.170	1	11
503.510	1	12
503.851	1	-4
504.191	1	3
504.532	1	-3
504.872	1	3
505.213	1	3
505.553	1	3
505.894	1	17
506.234	1	3
506.575	1	4
506.915	1	12
507.256	1	4
507.596	1	16
507.936	1	11
508.277	1	-3
508.617	1	12
508.958	1	-3
509.298	1	2
509.639	1	10
509.979	1	17
510.319	1	3
510.660	1	2
511.000	1	13
511.341	1	15
511.681	1	7
512.022	1	7
512.362	1	8
512.702	1	-3
513.043	1	9
513.383	1	8
513.724	1	2
514.064	1	19
514.404	1	2
514.745	1	1
515.085	1	5
515.425	1	6
515.766	1	7
516.106	1	12
516.447	1	1
516.787	1	8
517.127	1	9
517.468	1	4
517.808	1	13
518.148	1	6
518.489	1	18
518.829	1	12
519.169	1	2
519.510	1	12
519.850	1	0
520.190	1	4
520.531	1	17
520.871	1	5
521.211	1	0
521.552	1	8
521.892	1	9
522.232	1	6
522.573	1	9
522.913	1	15
523.253	1	16
523.593	1	0
523.934	1	8
524.274	1	6
524.614	1	9
524.955	1	1
525.295	1	9
525.635	1	20
525.975	1	13
526.316	1	16
526.656	1	17
526.996	1	21
527.337	1	13
527.677	1	9
528.017	1	12
528.357	1	-3
528.698	1	1
529.038	1	-4
529.378	1	9
529.718	1	17
530.058	1	22
530.399	1	13
530.739	1	15
531.079	1	3
531.419	1	12
531.760	1	3
532.100	1	-2
532.440	1	12
532.780	1	2
533.120	1	10
533.461	1	12
533.801	1	13
534.141	1	-5
534.481	1	24
534.821	1	11
535.162	1	7
535.502	1	6
535.842	1	8
536.182	1	10
536.522	1	12
536.862	1	9
537.203	1	10
537.543	1	1
537.883	1	18
538.223	1	17
538.563	1	12
538.903	1	4
539.243	1	3
539.584	1	8
539.924	1	6
540.264	1	18
540.604	1	12
540.944	1	-1
541.284	1	9
541.624	1	4
541.964	1	8
542.305	1	13
542.645	1	0
542.985	1	8
543.325	1	12
543.665	1	8
544.005	1	11
544.345	1	11
544.685	1	12
545.025	1	5
545.365	1	5
545.705	1	8
546.045	1	14
546.386	1	9
546.726	1	11
547.066	1	24
547.406	1	5
547.746	1	-2
548.086	1	8
548.426	1	9
548.766	1	7
549.106	1	14
549.446	1	9
549.786	1	3
550.126	1	8
550.466	1	3
550.806	1	5
551.146	1	6
551.486	1	11
551.826	1	15
552.166	1	6
552.506	1	8
552.846	1	7
553.186	1	9
553.526	1	-1
553.866	1	0
554.206	1	2
554.546	1	-2
554.886	1	13
555.226	1	-2
555.566	1	1
555.906	1	7
556.246	1	3
556.586	1	-3
556.926	1	7
557.266	1	11
557.606	1	15
557.946	1	10
558.286	1	5
558.626	1	21
558.966	1	9
559.306	1	18
559.646	1	8
559.986	1	19
560.325	1	7
560.665	1	6
561.005	1	7
561.345	1	4
561.685	1	7
562.025	1	7
562.365	1	12
562.705	1	10
563.045	1	7
563.385	1	6
563.725	1	-2
564.064	1	6
564.404	1	7
564.744	1	10
565.084	1	-1
565.424	1	12
565.764	1	9
566.104	1	7
566.444	1	7
566.783	1	7
567.123	1	3
567.463	1	-2
567.803	1	3
568.143	1	-2
568.483	1	2
568.823	1	7
569.162	1	6
569.502	1	-3
569.842	1	6
570.182	1	4
570.522	1	-2
570.862	1	3
571.201	1	8
571.541	1	-3
571.881	1	-4
572.221	1	3
572.561	1	6
572.900	1	8
573.240	1	4
573.580	1	-1
573.920	1	12
574.260	1	4
574.599	1	-2
574.939	1	0
575.279	1	7
575.619	1	12
575.959	1	-2
576.298	1	7
576.638	1	15
576.978	1	-3
577.318	1	-3
577.657	1	11
577.997	1	4
578.337	1	7
578.677	1	16
579.016	1	6
579.356	1	1
579.696	1	-2
580.036	1	3
580.375	1	3
580.715	1	5
581.055	1	13
581.394	1	10
581.734	1	5
582.074	1	8
582.414	1	-1
582.753	1	4
583.093	1	13
583.433	1	7
583.772	1	2
584.112	1	0
584.452	1	-6
584.791	1	2
585.131	1	12
585.471	1	12
585.811	1	-10
586.150	1	0
586.490	1	2
586.830	1	-1
587.169	1	15
587.509	1	-1
587.849	1	0
588.188	1	1
588.528	1	5
588.867	1	1
589.207	1	1
589.547	1	13
589.886	1	-1
590.226	1	-7
590.566	1	3
590.905	1	13
591.245	1	-3
591.585	1	6
591.924	1	-2
592.264	1	-13
592.603	1	-1
592.943	1	7
593.283	1	5
593.622	1	-3
593.962	1	5
594.301	1	7
594.641	1	7
594.981	1	19
595.320	1	6
595.660	1	9
595.999	1	11
596.339	1	11
596.678	1	-2
597.018	1	4
597.358	1	2
597.697	1	1
598.037	1	4
598.376	1	-2
598.716	1	5
599.055	1	-6
599.395	1	0
599.734	1	7
600.074	1	10
600.413	1	-5
600.753	1	10
601.092	1	-3
601.432	1	-2
601.771	1	10
602.111	1	2
602.451	1	15
602.790	1	14
603.130	1	-1
603.469	1	5
603.809	1	-6
604.148	1	6
604.487	1	7
604.827	1	-8
605.166	1	10
605.506	1	4
605.845	1	7
606.185	1	11
606.524	1	7
606.864	1	0
607.203	1	3
607.543	1	5
607.882	1	3
608.222	1	-5
608.561	1	13
608.901	1	7
609.240	1	-5
609.579	1	-4
609.919	1	-1
610.258	1	9
610.598	1	3
610.937	1	3
611.277	1	-2
611.616	1	5
611.955	1	-1
612.295	1	1
612.634	1	2
612.974	1	-2
613.313	1	1
613.652	1	14
613.992	1	4
614.331	1	0
614.671	1	13
615.010	1	10
615.349	1	16
615.689	1	19
616.028	1	7
616.368	1	5
616.707	1	9
617.046	1	6
617.386	1	1
617.725	1	6
618.064	1	-6
618.404	1	-1
618.743	1	5
619.082	1	9
619.422	1	-4
619.761	1	3
620.100	1	1
620.440	1	9
620.779	1	6
621.118	1	-6
621.458	1	2
621.797	1	-1
622.136	1	2
622.476	1	-2
622.815	1	3
623.154	1	4
623.494	1	-1
623.833	1	6
624.172	1	8
624.511	1	13
624.851	1	-1
625.190	1	4
625.529	1	12
625.869	1	12
626.208	1	6
626.547	1	2
626.886	1	2
627.226	1	6
627.565	1	3
627.904	1	3
628.243	1	-1
628.583	1	-12
628.922	1	-8
629.261	1	10
629.600	1	-4
629.940	1	9
630.279	1	9
630.618	1	-3
630.957	1	9
631.297	1	-9
631.636	1	6
631.975	1	3
632.314	1	-4
632.653	1	15
632.993	1	2
633.332	1	4
633.671	1	5
634.010	1	5
634.349	1	-11
634.689	1	4
635.028	1	8
635.367	1	-2
635.706	1	-7
636.045	1	3
636.384	1	-8
636.724	1	13
637.063	1	0
637.402	1	13
637.741	1	-2
638.080	1	10
638.419	1	-3
638.759	1	5
639.098	1	-3
639.437	1	-7
639.776	1	1
640.115	1	10
640.454	1	6
640.793	1	-4
641.132	1	0
641.472	1	-1
641.811	1	3
642.150	1	1
642.489	1	-2
642.828	1	5
643.167	1	7
643.506	1	-2
643.845	1	5
644.184	1	7
644.524	1	-4
644.863	1	-6
645.202	1	7
645.541	1	8
645.880	1	8
646.219	1	-2
646.558	1	7
646.897	1	10
647.236	1	3
647.575	1	-8
647.914	1	1
648.253	1	6
648.592	1	8
648.931	1	3
649.270	1	-2
649.610	1	5
649.949	1	2
650.288	1	5
650.627	1	-10
650.966	1	5
651.305	1	-4
651.644	1	5
651.983	1	16
652.322	1	-5
652.661	1	10
653.000	1	0
653.339	1	-3
653.678	1	3
654.017	1	4
654.356	1	-1
654.695	1	13
655.034	1	3
655.373	1	12
655.712	1	5
656.051	1	4
656.390	1	2
656.729	1	9
657.068	1	11
657.406	1	0
657.745	1	4
658.084	1	-6
658.423	1	-3
658.762	1	1
659.101	1	5
659.440	1	2
659.779	1	2
660.118	1	8
660.457	1	10
660.796	1	2
661.135	1	-1
661.474	1	8
661.813	1	3
662.152	1	-1
662.491	1	-11
662.829	1	10
663.168	1	-3
663.507	1	-3
663.846	1	-5
664.185	1	6
664.524	1	7
664.863	1	5
665.202	1	17
665.541	1	11
665.879	1	16
666.218	1	8
666.557	1	1
666.896	1	-4
667.235	1	-4
667.574	1	-6
667.913	1	4
668.251	1	9
668.590	1	-3
668.929	1	9
669.268	1	-5
669.607	1	3
669.946	1	5
670.285	1	14
670.623	1	6
670.962	1	3
671.301	1	9
671.640	1	1
671.979	1	0
672.317	1	7
672.656	1	3
672.995	1	0
673.334	1	-1
673.673	1	2
674.011	1	7
674.350	1	8
674.689	1	6
675.028	1	1
675.367	1	3
675.705	1	8
676.044	1	18
676.383	1	1
676.722	1	9
677.060	1	-5
677.399	1	9
677.738	1	-1
678.077	1	9
678.416	1	-8
678.754	1	-1
679.093	1	2
679.432	1	2
679.771	1	1
680.109	1	6
680.448	1	10
680.787	1	-1
681.125	1	14
681.464	1	9
681.803	1	4
682.142	1	2
682.480	1	7
682.819	1	16
683.158	1	5
683.496	1	11
683.835	1	-1
684.174	1	2
684.512	1	2
684.851	1	4
685.190	1	-3
685.529	1	10
685.867	1	6
686.206	1	2
686.545	1	9
686.883	1	-10
687.222	1	-2
687.561	1	3
687.899	1	-8
688.238	1	-3
688.577	1	17
688.746	1	-3