File: Data/GaN_170K_550ms/GaN_sample D_spot 18_UVVIS_170 K_200um_550 ms 2x2mm1_344.txt
340.368	1	4
340.710	1	-1
341.052	1	0
341.394	1	5
341.737	1	-2
342.079	1	2
342.421	1	5
342.763	1	4
343.105	1	11
343.447	1	1
343.789	1	6
344.131	1	0
344.473	1	1
344.815	1	2
345.157	1	-6
345.499	1	-11
345.841	1	3
346.183	1	7
346.526	1	6
346.868	1	6
347.210	1	-8
347.552	1	16
347.894	1	3
348.236	1	-4
348.578	1	3
348.920	1	3
349.262	1	1
349.604	1	11
349.946	1	8
350.288	1	0
350.630	1	8
350.972	1	-8
351.314	1	4
351.656	1	-8
351.998	1	2
352.340	1	-2
352.682	1	-3
353.024	1	-7
353.366	1	1
353.708	1	9
354.050	1	-2
354.392	1	4
354.734	1	6
355.076	1	5
355.418	1	-6
355.760	1	-10
356.102	1	5
356.444	1	-5
356.785	1	-8
357.127	1	2
357.469	1	-3
357.811	1	10
358.153	1	4
358.495	1	3
358.837	1	6
359.179	1	-5
359.521	1	4
359.863	1	1
360.205	1	4
360.547	1	5
360.889	1	14
361.231	1	4
361.572	1	5
361.914	1	1
362.256	1	-2
362.598	1	1
362.940	1	10
363.282	1	7
363.624	1	8
363.966	1	-1
364.308	1	9
364.649	1	-11
364.991	1	12
365.333	1	6
365.675	1	10
366.017	1	9
366.359	1	-5
366.701	1	5
367.042	1	4
367.384	1	10
367.726	1	13
368.068	1	6
368.410	1	14
368.752	1	9
369.093	1	-10
369.435	1	10
369.777	1	6
370.119	1	1
370.461	1	2
370.803	1	6
371.144	1	-2
371.486	1	0
371.828	1	1
372.170	1	1
372.512	1	-3
372.853	1	4
373.195	1	4
373.537	1	12
373.879	1	-1
374.220	1	4
374.562	1	1
374.904	1	0
375.246	1	-2
375.588	1	1
375.929	1	-4
376.271	1	7
376.613	1	2
376.955	1	1
377.296	1	-3
377.638	1	10
377.980	1	-9
378.321	1	5
378.663	1	-3
379.005	1	-3
379.347	1	-2
379.688	1	-4
380.030	1	-3
380.372	1	5
380.714	1	6
381.055	1	8
381.397	1	5
381.739	1	-4
382.080	1	-8
382.422	1	2
382.764	1	1
383.105	1	6
383.447	1	-1
383.789	1	12
384.130	1	-6
384.472	1	-3
384.814	1	-1
385.156	1	3
385.497	1	6
385.839	1	-12
386.180	1	5
386.522	1	4
386.864	1	3
387.205	1	-9
387.547	1	3
387.889	1	16
388.230	1	10
388.572	1	4
388.914	1	0
389.255	1	7
389.597	1	-2
389.939	1	-7
390.280	1	-8
390.622	1	-3
390.963	1	0
391.305	1	-3
391.647	1	-12
391.988	1	4
392.330	1	8
392.671	1	5
393.013	1	3
393.355	1	7
393.696	1	5
394.038	1	1
394.379	1	-10
394.721	1	-1
395.062	1	-11
395.404	1	11
395.746	1	1
396.087	1	8
396.429	1	3
396.770	1	5
397.112	1	3
397.453	1	11
397.795	1	-1
398.136	1	6
398.478	1	0
398.819	1	3
399.161	1	-6
399.503	1	8
399.844	1	-2
400.186	1	-13
400.527	1	9
400.869	1	-5
401.210	1	2
401.552	1	-3
401.893	1	10
402.235	1	7
402.576	1	-1
402.918	1	-4
403.259	1	0
403.601	1	17
403.942	1	-1
404.284	1	-15
404.625	1	-5
404.967	1	6
405.308	1	6
405.649	1	7
405.991	1	-3
406.332	1	-26
406.674	1	6
407.015	1	-2
407.357	1	1
407.698	1	1
408.040	1	-4
408.381	1	8
408.722	1	0
409.064	1	11
409.405	1	-2
409.747	1	-6
410.088	1	-2
410.430	1	1
410.771	1	0
411.112	1	1
411.454	1	6
411.795	1	8
412.137	1	-9
412.478	1	0
412.819	1	-4
413.161	1	4
413.502	1	-5
413.844	1	2
414.185	1	-2
414.526	1	-6
414.868	1	-5
415.209	1	-14
415.550	1	4
415.892	1	9
416.233	1	1
416.575	1	-1
416.916	1	-8
417.257	1	0
417.599	1	0
417.940	1	2
418.281	1	-10
418.623	1	-4
418.964	1	-10
419.305	1	2
419.647	1	-1
419.988	1	5
420.329	1	4
420.671	1	-2
421.012	1	-2
421.353	1	7
421.695	1	-4
422.036	1	11
422.377	1	3
422.718	1	3
423.060	1	-1
423.401	1	-3
423.742	1	-2
424.084	1	8
424.425	1	2
424.766	1	-3
425.107	1	-4
425.449	1	0
425.790	1	-1
426.131	1	13
426.472	1	4
426.814	1	-8
427.155	1	11
427.496	1	2
427.837	1	4
428.179	1	-1
428.520	1	3
428.861	1	9
429.202	1	-7
429.544	1	-6
429.885	1	-2
430.226	1	9
430.567	1	4
430.909	1	-2
431.250	1	7
431.591	1	-10
431.932	1	-6
432.273	1	-4
432.615	1	-1
432.956	1	-2
433.297	1	1
433.638	1	-3
433.979	1	-4
434.320	1	4
434.662	1	-15
435.003	1	5
435.344	1	2
435.685	1	-2
436.026	1	-7
436.368	1	6
436.709	1	-6
437.050	1	-8
437.391	1	-10
437.732	1	6
438.073	1	4
438.414	1	-9
438.756	1	-4
439.097	1	9
439.438	1	6
439.779	1	9
440.120	1	-5
440.461	1	14
440.802	1	7
441.143	1	-2
441.485	1	-8
441.826	1	0
442.167	1	10
442.508	1	-5
442.849	1	-5
443.190	1	-2
443.531	1	-4
443.872	1	-4
444.213	1	-2
444.554	1	-7
444.895	1	-10
445.237	1	-13
445.578	1	5
445.919	1	6
446.260	1	2
446.601	1	-7
446.942	1	-3
447.283	1	1
447.624	1	-2
447.965	1	-1
448.306	1	-6
448.647	1	2
448.988	1	-3
449.329	1	1
449.670	1	-9
450.011	1	8
450.352	1	-3
450.693	1	-2
451.034	1	-6
451.375	1	12
451.716	1	6
452.057	1	-5
452.398	1	0
452.739	1	-4
453.080	1	3
453.421	1	0
453.762	1	-1
454.103	1	-10
454.444	1	-2
454.785	1	-5
455.126	1	10
455.467	1	-10
455.808	1	8
456.149	1	5
456.490	1	1
456.831	1	-4
457.172	1	-1
457.513	1	7
457.854	1	8
458.195	1	3
458.536	1	-3
458.877	1	5
459.218	1	-10
459.559	1	-1
459.899	1	2
460.240	1	-7
460.581	1	4
460.922	1	-2
461.263	1	-4
461.604	1	12
461.945	1	-2
462.286	1	-10
462.627	1	-7
462.968	1	6
463.309	1	6
463.649	1	13
463.990	1	0
464.331	1	0
464.672	1	-1
465.013	1	8
465.354	1	-9
465.695	1	3
466.036	1	-6
466.376	1	3
466.717	1	-9
467.058	1	2
467.399	1	8
467.740	1	-7
468.081	1	5
468.422	1	-2
468.762	1	9
469.103	1	7
469.444	1	4
469.785	1	-6
470.126	1	2
470.467	1	8
470.807	1	6
471.148	1	5
471.489	1	1
471.830	1	5
472.171	1	0
472.511	1	2
472.852	1	2
473.193	1	13
473.534	1	0
473.875	1	-4
474.215	1	0
474.556	1	7
474.897	1	0
475.238	1	1
475.578	1	0
475.919	1	9
476.260	1	7
476.601	1	-1
476.942	1	-6
477.282	1	6
477.623	1	8
477.964	1	2
478.305	1	-11
478.645	1	3
478.986	1	-3
479.327	1	-14
479.667	1	-10
480.008	1	-4
480.349	1	12
480.690	1	-1
481.030	1	11
481.371	1	-1
481.712	1	0
482.053	1	-6
482.393	1	-3
482.734	1	2
483.075	1	1
483.415	1	-6
483.756	1	5
484.097	1	-11
484.437	1	-1
484.778	1	-5
485.119	1	2
485.459	1	-6
485.800	1	-16
486.141	1	10
486.481	1	2
486.822	1	3
487.163	1	3
487.503	1	-4
487.844	1	7
488.185	1	-3
488.525	1	-3
488.866	1	0
489.207	1	6
489.547	1	15
489.888	1	-5
490.228	1	-11
490.569	1	-8
490.910	1	8
491.250	1	-3
491.591	1	3
491.932	1	3
492.272	1	15
492.613	1	11
492.953	1	3
493.294	1	-5
493.635	1	-7
493.975	1	2
494.316	1	3
494.656	1	1
494.997	1	-2
495.337	1	3
495.678	1	2
496.019	1	-11
496.359	1	6
496.700	1	6
497.040	1	-3
497.381	1	0
497.721	1	-7
498.062	1	2
498.403	1	8
498.743	1	-3
499.084	1	0
499.424	1	8
499.765	1	-14
500.105	1	-1
500.446	1	1
500.786	1	3
501.127	1	3
501.467	1	-4
501.808	1	-6
502.148	1	9
502.489	1	-1
502.829	1	-5
503.170	1	0
503.510	1	-2
503.851	1	-4
504.191	1	-12
504.532	1	-3
504.872	1	5
505.213	1	-2
505.553	1	6
505.894	1	8
506.234	1	-5
506.575	1	2
506.915	1	-1
507.256	1	-8
507.596	1	-7
507.936	1	12
508.277	1	-3
508.617	1	9
508.958	1	-12
509.298	1	7
509.639	1	8
509.979	1	-3
510.319	1	-7
510.660	1	-3
511.000	1	-5
511.341	1	-3
511.681	1	1
512.022	1	8
512.362	1	3
512.702	1	-5
513.043	1	7
513.383	1	10
513.724	1	-11
514.064	1	4
514.404	1	-3
514.745	1	2
515.085	1	2
515.425	1	0
515.766	1	1
516.106	1	4
516.447	1	-1
516.787	1	2
517.127	1	-3
517.468	1	11
517.808	1	7
518.148	1	7
518.489	1	14
518.829	1	-4
519.169	1	5
519.510	1	2
519.850	1	-5
520.190	1	5
520.531	1	4
520.871	1	1
521.211	1	0
521.552	1	6
521.892	1	2
522.232	1	-15
522.573	1	8
522.913	1	2
523.253	1	10
523.593	1	-5
523.934	1	2
524.274	1	-2
524.614	1	4
524.955	1	-3
525.295	1	5
525.635	1	3
525.975	1	-1
526.316	1	15
526.656	1	2
526.996	1	9
527.337	1	1
527.677	1	-6
528.017	1	3
528.357	1	-6
528.698	1	-9
529.038	1	3
529.378	1	-2
529.718	1	8
530.058	1	4
530.399	1	6
530.739	1	4
531.079	1	-1
531.419	1	1
531.760	1	-3
532.100	1	-1
532.440	1	-2
532.780	1	-9
533.120	1	3
533.461	1	1
533.801	1	-1
534.141	1	-6
534.481	1	2
534.821	1	6
535.162	1	4
535.502	1	2
535.842	1	4
536.182	1	1
536.522	1	5
536.862	1	3
537.203	1	-2
537.543	1	-1
537.883	1	6
538.223	1	4
538.563	1	-1
538.903	1	-1
539.243	1	-1
539.584	1	-2
539.924	1	-5
540.264	1	-1
540.604	1	-3
540.944	1	-10
541.284	1	9
541.624	1	-7
541.964	1	4
542.305	1	-5
542.645	1	-5
542.985	1	4
543.325	1	3
543.665	1	-5
544.005	1	12
544.345	1	2
544.685	1	-2
545.025	1	1
545.365	1	-1
545.705	1	2
546.045	1	-8
546.386	1	0
546.726	1	-5
547.066	1	10
547.406	1	-2
547.746	1	-6
548.086	1	0
548.426	1	1
548.766	1	1
549.106	1	5
549.446	1	2
549.786	1	-4
550.126	1	2
550.466	1	1
550.806	1	3
551.146	1	4
551.486	1	-4
551.826	1	1
552.166	1	-1
552.506	1	4
552.846	1	11
553.186	1	-2
553.526	1	-4
553.866	1	-9
554.206	1	5
554.546	1	-7
554.886	1	-3
555.226	1	-8
555.566	1	-3
555.906	1	-5
556.246	1	3
556.586	1	3
556.926	1	1
557.266	1	1
557.606	1	-2
557.946	1	5
558.286	1	2
558.626	1	12
558.966	1	3
559.306	1	10
559.646	1	-1
559.986	1	1
560.325	1	-7
560.665	1	3
561.005	1	5
561.345	1	-5
561.685	1	-3
562.025	1	-7
562.365	1	-4
562.705	1	10
563.045	1	-4
563.385	1	6
563.725	1	-6
564.064	1	4
564.404	1	-7
564.744	1	-4
565.084	1	-7
565.424	1	-2
565.764	1	6
566.104	1	7
566.444	1	3
566.783	1	3
567.123	1	0
567.463	1	-1
567.803	1	6
568.143	1	1
568.483	1	1
568.823	1	5
569.162	1	8
569.502	1	0
569.842	1	-7
570.182	1	-3
570.522	1	2
570.862	1	1
571.201	1	1
571.541	1	-4
571.881	1	-9
572.221	1	-1
572.561	1	10
572.900	1	1
573.240	1	0
573.580	1	0
573.920	1	8
574.260	1	3
574.599	1	-4
574.939	1	-9
575.279	1	-7
575.619	1	6
575.959	1	-11
576.298	1	12
576.638	1	14
576.978	1	-1
577.318	1	2
577.657	1	-1
577.997	1	-7
578.337	1	2
578.677	1	-6
579.016	1	0
579.356	1	-2
579.696	1	3
580.036	1	-4
580.375	1	3
580.715	1	8
581.055	1	7
581.394	1	3
581.734	1	5
582.074	1	3
582.414	1	-1
582.753	1	-6
583.093	1	8
583.433	1	10
583.772	1	5
584.112	1	0
584.452	1	-8
584.791	1	-6
585.131	1	7
585.471	1	9
585.811	1	-5
586.150	1	-8
586.490	1	6
586.830	1	-11
587.169	1	6
587.509	1	-3
587.849	1	8
588.188	1	2
588.528	1	-2
588.867	1	-1
589.207	1	3
589.547	1	-1
589.886	1	-2
590.226	1	-5
590.566	1	6
590.905	1	6
591.245	1	0
591.585	1	0
591.924	1	-1
592.264	1	-2
592.603	1	-4
592.943	1	10
593.283	1	7
593.622	1	-2
593.962	1	4
594.301	1	4
594.641	1	-1
594.981	1	8
595.320	1	3
595.660	1	4
595.999	1	-1
596.339	1	10
596.678	1	-9
597.018	1	5
597.358	1	-6
597.697	1	6
598.037	1	-6
598.376	1	-5
598.716	1	0
599.055	1	-3
599.395	1	-5
599.734	1	8
600.074	1	-7
600.413	1	-11
600.753	1	2
601.092	1	2
601.432	1	3
601.771	1	6
602.111	1	5
602.451	1	5
602.790	1	7
603.130	1	-3
603.469	1	6
603.809	1	11
604.148	1	4
604.487	1	5
604.827	1	-4
605.166	1	-4
605.506	1	-10
605.845	1	6
606.185	1	-3
606.524	1	-10
606.864	1	-11
607.203	1	1
607.543	1	2
607.882	1	-9
608.222	1	-5
608.561	1	2
608.901	1	1
609.240	1	-4
609.579	1	3
609.919	1	-3
610.258	1	7
610.598	1	-2
610.937	1	3
611.277	1	-4
611.616	1	7
611.955	1	-3
612.295	1	6
612.634	1	-7
612.974	1	6
613.313	1	-7
613.652	1	14
613.992	1	-1
614.331	1	1
614.671	1	10
615.010	1	5
615.349	1	11
615.689	1	7
616.028	1	-4
616.368	1	-4
616.707	1	12
617.046	1	-4
617.386	1	-5
617.725	1	1
618.064	1	-9
618.404	1	2
618.743	1	6
619.082	1	2
619.422	1	-10
619.761	1	-9
620.100	1	0
620.440	1	3
620.779	1	5
621.118	1	-5
621.458	1	-6
621.797	1	1
622.136	1	2
622.476	1	0
622.815	1	5
623.154	1	4
623.494	1	-2
623.833	1	1
624.172	1	3
624.511	1	9
624.851	1	-4
625.190	1	7
625.529	1	12
625.869	1	12
626.208	1	-3
626.547	1	-6
626.886	1	-3
627.226	1	3
627.565	1	-1
627.904	1	-12
628.243	1	-2
628.583	1	-5
628.922	1	-11
629.261	1	2
629.600	1	3
629.940	1	-5
630.279	1	4
630.618	1	6
630.957	1	9
631.297	1	-6
631.636	1	5
631.975	1	-3
632.314	1	0
632.653	1	5
632.993	1	-5
633.332	1	-4
633.671	1	3
634.010	1	-2
634.349	1	-5
634.689	1	-3
635.028	1	-2
635.367	1	-9
635.706	1	-5
636.045	1	8
636.384	1	1
636.724	1	-4
637.063	1	11
637.402	1	4
637.741	1	-3
638.080	1	11
638.419	1	-8
638.759	1	-4
639.098	1	-11
639.437	1	-5
639.776	1	-2
640.115	1	6
640.454	1	1
640.793	1	-3
641.132	1	6
641.472	1	0
641.811	1	7
642.150	1	0
642.489	1	-9
642.828	1	-3
643.167	1	-1
643.506	1	2
643.845	1	2
644.184	1	9
644.524	1	7
644.863	1	-12
645.202	1	8
645.541	1	6
645.880	1	2
646.219	1	3
646.558	1	9
646.897	1	7
647.236	1	-2
647.575	1	4
647.914	1	5
648.253	1	4
648.592	1	10
648.931	1	12
649.270	1	-4
649.610	1	-1
649.949	1	-2
650.288	1	-4
650.627	1	1
650.966	1	3
651.305	1	-4
651.644	1	2
651.983	1	0
652.322	1	-4
652.661	1	2
653.000	1	2
653.339	1	-4
653.678	1	-3
654.017	1	0
654.356	1	0
654.695	1	7
655.034	1	3
655.373	1	2
655.712	1	-9
656.051	1	1
656.390	1	-6
656.729	1	1
657.068	1	14
657.406	1	-4
657.745	1	14
658.084	1	-7
658.423	1	-4
658.762	1	-12
659.101	1	1
659.440	1	-4
659.779	1	-2
660.118	1	0
660.457	1	3
660.796	1	7
661.135	1	-11
661.474	1	7
661.813	1	-7
662.152	1	-5
662.491	1	-8
662.829	1	-11
663.168	1	3
663.507	1	-1
663.846	1	-6
664.185	1	-2
664.524	1	10
664.863	1	-12
665.202	1	15
665.541	1	7
665.879	1	3
666.218	1	12
666.557	1	-7
666.896	1	-3
667.235	1	-3
667.574	1	-21
667.913	1	-3
668.251	1	-1
668.590	1	0
668.929	1	5
669.268	1	0
669.607	1	10
669.946	1	2
670.285	1	13
670.623	1	2
670.962	1	-4
671.301	1	-5
671.640	1	3
671.979	1	3
672.317	1	-1
672.656	1	0
672.995	1	-9
673.334	1	0
673.673	1	6
674.011	1	4
674.350	1	5
674.689	1	4
675.028	1	-6
675.367	1	-2
675.705	1	-2
676.044	1	13
676.383	1	5
676.722	1	9
677.060	1	-9
677.399	1	-3
677.738	1	-1
678.077	1	8
678.416	1	-8
678.754	1	1
679.093	1	5
679.432	1	4
679.771	1	-3
680.109	1	0
680.448	1	-2
680.787	1	-10
681.125	1	7
681.464	1	-2
681.803	1	2
682.142	1	-7
682.480	1	5
682.819	1	9
683.158	1	0
683.496	1	2
683.835	1	-9
684.174	1	-4
684.512	1	-4
684.851	1	-5
685.190	1	-1
685.529	1	12
685.867	1	1
686.206	1	12
686.545	1	8
686.883	1	1
687.222	1	-6
687.561	1	4
687.899	1	-2
688.238	1	-8
688.577	1	5
688.746	1	-5