File: Data/GaN_170K_550ms/GaN_sample D_spot 18_UVVIS_170 K_200um_550 ms 2x2mm1_112.txt
340.368	1	2
340.710	1	-12
341.052	1	13
341.394	1	5
341.737	1	6
342.079	1	-2
342.421	1	9
342.763	1	3
343.105	1	15
343.447	1	-6
343.789	1	9
344.131	1	5
344.473	1	8
344.815	1	12
345.157	1	-6
345.499	1	-8
345.841	1	5
346.183	1	-3
346.526	1	11
346.868	1	5
347.210	1	0
347.552	1	10
347.894	1	7
348.236	1	6
348.578	1	4
348.920	1	-3
349.262	1	8
349.604	1	11
349.946	1	9
350.288	1	2
350.630	1	11
350.972	1	-3
351.314	1	1
351.656	1	-2
351.998	1	7
352.340	1	4
352.682	1	6
353.024	1	1
353.366	1	10
353.708	1	12
354.050	1	2
354.392	1	19
354.734	1	5
355.076	1	7
355.418	1	-3
355.760	1	8
356.102	1	12
356.444	1	10
356.785	1	9
357.127	1	4
357.469	1	9
357.811	1	10
358.153	1	17
358.495	1	4
358.837	1	19
359.179	1	6
359.521	1	12
359.863	1	11
360.205	1	21
360.547	1	14
360.889	1	37
361.231	1	20
361.572	1	23
361.914	1	32
362.256	1	24
362.598	1	22
362.940	1	44
363.282	1	50
363.624	1	35
363.966	1	40
364.308	1	41
364.649	1	35
364.991	1	59
365.333	1	44
365.675	1	58
366.017	1	57
366.359	1	48
366.701	1	53
367.042	1	58
367.384	1	69
367.726	1	70
368.068	1	71
368.410	1	64
368.752	1	73
369.093	1	58
369.435	1	66
369.777	1	67
370.119	1	72
370.461	1	69
370.803	1	53
371.144	1	54
371.486	1	46
371.828	1	50
372.170	1	52
372.512	1	48
372.853	1	58
373.195	1	49
373.537	1	58
373.879	1	37
374.220	1	55
374.562	1	40
374.904	1	37
375.246	1	32
375.588	1	34
375.929	1	35
376.271	1	33
376.613	1	37
376.955	1	43
377.296	1	26
377.638	1	27
377.980	1	19
378.321	1	27
378.663	1	25
379.005	1	23
379.347	1	29
379.688	1	23
380.030	1	17
380.372	1	24
380.714	1	31
381.055	1	13
381.397	1	25
381.739	1	13
382.080	1	13
382.422	1	9
382.764	1	13
383.105	1	17
383.447	1	20
383.789	1	23
384.130	1	10
384.472	1	4
384.814	1	15
385.156	1	8
385.497	1	24
385.839	1	4
386.180	1	22
386.522	1	17
386.864	1	16
387.205	1	3
387.547	1	19
387.889	1	28
388.230	1	7
388.572	1	16
388.914	1	10
389.255	1	13
389.597	1	11
389.939	1	2
390.280	1	7
390.622	1	2
390.963	1	8
391.305	1	1
391.647	1	0
391.988	1	18
392.330	1	7
392.671	1	-7
393.013	1	8
393.355	1	9
393.696	1	7
394.038	1	0
394.379	1	-4
394.721	1	1
395.062	1	-1
395.404	1	11
395.746	1	14
396.087	1	5
396.429	1	3
396.770	1	8
397.112	1	-1
397.453	1	15
397.795	1	2
398.136	1	8
398.478	1	2
398.819	1	2
399.161	1	8
399.503	1	7
399.844	1	-4
400.186	1	2
400.527	1	12
400.869	1	2
401.210	1	6
401.552	1	0
401.893	1	10
402.235	1	9
402.576	1	2
402.918	1	2
403.259	1	11
403.601	1	15
403.942	1	7
404.284	1	2
404.625	1	3
404.967	1	1
405.308	1	4
405.649	1	1
405.991	1	12
406.332	1	-10
406.674	1	11
407.015	1	17
407.357	1	-4
407.698	1	5
408.040	1	1
408.381	1	9
408.722	1	-6
409.064	1	3
409.405	1	-1
409.747	1	9
410.088	1	8
410.430	1	5
410.771	1	9
411.112	1	0
411.454	1	6
411.795	1	8
412.137	1	-6
412.478	1	2
412.819	1	-3
413.161	1	0
413.502	1	-2
413.844	1	5
414.185	1	2
414.526	1	5
414.868	1	-8
415.209	1	-18
415.550	1	-1
415.892	1	-2
416.233	1	8
416.575	1	8
416.916	1	-11
417.257	1	4
417.599	1	0
417.940	1	2
418.281	1	-18
418.623	1	-4
418.964	1	-4
419.305	1	3
419.647	1	2
419.988	1	10
420.329	1	14
420.671	1	0
421.012	1	8
421.353	1	1
421.695	1	-3
422.036	1	8
422.377	1	11
422.718	1	13
423.060	1	5
423.401	1	3
423.742	1	-10
424.084	1	14
424.425	1	2
424.766	1	2
425.107	1	1
425.449	1	4
425.790	1	-3
426.131	1	7
426.472	1	9
426.814	1	0
427.155	1	13
427.496	1	5
427.837	1	7
428.179	1	8
428.520	1	3
428.861	1	12
429.202	1	-5
429.544	1	-3
429.885	1	3
430.226	1	1
430.567	1	6
430.909	1	-1
431.250	1	13
431.591	1	-7
431.932	1	2
432.273	1	13
432.615	1	0
432.956	1	3
433.297	1	-3
433.638	1	10
433.979	1	2
434.320	1	14
434.662	1	1
435.003	1	0
435.344	1	7
435.685	1	3
436.026	1	-4
436.368	1	7
436.709	1	-1
437.050	1	-11
437.391	1	1
437.732	1	6
438.073	1	1
438.414	1	-4
438.756	1	2
439.097	1	9
439.438	1	2
439.779	1	6
440.120	1	-1
440.461	1	18
440.802	1	4
441.143	1	-8
441.485	1	-7
441.826	1	12
442.167	1	-2
442.508	1	4
442.849	1	3
443.190	1	7
443.531	1	3
443.872	1	-4
444.213	1	-3
444.554	1	-1
444.895	1	-8
445.237	1	-5
445.578	1	2
445.919	1	5
446.260	1	11
446.601	1	0
446.942	1	3
447.283	1	6
447.624	1	2
447.965	1	3
448.306	1	-6
448.647	1	9
448.988	1	11
449.329	1	4
449.670	1	-12
450.011	1	14
450.352	1	-4
450.693	1	3
451.034	1	-1
451.375	1	-1
451.716	1	0
452.057	1	0
452.398	1	1
452.739	1	9
453.080	1	0
453.421	1	8
453.762	1	1
454.103	1	-9
454.444	1	0
454.785	1	-1
455.126	1	7
455.467	1	-6
455.808	1	12
456.149	1	7
456.490	1	7
456.831	1	-2
457.172	1	4
457.513	1	8
457.854	1	10
458.195	1	3
458.536	1	2
458.877	1	8
459.218	1	5
459.559	1	10
459.899	1	8
460.240	1	-4
460.581	1	11
460.922	1	-2
461.263	1	7
461.604	1	6
461.945	1	-1
462.286	1	-5
462.627	1	7
462.968	1	17
463.309	1	6
463.649	1	7
463.990	1	2
464.331	1	4
464.672	1	-2
465.013	1	7
465.354	1	-5
465.695	1	9
466.036	1	-3
466.376	1	8
466.717	1	-8
467.058	1	11
467.399	1	5
467.740	1	-9
468.081	1	4
468.422	1	9
468.762	1	9
469.103	1	9
469.444	1	2
469.785	1	-2
470.126	1	-5
470.467	1	2
470.807	1	0
471.148	1	0
471.489	1	-1
471.830	1	3
472.171	1	4
472.511	1	4
472.852	1	5
473.193	1	14
473.534	1	6
473.875	1	-2
474.215	1	3
474.556	1	9
474.897	1	2
475.238	1	-3
475.578	1	8
475.919	1	10
476.260	1	7
476.601	1	10
476.942	1	-7
477.282	1	16
477.623	1	9
477.964	1	9
478.305	1	-2
478.645	1	11
478.986	1	3
479.327	1	-9
479.667	1	-4
480.008	1	1
480.349	1	6
480.690	1	6
481.030	1	9
481.371	1	-2
481.712	1	0
482.053	1	-2
482.393	1	0
482.734	1	3
483.075	1	5
483.415	1	14
483.756	1	6
484.097	1	-8
484.437	1	7
484.778	1	-7
485.119	1	7
485.459	1	8
485.800	1	0
486.141	1	14
486.481	1	8
486.822	1	9
487.163	1	3
487.503	1	0
487.844	1	2
488.185	1	1
488.525	1	14
488.866	1	10
489.207	1	4
489.547	1	14
489.888	1	4
490.228	1	0
490.569	1	4
490.910	1	4
491.250	1	9
491.591	1	9
491.932	1	10
492.272	1	14
492.613	1	5
492.953	1	8
493.294	1	3
493.635	1	8
493.975	1	1
494.316	1	2
494.656	1	6
494.997	1	1
495.337	1	16
495.678	1	8
496.019	1	-2
496.359	1	4
496.700	1	18
497.040	1	11
497.381	1	14
497.721	1	-5
498.062	1	8
498.403	1	12
498.743	1	11
499.084	1	10
499.424	1	9
499.765	1	-1
500.105	1	1
500.446	1	7
500.786	1	10
501.127	1	9
501.467	1	3
501.808	1	1
502.148	1	14
502.489	1	5
502.829	1	7
503.170	1	17
503.510	1	15
503.851	1	4
504.191	1	0
504.532	1	-5
504.872	1	11
505.213	1	4
505.553	1	10
505.894	1	27
506.234	1	-5
506.575	1	13
506.915	1	7
507.256	1	-1
507.596	1	4
507.936	1	10
508.277	1	8
508.617	1	9
508.958	1	8
509.298	1	14
509.639	1	5
509.979	1	17
510.319	1	4
510.660	1	-2
511.000	1	12
511.341	1	9
511.681	1	16
512.022	1	10
512.362	1	8
512.702	1	-2
513.043	1	10
513.383	1	9
513.724	1	10
514.064	1	16
514.404	1	3
514.745	1	7
515.085	1	9
515.425	1	10
515.766	1	9
516.106	1	16
516.447	1	7
516.787	1	9
517.127	1	10
517.468	1	5
517.808	1	20
518.148	1	7
518.489	1	20
518.829	1	18
519.169	1	10
519.510	1	16
519.850	1	9
520.190	1	7
520.531	1	19
520.871	1	12
521.211	1	10
521.552	1	16
521.892	1	16
522.232	1	7
522.573	1	15
522.913	1	10
523.253	1	25
523.593	1	14
523.934	1	9
524.274	1	12
524.614	1	2
524.955	1	10
525.295	1	-1
525.635	1	10
525.975	1	10
526.316	1	21
526.656	1	16
526.996	1	12
527.337	1	6
527.677	1	13
528.017	1	5
528.357	1	4
528.698	1	0
529.038	1	9
529.378	1	0
529.718	1	12
530.058	1	18
530.399	1	11
530.739	1	12
531.079	1	11
531.419	1	14
531.760	1	14
532.100	1	13
532.440	1	18
532.780	1	7
533.120	1	14
533.461	1	12
533.801	1	22
534.141	1	11
534.481	1	19
534.821	1	8
535.162	1	11
535.502	1	10
535.842	1	18
536.182	1	5
536.522	1	11
536.862	1	18
537.203	1	10
537.543	1	3
537.883	1	12
538.223	1	12
538.563	1	9
538.903	1	8
539.243	1	7
539.584	1	7
539.924	1	6
540.264	1	20
540.604	1	12
540.944	1	3
541.284	1	7
541.624	1	12
541.964	1	13
542.305	1	17
542.645	1	8
542.985	1	13
543.325	1	5
543.665	1	19
544.005	1	17
544.345	1	13
544.685	1	8
545.025	1	2
545.365	1	6
545.705	1	11
546.045	1	4
546.386	1	14
546.726	1	8
547.066	1	8
547.406	1	10
547.746	1	5
548.086	1	9
548.426	1	14
548.766	1	5
549.106	1	14
549.446	1	3
549.786	1	11
550.126	1	12
550.466	1	11
550.806	1	11
551.146	1	20
551.486	1	6
551.826	1	19
552.166	1	9
552.506	1	8
552.846	1	13
553.186	1	7
553.526	1	4
553.866	1	5
554.206	1	14
554.546	1	3
554.886	1	8
555.226	1	4
555.566	1	6
555.906	1	3
556.246	1	4
556.586	1	10
556.926	1	7
557.266	1	13
557.606	1	11
557.946	1	8
558.286	1	7
558.626	1	17
558.966	1	17
559.306	1	11
559.646	1	1
559.986	1	16
560.325	1	3
560.665	1	9
561.005	1	11
561.345	1	3
561.685	1	2
562.025	1	2
562.365	1	2
562.705	1	15
563.045	1	3
563.385	1	7
563.725	1	0
564.064	1	13
564.404	1	10
564.744	1	14
565.084	1	17
565.424	1	10
565.764	1	4
566.104	1	3
566.444	1	14
566.783	1	4
567.123	1	10
567.463	1	3
567.803	1	2
568.143	1	7
568.483	1	11
568.823	1	1
569.162	1	3
569.502	1	1
569.842	1	2
570.182	1	0
570.522	1	9
570.862	1	7
571.201	1	13
571.541	1	6
571.881	1	6
572.221	1	9
572.561	1	9
572.900	1	6
573.240	1	16
573.580	1	5
573.920	1	13
574.260	1	16
574.599	1	3
574.939	1	0
575.279	1	7
575.619	1	14
575.959	1	2
576.298	1	22
576.638	1	15
576.978	1	3
577.318	1	10
577.657	1	2
577.997	1	0
578.337	1	14
578.677	1	7
579.016	1	3
579.356	1	7
579.696	1	-5
580.036	1	7
580.375	1	1
580.715	1	10
581.055	1	6
581.394	1	8
581.734	1	14
582.074	1	2
582.414	1	0
582.753	1	8
583.093	1	12
583.433	1	10
583.772	1	-3
584.112	1	4
584.452	1	3
584.791	1	0
585.131	1	9
585.471	1	3
585.811	1	-5
586.150	1	-7
586.490	1	3
586.830	1	0
587.169	1	16
587.509	1	6
587.849	1	5
588.188	1	2
588.528	1	7
588.867	1	1
589.207	1	0
589.547	1	14
589.886	1	6
590.226	1	0
590.566	1	3
590.905	1	12
591.245	1	2
591.585	1	5
591.924	1	-1
592.264	1	-8
592.603	1	8
592.943	1	7
593.283	1	7
593.622	1	-3
593.962	1	4
594.301	1	7
594.641	1	3
594.981	1	16
595.320	1	1
595.660	1	0
595.999	1	7
596.339	1	4
596.678	1	-6
597.018	1	4
597.358	1	-4
597.697	1	1
598.037	1	6
598.376	1	-3
598.716	1	5
599.055	1	4
599.395	1	0
599.734	1	15
600.074	1	8
600.413	1	-7
600.753	1	14
601.092	1	9
601.432	1	0
601.771	1	13
602.111	1	3
602.451	1	12
602.790	1	6
603.130	1	-11
603.469	1	3
603.809	1	0
604.148	1	5
604.487	1	7
604.827	1	4
605.166	1	10
605.506	1	-2
605.845	1	6
606.185	1	4
606.524	1	-1
606.864	1	2
607.203	1	5
607.543	1	14
607.882	1	2
608.222	1	3
608.561	1	8
608.901	1	8
609.240	1	3
609.579	1	6
609.919	1	-5
610.258	1	10
610.598	1	11
610.937	1	1
611.277	1	-5
611.616	1	8
611.955	1	9
612.295	1	4
612.634	1	1
612.974	1	1
613.313	1	-3
613.652	1	19
613.992	1	7
614.331	1	-2
614.671	1	11
615.010	1	2
615.349	1	12
615.689	1	8
616.028	1	-1
616.368	1	10
616.707	1	6
617.046	1	-3
617.386	1	-1
617.725	1	2
618.064	1	3
618.404	1	5
618.743	1	5
619.082	1	9
619.422	1	-1
619.761	1	-3
620.100	1	0
620.440	1	11
620.779	1	2
621.118	1	-9
621.458	1	5
621.797	1	3
622.136	1	-2
622.476	1	0
622.815	1	9
623.154	1	3
623.494	1	4
623.833	1	11
624.172	1	4
624.511	1	2
624.851	1	-7
625.190	1	4
625.529	1	9
625.869	1	7
626.208	1	1
626.547	1	-5
626.886	1	6
627.226	1	8
627.565	1	1
627.904	1	2
628.243	1	-8
628.583	1	3
628.922	1	-11
629.261	1	15
629.600	1	-3
629.940	1	1
630.279	1	6
630.618	1	3
630.957	1	7
631.297	1	-2
631.636	1	14
631.975	1	7
632.314	1	0
632.653	1	10
632.993	1	-4
633.332	1	3
633.671	1	5
634.010	1	5
634.349	1	2
634.689	1	7
635.028	1	7
635.367	1	-7
635.706	1	-4
636.045	1	13
636.384	1	-3
636.724	1	13
637.063	1	5
637.402	1	8
637.741	1	-5
638.080	1	5
638.419	1	-8
638.759	1	6
639.098	1	2
639.437	1	-9
639.776	1	3
640.115	1	1
640.454	1	3
640.793	1	5
641.132	1	1
641.472	1	-5
641.811	1	9
642.150	1	-1
642.489	1	-3
642.828	1	8
643.167	1	4
643.506	1	9
643.845	1	5
644.184	1	2
644.524	1	5
644.863	1	-3
645.202	1	13
645.541	1	8
645.880	1	11
646.219	1	2
646.558	1	6
646.897	1	10
647.236	1	7
647.575	1	-4
647.914	1	9
648.253	1	-1
648.592	1	3
648.931	1	7
649.270	1	-3
649.610	1	10
649.949	1	1
650.288	1	1
650.627	1	-3
650.966	1	7
651.305	1	-8
651.644	1	6
651.983	1	0
652.322	1	3
652.661	1	-1
653.000	1	1
653.339	1	-2
653.678	1	5
654.017	1	11
654.356	1	-4
654.695	1	6
655.034	1	-5
655.373	1	0
655.712	1	-3
656.051	1	4
656.390	1	-4
656.729	1	0
657.068	1	7
657.406	1	4
657.745	1	5
658.084	1	-1
658.423	1	4
658.762	1	-7
659.101	1	11
659.440	1	4
659.779	1	3
660.118	1	9
660.457	1	8
660.796	1	6
661.135	1	-8
661.474	1	8
661.813	1	0
662.152	1	-5
662.491	1	-16
662.829	1	8
663.168	1	14
663.507	1	1
663.846	1	-3
664.185	1	10
664.524	1	6
664.863	1	0
665.202	1	24
665.541	1	6
665.879	1	5
666.218	1	9
666.557	1	7
666.896	1	0
667.235	1	1
667.574	1	-10
667.913	1	-1
668.251	1	5
668.590	1	4
668.929	1	4
669.268	1	-3
669.607	1	0
669.946	1	9
670.285	1	9
670.623	1	6
670.962	1	5
671.301	1	6
671.640	1	8
671.979	1	3
672.317	1	6
672.656	1	1
672.995	1	-2
673.334	1	3
673.673	1	9
674.011	1	2
674.350	1	-5
674.689	1	8
675.028	1	-1
675.367	1	-3
675.705	1	2
676.044	1	18
676.383	1	4
676.722	1	8
677.060	1	-3
677.399	1	2
677.738	1	-3
678.077	1	11
678.416	1	-2
678.754	1	5
679.093	1	-2
679.432	1	2
679.771	1	3
680.109	1	-9
680.448	1	8
680.787	1	-3
681.125	1	10
681.464	1	9
681.803	1	8
682.142	1	-3
682.480	1	5
682.819	1	9
683.158	1	-3
683.496	1	0
683.835	1	-2
684.174	1	2
684.512	1	1
684.851	1	0
685.190	1	1
685.529	1	7
685.867	1	6
686.206	1	13
686.545	1	7
686.883	1	1
687.222	1	-3
687.561	1	8
687.899	1	-11
688.238	1	-3
688.577	1	16
688.746	1	-3