File: Data/GaN_170K_550ms/GaN_sample D_spot 18_UVVIS_170 K_200um_550 ms 2x2mm1_294.txt
340.368	1	6
340.710	1	-18
341.052	1	4
341.394	1	3
341.737	1	-1
342.079	1	-1
342.421	1	-4
342.763	1	0
343.105	1	9
343.447	1	-8
343.789	1	2
344.131	1	-7
344.473	1	0
344.815	1	8
345.157	1	2
345.499	1	-6
345.841	1	8
346.183	1	0
346.526	1	2
346.868	1	6
347.210	1	-6
347.552	1	11
347.894	1	7
348.236	1	-1
348.578	1	7
348.920	1	4
349.262	1	4
349.604	1	4
349.946	1	5
350.288	1	-5
350.630	1	12
350.972	1	-4
351.314	1	10
351.656	1	-8
351.998	1	2
352.340	1	1
352.682	1	-11
353.024	1	1
353.366	1	-1
353.708	1	1
354.050	1	-6
354.392	1	0
354.734	1	-2
355.076	1	5
355.418	1	-7
355.760	1	-2
356.102	1	6
356.444	1	10
356.785	1	2
357.127	1	3
357.469	1	-2
357.811	1	1
358.153	1	9
358.495	1	7
358.837	1	11
359.179	1	2
359.521	1	9
359.863	1	3
360.205	1	9
360.547	1	8
360.889	1	7
361.231	1	1
361.572	1	12
361.914	1	16
362.256	1	7
362.598	1	7
362.940	1	14
363.282	1	12
363.624	1	-1
363.966	1	4
364.308	1	7
364.649	1	-2
364.991	1	15
365.333	1	2
365.675	1	16
366.017	1	7
366.359	1	-3
366.701	1	16
367.042	1	7
367.384	1	10
367.726	1	14
368.068	1	15
368.410	1	22
368.752	1	9
369.093	1	-2
369.435	1	4
369.777	1	13
370.119	1	7
370.461	1	10
370.803	1	2
371.144	1	5
371.486	1	-4
371.828	1	3
372.170	1	7
372.512	1	8
372.853	1	14
373.195	1	8
373.537	1	17
373.879	1	8
374.220	1	12
374.562	1	9
374.904	1	6
375.246	1	3
375.588	1	-1
375.929	1	9
376.271	1	6
376.613	1	5
376.955	1	5
377.296	1	4
377.638	1	3
377.980	1	-10
378.321	1	-3
378.663	1	0
379.005	1	3
379.347	1	4
379.688	1	0
380.030	1	10
380.372	1	-2
380.714	1	10
381.055	1	4
381.397	1	6
381.739	1	-3
382.080	1	-3
382.422	1	9
382.764	1	4
383.105	1	2
383.447	1	13
383.789	1	6
384.130	1	-5
384.472	1	-11
384.814	1	4
385.156	1	1
385.497	1	11
385.839	1	-5
386.180	1	8
386.522	1	11
386.864	1	5
387.205	1	7
387.547	1	-1
387.889	1	6
388.230	1	-1
388.572	1	6
388.914	1	-6
389.255	1	5
389.597	1	5
389.939	1	1
390.280	1	-1
390.622	1	-9
390.963	1	3
391.305	1	-4
391.647	1	-7
391.988	1	7
392.330	1	-4
392.671	1	-6
393.013	1	-4
393.355	1	3
393.696	1	-1
394.038	1	-4
394.379	1	-10
394.721	1	-2
395.062	1	4
395.404	1	6
395.746	1	1
396.087	1	6
396.429	1	6
396.770	1	0
397.112	1	-2
397.453	1	1
397.795	1	-6
398.136	1	-4
398.478	1	-7
398.819	1	-10
399.161	1	-8
399.503	1	9
399.844	1	-7
400.186	1	1
400.527	1	12
400.869	1	4
401.210	1	1
401.552	1	-5
401.893	1	8
402.235	1	4
402.576	1	7
402.918	1	2
403.259	1	6
403.601	1	15
403.942	1	1
404.284	1	-9
404.625	1	-1
404.967	1	5
405.308	1	12
405.649	1	4
405.991	1	6
406.332	1	-17
406.674	1	5
407.015	1	9
407.357	1	-6
407.698	1	-3
408.040	1	-5
408.381	1	0
408.722	1	-6
409.064	1	-6
409.405	1	2
409.747	1	-2
410.088	1	9
410.430	1	6
410.771	1	5
411.112	1	2
411.454	1	8
411.795	1	7
412.137	1	1
412.478	1	1
412.819	1	-8
413.161	1	10
413.502	1	-2
413.844	1	7
414.185	1	4
414.526	1	7
414.868	1	-6
415.209	1	-4
415.550	1	0
415.892	1	-2
416.233	1	9
416.575	1	1
416.916	1	-8
417.257	1	5
417.599	1	3
417.940	1	-1
418.281	1	-11
418.623	1	-5
418.964	1	-5
419.305	1	6
419.647	1	4
419.988	1	5
420.329	1	7
420.671	1	-5
421.012	1	-5
421.353	1	3
421.695	1	-10
422.036	1	3
422.377	1	10
422.718	1	14
423.060	1	1
423.401	1	-7
423.742	1	-3
424.084	1	19
424.425	1	-8
424.766	1	7
425.107	1	3
425.449	1	6
425.790	1	-1
426.131	1	3
426.472	1	2
426.814	1	-10
427.155	1	15
427.496	1	1
427.837	1	15
428.179	1	3
428.520	1	-3
428.861	1	-2
429.202	1	-7
429.544	1	-1
429.885	1	-10
430.226	1	-6
430.567	1	0
430.909	1	-2
431.250	1	15
431.591	1	-7
431.932	1	-7
432.273	1	5
432.615	1	-1
432.956	1	-1
433.297	1	1
433.638	1	7
433.979	1	8
434.320	1	8
434.662	1	-19
435.003	1	0
435.344	1	6
435.685	1	2
436.026	1	4
436.368	1	3
436.709	1	-3
437.050	1	-5
437.391	1	-7
437.732	1	0
438.073	1	-4
438.414	1	-3
438.756	1	1
439.097	1	1
439.438	1	2
439.779	1	13
440.120	1	0
440.461	1	9
440.802	1	10
441.143	1	0
441.485	1	0
441.826	1	7
442.167	1	11
442.508	1	-13
442.849	1	-2
443.190	1	-9
443.531	1	-6
443.872	1	-1
444.213	1	-6
444.554	1	-3
444.895	1	-5
445.237	1	-7
445.578	1	13
445.919	1	-2
446.260	1	7
446.601	1	-2
446.942	1	0
447.283	1	6
447.624	1	4
447.965	1	6
448.306	1	-4
448.647	1	-1
448.988	1	8
449.329	1	-5
449.670	1	-15
450.011	1	8
450.352	1	7
450.693	1	-3
451.034	1	2
451.375	1	3
451.716	1	6
452.057	1	-4
452.398	1	1
452.739	1	-2
453.080	1	3
453.421	1	7
453.762	1	-1
454.103	1	-6
454.444	1	-11
454.785	1	0
455.126	1	8
455.467	1	-9
455.808	1	8
456.149	1	5
456.490	1	4
456.831	1	2
457.172	1	-3
457.513	1	10
457.854	1	12
458.195	1	-5
458.536	1	-8
458.877	1	7
459.218	1	-2
459.559	1	-6
459.899	1	2
460.240	1	-6
460.581	1	-8
460.922	1	1
461.263	1	-4
461.604	1	10
461.945	1	-2
462.286	1	-3
462.627	1	13
462.968	1	5
463.309	1	4
463.649	1	-4
463.990	1	1
464.331	1	3
464.672	1	-1
465.013	1	12
465.354	1	-6
465.695	1	2
466.036	1	-6
466.376	1	3
466.717	1	4
467.058	1	1
467.399	1	14
467.740	1	-8
468.081	1	0
468.422	1	4
468.762	1	10
469.103	1	2
469.444	1	8
469.785	1	-9
470.126	1	13
470.467	1	4
470.807	1	-3
471.148	1	-5
471.489	1	0
471.830	1	-3
472.171	1	15
472.511	1	14
472.852	1	2
473.193	1	8
473.534	1	1
473.875	1	6
474.215	1	5
474.556	1	1
474.897	1	2
475.238	1	-6
475.578	1	3
475.919	1	5
476.260	1	3
476.601	1	4
476.942	1	2
477.282	1	6
477.623	1	6
477.964	1	2
478.305	1	-8
478.645	1	13
478.986	1	-6
479.327	1	-8
479.667	1	-13
480.008	1	0
480.349	1	1
480.690	1	4
481.030	1	6
481.371	1	-6
481.712	1	-1
482.053	1	-2
482.393	1	-2
482.734	1	10
483.075	1	-6
483.415	1	2
483.756	1	5
484.097	1	-11
484.437	1	-2
484.778	1	-12
485.119	1	-4
485.459	1	-3
485.800	1	0
486.141	1	6
486.481	1	10
486.822	1	3
487.163	1	3
487.503	1	7
487.844	1	5
488.185	1	4
488.525	1	17
488.866	1	12
489.207	1	8
489.547	1	1
489.888	1	1
490.228	1	-8
490.569	1	5
490.910	1	1
491.250	1	4
491.591	1	2
491.932	1	5
492.272	1	11
492.613	1	5
492.953	1	-2
493.294	1	-3
493.635	1	4
493.975	1	11
494.316	1	5
494.656	1	1
494.997	1	2
495.337	1	5
495.678	1	8
496.019	1	-6
496.359	1	4
496.700	1	7
497.040	1	2
497.381	1	9
497.721	1	-2
498.062	1	-3
498.403	1	9
498.743	1	-5
499.084	1	10
499.424	1	9
499.765	1	0
500.105	1	-1
500.446	1	2
500.786	1	0
501.127	1	13
501.467	1	-5
501.808	1	-2
502.148	1	3
502.489	1	7
502.829	1	1
503.170	1	12
503.510	1	4
503.851	1	-1
504.191	1	0
504.532	1	-11
504.872	1	1
505.213	1	5
505.553	1	3
505.894	1	13
506.234	1	-7
506.575	1	4
506.915	1	0
507.256	1	-5
507.596	1	10
507.936	1	13
508.277	1	1
508.617	1	10
508.958	1	5
509.298	1	-3
509.639	1	-2
509.979	1	4
510.319	1	-11
510.660	1	0
511.000	1	4
511.341	1	11
511.681	1	7
512.022	1	1
512.362	1	8
512.702	1	-4
513.043	1	5
513.383	1	5
513.724	1	-5
514.064	1	5
514.404	1	1
514.745	1	5
515.085	1	1
515.425	1	-2
515.766	1	5
516.106	1	6
516.447	1	-3
516.787	1	6
517.127	1	2
517.468	1	6
517.808	1	7
518.148	1	2
518.489	1	8
518.829	1	6
519.169	1	0
519.510	1	-3
519.850	1	1
520.190	1	-4
520.531	1	6
520.871	1	1
521.211	1	4
521.552	1	6
521.892	1	0
522.232	1	-5
522.573	1	10
522.913	1	5
523.253	1	12
523.593	1	-1
523.934	1	-8
524.274	1	5
524.614	1	6
524.955	1	3
525.295	1	-3
525.635	1	9
525.975	1	-3
526.316	1	2
526.656	1	12
526.996	1	-1
527.337	1	6
527.677	1	-4
528.017	1	12
528.357	1	-3
528.698	1	-9
529.038	1	3
529.378	1	-5
529.718	1	13
530.058	1	8
530.399	1	6
530.739	1	7
531.079	1	3
531.419	1	15
531.760	1	-4
532.100	1	-1
532.440	1	-4
532.780	1	-8
533.120	1	8
533.461	1	9
533.801	1	2
534.141	1	-1
534.481	1	12
534.821	1	0
535.162	1	-5
535.502	1	1
535.842	1	7
536.182	1	-7
536.522	1	5
536.862	1	7
537.203	1	4
537.543	1	2
537.883	1	10
538.223	1	-1
538.563	1	2
538.903	1	0
539.243	1	3
539.584	1	9
539.924	1	-5
540.264	1	3
540.604	1	0
540.944	1	-7
541.284	1	10
541.624	1	-12
541.964	1	2
542.305	1	2
542.645	1	2
542.985	1	6
543.325	1	4
543.665	1	0
544.005	1	9
544.345	1	3
544.685	1	2
545.025	1	5
545.365	1	2
545.705	1	10
546.045	1	-1
546.386	1	-1
546.726	1	6
547.066	1	8
547.406	1	-1
547.746	1	-5
548.086	1	-5
548.426	1	3
548.766	1	4
549.106	1	6
549.446	1	6
549.786	1	-1
550.126	1	-5
550.466	1	-3
550.806	1	-2
551.146	1	7
551.486	1	-2
551.826	1	6
552.166	1	-2
552.506	1	5
552.846	1	3
553.186	1	6
553.526	1	-1
553.866	1	-6
554.206	1	8
554.546	1	-1
554.886	1	-1
555.226	1	-12
555.566	1	0
555.906	1	-7
556.246	1	8
556.586	1	2
556.926	1	5
557.266	1	8
557.606	1	6
557.946	1	5
558.286	1	8
558.626	1	10
558.966	1	-1
559.306	1	8
559.646	1	3
559.986	1	7
560.325	1	0
560.665	1	3
561.005	1	-1
561.345	1	-2
561.685	1	2
562.025	1	-9
562.365	1	1
562.705	1	11
563.045	1	-8
563.385	1	3
563.725	1	-5
564.064	1	4
564.404	1	-5
564.744	1	6
565.084	1	0
565.424	1	1
565.764	1	-3
566.104	1	1
566.444	1	5
566.783	1	-1
567.123	1	-2
567.463	1	-5
567.803	1	7
568.143	1	4
568.483	1	4
568.823	1	-5
569.162	1	6
569.502	1	4
569.842	1	-6
570.182	1	4
570.522	1	-4
570.862	1	4
571.201	1	3
571.541	1	-2
571.881	1	-6
572.221	1	4
572.561	1	-1
572.900	1	-9
573.240	1	2
573.580	1	0
573.920	1	3
574.260	1	8
574.599	1	1
574.939	1	-9
575.279	1	-4
575.619	1	16
575.959	1	3
576.298	1	1
576.638	1	8
576.978	1	5
577.318	1	2
577.657	1	3
577.997	1	-11
578.337	1	-1
578.677	1	-4
579.016	1	8
579.356	1	2
579.696	1	-12
580.036	1	0
580.375	1	1
580.715	1	-1
581.055	1	0
581.394	1	1
581.734	1	13
582.074	1	3
582.414	1	-12
582.753	1	-3
583.093	1	9
583.433	1	5
583.772	1	-5
584.112	1	4
584.452	1	-9
584.791	1	6
585.131	1	5
585.471	1	4
585.811	1	-4
586.150	1	-3
586.490	1	9
586.830	1	7
587.169	1	11
587.509	1	3
587.849	1	4
588.188	1	-8
588.528	1	0
588.867	1	2
589.207	1	-3
589.547	1	0
589.886	1	-5
590.226	1	-3
590.566	1	3
590.905	1	8
591.245	1	6
591.585	1	0
591.924	1	-2
592.264	1	-3
592.603	1	0
592.943	1	6
593.283	1	6
593.622	1	-15
593.962	1	-2
594.301	1	7
594.641	1	6
594.981	1	6
595.320	1	-8
595.660	1	3
595.999	1	5
596.339	1	8
596.678	1	2
597.018	1	1
597.358	1	-4
597.697	1	-10
598.037	1	-3
598.376	1	-14
598.716	1	5
599.055	1	5
599.395	1	5
599.734	1	10
600.074	1	-5
600.413	1	-4
600.753	1	-1
601.092	1	-9
601.432	1	4
601.771	1	5
602.111	1	-5
602.451	1	4
602.790	1	15
603.130	1	3
603.469	1	4
603.809	1	0
604.148	1	-1
604.487	1	1
604.827	1	-12
605.166	1	12
605.506	1	-4
605.845	1	-2
606.185	1	2
606.524	1	-1
606.864	1	-5
607.203	1	4
607.543	1	8
607.882	1	-5
608.222	1	1
608.561	1	-3
608.901	1	4
609.240	1	4
609.579	1	-4
609.919	1	-4
610.258	1	2
610.598	1	0
610.937	1	2
611.277	1	7
611.616	1	4
611.955	1	8
612.295	1	-8
612.634	1	2
612.974	1	0
613.313	1	1
613.652	1	8
613.992	1	7
614.331	1	0
614.671	1	11
615.010	1	1
615.349	1	8
615.689	1	12
616.028	1	2
616.368	1	-1
616.707	1	12
617.046	1	-1
617.386	1	-8
617.725	1	3
618.064	1	-1
618.404	1	-1
618.743	1	9
619.082	1	15
619.422	1	-1
619.761	1	5
620.100	1	6
620.440	1	11
620.779	1	-3
621.118	1	-4
621.458	1	3
621.797	1	-4
622.136	1	6
622.476	1	-8
622.815	1	-1
623.154	1	-1
623.494	1	-4
623.833	1	5
624.172	1	-2
624.511	1	0
624.851	1	-10
625.190	1	1
625.529	1	11
625.869	1	11
626.208	1	2
626.547	1	-6
626.886	1	1
627.226	1	7
627.565	1	-2
627.904	1	-4
628.243	1	-5
628.583	1	-10
628.922	1	-6
629.261	1	6
629.600	1	-5
629.940	1	-3
630.279	1	-6
630.618	1	0
630.957	1	2
631.297	1	-4
631.636	1	11
631.975	1	-8
632.314	1	3
632.653	1	8
632.993	1	-5
633.332	1	8
633.671	1	0
634.010	1	7
634.349	1	-8
634.689	1	4
635.028	1	5
635.367	1	-5
635.706	1	4
636.045	1	-3
636.384	1	-3
636.724	1	13
637.063	1	5
637.402	1	9
637.741	1	-6
638.080	1	5
638.419	1	-8
638.759	1	0
639.098	1	-4
639.437	1	-10
639.776	1	2
640.115	1	1
640.454	1	4
640.793	1	-4
641.132	1	-3
641.472	1	-5
641.811	1	6
642.150	1	-1
642.489	1	-5
642.828	1	6
643.167	1	-3
643.506	1	6
643.845	1	2
644.184	1	6
644.524	1	14
644.863	1	0
645.202	1	14
645.541	1	0
645.880	1	0
646.219	1	3
646.558	1	13
646.897	1	-4
647.236	1	-2
647.575	1	-6
647.914	1	-3
648.253	1	3
648.592	1	1
648.931	1	-2
649.270	1	-3
649.610	1	10
649.949	1	-4
650.288	1	-11
650.627	1	4
650.966	1	6
651.305	1	2
651.644	1	10
651.983	1	-3
652.322	1	6
652.661	1	7
653.000	1	-13
653.339	1	-5
653.678	1	4
654.017	1	7
654.356	1	1
654.695	1	12
655.034	1	-2
655.373	1	3
655.712	1	-8
656.051	1	-7
656.390	1	-2
656.729	1	9
657.068	1	6
657.406	1	2
657.745	1	7
658.084	1	-5
658.423	1	-1
658.762	1	-1
659.101	1	1
659.440	1	-2
659.779	1	-3
660.118	1	0
660.457	1	19
660.796	1	0
661.135	1	-9
661.474	1	1
661.813	1	5
662.152	1	-10
662.491	1	-7
662.829	1	0
663.168	1	8
663.507	1	3
663.846	1	4
664.185	1	12
664.524	1	6
664.863	1	-4
665.202	1	13
665.541	1	5
665.879	1	-3
666.218	1	16
666.557	1	0
666.896	1	8
667.235	1	-3
667.574	1	-12
667.913	1	-7
668.251	1	7
668.590	1	3
668.929	1	4
669.268	1	-6
669.607	1	-2
669.946	1	1
670.285	1	20
670.623	1	-1
670.962	1	0
671.301	1	-7
671.640	1	13
671.979	1	-2
672.317	1	8
672.656	1	1
672.995	1	2
673.334	1	-3
673.673	1	5
674.011	1	9
674.350	1	5
674.689	1	4
675.028	1	-3
675.367	1	-9
675.705	1	16
676.044	1	11
676.383	1	0
676.722	1	16
677.060	1	-2
677.399	1	7
677.738	1	-6
678.077	1	10
678.416	1	-3
678.754	1	7
679.093	1	3
679.432	1	2
679.771	1	6
680.109	1	-6
680.448	1	1
680.787	1	-5
681.125	1	12
681.464	1	1
681.803	1	-2
682.142	1	-2
682.480	1	-1
682.819	1	8
683.158	1	-1
683.496	1	3
683.835	1	0
684.174	1	2
684.512	1	-5
684.851	1	-1
685.190	1	-4
685.529	1	18
685.867	1	3
686.206	1	1
686.545	1	11
686.883	1	-2
687.222	1	-3
687.561	1	3
687.899	1	-5
688.238	1	3
688.577	1	10
688.746	1	-2