File: Data/GaN_170K_550ms/GaN_sample D_spot 18_UVVIS_170 K_200um_550 ms 2x2mm1_83.txt
340.368	1	-1
340.710	1	-8
341.052	1	7
341.394	1	3
341.737	1	4
342.079	1	2
342.421	1	1
342.763	1	10
343.105	1	12
343.447	1	2
343.789	1	4
344.131	1	4
344.473	1	5
344.815	1	15
345.157	1	6
345.499	1	-6
345.841	1	4
346.183	1	15
346.526	1	16
346.868	1	2
347.210	1	5
347.552	1	8
347.894	1	1
348.236	1	4
348.578	1	6
348.920	1	3
349.262	1	7
349.604	1	11
349.946	1	16
350.288	1	5
350.630	1	19
350.972	1	1
351.314	1	4
351.656	1	7
351.998	1	6
352.340	1	10
352.682	1	4
353.024	1	8
353.366	1	14
353.708	1	7
354.050	1	6
354.392	1	4
354.734	1	11
355.076	1	8
355.418	1	6
355.760	1	7
356.102	1	17
356.444	1	9
356.785	1	6
357.127	1	12
357.469	1	16
357.811	1	17
358.153	1	18
358.495	1	18
358.837	1	19
359.179	1	18
359.521	1	27
359.863	1	31
360.205	1	37
360.547	1	50
360.889	1	36
361.231	1	41
361.572	1	47
361.914	1	54
362.256	1	40
362.598	1	56
362.940	1	61
363.282	1	65
363.624	1	68
363.966	1	74
364.308	1	82
364.649	1	79
364.991	1	100
365.333	1	98
365.675	1	113
366.017	1	127
366.359	1	132
366.701	1	146
367.042	1	150
367.384	1	154
367.726	1	163
368.068	1	165
368.410	1	165
368.752	1	158
369.093	1	159
369.435	1	160
369.777	1	171
370.119	1	159
370.461	1	146
370.803	1	139
371.144	1	134
371.486	1	134
371.828	1	128
372.170	1	118
372.512	1	107
372.853	1	116
373.195	1	106
373.537	1	93
373.879	1	97
374.220	1	99
374.562	1	77
374.904	1	88
375.246	1	86
375.588	1	76
375.929	1	69
376.271	1	68
376.613	1	66
376.955	1	69
377.296	1	67
377.638	1	58
377.980	1	45
378.321	1	43
378.663	1	53
379.005	1	35
379.347	1	55
379.688	1	46
380.030	1	48
380.372	1	44
380.714	1	52
381.055	1	34
381.397	1	48
381.739	1	29
382.080	1	26
382.422	1	33
382.764	1	35
383.105	1	34
383.447	1	41
383.789	1	37
384.130	1	20
384.472	1	7
384.814	1	30
385.156	1	26
385.497	1	26
385.839	1	23
386.180	1	28
386.522	1	28
386.864	1	21
387.205	1	11
387.547	1	17
387.889	1	26
388.230	1	7
388.572	1	26
388.914	1	14
389.255	1	21
389.597	1	18
389.939	1	19
390.280	1	8
390.622	1	12
390.963	1	11
391.305	1	16
391.647	1	6
391.988	1	14
392.330	1	12
392.671	1	11
393.013	1	10
393.355	1	15
393.696	1	15
394.038	1	11
394.379	1	2
394.721	1	6
395.062	1	7
395.404	1	16
395.746	1	11
396.087	1	13
396.429	1	12
396.770	1	6
397.112	1	5
397.453	1	13
397.795	1	8
398.136	1	17
398.478	1	5
398.819	1	13
399.161	1	-7
399.503	1	13
399.844	1	-2
400.186	1	6
400.527	1	25
400.869	1	9
401.210	1	13
401.552	1	12
401.893	1	15
402.235	1	9
402.576	1	7
402.918	1	10
403.259	1	4
403.601	1	20
403.942	1	10
404.284	1	-3
404.625	1	4
404.967	1	15
405.308	1	-2
405.649	1	14
405.991	1	14
406.332	1	-1
406.674	1	7
407.015	1	9
407.357	1	3
407.698	1	-1
408.040	1	5
408.381	1	5
408.722	1	1
409.064	1	6
409.405	1	13
409.747	1	5
410.088	1	7
410.430	1	3
410.771	1	7
411.112	1	5
411.454	1	4
411.795	1	9
412.137	1	1
412.478	1	16
412.819	1	-2
413.161	1	7
413.502	1	10
413.844	1	12
414.185	1	1
414.526	1	10
414.868	1	0
415.209	1	-12
415.550	1	-1
415.892	1	6
416.233	1	10
416.575	1	1
416.916	1	-2
417.257	1	12
417.599	1	5
417.940	1	0
418.281	1	-12
418.623	1	4
418.964	1	-10
419.305	1	2
419.647	1	11
419.988	1	7
420.329	1	8
420.671	1	-10
421.012	1	6
421.353	1	9
421.695	1	1
422.036	1	11
422.377	1	17
422.718	1	8
423.060	1	-8
423.401	1	2
423.742	1	-3
424.084	1	20
424.425	1	4
424.766	1	5
425.107	1	3
425.449	1	5
425.790	1	8
426.131	1	17
426.472	1	6
426.814	1	-7
427.155	1	16
427.496	1	4
427.837	1	6
428.179	1	4
428.520	1	-2
428.861	1	3
429.202	1	0
429.544	1	9
429.885	1	7
430.226	1	4
430.567	1	16
430.909	1	-4
431.250	1	16
431.591	1	1
431.932	1	2
432.273	1	4
432.615	1	6
432.956	1	8
433.297	1	0
433.638	1	9
433.979	1	2
434.320	1	3
434.662	1	-12
435.003	1	5
435.344	1	-5
435.685	1	2
436.026	1	8
436.368	1	11
436.709	1	2
437.050	1	2
437.391	1	-1
437.732	1	10
438.073	1	-1
438.414	1	0
438.756	1	1
439.097	1	8
439.438	1	0
439.779	1	18
440.120	1	-1
440.461	1	13
440.802	1	12
441.143	1	3
441.485	1	-6
441.826	1	8
442.167	1	16
442.508	1	0
442.849	1	-5
443.190	1	1
443.531	1	6
443.872	1	-11
444.213	1	3
444.554	1	-4
444.895	1	-10
445.237	1	-4
445.578	1	13
445.919	1	5
446.260	1	9
446.601	1	-1
446.942	1	8
447.283	1	18
447.624	1	2
447.965	1	0
448.306	1	7
448.647	1	10
448.988	1	13
449.329	1	2
449.670	1	-10
450.011	1	12
450.352	1	-1
450.693	1	1
451.034	1	7
451.375	1	3
451.716	1	6
452.057	1	7
452.398	1	9
452.739	1	8
453.080	1	2
453.421	1	8
453.762	1	12
454.103	1	2
454.444	1	-7
454.785	1	5
455.126	1	10
455.467	1	-8
455.808	1	20
456.149	1	7
456.490	1	11
456.831	1	-10
457.172	1	-2
457.513	1	12
457.854	1	15
458.195	1	5
458.536	1	0
458.877	1	10
459.218	1	1
459.559	1	-5
459.899	1	7
460.240	1	4
460.581	1	11
460.922	1	4
461.263	1	-4
461.604	1	7
461.945	1	6
462.286	1	-6
462.627	1	10
462.968	1	12
463.309	1	11
463.649	1	14
463.990	1	3
464.331	1	7
464.672	1	1
465.013	1	21
465.354	1	3
465.695	1	5
466.036	1	3
466.376	1	9
466.717	1	6
467.058	1	2
467.399	1	9
467.740	1	9
468.081	1	0
468.422	1	10
468.762	1	16
469.103	1	12
469.444	1	5
469.785	1	-1
470.126	1	3
470.467	1	4
470.807	1	6
471.148	1	-6
471.489	1	5
471.830	1	-3
472.171	1	6
472.511	1	0
472.852	1	13
473.193	1	9
473.534	1	11
473.875	1	4
474.215	1	11
474.556	1	5
474.897	1	5
475.238	1	-3
475.578	1	3
475.919	1	15
476.260	1	12
476.601	1	11
476.942	1	-9
477.282	1	6
477.623	1	17
477.964	1	12
478.305	1	-2
478.645	1	5
478.986	1	-5
479.327	1	-4
479.667	1	-3
480.008	1	3
480.349	1	16
480.690	1	6
481.030	1	8
481.371	1	6
481.712	1	0
482.053	1	2
482.393	1	11
482.734	1	15
483.075	1	4
483.415	1	3
483.756	1	9
484.097	1	1
484.437	1	-1
484.778	1	-3
485.119	1	9
485.459	1	11
485.800	1	7
486.141	1	15
486.481	1	7
486.822	1	7
487.163	1	21
487.503	1	1
487.844	1	12
488.185	1	4
488.525	1	18
488.866	1	10
489.207	1	12
489.547	1	11
489.888	1	12
490.228	1	8
490.569	1	18
490.910	1	10
491.250	1	3
491.591	1	1
491.932	1	10
492.272	1	15
492.613	1	4
492.953	1	4
493.294	1	11
493.635	1	7
493.975	1	12
494.316	1	10
494.656	1	16
494.997	1	6
495.337	1	11
495.678	1	12
496.019	1	-2
496.359	1	8
496.700	1	23
497.040	1	12
497.381	1	17
497.721	1	10
498.062	1	14
498.403	1	16
498.743	1	15
499.084	1	13
499.424	1	15
499.765	1	5
500.105	1	11
500.446	1	3
500.786	1	4
501.127	1	18
501.467	1	7
501.808	1	6
502.148	1	19
502.489	1	12
502.829	1	16
503.170	1	24
503.510	1	18
503.851	1	14
504.191	1	15
504.532	1	7
504.872	1	10
505.213	1	13
505.553	1	12
505.894	1	28
506.234	1	10
506.575	1	13
506.915	1	17
507.256	1	19
507.596	1	13
507.936	1	28
508.277	1	12
508.617	1	29
508.958	1	20
509.298	1	23
509.639	1	25
509.979	1	18
510.319	1	10
510.660	1	15
511.000	1	28
511.341	1	36
511.681	1	18
512.022	1	22
512.362	1	21
512.702	1	16
513.043	1	19
513.383	1	20
513.724	1	8
514.064	1	29
514.404	1	12
514.745	1	14
515.085	1	27
515.425	1	25
515.766	1	29
516.106	1	20
516.447	1	14
516.787	1	33
517.127	1	20
517.468	1	19
517.808	1	34
518.148	1	14
518.489	1	32
518.829	1	30
519.169	1	25
519.510	1	26
519.850	1	26
520.190	1	27
520.531	1	25
520.871	1	19
521.211	1	22
521.552	1	23
521.892	1	29
522.232	1	15
522.573	1	24
522.913	1	39
523.253	1	29
523.593	1	23
523.934	1	17
524.274	1	36
524.614	1	18
524.955	1	22
525.295	1	32
525.635	1	24
525.975	1	13
526.316	1	31
526.656	1	32
526.996	1	25
527.337	1	18
527.677	1	29
528.017	1	33
528.357	1	24
528.698	1	9
529.038	1	21
529.378	1	21
529.718	1	35
530.058	1	28
530.399	1	35
530.739	1	29
531.079	1	37
531.419	1	33
531.760	1	22
532.100	1	28
532.440	1	34
532.780	1	17
533.120	1	27
533.461	1	24
533.801	1	36
534.141	1	21
534.481	1	32
534.821	1	35
535.162	1	28
535.502	1	12
535.842	1	26
536.182	1	20
536.522	1	39
536.862	1	34
537.203	1	19
537.543	1	22
537.883	1	31
538.223	1	36
538.563	1	19
538.903	1	27
539.243	1	14
539.584	1	23
539.924	1	17
540.264	1	26
540.604	1	14
540.944	1	7
541.284	1	25
541.624	1	22
541.964	1	21
542.305	1	19
542.645	1	20
542.985	1	23
543.325	1	22
543.665	1	27
544.005	1	27
544.345	1	30
544.685	1	26
545.025	1	19
545.365	1	23
545.705	1	26
546.045	1	21
546.386	1	24
546.726	1	27
547.066	1	27
547.406	1	13
547.746	1	24
548.086	1	23
548.426	1	22
548.766	1	27
549.106	1	24
549.446	1	28
549.786	1	16
550.126	1	23
550.466	1	27
550.806	1	24
551.146	1	12
551.486	1	26
551.826	1	29
552.166	1	20
552.506	1	28
552.846	1	19
553.186	1	22
553.526	1	5
553.866	1	13
554.206	1	22
554.546	1	15
554.886	1	19
555.226	1	13
555.566	1	24
555.906	1	17
556.246	1	11
556.586	1	11
556.926	1	22
557.266	1	16
557.606	1	13
557.946	1	18
558.286	1	16
558.626	1	28
558.966	1	25
559.306	1	26
559.646	1	12
559.986	1	18
560.325	1	15
560.665	1	19
561.005	1	16
561.345	1	15
561.685	1	24
562.025	1	22
562.365	1	21
562.705	1	20
563.045	1	24
563.385	1	15
563.725	1	11
564.064	1	17
564.404	1	20
564.744	1	16
565.084	1	25
565.424	1	20
565.764	1	18
566.104	1	13
566.444	1	15
566.783	1	13
567.123	1	13
567.463	1	11
567.803	1	26
568.143	1	11
568.483	1	17
568.823	1	10
569.162	1	20
569.502	1	18
569.842	1	11
570.182	1	13
570.522	1	16
570.862	1	6
571.201	1	14
571.541	1	14
571.881	1	5
572.221	1	14
572.561	1	21
572.900	1	15
573.240	1	12
573.580	1	10
573.920	1	25
574.260	1	10
574.599	1	9
574.939	1	4
575.279	1	12
575.619	1	15
575.959	1	9
576.298	1	18
576.638	1	13
576.978	1	19
577.318	1	14
577.657	1	15
577.997	1	5
578.337	1	19
578.677	1	14
579.016	1	14
579.356	1	13
579.696	1	5
580.036	1	12
580.375	1	8
580.715	1	17
581.055	1	15
581.394	1	10
581.734	1	12
582.074	1	11
582.414	1	11
582.753	1	15
583.093	1	12
583.433	1	9
583.772	1	6
584.112	1	23
584.452	1	3
584.791	1	6
585.131	1	15
585.471	1	13
585.811	1	2
586.150	1	10
586.490	1	12
586.830	1	4
587.169	1	22
587.509	1	7
587.849	1	0
588.188	1	10
588.528	1	9
588.867	1	12
589.207	1	7
589.547	1	11
589.886	1	-1
590.226	1	11
590.566	1	5
590.905	1	15
591.245	1	12
591.585	1	8
591.924	1	4
592.264	1	3
592.603	1	3
592.943	1	5
593.283	1	7
593.622	1	-4
593.962	1	9
594.301	1	16
594.641	1	13
594.981	1	13
595.320	1	9
595.660	1	5
595.999	1	7
596.339	1	11
596.678	1	2
597.018	1	6
597.358	1	-7
597.697	1	11
598.037	1	1
598.376	1	4
598.716	1	12
599.055	1	-1
599.395	1	6
599.734	1	16
600.074	1	11
600.413	1	-5
600.753	1	10
601.092	1	7
601.432	1	7
601.771	1	18
602.111	1	6
602.451	1	8
602.790	1	10
603.130	1	5
603.469	1	3
603.809	1	10
604.148	1	6
604.487	1	4
604.827	1	-2
605.166	1	8
605.506	1	0
605.845	1	9
606.185	1	10
606.524	1	8
606.864	1	9
607.203	1	8
607.543	1	16
607.882	1	0
608.222	1	1
608.561	1	9
608.901	1	14
609.240	1	2
609.579	1	5
609.919	1	7
610.258	1	8
610.598	1	12
610.937	1	12
611.277	1	-5
611.616	1	8
611.955	1	17
612.295	1	2
612.634	1	16
612.974	1	11
613.313	1	5
613.652	1	24
613.992	1	6
614.331	1	0
614.671	1	15
615.010	1	7
615.349	1	15
615.689	1	13
616.028	1	7
616.368	1	6
616.707	1	18
617.046	1	4
617.386	1	7
617.725	1	10
618.064	1	-6
618.404	1	6
618.743	1	7
619.082	1	7
619.422	1	4
619.761	1	-5
620.100	1	-2
620.440	1	5
620.779	1	3
621.118	1	7
621.458	1	9
621.797	1	11
622.136	1	-2
622.476	1	-6
622.815	1	8
623.154	1	12
623.494	1	3
623.833	1	3
624.172	1	1
624.511	1	13
624.851	1	1
625.190	1	6
625.529	1	2
625.869	1	8
626.208	1	6
626.547	1	-6
626.886	1	8
627.226	1	7
627.565	1	5
627.904	1	5
628.243	1	-2
628.583	1	2
628.922	1	-2
629.261	1	8
629.600	1	8
629.940	1	-3
630.279	1	4
630.618	1	3
630.957	1	0
631.297	1	-2
631.636	1	15
631.975	1	0
632.314	1	9
632.653	1	5
632.993	1	2
633.332	1	2
633.671	1	11
634.010	1	6
634.349	1	-9
634.689	1	17
635.028	1	18
635.367	1	3
635.706	1	0
636.045	1	19
636.384	1	-9
636.724	1	11
637.063	1	5
637.402	1	19
637.741	1	2
638.080	1	20
638.419	1	-1
638.759	1	12
639.098	1	2
639.437	1	-7
639.776	1	12
640.115	1	4
640.454	1	5
640.793	1	-5
641.132	1	2
641.472	1	-8
641.811	1	7
642.150	1	-1
642.489	1	-2
642.828	1	2
643.167	1	4
643.506	1	14
643.845	1	11
644.184	1	23
644.524	1	0
644.863	1	-8
645.202	1	17
645.541	1	5
645.880	1	0
646.219	1	5
646.558	1	15
646.897	1	6
647.236	1	4
647.575	1	-1
647.914	1	0
648.253	1	8
648.592	1	3
648.931	1	11
649.270	1	-3
649.610	1	9
649.949	1	-2
650.288	1	2
650.627	1	0
650.966	1	9
651.305	1	2
651.644	1	15
651.983	1	9
652.322	1	10
652.661	1	9
653.000	1	-4
653.339	1	3
653.678	1	-1
654.017	1	6
654.356	1	5
654.695	1	7
655.034	1	8
655.373	1	12
655.712	1	-7
656.051	1	6
656.390	1	-9
656.729	1	7
657.068	1	7
657.406	1	2
657.745	1	16
658.084	1	-7
658.423	1	1
658.762	1	10
659.101	1	2
659.440	1	10
659.779	1	12
660.118	1	13
660.457	1	14
660.796	1	-8
661.135	1	-9
661.474	1	18
661.813	1	8
662.152	1	5
662.491	1	-6
662.829	1	-2
663.168	1	13
663.507	1	6
663.846	1	3
664.185	1	13
664.524	1	7
664.863	1	0
665.202	1	14
665.541	1	5
665.879	1	7
666.218	1	15
666.557	1	7
666.896	1	10
667.235	1	-3
667.574	1	-7
667.913	1	-2
668.251	1	7
668.590	1	2
668.929	1	2
669.268	1	8
669.607	1	10
669.946	1	3
670.285	1	16
670.623	1	1
670.962	1	6
671.301	1	2
671.640	1	10
671.979	1	8
672.317	1	8
672.656	1	-2
672.995	1	-1
673.334	1	6
673.673	1	4
674.011	1	13
674.350	1	8
674.689	1	9
675.028	1	5
675.367	1	-2
675.705	1	6
676.044	1	21
676.383	1	4
676.722	1	12
677.060	1	-1
677.399	1	1
677.738	1	-3
678.077	1	20
678.416	1	3
678.754	1	-1
679.093	1	14
679.432	1	7
679.771	1	18
680.109	1	9
680.448	1	14
680.787	1	5
681.125	1	0
681.464	1	5
681.803	1	15
682.142	1	-1
682.480	1	8
682.819	1	8
683.158	1	-2
683.496	1	10
683.835	1	-10
684.174	1	6
684.512	1	4
684.851	1	11
685.190	1	0
685.529	1	13
685.867	1	12
686.206	1	13
686.545	1	11
686.883	1	5
687.222	1	6
687.561	1	12
687.899	1	0
688.238	1	-8
688.577	1	17
688.746	1	-6