File: Data/GaN_170K_550ms/GaN_sample D_spot 18_UVVIS_170 K_200um_550 ms 2x2mm1_365.txt
340.368	1	-3
340.710	1	-7
341.052	1	3
341.394	1	6
341.737	1	0
342.079	1	5
342.421	1	2
342.763	1	2
343.105	1	5
343.447	1	-8
343.789	1	3
344.131	1	-1
344.473	1	0
344.815	1	5
345.157	1	0
345.499	1	-3
345.841	1	5
346.183	1	9
346.526	1	12
346.868	1	13
347.210	1	-8
347.552	1	6
347.894	1	-2
348.236	1	-4
348.578	1	7
348.920	1	2
349.262	1	5
349.604	1	4
349.946	1	5
350.288	1	-1
350.630	1	14
350.972	1	-5
351.314	1	-2
351.656	1	-2
351.998	1	-1
352.340	1	6
352.682	1	2
353.024	1	2
353.366	1	1
353.708	1	5
354.050	1	-5
354.392	1	-4
354.734	1	6
355.076	1	0
355.418	1	-14
355.760	1	-10
356.102	1	-3
356.444	1	-7
356.785	1	0
357.127	1	-3
357.469	1	-9
357.811	1	-2
358.153	1	9
358.495	1	-3
358.837	1	3
359.179	1	-4
359.521	1	5
359.863	1	1
360.205	1	8
360.547	1	5
360.889	1	4
361.231	1	9
361.572	1	1
361.914	1	-4
362.256	1	0
362.598	1	2
362.940	1	12
363.282	1	2
363.624	1	0
363.966	1	5
364.308	1	7
364.649	1	-2
364.991	1	4
365.333	1	4
365.675	1	15
366.017	1	6
366.359	1	5
366.701	1	-3
367.042	1	8
367.384	1	11
367.726	1	15
368.068	1	9
368.410	1	12
368.752	1	4
369.093	1	-5
369.435	1	4
369.777	1	-3
370.119	1	-1
370.461	1	6
370.803	1	4
371.144	1	-2
371.486	1	-1
371.828	1	3
372.170	1	5
372.512	1	-1
372.853	1	7
373.195	1	-3
373.537	1	13
373.879	1	13
374.220	1	4
374.562	1	0
374.904	1	5
375.246	1	-1
375.588	1	3
375.929	1	-1
376.271	1	15
376.613	1	6
376.955	1	2
377.296	1	5
377.638	1	-4
377.980	1	-8
378.321	1	-6
378.663	1	7
379.005	1	7
379.347	1	5
379.688	1	4
380.030	1	9
380.372	1	-2
380.714	1	14
381.055	1	-6
381.397	1	7
381.739	1	-1
382.080	1	-9
382.422	1	1
382.764	1	1
383.105	1	7
383.447	1	12
383.789	1	4
384.130	1	1
384.472	1	-14
384.814	1	-6
385.156	1	3
385.497	1	12
385.839	1	-6
386.180	1	0
386.522	1	7
386.864	1	-2
387.205	1	4
387.547	1	4
387.889	1	13
388.230	1	0
388.572	1	9
388.914	1	-3
389.255	1	8
389.597	1	-1
389.939	1	2
390.280	1	-5
390.622	1	-10
390.963	1	5
391.305	1	1
391.647	1	-8
391.988	1	9
392.330	1	-2
392.671	1	-6
393.013	1	-7
393.355	1	8
393.696	1	2
394.038	1	-6
394.379	1	-5
394.721	1	-13
395.062	1	-4
395.404	1	4
395.746	1	5
396.087	1	3
396.429	1	10
396.770	1	7
397.112	1	-1
397.453	1	9
397.795	1	-5
398.136	1	4
398.478	1	1
398.819	1	-1
399.161	1	-11
399.503	1	12
399.844	1	-8
400.186	1	-14
400.527	1	21
400.869	1	-3
401.210	1	-2
401.552	1	4
401.893	1	7
402.235	1	7
402.576	1	-3
402.918	1	0
403.259	1	5
403.601	1	1
403.942	1	3
404.284	1	-9
404.625	1	1
404.967	1	5
405.308	1	3
405.649	1	9
405.991	1	-5
406.332	1	-20
406.674	1	12
407.015	1	1
407.357	1	-4
407.698	1	-1
408.040	1	6
408.381	1	-1
408.722	1	1
409.064	1	0
409.405	1	-1
409.747	1	0
410.088	1	4
410.430	1	-2
410.771	1	7
411.112	1	6
411.454	1	10
411.795	1	-1
412.137	1	-3
412.478	1	-3
412.819	1	-6
413.161	1	7
413.502	1	4
413.844	1	3
414.185	1	-3
414.526	1	3
414.868	1	-7
415.209	1	-11
415.550	1	4
415.892	1	4
416.233	1	-3
416.575	1	-8
416.916	1	-5
417.257	1	15
417.599	1	1
417.940	1	-3
418.281	1	-13
418.623	1	1
418.964	1	-8
419.305	1	4
419.647	1	8
419.988	1	0
420.329	1	2
420.671	1	-3
421.012	1	1
421.353	1	4
421.695	1	-15
422.036	1	2
422.377	1	10
422.718	1	8
423.060	1	0
423.401	1	1
423.742	1	-11
424.084	1	22
424.425	1	-10
424.766	1	2
425.107	1	2
425.449	1	9
425.790	1	2
426.131	1	10
426.472	1	5
426.814	1	-2
427.155	1	11
427.496	1	-8
427.837	1	10
428.179	1	6
428.520	1	4
428.861	1	6
429.202	1	-3
429.544	1	-2
429.885	1	-2
430.226	1	-4
430.567	1	4
430.909	1	0
431.250	1	9
431.591	1	-2
431.932	1	-9
432.273	1	-3
432.615	1	2
432.956	1	5
433.297	1	-7
433.638	1	-1
433.979	1	-3
434.320	1	1
434.662	1	-5
435.003	1	-1
435.344	1	-2
435.685	1	1
436.026	1	-10
436.368	1	10
436.709	1	-3
437.050	1	-2
437.391	1	-4
437.732	1	2
438.073	1	-9
438.414	1	-15
438.756	1	-5
439.097	1	1
439.438	1	-5
439.779	1	7
440.120	1	-3
440.461	1	8
440.802	1	3
441.143	1	2
441.485	1	-4
441.826	1	6
442.167	1	4
442.508	1	1
442.849	1	-2
443.190	1	-7
443.531	1	1
443.872	1	-2
444.213	1	-1
444.554	1	-3
444.895	1	-9
445.237	1	-15
445.578	1	1
445.919	1	1
446.260	1	9
446.601	1	-10
446.942	1	6
447.283	1	6
447.624	1	-6
447.965	1	0
448.306	1	-2
448.647	1	2
448.988	1	9
449.329	1	8
449.670	1	-12
450.011	1	8
450.352	1	-4
450.693	1	0
451.034	1	0
451.375	1	9
451.716	1	0
452.057	1	-7
452.398	1	7
452.739	1	4
453.080	1	4
453.421	1	-2
453.762	1	-9
454.103	1	-6
454.444	1	-1
454.785	1	-4
455.126	1	6
455.467	1	-6
455.808	1	-2
456.149	1	-5
456.490	1	11
456.831	1	-8
457.172	1	0
457.513	1	8
457.854	1	9
458.195	1	3
458.536	1	-10
458.877	1	-1
459.218	1	0
459.559	1	3
459.899	1	-2
460.240	1	-7
460.581	1	3
460.922	1	3
461.263	1	0
461.604	1	3
461.945	1	0
462.286	1	-13
462.627	1	3
462.968	1	3
463.309	1	0
463.649	1	3
463.990	1	-13
464.331	1	1
464.672	1	0
465.013	1	7
465.354	1	-11
465.695	1	1
466.036	1	-13
466.376	1	0
466.717	1	3
467.058	1	7
467.399	1	5
467.740	1	1
468.081	1	-6
468.422	1	0
468.762	1	13
469.103	1	8
469.444	1	-6
469.785	1	-4
470.126	1	2
470.467	1	-1
470.807	1	0
471.148	1	-4
471.489	1	2
471.830	1	-4
472.171	1	2
472.511	1	5
472.852	1	11
473.193	1	2
473.534	1	5
473.875	1	1
474.215	1	12
474.556	1	1
474.897	1	3
475.238	1	1
475.578	1	0
475.919	1	-1
476.260	1	11
476.601	1	11
476.942	1	-8
477.282	1	11
477.623	1	2
477.964	1	7
478.305	1	-8
478.645	1	-1
478.986	1	2
479.327	1	-10
479.667	1	5
480.008	1	0
480.349	1	2
480.690	1	-3
481.030	1	3
481.371	1	2
481.712	1	-2
482.053	1	-5
482.393	1	-3
482.734	1	6
483.075	1	7
483.415	1	-4
483.756	1	-4
484.097	1	-8
484.437	1	-4
484.778	1	-11
485.119	1	7
485.459	1	-2
485.800	1	-3
486.141	1	9
486.481	1	8
486.822	1	3
487.163	1	0
487.503	1	6
487.844	1	10
488.185	1	-1
488.525	1	2
488.866	1	6
489.207	1	1
489.547	1	4
489.888	1	-5
490.228	1	2
490.569	1	-3
490.910	1	1
491.250	1	7
491.591	1	-1
491.932	1	9
492.272	1	7
492.613	1	2
492.953	1	4
493.294	1	-5
493.635	1	0
493.975	1	4
494.316	1	-2
494.656	1	5
494.997	1	-6
495.337	1	-4
495.678	1	-5
496.019	1	-4
496.359	1	6
496.700	1	7
497.040	1	-10
497.381	1	0
497.721	1	-8
498.062	1	5
498.403	1	0
498.743	1	3
499.084	1	1
499.424	1	4
499.765	1	-11
500.105	1	-2
500.446	1	-1
500.786	1	-5
501.127	1	-6
501.467	1	0
501.808	1	-8
502.148	1	9
502.489	1	3
502.829	1	-5
503.170	1	10
503.510	1	4
503.851	1	1
504.191	1	-2
504.532	1	-8
504.872	1	-2
505.213	1	-2
505.553	1	0
505.894	1	2
506.234	1	-2
506.575	1	7
506.915	1	4
507.256	1	-4
507.596	1	2
507.936	1	12
508.277	1	-8
508.617	1	5
508.958	1	5
509.298	1	5
509.639	1	10
509.979	1	6
510.319	1	-10
510.660	1	-8
511.000	1	11
511.341	1	0
511.681	1	1
512.022	1	5
512.362	1	-1
512.702	1	-3
513.043	1	2
513.383	1	9
513.724	1	4
514.064	1	6
514.404	1	1
514.745	1	3
515.085	1	-1
515.425	1	6
515.766	1	1
516.106	1	0
516.447	1	-2
516.787	1	8
517.127	1	1
517.468	1	-4
517.808	1	14
518.148	1	3
518.489	1	10
518.829	1	-10
519.169	1	5
519.510	1	8
519.850	1	-1
520.190	1	-3
520.531	1	0
520.871	1	-5
521.211	1	-2
521.552	1	2
521.892	1	-1
522.232	1	-12
522.573	1	3
522.913	1	7
523.253	1	10
523.593	1	-6
523.934	1	3
524.274	1	-5
524.614	1	1
524.955	1	-2
525.295	1	-4
525.635	1	6
525.975	1	-7
526.316	1	1
526.656	1	10
526.996	1	8
527.337	1	0
527.677	1	-8
528.017	1	3
528.357	1	5
528.698	1	1
529.038	1	1
529.378	1	-3
529.718	1	4
530.058	1	3
530.399	1	7
530.739	1	3
531.079	1	3
531.419	1	1
531.760	1	-10
532.100	1	1
532.440	1	1
532.780	1	-4
533.120	1	4
533.461	1	3
533.801	1	2
534.141	1	-3
534.481	1	4
534.821	1	3
535.162	1	2
535.502	1	-4
535.842	1	-1
536.182	1	11
536.522	1	2
536.862	1	4
537.203	1	-1
537.543	1	-1
537.883	1	7
538.223	1	3
538.563	1	-8
538.903	1	7
539.243	1	-6
539.584	1	2
539.924	1	-1
540.264	1	9
540.604	1	-1
540.944	1	-2
541.284	1	6
541.624	1	0
541.964	1	-1
542.305	1	3
542.645	1	-8
542.985	1	8
543.325	1	2
543.665	1	9
544.005	1	4
544.345	1	1
544.685	1	5
545.025	1	0
545.365	1	-5
545.705	1	8
546.045	1	4
546.386	1	-9
546.726	1	3
547.066	1	14
547.406	1	-3
547.746	1	-5
548.086	1	-5
548.426	1	2
548.766	1	4
549.106	1	2
549.446	1	0
549.786	1	3
550.126	1	-2
550.466	1	3
550.806	1	-4
551.146	1	6
551.486	1	-1
551.826	1	7
552.166	1	-2
552.506	1	3
552.846	1	-1
553.186	1	-1
553.526	1	-5
553.866	1	-3
554.206	1	7
554.546	1	-9
554.886	1	1
555.226	1	-5
555.566	1	-4
555.906	1	-6
556.246	1	-2
556.586	1	-1
556.926	1	3
557.266	1	8
557.606	1	14
557.946	1	1
558.286	1	0
558.626	1	9
558.966	1	4
559.306	1	10
559.646	1	0
559.986	1	3
560.325	1	-8
560.665	1	6
561.005	1	3
561.345	1	-1
561.685	1	1
562.025	1	-9
562.365	1	-3
562.705	1	9
563.045	1	-11
563.385	1	12
563.725	1	-4
564.064	1	3
564.404	1	-1
564.744	1	2
565.084	1	6
565.424	1	-1
565.764	1	3
566.104	1	-2
566.444	1	4
566.783	1	0
567.123	1	4
567.463	1	-5
567.803	1	9
568.143	1	-1
568.483	1	5
568.823	1	-1
569.162	1	3
569.502	1	6
569.842	1	-2
570.182	1	-8
570.522	1	1
570.862	1	-2
571.201	1	1
571.541	1	-7
571.881	1	-3
572.221	1	2
572.561	1	-11
572.900	1	2
573.240	1	-3
573.580	1	2
573.920	1	18
574.260	1	3
574.599	1	-1
574.939	1	1
575.279	1	-10
575.619	1	7
575.959	1	-5
576.298	1	5
576.638	1	6
576.978	1	-9
577.318	1	5
577.657	1	5
577.997	1	5
578.337	1	5
578.677	1	-2
579.016	1	-5
579.356	1	7
579.696	1	-10
580.036	1	-3
580.375	1	-2
580.715	1	1
581.055	1	9
581.394	1	9
581.734	1	12
582.074	1	1
582.414	1	-9
582.753	1	-4
583.093	1	2
583.433	1	9
583.772	1	-5
584.112	1	5
584.452	1	-8
584.791	1	5
585.131	1	5
585.471	1	0
585.811	1	-10
586.150	1	-3
586.490	1	1
586.830	1	-12
587.169	1	8
587.509	1	5
587.849	1	4
588.188	1	-1
588.528	1	-5
588.867	1	5
589.207	1	0
589.547	1	3
589.886	1	-8
590.226	1	-2
590.566	1	-1
590.905	1	0
591.245	1	-9
591.585	1	-7
591.924	1	-6
592.264	1	-5
592.603	1	-7
592.943	1	3
593.283	1	4
593.622	1	-15
593.962	1	0
594.301	1	4
594.641	1	7
594.981	1	15
595.320	1	5
595.660	1	3
595.999	1	4
596.339	1	6
596.678	1	-10
597.018	1	-6
597.358	1	-14
597.697	1	-1
598.037	1	-4
598.376	1	-7
598.716	1	7
599.055	1	-1
599.395	1	-1
599.734	1	2
600.074	1	4
600.413	1	-5
600.753	1	9
601.092	1	4
601.432	1	-6
601.771	1	9
602.111	1	-5
602.451	1	-3
602.790	1	11
603.130	1	-4
603.469	1	1
603.809	1	0
604.148	1	-6
604.487	1	2
604.827	1	-4
605.166	1	4
605.506	1	6
605.845	1	2
606.185	1	3
606.524	1	0
606.864	1	0
607.203	1	-2
607.543	1	3
607.882	1	-9
608.222	1	6
608.561	1	-1
608.901	1	-1
609.240	1	-2
609.579	1	5
609.919	1	-6
610.258	1	-4
610.598	1	11
610.937	1	-1
611.277	1	0
611.616	1	1
611.955	1	-3
612.295	1	3
612.634	1	1
612.974	1	-3
613.313	1	-9
613.652	1	12
613.992	1	2
614.331	1	0
614.671	1	0
615.010	1	1
615.349	1	2
615.689	1	0
616.028	1	2
616.368	1	-2
616.707	1	4
617.046	1	-1
617.386	1	7
617.725	1	5
618.064	1	-5
618.404	1	2
618.743	1	4
619.082	1	5
619.422	1	-4
619.761	1	1
620.100	1	0
620.440	1	0
620.779	1	2
621.118	1	-6
621.458	1	-3
621.797	1	2
622.136	1	-3
622.476	1	-4
622.815	1	0
623.154	1	4
623.494	1	-2
623.833	1	7
624.172	1	-10
624.511	1	10
624.851	1	5
625.190	1	16
625.529	1	4
625.869	1	5
626.208	1	2
626.547	1	3
626.886	1	-3
627.226	1	2
627.565	1	-1
627.904	1	0
628.243	1	-5
628.583	1	-8
628.922	1	-10
629.261	1	3
629.600	1	-5
629.940	1	-6
630.279	1	-3
630.618	1	-11
630.957	1	5
631.297	1	1
631.636	1	3
631.975	1	-7
632.314	1	-3
632.653	1	8
632.993	1	-9
633.332	1	-4
633.671	1	4
634.010	1	3
634.349	1	-12
634.689	1	6
635.028	1	3
635.367	1	-4
635.706	1	-1
636.045	1	8
636.384	1	0
636.724	1	9
637.063	1	1
637.402	1	4
637.741	1	-2
638.080	1	1
638.419	1	-15
638.759	1	-5
639.098	1	4
639.437	1	-9
639.776	1	-3
640.115	1	-6
640.454	1	-3
640.793	1	-4
641.132	1	1
641.472	1	-5
641.811	1	14
642.150	1	-11
642.489	1	-7
642.828	1	-3
643.167	1	2
643.506	1	0
643.845	1	13
644.184	1	7
644.524	1	-8
644.863	1	-8
645.202	1	3
645.541	1	5
645.880	1	-3
646.219	1	2
646.558	1	3
646.897	1	4
647.236	1	3
647.575	1	-8
647.914	1	6
648.253	1	4
648.592	1	-8
648.931	1	6
649.270	1	3
649.610	1	5
649.949	1	0
650.288	1	-4
650.627	1	-5
650.966	1	3
651.305	1	1
651.644	1	1
651.983	1	8
652.322	1	6
652.661	1	-1
653.000	1	-3
653.339	1	-4
653.678	1	1
654.017	1	-2
654.356	1	0
654.695	1	11
655.034	1	2
655.373	1	-3
655.712	1	-6
656.051	1	7
656.390	1	-3
656.729	1	6
657.068	1	-1
657.406	1	1
657.745	1	-3
658.084	1	-9
658.423	1	3
658.762	1	-9
659.101	1	11
659.440	1	6
659.779	1	2
660.118	1	2
660.457	1	8
660.796	1	0
661.135	1	-11
661.474	1	6
661.813	1	-5
662.152	1	3
662.491	1	-8
662.829	1	2
663.168	1	-2
663.507	1	1
663.846	1	-6
664.185	1	6
664.524	1	4
664.863	1	-2
665.202	1	19
665.541	1	-3
665.879	1	-2
666.218	1	8
666.557	1	1
666.896	1	-6
667.235	1	-6
667.574	1	-13
667.913	1	-10
668.251	1	-3
668.590	1	-7
668.929	1	-5
669.268	1	-7
669.607	1	3
669.946	1	-1
670.285	1	14
670.623	1	1
670.962	1	-12
671.301	1	2
671.640	1	2
671.979	1	-4
672.317	1	2
672.656	1	-1
672.995	1	-5
673.334	1	-3
673.673	1	0
674.011	1	7
674.350	1	16
674.689	1	4
675.028	1	-6
675.367	1	-5
675.705	1	4
676.044	1	11
676.383	1	-4
676.722	1	5
677.060	1	-4
677.399	1	-4
677.738	1	4
678.077	1	13
678.416	1	1
678.754	1	5
679.093	1	3
679.432	1	9
679.771	1	8
680.109	1	-8
680.448	1	2
680.787	1	-6
681.125	1	1
681.464	1	2
681.803	1	-2
682.142	1	-6
682.480	1	1
682.819	1	5
683.158	1	-2
683.496	1	11
683.835	1	-5
684.174	1	-3
684.512	1	0
684.851	1	-3
685.190	1	-6
685.529	1	7
685.867	1	-5
686.206	1	-1
686.545	1	8
686.883	1	2
687.222	1	-8
687.561	1	-3
687.899	1	-9
688.238	1	0
688.577	1	11
688.746	1	-8