File: Data/GaN_170K_550ms/GaN_sample D_spot 18_UVVIS_170 K_200um_550 ms 2x2mm1_64.txt
340.368	1	-1
340.710	1	-16
341.052	1	5
341.394	1	2
341.737	1	0
342.079	1	-3
342.421	1	14
342.763	1	2
343.105	1	22
343.447	1	-1
343.789	1	4
344.131	1	3
344.473	1	9
344.815	1	8
345.157	1	-2
345.499	1	7
345.841	1	3
346.183	1	9
346.526	1	16
346.868	1	8
347.210	1	-1
347.552	1	4
347.894	1	6
348.236	1	5
348.578	1	12
348.920	1	7
349.262	1	6
349.604	1	13
349.946	1	6
350.288	1	9
350.630	1	13
350.972	1	-1
351.314	1	5
351.656	1	9
351.998	1	18
352.340	1	12
352.682	1	6
353.024	1	8
353.366	1	9
353.708	1	19
354.050	1	12
354.392	1	16
354.734	1	22
355.076	1	16
355.418	1	10
355.760	1	20
356.102	1	30
356.444	1	20
356.785	1	24
357.127	1	27
357.469	1	23
357.811	1	28
358.153	1	37
358.495	1	37
358.837	1	36
359.179	1	37
359.521	1	52
359.863	1	43
360.205	1	60
360.547	1	58
360.889	1	66
361.231	1	86
361.572	1	89
361.914	1	91
362.256	1	102
362.598	1	132
362.940	1	133
363.282	1	151
363.624	1	168
363.966	1	190
364.308	1	210
364.649	1	221
364.991	1	266
365.333	1	271
365.675	1	310
366.017	1	345
366.359	1	365
366.701	1	407
367.042	1	435
367.384	1	471
367.726	1	465
368.068	1	498
368.410	1	497
368.752	1	516
369.093	1	488
369.435	1	499
369.777	1	485
370.119	1	441
370.461	1	452
370.803	1	414
371.144	1	378
371.486	1	349
371.828	1	336
372.170	1	318
372.512	1	298
372.853	1	284
373.195	1	271
373.537	1	268
373.879	1	257
374.220	1	226
374.562	1	214
374.904	1	220
375.246	1	197
375.588	1	178
375.929	1	165
376.271	1	157
376.613	1	157
376.955	1	159
377.296	1	134
377.638	1	137
377.980	1	112
378.321	1	125
378.663	1	113
379.005	1	101
379.347	1	96
379.688	1	97
380.030	1	93
380.372	1	84
380.714	1	85
381.055	1	84
381.397	1	83
381.739	1	65
382.080	1	58
382.422	1	61
382.764	1	63
383.105	1	64
383.447	1	67
383.789	1	72
384.130	1	51
384.472	1	42
384.814	1	65
385.156	1	59
385.497	1	64
385.839	1	52
386.180	1	53
386.522	1	47
386.864	1	52
387.205	1	40
387.547	1	41
387.889	1	47
388.230	1	41
388.572	1	38
388.914	1	37
389.255	1	37
389.597	1	39
389.939	1	40
390.280	1	32
390.622	1	33
390.963	1	28
391.305	1	22
391.647	1	21
391.988	1	36
392.330	1	18
392.671	1	23
393.013	1	21
393.355	1	21
393.696	1	37
394.038	1	21
394.379	1	21
394.721	1	22
395.062	1	26
395.404	1	26
395.746	1	24
396.087	1	25
396.429	1	28
396.770	1	26
397.112	1	10
397.453	1	24
397.795	1	14
398.136	1	26
398.478	1	16
398.819	1	13
399.161	1	14
399.503	1	18
399.844	1	12
400.186	1	18
400.527	1	22
400.869	1	13
401.210	1	17
401.552	1	15
401.893	1	11
402.235	1	15
402.576	1	4
402.918	1	13
403.259	1	17
403.601	1	29
403.942	1	17
404.284	1	4
404.625	1	19
404.967	1	11
405.308	1	25
405.649	1	16
405.991	1	16
406.332	1	-2
406.674	1	11
407.015	1	13
407.357	1	6
407.698	1	15
408.040	1	8
408.381	1	12
408.722	1	7
409.064	1	2
409.405	1	10
409.747	1	11
410.088	1	16
410.430	1	11
410.771	1	14
411.112	1	6
411.454	1	13
411.795	1	10
412.137	1	1
412.478	1	5
412.819	1	6
413.161	1	15
413.502	1	-1
413.844	1	17
414.185	1	5
414.526	1	8
414.868	1	3
415.209	1	-10
415.550	1	6
415.892	1	9
416.233	1	7
416.575	1	5
416.916	1	6
417.257	1	12
417.599	1	8
417.940	1	11
418.281	1	5
418.623	1	-2
418.964	1	1
419.305	1	9
419.647	1	3
419.988	1	11
420.329	1	11
420.671	1	7
421.012	1	3
421.353	1	11
421.695	1	5
422.036	1	9
422.377	1	15
422.718	1	10
423.060	1	0
423.401	1	10
423.742	1	11
424.084	1	22
424.425	1	2
424.766	1	9
425.107	1	1
425.449	1	11
425.790	1	11
426.131	1	9
426.472	1	5
426.814	1	3
427.155	1	16
427.496	1	8
427.837	1	14
428.179	1	18
428.520	1	8
428.861	1	3
429.202	1	7
429.544	1	-1
429.885	1	2
430.226	1	4
430.567	1	2
430.909	1	13
431.250	1	13
431.591	1	4
431.932	1	-1
432.273	1	4
432.615	1	10
432.956	1	7
433.297	1	4
433.638	1	16
433.979	1	1
434.320	1	5
434.662	1	-7
435.003	1	6
435.344	1	5
435.685	1	7
436.026	1	-2
436.368	1	6
436.709	1	5
437.050	1	5
437.391	1	-1
437.732	1	9
438.073	1	1
438.414	1	2
438.756	1	2
439.097	1	15
439.438	1	10
439.779	1	11
440.120	1	0
440.461	1	20
440.802	1	11
441.143	1	2
441.485	1	-1
441.826	1	9
442.167	1	11
442.508	1	4
442.849	1	0
443.190	1	10
443.531	1	7
443.872	1	-6
444.213	1	5
444.554	1	5
444.895	1	-6
445.237	1	9
445.578	1	16
445.919	1	10
446.260	1	8
446.601	1	3
446.942	1	15
447.283	1	12
447.624	1	5
447.965	1	7
448.306	1	4
448.647	1	3
448.988	1	17
449.329	1	6
449.670	1	0
450.011	1	2
450.352	1	5
450.693	1	0
451.034	1	-4
451.375	1	13
451.716	1	12
452.057	1	1
452.398	1	8
452.739	1	-1
453.080	1	1
453.421	1	2
453.762	1	6
454.103	1	3
454.444	1	2
454.785	1	5
455.126	1	15
455.467	1	-1
455.808	1	9
456.149	1	12
456.490	1	3
456.831	1	2
457.172	1	8
457.513	1	16
457.854	1	10
458.195	1	10
458.536	1	3
458.877	1	3
459.218	1	12
459.559	1	7
459.899	1	-1
460.240	1	11
460.581	1	12
460.922	1	1
461.263	1	1
461.604	1	14
461.945	1	6
462.286	1	6
462.627	1	5
462.968	1	15
463.309	1	10
463.649	1	15
463.990	1	7
464.331	1	7
464.672	1	-1
465.013	1	14
465.354	1	-3
465.695	1	15
466.036	1	-4
466.376	1	4
466.717	1	6
467.058	1	7
467.399	1	17
467.740	1	6
468.081	1	0
468.422	1	11
468.762	1	15
469.103	1	22
469.444	1	4
469.785	1	-4
470.126	1	10
470.467	1	13
470.807	1	7
471.148	1	5
471.489	1	4
471.830	1	7
472.171	1	5
472.511	1	11
472.852	1	14
473.193	1	5
473.534	1	14
473.875	1	9
474.215	1	9
474.556	1	10
474.897	1	12
475.238	1	12
475.578	1	10
475.919	1	17
476.260	1	19
476.601	1	10
476.942	1	1
477.282	1	21
477.623	1	8
477.964	1	9
478.305	1	11
478.645	1	6
478.986	1	-1
479.327	1	-1
479.667	1	12
480.008	1	11
480.349	1	3
480.690	1	11
481.030	1	17
481.371	1	8
481.712	1	16
482.053	1	1
482.393	1	2
482.734	1	21
483.075	1	18
483.415	1	20
483.756	1	16
484.097	1	4
484.437	1	11
484.778	1	1
485.119	1	16
485.459	1	17
485.800	1	18
486.141	1	22
486.481	1	16
486.822	1	19
487.163	1	20
487.503	1	19
487.844	1	21
488.185	1	16
488.525	1	24
488.866	1	21
489.207	1	29
489.547	1	28
489.888	1	17
490.228	1	19
490.569	1	29
490.910	1	20
491.250	1	20
491.591	1	21
491.932	1	28
492.272	1	32
492.613	1	20
492.953	1	25
493.294	1	32
493.635	1	20
493.975	1	28
494.316	1	28
494.656	1	33
494.997	1	22
495.337	1	19
495.678	1	34
496.019	1	17
496.359	1	29
496.700	1	36
497.040	1	38
497.381	1	31
497.721	1	28
498.062	1	26
498.403	1	43
498.743	1	36
499.084	1	31
499.424	1	32
499.765	1	23
500.105	1	26
500.446	1	31
500.786	1	32
501.127	1	32
501.467	1	28
501.808	1	34
502.148	1	44
502.489	1	44
502.829	1	46
503.170	1	40
503.510	1	39
503.851	1	47
504.191	1	34
504.532	1	33
504.872	1	46
505.213	1	41
505.553	1	44
505.894	1	58
506.234	1	38
506.575	1	54
506.915	1	51
507.256	1	44
507.596	1	48
507.936	1	52
508.277	1	41
508.617	1	57
508.958	1	50
509.298	1	48
509.639	1	59
509.979	1	48
510.319	1	42
510.660	1	43
511.000	1	54
511.341	1	56
511.681	1	55
512.022	1	53
512.362	1	44
512.702	1	53
513.043	1	49
513.383	1	50
513.724	1	51
514.064	1	57
514.404	1	47
514.745	1	38
515.085	1	57
515.425	1	49
515.766	1	54
516.106	1	59
516.447	1	58
516.787	1	59
517.127	1	75
517.468	1	60
517.808	1	54
518.148	1	56
518.489	1	63
518.829	1	57
519.169	1	63
519.510	1	62
519.850	1	55
520.190	1	55
520.531	1	65
520.871	1	57
521.211	1	46
521.552	1	62
521.892	1	67
522.232	1	55
522.573	1	68
522.913	1	59
523.253	1	67
523.593	1	66
523.934	1	63
524.274	1	58
524.614	1	58
524.955	1	59
525.295	1	56
525.635	1	65
525.975	1	66
526.316	1	60
526.656	1	69
526.996	1	61
527.337	1	57
527.677	1	56
528.017	1	72
528.357	1	60
528.698	1	45
529.038	1	61
529.378	1	58
529.718	1	72
530.058	1	75
530.399	1	74
530.739	1	64
531.079	1	65
531.419	1	69
531.760	1	64
532.100	1	65
532.440	1	77
532.780	1	57
533.120	1	66
533.461	1	66
533.801	1	67
534.141	1	63
534.481	1	72
534.821	1	64
535.162	1	66
535.502	1	58
535.842	1	70
536.182	1	59
536.522	1	56
536.862	1	61
537.203	1	60
537.543	1	61
537.883	1	66
538.223	1	54
538.563	1	50
538.903	1	67
539.243	1	49
539.584	1	49
539.924	1	57
540.264	1	62
540.604	1	54
540.944	1	51
541.284	1	56
541.624	1	50
541.964	1	57
542.305	1	57
542.645	1	51
542.985	1	67
543.325	1	61
543.665	1	57
544.005	1	65
544.345	1	54
544.685	1	57
545.025	1	51
545.365	1	56
545.705	1	63
546.045	1	62
546.386	1	60
546.726	1	41
547.066	1	65
547.406	1	46
547.746	1	46
548.086	1	60
548.426	1	73
548.766	1	60
549.106	1	63
549.446	1	56
549.786	1	57
550.126	1	54
550.466	1	53
550.806	1	59
551.146	1	55
551.486	1	48
551.826	1	56
552.166	1	56
552.506	1	58
552.846	1	53
553.186	1	48
553.526	1	50
553.866	1	47
554.206	1	46
554.546	1	52
554.886	1	46
555.226	1	41
555.566	1	59
555.906	1	42
556.246	1	54
556.586	1	42
556.926	1	52
557.266	1	41
557.606	1	53
557.946	1	48
558.286	1	51
558.626	1	49
558.966	1	50
559.306	1	54
559.646	1	29
559.986	1	52
560.325	1	34
560.665	1	48
561.005	1	45
561.345	1	32
561.685	1	46
562.025	1	32
562.365	1	37
562.705	1	55
563.045	1	46
563.385	1	45
563.725	1	29
564.064	1	43
564.404	1	39
564.744	1	52
565.084	1	38
565.424	1	40
565.764	1	43
566.104	1	34
566.444	1	49
566.783	1	46
567.123	1	44
567.463	1	37
567.803	1	37
568.143	1	39
568.483	1	37
568.823	1	44
569.162	1	48
569.502	1	32
569.842	1	29
570.182	1	33
570.522	1	40
570.862	1	37
571.201	1	37
571.541	1	30
571.881	1	30
572.221	1	30
572.561	1	38
572.900	1	24
573.240	1	32
573.580	1	32
573.920	1	43
574.260	1	46
574.599	1	40
574.939	1	26
575.279	1	37
575.619	1	46
575.959	1	23
576.298	1	32
576.638	1	47
576.978	1	36
577.318	1	28
577.657	1	36
577.997	1	35
578.337	1	27
578.677	1	28
579.016	1	27
579.356	1	25
579.696	1	24
580.036	1	28
580.375	1	21
580.715	1	32
581.055	1	37
581.394	1	35
581.734	1	28
582.074	1	37
582.414	1	25
582.753	1	19
583.093	1	38
583.433	1	28
583.772	1	27
584.112	1	24
584.452	1	27
584.791	1	30
585.131	1	28
585.471	1	32
585.811	1	19
586.150	1	24
586.490	1	37
586.830	1	24
587.169	1	35
587.509	1	26
587.849	1	16
588.188	1	24
588.528	1	28
588.867	1	15
589.207	1	21
589.547	1	25
589.886	1	19
590.226	1	16
590.566	1	16
590.905	1	29
591.245	1	15
591.585	1	14
591.924	1	18
592.264	1	13
592.603	1	16
592.943	1	19
593.283	1	17
593.622	1	9
593.962	1	10
594.301	1	26
594.641	1	27
594.981	1	27
595.320	1	13
595.660	1	22
595.999	1	17
596.339	1	18
596.678	1	12
597.018	1	6
597.358	1	10
597.697	1	19
598.037	1	11
598.376	1	11
598.716	1	19
599.055	1	15
599.395	1	14
599.734	1	21
600.074	1	10
600.413	1	8
600.753	1	22
601.092	1	19
601.432	1	5
601.771	1	32
602.111	1	10
602.451	1	15
602.790	1	28
603.130	1	16
603.469	1	17
603.809	1	10
604.148	1	19
604.487	1	15
604.827	1	1
605.166	1	24
605.506	1	13
605.845	1	17
606.185	1	21
606.524	1	19
606.864	1	8
607.203	1	14
607.543	1	18
607.882	1	22
608.222	1	13
608.561	1	22
608.901	1	14
609.240	1	7
609.579	1	11
609.919	1	12
610.258	1	13
610.598	1	12
610.937	1	18
611.277	1	19
611.616	1	18
611.955	1	19
612.295	1	15
612.634	1	12
612.974	1	13
613.313	1	9
613.652	1	14
613.992	1	11
614.331	1	15
614.671	1	13
615.010	1	19
615.349	1	22
615.689	1	14
616.028	1	12
616.368	1	12
616.707	1	17
617.046	1	6
617.386	1	2
617.725	1	21
618.064	1	10
618.404	1	7
618.743	1	21
619.082	1	25
619.422	1	4
619.761	1	5
620.100	1	14
620.440	1	12
620.779	1	15
621.118	1	8
621.458	1	8
621.797	1	17
622.136	1	9
622.476	1	4
622.815	1	17
623.154	1	12
623.494	1	14
623.833	1	16
624.172	1	12
624.511	1	26
624.851	1	6
625.190	1	15
625.529	1	24
625.869	1	26
626.208	1	15
626.547	1	12
626.886	1	12
627.226	1	13
627.565	1	18
627.904	1	12
628.243	1	7
628.583	1	0
628.922	1	4
629.261	1	16
629.600	1	7
629.940	1	14
630.279	1	9
630.618	1	4
630.957	1	12
631.297	1	14
631.636	1	21
631.975	1	13
632.314	1	16
632.653	1	16
632.993	1	8
633.332	1	12
633.671	1	15
634.010	1	13
634.349	1	-1
634.689	1	14
635.028	1	12
635.367	1	8
635.706	1	8
636.045	1	17
636.384	1	11
636.724	1	15
637.063	1	17
637.402	1	23
637.741	1	6
638.080	1	12
638.419	1	6
638.759	1	15
639.098	1	5
639.437	1	2
639.776	1	13
640.115	1	5
640.454	1	9
640.793	1	-1
641.132	1	11
641.472	1	6
641.811	1	16
642.150	1	9
642.489	1	7
642.828	1	13
643.167	1	1
643.506	1	14
643.845	1	15
644.184	1	11
644.524	1	1
644.863	1	5
645.202	1	13
645.541	1	10
645.880	1	8
646.219	1	6
646.558	1	11
646.897	1	11
647.236	1	12
647.575	1	3
647.914	1	9
648.253	1	6
648.592	1	6
648.931	1	12
649.270	1	7
649.610	1	16
649.949	1	7
650.288	1	1
650.627	1	10
650.966	1	15
651.305	1	3
651.644	1	8
651.983	1	12
652.322	1	6
652.661	1	3
653.000	1	-4
653.339	1	3
653.678	1	10
654.017	1	16
654.356	1	4
654.695	1	13
655.034	1	8
655.373	1	8
655.712	1	2
656.051	1	9
656.390	1	4
656.729	1	17
657.068	1	15
657.406	1	10
657.745	1	19
658.084	1	5
658.423	1	3
658.762	1	-4
659.101	1	10
659.440	1	8
659.779	1	8
660.118	1	6
660.457	1	10
660.796	1	7
661.135	1	-15
661.474	1	10
661.813	1	7
662.152	1	6
662.491	1	-2
662.829	1	6
663.168	1	5
663.507	1	15
663.846	1	12
664.185	1	13
664.524	1	6
664.863	1	14
665.202	1	23
665.541	1	4
665.879	1	14
666.218	1	14
666.557	1	9
666.896	1	11
667.235	1	8
667.574	1	0
667.913	1	-1
668.251	1	6
668.590	1	6
668.929	1	10
669.268	1	1
669.607	1	6
669.946	1	0
670.285	1	21
670.623	1	1
670.962	1	-1
671.301	1	2
671.640	1	13
671.979	1	7
672.317	1	15
672.656	1	17
672.995	1	0
673.334	1	3
673.673	1	3
674.011	1	12
674.350	1	2
674.689	1	16
675.028	1	2
675.367	1	5
675.705	1	17
676.044	1	11
676.383	1	17
676.722	1	25
677.060	1	1
677.399	1	13
677.738	1	2
678.077	1	19
678.416	1	3
678.754	1	8
679.093	1	16
679.432	1	8
679.771	1	12
680.109	1	5
680.448	1	9
680.787	1	6
681.125	1	18
681.464	1	8
681.803	1	17
682.142	1	8
682.480	1	12
682.819	1	14
683.158	1	6
683.496	1	12
683.835	1	8
684.174	1	9
684.512	1	8
684.851	1	5
685.190	1	2
685.529	1	21
685.867	1	16
686.206	1	20
686.545	1	17
686.883	1	11
687.222	1	10
687.561	1	17
687.899	1	2
688.238	1	11
688.577	1	28
688.746	1	1