File: Data/GaN_170K_550ms/GaN_sample D_spot 18_UVVIS_170 K_200um_550 ms 2x2mm1_165.txt
340.368	1	-2
340.710	1	-13
341.052	1	2
341.394	1	-5
341.737	1	-4
342.079	1	-2
342.421	1	15
342.763	1	4
343.105	1	5
343.447	1	-13
343.789	1	4
344.131	1	-1
344.473	1	-2
344.815	1	6
345.157	1	-2
345.499	1	-9
345.841	1	-2
346.183	1	11
346.526	1	8
346.868	1	7
347.210	1	-12
347.552	1	7
347.894	1	2
348.236	1	-3
348.578	1	2
348.920	1	-7
349.262	1	6
349.604	1	9
349.946	1	8
350.288	1	-3
350.630	1	12
350.972	1	1
351.314	1	4
351.656	1	-1
351.998	1	1
352.340	1	10
352.682	1	1
353.024	1	-3
353.366	1	3
353.708	1	7
354.050	1	1
354.392	1	-4
354.734	1	11
355.076	1	0
355.418	1	-1
355.760	1	6
356.102	1	1
356.444	1	-2
356.785	1	2
357.127	1	-3
357.469	1	-3
357.811	1	8
358.153	1	6
358.495	1	11
358.837	1	10
359.179	1	1
359.521	1	9
359.863	1	2
360.205	1	16
360.547	1	12
360.889	1	19
361.231	1	15
361.572	1	16
361.914	1	10
362.256	1	12
362.598	1	12
362.940	1	35
363.282	1	17
363.624	1	16
363.966	1	22
364.308	1	8
364.649	1	7
364.991	1	22
365.333	1	13
365.675	1	26
366.017	1	12
366.359	1	16
366.701	1	25
367.042	1	25
367.384	1	33
367.726	1	36
368.068	1	19
368.410	1	37
368.752	1	28
369.093	1	18
369.435	1	24
369.777	1	35
370.119	1	19
370.461	1	32
370.803	1	19
371.144	1	19
371.486	1	22
371.828	1	25
372.170	1	23
372.512	1	10
372.853	1	20
373.195	1	12
373.537	1	27
373.879	1	21
374.220	1	11
374.562	1	14
374.904	1	17
375.246	1	16
375.588	1	8
375.929	1	9
376.271	1	27
376.613	1	12
376.955	1	9
377.296	1	14
377.638	1	8
377.980	1	-2
378.321	1	16
378.663	1	8
379.005	1	6
379.347	1	12
379.688	1	3
380.030	1	9
380.372	1	16
380.714	1	2
381.055	1	14
381.397	1	10
381.739	1	4
382.080	1	-8
382.422	1	8
382.764	1	11
383.105	1	10
383.447	1	12
383.789	1	20
384.130	1	-1
384.472	1	9
384.814	1	14
385.156	1	-7
385.497	1	10
385.839	1	-9
386.180	1	11
386.522	1	10
386.864	1	5
387.205	1	-8
387.547	1	-2
387.889	1	17
388.230	1	6
388.572	1	11
388.914	1	4
389.255	1	9
389.597	1	3
389.939	1	-1
390.280	1	3
390.622	1	-3
390.963	1	3
391.305	1	-2
391.647	1	-5
391.988	1	7
392.330	1	1
392.671	1	0
393.013	1	4
393.355	1	4
393.696	1	4
394.038	1	-1
394.379	1	-8
394.721	1	5
395.062	1	-5
395.404	1	7
395.746	1	9
396.087	1	2
396.429	1	7
396.770	1	6
397.112	1	2
397.453	1	2
397.795	1	10
398.136	1	3
398.478	1	-1
398.819	1	6
399.161	1	-2
399.503	1	4
399.844	1	3
400.186	1	-2
400.527	1	11
400.869	1	8
401.210	1	8
401.552	1	1
401.893	1	17
402.235	1	10
402.576	1	1
402.918	1	-7
403.259	1	6
403.601	1	14
403.942	1	1
404.284	1	-4
404.625	1	-1
404.967	1	-1
405.308	1	5
405.649	1	3
405.991	1	3
406.332	1	-4
406.674	1	8
407.015	1	3
407.357	1	0
407.698	1	6
408.040	1	3
408.381	1	-2
408.722	1	-12
409.064	1	2
409.405	1	0
409.747	1	6
410.088	1	2
410.430	1	6
410.771	1	9
411.112	1	1
411.454	1	4
411.795	1	9
412.137	1	-11
412.478	1	3
412.819	1	-2
413.161	1	6
413.502	1	-2
413.844	1	-2
414.185	1	2
414.526	1	1
414.868	1	0
415.209	1	-10
415.550	1	-4
415.892	1	5
416.233	1	10
416.575	1	5
416.916	1	-1
417.257	1	5
417.599	1	-3
417.940	1	6
418.281	1	-6
418.623	1	4
418.964	1	-13
419.305	1	4
419.647	1	13
419.988	1	4
420.329	1	5
420.671	1	-5
421.012	1	2
421.353	1	-1
421.695	1	-15
422.036	1	4
422.377	1	12
422.718	1	5
423.060	1	1
423.401	1	3
423.742	1	-2
424.084	1	10
424.425	1	-9
424.766	1	-4
425.107	1	-3
425.449	1	7
425.790	1	-2
426.131	1	4
426.472	1	3
426.814	1	-9
427.155	1	6
427.496	1	8
427.837	1	14
428.179	1	9
428.520	1	-3
428.861	1	2
429.202	1	2
429.544	1	-5
429.885	1	6
430.226	1	0
430.567	1	1
430.909	1	-10
431.250	1	9
431.591	1	-2
431.932	1	-3
432.273	1	-4
432.615	1	-2
432.956	1	3
433.297	1	-2
433.638	1	5
433.979	1	-5
434.320	1	3
434.662	1	-13
435.003	1	7
435.344	1	-4
435.685	1	2
436.026	1	-2
436.368	1	6
436.709	1	-4
437.050	1	-5
437.391	1	-10
437.732	1	3
438.073	1	-1
438.414	1	-14
438.756	1	-3
439.097	1	10
439.438	1	8
439.779	1	4
440.120	1	0
440.461	1	14
440.802	1	4
441.143	1	-1
441.485	1	-5
441.826	1	8
442.167	1	10
442.508	1	-1
442.849	1	-3
443.190	1	3
443.531	1	1
443.872	1	4
444.213	1	4
444.554	1	-1
444.895	1	-19
445.237	1	-6
445.578	1	11
445.919	1	-3
446.260	1	5
446.601	1	-8
446.942	1	11
447.283	1	1
447.624	1	0
447.965	1	6
448.306	1	7
448.647	1	-14
448.988	1	16
449.329	1	-2
449.670	1	-10
450.011	1	0
450.352	1	4
450.693	1	-1
451.034	1	-1
451.375	1	7
451.716	1	5
452.057	1	7
452.398	1	-6
452.739	1	-2
453.080	1	3
453.421	1	6
453.762	1	11
454.103	1	-6
454.444	1	-4
454.785	1	-3
455.126	1	17
455.467	1	-7
455.808	1	6
456.149	1	4
456.490	1	4
456.831	1	0
457.172	1	0
457.513	1	3
457.854	1	6
458.195	1	5
458.536	1	0
458.877	1	8
459.218	1	-7
459.559	1	6
459.899	1	6
460.240	1	0
460.581	1	3
460.922	1	-6
461.263	1	-2
461.604	1	8
461.945	1	-2
462.286	1	-4
462.627	1	2
462.968	1	7
463.309	1	6
463.649	1	8
463.990	1	-3
464.331	1	5
464.672	1	-6
465.013	1	14
465.354	1	-5
465.695	1	12
466.036	1	-4
466.376	1	14
466.717	1	4
467.058	1	7
467.399	1	9
467.740	1	-2
468.081	1	-2
468.422	1	4
468.762	1	9
469.103	1	3
469.444	1	2
469.785	1	-3
470.126	1	1
470.467	1	1
470.807	1	2
471.148	1	-5
471.489	1	-6
471.830	1	-1
472.171	1	3
472.511	1	2
472.852	1	1
473.193	1	4
473.534	1	4
473.875	1	2
474.215	1	0
474.556	1	-1
474.897	1	1
475.238	1	-3
475.578	1	-3
475.919	1	-1
476.260	1	8
476.601	1	2
476.942	1	-11
477.282	1	7
477.623	1	5
477.964	1	-2
478.305	1	-8
478.645	1	4
478.986	1	-7
479.327	1	-12
479.667	1	-1
480.008	1	8
480.349	1	2
480.690	1	4
481.030	1	2
481.371	1	4
481.712	1	2
482.053	1	0
482.393	1	-10
482.734	1	11
483.075	1	6
483.415	1	2
483.756	1	3
484.097	1	-4
484.437	1	-3
484.778	1	-8
485.119	1	3
485.459	1	-6
485.800	1	1
486.141	1	13
486.481	1	1
486.822	1	5
487.163	1	9
487.503	1	0
487.844	1	5
488.185	1	2
488.525	1	-4
488.866	1	8
489.207	1	3
489.547	1	18
489.888	1	11
490.228	1	-14
490.569	1	3
490.910	1	8
491.250	1	8
491.591	1	9
491.932	1	2
492.272	1	7
492.613	1	8
492.953	1	13
493.294	1	-6
493.635	1	-3
493.975	1	9
494.316	1	5
494.656	1	0
494.997	1	5
495.337	1	12
495.678	1	2
496.019	1	-2
496.359	1	1
496.700	1	17
497.040	1	1
497.381	1	9
497.721	1	-1
498.062	1	1
498.403	1	11
498.743	1	1
499.084	1	2
499.424	1	9
499.765	1	-6
500.105	1	7
500.446	1	-4
500.786	1	-6
501.127	1	5
501.467	1	1
501.808	1	-3
502.148	1	9
502.489	1	6
502.829	1	2
503.170	1	5
503.510	1	-5
503.851	1	4
504.191	1	-2
504.532	1	-15
504.872	1	7
505.213	1	-2
505.553	1	7
505.894	1	15
506.234	1	1
506.575	1	11
506.915	1	10
507.256	1	-3
507.596	1	9
507.936	1	15
508.277	1	-3
508.617	1	10
508.958	1	-2
509.298	1	0
509.639	1	10
509.979	1	9
510.319	1	6
510.660	1	-11
511.000	1	0
511.341	1	1
511.681	1	5
512.022	1	9
512.362	1	0
512.702	1	4
513.043	1	3
513.383	1	0
513.724	1	-3
514.064	1	8
514.404	1	-7
514.745	1	-2
515.085	1	3
515.425	1	7
515.766	1	3
516.106	1	5
516.447	1	1
516.787	1	8
517.127	1	5
517.468	1	2
517.808	1	9
518.148	1	5
518.489	1	0
518.829	1	1
519.169	1	3
519.510	1	11
519.850	1	7
520.190	1	6
520.531	1	6
520.871	1	2
521.211	1	12
521.552	1	6
521.892	1	1
522.232	1	1
522.573	1	6
522.913	1	5
523.253	1	13
523.593	1	0
523.934	1	9
524.274	1	5
524.614	1	9
524.955	1	4
525.295	1	4
525.635	1	4
525.975	1	17
526.316	1	18
526.656	1	7
526.996	1	2
527.337	1	-3
527.677	1	-2
528.017	1	4
528.357	1	1
528.698	1	-4
529.038	1	2
529.378	1	3
529.718	1	11
530.058	1	7
530.399	1	9
530.739	1	13
531.079	1	11
531.419	1	17
531.760	1	-1
532.100	1	2
532.440	1	8
532.780	1	-3
533.120	1	8
533.461	1	3
533.801	1	7
534.141	1	10
534.481	1	13
534.821	1	9
535.162	1	7
535.502	1	5
535.842	1	8
536.182	1	7
536.522	1	9
536.862	1	15
537.203	1	4
537.543	1	1
537.883	1	6
538.223	1	4
538.563	1	5
538.903	1	-4
539.243	1	9
539.584	1	1
539.924	1	-1
540.264	1	10
540.604	1	3
540.944	1	2
541.284	1	5
541.624	1	2
541.964	1	-3
542.305	1	4
542.645	1	2
542.985	1	10
543.325	1	7
543.665	1	13
544.005	1	9
544.345	1	5
544.685	1	3
545.025	1	-1
545.365	1	8
545.705	1	5
546.045	1	10
546.386	1	2
546.726	1	1
547.066	1	19
547.406	1	8
547.746	1	-5
548.086	1	3
548.426	1	12
548.766	1	0
549.106	1	13
549.446	1	3
549.786	1	-3
550.126	1	3
550.466	1	7
550.806	1	3
551.146	1	10
551.486	1	9
551.826	1	5
552.166	1	8
552.506	1	7
552.846	1	4
553.186	1	6
553.526	1	0
553.866	1	3
554.206	1	4
554.546	1	0
554.886	1	0
555.226	1	-6
555.566	1	5
555.906	1	-9
556.246	1	3
556.586	1	3
556.926	1	3
557.266	1	6
557.606	1	6
557.946	1	7
558.286	1	0
558.626	1	12
558.966	1	12
559.306	1	8
559.646	1	3
559.986	1	4
560.325	1	-1
560.665	1	1
561.005	1	1
561.345	1	5
561.685	1	6
562.025	1	-12
562.365	1	-2
562.705	1	7
563.045	1	7
563.385	1	4
563.725	1	-11
564.064	1	2
564.404	1	-6
564.744	1	9
565.084	1	11
565.424	1	6
565.764	1	-7
566.104	1	4
566.444	1	2
566.783	1	7
567.123	1	0
567.463	1	-2
567.803	1	0
568.143	1	9
568.483	1	7
568.823	1	-1
569.162	1	10
569.502	1	7
569.842	1	-6
570.182	1	4
570.522	1	-4
570.862	1	3
571.201	1	8
571.541	1	0
571.881	1	-8
572.221	1	-1
572.561	1	3
572.900	1	-1
573.240	1	9
573.580	1	5
573.920	1	13
574.260	1	8
574.599	1	4
574.939	1	0
575.279	1	-5
575.619	1	8
575.959	1	2
576.298	1	2
576.638	1	5
576.978	1	1
577.318	1	-3
577.657	1	-1
577.997	1	-6
578.337	1	6
578.677	1	8
579.016	1	5
579.356	1	-1
579.696	1	-4
580.036	1	-1
580.375	1	2
580.715	1	5
581.055	1	1
581.394	1	9
581.734	1	13
582.074	1	-4
582.414	1	2
582.753	1	-2
583.093	1	13
583.433	1	10
583.772	1	6
584.112	1	10
584.452	1	-4
584.791	1	-1
585.131	1	14
585.471	1	8
585.811	1	-10
586.150	1	-7
586.490	1	0
586.830	1	-2
587.169	1	14
587.509	1	-2
587.849	1	1
588.188	1	5
588.528	1	-2
588.867	1	7
589.207	1	2
589.547	1	12
589.886	1	-2
590.226	1	-1
590.566	1	2
590.905	1	15
591.245	1	0
591.585	1	1
591.924	1	-5
592.264	1	-5
592.603	1	4
592.943	1	8
593.283	1	3
593.622	1	-12
593.962	1	9
594.301	1	3
594.641	1	7
594.981	1	6
595.320	1	4
595.660	1	-1
595.999	1	4
596.339	1	11
596.678	1	0
597.018	1	-11
597.358	1	-8
597.697	1	0
598.037	1	8
598.376	1	-6
598.716	1	7
599.055	1	4
599.395	1	-7
599.734	1	8
600.074	1	-3
600.413	1	0
600.753	1	5
601.092	1	-4
601.432	1	-8
601.771	1	4
602.111	1	6
602.451	1	-4
602.790	1	4
603.130	1	-4
603.469	1	10
603.809	1	4
604.148	1	6
604.487	1	12
604.827	1	-7
605.166	1	10
605.506	1	-5
605.845	1	5
606.185	1	5
606.524	1	11
606.864	1	2
607.203	1	2
607.543	1	4
607.882	1	1
608.222	1	1
608.561	1	-3
608.901	1	18
609.240	1	-2
609.579	1	6
609.919	1	-2
610.258	1	2
610.598	1	10
610.937	1	-4
611.277	1	2
611.616	1	-6
611.955	1	-2
612.295	1	0
612.634	1	-8
612.974	1	12
613.313	1	-12
613.652	1	3
613.992	1	4
614.331	1	1
614.671	1	4
615.010	1	0
615.349	1	8
615.689	1	4
616.028	1	-2
616.368	1	3
616.707	1	1
617.046	1	-3
617.386	1	-2
617.725	1	1
618.064	1	-7
618.404	1	7
618.743	1	2
619.082	1	10
619.422	1	-8
619.761	1	-5
620.100	1	-4
620.440	1	3
620.779	1	-5
621.118	1	-7
621.458	1	0
621.797	1	10
622.136	1	3
622.476	1	-11
622.815	1	1
623.154	1	8
623.494	1	-5
623.833	1	2
624.172	1	3
624.511	1	5
624.851	1	7
625.190	1	3
625.529	1	1
625.869	1	2
626.208	1	0
626.547	1	-10
626.886	1	6
627.226	1	2
627.565	1	-2
627.904	1	1
628.243	1	2
628.583	1	-2
628.922	1	-12
629.261	1	14
629.600	1	-9
629.940	1	3
630.279	1	-2
630.618	1	-1
630.957	1	6
631.297	1	-12
631.636	1	5
631.975	1	-1
632.314	1	-3
632.653	1	6
632.993	1	-2
633.332	1	0
633.671	1	11
634.010	1	2
634.349	1	-11
634.689	1	7
635.028	1	13
635.367	1	-7
635.706	1	-5
636.045	1	5
636.384	1	-3
636.724	1	12
637.063	1	-3
637.402	1	5
637.741	1	-5
638.080	1	10
638.419	1	-4
638.759	1	1
639.098	1	-8
639.437	1	-5
639.776	1	1
640.115	1	10
640.454	1	0
640.793	1	-1
641.132	1	-4
641.472	1	-10
641.811	1	6
642.150	1	-4
642.489	1	-3
642.828	1	-3
643.167	1	-3
643.506	1	10
643.845	1	5
644.184	1	5
644.524	1	-1
644.863	1	-14
645.202	1	10
645.541	1	1
645.880	1	12
646.219	1	3
646.558	1	5
646.897	1	6
647.236	1	0
647.575	1	-1
647.914	1	10
648.253	1	0
648.592	1	2
648.931	1	-3
649.270	1	-10
649.610	1	0
649.949	1	0
650.288	1	1
650.627	1	-5
650.966	1	7
651.305	1	-10
651.644	1	7
651.983	1	-6
652.322	1	2
652.661	1	-5
653.000	1	-6
653.339	1	-4
653.678	1	4
654.017	1	4
654.356	1	-1
654.695	1	5
655.034	1	-14
655.373	1	7
655.712	1	-4
656.051	1	5
656.390	1	-2
656.729	1	-4
657.068	1	8
657.406	1	-10
657.745	1	9
658.084	1	-8
658.423	1	-3
658.762	1	-5
659.101	1	-8
659.440	1	-1
659.779	1	5
660.118	1	9
660.457	1	-2
660.796	1	0
661.135	1	-16
661.474	1	7
661.813	1	1
662.152	1	-1
662.491	1	-5
662.829	1	-6
663.168	1	8
663.507	1	7
663.846	1	10
664.185	1	7
664.524	1	5
664.863	1	-1
665.202	1	11
665.541	1	9
665.879	1	8
666.218	1	9
666.557	1	-6
666.896	1	1
667.235	1	-3
667.574	1	-12
667.913	1	-4
668.251	1	13
668.590	1	-3
668.929	1	7
669.268	1	2
669.607	1	-1
669.946	1	5
670.285	1	6
670.623	1	0
670.962	1	-3
671.301	1	6
671.640	1	7
671.979	1	-2
672.317	1	1
672.656	1	9
672.995	1	-1
673.334	1	-2
673.673	1	2
674.011	1	10
674.350	1	8
674.689	1	3
675.028	1	-5
675.367	1	-4
675.705	1	9
676.044	1	12
676.383	1	-1
676.722	1	14
677.060	1	-16
677.399	1	0
677.738	1	7
678.077	1	9
678.416	1	-4
678.754	1	6
679.093	1	2
679.432	1	2
679.771	1	6
680.109	1	2
680.448	1	6
680.787	1	-7
681.125	1	16
681.464	1	3
681.803	1	12
682.142	1	-9
682.480	1	9
682.819	1	15
683.158	1	-1
683.496	1	-8
683.835	1	-7
684.174	1	1
684.512	1	9
684.851	1	6
685.190	1	-5
685.529	1	16
685.867	1	4
686.206	1	11
686.545	1	18
686.883	1	5
687.222	1	1
687.561	1	-1
687.899	1	-8
688.238	1	0
688.577	1	9
688.746	1	-15