File: Data/GaN_170K_550ms/GaN_sample D_spot 18_UVVIS_170 K_200um_550 ms 2x2mm1_345.txt
340.368	1	-5
340.710	1	-10
341.052	1	-2
341.394	1	-5
341.737	1	-6
342.079	1	-9
342.421	1	3
342.763	1	0
343.105	1	11
343.447	1	-2
343.789	1	9
344.131	1	-6
344.473	1	-8
344.815	1	5
345.157	1	-1
345.499	1	-5
345.841	1	-1
346.183	1	4
346.526	1	4
346.868	1	3
347.210	1	-5
347.552	1	1
347.894	1	-5
348.236	1	-2
348.578	1	18
348.920	1	8
349.262	1	4
349.604	1	2
349.946	1	13
350.288	1	2
350.630	1	12
350.972	1	-5
351.314	1	2
351.656	1	-5
351.998	1	7
352.340	1	-3
352.682	1	-1
353.024	1	-5
353.366	1	-5
353.708	1	5
354.050	1	-2
354.392	1	3
354.734	1	-8
355.076	1	-4
355.418	1	-3
355.760	1	-3
356.102	1	2
356.444	1	-2
356.785	1	0
357.127	1	0
357.469	1	-6
357.811	1	10
358.153	1	6
358.495	1	-1
358.837	1	-1
359.179	1	-9
359.521	1	11
359.863	1	2
360.205	1	6
360.547	1	15
360.889	1	7
361.231	1	0
361.572	1	10
361.914	1	-2
362.256	1	0
362.598	1	-6
362.940	1	15
363.282	1	4
363.624	1	9
363.966	1	-2
364.308	1	5
364.649	1	2
364.991	1	18
365.333	1	5
365.675	1	6
366.017	1	2
366.359	1	7
366.701	1	6
367.042	1	-10
367.384	1	14
367.726	1	15
368.068	1	6
368.410	1	17
368.752	1	11
369.093	1	0
369.435	1	10
369.777	1	6
370.119	1	5
370.461	1	13
370.803	1	-7
371.144	1	4
371.486	1	-4
371.828	1	4
372.170	1	-2
372.512	1	-2
372.853	1	13
373.195	1	2
373.537	1	12
373.879	1	18
374.220	1	16
374.562	1	0
374.904	1	-9
375.246	1	6
375.588	1	-2
375.929	1	4
376.271	1	12
376.613	1	3
376.955	1	15
377.296	1	0
377.638	1	2
377.980	1	-5
378.321	1	1
378.663	1	-2
379.005	1	-3
379.347	1	-6
379.688	1	-1
380.030	1	6
380.372	1	4
380.714	1	7
381.055	1	5
381.397	1	8
381.739	1	-2
382.080	1	-4
382.422	1	2
382.764	1	2
383.105	1	-4
383.447	1	4
383.789	1	16
384.130	1	3
384.472	1	-5
384.814	1	-1
385.156	1	-1
385.497	1	4
385.839	1	-2
386.180	1	12
386.522	1	-3
386.864	1	-2
387.205	1	-1
387.547	1	3
387.889	1	7
388.230	1	-3
388.572	1	-1
388.914	1	-1
389.255	1	9
389.597	1	-1
389.939	1	-4
390.280	1	1
390.622	1	-4
390.963	1	3
391.305	1	-3
391.647	1	-7
391.988	1	10
392.330	1	3
392.671	1	-7
393.013	1	7
393.355	1	2
393.696	1	3
394.038	1	-5
394.379	1	-6
394.721	1	-4
395.062	1	-11
395.404	1	4
395.746	1	9
396.087	1	3
396.429	1	8
396.770	1	2
397.112	1	0
397.453	1	4
397.795	1	-7
398.136	1	10
398.478	1	2
398.819	1	4
399.161	1	-4
399.503	1	0
399.844	1	-10
400.186	1	-8
400.527	1	14
400.869	1	-1
401.210	1	7
401.552	1	4
401.893	1	2
402.235	1	6
402.576	1	-1
402.918	1	3
403.259	1	5
403.601	1	7
403.942	1	12
404.284	1	-3
404.625	1	2
404.967	1	8
405.308	1	3
405.649	1	8
405.991	1	13
406.332	1	-11
406.674	1	7
407.015	1	4
407.357	1	-3
407.698	1	4
408.040	1	0
408.381	1	3
408.722	1	-1
409.064	1	-2
409.405	1	5
409.747	1	-9
410.088	1	8
410.430	1	6
410.771	1	7
411.112	1	13
411.454	1	-4
411.795	1	9
412.137	1	-9
412.478	1	-3
412.819	1	-9
413.161	1	-5
413.502	1	-8
413.844	1	-3
414.185	1	-4
414.526	1	6
414.868	1	-3
415.209	1	-15
415.550	1	3
415.892	1	6
416.233	1	3
416.575	1	0
416.916	1	-13
417.257	1	8
417.599	1	0
417.940	1	-4
418.281	1	-11
418.623	1	-2
418.964	1	3
419.305	1	6
419.647	1	-2
419.988	1	2
420.329	1	-3
420.671	1	-7
421.012	1	1
421.353	1	-3
421.695	1	-14
422.036	1	-6
422.377	1	6
422.718	1	-5
423.060	1	-1
423.401	1	-9
423.742	1	-6
424.084	1	6
424.425	1	-1
424.766	1	-5
425.107	1	-3
425.449	1	-3
425.790	1	-4
426.131	1	3
426.472	1	-11
426.814	1	-5
427.155	1	0
427.496	1	-1
427.837	1	5
428.179	1	-8
428.520	1	2
428.861	1	5
429.202	1	-3
429.544	1	-4
429.885	1	5
430.226	1	-5
430.567	1	1
430.909	1	-6
431.250	1	6
431.591	1	11
431.932	1	0
432.273	1	4
432.615	1	4
432.956	1	-1
433.297	1	-2
433.638	1	4
433.979	1	1
434.320	1	4
434.662	1	-12
435.003	1	3
435.344	1	-9
435.685	1	-6
436.026	1	-1
436.368	1	12
436.709	1	0
437.050	1	-4
437.391	1	-8
437.732	1	8
438.073	1	-1
438.414	1	-11
438.756	1	8
439.097	1	3
439.438	1	1
439.779	1	4
440.120	1	-7
440.461	1	13
440.802	1	10
441.143	1	0
441.485	1	-14
441.826	1	-1
442.167	1	9
442.508	1	-5
442.849	1	-4
443.190	1	3
443.531	1	-1
443.872	1	-13
444.213	1	-6
444.554	1	-1
444.895	1	-15
445.237	1	-12
445.578	1	9
445.919	1	4
446.260	1	2
446.601	1	-11
446.942	1	-2
447.283	1	4
447.624	1	3
447.965	1	-9
448.306	1	-2
448.647	1	-4
448.988	1	7
449.329	1	-5
449.670	1	-9
450.011	1	3
450.352	1	-1
450.693	1	-2
451.034	1	1
451.375	1	-4
451.716	1	1
452.057	1	9
452.398	1	12
452.739	1	4
453.080	1	4
453.421	1	3
453.762	1	-2
454.103	1	-1
454.444	1	-2
454.785	1	1
455.126	1	6
455.467	1	-9
455.808	1	12
456.149	1	0
456.490	1	0
456.831	1	-11
457.172	1	-2
457.513	1	12
457.854	1	2
458.195	1	5
458.536	1	-5
458.877	1	-2
459.218	1	-5
459.559	1	0
459.899	1	4
460.240	1	2
460.581	1	4
460.922	1	-3
461.263	1	1
461.604	1	9
461.945	1	-6
462.286	1	-7
462.627	1	10
462.968	1	3
463.309	1	10
463.649	1	0
463.990	1	-1
464.331	1	1
464.672	1	0
465.013	1	9
465.354	1	-4
465.695	1	7
466.036	1	-8
466.376	1	5
466.717	1	-6
467.058	1	6
467.399	1	7
467.740	1	-5
468.081	1	-3
468.422	1	2
468.762	1	1
469.103	1	3
469.444	1	-7
469.785	1	-12
470.126	1	9
470.467	1	-2
470.807	1	-6
471.148	1	-10
471.489	1	-1
471.830	1	-7
472.171	1	5
472.511	1	-3
472.852	1	2
473.193	1	-1
473.534	1	3
473.875	1	1
474.215	1	0
474.556	1	-8
474.897	1	-3
475.238	1	3
475.578	1	-5
475.919	1	6
476.260	1	20
476.601	1	-4
476.942	1	-4
477.282	1	8
477.623	1	3
477.964	1	5
478.305	1	0
478.645	1	1
478.986	1	2
479.327	1	-11
479.667	1	-6
480.008	1	3
480.349	1	5
480.690	1	4
481.030	1	1
481.371	1	5
481.712	1	-1
482.053	1	-6
482.393	1	-5
482.734	1	7
483.075	1	-2
483.415	1	-2
483.756	1	6
484.097	1	-8
484.437	1	-6
484.778	1	-2
485.119	1	4
485.459	1	-1
485.800	1	-2
486.141	1	4
486.481	1	1
486.822	1	0
487.163	1	0
487.503	1	3
487.844	1	4
488.185	1	2
488.525	1	3
488.866	1	3
489.207	1	3
489.547	1	6
489.888	1	4
490.228	1	-4
490.569	1	5
490.910	1	-3
491.250	1	4
491.591	1	-2
491.932	1	-3
492.272	1	8
492.613	1	-8
492.953	1	-1
493.294	1	2
493.635	1	-9
493.975	1	6
494.316	1	4
494.656	1	0
494.997	1	-12
495.337	1	8
495.678	1	5
496.019	1	-12
496.359	1	7
496.700	1	1
497.040	1	-6
497.381	1	0
497.721	1	-12
498.062	1	1
498.403	1	14
498.743	1	12
499.084	1	-2
499.424	1	13
499.765	1	-14
500.105	1	-2
500.446	1	6
500.786	1	-4
501.127	1	4
501.467	1	-3
501.808	1	2
502.148	1	-1
502.489	1	-12
502.829	1	2
503.170	1	15
503.510	1	5
503.851	1	-5
504.191	1	-8
504.532	1	-3
504.872	1	5
505.213	1	-9
505.553	1	-6
505.894	1	6
506.234	1	-7
506.575	1	12
506.915	1	5
507.256	1	-11
507.596	1	2
507.936	1	15
508.277	1	-4
508.617	1	4
508.958	1	-9
509.298	1	-12
509.639	1	12
509.979	1	4
510.319	1	-8
510.660	1	-9
511.000	1	6
511.341	1	1
511.681	1	1
512.022	1	1
512.362	1	-6
512.702	1	-3
513.043	1	3
513.383	1	3
513.724	1	-7
514.064	1	2
514.404	1	-16
514.745	1	-4
515.085	1	2
515.425	1	7
515.766	1	2
516.106	1	5
516.447	1	0
516.787	1	-1
517.127	1	7
517.468	1	6
517.808	1	6
518.148	1	1
518.489	1	8
518.829	1	6
519.169	1	0
519.510	1	9
519.850	1	-4
520.190	1	-1
520.531	1	11
520.871	1	3
521.211	1	2
521.552	1	2
521.892	1	1
522.232	1	-7
522.573	1	7
522.913	1	-4
523.253	1	11
523.593	1	10
523.934	1	7
524.274	1	-2
524.614	1	9
524.955	1	-2
525.295	1	6
525.635	1	4
525.975	1	-1
526.316	1	6
526.656	1	9
526.996	1	-7
527.337	1	-3
527.677	1	-7
528.017	1	3
528.357	1	-7
528.698	1	-9
529.038	1	2
529.378	1	6
529.718	1	2
530.058	1	18
530.399	1	9
530.739	1	9
531.079	1	1
531.419	1	3
531.760	1	1
532.100	1	-4
532.440	1	-3
532.780	1	-6
533.120	1	13
533.461	1	-1
533.801	1	7
534.141	1	-4
534.481	1	8
534.821	1	5
535.162	1	3
535.502	1	2
535.842	1	6
536.182	1	-5
536.522	1	7
536.862	1	6
537.203	1	5
537.543	1	-1
537.883	1	0
538.223	1	0
538.563	1	5
538.903	1	8
539.243	1	-1
539.584	1	-5
539.924	1	-5
540.264	1	7
540.604	1	-4
540.944	1	-7
541.284	1	10
541.624	1	-12
541.964	1	8
542.305	1	3
542.645	1	-11
542.985	1	-1
543.325	1	5
543.665	1	-2
544.005	1	2
544.345	1	0
544.685	1	6
545.025	1	4
545.365	1	6
545.705	1	7
546.045	1	-8
546.386	1	2
546.726	1	-1
547.066	1	12
547.406	1	0
547.746	1	-8
548.086	1	12
548.426	1	7
548.766	1	-1
549.106	1	7
549.446	1	2
549.786	1	0
550.126	1	-1
550.466	1	-5
550.806	1	2
551.146	1	9
551.486	1	-1
551.826	1	-2
552.166	1	-1
552.506	1	2
552.846	1	3
553.186	1	6
553.526	1	-2
553.866	1	-8
554.206	1	1
554.546	1	-4
554.886	1	-2
555.226	1	-18
555.566	1	-2
555.906	1	-3
556.246	1	1
556.586	1	3
556.926	1	6
557.266	1	4
557.606	1	2
557.946	1	1
558.286	1	1
558.626	1	11
558.966	1	7
559.306	1	10
559.646	1	-4
559.986	1	1
560.325	1	-1
560.665	1	16
561.005	1	-1
561.345	1	-3
561.685	1	-2
562.025	1	-4
562.365	1	3
562.705	1	-1
563.045	1	-6
563.385	1	5
563.725	1	-10
564.064	1	3
564.404	1	1
564.744	1	0
565.084	1	9
565.424	1	5
565.764	1	0
566.104	1	-1
566.444	1	10
566.783	1	-1
567.123	1	-1
567.463	1	-5
567.803	1	0
568.143	1	-2
568.483	1	7
568.823	1	-4
569.162	1	-4
569.502	1	4
569.842	1	-4
570.182	1	-2
570.522	1	1
570.862	1	-6
571.201	1	6
571.541	1	-6
571.881	1	-1
572.221	1	-5
572.561	1	-1
572.900	1	0
573.240	1	8
573.580	1	-2
573.920	1	5
574.260	1	3
574.599	1	-6
574.939	1	-2
575.279	1	-2
575.619	1	10
575.959	1	-5
576.298	1	4
576.638	1	5
576.978	1	-2
577.318	1	7
577.657	1	2
577.997	1	-6
578.337	1	1
578.677	1	1
579.016	1	6
579.356	1	0
579.696	1	-8
580.036	1	2
580.375	1	0
580.715	1	3
581.055	1	6
581.394	1	-1
581.734	1	3
582.074	1	7
582.414	1	-6
582.753	1	5
583.093	1	-1
583.433	1	5
583.772	1	-4
584.112	1	9
584.452	1	1
584.791	1	2
585.131	1	8
585.471	1	12
585.811	1	-9
586.150	1	-3
586.490	1	6
586.830	1	-6
587.169	1	12
587.509	1	-2
587.849	1	0
588.188	1	3
588.528	1	1
588.867	1	11
589.207	1	2
589.547	1	10
589.886	1	-7
590.226	1	-1
590.566	1	2
590.905	1	1
591.245	1	1
591.585	1	0
591.924	1	-7
592.264	1	-6
592.603	1	-5
592.943	1	5
593.283	1	-3
593.622	1	-13
593.962	1	1
594.301	1	5
594.641	1	10
594.981	1	11
595.320	1	4
595.660	1	-1
595.999	1	5
596.339	1	2
596.678	1	-9
597.018	1	-1
597.358	1	-13
597.697	1	-2
598.037	1	-1
598.376	1	-2
598.716	1	7
599.055	1	6
599.395	1	-9
599.734	1	8
600.074	1	2
600.413	1	-9
600.753	1	4
601.092	1	6
601.432	1	-5
601.771	1	1
602.111	1	-3
602.451	1	-1
602.790	1	1
603.130	1	-7
603.469	1	0
603.809	1	5
604.148	1	5
604.487	1	-5
604.827	1	-8
605.166	1	9
605.506	1	-4
605.845	1	7
606.185	1	0
606.524	1	6
606.864	1	4
607.203	1	2
607.543	1	8
607.882	1	-3
608.222	1	-7
608.561	1	4
608.901	1	0
609.240	1	6
609.579	1	-11
609.919	1	0
610.258	1	4
610.598	1	4
610.937	1	0
611.277	1	2
611.616	1	-1
611.955	1	-2
612.295	1	-2
612.634	1	-2
612.974	1	5
613.313	1	-2
613.652	1	11
613.992	1	7
614.331	1	-7
614.671	1	-2
615.010	1	5
615.349	1	7
615.689	1	17
616.028	1	-11
616.368	1	-9
616.707	1	1
617.046	1	-2
617.386	1	-3
617.725	1	-2
618.064	1	-7
618.404	1	-12
618.743	1	10
619.082	1	3
619.422	1	-10
619.761	1	-6
620.100	1	-2
620.440	1	-1
620.779	1	3
621.118	1	-4
621.458	1	-5
621.797	1	4
622.136	1	1
622.476	1	-10
622.815	1	1
623.154	1	7
623.494	1	2
623.833	1	11
624.172	1	4
624.511	1	-1
624.851	1	3
625.190	1	4
625.529	1	7
625.869	1	11
626.208	1	5
626.547	1	-5
626.886	1	4
627.226	1	2
627.565	1	1
627.904	1	-1
628.243	1	6
628.583	1	-9
628.922	1	-10
629.261	1	4
629.600	1	-9
629.940	1	-10
630.279	1	4
630.618	1	0
630.957	1	5
631.297	1	-6
631.636	1	16
631.975	1	5
632.314	1	7
632.653	1	7
632.993	1	-6
633.332	1	3
633.671	1	1
634.010	1	7
634.349	1	1
634.689	1	6
635.028	1	-6
635.367	1	-2
635.706	1	3
636.045	1	10
636.384	1	-12
636.724	1	2
637.063	1	5
637.402	1	11
637.741	1	-4
638.080	1	7
638.419	1	-9
638.759	1	4
639.098	1	-15
639.437	1	-4
639.776	1	-4
640.115	1	16
640.454	1	-4
640.793	1	-9
641.132	1	9
641.472	1	-11
641.811	1	5
642.150	1	1
642.489	1	-4
642.828	1	5
643.167	1	-7
643.506	1	14
643.845	1	9
644.184	1	13
644.524	1	4
644.863	1	-12
645.202	1	8
645.541	1	4
645.880	1	5
646.219	1	2
646.558	1	2
646.897	1	3
647.236	1	-7
647.575	1	-9
647.914	1	-6
648.253	1	-2
648.592	1	7
648.931	1	2
649.270	1	-8
649.610	1	-1
649.949	1	-8
650.288	1	7
650.627	1	-13
650.966	1	5
651.305	1	-3
651.644	1	12
651.983	1	4
652.322	1	7
652.661	1	0
653.000	1	-10
653.339	1	-1
653.678	1	-3
654.017	1	-2
654.356	1	-2
654.695	1	6
655.034	1	1
655.373	1	-1
655.712	1	-14
656.051	1	0
656.390	1	5
656.729	1	2
657.068	1	8
657.406	1	0
657.745	1	11
658.084	1	-14
658.423	1	0
658.762	1	-2
659.101	1	-9
659.440	1	1
659.779	1	5
660.118	1	0
660.457	1	12
660.796	1	-5
661.135	1	-12
661.474	1	8
661.813	1	1
662.152	1	-1
662.491	1	-5
662.829	1	-1
663.168	1	7
663.507	1	4
663.846	1	0
664.185	1	3
664.524	1	-1
664.863	1	1
665.202	1	10
665.541	1	-7
665.879	1	7
666.218	1	7
666.557	1	-2
666.896	1	11
667.235	1	-7
667.574	1	-7
667.913	1	-9
668.251	1	8
668.590	1	-1
668.929	1	-1
669.268	1	-6
669.607	1	1
669.946	1	10
670.285	1	8
670.623	1	0
670.962	1	6
671.301	1	5
671.640	1	0
671.979	1	3
672.317	1	2
672.656	1	0
672.995	1	-12
673.334	1	-6
673.673	1	-4
674.011	1	5
674.350	1	2
674.689	1	10
675.028	1	-5
675.367	1	-9
675.705	1	5
676.044	1	7
676.383	1	4
676.722	1	9
677.060	1	-7
677.399	1	-2
677.738	1	0
678.077	1	10
678.416	1	-6
678.754	1	-3
679.093	1	-1
679.432	1	-5
679.771	1	7
680.109	1	0
680.448	1	9
680.787	1	-9
681.125	1	13
681.464	1	9
681.803	1	0
682.142	1	-4
682.480	1	2
682.819	1	9
683.158	1	-4
683.496	1	-2
683.835	1	-6
684.174	1	-8
684.512	1	3
684.851	1	-3
685.190	1	-9
685.529	1	16
685.867	1	5
686.206	1	3
686.545	1	7
686.883	1	-2
687.222	1	-5
687.561	1	2
687.899	1	-10
688.238	1	-8
688.577	1	8
688.746	1	-1