File: Data/GaN_170K_550ms/GaN_sample D_spot 18_UVVIS_170 K_200um_550 ms 2x2mm1_62.txt
340.368	1	2
340.710	1	-9
341.052	1	12
341.394	1	4
341.737	1	0
342.079	1	9
342.421	1	10
342.763	1	10
343.105	1	10
343.447	1	-1
343.789	1	4
344.131	1	9
344.473	1	5
344.815	1	18
345.157	1	0
345.499	1	-2
345.841	1	3
346.183	1	13
346.526	1	10
346.868	1	1
347.210	1	-2
347.552	1	14
347.894	1	3
348.236	1	4
348.578	1	16
348.920	1	7
349.262	1	10
349.604	1	15
349.946	1	14
350.288	1	1
350.630	1	7
350.972	1	4
351.314	1	8
351.656	1	2
351.998	1	13
352.340	1	11
352.682	1	17
353.024	1	9
353.366	1	22
353.708	1	14
354.050	1	9
354.392	1	16
354.734	1	25
355.076	1	13
355.418	1	11
355.760	1	17
356.102	1	22
356.444	1	17
356.785	1	33
357.127	1	41
357.469	1	35
357.811	1	27
358.153	1	44
358.495	1	33
358.837	1	53
359.179	1	40
359.521	1	47
359.863	1	49
360.205	1	63
360.547	1	80
360.889	1	86
361.231	1	71
361.572	1	93
361.914	1	106
362.256	1	107
362.598	1	124
362.940	1	147
363.282	1	164
363.624	1	184
363.966	1	220
364.308	1	234
364.649	1	263
364.991	1	297
365.333	1	320
365.675	1	372
366.017	1	402
366.359	1	442
366.701	1	479
367.042	1	518
367.384	1	559
367.726	1	561
368.068	1	589
368.410	1	624
368.752	1	602
369.093	1	583
369.435	1	597
369.777	1	567
370.119	1	546
370.461	1	525
370.803	1	483
371.144	1	461
371.486	1	427
371.828	1	425
372.170	1	379
372.512	1	358
372.853	1	355
373.195	1	325
373.537	1	307
373.879	1	297
374.220	1	281
374.562	1	241
374.904	1	236
375.246	1	224
375.588	1	225
375.929	1	202
376.271	1	208
376.613	1	187
376.955	1	184
377.296	1	148
377.638	1	155
377.980	1	136
378.321	1	138
378.663	1	131
379.005	1	124
379.347	1	114
379.688	1	111
380.030	1	111
380.372	1	89
380.714	1	106
381.055	1	102
381.397	1	87
381.739	1	73
382.080	1	78
382.422	1	80
382.764	1	70
383.105	1	76
383.447	1	85
383.789	1	78
384.130	1	66
384.472	1	62
384.814	1	61
385.156	1	62
385.497	1	71
385.839	1	58
386.180	1	63
386.522	1	61
386.864	1	51
387.205	1	50
387.547	1	62
387.889	1	62
388.230	1	37
388.572	1	46
388.914	1	37
389.255	1	38
389.597	1	36
389.939	1	36
390.280	1	34
390.622	1	34
390.963	1	30
391.305	1	31
391.647	1	29
391.988	1	37
392.330	1	35
392.671	1	38
393.013	1	28
393.355	1	33
393.696	1	30
394.038	1	26
394.379	1	15
394.721	1	26
395.062	1	24
395.404	1	34
395.746	1	23
396.087	1	36
396.429	1	32
396.770	1	31
397.112	1	31
397.453	1	31
397.795	1	15
398.136	1	32
398.478	1	16
398.819	1	11
399.161	1	20
399.503	1	15
399.844	1	5
400.186	1	8
400.527	1	34
400.869	1	15
401.210	1	25
401.552	1	25
401.893	1	24
402.235	1	25
402.576	1	20
402.918	1	16
403.259	1	18
403.601	1	16
403.942	1	16
404.284	1	17
404.625	1	9
404.967	1	17
405.308	1	20
405.649	1	23
405.991	1	21
406.332	1	3
406.674	1	13
407.015	1	18
407.357	1	13
407.698	1	14
408.040	1	12
408.381	1	10
408.722	1	11
409.064	1	14
409.405	1	10
409.747	1	13
410.088	1	20
410.430	1	7
410.771	1	15
411.112	1	15
411.454	1	13
411.795	1	16
412.137	1	1
412.478	1	16
412.819	1	1
413.161	1	16
413.502	1	20
413.844	1	14
414.185	1	14
414.526	1	15
414.868	1	10
415.209	1	-10
415.550	1	9
415.892	1	18
416.233	1	12
416.575	1	13
416.916	1	-12
417.257	1	14
417.599	1	10
417.940	1	12
418.281	1	3
418.623	1	3
418.964	1	7
419.305	1	4
419.647	1	18
419.988	1	11
420.329	1	11
420.671	1	4
421.012	1	13
421.353	1	16
421.695	1	4
422.036	1	13
422.377	1	9
422.718	1	15
423.060	1	6
423.401	1	8
423.742	1	3
424.084	1	24
424.425	1	1
424.766	1	0
425.107	1	-2
425.449	1	10
425.790	1	17
426.131	1	17
426.472	1	-1
426.814	1	-3
427.155	1	15
427.496	1	9
427.837	1	8
428.179	1	15
428.520	1	1
428.861	1	7
429.202	1	5
429.544	1	7
429.885	1	7
430.226	1	4
430.567	1	12
430.909	1	2
431.250	1	19
431.591	1	5
431.932	1	-4
432.273	1	10
432.615	1	7
432.956	1	7
433.297	1	-5
433.638	1	11
433.979	1	11
434.320	1	10
434.662	1	-3
435.003	1	7
435.344	1	3
435.685	1	3
436.026	1	8
436.368	1	5
436.709	1	-1
437.050	1	0
437.391	1	-3
437.732	1	5
438.073	1	-2
438.414	1	4
438.756	1	9
439.097	1	13
439.438	1	14
439.779	1	16
440.120	1	-3
440.461	1	15
440.802	1	12
441.143	1	2
441.485	1	0
441.826	1	8
442.167	1	7
442.508	1	7
442.849	1	2
443.190	1	7
443.531	1	14
443.872	1	5
444.213	1	12
444.554	1	9
444.895	1	-5
445.237	1	1
445.578	1	11
445.919	1	6
446.260	1	4
446.601	1	-2
446.942	1	13
447.283	1	20
447.624	1	1
447.965	1	0
448.306	1	0
448.647	1	5
448.988	1	16
449.329	1	5
449.670	1	-5
450.011	1	10
450.352	1	1
450.693	1	5
451.034	1	0
451.375	1	2
451.716	1	9
452.057	1	11
452.398	1	7
452.739	1	13
453.080	1	7
453.421	1	6
453.762	1	4
454.103	1	-5
454.444	1	-5
454.785	1	9
455.126	1	10
455.467	1	3
455.808	1	16
456.149	1	8
456.490	1	10
456.831	1	9
457.172	1	13
457.513	1	19
457.854	1	18
458.195	1	9
458.536	1	10
458.877	1	8
459.218	1	8
459.559	1	8
459.899	1	10
460.240	1	12
460.581	1	13
460.922	1	5
461.263	1	8
461.604	1	13
461.945	1	6
462.286	1	4
462.627	1	10
462.968	1	16
463.309	1	12
463.649	1	12
463.990	1	-6
464.331	1	10
464.672	1	6
465.013	1	15
465.354	1	0
465.695	1	7
466.036	1	-2
466.376	1	11
466.717	1	2
467.058	1	14
467.399	1	15
467.740	1	-2
468.081	1	5
468.422	1	10
468.762	1	15
469.103	1	12
469.444	1	7
469.785	1	-1
470.126	1	14
470.467	1	11
470.807	1	5
471.148	1	-2
471.489	1	7
471.830	1	8
472.171	1	12
472.511	1	6
472.852	1	8
473.193	1	13
473.534	1	18
473.875	1	6
474.215	1	12
474.556	1	14
474.897	1	13
475.238	1	12
475.578	1	5
475.919	1	16
476.260	1	23
476.601	1	10
476.942	1	10
477.282	1	16
477.623	1	25
477.964	1	12
478.305	1	11
478.645	1	8
478.986	1	17
479.327	1	6
479.667	1	6
480.008	1	20
480.349	1	12
480.690	1	21
481.030	1	23
481.371	1	11
481.712	1	19
482.053	1	3
482.393	1	7
482.734	1	16
483.075	1	15
483.415	1	16
483.756	1	23
484.097	1	5
484.437	1	16
484.778	1	1
485.119	1	18
485.459	1	15
485.800	1	15
486.141	1	23
486.481	1	13
486.822	1	15
487.163	1	20
487.503	1	19
487.844	1	22
488.185	1	19
488.525	1	24
488.866	1	25
489.207	1	31
489.547	1	41
489.888	1	17
490.228	1	23
490.569	1	24
490.910	1	34
491.250	1	24
491.591	1	16
491.932	1	41
492.272	1	36
492.613	1	30
492.953	1	28
493.294	1	27
493.635	1	29
493.975	1	30
494.316	1	30
494.656	1	36
494.997	1	27
495.337	1	30
495.678	1	28
496.019	1	20
496.359	1	27
496.700	1	42
497.040	1	40
497.381	1	33
497.721	1	31
498.062	1	26
498.403	1	49
498.743	1	37
499.084	1	41
499.424	1	45
499.765	1	34
500.105	1	35
500.446	1	39
500.786	1	42
501.127	1	42
501.467	1	49
501.808	1	41
502.148	1	51
502.489	1	52
502.829	1	45
503.170	1	55
503.510	1	50
503.851	1	48
504.191	1	41
504.532	1	35
504.872	1	47
505.213	1	45
505.553	1	44
505.894	1	65
506.234	1	40
506.575	1	56
506.915	1	60
507.256	1	36
507.596	1	55
507.936	1	56
508.277	1	42
508.617	1	60
508.958	1	49
509.298	1	52
509.639	1	62
509.979	1	50
510.319	1	44
510.660	1	46
511.000	1	53
511.341	1	63
511.681	1	60
512.022	1	58
512.362	1	45
512.702	1	53
513.043	1	66
513.383	1	61
513.724	1	48
514.064	1	68
514.404	1	53
514.745	1	57
515.085	1	62
515.425	1	76
515.766	1	62
516.106	1	69
516.447	1	59
516.787	1	68
517.127	1	71
517.468	1	72
517.808	1	64
518.148	1	61
518.489	1	74
518.829	1	72
519.169	1	65
519.510	1	64
519.850	1	64
520.190	1	67
520.531	1	71
520.871	1	65
521.211	1	71
521.552	1	64
521.892	1	73
522.232	1	60
522.573	1	73
522.913	1	77
523.253	1	76
523.593	1	69
523.934	1	71
524.274	1	63
524.614	1	70
524.955	1	73
525.295	1	65
525.635	1	75
525.975	1	80
526.316	1	76
526.656	1	85
526.996	1	75
527.337	1	73
527.677	1	73
528.017	1	72
528.357	1	72
528.698	1	64
529.038	1	77
529.378	1	69
529.718	1	67
530.058	1	75
530.399	1	74
530.739	1	77
531.079	1	91
531.419	1	88
531.760	1	70
532.100	1	70
532.440	1	74
532.780	1	64
533.120	1	77
533.461	1	79
533.801	1	77
534.141	1	69
534.481	1	78
534.821	1	76
535.162	1	73
535.502	1	72
535.842	1	78
536.182	1	70
536.522	1	68
536.862	1	76
537.203	1	69
537.543	1	61
537.883	1	64
538.223	1	68
538.563	1	67
538.903	1	63
539.243	1	59
539.584	1	69
539.924	1	62
540.264	1	75
540.604	1	63
540.944	1	59
541.284	1	65
541.624	1	58
541.964	1	75
542.305	1	63
542.645	1	70
542.985	1	72
543.325	1	68
543.665	1	62
544.005	1	73
544.345	1	71
544.685	1	67
545.025	1	67
545.365	1	72
545.705	1	76
546.045	1	71
546.386	1	66
546.726	1	65
547.066	1	76
547.406	1	67
547.746	1	57
548.086	1	62
548.426	1	74
548.766	1	74
549.106	1	71
549.446	1	71
549.786	1	66
550.126	1	69
550.466	1	63
550.806	1	64
551.146	1	68
551.486	1	61
551.826	1	65
552.166	1	64
552.506	1	65
552.846	1	59
553.186	1	66
553.526	1	51
553.866	1	53
554.206	1	67
554.546	1	41
554.886	1	53
555.226	1	58
555.566	1	63
555.906	1	56
556.246	1	61
556.586	1	52
556.926	1	56
557.266	1	59
557.606	1	54
557.946	1	66
558.286	1	49
558.626	1	65
558.966	1	54
559.306	1	50
559.646	1	43
559.986	1	55
560.325	1	57
560.665	1	46
561.005	1	39
561.345	1	26
561.685	1	48
562.025	1	41
562.365	1	42
562.705	1	44
563.045	1	47
563.385	1	51
563.725	1	40
564.064	1	53
564.404	1	35
564.744	1	50
565.084	1	48
565.424	1	44
565.764	1	52
566.104	1	59
566.444	1	53
566.783	1	49
567.123	1	44
567.463	1	41
567.803	1	44
568.143	1	42
568.483	1	42
568.823	1	39
569.162	1	50
569.502	1	44
569.842	1	43
570.182	1	44
570.522	1	42
570.862	1	40
571.201	1	54
571.541	1	34
571.881	1	30
572.221	1	41
572.561	1	40
572.900	1	42
573.240	1	39
573.580	1	29
573.920	1	48
574.260	1	42
574.599	1	30
574.939	1	38
575.279	1	41
575.619	1	44
575.959	1	29
576.298	1	44
576.638	1	49
576.978	1	31
577.318	1	36
577.657	1	46
577.997	1	30
578.337	1	39
578.677	1	34
579.016	1	42
579.356	1	39
579.696	1	27
580.036	1	32
580.375	1	38
580.715	1	46
581.055	1	33
581.394	1	44
581.734	1	40
582.074	1	41
582.414	1	19
582.753	1	37
583.093	1	44
583.433	1	44
583.772	1	24
584.112	1	33
584.452	1	31
584.791	1	33
585.131	1	44
585.471	1	39
585.811	1	29
586.150	1	29
586.490	1	26
586.830	1	27
587.169	1	41
587.509	1	43
587.849	1	26
588.188	1	28
588.528	1	26
588.867	1	26
589.207	1	25
589.547	1	41
589.886	1	20
590.226	1	29
590.566	1	23
590.905	1	28
591.245	1	20
591.585	1	29
591.924	1	13
592.264	1	15
592.603	1	28
592.943	1	23
593.283	1	23
593.622	1	15
593.962	1	24
594.301	1	26
594.641	1	24
594.981	1	30
595.320	1	23
595.660	1	22
595.999	1	23
596.339	1	16
596.678	1	18
597.018	1	16
597.358	1	8
597.697	1	18
598.037	1	25
598.376	1	18
598.716	1	25
599.055	1	16
599.395	1	20
599.734	1	30
600.074	1	20
600.413	1	15
600.753	1	22
601.092	1	18
601.432	1	8
601.771	1	26
602.111	1	17
602.451	1	29
602.790	1	25
603.130	1	21
603.469	1	13
603.809	1	21
604.148	1	22
604.487	1	16
604.827	1	9
605.166	1	26
605.506	1	14
605.845	1	20
606.185	1	24
606.524	1	23
606.864	1	19
607.203	1	18
607.543	1	26
607.882	1	13
608.222	1	17
608.561	1	21
608.901	1	13
609.240	1	15
609.579	1	18
609.919	1	16
610.258	1	31
610.598	1	22
610.937	1	19
611.277	1	19
611.616	1	17
611.955	1	31
612.295	1	18
612.634	1	7
612.974	1	13
613.313	1	14
613.652	1	23
613.992	1	21
614.331	1	20
614.671	1	25
615.010	1	16
615.349	1	12
615.689	1	22
616.028	1	19
616.368	1	15
616.707	1	18
617.046	1	2
617.386	1	12
617.725	1	10
618.064	1	24
618.404	1	15
618.743	1	16
619.082	1	18
619.422	1	11
619.761	1	4
620.100	1	8
620.440	1	11
620.779	1	14
621.118	1	11
621.458	1	20
621.797	1	17
622.136	1	24
622.476	1	7
622.815	1	15
623.154	1	22
623.494	1	14
623.833	1	13
624.172	1	11
624.511	1	17
624.851	1	3
625.190	1	20
625.529	1	18
625.869	1	15
626.208	1	14
626.547	1	1
626.886	1	21
627.226	1	17
627.565	1	16
627.904	1	14
628.243	1	11
628.583	1	7
628.922	1	2
629.261	1	17
629.600	1	8
629.940	1	13
630.279	1	17
630.618	1	12
630.957	1	19
631.297	1	11
631.636	1	19
631.975	1	6
632.314	1	15
632.653	1	26
632.993	1	6
633.332	1	9
633.671	1	20
634.010	1	17
634.349	1	3
634.689	1	20
635.028	1	8
635.367	1	6
635.706	1	6
636.045	1	15
636.384	1	14
636.724	1	24
637.063	1	16
637.402	1	22
637.741	1	10
638.080	1	20
638.419	1	6
638.759	1	18
639.098	1	3
639.437	1	11
639.776	1	11
640.115	1	21
640.454	1	2
640.793	1	5
641.132	1	6
641.472	1	5
641.811	1	15
642.150	1	8
642.489	1	0
642.828	1	23
643.167	1	8
643.506	1	5
643.845	1	19
644.184	1	20
644.524	1	11
644.863	1	0
645.202	1	13
645.541	1	18
645.880	1	14
646.219	1	10
646.558	1	13
646.897	1	15
647.236	1	6
647.575	1	2
647.914	1	12
648.253	1	10
648.592	1	18
648.931	1	10
649.270	1	4
649.610	1	14
649.949	1	7
650.288	1	0
650.627	1	14
650.966	1	22
651.305	1	3
651.644	1	11
651.983	1	15
652.322	1	16
652.661	1	1
653.000	1	2
653.339	1	7
653.678	1	16
654.017	1	12
654.356	1	11
654.695	1	19
655.034	1	4
655.373	1	12
655.712	1	6
656.051	1	5
656.390	1	12
656.729	1	7
657.068	1	14
657.406	1	9
657.745	1	9
658.084	1	-1
658.423	1	9
658.762	1	-1
659.101	1	3
659.440	1	17
659.779	1	8
660.118	1	6
660.457	1	11
660.796	1	11
661.135	1	-3
661.474	1	15
661.813	1	3
662.152	1	4
662.491	1	8
662.829	1	16
663.168	1	8
663.507	1	7
663.846	1	3
664.185	1	20
664.524	1	11
664.863	1	13
665.202	1	23
665.541	1	10
665.879	1	5
666.218	1	16
666.557	1	6
666.896	1	9
667.235	1	3
667.574	1	-3
667.913	1	4
668.251	1	10
668.590	1	3
668.929	1	10
669.268	1	7
669.607	1	-1
669.946	1	12
670.285	1	16
670.623	1	6
670.962	1	7
671.301	1	6
671.640	1	16
671.979	1	2
672.317	1	12
672.656	1	13
672.995	1	6
673.334	1	4
673.673	1	13
674.011	1	18
674.350	1	9
674.689	1	11
675.028	1	6
675.367	1	0
675.705	1	11
676.044	1	14
676.383	1	15
676.722	1	22
677.060	1	1
677.399	1	8
677.738	1	5
678.077	1	25
678.416	1	12
678.754	1	14
679.093	1	13
679.432	1	9
679.771	1	14
680.109	1	-1
680.448	1	9
680.787	1	6
681.125	1	21
681.464	1	20
681.803	1	11
682.142	1	4
682.480	1	17
682.819	1	20
683.158	1	5
683.496	1	18
683.835	1	4
684.174	1	12
684.512	1	5
684.851	1	7
685.190	1	0
685.529	1	25
685.867	1	19
686.206	1	10
686.545	1	12
686.883	1	7
687.222	1	3
687.561	1	14
687.899	1	10
688.238	1	5
688.577	1	33
688.746	1	3