File: Data/GaN_170K_550ms/GaN_sample D_spot 18_UVVIS_170 K_200um_550 ms 2x2mm1_60.txt
340.368	1	-3
340.710	1	-5
341.052	1	12
341.394	1	15
341.737	1	2
342.079	1	6
342.421	1	7
342.763	1	12
343.105	1	11
343.447	1	-12
343.789	1	6
344.131	1	5
344.473	1	7
344.815	1	10
345.157	1	7
345.499	1	-5
345.841	1	6
346.183	1	14
346.526	1	11
346.868	1	11
347.210	1	-1
347.552	1	25
347.894	1	4
348.236	1	9
348.578	1	10
348.920	1	6
349.262	1	11
349.604	1	18
349.946	1	9
350.288	1	4
350.630	1	18
350.972	1	0
351.314	1	5
351.656	1	10
351.998	1	12
352.340	1	3
352.682	1	10
353.024	1	18
353.366	1	19
353.708	1	26
354.050	1	6
354.392	1	11
354.734	1	26
355.076	1	12
355.418	1	16
355.760	1	13
356.102	1	30
356.444	1	34
356.785	1	22
357.127	1	35
357.469	1	34
357.811	1	38
358.153	1	50
358.495	1	38
358.837	1	52
359.179	1	42
359.521	1	65
359.863	1	60
360.205	1	83
360.547	1	79
360.889	1	101
361.231	1	104
361.572	1	110
361.914	1	118
362.256	1	134
362.598	1	141
362.940	1	191
363.282	1	202
363.624	1	218
363.966	1	250
364.308	1	282
364.649	1	314
364.991	1	364
365.333	1	393
365.675	1	462
366.017	1	507
366.359	1	560
366.701	1	613
367.042	1	634
367.384	1	700
367.726	1	723
368.068	1	771
368.410	1	766
368.752	1	804
369.093	1	753
369.435	1	750
369.777	1	731
370.119	1	671
370.461	1	674
370.803	1	614
371.144	1	569
371.486	1	521
371.828	1	518
372.170	1	478
372.512	1	422
372.853	1	400
373.195	1	398
373.537	1	371
373.879	1	345
374.220	1	352
374.562	1	308
374.904	1	297
375.246	1	272
375.588	1	279
375.929	1	246
376.271	1	223
376.613	1	214
376.955	1	224
377.296	1	200
377.638	1	189
377.980	1	179
378.321	1	176
378.663	1	155
379.005	1	146
379.347	1	135
379.688	1	137
380.030	1	134
380.372	1	111
380.714	1	116
381.055	1	115
381.397	1	109
381.739	1	86
382.080	1	91
382.422	1	89
382.764	1	81
383.105	1	88
383.447	1	94
383.789	1	93
384.130	1	86
384.472	1	72
384.814	1	81
385.156	1	87
385.497	1	85
385.839	1	73
386.180	1	73
386.522	1	67
386.864	1	68
387.205	1	56
387.547	1	66
387.889	1	61
388.230	1	53
388.572	1	60
388.914	1	52
389.255	1	49
389.597	1	51
389.939	1	44
390.280	1	48
390.622	1	38
390.963	1	47
391.305	1	42
391.647	1	30
391.988	1	42
392.330	1	40
392.671	1	31
393.013	1	34
393.355	1	48
393.696	1	35
394.038	1	25
394.379	1	28
394.721	1	37
395.062	1	24
395.404	1	44
395.746	1	31
396.087	1	40
396.429	1	34
396.770	1	28
397.112	1	36
397.453	1	47
397.795	1	32
398.136	1	36
398.478	1	24
398.819	1	25
399.161	1	19
399.503	1	34
399.844	1	15
400.186	1	4
400.527	1	32
400.869	1	20
401.210	1	23
401.552	1	22
401.893	1	23
402.235	1	22
402.576	1	15
402.918	1	17
403.259	1	17
403.601	1	24
403.942	1	26
404.284	1	11
404.625	1	15
404.967	1	19
405.308	1	19
405.649	1	14
405.991	1	22
406.332	1	4
406.674	1	19
407.015	1	16
407.357	1	13
407.698	1	17
408.040	1	10
408.381	1	21
408.722	1	4
409.064	1	8
409.405	1	17
409.747	1	20
410.088	1	16
410.430	1	9
410.771	1	15
411.112	1	11
411.454	1	19
411.795	1	27
412.137	1	13
412.478	1	13
412.819	1	-3
413.161	1	13
413.502	1	7
413.844	1	26
414.185	1	12
414.526	1	13
414.868	1	8
415.209	1	-8
415.550	1	11
415.892	1	19
416.233	1	17
416.575	1	8
416.916	1	3
417.257	1	18
417.599	1	14
417.940	1	15
418.281	1	3
418.623	1	4
418.964	1	7
419.305	1	14
419.647	1	14
419.988	1	18
420.329	1	20
420.671	1	8
421.012	1	8
421.353	1	15
421.695	1	-3
422.036	1	15
422.377	1	12
422.718	1	17
423.060	1	10
423.401	1	8
423.742	1	10
424.084	1	17
424.425	1	3
424.766	1	1
425.107	1	7
425.449	1	10
425.790	1	-1
426.131	1	13
426.472	1	19
426.814	1	-7
427.155	1	19
427.496	1	4
427.837	1	14
428.179	1	19
428.520	1	8
428.861	1	20
429.202	1	7
429.544	1	10
429.885	1	16
430.226	1	8
430.567	1	11
430.909	1	1
431.250	1	32
431.591	1	11
431.932	1	3
432.273	1	4
432.615	1	15
432.956	1	15
433.297	1	3
433.638	1	20
433.979	1	12
434.320	1	19
434.662	1	-2
435.003	1	13
435.344	1	5
435.685	1	8
436.026	1	3
436.368	1	18
436.709	1	4
437.050	1	6
437.391	1	9
437.732	1	12
438.073	1	10
438.414	1	4
438.756	1	14
439.097	1	22
439.438	1	15
439.779	1	8
440.120	1	3
440.461	1	21
440.802	1	18
441.143	1	7
441.485	1	-1
441.826	1	12
442.167	1	5
442.508	1	7
442.849	1	2
443.190	1	14
443.531	1	4
443.872	1	3
444.213	1	13
444.554	1	12
444.895	1	-4
445.237	1	0
445.578	1	21
445.919	1	19
446.260	1	12
446.601	1	8
446.942	1	11
447.283	1	16
447.624	1	6
447.965	1	10
448.306	1	6
448.647	1	2
448.988	1	19
449.329	1	7
449.670	1	-1
450.011	1	18
450.352	1	6
450.693	1	5
451.034	1	11
451.375	1	6
451.716	1	8
452.057	1	11
452.398	1	9
452.739	1	8
453.080	1	13
453.421	1	15
453.762	1	3
454.103	1	1
454.444	1	-8
454.785	1	8
455.126	1	28
455.467	1	-3
455.808	1	17
456.149	1	5
456.490	1	11
456.831	1	4
457.172	1	9
457.513	1	18
457.854	1	17
458.195	1	1
458.536	1	7
458.877	1	4
459.218	1	10
459.559	1	10
459.899	1	3
460.240	1	1
460.581	1	4
460.922	1	10
461.263	1	7
461.604	1	16
461.945	1	9
462.286	1	1
462.627	1	9
462.968	1	16
463.309	1	12
463.649	1	13
463.990	1	1
464.331	1	13
464.672	1	0
465.013	1	15
465.354	1	5
465.695	1	14
466.036	1	7
466.376	1	8
466.717	1	11
467.058	1	15
467.399	1	25
467.740	1	-5
468.081	1	0
468.422	1	11
468.762	1	15
469.103	1	7
469.444	1	19
469.785	1	14
470.126	1	16
470.467	1	12
470.807	1	15
471.148	1	15
471.489	1	10
471.830	1	9
472.171	1	14
472.511	1	16
472.852	1	12
473.193	1	21
473.534	1	11
473.875	1	12
474.215	1	15
474.556	1	12
474.897	1	14
475.238	1	5
475.578	1	11
475.919	1	18
476.260	1	26
476.601	1	15
476.942	1	7
477.282	1	20
477.623	1	19
477.964	1	9
478.305	1	8
478.645	1	16
478.986	1	19
479.327	1	7
479.667	1	13
480.008	1	12
480.349	1	10
480.690	1	26
481.030	1	13
481.371	1	15
481.712	1	16
482.053	1	18
482.393	1	9
482.734	1	20
483.075	1	16
483.415	1	26
483.756	1	14
484.097	1	9
484.437	1	21
484.778	1	20
485.119	1	21
485.459	1	16
485.800	1	12
486.141	1	31
486.481	1	28
486.822	1	18
487.163	1	24
487.503	1	31
487.844	1	32
488.185	1	23
488.525	1	33
488.866	1	37
489.207	1	31
489.547	1	48
489.888	1	22
490.228	1	23
490.569	1	25
490.910	1	28
491.250	1	35
491.591	1	31
491.932	1	31
492.272	1	47
492.613	1	36
492.953	1	39
493.294	1	34
493.635	1	34
493.975	1	42
494.316	1	40
494.656	1	36
494.997	1	36
495.337	1	36
495.678	1	32
496.019	1	30
496.359	1	37
496.700	1	51
497.040	1	37
497.381	1	46
497.721	1	34
498.062	1	39
498.403	1	57
498.743	1	45
499.084	1	46
499.424	1	54
499.765	1	36
500.105	1	43
500.446	1	46
500.786	1	40
501.127	1	51
501.467	1	44
501.808	1	47
502.148	1	49
502.489	1	46
502.829	1	49
503.170	1	55
503.510	1	57
503.851	1	62
504.191	1	51
504.532	1	34
504.872	1	59
505.213	1	46
505.553	1	64
505.894	1	72
506.234	1	51
506.575	1	57
506.915	1	61
507.256	1	68
507.596	1	69
507.936	1	74
508.277	1	56
508.617	1	70
508.958	1	55
509.298	1	68
509.639	1	81
509.979	1	61
510.319	1	67
510.660	1	65
511.000	1	63
511.341	1	75
511.681	1	65
512.022	1	70
512.362	1	68
512.702	1	71
513.043	1	72
513.383	1	74
513.724	1	68
514.064	1	82
514.404	1	61
514.745	1	73
515.085	1	70
515.425	1	75
515.766	1	74
516.106	1	74
516.447	1	69
516.787	1	77
517.127	1	82
517.468	1	74
517.808	1	87
518.148	1	81
518.489	1	82
518.829	1	84
519.169	1	73
519.510	1	87
519.850	1	83
520.190	1	81
520.531	1	89
520.871	1	87
521.211	1	84
521.552	1	81
521.892	1	82
522.232	1	68
522.573	1	81
522.913	1	79
523.253	1	94
523.593	1	86
523.934	1	85
524.274	1	76
524.614	1	83
524.955	1	95
525.295	1	89
525.635	1	80
525.975	1	72
526.316	1	93
526.656	1	100
526.996	1	81
527.337	1	80
527.677	1	82
528.017	1	85
528.357	1	93
528.698	1	79
529.038	1	78
529.378	1	93
529.718	1	101
530.058	1	104
530.399	1	95
530.739	1	91
531.079	1	90
531.419	1	98
531.760	1	87
532.100	1	85
532.440	1	104
532.780	1	87
533.120	1	95
533.461	1	82
533.801	1	84
534.141	1	93
534.481	1	101
534.821	1	84
535.162	1	85
535.502	1	86
535.842	1	98
536.182	1	89
536.522	1	88
536.862	1	92
537.203	1	81
537.543	1	81
537.883	1	84
538.223	1	79
538.563	1	74
538.903	1	82
539.243	1	68
539.584	1	66
539.924	1	74
540.264	1	76
540.604	1	79
540.944	1	63
541.284	1	78
541.624	1	68
541.964	1	90
542.305	1	77
542.645	1	77
542.985	1	81
543.325	1	73
543.665	1	76
544.005	1	88
544.345	1	83
544.685	1	80
545.025	1	76
545.365	1	78
545.705	1	88
546.045	1	72
546.386	1	75
546.726	1	90
547.066	1	92
547.406	1	71
547.746	1	68
548.086	1	73
548.426	1	88
548.766	1	77
549.106	1	82
549.446	1	87
549.786	1	73
550.126	1	74
550.466	1	87
550.806	1	88
551.146	1	82
551.486	1	65
551.826	1	84
552.166	1	81
552.506	1	84
552.846	1	73
553.186	1	78
553.526	1	67
553.866	1	63
554.206	1	75
554.546	1	63
554.886	1	66
555.226	1	64
555.566	1	72
555.906	1	62
556.246	1	61
556.586	1	61
556.926	1	78
557.266	1	77
557.606	1	71
557.946	1	68
558.286	1	57
558.626	1	80
558.966	1	72
559.306	1	65
559.646	1	63
559.986	1	59
560.325	1	57
560.665	1	63
561.005	1	58
561.345	1	61
561.685	1	61
562.025	1	53
562.365	1	54
562.705	1	68
563.045	1	66
563.385	1	62
563.725	1	59
564.064	1	66
564.404	1	49
564.744	1	53
565.084	1	61
565.424	1	60
565.764	1	56
566.104	1	50
566.444	1	60
566.783	1	62
567.123	1	62
567.463	1	53
567.803	1	52
568.143	1	49
568.483	1	50
568.823	1	44
569.162	1	61
569.502	1	50
569.842	1	45
570.182	1	41
570.522	1	44
570.862	1	49
571.201	1	61
571.541	1	52
571.881	1	46
572.221	1	52
572.561	1	46
572.900	1	46
573.240	1	53
573.580	1	62
573.920	1	61
574.260	1	42
574.599	1	52
574.939	1	38
575.279	1	44
575.619	1	54
575.959	1	37
576.298	1	48
576.638	1	55
576.978	1	38
577.318	1	55
577.657	1	45
577.997	1	39
578.337	1	50
578.677	1	41
579.016	1	47
579.356	1	48
579.696	1	45
580.036	1	45
580.375	1	46
580.715	1	37
581.055	1	47
581.394	1	50
581.734	1	51
582.074	1	47
582.414	1	35
582.753	1	46
583.093	1	43
583.433	1	45
583.772	1	42
584.112	1	38
584.452	1	42
584.791	1	41
585.131	1	59
585.471	1	47
585.811	1	34
586.150	1	35
586.490	1	41
586.830	1	26
587.169	1	48
587.509	1	33
587.849	1	37
588.188	1	33
588.528	1	30
588.867	1	32
589.207	1	36
589.547	1	41
589.886	1	41
590.226	1	34
590.566	1	40
590.905	1	33
591.245	1	28
591.585	1	29
591.924	1	25
592.264	1	23
592.603	1	39
592.943	1	30
593.283	1	40
593.622	1	10
593.962	1	34
594.301	1	36
594.641	1	33
594.981	1	38
595.320	1	17
595.660	1	33
595.999	1	27
596.339	1	28
596.678	1	27
597.018	1	26
597.358	1	21
597.697	1	34
598.037	1	28
598.376	1	27
598.716	1	37
599.055	1	26
599.395	1	22
599.734	1	34
600.074	1	36
600.413	1	24
600.753	1	27
601.092	1	31
601.432	1	27
601.771	1	21
602.111	1	31
602.451	1	42
602.790	1	38
603.130	1	22
603.469	1	33
603.809	1	24
604.148	1	28
604.487	1	45
604.827	1	18
605.166	1	28
605.506	1	26
605.845	1	28
606.185	1	30
606.524	1	23
606.864	1	26
607.203	1	29
607.543	1	31
607.882	1	16
608.222	1	27
608.561	1	24
608.901	1	20
609.240	1	26
609.579	1	20
609.919	1	14
610.258	1	33
610.598	1	21
610.937	1	20
611.277	1	21
611.616	1	20
611.955	1	29
612.295	1	30
612.634	1	10
612.974	1	24
613.313	1	22
613.652	1	31
613.992	1	24
614.331	1	17
614.671	1	33
615.010	1	31
615.349	1	18
615.689	1	31
616.028	1	12
616.368	1	25
616.707	1	32
617.046	1	6
617.386	1	12
617.725	1	25
618.064	1	7
618.404	1	17
618.743	1	19
619.082	1	30
619.422	1	15
619.761	1	17
620.100	1	15
620.440	1	15
620.779	1	17
621.118	1	20
621.458	1	14
621.797	1	22
622.136	1	12
622.476	1	12
622.815	1	14
623.154	1	21
623.494	1	14
623.833	1	25
624.172	1	13
624.511	1	23
624.851	1	15
625.190	1	15
625.529	1	20
625.869	1	18
626.208	1	24
626.547	1	3
626.886	1	22
627.226	1	16
627.565	1	21
627.904	1	16
628.243	1	16
628.583	1	7
628.922	1	8
629.261	1	20
629.600	1	7
629.940	1	13
630.279	1	21
630.618	1	9
630.957	1	21
631.297	1	7
631.636	1	26
631.975	1	9
632.314	1	12
632.653	1	20
632.993	1	5
633.332	1	20
633.671	1	17
634.010	1	24
634.349	1	0
634.689	1	13
635.028	1	15
635.367	1	12
635.706	1	15
636.045	1	19
636.384	1	13
636.724	1	24
637.063	1	25
637.402	1	25
637.741	1	8
638.080	1	19
638.419	1	8
638.759	1	21
639.098	1	10
639.437	1	0
639.776	1	21
640.115	1	19
640.454	1	15
640.793	1	14
641.132	1	18
641.472	1	12
641.811	1	19
642.150	1	6
642.489	1	8
642.828	1	9
643.167	1	8
643.506	1	13
643.845	1	20
644.184	1	22
644.524	1	21
644.863	1	1
645.202	1	18
645.541	1	13
645.880	1	17
646.219	1	25
646.558	1	13
646.897	1	16
647.236	1	13
647.575	1	12
647.914	1	9
648.253	1	9
648.592	1	16
648.931	1	15
649.270	1	7
649.610	1	19
649.949	1	12
650.288	1	16
650.627	1	1
650.966	1	8
651.305	1	3
651.644	1	10
651.983	1	24
652.322	1	19
652.661	1	18
653.000	1	9
653.339	1	18
653.678	1	8
654.017	1	16
654.356	1	12
654.695	1	16
655.034	1	20
655.373	1	14
655.712	1	7
656.051	1	10
656.390	1	16
656.729	1	15
657.068	1	10
657.406	1	10
657.745	1	17
658.084	1	6
658.423	1	12
658.762	1	8
659.101	1	10
659.440	1	10
659.779	1	12
660.118	1	11
660.457	1	19
660.796	1	8
661.135	1	2
661.474	1	17
661.813	1	16
662.152	1	13
662.491	1	-2
662.829	1	1
663.168	1	23
663.507	1	14
663.846	1	7
664.185	1	20
664.524	1	19
664.863	1	17
665.202	1	16
665.541	1	10
665.879	1	13
666.218	1	22
666.557	1	11
666.896	1	10
667.235	1	8
667.574	1	-2
667.913	1	2
668.251	1	1
668.590	1	2
668.929	1	11
669.268	1	3
669.607	1	16
669.946	1	4
670.285	1	23
670.623	1	7
670.962	1	5
671.301	1	11
671.640	1	13
671.979	1	12
672.317	1	15
672.656	1	16
672.995	1	5
673.334	1	9
673.673	1	13
674.011	1	12
674.350	1	13
674.689	1	16
675.028	1	9
675.367	1	9
675.705	1	25
676.044	1	19
676.383	1	15
676.722	1	17
677.060	1	5
677.399	1	7
677.738	1	14
678.077	1	15
678.416	1	3
678.754	1	13
679.093	1	16
679.432	1	7
679.771	1	11
680.109	1	6
680.448	1	15
680.787	1	5
681.125	1	14
681.464	1	16
681.803	1	11
682.142	1	12
682.480	1	16
682.819	1	18
683.158	1	9
683.496	1	18
683.835	1	9
684.174	1	7
684.512	1	0
684.851	1	1
685.190	1	3
685.529	1	20
685.867	1	13
686.206	1	21
686.545	1	20
686.883	1	17
687.222	1	12
687.561	1	10
687.899	1	7
688.238	1	12
688.577	1	28
688.746	1	1