File: Data/GaN_170K_550ms/GaN_sample D_spot 18_UVVIS_170 K_200um_550 ms 2x2mm1_327.txt
340.368	1	-3
340.710	1	-15
341.052	1	2
341.394	1	1
341.737	1	-7
342.079	1	-3
342.421	1	0
342.763	1	3
343.105	1	11
343.447	1	-7
343.789	1	6
344.131	1	-1
344.473	1	7
344.815	1	15
345.157	1	-1
345.499	1	-5
345.841	1	5
346.183	1	4
346.526	1	9
346.868	1	5
347.210	1	-7
347.552	1	14
347.894	1	2
348.236	1	-5
348.578	1	9
348.920	1	-2
349.262	1	-1
349.604	1	7
349.946	1	12
350.288	1	-3
350.630	1	2
350.972	1	-3
351.314	1	1
351.656	1	-4
351.998	1	6
352.340	1	9
352.682	1	7
353.024	1	4
353.366	1	0
353.708	1	6
354.050	1	-2
354.392	1	4
354.734	1	0
355.076	1	-11
355.418	1	-1
355.760	1	2
356.102	1	8
356.444	1	-2
356.785	1	-2
357.127	1	-10
357.469	1	-7
357.811	1	5
358.153	1	7
358.495	1	0
358.837	1	5
359.179	1	-13
359.521	1	4
359.863	1	5
360.205	1	3
360.547	1	8
360.889	1	4
361.231	1	3
361.572	1	11
361.914	1	5
362.256	1	0
362.598	1	8
362.940	1	10
363.282	1	13
363.624	1	6
363.966	1	5
364.308	1	2
364.649	1	1
364.991	1	12
365.333	1	-7
365.675	1	14
366.017	1	0
366.359	1	14
366.701	1	1
367.042	1	-3
367.384	1	15
367.726	1	8
368.068	1	6
368.410	1	12
368.752	1	5
369.093	1	1
369.435	1	2
369.777	1	4
370.119	1	-1
370.461	1	14
370.803	1	3
371.144	1	0
371.486	1	-1
371.828	1	-1
372.170	1	5
372.512	1	-2
372.853	1	7
373.195	1	2
373.537	1	11
373.879	1	8
374.220	1	3
374.562	1	9
374.904	1	9
375.246	1	6
375.588	1	-4
375.929	1	2
376.271	1	1
376.613	1	3
376.955	1	4
377.296	1	2
377.638	1	3
377.980	1	-7
378.321	1	3
378.663	1	-2
379.005	1	-4
379.347	1	-6
379.688	1	-1
380.030	1	7
380.372	1	5
380.714	1	9
381.055	1	7
381.397	1	6
381.739	1	4
382.080	1	-6
382.422	1	10
382.764	1	4
383.105	1	2
383.447	1	2
383.789	1	9
384.130	1	0
384.472	1	-1
384.814	1	6
385.156	1	2
385.497	1	5
385.839	1	-5
386.180	1	10
386.522	1	1
386.864	1	9
387.205	1	-3
387.547	1	4
387.889	1	0
388.230	1	5
388.572	1	7
388.914	1	-5
389.255	1	10
389.597	1	0
389.939	1	3
390.280	1	0
390.622	1	0
390.963	1	1
391.305	1	-10
391.647	1	-10
391.988	1	4
392.330	1	1
392.671	1	2
393.013	1	4
393.355	1	4
393.696	1	-2
394.038	1	5
394.379	1	-16
394.721	1	3
395.062	1	-10
395.404	1	6
395.746	1	9
396.087	1	1
396.429	1	9
396.770	1	6
397.112	1	0
397.453	1	7
397.795	1	0
398.136	1	-2
398.478	1	-5
398.819	1	7
399.161	1	-15
399.503	1	5
399.844	1	0
400.186	1	3
400.527	1	9
400.869	1	1
401.210	1	11
401.552	1	1
401.893	1	7
402.235	1	3
402.576	1	9
402.918	1	2
403.259	1	9
403.601	1	3
403.942	1	8
404.284	1	-10
404.625	1	3
404.967	1	-7
405.308	1	9
405.649	1	4
405.991	1	-1
406.332	1	-11
406.674	1	10
407.015	1	-1
407.357	1	8
407.698	1	-3
408.040	1	0
408.381	1	-3
408.722	1	-6
409.064	1	2
409.405	1	1
409.747	1	-1
410.088	1	0
410.430	1	-5
410.771	1	2
411.112	1	-4
411.454	1	9
411.795	1	5
412.137	1	-9
412.478	1	1
412.819	1	-9
413.161	1	9
413.502	1	2
413.844	1	5
414.185	1	-6
414.526	1	-2
414.868	1	-5
415.209	1	-13
415.550	1	-1
415.892	1	4
416.233	1	9
416.575	1	1
416.916	1	1
417.257	1	0
417.599	1	-4
417.940	1	7
418.281	1	-3
418.623	1	4
418.964	1	-8
419.305	1	1
419.647	1	6
419.988	1	1
420.329	1	3
420.671	1	1
421.012	1	-10
421.353	1	-4
421.695	1	-6
422.036	1	-3
422.377	1	9
422.718	1	9
423.060	1	0
423.401	1	5
423.742	1	-2
424.084	1	11
424.425	1	-4
424.766	1	-5
425.107	1	-4
425.449	1	7
425.790	1	11
426.131	1	7
426.472	1	2
426.814	1	-12
427.155	1	7
427.496	1	-1
427.837	1	-1
428.179	1	8
428.520	1	-6
428.861	1	-1
429.202	1	-12
429.544	1	-4
429.885	1	-11
430.226	1	6
430.567	1	-1
430.909	1	-2
431.250	1	13
431.591	1	-6
431.932	1	-6
432.273	1	-1
432.615	1	7
432.956	1	6
433.297	1	-3
433.638	1	9
433.979	1	-1
434.320	1	13
434.662	1	-23
435.003	1	0
435.344	1	1
435.685	1	3
436.026	1	0
436.368	1	4
436.709	1	-4
437.050	1	-6
437.391	1	-4
437.732	1	4
438.073	1	6
438.414	1	-5
438.756	1	2
439.097	1	-4
439.438	1	16
439.779	1	10
440.120	1	-3
440.461	1	4
440.802	1	-1
441.143	1	-3
441.485	1	-3
441.826	1	6
442.167	1	5
442.508	1	3
442.849	1	-4
443.190	1	0
443.531	1	8
443.872	1	-2
444.213	1	-4
444.554	1	0
444.895	1	-12
445.237	1	-10
445.578	1	10
445.919	1	2
446.260	1	5
446.601	1	-8
446.942	1	7
447.283	1	13
447.624	1	1
447.965	1	-1
448.306	1	-1
448.647	1	-3
448.988	1	6
449.329	1	-7
449.670	1	-14
450.011	1	-2
450.352	1	-2
450.693	1	-11
451.034	1	0
451.375	1	7
451.716	1	7
452.057	1	-5
452.398	1	4
452.739	1	-3
453.080	1	8
453.421	1	3
453.762	1	12
454.103	1	1
454.444	1	-2
454.785	1	-6
455.126	1	8
455.467	1	-6
455.808	1	10
456.149	1	0
456.490	1	-4
456.831	1	-3
457.172	1	-5
457.513	1	7
457.854	1	7
458.195	1	-3
458.536	1	-10
458.877	1	3
459.218	1	5
459.559	1	2
459.899	1	1
460.240	1	-2
460.581	1	5
460.922	1	-1
461.263	1	-5
461.604	1	11
461.945	1	1
462.286	1	1
462.627	1	9
462.968	1	6
463.309	1	3
463.649	1	6
463.990	1	6
464.331	1	8
464.672	1	-5
465.013	1	11
465.354	1	-3
465.695	1	-2
466.036	1	-6
466.376	1	2
466.717	1	-3
467.058	1	2
467.399	1	5
467.740	1	-1
468.081	1	-1
468.422	1	5
468.762	1	9
469.103	1	-1
469.444	1	-4
469.785	1	1
470.126	1	9
470.467	1	5
470.807	1	2
471.148	1	-5
471.489	1	1
471.830	1	-3
472.171	1	1
472.511	1	-1
472.852	1	0
473.193	1	5
473.534	1	6
473.875	1	-3
474.215	1	3
474.556	1	3
474.897	1	7
475.238	1	-4
475.578	1	1
475.919	1	1
476.260	1	16
476.601	1	-1
476.942	1	-10
477.282	1	10
477.623	1	6
477.964	1	5
478.305	1	-11
478.645	1	2
478.986	1	-3
479.327	1	-12
479.667	1	-2
480.008	1	9
480.349	1	5
480.690	1	-1
481.030	1	4
481.371	1	1
481.712	1	0
482.053	1	-4
482.393	1	-5
482.734	1	15
483.075	1	2
483.415	1	5
483.756	1	4
484.097	1	-12
484.437	1	7
484.778	1	-5
485.119	1	-1
485.459	1	-7
485.800	1	-5
486.141	1	6
486.481	1	9
486.822	1	4
487.163	1	-1
487.503	1	-4
487.844	1	-3
488.185	1	9
488.525	1	7
488.866	1	7
489.207	1	10
489.547	1	6
489.888	1	2
490.228	1	-13
490.569	1	2
490.910	1	5
491.250	1	-1
491.591	1	9
491.932	1	-3
492.272	1	12
492.613	1	3
492.953	1	2
493.294	1	2
493.635	1	-4
493.975	1	2
494.316	1	4
494.656	1	-5
494.997	1	3
495.337	1	6
495.678	1	7
496.019	1	2
496.359	1	3
496.700	1	9
497.040	1	15
497.381	1	2
497.721	1	-7
498.062	1	1
498.403	1	4
498.743	1	1
499.084	1	1
499.424	1	5
499.765	1	-13
500.105	1	-4
500.446	1	4
500.786	1	2
501.127	1	3
501.467	1	-6
501.808	1	-11
502.148	1	14
502.489	1	0
502.829	1	-4
503.170	1	-5
503.510	1	0
503.851	1	-1
504.191	1	-3
504.532	1	-9
504.872	1	1
505.213	1	1
505.553	1	1
505.894	1	14
506.234	1	-4
506.575	1	0
506.915	1	2
507.256	1	-1
507.596	1	4
507.936	1	6
508.277	1	-7
508.617	1	5
508.958	1	2
509.298	1	-1
509.639	1	13
509.979	1	5
510.319	1	-6
510.660	1	3
511.000	1	4
511.341	1	8
511.681	1	-8
512.022	1	-5
512.362	1	-9
512.702	1	-2
513.043	1	2
513.383	1	-5
513.724	1	-5
514.064	1	6
514.404	1	-5
514.745	1	-5
515.085	1	-1
515.425	1	-2
515.766	1	4
516.106	1	6
516.447	1	0
516.787	1	3
517.127	1	3
517.468	1	4
517.808	1	13
518.148	1	3
518.489	1	12
518.829	1	-1
519.169	1	-1
519.510	1	5
519.850	1	3
520.190	1	0
520.531	1	3
520.871	1	-9
521.211	1	3
521.552	1	-5
521.892	1	3
522.232	1	-9
522.573	1	8
522.913	1	10
523.253	1	20
523.593	1	1
523.934	1	-7
524.274	1	-3
524.614	1	9
524.955	1	0
525.295	1	-1
525.635	1	-1
525.975	1	-4
526.316	1	7
526.656	1	3
526.996	1	4
527.337	1	-4
527.677	1	-2
528.017	1	4
528.357	1	-1
528.698	1	-7
529.038	1	-2
529.378	1	1
529.718	1	7
530.058	1	10
530.399	1	2
530.739	1	8
531.079	1	6
531.419	1	2
531.760	1	-2
532.100	1	-2
532.440	1	2
532.780	1	-10
533.120	1	4
533.461	1	-1
533.801	1	7
534.141	1	-1
534.481	1	10
534.821	1	9
535.162	1	-4
535.502	1	6
535.842	1	7
536.182	1	3
536.522	1	11
536.862	1	14
537.203	1	5
537.543	1	1
537.883	1	3
538.223	1	0
538.563	1	6
538.903	1	-2
539.243	1	0
539.584	1	-4
539.924	1	-1
540.264	1	5
540.604	1	-6
540.944	1	-3
541.284	1	5
541.624	1	-9
541.964	1	-3
542.305	1	1
542.645	1	-12
542.985	1	9
543.325	1	4
543.665	1	-11
544.005	1	7
544.345	1	1
544.685	1	0
545.025	1	-3
545.365	1	0
545.705	1	-3
546.045	1	1
546.386	1	-3
546.726	1	-1
547.066	1	14
547.406	1	-1
547.746	1	-3
548.086	1	-1
548.426	1	10
548.766	1	9
549.106	1	6
549.446	1	12
549.786	1	-6
550.126	1	10
550.466	1	-3
550.806	1	3
551.146	1	11
551.486	1	-2
551.826	1	9
552.166	1	0
552.506	1	-7
552.846	1	-7
553.186	1	-2
553.526	1	0
553.866	1	-12
554.206	1	7
554.546	1	-9
554.886	1	1
555.226	1	-1
555.566	1	4
555.906	1	-6
556.246	1	0
556.586	1	-5
556.926	1	5
557.266	1	1
557.606	1	-2
557.946	1	10
558.286	1	-4
558.626	1	8
558.966	1	8
559.306	1	16
559.646	1	-3
559.986	1	2
560.325	1	-1
560.665	1	0
561.005	1	-1
561.345	1	-2
561.685	1	4
562.025	1	-13
562.365	1	2
562.705	1	4
563.045	1	-2
563.385	1	11
563.725	1	-5
564.064	1	3
564.404	1	-1
564.744	1	6
565.084	1	2
565.424	1	-1
565.764	1	6
566.104	1	7
566.444	1	0
566.783	1	2
567.123	1	-1
567.463	1	6
567.803	1	9
568.143	1	0
568.483	1	2
568.823	1	-3
569.162	1	2
569.502	1	2
569.842	1	-2
570.182	1	-1
570.522	1	-3
570.862	1	7
571.201	1	4
571.541	1	-10
571.881	1	1
572.221	1	6
572.561	1	2
572.900	1	-4
573.240	1	1
573.580	1	-2
573.920	1	7
574.260	1	2
574.599	1	-7
574.939	1	-4
575.279	1	-4
575.619	1	2
575.959	1	2
576.298	1	13
576.638	1	8
576.978	1	-3
577.318	1	5
577.657	1	-5
577.997	1	-10
578.337	1	6
578.677	1	6
579.016	1	7
579.356	1	6
579.696	1	-8
580.036	1	2
580.375	1	-3
580.715	1	6
581.055	1	0
581.394	1	9
581.734	1	8
582.074	1	1
582.414	1	-3
582.753	1	5
583.093	1	0
583.433	1	3
583.772	1	-6
584.112	1	5
584.452	1	-7
584.791	1	-4
585.131	1	-3
585.471	1	9
585.811	1	-11
586.150	1	-7
586.490	1	11
586.830	1	-2
587.169	1	11
587.509	1	1
587.849	1	6
588.188	1	-1
588.528	1	-3
588.867	1	1
589.207	1	-5
589.547	1	-5
589.886	1	-8
590.226	1	2
590.566	1	8
590.905	1	4
591.245	1	7
591.585	1	1
591.924	1	0
592.264	1	-5
592.603	1	3
592.943	1	1
593.283	1	3
593.622	1	-21
593.962	1	-1
594.301	1	4
594.641	1	9
594.981	1	12
595.320	1	3
595.660	1	-3
595.999	1	4
596.339	1	0
596.678	1	-3
597.018	1	-4
597.358	1	-10
597.697	1	-2
598.037	1	-4
598.376	1	-7
598.716	1	6
599.055	1	-7
599.395	1	-5
599.734	1	4
600.074	1	0
600.413	1	-1
600.753	1	6
601.092	1	-3
601.432	1	-9
601.771	1	2
602.111	1	4
602.451	1	8
602.790	1	7
603.130	1	-6
603.469	1	-6
603.809	1	-1
604.148	1	-1
604.487	1	12
604.827	1	-4
605.166	1	11
605.506	1	6
605.845	1	2
606.185	1	6
606.524	1	3
606.864	1	-3
607.203	1	5
607.543	1	9
607.882	1	3
608.222	1	-4
608.561	1	-2
608.901	1	7
609.240	1	-1
609.579	1	5
609.919	1	-5
610.258	1	5
610.598	1	-2
610.937	1	4
611.277	1	4
611.616	1	-6
611.955	1	1
612.295	1	-1
612.634	1	1
612.974	1	7
613.313	1	-3
613.652	1	12
613.992	1	-7
614.331	1	6
614.671	1	11
615.010	1	6
615.349	1	3
615.689	1	9
616.028	1	-3
616.368	1	-12
616.707	1	10
617.046	1	-6
617.386	1	-5
617.725	1	0
618.064	1	-3
618.404	1	-3
618.743	1	0
619.082	1	9
619.422	1	-6
619.761	1	-4
620.100	1	-2
620.440	1	14
620.779	1	0
621.118	1	2
621.458	1	-6
621.797	1	8
622.136	1	0
622.476	1	-10
622.815	1	0
623.154	1	6
623.494	1	-5
623.833	1	6
624.172	1	0
624.511	1	-1
624.851	1	-6
625.190	1	5
625.529	1	10
625.869	1	17
626.208	1	-2
626.547	1	-7
626.886	1	-3
627.226	1	1
627.565	1	5
627.904	1	-3
628.243	1	-6
628.583	1	-6
628.922	1	-10
629.261	1	4
629.600	1	0
629.940	1	-3
630.279	1	-2
630.618	1	-3
630.957	1	0
631.297	1	-6
631.636	1	11
631.975	1	11
632.314	1	2
632.653	1	7
632.993	1	-2
633.332	1	0
633.671	1	5
634.010	1	2
634.349	1	-3
634.689	1	6
635.028	1	2
635.367	1	-2
635.706	1	2
636.045	1	-1
636.384	1	-1
636.724	1	1
637.063	1	5
637.402	1	13
637.741	1	-6
638.080	1	0
638.419	1	-7
638.759	1	6
639.098	1	-6
639.437	1	-7
639.776	1	-1
640.115	1	-3
640.454	1	2
640.793	1	-4
641.132	1	-2
641.472	1	-6
641.811	1	2
642.150	1	-1
642.489	1	6
642.828	1	3
643.167	1	1
643.506	1	9
643.845	1	10
644.184	1	9
644.524	1	-4
644.863	1	-14
645.202	1	4
645.541	1	0
645.880	1	3
646.219	1	2
646.558	1	11
646.897	1	4
647.236	1	-5
647.575	1	-13
647.914	1	-3
648.253	1	-1
648.592	1	-3
648.931	1	1
649.270	1	-5
649.610	1	1
649.949	1	-2
650.288	1	-1
650.627	1	0
650.966	1	7
651.305	1	1
651.644	1	7
651.983	1	3
652.322	1	4
652.661	1	5
653.000	1	-7
653.339	1	6
653.678	1	6
654.017	1	8
654.356	1	2
654.695	1	8
655.034	1	4
655.373	1	-3
655.712	1	-6
656.051	1	-4
656.390	1	0
656.729	1	4
657.068	1	3
657.406	1	-3
657.745	1	2
658.084	1	-7
658.423	1	2
658.762	1	-7
659.101	1	-3
659.440	1	-1
659.779	1	-5
660.118	1	-2
660.457	1	2
660.796	1	4
661.135	1	-18
661.474	1	3
661.813	1	-6
662.152	1	-6
662.491	1	-11
662.829	1	-2
663.168	1	0
663.507	1	2
663.846	1	-4
664.185	1	9
664.524	1	-1
664.863	1	-6
665.202	1	7
665.541	1	8
665.879	1	9
666.218	1	11
666.557	1	-7
666.896	1	-1
667.235	1	3
667.574	1	-12
667.913	1	-4
668.251	1	4
668.590	1	-1
668.929	1	12
669.268	1	2
669.607	1	-2
669.946	1	-2
670.285	1	12
670.623	1	2
670.962	1	-1
671.301	1	-3
671.640	1	6
671.979	1	6
672.317	1	13
672.656	1	5
672.995	1	-7
673.334	1	-3
673.673	1	6
674.011	1	3
674.350	1	4
674.689	1	0
675.028	1	4
675.367	1	-2
675.705	1	8
676.044	1	5
676.383	1	-3
676.722	1	14
677.060	1	-6
677.399	1	-6
677.738	1	10
678.077	1	12
678.416	1	-9
678.754	1	2
679.093	1	-1
679.432	1	4
679.771	1	-1
680.109	1	2
680.448	1	2
680.787	1	-10
681.125	1	3
681.464	1	4
681.803	1	10
682.142	1	-4
682.480	1	-1
682.819	1	2
683.158	1	-3
683.496	1	10
683.835	1	-9
684.174	1	-6
684.512	1	-4
684.851	1	-6
685.190	1	-4
685.529	1	12
685.867	1	6
686.206	1	5
686.545	1	8
686.883	1	1
687.222	1	5
687.561	1	-3
687.899	1	-9
688.238	1	-5
688.577	1	1
688.746	1	-7