File: Data/GaN_170K_550ms/GaN_sample D_spot 18_UVVIS_170 K_200um_550 ms 2x2mm1_96.txt
340.368	1	3
340.710	1	-11
341.052	1	6
341.394	1	16
341.737	1	1
342.079	1	-1
342.421	1	4
342.763	1	0
343.105	1	6
343.447	1	-7
343.789	1	11
344.131	1	4
344.473	1	6
344.815	1	7
345.157	1	7
345.499	1	1
345.841	1	5
346.183	1	2
346.526	1	9
346.868	1	4
347.210	1	-10
347.552	1	4
347.894	1	9
348.236	1	5
348.578	1	4
348.920	1	-1
349.262	1	8
349.604	1	3
349.946	1	10
350.288	1	6
350.630	1	14
350.972	1	5
351.314	1	10
351.656	1	4
351.998	1	8
352.340	1	11
352.682	1	4
353.024	1	0
353.366	1	3
353.708	1	12
354.050	1	3
354.392	1	11
354.734	1	13
355.076	1	12
355.418	1	7
355.760	1	0
356.102	1	7
356.444	1	9
356.785	1	15
357.127	1	4
357.469	1	10
357.811	1	24
358.153	1	17
358.495	1	6
358.837	1	19
359.179	1	9
359.521	1	23
359.863	1	15
360.205	1	21
360.547	1	29
360.889	1	30
361.231	1	31
361.572	1	41
361.914	1	36
362.256	1	33
362.598	1	38
362.940	1	49
363.282	1	57
363.624	1	53
363.966	1	56
364.308	1	57
364.649	1	57
364.991	1	78
365.333	1	65
365.675	1	73
366.017	1	88
366.359	1	86
366.701	1	83
367.042	1	89
367.384	1	106
367.726	1	105
368.068	1	106
368.410	1	109
368.752	1	95
369.093	1	101
369.435	1	98
369.777	1	106
370.119	1	103
370.461	1	98
370.803	1	100
371.144	1	84
371.486	1	79
371.828	1	68
372.170	1	79
372.512	1	70
372.853	1	72
373.195	1	69
373.537	1	77
373.879	1	66
374.220	1	66
374.562	1	60
374.904	1	53
375.246	1	44
375.588	1	52
375.929	1	54
376.271	1	52
376.613	1	58
376.955	1	57
377.296	1	40
377.638	1	38
377.980	1	29
378.321	1	30
378.663	1	44
379.005	1	23
379.347	1	36
379.688	1	34
380.030	1	30
380.372	1	32
380.714	1	37
381.055	1	35
381.397	1	39
381.739	1	26
382.080	1	14
382.422	1	26
382.764	1	30
383.105	1	24
383.447	1	28
383.789	1	20
384.130	1	15
384.472	1	13
384.814	1	24
385.156	1	7
385.497	1	23
385.839	1	10
386.180	1	23
386.522	1	17
386.864	1	15
387.205	1	14
387.547	1	19
387.889	1	18
388.230	1	7
388.572	1	16
388.914	1	6
389.255	1	20
389.597	1	14
389.939	1	6
390.280	1	5
390.622	1	7
390.963	1	4
391.305	1	2
391.647	1	-5
391.988	1	12
392.330	1	7
392.671	1	3
393.013	1	11
393.355	1	11
393.696	1	15
394.038	1	-2
394.379	1	5
394.721	1	5
395.062	1	0
395.404	1	14
395.746	1	10
396.087	1	13
396.429	1	8
396.770	1	15
397.112	1	7
397.453	1	13
397.795	1	-1
398.136	1	5
398.478	1	2
398.819	1	4
399.161	1	1
399.503	1	4
399.844	1	0
400.186	1	5
400.527	1	15
400.869	1	6
401.210	1	12
401.552	1	10
401.893	1	6
402.235	1	4
402.576	1	8
402.918	1	8
403.259	1	8
403.601	1	10
403.942	1	4
404.284	1	-2
404.625	1	16
404.967	1	2
405.308	1	3
405.649	1	13
405.991	1	2
406.332	1	-1
406.674	1	2
407.015	1	5
407.357	1	4
407.698	1	12
408.040	1	3
408.381	1	0
408.722	1	-2
409.064	1	0
409.405	1	10
409.747	1	-3
410.088	1	14
410.430	1	-3
410.771	1	2
411.112	1	-1
411.454	1	8
411.795	1	7
412.137	1	7
412.478	1	2
412.819	1	-5
413.161	1	6
413.502	1	8
413.844	1	12
414.185	1	5
414.526	1	3
414.868	1	3
415.209	1	-12
415.550	1	1
415.892	1	12
416.233	1	1
416.575	1	7
416.916	1	-1
417.257	1	8
417.599	1	7
417.940	1	-4
418.281	1	4
418.623	1	9
418.964	1	-6
419.305	1	10
419.647	1	6
419.988	1	8
420.329	1	2
420.671	1	1
421.012	1	5
421.353	1	10
421.695	1	-4
422.036	1	12
422.377	1	6
422.718	1	10
423.060	1	-4
423.401	1	-2
423.742	1	-1
424.084	1	13
424.425	1	0
424.766	1	-5
425.107	1	-9
425.449	1	8
425.790	1	3
426.131	1	3
426.472	1	1
426.814	1	-5
427.155	1	11
427.496	1	-2
427.837	1	3
428.179	1	9
428.520	1	7
428.861	1	6
429.202	1	-2
429.544	1	2
429.885	1	2
430.226	1	8
430.567	1	-1
430.909	1	7
431.250	1	17
431.591	1	4
431.932	1	-8
432.273	1	6
432.615	1	0
432.956	1	9
433.297	1	1
433.638	1	4
433.979	1	2
434.320	1	7
434.662	1	-8
435.003	1	6
435.344	1	10
435.685	1	0
436.026	1	3
436.368	1	2
436.709	1	5
437.050	1	-7
437.391	1	-2
437.732	1	5
438.073	1	0
438.414	1	-2
438.756	1	4
439.097	1	20
439.438	1	1
439.779	1	-2
440.120	1	0
440.461	1	15
440.802	1	12
441.143	1	-6
441.485	1	-10
441.826	1	8
442.167	1	1
442.508	1	-1
442.849	1	-1
443.190	1	1
443.531	1	4
443.872	1	-5
444.213	1	-4
444.554	1	-3
444.895	1	-11
445.237	1	-1
445.578	1	6
445.919	1	5
446.260	1	15
446.601	1	-1
446.942	1	6
447.283	1	14
447.624	1	-2
447.965	1	-1
448.306	1	10
448.647	1	-10
448.988	1	12
449.329	1	5
449.670	1	-6
450.011	1	14
450.352	1	0
450.693	1	-5
451.034	1	-5
451.375	1	1
451.716	1	14
452.057	1	7
452.398	1	-2
452.739	1	11
453.080	1	-3
453.421	1	1
453.762	1	0
454.103	1	-4
454.444	1	-7
454.785	1	1
455.126	1	8
455.467	1	-13
455.808	1	9
456.149	1	3
456.490	1	6
456.831	1	-9
457.172	1	-2
457.513	1	17
457.854	1	13
458.195	1	9
458.536	1	7
458.877	1	9
459.218	1	-4
459.559	1	12
459.899	1	9
460.240	1	-1
460.581	1	7
460.922	1	-8
461.263	1	1
461.604	1	10
461.945	1	-1
462.286	1	5
462.627	1	7
462.968	1	12
463.309	1	11
463.649	1	9
463.990	1	3
464.331	1	9
464.672	1	-2
465.013	1	12
465.354	1	-4
465.695	1	8
466.036	1	-10
466.376	1	11
466.717	1	-4
467.058	1	8
467.399	1	13
467.740	1	1
468.081	1	0
468.422	1	12
468.762	1	9
469.103	1	9
469.444	1	0
469.785	1	4
470.126	1	3
470.467	1	16
470.807	1	-1
471.148	1	4
471.489	1	4
471.830	1	4
472.171	1	15
472.511	1	2
472.852	1	4
473.193	1	7
473.534	1	3
473.875	1	11
474.215	1	11
474.556	1	7
474.897	1	2
475.238	1	4
475.578	1	1
475.919	1	7
476.260	1	8
476.601	1	6
476.942	1	-2
477.282	1	13
477.623	1	18
477.964	1	3
478.305	1	-1
478.645	1	4
478.986	1	8
479.327	1	0
479.667	1	-3
480.008	1	1
480.349	1	4
480.690	1	9
481.030	1	9
481.371	1	1
481.712	1	12
482.053	1	-2
482.393	1	4
482.734	1	7
483.075	1	0
483.415	1	10
483.756	1	5
484.097	1	-4
484.437	1	-4
484.778	1	1
485.119	1	5
485.459	1	4
485.800	1	-2
486.141	1	8
486.481	1	2
486.822	1	10
487.163	1	2
487.503	1	9
487.844	1	1
488.185	1	12
488.525	1	15
488.866	1	16
489.207	1	14
489.547	1	9
489.888	1	13
490.228	1	3
490.569	1	7
490.910	1	8
491.250	1	6
491.591	1	3
491.932	1	5
492.272	1	13
492.613	1	14
492.953	1	13
493.294	1	9
493.635	1	2
493.975	1	18
494.316	1	1
494.656	1	10
494.997	1	5
495.337	1	16
495.678	1	1
496.019	1	3
496.359	1	2
496.700	1	20
497.040	1	8
497.381	1	7
497.721	1	4
498.062	1	9
498.403	1	13
498.743	1	9
499.084	1	10
499.424	1	12
499.765	1	-5
500.105	1	2
500.446	1	8
500.786	1	10
501.127	1	13
501.467	1	12
501.808	1	1
502.148	1	19
502.489	1	19
502.829	1	19
503.170	1	15
503.510	1	10
503.851	1	12
504.191	1	-2
504.532	1	-3
504.872	1	14
505.213	1	11
505.553	1	10
505.894	1	19
506.234	1	13
506.575	1	10
506.915	1	16
507.256	1	9
507.596	1	20
507.936	1	18
508.277	1	9
508.617	1	21
508.958	1	10
509.298	1	7
509.639	1	19
509.979	1	17
510.319	1	10
510.660	1	13
511.000	1	14
511.341	1	23
511.681	1	14
512.022	1	18
512.362	1	14
512.702	1	0
513.043	1	9
513.383	1	12
513.724	1	8
514.064	1	11
514.404	1	10
514.745	1	18
515.085	1	18
515.425	1	15
515.766	1	20
516.106	1	19
516.447	1	15
516.787	1	22
517.127	1	19
517.468	1	12
517.808	1	26
518.148	1	13
518.489	1	19
518.829	1	11
519.169	1	9
519.510	1	16
519.850	1	18
520.190	1	14
520.531	1	22
520.871	1	18
521.211	1	8
521.552	1	15
521.892	1	19
522.232	1	9
522.573	1	20
522.913	1	22
523.253	1	24
523.593	1	20
523.934	1	18
524.274	1	4
524.614	1	12
524.955	1	28
525.295	1	21
525.635	1	23
525.975	1	16
526.316	1	18
526.656	1	27
526.996	1	20
527.337	1	9
527.677	1	12
528.017	1	23
528.357	1	8
528.698	1	7
529.038	1	9
529.378	1	25
529.718	1	28
530.058	1	26
530.399	1	19
530.739	1	20
531.079	1	18
531.419	1	25
531.760	1	15
532.100	1	9
532.440	1	14
532.780	1	8
533.120	1	24
533.461	1	2
533.801	1	25
534.141	1	12
534.481	1	23
534.821	1	20
535.162	1	18
535.502	1	24
535.842	1	21
536.182	1	13
536.522	1	20
536.862	1	13
537.203	1	17
537.543	1	13
537.883	1	24
538.223	1	8
538.563	1	20
538.903	1	26
539.243	1	18
539.584	1	17
539.924	1	9
540.264	1	15
540.604	1	14
540.944	1	8
541.284	1	26
541.624	1	12
541.964	1	19
542.305	1	15
542.645	1	12
542.985	1	18
543.325	1	20
543.665	1	14
544.005	1	16
544.345	1	14
544.685	1	11
545.025	1	8
545.365	1	15
545.705	1	19
546.045	1	8
546.386	1	14
546.726	1	14
547.066	1	25
547.406	1	14
547.746	1	2
548.086	1	11
548.426	1	26
548.766	1	7
549.106	1	21
549.446	1	10
549.786	1	18
550.126	1	16
550.466	1	15
550.806	1	14
551.146	1	19
551.486	1	19
551.826	1	19
552.166	1	17
552.506	1	14
552.846	1	16
553.186	1	19
553.526	1	11
553.866	1	12
554.206	1	12
554.546	1	6
554.886	1	14
555.226	1	2
555.566	1	9
555.906	1	2
556.246	1	13
556.586	1	11
556.926	1	18
557.266	1	17
557.606	1	17
557.946	1	13
558.286	1	17
558.626	1	16
558.966	1	11
559.306	1	23
559.646	1	10
559.986	1	15
560.325	1	3
560.665	1	15
561.005	1	17
561.345	1	5
561.685	1	12
562.025	1	-2
562.365	1	12
562.705	1	27
563.045	1	2
563.385	1	15
563.725	1	8
564.064	1	7
564.404	1	6
564.744	1	12
565.084	1	10
565.424	1	11
565.764	1	11
566.104	1	11
566.444	1	15
566.783	1	13
567.123	1	10
567.463	1	4
567.803	1	10
568.143	1	1
568.483	1	3
568.823	1	14
569.162	1	17
569.502	1	10
569.842	1	1
570.182	1	5
570.522	1	8
570.862	1	18
571.201	1	13
571.541	1	1
571.881	1	8
572.221	1	4
572.561	1	6
572.900	1	11
573.240	1	10
573.580	1	2
573.920	1	14
574.260	1	11
574.599	1	4
574.939	1	9
575.279	1	10
575.619	1	22
575.959	1	-2
576.298	1	6
576.638	1	12
576.978	1	10
577.318	1	10
577.657	1	4
577.997	1	-5
578.337	1	7
578.677	1	10
579.016	1	0
579.356	1	11
579.696	1	4
580.036	1	3
580.375	1	9
580.715	1	16
581.055	1	10
581.394	1	12
581.734	1	11
582.074	1	12
582.414	1	4
582.753	1	7
583.093	1	18
583.433	1	9
583.772	1	4
584.112	1	7
584.452	1	6
584.791	1	11
585.131	1	16
585.471	1	14
585.811	1	-2
586.150	1	-1
586.490	1	-1
586.830	1	-8
587.169	1	11
587.509	1	7
587.849	1	6
588.188	1	-2
588.528	1	12
588.867	1	5
589.207	1	5
589.547	1	2
589.886	1	7
590.226	1	9
590.566	1	2
590.905	1	15
591.245	1	-4
591.585	1	0
591.924	1	2
592.264	1	-7
592.603	1	1
592.943	1	12
593.283	1	8
593.622	1	2
593.962	1	1
594.301	1	19
594.641	1	5
594.981	1	9
595.320	1	5
595.660	1	6
595.999	1	8
596.339	1	8
596.678	1	-3
597.018	1	1
597.358	1	-4
597.697	1	6
598.037	1	5
598.376	1	-1
598.716	1	4
599.055	1	1
599.395	1	4
599.734	1	7
600.074	1	12
600.413	1	-2
600.753	1	14
601.092	1	9
601.432	1	-7
601.771	1	12
602.111	1	1
602.451	1	15
602.790	1	10
603.130	1	-1
603.469	1	5
603.809	1	6
604.148	1	13
604.487	1	9
604.827	1	-11
605.166	1	6
605.506	1	-8
605.845	1	0
606.185	1	12
606.524	1	5
606.864	1	12
607.203	1	5
607.543	1	10
607.882	1	-2
608.222	1	4
608.561	1	9
608.901	1	8
609.240	1	5
609.579	1	1
609.919	1	2
610.258	1	16
610.598	1	8
610.937	1	4
611.277	1	2
611.616	1	-3
611.955	1	10
612.295	1	0
612.634	1	3
612.974	1	3
613.313	1	-4
613.652	1	18
613.992	1	1
614.331	1	2
614.671	1	10
615.010	1	7
615.349	1	2
615.689	1	14
616.028	1	-3
616.368	1	3
616.707	1	6
617.046	1	-2
617.386	1	-1
617.725	1	10
618.064	1	3
618.404	1	8
618.743	1	6
619.082	1	11
619.422	1	5
619.761	1	3
620.100	1	6
620.440	1	12
620.779	1	-2
621.118	1	-3
621.458	1	1
621.797	1	7
622.136	1	7
622.476	1	2
622.815	1	0
623.154	1	5
623.494	1	-3
623.833	1	12
624.172	1	5
624.511	1	11
624.851	1	3
625.190	1	9
625.529	1	5
625.869	1	3
626.208	1	8
626.547	1	1
626.886	1	15
627.226	1	9
627.565	1	5
627.904	1	8
628.243	1	1
628.583	1	-1
628.922	1	2
629.261	1	8
629.600	1	-3
629.940	1	-10
630.279	1	2
630.618	1	3
630.957	1	11
631.297	1	-5
631.636	1	8
631.975	1	1
632.314	1	-1
632.653	1	11
632.993	1	-3
633.332	1	2
633.671	1	10
634.010	1	6
634.349	1	-4
634.689	1	11
635.028	1	5
635.367	1	8
635.706	1	-4
636.045	1	7
636.384	1	-12
636.724	1	13
637.063	1	3
637.402	1	8
637.741	1	-3
638.080	1	19
638.419	1	0
638.759	1	3
639.098	1	-3
639.437	1	-8
639.776	1	7
640.115	1	20
640.454	1	9
640.793	1	5
641.132	1	4
641.472	1	2
641.811	1	14
642.150	1	-1
642.489	1	7
642.828	1	-3
643.167	1	4
643.506	1	-2
643.845	1	13
644.184	1	18
644.524	1	4
644.863	1	2
645.202	1	15
645.541	1	2
645.880	1	5
646.219	1	-2
646.558	1	8
646.897	1	9
647.236	1	5
647.575	1	-4
647.914	1	3
648.253	1	8
648.592	1	3
648.931	1	4
649.270	1	4
649.610	1	2
649.949	1	-10
650.288	1	9
650.627	1	-5
650.966	1	8
651.305	1	0
651.644	1	12
651.983	1	14
652.322	1	2
652.661	1	4
653.000	1	-5
653.339	1	6
653.678	1	11
654.017	1	13
654.356	1	3
654.695	1	14
655.034	1	1
655.373	1	1
655.712	1	-8
656.051	1	0
656.390	1	1
656.729	1	11
657.068	1	6
657.406	1	8
657.745	1	12
658.084	1	-8
658.423	1	8
658.762	1	3
659.101	1	10
659.440	1	4
659.779	1	2
660.118	1	0
660.457	1	8
660.796	1	9
661.135	1	0
661.474	1	12
661.813	1	3
662.152	1	3
662.491	1	-2
662.829	1	-2
663.168	1	6
663.507	1	7
663.846	1	-1
664.185	1	7
664.524	1	8
664.863	1	-1
665.202	1	21
665.541	1	-2
665.879	1	3
666.218	1	15
666.557	1	-1
666.896	1	3
667.235	1	-2
667.574	1	-11
667.913	1	-6
668.251	1	7
668.590	1	0
668.929	1	3
669.268	1	-2
669.607	1	3
669.946	1	9
670.285	1	7
670.623	1	-3
670.962	1	2
671.301	1	5
671.640	1	6
671.979	1	3
672.317	1	10
672.656	1	6
672.995	1	1
673.334	1	10
673.673	1	4
674.011	1	12
674.350	1	9
674.689	1	10
675.028	1	4
675.367	1	0
675.705	1	6
676.044	1	4
676.383	1	-1
676.722	1	11
677.060	1	-1
677.399	1	3
677.738	1	1
678.077	1	14
678.416	1	-4
678.754	1	8
679.093	1	2
679.432	1	8
679.771	1	10
680.109	1	2
680.448	1	7
680.787	1	3
681.125	1	10
681.464	1	2
681.803	1	13
682.142	1	-3
682.480	1	8
682.819	1	18
683.158	1	-5
683.496	1	1
683.835	1	-8
684.174	1	12
684.512	1	5
684.851	1	12
685.190	1	-1
685.529	1	17
685.867	1	14
686.206	1	10
686.545	1	13
686.883	1	1
687.222	1	2
687.561	1	7
687.899	1	5
688.238	1	6
688.577	1	13
688.746	1	-8