File: Data/GaN_170K_550ms/GaN_sample D_spot 18_UVVIS_170 K_200um_550 ms 2x2mm1_93.txt
340.368	1	-2
340.710	1	-7
341.052	1	9
341.394	1	3
341.737	1	5
342.079	1	4
342.421	1	4
342.763	1	2
343.105	1	5
343.447	1	-4
343.789	1	3
344.131	1	0
344.473	1	7
344.815	1	10
345.157	1	-3
345.499	1	1
345.841	1	5
346.183	1	16
346.526	1	6
346.868	1	3
347.210	1	-3
347.552	1	12
347.894	1	2
348.236	1	-1
348.578	1	6
348.920	1	5
349.262	1	11
349.604	1	11
349.946	1	11
350.288	1	6
350.630	1	9
350.972	1	-2
351.314	1	15
351.656	1	-2
351.998	1	7
352.340	1	8
352.682	1	12
353.024	1	3
353.366	1	12
353.708	1	12
354.050	1	6
354.392	1	13
354.734	1	10
355.076	1	11
355.418	1	11
355.760	1	3
356.102	1	19
356.444	1	-3
356.785	1	10
357.127	1	11
357.469	1	9
357.811	1	23
358.153	1	20
358.495	1	12
358.837	1	11
359.179	1	10
359.521	1	26
359.863	1	25
360.205	1	29
360.547	1	31
360.889	1	39
361.231	1	32
361.572	1	43
361.914	1	44
362.256	1	25
362.598	1	40
362.940	1	49
363.282	1	51
363.624	1	65
363.966	1	62
364.308	1	66
364.649	1	61
364.991	1	81
365.333	1	72
365.675	1	86
366.017	1	91
366.359	1	84
366.701	1	87
367.042	1	108
367.384	1	117
367.726	1	115
368.068	1	121
368.410	1	124
368.752	1	118
369.093	1	109
369.435	1	107
369.777	1	118
370.119	1	109
370.461	1	111
370.803	1	109
371.144	1	92
371.486	1	92
371.828	1	90
372.170	1	88
372.512	1	77
372.853	1	83
373.195	1	66
373.537	1	80
373.879	1	70
374.220	1	74
374.562	1	71
374.904	1	56
375.246	1	60
375.588	1	63
375.929	1	40
376.271	1	48
376.613	1	49
376.955	1	55
377.296	1	46
377.638	1	49
377.980	1	27
378.321	1	43
378.663	1	44
379.005	1	34
379.347	1	33
379.688	1	25
380.030	1	30
380.372	1	38
380.714	1	37
381.055	1	37
381.397	1	33
381.739	1	18
382.080	1	24
382.422	1	25
382.764	1	27
383.105	1	32
383.447	1	29
383.789	1	23
384.130	1	27
384.472	1	16
384.814	1	20
385.156	1	15
385.497	1	19
385.839	1	11
386.180	1	26
386.522	1	22
386.864	1	22
387.205	1	11
387.547	1	14
387.889	1	23
388.230	1	9
388.572	1	10
388.914	1	8
389.255	1	16
389.597	1	10
389.939	1	21
390.280	1	16
390.622	1	6
390.963	1	12
391.305	1	11
391.647	1	1
391.988	1	16
392.330	1	13
392.671	1	12
393.013	1	0
393.355	1	13
393.696	1	17
394.038	1	2
394.379	1	7
394.721	1	4
395.062	1	10
395.404	1	18
395.746	1	11
396.087	1	1
396.429	1	3
396.770	1	15
397.112	1	9
397.453	1	8
397.795	1	4
398.136	1	12
398.478	1	7
398.819	1	5
399.161	1	11
399.503	1	13
399.844	1	8
400.186	1	4
400.527	1	23
400.869	1	6
401.210	1	15
401.552	1	7
401.893	1	18
402.235	1	9
402.576	1	-4
402.918	1	2
403.259	1	1
403.601	1	16
403.942	1	6
404.284	1	-7
404.625	1	3
404.967	1	4
405.308	1	6
405.649	1	5
405.991	1	6
406.332	1	5
406.674	1	13
407.015	1	6
407.357	1	11
407.698	1	11
408.040	1	9
408.381	1	3
408.722	1	-3
409.064	1	10
409.405	1	1
409.747	1	-3
410.088	1	7
410.430	1	0
410.771	1	4
411.112	1	-5
411.454	1	1
411.795	1	12
412.137	1	-1
412.478	1	-1
412.819	1	-3
413.161	1	9
413.502	1	-3
413.844	1	16
414.185	1	4
414.526	1	4
414.868	1	-5
415.209	1	-3
415.550	1	2
415.892	1	9
416.233	1	8
416.575	1	8
416.916	1	-4
417.257	1	5
417.599	1	3
417.940	1	8
418.281	1	6
418.623	1	-1
418.964	1	-13
419.305	1	4
419.647	1	12
419.988	1	4
420.329	1	-1
420.671	1	-2
421.012	1	9
421.353	1	3
421.695	1	-2
422.036	1	8
422.377	1	8
422.718	1	19
423.060	1	-3
423.401	1	5
423.742	1	-4
424.084	1	16
424.425	1	-3
424.766	1	-6
425.107	1	8
425.449	1	6
425.790	1	8
426.131	1	5
426.472	1	-7
426.814	1	-1
427.155	1	14
427.496	1	-6
427.837	1	9
428.179	1	3
428.520	1	5
428.861	1	1
429.202	1	-6
429.544	1	5
429.885	1	4
430.226	1	8
430.567	1	2
430.909	1	6
431.250	1	16
431.591	1	0
431.932	1	8
432.273	1	7
432.615	1	-1
432.956	1	6
433.297	1	-3
433.638	1	10
433.979	1	9
434.320	1	11
434.662	1	-1
435.003	1	14
435.344	1	5
435.685	1	3
436.026	1	0
436.368	1	-4
436.709	1	-4
437.050	1	-7
437.391	1	1
437.732	1	7
438.073	1	10
438.414	1	-1
438.756	1	-3
439.097	1	9
439.438	1	7
439.779	1	10
440.120	1	8
440.461	1	12
440.802	1	8
441.143	1	-3
441.485	1	-5
441.826	1	9
442.167	1	8
442.508	1	10
442.849	1	-10
443.190	1	1
443.531	1	2
443.872	1	2
444.213	1	0
444.554	1	2
444.895	1	-11
445.237	1	-2
445.578	1	6
445.919	1	3
446.260	1	7
446.601	1	-1
446.942	1	2
447.283	1	5
447.624	1	8
447.965	1	3
448.306	1	-2
448.647	1	6
448.988	1	16
449.329	1	7
449.670	1	-10
450.011	1	13
450.352	1	2
450.693	1	-6
451.034	1	-3
451.375	1	-1
451.716	1	3
452.057	1	0
452.398	1	10
452.739	1	2
453.080	1	-2
453.421	1	0
453.762	1	2
454.103	1	-6
454.444	1	-2
454.785	1	7
455.126	1	16
455.467	1	-1
455.808	1	5
456.149	1	-4
456.490	1	1
456.831	1	-3
457.172	1	2
457.513	1	15
457.854	1	7
458.195	1	6
458.536	1	3
458.877	1	6
459.218	1	1
459.559	1	8
459.899	1	5
460.240	1	2
460.581	1	4
460.922	1	7
461.263	1	3
461.604	1	10
461.945	1	3
462.286	1	5
462.627	1	7
462.968	1	7
463.309	1	-6
463.649	1	6
463.990	1	9
464.331	1	2
464.672	1	7
465.013	1	12
465.354	1	-7
465.695	1	4
466.036	1	-3
466.376	1	6
466.717	1	-1
467.058	1	0
467.399	1	12
467.740	1	1
468.081	1	2
468.422	1	8
468.762	1	14
469.103	1	5
469.444	1	2
469.785	1	-3
470.126	1	3
470.467	1	14
470.807	1	2
471.148	1	3
471.489	1	6
471.830	1	9
472.171	1	10
472.511	1	4
472.852	1	10
473.193	1	13
473.534	1	7
473.875	1	-4
474.215	1	8
474.556	1	7
474.897	1	5
475.238	1	-7
475.578	1	2
475.919	1	11
476.260	1	16
476.601	1	5
476.942	1	3
477.282	1	-2
477.623	1	11
477.964	1	-3
478.305	1	7
478.645	1	7
478.986	1	4
479.327	1	-13
479.667	1	-1
480.008	1	0
480.349	1	3
480.690	1	-4
481.030	1	11
481.371	1	6
481.712	1	6
482.053	1	-2
482.393	1	-3
482.734	1	14
483.075	1	5
483.415	1	8
483.756	1	5
484.097	1	-6
484.437	1	8
484.778	1	1
485.119	1	10
485.459	1	9
485.800	1	-3
486.141	1	18
486.481	1	2
486.822	1	9
487.163	1	12
487.503	1	16
487.844	1	10
488.185	1	5
488.525	1	18
488.866	1	11
489.207	1	16
489.547	1	10
489.888	1	6
490.228	1	5
490.569	1	14
490.910	1	0
491.250	1	5
491.591	1	-3
491.932	1	20
492.272	1	14
492.613	1	6
492.953	1	4
493.294	1	8
493.635	1	-3
493.975	1	15
494.316	1	10
494.656	1	6
494.997	1	4
495.337	1	13
495.678	1	8
496.019	1	-5
496.359	1	8
496.700	1	13
497.040	1	11
497.381	1	12
497.721	1	11
498.062	1	7
498.403	1	8
498.743	1	2
499.084	1	8
499.424	1	21
499.765	1	4
500.105	1	8
500.446	1	9
500.786	1	-3
501.127	1	8
501.467	1	2
501.808	1	6
502.148	1	15
502.489	1	12
502.829	1	13
503.170	1	21
503.510	1	13
503.851	1	11
504.191	1	10
504.532	1	2
504.872	1	15
505.213	1	11
505.553	1	10
505.894	1	15
506.234	1	9
506.575	1	25
506.915	1	23
507.256	1	9
507.596	1	8
507.936	1	26
508.277	1	6
508.617	1	16
508.958	1	18
509.298	1	15
509.639	1	23
509.979	1	18
510.319	1	5
510.660	1	11
511.000	1	18
511.341	1	17
511.681	1	16
512.022	1	14
512.362	1	14
512.702	1	14
513.043	1	21
513.383	1	14
513.724	1	16
514.064	1	15
514.404	1	9
514.745	1	0
515.085	1	15
515.425	1	14
515.766	1	13
516.106	1	29
516.447	1	14
516.787	1	13
517.127	1	13
517.468	1	16
517.808	1	21
518.148	1	20
518.489	1	18
518.829	1	19
519.169	1	24
519.510	1	26
519.850	1	13
520.190	1	17
520.531	1	21
520.871	1	7
521.211	1	14
521.552	1	16
521.892	1	20
522.232	1	13
522.573	1	16
522.913	1	18
523.253	1	23
523.593	1	13
523.934	1	13
524.274	1	19
524.614	1	13
524.955	1	16
525.295	1	12
525.635	1	28
525.975	1	11
526.316	1	29
526.656	1	24
526.996	1	23
527.337	1	13
527.677	1	11
528.017	1	11
528.357	1	9
528.698	1	11
529.038	1	15
529.378	1	19
529.718	1	18
530.058	1	24
530.399	1	23
530.739	1	20
531.079	1	32
531.419	1	20
531.760	1	25
532.100	1	18
532.440	1	22
532.780	1	12
533.120	1	26
533.461	1	18
533.801	1	22
534.141	1	20
534.481	1	32
534.821	1	28
535.162	1	14
535.502	1	23
535.842	1	28
536.182	1	18
536.522	1	17
536.862	1	21
537.203	1	22
537.543	1	17
537.883	1	24
538.223	1	15
538.563	1	18
538.903	1	18
539.243	1	11
539.584	1	16
539.924	1	6
540.264	1	18
540.604	1	18
540.944	1	5
541.284	1	17
541.624	1	12
541.964	1	23
542.305	1	20
542.645	1	13
542.985	1	20
543.325	1	14
543.665	1	19
544.005	1	19
544.345	1	25
544.685	1	11
545.025	1	11
545.365	1	10
545.705	1	26
546.045	1	13
546.386	1	19
546.726	1	14
547.066	1	23
547.406	1	21
547.746	1	9
548.086	1	22
548.426	1	12
548.766	1	18
549.106	1	25
549.446	1	24
549.786	1	8
550.126	1	12
550.466	1	9
550.806	1	12
551.146	1	14
551.486	1	10
551.826	1	20
552.166	1	22
552.506	1	11
552.846	1	15
553.186	1	14
553.526	1	12
553.866	1	4
554.206	1	15
554.546	1	13
554.886	1	10
555.226	1	11
555.566	1	19
555.906	1	8
556.246	1	13
556.586	1	11
556.926	1	12
557.266	1	21
557.606	1	16
557.946	1	16
558.286	1	13
558.626	1	20
558.966	1	18
559.306	1	16
559.646	1	1
559.986	1	13
560.325	1	4
560.665	1	13
561.005	1	11
561.345	1	0
561.685	1	9
562.025	1	5
562.365	1	19
562.705	1	9
563.045	1	7
563.385	1	15
563.725	1	6
564.064	1	19
564.404	1	3
564.744	1	18
565.084	1	19
565.424	1	10
565.764	1	13
566.104	1	9
566.444	1	11
566.783	1	10
567.123	1	10
567.463	1	5
567.803	1	9
568.143	1	11
568.483	1	4
568.823	1	12
569.162	1	14
569.502	1	9
569.842	1	13
570.182	1	10
570.522	1	5
570.862	1	21
571.201	1	11
571.541	1	0
571.881	1	1
572.221	1	3
572.561	1	9
572.900	1	3
573.240	1	10
573.580	1	13
573.920	1	14
574.260	1	21
574.599	1	0
574.939	1	3
575.279	1	3
575.619	1	13
575.959	1	0
576.298	1	13
576.638	1	9
576.978	1	2
577.318	1	15
577.657	1	8
577.997	1	5
578.337	1	8
578.677	1	11
579.016	1	3
579.356	1	8
579.696	1	12
580.036	1	13
580.375	1	6
580.715	1	12
581.055	1	17
581.394	1	11
581.734	1	12
582.074	1	9
582.414	1	-1
582.753	1	4
583.093	1	9
583.433	1	6
583.772	1	9
584.112	1	11
584.452	1	10
584.791	1	1
585.131	1	13
585.471	1	12
585.811	1	-3
586.150	1	8
586.490	1	15
586.830	1	4
587.169	1	16
587.509	1	13
587.849	1	13
588.188	1	4
588.528	1	4
588.867	1	9
589.207	1	3
589.547	1	7
589.886	1	5
590.226	1	1
590.566	1	4
590.905	1	14
591.245	1	6
591.585	1	2
591.924	1	2
592.264	1	2
592.603	1	-2
592.943	1	9
593.283	1	9
593.622	1	0
593.962	1	11
594.301	1	17
594.641	1	4
594.981	1	9
595.320	1	3
595.660	1	6
595.999	1	3
596.339	1	6
596.678	1	6
597.018	1	2
597.358	1	-3
597.697	1	5
598.037	1	2
598.376	1	-2
598.716	1	2
599.055	1	7
599.395	1	2
599.734	1	11
600.074	1	8
600.413	1	6
600.753	1	11
601.092	1	4
601.432	1	-1
601.771	1	8
602.111	1	3
602.451	1	6
602.790	1	18
603.130	1	2
603.469	1	10
603.809	1	14
604.148	1	10
604.487	1	5
604.827	1	-1
605.166	1	15
605.506	1	11
605.845	1	8
606.185	1	9
606.524	1	10
606.864	1	2
607.203	1	8
607.543	1	15
607.882	1	1
608.222	1	5
608.561	1	12
608.901	1	9
609.240	1	1
609.579	1	11
609.919	1	-1
610.258	1	8
610.598	1	15
610.937	1	0
611.277	1	12
611.616	1	9
611.955	1	8
612.295	1	4
612.634	1	3
612.974	1	6
613.313	1	-3
613.652	1	22
613.992	1	1
614.331	1	8
614.671	1	13
615.010	1	5
615.349	1	7
615.689	1	10
616.028	1	6
616.368	1	7
616.707	1	15
617.046	1	4
617.386	1	3
617.725	1	11
618.064	1	9
618.404	1	2
618.743	1	3
619.082	1	2
619.422	1	1
619.761	1	3
620.100	1	3
620.440	1	11
620.779	1	2
621.118	1	-3
621.458	1	9
621.797	1	11
622.136	1	15
622.476	1	12
622.815	1	2
623.154	1	8
623.494	1	3
623.833	1	4
624.172	1	2
624.511	1	10
624.851	1	7
625.190	1	9
625.529	1	13
625.869	1	9
626.208	1	14
626.547	1	-3
626.886	1	10
627.226	1	13
627.565	1	1
627.904	1	4
628.243	1	-4
628.583	1	7
628.922	1	-2
629.261	1	3
629.600	1	-6
629.940	1	-4
630.279	1	4
630.618	1	-1
630.957	1	4
631.297	1	-2
631.636	1	10
631.975	1	-7
632.314	1	6
632.653	1	5
632.993	1	2
633.332	1	-2
633.671	1	18
634.010	1	6
634.349	1	-2
634.689	1	11
635.028	1	10
635.367	1	6
635.706	1	-4
636.045	1	11
636.384	1	-6
636.724	1	14
637.063	1	-3
637.402	1	7
637.741	1	1
638.080	1	11
638.419	1	-4
638.759	1	2
639.098	1	9
639.437	1	-1
639.776	1	3
640.115	1	10
640.454	1	1
640.793	1	2
641.132	1	20
641.472	1	-1
641.811	1	5
642.150	1	4
642.489	1	-4
642.828	1	9
643.167	1	6
643.506	1	6
643.845	1	4
644.184	1	14
644.524	1	4
644.863	1	-7
645.202	1	18
645.541	1	7
645.880	1	9
646.219	1	1
646.558	1	6
646.897	1	7
647.236	1	-2
647.575	1	0
647.914	1	4
648.253	1	-4
648.592	1	0
648.931	1	16
649.270	1	7
649.610	1	1
649.949	1	-4
650.288	1	-4
650.627	1	2
650.966	1	-2
651.305	1	-7
651.644	1	2
651.983	1	4
652.322	1	11
652.661	1	10
653.000	1	-10
653.339	1	4
653.678	1	7
654.017	1	12
654.356	1	12
654.695	1	14
655.034	1	-10
655.373	1	7
655.712	1	2
656.051	1	15
656.390	1	4
656.729	1	3
657.068	1	7
657.406	1	6
657.745	1	10
658.084	1	-2
658.423	1	0
658.762	1	3
659.101	1	3
659.440	1	11
659.779	1	-2
660.118	1	10
660.457	1	12
660.796	1	5
661.135	1	-10
661.474	1	5
661.813	1	-4
662.152	1	5
662.491	1	-4
662.829	1	2
663.168	1	2
663.507	1	7
663.846	1	-1
664.185	1	-1
664.524	1	13
664.863	1	4
665.202	1	7
665.541	1	3
665.879	1	14
666.218	1	11
666.557	1	-9
666.896	1	4
667.235	1	10
667.574	1	-7
667.913	1	-2
668.251	1	4
668.590	1	2
668.929	1	4
669.268	1	3
669.607	1	10
669.946	1	2
670.285	1	13
670.623	1	3
670.962	1	2
671.301	1	8
671.640	1	6
671.979	1	5
672.317	1	10
672.656	1	6
672.995	1	-1
673.334	1	-7
673.673	1	5
674.011	1	3
674.350	1	-1
674.689	1	2
675.028	1	6
675.367	1	-5
675.705	1	14
676.044	1	17
676.383	1	7
676.722	1	22
677.060	1	-5
677.399	1	8
677.738	1	-1
678.077	1	12
678.416	1	-3
678.754	1	5
679.093	1	4
679.432	1	11
679.771	1	9
680.109	1	7
680.448	1	8
680.787	1	-6
681.125	1	8
681.464	1	8
681.803	1	3
682.142	1	-2
682.480	1	11
682.819	1	10
683.158	1	7
683.496	1	9
683.835	1	2
684.174	1	-1
684.512	1	-9
684.851	1	1
685.190	1	7
685.529	1	10
685.867	1	6
686.206	1	11
686.545	1	5
686.883	1	5
687.222	1	1
687.561	1	8
687.899	1	3
688.238	1	2
688.577	1	25
688.746	1	-2