File: Data/GaN_170K_550ms/GaN_sample D_spot 18_UVVIS_170 K_200um_550 ms 2x2mm1_185.txt
340.368	1	5
340.710	1	-10
341.052	1	1
341.394	1	3
341.737	1	0
342.079	1	-4
342.421	1	3
342.763	1	5
343.105	1	8
343.447	1	-11
343.789	1	9
344.131	1	4
344.473	1	2
344.815	1	11
345.157	1	-2
345.499	1	-6
345.841	1	13
346.183	1	5
346.526	1	3
346.868	1	4
347.210	1	0
347.552	1	11
347.894	1	-3
348.236	1	2
348.578	1	4
348.920	1	-4
349.262	1	-2
349.604	1	10
349.946	1	11
350.288	1	-3
350.630	1	10
350.972	1	1
351.314	1	9
351.656	1	-7
351.998	1	5
352.340	1	8
352.682	1	8
353.024	1	4
353.366	1	5
353.708	1	10
354.050	1	2
354.392	1	1
354.734	1	8
355.076	1	-2
355.418	1	-5
355.760	1	4
356.102	1	10
356.444	1	0
356.785	1	-1
357.127	1	-4
357.469	1	-3
357.811	1	15
358.153	1	-3
358.495	1	4
358.837	1	8
359.179	1	-5
359.521	1	6
359.863	1	2
360.205	1	8
360.547	1	17
360.889	1	8
361.231	1	3
361.572	1	14
361.914	1	1
362.256	1	3
362.598	1	13
362.940	1	18
363.282	1	14
363.624	1	13
363.966	1	4
364.308	1	23
364.649	1	3
364.991	1	26
365.333	1	17
365.675	1	23
366.017	1	13
366.359	1	17
366.701	1	8
367.042	1	13
367.384	1	27
367.726	1	28
368.068	1	17
368.410	1	28
368.752	1	13
369.093	1	9
369.435	1	19
369.777	1	26
370.119	1	21
370.461	1	32
370.803	1	18
371.144	1	22
371.486	1	8
371.828	1	6
372.170	1	14
372.512	1	13
372.853	1	26
373.195	1	10
373.537	1	22
373.879	1	16
374.220	1	28
374.562	1	9
374.904	1	15
375.246	1	15
375.588	1	13
375.929	1	11
376.271	1	10
376.613	1	18
376.955	1	15
377.296	1	18
377.638	1	20
377.980	1	0
378.321	1	13
378.663	1	14
379.005	1	-6
379.347	1	-1
379.688	1	8
380.030	1	13
380.372	1	2
380.714	1	20
381.055	1	4
381.397	1	7
381.739	1	1
382.080	1	6
382.422	1	3
382.764	1	13
383.105	1	1
383.447	1	6
383.789	1	16
384.130	1	10
384.472	1	-8
384.814	1	5
385.156	1	11
385.497	1	8
385.839	1	-8
386.180	1	7
386.522	1	3
386.864	1	10
387.205	1	-4
387.547	1	5
387.889	1	11
388.230	1	3
388.572	1	17
388.914	1	1
389.255	1	12
389.597	1	5
389.939	1	1
390.280	1	6
390.622	1	6
390.963	1	5
391.305	1	-3
391.647	1	-8
391.988	1	11
392.330	1	7
392.671	1	-1
393.013	1	0
393.355	1	9
393.696	1	9
394.038	1	-5
394.379	1	0
394.721	1	-2
395.062	1	-3
395.404	1	8
395.746	1	4
396.087	1	8
396.429	1	6
396.770	1	13
397.112	1	-4
397.453	1	10
397.795	1	0
398.136	1	5
398.478	1	-5
398.819	1	-6
399.161	1	-4
399.503	1	2
399.844	1	1
400.186	1	2
400.527	1	21
400.869	1	-7
401.210	1	9
401.552	1	4
401.893	1	19
402.235	1	1
402.576	1	1
402.918	1	10
403.259	1	7
403.601	1	15
403.942	1	4
404.284	1	-1
404.625	1	0
404.967	1	3
405.308	1	6
405.649	1	1
405.991	1	8
406.332	1	-10
406.674	1	12
407.015	1	10
407.357	1	3
407.698	1	-1
408.040	1	0
408.381	1	0
408.722	1	3
409.064	1	-2
409.405	1	-1
409.747	1	7
410.088	1	6
410.430	1	6
410.771	1	9
411.112	1	5
411.454	1	4
411.795	1	10
412.137	1	-9
412.478	1	-4
412.819	1	-6
413.161	1	1
413.502	1	2
413.844	1	8
414.185	1	3
414.526	1	8
414.868	1	-2
415.209	1	-15
415.550	1	3
415.892	1	10
416.233	1	3
416.575	1	-8
416.916	1	-3
417.257	1	5
417.599	1	-5
417.940	1	-4
418.281	1	-2
418.623	1	0
418.964	1	-3
419.305	1	3
419.647	1	7
419.988	1	7
420.329	1	6
420.671	1	-1
421.012	1	5
421.353	1	8
421.695	1	-1
422.036	1	8
422.377	1	10
422.718	1	11
423.060	1	-2
423.401	1	1
423.742	1	-3
424.084	1	17
424.425	1	-4
424.766	1	-1
425.107	1	-5
425.449	1	6
425.790	1	9
426.131	1	11
426.472	1	1
426.814	1	-3
427.155	1	12
427.496	1	0
427.837	1	7
428.179	1	3
428.520	1	-2
428.861	1	-2
429.202	1	0
429.544	1	5
429.885	1	-5
430.226	1	-2
430.567	1	15
430.909	1	-1
431.250	1	13
431.591	1	4
431.932	1	-5
432.273	1	4
432.615	1	7
432.956	1	5
433.297	1	-9
433.638	1	6
433.979	1	4
434.320	1	8
434.662	1	-15
435.003	1	3
435.344	1	0
435.685	1	-6
436.026	1	-8
436.368	1	3
436.709	1	0
437.050	1	-13
437.391	1	-3
437.732	1	4
438.073	1	-4
438.414	1	-3
438.756	1	0
439.097	1	3
439.438	1	7
439.779	1	10
440.120	1	-2
440.461	1	10
440.802	1	9
441.143	1	8
441.485	1	-5
441.826	1	11
442.167	1	6
442.508	1	-4
442.849	1	3
443.190	1	1
443.531	1	7
443.872	1	-5
444.213	1	-3
444.554	1	3
444.895	1	-8
445.237	1	-10
445.578	1	7
445.919	1	0
446.260	1	6
446.601	1	3
446.942	1	5
447.283	1	6
447.624	1	3
447.965	1	5
448.306	1	1
448.647	1	-7
448.988	1	11
449.329	1	3
449.670	1	-11
450.011	1	10
450.352	1	4
450.693	1	-6
451.034	1	-7
451.375	1	4
451.716	1	4
452.057	1	2
452.398	1	1
452.739	1	5
453.080	1	2
453.421	1	-4
453.762	1	4
454.103	1	-6
454.444	1	-6
454.785	1	-7
455.126	1	15
455.467	1	-9
455.808	1	6
456.149	1	5
456.490	1	6
456.831	1	1
457.172	1	-4
457.513	1	6
457.854	1	8
458.195	1	-5
458.536	1	-11
458.877	1	4
459.218	1	-1
459.559	1	1
459.899	1	3
460.240	1	-1
460.581	1	8
460.922	1	3
461.263	1	1
461.604	1	15
461.945	1	1
462.286	1	3
462.627	1	4
462.968	1	10
463.309	1	1
463.649	1	2
463.990	1	3
464.331	1	0
464.672	1	7
465.013	1	8
465.354	1	-6
465.695	1	4
466.036	1	-3
466.376	1	4
466.717	1	4
467.058	1	1
467.399	1	4
467.740	1	-4
468.081	1	-2
468.422	1	7
468.762	1	8
469.103	1	8
469.444	1	-3
469.785	1	-3
470.126	1	3
470.467	1	11
470.807	1	0
471.148	1	-7
471.489	1	6
471.830	1	3
472.171	1	9
472.511	1	7
472.852	1	-2
473.193	1	4
473.534	1	18
473.875	1	2
474.215	1	1
474.556	1	10
474.897	1	0
475.238	1	-6
475.578	1	0
475.919	1	10
476.260	1	1
476.601	1	5
476.942	1	-2
477.282	1	9
477.623	1	9
477.964	1	2
478.305	1	3
478.645	1	6
478.986	1	-6
479.327	1	-12
479.667	1	4
480.008	1	10
480.349	1	1
480.690	1	10
481.030	1	-2
481.371	1	0
481.712	1	2
482.053	1	-2
482.393	1	4
482.734	1	3
483.075	1	4
483.415	1	6
483.756	1	5
484.097	1	-7
484.437	1	-2
484.778	1	2
485.119	1	8
485.459	1	5
485.800	1	3
486.141	1	5
486.481	1	3
486.822	1	4
487.163	1	9
487.503	1	-4
487.844	1	0
488.185	1	12
488.525	1	3
488.866	1	13
489.207	1	0
489.547	1	10
489.888	1	2
490.228	1	-2
490.569	1	0
490.910	1	-2
491.250	1	0
491.591	1	4
491.932	1	2
492.272	1	2
492.613	1	5
492.953	1	3
493.294	1	-6
493.635	1	-8
493.975	1	11
494.316	1	2
494.656	1	2
494.997	1	7
495.337	1	10
495.678	1	8
496.019	1	-6
496.359	1	7
496.700	1	5
497.040	1	4
497.381	1	4
497.721	1	-7
498.062	1	0
498.403	1	9
498.743	1	6
499.084	1	-2
499.424	1	2
499.765	1	-10
500.105	1	0
500.446	1	-1
500.786	1	-4
501.127	1	6
501.467	1	4
501.808	1	-4
502.148	1	-2
502.489	1	1
502.829	1	6
503.170	1	9
503.510	1	5
503.851	1	-3
504.191	1	-8
504.532	1	-11
504.872	1	13
505.213	1	-4
505.553	1	10
505.894	1	12
506.234	1	-1
506.575	1	9
506.915	1	11
507.256	1	0
507.596	1	5
507.936	1	9
508.277	1	1
508.617	1	6
508.958	1	-2
509.298	1	1
509.639	1	10
509.979	1	9
510.319	1	-11
510.660	1	-2
511.000	1	5
511.341	1	9
511.681	1	1
512.022	1	15
512.362	1	2
512.702	1	-3
513.043	1	5
513.383	1	9
513.724	1	3
514.064	1	1
514.404	1	-5
514.745	1	-4
515.085	1	-1
515.425	1	6
515.766	1	6
516.106	1	11
516.447	1	-6
516.787	1	4
517.127	1	4
517.468	1	11
517.808	1	12
518.148	1	2
518.489	1	17
518.829	1	0
519.169	1	-1
519.510	1	5
519.850	1	8
520.190	1	6
520.531	1	7
520.871	1	0
521.211	1	-4
521.552	1	13
521.892	1	6
522.232	1	-15
522.573	1	6
522.913	1	13
523.253	1	10
523.593	1	-2
523.934	1	5
524.274	1	1
524.614	1	10
524.955	1	6
525.295	1	4
525.635	1	10
525.975	1	-3
526.316	1	8
526.656	1	15
526.996	1	-1
527.337	1	3
527.677	1	0
528.017	1	1
528.357	1	-5
528.698	1	-5
529.038	1	5
529.378	1	0
529.718	1	14
530.058	1	17
530.399	1	11
530.739	1	2
531.079	1	7
531.419	1	9
531.760	1	4
532.100	1	-5
532.440	1	6
532.780	1	-10
533.120	1	7
533.461	1	2
533.801	1	8
534.141	1	-1
534.481	1	10
534.821	1	3
535.162	1	2
535.502	1	3
535.842	1	10
536.182	1	5
536.522	1	8
536.862	1	22
537.203	1	2
537.543	1	0
537.883	1	0
538.223	1	14
538.563	1	0
538.903	1	3
539.243	1	4
539.584	1	7
539.924	1	2
540.264	1	5
540.604	1	-7
540.944	1	-7
541.284	1	14
541.624	1	-1
541.964	1	5
542.305	1	5
542.645	1	0
542.985	1	13
543.325	1	13
543.665	1	8
544.005	1	5
544.345	1	4
544.685	1	3
545.025	1	0
545.365	1	-4
545.705	1	4
546.045	1	3
546.386	1	-1
546.726	1	1
547.066	1	7
547.406	1	0
547.746	1	-4
548.086	1	3
548.426	1	8
548.766	1	-2
549.106	1	11
549.446	1	10
549.786	1	5
550.126	1	4
550.466	1	11
550.806	1	2
551.146	1	10
551.486	1	-9
551.826	1	7
552.166	1	1
552.506	1	2
552.846	1	-3
553.186	1	6
553.526	1	-7
553.866	1	-5
554.206	1	-4
554.546	1	-8
554.886	1	8
555.226	1	-11
555.566	1	14
555.906	1	-3
556.246	1	-1
556.586	1	-6
556.926	1	8
557.266	1	18
557.606	1	10
557.946	1	6
558.286	1	1
558.626	1	7
558.966	1	17
559.306	1	15
559.646	1	0
559.986	1	6
560.325	1	0
560.665	1	5
561.005	1	-7
561.345	1	1
561.685	1	2
562.025	1	-11
562.365	1	10
562.705	1	4
563.045	1	-2
563.385	1	11
563.725	1	-5
564.064	1	4
564.404	1	0
564.744	1	1
565.084	1	13
565.424	1	5
565.764	1	7
566.104	1	3
566.444	1	10
566.783	1	0
567.123	1	0
567.463	1	-2
567.803	1	9
568.143	1	3
568.483	1	6
568.823	1	9
569.162	1	-1
569.502	1	3
569.842	1	-2
570.182	1	5
570.522	1	-6
570.862	1	-1
571.201	1	5
571.541	1	1
571.881	1	-4
572.221	1	8
572.561	1	2
572.900	1	2
573.240	1	-1
573.580	1	0
573.920	1	3
574.260	1	11
574.599	1	-1
574.939	1	-4
575.279	1	-4
575.619	1	7
575.959	1	-3
576.298	1	20
576.638	1	9
576.978	1	-6
577.318	1	8
577.657	1	-2
577.997	1	-5
578.337	1	0
578.677	1	-1
579.016	1	6
579.356	1	4
579.696	1	-5
580.036	1	4
580.375	1	-2
580.715	1	5
581.055	1	5
581.394	1	9
581.734	1	7
582.074	1	2
582.414	1	-1
582.753	1	9
583.093	1	9
583.433	1	12
583.772	1	-2
584.112	1	8
584.452	1	-9
584.791	1	7
585.131	1	5
585.471	1	10
585.811	1	-14
586.150	1	-7
586.490	1	2
586.830	1	-5
587.169	1	3
587.509	1	13
587.849	1	4
588.188	1	4
588.528	1	1
588.867	1	12
589.207	1	-2
589.547	1	6
589.886	1	-4
590.226	1	5
590.566	1	2
590.905	1	5
591.245	1	6
591.585	1	5
591.924	1	-3
592.264	1	-18
592.603	1	-3
592.943	1	5
593.283	1	8
593.622	1	-8
593.962	1	1
594.301	1	6
594.641	1	3
594.981	1	7
595.320	1	0
595.660	1	4
595.999	1	-2
596.339	1	5
596.678	1	2
597.018	1	0
597.358	1	-6
597.697	1	-5
598.037	1	-6
598.376	1	-3
598.716	1	9
599.055	1	0
599.395	1	-6
599.734	1	12
600.074	1	-2
600.413	1	-3
600.753	1	-1
601.092	1	4
601.432	1	-6
601.771	1	10
602.111	1	-1
602.451	1	8
602.790	1	9
603.130	1	-9
603.469	1	-1
603.809	1	4
604.148	1	3
604.487	1	15
604.827	1	-5
605.166	1	6
605.506	1	-4
605.845	1	13
606.185	1	0
606.524	1	-2
606.864	1	1
607.203	1	4
607.543	1	-5
607.882	1	-6
608.222	1	1
608.561	1	6
608.901	1	6
609.240	1	2
609.579	1	-4
609.919	1	-6
610.258	1	12
610.598	1	9
610.937	1	-2
611.277	1	1
611.616	1	-1
611.955	1	8
612.295	1	3
612.634	1	0
612.974	1	0
613.313	1	-11
613.652	1	2
613.992	1	8
614.331	1	6
614.671	1	14
615.010	1	7
615.349	1	4
615.689	1	16
616.028	1	-3
616.368	1	6
616.707	1	5
617.046	1	-2
617.386	1	2
617.725	1	7
618.064	1	1
618.404	1	0
618.743	1	5
619.082	1	4
619.422	1	-12
619.761	1	-7
620.100	1	0
620.440	1	3
620.779	1	0
621.118	1	0
621.458	1	2
621.797	1	3
622.136	1	2
622.476	1	-2
622.815	1	8
623.154	1	0
623.494	1	-3
623.833	1	6
624.172	1	-1
624.511	1	14
624.851	1	-1
625.190	1	2
625.529	1	9
625.869	1	10
626.208	1	5
626.547	1	-12
626.886	1	-4
627.226	1	4
627.565	1	7
627.904	1	4
628.243	1	1
628.583	1	-4
628.922	1	2
629.261	1	10
629.600	1	-5
629.940	1	2
630.279	1	-3
630.618	1	-4
630.957	1	6
631.297	1	2
631.636	1	13
631.975	1	4
632.314	1	2
632.653	1	16
632.993	1	-2
633.332	1	-5
633.671	1	5
634.010	1	13
634.349	1	-14
634.689	1	8
635.028	1	-3
635.367	1	-6
635.706	1	0
636.045	1	2
636.384	1	-6
636.724	1	0
637.063	1	10
637.402	1	15
637.741	1	2
638.080	1	6
638.419	1	-2
638.759	1	3
639.098	1	-10
639.437	1	-4
639.776	1	-2
640.115	1	13
640.454	1	0
640.793	1	-6
641.132	1	4
641.472	1	2
641.811	1	15
642.150	1	-1
642.489	1	-3
642.828	1	-6
643.167	1	3
643.506	1	8
643.845	1	8
644.184	1	6
644.524	1	6
644.863	1	-6
645.202	1	6
645.541	1	2
645.880	1	6
646.219	1	-3
646.558	1	1
646.897	1	9
647.236	1	-4
647.575	1	-3
647.914	1	3
648.253	1	4
648.592	1	-1
648.931	1	0
649.270	1	-2
649.610	1	7
649.949	1	-3
650.288	1	7
650.627	1	-7
650.966	1	6
651.305	1	2
651.644	1	8
651.983	1	-7
652.322	1	-4
652.661	1	0
653.000	1	-6
653.339	1	1
653.678	1	0
654.017	1	6
654.356	1	0
654.695	1	11
655.034	1	2
655.373	1	4
655.712	1	-9
656.051	1	2
656.390	1	-5
656.729	1	6
657.068	1	-1
657.406	1	7
657.745	1	7
658.084	1	-6
658.423	1	-1
658.762	1	-2
659.101	1	6
659.440	1	-2
659.779	1	1
660.118	1	-3
660.457	1	12
660.796	1	2
661.135	1	-13
661.474	1	3
661.813	1	-6
662.152	1	-3
662.491	1	-15
662.829	1	0
663.168	1	8
663.507	1	6
663.846	1	-3
664.185	1	9
664.524	1	1
664.863	1	-2
665.202	1	15
665.541	1	-2
665.879	1	11
666.218	1	8
666.557	1	4
666.896	1	3
667.235	1	-4
667.574	1	-9
667.913	1	-3
668.251	1	3
668.590	1	-4
668.929	1	2
669.268	1	1
669.607	1	5
669.946	1	1
670.285	1	18
670.623	1	4
670.962	1	-3
671.301	1	3
671.640	1	4
671.979	1	0
672.317	1	13
672.656	1	2
672.995	1	-1
673.334	1	-2
673.673	1	0
674.011	1	3
674.350	1	0
674.689	1	3
675.028	1	0
675.367	1	2
675.705	1	14
676.044	1	7
676.383	1	5
676.722	1	15
677.060	1	4
677.399	1	11
677.738	1	6
678.077	1	12
678.416	1	-3
678.754	1	3
679.093	1	5
679.432	1	-1
679.771	1	8
680.109	1	-5
680.448	1	6
680.787	1	-3
681.125	1	5
681.464	1	2
681.803	1	5
682.142	1	1
682.480	1	-2
682.819	1	9
683.158	1	-5
683.496	1	7
683.835	1	-4
684.174	1	3
684.512	1	-7
684.851	1	-3
685.190	1	-1
685.529	1	11
685.867	1	2
686.206	1	7
686.545	1	4
686.883	1	-2
687.222	1	-3
687.561	1	-4
687.899	1	-4
688.238	1	-4
688.577	1	10
688.746	1	-3