File: Data/GaN_170K_550ms/GaN_sample D_spot 18_UVVIS_170 K_200um_550 ms 2x2mm1_122.txt
340.368	1	0
340.710	1	-12
341.052	1	-2
341.394	1	1
341.737	1	-5
342.079	1	-2
342.421	1	5
342.763	1	7
343.105	1	11
343.447	1	-9
343.789	1	6
344.131	1	2
344.473	1	-5
344.815	1	12
345.157	1	-2
345.499	1	4
345.841	1	5
346.183	1	-5
346.526	1	8
346.868	1	4
347.210	1	1
347.552	1	17
347.894	1	5
348.236	1	1
348.578	1	1
348.920	1	-3
349.262	1	3
349.604	1	2
349.946	1	13
350.288	1	5
350.630	1	17
350.972	1	-2
351.314	1	4
351.656	1	-2
351.998	1	11
352.340	1	10
352.682	1	9
353.024	1	4
353.366	1	2
353.708	1	6
354.050	1	3
354.392	1	11
354.734	1	10
355.076	1	4
355.418	1	12
355.760	1	12
356.102	1	15
356.444	1	9
356.785	1	12
357.127	1	9
357.469	1	9
357.811	1	14
358.153	1	13
358.495	1	13
358.837	1	10
359.179	1	2
359.521	1	12
359.863	1	20
360.205	1	30
360.547	1	21
360.889	1	13
361.231	1	27
361.572	1	31
361.914	1	20
362.256	1	14
362.598	1	22
362.940	1	29
363.282	1	23
363.624	1	31
363.966	1	26
364.308	1	32
364.649	1	32
364.991	1	43
365.333	1	32
365.675	1	37
366.017	1	42
366.359	1	46
366.701	1	56
367.042	1	45
367.384	1	59
367.726	1	62
368.068	1	65
368.410	1	66
368.752	1	55
369.093	1	49
369.435	1	57
369.777	1	60
370.119	1	61
370.461	1	55
370.803	1	44
371.144	1	44
371.486	1	38
371.828	1	37
372.170	1	37
372.512	1	37
372.853	1	50
373.195	1	40
373.537	1	48
373.879	1	41
374.220	1	37
374.562	1	37
374.904	1	33
375.246	1	28
375.588	1	30
375.929	1	30
376.271	1	34
376.613	1	35
376.955	1	36
377.296	1	20
377.638	1	28
377.980	1	16
378.321	1	18
378.663	1	23
379.005	1	15
379.347	1	20
379.688	1	15
380.030	1	24
380.372	1	19
380.714	1	23
381.055	1	19
381.397	1	20
381.739	1	5
382.080	1	19
382.422	1	15
382.764	1	11
383.105	1	17
383.447	1	19
383.789	1	19
384.130	1	9
384.472	1	2
384.814	1	10
385.156	1	4
385.497	1	11
385.839	1	6
386.180	1	19
386.522	1	15
386.864	1	18
387.205	1	7
387.547	1	20
387.889	1	13
388.230	1	3
388.572	1	9
388.914	1	-4
389.255	1	13
389.597	1	16
389.939	1	9
390.280	1	10
390.622	1	12
390.963	1	5
391.305	1	4
391.647	1	-1
391.988	1	15
392.330	1	5
392.671	1	2
393.013	1	8
393.355	1	12
393.696	1	17
394.038	1	-4
394.379	1	5
394.721	1	7
395.062	1	3
395.404	1	8
395.746	1	10
396.087	1	13
396.429	1	18
396.770	1	15
397.112	1	3
397.453	1	17
397.795	1	5
398.136	1	7
398.478	1	4
398.819	1	8
399.161	1	1
399.503	1	9
399.844	1	-4
400.186	1	5
400.527	1	17
400.869	1	1
401.210	1	1
401.552	1	5
401.893	1	12
402.235	1	0
402.576	1	3
402.918	1	1
403.259	1	7
403.601	1	9
403.942	1	15
404.284	1	5
404.625	1	3
404.967	1	4
405.308	1	6
405.649	1	2
405.991	1	5
406.332	1	-6
406.674	1	7
407.015	1	11
407.357	1	-6
407.698	1	11
408.040	1	3
408.381	1	2
408.722	1	3
409.064	1	2
409.405	1	-2
409.747	1	4
410.088	1	7
410.430	1	-6
410.771	1	7
411.112	1	-3
411.454	1	13
411.795	1	10
412.137	1	0
412.478	1	-1
412.819	1	-7
413.161	1	5
413.502	1	-1
413.844	1	18
414.185	1	-1
414.526	1	5
414.868	1	-1
415.209	1	-13
415.550	1	8
415.892	1	2
416.233	1	1
416.575	1	-3
416.916	1	-7
417.257	1	3
417.599	1	-3
417.940	1	-5
418.281	1	-1
418.623	1	-4
418.964	1	0
419.305	1	4
419.647	1	2
419.988	1	8
420.329	1	7
420.671	1	2
421.012	1	8
421.353	1	8
421.695	1	-1
422.036	1	3
422.377	1	14
422.718	1	16
423.060	1	-2
423.401	1	0
423.742	1	3
424.084	1	15
424.425	1	-6
424.766	1	-5
425.107	1	2
425.449	1	0
425.790	1	3
426.131	1	4
426.472	1	6
426.814	1	-2
427.155	1	18
427.496	1	-1
427.837	1	14
428.179	1	4
428.520	1	3
428.861	1	7
429.202	1	-1
429.544	1	4
429.885	1	4
430.226	1	4
430.567	1	1
430.909	1	6
431.250	1	8
431.591	1	-4
431.932	1	-4
432.273	1	5
432.615	1	2
432.956	1	9
433.297	1	8
433.638	1	7
433.979	1	1
434.320	1	1
434.662	1	-6
435.003	1	8
435.344	1	11
435.685	1	2
436.026	1	3
436.368	1	7
436.709	1	8
437.050	1	-10
437.391	1	-15
437.732	1	4
438.073	1	2
438.414	1	-5
438.756	1	-7
439.097	1	8
439.438	1	3
439.779	1	12
440.120	1	-4
440.461	1	17
440.802	1	6
441.143	1	-2
441.485	1	-2
441.826	1	7
442.167	1	4
442.508	1	-11
442.849	1	7
443.190	1	4
443.531	1	1
443.872	1	-8
444.213	1	1
444.554	1	-5
444.895	1	-9
445.237	1	-3
445.578	1	2
445.919	1	6
446.260	1	9
446.601	1	-4
446.942	1	3
447.283	1	2
447.624	1	1
447.965	1	4
448.306	1	-6
448.647	1	0
448.988	1	6
449.329	1	-1
449.670	1	-12
450.011	1	7
450.352	1	-5
450.693	1	6
451.034	1	-4
451.375	1	2
451.716	1	7
452.057	1	4
452.398	1	3
452.739	1	5
453.080	1	3
453.421	1	2
453.762	1	0
454.103	1	1
454.444	1	-1
454.785	1	4
455.126	1	7
455.467	1	-12
455.808	1	17
456.149	1	2
456.490	1	6
456.831	1	-1
457.172	1	-4
457.513	1	14
457.854	1	13
458.195	1	3
458.536	1	-1
458.877	1	-1
459.218	1	-2
459.559	1	-1
459.899	1	1
460.240	1	2
460.581	1	8
460.922	1	-4
461.263	1	-6
461.604	1	5
461.945	1	-3
462.286	1	-3
462.627	1	1
462.968	1	15
463.309	1	0
463.649	1	0
463.990	1	-1
464.331	1	-2
464.672	1	-4
465.013	1	13
465.354	1	5
465.695	1	-6
466.036	1	-7
466.376	1	3
466.717	1	-2
467.058	1	9
467.399	1	19
467.740	1	-5
468.081	1	-2
468.422	1	9
468.762	1	7
469.103	1	3
469.444	1	4
469.785	1	-1
470.126	1	4
470.467	1	0
470.807	1	-5
471.148	1	-2
471.489	1	7
471.830	1	-5
472.171	1	8
472.511	1	5
472.852	1	3
473.193	1	6
473.534	1	1
473.875	1	1
474.215	1	-8
474.556	1	7
474.897	1	2
475.238	1	-4
475.578	1	7
475.919	1	7
476.260	1	19
476.601	1	3
476.942	1	1
477.282	1	16
477.623	1	5
477.964	1	14
478.305	1	-3
478.645	1	10
478.986	1	-8
479.327	1	-2
479.667	1	8
480.008	1	8
480.349	1	9
480.690	1	5
481.030	1	8
481.371	1	5
481.712	1	4
482.053	1	-4
482.393	1	6
482.734	1	11
483.075	1	6
483.415	1	5
483.756	1	7
484.097	1	-2
484.437	1	-4
484.778	1	-4
485.119	1	1
485.459	1	-1
485.800	1	-6
486.141	1	17
486.481	1	-3
486.822	1	10
487.163	1	5
487.503	1	6
487.844	1	1
488.185	1	3
488.525	1	9
488.866	1	8
489.207	1	3
489.547	1	16
489.888	1	8
490.228	1	3
490.569	1	13
490.910	1	6
491.250	1	12
491.591	1	9
491.932	1	3
492.272	1	8
492.613	1	3
492.953	1	5
493.294	1	1
493.635	1	-1
493.975	1	14
494.316	1	1
494.656	1	6
494.997	1	4
495.337	1	11
495.678	1	7
496.019	1	2
496.359	1	0
496.700	1	10
497.040	1	3
497.381	1	5
497.721	1	0
498.062	1	5
498.403	1	8
498.743	1	15
499.084	1	3
499.424	1	0
499.765	1	-9
500.105	1	-1
500.446	1	8
500.786	1	11
501.127	1	8
501.467	1	5
501.808	1	-1
502.148	1	9
502.489	1	6
502.829	1	9
503.170	1	7
503.510	1	1
503.851	1	-4
504.191	1	0
504.532	1	3
504.872	1	-2
505.213	1	0
505.553	1	5
505.894	1	12
506.234	1	-3
506.575	1	14
506.915	1	7
507.256	1	0
507.596	1	8
507.936	1	15
508.277	1	-2
508.617	1	12
508.958	1	10
509.298	1	2
509.639	1	8
509.979	1	5
510.319	1	-4
510.660	1	1
511.000	1	11
511.341	1	12
511.681	1	0
512.022	1	0
512.362	1	6
512.702	1	0
513.043	1	5
513.383	1	18
513.724	1	4
514.064	1	16
514.404	1	6
514.745	1	12
515.085	1	9
515.425	1	11
515.766	1	9
516.106	1	8
516.447	1	8
516.787	1	9
517.127	1	13
517.468	1	17
517.808	1	14
518.148	1	11
518.489	1	13
518.829	1	10
519.169	1	4
519.510	1	11
519.850	1	10
520.190	1	2
520.531	1	14
520.871	1	9
521.211	1	13
521.552	1	16
521.892	1	11
522.232	1	-6
522.573	1	14
522.913	1	18
523.253	1	23
523.593	1	10
523.934	1	5
524.274	1	-1
524.614	1	12
524.955	1	15
525.295	1	5
525.635	1	7
525.975	1	10
526.316	1	15
526.656	1	7
526.996	1	3
527.337	1	8
527.677	1	5
528.017	1	17
528.357	1	6
528.698	1	0
529.038	1	7
529.378	1	13
529.718	1	12
530.058	1	11
530.399	1	4
530.739	1	19
531.079	1	14
531.419	1	13
531.760	1	17
532.100	1	0
532.440	1	11
532.780	1	4
533.120	1	10
533.461	1	9
533.801	1	11
534.141	1	2
534.481	1	17
534.821	1	11
535.162	1	12
535.502	1	13
535.842	1	12
536.182	1	10
536.522	1	3
536.862	1	12
537.203	1	6
537.543	1	3
537.883	1	12
538.223	1	7
538.563	1	5
538.903	1	13
539.243	1	4
539.584	1	7
539.924	1	2
540.264	1	9
540.604	1	5
540.944	1	9
541.284	1	9
541.624	1	6
541.964	1	9
542.305	1	11
542.645	1	-2
542.985	1	12
543.325	1	13
543.665	1	1
544.005	1	22
544.345	1	8
544.685	1	7
545.025	1	-1
545.365	1	9
545.705	1	11
546.045	1	4
546.386	1	7
546.726	1	11
547.066	1	9
547.406	1	4
547.746	1	2
548.086	1	10
548.426	1	14
548.766	1	12
549.106	1	10
549.446	1	12
549.786	1	11
550.126	1	-1
550.466	1	4
550.806	1	5
551.146	1	21
551.486	1	5
551.826	1	12
552.166	1	6
552.506	1	16
552.846	1	7
553.186	1	4
553.526	1	10
553.866	1	2
554.206	1	2
554.546	1	-4
554.886	1	-5
555.226	1	2
555.566	1	4
555.906	1	-5
556.246	1	3
556.586	1	2
556.926	1	6
557.266	1	17
557.606	1	13
557.946	1	6
558.286	1	-1
558.626	1	16
558.966	1	14
559.306	1	16
559.646	1	-6
559.986	1	7
560.325	1	3
560.665	1	6
561.005	1	9
561.345	1	0
561.685	1	7
562.025	1	-4
562.365	1	7
562.705	1	13
563.045	1	3
563.385	1	10
563.725	1	5
564.064	1	10
564.404	1	4
564.744	1	8
565.084	1	8
565.424	1	9
565.764	1	6
566.104	1	4
566.444	1	1
566.783	1	-2
567.123	1	9
567.463	1	0
567.803	1	11
568.143	1	7
568.483	1	2
568.823	1	16
569.162	1	12
569.502	1	11
569.842	1	-5
570.182	1	-6
570.522	1	9
570.862	1	9
571.201	1	3
571.541	1	0
571.881	1	-1
572.221	1	12
572.561	1	8
572.900	1	-5
573.240	1	8
573.580	1	13
573.920	1	16
574.260	1	12
574.599	1	5
574.939	1	5
575.279	1	10
575.619	1	7
575.959	1	2
576.298	1	4
576.638	1	12
576.978	1	5
577.318	1	5
577.657	1	9
577.997	1	1
578.337	1	7
578.677	1	2
579.016	1	10
579.356	1	3
579.696	1	2
580.036	1	-1
580.375	1	4
580.715	1	13
581.055	1	11
581.394	1	3
581.734	1	6
582.074	1	1
582.414	1	5
582.753	1	14
583.093	1	12
583.433	1	12
583.772	1	1
584.112	1	8
584.452	1	1
584.791	1	1
585.131	1	9
585.471	1	1
585.811	1	-3
586.150	1	-6
586.490	1	6
586.830	1	-4
587.169	1	10
587.509	1	6
587.849	1	10
588.188	1	7
588.528	1	8
588.867	1	5
589.207	1	-2
589.547	1	5
589.886	1	-3
590.226	1	-6
590.566	1	5
590.905	1	6
591.245	1	3
591.585	1	6
591.924	1	2
592.264	1	-4
592.603	1	9
592.943	1	7
593.283	1	11
593.622	1	0
593.962	1	3
594.301	1	8
594.641	1	8
594.981	1	13
595.320	1	6
595.660	1	5
595.999	1	2
596.339	1	0
596.678	1	-4
597.018	1	7
597.358	1	-5
597.697	1	9
598.037	1	4
598.376	1	-1
598.716	1	-2
599.055	1	5
599.395	1	-7
599.734	1	19
600.074	1	1
600.413	1	-6
600.753	1	9
601.092	1	1
601.432	1	4
601.771	1	1
602.111	1	5
602.451	1	5
602.790	1	11
603.130	1	-1
603.469	1	9
603.809	1	2
604.148	1	8
604.487	1	16
604.827	1	-2
605.166	1	17
605.506	1	-7
605.845	1	3
606.185	1	0
606.524	1	-5
606.864	1	-2
607.203	1	3
607.543	1	10
607.882	1	2
608.222	1	1
608.561	1	13
608.901	1	1
609.240	1	0
609.579	1	2
609.919	1	2
610.258	1	8
610.598	1	9
610.937	1	4
611.277	1	1
611.616	1	-4
611.955	1	6
612.295	1	2
612.634	1	-5
612.974	1	1
613.313	1	0
613.652	1	13
613.992	1	-2
614.331	1	3
614.671	1	13
615.010	1	3
615.349	1	9
615.689	1	8
616.028	1	3
616.368	1	1
616.707	1	9
617.046	1	4
617.386	1	2
617.725	1	5
618.064	1	1
618.404	1	-5
618.743	1	7
619.082	1	14
619.422	1	-7
619.761	1	0
620.100	1	3
620.440	1	3
620.779	1	-3
621.118	1	1
621.458	1	-2
621.797	1	-2
622.136	1	4
622.476	1	2
622.815	1	0
623.154	1	1
623.494	1	-6
623.833	1	3
624.172	1	6
624.511	1	8
624.851	1	-2
625.190	1	2
625.529	1	6
625.869	1	13
626.208	1	4
626.547	1	4
626.886	1	-2
627.226	1	2
627.565	1	6
627.904	1	-1
628.243	1	-3
628.583	1	-9
628.922	1	-7
629.261	1	6
629.600	1	2
629.940	1	1
630.279	1	-1
630.618	1	2
630.957	1	6
631.297	1	-8
631.636	1	10
631.975	1	-2
632.314	1	-1
632.653	1	12
632.993	1	-3
633.332	1	7
633.671	1	4
634.010	1	5
634.349	1	-11
634.689	1	9
635.028	1	11
635.367	1	-5
635.706	1	-2
636.045	1	13
636.384	1	2
636.724	1	6
637.063	1	4
637.402	1	13
637.741	1	3
638.080	1	3
638.419	1	-8
638.759	1	2
639.098	1	-4
639.437	1	-5
639.776	1	2
640.115	1	5
640.454	1	-1
640.793	1	-2
641.132	1	0
641.472	1	0
641.811	1	15
642.150	1	4
642.489	1	-5
642.828	1	0
643.167	1	1
643.506	1	10
643.845	1	5
644.184	1	10
644.524	1	8
644.863	1	-3
645.202	1	16
645.541	1	5
645.880	1	7
646.219	1	-4
646.558	1	12
646.897	1	1
647.236	1	-4
647.575	1	3
647.914	1	5
648.253	1	0
648.592	1	2
648.931	1	5
649.270	1	-2
649.610	1	1
649.949	1	2
650.288	1	-3
650.627	1	1
650.966	1	4
651.305	1	-8
651.644	1	2
651.983	1	3
652.322	1	12
652.661	1	2
653.000	1	1
653.339	1	2
653.678	1	4
654.017	1	18
654.356	1	4
654.695	1	10
655.034	1	10
655.373	1	8
655.712	1	-2
656.051	1	5
656.390	1	-4
656.729	1	-1
657.068	1	6
657.406	1	1
657.745	1	11
658.084	1	-2
658.423	1	6
658.762	1	1
659.101	1	7
659.440	1	1
659.779	1	4
660.118	1	5
660.457	1	7
660.796	1	-7
661.135	1	-12
661.474	1	14
661.813	1	-6
662.152	1	0
662.491	1	-10
662.829	1	3
663.168	1	6
663.507	1	-2
663.846	1	0
664.185	1	4
664.524	1	2
664.863	1	-3
665.202	1	7
665.541	1	6
665.879	1	7
666.218	1	11
666.557	1	4
666.896	1	-2
667.235	1	1
667.574	1	-4
667.913	1	1
668.251	1	3
668.590	1	11
668.929	1	5
669.268	1	0
669.607	1	4
669.946	1	5
670.285	1	17
670.623	1	-3
670.962	1	2
671.301	1	-1
671.640	1	7
671.979	1	-1
672.317	1	4
672.656	1	3
672.995	1	-4
673.334	1	0
673.673	1	6
674.011	1	6
674.350	1	3
674.689	1	4
675.028	1	3
675.367	1	-2
675.705	1	3
676.044	1	11
676.383	1	-3
676.722	1	15
677.060	1	0
677.399	1	-2
677.738	1	-5
678.077	1	18
678.416	1	-6
678.754	1	7
679.093	1	3
679.432	1	4
679.771	1	3
680.109	1	1
680.448	1	4
680.787	1	1
681.125	1	1
681.464	1	10
681.803	1	7
682.142	1	8
682.480	1	2
682.819	1	8
683.158	1	-4
683.496	1	5
683.835	1	-4
684.174	1	9
684.512	1	-3
684.851	1	0
685.190	1	3
685.529	1	17
685.867	1	12
686.206	1	12
686.545	1	4
686.883	1	9
687.222	1	3
687.561	1	11
687.899	1	-1
688.238	1	-2
688.577	1	16
688.746	1	-1