File: Data/GaN_170K_550ms/GaN_sample D_spot 18_UVVIS_170 K_200um_550 ms 2x2mm1_278.txt
340.368	1	6
340.710	1	-6
341.052	1	3
341.394	1	3
341.737	1	-9
342.079	1	-4
342.421	1	1
342.763	1	4
343.105	1	10
343.447	1	-9
343.789	1	4
344.131	1	1
344.473	1	4
344.815	1	4
345.157	1	-4
345.499	1	0
345.841	1	8
346.183	1	0
346.526	1	9
346.868	1	6
347.210	1	-5
347.552	1	2
347.894	1	7
348.236	1	-1
348.578	1	4
348.920	1	-8
349.262	1	3
349.604	1	6
349.946	1	13
350.288	1	3
350.630	1	6
350.972	1	-5
351.314	1	7
351.656	1	4
351.998	1	2
352.340	1	7
352.682	1	6
353.024	1	1
353.366	1	3
353.708	1	2
354.050	1	-1
354.392	1	-3
354.734	1	6
355.076	1	-4
355.418	1	3
355.760	1	3
356.102	1	4
356.444	1	-3
356.785	1	1
357.127	1	-3
357.469	1	-3
357.811	1	1
358.153	1	6
358.495	1	3
358.837	1	3
359.179	1	-1
359.521	1	12
359.863	1	1
360.205	1	9
360.547	1	12
360.889	1	5
361.231	1	3
361.572	1	2
361.914	1	5
362.256	1	2
362.598	1	4
362.940	1	10
363.282	1	-2
363.624	1	6
363.966	1	3
364.308	1	11
364.649	1	-4
364.991	1	15
365.333	1	4
365.675	1	11
366.017	1	9
366.359	1	6
366.701	1	7
367.042	1	7
367.384	1	9
367.726	1	15
368.068	1	12
368.410	1	12
368.752	1	16
369.093	1	-5
369.435	1	6
369.777	1	17
370.119	1	13
370.461	1	8
370.803	1	8
371.144	1	1
371.486	1	3
371.828	1	8
372.170	1	6
372.512	1	7
372.853	1	13
373.195	1	5
373.537	1	23
373.879	1	3
374.220	1	13
374.562	1	-3
374.904	1	-1
375.246	1	6
375.588	1	-1
375.929	1	1
376.271	1	13
376.613	1	1
376.955	1	14
377.296	1	2
377.638	1	8
377.980	1	-4
378.321	1	7
378.663	1	-1
379.005	1	5
379.347	1	10
379.688	1	1
380.030	1	1
380.372	1	2
380.714	1	15
381.055	1	0
381.397	1	13
381.739	1	-5
382.080	1	3
382.422	1	-5
382.764	1	0
383.105	1	2
383.447	1	6
383.789	1	16
384.130	1	-5
384.472	1	-8
384.814	1	11
385.156	1	4
385.497	1	1
385.839	1	-1
386.180	1	12
386.522	1	13
386.864	1	3
387.205	1	-4
387.547	1	6
387.889	1	12
388.230	1	-1
388.572	1	3
388.914	1	-5
389.255	1	5
389.597	1	7
389.939	1	-3
390.280	1	-2
390.622	1	-7
390.963	1	5
391.305	1	-8
391.647	1	-11
391.988	1	5
392.330	1	4
392.671	1	-2
393.013	1	0
393.355	1	2
393.696	1	8
394.038	1	-2
394.379	1	2
394.721	1	-2
395.062	1	-1
395.404	1	5
395.746	1	9
396.087	1	5
396.429	1	-6
396.770	1	10
397.112	1	-4
397.453	1	4
397.795	1	6
398.136	1	4
398.478	1	-1
398.819	1	1
399.161	1	0
399.503	1	7
399.844	1	-2
400.186	1	-4
400.527	1	14
400.869	1	-1
401.210	1	-3
401.552	1	4
401.893	1	9
402.235	1	7
402.576	1	-8
402.918	1	-5
403.259	1	1
403.601	1	6
403.942	1	6
404.284	1	-6
404.625	1	-2
404.967	1	2
405.308	1	6
405.649	1	8
405.991	1	3
406.332	1	-9
406.674	1	9
407.015	1	11
407.357	1	6
407.698	1	9
408.040	1	2
408.381	1	5
408.722	1	-3
409.064	1	-2
409.405	1	11
409.747	1	8
410.088	1	7
410.430	1	-6
410.771	1	14
411.112	1	-3
411.454	1	-2
411.795	1	12
412.137	1	-3
412.478	1	-3
412.819	1	-2
413.161	1	-3
413.502	1	-6
413.844	1	7
414.185	1	-1
414.526	1	3
414.868	1	2
415.209	1	-6
415.550	1	-1
415.892	1	9
416.233	1	10
416.575	1	-4
416.916	1	-4
417.257	1	-1
417.599	1	3
417.940	1	8
418.281	1	-4
418.623	1	2
418.964	1	-7
419.305	1	-2
419.647	1	-5
419.988	1	9
420.329	1	-4
420.671	1	-4
421.012	1	2
421.353	1	8
421.695	1	-12
422.036	1	11
422.377	1	-1
422.718	1	7
423.060	1	-6
423.401	1	-4
423.742	1	-2
424.084	1	11
424.425	1	1
424.766	1	0
425.107	1	4
425.449	1	1
425.790	1	6
426.131	1	13
426.472	1	5
426.814	1	-5
427.155	1	15
427.496	1	-4
427.837	1	9
428.179	1	4
428.520	1	-2
428.861	1	4
429.202	1	-9
429.544	1	-3
429.885	1	8
430.226	1	-6
430.567	1	6
430.909	1	-6
431.250	1	14
431.591	1	-2
431.932	1	-3
432.273	1	3
432.615	1	-3
432.956	1	14
433.297	1	-4
433.638	1	10
433.979	1	-2
434.320	1	11
434.662	1	-9
435.003	1	9
435.344	1	-2
435.685	1	4
436.026	1	1
436.368	1	16
436.709	1	11
437.050	1	-10
437.391	1	-5
437.732	1	6
438.073	1	2
438.414	1	-4
438.756	1	-8
439.097	1	5
439.438	1	2
439.779	1	10
440.120	1	2
440.461	1	10
440.802	1	16
441.143	1	0
441.485	1	-5
441.826	1	2
442.167	1	-1
442.508	1	5
442.849	1	-3
443.190	1	5
443.531	1	1
443.872	1	-3
444.213	1	-1
444.554	1	1
444.895	1	-7
445.237	1	-7
445.578	1	2
445.919	1	3
446.260	1	1
446.601	1	-4
446.942	1	4
447.283	1	1
447.624	1	-10
447.965	1	0
448.306	1	-3
448.647	1	-3
448.988	1	11
449.329	1	-1
449.670	1	-11
450.011	1	5
450.352	1	-7
450.693	1	-4
451.034	1	-6
451.375	1	13
451.716	1	6
452.057	1	0
452.398	1	7
452.739	1	-2
453.080	1	2
453.421	1	6
453.762	1	-3
454.103	1	4
454.444	1	-3
454.785	1	6
455.126	1	7
455.467	1	-10
455.808	1	6
456.149	1	6
456.490	1	1
456.831	1	-6
457.172	1	-6
457.513	1	7
457.854	1	11
458.195	1	-2
458.536	1	-2
458.877	1	4
459.218	1	-1
459.559	1	0
459.899	1	-3
460.240	1	1
460.581	1	2
460.922	1	-5
461.263	1	-2
461.604	1	13
461.945	1	2
462.286	1	10
462.627	1	7
462.968	1	10
463.309	1	1
463.649	1	-5
463.990	1	0
464.331	1	2
464.672	1	-1
465.013	1	2
465.354	1	-10
465.695	1	-1
466.036	1	-10
466.376	1	-1
466.717	1	-5
467.058	1	1
467.399	1	6
467.740	1	0
468.081	1	1
468.422	1	3
468.762	1	5
469.103	1	-2
469.444	1	-7
469.785	1	-10
470.126	1	3
470.467	1	5
470.807	1	-7
471.148	1	-3
471.489	1	-5
471.830	1	-4
472.171	1	-1
472.511	1	1
472.852	1	5
473.193	1	4
473.534	1	4
473.875	1	-4
474.215	1	1
474.556	1	6
474.897	1	1
475.238	1	2
475.578	1	4
475.919	1	4
476.260	1	7
476.601	1	-1
476.942	1	-2
477.282	1	5
477.623	1	5
477.964	1	8
478.305	1	-2
478.645	1	2
478.986	1	-2
479.327	1	-18
479.667	1	-7
480.008	1	0
480.349	1	4
480.690	1	3
481.030	1	-2
481.371	1	-4
481.712	1	-7
482.053	1	2
482.393	1	-4
482.734	1	6
483.075	1	0
483.415	1	5
483.756	1	6
484.097	1	-9
484.437	1	-8
484.778	1	-17
485.119	1	-2
485.459	1	-6
485.800	1	0
486.141	1	1
486.481	1	1
486.822	1	4
487.163	1	6
487.503	1	1
487.844	1	-2
488.185	1	-4
488.525	1	3
488.866	1	12
489.207	1	3
489.547	1	9
489.888	1	1
490.228	1	-1
490.569	1	6
490.910	1	-2
491.250	1	1
491.591	1	0
491.932	1	1
492.272	1	14
492.613	1	13
492.953	1	0
493.294	1	-2
493.635	1	-5
493.975	1	8
494.316	1	6
494.656	1	9
494.997	1	4
495.337	1	8
495.678	1	9
496.019	1	-8
496.359	1	7
496.700	1	10
497.040	1	-3
497.381	1	5
497.721	1	-4
498.062	1	4
498.403	1	12
498.743	1	9
499.084	1	-2
499.424	1	12
499.765	1	-8
500.105	1	-8
500.446	1	-1
500.786	1	-1
501.127	1	3
501.467	1	2
501.808	1	1
502.148	1	11
502.489	1	9
502.829	1	5
503.170	1	10
503.510	1	4
503.851	1	7
504.191	1	-3
504.532	1	-17
504.872	1	-1
505.213	1	4
505.553	1	-4
505.894	1	13
506.234	1	-2
506.575	1	7
506.915	1	-4
507.256	1	-3
507.596	1	4
507.936	1	9
508.277	1	-4
508.617	1	9
508.958	1	6
509.298	1	3
509.639	1	9
509.979	1	1
510.319	1	-2
510.660	1	0
511.000	1	16
511.341	1	5
511.681	1	6
512.022	1	2
512.362	1	4
512.702	1	-3
513.043	1	7
513.383	1	2
513.724	1	-6
514.064	1	5
514.404	1	-15
514.745	1	2
515.085	1	3
515.425	1	7
515.766	1	4
516.106	1	0
516.447	1	5
516.787	1	4
517.127	1	-1
517.468	1	7
517.808	1	7
518.148	1	1
518.489	1	10
518.829	1	0
519.169	1	2
519.510	1	6
519.850	1	-1
520.190	1	3
520.531	1	4
520.871	1	-3
521.211	1	1
521.552	1	5
521.892	1	6
522.232	1	-9
522.573	1	8
522.913	1	0
523.253	1	4
523.593	1	6
523.934	1	7
524.274	1	2
524.614	1	4
524.955	1	-2
525.295	1	3
525.635	1	8
525.975	1	0
526.316	1	4
526.656	1	14
526.996	1	1
527.337	1	1
527.677	1	-3
528.017	1	2
528.357	1	-1
528.698	1	-14
529.038	1	5
529.378	1	-4
529.718	1	10
530.058	1	16
530.399	1	8
530.739	1	9
531.079	1	13
531.419	1	8
531.760	1	9
532.100	1	-4
532.440	1	7
532.780	1	-2
533.120	1	6
533.461	1	3
533.801	1	0
534.141	1	7
534.481	1	11
534.821	1	9
535.162	1	-2
535.502	1	8
535.842	1	3
536.182	1	-2
536.522	1	6
536.862	1	4
537.203	1	-1
537.543	1	0
537.883	1	9
538.223	1	1
538.563	1	3
538.903	1	5
539.243	1	-1
539.584	1	9
539.924	1	-4
540.264	1	9
540.604	1	6
540.944	1	-9
541.284	1	9
541.624	1	3
541.964	1	0
542.305	1	-2
542.645	1	-4
542.985	1	15
543.325	1	4
543.665	1	5
544.005	1	10
544.345	1	2
544.685	1	-1
545.025	1	-3
545.365	1	-8
545.705	1	5
546.045	1	1
546.386	1	1
546.726	1	7
547.066	1	4
547.406	1	-4
547.746	1	-3
548.086	1	6
548.426	1	2
548.766	1	6
549.106	1	2
549.446	1	3
549.786	1	-7
550.126	1	2
550.466	1	-3
550.806	1	-1
551.146	1	6
551.486	1	-3
551.826	1	8
552.166	1	0
552.506	1	7
552.846	1	0
553.186	1	4
553.526	1	-1
553.866	1	-9
554.206	1	9
554.546	1	-11
554.886	1	4
555.226	1	-1
555.566	1	4
555.906	1	-9
556.246	1	-1
556.586	1	-2
556.926	1	4
557.266	1	12
557.606	1	3
557.946	1	5
558.286	1	-1
558.626	1	16
558.966	1	4
559.306	1	13
559.646	1	1
559.986	1	11
560.325	1	-5
560.665	1	0
561.005	1	-12
561.345	1	0
561.685	1	-1
562.025	1	-10
562.365	1	-1
562.705	1	14
563.045	1	3
563.385	1	1
563.725	1	0
564.064	1	4
564.404	1	-6
564.744	1	1
565.084	1	8
565.424	1	-1
565.764	1	-2
566.104	1	3
566.444	1	11
566.783	1	-2
567.123	1	-3
567.463	1	-1
567.803	1	-1
568.143	1	1
568.483	1	1
568.823	1	5
569.162	1	5
569.502	1	4
569.842	1	1
570.182	1	-7
570.522	1	2
570.862	1	-2
571.201	1	7
571.541	1	-1
571.881	1	-3
572.221	1	12
572.561	1	7
572.900	1	-1
573.240	1	4
573.580	1	2
573.920	1	8
574.260	1	5
574.599	1	-5
574.939	1	-6
575.279	1	-4
575.619	1	8
575.959	1	-11
576.298	1	-2
576.638	1	7
576.978	1	-8
577.318	1	4
577.657	1	2
577.997	1	-1
578.337	1	5
578.677	1	2
579.016	1	0
579.356	1	-4
579.696	1	-3
580.036	1	2
580.375	1	-1
580.715	1	4
581.055	1	3
581.394	1	-2
581.734	1	7
582.074	1	0
582.414	1	-12
582.753	1	5
583.093	1	4
583.433	1	4
583.772	1	-4
584.112	1	7
584.452	1	-3
584.791	1	-2
585.131	1	7
585.471	1	17
585.811	1	-5
586.150	1	-5
586.490	1	13
586.830	1	-1
587.169	1	7
587.509	1	-3
587.849	1	-5
588.188	1	3
588.528	1	1
588.867	1	0
589.207	1	-4
589.547	1	-6
589.886	1	1
590.226	1	4
590.566	1	4
590.905	1	7
591.245	1	-5
591.585	1	-3
591.924	1	4
592.264	1	-17
592.603	1	0
592.943	1	3
593.283	1	4
593.622	1	-14
593.962	1	0
594.301	1	-2
594.641	1	10
594.981	1	10
595.320	1	-6
595.660	1	4
595.999	1	0
596.339	1	2
596.678	1	-10
597.018	1	-6
597.358	1	-4
597.697	1	-4
598.037	1	-1
598.376	1	-4
598.716	1	2
599.055	1	-2
599.395	1	3
599.734	1	10
600.074	1	3
600.413	1	-5
600.753	1	6
601.092	1	-2
601.432	1	-4
601.771	1	4
602.111	1	-2
602.451	1	11
602.790	1	5
603.130	1	0
603.469	1	-2
603.809	1	3
604.148	1	0
604.487	1	3
604.827	1	-8
605.166	1	4
605.506	1	-2
605.845	1	4
606.185	1	-2
606.524	1	1
606.864	1	-5
607.203	1	-5
607.543	1	3
607.882	1	0
608.222	1	-7
608.561	1	9
608.901	1	7
609.240	1	-8
609.579	1	1
609.919	1	-2
610.258	1	12
610.598	1	0
610.937	1	-1
611.277	1	5
611.616	1	4
611.955	1	8
612.295	1	-1
612.634	1	-4
612.974	1	-8
613.313	1	1
613.652	1	11
613.992	1	-8
614.331	1	-5
614.671	1	3
615.010	1	9
615.349	1	1
615.689	1	9
616.028	1	5
616.368	1	-4
616.707	1	9
617.046	1	-13
617.386	1	-5
617.725	1	3
618.064	1	-9
618.404	1	9
618.743	1	3
619.082	1	8
619.422	1	-9
619.761	1	-7
620.100	1	-5
620.440	1	3
620.779	1	5
621.118	1	2
621.458	1	-1
621.797	1	0
622.136	1	-2
622.476	1	-2
622.815	1	3
623.154	1	7
623.494	1	-7
623.833	1	4
624.172	1	2
624.511	1	3
624.851	1	-6
625.190	1	4
625.529	1	11
625.869	1	7
626.208	1	4
626.547	1	-13
626.886	1	0
627.226	1	6
627.565	1	3
627.904	1	5
628.243	1	-3
628.583	1	-10
628.922	1	-6
629.261	1	4
629.600	1	6
629.940	1	-8
630.279	1	8
630.618	1	-5
630.957	1	-1
631.297	1	-2
631.636	1	10
631.975	1	4
632.314	1	0
632.653	1	12
632.993	1	9
633.332	1	9
633.671	1	9
634.010	1	3
634.349	1	-4
634.689	1	8
635.028	1	3
635.367	1	-8
635.706	1	0
636.045	1	7
636.384	1	3
636.724	1	15
637.063	1	7
637.402	1	14
637.741	1	-3
638.080	1	11
638.419	1	-4
638.759	1	10
639.098	1	-4
639.437	1	-12
639.776	1	-1
640.115	1	3
640.454	1	-5
640.793	1	-10
641.132	1	2
641.472	1	-7
641.811	1	5
642.150	1	-1
642.489	1	-11
642.828	1	3
643.167	1	1
643.506	1	5
643.845	1	4
644.184	1	14
644.524	1	7
644.863	1	-4
645.202	1	1
645.541	1	4
645.880	1	-2
646.219	1	1
646.558	1	5
646.897	1	1
647.236	1	-5
647.575	1	-4
647.914	1	-2
648.253	1	-2
648.592	1	8
648.931	1	1
649.270	1	-9
649.610	1	3
649.949	1	-3
650.288	1	-2
650.627	1	-10
650.966	1	5
651.305	1	-6
651.644	1	5
651.983	1	9
652.322	1	3
652.661	1	5
653.000	1	-3
653.339	1	-5
653.678	1	17
654.017	1	7
654.356	1	5
654.695	1	8
655.034	1	-4
655.373	1	1
655.712	1	-3
656.051	1	-2
656.390	1	-4
656.729	1	2
657.068	1	6
657.406	1	-5
657.745	1	8
658.084	1	-16
658.423	1	0
658.762	1	-3
659.101	1	4
659.440	1	-1
659.779	1	3
660.118	1	4
660.457	1	6
660.796	1	1
661.135	1	-8
661.474	1	1
661.813	1	-8
662.152	1	1
662.491	1	-8
662.829	1	12
663.168	1	5
663.507	1	4
663.846	1	-8
664.185	1	13
664.524	1	3
664.863	1	-4
665.202	1	20
665.541	1	2
665.879	1	4
666.218	1	6
666.557	1	2
666.896	1	3
667.235	1	-1
667.574	1	-10
667.913	1	1
668.251	1	6
668.590	1	1
668.929	1	-1
669.268	1	0
669.607	1	1
669.946	1	5
670.285	1	17
670.623	1	2
670.962	1	-7
671.301	1	4
671.640	1	12
671.979	1	6
672.317	1	4
672.656	1	8
672.995	1	-7
673.334	1	-5
673.673	1	3
674.011	1	1
674.350	1	0
674.689	1	-4
675.028	1	0
675.367	1	3
675.705	1	10
676.044	1	9
676.383	1	4
676.722	1	11
677.060	1	-9
677.399	1	9
677.738	1	2
678.077	1	11
678.416	1	-1
678.754	1	5
679.093	1	1
679.432	1	-2
679.771	1	8
680.109	1	2
680.448	1	7
680.787	1	-1
681.125	1	7
681.464	1	7
681.803	1	9
682.142	1	-4
682.480	1	-2
682.819	1	12
683.158	1	0
683.496	1	-1
683.835	1	-9
684.174	1	-2
684.512	1	-7
684.851	1	-6
685.190	1	2
685.529	1	10
685.867	1	19
686.206	1	2
686.545	1	7
686.883	1	2
687.222	1	-3
687.561	1	-4
687.899	1	-4
688.238	1	-10
688.577	1	7
688.746	1	-13