File: Data/GaN_170K_550ms/GaN_sample D_spot 18_UVVIS_170 K_200um_550 ms 2x2mm1_9.txt
340.368	1	-10
340.710	1	-6
341.052	1	2
341.394	1	-4
341.737	1	-4
342.079	1	0
342.421	1	6
342.763	1	3
343.105	1	8
343.447	1	1
343.789	1	11
344.131	1	-4
344.473	1	-1
344.815	1	0
345.157	1	5
345.499	1	-9
345.841	1	3
346.183	1	4
346.526	1	6
346.868	1	5
347.210	1	-11
347.552	1	6
347.894	1	0
348.236	1	0
348.578	1	3
348.920	1	-8
349.262	1	4
349.604	1	11
349.946	1	6
350.288	1	4
350.630	1	3
350.972	1	-2
351.314	1	1
351.656	1	-2
351.998	1	11
352.340	1	-1
352.682	1	-3
353.024	1	3
353.366	1	-6
353.708	1	7
354.050	1	-1
354.392	1	3
354.734	1	6
355.076	1	0
355.418	1	-13
355.760	1	1
356.102	1	-1
356.444	1	-9
356.785	1	1
357.127	1	1
357.469	1	-8
357.811	1	-2
358.153	1	1
358.495	1	-2
358.837	1	-5
359.179	1	-12
359.521	1	2
359.863	1	-1
360.205	1	5
360.547	1	0
360.889	1	4
361.231	1	-1
361.572	1	6
361.914	1	2
362.256	1	-3
362.598	1	3
362.940	1	8
363.282	1	1
363.624	1	3
363.966	1	-4
364.308	1	6
364.649	1	-17
364.991	1	3
365.333	1	-6
365.675	1	-1
366.017	1	0
366.359	1	9
366.701	1	-2
367.042	1	-8
367.384	1	3
367.726	1	8
368.068	1	7
368.410	1	-1
368.752	1	0
369.093	1	-7
369.435	1	-6
369.777	1	4
370.119	1	-7
370.461	1	-2
370.803	1	-3
371.144	1	-9
371.486	1	-11
371.828	1	1
372.170	1	1
372.512	1	-11
372.853	1	13
373.195	1	-3
373.537	1	13
373.879	1	4
374.220	1	11
374.562	1	-3
374.904	1	5
375.246	1	-2
375.588	1	1
375.929	1	5
376.271	1	10
376.613	1	2
376.955	1	6
377.296	1	-1
377.638	1	6
377.980	1	-8
378.321	1	11
378.663	1	-3
379.005	1	-2
379.347	1	-6
379.688	1	5
380.030	1	-2
380.372	1	0
380.714	1	3
381.055	1	0
381.397	1	3
381.739	1	-3
382.080	1	2
382.422	1	5
382.764	1	-5
383.105	1	8
383.447	1	7
383.789	1	10
384.130	1	-8
384.472	1	-1
384.814	1	9
385.156	1	3
385.497	1	3
385.839	1	-9
386.180	1	10
386.522	1	0
386.864	1	-9
387.205	1	-7
387.547	1	4
387.889	1	4
388.230	1	-9
388.572	1	0
388.914	1	-3
389.255	1	7
389.597	1	4
389.939	1	-3
390.280	1	-7
390.622	1	-5
390.963	1	6
391.305	1	7
391.647	1	-9
391.988	1	5
392.330	1	-5
392.671	1	-7
393.013	1	6
393.355	1	-3
393.696	1	4
394.038	1	-5
394.379	1	-1
394.721	1	-6
395.062	1	-7
395.404	1	6
395.746	1	3
396.087	1	13
396.429	1	0
396.770	1	3
397.112	1	-2
397.453	1	8
397.795	1	-4
398.136	1	0
398.478	1	1
398.819	1	6
399.161	1	-5
399.503	1	4
399.844	1	-6
400.186	1	-1
400.527	1	10
400.869	1	6
401.210	1	3
401.552	1	8
401.893	1	10
402.235	1	1
402.576	1	-3
402.918	1	0
403.259	1	0
403.601	1	7
403.942	1	6
404.284	1	-9
404.625	1	-2
404.967	1	4
405.308	1	7
405.649	1	-2
405.991	1	10
406.332	1	-7
406.674	1	2
407.015	1	8
407.357	1	-4
407.698	1	-4
408.040	1	1
408.381	1	6
408.722	1	-5
409.064	1	6
409.405	1	-4
409.747	1	-3
410.088	1	0
410.430	1	-3
410.771	1	-2
411.112	1	-1
411.454	1	0
411.795	1	6
412.137	1	-2
412.478	1	1
412.819	1	-8
413.161	1	2
413.502	1	1
413.844	1	7
414.185	1	-2
414.526	1	1
414.868	1	1
415.209	1	-13
415.550	1	-1
415.892	1	15
416.233	1	11
416.575	1	1
416.916	1	-9
417.257	1	9
417.599	1	-3
417.940	1	-1
418.281	1	-8
418.623	1	-5
418.964	1	-1
419.305	1	0
419.647	1	3
419.988	1	2
420.329	1	-1
420.671	1	3
421.012	1	-3
421.353	1	7
421.695	1	-14
422.036	1	1
422.377	1	1
422.718	1	6
423.060	1	-4
423.401	1	2
423.742	1	-9
424.084	1	6
424.425	1	1
424.766	1	-4
425.107	1	0
425.449	1	8
425.790	1	3
426.131	1	12
426.472	1	-1
426.814	1	-5
427.155	1	4
427.496	1	-2
427.837	1	-2
428.179	1	4
428.520	1	0
428.861	1	-5
429.202	1	-5
429.544	1	1
429.885	1	0
430.226	1	-1
430.567	1	5
430.909	1	2
431.250	1	9
431.591	1	-3
431.932	1	0
432.273	1	4
432.615	1	0
432.956	1	3
433.297	1	-8
433.638	1	8
433.979	1	-1
434.320	1	8
434.662	1	-16
435.003	1	-3
435.344	1	3
435.685	1	-8
436.026	1	-7
436.368	1	8
436.709	1	-7
437.050	1	-2
437.391	1	-2
437.732	1	4
438.073	1	0
438.414	1	0
438.756	1	0
439.097	1	-1
439.438	1	2
439.779	1	7
440.120	1	-8
440.461	1	10
440.802	1	2
441.143	1	-4
441.485	1	-7
441.826	1	2
442.167	1	9
442.508	1	-7
442.849	1	-5
443.190	1	0
443.531	1	1
443.872	1	0
444.213	1	3
444.554	1	-2
444.895	1	-13
445.237	1	-3
445.578	1	4
445.919	1	4
446.260	1	2
446.601	1	-13
446.942	1	7
447.283	1	3
447.624	1	1
447.965	1	2
448.306	1	-1
448.647	1	-4
448.988	1	10
449.329	1	2
449.670	1	-13
450.011	1	0
450.352	1	-6
450.693	1	1
451.034	1	-4
451.375	1	-1
451.716	1	13
452.057	1	2
452.398	1	8
452.739	1	0
453.080	1	-4
453.421	1	6
453.762	1	9
454.103	1	-7
454.444	1	-8
454.785	1	0
455.126	1	4
455.467	1	-8
455.808	1	2
456.149	1	0
456.490	1	-5
456.831	1	-7
457.172	1	-4
457.513	1	13
457.854	1	2
458.195	1	-1
458.536	1	-5
458.877	1	8
459.218	1	3
459.559	1	-1
459.899	1	-2
460.240	1	-8
460.581	1	3
460.922	1	9
461.263	1	4
461.604	1	13
461.945	1	9
462.286	1	-5
462.627	1	13
462.968	1	9
463.309	1	7
463.649	1	3
463.990	1	7
464.331	1	-1
464.672	1	-4
465.013	1	10
465.354	1	-12
465.695	1	8
466.036	1	-12
466.376	1	2
466.717	1	2
467.058	1	7
467.399	1	14
467.740	1	-5
468.081	1	-4
468.422	1	1
468.762	1	4
469.103	1	10
469.444	1	-1
469.785	1	-4
470.126	1	3
470.467	1	-3
470.807	1	3
471.148	1	3
471.489	1	2
471.830	1	-2
472.171	1	12
472.511	1	7
472.852	1	7
473.193	1	6
473.534	1	6
473.875	1	-2
474.215	1	-7
474.556	1	5
474.897	1	-1
475.238	1	-10
475.578	1	-3
475.919	1	5
476.260	1	9
476.601	1	0
476.942	1	-5
477.282	1	7
477.623	1	12
477.964	1	-1
478.305	1	-4
478.645	1	7
478.986	1	-3
479.327	1	-10
479.667	1	-3
480.008	1	0
480.349	1	5
480.690	1	8
481.030	1	2
481.371	1	2
481.712	1	-3
482.053	1	-7
482.393	1	-6
482.734	1	5
483.075	1	2
483.415	1	-1
483.756	1	-3
484.097	1	-7
484.437	1	-2
484.778	1	-5
485.119	1	1
485.459	1	-4
485.800	1	-5
486.141	1	4
486.481	1	4
486.822	1	3
487.163	1	7
487.503	1	9
487.844	1	-3
488.185	1	-5
488.525	1	7
488.866	1	4
489.207	1	-5
489.547	1	7
489.888	1	4
490.228	1	1
490.569	1	4
490.910	1	1
491.250	1	2
491.591	1	-6
491.932	1	4
492.272	1	5
492.613	1	4
492.953	1	3
493.294	1	-5
493.635	1	3
493.975	1	-4
494.316	1	1
494.656	1	5
494.997	1	-2
495.337	1	4
495.678	1	-2
496.019	1	-11
496.359	1	-2
496.700	1	1
497.040	1	4
497.381	1	4
497.721	1	-1
498.062	1	-4
498.403	1	8
498.743	1	7
499.084	1	-2
499.424	1	2
499.765	1	-6
500.105	1	-2
500.446	1	-5
500.786	1	-3
501.127	1	-7
501.467	1	-3
501.808	1	-6
502.148	1	14
502.489	1	4
502.829	1	1
503.170	1	4
503.510	1	4
503.851	1	1
504.191	1	2
504.532	1	-9
504.872	1	0
505.213	1	-1
505.553	1	-4
505.894	1	8
506.234	1	-5
506.575	1	-2
506.915	1	1
507.256	1	-14
507.596	1	7
507.936	1	6
508.277	1	-5
508.617	1	4
508.958	1	-5
509.298	1	2
509.639	1	5
509.979	1	11
510.319	1	-5
510.660	1	0
511.000	1	0
511.341	1	9
511.681	1	-8
512.022	1	3
512.362	1	-6
512.702	1	-7
513.043	1	8
513.383	1	-1
513.724	1	-2
514.064	1	1
514.404	1	-6
514.745	1	0
515.085	1	3
515.425	1	4
515.766	1	8
516.106	1	0
516.447	1	-3
516.787	1	-1
517.127	1	7
517.468	1	2
517.808	1	13
518.148	1	3
518.489	1	8
518.829	1	9
519.169	1	-6
519.510	1	5
519.850	1	2
520.190	1	10
520.531	1	3
520.871	1	-7
521.211	1	-2
521.552	1	6
521.892	1	1
522.232	1	-3
522.573	1	-1
522.913	1	11
523.253	1	15
523.593	1	1
523.934	1	-2
524.274	1	-7
524.614	1	0
524.955	1	-6
525.295	1	3
525.635	1	1
525.975	1	2
526.316	1	6
526.656	1	13
526.996	1	4
527.337	1	-8
527.677	1	-10
528.017	1	0
528.357	1	-1
528.698	1	-2
529.038	1	-1
529.378	1	-3
529.718	1	-3
530.058	1	13
530.399	1	2
530.739	1	0
531.079	1	3
531.419	1	12
531.760	1	2
532.100	1	-1
532.440	1	8
532.780	1	-10
533.120	1	13
533.461	1	-4
533.801	1	5
534.141	1	-4
534.481	1	4
534.821	1	0
535.162	1	10
535.502	1	-1
535.842	1	1
536.182	1	-6
536.522	1	7
536.862	1	5
537.203	1	5
537.543	1	-1
537.883	1	7
538.223	1	-3
538.563	1	-2
538.903	1	2
539.243	1	-3
539.584	1	1
539.924	1	-1
540.264	1	3
540.604	1	8
540.944	1	-6
541.284	1	7
541.624	1	3
541.964	1	2
542.305	1	2
542.645	1	-7
542.985	1	5
543.325	1	-1
543.665	1	0
544.005	1	5
544.345	1	5
544.685	1	0
545.025	1	-5
545.365	1	-3
545.705	1	2
546.045	1	3
546.386	1	-1
546.726	1	-8
547.066	1	15
547.406	1	2
547.746	1	-4
548.086	1	7
548.426	1	2
548.766	1	-2
549.106	1	3
549.446	1	4
549.786	1	-6
550.126	1	-2
550.466	1	-1
550.806	1	0
551.146	1	-1
551.486	1	1
551.826	1	3
552.166	1	-1
552.506	1	4
552.846	1	-1
553.186	1	5
553.526	1	-1
553.866	1	-13
554.206	1	5
554.546	1	-6
554.886	1	-10
555.226	1	-15
555.566	1	3
555.906	1	-3
556.246	1	1
556.586	1	-1
556.926	1	5
557.266	1	9
557.606	1	9
557.946	1	10
558.286	1	-3
558.626	1	4
558.966	1	1
559.306	1	11
559.646	1	-3
559.986	1	1
560.325	1	3
560.665	1	8
561.005	1	6
561.345	1	-3
561.685	1	-4
562.025	1	-12
562.365	1	1
562.705	1	10
563.045	1	-4
563.385	1	0
563.725	1	-8
564.064	1	-4
564.404	1	1
564.744	1	-1
565.084	1	-2
565.424	1	-7
565.764	1	4
566.104	1	5
566.444	1	9
566.783	1	0
567.123	1	6
567.463	1	-4
567.803	1	3
568.143	1	3
568.483	1	1
568.823	1	-7
569.162	1	-1
569.502	1	-5
569.842	1	-2
570.182	1	3
570.522	1	2
570.862	1	1
571.201	1	7
571.541	1	-4
571.881	1	1
572.221	1	3
572.561	1	5
572.900	1	-12
573.240	1	5
573.580	1	-1
573.920	1	7
574.260	1	7
574.599	1	-3
574.939	1	-8
575.279	1	-6
575.619	1	12
575.959	1	-6
576.298	1	4
576.638	1	3
576.978	1	-5
577.318	1	2
577.657	1	-5
577.997	1	-2
578.337	1	1
578.677	1	2
579.016	1	0
579.356	1	8
579.696	1	-6
580.036	1	-4
580.375	1	0
580.715	1	1
581.055	1	4
581.394	1	10
581.734	1	-2
582.074	1	-2
582.414	1	-4
582.753	1	-1
583.093	1	-1
583.433	1	5
583.772	1	-5
584.112	1	-1
584.452	1	-8
584.791	1	-3
585.131	1	18
585.471	1	-1
585.811	1	-8
586.150	1	-7
586.490	1	3
586.830	1	-6
587.169	1	13
587.509	1	5
587.849	1	-6
588.188	1	-8
588.528	1	-9
588.867	1	5
589.207	1	-3
589.547	1	12
589.886	1	-5
590.226	1	3
590.566	1	-4
590.905	1	10
591.245	1	-2
591.585	1	-1
591.924	1	-1
592.264	1	4
592.603	1	1
592.943	1	6
593.283	1	6
593.622	1	-7
593.962	1	2
594.301	1	4
594.641	1	2
594.981	1	15
595.320	1	2
595.660	1	-4
595.999	1	0
596.339	1	-6
596.678	1	0
597.018	1	2
597.358	1	-10
597.697	1	2
598.037	1	-3
598.376	1	-7
598.716	1	-3
599.055	1	2
599.395	1	-5
599.734	1	13
600.074	1	-5
600.413	1	-10
600.753	1	-1
601.092	1	-3
601.432	1	0
601.771	1	9
602.111	1	-7
602.451	1	6
602.790	1	15
603.130	1	-2
603.469	1	-2
603.809	1	6
604.148	1	-4
604.487	1	8
604.827	1	-1
605.166	1	12
605.506	1	-5
605.845	1	8
606.185	1	3
606.524	1	2
606.864	1	-5
607.203	1	3
607.543	1	5
607.882	1	4
608.222	1	-7
608.561	1	-2
608.901	1	1
609.240	1	-3
609.579	1	3
609.919	1	-2
610.258	1	5
610.598	1	2
610.937	1	-1
611.277	1	-2
611.616	1	1
611.955	1	5
612.295	1	0
612.634	1	5
612.974	1	6
613.313	1	2
613.652	1	3
613.992	1	6
614.331	1	0
614.671	1	12
615.010	1	6
615.349	1	-1
615.689	1	3
616.028	1	-2
616.368	1	5
616.707	1	3
617.046	1	-2
617.386	1	-7
617.725	1	2
618.064	1	-2
618.404	1	-4
618.743	1	0
619.082	1	9
619.422	1	-7
619.761	1	-11
620.100	1	-8
620.440	1	11
620.779	1	-2
621.118	1	2
621.458	1	-7
621.797	1	10
622.136	1	10
622.476	1	-2
622.815	1	1
623.154	1	-1
623.494	1	4
623.833	1	3
624.172	1	-6
624.511	1	6
624.851	1	-12
625.190	1	0
625.529	1	9
625.869	1	16
626.208	1	1
626.547	1	-2
626.886	1	-2
627.226	1	2
627.565	1	1
627.904	1	6
628.243	1	-5
628.583	1	-6
628.922	1	-4
629.261	1	9
629.600	1	-1
629.940	1	-8
630.279	1	1
630.618	1	-2
630.957	1	2
631.297	1	-2
631.636	1	8
631.975	1	-9
632.314	1	-1
632.653	1	9
632.993	1	-6
633.332	1	-1
633.671	1	5
634.010	1	7
634.349	1	-11
634.689	1	7
635.028	1	6
635.367	1	-2
635.706	1	-6
636.045	1	2
636.384	1	-8
636.724	1	2
637.063	1	0
637.402	1	9
637.741	1	-2
638.080	1	11
638.419	1	-2
638.759	1	0
639.098	1	-8
639.437	1	-7
639.776	1	-4
640.115	1	11
640.454	1	-1
640.793	1	0
641.132	1	7
641.472	1	-7
641.811	1	4
642.150	1	-2
642.489	1	-5
642.828	1	0
643.167	1	-7
643.506	1	3
643.845	1	-2
644.184	1	12
644.524	1	1
644.863	1	-7
645.202	1	10
645.541	1	7
645.880	1	10
646.219	1	-1
646.558	1	5
646.897	1	5
647.236	1	1
647.575	1	-7
647.914	1	0
648.253	1	-2
648.592	1	7
648.931	1	10
649.270	1	-15
649.610	1	6
649.949	1	-7
650.288	1	-2
650.627	1	-6
650.966	1	-2
651.305	1	-6
651.644	1	5
651.983	1	4
652.322	1	-2
652.661	1	10
653.000	1	-6
653.339	1	-7
653.678	1	-1
654.017	1	1
654.356	1	6
654.695	1	11
655.034	1	-4
655.373	1	2
655.712	1	-14
656.051	1	0
656.390	1	4
656.729	1	-2
657.068	1	0
657.406	1	6
657.745	1	3
658.084	1	-6
658.423	1	-1
658.762	1	0
659.101	1	-3
659.440	1	-7
659.779	1	0
660.118	1	6
660.457	1	0
660.796	1	-3
661.135	1	-14
661.474	1	12
661.813	1	-9
662.152	1	-3
662.491	1	-6
662.829	1	-2
663.168	1	-1
663.507	1	0
663.846	1	-1
664.185	1	6
664.524	1	1
664.863	1	-1
665.202	1	17
665.541	1	5
665.879	1	7
666.218	1	4
666.557	1	-1
666.896	1	-4
667.235	1	0
667.574	1	-8
667.913	1	3
668.251	1	9
668.590	1	3
668.929	1	8
669.268	1	2
669.607	1	1
669.946	1	-1
670.285	1	8
670.623	1	-5
670.962	1	3
671.301	1	1
671.640	1	4
671.979	1	0
672.317	1	2
672.656	1	1
672.995	1	-4
673.334	1	7
673.673	1	7
674.011	1	4
674.350	1	-5
674.689	1	3
675.028	1	1
675.367	1	-6
675.705	1	4
676.044	1	14
676.383	1	0
676.722	1	7
677.060	1	-12
677.399	1	4
677.738	1	4
678.077	1	12
678.416	1	-6
678.754	1	2
679.093	1	8
679.432	1	1
679.771	1	8
680.109	1	9
680.448	1	9
680.787	1	-4
681.125	1	6
681.464	1	-1
681.803	1	6
682.142	1	-1
682.480	1	1
682.819	1	9
683.158	1	-6
683.496	1	5
683.835	1	-1
684.174	1	0
684.512	1	-7
684.851	1	-12
685.190	1	-8
685.529	1	12
685.867	1	9
686.206	1	12
686.545	1	8
686.883	1	-2
687.222	1	-1
687.561	1	1
687.899	1	-2
688.238	1	1
688.577	1	21
688.746	1	-5