File: Data/GaN_170K_550ms/GaN_sample D_spot 18_UVVIS_170 K_200um_550 ms 2x2mm1_105.txt
340.368	1	3
340.710	1	-11
341.052	1	3
341.394	1	5
341.737	1	-2
342.079	1	1
342.421	1	11
342.763	1	10
343.105	1	10
343.447	1	-3
343.789	1	15
344.131	1	4
344.473	1	8
344.815	1	6
345.157	1	2
345.499	1	3
345.841	1	10
346.183	1	11
346.526	1	3
346.868	1	3
347.210	1	-2
347.552	1	13
347.894	1	1
348.236	1	7
348.578	1	4
348.920	1	5
349.262	1	3
349.604	1	13
349.946	1	19
350.288	1	-1
350.630	1	9
350.972	1	-3
351.314	1	3
351.656	1	4
351.998	1	11
352.340	1	11
352.682	1	6
353.024	1	5
353.366	1	-3
353.708	1	12
354.050	1	-2
354.392	1	8
354.734	1	14
355.076	1	15
355.418	1	0
355.760	1	3
356.102	1	10
356.444	1	2
356.785	1	5
357.127	1	7
357.469	1	16
357.811	1	13
358.153	1	11
358.495	1	11
358.837	1	20
359.179	1	7
359.521	1	17
359.863	1	19
360.205	1	26
360.547	1	23
360.889	1	21
361.231	1	19
361.572	1	33
361.914	1	22
362.256	1	30
362.598	1	25
362.940	1	45
363.282	1	38
363.624	1	38
363.966	1	35
364.308	1	51
364.649	1	38
364.991	1	54
365.333	1	60
365.675	1	60
366.017	1	61
366.359	1	64
366.701	1	68
367.042	1	75
367.384	1	74
367.726	1	91
368.068	1	88
368.410	1	88
368.752	1	87
369.093	1	65
369.435	1	76
369.777	1	85
370.119	1	70
370.461	1	72
370.803	1	72
371.144	1	58
371.486	1	59
371.828	1	72
372.170	1	69
372.512	1	56
372.853	1	60
373.195	1	53
373.537	1	62
373.879	1	55
374.220	1	61
374.562	1	42
374.904	1	33
375.246	1	45
375.588	1	39
375.929	1	34
376.271	1	39
376.613	1	33
376.955	1	42
377.296	1	29
377.638	1	32
377.980	1	24
378.321	1	22
378.663	1	29
379.005	1	28
379.347	1	32
379.688	1	24
380.030	1	32
380.372	1	22
380.714	1	22
381.055	1	14
381.397	1	26
381.739	1	20
382.080	1	22
382.422	1	21
382.764	1	13
383.105	1	24
383.447	1	15
383.789	1	27
384.130	1	11
384.472	1	10
384.814	1	17
385.156	1	13
385.497	1	12
385.839	1	6
386.180	1	18
386.522	1	10
386.864	1	14
387.205	1	12
387.547	1	7
387.889	1	25
388.230	1	1
388.572	1	17
388.914	1	12
389.255	1	14
389.597	1	6
389.939	1	13
390.280	1	17
390.622	1	10
390.963	1	5
391.305	1	6
391.647	1	0
391.988	1	17
392.330	1	9
392.671	1	3
393.013	1	-5
393.355	1	14
393.696	1	10
394.038	1	1
394.379	1	5
394.721	1	4
395.062	1	3
395.404	1	14
395.746	1	12
396.087	1	9
396.429	1	11
396.770	1	14
397.112	1	0
397.453	1	13
397.795	1	5
398.136	1	-4
398.478	1	5
398.819	1	9
399.161	1	-7
399.503	1	5
399.844	1	5
400.186	1	3
400.527	1	11
400.869	1	1
401.210	1	6
401.552	1	3
401.893	1	14
402.235	1	12
402.576	1	7
402.918	1	-1
403.259	1	4
403.601	1	9
403.942	1	1
404.284	1	0
404.625	1	4
404.967	1	2
405.308	1	9
405.649	1	2
405.991	1	2
406.332	1	-3
406.674	1	9
407.015	1	11
407.357	1	6
407.698	1	15
408.040	1	6
408.381	1	-5
408.722	1	5
409.064	1	-5
409.405	1	4
409.747	1	5
410.088	1	9
410.430	1	-5
410.771	1	8
411.112	1	8
411.454	1	9
411.795	1	0
412.137	1	-2
412.478	1	13
412.819	1	-3
413.161	1	0
413.502	1	-5
413.844	1	12
414.185	1	3
414.526	1	7
414.868	1	13
415.209	1	-12
415.550	1	3
415.892	1	5
416.233	1	4
416.575	1	1
416.916	1	-7
417.257	1	5
417.599	1	6
417.940	1	4
418.281	1	-1
418.623	1	-3
418.964	1	-1
419.305	1	0
419.647	1	8
419.988	1	14
420.329	1	4
420.671	1	0
421.012	1	11
421.353	1	3
421.695	1	-5
422.036	1	10
422.377	1	8
422.718	1	15
423.060	1	2
423.401	1	5
423.742	1	-5
424.084	1	15
424.425	1	0
424.766	1	8
425.107	1	-5
425.449	1	6
425.790	1	0
426.131	1	7
426.472	1	2
426.814	1	5
427.155	1	8
427.496	1	0
427.837	1	4
428.179	1	6
428.520	1	9
428.861	1	3
429.202	1	-3
429.544	1	-5
429.885	1	8
430.226	1	0
430.567	1	8
430.909	1	0
431.250	1	17
431.591	1	-1
431.932	1	2
432.273	1	1
432.615	1	6
432.956	1	5
433.297	1	-3
433.638	1	10
433.979	1	5
434.320	1	6
434.662	1	-4
435.003	1	10
435.344	1	1
435.685	1	-3
436.026	1	-2
436.368	1	1
436.709	1	0
437.050	1	-9
437.391	1	-3
437.732	1	3
438.073	1	0
438.414	1	-1
438.756	1	4
439.097	1	-3
439.438	1	6
439.779	1	9
440.120	1	-3
440.461	1	17
440.802	1	18
441.143	1	6
441.485	1	0
441.826	1	8
442.167	1	4
442.508	1	0
442.849	1	4
443.190	1	2
443.531	1	-3
443.872	1	-4
444.213	1	2
444.554	1	0
444.895	1	-10
445.237	1	1
445.578	1	11
445.919	1	6
446.260	1	6
446.601	1	4
446.942	1	8
447.283	1	3
447.624	1	9
447.965	1	1
448.306	1	6
448.647	1	-1
448.988	1	12
449.329	1	0
449.670	1	-6
450.011	1	4
450.352	1	-6
450.693	1	2
451.034	1	-2
451.375	1	11
451.716	1	5
452.057	1	7
452.398	1	6
452.739	1	1
453.080	1	1
453.421	1	-3
453.762	1	-4
454.103	1	5
454.444	1	0
454.785	1	-3
455.126	1	19
455.467	1	-7
455.808	1	5
456.149	1	1
456.490	1	6
456.831	1	-3
457.172	1	-4
457.513	1	5
457.854	1	18
458.195	1	3
458.536	1	3
458.877	1	5
459.218	1	3
459.559	1	-1
459.899	1	-2
460.240	1	10
460.581	1	4
460.922	1	-7
461.263	1	4
461.604	1	15
461.945	1	2
462.286	1	-4
462.627	1	6
462.968	1	7
463.309	1	7
463.649	1	0
463.990	1	-1
464.331	1	8
464.672	1	3
465.013	1	15
465.354	1	-11
465.695	1	2
466.036	1	-6
466.376	1	-3
466.717	1	0
467.058	1	5
467.399	1	8
467.740	1	-4
468.081	1	-6
468.422	1	6
468.762	1	15
469.103	1	6
469.444	1	2
469.785	1	-4
470.126	1	-4
470.467	1	-10
470.807	1	-2
471.148	1	-8
471.489	1	6
471.830	1	-9
472.171	1	8
472.511	1	10
472.852	1	2
473.193	1	3
473.534	1	7
473.875	1	4
474.215	1	3
474.556	1	5
474.897	1	7
475.238	1	-2
475.578	1	-4
475.919	1	9
476.260	1	16
476.601	1	1
476.942	1	-2
477.282	1	11
477.623	1	12
477.964	1	6
478.305	1	-1
478.645	1	10
478.986	1	-4
479.327	1	-7
479.667	1	4
480.008	1	3
480.349	1	14
480.690	1	0
481.030	1	3
481.371	1	6
481.712	1	5
482.053	1	-4
482.393	1	-1
482.734	1	12
483.075	1	4
483.415	1	12
483.756	1	4
484.097	1	6
484.437	1	9
484.778	1	-1
485.119	1	6
485.459	1	-6
485.800	1	-2
486.141	1	16
486.481	1	11
486.822	1	7
487.163	1	3
487.503	1	2
487.844	1	21
488.185	1	7
488.525	1	11
488.866	1	18
489.207	1	3
489.547	1	19
489.888	1	0
490.228	1	1
490.569	1	5
490.910	1	6
491.250	1	7
491.591	1	9
491.932	1	10
492.272	1	2
492.613	1	9
492.953	1	-1
493.294	1	4
493.635	1	2
493.975	1	5
494.316	1	3
494.656	1	0
494.997	1	5
495.337	1	17
495.678	1	6
496.019	1	0
496.359	1	6
496.700	1	15
497.040	1	-1
497.381	1	8
497.721	1	-2
498.062	1	7
498.403	1	4
498.743	1	3
499.084	1	6
499.424	1	11
499.765	1	-3
500.105	1	5
500.446	1	2
500.786	1	6
501.127	1	10
501.467	1	1
501.808	1	11
502.148	1	23
502.489	1	16
502.829	1	11
503.170	1	13
503.510	1	8
503.851	1	6
504.191	1	3
504.532	1	-1
504.872	1	10
505.213	1	8
505.553	1	7
505.894	1	21
506.234	1	11
506.575	1	20
506.915	1	9
507.256	1	11
507.596	1	14
507.936	1	22
508.277	1	6
508.617	1	12
508.958	1	6
509.298	1	4
509.639	1	20
509.979	1	7
510.319	1	3
510.660	1	8
511.000	1	8
511.341	1	15
511.681	1	11
512.022	1	8
512.362	1	9
512.702	1	-2
513.043	1	16
513.383	1	11
513.724	1	0
514.064	1	10
514.404	1	7
514.745	1	2
515.085	1	12
515.425	1	13
515.766	1	8
516.106	1	19
516.447	1	9
516.787	1	5
517.127	1	11
517.468	1	12
517.808	1	13
518.148	1	17
518.489	1	19
518.829	1	16
519.169	1	8
519.510	1	18
519.850	1	15
520.190	1	10
520.531	1	13
520.871	1	9
521.211	1	14
521.552	1	9
521.892	1	11
522.232	1	2
522.573	1	17
522.913	1	16
523.253	1	21
523.593	1	13
523.934	1	13
524.274	1	5
524.614	1	16
524.955	1	11
525.295	1	19
525.635	1	22
525.975	1	7
526.316	1	25
526.656	1	18
526.996	1	9
527.337	1	5
527.677	1	0
528.017	1	12
528.357	1	5
528.698	1	6
529.038	1	6
529.378	1	21
529.718	1	12
530.058	1	18
530.399	1	20
530.739	1	14
531.079	1	13
531.419	1	24
531.760	1	24
532.100	1	16
532.440	1	5
532.780	1	7
533.120	1	16
533.461	1	4
533.801	1	15
534.141	1	2
534.481	1	14
534.821	1	20
535.162	1	15
535.502	1	3
535.842	1	16
536.182	1	16
536.522	1	13
536.862	1	30
537.203	1	17
537.543	1	8
537.883	1	20
538.223	1	13
538.563	1	20
538.903	1	16
539.243	1	6
539.584	1	9
539.924	1	13
540.264	1	20
540.604	1	11
540.944	1	9
541.284	1	18
541.624	1	9
541.964	1	20
542.305	1	14
542.645	1	2
542.985	1	17
543.325	1	21
543.665	1	10
544.005	1	16
544.345	1	23
544.685	1	10
545.025	1	3
545.365	1	12
545.705	1	15
546.045	1	12
546.386	1	12
546.726	1	1
547.066	1	19
547.406	1	8
547.746	1	4
548.086	1	12
548.426	1	19
548.766	1	12
549.106	1	15
549.446	1	6
549.786	1	-4
550.126	1	13
550.466	1	10
550.806	1	9
551.146	1	9
551.486	1	14
551.826	1	7
552.166	1	11
552.506	1	23
552.846	1	19
553.186	1	11
553.526	1	9
553.866	1	5
554.206	1	9
554.546	1	3
554.886	1	0
555.226	1	2
555.566	1	18
555.906	1	8
556.246	1	8
556.586	1	-2
556.926	1	20
557.266	1	2
557.606	1	13
557.946	1	22
558.286	1	5
558.626	1	22
558.966	1	14
559.306	1	27
559.646	1	1
559.986	1	10
560.325	1	6
560.665	1	10
561.005	1	6
561.345	1	7
561.685	1	12
562.025	1	-2
562.365	1	14
562.705	1	11
563.045	1	8
563.385	1	16
563.725	1	2
564.064	1	10
564.404	1	11
564.744	1	7
565.084	1	12
565.424	1	8
565.764	1	2
566.104	1	4
566.444	1	9
566.783	1	11
567.123	1	4
567.463	1	0
567.803	1	-4
568.143	1	11
568.483	1	7
568.823	1	9
569.162	1	14
569.502	1	8
569.842	1	-3
570.182	1	6
570.522	1	8
570.862	1	3
571.201	1	15
571.541	1	4
571.881	1	10
572.221	1	3
572.561	1	16
572.900	1	3
573.240	1	8
573.580	1	5
573.920	1	19
574.260	1	1
574.599	1	11
574.939	1	7
575.279	1	3
575.619	1	8
575.959	1	-1
576.298	1	11
576.638	1	20
576.978	1	5
577.318	1	4
577.657	1	12
577.997	1	3
578.337	1	10
578.677	1	6
579.016	1	4
579.356	1	1
579.696	1	4
580.036	1	4
580.375	1	15
580.715	1	5
581.055	1	10
581.394	1	7
581.734	1	8
582.074	1	1
582.414	1	3
582.753	1	3
583.093	1	11
583.433	1	11
583.772	1	0
584.112	1	16
584.452	1	-3
584.791	1	2
585.131	1	10
585.471	1	10
585.811	1	4
586.150	1	6
586.490	1	10
586.830	1	2
587.169	1	11
587.509	1	10
587.849	1	-1
588.188	1	1
588.528	1	-2
588.867	1	1
589.207	1	-2
589.547	1	10
589.886	1	-6
590.226	1	9
590.566	1	-4
590.905	1	16
591.245	1	7
591.585	1	16
591.924	1	-8
592.264	1	2
592.603	1	1
592.943	1	13
593.283	1	16
593.622	1	-8
593.962	1	6
594.301	1	7
594.641	1	11
594.981	1	16
595.320	1	1
595.660	1	-1
595.999	1	7
596.339	1	15
596.678	1	-3
597.018	1	-1
597.358	1	-10
597.697	1	3
598.037	1	1
598.376	1	-4
598.716	1	5
599.055	1	2
599.395	1	4
599.734	1	16
600.074	1	3
600.413	1	-4
600.753	1	8
601.092	1	1
601.432	1	-1
601.771	1	14
602.111	1	-1
602.451	1	10
602.790	1	14
603.130	1	-7
603.469	1	9
603.809	1	2
604.148	1	6
604.487	1	11
604.827	1	-4
605.166	1	15
605.506	1	-1
605.845	1	12
606.185	1	8
606.524	1	6
606.864	1	4
607.203	1	6
607.543	1	12
607.882	1	3
608.222	1	12
608.561	1	9
608.901	1	3
609.240	1	4
609.579	1	5
609.919	1	-4
610.258	1	8
610.598	1	11
610.937	1	2
611.277	1	3
611.616	1	2
611.955	1	13
612.295	1	7
612.634	1	2
612.974	1	7
613.313	1	-2
613.652	1	17
613.992	1	1
614.331	1	-6
614.671	1	7
615.010	1	10
615.349	1	7
615.689	1	21
616.028	1	-2
616.368	1	3
616.707	1	6
617.046	1	5
617.386	1	1
617.725	1	5
618.064	1	-7
618.404	1	2
618.743	1	5
619.082	1	12
619.422	1	5
619.761	1	-12
620.100	1	4
620.440	1	5
620.779	1	2
621.118	1	1
621.458	1	1
621.797	1	-1
622.136	1	4
622.476	1	2
622.815	1	13
623.154	1	12
623.494	1	1
623.833	1	12
624.172	1	2
624.511	1	13
624.851	1	-6
625.190	1	4
625.529	1	8
625.869	1	13
626.208	1	1
626.547	1	0
626.886	1	6
627.226	1	7
627.565	1	4
627.904	1	-1
628.243	1	2
628.583	1	-4
628.922	1	-9
629.261	1	11
629.600	1	-1
629.940	1	4
630.279	1	3
630.618	1	-2
630.957	1	10
631.297	1	0
631.636	1	14
631.975	1	3
632.314	1	3
632.653	1	13
632.993	1	1
633.332	1	7
633.671	1	12
634.010	1	5
634.349	1	-6
634.689	1	8
635.028	1	6
635.367	1	6
635.706	1	3
636.045	1	9
636.384	1	1
636.724	1	8
637.063	1	7
637.402	1	17
637.741	1	2
638.080	1	4
638.419	1	-2
638.759	1	3
639.098	1	-11
639.437	1	-5
639.776	1	-1
640.115	1	2
640.454	1	4
640.793	1	-2
641.132	1	2
641.472	1	3
641.811	1	12
642.150	1	3
642.489	1	9
642.828	1	1
643.167	1	2
643.506	1	8
643.845	1	5
644.184	1	12
644.524	1	10
644.863	1	0
645.202	1	16
645.541	1	4
645.880	1	19
646.219	1	0
646.558	1	11
646.897	1	10
647.236	1	-3
647.575	1	8
647.914	1	7
648.253	1	7
648.592	1	4
648.931	1	5
649.270	1	-3
649.610	1	10
649.949	1	6
650.288	1	2
650.627	1	-1
650.966	1	4
651.305	1	-5
651.644	1	6
651.983	1	1
652.322	1	9
652.661	1	7
653.000	1	-4
653.339	1	1
653.678	1	7
654.017	1	5
654.356	1	5
654.695	1	10
655.034	1	2
655.373	1	13
655.712	1	-5
656.051	1	-1
656.390	1	5
656.729	1	0
657.068	1	1
657.406	1	0
657.745	1	12
658.084	1	-7
658.423	1	0
658.762	1	0
659.101	1	2
659.440	1	-2
659.779	1	0
660.118	1	-2
660.457	1	7
660.796	1	-7
661.135	1	-10
661.474	1	10
661.813	1	3
662.152	1	6
662.491	1	-7
662.829	1	-1
663.168	1	10
663.507	1	2
663.846	1	2
664.185	1	8
664.524	1	6
664.863	1	2
665.202	1	12
665.541	1	1
665.879	1	5
666.218	1	16
666.557	1	6
666.896	1	2
667.235	1	0
667.574	1	-9
667.913	1	-5
668.251	1	6
668.590	1	4
668.929	1	12
669.268	1	-1
669.607	1	5
669.946	1	6
670.285	1	20
670.623	1	4
670.962	1	1
671.301	1	-4
671.640	1	6
671.979	1	1
672.317	1	4
672.656	1	5
672.995	1	-6
673.334	1	0
673.673	1	3
674.011	1	6
674.350	1	5
674.689	1	11
675.028	1	7
675.367	1	-3
675.705	1	7
676.044	1	21
676.383	1	-7
676.722	1	18
677.060	1	2
677.399	1	-5
677.738	1	0
678.077	1	7
678.416	1	-5
678.754	1	6
679.093	1	3
679.432	1	5
679.771	1	10
680.109	1	-4
680.448	1	2
680.787	1	-7
681.125	1	6
681.464	1	6
681.803	1	12
682.142	1	5
682.480	1	2
682.819	1	2
683.158	1	-8
683.496	1	-4
683.835	1	-3
684.174	1	1
684.512	1	-6
684.851	1	-1
685.190	1	-7
685.529	1	22
685.867	1	10
686.206	1	4
686.545	1	7
686.883	1	9
687.222	1	2
687.561	1	-1
687.899	1	-2
688.238	1	0
688.577	1	19
688.746	1	-5