File: Data/GaN_170K_550ms/GaN_sample D_spot 18_UVVIS_170 K_200um_550 ms 2x2mm1_288.txt
340.368	1	-4
340.710	1	-6
341.052	1	5
341.394	1	6
341.737	1	-7
342.079	1	-4
342.421	1	-1
342.763	1	3
343.105	1	4
343.447	1	-4
343.789	1	2
344.131	1	1
344.473	1	2
344.815	1	11
345.157	1	-4
345.499	1	2
345.841	1	6
346.183	1	6
346.526	1	6
346.868	1	1
347.210	1	-8
347.552	1	9
347.894	1	1
348.236	1	-2
348.578	1	-1
348.920	1	3
349.262	1	8
349.604	1	8
349.946	1	11
350.288	1	1
350.630	1	8
350.972	1	-15
351.314	1	5
351.656	1	-6
351.998	1	7
352.340	1	-1
352.682	1	5
353.024	1	-3
353.366	1	2
353.708	1	10
354.050	1	-12
354.392	1	-3
354.734	1	-1
355.076	1	2
355.418	1	-12
355.760	1	-4
356.102	1	3
356.444	1	1
356.785	1	6
357.127	1	2
357.469	1	5
357.811	1	6
358.153	1	8
358.495	1	-5
358.837	1	3
359.179	1	-3
359.521	1	5
359.863	1	5
360.205	1	1
360.547	1	6
360.889	1	5
361.231	1	4
361.572	1	7
361.914	1	1
362.256	1	-4
362.598	1	6
362.940	1	15
363.282	1	-3
363.624	1	8
363.966	1	6
364.308	1	15
364.649	1	11
364.991	1	9
365.333	1	2
365.675	1	14
366.017	1	8
366.359	1	0
366.701	1	15
367.042	1	3
367.384	1	11
367.726	1	7
368.068	1	11
368.410	1	13
368.752	1	10
369.093	1	-4
369.435	1	1
369.777	1	8
370.119	1	2
370.461	1	5
370.803	1	5
371.144	1	12
371.486	1	2
371.828	1	2
372.170	1	9
372.512	1	10
372.853	1	17
373.195	1	6
373.537	1	20
373.879	1	5
374.220	1	11
374.562	1	6
374.904	1	4
375.246	1	6
375.588	1	5
375.929	1	5
376.271	1	11
376.613	1	4
376.955	1	11
377.296	1	-1
377.638	1	1
377.980	1	1
378.321	1	3
378.663	1	8
379.005	1	9
379.347	1	0
379.688	1	6
380.030	1	4
380.372	1	6
380.714	1	9
381.055	1	-4
381.397	1	5
381.739	1	4
382.080	1	2
382.422	1	2
382.764	1	-2
383.105	1	6
383.447	1	13
383.789	1	13
384.130	1	1
384.472	1	-2
384.814	1	5
385.156	1	-1
385.497	1	14
385.839	1	-7
386.180	1	13
386.522	1	11
386.864	1	4
387.205	1	-10
387.547	1	0
387.889	1	6
388.230	1	1
388.572	1	6
388.914	1	3
389.255	1	8
389.597	1	9
389.939	1	-5
390.280	1	0
390.622	1	2
390.963	1	6
391.305	1	-4
391.647	1	-6
391.988	1	5
392.330	1	2
392.671	1	-1
393.013	1	-4
393.355	1	14
393.696	1	0
394.038	1	-8
394.379	1	1
394.721	1	3
395.062	1	-4
395.404	1	13
395.746	1	8
396.087	1	2
396.429	1	2
396.770	1	7
397.112	1	-1
397.453	1	11
397.795	1	6
398.136	1	3
398.478	1	1
398.819	1	1
399.161	1	-10
399.503	1	4
399.844	1	-6
400.186	1	-9
400.527	1	6
400.869	1	6
401.210	1	7
401.552	1	7
401.893	1	5
402.235	1	4
402.576	1	0
402.918	1	-6
403.259	1	3
403.601	1	8
403.942	1	2
404.284	1	-11
404.625	1	-2
404.967	1	1
405.308	1	12
405.649	1	7
405.991	1	2
406.332	1	-13
406.674	1	5
407.015	1	6
407.357	1	-4
407.698	1	3
408.040	1	0
408.381	1	4
408.722	1	-6
409.064	1	4
409.405	1	7
409.747	1	1
410.088	1	14
410.430	1	-6
410.771	1	8
411.112	1	4
411.454	1	10
411.795	1	9
412.137	1	-5
412.478	1	6
412.819	1	2
413.161	1	13
413.502	1	5
413.844	1	9
414.185	1	-4
414.526	1	4
414.868	1	5
415.209	1	-12
415.550	1	2
415.892	1	2
416.233	1	7
416.575	1	4
416.916	1	1
417.257	1	-2
417.599	1	5
417.940	1	5
418.281	1	1
418.623	1	-3
418.964	1	-4
419.305	1	-6
419.647	1	7
419.988	1	0
420.329	1	6
420.671	1	2
421.012	1	4
421.353	1	6
421.695	1	-6
422.036	1	1
422.377	1	2
422.718	1	10
423.060	1	-6
423.401	1	0
423.742	1	-3
424.084	1	8
424.425	1	-2
424.766	1	3
425.107	1	-5
425.449	1	2
425.790	1	4
426.131	1	8
426.472	1	-3
426.814	1	0
427.155	1	9
427.496	1	-3
427.837	1	6
428.179	1	5
428.520	1	-1
428.861	1	8
429.202	1	3
429.544	1	-8
429.885	1	-5
430.226	1	2
430.567	1	2
430.909	1	-6
431.250	1	11
431.591	1	-4
431.932	1	-16
432.273	1	5
432.615	1	11
432.956	1	-2
433.297	1	-2
433.638	1	2
433.979	1	4
434.320	1	4
434.662	1	-10
435.003	1	3
435.344	1	-3
435.685	1	-3
436.026	1	-5
436.368	1	7
436.709	1	-10
437.050	1	-2
437.391	1	-12
437.732	1	2
438.073	1	0
438.414	1	-1
438.756	1	-3
439.097	1	2
439.438	1	3
439.779	1	0
440.120	1	-6
440.461	1	9
440.802	1	13
441.143	1	0
441.485	1	-3
441.826	1	7
442.167	1	4
442.508	1	-6
442.849	1	-13
443.190	1	0
443.531	1	-4
443.872	1	6
444.213	1	-2
444.554	1	7
444.895	1	-10
445.237	1	-2
445.578	1	1
445.919	1	4
446.260	1	8
446.601	1	-3
446.942	1	4
447.283	1	4
447.624	1	-3
447.965	1	0
448.306	1	-2
448.647	1	5
448.988	1	10
449.329	1	-1
449.670	1	-10
450.011	1	9
450.352	1	-3
450.693	1	-2
451.034	1	3
451.375	1	9
451.716	1	4
452.057	1	0
452.398	1	4
452.739	1	6
453.080	1	4
453.421	1	2
453.762	1	-1
454.103	1	-5
454.444	1	1
454.785	1	4
455.126	1	4
455.467	1	-13
455.808	1	10
456.149	1	-7
456.490	1	-3
456.831	1	-3
457.172	1	-5
457.513	1	12
457.854	1	20
458.195	1	-3
458.536	1	5
458.877	1	-2
459.218	1	5
459.559	1	-2
459.899	1	3
460.240	1	-4
460.581	1	3
460.922	1	3
461.263	1	3
461.604	1	6
461.945	1	7
462.286	1	-5
462.627	1	-3
462.968	1	8
463.309	1	-1
463.649	1	9
463.990	1	-5
464.331	1	1
464.672	1	7
465.013	1	5
465.354	1	5
465.695	1	2
466.036	1	-5
466.376	1	3
466.717	1	-4
467.058	1	2
467.399	1	8
467.740	1	-4
468.081	1	-1
468.422	1	5
468.762	1	11
469.103	1	0
469.444	1	-7
469.785	1	-3
470.126	1	7
470.467	1	-5
470.807	1	0
471.148	1	-1
471.489	1	-1
471.830	1	-2
472.171	1	10
472.511	1	1
472.852	1	3
473.193	1	-1
473.534	1	-3
473.875	1	4
474.215	1	4
474.556	1	2
474.897	1	7
475.238	1	5
475.578	1	-2
475.919	1	12
476.260	1	8
476.601	1	6
476.942	1	1
477.282	1	11
477.623	1	4
477.964	1	0
478.305	1	5
478.645	1	1
478.986	1	-2
479.327	1	-8
479.667	1	-3
480.008	1	1
480.349	1	5
480.690	1	10
481.030	1	12
481.371	1	7
481.712	1	-5
482.053	1	-8
482.393	1	0
482.734	1	-1
483.075	1	4
483.415	1	5
483.756	1	-2
484.097	1	-11
484.437	1	1
484.778	1	-11
485.119	1	10
485.459	1	-1
485.800	1	3
486.141	1	10
486.481	1	7
486.822	1	0
487.163	1	-3
487.503	1	3
487.844	1	9
488.185	1	-1
488.525	1	5
488.866	1	8
489.207	1	11
489.547	1	18
489.888	1	2
490.228	1	3
490.569	1	3
490.910	1	0
491.250	1	9
491.591	1	-1
491.932	1	-1
492.272	1	7
492.613	1	1
492.953	1	0
493.294	1	-4
493.635	1	-7
493.975	1	-1
494.316	1	-4
494.656	1	4
494.997	1	1
495.337	1	16
495.678	1	1
496.019	1	-9
496.359	1	-2
496.700	1	8
497.040	1	2
497.381	1	2
497.721	1	-8
498.062	1	-2
498.403	1	6
498.743	1	7
499.084	1	1
499.424	1	6
499.765	1	-18
500.105	1	-2
500.446	1	-4
500.786	1	8
501.127	1	-2
501.467	1	7
501.808	1	-4
502.148	1	1
502.489	1	7
502.829	1	-2
503.170	1	8
503.510	1	5
503.851	1	-1
504.191	1	-7
504.532	1	-11
504.872	1	3
505.213	1	0
505.553	1	8
505.894	1	4
506.234	1	-7
506.575	1	-1
506.915	1	8
507.256	1	3
507.596	1	7
507.936	1	18
508.277	1	-11
508.617	1	3
508.958	1	-5
509.298	1	4
509.639	1	5
509.979	1	1
510.319	1	-5
510.660	1	2
511.000	1	1
511.341	1	8
511.681	1	-6
512.022	1	-1
512.362	1	0
512.702	1	-4
513.043	1	0
513.383	1	3
513.724	1	-5
514.064	1	8
514.404	1	-1
514.745	1	-5
515.085	1	-3
515.425	1	-2
515.766	1	-3
516.106	1	9
516.447	1	5
516.787	1	6
517.127	1	12
517.468	1	2
517.808	1	11
518.148	1	-1
518.489	1	6
518.829	1	-4
519.169	1	-4
519.510	1	9
519.850	1	-6
520.190	1	5
520.531	1	10
520.871	1	0
521.211	1	10
521.552	1	1
521.892	1	4
522.232	1	-4
522.573	1	6
522.913	1	7
523.253	1	10
523.593	1	-2
523.934	1	3
524.274	1	1
524.614	1	0
524.955	1	-2
525.295	1	6
525.635	1	5
525.975	1	0
526.316	1	9
526.656	1	7
526.996	1	3
527.337	1	2
527.677	1	-3
528.017	1	3
528.357	1	-8
528.698	1	-11
529.038	1	-7
529.378	1	-6
529.718	1	12
530.058	1	10
530.399	1	11
530.739	1	0
531.079	1	6
531.419	1	16
531.760	1	2
532.100	1	1
532.440	1	-2
532.780	1	6
533.120	1	11
533.461	1	-1
533.801	1	1
534.141	1	-6
534.481	1	10
534.821	1	11
535.162	1	9
535.502	1	4
535.842	1	0
536.182	1	8
536.522	1	13
536.862	1	8
537.203	1	-1
537.543	1	-6
537.883	1	1
538.223	1	8
538.563	1	3
538.903	1	2
539.243	1	-6
539.584	1	2
539.924	1	-7
540.264	1	6
540.604	1	-4
540.944	1	-9
541.284	1	4
541.624	1	-3
541.964	1	2
542.305	1	5
542.645	1	-5
542.985	1	4
543.325	1	1
543.665	1	3
544.005	1	10
544.345	1	4
544.685	1	3
545.025	1	2
545.365	1	-7
545.705	1	8
546.045	1	-2
546.386	1	2
546.726	1	0
547.066	1	10
547.406	1	2
547.746	1	-7
548.086	1	-5
548.426	1	6
548.766	1	8
549.106	1	12
549.446	1	8
549.786	1	-10
550.126	1	2
550.466	1	1
550.806	1	2
551.146	1	0
551.486	1	0
551.826	1	5
552.166	1	5
552.506	1	1
552.846	1	0
553.186	1	0
553.526	1	4
553.866	1	6
554.206	1	1
554.546	1	-6
554.886	1	-5
555.226	1	-4
555.566	1	2
555.906	1	-12
556.246	1	-1
556.586	1	5
556.926	1	5
557.266	1	5
557.606	1	14
557.946	1	5
558.286	1	6
558.626	1	11
558.966	1	1
559.306	1	9
559.646	1	-4
559.986	1	8
560.325	1	0
560.665	1	1
561.005	1	5
561.345	1	-3
561.685	1	3
562.025	1	1
562.365	1	3
562.705	1	5
563.045	1	-4
563.385	1	1
563.725	1	-5
564.064	1	1
564.404	1	7
564.744	1	-1
565.084	1	3
565.424	1	-1
565.764	1	0
566.104	1	4
566.444	1	2
566.783	1	4
567.123	1	1
567.463	1	-1
567.803	1	1
568.143	1	7
568.483	1	1
568.823	1	1
569.162	1	5
569.502	1	2
569.842	1	-2
570.182	1	-5
570.522	1	0
570.862	1	0
571.201	1	1
571.541	1	-5
571.881	1	-6
572.221	1	4
572.561	1	0
572.900	1	-4
573.240	1	-3
573.580	1	4
573.920	1	6
574.260	1	6
574.599	1	4
574.939	1	-2
575.279	1	-8
575.619	1	5
575.959	1	-3
576.298	1	10
576.638	1	8
576.978	1	6
577.318	1	7
577.657	1	0
577.997	1	-12
578.337	1	5
578.677	1	2
579.016	1	3
579.356	1	2
579.696	1	2
580.036	1	0
580.375	1	3
580.715	1	8
581.055	1	9
581.394	1	-1
581.734	1	8
582.074	1	10
582.414	1	-1
582.753	1	-9
583.093	1	0
583.433	1	10
583.772	1	-4
584.112	1	8
584.452	1	-5
584.791	1	6
585.131	1	14
585.471	1	11
585.811	1	-5
586.150	1	-13
586.490	1	0
586.830	1	-3
587.169	1	7
587.509	1	2
587.849	1	-3
588.188	1	1
588.528	1	-6
588.867	1	7
589.207	1	5
589.547	1	5
589.886	1	-6
590.226	1	3
590.566	1	2
590.905	1	9
591.245	1	0
591.585	1	6
591.924	1	-3
592.264	1	1
592.603	1	4
592.943	1	0
593.283	1	1
593.622	1	-6
593.962	1	4
594.301	1	7
594.641	1	3
594.981	1	13
595.320	1	-3
595.660	1	-3
595.999	1	-1
596.339	1	2
596.678	1	-2
597.018	1	1
597.358	1	1
597.697	1	-1
598.037	1	7
598.376	1	-8
598.716	1	4
599.055	1	3
599.395	1	-5
599.734	1	4
600.074	1	-8
600.413	1	0
600.753	1	9
601.092	1	-1
601.432	1	-9
601.771	1	9
602.111	1	-10
602.451	1	4
602.790	1	9
603.130	1	-11
603.469	1	0
603.809	1	7
604.148	1	-2
604.487	1	0
604.827	1	-4
605.166	1	3
605.506	1	4
605.845	1	5
606.185	1	6
606.524	1	-4
606.864	1	-1
607.203	1	4
607.543	1	8
607.882	1	-5
608.222	1	2
608.561	1	4
608.901	1	0
609.240	1	-7
609.579	1	-2
609.919	1	-11
610.258	1	2
610.598	1	8
610.937	1	-3
611.277	1	0
611.616	1	5
611.955	1	5
612.295	1	4
612.634	1	-1
612.974	1	10
613.313	1	-4
613.652	1	10
613.992	1	0
614.331	1	-6
614.671	1	8
615.010	1	3
615.349	1	6
615.689	1	8
616.028	1	1
616.368	1	5
616.707	1	2
617.046	1	0
617.386	1	-6
617.725	1	-5
618.064	1	0
618.404	1	-6
618.743	1	7
619.082	1	1
619.422	1	-2
619.761	1	0
620.100	1	4
620.440	1	-5
620.779	1	-1
621.118	1	-9
621.458	1	2
621.797	1	1
622.136	1	-2
622.476	1	1
622.815	1	5
623.154	1	3
623.494	1	3
623.833	1	5
624.172	1	-3
624.511	1	4
624.851	1	-9
625.190	1	5
625.529	1	2
625.869	1	1
626.208	1	2
626.547	1	-7
626.886	1	2
627.226	1	2
627.565	1	4
627.904	1	2
628.243	1	-11
628.583	1	3
628.922	1	-5
629.261	1	6
629.600	1	-1
629.940	1	-5
630.279	1	3
630.618	1	-9
630.957	1	3
631.297	1	-6
631.636	1	18
631.975	1	1
632.314	1	-2
632.653	1	2
632.993	1	-2
633.332	1	4
633.671	1	4
634.010	1	-4
634.349	1	-11
634.689	1	4
635.028	1	1
635.367	1	-4
635.706	1	-3
636.045	1	2
636.384	1	-5
636.724	1	7
637.063	1	1
637.402	1	12
637.741	1	-7
638.080	1	12
638.419	1	-13
638.759	1	-4
639.098	1	1
639.437	1	0
639.776	1	-5
640.115	1	7
640.454	1	4
640.793	1	-5
641.132	1	8
641.472	1	6
641.811	1	6
642.150	1	-5
642.489	1	-3
642.828	1	7
643.167	1	-2
643.506	1	4
643.845	1	5
644.184	1	2
644.524	1	-4
644.863	1	-4
645.202	1	2
645.541	1	-7
645.880	1	8
646.219	1	3
646.558	1	5
646.897	1	5
647.236	1	-2
647.575	1	-12
647.914	1	-1
648.253	1	5
648.592	1	-8
648.931	1	9
649.270	1	-6
649.610	1	7
649.949	1	-3
650.288	1	3
650.627	1	1
650.966	1	1
651.305	1	1
651.644	1	5
651.983	1	1
652.322	1	-6
652.661	1	-8
653.000	1	-6
653.339	1	-3
653.678	1	2
654.017	1	1
654.356	1	5
654.695	1	4
655.034	1	-6
655.373	1	3
655.712	1	-6
656.051	1	2
656.390	1	3
656.729	1	3
657.068	1	12
657.406	1	-7
657.745	1	4
658.084	1	-2
658.423	1	-3
658.762	1	0
659.101	1	3
659.440	1	0
659.779	1	5
660.118	1	2
660.457	1	9
660.796	1	-7
661.135	1	-8
661.474	1	10
661.813	1	-6
662.152	1	4
662.491	1	-7
662.829	1	-5
663.168	1	5
663.507	1	9
663.846	1	-4
664.185	1	15
664.524	1	5
664.863	1	-4
665.202	1	18
665.541	1	-4
665.879	1	1
666.218	1	16
666.557	1	1
666.896	1	4
667.235	1	-6
667.574	1	-9
667.913	1	-1
668.251	1	3
668.590	1	-2
668.929	1	2
669.268	1	-4
669.607	1	2
669.946	1	5
670.285	1	13
670.623	1	2
670.962	1	1
671.301	1	-3
671.640	1	3
671.979	1	-4
672.317	1	1
672.656	1	3
672.995	1	-6
673.334	1	-10
673.673	1	5
674.011	1	0
674.350	1	8
674.689	1	2
675.028	1	-3
675.367	1	1
675.705	1	11
676.044	1	14
676.383	1	7
676.722	1	14
677.060	1	0
677.399	1	-3
677.738	1	-2
678.077	1	6
678.416	1	-10
678.754	1	8
679.093	1	9
679.432	1	4
679.771	1	5
680.109	1	-7
680.448	1	-3
680.787	1	-6
681.125	1	7
681.464	1	9
681.803	1	10
682.142	1	-5
682.480	1	0
682.819	1	4
683.158	1	-9
683.496	1	1
683.835	1	-3
684.174	1	1
684.512	1	-1
684.851	1	-9
685.190	1	-1
685.529	1	15
685.867	1	3
686.206	1	6
686.545	1	2
686.883	1	-1
687.222	1	1
687.561	1	-3
687.899	1	-12
688.238	1	-6
688.577	1	5
688.746	1	-8