File: Data/GaN_170K_550ms/GaN_sample D_spot 18_UVVIS_170 K_200um_550 ms 2x2mm1_292.txt
340.368	1	-11
340.710	1	-9
341.052	1	5
341.394	1	2
341.737	1	0
342.079	1	1
342.421	1	1
342.763	1	-2
343.105	1	4
343.447	1	-15
343.789	1	4
344.131	1	1
344.473	1	5
344.815	1	0
345.157	1	5
345.499	1	-10
345.841	1	1
346.183	1	8
346.526	1	1
346.868	1	9
347.210	1	-12
347.552	1	10
347.894	1	6
348.236	1	3
348.578	1	8
348.920	1	-1
349.262	1	6
349.604	1	15
349.946	1	6
350.288	1	4
350.630	1	4
350.972	1	-11
351.314	1	4
351.656	1	1
351.998	1	5
352.340	1	-3
352.682	1	7
353.024	1	1
353.366	1	10
353.708	1	5
354.050	1	-3
354.392	1	5
354.734	1	6
355.076	1	-6
355.418	1	-3
355.760	1	0
356.102	1	5
356.444	1	0
356.785	1	3
357.127	1	-5
357.469	1	-7
357.811	1	11
358.153	1	4
358.495	1	10
358.837	1	-2
359.179	1	-2
359.521	1	6
359.863	1	5
360.205	1	2
360.547	1	5
360.889	1	20
361.231	1	10
361.572	1	4
361.914	1	-1
362.256	1	6
362.598	1	5
362.940	1	10
363.282	1	1
363.624	1	3
363.966	1	2
364.308	1	7
364.649	1	0
364.991	1	18
365.333	1	3
365.675	1	6
366.017	1	5
366.359	1	11
366.701	1	12
367.042	1	-1
367.384	1	10
367.726	1	17
368.068	1	14
368.410	1	19
368.752	1	9
369.093	1	2
369.435	1	5
369.777	1	12
370.119	1	3
370.461	1	13
370.803	1	0
371.144	1	7
371.486	1	1
371.828	1	2
372.170	1	2
372.512	1	2
372.853	1	7
373.195	1	-3
373.537	1	15
373.879	1	12
374.220	1	11
374.562	1	3
374.904	1	6
375.246	1	2
375.588	1	-1
375.929	1	4
376.271	1	18
376.613	1	5
376.955	1	8
377.296	1	8
377.638	1	13
377.980	1	-1
378.321	1	8
378.663	1	2
379.005	1	1
379.347	1	-10
379.688	1	6
380.030	1	11
380.372	1	2
380.714	1	10
381.055	1	7
381.397	1	2
381.739	1	-3
382.080	1	-5
382.422	1	5
382.764	1	9
383.105	1	10
383.447	1	10
383.789	1	14
384.130	1	-8
384.472	1	-10
384.814	1	9
385.156	1	1
385.497	1	15
385.839	1	1
386.180	1	1
386.522	1	6
386.864	1	2
387.205	1	-1
387.547	1	0
387.889	1	11
388.230	1	1
388.572	1	3
388.914	1	-4
389.255	1	9
389.597	1	1
389.939	1	-4
390.280	1	4
390.622	1	-5
390.963	1	0
391.305	1	-6
391.647	1	1
391.988	1	1
392.330	1	2
392.671	1	2
393.013	1	0
393.355	1	1
393.696	1	7
394.038	1	-4
394.379	1	-2
394.721	1	2
395.062	1	7
395.404	1	2
395.746	1	8
396.087	1	7
396.429	1	5
396.770	1	10
397.112	1	-4
397.453	1	3
397.795	1	-1
398.136	1	7
398.478	1	-1
398.819	1	-3
399.161	1	-9
399.503	1	4
399.844	1	-8
400.186	1	0
400.527	1	16
400.869	1	-1
401.210	1	1
401.552	1	1
401.893	1	12
402.235	1	3
402.576	1	-5
402.918	1	-3
403.259	1	5
403.601	1	19
403.942	1	17
404.284	1	0
404.625	1	-3
404.967	1	12
405.308	1	5
405.649	1	-2
405.991	1	-6
406.332	1	-12
406.674	1	6
407.015	1	12
407.357	1	-6
407.698	1	1
408.040	1	1
408.381	1	0
408.722	1	-12
409.064	1	2
409.405	1	6
409.747	1	2
410.088	1	4
410.430	1	0
410.771	1	0
411.112	1	5
411.454	1	-2
411.795	1	9
412.137	1	-6
412.478	1	-7
412.819	1	-15
413.161	1	-2
413.502	1	-3
413.844	1	9
414.185	1	-10
414.526	1	11
414.868	1	-3
415.209	1	-7
415.550	1	-1
415.892	1	6
416.233	1	1
416.575	1	6
416.916	1	2
417.257	1	7
417.599	1	-7
417.940	1	1
418.281	1	-16
418.623	1	0
418.964	1	1
419.305	1	-2
419.647	1	8
419.988	1	13
420.329	1	5
420.671	1	-5
421.012	1	2
421.353	1	1
421.695	1	-2
422.036	1	0
422.377	1	2
422.718	1	7
423.060	1	0
423.401	1	8
423.742	1	3
424.084	1	11
424.425	1	-4
424.766	1	-1
425.107	1	5
425.449	1	7
425.790	1	5
426.131	1	8
426.472	1	0
426.814	1	-8
427.155	1	17
427.496	1	-2
427.837	1	0
428.179	1	6
428.520	1	2
428.861	1	3
429.202	1	-3
429.544	1	-4
429.885	1	1
430.226	1	2
430.567	1	5
430.909	1	-2
431.250	1	12
431.591	1	-5
431.932	1	-2
432.273	1	-4
432.615	1	-2
432.956	1	-5
433.297	1	-7
433.638	1	16
433.979	1	-2
434.320	1	8
434.662	1	-15
435.003	1	7
435.344	1	0
435.685	1	0
436.026	1	-2
436.368	1	0
436.709	1	-3
437.050	1	-8
437.391	1	-7
437.732	1	2
438.073	1	-5
438.414	1	-3
438.756	1	2
439.097	1	5
439.438	1	12
439.779	1	5
440.120	1	2
440.461	1	13
440.802	1	14
441.143	1	-3
441.485	1	-11
441.826	1	5
442.167	1	0
442.508	1	0
442.849	1	2
443.190	1	6
443.531	1	4
443.872	1	2
444.213	1	-4
444.554	1	6
444.895	1	-12
445.237	1	-4
445.578	1	0
445.919	1	5
446.260	1	4
446.601	1	-7
446.942	1	7
447.283	1	7
447.624	1	-7
447.965	1	-2
448.306	1	2
448.647	1	-6
448.988	1	13
449.329	1	2
449.670	1	-11
450.011	1	6
450.352	1	-6
450.693	1	0
451.034	1	1
451.375	1	10
451.716	1	8
452.057	1	2
452.398	1	-5
452.739	1	8
453.080	1	2
453.421	1	-1
453.762	1	-3
454.103	1	-2
454.444	1	-12
454.785	1	-5
455.126	1	8
455.467	1	-4
455.808	1	9
456.149	1	5
456.490	1	1
456.831	1	-6
457.172	1	-3
457.513	1	2
457.854	1	7
458.195	1	-2
458.536	1	0
458.877	1	5
459.218	1	1
459.559	1	-3
459.899	1	0
460.240	1	-1
460.581	1	4
460.922	1	-3
461.263	1	-1
461.604	1	6
461.945	1	4
462.286	1	-5
462.627	1	0
462.968	1	17
463.309	1	-1
463.649	1	4
463.990	1	2
464.331	1	-3
464.672	1	-11
465.013	1	7
465.354	1	-4
465.695	1	8
466.036	1	-4
466.376	1	4
466.717	1	-1
467.058	1	7
467.399	1	10
467.740	1	-6
468.081	1	4
468.422	1	8
468.762	1	4
469.103	1	11
469.444	1	-11
469.785	1	-10
470.126	1	-1
470.467	1	3
470.807	1	-8
471.148	1	-8
471.489	1	4
471.830	1	-4
472.171	1	1
472.511	1	4
472.852	1	-3
473.193	1	8
473.534	1	2
473.875	1	-6
474.215	1	0
474.556	1	-3
474.897	1	-2
475.238	1	-3
475.578	1	7
475.919	1	10
476.260	1	9
476.601	1	0
476.942	1	-5
477.282	1	7
477.623	1	9
477.964	1	1
478.305	1	-2
478.645	1	-3
478.986	1	7
479.327	1	-11
479.667	1	-2
480.008	1	10
480.349	1	-1
480.690	1	0
481.030	1	-5
481.371	1	4
481.712	1	1
482.053	1	-9
482.393	1	0
482.734	1	1
483.075	1	-2
483.415	1	6
483.756	1	-8
484.097	1	-10
484.437	1	-3
484.778	1	-10
485.119	1	1
485.459	1	3
485.800	1	-6
486.141	1	2
486.481	1	4
486.822	1	3
487.163	1	2
487.503	1	7
487.844	1	9
488.185	1	4
488.525	1	9
488.866	1	12
489.207	1	9
489.547	1	17
489.888	1	5
490.228	1	5
490.569	1	-4
490.910	1	-5
491.250	1	1
491.591	1	5
491.932	1	14
492.272	1	1
492.613	1	-4
492.953	1	0
493.294	1	1
493.635	1	1
493.975	1	2
494.316	1	-3
494.656	1	2
494.997	1	3
495.337	1	7
495.678	1	3
496.019	1	-4
496.359	1	14
496.700	1	11
497.040	1	0
497.381	1	3
497.721	1	-9
498.062	1	-2
498.403	1	2
498.743	1	-1
499.084	1	5
499.424	1	3
499.765	1	-10
500.105	1	-9
500.446	1	-3
500.786	1	-7
501.127	1	3
501.467	1	-7
501.808	1	-2
502.148	1	9
502.489	1	-1
502.829	1	4
503.170	1	8
503.510	1	3
503.851	1	-1
504.191	1	-4
504.532	1	-14
504.872	1	3
505.213	1	-5
505.553	1	2
505.894	1	4
506.234	1	0
506.575	1	7
506.915	1	4
507.256	1	6
507.596	1	3
507.936	1	15
508.277	1	-11
508.617	1	5
508.958	1	1
509.298	1	-6
509.639	1	-1
509.979	1	-2
510.319	1	-3
510.660	1	-8
511.000	1	9
511.341	1	7
511.681	1	-4
512.022	1	4
512.362	1	-8
512.702	1	1
513.043	1	3
513.383	1	6
513.724	1	-3
514.064	1	4
514.404	1	-7
514.745	1	4
515.085	1	-1
515.425	1	12
515.766	1	-7
516.106	1	2
516.447	1	0
516.787	1	-4
517.127	1	7
517.468	1	1
517.808	1	3
518.148	1	2
518.489	1	12
518.829	1	3
519.169	1	2
519.510	1	6
519.850	1	2
520.190	1	-5
520.531	1	5
520.871	1	6
521.211	1	1
521.552	1	5
521.892	1	4
522.232	1	1
522.573	1	6
522.913	1	10
523.253	1	12
523.593	1	3
523.934	1	3
524.274	1	0
524.614	1	1
524.955	1	-1
525.295	1	2
525.635	1	16
525.975	1	2
526.316	1	7
526.656	1	6
526.996	1	10
527.337	1	-1
527.677	1	6
528.017	1	7
528.357	1	-4
528.698	1	-8
529.038	1	4
529.378	1	7
529.718	1	14
530.058	1	7
530.399	1	7
530.739	1	9
531.079	1	4
531.419	1	10
531.760	1	-1
532.100	1	2
532.440	1	8
532.780	1	-11
533.120	1	3
533.461	1	-1
533.801	1	8
534.141	1	-2
534.481	1	3
534.821	1	6
535.162	1	9
535.502	1	0
535.842	1	3
536.182	1	6
536.522	1	10
536.862	1	0
537.203	1	5
537.543	1	-10
537.883	1	16
538.223	1	5
538.563	1	6
538.903	1	-1
539.243	1	-1
539.584	1	2
539.924	1	-3
540.264	1	11
540.604	1	3
540.944	1	-2
541.284	1	6
541.624	1	-3
541.964	1	1
542.305	1	4
542.645	1	-8
542.985	1	2
543.325	1	0
543.665	1	5
544.005	1	5
544.345	1	-2
544.685	1	1
545.025	1	-5
545.365	1	2
545.705	1	5
546.045	1	1
546.386	1	7
546.726	1	3
547.066	1	9
547.406	1	-1
547.746	1	-10
548.086	1	3
548.426	1	5
548.766	1	-2
549.106	1	13
549.446	1	5
549.786	1	7
550.126	1	2
550.466	1	1
550.806	1	-3
551.146	1	9
551.486	1	2
551.826	1	3
552.166	1	1
552.506	1	3
552.846	1	8
553.186	1	-1
553.526	1	-12
553.866	1	-1
554.206	1	7
554.546	1	-5
554.886	1	-6
555.226	1	1
555.566	1	0
555.906	1	-4
556.246	1	5
556.586	1	-1
556.926	1	10
557.266	1	5
557.606	1	7
557.946	1	-1
558.286	1	0
558.626	1	13
558.966	1	4
559.306	1	7
559.646	1	0
559.986	1	5
560.325	1	-3
560.665	1	9
561.005	1	-1
561.345	1	-2
561.685	1	0
562.025	1	-1
562.365	1	-4
562.705	1	6
563.045	1	1
563.385	1	6
563.725	1	-10
564.064	1	6
564.404	1	1
564.744	1	1
565.084	1	6
565.424	1	5
565.764	1	-2
566.104	1	3
566.444	1	9
566.783	1	-2
567.123	1	2
567.463	1	0
567.803	1	0
568.143	1	1
568.483	1	5
568.823	1	-3
569.162	1	8
569.502	1	-3
569.842	1	-6
570.182	1	-1
570.522	1	0
570.862	1	2
571.201	1	1
571.541	1	-1
571.881	1	-7
572.221	1	9
572.561	1	-2
572.900	1	-7
573.240	1	1
573.580	1	-5
573.920	1	12
574.260	1	12
574.599	1	-2
574.939	1	-9
575.279	1	-5
575.619	1	10
575.959	1	0
576.298	1	6
576.638	1	1
576.978	1	4
577.318	1	1
577.657	1	9
577.997	1	-2
578.337	1	7
578.677	1	2
579.016	1	-6
579.356	1	1
579.696	1	-1
580.036	1	10
580.375	1	0
580.715	1	10
581.055	1	5
581.394	1	8
581.734	1	10
582.074	1	7
582.414	1	-2
582.753	1	6
583.093	1	11
583.433	1	8
583.772	1	-4
584.112	1	-4
584.452	1	-2
584.791	1	-8
585.131	1	1
585.471	1	14
585.811	1	-5
586.150	1	-7
586.490	1	3
586.830	1	2
587.169	1	13
587.509	1	13
587.849	1	-8
588.188	1	-1
588.528	1	1
588.867	1	4
589.207	1	-9
589.547	1	11
589.886	1	-4
590.226	1	8
590.566	1	7
590.905	1	10
591.245	1	4
591.585	1	4
591.924	1	1
592.264	1	-11
592.603	1	5
592.943	1	7
593.283	1	2
593.622	1	-10
593.962	1	0
594.301	1	7
594.641	1	3
594.981	1	5
595.320	1	2
595.660	1	-3
595.999	1	4
596.339	1	4
596.678	1	0
597.018	1	-6
597.358	1	-8
597.697	1	0
598.037	1	9
598.376	1	-7
598.716	1	4
599.055	1	4
599.395	1	-4
599.734	1	10
600.074	1	-2
600.413	1	-8
600.753	1	0
601.092	1	-1
601.432	1	-5
601.771	1	1
602.111	1	0
602.451	1	11
602.790	1	3
603.130	1	-6
603.469	1	2
603.809	1	8
604.148	1	2
604.487	1	11
604.827	1	0
605.166	1	7
605.506	1	-2
605.845	1	7
606.185	1	1
606.524	1	-11
606.864	1	-2
607.203	1	5
607.543	1	6
607.882	1	-3
608.222	1	2
608.561	1	6
608.901	1	9
609.240	1	-6
609.579	1	2
609.919	1	0
610.258	1	1
610.598	1	2
610.937	1	3
611.277	1	-1
611.616	1	1
611.955	1	8
612.295	1	0
612.634	1	-8
612.974	1	-3
613.313	1	-5
613.652	1	14
613.992	1	1
614.331	1	5
614.671	1	12
615.010	1	6
615.349	1	5
615.689	1	11
616.028	1	6
616.368	1	5
616.707	1	12
617.046	1	-1
617.386	1	-5
617.725	1	0
618.064	1	-4
618.404	1	-6
618.743	1	8
619.082	1	3
619.422	1	-5
619.761	1	-3
620.100	1	6
620.440	1	8
620.779	1	10
621.118	1	-10
621.458	1	1
621.797	1	4
622.136	1	5
622.476	1	-3
622.815	1	0
623.154	1	2
623.494	1	1
623.833	1	-2
624.172	1	-1
624.511	1	5
624.851	1	-4
625.190	1	8
625.529	1	5
625.869	1	8
626.208	1	-4
626.547	1	-5
626.886	1	1
627.226	1	-3
627.565	1	5
627.904	1	3
628.243	1	-2
628.583	1	-10
628.922	1	-6
629.261	1	8
629.600	1	-5
629.940	1	-2
630.279	1	2
630.618	1	4
630.957	1	4
631.297	1	1
631.636	1	7
631.975	1	-3
632.314	1	6
632.653	1	1
632.993	1	-5
633.332	1	-3
633.671	1	17
634.010	1	1
634.349	1	-5
634.689	1	6
635.028	1	9
635.367	1	-6
635.706	1	-3
636.045	1	11
636.384	1	-2
636.724	1	10
637.063	1	3
637.402	1	9
637.741	1	-4
638.080	1	8
638.419	1	-5
638.759	1	1
639.098	1	-2
639.437	1	-5
639.776	1	11
640.115	1	5
640.454	1	-5
640.793	1	-6
641.132	1	2
641.472	1	-6
641.811	1	6
642.150	1	-4
642.489	1	-5
642.828	1	-7
643.167	1	7
643.506	1	6
643.845	1	-4
644.184	1	6
644.524	1	-1
644.863	1	-6
645.202	1	5
645.541	1	1
645.880	1	4
646.219	1	0
646.558	1	0
646.897	1	6
647.236	1	-5
647.575	1	-9
647.914	1	-7
648.253	1	0
648.592	1	2
648.931	1	3
649.270	1	-1
649.610	1	5
649.949	1	-1
650.288	1	-6
650.627	1	-3
650.966	1	4
651.305	1	3
651.644	1	4
651.983	1	2
652.322	1	2
652.661	1	2
653.000	1	-7
653.339	1	-5
653.678	1	1
654.017	1	2
654.356	1	-4
654.695	1	6
655.034	1	-9
655.373	1	3
655.712	1	-14
656.051	1	5
656.390	1	1
656.729	1	-2
657.068	1	3
657.406	1	-1
657.745	1	12
658.084	1	-2
658.423	1	-5
658.762	1	-4
659.101	1	-2
659.440	1	0
659.779	1	3
660.118	1	4
660.457	1	6
660.796	1	-12
661.135	1	-15
661.474	1	7
661.813	1	-2
662.152	1	0
662.491	1	-7
662.829	1	-1
663.168	1	8
663.507	1	3
663.846	1	1
664.185	1	6
664.524	1	-3
664.863	1	-6
665.202	1	5
665.541	1	0
665.879	1	2
666.218	1	6
666.557	1	-9
666.896	1	1
667.235	1	-2
667.574	1	-12
667.913	1	-5
668.251	1	1
668.590	1	-5
668.929	1	1
669.268	1	-8
669.607	1	-3
669.946	1	-4
670.285	1	12
670.623	1	-7
670.962	1	1
671.301	1	-4
671.640	1	9
671.979	1	-1
672.317	1	2
672.656	1	7
672.995	1	-5
673.334	1	3
673.673	1	3
674.011	1	3
674.350	1	0
674.689	1	4
675.028	1	3
675.367	1	-2
675.705	1	7
676.044	1	13
676.383	1	9
676.722	1	22
677.060	1	-3
677.399	1	-3
677.738	1	3
678.077	1	14
678.416	1	-4
678.754	1	0
679.093	1	5
679.432	1	6
679.771	1	3
680.109	1	-4
680.448	1	8
680.787	1	1
681.125	1	1
681.464	1	4
681.803	1	13
682.142	1	-5
682.480	1	0
682.819	1	10
683.158	1	2
683.496	1	3
683.835	1	-5
684.174	1	-1
684.512	1	2
684.851	1	0
685.190	1	-3
685.529	1	18
685.867	1	5
686.206	1	15
686.545	1	6
686.883	1	5
687.222	1	4
687.561	1	5
687.899	1	-6
688.238	1	-5
688.577	1	6
688.746	1	-8