File: Data/GaN_170K_550ms/GaN_sample D_spot 18_UVVIS_170 K_200um_550 ms 2x2mm1_79.txt
340.368	1	-4
340.710	1	-3
341.052	1	6
341.394	1	8
341.737	1	5
342.079	1	4
342.421	1	12
342.763	1	0
343.105	1	17
343.447	1	3
343.789	1	4
344.131	1	6
344.473	1	9
344.815	1	13
345.157	1	-1
345.499	1	5
345.841	1	5
346.183	1	7
346.526	1	10
346.868	1	7
347.210	1	-7
347.552	1	10
347.894	1	13
348.236	1	-4
348.578	1	6
348.920	1	9
349.262	1	10
349.604	1	18
349.946	1	17
350.288	1	8
350.630	1	20
350.972	1	7
351.314	1	12
351.656	1	8
351.998	1	8
352.340	1	9
352.682	1	5
353.024	1	12
353.366	1	5
353.708	1	4
354.050	1	4
354.392	1	12
354.734	1	14
355.076	1	2
355.418	1	7
355.760	1	16
356.102	1	18
356.444	1	0
356.785	1	13
357.127	1	14
357.469	1	15
357.811	1	24
358.153	1	15
358.495	1	23
358.837	1	24
359.179	1	22
359.521	1	37
359.863	1	40
360.205	1	43
360.547	1	49
360.889	1	50
361.231	1	46
361.572	1	52
361.914	1	52
362.256	1	53
362.598	1	70
362.940	1	74
363.282	1	80
363.624	1	78
363.966	1	87
364.308	1	93
364.649	1	103
364.991	1	109
365.333	1	118
365.675	1	134
366.017	1	145
366.359	1	151
366.701	1	162
367.042	1	161
367.384	1	186
367.726	1	198
368.068	1	194
368.410	1	207
368.752	1	193
369.093	1	199
369.435	1	194
369.777	1	188
370.119	1	175
370.461	1	177
370.803	1	165
371.144	1	164
371.486	1	146
371.828	1	145
372.170	1	151
372.512	1	127
372.853	1	127
373.195	1	111
373.537	1	115
373.879	1	103
374.220	1	109
374.562	1	101
374.904	1	96
375.246	1	84
375.588	1	84
375.929	1	81
376.271	1	86
376.613	1	71
376.955	1	72
377.296	1	73
377.638	1	67
377.980	1	45
378.321	1	63
378.663	1	60
379.005	1	48
379.347	1	59
379.688	1	43
380.030	1	41
380.372	1	53
380.714	1	55
381.055	1	45
381.397	1	47
381.739	1	32
382.080	1	38
382.422	1	29
382.764	1	35
383.105	1	32
383.447	1	33
383.789	1	39
384.130	1	31
384.472	1	20
384.814	1	39
385.156	1	32
385.497	1	35
385.839	1	20
386.180	1	25
386.522	1	34
386.864	1	20
387.205	1	13
387.547	1	30
387.889	1	29
388.230	1	9
388.572	1	19
388.914	1	19
389.255	1	18
389.597	1	15
389.939	1	-2
390.280	1	4
390.622	1	14
390.963	1	8
391.305	1	12
391.647	1	6
391.988	1	24
392.330	1	18
392.671	1	6
393.013	1	12
393.355	1	16
393.696	1	4
394.038	1	0
394.379	1	4
394.721	1	6
395.062	1	8
395.404	1	17
395.746	1	23
396.087	1	24
396.429	1	18
396.770	1	10
397.112	1	14
397.453	1	15
397.795	1	11
398.136	1	11
398.478	1	-2
398.819	1	6
399.161	1	-2
399.503	1	9
399.844	1	2
400.186	1	9
400.527	1	18
400.869	1	9
401.210	1	10
401.552	1	-4
401.893	1	15
402.235	1	14
402.576	1	7
402.918	1	2
403.259	1	11
403.601	1	16
403.942	1	14
404.284	1	-8
404.625	1	9
404.967	1	5
405.308	1	7
405.649	1	11
405.991	1	6
406.332	1	1
406.674	1	14
407.015	1	12
407.357	1	6
407.698	1	10
408.040	1	5
408.381	1	10
408.722	1	-1
409.064	1	7
409.405	1	-2
409.747	1	5
410.088	1	12
410.430	1	11
410.771	1	14
411.112	1	4
411.454	1	7
411.795	1	14
412.137	1	-7
412.478	1	14
412.819	1	-6
413.161	1	5
413.502	1	3
413.844	1	10
414.185	1	-1
414.526	1	7
414.868	1	1
415.209	1	-7
415.550	1	6
415.892	1	11
416.233	1	9
416.575	1	9
416.916	1	-12
417.257	1	3
417.599	1	8
417.940	1	1
418.281	1	-3
418.623	1	-3
418.964	1	-4
419.305	1	8
419.647	1	15
419.988	1	11
420.329	1	1
420.671	1	-4
421.012	1	6
421.353	1	10
421.695	1	2
422.036	1	18
422.377	1	14
422.718	1	11
423.060	1	-3
423.401	1	4
423.742	1	7
424.084	1	19
424.425	1	-7
424.766	1	5
425.107	1	9
425.449	1	8
425.790	1	10
426.131	1	6
426.472	1	5
426.814	1	-6
427.155	1	12
427.496	1	2
427.837	1	14
428.179	1	1
428.520	1	-3
428.861	1	13
429.202	1	1
429.544	1	1
429.885	1	-3
430.226	1	3
430.567	1	6
430.909	1	4
431.250	1	12
431.591	1	7
431.932	1	0
432.273	1	-1
432.615	1	10
432.956	1	5
433.297	1	0
433.638	1	17
433.979	1	1
434.320	1	11
434.662	1	-8
435.003	1	2
435.344	1	3
435.685	1	4
436.026	1	2
436.368	1	13
436.709	1	3
437.050	1	-3
437.391	1	7
437.732	1	11
438.073	1	12
438.414	1	-1
438.756	1	4
439.097	1	3
439.438	1	13
439.779	1	10
440.120	1	-5
440.461	1	11
440.802	1	16
441.143	1	1
441.485	1	2
441.826	1	8
442.167	1	13
442.508	1	0
442.849	1	-4
443.190	1	0
443.531	1	8
443.872	1	-3
444.213	1	4
444.554	1	6
444.895	1	-5
445.237	1	2
445.578	1	14
445.919	1	6
446.260	1	5
446.601	1	-9
446.942	1	9
447.283	1	10
447.624	1	0
447.965	1	8
448.306	1	-1
448.647	1	1
448.988	1	8
449.329	1	-2
449.670	1	-19
450.011	1	12
450.352	1	-5
450.693	1	1
451.034	1	7
451.375	1	3
451.716	1	8
452.057	1	1
452.398	1	8
452.739	1	-1
453.080	1	-2
453.421	1	7
453.762	1	6
454.103	1	1
454.444	1	-7
454.785	1	4
455.126	1	11
455.467	1	-1
455.808	1	14
456.149	1	3
456.490	1	12
456.831	1	-5
457.172	1	0
457.513	1	6
457.854	1	18
458.195	1	-6
458.536	1	-2
458.877	1	7
459.218	1	-1
459.559	1	6
459.899	1	4
460.240	1	-1
460.581	1	7
460.922	1	3
461.263	1	-2
461.604	1	15
461.945	1	-1
462.286	1	-4
462.627	1	7
462.968	1	5
463.309	1	8
463.649	1	11
463.990	1	6
464.331	1	5
464.672	1	3
465.013	1	6
465.354	1	-3
465.695	1	11
466.036	1	3
466.376	1	6
466.717	1	6
467.058	1	6
467.399	1	9
467.740	1	-3
468.081	1	2
468.422	1	7
468.762	1	8
469.103	1	7
469.444	1	8
469.785	1	-6
470.126	1	4
470.467	1	9
470.807	1	0
471.148	1	1
471.489	1	9
471.830	1	1
472.171	1	14
472.511	1	7
472.852	1	5
473.193	1	5
473.534	1	7
473.875	1	-7
474.215	1	0
474.556	1	4
474.897	1	3
475.238	1	6
475.578	1	1
475.919	1	11
476.260	1	14
476.601	1	10
476.942	1	-9
477.282	1	8
477.623	1	16
477.964	1	10
478.305	1	1
478.645	1	7
478.986	1	0
479.327	1	-4
479.667	1	2
480.008	1	10
480.349	1	6
480.690	1	10
481.030	1	8
481.371	1	7
481.712	1	9
482.053	1	3
482.393	1	3
482.734	1	18
483.075	1	4
483.415	1	5
483.756	1	15
484.097	1	1
484.437	1	11
484.778	1	5
485.119	1	0
485.459	1	7
485.800	1	3
486.141	1	18
486.481	1	9
486.822	1	7
487.163	1	8
487.503	1	12
487.844	1	10
488.185	1	2
488.525	1	17
488.866	1	19
489.207	1	19
489.547	1	15
489.888	1	14
490.228	1	14
490.569	1	11
490.910	1	13
491.250	1	9
491.591	1	16
491.932	1	18
492.272	1	13
492.613	1	15
492.953	1	14
493.294	1	9
493.635	1	3
493.975	1	14
494.316	1	18
494.656	1	10
494.997	1	18
495.337	1	19
495.678	1	14
496.019	1	-3
496.359	1	14
496.700	1	14
497.040	1	11
497.381	1	13
497.721	1	6
498.062	1	12
498.403	1	20
498.743	1	21
499.084	1	15
499.424	1	18
499.765	1	5
500.105	1	9
500.446	1	12
500.786	1	8
501.127	1	17
501.467	1	10
501.808	1	20
502.148	1	18
502.489	1	15
502.829	1	29
503.170	1	33
503.510	1	11
503.851	1	9
504.191	1	15
504.532	1	14
504.872	1	19
505.213	1	16
505.553	1	12
505.894	1	27
506.234	1	18
506.575	1	17
506.915	1	25
507.256	1	8
507.596	1	26
507.936	1	23
508.277	1	16
508.617	1	25
508.958	1	19
509.298	1	21
509.639	1	28
509.979	1	18
510.319	1	12
510.660	1	19
511.000	1	33
511.341	1	24
511.681	1	12
512.022	1	31
512.362	1	13
512.702	1	21
513.043	1	31
513.383	1	20
513.724	1	24
514.064	1	30
514.404	1	9
514.745	1	28
515.085	1	30
515.425	1	22
515.766	1	24
516.106	1	31
516.447	1	17
516.787	1	27
517.127	1	38
517.468	1	26
517.808	1	34
518.148	1	28
518.489	1	34
518.829	1	34
519.169	1	15
519.510	1	35
519.850	1	26
520.190	1	24
520.531	1	28
520.871	1	38
521.211	1	19
521.552	1	40
521.892	1	18
522.232	1	15
522.573	1	28
522.913	1	40
523.253	1	36
523.593	1	32
523.934	1	34
524.274	1	29
524.614	1	33
524.955	1	11
525.295	1	33
525.635	1	35
525.975	1	30
526.316	1	34
526.656	1	35
526.996	1	31
527.337	1	32
527.677	1	30
528.017	1	18
528.357	1	26
528.698	1	22
529.038	1	30
529.378	1	35
529.718	1	48
530.058	1	36
530.399	1	30
530.739	1	28
531.079	1	37
531.419	1	34
531.760	1	30
532.100	1	40
532.440	1	30
532.780	1	17
533.120	1	38
533.461	1	27
533.801	1	25
534.141	1	22
534.481	1	41
534.821	1	42
535.162	1	36
535.502	1	35
535.842	1	40
536.182	1	27
536.522	1	39
536.862	1	19
537.203	1	33
537.543	1	30
537.883	1	40
538.223	1	35
538.563	1	22
538.903	1	32
539.243	1	30
539.584	1	17
539.924	1	17
540.264	1	37
540.604	1	17
540.944	1	26
541.284	1	33
541.624	1	14
541.964	1	29
542.305	1	34
542.645	1	20
542.985	1	26
543.325	1	26
543.665	1	25
544.005	1	32
544.345	1	27
544.685	1	36
545.025	1	21
545.365	1	24
545.705	1	30
546.045	1	25
546.386	1	20
546.726	1	28
547.066	1	31
547.406	1	32
547.746	1	20
548.086	1	21
548.426	1	40
548.766	1	20
549.106	1	21
549.446	1	13
549.786	1	25
550.126	1	28
550.466	1	16
550.806	1	27
551.146	1	32
551.486	1	26
551.826	1	30
552.166	1	25
552.506	1	18
552.846	1	26
553.186	1	25
553.526	1	15
553.866	1	20
554.206	1	22
554.546	1	9
554.886	1	14
555.226	1	7
555.566	1	36
555.906	1	11
556.246	1	25
556.586	1	16
556.926	1	18
557.266	1	27
557.606	1	24
557.946	1	22
558.286	1	22
558.626	1	21
558.966	1	14
559.306	1	28
559.646	1	24
559.986	1	31
560.325	1	10
560.665	1	15
561.005	1	18
561.345	1	16
561.685	1	15
562.025	1	12
562.365	1	19
562.705	1	17
563.045	1	11
563.385	1	14
563.725	1	24
564.064	1	23
564.404	1	10
564.744	1	13
565.084	1	15
565.424	1	13
565.764	1	18
566.104	1	19
566.444	1	13
566.783	1	8
567.123	1	8
567.463	1	12
567.803	1	20
568.143	1	9
568.483	1	14
568.823	1	13
569.162	1	27
569.502	1	13
569.842	1	7
570.182	1	13
570.522	1	19
570.862	1	18
571.201	1	16
571.541	1	9
571.881	1	14
572.221	1	15
572.561	1	15
572.900	1	11
573.240	1	16
573.580	1	12
573.920	1	21
574.260	1	12
574.599	1	16
574.939	1	15
575.279	1	16
575.619	1	26
575.959	1	6
576.298	1	20
576.638	1	12
576.978	1	16
577.318	1	12
577.657	1	14
577.997	1	-1
578.337	1	15
578.677	1	15
579.016	1	10
579.356	1	13
579.696	1	11
580.036	1	17
580.375	1	18
580.715	1	18
581.055	1	16
581.394	1	20
581.734	1	21
582.074	1	26
582.414	1	6
582.753	1	7
583.093	1	22
583.433	1	20
583.772	1	18
584.112	1	11
584.452	1	-3
584.791	1	7
585.131	1	16
585.471	1	16
585.811	1	5
586.150	1	3
586.490	1	13
586.830	1	2
587.169	1	22
587.509	1	16
587.849	1	5
588.188	1	10
588.528	1	8
588.867	1	7
589.207	1	8
589.547	1	15
589.886	1	8
590.226	1	12
590.566	1	17
590.905	1	11
591.245	1	2
591.585	1	6
591.924	1	4
592.264	1	6
592.603	1	11
592.943	1	0
593.283	1	12
593.622	1	-5
593.962	1	8
594.301	1	15
594.641	1	13
594.981	1	19
595.320	1	9
595.660	1	11
595.999	1	4
596.339	1	8
596.678	1	6
597.018	1	1
597.358	1	0
597.697	1	4
598.037	1	11
598.376	1	6
598.716	1	5
599.055	1	1
599.395	1	7
599.734	1	14
600.074	1	4
600.413	1	-6
600.753	1	11
601.092	1	5
601.432	1	0
601.771	1	16
602.111	1	13
602.451	1	7
602.790	1	22
603.130	1	2
603.469	1	9
603.809	1	9
604.148	1	17
604.487	1	7
604.827	1	-3
605.166	1	10
605.506	1	2
605.845	1	5
606.185	1	10
606.524	1	10
606.864	1	17
607.203	1	12
607.543	1	16
607.882	1	-3
608.222	1	8
608.561	1	14
608.901	1	9
609.240	1	7
609.579	1	9
609.919	1	3
610.258	1	12
610.598	1	21
610.937	1	3
611.277	1	5
611.616	1	-1
611.955	1	8
612.295	1	3
612.634	1	-2
612.974	1	2
613.313	1	4
613.652	1	22
613.992	1	7
614.331	1	2
614.671	1	14
615.010	1	15
615.349	1	18
615.689	1	11
616.028	1	3
616.368	1	10
616.707	1	13
617.046	1	-3
617.386	1	-2
617.725	1	8
618.064	1	8
618.404	1	0
618.743	1	1
619.082	1	8
619.422	1	-7
619.761	1	5
620.100	1	2
620.440	1	8
620.779	1	7
621.118	1	1
621.458	1	5
621.797	1	8
622.136	1	0
622.476	1	4
622.815	1	4
623.154	1	11
623.494	1	3
623.833	1	9
624.172	1	10
624.511	1	21
624.851	1	-5
625.190	1	12
625.529	1	12
625.869	1	8
626.208	1	9
626.547	1	-1
626.886	1	0
627.226	1	7
627.565	1	6
627.904	1	10
628.243	1	1
628.583	1	0
628.922	1	-6
629.261	1	-2
629.600	1	9
629.940	1	-2
630.279	1	3
630.618	1	5
630.957	1	6
631.297	1	3
631.636	1	15
631.975	1	2
632.314	1	6
632.653	1	15
632.993	1	11
633.332	1	4
633.671	1	7
634.010	1	-3
634.349	1	-10
634.689	1	10
635.028	1	6
635.367	1	-7
635.706	1	6
636.045	1	12
636.384	1	-4
636.724	1	15
637.063	1	16
637.402	1	20
637.741	1	3
638.080	1	14
638.419	1	2
638.759	1	8
639.098	1	8
639.437	1	1
639.776	1	5
640.115	1	5
640.454	1	-2
640.793	1	5
641.132	1	8
641.472	1	-5
641.811	1	15
642.150	1	4
642.489	1	-2
642.828	1	4
643.167	1	-1
643.506	1	6
643.845	1	16
644.184	1	16
644.524	1	0
644.863	1	-3
645.202	1	11
645.541	1	9
645.880	1	11
646.219	1	1
646.558	1	14
646.897	1	9
647.236	1	7
647.575	1	3
647.914	1	3
648.253	1	15
648.592	1	4
648.931	1	9
649.270	1	4
649.610	1	16
649.949	1	2
650.288	1	4
650.627	1	-1
650.966	1	4
651.305	1	0
651.644	1	8
651.983	1	5
652.322	1	7
652.661	1	0
653.000	1	1
653.339	1	-1
653.678	1	8
654.017	1	14
654.356	1	8
654.695	1	8
655.034	1	9
655.373	1	13
655.712	1	0
656.051	1	0
656.390	1	4
656.729	1	5
657.068	1	14
657.406	1	14
657.745	1	7
658.084	1	-5
658.423	1	6
658.762	1	2
659.101	1	-2
659.440	1	8
659.779	1	3
660.118	1	9
660.457	1	9
660.796	1	3
661.135	1	-7
661.474	1	14
661.813	1	6
662.152	1	8
662.491	1	-5
662.829	1	1
663.168	1	6
663.507	1	3
663.846	1	7
664.185	1	5
664.524	1	-1
664.863	1	-1
665.202	1	7
665.541	1	5
665.879	1	10
666.218	1	13
666.557	1	3
666.896	1	8
667.235	1	4
667.574	1	-8
667.913	1	0
668.251	1	3
668.590	1	-1
668.929	1	7
669.268	1	-1
669.607	1	8
669.946	1	6
670.285	1	11
670.623	1	3
670.962	1	3
671.301	1	-2
671.640	1	5
671.979	1	5
672.317	1	14
672.656	1	11
672.995	1	-7
673.334	1	11
673.673	1	10
674.011	1	5
674.350	1	5
674.689	1	2
675.028	1	11
675.367	1	-12
675.705	1	8
676.044	1	22
676.383	1	11
676.722	1	20
677.060	1	-7
677.399	1	1
677.738	1	2
678.077	1	20
678.416	1	-1
678.754	1	3
679.093	1	4
679.432	1	8
679.771	1	13
680.109	1	-4
680.448	1	5
680.787	1	3
681.125	1	-1
681.464	1	5
681.803	1	15
682.142	1	6
682.480	1	12
682.819	1	16
683.158	1	6
683.496	1	12
683.835	1	-4
684.174	1	6
684.512	1	0
684.851	1	3
685.190	1	0
685.529	1	14
685.867	1	13
686.206	1	12
686.545	1	5
686.883	1	5
687.222	1	10
687.561	1	11
687.899	1	4
688.238	1	0
688.577	1	14
688.746	1	2