File: Data/GaN_170K_550ms/GaN_sample D_spot 18_UVVIS_170 K_200um_550 ms 2x2mm1_280.txt
340.368	1	3
340.710	1	-13
341.052	1	7
341.394	1	0
341.737	1	-1
342.079	1	-2
342.421	1	-2
342.763	1	-2
343.105	1	9
343.447	1	-9
343.789	1	1
344.131	1	-2
344.473	1	-2
344.815	1	9
345.157	1	0
345.499	1	-4
345.841	1	9
346.183	1	7
346.526	1	-5
346.868	1	7
347.210	1	-1
347.552	1	7
347.894	1	-11
348.236	1	-9
348.578	1	3
348.920	1	-2
349.262	1	-4
349.604	1	8
349.946	1	1
350.288	1	-4
350.630	1	5
350.972	1	-4
351.314	1	-1
351.656	1	2
351.998	1	1
352.340	1	9
352.682	1	7
353.024	1	-2
353.366	1	0
353.708	1	-3
354.050	1	-2
354.392	1	4
354.734	1	8
355.076	1	9
355.418	1	-2
355.760	1	-1
356.102	1	9
356.444	1	1
356.785	1	0
357.127	1	3
357.469	1	3
357.811	1	2
358.153	1	5
358.495	1	9
358.837	1	4
359.179	1	-6
359.521	1	-1
359.863	1	1
360.205	1	7
360.547	1	7
360.889	1	9
361.231	1	-1
361.572	1	8
361.914	1	9
362.256	1	3
362.598	1	6
362.940	1	16
363.282	1	10
363.624	1	1
363.966	1	5
364.308	1	4
364.649	1	6
364.991	1	11
365.333	1	-2
365.675	1	9
366.017	1	2
366.359	1	2
366.701	1	5
367.042	1	1
367.384	1	21
367.726	1	6
368.068	1	13
368.410	1	17
368.752	1	12
369.093	1	3
369.435	1	10
369.777	1	12
370.119	1	2
370.461	1	13
370.803	1	-2
371.144	1	1
371.486	1	-4
371.828	1	6
372.170	1	8
372.512	1	2
372.853	1	14
373.195	1	8
373.537	1	19
373.879	1	15
374.220	1	12
374.562	1	-4
374.904	1	-1
375.246	1	2
375.588	1	5
375.929	1	-1
376.271	1	9
376.613	1	2
376.955	1	8
377.296	1	-4
377.638	1	6
377.980	1	-6
378.321	1	9
378.663	1	10
379.005	1	0
379.347	1	6
379.688	1	1
380.030	1	1
380.372	1	3
380.714	1	9
381.055	1	3
381.397	1	9
381.739	1	-1
382.080	1	3
382.422	1	1
382.764	1	9
383.105	1	4
383.447	1	16
383.789	1	19
384.130	1	3
384.472	1	-3
384.814	1	-2
385.156	1	-6
385.497	1	7
385.839	1	-6
386.180	1	4
386.522	1	5
386.864	1	5
387.205	1	-1
387.547	1	5
387.889	1	7
388.230	1	-3
388.572	1	6
388.914	1	3
389.255	1	5
389.597	1	1
389.939	1	-2
390.280	1	5
390.622	1	-2
390.963	1	5
391.305	1	-4
391.647	1	-8
391.988	1	7
392.330	1	-2
392.671	1	1
393.013	1	-5
393.355	1	6
393.696	1	11
394.038	1	-2
394.379	1	0
394.721	1	0
395.062	1	7
395.404	1	7
395.746	1	8
396.087	1	6
396.429	1	2
396.770	1	14
397.112	1	0
397.453	1	5
397.795	1	4
398.136	1	0
398.478	1	4
398.819	1	6
399.161	1	-7
399.503	1	0
399.844	1	-1
400.186	1	-6
400.527	1	15
400.869	1	9
401.210	1	2
401.552	1	4
401.893	1	4
402.235	1	4
402.576	1	1
402.918	1	0
403.259	1	0
403.601	1	12
403.942	1	6
404.284	1	-12
404.625	1	-1
404.967	1	1
405.308	1	3
405.649	1	-2
405.991	1	2
406.332	1	0
406.674	1	2
407.015	1	7
407.357	1	3
407.698	1	9
408.040	1	0
408.381	1	3
408.722	1	-16
409.064	1	-2
409.405	1	3
409.747	1	3
410.088	1	3
410.430	1	-3
410.771	1	6
411.112	1	-4
411.454	1	6
411.795	1	5
412.137	1	-6
412.478	1	3
412.819	1	-9
413.161	1	3
413.502	1	0
413.844	1	11
414.185	1	0
414.526	1	-1
414.868	1	-2
415.209	1	-17
415.550	1	-1
415.892	1	3
416.233	1	1
416.575	1	-1
416.916	1	-10
417.257	1	-3
417.599	1	-6
417.940	1	-2
418.281	1	-14
418.623	1	3
418.964	1	-10
419.305	1	1
419.647	1	-3
419.988	1	3
420.329	1	7
420.671	1	5
421.012	1	1
421.353	1	4
421.695	1	-4
422.036	1	9
422.377	1	4
422.718	1	8
423.060	1	-4
423.401	1	3
423.742	1	-6
424.084	1	17
424.425	1	-4
424.766	1	-3
425.107	1	-6
425.449	1	8
425.790	1	7
426.131	1	11
426.472	1	5
426.814	1	-18
427.155	1	12
427.496	1	-5
427.837	1	10
428.179	1	3
428.520	1	-1
428.861	1	-2
429.202	1	-7
429.544	1	-3
429.885	1	6
430.226	1	-2
430.567	1	5
430.909	1	5
431.250	1	19
431.591	1	8
431.932	1	5
432.273	1	0
432.615	1	8
432.956	1	0
433.297	1	3
433.638	1	5
433.979	1	3
434.320	1	2
434.662	1	-8
435.003	1	4
435.344	1	1
435.685	1	-4
436.026	1	4
436.368	1	8
436.709	1	-2
437.050	1	-10
437.391	1	-3
437.732	1	0
438.073	1	0
438.414	1	3
438.756	1	-5
439.097	1	2
439.438	1	-2
439.779	1	16
440.120	1	-6
440.461	1	15
440.802	1	11
441.143	1	-2
441.485	1	-10
441.826	1	9
442.167	1	8
442.508	1	-3
442.849	1	-6
443.190	1	-5
443.531	1	-5
443.872	1	-3
444.213	1	-1
444.554	1	-2
444.895	1	-17
445.237	1	-5
445.578	1	5
445.919	1	-1
446.260	1	9
446.601	1	1
446.942	1	-1
447.283	1	10
447.624	1	-7
447.965	1	-5
448.306	1	3
448.647	1	-1
448.988	1	2
449.329	1	2
449.670	1	-17
450.011	1	4
450.352	1	0
450.693	1	-1
451.034	1	-3
451.375	1	1
451.716	1	0
452.057	1	-9
452.398	1	5
452.739	1	0
453.080	1	5
453.421	1	5
453.762	1	-2
454.103	1	-4
454.444	1	-8
454.785	1	4
455.126	1	17
455.467	1	-13
455.808	1	7
456.149	1	2
456.490	1	1
456.831	1	-3
457.172	1	-1
457.513	1	7
457.854	1	15
458.195	1	6
458.536	1	-2
458.877	1	8
459.218	1	5
459.559	1	-4
459.899	1	1
460.240	1	2
460.581	1	0
460.922	1	-4
461.263	1	-2
461.604	1	3
461.945	1	7
462.286	1	-2
462.627	1	5
462.968	1	12
463.309	1	2
463.649	1	8
463.990	1	-1
464.331	1	5
464.672	1	-14
465.013	1	8
465.354	1	-1
465.695	1	7
466.036	1	2
466.376	1	5
466.717	1	-4
467.058	1	6
467.399	1	12
467.740	1	6
468.081	1	3
468.422	1	7
468.762	1	9
469.103	1	2
469.444	1	3
469.785	1	-3
470.126	1	4
470.467	1	0
470.807	1	-4
471.148	1	-7
471.489	1	0
471.830	1	-3
472.171	1	6
472.511	1	1
472.852	1	1
473.193	1	3
473.534	1	-10
473.875	1	10
474.215	1	2
474.556	1	11
474.897	1	2
475.238	1	0
475.578	1	6
475.919	1	9
476.260	1	2
476.601	1	12
476.942	1	-7
477.282	1	9
477.623	1	10
477.964	1	-1
478.305	1	-5
478.645	1	3
478.986	1	-6
479.327	1	-6
479.667	1	-4
480.008	1	5
480.349	1	-1
480.690	1	7
481.030	1	4
481.371	1	-1
481.712	1	4
482.053	1	-6
482.393	1	-5
482.734	1	14
483.075	1	1
483.415	1	7
483.756	1	7
484.097	1	-15
484.437	1	1
484.778	1	-8
485.119	1	7
485.459	1	-6
485.800	1	-6
486.141	1	12
486.481	1	2
486.822	1	6
487.163	1	4
487.503	1	2
487.844	1	9
488.185	1	7
488.525	1	8
488.866	1	8
489.207	1	4
489.547	1	0
489.888	1	10
490.228	1	-6
490.569	1	2
490.910	1	-1
491.250	1	5
491.591	1	5
491.932	1	-1
492.272	1	1
492.613	1	11
492.953	1	-2
493.294	1	-1
493.635	1	-10
493.975	1	0
494.316	1	-6
494.656	1	-1
494.997	1	4
495.337	1	6
495.678	1	0
496.019	1	-10
496.359	1	0
496.700	1	14
497.040	1	5
497.381	1	7
497.721	1	4
498.062	1	5
498.403	1	1
498.743	1	1
499.084	1	-1
499.424	1	7
499.765	1	-4
500.105	1	-7
500.446	1	-1
500.786	1	1
501.127	1	-1
501.467	1	-9
501.808	1	2
502.148	1	4
502.489	1	3
502.829	1	-5
503.170	1	10
503.510	1	6
503.851	1	-7
504.191	1	2
504.532	1	-13
504.872	1	0
505.213	1	-7
505.553	1	-2
505.894	1	2
506.234	1	-13
506.575	1	8
506.915	1	7
507.256	1	-4
507.596	1	8
507.936	1	18
508.277	1	-2
508.617	1	10
508.958	1	3
509.298	1	5
509.639	1	6
509.979	1	5
510.319	1	-8
510.660	1	-7
511.000	1	7
511.341	1	4
511.681	1	-4
512.022	1	3
512.362	1	-2
512.702	1	-5
513.043	1	9
513.383	1	17
513.724	1	-1
514.064	1	2
514.404	1	-1
514.745	1	-4
515.085	1	1
515.425	1	2
515.766	1	2
516.106	1	4
516.447	1	1
516.787	1	-2
517.127	1	0
517.468	1	2
517.808	1	17
518.148	1	-3
518.489	1	9
518.829	1	3
519.169	1	-5
519.510	1	11
519.850	1	4
520.190	1	0
520.531	1	7
520.871	1	-1
521.211	1	2
521.552	1	-2
521.892	1	1
522.232	1	-8
522.573	1	4
522.913	1	6
523.253	1	18
523.593	1	4
523.934	1	-1
524.274	1	7
524.614	1	7
524.955	1	4
525.295	1	1
525.635	1	5
525.975	1	-2
526.316	1	3
526.656	1	-1
526.996	1	2
527.337	1	4
527.677	1	-3
528.017	1	9
528.357	1	0
528.698	1	-13
529.038	1	-10
529.378	1	-2
529.718	1	7
530.058	1	7
530.399	1	6
530.739	1	3
531.079	1	10
531.419	1	3
531.760	1	0
532.100	1	2
532.440	1	2
532.780	1	-15
533.120	1	-2
533.461	1	4
533.801	1	-3
534.141	1	-3
534.481	1	14
534.821	1	8
535.162	1	-1
535.502	1	-6
535.842	1	-2
536.182	1	6
536.522	1	3
536.862	1	9
537.203	1	0
537.543	1	1
537.883	1	3
538.223	1	-1
538.563	1	2
538.903	1	6
539.243	1	2
539.584	1	4
539.924	1	-3
540.264	1	-1
540.604	1	-2
540.944	1	-1
541.284	1	2
541.624	1	-9
541.964	1	8
542.305	1	5
542.645	1	2
542.985	1	12
543.325	1	1
543.665	1	6
544.005	1	11
544.345	1	3
544.685	1	3
545.025	1	3
545.365	1	4
545.705	1	14
546.045	1	0
546.386	1	-2
546.726	1	-10
547.066	1	11
547.406	1	6
547.746	1	-7
548.086	1	0
548.426	1	7
548.766	1	4
549.106	1	15
549.446	1	8
549.786	1	1
550.126	1	4
550.466	1	2
550.806	1	2
551.146	1	4
551.486	1	-1
551.826	1	7
552.166	1	-4
552.506	1	-5
552.846	1	-4
553.186	1	5
553.526	1	-1
553.866	1	3
554.206	1	6
554.546	1	-9
554.886	1	-7
555.226	1	0
555.566	1	5
555.906	1	-8
556.246	1	7
556.586	1	-5
556.926	1	2
557.266	1	8
557.606	1	-3
557.946	1	12
558.286	1	-5
558.626	1	16
558.966	1	4
559.306	1	12
559.646	1	4
559.986	1	7
560.325	1	1
560.665	1	8
561.005	1	5
561.345	1	-4
561.685	1	-2
562.025	1	-7
562.365	1	3
562.705	1	6
563.045	1	1
563.385	1	4
563.725	1	-5
564.064	1	2
564.404	1	0
564.744	1	2
565.084	1	3
565.424	1	4
565.764	1	5
566.104	1	10
566.444	1	10
566.783	1	5
567.123	1	1
567.463	1	-8
567.803	1	9
568.143	1	9
568.483	1	2
568.823	1	3
569.162	1	7
569.502	1	6
569.842	1	-8
570.182	1	1
570.522	1	-3
570.862	1	12
571.201	1	11
571.541	1	-6
571.881	1	8
572.221	1	-1
572.561	1	9
572.900	1	-12
573.240	1	6
573.580	1	-4
573.920	1	13
574.260	1	10
574.599	1	2
574.939	1	-10
575.279	1	5
575.619	1	7
575.959	1	1
576.298	1	6
576.638	1	10
576.978	1	-8
577.318	1	-8
577.657	1	4
577.997	1	-2
578.337	1	-4
578.677	1	1
579.016	1	7
579.356	1	5
579.696	1	-7
580.036	1	1
580.375	1	1
580.715	1	1
581.055	1	8
581.394	1	3
581.734	1	3
582.074	1	2
582.414	1	-5
582.753	1	5
583.093	1	11
583.433	1	10
583.772	1	9
584.112	1	6
584.452	1	-10
584.791	1	-6
585.131	1	12
585.471	1	6
585.811	1	-13
586.150	1	-7
586.490	1	-2
586.830	1	-4
587.169	1	12
587.509	1	-1
587.849	1	-1
588.188	1	2
588.528	1	2
588.867	1	4
589.207	1	-1
589.547	1	10
589.886	1	-2
590.226	1	3
590.566	1	5
590.905	1	8
591.245	1	-8
591.585	1	-1
591.924	1	5
592.264	1	-8
592.603	1	2
592.943	1	-2
593.283	1	2
593.622	1	-3
593.962	1	-2
594.301	1	1
594.641	1	10
594.981	1	10
595.320	1	-1
595.660	1	0
595.999	1	-2
596.339	1	-3
596.678	1	-3
597.018	1	0
597.358	1	-14
597.697	1	-1
598.037	1	-5
598.376	1	-7
598.716	1	1
599.055	1	6
599.395	1	-5
599.734	1	11
600.074	1	3
600.413	1	-7
600.753	1	0
601.092	1	-2
601.432	1	-3
601.771	1	10
602.111	1	-2
602.451	1	3
602.790	1	7
603.130	1	-6
603.469	1	0
603.809	1	1
604.148	1	5
604.487	1	10
604.827	1	-3
605.166	1	1
605.506	1	-3
605.845	1	10
606.185	1	0
606.524	1	-3
606.864	1	2
607.203	1	-3
607.543	1	11
607.882	1	-4
608.222	1	-1
608.561	1	0
608.901	1	4
609.240	1	1
609.579	1	2
609.919	1	-7
610.258	1	11
610.598	1	3
610.937	1	2
611.277	1	1
611.616	1	0
611.955	1	8
612.295	1	2
612.634	1	0
612.974	1	9
613.313	1	-7
613.652	1	12
613.992	1	5
614.331	1	5
614.671	1	5
615.010	1	1
615.349	1	0
615.689	1	21
616.028	1	-8
616.368	1	1
616.707	1	1
617.046	1	-3
617.386	1	5
617.725	1	1
618.064	1	2
618.404	1	-3
618.743	1	2
619.082	1	5
619.422	1	-4
619.761	1	-4
620.100	1	-4
620.440	1	3
620.779	1	5
621.118	1	-4
621.458	1	-6
621.797	1	0
622.136	1	2
622.476	1	-3
622.815	1	-4
623.154	1	0
623.494	1	3
623.833	1	5
624.172	1	0
624.511	1	7
624.851	1	-5
625.190	1	-1
625.529	1	5
625.869	1	4
626.208	1	6
626.547	1	-8
626.886	1	5
627.226	1	13
627.565	1	3
627.904	1	-11
628.243	1	-6
628.583	1	-6
628.922	1	2
629.261	1	6
629.600	1	7
629.940	1	-1
630.279	1	-1
630.618	1	4
630.957	1	2
631.297	1	1
631.636	1	9
631.975	1	-2
632.314	1	-3
632.653	1	8
632.993	1	-6
633.332	1	3
633.671	1	9
634.010	1	6
634.349	1	-8
634.689	1	2
635.028	1	10
635.367	1	-2
635.706	1	-1
636.045	1	-4
636.384	1	-9
636.724	1	10
637.063	1	6
637.402	1	3
637.741	1	3
638.080	1	1
638.419	1	-4
638.759	1	-4
639.098	1	-7
639.437	1	-6
639.776	1	-7
640.115	1	-1
640.454	1	-3
640.793	1	-5
641.132	1	10
641.472	1	-2
641.811	1	15
642.150	1	0
642.489	1	4
642.828	1	-1
643.167	1	-1
643.506	1	-1
643.845	1	4
644.184	1	5
644.524	1	3
644.863	1	-1
645.202	1	9
645.541	1	2
645.880	1	8
646.219	1	-5
646.558	1	2
646.897	1	7
647.236	1	-2
647.575	1	-7
647.914	1	4
648.253	1	-3
648.592	1	-3
648.931	1	0
649.270	1	-5
649.610	1	4
649.949	1	-2
650.288	1	-2
650.627	1	-2
650.966	1	1
651.305	1	-1
651.644	1	5
651.983	1	5
652.322	1	4
652.661	1	4
653.000	1	-10
653.339	1	11
653.678	1	-7
654.017	1	6
654.356	1	2
654.695	1	10
655.034	1	0
655.373	1	9
655.712	1	-16
656.051	1	-3
656.390	1	3
656.729	1	8
657.068	1	0
657.406	1	-1
657.745	1	6
658.084	1	-12
658.423	1	-1
658.762	1	-7
659.101	1	-2
659.440	1	8
659.779	1	5
660.118	1	3
660.457	1	13
660.796	1	-2
661.135	1	-14
661.474	1	15
661.813	1	0
662.152	1	1
662.491	1	-13
662.829	1	-5
663.168	1	3
663.507	1	0
663.846	1	2
664.185	1	4
664.524	1	1
664.863	1	-2
665.202	1	9
665.541	1	2
665.879	1	3
666.218	1	13
666.557	1	-5
666.896	1	2
667.235	1	-6
667.574	1	-11
667.913	1	-7
668.251	1	2
668.590	1	-3
668.929	1	-2
669.268	1	-6
669.607	1	0
669.946	1	0
670.285	1	10
670.623	1	2
670.962	1	-5
671.301	1	3
671.640	1	3
671.979	1	-6
672.317	1	2
672.656	1	2
672.995	1	-5
673.334	1	-6
673.673	1	10
674.011	1	8
674.350	1	0
674.689	1	3
675.028	1	10
675.367	1	-5
675.705	1	2
676.044	1	10
676.383	1	-3
676.722	1	11
677.060	1	-5
677.399	1	2
677.738	1	-2
678.077	1	9
678.416	1	-3
678.754	1	-4
679.093	1	-2
679.432	1	8
679.771	1	4
680.109	1	-3
680.448	1	-5
680.787	1	-6
681.125	1	4
681.464	1	8
681.803	1	10
682.142	1	0
682.480	1	3
682.819	1	2
683.158	1	0
683.496	1	2
683.835	1	-5
684.174	1	-8
684.512	1	-1
684.851	1	4
685.190	1	-1
685.529	1	9
685.867	1	8
686.206	1	2
686.545	1	6
686.883	1	2
687.222	1	2
687.561	1	5
687.899	1	-10
688.238	1	0
688.577	1	3
688.746	1	-7