File: Data/GaN_170K_550ms/GaN_sample D_spot 18_UVVIS_170 K_200um_550 ms 2x2mm1_282.txt
340.368	1	4
340.710	1	-8
341.052	1	2
341.394	1	8
341.737	1	-2
342.079	1	-1
342.421	1	11
342.763	1	7
343.105	1	13
343.447	1	-10
343.789	1	-3
344.131	1	-3
344.473	1	-1
344.815	1	3
345.157	1	-5
345.499	1	-7
345.841	1	12
346.183	1	2
346.526	1	1
346.868	1	0
347.210	1	-4
347.552	1	4
347.894	1	1
348.236	1	-4
348.578	1	8
348.920	1	6
349.262	1	-1
349.604	1	9
349.946	1	5
350.288	1	0
350.630	1	6
350.972	1	-15
351.314	1	13
351.656	1	-7
351.998	1	0
352.340	1	-3
352.682	1	5
353.024	1	0
353.366	1	1
353.708	1	7
354.050	1	-9
354.392	1	2
354.734	1	10
355.076	1	-8
355.418	1	-10
355.760	1	-3
356.102	1	-3
356.444	1	-5
356.785	1	-2
357.127	1	-1
357.469	1	-5
357.811	1	4
358.153	1	-2
358.495	1	-8
358.837	1	0
359.179	1	-8
359.521	1	10
359.863	1	-6
360.205	1	7
360.547	1	8
360.889	1	12
361.231	1	6
361.572	1	2
361.914	1	-3
362.256	1	-2
362.598	1	2
362.940	1	12
363.282	1	10
363.624	1	0
363.966	1	1
364.308	1	5
364.649	1	0
364.991	1	24
365.333	1	12
365.675	1	5
366.017	1	4
366.359	1	6
366.701	1	17
367.042	1	9
367.384	1	20
367.726	1	12
368.068	1	13
368.410	1	14
368.752	1	13
369.093	1	-1
369.435	1	6
369.777	1	10
370.119	1	12
370.461	1	23
370.803	1	-1
371.144	1	6
371.486	1	4
371.828	1	9
372.170	1	12
372.512	1	7
372.853	1	8
373.195	1	6
373.537	1	13
373.879	1	4
374.220	1	12
374.562	1	3
374.904	1	10
375.246	1	6
375.588	1	16
375.929	1	4
376.271	1	13
376.613	1	3
376.955	1	2
377.296	1	6
377.638	1	4
377.980	1	0
378.321	1	6
378.663	1	0
379.005	1	-3
379.347	1	2
379.688	1	-3
380.030	1	2
380.372	1	1
380.714	1	7
381.055	1	1
381.397	1	5
381.739	1	0
382.080	1	-2
382.422	1	4
382.764	1	7
383.105	1	6
383.447	1	13
383.789	1	21
384.130	1	-6
384.472	1	1
384.814	1	6
385.156	1	-5
385.497	1	9
385.839	1	-6
386.180	1	0
386.522	1	9
386.864	1	6
387.205	1	-7
387.547	1	8
387.889	1	1
388.230	1	6
388.572	1	5
388.914	1	-2
389.255	1	11
389.597	1	-2
389.939	1	-2
390.280	1	3
390.622	1	3
390.963	1	7
391.305	1	3
391.647	1	-14
391.988	1	14
392.330	1	6
392.671	1	-9
393.013	1	1
393.355	1	3
393.696	1	9
394.038	1	-6
394.379	1	-1
394.721	1	3
395.062	1	-1
395.404	1	7
395.746	1	11
396.087	1	5
396.429	1	1
396.770	1	7
397.112	1	2
397.453	1	4
397.795	1	-1
398.136	1	2
398.478	1	-6
398.819	1	-1
399.161	1	-10
399.503	1	5
399.844	1	-7
400.186	1	-7
400.527	1	7
400.869	1	1
401.210	1	6
401.552	1	2
401.893	1	4
402.235	1	8
402.576	1	-3
402.918	1	-2
403.259	1	3
403.601	1	9
403.942	1	5
404.284	1	-3
404.625	1	4
404.967	1	0
405.308	1	14
405.649	1	0
405.991	1	7
406.332	1	-7
406.674	1	7
407.015	1	8
407.357	1	-4
407.698	1	-5
408.040	1	4
408.381	1	3
408.722	1	-12
409.064	1	0
409.405	1	-3
409.747	1	10
410.088	1	6
410.430	1	1
410.771	1	6
411.112	1	2
411.454	1	1
411.795	1	8
412.137	1	-5
412.478	1	-2
412.819	1	-6
413.161	1	7
413.502	1	3
413.844	1	4
414.185	1	-2
414.526	1	3
414.868	1	-1
415.209	1	-18
415.550	1	-3
415.892	1	4
416.233	1	8
416.575	1	5
416.916	1	-9
417.257	1	5
417.599	1	-8
417.940	1	0
418.281	1	-4
418.623	1	0
418.964	1	-10
419.305	1	1
419.647	1	0
419.988	1	2
420.329	1	-4
420.671	1	-2
421.012	1	4
421.353	1	2
421.695	1	-3
422.036	1	-5
422.377	1	1
422.718	1	12
423.060	1	-4
423.401	1	-5
423.742	1	-6
424.084	1	7
424.425	1	-5
424.766	1	-1
425.107	1	-1
425.449	1	10
425.790	1	-3
426.131	1	10
426.472	1	4
426.814	1	0
427.155	1	11
427.496	1	8
427.837	1	9
428.179	1	-1
428.520	1	0
428.861	1	3
429.202	1	-8
429.544	1	-2
429.885	1	3
430.226	1	2
430.567	1	0
430.909	1	0
431.250	1	13
431.591	1	6
431.932	1	-3
432.273	1	-5
432.615	1	3
432.956	1	0
433.297	1	-6
433.638	1	5
433.979	1	7
434.320	1	7
434.662	1	-12
435.003	1	-1
435.344	1	-3
435.685	1	-3
436.026	1	-4
436.368	1	11
436.709	1	-8
437.050	1	-13
437.391	1	-5
437.732	1	0
438.073	1	-1
438.414	1	-13
438.756	1	-8
439.097	1	8
439.438	1	5
439.779	1	14
440.120	1	-2
440.461	1	13
440.802	1	12
441.143	1	2
441.485	1	-13
441.826	1	7
442.167	1	5
442.508	1	0
442.849	1	-3
443.190	1	4
443.531	1	-4
443.872	1	5
444.213	1	7
444.554	1	3
444.895	1	-15
445.237	1	-17
445.578	1	7
445.919	1	14
446.260	1	5
446.601	1	-7
446.942	1	3
447.283	1	6
447.624	1	3
447.965	1	-1
448.306	1	5
448.647	1	-6
448.988	1	11
449.329	1	-8
449.670	1	-11
450.011	1	3
450.352	1	-5
450.693	1	-5
451.034	1	-5
451.375	1	7
451.716	1	2
452.057	1	0
452.398	1	0
452.739	1	3
453.080	1	-5
453.421	1	4
453.762	1	1
454.103	1	-5
454.444	1	-2
454.785	1	2
455.126	1	6
455.467	1	-5
455.808	1	0
456.149	1	1
456.490	1	13
456.831	1	-6
457.172	1	-6
457.513	1	2
457.854	1	12
458.195	1	-4
458.536	1	0
458.877	1	3
459.218	1	0
459.559	1	-3
459.899	1	-3
460.240	1	6
460.581	1	6
460.922	1	0
461.263	1	-4
461.604	1	10
461.945	1	4
462.286	1	1
462.627	1	1
462.968	1	10
463.309	1	10
463.649	1	4
463.990	1	-8
464.331	1	-1
464.672	1	7
465.013	1	7
465.354	1	-12
465.695	1	12
466.036	1	-4
466.376	1	-5
466.717	1	-3
467.058	1	7
467.399	1	11
467.740	1	-3
468.081	1	-1
468.422	1	2
468.762	1	13
469.103	1	14
469.444	1	1
469.785	1	-1
470.126	1	0
470.467	1	1
470.807	1	-3
471.148	1	7
471.489	1	0
471.830	1	-3
472.171	1	16
472.511	1	2
472.852	1	2
473.193	1	2
473.534	1	2
473.875	1	6
474.215	1	6
474.556	1	10
474.897	1	5
475.238	1	0
475.578	1	1
475.919	1	1
476.260	1	11
476.601	1	4
476.942	1	-10
477.282	1	12
477.623	1	0
477.964	1	5
478.305	1	-14
478.645	1	7
478.986	1	-5
479.327	1	-5
479.667	1	3
480.008	1	3
480.349	1	5
480.690	1	6
481.030	1	-2
481.371	1	3
481.712	1	5
482.053	1	-10
482.393	1	-9
482.734	1	6
483.075	1	-1
483.415	1	4
483.756	1	-2
484.097	1	-7
484.437	1	-6
484.778	1	0
485.119	1	1
485.459	1	-10
485.800	1	-9
486.141	1	10
486.481	1	2
486.822	1	5
487.163	1	4
487.503	1	12
487.844	1	-2
488.185	1	2
488.525	1	9
488.866	1	12
489.207	1	-2
489.547	1	16
489.888	1	4
490.228	1	-3
490.569	1	-3
490.910	1	0
491.250	1	5
491.591	1	0
491.932	1	8
492.272	1	4
492.613	1	3
492.953	1	10
493.294	1	-7
493.635	1	-4
493.975	1	3
494.316	1	-3
494.656	1	1
494.997	1	5
495.337	1	9
495.678	1	-3
496.019	1	-12
496.359	1	12
496.700	1	12
497.040	1	-5
497.381	1	3
497.721	1	-2
498.062	1	-6
498.403	1	1
498.743	1	3
499.084	1	7
499.424	1	3
499.765	1	-10
500.105	1	-8
500.446	1	-5
500.786	1	-3
501.127	1	-1
501.467	1	-7
501.808	1	-3
502.148	1	2
502.489	1	1
502.829	1	0
503.170	1	9
503.510	1	7
503.851	1	-1
504.191	1	1
504.532	1	-17
504.872	1	1
505.213	1	-1
505.553	1	0
505.894	1	3
506.234	1	2
506.575	1	-2
506.915	1	2
507.256	1	-7
507.596	1	4
507.936	1	18
508.277	1	-9
508.617	1	9
508.958	1	4
509.298	1	-3
509.639	1	7
509.979	1	10
510.319	1	-2
510.660	1	-11
511.000	1	10
511.341	1	9
511.681	1	-3
512.022	1	6
512.362	1	-2
512.702	1	2
513.043	1	5
513.383	1	11
513.724	1	0
514.064	1	4
514.404	1	-7
514.745	1	4
515.085	1	-1
515.425	1	-1
515.766	1	1
516.106	1	6
516.447	1	8
516.787	1	1
517.127	1	6
517.468	1	1
517.808	1	6
518.148	1	-2
518.489	1	9
518.829	1	1
519.169	1	-12
519.510	1	6
519.850	1	2
520.190	1	2
520.531	1	5
520.871	1	-1
521.211	1	-3
521.552	1	3
521.892	1	-4
522.232	1	-6
522.573	1	3
522.913	1	6
523.253	1	5
523.593	1	0
523.934	1	2
524.274	1	3
524.614	1	2
524.955	1	1
525.295	1	-4
525.635	1	5
525.975	1	-5
526.316	1	10
526.656	1	1
526.996	1	4
527.337	1	5
527.677	1	-2
528.017	1	6
528.357	1	-6
528.698	1	-7
529.038	1	6
529.378	1	-1
529.718	1	14
530.058	1	10
530.399	1	0
530.739	1	0
531.079	1	2
531.419	1	3
531.760	1	2
532.100	1	2
532.440	1	8
532.780	1	0
533.120	1	9
533.461	1	-7
533.801	1	4
534.141	1	-4
534.481	1	9
534.821	1	2
535.162	1	3
535.502	1	10
535.842	1	2
536.182	1	6
536.522	1	7
536.862	1	11
537.203	1	3
537.543	1	3
537.883	1	15
538.223	1	1
538.563	1	6
538.903	1	0
539.243	1	4
539.584	1	-1
539.924	1	-4
540.264	1	4
540.604	1	-5
540.944	1	-3
541.284	1	4
541.624	1	3
541.964	1	2
542.305	1	1
542.645	1	-5
542.985	1	12
543.325	1	5
543.665	1	7
544.005	1	5
544.345	1	4
544.685	1	0
545.025	1	-1
545.365	1	-4
545.705	1	9
546.045	1	-1
546.386	1	1
546.726	1	-3
547.066	1	8
547.406	1	1
547.746	1	-4
548.086	1	3
548.426	1	9
548.766	1	4
549.106	1	8
549.446	1	7
549.786	1	-5
550.126	1	-1
550.466	1	7
550.806	1	0
551.146	1	7
551.486	1	-1
551.826	1	5
552.166	1	-2
552.506	1	2
552.846	1	0
553.186	1	6
553.526	1	-13
553.866	1	9
554.206	1	-1
554.546	1	-7
554.886	1	-1
555.226	1	-4
555.566	1	9
555.906	1	-14
556.246	1	8
556.586	1	-1
556.926	1	3
557.266	1	13
557.606	1	-5
557.946	1	4
558.286	1	1
558.626	1	10
558.966	1	12
559.306	1	9
559.646	1	3
559.986	1	7
560.325	1	2
560.665	1	10
561.005	1	7
561.345	1	-3
561.685	1	0
562.025	1	-4
562.365	1	-4
562.705	1	1
563.045	1	-2
563.385	1	1
563.725	1	6
564.064	1	5
564.404	1	-2
564.744	1	-3
565.084	1	-1
565.424	1	7
565.764	1	-1
566.104	1	2
566.444	1	4
566.783	1	8
567.123	1	-1
567.463	1	-2
567.803	1	1
568.143	1	1
568.483	1	9
568.823	1	8
569.162	1	4
569.502	1	5
569.842	1	-3
570.182	1	-3
570.522	1	4
570.862	1	3
571.201	1	8
571.541	1	-12
571.881	1	-1
572.221	1	4
572.561	1	-3
572.900	1	-8
573.240	1	6
573.580	1	0
573.920	1	14
574.260	1	5
574.599	1	-5
574.939	1	-7
575.279	1	-5
575.619	1	10
575.959	1	-8
576.298	1	0
576.638	1	1
576.978	1	-6
577.318	1	0
577.657	1	1
577.997	1	-5
578.337	1	7
578.677	1	-4
579.016	1	-2
579.356	1	-2
579.696	1	-1
580.036	1	0
580.375	1	9
580.715	1	6
581.055	1	4
581.394	1	2
581.734	1	7
582.074	1	1
582.414	1	-4
582.753	1	9
583.093	1	5
583.433	1	4
583.772	1	-3
584.112	1	-3
584.452	1	-8
584.791	1	1
585.131	1	12
585.471	1	10
585.811	1	-9
586.150	1	0
586.490	1	3
586.830	1	-8
587.169	1	10
587.509	1	2
587.849	1	0
588.188	1	6
588.528	1	-8
588.867	1	8
589.207	1	1
589.547	1	1
589.886	1	-1
590.226	1	-3
590.566	1	1
590.905	1	4
591.245	1	4
591.585	1	2
591.924	1	1
592.264	1	-5
592.603	1	2
592.943	1	7
593.283	1	-5
593.622	1	-8
593.962	1	1
594.301	1	3
594.641	1	7
594.981	1	9
595.320	1	-7
595.660	1	-5
595.999	1	-2
596.339	1	4
596.678	1	-1
597.018	1	-4
597.358	1	-4
597.697	1	6
598.037	1	4
598.376	1	-7
598.716	1	5
599.055	1	6
599.395	1	-1
599.734	1	15
600.074	1	-1
600.413	1	-7
600.753	1	2
601.092	1	3
601.432	1	-12
601.771	1	3
602.111	1	-2
602.451	1	5
602.790	1	5
603.130	1	-1
603.469	1	-2
603.809	1	1
604.148	1	1
604.487	1	0
604.827	1	-5
605.166	1	2
605.506	1	3
605.845	1	9
606.185	1	4
606.524	1	-5
606.864	1	-7
607.203	1	0
607.543	1	10
607.882	1	-7
608.222	1	1
608.561	1	4
608.901	1	5
609.240	1	4
609.579	1	-8
609.919	1	1
610.258	1	9
610.598	1	1
610.937	1	4
611.277	1	4
611.616	1	-2
611.955	1	9
612.295	1	6
612.634	1	-7
612.974	1	-5
613.313	1	-6
613.652	1	7
613.992	1	-1
614.331	1	-1
614.671	1	7
615.010	1	6
615.349	1	7
615.689	1	8
616.028	1	1
616.368	1	7
616.707	1	10
617.046	1	-1
617.386	1	-12
617.725	1	6
618.064	1	-4
618.404	1	-2
618.743	1	6
619.082	1	2
619.422	1	-2
619.761	1	-6
620.100	1	2
620.440	1	1
620.779	1	0
621.118	1	2
621.458	1	1
621.797	1	-5
622.136	1	6
622.476	1	-7
622.815	1	-2
623.154	1	0
623.494	1	-6
623.833	1	3
624.172	1	4
624.511	1	6
624.851	1	1
625.190	1	10
625.529	1	3
625.869	1	9
626.208	1	-6
626.547	1	-4
626.886	1	5
627.226	1	1
627.565	1	6
627.904	1	-8
628.243	1	-2
628.583	1	-6
628.922	1	-4
629.261	1	-4
629.600	1	-4
629.940	1	-2
630.279	1	-8
630.618	1	-1
630.957	1	0
631.297	1	-7
631.636	1	5
631.975	1	-2
632.314	1	-3
632.653	1	9
632.993	1	-3
633.332	1	-2
633.671	1	12
634.010	1	2
634.349	1	0
634.689	1	8
635.028	1	-1
635.367	1	-12
635.706	1	7
636.045	1	10
636.384	1	-3
636.724	1	6
637.063	1	2
637.402	1	11
637.741	1	-1
638.080	1	3
638.419	1	-9
638.759	1	2
639.098	1	-12
639.437	1	-11
639.776	1	-2
640.115	1	7
640.454	1	-3
640.793	1	-1
641.132	1	8
641.472	1	-4
641.811	1	16
642.150	1	-2
642.489	1	0
642.828	1	2
643.167	1	-3
643.506	1	4
643.845	1	7
644.184	1	15
644.524	1	2
644.863	1	-11
645.202	1	9
645.541	1	-2
645.880	1	2
646.219	1	-2
646.558	1	5
646.897	1	3
647.236	1	-5
647.575	1	-3
647.914	1	0
648.253	1	-6
648.592	1	3
648.931	1	5
649.270	1	0
649.610	1	-2
649.949	1	5
650.288	1	5
650.627	1	-1
650.966	1	4
651.305	1	-4
651.644	1	9
651.983	1	7
652.322	1	1
652.661	1	-4
653.000	1	-7
653.339	1	-12
653.678	1	4
654.017	1	5
654.356	1	-8
654.695	1	4
655.034	1	-1
655.373	1	4
655.712	1	-6
656.051	1	-5
656.390	1	-8
656.729	1	2
657.068	1	4
657.406	1	-1
657.745	1	3
658.084	1	1
658.423	1	2
658.762	1	0
659.101	1	9
659.440	1	5
659.779	1	8
660.118	1	4
660.457	1	10
660.796	1	-3
661.135	1	-6
661.474	1	3
661.813	1	-1
662.152	1	5
662.491	1	-12
662.829	1	-2
663.168	1	6
663.507	1	11
663.846	1	0
664.185	1	9
664.524	1	1
664.863	1	-2
665.202	1	11
665.541	1	-5
665.879	1	8
666.218	1	19
666.557	1	7
666.896	1	-2
667.235	1	-7
667.574	1	-4
667.913	1	-7
668.251	1	5
668.590	1	1
668.929	1	6
669.268	1	-10
669.607	1	2
669.946	1	4
670.285	1	18
670.623	1	1
670.962	1	-8
671.301	1	4
671.640	1	6
671.979	1	2
672.317	1	1
672.656	1	-1
672.995	1	-7
673.334	1	5
673.673	1	-1
674.011	1	5
674.350	1	6
674.689	1	11
675.028	1	3
675.367	1	-2
675.705	1	5
676.044	1	13
676.383	1	2
676.722	1	10
677.060	1	-1
677.399	1	3
677.738	1	-5
678.077	1	11
678.416	1	-5
678.754	1	1
679.093	1	-4
679.432	1	-5
679.771	1	6
680.109	1	1
680.448	1	3
680.787	1	1
681.125	1	10
681.464	1	7
681.803	1	5
682.142	1	7
682.480	1	-8
682.819	1	7
683.158	1	-1
683.496	1	5
683.835	1	-3
684.174	1	-6
684.512	1	-1
684.851	1	-2
685.190	1	-3
685.529	1	5
685.867	1	7
686.206	1	4
686.545	1	7
686.883	1	3
687.222	1	4
687.561	1	3
687.899	1	-10
688.238	1	-3
688.577	1	11
688.746	1	-3