File: Data/GaN_170K_550ms/GaN_sample D_spot 18_UVVIS_170 K_200um_550 ms 2x2mm1_100.txt
340.368	1	2
340.710	1	-8
341.052	1	-2
341.394	1	11
341.737	1	3
342.079	1	8
342.421	1	8
342.763	1	5
343.105	1	6
343.447	1	0
343.789	1	7
344.131	1	2
344.473	1	0
344.815	1	7
345.157	1	3
345.499	1	1
345.841	1	-1
346.183	1	14
346.526	1	4
346.868	1	11
347.210	1	-2
347.552	1	10
347.894	1	-4
348.236	1	2
348.578	1	13
348.920	1	1
349.262	1	8
349.604	1	12
349.946	1	13
350.288	1	9
350.630	1	18
350.972	1	2
351.314	1	8
351.656	1	1
351.998	1	5
352.340	1	7
352.682	1	0
353.024	1	7
353.366	1	-3
353.708	1	16
354.050	1	1
354.392	1	11
354.734	1	15
355.076	1	8
355.418	1	11
355.760	1	7
356.102	1	11
356.444	1	-2
356.785	1	4
357.127	1	10
357.469	1	2
357.811	1	7
358.153	1	6
358.495	1	11
358.837	1	19
359.179	1	9
359.521	1	23
359.863	1	12
360.205	1	39
360.547	1	32
360.889	1	25
361.231	1	22
361.572	1	34
361.914	1	33
362.256	1	28
362.598	1	42
362.940	1	48
363.282	1	50
363.624	1	53
363.966	1	46
364.308	1	55
364.649	1	54
364.991	1	61
365.333	1	59
365.675	1	74
366.017	1	68
366.359	1	75
366.701	1	75
367.042	1	74
367.384	1	86
367.726	1	97
368.068	1	109
368.410	1	96
368.752	1	100
369.093	1	82
369.435	1	90
369.777	1	92
370.119	1	90
370.461	1	92
370.803	1	82
371.144	1	82
371.486	1	70
371.828	1	67
372.170	1	75
372.512	1	71
372.853	1	76
373.195	1	57
373.537	1	69
373.879	1	66
374.220	1	65
374.562	1	47
374.904	1	48
375.246	1	54
375.588	1	45
375.929	1	43
376.271	1	50
376.613	1	45
376.955	1	41
377.296	1	46
377.638	1	38
377.980	1	23
378.321	1	39
378.663	1	28
379.005	1	26
379.347	1	32
379.688	1	35
380.030	1	35
380.372	1	28
380.714	1	39
381.055	1	26
381.397	1	30
381.739	1	29
382.080	1	17
382.422	1	16
382.764	1	25
383.105	1	17
383.447	1	24
383.789	1	26
384.130	1	17
384.472	1	6
384.814	1	24
385.156	1	19
385.497	1	19
385.839	1	7
386.180	1	23
386.522	1	22
386.864	1	22
387.205	1	15
387.547	1	12
387.889	1	19
388.230	1	2
388.572	1	13
388.914	1	5
389.255	1	16
389.597	1	20
389.939	1	6
390.280	1	18
390.622	1	6
390.963	1	13
391.305	1	7
391.647	1	4
391.988	1	9
392.330	1	12
392.671	1	4
393.013	1	9
393.355	1	0
393.696	1	2
394.038	1	0
394.379	1	1
394.721	1	4
395.062	1	13
395.404	1	7
395.746	1	11
396.087	1	16
396.429	1	10
396.770	1	13
397.112	1	-2
397.453	1	14
397.795	1	-5
398.136	1	8
398.478	1	6
398.819	1	14
399.161	1	7
399.503	1	1
399.844	1	-2
400.186	1	3
400.527	1	21
400.869	1	5
401.210	1	13
401.552	1	11
401.893	1	11
402.235	1	8
402.576	1	4
402.918	1	4
403.259	1	11
403.601	1	17
403.942	1	11
404.284	1	-1
404.625	1	7
404.967	1	-1
405.308	1	7
405.649	1	5
405.991	1	1
406.332	1	-3
406.674	1	11
407.015	1	14
407.357	1	0
407.698	1	11
408.040	1	0
408.381	1	9
408.722	1	-2
409.064	1	5
409.405	1	11
409.747	1	8
410.088	1	13
410.430	1	10
410.771	1	9
411.112	1	3
411.454	1	11
411.795	1	8
412.137	1	3
412.478	1	7
412.819	1	1
413.161	1	11
413.502	1	4
413.844	1	13
414.185	1	-1
414.526	1	6
414.868	1	2
415.209	1	-9
415.550	1	3
415.892	1	5
416.233	1	9
416.575	1	3
416.916	1	-3
417.257	1	7
417.599	1	5
417.940	1	6
418.281	1	1
418.623	1	3
418.964	1	-5
419.305	1	9
419.647	1	6
419.988	1	-2
420.329	1	11
420.671	1	-3
421.012	1	2
421.353	1	9
421.695	1	-3
422.036	1	3
422.377	1	11
422.718	1	8
423.060	1	-7
423.401	1	0
423.742	1	-1
424.084	1	9
424.425	1	1
424.766	1	-6
425.107	1	-6
425.449	1	8
425.790	1	5
426.131	1	6
426.472	1	1
426.814	1	-13
427.155	1	10
427.496	1	2
427.837	1	2
428.179	1	10
428.520	1	8
428.861	1	10
429.202	1	-4
429.544	1	-1
429.885	1	8
430.226	1	8
430.567	1	9
430.909	1	3
431.250	1	8
431.591	1	1
431.932	1	-5
432.273	1	12
432.615	1	3
432.956	1	1
433.297	1	0
433.638	1	5
433.979	1	2
434.320	1	9
434.662	1	-8
435.003	1	5
435.344	1	6
435.685	1	4
436.026	1	-3
436.368	1	7
436.709	1	3
437.050	1	-6
437.391	1	-5
437.732	1	7
438.073	1	0
438.414	1	-3
438.756	1	0
439.097	1	7
439.438	1	1
439.779	1	1
440.120	1	-5
440.461	1	23
440.802	1	4
441.143	1	0
441.485	1	-4
441.826	1	10
442.167	1	8
442.508	1	-2
442.849	1	-2
443.190	1	-2
443.531	1	-2
443.872	1	3
444.213	1	2
444.554	1	8
444.895	1	-10
445.237	1	0
445.578	1	17
445.919	1	11
446.260	1	7
446.601	1	-2
446.942	1	6
447.283	1	10
447.624	1	0
447.965	1	5
448.306	1	0
448.647	1	0
448.988	1	12
449.329	1	4
449.670	1	-4
450.011	1	3
450.352	1	1
450.693	1	-7
451.034	1	0
451.375	1	0
451.716	1	4
452.057	1	-2
452.398	1	7
452.739	1	12
453.080	1	1
453.421	1	1
453.762	1	2
454.103	1	0
454.444	1	-3
454.785	1	-4
455.126	1	11
455.467	1	-9
455.808	1	17
456.149	1	3
456.490	1	-2
456.831	1	6
457.172	1	-14
457.513	1	19
457.854	1	15
458.195	1	9
458.536	1	5
458.877	1	9
459.218	1	4
459.559	1	-1
459.899	1	0
460.240	1	-3
460.581	1	2
460.922	1	0
461.263	1	-9
461.604	1	7
461.945	1	9
462.286	1	-3
462.627	1	11
462.968	1	15
463.309	1	1
463.649	1	-1
463.990	1	-8
464.331	1	-4
464.672	1	-5
465.013	1	13
465.354	1	-6
465.695	1	16
466.036	1	4
466.376	1	7
466.717	1	-3
467.058	1	6
467.399	1	8
467.740	1	5
468.081	1	-2
468.422	1	-3
468.762	1	10
469.103	1	15
469.444	1	-3
469.785	1	0
470.126	1	1
470.467	1	8
470.807	1	2
471.148	1	-8
471.489	1	0
471.830	1	4
472.171	1	10
472.511	1	4
472.852	1	5
473.193	1	10
473.534	1	10
473.875	1	4
474.215	1	8
474.556	1	0
474.897	1	-2
475.238	1	-5
475.578	1	7
475.919	1	9
476.260	1	18
476.601	1	9
476.942	1	-3
477.282	1	10
477.623	1	13
477.964	1	3
478.305	1	-2
478.645	1	9
478.986	1	2
479.327	1	-12
479.667	1	2
480.008	1	7
480.349	1	13
480.690	1	13
481.030	1	7
481.371	1	-5
481.712	1	-1
482.053	1	-6
482.393	1	3
482.734	1	9
483.075	1	2
483.415	1	11
483.756	1	4
484.097	1	-4
484.437	1	-4
484.778	1	0
485.119	1	8
485.459	1	9
485.800	1	1
486.141	1	14
486.481	1	10
486.822	1	10
487.163	1	5
487.503	1	5
487.844	1	7
488.185	1	3
488.525	1	2
488.866	1	12
489.207	1	4
489.547	1	10
489.888	1	-1
490.228	1	6
490.569	1	11
490.910	1	15
491.250	1	10
491.591	1	9
491.932	1	8
492.272	1	6
492.613	1	8
492.953	1	7
493.294	1	2
493.635	1	9
493.975	1	14
494.316	1	5
494.656	1	6
494.997	1	1
495.337	1	11
495.678	1	9
496.019	1	-4
496.359	1	5
496.700	1	17
497.040	1	2
497.381	1	17
497.721	1	9
498.062	1	4
498.403	1	16
498.743	1	2
499.084	1	7
499.424	1	21
499.765	1	-12
500.105	1	-4
500.446	1	9
500.786	1	9
501.127	1	9
501.467	1	8
501.808	1	1
502.148	1	18
502.489	1	9
502.829	1	7
503.170	1	20
503.510	1	9
503.851	1	11
504.191	1	12
504.532	1	6
504.872	1	13
505.213	1	6
505.553	1	13
505.894	1	18
506.234	1	0
506.575	1	9
506.915	1	17
507.256	1	19
507.596	1	15
507.936	1	19
508.277	1	1
508.617	1	14
508.958	1	9
509.298	1	5
509.639	1	15
509.979	1	8
510.319	1	13
510.660	1	7
511.000	1	17
511.341	1	18
511.681	1	13
512.022	1	22
512.362	1	12
512.702	1	2
513.043	1	12
513.383	1	14
513.724	1	15
514.064	1	26
514.404	1	0
514.745	1	7
515.085	1	13
515.425	1	19
515.766	1	14
516.106	1	18
516.447	1	10
516.787	1	16
517.127	1	16
517.468	1	14
517.808	1	25
518.148	1	19
518.489	1	20
518.829	1	12
519.169	1	16
519.510	1	18
519.850	1	13
520.190	1	9
520.531	1	18
520.871	1	16
521.211	1	2
521.552	1	19
521.892	1	14
522.232	1	5
522.573	1	24
522.913	1	11
523.253	1	25
523.593	1	12
523.934	1	14
524.274	1	17
524.614	1	12
524.955	1	10
525.295	1	12
525.635	1	20
525.975	1	6
526.316	1	19
526.656	1	21
526.996	1	20
527.337	1	2
527.677	1	9
528.017	1	13
528.357	1	5
528.698	1	9
529.038	1	7
529.378	1	8
529.718	1	28
530.058	1	17
530.399	1	18
530.739	1	18
531.079	1	15
531.419	1	18
531.760	1	12
532.100	1	14
532.440	1	20
532.780	1	7
533.120	1	13
533.461	1	20
533.801	1	16
534.141	1	12
534.481	1	22
534.821	1	22
535.162	1	19
535.502	1	9
535.842	1	15
536.182	1	7
536.522	1	15
536.862	1	29
537.203	1	18
537.543	1	15
537.883	1	18
538.223	1	18
538.563	1	3
538.903	1	20
539.243	1	6
539.584	1	14
539.924	1	15
540.264	1	20
540.604	1	10
540.944	1	6
541.284	1	22
541.624	1	10
541.964	1	20
542.305	1	15
542.645	1	9
542.985	1	13
543.325	1	15
543.665	1	21
544.005	1	17
544.345	1	12
544.685	1	13
545.025	1	12
545.365	1	19
545.705	1	22
546.045	1	9
546.386	1	9
546.726	1	17
547.066	1	17
547.406	1	11
547.746	1	3
548.086	1	15
548.426	1	11
548.766	1	22
549.106	1	27
549.446	1	19
549.786	1	5
550.126	1	14
550.466	1	12
550.806	1	15
551.146	1	20
551.486	1	14
551.826	1	16
552.166	1	12
552.506	1	19
552.846	1	6
553.186	1	19
553.526	1	1
553.866	1	-2
554.206	1	7
554.546	1	-1
554.886	1	18
555.226	1	2
555.566	1	20
555.906	1	12
556.246	1	9
556.586	1	5
556.926	1	12
557.266	1	16
557.606	1	13
557.946	1	17
558.286	1	12
558.626	1	17
558.966	1	18
559.306	1	14
559.646	1	3
559.986	1	17
560.325	1	5
560.665	1	16
561.005	1	8
561.345	1	11
561.685	1	14
562.025	1	-1
562.365	1	5
562.705	1	15
563.045	1	4
563.385	1	13
563.725	1	-2
564.064	1	9
564.404	1	4
564.744	1	9
565.084	1	14
565.424	1	15
565.764	1	5
566.104	1	2
566.444	1	11
566.783	1	17
567.123	1	11
567.463	1	10
567.803	1	5
568.143	1	16
568.483	1	7
568.823	1	4
569.162	1	11
569.502	1	7
569.842	1	3
570.182	1	6
570.522	1	12
570.862	1	7
571.201	1	11
571.541	1	6
571.881	1	5
572.221	1	14
572.561	1	12
572.900	1	2
573.240	1	6
573.580	1	11
573.920	1	19
574.260	1	18
574.599	1	4
574.939	1	-1
575.279	1	4
575.619	1	22
575.959	1	-1
576.298	1	17
576.638	1	6
576.978	1	7
577.318	1	10
577.657	1	5
577.997	1	1
578.337	1	5
578.677	1	15
579.016	1	6
579.356	1	1
579.696	1	1
580.036	1	9
580.375	1	9
580.715	1	9
581.055	1	5
581.394	1	14
581.734	1	15
582.074	1	13
582.414	1	4
582.753	1	10
583.093	1	10
583.433	1	19
583.772	1	12
584.112	1	9
584.452	1	-3
584.791	1	2
585.131	1	22
585.471	1	8
585.811	1	0
586.150	1	3
586.490	1	8
586.830	1	-1
587.169	1	13
587.509	1	10
587.849	1	8
588.188	1	3
588.528	1	8
588.867	1	8
589.207	1	4
589.547	1	0
589.886	1	10
590.226	1	3
590.566	1	14
590.905	1	8
591.245	1	7
591.585	1	5
591.924	1	9
592.264	1	-2
592.603	1	7
592.943	1	0
593.283	1	5
593.622	1	-8
593.962	1	6
594.301	1	8
594.641	1	10
594.981	1	14
595.320	1	4
595.660	1	3
595.999	1	1
596.339	1	13
596.678	1	0
597.018	1	3
597.358	1	-8
597.697	1	-3
598.037	1	3
598.376	1	-3
598.716	1	12
599.055	1	7
599.395	1	2
599.734	1	10
600.074	1	-4
600.413	1	5
600.753	1	3
601.092	1	4
601.432	1	-1
601.771	1	10
602.111	1	3
602.451	1	4
602.790	1	8
603.130	1	-3
603.469	1	15
603.809	1	2
604.148	1	9
604.487	1	13
604.827	1	-6
605.166	1	14
605.506	1	2
605.845	1	4
606.185	1	7
606.524	1	5
606.864	1	1
607.203	1	8
607.543	1	13
607.882	1	1
608.222	1	7
608.561	1	5
608.901	1	2
609.240	1	-3
609.579	1	5
609.919	1	-3
610.258	1	14
610.598	1	12
610.937	1	3
611.277	1	7
611.616	1	2
611.955	1	2
612.295	1	4
612.634	1	6
612.974	1	4
613.313	1	8
613.652	1	16
613.992	1	-1
614.331	1	2
614.671	1	4
615.010	1	5
615.349	1	5
615.689	1	21
616.028	1	8
616.368	1	7
616.707	1	13
617.046	1	-6
617.386	1	-5
617.725	1	4
618.064	1	7
618.404	1	3
618.743	1	-3
619.082	1	0
619.422	1	0
619.761	1	-2
620.100	1	-2
620.440	1	3
620.779	1	7
621.118	1	-8
621.458	1	-6
621.797	1	7
622.136	1	0
622.476	1	-2
622.815	1	3
623.154	1	7
623.494	1	-1
623.833	1	3
624.172	1	7
624.511	1	9
624.851	1	0
625.190	1	17
625.529	1	8
625.869	1	6
626.208	1	0
626.547	1	1
626.886	1	0
627.226	1	5
627.565	1	9
627.904	1	6
628.243	1	6
628.583	1	0
628.922	1	-9
629.261	1	3
629.600	1	5
629.940	1	-1
630.279	1	7
630.618	1	5
630.957	1	1
631.297	1	-3
631.636	1	15
631.975	1	-2
632.314	1	8
632.653	1	5
632.993	1	-1
633.332	1	2
633.671	1	15
634.010	1	12
634.349	1	-1
634.689	1	11
635.028	1	2
635.367	1	4
635.706	1	-1
636.045	1	7
636.384	1	-6
636.724	1	15
637.063	1	3
637.402	1	17
637.741	1	7
638.080	1	14
638.419	1	0
638.759	1	-1
639.098	1	-5
639.437	1	-5
639.776	1	13
640.115	1	5
640.454	1	2
640.793	1	-2
641.132	1	16
641.472	1	-1
641.811	1	7
642.150	1	2
642.489	1	3
642.828	1	7
643.167	1	-2
643.506	1	7
643.845	1	6
644.184	1	11
644.524	1	4
644.863	1	-11
645.202	1	12
645.541	1	12
645.880	1	5
646.219	1	6
646.558	1	8
646.897	1	6
647.236	1	5
647.575	1	1
647.914	1	-1
648.253	1	-1
648.592	1	6
648.931	1	11
649.270	1	3
649.610	1	8
649.949	1	2
650.288	1	3
650.627	1	0
650.966	1	5
651.305	1	-4
651.644	1	4
651.983	1	6
652.322	1	6
652.661	1	1
653.000	1	-6
653.339	1	-7
653.678	1	11
654.017	1	5
654.356	1	0
654.695	1	10
655.034	1	1
655.373	1	2
655.712	1	-9
656.051	1	-5
656.390	1	1
656.729	1	11
657.068	1	7
657.406	1	9
657.745	1	2
658.084	1	-1
658.423	1	8
658.762	1	1
659.101	1	9
659.440	1	4
659.779	1	18
660.118	1	9
660.457	1	15
660.796	1	7
661.135	1	-2
661.474	1	6
661.813	1	4
662.152	1	7
662.491	1	-4
662.829	1	-2
663.168	1	6
663.507	1	7
663.846	1	-3
664.185	1	13
664.524	1	11
664.863	1	4
665.202	1	22
665.541	1	13
665.879	1	13
666.218	1	17
666.557	1	-1
666.896	1	-1
667.235	1	-8
667.574	1	-11
667.913	1	-5
668.251	1	4
668.590	1	1
668.929	1	2
669.268	1	-7
669.607	1	2
669.946	1	4
670.285	1	4
670.623	1	2
670.962	1	-4
671.301	1	4
671.640	1	5
671.979	1	-2
672.317	1	-2
672.656	1	7
672.995	1	2
673.334	1	9
673.673	1	4
674.011	1	3
674.350	1	11
674.689	1	8
675.028	1	-3
675.367	1	4
675.705	1	11
676.044	1	14
676.383	1	5
676.722	1	17
677.060	1	-5
677.399	1	-3
677.738	1	-3
678.077	1	16
678.416	1	6
678.754	1	12
679.093	1	11
679.432	1	5
679.771	1	12
680.109	1	2
680.448	1	9
680.787	1	-2
681.125	1	14
681.464	1	12
681.803	1	7
682.142	1	7
682.480	1	7
682.819	1	19
683.158	1	5
683.496	1	10
683.835	1	-1
684.174	1	6
684.512	1	2
684.851	1	-1
685.190	1	1
685.529	1	14
685.867	1	11
686.206	1	2
686.545	1	11
686.883	1	2
687.222	1	3
687.561	1	8
687.899	1	-3
688.238	1	-5
688.577	1	14
688.746	1	-2