File: Data/GaN_170K_550ms/GaN_sample D_spot 18_UVVIS_170 K_200um_550 ms 2x2mm1_277.txt
340.368	1	-7
340.710	1	-8
341.052	1	7
341.394	1	-2
341.737	1	0
342.079	1	-4
342.421	1	8
342.763	1	8
343.105	1	6
343.447	1	-5
343.789	1	1
344.131	1	4
344.473	1	4
344.815	1	5
345.157	1	-7
345.499	1	-5
345.841	1	9
346.183	1	2
346.526	1	6
346.868	1	2
347.210	1	-4
347.552	1	3
347.894	1	9
348.236	1	11
348.578	1	3
348.920	1	-4
349.262	1	7
349.604	1	-2
349.946	1	-2
350.288	1	-3
350.630	1	18
350.972	1	-9
351.314	1	2
351.656	1	1
351.998	1	8
352.340	1	0
352.682	1	2
353.024	1	6
353.366	1	0
353.708	1	10
354.050	1	-6
354.392	1	0
354.734	1	4
355.076	1	-1
355.418	1	-8
355.760	1	-4
356.102	1	6
356.444	1	-2
356.785	1	4
357.127	1	1
357.469	1	-7
357.811	1	7
358.153	1	5
358.495	1	-4
358.837	1	-2
359.179	1	-4
359.521	1	11
359.863	1	-3
360.205	1	21
360.547	1	0
360.889	1	6
361.231	1	7
361.572	1	10
361.914	1	1
362.256	1	-6
362.598	1	-2
362.940	1	12
363.282	1	7
363.624	1	5
363.966	1	6
364.308	1	2
364.649	1	1
364.991	1	11
365.333	1	7
365.675	1	13
366.017	1	1
366.359	1	12
366.701	1	6
367.042	1	9
367.384	1	26
367.726	1	19
368.068	1	7
368.410	1	10
368.752	1	10
369.093	1	3
369.435	1	0
369.777	1	6
370.119	1	-3
370.461	1	19
370.803	1	5
371.144	1	9
371.486	1	0
371.828	1	23
372.170	1	8
372.512	1	5
372.853	1	8
373.195	1	3
373.537	1	17
373.879	1	9
374.220	1	12
374.562	1	5
374.904	1	10
375.246	1	2
375.588	1	1
375.929	1	1
376.271	1	8
376.613	1	5
376.955	1	7
377.296	1	5
377.638	1	4
377.980	1	-7
378.321	1	10
378.663	1	2
379.005	1	5
379.347	1	5
379.688	1	3
380.030	1	7
380.372	1	-8
380.714	1	17
381.055	1	0
381.397	1	19
381.739	1	4
382.080	1	0
382.422	1	4
382.764	1	-4
383.105	1	12
383.447	1	7
383.789	1	12
384.130	1	-2
384.472	1	-1
384.814	1	0
385.156	1	4
385.497	1	7
385.839	1	-1
386.180	1	11
386.522	1	5
386.864	1	5
387.205	1	-5
387.547	1	0
387.889	1	8
388.230	1	0
388.572	1	2
388.914	1	-5
389.255	1	7
389.597	1	0
389.939	1	-2
390.280	1	11
390.622	1	3
390.963	1	2
391.305	1	3
391.647	1	-10
391.988	1	2
392.330	1	-5
392.671	1	-1
393.013	1	-3
393.355	1	11
393.696	1	-3
394.038	1	-6
394.379	1	-11
394.721	1	7
395.062	1	9
395.404	1	7
395.746	1	14
396.087	1	3
396.429	1	5
396.770	1	6
397.112	1	4
397.453	1	8
397.795	1	-9
398.136	1	-1
398.478	1	-2
398.819	1	-2
399.161	1	-2
399.503	1	-2
399.844	1	-6
400.186	1	-3
400.527	1	14
400.869	1	1
401.210	1	8
401.552	1	-2
401.893	1	15
402.235	1	1
402.576	1	-2
402.918	1	-9
403.259	1	-3
403.601	1	14
403.942	1	6
404.284	1	-4
404.625	1	-1
404.967	1	-4
405.308	1	-2
405.649	1	10
405.991	1	1
406.332	1	1
406.674	1	-1
407.015	1	11
407.357	1	7
407.698	1	9
408.040	1	2
408.381	1	1
408.722	1	-3
409.064	1	0
409.405	1	3
409.747	1	5
410.088	1	19
410.430	1	2
410.771	1	-2
411.112	1	1
411.454	1	15
411.795	1	13
412.137	1	-5
412.478	1	-1
412.819	1	-8
413.161	1	5
413.502	1	-1
413.844	1	10
414.185	1	-3
414.526	1	5
414.868	1	-1
415.209	1	-12
415.550	1	5
415.892	1	6
416.233	1	3
416.575	1	18
416.916	1	-11
417.257	1	6
417.599	1	1
417.940	1	6
418.281	1	1
418.623	1	-4
418.964	1	-6
419.305	1	-1
419.647	1	9
419.988	1	1
420.329	1	8
420.671	1	-10
421.012	1	-10
421.353	1	11
421.695	1	-9
422.036	1	4
422.377	1	-1
422.718	1	7
423.060	1	-11
423.401	1	1
423.742	1	-5
424.084	1	7
424.425	1	-17
424.766	1	-1
425.107	1	2
425.449	1	-2
425.790	1	3
426.131	1	4
426.472	1	6
426.814	1	-12
427.155	1	12
427.496	1	1
427.837	1	4
428.179	1	12
428.520	1	10
428.861	1	-1
429.202	1	-5
429.544	1	-5
429.885	1	2
430.226	1	0
430.567	1	3
430.909	1	-3
431.250	1	12
431.591	1	-3
431.932	1	-8
432.273	1	7
432.615	1	-1
432.956	1	3
433.297	1	3
433.638	1	7
433.979	1	0
434.320	1	10
434.662	1	-8
435.003	1	0
435.344	1	-2
435.685	1	1
436.026	1	-4
436.368	1	8
436.709	1	-4
437.050	1	-8
437.391	1	2
437.732	1	3
438.073	1	-6
438.414	1	-2
438.756	1	-9
439.097	1	-2
439.438	1	4
439.779	1	15
440.120	1	-6
440.461	1	14
440.802	1	8
441.143	1	0
441.485	1	-6
441.826	1	7
442.167	1	-2
442.508	1	-10
442.849	1	-3
443.190	1	2
443.531	1	7
443.872	1	0
444.213	1	-1
444.554	1	5
444.895	1	-11
445.237	1	-12
445.578	1	0
445.919	1	5
446.260	1	4
446.601	1	-1
446.942	1	-2
447.283	1	-3
447.624	1	2
447.965	1	7
448.306	1	9
448.647	1	-3
448.988	1	14
449.329	1	6
449.670	1	-9
450.011	1	13
450.352	1	-3
450.693	1	-1
451.034	1	1
451.375	1	9
451.716	1	-1
452.057	1	-4
452.398	1	8
452.739	1	6
453.080	1	-8
453.421	1	8
453.762	1	-6
454.103	1	2
454.444	1	-7
454.785	1	0
455.126	1	7
455.467	1	-8
455.808	1	6
456.149	1	4
456.490	1	8
456.831	1	1
457.172	1	-7
457.513	1	7
457.854	1	9
458.195	1	3
458.536	1	-10
458.877	1	4
459.218	1	2
459.559	1	-6
459.899	1	5
460.240	1	-2
460.581	1	3
460.922	1	-6
461.263	1	0
461.604	1	3
461.945	1	-2
462.286	1	-11
462.627	1	6
462.968	1	8
463.309	1	9
463.649	1	-3
463.990	1	0
464.331	1	6
464.672	1	1
465.013	1	6
465.354	1	-1
465.695	1	1
466.036	1	-6
466.376	1	3
466.717	1	8
467.058	1	0
467.399	1	9
467.740	1	-2
468.081	1	-2
468.422	1	10
468.762	1	13
469.103	1	1
469.444	1	3
469.785	1	-11
470.126	1	2
470.467	1	11
470.807	1	-7
471.148	1	-6
471.489	1	0
471.830	1	0
472.171	1	-1
472.511	1	9
472.852	1	5
473.193	1	4
473.534	1	-1
473.875	1	-5
474.215	1	5
474.556	1	8
474.897	1	2
475.238	1	-3
475.578	1	1
475.919	1	9
476.260	1	6
476.601	1	-2
476.942	1	-12
477.282	1	10
477.623	1	7
477.964	1	3
478.305	1	-5
478.645	1	12
478.986	1	-3
479.327	1	-7
479.667	1	-3
480.008	1	6
480.349	1	2
480.690	1	4
481.030	1	1
481.371	1	1
481.712	1	1
482.053	1	-8
482.393	1	0
482.734	1	-2
483.075	1	9
483.415	1	8
483.756	1	-1
484.097	1	-8
484.437	1	-4
484.778	1	-14
485.119	1	-1
485.459	1	-1
485.800	1	-5
486.141	1	14
486.481	1	-3
486.822	1	7
487.163	1	9
487.503	1	-10
487.844	1	8
488.185	1	-6
488.525	1	9
488.866	1	7
489.207	1	9
489.547	1	18
489.888	1	-2
490.228	1	-1
490.569	1	-4
490.910	1	3
491.250	1	1
491.591	1	0
491.932	1	-3
492.272	1	4
492.613	1	-7
492.953	1	-1
493.294	1	-5
493.635	1	-4
493.975	1	2
494.316	1	-2
494.656	1	-5
494.997	1	7
495.337	1	16
495.678	1	2
496.019	1	-6
496.359	1	9
496.700	1	5
497.040	1	9
497.381	1	7
497.721	1	-6
498.062	1	1
498.403	1	3
498.743	1	4
499.084	1	3
499.424	1	10
499.765	1	-12
500.105	1	-3
500.446	1	0
500.786	1	4
501.127	1	5
501.467	1	-8
501.808	1	3
502.148	1	-7
502.489	1	3
502.829	1	4
503.170	1	2
503.510	1	0
503.851	1	-3
504.191	1	-7
504.532	1	-14
504.872	1	1
505.213	1	-1
505.553	1	-2
505.894	1	5
506.234	1	-7
506.575	1	-5
506.915	1	-2
507.256	1	-13
507.596	1	3
507.936	1	15
508.277	1	-13
508.617	1	7
508.958	1	-5
509.298	1	7
509.639	1	14
509.979	1	5
510.319	1	-6
510.660	1	-10
511.000	1	9
511.341	1	10
511.681	1	-3
512.022	1	8
512.362	1	-2
512.702	1	-10
513.043	1	4
513.383	1	3
513.724	1	4
514.064	1	8
514.404	1	-4
514.745	1	-4
515.085	1	-1
515.425	1	2
515.766	1	6
516.106	1	5
516.447	1	-5
516.787	1	-2
517.127	1	1
517.468	1	10
517.808	1	12
518.148	1	3
518.489	1	12
518.829	1	7
519.169	1	0
519.510	1	14
519.850	1	6
520.190	1	-3
520.531	1	2
520.871	1	-2
521.211	1	2
521.552	1	-1
521.892	1	2
522.232	1	-10
522.573	1	4
522.913	1	2
523.253	1	15
523.593	1	10
523.934	1	-10
524.274	1	4
524.614	1	0
524.955	1	10
525.295	1	-1
525.635	1	7
525.975	1	2
526.316	1	9
526.656	1	10
526.996	1	2
527.337	1	2
527.677	1	-9
528.017	1	9
528.357	1	2
528.698	1	0
529.038	1	0
529.378	1	0
529.718	1	-3
530.058	1	11
530.399	1	-6
530.739	1	-4
531.079	1	7
531.419	1	8
531.760	1	12
532.100	1	-4
532.440	1	3
532.780	1	-9
533.120	1	0
533.461	1	-7
533.801	1	0
534.141	1	-6
534.481	1	8
534.821	1	12
535.162	1	11
535.502	1	-1
535.842	1	6
536.182	1	7
536.522	1	6
536.862	1	14
537.203	1	7
537.543	1	-1
537.883	1	2
538.223	1	3
538.563	1	-4
538.903	1	-5
539.243	1	3
539.584	1	-1
539.924	1	-3
540.264	1	5
540.604	1	0
540.944	1	-3
541.284	1	10
541.624	1	2
541.964	1	11
542.305	1	-1
542.645	1	-1
542.985	1	5
543.325	1	3
543.665	1	2
544.005	1	2
544.345	1	7
544.685	1	-1
545.025	1	-5
545.365	1	-2
545.705	1	8
546.045	1	0
546.386	1	2
546.726	1	3
547.066	1	12
547.406	1	0
547.746	1	-5
548.086	1	6
548.426	1	12
548.766	1	11
549.106	1	10
549.446	1	8
549.786	1	-1
550.126	1	-5
550.466	1	1
550.806	1	-10
551.146	1	10
551.486	1	0
551.826	1	10
552.166	1	2
552.506	1	3
552.846	1	1
553.186	1	1
553.526	1	-3
553.866	1	-10
554.206	1	6
554.546	1	-10
554.886	1	8
555.226	1	-11
555.566	1	4
555.906	1	-1
556.246	1	0
556.586	1	0
556.926	1	8
557.266	1	-2
557.606	1	6
557.946	1	2
558.286	1	-5
558.626	1	15
558.966	1	7
559.306	1	4
559.646	1	-7
559.986	1	3
560.325	1	6
560.665	1	-5
561.005	1	5
561.345	1	-6
561.685	1	9
562.025	1	-4
562.365	1	2
562.705	1	5
563.045	1	-2
563.385	1	-3
563.725	1	-4
564.064	1	10
564.404	1	-1
564.744	1	1
565.084	1	1
565.424	1	2
565.764	1	-3
566.104	1	9
566.444	1	0
566.783	1	3
567.123	1	4
567.463	1	8
567.803	1	3
568.143	1	4
568.483	1	4
568.823	1	7
569.162	1	4
569.502	1	-1
569.842	1	4
570.182	1	6
570.522	1	5
570.862	1	-2
571.201	1	7
571.541	1	-13
571.881	1	-7
572.221	1	5
572.561	1	1
572.900	1	-1
573.240	1	6
573.580	1	1
573.920	1	11
574.260	1	3
574.599	1	7
574.939	1	-1
575.279	1	11
575.619	1	5
575.959	1	-8
576.298	1	4
576.638	1	7
576.978	1	-4
577.318	1	-2
577.657	1	0
577.997	1	-14
578.337	1	6
578.677	1	-2
579.016	1	11
579.356	1	0
579.696	1	-2
580.036	1	4
580.375	1	4
580.715	1	11
581.055	1	4
581.394	1	11
581.734	1	2
582.074	1	6
582.414	1	-12
582.753	1	5
583.093	1	8
583.433	1	13
583.772	1	-3
584.112	1	9
584.452	1	-9
584.791	1	8
585.131	1	11
585.471	1	2
585.811	1	-4
586.150	1	-6
586.490	1	10
586.830	1	-18
587.169	1	4
587.509	1	2
587.849	1	4
588.188	1	-4
588.528	1	1
588.867	1	-2
589.207	1	1
589.547	1	10
589.886	1	2
590.226	1	5
590.566	1	1
590.905	1	7
591.245	1	11
591.585	1	2
591.924	1	5
592.264	1	1
592.603	1	-4
592.943	1	-3
593.283	1	0
593.622	1	-9
593.962	1	4
594.301	1	6
594.641	1	0
594.981	1	11
595.320	1	-3
595.660	1	-6
595.999	1	12
596.339	1	8
596.678	1	0
597.018	1	2
597.358	1	-10
597.697	1	6
598.037	1	-4
598.376	1	-8
598.716	1	3
599.055	1	-6
599.395	1	11
599.734	1	11
600.074	1	-2
600.413	1	-9
600.753	1	7
601.092	1	5
601.432	1	-9
601.771	1	9
602.111	1	-6
602.451	1	14
602.790	1	12
603.130	1	1
603.469	1	-3
603.809	1	7
604.148	1	-2
604.487	1	1
604.827	1	-6
605.166	1	3
605.506	1	-4
605.845	1	-1
606.185	1	4
606.524	1	-1
606.864	1	6
607.203	1	0
607.543	1	5
607.882	1	-9
608.222	1	4
608.561	1	1
608.901	1	0
609.240	1	2
609.579	1	10
609.919	1	-1
610.258	1	15
610.598	1	8
610.937	1	2
611.277	1	2
611.616	1	-1
611.955	1	1
612.295	1	3
612.634	1	-6
612.974	1	5
613.313	1	6
613.652	1	6
613.992	1	-5
614.331	1	-4
614.671	1	3
615.010	1	9
615.349	1	13
615.689	1	21
616.028	1	9
616.368	1	-11
616.707	1	8
617.046	1	11
617.386	1	-5
617.725	1	2
618.064	1	-3
618.404	1	3
618.743	1	7
619.082	1	0
619.422	1	-5
619.761	1	-6
620.100	1	-7
620.440	1	8
620.779	1	0
621.118	1	-8
621.458	1	0
621.797	1	1
622.136	1	-3
622.476	1	5
622.815	1	6
623.154	1	0
623.494	1	-4
623.833	1	5
624.172	1	0
624.511	1	6
624.851	1	-7
625.190	1	0
625.529	1	6
625.869	1	11
626.208	1	0
626.547	1	-4
626.886	1	-2
627.226	1	7
627.565	1	3
627.904	1	0
628.243	1	-7
628.583	1	-2
628.922	1	1
629.261	1	9
629.600	1	-6
629.940	1	-3
630.279	1	5
630.618	1	-2
630.957	1	5
631.297	1	6
631.636	1	8
631.975	1	2
632.314	1	7
632.653	1	9
632.993	1	4
633.332	1	-3
633.671	1	0
634.010	1	-1
634.349	1	-9
634.689	1	15
635.028	1	3
635.367	1	-9
635.706	1	2
636.045	1	4
636.384	1	-6
636.724	1	8
637.063	1	3
637.402	1	5
637.741	1	-7
638.080	1	5
638.419	1	-9
638.759	1	-2
639.098	1	-10
639.437	1	-17
639.776	1	5
640.115	1	4
640.454	1	-2
640.793	1	-4
641.132	1	0
641.472	1	0
641.811	1	4
642.150	1	5
642.489	1	0
642.828	1	-8
643.167	1	-2
643.506	1	1
643.845	1	6
644.184	1	13
644.524	1	2
644.863	1	-21
645.202	1	12
645.541	1	-4
645.880	1	0
646.219	1	5
646.558	1	-6
646.897	1	4
647.236	1	-7
647.575	1	-7
647.914	1	0
648.253	1	-3
648.592	1	-4
648.931	1	2
649.270	1	-7
649.610	1	-2
649.949	1	3
650.288	1	-1
650.627	1	-4
650.966	1	7
651.305	1	-9
651.644	1	7
651.983	1	2
652.322	1	2
652.661	1	2
653.000	1	-11
653.339	1	-7
653.678	1	6
654.017	1	2
654.356	1	-3
654.695	1	-5
655.034	1	-2
655.373	1	-1
655.712	1	-9
656.051	1	0
656.390	1	-4
656.729	1	-3
657.068	1	7
657.406	1	-2
657.745	1	8
658.084	1	-7
658.423	1	0
658.762	1	0
659.101	1	-1
659.440	1	13
659.779	1	-5
660.118	1	10
660.457	1	10
660.796	1	-4
661.135	1	-7
661.474	1	6
661.813	1	-2
662.152	1	11
662.491	1	-10
662.829	1	-6
663.168	1	1
663.507	1	2
663.846	1	0
664.185	1	2
664.524	1	-10
664.863	1	-1
665.202	1	12
665.541	1	-1
665.879	1	-7
666.218	1	4
666.557	1	-8
666.896	1	5
667.235	1	-6
667.574	1	-4
667.913	1	1
668.251	1	4
668.590	1	3
668.929	1	8
669.268	1	-1
669.607	1	2
669.946	1	0
670.285	1	11
670.623	1	-6
670.962	1	-5
671.301	1	3
671.640	1	13
671.979	1	-3
672.317	1	5
672.656	1	-5
672.995	1	-5
673.334	1	0
673.673	1	5
674.011	1	2
674.350	1	3
674.689	1	3
675.028	1	0
675.367	1	2
675.705	1	-5
676.044	1	5
676.383	1	1
676.722	1	-1
677.060	1	-6
677.399	1	-4
677.738	1	7
678.077	1	11
678.416	1	-3
678.754	1	1
679.093	1	-5
679.432	1	-5
679.771	1	5
680.109	1	2
680.448	1	5
680.787	1	-6
681.125	1	3
681.464	1	-3
681.803	1	3
682.142	1	-2
682.480	1	8
682.819	1	3
683.158	1	-3
683.496	1	5
683.835	1	-11
684.174	1	9
684.512	1	1
684.851	1	-3
685.190	1	-2
685.529	1	7
685.867	1	-8
686.206	1	0
686.545	1	12
686.883	1	-4
687.222	1	-8
687.561	1	1
687.899	1	0
688.238	1	0
688.577	1	8
688.746	1	-1