File: Data/GaN_170K_550ms/GaN_sample D_spot 18_UVVIS_170 K_200um_550 ms 2x2mm1_44.txt
340.368	1	1
340.710	1	-13
341.052	1	5
341.394	1	3
341.737	1	-4
342.079	1	4
342.421	1	2
342.763	1	5
343.105	1	8
343.447	1	-7
343.789	1	4
344.131	1	-7
344.473	1	-2
344.815	1	7
345.157	1	8
345.499	1	-5
345.841	1	11
346.183	1	14
346.526	1	6
346.868	1	12
347.210	1	-5
347.552	1	12
347.894	1	1
348.236	1	-8
348.578	1	5
348.920	1	-6
349.262	1	-2
349.604	1	3
349.946	1	9
350.288	1	6
350.630	1	15
350.972	1	-1
351.314	1	8
351.656	1	-6
351.998	1	4
352.340	1	8
352.682	1	4
353.024	1	-1
353.366	1	6
353.708	1	15
354.050	1	-5
354.392	1	-5
354.734	1	13
355.076	1	5
355.418	1	-1
355.760	1	4
356.102	1	3
356.444	1	-1
356.785	1	-6
357.127	1	4
357.469	1	-7
357.811	1	-1
358.153	1	12
358.495	1	8
358.837	1	0
359.179	1	-8
359.521	1	6
359.863	1	2
360.205	1	9
360.547	1	6
360.889	1	2
361.231	1	4
361.572	1	7
361.914	1	1
362.256	1	-2
362.598	1	6
362.940	1	12
363.282	1	-3
363.624	1	9
363.966	1	1
364.308	1	2
364.649	1	-9
364.991	1	11
365.333	1	-2
365.675	1	4
366.017	1	-4
366.359	1	-6
366.701	1	-5
367.042	1	-3
367.384	1	4
367.726	1	11
368.068	1	6
368.410	1	3
368.752	1	4
369.093	1	-11
369.435	1	-1
369.777	1	2
370.119	1	-6
370.461	1	7
370.803	1	-2
371.144	1	3
371.486	1	-8
371.828	1	9
372.170	1	-1
372.512	1	-7
372.853	1	7
373.195	1	-6
373.537	1	9
373.879	1	11
374.220	1	8
374.562	1	0
374.904	1	-1
375.246	1	-2
375.588	1	-4
375.929	1	4
376.271	1	2
376.613	1	0
376.955	1	4
377.296	1	5
377.638	1	-4
377.980	1	-5
378.321	1	5
378.663	1	7
379.005	1	-7
379.347	1	6
379.688	1	5
380.030	1	-2
380.372	1	-5
380.714	1	10
381.055	1	7
381.397	1	-3
381.739	1	-12
382.080	1	-1
382.422	1	1
382.764	1	1
383.105	1	7
383.447	1	-2
383.789	1	9
384.130	1	-5
384.472	1	-6
384.814	1	3
385.156	1	1
385.497	1	7
385.839	1	-1
386.180	1	-2
386.522	1	4
386.864	1	5
387.205	1	-8
387.547	1	7
387.889	1	8
388.230	1	-6
388.572	1	1
388.914	1	-6
389.255	1	9
389.597	1	-3
389.939	1	-3
390.280	1	1
390.622	1	2
390.963	1	4
391.305	1	-4
391.647	1	-6
391.988	1	4
392.330	1	6
392.671	1	-1
393.013	1	0
393.355	1	9
393.696	1	10
394.038	1	2
394.379	1	-2
394.721	1	-4
395.062	1	-3
395.404	1	3
395.746	1	6
396.087	1	-3
396.429	1	5
396.770	1	8
397.112	1	-5
397.453	1	0
397.795	1	-6
398.136	1	4
398.478	1	-1
398.819	1	-2
399.161	1	-1
399.503	1	2
399.844	1	-9
400.186	1	-4
400.527	1	13
400.869	1	0
401.210	1	10
401.552	1	7
401.893	1	10
402.235	1	1
402.576	1	1
402.918	1	-4
403.259	1	5
403.601	1	16
403.942	1	0
404.284	1	-11
404.625	1	1
404.967	1	3
405.308	1	1
405.649	1	-8
405.991	1	4
406.332	1	-7
406.674	1	9
407.015	1	8
407.357	1	-8
407.698	1	1
408.040	1	5
408.381	1	-3
408.722	1	-6
409.064	1	2
409.405	1	4
409.747	1	-3
410.088	1	12
410.430	1	-1
410.771	1	-4
411.112	1	0
411.454	1	1
411.795	1	9
412.137	1	-11
412.478	1	0
412.819	1	-6
413.161	1	16
413.502	1	3
413.844	1	8
414.185	1	-2
414.526	1	5
414.868	1	-3
415.209	1	-18
415.550	1	-1
415.892	1	-1
416.233	1	7
416.575	1	-3
416.916	1	0
417.257	1	3
417.599	1	0
417.940	1	3
418.281	1	-2
418.623	1	2
418.964	1	-2
419.305	1	4
419.647	1	4
419.988	1	8
420.329	1	9
420.671	1	-7
421.012	1	3
421.353	1	10
421.695	1	-8
422.036	1	7
422.377	1	8
422.718	1	13
423.060	1	5
423.401	1	-3
423.742	1	2
424.084	1	14
424.425	1	-6
424.766	1	-3
425.107	1	-1
425.449	1	13
425.790	1	2
426.131	1	12
426.472	1	-1
426.814	1	-17
427.155	1	5
427.496	1	2
427.837	1	3
428.179	1	-3
428.520	1	-1
428.861	1	6
429.202	1	-5
429.544	1	-9
429.885	1	-4
430.226	1	-2
430.567	1	6
430.909	1	2
431.250	1	16
431.591	1	2
431.932	1	-11
432.273	1	3
432.615	1	-3
432.956	1	5
433.297	1	3
433.638	1	18
433.979	1	1
434.320	1	0
434.662	1	-13
435.003	1	-6
435.344	1	5
435.685	1	0
436.026	1	1
436.368	1	9
436.709	1	3
437.050	1	-4
437.391	1	-6
437.732	1	2
438.073	1	-4
438.414	1	-2
438.756	1	-1
439.097	1	9
439.438	1	4
439.779	1	9
440.120	1	-6
440.461	1	14
440.802	1	6
441.143	1	4
441.485	1	3
441.826	1	8
442.167	1	4
442.508	1	4
442.849	1	-9
443.190	1	-6
443.531	1	6
443.872	1	-2
444.213	1	5
444.554	1	-4
444.895	1	-9
445.237	1	-10
445.578	1	11
445.919	1	8
446.260	1	3
446.601	1	-7
446.942	1	13
447.283	1	0
447.624	1	4
447.965	1	1
448.306	1	-3
448.647	1	1
448.988	1	17
449.329	1	11
449.670	1	-12
450.011	1	7
450.352	1	2
450.693	1	7
451.034	1	0
451.375	1	-1
451.716	1	11
452.057	1	4
452.398	1	5
452.739	1	-1
453.080	1	0
453.421	1	2
453.762	1	-3
454.103	1	-3
454.444	1	-11
454.785	1	-7
455.126	1	9
455.467	1	-11
455.808	1	11
456.149	1	-8
456.490	1	9
456.831	1	-3
457.172	1	-1
457.513	1	9
457.854	1	10
458.195	1	2
458.536	1	-4
458.877	1	9
459.218	1	-3
459.559	1	-7
459.899	1	2
460.240	1	-7
460.581	1	9
460.922	1	7
461.263	1	1
461.604	1	9
461.945	1	2
462.286	1	1
462.627	1	10
462.968	1	3
463.309	1	8
463.649	1	5
463.990	1	-4
464.331	1	3
464.672	1	-7
465.013	1	9
465.354	1	3
465.695	1	7
466.036	1	-1
466.376	1	6
466.717	1	-2
467.058	1	1
467.399	1	8
467.740	1	-2
468.081	1	-3
468.422	1	1
468.762	1	10
469.103	1	0
469.444	1	4
469.785	1	-4
470.126	1	0
470.467	1	-4
470.807	1	-4
471.148	1	4
471.489	1	4
471.830	1	7
472.171	1	6
472.511	1	-2
472.852	1	7
473.193	1	8
473.534	1	3
473.875	1	-4
474.215	1	2
474.556	1	1
474.897	1	4
475.238	1	-5
475.578	1	5
475.919	1	5
476.260	1	7
476.601	1	6
476.942	1	-6
477.282	1	10
477.623	1	14
477.964	1	3
478.305	1	4
478.645	1	13
478.986	1	-1
479.327	1	-19
479.667	1	-1
480.008	1	4
480.349	1	-1
480.690	1	10
481.030	1	6
481.371	1	5
481.712	1	3
482.053	1	-8
482.393	1	4
482.734	1	9
483.075	1	2
483.415	1	5
483.756	1	6
484.097	1	-7
484.437	1	0
484.778	1	-11
485.119	1	3
485.459	1	-10
485.800	1	-2
486.141	1	10
486.481	1	-6
486.822	1	3
487.163	1	6
487.503	1	4
487.844	1	8
488.185	1	2
488.525	1	6
488.866	1	10
489.207	1	7
489.547	1	6
489.888	1	5
490.228	1	-3
490.569	1	10
490.910	1	0
491.250	1	5
491.591	1	0
491.932	1	10
492.272	1	15
492.613	1	8
492.953	1	-2
493.294	1	3
493.635	1	-2
493.975	1	-5
494.316	1	-8
494.656	1	3
494.997	1	0
495.337	1	2
495.678	1	-1
496.019	1	-4
496.359	1	-4
496.700	1	8
497.040	1	1
497.381	1	1
497.721	1	-2
498.062	1	6
498.403	1	11
498.743	1	12
499.084	1	4
499.424	1	6
499.765	1	-9
500.105	1	-4
500.446	1	5
500.786	1	4
501.127	1	2
501.467	1	-1
501.808	1	-2
502.148	1	13
502.489	1	-4
502.829	1	-2
503.170	1	16
503.510	1	-8
503.851	1	-2
504.191	1	3
504.532	1	-6
504.872	1	9
505.213	1	-5
505.553	1	-4
505.894	1	10
506.234	1	-5
506.575	1	6
506.915	1	4
507.256	1	8
507.596	1	11
507.936	1	9
508.277	1	-2
508.617	1	1
508.958	1	1
509.298	1	4
509.639	1	9
509.979	1	6
510.319	1	-2
510.660	1	1
511.000	1	5
511.341	1	10
511.681	1	-3
512.022	1	-1
512.362	1	-3
512.702	1	2
513.043	1	-2
513.383	1	-1
513.724	1	1
514.064	1	9
514.404	1	-6
514.745	1	-6
515.085	1	0
515.425	1	-1
515.766	1	3
516.106	1	-3
516.447	1	-7
516.787	1	9
517.127	1	0
517.468	1	0
517.808	1	12
518.148	1	7
518.489	1	12
518.829	1	1
519.169	1	-2
519.510	1	3
519.850	1	3
520.190	1	3
520.531	1	2
520.871	1	0
521.211	1	3
521.552	1	3
521.892	1	-2
522.232	1	-8
522.573	1	3
522.913	1	6
523.253	1	14
523.593	1	6
523.934	1	1
524.274	1	-2
524.614	1	6
524.955	1	-6
525.295	1	-6
525.635	1	4
525.975	1	2
526.316	1	5
526.656	1	7
526.996	1	4
527.337	1	3
527.677	1	2
528.017	1	-3
528.357	1	-1
528.698	1	-5
529.038	1	-4
529.378	1	0
529.718	1	9
530.058	1	2
530.399	1	7
530.739	1	2
531.079	1	7
531.419	1	12
531.760	1	-1
532.100	1	-5
532.440	1	5
532.780	1	-9
533.120	1	2
533.461	1	0
533.801	1	1
534.141	1	-8
534.481	1	12
534.821	1	2
535.162	1	8
535.502	1	4
535.842	1	7
536.182	1	6
536.522	1	10
536.862	1	10
537.203	1	-5
537.543	1	-1
537.883	1	4
538.223	1	0
538.563	1	-3
538.903	1	2
539.243	1	-1
539.584	1	6
539.924	1	-4
540.264	1	11
540.604	1	5
540.944	1	-3
541.284	1	6
541.624	1	-6
541.964	1	5
542.305	1	-1
542.645	1	-7
542.985	1	4
543.325	1	4
543.665	1	1
544.005	1	6
544.345	1	5
544.685	1	2
545.025	1	-1
545.365	1	3
545.705	1	2
546.045	1	-2
546.386	1	-4
546.726	1	-4
547.066	1	8
547.406	1	0
547.746	1	-7
548.086	1	-3
548.426	1	7
548.766	1	1
549.106	1	9
549.446	1	3
549.786	1	2
550.126	1	-5
550.466	1	-4
550.806	1	-1
551.146	1	1
551.486	1	-4
551.826	1	5
552.166	1	-2
552.506	1	-2
552.846	1	2
553.186	1	6
553.526	1	-7
553.866	1	-3
554.206	1	-5
554.546	1	-14
554.886	1	-2
555.226	1	-3
555.566	1	6
555.906	1	-7
556.246	1	4
556.586	1	2
556.926	1	-7
557.266	1	2
557.606	1	3
557.946	1	15
558.286	1	1
558.626	1	10
558.966	1	11
559.306	1	10
559.646	1	-5
559.986	1	6
560.325	1	-1
560.665	1	6
561.005	1	4
561.345	1	-3
561.685	1	-3
562.025	1	-9
562.365	1	-1
562.705	1	9
563.045	1	2
563.385	1	-4
563.725	1	-3
564.064	1	3
564.404	1	-5
564.744	1	0
565.084	1	4
565.424	1	2
565.764	1	-5
566.104	1	0
566.444	1	4
566.783	1	6
567.123	1	-2
567.463	1	-6
567.803	1	5
568.143	1	8
568.483	1	7
568.823	1	3
569.162	1	4
569.502	1	2
569.842	1	-2
570.182	1	-1
570.522	1	1
570.862	1	4
571.201	1	3
571.541	1	-7
571.881	1	-8
572.221	1	4
572.561	1	2
572.900	1	3
573.240	1	-3
573.580	1	-3
573.920	1	22
574.260	1	6
574.599	1	-7
574.939	1	-7
575.279	1	-10
575.619	1	12
575.959	1	-3
576.298	1	8
576.638	1	7
576.978	1	-5
577.318	1	2
577.657	1	7
577.997	1	-2
578.337	1	6
578.677	1	11
579.016	1	7
579.356	1	-1
579.696	1	2
580.036	1	2
580.375	1	-9
580.715	1	7
581.055	1	13
581.394	1	6
581.734	1	6
582.074	1	10
582.414	1	-2
582.753	1	2
583.093	1	-7
583.433	1	7
583.772	1	1
584.112	1	7
584.452	1	-11
584.791	1	-3
585.131	1	12
585.471	1	9
585.811	1	-1
586.150	1	1
586.490	1	2
586.830	1	1
587.169	1	15
587.509	1	2
587.849	1	1
588.188	1	-5
588.528	1	-8
588.867	1	8
589.207	1	-1
589.547	1	9
589.886	1	-8
590.226	1	2
590.566	1	-3
590.905	1	3
591.245	1	7
591.585	1	-3
591.924	1	-8
592.264	1	-10
592.603	1	-4
592.943	1	-1
593.283	1	9
593.622	1	-5
593.962	1	0
594.301	1	4
594.641	1	6
594.981	1	3
595.320	1	4
595.660	1	-8
595.999	1	-1
596.339	1	4
596.678	1	-2
597.018	1	0
597.358	1	-7
597.697	1	-4
598.037	1	1
598.376	1	1
598.716	1	0
599.055	1	-4
599.395	1	2
599.734	1	2
600.074	1	-6
600.413	1	-5
600.753	1	7
601.092	1	-9
601.432	1	-2
601.771	1	3
602.111	1	5
602.451	1	8
602.790	1	8
603.130	1	-2
603.469	1	-4
603.809	1	1
604.148	1	1
604.487	1	10
604.827	1	-6
605.166	1	8
605.506	1	-4
605.845	1	6
606.185	1	1
606.524	1	10
606.864	1	1
607.203	1	-2
607.543	1	8
607.882	1	2
608.222	1	3
608.561	1	7
608.901	1	8
609.240	1	-3
609.579	1	3
609.919	1	-1
610.258	1	6
610.598	1	6
610.937	1	1
611.277	1	0
611.616	1	1
611.955	1	8
612.295	1	0
612.634	1	-6
612.974	1	3
613.313	1	-9
613.652	1	12
613.992	1	0
614.331	1	1
614.671	1	8
615.010	1	2
615.349	1	-2
615.689	1	14
616.028	1	1
616.368	1	-7
616.707	1	6
617.046	1	-6
617.386	1	-4
617.725	1	8
618.064	1	-3
618.404	1	1
618.743	1	9
619.082	1	3
619.422	1	-6
619.761	1	2
620.100	1	-6
620.440	1	4
620.779	1	-5
621.118	1	3
621.458	1	5
621.797	1	0
622.136	1	5
622.476	1	-7
622.815	1	-4
623.154	1	9
623.494	1	5
623.833	1	8
624.172	1	-3
624.511	1	3
624.851	1	0
625.190	1	6
625.529	1	9
625.869	1	11
626.208	1	-3
626.547	1	-7
626.886	1	4
627.226	1	6
627.565	1	-7
627.904	1	-2
628.243	1	-5
628.583	1	-5
628.922	1	-5
629.261	1	2
629.600	1	5
629.940	1	2
630.279	1	9
630.618	1	-5
630.957	1	7
631.297	1	-3
631.636	1	12
631.975	1	-2
632.314	1	-2
632.653	1	6
632.993	1	-3
633.332	1	2
633.671	1	11
634.010	1	-1
634.349	1	-7
634.689	1	6
635.028	1	2
635.367	1	-3
635.706	1	-9
636.045	1	11
636.384	1	-10
636.724	1	7
637.063	1	7
637.402	1	8
637.741	1	-8
638.080	1	4
638.419	1	-5
638.759	1	7
639.098	1	0
639.437	1	-5
639.776	1	6
640.115	1	3
640.454	1	-2
640.793	1	1
641.132	1	5
641.472	1	-3
641.811	1	0
642.150	1	-1
642.489	1	-5
642.828	1	0
643.167	1	-2
643.506	1	8
643.845	1	2
644.184	1	7
644.524	1	3
644.863	1	-17
645.202	1	6
645.541	1	11
645.880	1	4
646.219	1	3
646.558	1	-1
646.897	1	9
647.236	1	-3
647.575	1	-9
647.914	1	5
648.253	1	0
648.592	1	6
648.931	1	0
649.270	1	2
649.610	1	6
649.949	1	-3
650.288	1	1
650.627	1	-3
650.966	1	2
651.305	1	-3
651.644	1	5
651.983	1	3
652.322	1	-10
652.661	1	4
653.000	1	-5
653.339	1	8
653.678	1	1
654.017	1	4
654.356	1	5
654.695	1	12
655.034	1	8
655.373	1	-1
655.712	1	-7
656.051	1	1
656.390	1	-2
656.729	1	0
657.068	1	6
657.406	1	0
657.745	1	4
658.084	1	-2
658.423	1	4
658.762	1	3
659.101	1	11
659.440	1	-3
659.779	1	7
660.118	1	1
660.457	1	3
660.796	1	-1
661.135	1	-9
661.474	1	10
661.813	1	-1
662.152	1	8
662.491	1	-7
662.829	1	-4
663.168	1	7
663.507	1	-2
663.846	1	-7
664.185	1	11
664.524	1	3
664.863	1	0
665.202	1	13
665.541	1	7
665.879	1	6
666.218	1	10
666.557	1	6
666.896	1	4
667.235	1	-2
667.574	1	-9
667.913	1	-3
668.251	1	10
668.590	1	-7
668.929	1	-3
669.268	1	-5
669.607	1	-5
669.946	1	3
670.285	1	8
670.623	1	2
670.962	1	-2
671.301	1	9
671.640	1	4
671.979	1	4
672.317	1	12
672.656	1	-1
672.995	1	-4
673.334	1	3
673.673	1	-3
674.011	1	3
674.350	1	2
674.689	1	2
675.028	1	-4
675.367	1	-3
675.705	1	8
676.044	1	11
676.383	1	11
676.722	1	14
677.060	1	-3
677.399	1	3
677.738	1	-3
678.077	1	9
678.416	1	-3
678.754	1	-1
679.093	1	4
679.432	1	7
679.771	1	2
680.109	1	3
680.448	1	11
680.787	1	-12
681.125	1	8
681.464	1	11
681.803	1	7
682.142	1	-1
682.480	1	0
682.819	1	3
683.158	1	0
683.496	1	9
683.835	1	0
684.174	1	4
684.512	1	-6
684.851	1	0
685.190	1	0
685.529	1	10
685.867	1	8
686.206	1	9
686.545	1	5
686.883	1	6
687.222	1	3
687.561	1	7
687.899	1	-10
688.238	1	1
688.577	1	3
688.746	1	-9