File: Data/GaN_170K_550ms/GaN_sample D_spot 18_UVVIS_170 K_200um_550 ms 2x2mm1_256.txt
340.368	1	-7
340.710	1	-9
341.052	1	6
341.394	1	6
341.737	1	-3
342.079	1	-6
342.421	1	5
342.763	1	12
343.105	1	10
343.447	1	-5
343.789	1	1
344.131	1	5
344.473	1	5
344.815	1	6
345.157	1	-5
345.499	1	-6
345.841	1	4
346.183	1	1
346.526	1	5
346.868	1	19
347.210	1	-2
347.552	1	1
347.894	1	2
348.236	1	-7
348.578	1	9
348.920	1	2
349.262	1	8
349.604	1	11
349.946	1	6
350.288	1	0
350.630	1	3
350.972	1	-6
351.314	1	-3
351.656	1	-3
351.998	1	8
352.340	1	6
352.682	1	3
353.024	1	0
353.366	1	-1
353.708	1	8
354.050	1	-2
354.392	1	-9
354.734	1	1
355.076	1	1
355.418	1	4
355.760	1	-3
356.102	1	2
356.444	1	-4
356.785	1	9
357.127	1	-6
357.469	1	-7
357.811	1	2
358.153	1	9
358.495	1	-2
358.837	1	-4
359.179	1	-2
359.521	1	14
359.863	1	10
360.205	1	15
360.547	1	8
360.889	1	15
361.231	1	6
361.572	1	9
361.914	1	4
362.256	1	7
362.598	1	0
362.940	1	12
363.282	1	8
363.624	1	17
363.966	1	1
364.308	1	16
364.649	1	-1
364.991	1	22
365.333	1	3
365.675	1	14
366.017	1	5
366.359	1	9
366.701	1	8
367.042	1	5
367.384	1	17
367.726	1	25
368.068	1	17
368.410	1	20
368.752	1	7
369.093	1	6
369.435	1	10
369.777	1	13
370.119	1	12
370.461	1	12
370.803	1	10
371.144	1	13
371.486	1	-1
371.828	1	10
372.170	1	8
372.512	1	9
372.853	1	16
373.195	1	7
373.537	1	15
373.879	1	10
374.220	1	15
374.562	1	-2
374.904	1	10
375.246	1	1
375.588	1	3
375.929	1	5
376.271	1	6
376.613	1	8
376.955	1	9
377.296	1	9
377.638	1	14
377.980	1	-6
378.321	1	0
378.663	1	6
379.005	1	5
379.347	1	2
379.688	1	8
380.030	1	-1
380.372	1	14
380.714	1	16
381.055	1	-2
381.397	1	-2
381.739	1	-2
382.080	1	-3
382.422	1	12
382.764	1	-1
383.105	1	0
383.447	1	8
383.789	1	17
384.130	1	0
384.472	1	6
384.814	1	8
385.156	1	-3
385.497	1	5
385.839	1	2
386.180	1	3
386.522	1	12
386.864	1	10
387.205	1	-7
387.547	1	7
387.889	1	8
388.230	1	-4
388.572	1	7
388.914	1	0
389.255	1	4
389.597	1	5
389.939	1	-3
390.280	1	-4
390.622	1	5
390.963	1	1
391.305	1	0
391.647	1	-6
391.988	1	6
392.330	1	3
392.671	1	-4
393.013	1	-3
393.355	1	5
393.696	1	17
394.038	1	-1
394.379	1	-4
394.721	1	-2
395.062	1	5
395.404	1	6
395.746	1	8
396.087	1	7
396.429	1	0
396.770	1	11
397.112	1	10
397.453	1	-1
397.795	1	6
398.136	1	4
398.478	1	7
398.819	1	8
399.161	1	1
399.503	1	1
399.844	1	-1
400.186	1	-1
400.527	1	11
400.869	1	-2
401.210	1	16
401.552	1	2
401.893	1	4
402.235	1	15
402.576	1	0
402.918	1	3
403.259	1	9
403.601	1	14
403.942	1	6
404.284	1	-3
404.625	1	4
404.967	1	4
405.308	1	-3
405.649	1	-3
405.991	1	4
406.332	1	-2
406.674	1	8
407.015	1	9
407.357	1	-6
407.698	1	4
408.040	1	1
408.381	1	-2
408.722	1	-1
409.064	1	8
409.405	1	-1
409.747	1	7
410.088	1	10
410.430	1	-1
410.771	1	6
411.112	1	-1
411.454	1	5
411.795	1	14
412.137	1	-3
412.478	1	2
412.819	1	-3
413.161	1	5
413.502	1	0
413.844	1	8
414.185	1	-2
414.526	1	9
414.868	1	1
415.209	1	-18
415.550	1	1
415.892	1	2
416.233	1	7
416.575	1	3
416.916	1	-3
417.257	1	2
417.599	1	-2
417.940	1	5
418.281	1	-9
418.623	1	7
418.964	1	-10
419.305	1	-2
419.647	1	-1
419.988	1	-2
420.329	1	6
420.671	1	-3
421.012	1	6
421.353	1	13
421.695	1	-6
422.036	1	4
422.377	1	4
422.718	1	12
423.060	1	-7
423.401	1	-2
423.742	1	-5
424.084	1	25
424.425	1	-9
424.766	1	-6
425.107	1	-2
425.449	1	1
425.790	1	6
426.131	1	2
426.472	1	4
426.814	1	-16
427.155	1	4
427.496	1	5
427.837	1	10
428.179	1	-3
428.520	1	5
428.861	1	3
429.202	1	2
429.544	1	-2
429.885	1	-2
430.226	1	5
430.567	1	-1
430.909	1	-6
431.250	1	3
431.591	1	-3
431.932	1	0
432.273	1	1
432.615	1	1
432.956	1	4
433.297	1	-10
433.638	1	11
433.979	1	3
434.320	1	12
434.662	1	-14
435.003	1	4
435.344	1	4
435.685	1	0
436.026	1	-2
436.368	1	-3
436.709	1	2
437.050	1	-2
437.391	1	-3
437.732	1	0
438.073	1	-1
438.414	1	-3
438.756	1	2
439.097	1	7
439.438	1	6
439.779	1	2
440.120	1	-7
440.461	1	12
440.802	1	16
441.143	1	-2
441.485	1	-8
441.826	1	9
442.167	1	-4
442.508	1	7
442.849	1	6
443.190	1	-2
443.531	1	-12
443.872	1	-6
444.213	1	-2
444.554	1	3
444.895	1	-7
445.237	1	-8
445.578	1	7
445.919	1	7
446.260	1	8
446.601	1	-4
446.942	1	2
447.283	1	8
447.624	1	-8
447.965	1	5
448.306	1	-4
448.647	1	1
448.988	1	8
449.329	1	4
449.670	1	-15
450.011	1	10
450.352	1	-12
450.693	1	-2
451.034	1	2
451.375	1	8
451.716	1	0
452.057	1	4
452.398	1	10
452.739	1	2
453.080	1	-6
453.421	1	4
453.762	1	-3
454.103	1	1
454.444	1	-5
454.785	1	-1
455.126	1	4
455.467	1	-8
455.808	1	7
456.149	1	0
456.490	1	2
456.831	1	-2
457.172	1	-4
457.513	1	5
457.854	1	14
458.195	1	0
458.536	1	0
458.877	1	5
459.218	1	-1
459.559	1	2
459.899	1	-2
460.240	1	-2
460.581	1	5
460.922	1	-3
461.263	1	4
461.604	1	6
461.945	1	-2
462.286	1	-6
462.627	1	3
462.968	1	14
463.309	1	4
463.649	1	5
463.990	1	-3
464.331	1	5
464.672	1	1
465.013	1	6
465.354	1	-8
465.695	1	-4
466.036	1	-8
466.376	1	8
466.717	1	0
467.058	1	8
467.399	1	9
467.740	1	2
468.081	1	-3
468.422	1	6
468.762	1	10
469.103	1	12
469.444	1	7
469.785	1	-1
470.126	1	10
470.467	1	9
470.807	1	-3
471.148	1	-7
471.489	1	-1
471.830	1	-3
472.171	1	4
472.511	1	-2
472.852	1	4
473.193	1	0
473.534	1	1
473.875	1	9
474.215	1	-2
474.556	1	10
474.897	1	0
475.238	1	-8
475.578	1	-1
475.919	1	7
476.260	1	0
476.601	1	3
476.942	1	-4
477.282	1	11
477.623	1	8
477.964	1	3
478.305	1	-9
478.645	1	4
478.986	1	-3
479.327	1	-6
479.667	1	2
480.008	1	17
480.349	1	6
480.690	1	0
481.030	1	1
481.371	1	-4
481.712	1	6
482.053	1	-1
482.393	1	-1
482.734	1	9
483.075	1	6
483.415	1	1
483.756	1	5
484.097	1	-8
484.437	1	6
484.778	1	-14
485.119	1	9
485.459	1	0
485.800	1	-4
486.141	1	8
486.481	1	6
486.822	1	-1
487.163	1	6
487.503	1	5
487.844	1	8
488.185	1	4
488.525	1	8
488.866	1	2
489.207	1	1
489.547	1	14
489.888	1	1
490.228	1	3
490.569	1	4
490.910	1	4
491.250	1	9
491.591	1	6
491.932	1	7
492.272	1	11
492.613	1	1
492.953	1	1
493.294	1	-7
493.635	1	7
493.975	1	-1
494.316	1	-2
494.656	1	-2
494.997	1	-3
495.337	1	8
495.678	1	1
496.019	1	-5
496.359	1	-3
496.700	1	8
497.040	1	5
497.381	1	-1
497.721	1	-4
498.062	1	-6
498.403	1	14
498.743	1	11
499.084	1	3
499.424	1	14
499.765	1	-14
500.105	1	-3
500.446	1	-2
500.786	1	-4
501.127	1	8
501.467	1	-5
501.808	1	-1
502.148	1	10
502.489	1	2
502.829	1	10
503.170	1	5
503.510	1	2
503.851	1	5
504.191	1	-4
504.532	1	-11
504.872	1	-1
505.213	1	0
505.553	1	0
505.894	1	9
506.234	1	-3
506.575	1	-7
506.915	1	8
507.256	1	-4
507.596	1	10
507.936	1	10
508.277	1	-2
508.617	1	9
508.958	1	-2
509.298	1	4
509.639	1	7
509.979	1	5
510.319	1	-14
510.660	1	1
511.000	1	-6
511.341	1	9
511.681	1	2
512.022	1	5
512.362	1	0
512.702	1	7
513.043	1	9
513.383	1	0
513.724	1	-3
514.064	1	7
514.404	1	-6
514.745	1	2
515.085	1	3
515.425	1	9
515.766	1	0
516.106	1	7
516.447	1	2
516.787	1	9
517.127	1	12
517.468	1	2
517.808	1	10
518.148	1	9
518.489	1	8
518.829	1	3
519.169	1	-1
519.510	1	11
519.850	1	2
520.190	1	-2
520.531	1	4
520.871	1	2
521.211	1	1
521.552	1	4
521.892	1	6
522.232	1	-11
522.573	1	9
522.913	1	10
523.253	1	24
523.593	1	5
523.934	1	8
524.274	1	7
524.614	1	5
524.955	1	-1
525.295	1	3
525.635	1	8
525.975	1	3
526.316	1	16
526.656	1	10
526.996	1	7
527.337	1	9
527.677	1	0
528.017	1	4
528.357	1	-5
528.698	1	-6
529.038	1	2
529.378	1	5
529.718	1	16
530.058	1	4
530.399	1	2
530.739	1	-1
531.079	1	8
531.419	1	3
531.760	1	3
532.100	1	-2
532.440	1	-7
532.780	1	-13
533.120	1	6
533.461	1	1
533.801	1	2
534.141	1	-4
534.481	1	13
534.821	1	11
535.162	1	6
535.502	1	5
535.842	1	5
536.182	1	0
536.522	1	6
536.862	1	6
537.203	1	-3
537.543	1	2
537.883	1	1
538.223	1	11
538.563	1	0
538.903	1	7
539.243	1	0
539.584	1	0
539.924	1	-12
540.264	1	9
540.604	1	6
540.944	1	-8
541.284	1	0
541.624	1	0
541.964	1	5
542.305	1	0
542.645	1	-5
542.985	1	11
543.325	1	0
543.665	1	6
544.005	1	9
544.345	1	-2
544.685	1	0
545.025	1	-2
545.365	1	2
545.705	1	7
546.045	1	-2
546.386	1	9
546.726	1	-4
547.066	1	15
547.406	1	-1
547.746	1	-2
548.086	1	2
548.426	1	12
548.766	1	8
549.106	1	2
549.446	1	-3
549.786	1	-3
550.126	1	3
550.466	1	1
550.806	1	-3
551.146	1	3
551.486	1	0
551.826	1	5
552.166	1	0
552.506	1	8
552.846	1	1
553.186	1	6
553.526	1	1
553.866	1	-7
554.206	1	6
554.546	1	-7
554.886	1	0
555.226	1	-9
555.566	1	5
555.906	1	-8
556.246	1	0
556.586	1	-6
556.926	1	11
557.266	1	1
557.606	1	2
557.946	1	4
558.286	1	-3
558.626	1	14
558.966	1	6
559.306	1	9
559.646	1	0
559.986	1	4
560.325	1	2
560.665	1	3
561.005	1	3
561.345	1	3
561.685	1	0
562.025	1	-7
562.365	1	4
562.705	1	11
563.045	1	6
563.385	1	8
563.725	1	1
564.064	1	8
564.404	1	-5
564.744	1	6
565.084	1	3
565.424	1	-1
565.764	1	3
566.104	1	8
566.444	1	10
566.783	1	14
567.123	1	4
567.463	1	2
567.803	1	7
568.143	1	-3
568.483	1	7
568.823	1	9
569.162	1	6
569.502	1	2
569.842	1	-5
570.182	1	8
570.522	1	6
570.862	1	0
571.201	1	2
571.541	1	-3
571.881	1	-3
572.221	1	1
572.561	1	-2
572.900	1	-2
573.240	1	5
573.580	1	5
573.920	1	9
574.260	1	0
574.599	1	-4
574.939	1	-8
575.279	1	-8
575.619	1	9
575.959	1	-8
576.298	1	1
576.638	1	3
576.978	1	-4
577.318	1	-4
577.657	1	4
577.997	1	-2
578.337	1	3
578.677	1	-2
579.016	1	4
579.356	1	5
579.696	1	-8
580.036	1	4
580.375	1	-2
580.715	1	-4
581.055	1	0
581.394	1	2
581.734	1	10
582.074	1	3
582.414	1	-10
582.753	1	5
583.093	1	2
583.433	1	14
583.772	1	-3
584.112	1	8
584.452	1	-2
584.791	1	-9
585.131	1	5
585.471	1	1
585.811	1	-11
586.150	1	0
586.490	1	3
586.830	1	-7
587.169	1	11
587.509	1	0
587.849	1	0
588.188	1	-1
588.528	1	0
588.867	1	-5
589.207	1	1
589.547	1	11
589.886	1	-12
590.226	1	1
590.566	1	-3
590.905	1	15
591.245	1	-1
591.585	1	-3
591.924	1	-3
592.264	1	-2
592.603	1	-3
592.943	1	4
593.283	1	2
593.622	1	-8
593.962	1	10
594.301	1	4
594.641	1	9
594.981	1	6
595.320	1	-6
595.660	1	-6
595.999	1	6
596.339	1	6
596.678	1	-2
597.018	1	1
597.358	1	-6
597.697	1	6
598.037	1	4
598.376	1	-11
598.716	1	6
599.055	1	7
599.395	1	-3
599.734	1	15
600.074	1	2
600.413	1	-12
600.753	1	5
601.092	1	-5
601.432	1	3
601.771	1	2
602.111	1	-1
602.451	1	5
602.790	1	2
603.130	1	-1
603.469	1	1
603.809	1	-5
604.148	1	8
604.487	1	6
604.827	1	-10
605.166	1	0
605.506	1	-7
605.845	1	6
606.185	1	7
606.524	1	2
606.864	1	0
607.203	1	4
607.543	1	0
607.882	1	-1
608.222	1	2
608.561	1	7
608.901	1	2
609.240	1	5
609.579	1	4
609.919	1	1
610.258	1	10
610.598	1	2
610.937	1	-1
611.277	1	5
611.616	1	3
611.955	1	10
612.295	1	-6
612.634	1	-6
612.974	1	-3
613.313	1	-1
613.652	1	15
613.992	1	-6
614.331	1	-8
614.671	1	6
615.010	1	4
615.349	1	-3
615.689	1	10
616.028	1	2
616.368	1	3
616.707	1	6
617.046	1	-1
617.386	1	-5
617.725	1	3
618.064	1	2
618.404	1	1
618.743	1	10
619.082	1	10
619.422	1	2
619.761	1	0
620.100	1	0
620.440	1	8
620.779	1	-1
621.118	1	8
621.458	1	1
621.797	1	5
622.136	1	2
622.476	1	0
622.815	1	3
623.154	1	13
623.494	1	-4
623.833	1	8
624.172	1	0
624.511	1	16
624.851	1	-4
625.190	1	5
625.529	1	11
625.869	1	1
626.208	1	0
626.547	1	-4
626.886	1	7
627.226	1	15
627.565	1	2
627.904	1	-5
628.243	1	-2
628.583	1	-5
628.922	1	-13
629.261	1	6
629.600	1	-6
629.940	1	-8
630.279	1	5
630.618	1	-6
630.957	1	0
631.297	1	-2
631.636	1	8
631.975	1	-2
632.314	1	1
632.653	1	9
632.993	1	-1
633.332	1	1
633.671	1	10
634.010	1	4
634.349	1	-4
634.689	1	3
635.028	1	5
635.367	1	-3
635.706	1	1
636.045	1	8
636.384	1	0
636.724	1	12
637.063	1	8
637.402	1	10
637.741	1	-1
638.080	1	7
638.419	1	-2
638.759	1	-1
639.098	1	-8
639.437	1	-8
639.776	1	7
640.115	1	11
640.454	1	0
640.793	1	-3
641.132	1	2
641.472	1	-4
641.811	1	11
642.150	1	-5
642.489	1	4
642.828	1	0
643.167	1	0
643.506	1	0
643.845	1	5
644.184	1	4
644.524	1	5
644.863	1	-8
645.202	1	8
645.541	1	-3
645.880	1	0
646.219	1	3
646.558	1	8
646.897	1	0
647.236	1	-3
647.575	1	-6
647.914	1	1
648.253	1	2
648.592	1	5
648.931	1	0
649.270	1	2
649.610	1	1
649.949	1	-3
650.288	1	-8
650.627	1	7
650.966	1	1
651.305	1	-8
651.644	1	9
651.983	1	-1
652.322	1	-1
652.661	1	2
653.000	1	6
653.339	1	-6
653.678	1	0
654.017	1	10
654.356	1	-2
654.695	1	10
655.034	1	0
655.373	1	3
655.712	1	-9
656.051	1	7
656.390	1	-2
656.729	1	6
657.068	1	-2
657.406	1	5
657.745	1	10
658.084	1	-5
658.423	1	-5
658.762	1	-3
659.101	1	-7
659.440	1	-6
659.779	1	8
660.118	1	1
660.457	1	15
660.796	1	3
661.135	1	-15
661.474	1	4
661.813	1	-3
662.152	1	-1
662.491	1	-11
662.829	1	-1
663.168	1	10
663.507	1	-4
663.846	1	-3
664.185	1	5
664.524	1	9
664.863	1	2
665.202	1	15
665.541	1	6
665.879	1	1
666.218	1	15
666.557	1	0
666.896	1	9
667.235	1	0
667.574	1	-8
667.913	1	-10
668.251	1	8
668.590	1	-9
668.929	1	-5
669.268	1	5
669.607	1	-3
669.946	1	-1
670.285	1	14
670.623	1	9
670.962	1	5
671.301	1	6
671.640	1	0
671.979	1	1
672.317	1	3
672.656	1	-1
672.995	1	-3
673.334	1	3
673.673	1	0
674.011	1	11
674.350	1	2
674.689	1	2
675.028	1	2
675.367	1	2
675.705	1	7
676.044	1	12
676.383	1	-4
676.722	1	17
677.060	1	-5
677.399	1	1
677.738	1	0
678.077	1	10
678.416	1	-2
678.754	1	0
679.093	1	-4
679.432	1	4
679.771	1	13
680.109	1	-9
680.448	1	7
680.787	1	-7
681.125	1	2
681.464	1	9
681.803	1	4
682.142	1	0
682.480	1	8
682.819	1	10
683.158	1	-3
683.496	1	6
683.835	1	-1
684.174	1	-7
684.512	1	-1
684.851	1	0
685.190	1	2
685.529	1	4
685.867	1	0
686.206	1	5
686.545	1	7
686.883	1	0
687.222	1	-5
687.561	1	-4
687.899	1	-10
688.238	1	-7
688.577	1	6
688.746	1	-4