File: Data/GaN_170K_550ms/GaN_sample D_spot 18_UVVIS_170 K_200um_550 ms 2x2mm1_106.txt
340.368	1	5
340.710	1	-7
341.052	1	8
341.394	1	-4
341.737	1	14
342.079	1	7
342.421	1	9
342.763	1	4
343.105	1	2
343.447	1	-2
343.789	1	3
344.131	1	6
344.473	1	9
344.815	1	11
345.157	1	1
345.499	1	-3
345.841	1	3
346.183	1	7
346.526	1	1
346.868	1	8
347.210	1	-8
347.552	1	12
347.894	1	12
348.236	1	6
348.578	1	8
348.920	1	-4
349.262	1	15
349.604	1	13
349.946	1	6
350.288	1	4
350.630	1	6
350.972	1	-2
351.314	1	5
351.656	1	3
351.998	1	10
352.340	1	6
352.682	1	7
353.024	1	5
353.366	1	8
353.708	1	4
354.050	1	6
354.392	1	6
354.734	1	14
355.076	1	5
355.418	1	12
355.760	1	0
356.102	1	7
356.444	1	4
356.785	1	9
357.127	1	9
357.469	1	6
357.811	1	10
358.153	1	17
358.495	1	16
358.837	1	23
359.179	1	15
359.521	1	17
359.863	1	10
360.205	1	28
360.547	1	26
360.889	1	31
361.231	1	24
361.572	1	32
361.914	1	16
362.256	1	23
362.598	1	34
362.940	1	47
363.282	1	31
363.624	1	44
363.966	1	43
364.308	1	46
364.649	1	38
364.991	1	52
365.333	1	48
365.675	1	64
366.017	1	58
366.359	1	62
366.701	1	62
367.042	1	69
367.384	1	82
367.726	1	89
368.068	1	79
368.410	1	83
368.752	1	80
369.093	1	76
369.435	1	76
369.777	1	91
370.119	1	71
370.461	1	78
370.803	1	68
371.144	1	70
371.486	1	56
371.828	1	76
372.170	1	61
372.512	1	56
372.853	1	63
373.195	1	67
373.537	1	63
373.879	1	56
374.220	1	59
374.562	1	44
374.904	1	39
375.246	1	35
375.588	1	43
375.929	1	37
376.271	1	42
376.613	1	38
376.955	1	39
377.296	1	27
377.638	1	26
377.980	1	18
378.321	1	32
378.663	1	27
379.005	1	29
379.347	1	28
379.688	1	24
380.030	1	22
380.372	1	30
380.714	1	20
381.055	1	10
381.397	1	35
381.739	1	13
382.080	1	10
382.422	1	25
382.764	1	13
383.105	1	18
383.447	1	20
383.789	1	26
384.130	1	9
384.472	1	9
384.814	1	17
385.156	1	12
385.497	1	19
385.839	1	5
386.180	1	24
386.522	1	18
386.864	1	18
387.205	1	0
387.547	1	9
387.889	1	18
388.230	1	4
388.572	1	13
388.914	1	0
389.255	1	20
389.597	1	7
389.939	1	13
390.280	1	11
390.622	1	10
390.963	1	0
391.305	1	8
391.647	1	-1
391.988	1	15
392.330	1	16
392.671	1	-2
393.013	1	8
393.355	1	8
393.696	1	13
394.038	1	5
394.379	1	3
394.721	1	2
395.062	1	2
395.404	1	11
395.746	1	17
396.087	1	9
396.429	1	4
396.770	1	12
397.112	1	3
397.453	1	15
397.795	1	-4
398.136	1	9
398.478	1	10
398.819	1	0
399.161	1	-1
399.503	1	9
399.844	1	0
400.186	1	9
400.527	1	15
400.869	1	0
401.210	1	0
401.552	1	6
401.893	1	9
402.235	1	8
402.576	1	7
402.918	1	4
403.259	1	-3
403.601	1	12
403.942	1	2
404.284	1	-3
404.625	1	5
404.967	1	7
405.308	1	12
405.649	1	14
405.991	1	8
406.332	1	-5
406.674	1	6
407.015	1	0
407.357	1	1
407.698	1	0
408.040	1	3
408.381	1	1
408.722	1	-6
409.064	1	-2
409.405	1	14
409.747	1	-2
410.088	1	22
410.430	1	-3
410.771	1	7
411.112	1	2
411.454	1	3
411.795	1	2
412.137	1	-4
412.478	1	-4
412.819	1	-7
413.161	1	15
413.502	1	3
413.844	1	10
414.185	1	-2
414.526	1	8
414.868	1	-3
415.209	1	-22
415.550	1	6
415.892	1	5
416.233	1	1
416.575	1	0
416.916	1	-5
417.257	1	5
417.599	1	6
417.940	1	0
418.281	1	-10
418.623	1	1
418.964	1	2
419.305	1	5
419.647	1	13
419.988	1	6
420.329	1	4
420.671	1	-7
421.012	1	5
421.353	1	0
421.695	1	-7
422.036	1	2
422.377	1	4
422.718	1	0
423.060	1	-2
423.401	1	-2
423.742	1	-2
424.084	1	23
424.425	1	0
424.766	1	-5
425.107	1	7
425.449	1	6
425.790	1	8
426.131	1	14
426.472	1	-1
426.814	1	-6
427.155	1	18
427.496	1	2
427.837	1	11
428.179	1	1
428.520	1	13
428.861	1	3
429.202	1	-11
429.544	1	-8
429.885	1	7
430.226	1	3
430.567	1	6
430.909	1	2
431.250	1	14
431.591	1	3
431.932	1	-14
432.273	1	3
432.615	1	5
432.956	1	11
433.297	1	-6
433.638	1	9
433.979	1	4
434.320	1	16
434.662	1	-8
435.003	1	2
435.344	1	0
435.685	1	6
436.026	1	9
436.368	1	9
436.709	1	8
437.050	1	-2
437.391	1	-1
437.732	1	0
438.073	1	-6
438.414	1	-5
438.756	1	7
439.097	1	9
439.438	1	2
439.779	1	11
440.120	1	-9
440.461	1	20
440.802	1	11
441.143	1	-1
441.485	1	-5
441.826	1	-1
442.167	1	11
442.508	1	-2
442.849	1	-1
443.190	1	-9
443.531	1	2
443.872	1	-2
444.213	1	4
444.554	1	0
444.895	1	-20
445.237	1	-4
445.578	1	7
445.919	1	6
446.260	1	10
446.601	1	1
446.942	1	12
447.283	1	8
447.624	1	-5
447.965	1	3
448.306	1	-2
448.647	1	-1
448.988	1	16
449.329	1	-3
449.670	1	-16
450.011	1	10
450.352	1	-5
450.693	1	-5
451.034	1	-4
451.375	1	4
451.716	1	4
452.057	1	-1
452.398	1	5
452.739	1	-3
453.080	1	0
453.421	1	3
453.762	1	-4
454.103	1	0
454.444	1	0
454.785	1	1
455.126	1	23
455.467	1	-6
455.808	1	3
456.149	1	0
456.490	1	7
456.831	1	0
457.172	1	1
457.513	1	13
457.854	1	19
458.195	1	-3
458.536	1	-2
458.877	1	7
459.218	1	1
459.559	1	2
459.899	1	4
460.240	1	1
460.581	1	5
460.922	1	9
461.263	1	-4
461.604	1	12
461.945	1	9
462.286	1	-2
462.627	1	6
462.968	1	17
463.309	1	16
463.649	1	6
463.990	1	-10
464.331	1	3
464.672	1	-2
465.013	1	15
465.354	1	0
465.695	1	7
466.036	1	-11
466.376	1	8
466.717	1	2
467.058	1	9
467.399	1	17
467.740	1	2
468.081	1	3
468.422	1	5
468.762	1	11
469.103	1	2
469.444	1	7
469.785	1	2
470.126	1	13
470.467	1	7
470.807	1	3
471.148	1	-7
471.489	1	4
471.830	1	-12
472.171	1	8
472.511	1	-6
472.852	1	6
473.193	1	6
473.534	1	15
473.875	1	-2
474.215	1	6
474.556	1	5
474.897	1	10
475.238	1	-2
475.578	1	3
475.919	1	10
476.260	1	12
476.601	1	-1
476.942	1	-2
477.282	1	6
477.623	1	13
477.964	1	6
478.305	1	-4
478.645	1	0
478.986	1	-1
479.327	1	-3
479.667	1	2
480.008	1	12
480.349	1	6
480.690	1	9
481.030	1	2
481.371	1	-1
481.712	1	5
482.053	1	-2
482.393	1	1
482.734	1	5
483.075	1	5
483.415	1	10
483.756	1	0
484.097	1	-1
484.437	1	6
484.778	1	6
485.119	1	9
485.459	1	7
485.800	1	-2
486.141	1	8
486.481	1	6
486.822	1	1
487.163	1	15
487.503	1	5
487.844	1	7
488.185	1	7
488.525	1	8
488.866	1	26
489.207	1	5
489.547	1	16
489.888	1	11
490.228	1	-4
490.569	1	11
490.910	1	3
491.250	1	3
491.591	1	2
491.932	1	6
492.272	1	10
492.613	1	1
492.953	1	7
493.294	1	9
493.635	1	4
493.975	1	8
494.316	1	6
494.656	1	5
494.997	1	7
495.337	1	15
495.678	1	5
496.019	1	-7
496.359	1	12
496.700	1	16
497.040	1	7
497.381	1	12
497.721	1	-1
498.062	1	6
498.403	1	12
498.743	1	9
499.084	1	17
499.424	1	11
499.765	1	1
500.105	1	-5
500.446	1	7
500.786	1	7
501.127	1	9
501.467	1	1
501.808	1	6
502.148	1	8
502.489	1	3
502.829	1	4
503.170	1	11
503.510	1	14
503.851	1	7
504.191	1	4
504.532	1	-7
504.872	1	9
505.213	1	8
505.553	1	13
505.894	1	20
506.234	1	7
506.575	1	18
506.915	1	7
507.256	1	10
507.596	1	10
507.936	1	23
508.277	1	0
508.617	1	16
508.958	1	7
509.298	1	9
509.639	1	12
509.979	1	10
510.319	1	5
510.660	1	10
511.000	1	9
511.341	1	17
511.681	1	7
512.022	1	11
512.362	1	8
512.702	1	1
513.043	1	18
513.383	1	14
513.724	1	6
514.064	1	5
514.404	1	3
514.745	1	9
515.085	1	11
515.425	1	5
515.766	1	7
516.106	1	3
516.447	1	10
516.787	1	17
517.127	1	12
517.468	1	14
517.808	1	17
518.148	1	12
518.489	1	16
518.829	1	12
519.169	1	6
519.510	1	11
519.850	1	9
520.190	1	21
520.531	1	14
520.871	1	15
521.211	1	10
521.552	1	14
521.892	1	14
522.232	1	8
522.573	1	11
522.913	1	21
523.253	1	22
523.593	1	16
523.934	1	7
524.274	1	14
524.614	1	14
524.955	1	7
525.295	1	15
525.635	1	16
525.975	1	8
526.316	1	23
526.656	1	13
526.996	1	11
527.337	1	5
527.677	1	8
528.017	1	21
528.357	1	7
528.698	1	-2
529.038	1	7
529.378	1	8
529.718	1	24
530.058	1	23
530.399	1	20
530.739	1	9
531.079	1	9
531.419	1	13
531.760	1	14
532.100	1	13
532.440	1	21
532.780	1	8
533.120	1	17
533.461	1	15
533.801	1	12
534.141	1	9
534.481	1	25
534.821	1	14
535.162	1	13
535.502	1	17
535.842	1	13
536.182	1	4
536.522	1	10
536.862	1	13
537.203	1	9
537.543	1	10
537.883	1	13
538.223	1	13
538.563	1	15
538.903	1	17
539.243	1	14
539.584	1	13
539.924	1	4
540.264	1	12
540.604	1	19
540.944	1	3
541.284	1	18
541.624	1	13
541.964	1	9
542.305	1	11
542.645	1	10
542.985	1	18
543.325	1	15
543.665	1	14
544.005	1	13
544.345	1	8
544.685	1	11
545.025	1	11
545.365	1	11
545.705	1	17
546.045	1	11
546.386	1	6
546.726	1	7
547.066	1	10
547.406	1	11
547.746	1	3
548.086	1	14
548.426	1	10
548.766	1	17
549.106	1	20
549.446	1	20
549.786	1	14
550.126	1	8
550.466	1	8
550.806	1	10
551.146	1	13
551.486	1	8
551.826	1	13
552.166	1	9
552.506	1	15
552.846	1	6
553.186	1	14
553.526	1	1
553.866	1	6
554.206	1	17
554.546	1	7
554.886	1	1
555.226	1	4
555.566	1	19
555.906	1	1
556.246	1	21
556.586	1	4
556.926	1	15
557.266	1	14
557.606	1	7
557.946	1	13
558.286	1	20
558.626	1	15
558.966	1	9
559.306	1	15
559.646	1	3
559.986	1	8
560.325	1	6
560.665	1	16
561.005	1	8
561.345	1	3
561.685	1	12
562.025	1	1
562.365	1	7
562.705	1	11
563.045	1	3
563.385	1	14
563.725	1	9
564.064	1	10
564.404	1	2
564.744	1	13
565.084	1	11
565.424	1	6
565.764	1	5
566.104	1	8
566.444	1	9
566.783	1	10
567.123	1	7
567.463	1	3
567.803	1	8
568.143	1	8
568.483	1	12
568.823	1	7
569.162	1	11
569.502	1	2
569.842	1	2
570.182	1	2
570.522	1	7
570.862	1	1
571.201	1	10
571.541	1	1
571.881	1	6
572.221	1	7
572.561	1	8
572.900	1	0
573.240	1	6
573.580	1	4
573.920	1	20
574.260	1	5
574.599	1	5
574.939	1	2
575.279	1	1
575.619	1	14
575.959	1	0
576.298	1	11
576.638	1	15
576.978	1	2
577.318	1	2
577.657	1	9
577.997	1	2
578.337	1	10
578.677	1	3
579.016	1	2
579.356	1	12
579.696	1	5
580.036	1	5
580.375	1	9
580.715	1	7
581.055	1	7
581.394	1	3
581.734	1	13
582.074	1	9
582.414	1	-6
582.753	1	8
583.093	1	9
583.433	1	11
583.772	1	-2
584.112	1	8
584.452	1	0
584.791	1	3
585.131	1	12
585.471	1	13
585.811	1	-6
586.150	1	-5
586.490	1	12
586.830	1	-6
587.169	1	17
587.509	1	15
587.849	1	9
588.188	1	5
588.528	1	10
588.867	1	4
589.207	1	3
589.547	1	11
589.886	1	-3
590.226	1	5
590.566	1	11
590.905	1	11
591.245	1	4
591.585	1	1
591.924	1	3
592.264	1	4
592.603	1	1
592.943	1	2
593.283	1	9
593.622	1	-6
593.962	1	5
594.301	1	13
594.641	1	10
594.981	1	6
595.320	1	5
595.660	1	2
595.999	1	13
596.339	1	20
596.678	1	2
597.018	1	4
597.358	1	-7
597.697	1	2
598.037	1	4
598.376	1	-7
598.716	1	9
599.055	1	2
599.395	1	-7
599.734	1	22
600.074	1	2
600.413	1	3
600.753	1	13
601.092	1	3
601.432	1	2
601.771	1	10
602.111	1	7
602.451	1	15
602.790	1	20
603.130	1	6
603.469	1	11
603.809	1	5
604.148	1	9
604.487	1	10
604.827	1	-14
605.166	1	5
605.506	1	-1
605.845	1	3
606.185	1	10
606.524	1	3
606.864	1	5
607.203	1	-2
607.543	1	12
607.882	1	-8
608.222	1	-1
608.561	1	4
608.901	1	8
609.240	1	2
609.579	1	8
609.919	1	4
610.258	1	12
610.598	1	10
610.937	1	8
611.277	1	-4
611.616	1	4
611.955	1	7
612.295	1	-4
612.634	1	2
612.974	1	4
613.313	1	-5
613.652	1	17
613.992	1	6
614.331	1	8
614.671	1	15
615.010	1	6
615.349	1	-3
615.689	1	5
616.028	1	-3
616.368	1	13
616.707	1	9
617.046	1	-2
617.386	1	4
617.725	1	8
618.064	1	-5
618.404	1	5
618.743	1	8
619.082	1	3
619.422	1	-10
619.761	1	-6
620.100	1	1
620.440	1	8
620.779	1	2
621.118	1	-11
621.458	1	13
621.797	1	7
622.136	1	-4
622.476	1	-3
622.815	1	6
623.154	1	10
623.494	1	8
623.833	1	12
624.172	1	8
624.511	1	4
624.851	1	-1
625.190	1	13
625.529	1	10
625.869	1	5
626.208	1	5
626.547	1	-2
626.886	1	0
627.226	1	4
627.565	1	5
627.904	1	0
628.243	1	1
628.583	1	-4
628.922	1	-16
629.261	1	-2
629.600	1	3
629.940	1	10
630.279	1	4
630.618	1	2
630.957	1	11
631.297	1	2
631.636	1	14
631.975	1	6
632.314	1	7
632.653	1	12
632.993	1	2
633.332	1	7
633.671	1	15
634.010	1	8
634.349	1	-4
634.689	1	13
635.028	1	5
635.367	1	5
635.706	1	5
636.045	1	10
636.384	1	4
636.724	1	5
637.063	1	7
637.402	1	13
637.741	1	1
638.080	1	11
638.419	1	3
638.759	1	3
639.098	1	1
639.437	1	6
639.776	1	2
640.115	1	7
640.454	1	1
640.793	1	-2
641.132	1	5
641.472	1	-6
641.811	1	5
642.150	1	2
642.489	1	-2
642.828	1	12
643.167	1	0
643.506	1	2
643.845	1	-1
644.184	1	10
644.524	1	1
644.863	1	-5
645.202	1	13
645.541	1	5
645.880	1	7
646.219	1	0
646.558	1	10
646.897	1	13
647.236	1	3
647.575	1	-7
647.914	1	5
648.253	1	-2
648.592	1	7
648.931	1	2
649.270	1	5
649.610	1	12
649.949	1	0
650.288	1	10
650.627	1	0
650.966	1	6
651.305	1	-3
651.644	1	8
651.983	1	10
652.322	1	12
652.661	1	-5
653.000	1	-2
653.339	1	-8
653.678	1	-3
654.017	1	4
654.356	1	-5
654.695	1	5
655.034	1	0
655.373	1	9
655.712	1	-3
656.051	1	-6
656.390	1	-1
656.729	1	14
657.068	1	7
657.406	1	2
657.745	1	8
658.084	1	-11
658.423	1	3
658.762	1	3
659.101	1	1
659.440	1	5
659.779	1	-3
660.118	1	3
660.457	1	10
660.796	1	-7
661.135	1	-16
661.474	1	7
661.813	1	-3
662.152	1	0
662.491	1	-1
662.829	1	-2
663.168	1	6
663.507	1	6
663.846	1	1
664.185	1	1
664.524	1	7
664.863	1	9
665.202	1	13
665.541	1	-2
665.879	1	11
666.218	1	10
666.557	1	0
666.896	1	4
667.235	1	0
667.574	1	-3
667.913	1	-1
668.251	1	8
668.590	1	2
668.929	1	7
669.268	1	1
669.607	1	3
669.946	1	4
670.285	1	11
670.623	1	-1
670.962	1	0
671.301	1	-2
671.640	1	14
671.979	1	-2
672.317	1	8
672.656	1	8
672.995	1	-4
673.334	1	-5
673.673	1	5
674.011	1	1
674.350	1	0
674.689	1	12
675.028	1	7
675.367	1	9
675.705	1	13
676.044	1	10
676.383	1	9
676.722	1	21
677.060	1	1
677.399	1	-1
677.738	1	-1
678.077	1	13
678.416	1	-2
678.754	1	6
679.093	1	8
679.432	1	7
679.771	1	9
680.109	1	-5
680.448	1	3
680.787	1	-5
681.125	1	9
681.464	1	10
681.803	1	10
682.142	1	4
682.480	1	8
682.819	1	11
683.158	1	3
683.496	1	13
683.835	1	-8
684.174	1	1
684.512	1	3
684.851	1	6
685.190	1	3
685.529	1	14
685.867	1	10
686.206	1	9
686.545	1	11
686.883	1	3
687.222	1	9
687.561	1	-1
687.899	1	-5
688.238	1	1
688.577	1	18
688.746	1	0