File: Data/GaN_170K_550ms/GaN_sample D_spot 18_UVVIS_170 K_200um_550 ms 2x2mm1_81.txt
340.368	1	2
340.710	1	-3
341.052	1	7
341.394	1	3
341.737	1	-2
342.079	1	-6
342.421	1	2
342.763	1	7
343.105	1	15
343.447	1	-3
343.789	1	3
344.131	1	-3
344.473	1	3
344.815	1	12
345.157	1	6
345.499	1	4
345.841	1	10
346.183	1	9
346.526	1	7
346.868	1	6
347.210	1	-3
347.552	1	10
347.894	1	8
348.236	1	3
348.578	1	11
348.920	1	5
349.262	1	8
349.604	1	9
349.946	1	19
350.288	1	2
350.630	1	18
350.972	1	4
351.314	1	9
351.656	1	2
351.998	1	17
352.340	1	13
352.682	1	13
353.024	1	4
353.366	1	11
353.708	1	10
354.050	1	-4
354.392	1	15
354.734	1	18
355.076	1	10
355.418	1	9
355.760	1	14
356.102	1	21
356.444	1	15
356.785	1	8
357.127	1	18
357.469	1	15
357.811	1	23
358.153	1	20
358.495	1	20
358.837	1	15
359.179	1	16
359.521	1	43
359.863	1	25
360.205	1	39
360.547	1	40
360.889	1	41
361.231	1	46
361.572	1	58
361.914	1	51
362.256	1	45
362.598	1	56
362.940	1	72
363.282	1	77
363.624	1	75
363.966	1	77
364.308	1	93
364.649	1	82
364.991	1	108
365.333	1	105
365.675	1	120
366.017	1	133
366.359	1	146
366.701	1	152
367.042	1	152
367.384	1	173
367.726	1	194
368.068	1	173
368.410	1	192
368.752	1	185
369.093	1	168
369.435	1	181
369.777	1	195
370.119	1	170
370.461	1	158
370.803	1	166
371.144	1	148
371.486	1	132
371.828	1	129
372.170	1	123
372.512	1	109
372.853	1	124
373.195	1	91
373.537	1	106
373.879	1	100
374.220	1	108
374.562	1	94
374.904	1	86
375.246	1	93
375.588	1	75
375.929	1	72
376.271	1	79
376.613	1	78
376.955	1	70
377.296	1	72
377.638	1	63
377.980	1	56
378.321	1	50
378.663	1	60
379.005	1	32
379.347	1	49
379.688	1	47
380.030	1	49
380.372	1	39
380.714	1	50
381.055	1	40
381.397	1	43
381.739	1	27
382.080	1	28
382.422	1	37
382.764	1	31
383.105	1	43
383.447	1	40
383.789	1	44
384.130	1	26
384.472	1	30
384.814	1	23
385.156	1	28
385.497	1	31
385.839	1	18
386.180	1	26
386.522	1	20
386.864	1	26
387.205	1	23
387.547	1	18
387.889	1	17
388.230	1	16
388.572	1	16
388.914	1	19
389.255	1	26
389.597	1	27
389.939	1	17
390.280	1	19
390.622	1	22
390.963	1	18
391.305	1	9
391.647	1	1
391.988	1	18
392.330	1	16
392.671	1	9
393.013	1	15
393.355	1	16
393.696	1	12
394.038	1	4
394.379	1	14
394.721	1	13
395.062	1	13
395.404	1	7
395.746	1	16
396.087	1	16
396.429	1	12
396.770	1	17
397.112	1	6
397.453	1	18
397.795	1	1
398.136	1	9
398.478	1	3
398.819	1	3
399.161	1	5
399.503	1	8
399.844	1	3
400.186	1	5
400.527	1	25
400.869	1	11
401.210	1	15
401.552	1	8
401.893	1	14
402.235	1	7
402.576	1	14
402.918	1	13
403.259	1	14
403.601	1	16
403.942	1	11
404.284	1	2
404.625	1	11
404.967	1	5
405.308	1	6
405.649	1	0
405.991	1	14
406.332	1	0
406.674	1	25
407.015	1	14
407.357	1	1
407.698	1	4
408.040	1	10
408.381	1	14
408.722	1	-5
409.064	1	5
409.405	1	10
409.747	1	0
410.088	1	9
410.430	1	7
410.771	1	8
411.112	1	1
411.454	1	2
411.795	1	22
412.137	1	-6
412.478	1	-2
412.819	1	3
413.161	1	-3
413.502	1	6
413.844	1	15
414.185	1	5
414.526	1	11
414.868	1	8
415.209	1	-6
415.550	1	6
415.892	1	6
416.233	1	-1
416.575	1	5
416.916	1	-3
417.257	1	1
417.599	1	1
417.940	1	0
418.281	1	2
418.623	1	6
418.964	1	-4
419.305	1	5
419.647	1	12
419.988	1	13
420.329	1	8
420.671	1	-3
421.012	1	7
421.353	1	10
421.695	1	4
422.036	1	8
422.377	1	2
422.718	1	4
423.060	1	5
423.401	1	3
423.742	1	3
424.084	1	22
424.425	1	-8
424.766	1	-8
425.107	1	5
425.449	1	19
425.790	1	11
426.131	1	22
426.472	1	6
426.814	1	-9
427.155	1	12
427.496	1	3
427.837	1	11
428.179	1	6
428.520	1	7
428.861	1	3
429.202	1	6
429.544	1	0
429.885	1	-3
430.226	1	7
430.567	1	7
430.909	1	0
431.250	1	14
431.591	1	1
431.932	1	-2
432.273	1	-1
432.615	1	10
432.956	1	7
433.297	1	5
433.638	1	10
433.979	1	2
434.320	1	8
434.662	1	-5
435.003	1	9
435.344	1	8
435.685	1	1
436.026	1	0
436.368	1	14
436.709	1	2
437.050	1	7
437.391	1	3
437.732	1	4
438.073	1	1
438.414	1	3
438.756	1	-1
439.097	1	2
439.438	1	2
439.779	1	17
440.120	1	-3
440.461	1	15
440.802	1	7
441.143	1	5
441.485	1	-6
441.826	1	3
442.167	1	3
442.508	1	-1
442.849	1	1
443.190	1	11
443.531	1	4
443.872	1	-1
444.213	1	0
444.554	1	2
444.895	1	-8
445.237	1	-2
445.578	1	12
445.919	1	8
446.260	1	5
446.601	1	2
446.942	1	9
447.283	1	12
447.624	1	1
447.965	1	10
448.306	1	1
448.647	1	6
448.988	1	10
449.329	1	8
449.670	1	-10
450.011	1	12
450.352	1	-8
450.693	1	-5
451.034	1	-2
451.375	1	13
451.716	1	4
452.057	1	2
452.398	1	1
452.739	1	5
453.080	1	2
453.421	1	7
453.762	1	0
454.103	1	0
454.444	1	-3
454.785	1	5
455.126	1	8
455.467	1	-1
455.808	1	10
456.149	1	7
456.490	1	8
456.831	1	4
457.172	1	4
457.513	1	13
457.854	1	10
458.195	1	6
458.536	1	-1
458.877	1	5
459.218	1	-1
459.559	1	-5
459.899	1	5
460.240	1	-6
460.581	1	6
460.922	1	10
461.263	1	-2
461.604	1	6
461.945	1	-2
462.286	1	-8
462.627	1	7
462.968	1	11
463.309	1	11
463.649	1	13
463.990	1	5
464.331	1	3
464.672	1	9
465.013	1	17
465.354	1	3
465.695	1	8
466.036	1	-12
466.376	1	10
466.717	1	3
467.058	1	3
467.399	1	1
467.740	1	-6
468.081	1	0
468.422	1	11
468.762	1	9
469.103	1	14
469.444	1	6
469.785	1	-6
470.126	1	8
470.467	1	6
470.807	1	-3
471.148	1	5
471.489	1	4
471.830	1	0
472.171	1	8
472.511	1	5
472.852	1	2
473.193	1	15
473.534	1	12
473.875	1	2
474.215	1	10
474.556	1	9
474.897	1	7
475.238	1	0
475.578	1	12
475.919	1	10
476.260	1	12
476.601	1	8
476.942	1	-2
477.282	1	17
477.623	1	15
477.964	1	10
478.305	1	-3
478.645	1	3
478.986	1	6
479.327	1	-7
479.667	1	4
480.008	1	3
480.349	1	7
480.690	1	6
481.030	1	8
481.371	1	9
481.712	1	8
482.053	1	-7
482.393	1	-3
482.734	1	10
483.075	1	4
483.415	1	5
483.756	1	10
484.097	1	-10
484.437	1	4
484.778	1	2
485.119	1	11
485.459	1	-2
485.800	1	6
486.141	1	18
486.481	1	19
486.822	1	16
487.163	1	12
487.503	1	8
487.844	1	2
488.185	1	7
488.525	1	13
488.866	1	18
489.207	1	13
489.547	1	11
489.888	1	11
490.228	1	6
490.569	1	13
490.910	1	2
491.250	1	8
491.591	1	9
491.932	1	13
492.272	1	24
492.613	1	18
492.953	1	9
493.294	1	9
493.635	1	2
493.975	1	2
494.316	1	6
494.656	1	7
494.997	1	15
495.337	1	14
495.678	1	15
496.019	1	4
496.359	1	14
496.700	1	24
497.040	1	14
497.381	1	19
497.721	1	1
498.062	1	7
498.403	1	23
498.743	1	24
499.084	1	5
499.424	1	14
499.765	1	7
500.105	1	10
500.446	1	5
500.786	1	7
501.127	1	21
501.467	1	8
501.808	1	13
502.148	1	19
502.489	1	17
502.829	1	22
503.170	1	28
503.510	1	19
503.851	1	15
504.191	1	14
504.532	1	10
504.872	1	16
505.213	1	13
505.553	1	12
505.894	1	30
506.234	1	10
506.575	1	21
506.915	1	21
507.256	1	7
507.596	1	29
507.936	1	34
508.277	1	13
508.617	1	27
508.958	1	13
509.298	1	17
509.639	1	31
509.979	1	27
510.319	1	14
510.660	1	9
511.000	1	16
511.341	1	25
511.681	1	24
512.022	1	23
512.362	1	16
512.702	1	14
513.043	1	23
513.383	1	30
513.724	1	14
514.064	1	18
514.404	1	29
514.745	1	19
515.085	1	11
515.425	1	23
515.766	1	22
516.106	1	24
516.447	1	26
516.787	1	29
517.127	1	23
517.468	1	34
517.808	1	33
518.148	1	19
518.489	1	35
518.829	1	22
519.169	1	21
519.510	1	24
519.850	1	24
520.190	1	24
520.531	1	34
520.871	1	16
521.211	1	26
521.552	1	37
521.892	1	30
522.232	1	17
522.573	1	41
522.913	1	32
523.253	1	37
523.593	1	28
523.934	1	25
524.274	1	34
524.614	1	26
524.955	1	17
525.295	1	28
525.635	1	24
525.975	1	33
526.316	1	44
526.656	1	29
526.996	1	38
527.337	1	37
527.677	1	24
528.017	1	33
528.357	1	29
528.698	1	25
529.038	1	27
529.378	1	38
529.718	1	40
530.058	1	34
530.399	1	35
530.739	1	35
531.079	1	46
531.419	1	37
531.760	1	26
532.100	1	20
532.440	1	43
532.780	1	31
533.120	1	34
533.461	1	28
533.801	1	25
534.141	1	26
534.481	1	30
534.821	1	27
535.162	1	30
535.502	1	14
535.842	1	35
536.182	1	20
536.522	1	30
536.862	1	36
537.203	1	28
537.543	1	25
537.883	1	26
538.223	1	33
538.563	1	17
538.903	1	14
539.243	1	24
539.584	1	18
539.924	1	17
540.264	1	29
540.604	1	30
540.944	1	16
541.284	1	23
541.624	1	12
541.964	1	24
542.305	1	24
542.645	1	34
542.985	1	36
543.325	1	31
543.665	1	24
544.005	1	34
544.345	1	37
544.685	1	16
545.025	1	19
545.365	1	25
545.705	1	27
546.045	1	25
546.386	1	13
546.726	1	25
547.066	1	38
547.406	1	14
547.746	1	21
548.086	1	27
548.426	1	31
548.766	1	27
549.106	1	29
549.446	1	24
549.786	1	34
550.126	1	25
550.466	1	19
550.806	1	16
551.146	1	26
551.486	1	26
551.826	1	20
552.166	1	18
552.506	1	28
552.846	1	29
553.186	1	20
553.526	1	21
553.866	1	9
554.206	1	17
554.546	1	11
554.886	1	14
555.226	1	8
555.566	1	18
555.906	1	16
556.246	1	24
556.586	1	13
556.926	1	27
557.266	1	18
557.606	1	16
557.946	1	20
558.286	1	17
558.626	1	25
558.966	1	21
559.306	1	20
559.646	1	17
559.986	1	22
560.325	1	27
560.665	1	24
561.005	1	12
561.345	1	15
561.685	1	20
562.025	1	11
562.365	1	20
562.705	1	32
563.045	1	11
563.385	1	15
563.725	1	19
564.064	1	13
564.404	1	15
564.744	1	25
565.084	1	16
565.424	1	23
565.764	1	11
566.104	1	11
566.444	1	17
566.783	1	18
567.123	1	9
567.463	1	20
567.803	1	17
568.143	1	15
568.483	1	10
568.823	1	13
569.162	1	11
569.502	1	17
569.842	1	9
570.182	1	8
570.522	1	19
570.862	1	25
571.201	1	12
571.541	1	11
571.881	1	3
572.221	1	16
572.561	1	19
572.900	1	16
573.240	1	3
573.580	1	6
573.920	1	21
574.260	1	23
574.599	1	15
574.939	1	12
575.279	1	13
575.619	1	22
575.959	1	11
576.298	1	18
576.638	1	15
576.978	1	10
577.318	1	8
577.657	1	16
577.997	1	6
578.337	1	16
578.677	1	20
579.016	1	13
579.356	1	17
579.696	1	5
580.036	1	16
580.375	1	9
580.715	1	17
581.055	1	17
581.394	1	17
581.734	1	14
582.074	1	21
582.414	1	3
582.753	1	13
583.093	1	13
583.433	1	21
583.772	1	12
584.112	1	16
584.452	1	6
584.791	1	8
585.131	1	22
585.471	1	10
585.811	1	4
586.150	1	7
586.490	1	14
586.830	1	10
587.169	1	13
587.509	1	9
587.849	1	10
588.188	1	5
588.528	1	9
588.867	1	7
589.207	1	11
589.547	1	13
589.886	1	6
590.226	1	8
590.566	1	13
590.905	1	19
591.245	1	5
591.585	1	8
591.924	1	7
592.264	1	-7
592.603	1	9
592.943	1	17
593.283	1	-1
593.622	1	-5
593.962	1	19
594.301	1	12
594.641	1	6
594.981	1	12
595.320	1	0
595.660	1	8
595.999	1	12
596.339	1	11
596.678	1	-1
597.018	1	6
597.358	1	-6
597.697	1	5
598.037	1	9
598.376	1	-4
598.716	1	7
599.055	1	10
599.395	1	9
599.734	1	12
600.074	1	10
600.413	1	8
600.753	1	8
601.092	1	6
601.432	1	5
601.771	1	12
602.111	1	1
602.451	1	7
602.790	1	12
603.130	1	2
603.469	1	17
603.809	1	5
604.148	1	12
604.487	1	10
604.827	1	-3
605.166	1	17
605.506	1	0
605.845	1	11
606.185	1	8
606.524	1	5
606.864	1	6
607.203	1	4
607.543	1	14
607.882	1	8
608.222	1	7
608.561	1	20
608.901	1	12
609.240	1	6
609.579	1	12
609.919	1	3
610.258	1	19
610.598	1	13
610.937	1	13
611.277	1	0
611.616	1	8
611.955	1	13
612.295	1	1
612.634	1	3
612.974	1	1
613.313	1	3
613.652	1	24
613.992	1	12
614.331	1	8
614.671	1	10
615.010	1	8
615.349	1	17
615.689	1	8
616.028	1	13
616.368	1	12
616.707	1	10
617.046	1	-1
617.386	1	4
617.725	1	16
618.064	1	11
618.404	1	0
618.743	1	11
619.082	1	15
619.422	1	5
619.761	1	0
620.100	1	2
620.440	1	17
620.779	1	-1
621.118	1	3
621.458	1	2
621.797	1	4
622.136	1	-2
622.476	1	7
622.815	1	8
623.154	1	0
623.494	1	3
623.833	1	4
624.172	1	13
624.511	1	14
624.851	1	0
625.190	1	17
625.529	1	6
625.869	1	18
626.208	1	-1
626.547	1	-6
626.886	1	8
627.226	1	9
627.565	1	12
627.904	1	4
628.243	1	4
628.583	1	3
628.922	1	-3
629.261	1	6
629.600	1	-4
629.940	1	3
630.279	1	-4
630.618	1	4
630.957	1	3
631.297	1	-2
631.636	1	8
631.975	1	-2
632.314	1	2
632.653	1	16
632.993	1	7
633.332	1	6
633.671	1	9
634.010	1	9
634.349	1	0
634.689	1	14
635.028	1	7
635.367	1	-5
635.706	1	4
636.045	1	18
636.384	1	-4
636.724	1	11
637.063	1	10
637.402	1	5
637.741	1	8
638.080	1	10
638.419	1	8
638.759	1	11
639.098	1	-7
639.437	1	-5
639.776	1	4
640.115	1	9
640.454	1	0
640.793	1	0
641.132	1	9
641.472	1	-2
641.811	1	17
642.150	1	11
642.489	1	2
642.828	1	-3
643.167	1	-2
643.506	1	12
643.845	1	13
644.184	1	19
644.524	1	3
644.863	1	-10
645.202	1	7
645.541	1	3
645.880	1	15
646.219	1	4
646.558	1	13
646.897	1	9
647.236	1	3
647.575	1	6
647.914	1	10
648.253	1	3
648.592	1	-2
648.931	1	4
649.270	1	2
649.610	1	7
649.949	1	5
650.288	1	8
650.627	1	-2
650.966	1	12
651.305	1	-2
651.644	1	11
651.983	1	-3
652.322	1	-2
652.661	1	1
653.000	1	3
653.339	1	3
653.678	1	5
654.017	1	5
654.356	1	0
654.695	1	4
655.034	1	7
655.373	1	2
655.712	1	-5
656.051	1	1
656.390	1	-1
656.729	1	11
657.068	1	4
657.406	1	7
657.745	1	9
658.084	1	6
658.423	1	-1
658.762	1	1
659.101	1	8
659.440	1	-1
659.779	1	15
660.118	1	8
660.457	1	10
660.796	1	6
661.135	1	-7
661.474	1	17
661.813	1	-5
662.152	1	8
662.491	1	-2
662.829	1	1
663.168	1	14
663.507	1	4
663.846	1	2
664.185	1	10
664.524	1	11
664.863	1	-4
665.202	1	15
665.541	1	4
665.879	1	8
666.218	1	17
666.557	1	6
666.896	1	10
667.235	1	9
667.574	1	-5
667.913	1	3
668.251	1	9
668.590	1	6
668.929	1	8
669.268	1	2
669.607	1	14
669.946	1	6
670.285	1	12
670.623	1	9
670.962	1	1
671.301	1	6
671.640	1	4
671.979	1	7
672.317	1	6
672.656	1	14
672.995	1	1
673.334	1	-1
673.673	1	11
674.011	1	14
674.350	1	9
674.689	1	0
675.028	1	-5
675.367	1	-6
675.705	1	7
676.044	1	10
676.383	1	4
676.722	1	10
677.060	1	1
677.399	1	2
677.738	1	9
678.077	1	10
678.416	1	10
678.754	1	7
679.093	1	2
679.432	1	7
679.771	1	13
680.109	1	7
680.448	1	10
680.787	1	1
681.125	1	4
681.464	1	11
681.803	1	11
682.142	1	8
682.480	1	10
682.819	1	7
683.158	1	-5
683.496	1	15
683.835	1	5
684.174	1	-1
684.512	1	6
684.851	1	7
685.190	1	9
685.529	1	14
685.867	1	10
686.206	1	13
686.545	1	19
686.883	1	2
687.222	1	6
687.561	1	9
687.899	1	-5
688.238	1	8
688.577	1	17
688.746	1	2