File: Data/GaN_170K_550ms/GaN_sample D_spot 18_UVVIS_170 K_200um_550 ms 2x2mm1_201.txt
340.368	1	-1
340.710	1	-11
341.052	1	5
341.394	1	4
341.737	1	-7
342.079	1	-1
342.421	1	9
342.763	1	8
343.105	1	7
343.447	1	-8
343.789	1	1
344.131	1	0
344.473	1	0
344.815	1	7
345.157	1	-8
345.499	1	-4
345.841	1	2
346.183	1	4
346.526	1	12
346.868	1	11
347.210	1	-3
347.552	1	8
347.894	1	-3
348.236	1	-2
348.578	1	1
348.920	1	-8
349.262	1	3
349.604	1	9
349.946	1	14
350.288	1	0
350.630	1	10
350.972	1	0
351.314	1	6
351.656	1	-1
351.998	1	11
352.340	1	10
352.682	1	14
353.024	1	2
353.366	1	5
353.708	1	8
354.050	1	-7
354.392	1	6
354.734	1	2
355.076	1	4
355.418	1	-11
355.760	1	7
356.102	1	6
356.444	1	1
356.785	1	3
357.127	1	3
357.469	1	-2
357.811	1	0
358.153	1	7
358.495	1	3
358.837	1	5
359.179	1	-2
359.521	1	9
359.863	1	4
360.205	1	12
360.547	1	13
360.889	1	16
361.231	1	6
361.572	1	7
361.914	1	10
362.256	1	17
362.598	1	5
362.940	1	24
363.282	1	15
363.624	1	16
363.966	1	10
364.308	1	9
364.649	1	9
364.991	1	15
365.333	1	16
365.675	1	20
366.017	1	17
366.359	1	13
366.701	1	10
367.042	1	18
367.384	1	24
367.726	1	28
368.068	1	19
368.410	1	21
368.752	1	14
369.093	1	14
369.435	1	16
369.777	1	15
370.119	1	11
370.461	1	30
370.803	1	13
371.144	1	15
371.486	1	17
371.828	1	19
372.170	1	28
372.512	1	7
372.853	1	19
373.195	1	14
373.537	1	26
373.879	1	4
374.220	1	19
374.562	1	11
374.904	1	9
375.246	1	6
375.588	1	12
375.929	1	8
376.271	1	17
376.613	1	-3
376.955	1	8
377.296	1	10
377.638	1	6
377.980	1	1
378.321	1	9
378.663	1	4
379.005	1	6
379.347	1	12
379.688	1	-2
380.030	1	16
380.372	1	-2
380.714	1	13
381.055	1	9
381.397	1	13
381.739	1	5
382.080	1	11
382.422	1	3
382.764	1	-1
383.105	1	6
383.447	1	14
383.789	1	10
384.130	1	5
384.472	1	-7
384.814	1	13
385.156	1	13
385.497	1	10
385.839	1	0
386.180	1	10
386.522	1	6
386.864	1	11
387.205	1	-3
387.547	1	12
387.889	1	6
388.230	1	5
388.572	1	2
388.914	1	4
389.255	1	5
389.597	1	12
389.939	1	6
390.280	1	9
390.622	1	7
390.963	1	4
391.305	1	-2
391.647	1	-17
391.988	1	10
392.330	1	10
392.671	1	-4
393.013	1	2
393.355	1	11
393.696	1	2
394.038	1	-4
394.379	1	3
394.721	1	-4
395.062	1	-5
395.404	1	5
395.746	1	6
396.087	1	7
396.429	1	14
396.770	1	5
397.112	1	-2
397.453	1	11
397.795	1	-1
398.136	1	1
398.478	1	2
398.819	1	5
399.161	1	-1
399.503	1	0
399.844	1	-5
400.186	1	4
400.527	1	16
400.869	1	0
401.210	1	9
401.552	1	3
401.893	1	13
402.235	1	5
402.576	1	-9
402.918	1	-1
403.259	1	12
403.601	1	10
403.942	1	6
404.284	1	-4
404.625	1	3
404.967	1	10
405.308	1	0
405.649	1	9
405.991	1	4
406.332	1	-5
406.674	1	2
407.015	1	2
407.357	1	3
407.698	1	5
408.040	1	4
408.381	1	6
408.722	1	3
409.064	1	7
409.405	1	5
409.747	1	2
410.088	1	14
410.430	1	-3
410.771	1	4
411.112	1	-7
411.454	1	7
411.795	1	15
412.137	1	-2
412.478	1	3
412.819	1	2
413.161	1	9
413.502	1	-2
413.844	1	5
414.185	1	-1
414.526	1	4
414.868	1	3
415.209	1	-14
415.550	1	0
415.892	1	8
416.233	1	1
416.575	1	-1
416.916	1	-3
417.257	1	8
417.599	1	5
417.940	1	-4
418.281	1	-10
418.623	1	2
418.964	1	-4
419.305	1	-3
419.647	1	-1
419.988	1	5
420.329	1	-3
420.671	1	0
421.012	1	1
421.353	1	2
421.695	1	-11
422.036	1	4
422.377	1	4
422.718	1	1
423.060	1	-1
423.401	1	-2
423.742	1	-6
424.084	1	17
424.425	1	4
424.766	1	1
425.107	1	3
425.449	1	6
425.790	1	1
426.131	1	11
426.472	1	-4
426.814	1	-10
427.155	1	9
427.496	1	-3
427.837	1	3
428.179	1	7
428.520	1	-5
428.861	1	5
429.202	1	-5
429.544	1	-6
429.885	1	11
430.226	1	9
430.567	1	3
430.909	1	-5
431.250	1	14
431.591	1	0
431.932	1	-7
432.273	1	2
432.615	1	-9
432.956	1	8
433.297	1	0
433.638	1	12
433.979	1	4
434.320	1	7
434.662	1	-2
435.003	1	8
435.344	1	1
435.685	1	-1
436.026	1	3
436.368	1	9
436.709	1	5
437.050	1	-7
437.391	1	-6
437.732	1	0
438.073	1	-1
438.414	1	-3
438.756	1	2
439.097	1	6
439.438	1	7
439.779	1	6
440.120	1	-2
440.461	1	10
440.802	1	11
441.143	1	-1
441.485	1	-4
441.826	1	5
442.167	1	9
442.508	1	-1
442.849	1	-1
443.190	1	-6
443.531	1	4
443.872	1	4
444.213	1	-2
444.554	1	8
444.895	1	-15
445.237	1	5
445.578	1	-4
445.919	1	-1
446.260	1	6
446.601	1	2
446.942	1	1
447.283	1	7
447.624	1	-6
447.965	1	-2
448.306	1	1
448.647	1	-2
448.988	1	8
449.329	1	4
449.670	1	-8
450.011	1	6
450.352	1	-11
450.693	1	-1
451.034	1	-3
451.375	1	4
451.716	1	8
452.057	1	4
452.398	1	-3
452.739	1	-3
453.080	1	3
453.421	1	5
453.762	1	2
454.103	1	-5
454.444	1	0
454.785	1	0
455.126	1	7
455.467	1	-9
455.808	1	14
456.149	1	-1
456.490	1	0
456.831	1	-2
457.172	1	3
457.513	1	11
457.854	1	6
458.195	1	5
458.536	1	9
458.877	1	-3
459.218	1	5
459.559	1	-4
459.899	1	2
460.240	1	4
460.581	1	6
460.922	1	-3
461.263	1	1
461.604	1	5
461.945	1	6
462.286	1	-11
462.627	1	7
462.968	1	7
463.309	1	2
463.649	1	6
463.990	1	-12
464.331	1	2
464.672	1	-2
465.013	1	10
465.354	1	-9
465.695	1	4
466.036	1	-11
466.376	1	5
466.717	1	0
467.058	1	2
467.399	1	11
467.740	1	-9
468.081	1	1
468.422	1	-4
468.762	1	17
469.103	1	12
469.444	1	3
469.785	1	-11
470.126	1	3
470.467	1	8
470.807	1	4
471.148	1	-3
471.489	1	-7
471.830	1	4
472.171	1	4
472.511	1	3
472.852	1	4
473.193	1	10
473.534	1	7
473.875	1	-2
474.215	1	1
474.556	1	6
474.897	1	-5
475.238	1	-11
475.578	1	-4
475.919	1	5
476.260	1	6
476.601	1	-3
476.942	1	-1
477.282	1	8
477.623	1	4
477.964	1	-2
478.305	1	-5
478.645	1	7
478.986	1	-5
479.327	1	-7
479.667	1	-2
480.008	1	-3
480.349	1	3
480.690	1	12
481.030	1	5
481.371	1	0
481.712	1	2
482.053	1	-6
482.393	1	0
482.734	1	-3
483.075	1	4
483.415	1	2
483.756	1	5
484.097	1	-5
484.437	1	1
484.778	1	-5
485.119	1	1
485.459	1	-2
485.800	1	7
486.141	1	4
486.481	1	3
486.822	1	6
487.163	1	2
487.503	1	-1
487.844	1	7
488.185	1	-4
488.525	1	7
488.866	1	5
489.207	1	8
489.547	1	15
489.888	1	0
490.228	1	-8
490.569	1	10
490.910	1	11
491.250	1	6
491.591	1	-4
491.932	1	1
492.272	1	3
492.613	1	2
492.953	1	6
493.294	1	-1
493.635	1	-2
493.975	1	6
494.316	1	-5
494.656	1	1
494.997	1	2
495.337	1	13
495.678	1	0
496.019	1	-8
496.359	1	-3
496.700	1	11
497.040	1	-1
497.381	1	6
497.721	1	-8
498.062	1	5
498.403	1	0
498.743	1	12
499.084	1	-2
499.424	1	7
499.765	1	-9
500.105	1	2
500.446	1	3
500.786	1	-1
501.127	1	0
501.467	1	-4
501.808	1	-4
502.148	1	7
502.489	1	-4
502.829	1	-3
503.170	1	10
503.510	1	-4
503.851	1	-6
504.191	1	-2
504.532	1	-5
504.872	1	8
505.213	1	-6
505.553	1	0
505.894	1	15
506.234	1	2
506.575	1	5
506.915	1	9
507.256	1	-3
507.596	1	2
507.936	1	15
508.277	1	-1
508.617	1	8
508.958	1	-1
509.298	1	5
509.639	1	13
509.979	1	6
510.319	1	-13
510.660	1	-5
511.000	1	10
511.341	1	4
511.681	1	0
512.022	1	3
512.362	1	-1
512.702	1	-5
513.043	1	8
513.383	1	2
513.724	1	8
514.064	1	12
514.404	1	0
514.745	1	7
515.085	1	9
515.425	1	7
515.766	1	10
516.106	1	5
516.447	1	2
516.787	1	6
517.127	1	11
517.468	1	8
517.808	1	12
518.148	1	0
518.489	1	17
518.829	1	2
519.169	1	-1
519.510	1	4
519.850	1	6
520.190	1	3
520.531	1	6
520.871	1	6
521.211	1	3
521.552	1	1
521.892	1	8
522.232	1	-2
522.573	1	7
522.913	1	12
523.253	1	15
523.593	1	9
523.934	1	1
524.274	1	4
524.614	1	6
524.955	1	5
525.295	1	11
525.635	1	2
525.975	1	-2
526.316	1	6
526.656	1	9
526.996	1	4
527.337	1	-5
527.677	1	0
528.017	1	8
528.357	1	-6
528.698	1	-5
529.038	1	0
529.378	1	2
529.718	1	12
530.058	1	5
530.399	1	7
530.739	1	-5
531.079	1	4
531.419	1	9
531.760	1	4
532.100	1	3
532.440	1	-2
532.780	1	-2
533.120	1	12
533.461	1	7
533.801	1	10
534.141	1	0
534.481	1	13
534.821	1	7
535.162	1	6
535.502	1	0
535.842	1	3
536.182	1	2
536.522	1	8
536.862	1	14
537.203	1	9
537.543	1	1
537.883	1	9
538.223	1	10
538.563	1	1
538.903	1	12
539.243	1	4
539.584	1	0
539.924	1	-1
540.264	1	-1
540.604	1	7
540.944	1	2
541.284	1	4
541.624	1	3
541.964	1	7
542.305	1	2
542.645	1	3
542.985	1	4
543.325	1	3
543.665	1	-5
544.005	1	20
544.345	1	0
544.685	1	3
545.025	1	3
545.365	1	4
545.705	1	8
546.045	1	1
546.386	1	3
546.726	1	9
547.066	1	10
547.406	1	8
547.746	1	3
548.086	1	1
548.426	1	9
548.766	1	7
549.106	1	23
549.446	1	8
549.786	1	-6
550.126	1	0
550.466	1	12
550.806	1	6
551.146	1	11
551.486	1	2
551.826	1	10
552.166	1	0
552.506	1	3
552.846	1	0
553.186	1	11
553.526	1	1
553.866	1	2
554.206	1	-1
554.546	1	-5
554.886	1	4
555.226	1	-7
555.566	1	2
555.906	1	-4
556.246	1	4
556.586	1	2
556.926	1	11
557.266	1	8
557.606	1	5
557.946	1	4
558.286	1	8
558.626	1	17
558.966	1	3
559.306	1	3
559.646	1	-5
559.986	1	5
560.325	1	5
560.665	1	5
561.005	1	6
561.345	1	0
561.685	1	-4
562.025	1	-8
562.365	1	4
562.705	1	6
563.045	1	-3
563.385	1	14
563.725	1	-5
564.064	1	4
564.404	1	3
564.744	1	5
565.084	1	5
565.424	1	8
565.764	1	-4
566.104	1	0
566.444	1	4
566.783	1	0
567.123	1	-6
567.463	1	-6
567.803	1	3
568.143	1	0
568.483	1	-2
568.823	1	3
569.162	1	4
569.502	1	6
569.842	1	3
570.182	1	-2
570.522	1	-6
570.862	1	5
571.201	1	11
571.541	1	-3
571.881	1	0
572.221	1	1
572.561	1	1
572.900	1	4
573.240	1	1
573.580	1	-1
573.920	1	13
574.260	1	12
574.599	1	-6
574.939	1	3
575.279	1	4
575.619	1	3
575.959	1	-8
576.298	1	1
576.638	1	9
576.978	1	2
577.318	1	0
577.657	1	-1
577.997	1	-6
578.337	1	7
578.677	1	3
579.016	1	10
579.356	1	4
579.696	1	-1
580.036	1	0
580.375	1	1
580.715	1	7
581.055	1	2
581.394	1	5
581.734	1	10
582.074	1	2
582.414	1	0
582.753	1	2
583.093	1	6
583.433	1	8
583.772	1	0
584.112	1	-2
584.452	1	-8
584.791	1	8
585.131	1	10
585.471	1	11
585.811	1	-1
586.150	1	1
586.490	1	1
586.830	1	-5
587.169	1	13
587.509	1	7
587.849	1	3
588.188	1	10
588.528	1	4
588.867	1	-1
589.207	1	-2
589.547	1	6
589.886	1	1
590.226	1	5
590.566	1	5
590.905	1	6
591.245	1	0
591.585	1	7
591.924	1	4
592.264	1	0
592.603	1	0
592.943	1	7
593.283	1	4
593.622	1	1
593.962	1	4
594.301	1	9
594.641	1	3
594.981	1	8
595.320	1	6
595.660	1	4
595.999	1	7
596.339	1	9
596.678	1	-5
597.018	1	4
597.358	1	0
597.697	1	1
598.037	1	-2
598.376	1	-3
598.716	1	-1
599.055	1	2
599.395	1	6
599.734	1	11
600.074	1	-6
600.413	1	-4
600.753	1	13
601.092	1	-8
601.432	1	-8
601.771	1	7
602.111	1	-4
602.451	1	5
602.790	1	11
603.130	1	-8
603.469	1	4
603.809	1	6
604.148	1	1
604.487	1	3
604.827	1	-6
605.166	1	10
605.506	1	-7
605.845	1	9
606.185	1	6
606.524	1	-5
606.864	1	-5
607.203	1	1
607.543	1	7
607.882	1	1
608.222	1	-5
608.561	1	2
608.901	1	3
609.240	1	-3
609.579	1	10
609.919	1	-5
610.258	1	0
610.598	1	6
610.937	1	3
611.277	1	5
611.616	1	9
611.955	1	12
612.295	1	0
612.634	1	-9
612.974	1	7
613.313	1	-1
613.652	1	15
613.992	1	5
614.331	1	5
614.671	1	9
615.010	1	4
615.349	1	4
615.689	1	8
616.028	1	10
616.368	1	-1
616.707	1	13
617.046	1	-5
617.386	1	3
617.725	1	8
618.064	1	3
618.404	1	-6
618.743	1	4
619.082	1	-1
619.422	1	-13
619.761	1	1
620.100	1	4
620.440	1	6
620.779	1	-2
621.118	1	-1
621.458	1	-2
621.797	1	10
622.136	1	3
622.476	1	-2
622.815	1	2
623.154	1	-4
623.494	1	-7
623.833	1	9
624.172	1	6
624.511	1	3
624.851	1	-5
625.190	1	7
625.529	1	9
625.869	1	10
626.208	1	6
626.547	1	-5
626.886	1	5
627.226	1	3
627.565	1	7
627.904	1	3
628.243	1	-1
628.583	1	4
628.922	1	-6
629.261	1	9
629.600	1	-7
629.940	1	-1
630.279	1	-1
630.618	1	1
630.957	1	3
631.297	1	-3
631.636	1	6
631.975	1	3
632.314	1	-3
632.653	1	8
632.993	1	2
633.332	1	2
633.671	1	12
634.010	1	12
634.349	1	0
634.689	1	5
635.028	1	3
635.367	1	-3
635.706	1	-5
636.045	1	6
636.384	1	-4
636.724	1	4
637.063	1	2
637.402	1	14
637.741	1	-4
638.080	1	6
638.419	1	-1
638.759	1	-2
639.098	1	-4
639.437	1	-12
639.776	1	1
640.115	1	6
640.454	1	4
640.793	1	1
641.132	1	-3
641.472	1	0
641.811	1	17
642.150	1	-6
642.489	1	-10
642.828	1	5
643.167	1	1
643.506	1	8
643.845	1	1
644.184	1	10
644.524	1	3
644.863	1	-5
645.202	1	3
645.541	1	2
645.880	1	-1
646.219	1	1
646.558	1	-2
646.897	1	4
647.236	1	3
647.575	1	-4
647.914	1	0
648.253	1	2
648.592	1	8
648.931	1	2
649.270	1	-1
649.610	1	-1
649.949	1	0
650.288	1	-3
650.627	1	-8
650.966	1	4
651.305	1	-2
651.644	1	5
651.983	1	4
652.322	1	-1
652.661	1	-3
653.000	1	-3
653.339	1	-8
653.678	1	4
654.017	1	5
654.356	1	-3
654.695	1	5
655.034	1	0
655.373	1	6
655.712	1	-12
656.051	1	7
656.390	1	-1
656.729	1	10
657.068	1	11
657.406	1	5
657.745	1	6
658.084	1	-5
658.423	1	5
658.762	1	2
659.101	1	6
659.440	1	-8
659.779	1	2
660.118	1	-3
660.457	1	8
660.796	1	-1
661.135	1	-10
661.474	1	14
661.813	1	6
662.152	1	10
662.491	1	-7
662.829	1	5
663.168	1	4
663.507	1	8
663.846	1	2
664.185	1	-3
664.524	1	7
664.863	1	3
665.202	1	9
665.541	1	4
665.879	1	4
666.218	1	6
666.557	1	13
666.896	1	1
667.235	1	-5
667.574	1	-8
667.913	1	-5
668.251	1	4
668.590	1	-5
668.929	1	3
669.268	1	0
669.607	1	-4
669.946	1	0
670.285	1	8
670.623	1	6
670.962	1	2
671.301	1	0
671.640	1	3
671.979	1	-7
672.317	1	12
672.656	1	-1
672.995	1	-6
673.334	1	-5
673.673	1	2
674.011	1	12
674.350	1	3
674.689	1	10
675.028	1	1
675.367	1	1
675.705	1	4
676.044	1	9
676.383	1	-4
676.722	1	8
677.060	1	-10
677.399	1	-2
677.738	1	6
678.077	1	23
678.416	1	-1
678.754	1	-5
679.093	1	7
679.432	1	3
679.771	1	1
680.109	1	-3
680.448	1	4
680.787	1	-2
681.125	1	4
681.464	1	10
681.803	1	4
682.142	1	-1
682.480	1	0
682.819	1	11
683.158	1	4
683.496	1	-1
683.835	1	-7
684.174	1	-5
684.512	1	-5
684.851	1	-8
685.190	1	-10
685.529	1	15
685.867	1	8
686.206	1	3
686.545	1	5
686.883	1	1
687.222	1	5
687.561	1	3
687.899	1	-11
688.238	1	-2
688.577	1	11
688.746	1	-9