File: Data/GaN_170K_550ms/GaN_sample D_spot 18_UVVIS_170 K_200um_550 ms 2x2mm1_157.txt
340.368	1	2
340.710	1	-10
341.052	1	-3
341.394	1	10
341.737	1	4
342.079	1	2
342.421	1	0
342.763	1	-2
343.105	1	16
343.447	1	-3
343.789	1	1
344.131	1	0
344.473	1	-7
344.815	1	9
345.157	1	-6
345.499	1	-3
345.841	1	9
346.183	1	12
346.526	1	12
346.868	1	2
347.210	1	-3
347.552	1	-4
347.894	1	2
348.236	1	-3
348.578	1	1
348.920	1	1
349.262	1	5
349.604	1	9
349.946	1	13
350.288	1	6
350.630	1	12
350.972	1	5
351.314	1	0
351.656	1	0
351.998	1	8
352.340	1	7
352.682	1	8
353.024	1	7
353.366	1	6
353.708	1	7
354.050	1	-1
354.392	1	15
354.734	1	12
355.076	1	-2
355.418	1	5
355.760	1	-4
356.102	1	5
356.444	1	1
356.785	1	1
357.127	1	1
357.469	1	4
357.811	1	6
358.153	1	14
358.495	1	7
358.837	1	0
359.179	1	3
359.521	1	10
359.863	1	12
360.205	1	13
360.547	1	5
360.889	1	21
361.231	1	15
361.572	1	19
361.914	1	16
362.256	1	13
362.598	1	20
362.940	1	30
363.282	1	22
363.624	1	21
363.966	1	7
364.308	1	6
364.649	1	20
364.991	1	24
365.333	1	16
365.675	1	19
366.017	1	23
366.359	1	24
366.701	1	24
367.042	1	17
367.384	1	35
367.726	1	32
368.068	1	34
368.410	1	33
368.752	1	15
369.093	1	25
369.435	1	31
369.777	1	37
370.119	1	21
370.461	1	45
370.803	1	18
371.144	1	38
371.486	1	31
371.828	1	37
372.170	1	39
372.512	1	24
372.853	1	17
373.195	1	26
373.537	1	33
373.879	1	23
374.220	1	26
374.562	1	11
374.904	1	21
375.246	1	13
375.588	1	7
375.929	1	20
376.271	1	17
376.613	1	19
376.955	1	17
377.296	1	17
377.638	1	29
377.980	1	5
378.321	1	3
378.663	1	14
379.005	1	15
379.347	1	5
379.688	1	8
380.030	1	10
380.372	1	11
380.714	1	20
381.055	1	7
381.397	1	13
381.739	1	13
382.080	1	2
382.422	1	8
382.764	1	7
383.105	1	9
383.447	1	7
383.789	1	28
384.130	1	7
384.472	1	-1
384.814	1	10
385.156	1	4
385.497	1	17
385.839	1	1
386.180	1	3
386.522	1	11
386.864	1	10
387.205	1	3
387.547	1	7
387.889	1	12
388.230	1	10
388.572	1	6
388.914	1	-2
389.255	1	16
389.597	1	5
389.939	1	8
390.280	1	-2
390.622	1	2
390.963	1	12
391.305	1	-3
391.647	1	2
391.988	1	6
392.330	1	7
392.671	1	9
393.013	1	3
393.355	1	9
393.696	1	8
394.038	1	-9
394.379	1	-6
394.721	1	5
395.062	1	3
395.404	1	2
395.746	1	10
396.087	1	1
396.429	1	7
396.770	1	16
397.112	1	1
397.453	1	14
397.795	1	-1
398.136	1	6
398.478	1	10
398.819	1	13
399.161	1	-1
399.503	1	4
399.844	1	-6
400.186	1	4
400.527	1	18
400.869	1	1
401.210	1	7
401.552	1	4
401.893	1	5
402.235	1	3
402.576	1	0
402.918	1	5
403.259	1	5
403.601	1	9
403.942	1	7
404.284	1	-2
404.625	1	0
404.967	1	5
405.308	1	8
405.649	1	6
405.991	1	5
406.332	1	-9
406.674	1	10
407.015	1	3
407.357	1	-2
407.698	1	-4
408.040	1	1
408.381	1	7
408.722	1	-1
409.064	1	-4
409.405	1	-3
409.747	1	-2
410.088	1	10
410.430	1	1
410.771	1	8
411.112	1	-5
411.454	1	2
411.795	1	8
412.137	1	-8
412.478	1	1
412.819	1	-5
413.161	1	8
413.502	1	3
413.844	1	10
414.185	1	-7
414.526	1	2
414.868	1	-3
415.209	1	-16
415.550	1	-5
415.892	1	7
416.233	1	2
416.575	1	2
416.916	1	3
417.257	1	7
417.599	1	0
417.940	1	6
418.281	1	-6
418.623	1	3
418.964	1	1
419.305	1	1
419.647	1	6
419.988	1	1
420.329	1	8
420.671	1	-10
421.012	1	-6
421.353	1	6
421.695	1	-6
422.036	1	14
422.377	1	13
422.718	1	4
423.060	1	1
423.401	1	3
423.742	1	0
424.084	1	19
424.425	1	-1
424.766	1	2
425.107	1	6
425.449	1	11
425.790	1	1
426.131	1	11
426.472	1	1
426.814	1	-8
427.155	1	13
427.496	1	-3
427.837	1	7
428.179	1	1
428.520	1	-1
428.861	1	4
429.202	1	-6
429.544	1	0
429.885	1	2
430.226	1	7
430.567	1	1
430.909	1	4
431.250	1	7
431.591	1	-9
431.932	1	-8
432.273	1	-3
432.615	1	4
432.956	1	8
433.297	1	-5
433.638	1	14
433.979	1	-8
434.320	1	5
434.662	1	-6
435.003	1	5
435.344	1	3
435.685	1	3
436.026	1	-2
436.368	1	10
436.709	1	7
437.050	1	-9
437.391	1	-8
437.732	1	4
438.073	1	-3
438.414	1	-12
438.756	1	-3
439.097	1	0
439.438	1	10
439.779	1	9
440.120	1	3
440.461	1	17
440.802	1	7
441.143	1	0
441.485	1	-7
441.826	1	11
442.167	1	0
442.508	1	-10
442.849	1	5
443.190	1	1
443.531	1	-3
443.872	1	-3
444.213	1	0
444.554	1	4
444.895	1	-12
445.237	1	-4
445.578	1	4
445.919	1	3
446.260	1	2
446.601	1	-4
446.942	1	6
447.283	1	4
447.624	1	4
447.965	1	4
448.306	1	-2
448.647	1	2
448.988	1	4
449.329	1	6
449.670	1	-14
450.011	1	5
450.352	1	0
450.693	1	-6
451.034	1	-8
451.375	1	4
451.716	1	10
452.057	1	1
452.398	1	-1
452.739	1	-1
453.080	1	10
453.421	1	4
453.762	1	2
454.103	1	-3
454.444	1	-4
454.785	1	-4
455.126	1	11
455.467	1	-15
455.808	1	16
456.149	1	-3
456.490	1	0
456.831	1	-3
457.172	1	4
457.513	1	17
457.854	1	10
458.195	1	0
458.536	1	-5
458.877	1	3
459.218	1	1
459.559	1	-4
459.899	1	10
460.240	1	2
460.581	1	5
460.922	1	-9
461.263	1	-3
461.604	1	8
461.945	1	9
462.286	1	-3
462.627	1	1
462.968	1	2
463.309	1	15
463.649	1	6
463.990	1	1
464.331	1	5
464.672	1	3
465.013	1	16
465.354	1	6
465.695	1	4
466.036	1	-4
466.376	1	-6
466.717	1	1
467.058	1	5
467.399	1	10
467.740	1	-2
468.081	1	-8
468.422	1	2
468.762	1	4
469.103	1	13
469.444	1	-6
469.785	1	-4
470.126	1	9
470.467	1	8
470.807	1	5
471.148	1	4
471.489	1	-3
471.830	1	-3
472.171	1	7
472.511	1	0
472.852	1	-1
473.193	1	12
473.534	1	5
473.875	1	-2
474.215	1	10
474.556	1	4
474.897	1	10
475.238	1	2
475.578	1	-1
475.919	1	4
476.260	1	12
476.601	1	-2
476.942	1	-5
477.282	1	6
477.623	1	8
477.964	1	4
478.305	1	-6
478.645	1	4
478.986	1	4
479.327	1	0
479.667	1	1
480.008	1	2
480.349	1	14
480.690	1	8
481.030	1	1
481.371	1	4
481.712	1	3
482.053	1	-9
482.393	1	-6
482.734	1	6
483.075	1	3
483.415	1	11
483.756	1	6
484.097	1	-9
484.437	1	-8
484.778	1	-14
485.119	1	9
485.459	1	7
485.800	1	4
486.141	1	17
486.481	1	10
486.822	1	7
487.163	1	5
487.503	1	11
487.844	1	6
488.185	1	7
488.525	1	10
488.866	1	6
489.207	1	10
489.547	1	4
489.888	1	9
490.228	1	-4
490.569	1	12
490.910	1	-5
491.250	1	6
491.591	1	-1
491.932	1	0
492.272	1	4
492.613	1	6
492.953	1	-1
493.294	1	2
493.635	1	7
493.975	1	7
494.316	1	5
494.656	1	-2
494.997	1	3
495.337	1	1
495.678	1	9
496.019	1	-8
496.359	1	8
496.700	1	12
497.040	1	4
497.381	1	6
497.721	1	-2
498.062	1	-1
498.403	1	14
498.743	1	4
499.084	1	4
499.424	1	7
499.765	1	-6
500.105	1	3
500.446	1	2
500.786	1	-3
501.127	1	12
501.467	1	-1
501.808	1	5
502.148	1	15
502.489	1	5
502.829	1	2
503.170	1	17
503.510	1	3
503.851	1	5
504.191	1	-1
504.532	1	-14
504.872	1	4
505.213	1	2
505.553	1	3
505.894	1	17
506.234	1	-2
506.575	1	4
506.915	1	8
507.256	1	-2
507.596	1	11
507.936	1	8
508.277	1	-6
508.617	1	4
508.958	1	3
509.298	1	5
509.639	1	14
509.979	1	6
510.319	1	-5
510.660	1	6
511.000	1	15
511.341	1	15
511.681	1	3
512.022	1	6
512.362	1	-1
512.702	1	0
513.043	1	13
513.383	1	3
513.724	1	1
514.064	1	12
514.404	1	0
514.745	1	6
515.085	1	2
515.425	1	8
515.766	1	4
516.106	1	9
516.447	1	3
516.787	1	11
517.127	1	11
517.468	1	9
517.808	1	6
518.148	1	12
518.489	1	9
518.829	1	0
519.169	1	6
519.510	1	1
519.850	1	5
520.190	1	8
520.531	1	3
520.871	1	3
521.211	1	8
521.552	1	2
521.892	1	0
522.232	1	-1
522.573	1	2
522.913	1	11
523.253	1	15
523.593	1	-4
523.934	1	15
524.274	1	5
524.614	1	13
524.955	1	-1
525.295	1	12
525.635	1	13
525.975	1	3
526.316	1	15
526.656	1	15
526.996	1	4
527.337	1	4
527.677	1	6
528.017	1	2
528.357	1	-5
528.698	1	-5
529.038	1	3
529.378	1	9
529.718	1	8
530.058	1	12
530.399	1	15
530.739	1	15
531.079	1	10
531.419	1	14
531.760	1	10
532.100	1	6
532.440	1	2
532.780	1	2
533.120	1	13
533.461	1	6
533.801	1	8
534.141	1	4
534.481	1	15
534.821	1	18
535.162	1	12
535.502	1	4
535.842	1	3
536.182	1	13
536.522	1	9
536.862	1	14
537.203	1	12
537.543	1	-1
537.883	1	5
538.223	1	4
538.563	1	0
538.903	1	-3
539.243	1	1
539.584	1	11
539.924	1	3
540.264	1	7
540.604	1	3
540.944	1	-9
541.284	1	8
541.624	1	2
541.964	1	7
542.305	1	15
542.645	1	-1
542.985	1	5
543.325	1	14
543.665	1	5
544.005	1	17
544.345	1	3
544.685	1	6
545.025	1	0
545.365	1	12
545.705	1	2
546.045	1	2
546.386	1	1
546.726	1	4
547.066	1	10
547.406	1	2
547.746	1	1
548.086	1	6
548.426	1	10
548.766	1	1
549.106	1	13
549.446	1	6
549.786	1	2
550.126	1	10
550.466	1	0
550.806	1	2
551.146	1	11
551.486	1	1
551.826	1	8
552.166	1	6
552.506	1	11
552.846	1	4
553.186	1	0
553.526	1	-2
553.866	1	3
554.206	1	5
554.546	1	-2
554.886	1	-4
555.226	1	2
555.566	1	7
555.906	1	-8
556.246	1	8
556.586	1	-6
556.926	1	5
557.266	1	6
557.606	1	3
557.946	1	10
558.286	1	7
558.626	1	17
558.966	1	9
559.306	1	5
559.646	1	-3
559.986	1	6
560.325	1	2
560.665	1	12
561.005	1	6
561.345	1	-11
561.685	1	0
562.025	1	-4
562.365	1	3
562.705	1	11
563.045	1	11
563.385	1	16
563.725	1	4
564.064	1	1
564.404	1	11
564.744	1	-4
565.084	1	8
565.424	1	7
565.764	1	5
566.104	1	-2
566.444	1	6
566.783	1	6
567.123	1	3
567.463	1	-10
567.803	1	7
568.143	1	4
568.483	1	13
568.823	1	2
569.162	1	4
569.502	1	-2
569.842	1	-4
570.182	1	-2
570.522	1	2
570.862	1	7
571.201	1	13
571.541	1	6
571.881	1	6
572.221	1	4
572.561	1	2
572.900	1	-8
573.240	1	0
573.580	1	1
573.920	1	21
574.260	1	6
574.599	1	-6
574.939	1	-4
575.279	1	9
575.619	1	1
575.959	1	-2
576.298	1	11
576.638	1	9
576.978	1	0
577.318	1	9
577.657	1	10
577.997	1	0
578.337	1	5
578.677	1	7
579.016	1	6
579.356	1	3
579.696	1	5
580.036	1	10
580.375	1	14
580.715	1	0
581.055	1	5
581.394	1	7
581.734	1	14
582.074	1	10
582.414	1	-3
582.753	1	3
583.093	1	12
583.433	1	15
583.772	1	-1
584.112	1	-2
584.452	1	-1
584.791	1	0
585.131	1	10
585.471	1	10
585.811	1	-8
586.150	1	2
586.490	1	3
586.830	1	-8
587.169	1	20
587.509	1	-4
587.849	1	7
588.188	1	2
588.528	1	3
588.867	1	11
589.207	1	6
589.547	1	5
589.886	1	-4
590.226	1	5
590.566	1	6
590.905	1	7
591.245	1	0
591.585	1	5
591.924	1	-11
592.264	1	0
592.603	1	-4
592.943	1	3
593.283	1	11
593.622	1	-7
593.962	1	8
594.301	1	11
594.641	1	5
594.981	1	17
595.320	1	2
595.660	1	2
595.999	1	1
596.339	1	12
596.678	1	-6
597.018	1	1
597.358	1	-9
597.697	1	6
598.037	1	2
598.376	1	-2
598.716	1	6
599.055	1	11
599.395	1	-4
599.734	1	14
600.074	1	2
600.413	1	0
600.753	1	6
601.092	1	-3
601.432	1	-2
601.771	1	7
602.111	1	3
602.451	1	9
602.790	1	6
603.130	1	0
603.469	1	0
603.809	1	4
604.148	1	6
604.487	1	10
604.827	1	-4
605.166	1	11
605.506	1	1
605.845	1	7
606.185	1	7
606.524	1	-4
606.864	1	-1
607.203	1	0
607.543	1	9
607.882	1	0
608.222	1	3
608.561	1	6
608.901	1	6
609.240	1	-6
609.579	1	-1
609.919	1	-1
610.258	1	10
610.598	1	3
610.937	1	2
611.277	1	0
611.616	1	-4
611.955	1	9
612.295	1	2
612.634	1	-4
612.974	1	8
613.313	1	2
613.652	1	6
613.992	1	3
614.331	1	1
614.671	1	7
615.010	1	4
615.349	1	8
615.689	1	8
616.028	1	-9
616.368	1	4
616.707	1	3
617.046	1	-2
617.386	1	2
617.725	1	-1
618.064	1	2
618.404	1	4
618.743	1	8
619.082	1	8
619.422	1	-7
619.761	1	-7
620.100	1	-7
620.440	1	5
620.779	1	4
621.118	1	0
621.458	1	3
621.797	1	2
622.136	1	0
622.476	1	-5
622.815	1	7
623.154	1	5
623.494	1	-6
623.833	1	4
624.172	1	1
624.511	1	1
624.851	1	1
625.190	1	5
625.529	1	5
625.869	1	7
626.208	1	7
626.547	1	2
626.886	1	5
627.226	1	2
627.565	1	12
627.904	1	-4
628.243	1	-2
628.583	1	-2
628.922	1	-3
629.261	1	-3
629.600	1	4
629.940	1	-3
630.279	1	5
630.618	1	2
630.957	1	8
631.297	1	-5
631.636	1	0
631.975	1	-8
632.314	1	5
632.653	1	2
632.993	1	1
633.332	1	8
633.671	1	1
634.010	1	2
634.349	1	-5
634.689	1	2
635.028	1	-5
635.367	1	-4
635.706	1	-2
636.045	1	9
636.384	1	-9
636.724	1	10
637.063	1	6
637.402	1	9
637.741	1	-4
638.080	1	10
638.419	1	-6
638.759	1	2
639.098	1	1
639.437	1	-12
639.776	1	4
640.115	1	6
640.454	1	6
640.793	1	-1
641.132	1	1
641.472	1	-2
641.811	1	9
642.150	1	1
642.489	1	7
642.828	1	-1
643.167	1	0
643.506	1	7
643.845	1	2
644.184	1	10
644.524	1	-2
644.863	1	-13
645.202	1	14
645.541	1	8
645.880	1	6
646.219	1	4
646.558	1	5
646.897	1	16
647.236	1	4
647.575	1	-5
647.914	1	3
648.253	1	-3
648.592	1	3
648.931	1	-1
649.270	1	3
649.610	1	4
649.949	1	-10
650.288	1	3
650.627	1	-6
650.966	1	8
651.305	1	-1
651.644	1	12
651.983	1	-3
652.322	1	2
652.661	1	2
653.000	1	-8
653.339	1	-3
653.678	1	7
654.017	1	14
654.356	1	0
654.695	1	7
655.034	1	1
655.373	1	3
655.712	1	-1
656.051	1	0
656.390	1	-3
656.729	1	6
657.068	1	11
657.406	1	3
657.745	1	13
658.084	1	-11
658.423	1	-3
658.762	1	-1
659.101	1	6
659.440	1	2
659.779	1	-2
660.118	1	1
660.457	1	7
660.796	1	-1
661.135	1	-14
661.474	1	8
661.813	1	8
662.152	1	9
662.491	1	-9
662.829	1	-6
663.168	1	0
663.507	1	4
663.846	1	-2
664.185	1	9
664.524	1	6
664.863	1	-4
665.202	1	9
665.541	1	-1
665.879	1	10
666.218	1	12
666.557	1	2
666.896	1	1
667.235	1	-8
667.574	1	-8
667.913	1	4
668.251	1	12
668.590	1	2
668.929	1	4
669.268	1	-4
669.607	1	5
669.946	1	4
670.285	1	15
670.623	1	-1
670.962	1	3
671.301	1	5
671.640	1	10
671.979	1	1
672.317	1	1
672.656	1	4
672.995	1	-9
673.334	1	4
673.673	1	2
674.011	1	6
674.350	1	4
674.689	1	7
675.028	1	3
675.367	1	1
675.705	1	2
676.044	1	8
676.383	1	-5
676.722	1	15
677.060	1	0
677.399	1	5
677.738	1	4
678.077	1	14
678.416	1	-10
678.754	1	2
679.093	1	4
679.432	1	2
679.771	1	2
680.109	1	1
680.448	1	9
680.787	1	-3
681.125	1	5
681.464	1	3
681.803	1	11
682.142	1	7
682.480	1	3
682.819	1	12
683.158	1	-6
683.496	1	5
683.835	1	-3
684.174	1	3
684.512	1	0
684.851	1	1
685.190	1	-3
685.529	1	20
685.867	1	9
686.206	1	10
686.545	1	-1
686.883	1	3
687.222	1	3
687.561	1	7
687.899	1	-6
688.238	1	-6
688.577	1	16
688.746	1	8