File: Data/GaN_170K_550ms/GaN_sample D_spot 18_UVVIS_170 K_200um_550 ms 2x2mm1_138.txt
340.368	1	2
340.710	1	-2
341.052	1	1
341.394	1	2
341.737	1	0
342.079	1	10
342.421	1	12
342.763	1	3
343.105	1	9
343.447	1	-13
343.789	1	7
344.131	1	-2
344.473	1	2
344.815	1	19
345.157	1	-3
345.499	1	1
345.841	1	14
346.183	1	7
346.526	1	9
346.868	1	8
347.210	1	-4
347.552	1	16
347.894	1	1
348.236	1	3
348.578	1	11
348.920	1	4
349.262	1	5
349.604	1	12
349.946	1	8
350.288	1	0
350.630	1	15
350.972	1	-10
351.314	1	5
351.656	1	-1
351.998	1	8
352.340	1	2
352.682	1	4
353.024	1	6
353.366	1	18
353.708	1	11
354.050	1	1
354.392	1	-4
354.734	1	11
355.076	1	7
355.418	1	2
355.760	1	-3
356.102	1	12
356.444	1	-2
356.785	1	3
357.127	1	3
357.469	1	2
357.811	1	9
358.153	1	7
358.495	1	2
358.837	1	4
359.179	1	6
359.521	1	19
359.863	1	7
360.205	1	20
360.547	1	18
360.889	1	16
361.231	1	17
361.572	1	22
361.914	1	14
362.256	1	17
362.598	1	25
362.940	1	32
363.282	1	21
363.624	1	29
363.966	1	20
364.308	1	26
364.649	1	23
364.991	1	29
365.333	1	31
365.675	1	39
366.017	1	29
366.359	1	30
366.701	1	30
367.042	1	35
367.384	1	45
367.726	1	32
368.068	1	47
368.410	1	57
368.752	1	38
369.093	1	38
369.435	1	39
369.777	1	50
370.119	1	35
370.461	1	46
370.803	1	41
371.144	1	34
371.486	1	37
371.828	1	37
372.170	1	40
372.512	1	28
372.853	1	42
373.195	1	24
373.537	1	36
373.879	1	33
374.220	1	32
374.562	1	31
374.904	1	19
375.246	1	30
375.588	1	22
375.929	1	23
376.271	1	24
376.613	1	24
376.955	1	24
377.296	1	17
377.638	1	21
377.980	1	13
378.321	1	13
378.663	1	13
379.005	1	5
379.347	1	19
379.688	1	10
380.030	1	16
380.372	1	14
380.714	1	26
381.055	1	4
381.397	1	10
381.739	1	8
382.080	1	8
382.422	1	6
382.764	1	13
383.105	1	19
383.447	1	17
383.789	1	14
384.130	1	-2
384.472	1	1
384.814	1	11
385.156	1	2
385.497	1	16
385.839	1	8
386.180	1	8
386.522	1	15
386.864	1	1
387.205	1	5
387.547	1	5
387.889	1	12
388.230	1	-2
388.572	1	7
388.914	1	9
389.255	1	13
389.597	1	7
389.939	1	7
390.280	1	5
390.622	1	6
390.963	1	3
391.305	1	1
391.647	1	-4
391.988	1	14
392.330	1	5
392.671	1	0
393.013	1	-7
393.355	1	8
393.696	1	4
394.038	1	-3
394.379	1	6
394.721	1	2
395.062	1	4
395.404	1	4
395.746	1	13
396.087	1	4
396.429	1	6
396.770	1	15
397.112	1	1
397.453	1	2
397.795	1	-6
398.136	1	-2
398.478	1	-8
398.819	1	3
399.161	1	-1
399.503	1	9
399.844	1	-6
400.186	1	2
400.527	1	8
400.869	1	9
401.210	1	8
401.552	1	5
401.893	1	11
402.235	1	2
402.576	1	-4
402.918	1	-2
403.259	1	10
403.601	1	15
403.942	1	6
404.284	1	-6
404.625	1	-1
404.967	1	-4
405.308	1	6
405.649	1	3
405.991	1	-6
406.332	1	-7
406.674	1	10
407.015	1	11
407.357	1	-2
407.698	1	4
408.040	1	-5
408.381	1	-1
408.722	1	-4
409.064	1	-1
409.405	1	-5
409.747	1	-1
410.088	1	13
410.430	1	1
410.771	1	2
411.112	1	11
411.454	1	5
411.795	1	14
412.137	1	2
412.478	1	1
412.819	1	-4
413.161	1	8
413.502	1	4
413.844	1	9
414.185	1	4
414.526	1	7
414.868	1	-4
415.209	1	-14
415.550	1	-3
415.892	1	8
416.233	1	7
416.575	1	5
416.916	1	-2
417.257	1	1
417.599	1	3
417.940	1	0
418.281	1	-7
418.623	1	8
418.964	1	-5
419.305	1	0
419.647	1	4
419.988	1	5
420.329	1	-6
420.671	1	0
421.012	1	2
421.353	1	6
421.695	1	1
422.036	1	6
422.377	1	10
422.718	1	5
423.060	1	7
423.401	1	3
423.742	1	-1
424.084	1	10
424.425	1	-4
424.766	1	2
425.107	1	1
425.449	1	4
425.790	1	-5
426.131	1	11
426.472	1	-3
426.814	1	-4
427.155	1	6
427.496	1	0
427.837	1	0
428.179	1	5
428.520	1	-11
428.861	1	6
429.202	1	0
429.544	1	-2
429.885	1	1
430.226	1	-1
430.567	1	4
430.909	1	-11
431.250	1	12
431.591	1	-1
431.932	1	-5
432.273	1	-1
432.615	1	0
432.956	1	3
433.297	1	-1
433.638	1	2
433.979	1	3
434.320	1	9
434.662	1	-14
435.003	1	6
435.344	1	4
435.685	1	1
436.026	1	7
436.368	1	5
436.709	1	2
437.050	1	-2
437.391	1	-5
437.732	1	-5
438.073	1	0
438.414	1	0
438.756	1	-2
439.097	1	-5
439.438	1	5
439.779	1	2
440.120	1	-7
440.461	1	12
440.802	1	11
441.143	1	0
441.485	1	-4
441.826	1	13
442.167	1	-2
442.508	1	-1
442.849	1	3
443.190	1	0
443.531	1	0
443.872	1	-7
444.213	1	-5
444.554	1	2
444.895	1	-12
445.237	1	0
445.578	1	9
445.919	1	3
446.260	1	4
446.601	1	-3
446.942	1	5
447.283	1	6
447.624	1	-4
447.965	1	1
448.306	1	6
448.647	1	-6
448.988	1	14
449.329	1	8
449.670	1	-11
450.011	1	8
450.352	1	0
450.693	1	1
451.034	1	1
451.375	1	5
451.716	1	9
452.057	1	1
452.398	1	9
452.739	1	2
453.080	1	6
453.421	1	-2
453.762	1	2
454.103	1	3
454.444	1	0
454.785	1	-2
455.126	1	8
455.467	1	-10
455.808	1	8
456.149	1	-2
456.490	1	2
456.831	1	0
457.172	1	6
457.513	1	2
457.854	1	13
458.195	1	-2
458.536	1	5
458.877	1	5
459.218	1	-1
459.559	1	-8
459.899	1	7
460.240	1	7
460.581	1	6
460.922	1	-6
461.263	1	2
461.604	1	0
461.945	1	6
462.286	1	-6
462.627	1	8
462.968	1	13
463.309	1	3
463.649	1	3
463.990	1	5
464.331	1	1
464.672	1	-1
465.013	1	15
465.354	1	5
465.695	1	4
466.036	1	-7
466.376	1	4
466.717	1	-1
467.058	1	8
467.399	1	17
467.740	1	-4
468.081	1	1
468.422	1	13
468.762	1	6
469.103	1	11
469.444	1	2
469.785	1	-3
470.126	1	5
470.467	1	3
470.807	1	2
471.148	1	-5
471.489	1	2
471.830	1	-6
472.171	1	13
472.511	1	7
472.852	1	-2
473.193	1	5
473.534	1	11
473.875	1	11
474.215	1	1
474.556	1	7
474.897	1	0
475.238	1	-6
475.578	1	2
475.919	1	4
476.260	1	16
476.601	1	6
476.942	1	-8
477.282	1	13
477.623	1	10
477.964	1	2
478.305	1	-5
478.645	1	5
478.986	1	-1
479.327	1	-10
479.667	1	7
480.008	1	9
480.349	1	11
480.690	1	7
481.030	1	16
481.371	1	-2
481.712	1	-5
482.053	1	-2
482.393	1	-9
482.734	1	7
483.075	1	3
483.415	1	4
483.756	1	-5
484.097	1	1
484.437	1	-4
484.778	1	-6
485.119	1	-1
485.459	1	-3
485.800	1	0
486.141	1	16
486.481	1	9
486.822	1	0
487.163	1	4
487.503	1	-6
487.844	1	12
488.185	1	14
488.525	1	4
488.866	1	13
489.207	1	6
489.547	1	13
489.888	1	7
490.228	1	0
490.569	1	5
490.910	1	6
491.250	1	-1
491.591	1	-6
491.932	1	2
492.272	1	8
492.613	1	6
492.953	1	-1
493.294	1	0
493.635	1	-2
493.975	1	3
494.316	1	2
494.656	1	7
494.997	1	1
495.337	1	18
495.678	1	2
496.019	1	-7
496.359	1	11
496.700	1	6
497.040	1	9
497.381	1	6
497.721	1	-1
498.062	1	4
498.403	1	3
498.743	1	5
499.084	1	1
499.424	1	12
499.765	1	-7
500.105	1	5
500.446	1	9
500.786	1	-3
501.127	1	4
501.467	1	10
501.808	1	3
502.148	1	12
502.489	1	7
502.829	1	7
503.170	1	16
503.510	1	10
503.851	1	1
504.191	1	0
504.532	1	-1
504.872	1	-3
505.213	1	0
505.553	1	7
505.894	1	14
506.234	1	4
506.575	1	1
506.915	1	10
507.256	1	-4
507.596	1	1
507.936	1	10
508.277	1	-2
508.617	1	13
508.958	1	4
509.298	1	1
509.639	1	19
509.979	1	7
510.319	1	2
510.660	1	-5
511.000	1	12
511.341	1	17
511.681	1	9
512.022	1	11
512.362	1	-3
512.702	1	-2
513.043	1	9
513.383	1	6
513.724	1	3
514.064	1	14
514.404	1	-1
514.745	1	7
515.085	1	12
515.425	1	7
515.766	1	8
516.106	1	11
516.447	1	8
516.787	1	10
517.127	1	12
517.468	1	7
517.808	1	12
518.148	1	7
518.489	1	10
518.829	1	10
519.169	1	0
519.510	1	4
519.850	1	8
520.190	1	8
520.531	1	4
520.871	1	5
521.211	1	12
521.552	1	1
521.892	1	8
522.232	1	4
522.573	1	6
522.913	1	13
523.253	1	26
523.593	1	8
523.934	1	6
524.274	1	4
524.614	1	9
524.955	1	-2
525.295	1	4
525.635	1	15
525.975	1	6
526.316	1	11
526.656	1	12
526.996	1	7
527.337	1	6
527.677	1	7
528.017	1	3
528.357	1	4
528.698	1	-2
529.038	1	2
529.378	1	9
529.718	1	15
530.058	1	20
530.399	1	11
530.739	1	11
531.079	1	9
531.419	1	7
531.760	1	8
532.100	1	1
532.440	1	8
532.780	1	0
533.120	1	13
533.461	1	13
533.801	1	13
534.141	1	8
534.481	1	17
534.821	1	16
535.162	1	5
535.502	1	13
535.842	1	13
536.182	1	9
536.522	1	11
536.862	1	7
537.203	1	12
537.543	1	2
537.883	1	8
538.223	1	2
538.563	1	7
538.903	1	0
539.243	1	7
539.584	1	4
539.924	1	5
540.264	1	4
540.604	1	5
540.944	1	2
541.284	1	13
541.624	1	-3
541.964	1	6
542.305	1	9
542.645	1	2
542.985	1	18
543.325	1	10
543.665	1	10
544.005	1	14
544.345	1	5
544.685	1	5
545.025	1	7
545.365	1	7
545.705	1	6
546.045	1	7
546.386	1	8
546.726	1	13
547.066	1	14
547.406	1	6
547.746	1	2
548.086	1	18
548.426	1	9
548.766	1	6
549.106	1	8
549.446	1	1
549.786	1	-2
550.126	1	9
550.466	1	3
550.806	1	6
551.146	1	8
551.486	1	6
551.826	1	6
552.166	1	4
552.506	1	7
552.846	1	4
553.186	1	12
553.526	1	1
553.866	1	-2
554.206	1	13
554.546	1	-2
554.886	1	2
555.226	1	-5
555.566	1	9
555.906	1	1
556.246	1	8
556.586	1	0
556.926	1	9
557.266	1	13
557.606	1	10
557.946	1	11
558.286	1	10
558.626	1	8
558.966	1	1
559.306	1	16
559.646	1	-1
559.986	1	8
560.325	1	-2
560.665	1	2
561.005	1	5
561.345	1	0
561.685	1	3
562.025	1	-5
562.365	1	-4
562.705	1	13
563.045	1	3
563.385	1	5
563.725	1	3
564.064	1	11
564.404	1	4
564.744	1	3
565.084	1	11
565.424	1	4
565.764	1	8
566.104	1	9
566.444	1	13
566.783	1	10
567.123	1	6
567.463	1	-1
567.803	1	6
568.143	1	7
568.483	1	9
568.823	1	13
569.162	1	9
569.502	1	4
569.842	1	3
570.182	1	1
570.522	1	3
570.862	1	4
571.201	1	14
571.541	1	-5
571.881	1	3
572.221	1	-3
572.561	1	-2
572.900	1	2
573.240	1	0
573.580	1	2
573.920	1	16
574.260	1	17
574.599	1	-6
574.939	1	-4
575.279	1	-1
575.619	1	5
575.959	1	-5
576.298	1	8
576.638	1	13
576.978	1	7
577.318	1	7
577.657	1	10
577.997	1	-5
578.337	1	9
578.677	1	9
579.016	1	12
579.356	1	9
579.696	1	0
580.036	1	4
580.375	1	7
580.715	1	18
581.055	1	3
581.394	1	11
581.734	1	8
582.074	1	4
582.414	1	6
582.753	1	7
583.093	1	13
583.433	1	7
583.772	1	-6
584.112	1	5
584.452	1	0
584.791	1	-2
585.131	1	2
585.471	1	7
585.811	1	-1
586.150	1	3
586.490	1	9
586.830	1	-6
587.169	1	18
587.509	1	-4
587.849	1	-7
588.188	1	0
588.528	1	4
588.867	1	2
589.207	1	-3
589.547	1	7
589.886	1	-6
590.226	1	10
590.566	1	1
590.905	1	6
591.245	1	6
591.585	1	9
591.924	1	3
592.264	1	-2
592.603	1	1
592.943	1	1
593.283	1	-3
593.622	1	-6
593.962	1	3
594.301	1	-2
594.641	1	13
594.981	1	11
595.320	1	7
595.660	1	7
595.999	1	-4
596.339	1	10
596.678	1	3
597.018	1	-4
597.358	1	4
597.697	1	2
598.037	1	1
598.376	1	-1
598.716	1	1
599.055	1	-3
599.395	1	0
599.734	1	6
600.074	1	2
600.413	1	6
600.753	1	-1
601.092	1	4
601.432	1	-7
601.771	1	10
602.111	1	-8
602.451	1	6
602.790	1	6
603.130	1	1
603.469	1	7
603.809	1	-1
604.148	1	4
604.487	1	8
604.827	1	-6
605.166	1	12
605.506	1	-1
605.845	1	4
606.185	1	7
606.524	1	1
606.864	1	1
607.203	1	1
607.543	1	9
607.882	1	-3
608.222	1	6
608.561	1	6
608.901	1	0
609.240	1	-5
609.579	1	8
609.919	1	4
610.258	1	13
610.598	1	6
610.937	1	5
611.277	1	-3
611.616	1	1
611.955	1	5
612.295	1	6
612.634	1	3
612.974	1	8
613.313	1	-2
613.652	1	13
613.992	1	7
614.331	1	-4
614.671	1	2
615.010	1	6
615.349	1	11
615.689	1	19
616.028	1	2
616.368	1	-3
616.707	1	8
617.046	1	0
617.386	1	-3
617.725	1	10
618.064	1	-4
618.404	1	-2
618.743	1	3
619.082	1	8
619.422	1	-3
619.761	1	-8
620.100	1	-5
620.440	1	-5
620.779	1	4
621.118	1	-4
621.458	1	2
621.797	1	4
622.136	1	0
622.476	1	2
622.815	1	-3
623.154	1	4
623.494	1	-4
623.833	1	9
624.172	1	0
624.511	1	8
624.851	1	-3
625.190	1	11
625.529	1	8
625.869	1	17
626.208	1	5
626.547	1	0
626.886	1	2
627.226	1	11
627.565	1	10
627.904	1	8
628.243	1	-5
628.583	1	-3
628.922	1	4
629.261	1	1
629.600	1	-2
629.940	1	6
630.279	1	-1
630.618	1	4
630.957	1	8
631.297	1	-3
631.636	1	8
631.975	1	-1
632.314	1	-3
632.653	1	4
632.993	1	-8
633.332	1	1
633.671	1	13
634.010	1	5
634.349	1	-8
634.689	1	11
635.028	1	1
635.367	1	-1
635.706	1	-3
636.045	1	15
636.384	1	1
636.724	1	12
637.063	1	6
637.402	1	8
637.741	1	-3
638.080	1	2
638.419	1	-2
638.759	1	5
639.098	1	-6
639.437	1	-12
639.776	1	0
640.115	1	8
640.454	1	2
640.793	1	3
641.132	1	10
641.472	1	2
641.811	1	8
642.150	1	6
642.489	1	-15
642.828	1	-6
643.167	1	3
643.506	1	8
643.845	1	5
644.184	1	15
644.524	1	5
644.863	1	4
645.202	1	8
645.541	1	9
645.880	1	16
646.219	1	6
646.558	1	-2
646.897	1	8
647.236	1	0
647.575	1	-5
647.914	1	4
648.253	1	-2
648.592	1	3
648.931	1	6
649.270	1	-1
649.610	1	8
649.949	1	2
650.288	1	1
650.627	1	6
650.966	1	10
651.305	1	-3
651.644	1	0
651.983	1	0
652.322	1	3
652.661	1	6
653.000	1	-5
653.339	1	-1
653.678	1	1
654.017	1	10
654.356	1	1
654.695	1	13
655.034	1	-3
655.373	1	2
655.712	1	-4
656.051	1	9
656.390	1	-3
656.729	1	3
657.068	1	0
657.406	1	-2
657.745	1	6
658.084	1	-3
658.423	1	4
658.762	1	-4
659.101	1	4
659.440	1	7
659.779	1	-1
660.118	1	-1
660.457	1	12
660.796	1	-7
661.135	1	-8
661.474	1	13
661.813	1	-1
662.152	1	9
662.491	1	-7
662.829	1	6
663.168	1	2
663.507	1	6
663.846	1	1
664.185	1	9
664.524	1	2
664.863	1	-1
665.202	1	18
665.541	1	-5
665.879	1	7
666.218	1	14
666.557	1	-1
666.896	1	10
667.235	1	-1
667.574	1	-7
667.913	1	-2
668.251	1	-3
668.590	1	9
668.929	1	9
669.268	1	1
669.607	1	-1
669.946	1	3
670.285	1	11
670.623	1	0
670.962	1	1
671.301	1	-1
671.640	1	2
671.979	1	2
672.317	1	1
672.656	1	-2
672.995	1	4
673.334	1	0
673.673	1	4
674.011	1	8
674.350	1	5
674.689	1	14
675.028	1	-1
675.367	1	3
675.705	1	9
676.044	1	17
676.383	1	1
676.722	1	10
677.060	1	-6
677.399	1	2
677.738	1	6
678.077	1	9
678.416	1	8
678.754	1	1
679.093	1	-1
679.432	1	7
679.771	1	9
680.109	1	4
680.448	1	8
680.787	1	-5
681.125	1	7
681.464	1	6
681.803	1	11
682.142	1	4
682.480	1	6
682.819	1	9
683.158	1	5
683.496	1	1
683.835	1	-4
684.174	1	-3
684.512	1	5
684.851	1	4
685.190	1	-3
685.529	1	9
685.867	1	1
686.206	1	3
686.545	1	8
686.883	1	3
687.222	1	1
687.561	1	3
687.899	1	1
688.238	1	0
688.577	1	19
688.746	1	-4