File: Data/GaN_170K_550ms/GaN_sample D_spot 18_UVVIS_170 K_200um_550 ms 2x2mm1_56.txt
340.368	1	4
340.710	1	2
341.052	1	14
341.394	1	7
341.737	1	20
342.079	1	12
342.421	1	12
342.763	1	11
343.105	1	16
343.447	1	0
343.789	1	11
344.131	1	9
344.473	1	4
344.815	1	9
345.157	1	8
345.499	1	2
345.841	1	8
346.183	1	12
346.526	1	11
346.868	1	19
347.210	1	6
347.552	1	16
347.894	1	2
348.236	1	12
348.578	1	12
348.920	1	1
349.262	1	15
349.604	1	18
349.946	1	15
350.288	1	10
350.630	1	16
350.972	1	4
351.314	1	17
351.656	1	13
351.998	1	25
352.340	1	18
352.682	1	22
353.024	1	17
353.366	1	20
353.708	1	33
354.050	1	13
354.392	1	12
354.734	1	30
355.076	1	22
355.418	1	21
355.760	1	24
356.102	1	41
356.444	1	29
356.785	1	45
357.127	1	42
357.469	1	37
357.811	1	52
358.153	1	61
358.495	1	45
358.837	1	71
359.179	1	67
359.521	1	82
359.863	1	87
360.205	1	102
360.547	1	104
360.889	1	125
361.231	1	140
361.572	1	159
361.914	1	179
362.256	1	204
362.598	1	232
362.940	1	280
363.282	1	291
363.624	1	342
363.966	1	406
364.308	1	472
364.649	1	523
364.991	1	639
365.333	1	698
365.675	1	813
366.017	1	921
366.359	1	1017
366.701	1	1143
367.042	1	1262
367.384	1	1357
367.726	1	1449
368.068	1	1542
368.410	1	1505
368.752	1	1572
369.093	1	1566
369.435	1	1517
369.777	1	1458
370.119	1	1380
370.461	1	1304
370.803	1	1212
371.144	1	1114
371.486	1	1018
371.828	1	959
372.170	1	885
372.512	1	812
372.853	1	763
373.195	1	717
373.537	1	675
373.879	1	646
374.220	1	616
374.562	1	570
374.904	1	532
375.246	1	511
375.588	1	474
375.929	1	442
376.271	1	429
376.613	1	408
376.955	1	376
377.296	1	354
377.638	1	318
377.980	1	299
378.321	1	275
378.663	1	277
379.005	1	263
379.347	1	240
379.688	1	226
380.030	1	213
380.372	1	207
380.714	1	205
381.055	1	201
381.397	1	184
381.739	1	170
382.080	1	166
382.422	1	165
382.764	1	161
383.105	1	158
383.447	1	173
383.789	1	153
384.130	1	158
384.472	1	156
384.814	1	149
385.156	1	155
385.497	1	158
385.839	1	132
386.180	1	142
386.522	1	140
386.864	1	124
387.205	1	112
387.547	1	115
387.889	1	127
388.230	1	94
388.572	1	101
388.914	1	100
389.255	1	113
389.597	1	99
389.939	1	89
390.280	1	102
390.622	1	91
390.963	1	86
391.305	1	87
391.647	1	89
391.988	1	81
392.330	1	95
392.671	1	79
393.013	1	72
393.355	1	69
393.696	1	76
394.038	1	72
394.379	1	59
394.721	1	64
395.062	1	61
395.404	1	69
395.746	1	73
396.087	1	72
396.429	1	62
396.770	1	77
397.112	1	72
397.453	1	73
397.795	1	62
398.136	1	64
398.478	1	61
398.819	1	68
399.161	1	54
399.503	1	58
399.844	1	63
400.186	1	55
400.527	1	65
400.869	1	43
401.210	1	52
401.552	1	51
401.893	1	51
402.235	1	51
402.576	1	48
402.918	1	49
403.259	1	43
403.601	1	60
403.942	1	56
404.284	1	31
404.625	1	48
404.967	1	40
405.308	1	45
405.649	1	50
405.991	1	44
406.332	1	29
406.674	1	48
407.015	1	44
407.357	1	36
407.698	1	46
408.040	1	41
408.381	1	43
408.722	1	41
409.064	1	40
409.405	1	39
409.747	1	30
410.088	1	37
410.430	1	38
410.771	1	45
411.112	1	36
411.454	1	42
411.795	1	41
412.137	1	29
412.478	1	34
412.819	1	27
413.161	1	21
413.502	1	28
413.844	1	35
414.185	1	21
414.526	1	28
414.868	1	32
415.209	1	10
415.550	1	22
415.892	1	34
416.233	1	29
416.575	1	34
416.916	1	21
417.257	1	24
417.599	1	16
417.940	1	37
418.281	1	9
418.623	1	19
418.964	1	21
419.305	1	23
419.647	1	32
419.988	1	25
420.329	1	32
420.671	1	30
421.012	1	18
421.353	1	25
421.695	1	13
422.036	1	29
422.377	1	28
422.718	1	27
423.060	1	21
423.401	1	15
423.742	1	17
424.084	1	32
424.425	1	3
424.766	1	32
425.107	1	20
425.449	1	29
425.790	1	34
426.131	1	31
426.472	1	22
426.814	1	14
427.155	1	26
427.496	1	21
427.837	1	33
428.179	1	14
428.520	1	17
428.861	1	14
429.202	1	26
429.544	1	20
429.885	1	26
430.226	1	22
430.567	1	26
430.909	1	24
431.250	1	42
431.591	1	16
431.932	1	19
432.273	1	11
432.615	1	16
432.956	1	25
433.297	1	13
433.638	1	21
433.979	1	19
434.320	1	28
434.662	1	1
435.003	1	24
435.344	1	6
435.685	1	16
436.026	1	19
436.368	1	23
436.709	1	23
437.050	1	13
437.391	1	8
437.732	1	19
438.073	1	21
438.414	1	18
438.756	1	18
439.097	1	19
439.438	1	25
439.779	1	18
440.120	1	9
440.461	1	31
440.802	1	20
441.143	1	21
441.485	1	12
441.826	1	17
442.167	1	17
442.508	1	17
442.849	1	14
443.190	1	9
443.531	1	11
443.872	1	14
444.213	1	13
444.554	1	20
444.895	1	5
445.237	1	12
445.578	1	23
445.919	1	23
446.260	1	18
446.601	1	14
446.942	1	24
447.283	1	16
447.624	1	14
447.965	1	21
448.306	1	7
448.647	1	11
448.988	1	29
449.329	1	20
449.670	1	9
450.011	1	15
450.352	1	5
450.693	1	22
451.034	1	10
451.375	1	19
451.716	1	16
452.057	1	12
452.398	1	14
452.739	1	13
453.080	1	17
453.421	1	20
453.762	1	18
454.103	1	11
454.444	1	16
454.785	1	13
455.126	1	26
455.467	1	1
455.808	1	27
456.149	1	17
456.490	1	25
456.831	1	18
457.172	1	14
457.513	1	25
457.854	1	26
458.195	1	11
458.536	1	14
458.877	1	19
459.218	1	22
459.559	1	19
459.899	1	13
460.240	1	17
460.581	1	16
460.922	1	19
461.263	1	19
461.604	1	23
461.945	1	17
462.286	1	14
462.627	1	18
462.968	1	23
463.309	1	9
463.649	1	20
463.990	1	17
464.331	1	22
464.672	1	7
465.013	1	24
465.354	1	9
465.695	1	19
466.036	1	5
466.376	1	18
466.717	1	17
467.058	1	13
467.399	1	21
467.740	1	17
468.081	1	11
468.422	1	17
468.762	1	24
469.103	1	26
469.444	1	14
469.785	1	8
470.126	1	22
470.467	1	22
470.807	1	14
471.148	1	7
471.489	1	16
471.830	1	14
472.171	1	16
472.511	1	24
472.852	1	23
473.193	1	27
473.534	1	24
473.875	1	15
474.215	1	25
474.556	1	22
474.897	1	25
475.238	1	21
475.578	1	19
475.919	1	34
476.260	1	30
476.601	1	19
476.942	1	21
477.282	1	27
477.623	1	39
477.964	1	22
478.305	1	21
478.645	1	34
478.986	1	27
479.327	1	4
479.667	1	24
480.008	1	23
480.349	1	27
480.690	1	38
481.030	1	23
481.371	1	26
481.712	1	20
482.053	1	24
482.393	1	24
482.734	1	39
483.075	1	29
483.415	1	45
483.756	1	26
484.097	1	29
484.437	1	36
484.778	1	24
485.119	1	40
485.459	1	28
485.800	1	32
486.141	1	45
486.481	1	39
486.822	1	41
487.163	1	44
487.503	1	49
487.844	1	49
488.185	1	41
488.525	1	47
488.866	1	48
489.207	1	48
489.547	1	58
489.888	1	46
490.228	1	44
490.569	1	50
490.910	1	54
491.250	1	60
491.591	1	56
491.932	1	49
492.272	1	64
492.613	1	51
492.953	1	53
493.294	1	55
493.635	1	53
493.975	1	64
494.316	1	61
494.656	1	66
494.997	1	54
495.337	1	64
495.678	1	53
496.019	1	44
496.359	1	58
496.700	1	72
497.040	1	64
497.381	1	68
497.721	1	62
498.062	1	70
498.403	1	72
498.743	1	83
499.084	1	74
499.424	1	74
499.765	1	65
500.105	1	77
500.446	1	80
500.786	1	78
501.127	1	83
501.467	1	78
501.808	1	81
502.148	1	88
502.489	1	86
502.829	1	79
503.170	1	98
503.510	1	85
503.851	1	94
504.191	1	83
504.532	1	78
504.872	1	96
505.213	1	100
505.553	1	107
505.894	1	103
506.234	1	96
506.575	1	109
506.915	1	100
507.256	1	105
507.596	1	106
507.936	1	111
508.277	1	96
508.617	1	104
508.958	1	101
509.298	1	110
509.639	1	120
509.979	1	111
510.319	1	97
510.660	1	96
511.000	1	123
511.341	1	120
511.681	1	106
512.022	1	121
512.362	1	117
512.702	1	103
513.043	1	118
513.383	1	129
513.724	1	122
514.064	1	127
514.404	1	122
514.745	1	125
515.085	1	131
515.425	1	131
515.766	1	117
516.106	1	135
516.447	1	115
516.787	1	120
517.127	1	130
517.468	1	144
517.808	1	141
518.148	1	141
518.489	1	138
518.829	1	136
519.169	1	132
519.510	1	147
519.850	1	143
520.190	1	142
520.531	1	144
520.871	1	136
521.211	1	134
521.552	1	156
521.892	1	140
522.232	1	138
522.573	1	153
522.913	1	157
523.253	1	153
523.593	1	151
523.934	1	146
524.274	1	139
524.614	1	148
524.955	1	146
525.295	1	150
525.635	1	163
525.975	1	145
526.316	1	162
526.656	1	162
526.996	1	158
527.337	1	145
527.677	1	163
528.017	1	167
528.357	1	160
528.698	1	170
529.038	1	166
529.378	1	168
529.718	1	171
530.058	1	178
530.399	1	171
530.739	1	178
531.079	1	171
531.419	1	174
531.760	1	182
532.100	1	173
532.440	1	166
532.780	1	152
533.120	1	183
533.461	1	179
533.801	1	163
534.141	1	165
534.481	1	167
534.821	1	165
535.162	1	182
535.502	1	148
535.842	1	150
536.182	1	151
536.522	1	157
536.862	1	156
537.203	1	149
537.543	1	148
537.883	1	148
538.223	1	141
538.563	1	148
538.903	1	142
539.243	1	147
539.584	1	138
539.924	1	142
540.264	1	143
540.604	1	145
540.944	1	144
541.284	1	142
541.624	1	144
541.964	1	149
542.305	1	158
542.645	1	151
542.985	1	141
543.325	1	156
543.665	1	153
544.005	1	166
544.345	1	151
544.685	1	158
545.025	1	150
545.365	1	150
545.705	1	165
546.045	1	153
546.386	1	160
546.726	1	161
547.066	1	165
547.406	1	157
547.746	1	154
548.086	1	172
548.426	1	174
548.766	1	167
549.106	1	170
549.446	1	170
549.786	1	154
550.126	1	156
550.466	1	164
550.806	1	166
551.146	1	162
551.486	1	167
551.826	1	161
552.166	1	154
552.506	1	144
552.846	1	163
553.186	1	158
553.526	1	139
553.866	1	141
554.206	1	142
554.546	1	130
554.886	1	146
555.226	1	133
555.566	1	150
555.906	1	125
556.246	1	148
556.586	1	145
556.926	1	142
557.266	1	144
557.606	1	144
557.946	1	143
558.286	1	133
558.626	1	143
558.966	1	142
559.306	1	141
559.646	1	140
559.986	1	134
560.325	1	125
560.665	1	140
561.005	1	125
561.345	1	130
561.685	1	134
562.025	1	120
562.365	1	130
562.705	1	140
563.045	1	126
563.385	1	132
563.725	1	118
564.064	1	125
564.404	1	131
564.744	1	133
565.084	1	132
565.424	1	136
565.764	1	124
566.104	1	131
566.444	1	122
566.783	1	123
567.123	1	122
567.463	1	124
567.803	1	125
568.143	1	120
568.483	1	131
568.823	1	108
569.162	1	130
569.502	1	128
569.842	1	109
570.182	1	121
570.522	1	123
570.862	1	119
571.201	1	107
571.541	1	116
571.881	1	124
572.221	1	111
572.561	1	108
572.900	1	107
573.240	1	111
573.580	1	102
573.920	1	126
574.260	1	107
574.599	1	104
574.939	1	99
575.279	1	102
575.619	1	121
575.959	1	98
576.298	1	124
576.638	1	105
576.978	1	106
577.318	1	109
577.657	1	105
577.997	1	109
578.337	1	113
578.677	1	107
579.016	1	109
579.356	1	107
579.696	1	106
580.036	1	89
580.375	1	104
580.715	1	109
581.055	1	116
581.394	1	109
581.734	1	121
582.074	1	114
582.414	1	89
582.753	1	108
583.093	1	111
583.433	1	105
583.772	1	101
584.112	1	96
584.452	1	97
584.791	1	100
585.131	1	115
585.471	1	103
585.811	1	86
586.150	1	97
586.490	1	107
586.830	1	98
587.169	1	106
587.509	1	97
587.849	1	88
588.188	1	89
588.528	1	93
588.867	1	83
589.207	1	83
589.547	1	98
589.886	1	82
590.226	1	87
590.566	1	89
590.905	1	85
591.245	1	86
591.585	1	82
591.924	1	77
592.264	1	77
592.603	1	74
592.943	1	83
593.283	1	85
593.622	1	71
593.962	1	79
594.301	1	77
594.641	1	66
594.981	1	77
595.320	1	68
595.660	1	68
595.999	1	85
596.339	1	80
596.678	1	71
597.018	1	76
597.358	1	67
597.697	1	71
598.037	1	75
598.376	1	66
598.716	1	84
599.055	1	87
599.395	1	69
599.734	1	85
600.074	1	59
600.413	1	77
600.753	1	82
601.092	1	77
601.432	1	69
601.771	1	82
602.111	1	77
602.451	1	77
602.790	1	80
603.130	1	80
603.469	1	87
603.809	1	74
604.148	1	84
604.487	1	82
604.827	1	70
605.166	1	77
605.506	1	81
605.845	1	74
606.185	1	79
606.524	1	74
606.864	1	73
607.203	1	71
607.543	1	79
607.882	1	68
608.222	1	71
608.561	1	75
608.901	1	80
609.240	1	68
609.579	1	68
609.919	1	69
610.258	1	63
610.598	1	69
610.937	1	69
611.277	1	70
611.616	1	69
611.955	1	73
612.295	1	66
612.634	1	60
612.974	1	64
613.313	1	65
613.652	1	72
613.992	1	60
614.331	1	68
614.671	1	63
615.010	1	65
615.349	1	61
615.689	1	56
616.028	1	57
616.368	1	56
616.707	1	72
617.046	1	62
617.386	1	49
617.725	1	50
618.064	1	52
618.404	1	49
618.743	1	66
619.082	1	63
619.422	1	49
619.761	1	51
620.100	1	55
620.440	1	49
620.779	1	54
621.118	1	46
621.458	1	52
621.797	1	55
622.136	1	47
622.476	1	46
622.815	1	47
623.154	1	54
623.494	1	45
623.833	1	63
624.172	1	54
624.511	1	57
624.851	1	41
625.190	1	46
625.529	1	58
625.869	1	62
626.208	1	56
626.547	1	49
626.886	1	57
627.226	1	54
627.565	1	53
627.904	1	48
628.243	1	48
628.583	1	40
628.922	1	53
629.261	1	62
629.600	1	44
629.940	1	59
630.279	1	51
630.618	1	41
630.957	1	49
631.297	1	41
631.636	1	53
631.975	1	44
632.314	1	57
632.653	1	44
632.993	1	39
633.332	1	45
633.671	1	44
634.010	1	51
634.349	1	34
634.689	1	47
635.028	1	42
635.367	1	43
635.706	1	36
636.045	1	55
636.384	1	47
636.724	1	56
637.063	1	43
637.402	1	52
637.741	1	34
638.080	1	53
638.419	1	36
638.759	1	48
639.098	1	36
639.437	1	34
639.776	1	45
640.115	1	46
640.454	1	51
640.793	1	35
641.132	1	41
641.472	1	44
641.811	1	49
642.150	1	37
642.489	1	40
642.828	1	43
643.167	1	32
643.506	1	38
643.845	1	49
644.184	1	47
644.524	1	47
644.863	1	28
645.202	1	45
645.541	1	43
645.880	1	50
646.219	1	41
646.558	1	51
646.897	1	43
647.236	1	40
647.575	1	35
647.914	1	44
648.253	1	38
648.592	1	43
648.931	1	54
649.270	1	28
649.610	1	38
649.949	1	32
650.288	1	36
650.627	1	32
650.966	1	40
651.305	1	34
651.644	1	46
651.983	1	34
652.322	1	44
652.661	1	40
653.000	1	26
653.339	1	28
653.678	1	32
654.017	1	44
654.356	1	37
654.695	1	55
655.034	1	33
655.373	1	37
655.712	1	15
656.051	1	32
656.390	1	24
656.729	1	44
657.068	1	30
657.406	1	30
657.745	1	38
658.084	1	20
658.423	1	28
658.762	1	33
659.101	1	30
659.440	1	40
659.779	1	39
660.118	1	35
660.457	1	43
660.796	1	23
661.135	1	24
661.474	1	20
661.813	1	21
662.152	1	36
662.491	1	22
662.829	1	13
663.168	1	28
663.507	1	21
663.846	1	16
664.185	1	27
664.524	1	19
664.863	1	12
665.202	1	36
665.541	1	25
665.879	1	34
666.218	1	25
666.557	1	32
666.896	1	28
667.235	1	34
667.574	1	22
667.913	1	20
668.251	1	32
668.590	1	22
668.929	1	28
669.268	1	27
669.607	1	25
669.946	1	22
670.285	1	43
670.623	1	31
670.962	1	23
671.301	1	28
671.640	1	28
671.979	1	20
672.317	1	34
672.656	1	31
672.995	1	19
673.334	1	21
673.673	1	40
674.011	1	28
674.350	1	34
674.689	1	33
675.028	1	30
675.367	1	31
675.705	1	35
676.044	1	43
676.383	1	26
676.722	1	33
677.060	1	14
677.399	1	31
677.738	1	18
678.077	1	28
678.416	1	15
678.754	1	26
679.093	1	30
679.432	1	33
679.771	1	35
680.109	1	24
680.448	1	38
680.787	1	32
681.125	1	28
681.464	1	31
681.803	1	34
682.142	1	19
682.480	1	22
682.819	1	42
683.158	1	15
683.496	1	27
683.835	1	26
684.174	1	29
684.512	1	24
684.851	1	22
685.190	1	26
685.529	1	30
685.867	1	33
686.206	1	29
686.545	1	31
686.883	1	27
687.222	1	18
687.561	1	23
687.899	1	19
688.238	1	28
688.577	1	29
688.746	1	16