File: Data/GaN_170K_550ms/GaN_sample D_spot 18_UVVIS_170 K_200um_550 ms 2x2mm1_348.txt
340.368	1	0
340.710	1	-16
341.052	1	4
341.394	1	-2
341.737	1	-1
342.079	1	-12
342.421	1	4
342.763	1	2
343.105	1	5
343.447	1	-6
343.789	1	-3
344.131	1	-4
344.473	1	2
344.815	1	14
345.157	1	8
345.499	1	-6
345.841	1	5
346.183	1	-6
346.526	1	8
346.868	1	0
347.210	1	-13
347.552	1	4
347.894	1	0
348.236	1	-4
348.578	1	5
348.920	1	-4
349.262	1	4
349.604	1	8
349.946	1	11
350.288	1	0
350.630	1	-1
350.972	1	-12
351.314	1	7
351.656	1	3
351.998	1	4
352.340	1	0
352.682	1	-3
353.024	1	6
353.366	1	8
353.708	1	5
354.050	1	-2
354.392	1	-3
354.734	1	4
355.076	1	-2
355.418	1	-5
355.760	1	-5
356.102	1	2
356.444	1	2
356.785	1	-4
357.127	1	5
357.469	1	-10
357.811	1	3
358.153	1	1
358.495	1	1
358.837	1	-4
359.179	1	-1
359.521	1	4
359.863	1	14
360.205	1	12
360.547	1	1
360.889	1	11
361.231	1	-4
361.572	1	10
361.914	1	0
362.256	1	4
362.598	1	4
362.940	1	11
363.282	1	8
363.624	1	6
363.966	1	8
364.308	1	4
364.649	1	-9
364.991	1	9
365.333	1	2
365.675	1	9
366.017	1	1
366.359	1	3
366.701	1	1
367.042	1	8
367.384	1	0
367.726	1	8
368.068	1	4
368.410	1	4
368.752	1	4
369.093	1	-4
369.435	1	-1
369.777	1	8
370.119	1	-4
370.461	1	8
370.803	1	3
371.144	1	0
371.486	1	-2
371.828	1	4
372.170	1	13
372.512	1	1
372.853	1	13
373.195	1	-2
373.537	1	13
373.879	1	2
374.220	1	9
374.562	1	4
374.904	1	10
375.246	1	-7
375.588	1	6
375.929	1	-1
376.271	1	14
376.613	1	1
376.955	1	-2
377.296	1	6
377.638	1	10
377.980	1	-8
378.321	1	1
378.663	1	1
379.005	1	8
379.347	1	4
379.688	1	-4
380.030	1	1
380.372	1	10
380.714	1	9
381.055	1	-3
381.397	1	5
381.739	1	-7
382.080	1	6
382.422	1	10
382.764	1	-2
383.105	1	5
383.447	1	12
383.789	1	4
384.130	1	-3
384.472	1	-3
384.814	1	4
385.156	1	1
385.497	1	6
385.839	1	-6
386.180	1	0
386.522	1	7
386.864	1	7
387.205	1	-5
387.547	1	-1
387.889	1	8
388.230	1	2
388.572	1	5
388.914	1	-8
389.255	1	15
389.597	1	1
389.939	1	-1
390.280	1	-2
390.622	1	-2
390.963	1	2
391.305	1	0
391.647	1	-4
391.988	1	2
392.330	1	-1
392.671	1	-3
393.013	1	0
393.355	1	4
393.696	1	1
394.038	1	-5
394.379	1	-7
394.721	1	5
395.062	1	2
395.404	1	5
395.746	1	5
396.087	1	-7
396.429	1	5
396.770	1	20
397.112	1	-3
397.453	1	7
397.795	1	-1
398.136	1	7
398.478	1	2
398.819	1	2
399.161	1	-6
399.503	1	4
399.844	1	-11
400.186	1	-6
400.527	1	11
400.869	1	2
401.210	1	7
401.552	1	1
401.893	1	9
402.235	1	1
402.576	1	0
402.918	1	3
403.259	1	8
403.601	1	7
403.942	1	1
404.284	1	-10
404.625	1	-1
404.967	1	-1
405.308	1	-7
405.649	1	6
405.991	1	8
406.332	1	-13
406.674	1	5
407.015	1	0
407.357	1	-6
407.698	1	0
408.040	1	0
408.381	1	-4
408.722	1	-9
409.064	1	-2
409.405	1	3
409.747	1	-5
410.088	1	3
410.430	1	-3
410.771	1	2
411.112	1	-6
411.454	1	3
411.795	1	10
412.137	1	-3
412.478	1	3
412.819	1	-11
413.161	1	12
413.502	1	-1
413.844	1	2
414.185	1	13
414.526	1	3
414.868	1	-3
415.209	1	-16
415.550	1	2
415.892	1	2
416.233	1	5
416.575	1	-6
416.916	1	-10
417.257	1	-1
417.599	1	-3
417.940	1	0
418.281	1	-11
418.623	1	-6
418.964	1	-10
419.305	1	-3
419.647	1	9
419.988	1	2
420.329	1	0
420.671	1	-3
421.012	1	-2
421.353	1	6
421.695	1	-1
422.036	1	7
422.377	1	2
422.718	1	6
423.060	1	-10
423.401	1	-8
423.742	1	-5
424.084	1	16
424.425	1	-9
424.766	1	-7
425.107	1	-3
425.449	1	6
425.790	1	4
426.131	1	12
426.472	1	1
426.814	1	-5
427.155	1	12
427.496	1	-8
427.837	1	3
428.179	1	15
428.520	1	-1
428.861	1	4
429.202	1	-8
429.544	1	0
429.885	1	3
430.226	1	2
430.567	1	-1
430.909	1	-8
431.250	1	8
431.591	1	-2
431.932	1	-3
432.273	1	0
432.615	1	-3
432.956	1	2
433.297	1	-2
433.638	1	3
433.979	1	-6
434.320	1	3
434.662	1	-3
435.003	1	4
435.344	1	-2
435.685	1	7
436.026	1	5
436.368	1	4
436.709	1	-4
437.050	1	-10
437.391	1	-8
437.732	1	4
438.073	1	-1
438.414	1	-9
438.756	1	2
439.097	1	3
439.438	1	4
439.779	1	5
440.120	1	-4
440.461	1	8
440.802	1	9
441.143	1	3
441.485	1	-4
441.826	1	4
442.167	1	3
442.508	1	-2
442.849	1	-3
443.190	1	-4
443.531	1	2
443.872	1	-1
444.213	1	3
444.554	1	-2
444.895	1	-19
445.237	1	-9
445.578	1	-3
445.919	1	5
446.260	1	7
446.601	1	-6
446.942	1	6
447.283	1	4
447.624	1	-1
447.965	1	2
448.306	1	-3
448.647	1	-3
448.988	1	-2
449.329	1	-1
449.670	1	-11
450.011	1	5
450.352	1	-7
450.693	1	-5
451.034	1	5
451.375	1	7
451.716	1	2
452.057	1	0
452.398	1	4
452.739	1	1
453.080	1	0
453.421	1	4
453.762	1	-2
454.103	1	-7
454.444	1	-8
454.785	1	3
455.126	1	6
455.467	1	-10
455.808	1	7
456.149	1	-1
456.490	1	-3
456.831	1	-7
457.172	1	-7
457.513	1	8
457.854	1	5
458.195	1	-1
458.536	1	-7
458.877	1	-4
459.218	1	-6
459.559	1	8
459.899	1	-1
460.240	1	-7
460.581	1	2
460.922	1	2
461.263	1	-11
461.604	1	3
461.945	1	1
462.286	1	-6
462.627	1	3
462.968	1	5
463.309	1	3
463.649	1	15
463.990	1	-11
464.331	1	0
464.672	1	-9
465.013	1	6
465.354	1	-5
465.695	1	2
466.036	1	-13
466.376	1	-2
466.717	1	-4
467.058	1	-3
467.399	1	5
467.740	1	-1
468.081	1	-2
468.422	1	1
468.762	1	13
469.103	1	6
469.444	1	2
469.785	1	-2
470.126	1	4
470.467	1	1
470.807	1	5
471.148	1	-10
471.489	1	-1
471.830	1	2
472.171	1	1
472.511	1	0
472.852	1	0
473.193	1	4
473.534	1	-2
473.875	1	-5
474.215	1	6
474.556	1	0
474.897	1	2
475.238	1	-7
475.578	1	-4
475.919	1	6
476.260	1	6
476.601	1	-5
476.942	1	-5
477.282	1	6
477.623	1	3
477.964	1	1
478.305	1	-6
478.645	1	4
478.986	1	-3
479.327	1	-7
479.667	1	-2
480.008	1	1
480.349	1	1
480.690	1	3
481.030	1	-6
481.371	1	-2
481.712	1	2
482.053	1	-5
482.393	1	-1
482.734	1	12
483.075	1	1
483.415	1	4
483.756	1	-6
484.097	1	-14
484.437	1	2
484.778	1	-5
485.119	1	1
485.459	1	-10
485.800	1	-9
486.141	1	12
486.481	1	5
486.822	1	1
487.163	1	5
487.503	1	-3
487.844	1	-2
488.185	1	-6
488.525	1	9
488.866	1	9
489.207	1	-1
489.547	1	-2
489.888	1	5
490.228	1	-7
490.569	1	1
490.910	1	2
491.250	1	2
491.591	1	-1
491.932	1	0
492.272	1	3
492.613	1	-6
492.953	1	-9
493.294	1	3
493.635	1	-1
493.975	1	6
494.316	1	11
494.656	1	5
494.997	1	0
495.337	1	8
495.678	1	3
496.019	1	-11
496.359	1	-5
496.700	1	8
497.040	1	3
497.381	1	7
497.721	1	-7
498.062	1	-2
498.403	1	-1
498.743	1	1
499.084	1	0
499.424	1	1
499.765	1	-8
500.105	1	1
500.446	1	-2
500.786	1	1
501.127	1	1
501.467	1	0
501.808	1	-1
502.148	1	17
502.489	1	-6
502.829	1	-7
503.170	1	4
503.510	1	6
503.851	1	-2
504.191	1	-2
504.532	1	-18
504.872	1	-5
505.213	1	-5
505.553	1	-6
505.894	1	5
506.234	1	4
506.575	1	5
506.915	1	-1
507.256	1	-6
507.596	1	2
507.936	1	10
508.277	1	-1
508.617	1	3
508.958	1	10
509.298	1	-7
509.639	1	3
509.979	1	9
510.319	1	-7
510.660	1	-10
511.000	1	3
511.341	1	2
511.681	1	-1
512.022	1	3
512.362	1	-1
512.702	1	-4
513.043	1	3
513.383	1	0
513.724	1	-1
514.064	1	12
514.404	1	-3
514.745	1	-1
515.085	1	-2
515.425	1	-3
515.766	1	1
516.106	1	4
516.447	1	3
516.787	1	8
517.127	1	2
517.468	1	5
517.808	1	11
518.148	1	0
518.489	1	10
518.829	1	9
519.169	1	1
519.510	1	4
519.850	1	4
520.190	1	-5
520.531	1	8
520.871	1	0
521.211	1	-4
521.552	1	4
521.892	1	9
522.232	1	2
522.573	1	10
522.913	1	2
523.253	1	10
523.593	1	4
523.934	1	2
524.274	1	-4
524.614	1	0
524.955	1	11
525.295	1	-2
525.635	1	4
525.975	1	-5
526.316	1	10
526.656	1	4
526.996	1	4
527.337	1	-6
527.677	1	-2
528.017	1	-1
528.357	1	-4
528.698	1	0
529.038	1	-8
529.378	1	2
529.718	1	7
530.058	1	9
530.399	1	-1
530.739	1	9
531.079	1	3
531.419	1	9
531.760	1	2
532.100	1	-5
532.440	1	0
532.780	1	3
533.120	1	-3
533.461	1	6
533.801	1	6
534.141	1	-10
534.481	1	6
534.821	1	4
535.162	1	5
535.502	1	1
535.842	1	-3
536.182	1	4
536.522	1	12
536.862	1	5
537.203	1	3
537.543	1	2
537.883	1	4
538.223	1	5
538.563	1	-8
538.903	1	1
539.243	1	-9
539.584	1	-1
539.924	1	-8
540.264	1	-4
540.604	1	1
540.944	1	5
541.284	1	8
541.624	1	5
541.964	1	8
542.305	1	-1
542.645	1	12
542.985	1	6
543.325	1	-1
543.665	1	0
544.005	1	6
544.345	1	7
544.685	1	-1
545.025	1	-4
545.365	1	3
545.705	1	9
546.045	1	0
546.386	1	4
546.726	1	-1
547.066	1	13
547.406	1	1
547.746	1	-2
548.086	1	4
548.426	1	6
548.766	1	6
549.106	1	10
549.446	1	-2
549.786	1	-5
550.126	1	5
550.466	1	3
550.806	1	-5
551.146	1	4
551.486	1	-1
551.826	1	3
552.166	1	-2
552.506	1	7
552.846	1	3
553.186	1	-3
553.526	1	-6
553.866	1	-8
554.206	1	3
554.546	1	-8
554.886	1	-8
555.226	1	-5
555.566	1	9
555.906	1	-3
556.246	1	5
556.586	1	-11
556.926	1	6
557.266	1	4
557.606	1	0
557.946	1	3
558.286	1	4
558.626	1	12
558.966	1	5
559.306	1	-6
559.646	1	-2
559.986	1	-6
560.325	1	-2
560.665	1	3
561.005	1	-1
561.345	1	-4
561.685	1	0
562.025	1	-6
562.365	1	7
562.705	1	6
563.045	1	6
563.385	1	7
563.725	1	-6
564.064	1	1
564.404	1	6
564.744	1	5
565.084	1	12
565.424	1	0
565.764	1	4
566.104	1	-2
566.444	1	10
566.783	1	8
567.123	1	-4
567.463	1	-6
567.803	1	6
568.143	1	-1
568.483	1	-11
568.823	1	-2
569.162	1	-1
569.502	1	1
569.842	1	-8
570.182	1	-6
570.522	1	-5
570.862	1	3
571.201	1	-2
571.541	1	-11
571.881	1	-3
572.221	1	6
572.561	1	-2
572.900	1	4
573.240	1	4
573.580	1	-7
573.920	1	3
574.260	1	4
574.599	1	2
574.939	1	-5
575.279	1	-1
575.619	1	13
575.959	1	-1
576.298	1	6
576.638	1	6
576.978	1	1
577.318	1	9
577.657	1	6
577.997	1	-5
578.337	1	1
578.677	1	4
579.016	1	1
579.356	1	-7
579.696	1	-2
580.036	1	1
580.375	1	-1
580.715	1	9
581.055	1	3
581.394	1	-3
581.734	1	10
582.074	1	10
582.414	1	-6
582.753	1	4
583.093	1	4
583.433	1	15
583.772	1	-6
584.112	1	10
584.452	1	-5
584.791	1	1
585.131	1	11
585.471	1	11
585.811	1	-4
586.150	1	-7
586.490	1	5
586.830	1	-4
587.169	1	9
587.509	1	1
587.849	1	10
588.188	1	4
588.528	1	7
588.867	1	-3
589.207	1	-4
589.547	1	-1
589.886	1	-1
590.226	1	-2
590.566	1	-4
590.905	1	6
591.245	1	-1
591.585	1	-10
591.924	1	1
592.264	1	-7
592.603	1	5
592.943	1	4
593.283	1	2
593.622	1	-11
593.962	1	-1
594.301	1	-2
594.641	1	1
594.981	1	8
595.320	1	-2
595.660	1	2
595.999	1	9
596.339	1	2
596.678	1	1
597.018	1	1
597.358	1	-10
597.697	1	2
598.037	1	4
598.376	1	-9
598.716	1	-5
599.055	1	0
599.395	1	1
599.734	1	2
600.074	1	-3
600.413	1	-3
600.753	1	1
601.092	1	-4
601.432	1	-2
601.771	1	12
602.111	1	-6
602.451	1	9
602.790	1	4
603.130	1	-2
603.469	1	-9
603.809	1	4
604.148	1	8
604.487	1	-1
604.827	1	-7
605.166	1	-5
605.506	1	0
605.845	1	8
606.185	1	6
606.524	1	-5
606.864	1	-4
607.203	1	10
607.543	1	13
607.882	1	-3
608.222	1	5
608.561	1	6
608.901	1	8
609.240	1	-5
609.579	1	-6
609.919	1	-5
610.258	1	7
610.598	1	9
610.937	1	1
611.277	1	-4
611.616	1	-5
611.955	1	0
612.295	1	-6
612.634	1	-12
612.974	1	0
613.313	1	-4
613.652	1	13
613.992	1	-8
614.331	1	-3
614.671	1	12
615.010	1	-1
615.349	1	0
615.689	1	9
616.028	1	5
616.368	1	1
616.707	1	10
617.046	1	-2
617.386	1	2
617.725	1	-2
618.064	1	-1
618.404	1	-4
618.743	1	6
619.082	1	3
619.422	1	-3
619.761	1	0
620.100	1	-3
620.440	1	-5
620.779	1	-5
621.118	1	-1
621.458	1	2
621.797	1	-9
622.136	1	6
622.476	1	2
622.815	1	6
623.154	1	0
623.494	1	3
623.833	1	-2
624.172	1	1
624.511	1	5
624.851	1	3
625.190	1	3
625.529	1	4
625.869	1	5
626.208	1	6
626.547	1	-7
626.886	1	2
627.226	1	11
627.565	1	6
627.904	1	-1
628.243	1	-4
628.583	1	-3
628.922	1	-9
629.261	1	2
629.600	1	-7
629.940	1	3
630.279	1	4
630.618	1	-3
630.957	1	1
631.297	1	2
631.636	1	6
631.975	1	-3
632.314	1	5
632.653	1	1
632.993	1	-7
633.332	1	-2
633.671	1	5
634.010	1	0
634.349	1	-5
634.689	1	11
635.028	1	6
635.367	1	-6
635.706	1	-4
636.045	1	2
636.384	1	-5
636.724	1	5
637.063	1	4
637.402	1	0
637.741	1	-8
638.080	1	12
638.419	1	-11
638.759	1	1
639.098	1	-9
639.437	1	-12
639.776	1	3
640.115	1	1
640.454	1	-2
640.793	1	-5
641.132	1	-1
641.472	1	-1
641.811	1	3
642.150	1	-10
642.489	1	-1
642.828	1	-4
643.167	1	-9
643.506	1	5
643.845	1	-1
644.184	1	9
644.524	1	-1
644.863	1	-13
645.202	1	9
645.541	1	0
645.880	1	9
646.219	1	-1
646.558	1	1
646.897	1	6
647.236	1	-10
647.575	1	-10
647.914	1	0
648.253	1	0
648.592	1	5
648.931	1	-3
649.270	1	-4
649.610	1	4
649.949	1	-10
650.288	1	-6
650.627	1	-5
650.966	1	0
651.305	1	-6
651.644	1	4
651.983	1	-3
652.322	1	2
652.661	1	3
653.000	1	-4
653.339	1	-7
653.678	1	1
654.017	1	6
654.356	1	-4
654.695	1	6
655.034	1	-9
655.373	1	10
655.712	1	-9
656.051	1	3
656.390	1	1
656.729	1	4
657.068	1	6
657.406	1	0
657.745	1	14
658.084	1	-7
658.423	1	-4
658.762	1	-9
659.101	1	3
659.440	1	5
659.779	1	-4
660.118	1	-4
660.457	1	3
660.796	1	2
661.135	1	-14
661.474	1	2
661.813	1	2
662.152	1	5
662.491	1	-15
662.829	1	-1
663.168	1	7
663.507	1	0
663.846	1	-11
664.185	1	2
664.524	1	-4
664.863	1	7
665.202	1	11
665.541	1	1
665.879	1	-5
666.218	1	10
666.557	1	1
666.896	1	3
667.235	1	-4
667.574	1	-2
667.913	1	2
668.251	1	3
668.590	1	4
668.929	1	2
669.268	1	-3
669.607	1	2
669.946	1	1
670.285	1	13
670.623	1	-2
670.962	1	-2
671.301	1	2
671.640	1	4
671.979	1	4
672.317	1	12
672.656	1	-1
672.995	1	-3
673.334	1	-1
673.673	1	-3
674.011	1	-5
674.350	1	11
674.689	1	-1
675.028	1	-5
675.367	1	-4
675.705	1	5
676.044	1	11
676.383	1	1
676.722	1	10
677.060	1	-9
677.399	1	-6
677.738	1	-10
678.077	1	15
678.416	1	-1
678.754	1	3
679.093	1	3
679.432	1	-4
679.771	1	6
680.109	1	0
680.448	1	5
680.787	1	-5
681.125	1	8
681.464	1	7
681.803	1	10
682.142	1	-3
682.480	1	2
682.819	1	3
683.158	1	-4
683.496	1	-3
683.835	1	-9
684.174	1	-10
684.512	1	3
684.851	1	-7
685.190	1	-1
685.529	1	9
685.867	1	5
686.206	1	1
686.545	1	1
686.883	1	3
687.222	1	-2
687.561	1	3
687.899	1	-4
688.238	1	-6
688.577	1	2
688.746	1	-7