File: Data/GaN_170K_550ms/GaN_sample D_spot 18_UVVIS_170 K_200um_550 ms 2x2mm1_58.txt
340.368	1	-3
340.710	1	0
341.052	1	4
341.394	1	5
341.737	1	1
342.079	1	-3
342.421	1	-1
342.763	1	6
343.105	1	7
343.447	1	-8
343.789	1	10
344.131	1	10
344.473	1	3
344.815	1	1
345.157	1	4
345.499	1	-2
345.841	1	0
346.183	1	9
346.526	1	7
346.868	1	22
347.210	1	-3
347.552	1	14
347.894	1	9
348.236	1	10
348.578	1	13
348.920	1	13
349.262	1	4
349.604	1	22
349.946	1	9
350.288	1	10
350.630	1	21
350.972	1	12
351.314	1	12
351.656	1	8
351.998	1	21
352.340	1	17
352.682	1	7
353.024	1	13
353.366	1	17
353.708	1	20
354.050	1	15
354.392	1	26
354.734	1	19
355.076	1	21
355.418	1	19
355.760	1	22
356.102	1	36
356.444	1	34
356.785	1	34
357.127	1	43
357.469	1	30
357.811	1	38
358.153	1	44
358.495	1	58
358.837	1	49
359.179	1	46
359.521	1	73
359.863	1	78
360.205	1	83
360.547	1	98
360.889	1	97
361.231	1	126
361.572	1	133
361.914	1	139
362.256	1	154
362.598	1	191
362.940	1	234
363.282	1	239
363.624	1	271
363.966	1	312
364.308	1	361
364.649	1	402
364.991	1	463
365.333	1	537
365.675	1	563
366.017	1	655
366.359	1	731
366.701	1	806
367.042	1	846
367.384	1	923
367.726	1	983
368.068	1	997
368.410	1	1058
368.752	1	1051
369.093	1	1026
369.435	1	1010
369.777	1	982
370.119	1	913
370.461	1	904
370.803	1	816
371.144	1	770
371.486	1	684
371.828	1	653
372.170	1	619
372.512	1	588
372.853	1	538
373.195	1	512
373.537	1	484
373.879	1	454
374.220	1	440
374.562	1	401
374.904	1	378
375.246	1	350
375.588	1	325
375.929	1	324
376.271	1	314
376.613	1	288
376.955	1	274
377.296	1	249
377.638	1	249
377.980	1	236
378.321	1	219
378.663	1	201
379.005	1	191
379.347	1	173
379.688	1	170
380.030	1	156
380.372	1	141
380.714	1	152
381.055	1	127
381.397	1	129
381.739	1	122
382.080	1	118
382.422	1	114
382.764	1	113
383.105	1	119
383.447	1	114
383.789	1	128
384.130	1	100
384.472	1	94
384.814	1	101
385.156	1	105
385.497	1	101
385.839	1	92
386.180	1	94
386.522	1	86
386.864	1	91
387.205	1	77
387.547	1	73
387.889	1	76
388.230	1	71
388.572	1	74
388.914	1	66
389.255	1	68
389.597	1	69
389.939	1	56
390.280	1	57
390.622	1	57
390.963	1	66
391.305	1	52
391.647	1	54
391.988	1	67
392.330	1	61
392.671	1	38
393.013	1	44
393.355	1	47
393.696	1	43
394.038	1	36
394.379	1	37
394.721	1	34
395.062	1	35
395.404	1	53
395.746	1	43
396.087	1	59
396.429	1	45
396.770	1	48
397.112	1	30
397.453	1	53
397.795	1	37
398.136	1	42
398.478	1	36
398.819	1	32
399.161	1	26
399.503	1	40
399.844	1	34
400.186	1	31
400.527	1	45
400.869	1	22
401.210	1	34
401.552	1	28
401.893	1	33
402.235	1	38
402.576	1	25
402.918	1	29
403.259	1	27
403.601	1	34
403.942	1	33
404.284	1	16
404.625	1	21
404.967	1	20
405.308	1	35
405.649	1	16
405.991	1	21
406.332	1	16
406.674	1	27
407.015	1	28
407.357	1	12
407.698	1	18
408.040	1	23
408.381	1	19
408.722	1	16
409.064	1	19
409.405	1	21
409.747	1	18
410.088	1	27
410.430	1	6
410.771	1	19
411.112	1	15
411.454	1	26
411.795	1	24
412.137	1	7
412.478	1	13
412.819	1	7
413.161	1	22
413.502	1	13
413.844	1	16
414.185	1	15
414.526	1	10
414.868	1	13
415.209	1	-3
415.550	1	14
415.892	1	8
416.233	1	26
416.575	1	17
416.916	1	15
417.257	1	9
417.599	1	18
417.940	1	24
418.281	1	2
418.623	1	-1
418.964	1	15
419.305	1	12
419.647	1	21
419.988	1	22
420.329	1	12
420.671	1	0
421.012	1	9
421.353	1	18
421.695	1	7
422.036	1	14
422.377	1	16
422.718	1	29
423.060	1	8
423.401	1	5
423.742	1	10
424.084	1	23
424.425	1	10
424.766	1	9
425.107	1	7
425.449	1	9
425.790	1	14
426.131	1	15
426.472	1	17
426.814	1	2
427.155	1	23
427.496	1	13
427.837	1	13
428.179	1	17
428.520	1	12
428.861	1	16
429.202	1	9
429.544	1	13
429.885	1	11
430.226	1	25
430.567	1	15
430.909	1	10
431.250	1	28
431.591	1	9
431.932	1	9
432.273	1	10
432.615	1	14
432.956	1	20
433.297	1	6
433.638	1	16
433.979	1	13
434.320	1	19
434.662	1	-2
435.003	1	11
435.344	1	16
435.685	1	2
436.026	1	14
436.368	1	17
436.709	1	2
437.050	1	4
437.391	1	8
437.732	1	18
438.073	1	12
438.414	1	3
438.756	1	9
439.097	1	12
439.438	1	14
439.779	1	14
440.120	1	1
440.461	1	23
440.802	1	21
441.143	1	1
441.485	1	9
441.826	1	17
442.167	1	11
442.508	1	10
442.849	1	8
443.190	1	9
443.531	1	13
443.872	1	6
444.213	1	-1
444.554	1	7
444.895	1	-5
445.237	1	11
445.578	1	25
445.919	1	15
446.260	1	9
446.601	1	5
446.942	1	10
447.283	1	13
447.624	1	2
447.965	1	9
448.306	1	7
448.647	1	5
448.988	1	29
449.329	1	13
449.670	1	-4
450.011	1	11
450.352	1	8
450.693	1	9
451.034	1	4
451.375	1	14
451.716	1	19
452.057	1	17
452.398	1	22
452.739	1	14
453.080	1	8
453.421	1	10
453.762	1	15
454.103	1	4
454.444	1	5
454.785	1	16
455.126	1	15
455.467	1	0
455.808	1	20
456.149	1	9
456.490	1	10
456.831	1	2
457.172	1	4
457.513	1	13
457.854	1	11
458.195	1	17
458.536	1	7
458.877	1	20
459.218	1	11
459.559	1	10
459.899	1	13
460.240	1	16
460.581	1	21
460.922	1	1
461.263	1	8
461.604	1	19
461.945	1	14
462.286	1	6
462.627	1	10
462.968	1	12
463.309	1	20
463.649	1	12
463.990	1	5
464.331	1	22
464.672	1	3
465.013	1	24
465.354	1	1
465.695	1	19
466.036	1	3
466.376	1	12
466.717	1	9
467.058	1	1
467.399	1	23
467.740	1	17
468.081	1	7
468.422	1	16
468.762	1	13
469.103	1	20
469.444	1	15
469.785	1	8
470.126	1	15
470.467	1	11
470.807	1	11
471.148	1	7
471.489	1	24
471.830	1	10
472.171	1	11
472.511	1	13
472.852	1	25
473.193	1	17
473.534	1	22
473.875	1	18
474.215	1	19
474.556	1	20
474.897	1	8
475.238	1	7
475.578	1	24
475.919	1	20
476.260	1	20
476.601	1	18
476.942	1	14
477.282	1	20
477.623	1	21
477.964	1	13
478.305	1	10
478.645	1	17
478.986	1	15
479.327	1	0
479.667	1	3
480.008	1	23
480.349	1	24
480.690	1	24
481.030	1	26
481.371	1	20
481.712	1	11
482.053	1	18
482.393	1	17
482.734	1	25
483.075	1	16
483.415	1	27
483.756	1	27
484.097	1	10
484.437	1	34
484.778	1	10
485.119	1	25
485.459	1	23
485.800	1	24
486.141	1	31
486.481	1	26
486.822	1	36
487.163	1	37
487.503	1	22
487.844	1	42
488.185	1	38
488.525	1	35
488.866	1	52
489.207	1	44
489.547	1	53
489.888	1	37
490.228	1	43
490.569	1	37
490.910	1	40
491.250	1	46
491.591	1	37
491.932	1	46
492.272	1	37
492.613	1	43
492.953	1	44
493.294	1	31
493.635	1	42
493.975	1	49
494.316	1	42
494.656	1	34
494.997	1	53
495.337	1	50
495.678	1	39
496.019	1	38
496.359	1	53
496.700	1	54
497.040	1	53
497.381	1	46
497.721	1	43
498.062	1	52
498.403	1	66
498.743	1	61
499.084	1	51
499.424	1	60
499.765	1	41
500.105	1	50
500.446	1	52
500.786	1	52
501.127	1	67
501.467	1	55
501.808	1	66
502.148	1	69
502.489	1	55
502.829	1	68
503.170	1	67
503.510	1	73
503.851	1	61
504.191	1	69
504.532	1	58
504.872	1	71
505.213	1	69
505.553	1	72
505.894	1	87
506.234	1	73
506.575	1	85
506.915	1	83
507.256	1	73
507.596	1	82
507.936	1	82
508.277	1	69
508.617	1	93
508.958	1	85
509.298	1	80
509.639	1	95
509.979	1	84
510.319	1	79
510.660	1	77
511.000	1	82
511.341	1	99
511.681	1	77
512.022	1	86
512.362	1	74
512.702	1	89
513.043	1	85
513.383	1	81
513.724	1	85
514.064	1	91
514.404	1	81
514.745	1	85
515.085	1	93
515.425	1	89
515.766	1	93
516.106	1	103
516.447	1	86
516.787	1	97
517.127	1	105
517.468	1	96
517.808	1	100
518.148	1	106
518.489	1	96
518.829	1	103
519.169	1	96
519.510	1	117
519.850	1	105
520.190	1	100
520.531	1	91
520.871	1	98
521.211	1	100
521.552	1	97
521.892	1	113
522.232	1	94
522.573	1	102
522.913	1	111
523.253	1	117
523.593	1	93
523.934	1	99
524.274	1	104
524.614	1	105
524.955	1	105
525.295	1	104
525.635	1	112
525.975	1	109
526.316	1	116
526.656	1	116
526.996	1	108
527.337	1	108
527.677	1	101
528.017	1	123
528.357	1	118
528.698	1	111
529.038	1	110
529.378	1	116
529.718	1	130
530.058	1	124
530.399	1	123
530.739	1	119
531.079	1	129
531.419	1	122
531.760	1	115
532.100	1	121
532.440	1	126
532.780	1	114
533.120	1	114
533.461	1	112
533.801	1	111
534.141	1	100
534.481	1	114
534.821	1	110
535.162	1	113
535.502	1	103
535.842	1	104
536.182	1	114
536.522	1	120
536.862	1	97
537.203	1	104
537.543	1	100
537.883	1	106
538.223	1	108
538.563	1	97
538.903	1	100
539.243	1	88
539.584	1	108
539.924	1	81
540.264	1	114
540.604	1	108
540.944	1	97
541.284	1	98
541.624	1	89
541.964	1	103
542.305	1	93
542.645	1	98
542.985	1	106
543.325	1	99
543.665	1	108
544.005	1	119
544.345	1	105
544.685	1	102
545.025	1	109
545.365	1	101
545.705	1	117
546.045	1	105
546.386	1	103
546.726	1	110
547.066	1	120
547.406	1	106
547.746	1	99
548.086	1	118
548.426	1	122
548.766	1	108
549.106	1	112
549.446	1	108
549.786	1	115
550.126	1	107
550.466	1	101
550.806	1	109
551.146	1	111
551.486	1	104
551.826	1	108
552.166	1	96
552.506	1	106
552.846	1	95
553.186	1	95
553.526	1	98
553.866	1	90
554.206	1	91
554.546	1	82
554.886	1	90
555.226	1	88
555.566	1	88
555.906	1	90
556.246	1	100
556.586	1	82
556.926	1	89
557.266	1	87
557.606	1	83
557.946	1	89
558.286	1	75
558.626	1	91
558.966	1	89
559.306	1	98
559.646	1	88
559.986	1	84
560.325	1	83
560.665	1	89
561.005	1	80
561.345	1	73
561.685	1	74
562.025	1	77
562.365	1	78
562.705	1	86
563.045	1	80
563.385	1	91
563.725	1	81
564.064	1	86
564.404	1	84
564.744	1	90
565.084	1	81
565.424	1	88
565.764	1	80
566.104	1	77
566.444	1	68
566.783	1	74
567.123	1	73
567.463	1	73
567.803	1	88
568.143	1	78
568.483	1	70
568.823	1	75
569.162	1	68
569.502	1	69
569.842	1	69
570.182	1	63
570.522	1	73
570.862	1	73
571.201	1	68
571.541	1	66
571.881	1	60
572.221	1	67
572.561	1	74
572.900	1	69
573.240	1	78
573.580	1	73
573.920	1	77
574.260	1	64
574.599	1	61
574.939	1	62
575.279	1	61
575.619	1	74
575.959	1	50
576.298	1	73
576.638	1	70
576.978	1	53
577.318	1	63
577.657	1	64
577.997	1	59
578.337	1	64
578.677	1	59
579.016	1	72
579.356	1	63
579.696	1	59
580.036	1	64
580.375	1	62
580.715	1	67
581.055	1	74
581.394	1	59
581.734	1	67
582.074	1	64
582.414	1	64
582.753	1	67
583.093	1	72
583.433	1	61
583.772	1	69
584.112	1	62
584.452	1	52
584.791	1	57
585.131	1	70
585.471	1	59
585.811	1	45
586.150	1	55
586.490	1	56
586.830	1	45
587.169	1	59
587.509	1	63
587.849	1	51
588.188	1	60
588.528	1	48
588.867	1	57
589.207	1	49
589.547	1	46
589.886	1	38
590.226	1	51
590.566	1	45
590.905	1	58
591.245	1	41
591.585	1	36
591.924	1	49
592.264	1	45
592.603	1	38
592.943	1	39
593.283	1	49
593.622	1	32
593.962	1	49
594.301	1	45
594.641	1	48
594.981	1	52
595.320	1	38
595.660	1	41
595.999	1	42
596.339	1	43
596.678	1	36
597.018	1	40
597.358	1	40
597.697	1	35
598.037	1	39
598.376	1	39
598.716	1	45
599.055	1	41
599.395	1	44
599.734	1	47
600.074	1	47
600.413	1	31
600.753	1	43
601.092	1	31
601.432	1	39
601.771	1	51
602.111	1	37
602.451	1	51
602.790	1	51
603.130	1	39
603.469	1	42
603.809	1	37
604.148	1	46
604.487	1	47
604.827	1	43
605.166	1	39
605.506	1	47
605.845	1	39
606.185	1	37
606.524	1	39
606.864	1	47
607.203	1	40
607.543	1	46
607.882	1	42
608.222	1	42
608.561	1	49
608.901	1	48
609.240	1	35
609.579	1	33
609.919	1	36
610.258	1	43
610.598	1	40
610.937	1	37
611.277	1	37
611.616	1	41
611.955	1	36
612.295	1	23
612.634	1	39
612.974	1	39
613.313	1	33
613.652	1	47
613.992	1	35
614.331	1	32
614.671	1	35
615.010	1	39
615.349	1	40
615.689	1	37
616.028	1	29
616.368	1	27
616.707	1	42
617.046	1	29
617.386	1	29
617.725	1	26
618.064	1	29
618.404	1	37
618.743	1	31
619.082	1	32
619.422	1	14
619.761	1	30
620.100	1	30
620.440	1	39
620.779	1	30
621.118	1	22
621.458	1	23
621.797	1	28
622.136	1	29
622.476	1	18
622.815	1	30
623.154	1	28
623.494	1	21
623.833	1	17
624.172	1	40
624.511	1	35
624.851	1	15
625.190	1	32
625.529	1	38
625.869	1	36
626.208	1	25
626.547	1	23
626.886	1	38
627.226	1	34
627.565	1	38
627.904	1	22
628.243	1	25
628.583	1	26
628.922	1	13
629.261	1	27
629.600	1	19
629.940	1	21
630.279	1	23
630.618	1	14
630.957	1	25
631.297	1	17
631.636	1	25
631.975	1	17
632.314	1	29
632.653	1	32
632.993	1	26
633.332	1	31
633.671	1	29
634.010	1	28
634.349	1	11
634.689	1	33
635.028	1	28
635.367	1	21
635.706	1	23
636.045	1	22
636.384	1	15
636.724	1	28
637.063	1	24
637.402	1	32
637.741	1	20
638.080	1	25
638.419	1	14
638.759	1	15
639.098	1	14
639.437	1	14
639.776	1	23
640.115	1	31
640.454	1	14
640.793	1	7
641.132	1	23
641.472	1	23
641.811	1	21
642.150	1	17
642.489	1	14
642.828	1	9
643.167	1	29
643.506	1	30
643.845	1	23
644.184	1	29
644.524	1	29
644.863	1	23
645.202	1	22
645.541	1	15
645.880	1	33
646.219	1	17
646.558	1	17
646.897	1	24
647.236	1	20
647.575	1	11
647.914	1	18
648.253	1	20
648.592	1	27
648.931	1	24
649.270	1	22
649.610	1	21
649.949	1	14
650.288	1	8
650.627	1	10
650.966	1	15
651.305	1	10
651.644	1	19
651.983	1	26
652.322	1	19
652.661	1	21
653.000	1	19
653.339	1	20
653.678	1	22
654.017	1	20
654.356	1	18
654.695	1	24
655.034	1	11
655.373	1	21
655.712	1	9
656.051	1	24
656.390	1	19
656.729	1	18
657.068	1	25
657.406	1	24
657.745	1	28
658.084	1	12
658.423	1	12
658.762	1	16
659.101	1	21
659.440	1	18
659.779	1	12
660.118	1	15
660.457	1	18
660.796	1	19
661.135	1	13
661.474	1	29
661.813	1	9
662.152	1	15
662.491	1	15
662.829	1	20
663.168	1	13
663.507	1	15
663.846	1	11
664.185	1	18
664.524	1	14
664.863	1	16
665.202	1	25
665.541	1	23
665.879	1	24
666.218	1	30
666.557	1	7
666.896	1	11
667.235	1	17
667.574	1	13
667.913	1	10
668.251	1	16
668.590	1	22
668.929	1	13
669.268	1	6
669.607	1	15
669.946	1	14
670.285	1	26
670.623	1	16
670.962	1	7
671.301	1	17
671.640	1	21
671.979	1	21
672.317	1	16
672.656	1	13
672.995	1	2
673.334	1	16
673.673	1	17
674.011	1	20
674.350	1	12
674.689	1	22
675.028	1	11
675.367	1	7
675.705	1	29
676.044	1	26
676.383	1	16
676.722	1	17
677.060	1	6
677.399	1	14
677.738	1	17
678.077	1	27
678.416	1	11
678.754	1	16
679.093	1	8
679.432	1	12
679.771	1	14
680.109	1	20
680.448	1	17
680.787	1	7
681.125	1	24
681.464	1	20
681.803	1	20
682.142	1	8
682.480	1	19
682.819	1	28
683.158	1	9
683.496	1	13
683.835	1	11
684.174	1	11
684.512	1	13
684.851	1	20
685.190	1	9
685.529	1	27
685.867	1	19
686.206	1	23
686.545	1	27
686.883	1	16
687.222	1	19
687.561	1	25
687.899	1	9
688.238	1	11
688.577	1	35
688.746	1	7