File: Data/GaN_170K_550ms/GaN_sample D_spot 18_UVVIS_170 K_200um_550 ms 2x2mm1_231.txt
340.368	1	-2
340.710	1	-8
341.052	1	10
341.394	1	5
341.737	1	2
342.079	1	-2
342.421	1	8
342.763	1	13
343.105	1	19
343.447	1	-4
343.789	1	2
344.131	1	-5
344.473	1	2
344.815	1	14
345.157	1	-4
345.499	1	-2
345.841	1	16
346.183	1	4
346.526	1	8
346.868	1	1
347.210	1	-6
347.552	1	16
347.894	1	5
348.236	1	-2
348.578	1	9
348.920	1	2
349.262	1	-2
349.604	1	9
349.946	1	10
350.288	1	-4
350.630	1	11
350.972	1	-8
351.314	1	0
351.656	1	-3
351.998	1	7
352.340	1	4
352.682	1	5
353.024	1	4
353.366	1	5
353.708	1	5
354.050	1	-3
354.392	1	4
354.734	1	7
355.076	1	-5
355.418	1	-5
355.760	1	2
356.102	1	5
356.444	1	-2
356.785	1	3
357.127	1	3
357.469	1	7
357.811	1	6
358.153	1	0
358.495	1	2
358.837	1	-3
359.179	1	-6
359.521	1	9
359.863	1	6
360.205	1	7
360.547	1	15
360.889	1	3
361.231	1	6
361.572	1	7
361.914	1	3
362.256	1	8
362.598	1	13
362.940	1	24
363.282	1	13
363.624	1	12
363.966	1	8
364.308	1	8
364.649	1	1
364.991	1	19
365.333	1	11
365.675	1	6
366.017	1	16
366.359	1	6
366.701	1	13
367.042	1	11
367.384	1	16
367.726	1	22
368.068	1	9
368.410	1	28
368.752	1	18
369.093	1	-1
369.435	1	12
369.777	1	10
370.119	1	20
370.461	1	5
370.803	1	9
371.144	1	6
371.486	1	7
371.828	1	8
372.170	1	8
372.512	1	0
372.853	1	9
373.195	1	16
373.537	1	25
373.879	1	8
374.220	1	17
374.562	1	2
374.904	1	11
375.246	1	2
375.588	1	-1
375.929	1	0
376.271	1	11
376.613	1	12
376.955	1	11
377.296	1	8
377.638	1	12
377.980	1	0
378.321	1	4
378.663	1	2
379.005	1	-8
379.347	1	7
379.688	1	15
380.030	1	10
380.372	1	9
380.714	1	10
381.055	1	11
381.397	1	12
381.739	1	-1
382.080	1	8
382.422	1	6
382.764	1	3
383.105	1	4
383.447	1	15
383.789	1	10
384.130	1	5
384.472	1	3
384.814	1	15
385.156	1	7
385.497	1	11
385.839	1	3
386.180	1	11
386.522	1	9
386.864	1	5
387.205	1	3
387.547	1	4
387.889	1	7
388.230	1	-5
388.572	1	8
388.914	1	6
389.255	1	3
389.597	1	5
389.939	1	-5
390.280	1	4
390.622	1	2
390.963	1	-5
391.305	1	-7
391.647	1	-5
391.988	1	4
392.330	1	3
392.671	1	0
393.013	1	9
393.355	1	6
393.696	1	7
394.038	1	-7
394.379	1	-1
394.721	1	-7
395.062	1	0
395.404	1	8
395.746	1	7
396.087	1	7
396.429	1	3
396.770	1	3
397.112	1	1
397.453	1	9
397.795	1	3
398.136	1	6
398.478	1	4
398.819	1	13
399.161	1	0
399.503	1	5
399.844	1	-10
400.186	1	-5
400.527	1	12
400.869	1	-1
401.210	1	9
401.552	1	7
401.893	1	-4
402.235	1	1
402.576	1	8
402.918	1	-3
403.259	1	0
403.601	1	15
403.942	1	2
404.284	1	-4
404.625	1	-3
404.967	1	4
405.308	1	1
405.649	1	9
405.991	1	11
406.332	1	-7
406.674	1	16
407.015	1	13
407.357	1	-3
407.698	1	2
408.040	1	2
408.381	1	8
408.722	1	-12
409.064	1	1
409.405	1	2
409.747	1	0
410.088	1	8
410.430	1	-4
410.771	1	4
411.112	1	3
411.454	1	10
411.795	1	13
412.137	1	-5
412.478	1	-2
412.819	1	-3
413.161	1	0
413.502	1	-1
413.844	1	8
414.185	1	-2
414.526	1	-1
414.868	1	5
415.209	1	-11
415.550	1	1
415.892	1	2
416.233	1	13
416.575	1	-1
416.916	1	-8
417.257	1	-8
417.599	1	4
417.940	1	-3
418.281	1	-4
418.623	1	1
418.964	1	4
419.305	1	-1
419.647	1	-1
419.988	1	9
420.329	1	11
420.671	1	-2
421.012	1	6
421.353	1	5
421.695	1	5
422.036	1	4
422.377	1	10
422.718	1	25
423.060	1	-6
423.401	1	8
423.742	1	-7
424.084	1	15
424.425	1	-11
424.766	1	-11
425.107	1	-7
425.449	1	6
425.790	1	-4
426.131	1	1
426.472	1	0
426.814	1	-6
427.155	1	7
427.496	1	3
427.837	1	-6
428.179	1	0
428.520	1	-1
428.861	1	-4
429.202	1	-6
429.544	1	-3
429.885	1	6
430.226	1	1
430.567	1	4
430.909	1	0
431.250	1	16
431.591	1	-7
431.932	1	-2
432.273	1	-1
432.615	1	1
432.956	1	4
433.297	1	-3
433.638	1	6
433.979	1	4
434.320	1	10
434.662	1	-18
435.003	1	-4
435.344	1	7
435.685	1	-6
436.026	1	4
436.368	1	-2
436.709	1	8
437.050	1	4
437.391	1	-3
437.732	1	0
438.073	1	-2
438.414	1	-7
438.756	1	-3
439.097	1	1
439.438	1	6
439.779	1	9
440.120	1	-3
440.461	1	11
440.802	1	8
441.143	1	3
441.485	1	-9
441.826	1	7
442.167	1	-1
442.508	1	-8
442.849	1	-7
443.190	1	-3
443.531	1	4
443.872	1	-3
444.213	1	3
444.554	1	-12
444.895	1	-11
445.237	1	-7
445.578	1	8
445.919	1	-5
446.260	1	-1
446.601	1	-4
446.942	1	10
447.283	1	12
447.624	1	-4
447.965	1	2
448.306	1	-1
448.647	1	-4
448.988	1	13
449.329	1	5
449.670	1	-11
450.011	1	12
450.352	1	-3
450.693	1	0
451.034	1	3
451.375	1	7
451.716	1	7
452.057	1	1
452.398	1	2
452.739	1	-8
453.080	1	-1
453.421	1	-4
453.762	1	-3
454.103	1	-3
454.444	1	-6
454.785	1	-5
455.126	1	17
455.467	1	-11
455.808	1	4
456.149	1	0
456.490	1	-1
456.831	1	2
457.172	1	-5
457.513	1	9
457.854	1	12
458.195	1	-4
458.536	1	-7
458.877	1	9
459.218	1	-4
459.559	1	-3
459.899	1	2
460.240	1	2
460.581	1	8
460.922	1	-2
461.263	1	-2
461.604	1	11
461.945	1	2
462.286	1	-4
462.627	1	6
462.968	1	-2
463.309	1	7
463.649	1	3
463.990	1	0
464.331	1	9
464.672	1	-5
465.013	1	0
465.354	1	-7
465.695	1	11
466.036	1	-8
466.376	1	2
466.717	1	-5
467.058	1	7
467.399	1	1
467.740	1	-2
468.081	1	-3
468.422	1	1
468.762	1	13
469.103	1	3
469.444	1	1
469.785	1	-4
470.126	1	5
470.467	1	16
470.807	1	3
471.148	1	-13
471.489	1	5
471.830	1	5
472.171	1	13
472.511	1	1
472.852	1	5
473.193	1	4
473.534	1	3
473.875	1	1
474.215	1	-2
474.556	1	4
474.897	1	0
475.238	1	-1
475.578	1	2
475.919	1	6
476.260	1	10
476.601	1	4
476.942	1	-8
477.282	1	7
477.623	1	14
477.964	1	5
478.305	1	-2
478.645	1	3
478.986	1	-9
479.327	1	-13
479.667	1	1
480.008	1	11
480.349	1	3
480.690	1	-3
481.030	1	13
481.371	1	0
481.712	1	1
482.053	1	-4
482.393	1	-4
482.734	1	10
483.075	1	-7
483.415	1	15
483.756	1	5
484.097	1	-12
484.437	1	-3
484.778	1	2
485.119	1	4
485.459	1	-3
485.800	1	-1
486.141	1	6
486.481	1	3
486.822	1	1
487.163	1	5
487.503	1	-5
487.844	1	2
488.185	1	6
488.525	1	12
488.866	1	10
489.207	1	10
489.547	1	12
489.888	1	6
490.228	1	-7
490.569	1	1
490.910	1	-3
491.250	1	1
491.591	1	-4
491.932	1	2
492.272	1	1
492.613	1	2
492.953	1	6
493.294	1	-1
493.635	1	1
493.975	1	-1
494.316	1	-5
494.656	1	7
494.997	1	-3
495.337	1	-1
495.678	1	-1
496.019	1	1
496.359	1	5
496.700	1	16
497.040	1	-2
497.381	1	8
497.721	1	1
498.062	1	-5
498.403	1	3
498.743	1	4
499.084	1	1
499.424	1	-2
499.765	1	-6
500.105	1	-2
500.446	1	-2
500.786	1	3
501.127	1	13
501.467	1	0
501.808	1	-7
502.148	1	18
502.489	1	4
502.829	1	5
503.170	1	9
503.510	1	4
503.851	1	-5
504.191	1	-3
504.532	1	-7
504.872	1	-3
505.213	1	0
505.553	1	-2
505.894	1	13
506.234	1	-7
506.575	1	10
506.915	1	1
507.256	1	2
507.596	1	3
507.936	1	2
508.277	1	-5
508.617	1	6
508.958	1	3
509.298	1	-5
509.639	1	8
509.979	1	6
510.319	1	2
510.660	1	0
511.000	1	0
511.341	1	17
511.681	1	-3
512.022	1	1
512.362	1	-6
512.702	1	-6
513.043	1	3
513.383	1	-1
513.724	1	2
514.064	1	9
514.404	1	-6
514.745	1	-7
515.085	1	5
515.425	1	3
515.766	1	1
516.106	1	13
516.447	1	4
516.787	1	1
517.127	1	9
517.468	1	2
517.808	1	9
518.148	1	5
518.489	1	5
518.829	1	0
519.169	1	3
519.510	1	9
519.850	1	5
520.190	1	10
520.531	1	5
520.871	1	-6
521.211	1	4
521.552	1	1
521.892	1	1
522.232	1	1
522.573	1	2
522.913	1	8
523.253	1	13
523.593	1	-3
523.934	1	9
524.274	1	1
524.614	1	3
524.955	1	4
525.295	1	1
525.635	1	15
525.975	1	-2
526.316	1	5
526.656	1	5
526.996	1	8
527.337	1	-11
527.677	1	-3
528.017	1	5
528.357	1	-2
528.698	1	-1
529.038	1	2
529.378	1	0
529.718	1	10
530.058	1	7
530.399	1	1
530.739	1	9
531.079	1	13
531.419	1	9
531.760	1	9
532.100	1	3
532.440	1	7
532.780	1	-2
533.120	1	13
533.461	1	-4
533.801	1	11
534.141	1	2
534.481	1	11
534.821	1	10
535.162	1	2
535.502	1	13
535.842	1	5
536.182	1	-3
536.522	1	9
536.862	1	16
537.203	1	6
537.543	1	-2
537.883	1	5
538.223	1	2
538.563	1	10
538.903	1	2
539.243	1	10
539.584	1	-2
539.924	1	0
540.264	1	4
540.604	1	0
540.944	1	-8
541.284	1	9
541.624	1	-5
541.964	1	-1
542.305	1	2
542.645	1	-1
542.985	1	10
543.325	1	4
543.665	1	7
544.005	1	10
544.345	1	5
544.685	1	2
545.025	1	-4
545.365	1	-2
545.705	1	7
546.045	1	1
546.386	1	4
546.726	1	0
547.066	1	11
547.406	1	2
547.746	1	1
548.086	1	5
548.426	1	9
548.766	1	1
549.106	1	15
549.446	1	2
549.786	1	-3
550.126	1	0
550.466	1	-3
550.806	1	5
551.146	1	7
551.486	1	5
551.826	1	2
552.166	1	1
552.506	1	2
552.846	1	-3
553.186	1	7
553.526	1	-13
553.866	1	-2
554.206	1	7
554.546	1	-4
554.886	1	2
555.226	1	-5
555.566	1	8
555.906	1	-6
556.246	1	3
556.586	1	8
556.926	1	7
557.266	1	4
557.606	1	2
557.946	1	-4
558.286	1	6
558.626	1	9
558.966	1	2
559.306	1	8
559.646	1	-2
559.986	1	8
560.325	1	-6
560.665	1	6
561.005	1	6
561.345	1	-5
561.685	1	0
562.025	1	-2
562.365	1	-2
562.705	1	11
563.045	1	9
563.385	1	16
563.725	1	-8
564.064	1	7
564.404	1	3
564.744	1	5
565.084	1	8
565.424	1	2
565.764	1	3
566.104	1	0
566.444	1	9
566.783	1	1
567.123	1	1
567.463	1	7
567.803	1	5
568.143	1	1
568.483	1	0
568.823	1	-4
569.162	1	10
569.502	1	-2
569.842	1	-1
570.182	1	-12
570.522	1	4
570.862	1	2
571.201	1	8
571.541	1	-1
571.881	1	-4
572.221	1	8
572.561	1	8
572.900	1	-5
573.240	1	1
573.580	1	-7
573.920	1	7
574.260	1	-7
574.599	1	2
574.939	1	5
575.279	1	6
575.619	1	15
575.959	1	-11
576.298	1	-2
576.638	1	1
576.978	1	-9
577.318	1	1
577.657	1	-1
577.997	1	-1
578.337	1	10
578.677	1	1
579.016	1	5
579.356	1	4
579.696	1	-4
580.036	1	-4
580.375	1	-8
580.715	1	7
581.055	1	4
581.394	1	2
581.734	1	8
582.074	1	4
582.414	1	0
582.753	1	-1
583.093	1	3
583.433	1	3
583.772	1	2
584.112	1	8
584.452	1	-5
584.791	1	7
585.131	1	10
585.471	1	9
585.811	1	-7
586.150	1	2
586.490	1	8
586.830	1	-6
587.169	1	16
587.509	1	7
587.849	1	-6
588.188	1	-3
588.528	1	-3
588.867	1	-4
589.207	1	-10
589.547	1	7
589.886	1	-4
590.226	1	1
590.566	1	-5
590.905	1	4
591.245	1	-2
591.585	1	0
591.924	1	-7
592.264	1	-14
592.603	1	6
592.943	1	5
593.283	1	2
593.622	1	-6
593.962	1	2
594.301	1	1
594.641	1	4
594.981	1	4
595.320	1	3
595.660	1	5
595.999	1	-3
596.339	1	9
596.678	1	-5
597.018	1	3
597.358	1	-6
597.697	1	-3
598.037	1	3
598.376	1	-13
598.716	1	-7
599.055	1	-3
599.395	1	5
599.734	1	4
600.074	1	4
600.413	1	-6
600.753	1	-4
601.092	1	4
601.432	1	-7
601.771	1	10
602.111	1	-1
602.451	1	14
602.790	1	15
603.130	1	1
603.469	1	5
603.809	1	0
604.148	1	11
604.487	1	7
604.827	1	-8
605.166	1	8
605.506	1	-4
605.845	1	-5
606.185	1	2
606.524	1	0
606.864	1	0
607.203	1	-5
607.543	1	9
607.882	1	-3
608.222	1	-5
608.561	1	7
608.901	1	6
609.240	1	-1
609.579	1	6
609.919	1	3
610.258	1	5
610.598	1	4
610.937	1	-1
611.277	1	2
611.616	1	-4
611.955	1	5
612.295	1	-1
612.634	1	-2
612.974	1	-8
613.313	1	-1
613.652	1	10
613.992	1	0
614.331	1	-2
614.671	1	0
615.010	1	1
615.349	1	7
615.689	1	10
616.028	1	0
616.368	1	5
616.707	1	9
617.046	1	-11
617.386	1	2
617.725	1	-4
618.064	1	-1
618.404	1	-4
618.743	1	10
619.082	1	7
619.422	1	-9
619.761	1	-5
620.100	1	9
620.440	1	7
620.779	1	0
621.118	1	-6
621.458	1	-3
621.797	1	6
622.136	1	-9
622.476	1	-4
622.815	1	2
623.154	1	1
623.494	1	-2
623.833	1	-1
624.172	1	-4
624.511	1	-3
624.851	1	3
625.190	1	4
625.529	1	11
625.869	1	14
626.208	1	-3
626.547	1	-8
626.886	1	8
627.226	1	4
627.565	1	2
627.904	1	-3
628.243	1	-6
628.583	1	-5
628.922	1	0
629.261	1	3
629.600	1	-1
629.940	1	-6
630.279	1	3
630.618	1	0
630.957	1	2
631.297	1	-5
631.636	1	9
631.975	1	-5
632.314	1	8
632.653	1	10
632.993	1	5
633.332	1	3
633.671	1	7
634.010	1	0
634.349	1	-2
634.689	1	9
635.028	1	10
635.367	1	-1
635.706	1	-6
636.045	1	0
636.384	1	-2
636.724	1	8
637.063	1	3
637.402	1	4
637.741	1	-1
638.080	1	3
638.419	1	-7
638.759	1	-1
639.098	1	-5
639.437	1	-9
639.776	1	0
640.115	1	6
640.454	1	-10
640.793	1	-6
641.132	1	10
641.472	1	1
641.811	1	4
642.150	1	-10
642.489	1	-5
642.828	1	-2
643.167	1	-5
643.506	1	8
643.845	1	-6
644.184	1	7
644.524	1	-2
644.863	1	-8
645.202	1	11
645.541	1	-8
645.880	1	7
646.219	1	0
646.558	1	3
646.897	1	2
647.236	1	-3
647.575	1	-6
647.914	1	2
648.253	1	-1
648.592	1	-2
648.931	1	3
649.270	1	-6
649.610	1	8
649.949	1	3
650.288	1	2
650.627	1	1
650.966	1	3
651.305	1	-9
651.644	1	14
651.983	1	7
652.322	1	6
652.661	1	-1
653.000	1	-3
653.339	1	-2
653.678	1	7
654.017	1	6
654.356	1	-4
654.695	1	17
655.034	1	-2
655.373	1	2
655.712	1	-3
656.051	1	4
656.390	1	-1
656.729	1	-2
657.068	1	5
657.406	1	1
657.745	1	-1
658.084	1	-7
658.423	1	8
658.762	1	-2
659.101	1	-5
659.440	1	5
659.779	1	4
660.118	1	9
660.457	1	17
660.796	1	-7
661.135	1	-16
661.474	1	6
661.813	1	-3
662.152	1	4
662.491	1	-11
662.829	1	-4
663.168	1	1
663.507	1	6
663.846	1	0
664.185	1	7
664.524	1	5
664.863	1	0
665.202	1	7
665.541	1	3
665.879	1	4
666.218	1	11
666.557	1	-2
666.896	1	6
667.235	1	-6
667.574	1	-4
667.913	1	3
668.251	1	7
668.590	1	-1
668.929	1	11
669.268	1	-9
669.607	1	-4
669.946	1	4
670.285	1	11
670.623	1	5
670.962	1	-4
671.301	1	-4
671.640	1	4
671.979	1	-1
672.317	1	3
672.656	1	7
672.995	1	-5
673.334	1	-3
673.673	1	3
674.011	1	10
674.350	1	8
674.689	1	-3
675.028	1	2
675.367	1	-1
675.705	1	5
676.044	1	13
676.383	1	-3
676.722	1	8
677.060	1	-4
677.399	1	-4
677.738	1	-3
678.077	1	19
678.416	1	-7
678.754	1	10
679.093	1	8
679.432	1	-1
679.771	1	8
680.109	1	3
680.448	1	6
680.787	1	-5
681.125	1	9
681.464	1	5
681.803	1	3
682.142	1	-3
682.480	1	4
682.819	1	4
683.158	1	-7
683.496	1	11
683.835	1	-3
684.174	1	4
684.512	1	-4
684.851	1	4
685.190	1	-8
685.529	1	15
685.867	1	10
686.206	1	-2
686.545	1	0
686.883	1	-5
687.222	1	6
687.561	1	-5
687.899	1	-7
688.238	1	-2
688.577	1	6
688.746	1	-13