File: Data/GaN_170K_550ms/GaN_sample D_spot 18_UVVIS_170 K_200um_550 ms 2x2mm1_297.txt
340.368	1	-1
340.710	1	-13
341.052	1	0
341.394	1	-2
341.737	1	8
342.079	1	7
342.421	1	-3
342.763	1	5
343.105	1	4
343.447	1	-9
343.789	1	-5
344.131	1	-3
344.473	1	-2
344.815	1	12
345.157	1	3
345.499	1	-1
345.841	1	7
346.183	1	2
346.526	1	7
346.868	1	14
347.210	1	-3
347.552	1	5
347.894	1	12
348.236	1	1
348.578	1	0
348.920	1	-5
349.262	1	0
349.604	1	7
349.946	1	8
350.288	1	1
350.630	1	9
350.972	1	-8
351.314	1	-4
351.656	1	5
351.998	1	-2
352.340	1	3
352.682	1	1
353.024	1	1
353.366	1	4
353.708	1	13
354.050	1	-7
354.392	1	-7
354.734	1	6
355.076	1	4
355.418	1	0
355.760	1	-7
356.102	1	6
356.444	1	-8
356.785	1	2
357.127	1	-7
357.469	1	0
357.811	1	-6
358.153	1	8
358.495	1	-5
358.837	1	7
359.179	1	-4
359.521	1	8
359.863	1	4
360.205	1	12
360.547	1	2
360.889	1	18
361.231	1	5
361.572	1	13
361.914	1	6
362.256	1	8
362.598	1	7
362.940	1	15
363.282	1	11
363.624	1	10
363.966	1	12
364.308	1	15
364.649	1	3
364.991	1	12
365.333	1	2
365.675	1	6
366.017	1	3
366.359	1	1
366.701	1	9
367.042	1	17
367.384	1	12
367.726	1	11
368.068	1	12
368.410	1	22
368.752	1	5
369.093	1	-8
369.435	1	3
369.777	1	14
370.119	1	4
370.461	1	11
370.803	1	5
371.144	1	1
371.486	1	6
371.828	1	12
372.170	1	10
372.512	1	1
372.853	1	11
373.195	1	4
373.537	1	19
373.879	1	7
374.220	1	7
374.562	1	1
374.904	1	-1
375.246	1	16
375.588	1	-3
375.929	1	8
376.271	1	10
376.613	1	1
376.955	1	11
377.296	1	8
377.638	1	2
377.980	1	-3
378.321	1	6
378.663	1	8
379.005	1	-3
379.347	1	4
379.688	1	0
380.030	1	7
380.372	1	7
380.714	1	4
381.055	1	7
381.397	1	7
381.739	1	2
382.080	1	-1
382.422	1	-5
382.764	1	5
383.105	1	4
383.447	1	9
383.789	1	14
384.130	1	0
384.472	1	-2
384.814	1	6
385.156	1	1
385.497	1	9
385.839	1	-2
386.180	1	3
386.522	1	8
386.864	1	0
387.205	1	-2
387.547	1	1
387.889	1	5
388.230	1	-13
388.572	1	10
388.914	1	4
389.255	1	14
389.597	1	-1
389.939	1	-5
390.280	1	6
390.622	1	-6
390.963	1	-1
391.305	1	-9
391.647	1	-16
391.988	1	15
392.330	1	10
392.671	1	-2
393.013	1	6
393.355	1	8
393.696	1	6
394.038	1	3
394.379	1	-1
394.721	1	0
395.062	1	4
395.404	1	15
395.746	1	13
396.087	1	12
396.429	1	-1
396.770	1	7
397.112	1	5
397.453	1	11
397.795	1	1
398.136	1	9
398.478	1	-3
398.819	1	3
399.161	1	-4
399.503	1	11
399.844	1	-10
400.186	1	2
400.527	1	10
400.869	1	-9
401.210	1	12
401.552	1	-5
401.893	1	4
402.235	1	9
402.576	1	-11
402.918	1	-6
403.259	1	2
403.601	1	-1
403.942	1	-4
404.284	1	-8
404.625	1	5
404.967	1	4
405.308	1	2
405.649	1	5
405.991	1	10
406.332	1	-6
406.674	1	16
407.015	1	12
407.357	1	-4
407.698	1	4
408.040	1	1
408.381	1	5
408.722	1	-4
409.064	1	6
409.405	1	2
409.747	1	-9
410.088	1	8
410.430	1	-5
410.771	1	6
411.112	1	-5
411.454	1	2
411.795	1	9
412.137	1	-7
412.478	1	1
412.819	1	-3
413.161	1	6
413.502	1	4
413.844	1	10
414.185	1	-7
414.526	1	6
414.868	1	-4
415.209	1	-7
415.550	1	-2
415.892	1	1
416.233	1	9
416.575	1	-5
416.916	1	-6
417.257	1	5
417.599	1	6
417.940	1	-3
418.281	1	-1
418.623	1	-1
418.964	1	-8
419.305	1	-6
419.647	1	-1
419.988	1	11
420.329	1	-3
420.671	1	2
421.012	1	5
421.353	1	6
421.695	1	-8
422.036	1	-4
422.377	1	8
422.718	1	6
423.060	1	0
423.401	1	-7
423.742	1	3
424.084	1	16
424.425	1	-11
424.766	1	-4
425.107	1	-12
425.449	1	2
425.790	1	-2
426.131	1	14
426.472	1	8
426.814	1	-1
427.155	1	13
427.496	1	-2
427.837	1	-6
428.179	1	2
428.520	1	0
428.861	1	0
429.202	1	-5
429.544	1	-3
429.885	1	5
430.226	1	6
430.567	1	-3
430.909	1	1
431.250	1	12
431.591	1	-6
431.932	1	-1
432.273	1	0
432.615	1	2
432.956	1	2
433.297	1	4
433.638	1	11
433.979	1	-1
434.320	1	3
434.662	1	-13
435.003	1	7
435.344	1	-4
435.685	1	-8
436.026	1	0
436.368	1	-1
436.709	1	-2
437.050	1	-7
437.391	1	-5
437.732	1	5
438.073	1	1
438.414	1	-7
438.756	1	-7
439.097	1	7
439.438	1	3
439.779	1	7
440.120	1	2
440.461	1	7
440.802	1	13
441.143	1	2
441.485	1	-9
441.826	1	12
442.167	1	-1
442.508	1	-12
442.849	1	-3
443.190	1	-5
443.531	1	1
443.872	1	-2
444.213	1	-6
444.554	1	2
444.895	1	-12
445.237	1	-2
445.578	1	9
445.919	1	-2
446.260	1	10
446.601	1	0
446.942	1	9
447.283	1	16
447.624	1	0
447.965	1	-6
448.306	1	4
448.647	1	-5
448.988	1	12
449.329	1	3
449.670	1	-8
450.011	1	6
450.352	1	-4
450.693	1	-3
451.034	1	-2
451.375	1	3
451.716	1	10
452.057	1	-2
452.398	1	4
452.739	1	1
453.080	1	10
453.421	1	7
453.762	1	-9
454.103	1	4
454.444	1	5
454.785	1	-1
455.126	1	10
455.467	1	-5
455.808	1	12
456.149	1	-3
456.490	1	3
456.831	1	1
457.172	1	-6
457.513	1	8
457.854	1	9
458.195	1	11
458.536	1	-8
458.877	1	-1
459.218	1	-7
459.559	1	-3
459.899	1	-5
460.240	1	-1
460.581	1	7
460.922	1	2
461.263	1	-6
461.604	1	14
461.945	1	2
462.286	1	-3
462.627	1	12
462.968	1	8
463.309	1	12
463.649	1	15
463.990	1	-1
464.331	1	5
464.672	1	-8
465.013	1	9
465.354	1	-5
465.695	1	2
466.036	1	-8
466.376	1	-3
466.717	1	-5
467.058	1	-4
467.399	1	8
467.740	1	-6
468.081	1	3
468.422	1	10
468.762	1	2
469.103	1	4
469.444	1	-5
469.785	1	-1
470.126	1	-1
470.467	1	4
470.807	1	0
471.148	1	-5
471.489	1	-3
471.830	1	-2
472.171	1	11
472.511	1	3
472.852	1	-1
473.193	1	2
473.534	1	10
473.875	1	0
474.215	1	-3
474.556	1	8
474.897	1	0
475.238	1	-2
475.578	1	7
475.919	1	-3
476.260	1	8
476.601	1	0
476.942	1	1
477.282	1	7
477.623	1	8
477.964	1	8
478.305	1	-6
478.645	1	-3
478.986	1	-6
479.327	1	-1
479.667	1	1
480.008	1	-4
480.349	1	-6
480.690	1	1
481.030	1	3
481.371	1	2
481.712	1	-1
482.053	1	-3
482.393	1	-5
482.734	1	3
483.075	1	4
483.415	1	4
483.756	1	4
484.097	1	-11
484.437	1	0
484.778	1	-7
485.119	1	-1
485.459	1	-5
485.800	1	3
486.141	1	4
486.481	1	9
486.822	1	2
487.163	1	6
487.503	1	7
487.844	1	8
488.185	1	-1
488.525	1	4
488.866	1	8
489.207	1	-2
489.547	1	10
489.888	1	-4
490.228	1	0
490.569	1	5
490.910	1	-4
491.250	1	5
491.591	1	3
491.932	1	3
492.272	1	14
492.613	1	10
492.953	1	8
493.294	1	-3
493.635	1	2
493.975	1	3
494.316	1	2
494.656	1	5
494.997	1	1
495.337	1	6
495.678	1	7
496.019	1	-10
496.359	1	3
496.700	1	3
497.040	1	7
497.381	1	4
497.721	1	-2
498.062	1	-1
498.403	1	5
498.743	1	-1
499.084	1	-1
499.424	1	4
499.765	1	-9
500.105	1	-1
500.446	1	2
500.786	1	2
501.127	1	3
501.467	1	-2
501.808	1	-6
502.148	1	14
502.489	1	-1
502.829	1	7
503.170	1	13
503.510	1	0
503.851	1	-7
504.191	1	-7
504.532	1	-6
504.872	1	1
505.213	1	-7
505.553	1	-3
505.894	1	6
506.234	1	2
506.575	1	7
506.915	1	3
507.256	1	4
507.596	1	13
507.936	1	8
508.277	1	-4
508.617	1	7
508.958	1	6
509.298	1	-4
509.639	1	11
509.979	1	6
510.319	1	-5
510.660	1	-1
511.000	1	6
511.341	1	11
511.681	1	-3
512.022	1	8
512.362	1	-6
512.702	1	0
513.043	1	6
513.383	1	7
513.724	1	3
514.064	1	3
514.404	1	-7
514.745	1	-2
515.085	1	11
515.425	1	8
515.766	1	1
516.106	1	0
516.447	1	-5
516.787	1	6
517.127	1	2
517.468	1	1
517.808	1	9
518.148	1	3
518.489	1	2
518.829	1	6
519.169	1	5
519.510	1	4
519.850	1	2
520.190	1	-6
520.531	1	1
520.871	1	-3
521.211	1	8
521.552	1	2
521.892	1	5
522.232	1	-10
522.573	1	9
522.913	1	4
523.253	1	12
523.593	1	9
523.934	1	2
524.274	1	2
524.614	1	4
524.955	1	1
525.295	1	0
525.635	1	10
525.975	1	6
526.316	1	6
526.656	1	8
526.996	1	8
527.337	1	2
527.677	1	-3
528.017	1	-2
528.357	1	5
528.698	1	-7
529.038	1	5
529.378	1	-3
529.718	1	11
530.058	1	6
530.399	1	0
530.739	1	9
531.079	1	-5
531.419	1	13
531.760	1	0
532.100	1	4
532.440	1	9
532.780	1	-1
533.120	1	3
533.461	1	6
533.801	1	10
534.141	1	2
534.481	1	11
534.821	1	11
535.162	1	6
535.502	1	6
535.842	1	-2
536.182	1	6
536.522	1	10
536.862	1	5
537.203	1	4
537.543	1	-3
537.883	1	1
538.223	1	6
538.563	1	6
538.903	1	0
539.243	1	-5
539.584	1	0
539.924	1	-9
540.264	1	10
540.604	1	8
540.944	1	-1
541.284	1	4
541.624	1	-7
541.964	1	6
542.305	1	-6
542.645	1	-2
542.985	1	11
543.325	1	3
543.665	1	3
544.005	1	11
544.345	1	1
544.685	1	3
545.025	1	0
545.365	1	8
545.705	1	3
546.045	1	-1
546.386	1	-3
546.726	1	-1
547.066	1	15
547.406	1	4
547.746	1	-3
548.086	1	3
548.426	1	5
548.766	1	9
549.106	1	0
549.446	1	7
549.786	1	-5
550.126	1	5
550.466	1	0
550.806	1	-2
551.146	1	9
551.486	1	12
551.826	1	5
552.166	1	-5
552.506	1	9
552.846	1	-2
553.186	1	6
553.526	1	0
553.866	1	-10
554.206	1	1
554.546	1	1
554.886	1	2
555.226	1	-4
555.566	1	12
555.906	1	-9
556.246	1	-3
556.586	1	11
556.926	1	5
557.266	1	5
557.606	1	2
557.946	1	-1
558.286	1	-9
558.626	1	14
558.966	1	5
559.306	1	8
559.646	1	-7
559.986	1	5
560.325	1	1
560.665	1	1
561.005	1	-2
561.345	1	-5
561.685	1	-3
562.025	1	-10
562.365	1	0
562.705	1	-3
563.045	1	1
563.385	1	7
563.725	1	1
564.064	1	-1
564.404	1	-5
564.744	1	4
565.084	1	5
565.424	1	-3
565.764	1	2
566.104	1	-3
566.444	1	7
566.783	1	-3
567.123	1	1
567.463	1	1
567.803	1	8
568.143	1	-3
568.483	1	10
568.823	1	1
569.162	1	7
569.502	1	8
569.842	1	-9
570.182	1	2
570.522	1	-3
570.862	1	8
571.201	1	10
571.541	1	-11
571.881	1	1
572.221	1	4
572.561	1	7
572.900	1	-1
573.240	1	4
573.580	1	3
573.920	1	6
574.260	1	4
574.599	1	-8
574.939	1	-2
575.279	1	5
575.619	1	3
575.959	1	-9
576.298	1	2
576.638	1	-3
576.978	1	-2
577.318	1	3
577.657	1	11
577.997	1	0
578.337	1	4
578.677	1	6
579.016	1	5
579.356	1	-11
579.696	1	-2
580.036	1	2
580.375	1	1
580.715	1	2
581.055	1	8
581.394	1	0
581.734	1	5
582.074	1	6
582.414	1	-12
582.753	1	1
583.093	1	0
583.433	1	6
583.772	1	-10
584.112	1	5
584.452	1	5
584.791	1	6
585.131	1	4
585.471	1	3
585.811	1	-11
586.150	1	-1
586.490	1	1
586.830	1	-10
587.169	1	1
587.509	1	9
587.849	1	3
588.188	1	3
588.528	1	-3
588.867	1	-4
589.207	1	0
589.547	1	8
589.886	1	-8
590.226	1	7
590.566	1	0
590.905	1	0
591.245	1	-11
591.585	1	-4
591.924	1	-11
592.264	1	-6
592.603	1	-1
592.943	1	1
593.283	1	6
593.622	1	-6
593.962	1	0
594.301	1	8
594.641	1	9
594.981	1	7
595.320	1	6
595.660	1	-8
595.999	1	3
596.339	1	6
596.678	1	-4
597.018	1	6
597.358	1	-4
597.697	1	2
598.037	1	1
598.376	1	-5
598.716	1	2
599.055	1	-8
599.395	1	-7
599.734	1	12
600.074	1	-9
600.413	1	2
600.753	1	12
601.092	1	3
601.432	1	-6
601.771	1	3
602.111	1	-2
602.451	1	0
602.790	1	1
603.130	1	-2
603.469	1	-2
603.809	1	12
604.148	1	8
604.487	1	0
604.827	1	-10
605.166	1	6
605.506	1	0
605.845	1	-3
606.185	1	-8
606.524	1	2
606.864	1	3
607.203	1	7
607.543	1	15
607.882	1	1
608.222	1	-2
608.561	1	3
608.901	1	5
609.240	1	4
609.579	1	5
609.919	1	-1
610.258	1	9
610.598	1	4
610.937	1	-2
611.277	1	2
611.616	1	-1
611.955	1	0
612.295	1	-6
612.634	1	-4
612.974	1	-1
613.313	1	-7
613.652	1	11
613.992	1	0
614.331	1	3
614.671	1	7
615.010	1	2
615.349	1	4
615.689	1	7
616.028	1	-6
616.368	1	1
616.707	1	-3
617.046	1	-10
617.386	1	-10
617.725	1	7
618.064	1	1
618.404	1	3
618.743	1	4
619.082	1	3
619.422	1	-1
619.761	1	1
620.100	1	3
620.440	1	2
620.779	1	-1
621.118	1	-3
621.458	1	6
621.797	1	-2
622.136	1	8
622.476	1	-13
622.815	1	1
623.154	1	7
623.494	1	4
623.833	1	0
624.172	1	-6
624.511	1	-2
624.851	1	-11
625.190	1	9
625.529	1	7
625.869	1	10
626.208	1	-4
626.547	1	-6
626.886	1	3
627.226	1	-2
627.565	1	3
627.904	1	-3
628.243	1	1
628.583	1	-5
628.922	1	-8
629.261	1	4
629.600	1	-8
629.940	1	-2
630.279	1	1
630.618	1	-4
630.957	1	2
631.297	1	-1
631.636	1	5
631.975	1	-3
632.314	1	0
632.653	1	1
632.993	1	-1
633.332	1	5
633.671	1	3
634.010	1	9
634.349	1	-5
634.689	1	9
635.028	1	-1
635.367	1	3
635.706	1	3
636.045	1	13
636.384	1	-9
636.724	1	2
637.063	1	6
637.402	1	4
637.741	1	-7
638.080	1	1
638.419	1	-8
638.759	1	-8
639.098	1	-6
639.437	1	-4
639.776	1	-3
640.115	1	8
640.454	1	-1
640.793	1	-3
641.132	1	3
641.472	1	-8
641.811	1	11
642.150	1	-2
642.489	1	-6
642.828	1	-5
643.167	1	-2
643.506	1	4
643.845	1	9
644.184	1	6
644.524	1	8
644.863	1	-5
645.202	1	11
645.541	1	2
645.880	1	8
646.219	1	-2
646.558	1	7
646.897	1	4
647.236	1	1
647.575	1	-4
647.914	1	1
648.253	1	6
648.592	1	-1
648.931	1	4
649.270	1	-4
649.610	1	8
649.949	1	-9
650.288	1	-2
650.627	1	-5
650.966	1	5
651.305	1	-10
651.644	1	12
651.983	1	7
652.322	1	6
652.661	1	0
653.000	1	-10
653.339	1	-2
653.678	1	2
654.017	1	8
654.356	1	6
654.695	1	17
655.034	1	-8
655.373	1	0
655.712	1	-1
656.051	1	-7
656.390	1	-9
656.729	1	8
657.068	1	11
657.406	1	1
657.745	1	7
658.084	1	-7
658.423	1	3
658.762	1	-1
659.101	1	5
659.440	1	5
659.779	1	8
660.118	1	0
660.457	1	4
660.796	1	1
661.135	1	-7
661.474	1	10
661.813	1	-5
662.152	1	-1
662.491	1	-6
662.829	1	2
663.168	1	7
663.507	1	2
663.846	1	-7
664.185	1	7
664.524	1	6
664.863	1	-1
665.202	1	9
665.541	1	4
665.879	1	0
666.218	1	7
666.557	1	2
666.896	1	10
667.235	1	8
667.574	1	-14
667.913	1	-3
668.251	1	1
668.590	1	-1
668.929	1	-1
669.268	1	-2
669.607	1	0
669.946	1	8
670.285	1	22
670.623	1	3
670.962	1	0
671.301	1	-3
671.640	1	-3
671.979	1	-1
672.317	1	5
672.656	1	-1
672.995	1	-3
673.334	1	-1
673.673	1	6
674.011	1	3
674.350	1	6
674.689	1	1
675.028	1	-5
675.367	1	-6
675.705	1	6
676.044	1	13
676.383	1	1
676.722	1	5
677.060	1	-5
677.399	1	3
677.738	1	-1
678.077	1	7
678.416	1	-3
678.754	1	-1
679.093	1	9
679.432	1	5
679.771	1	4
680.109	1	-3
680.448	1	7
680.787	1	-6
681.125	1	11
681.464	1	-5
681.803	1	7
682.142	1	0
682.480	1	11
682.819	1	9
683.158	1	-2
683.496	1	5
683.835	1	-3
684.174	1	0
684.512	1	-7
684.851	1	-2
685.190	1	2
685.529	1	8
685.867	1	8
686.206	1	3
686.545	1	6
686.883	1	4
687.222	1	-8
687.561	1	6
687.899	1	-6
688.238	1	3
688.577	1	4
688.746	1	-8