File: Data/GaN_170K_550ms/GaN_sample D_spot 18_UVVIS_170 K_200um_550 ms 2x2mm1_5.txt
340.368	1	-6
340.710	1	-14
341.052	1	5
341.394	1	6
341.737	1	0
342.079	1	-9
342.421	1	10
342.763	1	1
343.105	1	8
343.447	1	-12
343.789	1	2
344.131	1	1
344.473	1	5
344.815	1	0
345.157	1	-6
345.499	1	-7
345.841	1	2
346.183	1	10
346.526	1	10
346.868	1	-7
347.210	1	-9
347.552	1	10
347.894	1	-6
348.236	1	-5
348.578	1	-1
348.920	1	1
349.262	1	2
349.604	1	4
349.946	1	5
350.288	1	0
350.630	1	8
350.972	1	3
351.314	1	-1
351.656	1	-9
351.998	1	9
352.340	1	1
352.682	1	11
353.024	1	-5
353.366	1	-3
353.708	1	2
354.050	1	-8
354.392	1	7
354.734	1	0
355.076	1	1
355.418	1	1
355.760	1	-9
356.102	1	0
356.444	1	-6
356.785	1	3
357.127	1	-6
357.469	1	-7
357.811	1	2
358.153	1	-2
358.495	1	2
358.837	1	6
359.179	1	-2
359.521	1	8
359.863	1	-2
360.205	1	8
360.547	1	9
360.889	1	5
361.231	1	4
361.572	1	7
361.914	1	-3
362.256	1	2
362.598	1	9
362.940	1	10
363.282	1	-2
363.624	1	0
363.966	1	-2
364.308	1	0
364.649	1	-10
364.991	1	11
365.333	1	-5
365.675	1	15
366.017	1	-6
366.359	1	-3
366.701	1	1
367.042	1	-10
367.384	1	7
367.726	1	2
368.068	1	-4
368.410	1	-1
368.752	1	1
369.093	1	-2
369.435	1	-1
369.777	1	4
370.119	1	-2
370.461	1	3
370.803	1	-1
371.144	1	-2
371.486	1	-7
371.828	1	-6
372.170	1	-2
372.512	1	-9
372.853	1	7
373.195	1	-4
373.537	1	11
373.879	1	4
374.220	1	4
374.562	1	1
374.904	1	-2
375.246	1	0
375.588	1	3
375.929	1	4
376.271	1	-3
376.613	1	9
376.955	1	-1
377.296	1	-4
377.638	1	7
377.980	1	-1
378.321	1	-3
378.663	1	-3
379.005	1	0
379.347	1	-6
379.688	1	-8
380.030	1	-8
380.372	1	7
380.714	1	6
381.055	1	5
381.397	1	-2
381.739	1	-5
382.080	1	-11
382.422	1	-1
382.764	1	4
383.105	1	1
383.447	1	3
383.789	1	9
384.130	1	-4
384.472	1	-6
384.814	1	5
385.156	1	-6
385.497	1	18
385.839	1	-3
386.180	1	6
386.522	1	6
386.864	1	13
387.205	1	-1
387.547	1	0
387.889	1	1
388.230	1	-1
388.572	1	-1
388.914	1	-1
389.255	1	16
389.597	1	4
389.939	1	-9
390.280	1	4
390.622	1	-1
390.963	1	1
391.305	1	2
391.647	1	-15
391.988	1	-1
392.330	1	3
392.671	1	-4
393.013	1	2
393.355	1	9
393.696	1	8
394.038	1	-3
394.379	1	-2
394.721	1	-9
395.062	1	-5
395.404	1	7
395.746	1	7
396.087	1	11
396.429	1	3
396.770	1	9
397.112	1	-2
397.453	1	9
397.795	1	-3
398.136	1	-6
398.478	1	-12
398.819	1	-7
399.161	1	-9
399.503	1	1
399.844	1	-9
400.186	1	-8
400.527	1	5
400.869	1	-5
401.210	1	12
401.552	1	-1
401.893	1	8
402.235	1	3
402.576	1	-1
402.918	1	5
403.259	1	-3
403.601	1	8
403.942	1	-6
404.284	1	-12
404.625	1	0
404.967	1	0
405.308	1	3
405.649	1	-3
405.991	1	-2
406.332	1	-1
406.674	1	-2
407.015	1	10
407.357	1	-9
407.698	1	-3
408.040	1	1
408.381	1	0
408.722	1	1
409.064	1	0
409.405	1	-4
409.747	1	-4
410.088	1	10
410.430	1	3
410.771	1	2
411.112	1	-5
411.454	1	-3
411.795	1	5
412.137	1	-8
412.478	1	4
412.819	1	-10
413.161	1	4
413.502	1	-3
413.844	1	10
414.185	1	3
414.526	1	3
414.868	1	-1
415.209	1	-8
415.550	1	7
415.892	1	-1
416.233	1	-1
416.575	1	7
416.916	1	-9
417.257	1	3
417.599	1	0
417.940	1	7
418.281	1	-10
418.623	1	-2
418.964	1	-3
419.305	1	-2
419.647	1	1
419.988	1	4
420.329	1	0
420.671	1	-1
421.012	1	-7
421.353	1	2
421.695	1	5
422.036	1	-3
422.377	1	8
422.718	1	1
423.060	1	-11
423.401	1	-5
423.742	1	-4
424.084	1	12
424.425	1	-5
424.766	1	2
425.107	1	-8
425.449	1	2
425.790	1	5
426.131	1	8
426.472	1	3
426.814	1	-6
427.155	1	8
427.496	1	-5
427.837	1	4
428.179	1	10
428.520	1	-3
428.861	1	5
429.202	1	-5
429.544	1	-5
429.885	1	-2
430.226	1	5
430.567	1	8
430.909	1	0
431.250	1	13
431.591	1	-8
431.932	1	-1
432.273	1	-6
432.615	1	4
432.956	1	-6
433.297	1	-8
433.638	1	8
433.979	1	-3
434.320	1	6
434.662	1	-15
435.003	1	-1
435.344	1	-2
435.685	1	2
436.026	1	-3
436.368	1	1
436.709	1	4
437.050	1	-13
437.391	1	-5
437.732	1	7
438.073	1	-7
438.414	1	-11
438.756	1	-7
439.097	1	-1
439.438	1	0
439.779	1	14
440.120	1	-1
440.461	1	11
440.802	1	8
441.143	1	-7
441.485	1	-8
441.826	1	3
442.167	1	-3
442.508	1	3
442.849	1	-11
443.190	1	1
443.531	1	0
443.872	1	-5
444.213	1	-6
444.554	1	5
444.895	1	-11
445.237	1	-7
445.578	1	2
445.919	1	1
446.260	1	-2
446.601	1	-2
446.942	1	7
447.283	1	11
447.624	1	-3
447.965	1	-1
448.306	1	4
448.647	1	-8
448.988	1	11
449.329	1	8
449.670	1	-14
450.011	1	2
450.352	1	-5
450.693	1	-7
451.034	1	2
451.375	1	2
451.716	1	2
452.057	1	-7
452.398	1	2
452.739	1	0
453.080	1	-7
453.421	1	-1
453.762	1	1
454.103	1	-8
454.444	1	-4
454.785	1	2
455.126	1	8
455.467	1	-14
455.808	1	9
456.149	1	1
456.490	1	-1
456.831	1	-6
457.172	1	-7
457.513	1	11
457.854	1	14
458.195	1	0
458.536	1	-7
458.877	1	0
459.218	1	-2
459.559	1	6
459.899	1	2
460.240	1	3
460.581	1	8
460.922	1	-8
461.263	1	2
461.604	1	7
461.945	1	-2
462.286	1	-12
462.627	1	10
462.968	1	7
463.309	1	5
463.649	1	7
463.990	1	-4
464.331	1	3
464.672	1	3
465.013	1	15
465.354	1	-5
465.695	1	7
466.036	1	-4
466.376	1	-2
466.717	1	-1
467.058	1	-2
467.399	1	3
467.740	1	0
468.081	1	-6
468.422	1	1
468.762	1	11
469.103	1	2
469.444	1	3
469.785	1	-10
470.126	1	13
470.467	1	8
470.807	1	-4
471.148	1	-3
471.489	1	4
471.830	1	3
472.171	1	7
472.511	1	1
472.852	1	-5
473.193	1	0
473.534	1	12
473.875	1	-2
474.215	1	3
474.556	1	-6
474.897	1	-1
475.238	1	-2
475.578	1	4
475.919	1	7
476.260	1	0
476.601	1	-5
476.942	1	0
477.282	1	8
477.623	1	4
477.964	1	5
478.305	1	-4
478.645	1	3
478.986	1	-1
479.327	1	-8
479.667	1	-3
480.008	1	3
480.349	1	10
480.690	1	7
481.030	1	7
481.371	1	-6
481.712	1	-4
482.053	1	-15
482.393	1	0
482.734	1	5
483.075	1	-4
483.415	1	1
483.756	1	8
484.097	1	-10
484.437	1	0
484.778	1	-5
485.119	1	6
485.459	1	-3
485.800	1	-7
486.141	1	3
486.481	1	-7
486.822	1	3
487.163	1	2
487.503	1	3
487.844	1	3
488.185	1	8
488.525	1	5
488.866	1	9
489.207	1	2
489.547	1	11
489.888	1	2
490.228	1	-9
490.569	1	5
490.910	1	-1
491.250	1	-1
491.591	1	-1
491.932	1	7
492.272	1	5
492.613	1	-5
492.953	1	1
493.294	1	1
493.635	1	1
493.975	1	4
494.316	1	8
494.656	1	-3
494.997	1	-4
495.337	1	13
495.678	1	2
496.019	1	-10
496.359	1	-6
496.700	1	9
497.040	1	5
497.381	1	7
497.721	1	-5
498.062	1	2
498.403	1	9
498.743	1	-1
499.084	1	6
499.424	1	1
499.765	1	-6
500.105	1	7
500.446	1	-3
500.786	1	-4
501.127	1	-7
501.467	1	-2
501.808	1	-5
502.148	1	11
502.489	1	-1
502.829	1	3
503.170	1	6
503.510	1	7
503.851	1	-2
504.191	1	-4
504.532	1	-8
504.872	1	5
505.213	1	-5
505.553	1	2
505.894	1	8
506.234	1	-2
506.575	1	6
506.915	1	4
507.256	1	-3
507.596	1	3
507.936	1	11
508.277	1	-7
508.617	1	3
508.958	1	-1
509.298	1	7
509.639	1	8
509.979	1	-1
510.319	1	-15
510.660	1	-1
511.000	1	4
511.341	1	6
511.681	1	-7
512.022	1	4
512.362	1	-8
512.702	1	1
513.043	1	-3
513.383	1	3
513.724	1	0
514.064	1	3
514.404	1	-9
514.745	1	-4
515.085	1	3
515.425	1	5
515.766	1	-1
516.106	1	11
516.447	1	2
516.787	1	6
517.127	1	1
517.468	1	3
517.808	1	5
518.148	1	0
518.489	1	8
518.829	1	-2
519.169	1	-1
519.510	1	-3
519.850	1	-4
520.190	1	10
520.531	1	4
520.871	1	2
521.211	1	5
521.552	1	5
521.892	1	0
522.232	1	-9
522.573	1	6
522.913	1	1
523.253	1	9
523.593	1	4
523.934	1	-2
524.274	1	-1
524.614	1	5
524.955	1	-9
525.295	1	-6
525.635	1	13
525.975	1	0
526.316	1	13
526.656	1	-2
526.996	1	-2
527.337	1	-8
527.677	1	-5
528.017	1	-3
528.357	1	-1
528.698	1	-5
529.038	1	-1
529.378	1	-6
529.718	1	14
530.058	1	2
530.399	1	0
530.739	1	-1
531.079	1	2
531.419	1	5
531.760	1	4
532.100	1	2
532.440	1	-3
532.780	1	-10
533.120	1	1
533.461	1	-8
533.801	1	4
534.141	1	-5
534.481	1	6
534.821	1	9
535.162	1	5
535.502	1	1
535.842	1	5
536.182	1	1
536.522	1	5
536.862	1	8
537.203	1	4
537.543	1	-2
537.883	1	11
538.223	1	-2
538.563	1	3
538.903	1	4
539.243	1	-9
539.584	1	5
539.924	1	-6
540.264	1	10
540.604	1	-1
540.944	1	-4
541.284	1	-3
541.624	1	-15
541.964	1	8
542.305	1	6
542.645	1	0
542.985	1	0
543.325	1	2
543.665	1	0
544.005	1	15
544.345	1	-5
544.685	1	4
545.025	1	-9
545.365	1	-2
545.705	1	3
546.045	1	-2
546.386	1	2
546.726	1	-1
547.066	1	13
547.406	1	0
547.746	1	1
548.086	1	-2
548.426	1	5
548.766	1	0
549.106	1	-5
549.446	1	7
549.786	1	-7
550.126	1	-2
550.466	1	-6
550.806	1	-4
551.146	1	3
551.486	1	2
551.826	1	-2
552.166	1	0
552.506	1	8
552.846	1	-6
553.186	1	-7
553.526	1	1
553.866	1	-4
554.206	1	-2
554.546	1	-6
554.886	1	-1
555.226	1	-5
555.566	1	-3
555.906	1	-6
556.246	1	1
556.586	1	0
556.926	1	-2
557.266	1	1
557.606	1	0
557.946	1	9
558.286	1	3
558.626	1	8
558.966	1	-3
559.306	1	3
559.646	1	6
559.986	1	5
560.325	1	5
560.665	1	5
561.005	1	1
561.345	1	1
561.685	1	-1
562.025	1	-7
562.365	1	4
562.705	1	6
563.045	1	2
563.385	1	8
563.725	1	-8
564.064	1	5
564.404	1	2
564.744	1	1
565.084	1	-3
565.424	1	6
565.764	1	3
566.104	1	0
566.444	1	1
566.783	1	-7
567.123	1	9
567.463	1	-3
567.803	1	0
568.143	1	-4
568.483	1	1
568.823	1	1
569.162	1	-6
569.502	1	0
569.842	1	-6
570.182	1	1
570.522	1	-4
570.862	1	8
571.201	1	-1
571.541	1	-9
571.881	1	-1
572.221	1	1
572.561	1	-1
572.900	1	-7
573.240	1	5
573.580	1	5
573.920	1	11
574.260	1	8
574.599	1	-4
574.939	1	-10
575.279	1	-3
575.619	1	8
575.959	1	-8
576.298	1	9
576.638	1	6
576.978	1	-4
577.318	1	-1
577.657	1	3
577.997	1	2
578.337	1	-2
578.677	1	5
579.016	1	7
579.356	1	-1
579.696	1	4
580.036	1	4
580.375	1	1
580.715	1	4
581.055	1	8
581.394	1	1
581.734	1	7
582.074	1	5
582.414	1	-3
582.753	1	2
583.093	1	5
583.433	1	6
583.772	1	0
584.112	1	2
584.452	1	-5
584.791	1	1
585.131	1	10
585.471	1	11
585.811	1	-5
586.150	1	-1
586.490	1	7
586.830	1	-6
587.169	1	8
587.509	1	-1
587.849	1	-4
588.188	1	-3
588.528	1	-4
588.867	1	-3
589.207	1	-8
589.547	1	3
589.886	1	-9
590.226	1	4
590.566	1	-4
590.905	1	7
591.245	1	2
591.585	1	6
591.924	1	-3
592.264	1	-7
592.603	1	-6
592.943	1	4
593.283	1	2
593.622	1	-4
593.962	1	-3
594.301	1	3
594.641	1	-1
594.981	1	9
595.320	1	-4
595.660	1	6
595.999	1	-3
596.339	1	3
596.678	1	-11
597.018	1	5
597.358	1	-5
597.697	1	1
598.037	1	1
598.376	1	-6
598.716	1	4
599.055	1	-3
599.395	1	4
599.734	1	11
600.074	1	-7
600.413	1	-13
600.753	1	-1
601.092	1	2
601.432	1	-1
601.771	1	9
602.111	1	-1
602.451	1	5
602.790	1	16
603.130	1	-9
603.469	1	4
603.809	1	-5
604.148	1	4
604.487	1	-6
604.827	1	-6
605.166	1	-3
605.506	1	-9
605.845	1	5
606.185	1	3
606.524	1	-7
606.864	1	2
607.203	1	-5
607.543	1	8
607.882	1	0
608.222	1	-8
608.561	1	4
608.901	1	-3
609.240	1	-9
609.579	1	1
609.919	1	5
610.258	1	8
610.598	1	10
610.937	1	2
611.277	1	1
611.616	1	1
611.955	1	6
612.295	1	1
612.634	1	0
612.974	1	-1
613.313	1	-1
613.652	1	13
613.992	1	7
614.331	1	-4
614.671	1	11
615.010	1	8
615.349	1	-1
615.689	1	7
616.028	1	6
616.368	1	-3
616.707	1	12
617.046	1	6
617.386	1	-1
617.725	1	3
618.064	1	-6
618.404	1	-1
618.743	1	-2
619.082	1	-5
619.422	1	-7
619.761	1	-4
620.100	1	-4
620.440	1	4
620.779	1	0
621.118	1	1
621.458	1	-1
621.797	1	0
622.136	1	-1
622.476	1	-1
622.815	1	0
623.154	1	-2
623.494	1	-8
623.833	1	1
624.172	1	-1
624.511	1	10
624.851	1	-4
625.190	1	4
625.529	1	13
625.869	1	2
626.208	1	-3
626.547	1	-10
626.886	1	3
627.226	1	9
627.565	1	2
627.904	1	2
628.243	1	-4
628.583	1	-2
628.922	1	-9
629.261	1	2
629.600	1	-11
629.940	1	-4
630.279	1	1
630.618	1	-5
630.957	1	5
631.297	1	-6
631.636	1	11
631.975	1	-5
632.314	1	9
632.653	1	5
632.993	1	-4
633.332	1	-1
633.671	1	2
634.010	1	6
634.349	1	-15
634.689	1	6
635.028	1	8
635.367	1	5
635.706	1	-6
636.045	1	4
636.384	1	-9
636.724	1	-2
637.063	1	2
637.402	1	9
637.741	1	-5
638.080	1	10
638.419	1	-1
638.759	1	4
639.098	1	-2
639.437	1	-6
639.776	1	-4
640.115	1	10
640.454	1	5
640.793	1	-1
641.132	1	7
641.472	1	4
641.811	1	14
642.150	1	-3
642.489	1	-5
642.828	1	-1
643.167	1	-2
643.506	1	8
643.845	1	7
644.184	1	5
644.524	1	-6
644.863	1	-5
645.202	1	1
645.541	1	-3
645.880	1	4
646.219	1	3
646.558	1	5
646.897	1	4
647.236	1	-2
647.575	1	-8
647.914	1	-1
648.253	1	-9
648.592	1	-7
648.931	1	1
649.270	1	1
649.610	1	3
649.949	1	-5
650.288	1	-5
650.627	1	2
650.966	1	8
651.305	1	2
651.644	1	0
651.983	1	9
652.322	1	6
652.661	1	-5
653.000	1	-5
653.339	1	-7
653.678	1	-4
654.017	1	4
654.356	1	5
654.695	1	-2
655.034	1	-4
655.373	1	2
655.712	1	-5
656.051	1	-1
656.390	1	-6
656.729	1	3
657.068	1	7
657.406	1	-4
657.745	1	6
658.084	1	-7
658.423	1	-2
658.762	1	-3
659.101	1	2
659.440	1	2
659.779	1	7
660.118	1	-1
660.457	1	4
660.796	1	-1
661.135	1	-5
661.474	1	3
661.813	1	3
662.152	1	2
662.491	1	-1
662.829	1	-5
663.168	1	-1
663.507	1	5
663.846	1	-7
664.185	1	5
664.524	1	-6
664.863	1	-2
665.202	1	13
665.541	1	6
665.879	1	6
666.218	1	3
666.557	1	0
666.896	1	7
667.235	1	-6
667.574	1	-10
667.913	1	-9
668.251	1	0
668.590	1	3
668.929	1	5
669.268	1	-7
669.607	1	-1
669.946	1	5
670.285	1	12
670.623	1	7
670.962	1	-5
671.301	1	4
671.640	1	5
671.979	1	4
672.317	1	-2
672.656	1	-1
672.995	1	-6
673.334	1	-1
673.673	1	-4
674.011	1	-3
674.350	1	-3
674.689	1	-7
675.028	1	4
675.367	1	-9
675.705	1	3
676.044	1	8
676.383	1	-3
676.722	1	14
677.060	1	3
677.399	1	4
677.738	1	0
678.077	1	10
678.416	1	-1
678.754	1	0
679.093	1	-1
679.432	1	-4
679.771	1	0
680.109	1	-5
680.448	1	-3
680.787	1	-7
681.125	1	6
681.464	1	0
681.803	1	3
682.142	1	-10
682.480	1	5
682.819	1	17
683.158	1	-4
683.496	1	5
683.835	1	-3
684.174	1	0
684.512	1	-11
684.851	1	-5
685.190	1	-6
685.529	1	13
685.867	1	-5
686.206	1	3
686.545	1	1
686.883	1	-4
687.222	1	3
687.561	1	-4
687.899	1	-10
688.238	1	0
688.577	1	3
688.746	1	-8