File: Data/GaN_170K_550ms/GaN_sample D_spot 18_UVVIS_170 K_200um_550 ms 2x2mm1_264.txt
340.368	1	8
340.710	1	-14
341.052	1	1
341.394	1	-1
341.737	1	-6
342.079	1	-3
342.421	1	12
342.763	1	4
343.105	1	10
343.447	1	-10
343.789	1	5
344.131	1	-3
344.473	1	6
344.815	1	2
345.157	1	-6
345.499	1	3
345.841	1	2
346.183	1	3
346.526	1	1
346.868	1	7
347.210	1	-10
347.552	1	4
347.894	1	3
348.236	1	4
348.578	1	4
348.920	1	2
349.262	1	4
349.604	1	4
349.946	1	14
350.288	1	-5
350.630	1	5
350.972	1	-2
351.314	1	8
351.656	1	-7
351.998	1	6
352.340	1	8
352.682	1	8
353.024	1	4
353.366	1	4
353.708	1	12
354.050	1	-4
354.392	1	9
354.734	1	2
355.076	1	-7
355.418	1	-3
355.760	1	-2
356.102	1	3
356.444	1	-6
356.785	1	-2
357.127	1	8
357.469	1	-2
357.811	1	0
358.153	1	6
358.495	1	-1
358.837	1	6
359.179	1	-4
359.521	1	4
359.863	1	0
360.205	1	11
360.547	1	10
360.889	1	13
361.231	1	9
361.572	1	11
361.914	1	-1
362.256	1	8
362.598	1	-3
362.940	1	15
363.282	1	13
363.624	1	5
363.966	1	4
364.308	1	7
364.649	1	-4
364.991	1	25
365.333	1	8
365.675	1	16
366.017	1	1
366.359	1	14
366.701	1	12
367.042	1	1
367.384	1	15
367.726	1	23
368.068	1	14
368.410	1	21
368.752	1	9
369.093	1	-2
369.435	1	8
369.777	1	18
370.119	1	2
370.461	1	15
370.803	1	6
371.144	1	6
371.486	1	-4
371.828	1	16
372.170	1	9
372.512	1	5
372.853	1	12
373.195	1	12
373.537	1	21
373.879	1	9
374.220	1	9
374.562	1	15
374.904	1	6
375.246	1	-5
375.588	1	7
375.929	1	12
376.271	1	3
376.613	1	0
376.955	1	8
377.296	1	3
377.638	1	7
377.980	1	-16
378.321	1	6
378.663	1	4
379.005	1	-3
379.347	1	4
379.688	1	-1
380.030	1	-1
380.372	1	8
380.714	1	9
381.055	1	9
381.397	1	9
381.739	1	0
382.080	1	-1
382.422	1	-3
382.764	1	-6
383.105	1	4
383.447	1	6
383.789	1	10
384.130	1	0
384.472	1	-5
384.814	1	10
385.156	1	1
385.497	1	4
385.839	1	-14
386.180	1	13
386.522	1	1
386.864	1	3
387.205	1	7
387.547	1	1
387.889	1	12
388.230	1	-2
388.572	1	9
388.914	1	9
389.255	1	13
389.597	1	-4
389.939	1	1
390.280	1	-2
390.622	1	5
390.963	1	-2
391.305	1	-1
391.647	1	-7
391.988	1	11
392.330	1	0
392.671	1	0
393.013	1	-1
393.355	1	4
393.696	1	0
394.038	1	-4
394.379	1	-7
394.721	1	3
395.062	1	0
395.404	1	3
395.746	1	14
396.087	1	5
396.429	1	2
396.770	1	7
397.112	1	-1
397.453	1	6
397.795	1	3
398.136	1	1
398.478	1	-6
398.819	1	6
399.161	1	-2
399.503	1	4
399.844	1	3
400.186	1	1
400.527	1	18
400.869	1	2
401.210	1	1
401.552	1	-1
401.893	1	3
402.235	1	2
402.576	1	1
402.918	1	2
403.259	1	0
403.601	1	11
403.942	1	10
404.284	1	-9
404.625	1	2
404.967	1	4
405.308	1	8
405.649	1	9
405.991	1	10
406.332	1	-1
406.674	1	6
407.015	1	6
407.357	1	0
407.698	1	-3
408.040	1	-1
408.381	1	-6
408.722	1	-6
409.064	1	4
409.405	1	10
409.747	1	7
410.088	1	11
410.430	1	-5
410.771	1	7
411.112	1	10
411.454	1	7
411.795	1	3
412.137	1	-14
412.478	1	5
412.819	1	-6
413.161	1	2
413.502	1	-7
413.844	1	5
414.185	1	-7
414.526	1	3
414.868	1	3
415.209	1	-14
415.550	1	-2
415.892	1	9
416.233	1	6
416.575	1	-1
416.916	1	-7
417.257	1	4
417.599	1	0
417.940	1	9
418.281	1	1
418.623	1	-7
418.964	1	-9
419.305	1	-2
419.647	1	-4
419.988	1	-1
420.329	1	-1
420.671	1	-10
421.012	1	12
421.353	1	4
421.695	1	-3
422.036	1	10
422.377	1	0
422.718	1	11
423.060	1	-5
423.401	1	-3
423.742	1	-1
424.084	1	12
424.425	1	-6
424.766	1	-11
425.107	1	0
425.449	1	4
425.790	1	4
426.131	1	1
426.472	1	7
426.814	1	-2
427.155	1	13
427.496	1	-1
427.837	1	4
428.179	1	-3
428.520	1	0
428.861	1	6
429.202	1	-10
429.544	1	-8
429.885	1	0
430.226	1	-3
430.567	1	5
430.909	1	1
431.250	1	11
431.591	1	-8
431.932	1	3
432.273	1	1
432.615	1	5
432.956	1	6
433.297	1	-2
433.638	1	1
433.979	1	7
434.320	1	9
434.662	1	-5
435.003	1	-1
435.344	1	-3
435.685	1	-6
436.026	1	-5
436.368	1	-2
436.709	1	2
437.050	1	-2
437.391	1	-10
437.732	1	6
438.073	1	-6
438.414	1	-4
438.756	1	-4
439.097	1	4
439.438	1	3
439.779	1	2
440.120	1	-2
440.461	1	15
440.802	1	9
441.143	1	-2
441.485	1	-2
441.826	1	5
442.167	1	6
442.508	1	3
442.849	1	-3
443.190	1	1
443.531	1	-2
443.872	1	-12
444.213	1	3
444.554	1	-2
444.895	1	-8
445.237	1	-7
445.578	1	12
445.919	1	6
446.260	1	4
446.601	1	-7
446.942	1	5
447.283	1	1
447.624	1	3
447.965	1	-7
448.306	1	-3
448.647	1	-9
448.988	1	17
449.329	1	8
449.670	1	-11
450.011	1	2
450.352	1	1
450.693	1	-5
451.034	1	-3
451.375	1	7
451.716	1	1
452.057	1	6
452.398	1	-1
452.739	1	-3
453.080	1	8
453.421	1	10
453.762	1	7
454.103	1	1
454.444	1	-5
454.785	1	-9
455.126	1	15
455.467	1	-9
455.808	1	6
456.149	1	2
456.490	1	0
456.831	1	-5
457.172	1	-5
457.513	1	5
457.854	1	12
458.195	1	-3
458.536	1	-2
458.877	1	-4
459.218	1	-5
459.559	1	-1
459.899	1	-2
460.240	1	2
460.581	1	8
460.922	1	-4
461.263	1	0
461.604	1	6
461.945	1	1
462.286	1	4
462.627	1	1
462.968	1	5
463.309	1	2
463.649	1	5
463.990	1	-4
464.331	1	4
464.672	1	-3
465.013	1	10
465.354	1	-7
465.695	1	1
466.036	1	3
466.376	1	4
466.717	1	6
467.058	1	4
467.399	1	10
467.740	1	-6
468.081	1	-1
468.422	1	9
468.762	1	8
469.103	1	-4
469.444	1	-13
469.785	1	-4
470.126	1	-1
470.467	1	12
470.807	1	4
471.148	1	-1
471.489	1	-3
471.830	1	-4
472.171	1	8
472.511	1	-5
472.852	1	10
473.193	1	1
473.534	1	2
473.875	1	3
474.215	1	-3
474.556	1	0
474.897	1	0
475.238	1	-4
475.578	1	0
475.919	1	6
476.260	1	5
476.601	1	3
476.942	1	-16
477.282	1	6
477.623	1	9
477.964	1	4
478.305	1	4
478.645	1	1
478.986	1	-8
479.327	1	-11
479.667	1	3
480.008	1	1
480.349	1	9
480.690	1	6
481.030	1	3
481.371	1	3
481.712	1	-5
482.053	1	-3
482.393	1	-13
482.734	1	7
483.075	1	-1
483.415	1	6
483.756	1	0
484.097	1	-8
484.437	1	-1
484.778	1	-4
485.119	1	9
485.459	1	-3
485.800	1	-4
486.141	1	13
486.481	1	12
486.822	1	2
487.163	1	1
487.503	1	3
487.844	1	1
488.185	1	-1
488.525	1	2
488.866	1	6
489.207	1	3
489.547	1	9
489.888	1	10
490.228	1	-4
490.569	1	5
490.910	1	-5
491.250	1	1
491.591	1	1
491.932	1	10
492.272	1	6
492.613	1	-3
492.953	1	3
493.294	1	-2
493.635	1	2
493.975	1	5
494.316	1	-5
494.656	1	-3
494.997	1	7
495.337	1	3
495.678	1	-7
496.019	1	-6
496.359	1	1
496.700	1	6
497.040	1	0
497.381	1	1
497.721	1	-3
498.062	1	2
498.403	1	1
498.743	1	6
499.084	1	6
499.424	1	8
499.765	1	-8
500.105	1	4
500.446	1	-2
500.786	1	-1
501.127	1	4
501.467	1	-3
501.808	1	-4
502.148	1	5
502.489	1	0
502.829	1	10
503.170	1	10
503.510	1	5
503.851	1	-9
504.191	1	-3
504.532	1	-8
504.872	1	7
505.213	1	-1
505.553	1	6
505.894	1	8
506.234	1	-6
506.575	1	8
506.915	1	9
507.256	1	-2
507.596	1	1
507.936	1	8
508.277	1	-9
508.617	1	2
508.958	1	6
509.298	1	-6
509.639	1	17
509.979	1	3
510.319	1	-7
510.660	1	-8
511.000	1	4
511.341	1	3
511.681	1	4
512.022	1	2
512.362	1	-2
512.702	1	-8
513.043	1	5
513.383	1	11
513.724	1	-6
514.064	1	7
514.404	1	-9
514.745	1	5
515.085	1	-4
515.425	1	2
515.766	1	0
516.106	1	9
516.447	1	4
516.787	1	3
517.127	1	3
517.468	1	5
517.808	1	10
518.148	1	12
518.489	1	3
518.829	1	3
519.169	1	-8
519.510	1	9
519.850	1	-5
520.190	1	-4
520.531	1	2
520.871	1	-4
521.211	1	5
521.552	1	4
521.892	1	-4
522.232	1	0
522.573	1	6
522.913	1	5
523.253	1	12
523.593	1	-1
523.934	1	1
524.274	1	-5
524.614	1	-3
524.955	1	6
525.295	1	3
525.635	1	1
525.975	1	-4
526.316	1	9
526.656	1	19
526.996	1	-4
527.337	1	-5
527.677	1	3
528.017	1	-3
528.357	1	-6
528.698	1	-12
529.038	1	2
529.378	1	6
529.718	1	8
530.058	1	8
530.399	1	4
530.739	1	4
531.079	1	-5
531.419	1	0
531.760	1	3
532.100	1	3
532.440	1	4
532.780	1	-14
533.120	1	6
533.461	1	4
533.801	1	0
534.141	1	-1
534.481	1	12
534.821	1	12
535.162	1	6
535.502	1	5
535.842	1	8
536.182	1	3
536.522	1	9
536.862	1	8
537.203	1	7
537.543	1	1
537.883	1	3
538.223	1	4
538.563	1	-3
538.903	1	-4
539.243	1	-6
539.584	1	2
539.924	1	-9
540.264	1	0
540.604	1	-2
540.944	1	-8
541.284	1	2
541.624	1	-1
541.964	1	5
542.305	1	-2
542.645	1	1
542.985	1	2
543.325	1	-1
543.665	1	-1
544.005	1	14
544.345	1	1
544.685	1	3
545.025	1	-4
545.365	1	4
545.705	1	6
546.045	1	8
546.386	1	2
546.726	1	3
547.066	1	5
547.406	1	1
547.746	1	-1
548.086	1	0
548.426	1	6
548.766	1	4
549.106	1	8
549.446	1	13
549.786	1	1
550.126	1	-2
550.466	1	3
550.806	1	5
551.146	1	11
551.486	1	1
551.826	1	4
552.166	1	13
552.506	1	7
552.846	1	1
553.186	1	1
553.526	1	-2
553.866	1	-8
554.206	1	6
554.546	1	-16
554.886	1	1
555.226	1	-7
555.566	1	0
555.906	1	-6
556.246	1	2
556.586	1	-1
556.926	1	14
557.266	1	7
557.606	1	5
557.946	1	3
558.286	1	1
558.626	1	17
558.966	1	8
559.306	1	9
559.646	1	-6
559.986	1	16
560.325	1	2
560.665	1	-4
561.005	1	-5
561.345	1	-2
561.685	1	1
562.025	1	-13
562.365	1	6
562.705	1	3
563.045	1	-8
563.385	1	9
563.725	1	-7
564.064	1	1
564.404	1	-5
564.744	1	4
565.084	1	3
565.424	1	-2
565.764	1	11
566.104	1	0
566.444	1	9
566.783	1	2
567.123	1	4
567.463	1	8
567.803	1	1
568.143	1	9
568.483	1	8
568.823	1	0
569.162	1	10
569.502	1	-2
569.842	1	-7
570.182	1	-2
570.522	1	0
570.862	1	1
571.201	1	12
571.541	1	-4
571.881	1	-5
572.221	1	1
572.561	1	9
572.900	1	3
573.240	1	3
573.580	1	-4
573.920	1	11
574.260	1	5
574.599	1	1
574.939	1	3
575.279	1	5
575.619	1	1
575.959	1	-2
576.298	1	3
576.638	1	9
576.978	1	1
577.318	1	2
577.657	1	-4
577.997	1	-8
578.337	1	2
578.677	1	1
579.016	1	9
579.356	1	1
579.696	1	-2
580.036	1	5
580.375	1	0
580.715	1	5
581.055	1	0
581.394	1	-6
581.734	1	9
582.074	1	3
582.414	1	-2
582.753	1	-7
583.093	1	5
583.433	1	11
583.772	1	2
584.112	1	10
584.452	1	-4
584.791	1	5
585.131	1	9
585.471	1	7
585.811	1	-10
586.150	1	6
586.490	1	12
586.830	1	-5
587.169	1	12
587.509	1	1
587.849	1	-1
588.188	1	1
588.528	1	-1
588.867	1	4
589.207	1	0
589.547	1	6
589.886	1	-5
590.226	1	3
590.566	1	-1
590.905	1	10
591.245	1	-5
591.585	1	-4
591.924	1	-4
592.264	1	-11
592.603	1	-5
592.943	1	7
593.283	1	3
593.622	1	-7
593.962	1	5
594.301	1	5
594.641	1	6
594.981	1	1
595.320	1	1
595.660	1	0
595.999	1	0
596.339	1	4
596.678	1	-3
597.018	1	4
597.358	1	0
597.697	1	2
598.037	1	7
598.376	1	-11
598.716	1	5
599.055	1	6
599.395	1	-2
599.734	1	11
600.074	1	-9
600.413	1	-5
600.753	1	-1
601.092	1	5
601.432	1	-5
601.771	1	3
602.111	1	-4
602.451	1	10
602.790	1	6
603.130	1	-2
603.469	1	7
603.809	1	0
604.148	1	5
604.487	1	10
604.827	1	0
605.166	1	10
605.506	1	-7
605.845	1	1
606.185	1	-1
606.524	1	0
606.864	1	5
607.203	1	3
607.543	1	5
607.882	1	-8
608.222	1	6
608.561	1	8
608.901	1	6
609.240	1	5
609.579	1	-1
609.919	1	-10
610.258	1	8
610.598	1	10
610.937	1	-1
611.277	1	3
611.616	1	7
611.955	1	4
612.295	1	1
612.634	1	-1
612.974	1	0
613.313	1	-2
613.652	1	15
613.992	1	2
614.331	1	-2
614.671	1	4
615.010	1	4
615.349	1	6
615.689	1	11
616.028	1	5
616.368	1	-4
616.707	1	9
617.046	1	0
617.386	1	2
617.725	1	8
618.064	1	0
618.404	1	-2
618.743	1	-2
619.082	1	4
619.422	1	-8
619.761	1	-9
620.100	1	-11
620.440	1	11
620.779	1	1
621.118	1	1
621.458	1	-2
621.797	1	0
622.136	1	0
622.476	1	1
622.815	1	2
623.154	1	0
623.494	1	0
623.833	1	7
624.172	1	-7
624.511	1	15
624.851	1	-10
625.190	1	7
625.529	1	6
625.869	1	11
626.208	1	2
626.547	1	0
626.886	1	0
627.226	1	1
627.565	1	11
627.904	1	2
628.243	1	0
628.583	1	-7
628.922	1	-3
629.261	1	1
629.600	1	3
629.940	1	-2
630.279	1	0
630.618	1	-7
630.957	1	14
631.297	1	-8
631.636	1	14
631.975	1	0
632.314	1	-2
632.653	1	8
632.993	1	-3
633.332	1	3
633.671	1	9
634.010	1	6
634.349	1	-13
634.689	1	7
635.028	1	-5
635.367	1	-3
635.706	1	-1
636.045	1	-1
636.384	1	-2
636.724	1	7
637.063	1	1
637.402	1	5
637.741	1	-4
638.080	1	9
638.419	1	-8
638.759	1	6
639.098	1	-7
639.437	1	-11
639.776	1	4
640.115	1	8
640.454	1	4
640.793	1	-3
641.132	1	3
641.472	1	1
641.811	1	4
642.150	1	-6
642.489	1	-2
642.828	1	-3
643.167	1	1
643.506	1	7
643.845	1	2
644.184	1	13
644.524	1	0
644.863	1	-12
645.202	1	10
645.541	1	7
645.880	1	7
646.219	1	6
646.558	1	5
646.897	1	6
647.236	1	2
647.575	1	0
647.914	1	3
648.253	1	0
648.592	1	1
648.931	1	2
649.270	1	-1
649.610	1	4
649.949	1	-4
650.288	1	3
650.627	1	-1
650.966	1	5
651.305	1	-4
651.644	1	4
651.983	1	5
652.322	1	0
652.661	1	5
653.000	1	-6
653.339	1	-5
653.678	1	2
654.017	1	6
654.356	1	-6
654.695	1	11
655.034	1	-2
655.373	1	-1
655.712	1	-10
656.051	1	-5
656.390	1	12
656.729	1	9
657.068	1	3
657.406	1	8
657.745	1	11
658.084	1	1
658.423	1	1
658.762	1	-8
659.101	1	3
659.440	1	2
659.779	1	4
660.118	1	-2
660.457	1	14
660.796	1	1
661.135	1	-21
661.474	1	-1
661.813	1	-3
662.152	1	-2
662.491	1	-10
662.829	1	4
663.168	1	6
663.507	1	-4
663.846	1	-1
664.185	1	6
664.524	1	8
664.863	1	-7
665.202	1	16
665.541	1	4
665.879	1	7
666.218	1	8
666.557	1	8
666.896	1	2
667.235	1	-4
667.574	1	-9
667.913	1	-2
668.251	1	6
668.590	1	-3
668.929	1	-1
669.268	1	-7
669.607	1	0
669.946	1	2
670.285	1	10
670.623	1	1
670.962	1	-7
671.301	1	1
671.640	1	4
671.979	1	0
672.317	1	5
672.656	1	-1
672.995	1	-1
673.334	1	-2
673.673	1	5
674.011	1	4
674.350	1	6
674.689	1	2
675.028	1	-5
675.367	1	0
675.705	1	10
676.044	1	7
676.383	1	0
676.722	1	14
677.060	1	-9
677.399	1	-7
677.738	1	5
678.077	1	14
678.416	1	-3
678.754	1	6
679.093	1	9
679.432	1	10
679.771	1	2
680.109	1	4
680.448	1	5
680.787	1	-1
681.125	1	3
681.464	1	6
681.803	1	3
682.142	1	-6
682.480	1	2
682.819	1	7
683.158	1	-13
683.496	1	7
683.835	1	-4
684.174	1	2
684.512	1	-4
684.851	1	-4
685.190	1	-1
685.529	1	17
685.867	1	11
686.206	1	1
686.545	1	8
686.883	1	-5
687.222	1	-2
687.561	1	-5
687.899	1	-6
688.238	1	10
688.577	1	6
688.746	1	-7