File: Data/GaN_170K_550ms/GaN_sample D_spot 18_UVVIS_170 K_200um_550 ms 2x2mm1_84.txt
340.368	1	-4
340.710	1	-4
341.052	1	4
341.394	1	-4
341.737	1	-7
342.079	1	4
342.421	1	10
342.763	1	10
343.105	1	5
343.447	1	-5
343.789	1	11
344.131	1	2
344.473	1	2
344.815	1	11
345.157	1	3
345.499	1	4
345.841	1	5
346.183	1	7
346.526	1	9
346.868	1	9
347.210	1	-2
347.552	1	9
347.894	1	9
348.236	1	5
348.578	1	12
348.920	1	2
349.262	1	4
349.604	1	11
349.946	1	4
350.288	1	1
350.630	1	7
350.972	1	-10
351.314	1	8
351.656	1	-1
351.998	1	11
352.340	1	8
352.682	1	4
353.024	1	1
353.366	1	7
353.708	1	12
354.050	1	5
354.392	1	11
354.734	1	9
355.076	1	8
355.418	1	6
355.760	1	6
356.102	1	17
356.444	1	11
356.785	1	17
357.127	1	14
357.469	1	17
357.811	1	20
358.153	1	28
358.495	1	21
358.837	1	16
359.179	1	22
359.521	1	28
359.863	1	19
360.205	1	30
360.547	1	37
360.889	1	52
361.231	1	26
361.572	1	47
361.914	1	44
362.256	1	45
362.598	1	54
362.940	1	61
363.282	1	70
363.624	1	75
363.966	1	67
364.308	1	79
364.649	1	78
364.991	1	103
365.333	1	97
365.675	1	120
366.017	1	113
366.359	1	119
366.701	1	132
367.042	1	143
367.384	1	150
367.726	1	167
368.068	1	157
368.410	1	160
368.752	1	160
369.093	1	143
369.435	1	137
369.777	1	166
370.119	1	145
370.461	1	143
370.803	1	128
371.144	1	124
371.486	1	112
371.828	1	119
372.170	1	105
372.512	1	97
372.853	1	110
373.195	1	106
373.537	1	102
373.879	1	87
374.220	1	98
374.562	1	76
374.904	1	81
375.246	1	73
375.588	1	75
375.929	1	63
376.271	1	61
376.613	1	63
376.955	1	60
377.296	1	57
377.638	1	61
377.980	1	47
378.321	1	45
378.663	1	50
379.005	1	50
379.347	1	44
379.688	1	46
380.030	1	46
380.372	1	42
380.714	1	37
381.055	1	34
381.397	1	30
381.739	1	33
382.080	1	37
382.422	1	30
382.764	1	28
383.105	1	39
383.447	1	40
383.789	1	36
384.130	1	40
384.472	1	26
384.814	1	29
385.156	1	19
385.497	1	41
385.839	1	24
386.180	1	20
386.522	1	32
386.864	1	25
387.205	1	9
387.547	1	19
387.889	1	31
388.230	1	11
388.572	1	24
388.914	1	14
389.255	1	20
389.597	1	26
389.939	1	11
390.280	1	16
390.622	1	13
390.963	1	4
391.305	1	7
391.647	1	4
391.988	1	15
392.330	1	17
392.671	1	3
393.013	1	3
393.355	1	15
393.696	1	8
394.038	1	1
394.379	1	3
394.721	1	6
395.062	1	6
395.404	1	13
395.746	1	15
396.087	1	17
396.429	1	8
396.770	1	19
397.112	1	12
397.453	1	15
397.795	1	6
398.136	1	17
398.478	1	1
398.819	1	15
399.161	1	7
399.503	1	10
399.844	1	-5
400.186	1	8
400.527	1	19
400.869	1	14
401.210	1	9
401.552	1	2
401.893	1	13
402.235	1	11
402.576	1	13
402.918	1	-1
403.259	1	11
403.601	1	20
403.942	1	8
404.284	1	-1
404.625	1	7
404.967	1	1
405.308	1	15
405.649	1	8
405.991	1	8
406.332	1	-5
406.674	1	4
407.015	1	2
407.357	1	8
407.698	1	1
408.040	1	10
408.381	1	7
408.722	1	1
409.064	1	9
409.405	1	4
409.747	1	7
410.088	1	12
410.430	1	7
410.771	1	1
411.112	1	8
411.454	1	4
411.795	1	13
412.137	1	2
412.478	1	2
412.819	1	-1
413.161	1	14
413.502	1	3
413.844	1	15
414.185	1	5
414.526	1	5
414.868	1	1
415.209	1	-3
415.550	1	5
415.892	1	6
416.233	1	10
416.575	1	9
416.916	1	-6
417.257	1	5
417.599	1	6
417.940	1	8
418.281	1	-3
418.623	1	4
418.964	1	-6
419.305	1	-5
419.647	1	13
419.988	1	3
420.329	1	5
420.671	1	-3
421.012	1	4
421.353	1	10
421.695	1	-6
422.036	1	7
422.377	1	5
422.718	1	7
423.060	1	-1
423.401	1	6
423.742	1	-2
424.084	1	17
424.425	1	-6
424.766	1	6
425.107	1	2
425.449	1	4
425.790	1	12
426.131	1	2
426.472	1	5
426.814	1	-4
427.155	1	17
427.496	1	8
427.837	1	11
428.179	1	4
428.520	1	1
428.861	1	5
429.202	1	2
429.544	1	1
429.885	1	7
430.226	1	4
430.567	1	4
430.909	1	1
431.250	1	13
431.591	1	-7
431.932	1	2
432.273	1	0
432.615	1	-2
432.956	1	8
433.297	1	5
433.638	1	5
433.979	1	6
434.320	1	7
434.662	1	-4
435.003	1	7
435.344	1	2
435.685	1	6
436.026	1	-1
436.368	1	6
436.709	1	11
437.050	1	-2
437.391	1	-6
437.732	1	-2
438.073	1	-3
438.414	1	-1
438.756	1	-3
439.097	1	9
439.438	1	-3
439.779	1	10
440.120	1	-4
440.461	1	13
440.802	1	9
441.143	1	1
441.485	1	-7
441.826	1	14
442.167	1	10
442.508	1	-1
442.849	1	5
443.190	1	1
443.531	1	2
443.872	1	-1
444.213	1	5
444.554	1	-2
444.895	1	-12
445.237	1	-4
445.578	1	8
445.919	1	13
446.260	1	13
446.601	1	-8
446.942	1	9
447.283	1	8
447.624	1	-1
447.965	1	7
448.306	1	6
448.647	1	-2
448.988	1	5
449.329	1	3
449.670	1	-5
450.011	1	12
450.352	1	-4
450.693	1	-3
451.034	1	-5
451.375	1	-2
451.716	1	2
452.057	1	1
452.398	1	5
452.739	1	6
453.080	1	8
453.421	1	6
453.762	1	10
454.103	1	-4
454.444	1	-4
454.785	1	0
455.126	1	6
455.467	1	-10
455.808	1	11
456.149	1	-2
456.490	1	1
456.831	1	0
457.172	1	3
457.513	1	16
457.854	1	11
458.195	1	3
458.536	1	-2
458.877	1	7
459.218	1	8
459.559	1	7
459.899	1	4
460.240	1	8
460.581	1	10
460.922	1	5
461.263	1	-1
461.604	1	14
461.945	1	3
462.286	1	3
462.627	1	2
462.968	1	14
463.309	1	6
463.649	1	13
463.990	1	3
464.331	1	7
464.672	1	-4
465.013	1	16
465.354	1	-7
465.695	1	2
466.036	1	-11
466.376	1	6
466.717	1	-8
467.058	1	-2
467.399	1	6
467.740	1	8
468.081	1	-2
468.422	1	8
468.762	1	24
469.103	1	7
469.444	1	2
469.785	1	4
470.126	1	4
470.467	1	8
470.807	1	3
471.148	1	0
471.489	1	9
471.830	1	6
472.171	1	8
472.511	1	3
472.852	1	7
473.193	1	4
473.534	1	11
473.875	1	3
474.215	1	7
474.556	1	14
474.897	1	1
475.238	1	0
475.578	1	6
475.919	1	9
476.260	1	10
476.601	1	6
476.942	1	-6
477.282	1	12
477.623	1	19
477.964	1	13
478.305	1	7
478.645	1	6
478.986	1	-8
479.327	1	-7
479.667	1	5
480.008	1	14
480.349	1	10
480.690	1	10
481.030	1	2
481.371	1	-4
481.712	1	7
482.053	1	-10
482.393	1	4
482.734	1	12
483.075	1	5
483.415	1	9
483.756	1	7
484.097	1	-1
484.437	1	-7
484.778	1	1
485.119	1	12
485.459	1	6
485.800	1	0
486.141	1	16
486.481	1	12
486.822	1	12
487.163	1	8
487.503	1	10
487.844	1	13
488.185	1	12
488.525	1	10
488.866	1	14
489.207	1	6
489.547	1	17
489.888	1	11
490.228	1	-6
490.569	1	9
490.910	1	8
491.250	1	15
491.591	1	12
491.932	1	15
492.272	1	19
492.613	1	10
492.953	1	12
493.294	1	12
493.635	1	5
493.975	1	5
494.316	1	12
494.656	1	1
494.997	1	14
495.337	1	16
495.678	1	11
496.019	1	0
496.359	1	15
496.700	1	24
497.040	1	11
497.381	1	8
497.721	1	4
498.062	1	10
498.403	1	14
498.743	1	15
499.084	1	22
499.424	1	13
499.765	1	5
500.105	1	13
500.446	1	20
500.786	1	17
501.127	1	14
501.467	1	13
501.808	1	9
502.148	1	18
502.489	1	16
502.829	1	12
503.170	1	29
503.510	1	20
503.851	1	12
504.191	1	19
504.532	1	5
504.872	1	15
505.213	1	15
505.553	1	20
505.894	1	37
506.234	1	6
506.575	1	23
506.915	1	19
507.256	1	13
507.596	1	24
507.936	1	18
508.277	1	14
508.617	1	29
508.958	1	14
509.298	1	19
509.639	1	26
509.979	1	22
510.319	1	12
510.660	1	13
511.000	1	16
511.341	1	31
511.681	1	15
512.022	1	23
512.362	1	22
512.702	1	18
513.043	1	24
513.383	1	20
513.724	1	22
514.064	1	19
514.404	1	14
514.745	1	20
515.085	1	17
515.425	1	16
515.766	1	28
516.106	1	24
516.447	1	4
516.787	1	26
517.127	1	25
517.468	1	12
517.808	1	25
518.148	1	27
518.489	1	38
518.829	1	25
519.169	1	19
519.510	1	33
519.850	1	21
520.190	1	20
520.531	1	24
520.871	1	21
521.211	1	23
521.552	1	30
521.892	1	26
522.232	1	8
522.573	1	34
522.913	1	26
523.253	1	23
523.593	1	26
523.934	1	27
524.274	1	17
524.614	1	26
524.955	1	25
525.295	1	26
525.635	1	17
525.975	1	11
526.316	1	25
526.656	1	27
526.996	1	23
527.337	1	24
527.677	1	22
528.017	1	26
528.357	1	25
528.698	1	18
529.038	1	17
529.378	1	24
529.718	1	31
530.058	1	27
530.399	1	37
530.739	1	24
531.079	1	26
531.419	1	36
531.760	1	28
532.100	1	28
532.440	1	27
532.780	1	17
533.120	1	36
533.461	1	27
533.801	1	34
534.141	1	24
534.481	1	26
534.821	1	29
535.162	1	36
535.502	1	9
535.842	1	29
536.182	1	31
536.522	1	27
536.862	1	23
537.203	1	24
537.543	1	25
537.883	1	26
538.223	1	20
538.563	1	22
538.903	1	21
539.243	1	20
539.584	1	13
539.924	1	16
540.264	1	30
540.604	1	16
540.944	1	11
541.284	1	26
541.624	1	8
541.964	1	15
542.305	1	20
542.645	1	17
542.985	1	23
543.325	1	21
543.665	1	25
544.005	1	30
544.345	1	23
544.685	1	25
545.025	1	15
545.365	1	12
545.705	1	30
546.045	1	21
546.386	1	25
546.726	1	18
547.066	1	25
547.406	1	18
547.746	1	10
548.086	1	31
548.426	1	25
548.766	1	21
549.106	1	21
549.446	1	26
549.786	1	14
550.126	1	18
550.466	1	19
550.806	1	21
551.146	1	11
551.486	1	17
551.826	1	24
552.166	1	16
552.506	1	22
552.846	1	8
553.186	1	17
553.526	1	4
553.866	1	15
554.206	1	20
554.546	1	13
554.886	1	23
555.226	1	7
555.566	1	23
555.906	1	18
556.246	1	16
556.586	1	22
556.926	1	9
557.266	1	25
557.606	1	14
557.946	1	11
558.286	1	10
558.626	1	30
558.966	1	24
559.306	1	31
559.646	1	4
559.986	1	18
560.325	1	7
560.665	1	17
561.005	1	18
561.345	1	21
561.685	1	19
562.025	1	6
562.365	1	13
562.705	1	26
563.045	1	11
563.385	1	21
563.725	1	17
564.064	1	25
564.404	1	18
564.744	1	13
565.084	1	22
565.424	1	10
565.764	1	12
566.104	1	14
566.444	1	15
566.783	1	9
567.123	1	13
567.463	1	12
567.803	1	14
568.143	1	12
568.483	1	20
568.823	1	13
569.162	1	16
569.502	1	5
569.842	1	5
570.182	1	19
570.522	1	20
570.862	1	6
571.201	1	17
571.541	1	13
571.881	1	14
572.221	1	18
572.561	1	5
572.900	1	10
573.240	1	11
573.580	1	18
573.920	1	21
574.260	1	16
574.599	1	2
574.939	1	9
575.279	1	7
575.619	1	19
575.959	1	2
576.298	1	15
576.638	1	26
576.978	1	14
577.318	1	16
577.657	1	14
577.997	1	10
578.337	1	8
578.677	1	19
579.016	1	16
579.356	1	17
579.696	1	10
580.036	1	14
580.375	1	7
580.715	1	13
581.055	1	15
581.394	1	13
581.734	1	14
582.074	1	15
582.414	1	17
582.753	1	10
583.093	1	11
583.433	1	24
583.772	1	10
584.112	1	19
584.452	1	5
584.791	1	11
585.131	1	18
585.471	1	5
585.811	1	-1
586.150	1	0
586.490	1	15
586.830	1	-2
587.169	1	21
587.509	1	4
587.849	1	4
588.188	1	9
588.528	1	6
588.867	1	7
589.207	1	4
589.547	1	12
589.886	1	1
590.226	1	14
590.566	1	11
590.905	1	24
591.245	1	8
591.585	1	13
591.924	1	14
592.264	1	3
592.603	1	0
592.943	1	5
593.283	1	6
593.622	1	-2
593.962	1	10
594.301	1	13
594.641	1	11
594.981	1	16
595.320	1	10
595.660	1	8
595.999	1	8
596.339	1	12
596.678	1	10
597.018	1	7
597.358	1	2
597.697	1	9
598.037	1	-4
598.376	1	-5
598.716	1	6
599.055	1	6
599.395	1	-5
599.734	1	16
600.074	1	4
600.413	1	-5
600.753	1	7
601.092	1	-1
601.432	1	-9
601.771	1	23
602.111	1	-4
602.451	1	9
602.790	1	11
603.130	1	4
603.469	1	5
603.809	1	6
604.148	1	15
604.487	1	10
604.827	1	-8
605.166	1	14
605.506	1	-8
605.845	1	11
606.185	1	7
606.524	1	3
606.864	1	1
607.203	1	1
607.543	1	21
607.882	1	4
608.222	1	10
608.561	1	9
608.901	1	12
609.240	1	-2
609.579	1	7
609.919	1	6
610.258	1	0
610.598	1	6
610.937	1	19
611.277	1	7
611.616	1	6
611.955	1	7
612.295	1	8
612.634	1	11
612.974	1	10
613.313	1	5
613.652	1	20
613.992	1	9
614.331	1	14
614.671	1	17
615.010	1	14
615.349	1	7
615.689	1	15
616.028	1	7
616.368	1	10
616.707	1	11
617.046	1	-4
617.386	1	11
617.725	1	5
618.064	1	2
618.404	1	7
618.743	1	4
619.082	1	8
619.422	1	-7
619.761	1	8
620.100	1	1
620.440	1	8
620.779	1	-1
621.118	1	1
621.458	1	2
621.797	1	10
622.136	1	8
622.476	1	1
622.815	1	-1
623.154	1	5
623.494	1	-5
623.833	1	9
624.172	1	0
624.511	1	5
624.851	1	6
625.190	1	4
625.529	1	8
625.869	1	5
626.208	1	7
626.547	1	2
626.886	1	4
627.226	1	5
627.565	1	5
627.904	1	-1
628.243	1	2
628.583	1	2
628.922	1	-6
629.261	1	13
629.600	1	5
629.940	1	7
630.279	1	5
630.618	1	-2
630.957	1	1
631.297	1	-1
631.636	1	20
631.975	1	2
632.314	1	8
632.653	1	9
632.993	1	13
633.332	1	-4
633.671	1	13
634.010	1	3
634.349	1	-7
634.689	1	11
635.028	1	10
635.367	1	1
635.706	1	3
636.045	1	14
636.384	1	3
636.724	1	9
637.063	1	2
637.402	1	15
637.741	1	-5
638.080	1	20
638.419	1	5
638.759	1	7
639.098	1	-5
639.437	1	-7
639.776	1	3
640.115	1	5
640.454	1	9
640.793	1	2
641.132	1	8
641.472	1	-3
641.811	1	13
642.150	1	-2
642.489	1	0
642.828	1	7
643.167	1	6
643.506	1	16
643.845	1	5
644.184	1	8
644.524	1	2
644.863	1	-8
645.202	1	18
645.541	1	14
645.880	1	0
646.219	1	6
646.558	1	4
646.897	1	13
647.236	1	7
647.575	1	-4
647.914	1	1
648.253	1	11
648.592	1	3
648.931	1	3
649.270	1	3
649.610	1	7
649.949	1	-1
650.288	1	0
650.627	1	-4
650.966	1	5
651.305	1	2
651.644	1	12
651.983	1	2
652.322	1	2
652.661	1	9
653.000	1	5
653.339	1	6
653.678	1	6
654.017	1	11
654.356	1	5
654.695	1	14
655.034	1	7
655.373	1	12
655.712	1	-7
656.051	1	5
656.390	1	6
656.729	1	4
657.068	1	17
657.406	1	-3
657.745	1	14
658.084	1	-1
658.423	1	5
658.762	1	7
659.101	1	3
659.440	1	5
659.779	1	4
660.118	1	8
660.457	1	13
660.796	1	-4
661.135	1	-6
661.474	1	1
661.813	1	-2
662.152	1	8
662.491	1	-2
662.829	1	3
663.168	1	10
663.507	1	4
663.846	1	-2
664.185	1	6
664.524	1	3
664.863	1	-1
665.202	1	12
665.541	1	11
665.879	1	11
666.218	1	15
666.557	1	6
666.896	1	0
667.235	1	5
667.574	1	-7
667.913	1	0
668.251	1	7
668.590	1	-7
668.929	1	11
669.268	1	-7
669.607	1	5
669.946	1	5
670.285	1	9
670.623	1	0
670.962	1	2
671.301	1	5
671.640	1	13
671.979	1	4
672.317	1	6
672.656	1	6
672.995	1	-7
673.334	1	5
673.673	1	14
674.011	1	4
674.350	1	8
674.689	1	5
675.028	1	6
675.367	1	-2
675.705	1	14
676.044	1	10
676.383	1	15
676.722	1	14
677.060	1	3
677.399	1	1
677.738	1	3
678.077	1	18
678.416	1	10
678.754	1	6
679.093	1	0
679.432	1	5
679.771	1	15
680.109	1	1
680.448	1	9
680.787	1	-6
681.125	1	17
681.464	1	8
681.803	1	22
682.142	1	0
682.480	1	6
682.819	1	18
683.158	1	6
683.496	1	13
683.835	1	-1
684.174	1	9
684.512	1	0
684.851	1	9
685.190	1	4
685.529	1	12
685.867	1	10
686.206	1	13
686.545	1	9
686.883	1	8
687.222	1	4
687.561	1	1
687.899	1	3
688.238	1	6
688.577	1	21
688.746	1	-4