File: Data/GaN_170K_550ms/GaN_sample D_spot 18_UVVIS_170 K_200um_550 ms 2x2mm1_303.txt
340.368	1	1
340.710	1	-6
341.052	1	6
341.394	1	3
341.737	1	1
342.079	1	0
342.421	1	-2
342.763	1	1
343.105	1	10
343.447	1	-10
343.789	1	9
344.131	1	-5
344.473	1	0
344.815	1	6
345.157	1	0
345.499	1	0
345.841	1	11
346.183	1	4
346.526	1	-6
346.868	1	10
347.210	1	-13
347.552	1	11
347.894	1	-1
348.236	1	0
348.578	1	6
348.920	1	0
349.262	1	-3
349.604	1	1
349.946	1	1
350.288	1	2
350.630	1	15
350.972	1	8
351.314	1	3
351.656	1	3
351.998	1	2
352.340	1	0
352.682	1	8
353.024	1	4
353.366	1	3
353.708	1	10
354.050	1	-7
354.392	1	0
354.734	1	9
355.076	1	8
355.418	1	-4
355.760	1	-1
356.102	1	1
356.444	1	-4
356.785	1	1
357.127	1	0
357.469	1	-9
357.811	1	2
358.153	1	-1
358.495	1	-2
358.837	1	-4
359.179	1	-3
359.521	1	11
359.863	1	-4
360.205	1	0
360.547	1	15
360.889	1	2
361.231	1	10
361.572	1	2
361.914	1	3
362.256	1	-2
362.598	1	-2
362.940	1	14
363.282	1	1
363.624	1	1
363.966	1	0
364.308	1	6
364.649	1	-3
364.991	1	15
365.333	1	7
365.675	1	6
366.017	1	4
366.359	1	-4
366.701	1	9
367.042	1	-2
367.384	1	13
367.726	1	17
368.068	1	6
368.410	1	12
368.752	1	3
369.093	1	6
369.435	1	3
369.777	1	20
370.119	1	6
370.461	1	2
370.803	1	7
371.144	1	6
371.486	1	-1
371.828	1	10
372.170	1	2
372.512	1	1
372.853	1	21
373.195	1	7
373.537	1	18
373.879	1	11
374.220	1	13
374.562	1	-3
374.904	1	-1
375.246	1	3
375.588	1	-2
375.929	1	10
376.271	1	11
376.613	1	3
376.955	1	11
377.296	1	0
377.638	1	4
377.980	1	-11
378.321	1	9
378.663	1	-3
379.005	1	1
379.347	1	10
379.688	1	0
380.030	1	2
380.372	1	4
380.714	1	13
381.055	1	-5
381.397	1	2
381.739	1	-3
382.080	1	-2
382.422	1	3
382.764	1	3
383.105	1	10
383.447	1	10
383.789	1	16
384.130	1	-1
384.472	1	-2
384.814	1	12
385.156	1	-1
385.497	1	4
385.839	1	-3
386.180	1	5
386.522	1	4
386.864	1	6
387.205	1	-5
387.547	1	4
387.889	1	4
388.230	1	-3
388.572	1	6
388.914	1	-3
389.255	1	8
389.597	1	6
389.939	1	-1
390.280	1	4
390.622	1	0
390.963	1	8
391.305	1	-2
391.647	1	-7
391.988	1	7
392.330	1	2
392.671	1	0
393.013	1	2
393.355	1	2
393.696	1	6
394.038	1	-8
394.379	1	1
394.721	1	2
395.062	1	-4
395.404	1	13
395.746	1	12
396.087	1	1
396.429	1	13
396.770	1	15
397.112	1	4
397.453	1	3
397.795	1	-2
398.136	1	2
398.478	1	2
398.819	1	0
399.161	1	-7
399.503	1	9
399.844	1	-2
400.186	1	-13
400.527	1	4
400.869	1	-2
401.210	1	4
401.552	1	4
401.893	1	6
402.235	1	8
402.576	1	2
402.918	1	3
403.259	1	0
403.601	1	4
403.942	1	0
404.284	1	-3
404.625	1	-1
404.967	1	1
405.308	1	11
405.649	1	4
405.991	1	11
406.332	1	-9
406.674	1	1
407.015	1	-7
407.357	1	-2
407.698	1	-5
408.040	1	-6
408.381	1	-4
408.722	1	-8
409.064	1	4
409.405	1	2
409.747	1	4
410.088	1	10
410.430	1	-1
410.771	1	-3
411.112	1	2
411.454	1	2
411.795	1	5
412.137	1	0
412.478	1	-5
412.819	1	-12
413.161	1	-2
413.502	1	-3
413.844	1	3
414.185	1	9
414.526	1	4
414.868	1	-2
415.209	1	-10
415.550	1	-3
415.892	1	4
416.233	1	4
416.575	1	2
416.916	1	-2
417.257	1	3
417.599	1	1
417.940	1	3
418.281	1	-13
418.623	1	-1
418.964	1	-6
419.305	1	5
419.647	1	1
419.988	1	2
420.329	1	-1
420.671	1	-3
421.012	1	-1
421.353	1	0
421.695	1	-5
422.036	1	6
422.377	1	8
422.718	1	1
423.060	1	-3
423.401	1	7
423.742	1	-9
424.084	1	7
424.425	1	-6
424.766	1	5
425.107	1	4
425.449	1	0
425.790	1	-6
426.131	1	9
426.472	1	6
426.814	1	-5
427.155	1	11
427.496	1	0
427.837	1	6
428.179	1	9
428.520	1	3
428.861	1	5
429.202	1	-2
429.544	1	1
429.885	1	2
430.226	1	-3
430.567	1	6
430.909	1	-1
431.250	1	12
431.591	1	-1
431.932	1	-8
432.273	1	-4
432.615	1	1
432.956	1	3
433.297	1	-3
433.638	1	12
433.979	1	-6
434.320	1	3
434.662	1	-5
435.003	1	1
435.344	1	1
435.685	1	4
436.026	1	1
436.368	1	1
436.709	1	-2
437.050	1	-7
437.391	1	-2
437.732	1	9
438.073	1	-2
438.414	1	-4
438.756	1	-3
439.097	1	0
439.438	1	0
439.779	1	13
440.120	1	-2
440.461	1	16
440.802	1	13
441.143	1	-4
441.485	1	2
441.826	1	3
442.167	1	0
442.508	1	-7
442.849	1	-3
443.190	1	1
443.531	1	2
443.872	1	1
444.213	1	-5
444.554	1	4
444.895	1	-11
445.237	1	-3
445.578	1	5
445.919	1	2
446.260	1	11
446.601	1	-2
446.942	1	5
447.283	1	10
447.624	1	3
447.965	1	7
448.306	1	1
448.647	1	1
448.988	1	12
449.329	1	4
449.670	1	-11
450.011	1	5
450.352	1	-5
450.693	1	-6
451.034	1	-7
451.375	1	-2
451.716	1	13
452.057	1	3
452.398	1	-6
452.739	1	-2
453.080	1	0
453.421	1	11
453.762	1	3
454.103	1	-4
454.444	1	-1
454.785	1	-3
455.126	1	9
455.467	1	-8
455.808	1	10
456.149	1	5
456.490	1	-1
456.831	1	-2
457.172	1	4
457.513	1	5
457.854	1	2
458.195	1	-3
458.536	1	-6
458.877	1	2
459.218	1	9
459.559	1	-4
459.899	1	7
460.240	1	1
460.581	1	4
460.922	1	-4
461.263	1	0
461.604	1	3
461.945	1	-1
462.286	1	3
462.627	1	3
462.968	1	9
463.309	1	5
463.649	1	4
463.990	1	-2
464.331	1	0
464.672	1	-2
465.013	1	1
465.354	1	-1
465.695	1	7
466.036	1	-9
466.376	1	7
466.717	1	-8
467.058	1	-1
467.399	1	2
467.740	1	-9
468.081	1	-5
468.422	1	6
468.762	1	12
469.103	1	9
469.444	1	-4
469.785	1	1
470.126	1	0
470.467	1	2
470.807	1	9
471.148	1	-2
471.489	1	4
471.830	1	2
472.171	1	9
472.511	1	-3
472.852	1	-3
473.193	1	3
473.534	1	-7
473.875	1	-9
474.215	1	-1
474.556	1	-1
474.897	1	-3
475.238	1	-6
475.578	1	2
475.919	1	9
476.260	1	10
476.601	1	8
476.942	1	-2
477.282	1	4
477.623	1	15
477.964	1	1
478.305	1	8
478.645	1	4
478.986	1	-5
479.327	1	-2
479.667	1	0
480.008	1	3
480.349	1	4
480.690	1	6
481.030	1	3
481.371	1	-2
481.712	1	-1
482.053	1	-7
482.393	1	-2
482.734	1	6
483.075	1	0
483.415	1	10
483.756	1	-5
484.097	1	-11
484.437	1	6
484.778	1	-5
485.119	1	1
485.459	1	-1
485.800	1	-10
486.141	1	9
486.481	1	-4
486.822	1	6
487.163	1	5
487.503	1	0
487.844	1	8
488.185	1	6
488.525	1	4
488.866	1	5
489.207	1	15
489.547	1	15
489.888	1	4
490.228	1	0
490.569	1	3
490.910	1	-7
491.250	1	11
491.591	1	5
491.932	1	3
492.272	1	4
492.613	1	11
492.953	1	1
493.294	1	1
493.635	1	-1
493.975	1	4
494.316	1	0
494.656	1	2
494.997	1	1
495.337	1	5
495.678	1	-1
496.019	1	-21
496.359	1	3
496.700	1	17
497.040	1	5
497.381	1	4
497.721	1	-4
498.062	1	-4
498.403	1	5
498.743	1	4
499.084	1	0
499.424	1	6
499.765	1	-13
500.105	1	-5
500.446	1	0
500.786	1	-4
501.127	1	1
501.467	1	-1
501.808	1	-6
502.148	1	14
502.489	1	-2
502.829	1	1
503.170	1	13
503.510	1	6
503.851	1	-5
504.191	1	-2
504.532	1	-16
504.872	1	3
505.213	1	-15
505.553	1	-4
505.894	1	10
506.234	1	-3
506.575	1	-2
506.915	1	3
507.256	1	-10
507.596	1	3
507.936	1	11
508.277	1	-5
508.617	1	-2
508.958	1	-3
509.298	1	-4
509.639	1	6
509.979	1	3
510.319	1	-7
510.660	1	-5
511.000	1	-1
511.341	1	9
511.681	1	-5
512.022	1	1
512.362	1	-7
512.702	1	-2
513.043	1	2
513.383	1	0
513.724	1	1
514.064	1	3
514.404	1	-6
514.745	1	-1
515.085	1	7
515.425	1	0
515.766	1	5
516.106	1	3
516.447	1	-9
516.787	1	2
517.127	1	-3
517.468	1	5
517.808	1	10
518.148	1	4
518.489	1	17
518.829	1	-1
519.169	1	-3
519.510	1	5
519.850	1	2
520.190	1	4
520.531	1	3
520.871	1	0
521.211	1	-5
521.552	1	11
521.892	1	8
522.232	1	-11
522.573	1	3
522.913	1	1
523.253	1	7
523.593	1	4
523.934	1	1
524.274	1	-1
524.614	1	2
524.955	1	5
525.295	1	-2
525.635	1	0
525.975	1	-1
526.316	1	6
526.656	1	10
526.996	1	7
527.337	1	-5
527.677	1	2
528.017	1	-1
528.357	1	0
528.698	1	-12
529.038	1	-9
529.378	1	-6
529.718	1	1
530.058	1	7
530.399	1	10
530.739	1	9
531.079	1	3
531.419	1	15
531.760	1	-1
532.100	1	3
532.440	1	-3
532.780	1	-11
533.120	1	2
533.461	1	-5
533.801	1	-8
534.141	1	-6
534.481	1	5
534.821	1	11
535.162	1	-1
535.502	1	2
535.842	1	10
536.182	1	-8
536.522	1	7
536.862	1	7
537.203	1	3
537.543	1	-1
537.883	1	13
538.223	1	0
538.563	1	-6
538.903	1	4
539.243	1	0
539.584	1	-2
539.924	1	-1
540.264	1	2
540.604	1	2
540.944	1	-4
541.284	1	6
541.624	1	1
541.964	1	5
542.305	1	5
542.645	1	-5
542.985	1	5
543.325	1	5
543.665	1	5
544.005	1	8
544.345	1	-3
544.685	1	1
545.025	1	-5
545.365	1	1
545.705	1	7
546.045	1	1
546.386	1	-4
546.726	1	-6
547.066	1	8
547.406	1	-1
547.746	1	1
548.086	1	2
548.426	1	2
548.766	1	9
549.106	1	3
549.446	1	0
549.786	1	0
550.126	1	-2
550.466	1	0
550.806	1	1
551.146	1	-2
551.486	1	-3
551.826	1	0
552.166	1	-6
552.506	1	7
552.846	1	1
553.186	1	4
553.526	1	-7
553.866	1	-9
554.206	1	9
554.546	1	-11
554.886	1	7
555.226	1	-9
555.566	1	1
555.906	1	1
556.246	1	1
556.586	1	4
556.926	1	2
557.266	1	0
557.606	1	3
557.946	1	0
558.286	1	-2
558.626	1	9
558.966	1	0
559.306	1	6
559.646	1	0
559.986	1	8
560.325	1	-2
560.665	1	6
561.005	1	-1
561.345	1	0
561.685	1	6
562.025	1	-6
562.365	1	6
562.705	1	6
563.045	1	2
563.385	1	-1
563.725	1	-4
564.064	1	2
564.404	1	-3
564.744	1	8
565.084	1	8
565.424	1	9
565.764	1	0
566.104	1	-4
566.444	1	6
566.783	1	-6
567.123	1	0
567.463	1	-19
567.803	1	2
568.143	1	7
568.483	1	-6
568.823	1	0
569.162	1	6
569.502	1	-3
569.842	1	-3
570.182	1	4
570.522	1	4
570.862	1	-4
571.201	1	6
571.541	1	-10
571.881	1	-6
572.221	1	-5
572.561	1	10
572.900	1	4
573.240	1	5
573.580	1	3
573.920	1	11
574.260	1	1
574.599	1	-3
574.939	1	6
575.279	1	-2
575.619	1	9
575.959	1	-5
576.298	1	10
576.638	1	8
576.978	1	1
577.318	1	0
577.657	1	-1
577.997	1	-7
578.337	1	2
578.677	1	8
579.016	1	3
579.356	1	-3
579.696	1	4
580.036	1	0
580.375	1	-5
580.715	1	13
581.055	1	10
581.394	1	0
581.734	1	6
582.074	1	0
582.414	1	-12
582.753	1	5
583.093	1	-7
583.433	1	5
583.772	1	-5
584.112	1	3
584.452	1	-3
584.791	1	4
585.131	1	15
585.471	1	6
585.811	1	-10
586.150	1	-5
586.490	1	5
586.830	1	-5
587.169	1	14
587.509	1	1
587.849	1	5
588.188	1	6
588.528	1	0
588.867	1	3
589.207	1	-1
589.547	1	-5
589.886	1	-5
590.226	1	0
590.566	1	5
590.905	1	10
591.245	1	3
591.585	1	-3
591.924	1	-3
592.264	1	-7
592.603	1	8
592.943	1	4
593.283	1	8
593.622	1	-6
593.962	1	7
594.301	1	1
594.641	1	1
594.981	1	4
595.320	1	3
595.660	1	4
595.999	1	3
596.339	1	2
596.678	1	-11
597.018	1	0
597.358	1	-1
597.697	1	-1
598.037	1	5
598.376	1	-3
598.716	1	5
599.055	1	-8
599.395	1	0
599.734	1	12
600.074	1	1
600.413	1	-4
600.753	1	6
601.092	1	-9
601.432	1	-9
601.771	1	-2
602.111	1	-4
602.451	1	9
602.790	1	11
603.130	1	1
603.469	1	2
603.809	1	-1
604.148	1	5
604.487	1	4
604.827	1	-10
605.166	1	6
605.506	1	-6
605.845	1	1
606.185	1	6
606.524	1	1
606.864	1	2
607.203	1	-1
607.543	1	6
607.882	1	0
608.222	1	-8
608.561	1	4
608.901	1	1
609.240	1	-9
609.579	1	10
609.919	1	-6
610.258	1	5
610.598	1	14
610.937	1	-1
611.277	1	2
611.616	1	-1
611.955	1	4
612.295	1	3
612.634	1	-7
612.974	1	5
613.313	1	-1
613.652	1	13
613.992	1	6
614.331	1	-4
614.671	1	11
615.010	1	7
615.349	1	10
615.689	1	0
616.028	1	4
616.368	1	4
616.707	1	5
617.046	1	3
617.386	1	-3
617.725	1	-3
618.064	1	-4
618.404	1	1
618.743	1	3
619.082	1	7
619.422	1	-7
619.761	1	-10
620.100	1	-3
620.440	1	5
620.779	1	5
621.118	1	-2
621.458	1	-1
621.797	1	4
622.136	1	-6
622.476	1	-8
622.815	1	1
623.154	1	8
623.494	1	-2
623.833	1	4
624.172	1	0
624.511	1	4
624.851	1	5
625.190	1	1
625.529	1	7
625.869	1	10
626.208	1	-3
626.547	1	-11
626.886	1	-4
627.226	1	-2
627.565	1	1
627.904	1	-5
628.243	1	-3
628.583	1	-10
628.922	1	-8
629.261	1	2
629.600	1	-5
629.940	1	-1
630.279	1	-4
630.618	1	-5
630.957	1	3
631.297	1	-11
631.636	1	8
631.975	1	0
632.314	1	-2
632.653	1	5
632.993	1	-9
633.332	1	0
633.671	1	5
634.010	1	5
634.349	1	-5
634.689	1	8
635.028	1	1
635.367	1	-2
635.706	1	-6
636.045	1	5
636.384	1	-4
636.724	1	11
637.063	1	6
637.402	1	6
637.741	1	3
638.080	1	5
638.419	1	-8
638.759	1	-1
639.098	1	-14
639.437	1	-8
639.776	1	6
640.115	1	0
640.454	1	-3
640.793	1	-6
641.132	1	10
641.472	1	-3
641.811	1	4
642.150	1	-2
642.489	1	-5
642.828	1	-1
643.167	1	-9
643.506	1	1
643.845	1	5
644.184	1	13
644.524	1	4
644.863	1	3
645.202	1	5
645.541	1	8
645.880	1	4
646.219	1	9
646.558	1	1
646.897	1	6
647.236	1	-3
647.575	1	-8
647.914	1	4
648.253	1	-6
648.592	1	2
648.931	1	1
649.270	1	1
649.610	1	6
649.949	1	-5
650.288	1	3
650.627	1	-4
650.966	1	0
651.305	1	-4
651.644	1	2
651.983	1	2
652.322	1	3
652.661	1	0
653.000	1	0
653.339	1	-4
653.678	1	5
654.017	1	7
654.356	1	2
654.695	1	12
655.034	1	-9
655.373	1	14
655.712	1	-6
656.051	1	5
656.390	1	3
656.729	1	-2
657.068	1	2
657.406	1	-1
657.745	1	14
658.084	1	-4
658.423	1	4
658.762	1	2
659.101	1	8
659.440	1	-2
659.779	1	4
660.118	1	8
660.457	1	7
660.796	1	1
661.135	1	-16
661.474	1	4
661.813	1	0
662.152	1	2
662.491	1	-14
662.829	1	8
663.168	1	0
663.507	1	-4
663.846	1	1
664.185	1	6
664.524	1	3
664.863	1	-1
665.202	1	19
665.541	1	2
665.879	1	12
666.218	1	8
666.557	1	-2
666.896	1	-6
667.235	1	-2
667.574	1	-5
667.913	1	-6
668.251	1	1
668.590	1	-11
668.929	1	2
669.268	1	-2
669.607	1	-8
669.946	1	0
670.285	1	17
670.623	1	4
670.962	1	-4
671.301	1	7
671.640	1	5
671.979	1	-6
672.317	1	6
672.656	1	4
672.995	1	-7
673.334	1	-9
673.673	1	8
674.011	1	4
674.350	1	5
674.689	1	-5
675.028	1	4
675.367	1	-4
675.705	1	4
676.044	1	11
676.383	1	-6
676.722	1	10
677.060	1	3
677.399	1	-2
677.738	1	-2
678.077	1	10
678.416	1	-3
678.754	1	1
679.093	1	3
679.432	1	1
679.771	1	3
680.109	1	-4
680.448	1	11
680.787	1	-7
681.125	1	6
681.464	1	12
681.803	1	8
682.142	1	1
682.480	1	3
682.819	1	5
683.158	1	-10
683.496	1	2
683.835	1	-2
684.174	1	-9
684.512	1	-11
684.851	1	6
685.190	1	-4
685.529	1	13
685.867	1	4
686.206	1	-1
686.545	1	7
686.883	1	-3
687.222	1	-13
687.561	1	2
687.899	1	-8
688.238	1	0
688.577	1	16
688.746	1	-5