File: Data/GaN_170K_550ms/GaN_sample D_spot 18_UVVIS_170 K_200um_550 ms 2x2mm1_361.txt
340.368	1	-2
340.710	1	-22
341.052	1	0
341.394	1	-1
341.737	1	0
342.079	1	-9
342.421	1	7
342.763	1	1
343.105	1	2
343.447	1	-6
343.789	1	5
344.131	1	1
344.473	1	-11
344.815	1	8
345.157	1	1
345.499	1	0
345.841	1	3
346.183	1	15
346.526	1	-7
346.868	1	8
347.210	1	-7
347.552	1	1
347.894	1	-2
348.236	1	-4
348.578	1	3
348.920	1	-2
349.262	1	6
349.604	1	3
349.946	1	4
350.288	1	-1
350.630	1	15
350.972	1	-8
351.314	1	14
351.656	1	-5
351.998	1	3
352.340	1	9
352.682	1	-3
353.024	1	-4
353.366	1	8
353.708	1	5
354.050	1	-2
354.392	1	2
354.734	1	2
355.076	1	8
355.418	1	-5
355.760	1	-5
356.102	1	-1
356.444	1	-1
356.785	1	-5
357.127	1	-2
357.469	1	4
357.811	1	4
358.153	1	0
358.495	1	-4
358.837	1	5
359.179	1	-7
359.521	1	4
359.863	1	-1
360.205	1	10
360.547	1	13
360.889	1	7
361.231	1	7
361.572	1	4
361.914	1	-4
362.256	1	3
362.598	1	2
362.940	1	17
363.282	1	13
363.624	1	-3
363.966	1	5
364.308	1	6
364.649	1	1
364.991	1	8
365.333	1	0
365.675	1	5
366.017	1	3
366.359	1	3
366.701	1	4
367.042	1	2
367.384	1	10
367.726	1	10
368.068	1	6
368.410	1	17
368.752	1	3
369.093	1	-3
369.435	1	-2
369.777	1	5
370.119	1	2
370.461	1	17
370.803	1	-5
371.144	1	-2
371.486	1	-1
371.828	1	12
372.170	1	5
372.512	1	6
372.853	1	5
373.195	1	7
373.537	1	3
373.879	1	5
374.220	1	5
374.562	1	2
374.904	1	3
375.246	1	-7
375.588	1	-1
375.929	1	4
376.271	1	6
376.613	1	-1
376.955	1	3
377.296	1	6
377.638	1	4
377.980	1	-14
378.321	1	1
378.663	1	3
379.005	1	-2
379.347	1	1
379.688	1	2
380.030	1	-3
380.372	1	8
380.714	1	9
381.055	1	4
381.397	1	6
381.739	1	-9
382.080	1	-5
382.422	1	1
382.764	1	6
383.105	1	-6
383.447	1	15
383.789	1	11
384.130	1	-2
384.472	1	-11
384.814	1	-2
385.156	1	2
385.497	1	4
385.839	1	-10
386.180	1	9
386.522	1	-1
386.864	1	-3
387.205	1	4
387.547	1	2
387.889	1	7
388.230	1	0
388.572	1	2
388.914	1	-1
389.255	1	16
389.597	1	1
389.939	1	1
390.280	1	-1
390.622	1	-1
390.963	1	6
391.305	1	-12
391.647	1	-12
391.988	1	6
392.330	1	7
392.671	1	-8
393.013	1	1
393.355	1	8
393.696	1	5
394.038	1	-6
394.379	1	-1
394.721	1	1
395.062	1	-2
395.404	1	-1
395.746	1	4
396.087	1	5
396.429	1	1
396.770	1	5
397.112	1	-9
397.453	1	5
397.795	1	3
398.136	1	3
398.478	1	-4
398.819	1	5
399.161	1	-2
399.503	1	4
399.844	1	0
400.186	1	-6
400.527	1	18
400.869	1	-2
401.210	1	-1
401.552	1	-2
401.893	1	2
402.235	1	2
402.576	1	-1
402.918	1	-8
403.259	1	6
403.601	1	3
403.942	1	10
404.284	1	-15
404.625	1	5
404.967	1	11
405.308	1	3
405.649	1	5
405.991	1	0
406.332	1	-7
406.674	1	9
407.015	1	8
407.357	1	3
407.698	1	-2
408.040	1	-3
408.381	1	-5
408.722	1	-14
409.064	1	1
409.405	1	9
409.747	1	-3
410.088	1	11
410.430	1	-6
410.771	1	3
411.112	1	-3
411.454	1	4
411.795	1	10
412.137	1	-10
412.478	1	-8
412.819	1	-16
413.161	1	5
413.502	1	2
413.844	1	5
414.185	1	-7
414.526	1	9
414.868	1	-6
415.209	1	-4
415.550	1	-1
415.892	1	3
416.233	1	1
416.575	1	-1
416.916	1	-6
417.257	1	-5
417.599	1	-8
417.940	1	-4
418.281	1	-11
418.623	1	-5
418.964	1	-6
419.305	1	-7
419.647	1	1
419.988	1	8
420.329	1	12
420.671	1	-6
421.012	1	1
421.353	1	3
421.695	1	-10
422.036	1	4
422.377	1	3
422.718	1	6
423.060	1	-6
423.401	1	3
423.742	1	-5
424.084	1	13
424.425	1	-6
424.766	1	2
425.107	1	-7
425.449	1	-6
425.790	1	9
426.131	1	6
426.472	1	-5
426.814	1	-8
427.155	1	13
427.496	1	2
427.837	1	3
428.179	1	3
428.520	1	1
428.861	1	-4
429.202	1	-7
429.544	1	-12
429.885	1	-1
430.226	1	3
430.567	1	3
430.909	1	-1
431.250	1	7
431.591	1	4
431.932	1	-4
432.273	1	2
432.615	1	2
432.956	1	1
433.297	1	-13
433.638	1	8
433.979	1	-3
434.320	1	4
434.662	1	-16
435.003	1	1
435.344	1	-6
435.685	1	-1
436.026	1	-2
436.368	1	4
436.709	1	3
437.050	1	-3
437.391	1	-14
437.732	1	2
438.073	1	0
438.414	1	-6
438.756	1	6
439.097	1	7
439.438	1	-2
439.779	1	7
440.120	1	2
440.461	1	16
440.802	1	13
441.143	1	-5
441.485	1	-14
441.826	1	1
442.167	1	-1
442.508	1	-15
442.849	1	-6
443.190	1	5
443.531	1	2
443.872	1	-7
444.213	1	-5
444.554	1	-1
444.895	1	-17
445.237	1	-10
445.578	1	7
445.919	1	0
446.260	1	4
446.601	1	-9
446.942	1	4
447.283	1	2
447.624	1	11
447.965	1	-6
448.306	1	-2
448.647	1	-2
448.988	1	10
449.329	1	6
449.670	1	-16
450.011	1	3
450.352	1	-11
450.693	1	-3
451.034	1	-10
451.375	1	12
451.716	1	5
452.057	1	3
452.398	1	6
452.739	1	5
453.080	1	2
453.421	1	-4
453.762	1	-2
454.103	1	-9
454.444	1	-4
454.785	1	-9
455.126	1	8
455.467	1	-9
455.808	1	14
456.149	1	4
456.490	1	6
456.831	1	-3
457.172	1	-6
457.513	1	5
457.854	1	10
458.195	1	-5
458.536	1	-5
458.877	1	-1
459.218	1	-8
459.559	1	-9
459.899	1	-1
460.240	1	6
460.581	1	4
460.922	1	-4
461.263	1	-1
461.604	1	9
461.945	1	-6
462.286	1	-2
462.627	1	6
462.968	1	-1
463.309	1	10
463.649	1	1
463.990	1	-3
464.331	1	4
464.672	1	-4
465.013	1	3
465.354	1	-1
465.695	1	2
466.036	1	-5
466.376	1	0
466.717	1	-3
467.058	1	-1
467.399	1	6
467.740	1	-3
468.081	1	1
468.422	1	3
468.762	1	15
469.103	1	1
469.444	1	-3
469.785	1	-3
470.126	1	1
470.467	1	3
470.807	1	0
471.148	1	-1
471.489	1	-3
471.830	1	2
472.171	1	15
472.511	1	2
472.852	1	-1
473.193	1	7
473.534	1	1
473.875	1	-1
474.215	1	4
474.556	1	2
474.897	1	-1
475.238	1	-3
475.578	1	3
475.919	1	5
476.260	1	7
476.601	1	2
476.942	1	-4
477.282	1	9
477.623	1	2
477.964	1	0
478.305	1	-2
478.645	1	0
478.986	1	-5
479.327	1	-11
479.667	1	0
480.008	1	-5
480.349	1	11
480.690	1	-1
481.030	1	11
481.371	1	5
481.712	1	3
482.053	1	-6
482.393	1	-6
482.734	1	2
483.075	1	-2
483.415	1	7
483.756	1	-3
484.097	1	-18
484.437	1	-3
484.778	1	-3
485.119	1	3
485.459	1	-4
485.800	1	-3
486.141	1	14
486.481	1	-2
486.822	1	11
487.163	1	1
487.503	1	-3
487.844	1	5
488.185	1	0
488.525	1	14
488.866	1	2
489.207	1	4
489.547	1	8
489.888	1	-3
490.228	1	-2
490.569	1	2
490.910	1	4
491.250	1	-1
491.591	1	-1
491.932	1	7
492.272	1	2
492.613	1	1
492.953	1	-3
493.294	1	-10
493.635	1	2
493.975	1	-2
494.316	1	-3
494.656	1	-3
494.997	1	5
495.337	1	7
495.678	1	2
496.019	1	-7
496.359	1	0
496.700	1	3
497.040	1	-3
497.381	1	-2
497.721	1	-13
498.062	1	-3
498.403	1	0
498.743	1	2
499.084	1	-7
499.424	1	2
499.765	1	-10
500.105	1	-6
500.446	1	-7
500.786	1	0
501.127	1	-5
501.467	1	-3
501.808	1	-4
502.148	1	4
502.489	1	6
502.829	1	-8
503.170	1	13
503.510	1	6
503.851	1	1
504.191	1	-5
504.532	1	-17
504.872	1	0
505.213	1	-10
505.553	1	1
505.894	1	6
506.234	1	4
506.575	1	6
506.915	1	6
507.256	1	0
507.596	1	5
507.936	1	17
508.277	1	-5
508.617	1	1
508.958	1	2
509.298	1	-7
509.639	1	4
509.979	1	3
510.319	1	-8
510.660	1	-9
511.000	1	9
511.341	1	-3
511.681	1	-2
512.022	1	6
512.362	1	-1
512.702	1	2
513.043	1	-2
513.383	1	2
513.724	1	-5
514.064	1	13
514.404	1	1
514.745	1	-4
515.085	1	-3
515.425	1	2
515.766	1	0
516.106	1	-2
516.447	1	-3
516.787	1	-2
517.127	1	3
517.468	1	12
517.808	1	9
518.148	1	6
518.489	1	11
518.829	1	2
519.169	1	-4
519.510	1	1
519.850	1	5
520.190	1	1
520.531	1	5
520.871	1	-9
521.211	1	4
521.552	1	-5
521.892	1	0
522.232	1	-6
522.573	1	-2
522.913	1	7
523.253	1	13
523.593	1	-2
523.934	1	-2
524.274	1	-2
524.614	1	5
524.955	1	0
525.295	1	10
525.635	1	-2
525.975	1	-3
526.316	1	13
526.656	1	13
526.996	1	-4
527.337	1	-1
527.677	1	-3
528.017	1	7
528.357	1	-4
528.698	1	-13
529.038	1	-3
529.378	1	-7
529.718	1	6
530.058	1	6
530.399	1	0
530.739	1	3
531.079	1	8
531.419	1	3
531.760	1	-3
532.100	1	-1
532.440	1	-1
532.780	1	-8
533.120	1	9
533.461	1	-2
533.801	1	3
534.141	1	5
534.481	1	5
534.821	1	9
535.162	1	-2
535.502	1	5
535.842	1	9
536.182	1	2
536.522	1	7
536.862	1	5
537.203	1	1
537.543	1	-6
537.883	1	5
538.223	1	6
538.563	1	9
538.903	1	6
539.243	1	-10
539.584	1	1
539.924	1	-1
540.264	1	9
540.604	1	-1
540.944	1	-5
541.284	1	11
541.624	1	-5
541.964	1	6
542.305	1	5
542.645	1	-1
542.985	1	9
543.325	1	2
543.665	1	0
544.005	1	16
544.345	1	1
544.685	1	-1
545.025	1	5
545.365	1	0
545.705	1	10
546.045	1	0
546.386	1	-3
546.726	1	-11
547.066	1	14
547.406	1	3
547.746	1	-4
548.086	1	-3
548.426	1	11
548.766	1	0
549.106	1	2
549.446	1	2
549.786	1	1
550.126	1	0
550.466	1	4
550.806	1	1
551.146	1	8
551.486	1	-1
551.826	1	4
552.166	1	4
552.506	1	-2
552.846	1	-9
553.186	1	0
553.526	1	-13
553.866	1	-10
554.206	1	-1
554.546	1	-10
554.886	1	-6
555.226	1	-6
555.566	1	8
555.906	1	-2
556.246	1	-1
556.586	1	8
556.926	1	2
557.266	1	8
557.606	1	10
557.946	1	7
558.286	1	-10
558.626	1	8
558.966	1	2
559.306	1	11
559.646	1	-5
559.986	1	4
560.325	1	-6
560.665	1	6
561.005	1	2
561.345	1	-6
561.685	1	3
562.025	1	-6
562.365	1	7
562.705	1	1
563.045	1	-1
563.385	1	1
563.725	1	-4
564.064	1	-1
564.404	1	-3
564.744	1	-3
565.084	1	4
565.424	1	1
565.764	1	-3
566.104	1	0
566.444	1	2
566.783	1	1
567.123	1	-1
567.463	1	2
567.803	1	4
568.143	1	2
568.483	1	-8
568.823	1	-1
569.162	1	7
569.502	1	3
569.842	1	-1
570.182	1	-3
570.522	1	4
570.862	1	-2
571.201	1	2
571.541	1	-12
571.881	1	-3
572.221	1	0
572.561	1	-6
572.900	1	-9
573.240	1	4
573.580	1	-6
573.920	1	16
574.260	1	-1
574.599	1	1
574.939	1	-10
575.279	1	4
575.619	1	7
575.959	1	-4
576.298	1	7
576.638	1	2
576.978	1	-2
577.318	1	-1
577.657	1	3
577.997	1	0
578.337	1	2
578.677	1	-1
579.016	1	1
579.356	1	0
579.696	1	-9
580.036	1	-6
580.375	1	-1
580.715	1	0
581.055	1	9
581.394	1	-1
581.734	1	10
582.074	1	10
582.414	1	-9
582.753	1	-1
583.093	1	-1
583.433	1	0
583.772	1	-3
584.112	1	0
584.452	1	-12
584.791	1	-5
585.131	1	7
585.471	1	7
585.811	1	-5
586.150	1	-5
586.490	1	-1
586.830	1	-2
587.169	1	11
587.509	1	6
587.849	1	-2
588.188	1	-7
588.528	1	-5
588.867	1	-3
589.207	1	-1
589.547	1	10
589.886	1	-1
590.226	1	0
590.566	1	4
590.905	1	0
591.245	1	11
591.585	1	3
591.924	1	-1
592.264	1	-9
592.603	1	-4
592.943	1	-1
593.283	1	2
593.622	1	-12
593.962	1	4
594.301	1	4
594.641	1	4
594.981	1	5
595.320	1	-1
595.660	1	2
595.999	1	1
596.339	1	5
596.678	1	-5
597.018	1	-1
597.358	1	-2
597.697	1	-1
598.037	1	0
598.376	1	-10
598.716	1	-6
599.055	1	-8
599.395	1	-4
599.734	1	5
600.074	1	-7
600.413	1	-4
600.753	1	7
601.092	1	-10
601.432	1	-6
601.771	1	9
602.111	1	-6
602.451	1	6
602.790	1	8
603.130	1	-6
603.469	1	0
603.809	1	-5
604.148	1	-2
604.487	1	2
604.827	1	-8
605.166	1	3
605.506	1	2
605.845	1	3
606.185	1	5
606.524	1	2
606.864	1	-5
607.203	1	5
607.543	1	-2
607.882	1	-6
608.222	1	6
608.561	1	4
608.901	1	6
609.240	1	1
609.579	1	7
609.919	1	2
610.258	1	6
610.598	1	4
610.937	1	-5
611.277	1	0
611.616	1	2
611.955	1	4
612.295	1	-1
612.634	1	-7
612.974	1	8
613.313	1	4
613.652	1	13
613.992	1	-7
614.331	1	5
614.671	1	6
615.010	1	-1
615.349	1	5
615.689	1	3
616.028	1	4
616.368	1	-1
616.707	1	4
617.046	1	-3
617.386	1	0
617.725	1	9
618.064	1	-8
618.404	1	-5
618.743	1	-1
619.082	1	2
619.422	1	-7
619.761	1	-2
620.100	1	-7
620.440	1	-6
620.779	1	-9
621.118	1	-7
621.458	1	-3
621.797	1	2
622.136	1	0
622.476	1	-8
622.815	1	-6
623.154	1	8
623.494	1	-2
623.833	1	-6
624.172	1	-4
624.511	1	5
624.851	1	-5
625.190	1	13
625.529	1	1
625.869	1	6
626.208	1	0
626.547	1	-2
626.886	1	0
627.226	1	2
627.565	1	4
627.904	1	-3
628.243	1	-6
628.583	1	-2
628.922	1	-7
629.261	1	4
629.600	1	8
629.940	1	1
630.279	1	1
630.618	1	-8
630.957	1	3
631.297	1	-2
631.636	1	11
631.975	1	-1
632.314	1	3
632.653	1	2
632.993	1	-8
633.332	1	0
633.671	1	8
634.010	1	0
634.349	1	-8
634.689	1	1
635.028	1	-7
635.367	1	-4
635.706	1	-9
636.045	1	6
636.384	1	-4
636.724	1	10
637.063	1	9
637.402	1	9
637.741	1	-3
638.080	1	6
638.419	1	-2
638.759	1	-5
639.098	1	-4
639.437	1	-9
639.776	1	0
640.115	1	1
640.454	1	-2
640.793	1	0
641.132	1	6
641.472	1	-3
641.811	1	5
642.150	1	5
642.489	1	-13
642.828	1	-4
643.167	1	-2
643.506	1	-1
643.845	1	6
644.184	1	11
644.524	1	4
644.863	1	-6
645.202	1	-2
645.541	1	-6
645.880	1	8
646.219	1	-3
646.558	1	-1
646.897	1	5
647.236	1	0
647.575	1	-4
647.914	1	1
648.253	1	1
648.592	1	0
648.931	1	10
649.270	1	-1
649.610	1	3
649.949	1	4
650.288	1	5
650.627	1	-2
650.966	1	9
651.305	1	-14
651.644	1	9
651.983	1	7
652.322	1	-4
652.661	1	0
653.000	1	4
653.339	1	1
653.678	1	2
654.017	1	0
654.356	1	3
654.695	1	6
655.034	1	0
655.373	1	0
655.712	1	-6
656.051	1	3
656.390	1	0
656.729	1	5
657.068	1	7
657.406	1	1
657.745	1	1
658.084	1	-7
658.423	1	-4
658.762	1	-5
659.101	1	1
659.440	1	-4
659.779	1	3
660.118	1	2
660.457	1	5
660.796	1	-9
661.135	1	-9
661.474	1	2
661.813	1	-6
662.152	1	-3
662.491	1	-4
662.829	1	-1
663.168	1	5
663.507	1	1
663.846	1	3
664.185	1	-2
664.524	1	0
664.863	1	0
665.202	1	6
665.541	1	0
665.879	1	2
666.218	1	12
666.557	1	1
666.896	1	5
667.235	1	6
667.574	1	-9
667.913	1	-7
668.251	1	10
668.590	1	5
668.929	1	2
669.268	1	2
669.607	1	4
669.946	1	7
670.285	1	10
670.623	1	-5
670.962	1	-10
671.301	1	3
671.640	1	8
671.979	1	-2
672.317	1	-1
672.656	1	2
672.995	1	-14
673.334	1	-4
673.673	1	-1
674.011	1	5
674.350	1	-2
674.689	1	5
675.028	1	1
675.367	1	-3
675.705	1	3
676.044	1	10
676.383	1	5
676.722	1	13
677.060	1	-11
677.399	1	-5
677.738	1	2
678.077	1	13
678.416	1	6
678.754	1	2
679.093	1	2
679.432	1	3
679.771	1	7
680.109	1	-6
680.448	1	5
680.787	1	-8
681.125	1	9
681.464	1	4
681.803	1	2
682.142	1	-3
682.480	1	0
682.819	1	19
683.158	1	-3
683.496	1	3
683.835	1	-9
684.174	1	-10
684.512	1	6
684.851	1	-4
685.190	1	-7
685.529	1	10
685.867	1	1
686.206	1	5
686.545	1	-3
686.883	1	5
687.222	1	1
687.561	1	1
687.899	1	-13
688.238	1	6
688.577	1	13
688.746	1	-11