File: Data/GaN_170K_550ms/GaN_sample D_spot 18_UVVIS_170 K_200um_550 ms 2x2mm1_318.txt
340.368	1	5
340.710	1	-11
341.052	1	-1
341.394	1	-2
341.737	1	-5
342.079	1	0
342.421	1	-3
342.763	1	4
343.105	1	8
343.447	1	-7
343.789	1	1
344.131	1	-1
344.473	1	3
344.815	1	8
345.157	1	-1
345.499	1	-2
345.841	1	1
346.183	1	4
346.526	1	0
346.868	1	15
347.210	1	-5
347.552	1	9
347.894	1	-4
348.236	1	3
348.578	1	5
348.920	1	-2
349.262	1	1
349.604	1	9
349.946	1	1
350.288	1	1
350.630	1	9
350.972	1	-8
351.314	1	0
351.656	1	-4
351.998	1	2
352.340	1	6
352.682	1	8
353.024	1	-4
353.366	1	-3
353.708	1	1
354.050	1	-6
354.392	1	1
354.734	1	4
355.076	1	4
355.418	1	-5
355.760	1	1
356.102	1	3
356.444	1	5
356.785	1	6
357.127	1	3
357.469	1	1
357.811	1	5
358.153	1	10
358.495	1	1
358.837	1	9
359.179	1	-8
359.521	1	3
359.863	1	6
360.205	1	10
360.547	1	8
360.889	1	4
361.231	1	3
361.572	1	10
361.914	1	2
362.256	1	1
362.598	1	-2
362.940	1	23
363.282	1	7
363.624	1	2
363.966	1	5
364.308	1	7
364.649	1	4
364.991	1	10
365.333	1	-2
365.675	1	10
366.017	1	-2
366.359	1	0
366.701	1	0
367.042	1	-5
367.384	1	9
367.726	1	13
368.068	1	5
368.410	1	17
368.752	1	15
369.093	1	11
369.435	1	4
369.777	1	6
370.119	1	13
370.461	1	11
370.803	1	5
371.144	1	9
371.486	1	3
371.828	1	-7
372.170	1	6
372.512	1	4
372.853	1	10
373.195	1	-2
373.537	1	19
373.879	1	0
374.220	1	13
374.562	1	-3
374.904	1	5
375.246	1	1
375.588	1	7
375.929	1	3
376.271	1	10
376.613	1	6
376.955	1	5
377.296	1	2
377.638	1	10
377.980	1	-5
378.321	1	-3
378.663	1	8
379.005	1	5
379.347	1	3
379.688	1	6
380.030	1	3
380.372	1	2
380.714	1	10
381.055	1	-1
381.397	1	7
381.739	1	-7
382.080	1	-3
382.422	1	5
382.764	1	2
383.105	1	6
383.447	1	5
383.789	1	8
384.130	1	-2
384.472	1	-6
384.814	1	7
385.156	1	4
385.497	1	9
385.839	1	-3
386.180	1	3
386.522	1	14
386.864	1	9
387.205	1	2
387.547	1	4
387.889	1	11
388.230	1	0
388.572	1	7
388.914	1	-4
389.255	1	7
389.597	1	3
389.939	1	4
390.280	1	0
390.622	1	-3
390.963	1	0
391.305	1	-5
391.647	1	-11
391.988	1	13
392.330	1	3
392.671	1	-4
393.013	1	-1
393.355	1	1
393.696	1	11
394.038	1	-1
394.379	1	-9
394.721	1	1
395.062	1	-8
395.404	1	9
395.746	1	6
396.087	1	4
396.429	1	1
396.770	1	16
397.112	1	1
397.453	1	7
397.795	1	-2
398.136	1	7
398.478	1	1
398.819	1	-6
399.161	1	1
399.503	1	0
399.844	1	-1
400.186	1	-4
400.527	1	16
400.869	1	2
401.210	1	-1
401.552	1	1
401.893	1	5
402.235	1	2
402.576	1	-3
402.918	1	-6
403.259	1	3
403.601	1	10
403.942	1	4
404.284	1	-5
404.625	1	3
404.967	1	6
405.308	1	2
405.649	1	1
405.991	1	-8
406.332	1	-6
406.674	1	5
407.015	1	6
407.357	1	-2
407.698	1	0
408.040	1	6
408.381	1	-3
408.722	1	-7
409.064	1	-4
409.405	1	6
409.747	1	0
410.088	1	10
410.430	1	4
410.771	1	2
411.112	1	4
411.454	1	6
411.795	1	-2
412.137	1	-6
412.478	1	2
412.819	1	-13
413.161	1	12
413.502	1	-7
413.844	1	5
414.185	1	-3
414.526	1	5
414.868	1	-4
415.209	1	-11
415.550	1	3
415.892	1	1
416.233	1	3
416.575	1	5
416.916	1	0
417.257	1	6
417.599	1	-3
417.940	1	6
418.281	1	-5
418.623	1	-7
418.964	1	-5
419.305	1	0
419.647	1	2
419.988	1	2
420.329	1	1
420.671	1	-3
421.012	1	2
421.353	1	-2
421.695	1	-9
422.036	1	1
422.377	1	10
422.718	1	10
423.060	1	0
423.401	1	-7
423.742	1	-3
424.084	1	11
424.425	1	-7
424.766	1	6
425.107	1	0
425.449	1	-9
425.790	1	6
426.131	1	8
426.472	1	8
426.814	1	-4
427.155	1	6
427.496	1	-2
427.837	1	5
428.179	1	0
428.520	1	-3
428.861	1	5
429.202	1	-7
429.544	1	-2
429.885	1	0
430.226	1	2
430.567	1	5
430.909	1	0
431.250	1	11
431.591	1	1
431.932	1	0
432.273	1	2
432.615	1	1
432.956	1	-7
433.297	1	-8
433.638	1	2
433.979	1	-4
434.320	1	0
434.662	1	-9
435.003	1	-2
435.344	1	-2
435.685	1	-8
436.026	1	-1
436.368	1	-1
436.709	1	3
437.050	1	-5
437.391	1	-1
437.732	1	3
438.073	1	3
438.414	1	-14
438.756	1	-2
439.097	1	8
439.438	1	5
439.779	1	9
440.120	1	-4
440.461	1	8
440.802	1	5
441.143	1	-7
441.485	1	-10
441.826	1	1
442.167	1	-7
442.508	1	-10
442.849	1	-6
443.190	1	-5
443.531	1	5
443.872	1	-4
444.213	1	-6
444.554	1	-3
444.895	1	-15
445.237	1	-4
445.578	1	11
445.919	1	1
446.260	1	12
446.601	1	-6
446.942	1	-2
447.283	1	1
447.624	1	1
447.965	1	-1
448.306	1	-4
448.647	1	-7
448.988	1	5
449.329	1	0
449.670	1	-11
450.011	1	3
450.352	1	-8
450.693	1	-7
451.034	1	-10
451.375	1	7
451.716	1	9
452.057	1	4
452.398	1	7
452.739	1	3
453.080	1	-5
453.421	1	0
453.762	1	-3
454.103	1	1
454.444	1	-4
454.785	1	-3
455.126	1	2
455.467	1	-17
455.808	1	6
456.149	1	-3
456.490	1	3
456.831	1	-7
457.172	1	-3
457.513	1	4
457.854	1	11
458.195	1	5
458.536	1	1
458.877	1	7
459.218	1	-3
459.559	1	-4
459.899	1	1
460.240	1	7
460.581	1	12
460.922	1	-6
461.263	1	8
461.604	1	-2
461.945	1	-5
462.286	1	-4
462.627	1	8
462.968	1	9
463.309	1	4
463.649	1	3
463.990	1	-3
464.331	1	-1
464.672	1	-8
465.013	1	12
465.354	1	-6
465.695	1	11
466.036	1	-6
466.376	1	1
466.717	1	-1
467.058	1	1
467.399	1	8
467.740	1	-7
468.081	1	1
468.422	1	2
468.762	1	11
469.103	1	3
469.444	1	0
469.785	1	-3
470.126	1	4
470.467	1	3
470.807	1	1
471.148	1	-5
471.489	1	2
471.830	1	-5
472.171	1	8
472.511	1	0
472.852	1	-2
473.193	1	0
473.534	1	3
473.875	1	4
474.215	1	-7
474.556	1	8
474.897	1	2
475.238	1	-1
475.578	1	2
475.919	1	3
476.260	1	12
476.601	1	-2
476.942	1	0
477.282	1	9
477.623	1	7
477.964	1	0
478.305	1	-6
478.645	1	-3
478.986	1	-1
479.327	1	-9
479.667	1	-3
480.008	1	7
480.349	1	-6
480.690	1	2
481.030	1	-1
481.371	1	-5
481.712	1	8
482.053	1	-8
482.393	1	-6
482.734	1	3
483.075	1	-1
483.415	1	11
483.756	1	1
484.097	1	4
484.437	1	-3
484.778	1	-9
485.119	1	-1
485.459	1	1
485.800	1	-9
486.141	1	9
486.481	1	-3
486.822	1	3
487.163	1	5
487.503	1	8
487.844	1	3
488.185	1	6
488.525	1	9
488.866	1	9
489.207	1	7
489.547	1	3
489.888	1	3
490.228	1	-5
490.569	1	5
490.910	1	4
491.250	1	6
491.591	1	2
491.932	1	7
492.272	1	6
492.613	1	0
492.953	1	-4
493.294	1	-7
493.635	1	-2
493.975	1	3
494.316	1	3
494.656	1	1
494.997	1	3
495.337	1	4
495.678	1	-5
496.019	1	-7
496.359	1	6
496.700	1	9
497.040	1	-4
497.381	1	2
497.721	1	-2
498.062	1	2
498.403	1	-2
498.743	1	5
499.084	1	0
499.424	1	3
499.765	1	-12
500.105	1	-3
500.446	1	-3
500.786	1	-3
501.127	1	0
501.467	1	0
501.808	1	1
502.148	1	2
502.489	1	7
502.829	1	0
503.170	1	9
503.510	1	5
503.851	1	13
504.191	1	-4
504.532	1	-12
504.872	1	2
505.213	1	-7
505.553	1	5
505.894	1	8
506.234	1	-10
506.575	1	3
506.915	1	8
507.256	1	-5
507.596	1	3
507.936	1	16
508.277	1	-2
508.617	1	3
508.958	1	2
509.298	1	3
509.639	1	12
509.979	1	-1
510.319	1	-5
510.660	1	-4
511.000	1	2
511.341	1	9
511.681	1	-6
512.022	1	1
512.362	1	-1
512.702	1	-9
513.043	1	0
513.383	1	5
513.724	1	-1
514.064	1	0
514.404	1	-3
514.745	1	-4
515.085	1	6
515.425	1	6
515.766	1	0
516.106	1	11
516.447	1	-4
516.787	1	2
517.127	1	0
517.468	1	2
517.808	1	4
518.148	1	4
518.489	1	1
518.829	1	2
519.169	1	2
519.510	1	4
519.850	1	5
520.190	1	2
520.531	1	4
520.871	1	-7
521.211	1	-2
521.552	1	1
521.892	1	5
522.232	1	-10
522.573	1	4
522.913	1	11
523.253	1	11
523.593	1	3
523.934	1	-1
524.274	1	5
524.614	1	-4
524.955	1	-3
525.295	1	6
525.635	1	7
525.975	1	-7
526.316	1	11
526.656	1	10
526.996	1	5
527.337	1	0
527.677	1	1
528.017	1	2
528.357	1	-9
528.698	1	-13
529.038	1	5
529.378	1	-4
529.718	1	13
530.058	1	9
530.399	1	6
530.739	1	2
531.079	1	5
531.419	1	7
531.760	1	-3
532.100	1	0
532.440	1	4
532.780	1	-6
533.120	1	15
533.461	1	0
533.801	1	-2
534.141	1	1
534.481	1	9
534.821	1	-1
535.162	1	3
535.502	1	-6
535.842	1	4
536.182	1	-3
536.522	1	6
536.862	1	10
537.203	1	6
537.543	1	-8
537.883	1	4
538.223	1	6
538.563	1	0
538.903	1	9
539.243	1	3
539.584	1	8
539.924	1	2
540.264	1	5
540.604	1	8
540.944	1	-8
541.284	1	0
541.624	1	-8
541.964	1	-2
542.305	1	0
542.645	1	-5
542.985	1	7
543.325	1	-3
543.665	1	2
544.005	1	15
544.345	1	-1
544.685	1	3
545.025	1	-3
545.365	1	-3
545.705	1	2
546.045	1	1
546.386	1	1
546.726	1	8
547.066	1	15
547.406	1	1
547.746	1	-6
548.086	1	-7
548.426	1	10
548.766	1	1
549.106	1	15
549.446	1	4
549.786	1	0
550.126	1	7
550.466	1	1
550.806	1	6
551.146	1	5
551.486	1	6
551.826	1	7
552.166	1	-3
552.506	1	6
552.846	1	-3
553.186	1	8
553.526	1	-5
553.866	1	-11
554.206	1	5
554.546	1	-6
554.886	1	-2
555.226	1	-10
555.566	1	6
555.906	1	-5
556.246	1	7
556.586	1	-5
556.926	1	-2
557.266	1	9
557.606	1	0
557.946	1	8
558.286	1	6
558.626	1	11
558.966	1	13
559.306	1	7
559.646	1	9
559.986	1	11
560.325	1	-5
560.665	1	4
561.005	1	3
561.345	1	-16
561.685	1	9
562.025	1	-11
562.365	1	5
562.705	1	5
563.045	1	-3
563.385	1	8
563.725	1	-2
564.064	1	7
564.404	1	7
564.744	1	0
565.084	1	1
565.424	1	3
565.764	1	-2
566.104	1	11
566.444	1	1
566.783	1	6
567.123	1	1
567.463	1	-8
567.803	1	-2
568.143	1	1
568.483	1	-2
568.823	1	2
569.162	1	10
569.502	1	6
569.842	1	-4
570.182	1	-1
570.522	1	6
570.862	1	5
571.201	1	3
571.541	1	1
571.881	1	-5
572.221	1	-1
572.561	1	-3
572.900	1	-3
573.240	1	-1
573.580	1	2
573.920	1	2
574.260	1	1
574.599	1	-3
574.939	1	-4
575.279	1	-8
575.619	1	8
575.959	1	4
576.298	1	6
576.638	1	7
576.978	1	-3
577.318	1	4
577.657	1	7
577.997	1	1
578.337	1	3
578.677	1	0
579.016	1	4
579.356	1	2
579.696	1	-8
580.036	1	0
580.375	1	2
580.715	1	4
581.055	1	7
581.394	1	-2
581.734	1	5
582.074	1	5
582.414	1	-1
582.753	1	-6
583.093	1	7
583.433	1	-2
583.772	1	-9
584.112	1	2
584.452	1	-2
584.791	1	-2
585.131	1	3
585.471	1	15
585.811	1	-9
586.150	1	-3
586.490	1	4
586.830	1	3
587.169	1	2
587.509	1	8
587.849	1	0
588.188	1	1
588.528	1	4
588.867	1	1
589.207	1	-3
589.547	1	9
589.886	1	-7
590.226	1	5
590.566	1	7
590.905	1	6
591.245	1	5
591.585	1	-1
591.924	1	-1
592.264	1	-1
592.603	1	-3
592.943	1	8
593.283	1	6
593.622	1	-9
593.962	1	0
594.301	1	4
594.641	1	7
594.981	1	8
595.320	1	-5
595.660	1	-3
595.999	1	3
596.339	1	6
596.678	1	-6
597.018	1	-2
597.358	1	-7
597.697	1	3
598.037	1	2
598.376	1	-10
598.716	1	4
599.055	1	-8
599.395	1	0
599.734	1	19
600.074	1	10
600.413	1	0
600.753	1	4
601.092	1	0
601.432	1	-1
601.771	1	7
602.111	1	-3
602.451	1	11
602.790	1	8
603.130	1	-9
603.469	1	3
603.809	1	3
604.148	1	-3
604.487	1	2
604.827	1	-12
605.166	1	8
605.506	1	-9
605.845	1	6
606.185	1	7
606.524	1	4
606.864	1	7
607.203	1	6
607.543	1	10
607.882	1	1
608.222	1	7
608.561	1	13
608.901	1	6
609.240	1	-10
609.579	1	4
609.919	1	3
610.258	1	2
610.598	1	14
610.937	1	6
611.277	1	-1
611.616	1	3
611.955	1	5
612.295	1	-4
612.634	1	0
612.974	1	-2
613.313	1	-5
613.652	1	17
613.992	1	-1
614.331	1	-2
614.671	1	9
615.010	1	1
615.349	1	2
615.689	1	12
616.028	1	0
616.368	1	8
616.707	1	4
617.046	1	-2
617.386	1	-3
617.725	1	0
618.064	1	3
618.404	1	8
618.743	1	0
619.082	1	5
619.422	1	-1
619.761	1	-2
620.100	1	-4
620.440	1	-3
620.779	1	9
621.118	1	-5
621.458	1	3
621.797	1	2
622.136	1	-4
622.476	1	-4
622.815	1	8
623.154	1	-2
623.494	1	-10
623.833	1	8
624.172	1	8
624.511	1	4
624.851	1	-4
625.190	1	10
625.529	1	6
625.869	1	6
626.208	1	1
626.547	1	-6
626.886	1	0
627.226	1	9
627.565	1	1
627.904	1	10
628.243	1	-13
628.583	1	-8
628.922	1	-6
629.261	1	9
629.600	1	-4
629.940	1	4
630.279	1	-5
630.618	1	1
630.957	1	4
631.297	1	-4
631.636	1	6
631.975	1	-9
632.314	1	0
632.653	1	5
632.993	1	-7
633.332	1	8
633.671	1	2
634.010	1	7
634.349	1	-8
634.689	1	7
635.028	1	4
635.367	1	0
635.706	1	7
636.045	1	7
636.384	1	-3
636.724	1	7
637.063	1	7
637.402	1	2
637.741	1	0
638.080	1	12
638.419	1	-8
638.759	1	7
639.098	1	-5
639.437	1	-7
639.776	1	0
640.115	1	7
640.454	1	-9
640.793	1	-14
641.132	1	-1
641.472	1	-5
641.811	1	-3
642.150	1	-2
642.489	1	-5
642.828	1	2
643.167	1	0
643.506	1	3
643.845	1	6
644.184	1	3
644.524	1	11
644.863	1	-12
645.202	1	7
645.541	1	-4
645.880	1	4
646.219	1	-6
646.558	1	11
646.897	1	15
647.236	1	0
647.575	1	-6
647.914	1	0
648.253	1	-3
648.592	1	-3
648.931	1	6
649.270	1	-2
649.610	1	4
649.949	1	-5
650.288	1	-9
650.627	1	-9
650.966	1	2
651.305	1	-9
651.644	1	2
651.983	1	0
652.322	1	2
652.661	1	11
653.000	1	-5
653.339	1	1
653.678	1	-1
654.017	1	10
654.356	1	0
654.695	1	4
655.034	1	-7
655.373	1	6
655.712	1	-11
656.051	1	3
656.390	1	-5
656.729	1	7
657.068	1	10
657.406	1	1
657.745	1	7
658.084	1	-3
658.423	1	-5
658.762	1	-1
659.101	1	4
659.440	1	6
659.779	1	2
660.118	1	5
660.457	1	4
660.796	1	-5
661.135	1	-10
661.474	1	7
661.813	1	-6
662.152	1	1
662.491	1	-6
662.829	1	-2
663.168	1	16
663.507	1	-2
663.846	1	-2
664.185	1	0
664.524	1	-3
664.863	1	-2
665.202	1	10
665.541	1	-3
665.879	1	1
666.218	1	10
666.557	1	3
666.896	1	-3
667.235	1	-4
667.574	1	-12
667.913	1	-6
668.251	1	8
668.590	1	4
668.929	1	2
669.268	1	-6
669.607	1	3
669.946	1	-1
670.285	1	7
670.623	1	-2
670.962	1	-3
671.301	1	-2
671.640	1	1
671.979	1	-1
672.317	1	1
672.656	1	4
672.995	1	0
673.334	1	-8
673.673	1	-2
674.011	1	10
674.350	1	9
674.689	1	-2
675.028	1	-1
675.367	1	-2
675.705	1	6
676.044	1	11
676.383	1	-4
676.722	1	12
677.060	1	-6
677.399	1	1
677.738	1	-3
678.077	1	9
678.416	1	-2
678.754	1	2
679.093	1	4
679.432	1	2
679.771	1	-3
680.109	1	-6
680.448	1	-1
680.787	1	-2
681.125	1	6
681.464	1	-3
681.803	1	5
682.142	1	-3
682.480	1	-3
682.819	1	6
683.158	1	-5
683.496	1	3
683.835	1	1
684.174	1	0
684.512	1	-2
684.851	1	-3
685.190	1	8
685.529	1	8
685.867	1	6
686.206	1	11
686.545	1	15
686.883	1	6
687.222	1	6
687.561	1	3
687.899	1	3
688.238	1	-1
688.577	1	8
688.746	1	-9