File: Data/GaN_170K_550ms/GaN_sample D_spot 18_UVVIS_170 K_200um_550 ms 2x2mm1_332.txt
340.368	1	2
340.710	1	-5
341.052	1	1
341.394	1	5
341.737	1	-7
342.079	1	4
342.421	1	1
342.763	1	-10
343.105	1	3
343.447	1	-11
343.789	1	5
344.131	1	-1
344.473	1	8
344.815	1	10
345.157	1	-3
345.499	1	-5
345.841	1	4
346.183	1	-5
346.526	1	7
346.868	1	9
347.210	1	-6
347.552	1	2
347.894	1	3
348.236	1	-4
348.578	1	-2
348.920	1	-9
349.262	1	3
349.604	1	9
349.946	1	4
350.288	1	-3
350.630	1	6
350.972	1	-9
351.314	1	3
351.656	1	-1
351.998	1	10
352.340	1	5
352.682	1	4
353.024	1	5
353.366	1	1
353.708	1	12
354.050	1	0
354.392	1	4
354.734	1	5
355.076	1	-3
355.418	1	-9
355.760	1	3
356.102	1	10
356.444	1	-9
356.785	1	0
357.127	1	-6
357.469	1	-12
357.811	1	1
358.153	1	8
358.495	1	-12
358.837	1	4
359.179	1	-3
359.521	1	3
359.863	1	-9
360.205	1	10
360.547	1	11
360.889	1	14
361.231	1	4
361.572	1	12
361.914	1	4
362.256	1	3
362.598	1	-1
362.940	1	16
363.282	1	9
363.624	1	15
363.966	1	7
364.308	1	7
364.649	1	5
364.991	1	9
365.333	1	15
365.675	1	17
366.017	1	3
366.359	1	4
366.701	1	5
367.042	1	-2
367.384	1	10
367.726	1	23
368.068	1	4
368.410	1	14
368.752	1	11
369.093	1	-5
369.435	1	3
369.777	1	8
370.119	1	2
370.461	1	6
370.803	1	3
371.144	1	2
371.486	1	-3
371.828	1	15
372.170	1	1
372.512	1	1
372.853	1	12
373.195	1	7
373.537	1	14
373.879	1	5
374.220	1	6
374.562	1	1
374.904	1	2
375.246	1	0
375.588	1	0
375.929	1	6
376.271	1	10
376.613	1	0
376.955	1	10
377.296	1	-4
377.638	1	2
377.980	1	-6
378.321	1	-1
378.663	1	1
379.005	1	0
379.347	1	-6
379.688	1	-2
380.030	1	7
380.372	1	-3
380.714	1	11
381.055	1	-3
381.397	1	3
381.739	1	-4
382.080	1	0
382.422	1	0
382.764	1	2
383.105	1	8
383.447	1	20
383.789	1	7
384.130	1	1
384.472	1	-4
384.814	1	6
385.156	1	0
385.497	1	3
385.839	1	1
386.180	1	7
386.522	1	8
386.864	1	0
387.205	1	-5
387.547	1	1
387.889	1	6
388.230	1	-6
388.572	1	1
388.914	1	-2
389.255	1	10
389.597	1	2
389.939	1	-3
390.280	1	3
390.622	1	2
390.963	1	1
391.305	1	3
391.647	1	-5
391.988	1	5
392.330	1	7
392.671	1	-2
393.013	1	-1
393.355	1	6
393.696	1	5
394.038	1	0
394.379	1	4
394.721	1	-2
395.062	1	2
395.404	1	5
395.746	1	3
396.087	1	0
396.429	1	5
396.770	1	0
397.112	1	2
397.453	1	6
397.795	1	-3
398.136	1	-7
398.478	1	4
398.819	1	-2
399.161	1	-8
399.503	1	3
399.844	1	-5
400.186	1	-9
400.527	1	13
400.869	1	4
401.210	1	3
401.552	1	7
401.893	1	1
402.235	1	11
402.576	1	0
402.918	1	-2
403.259	1	7
403.601	1	5
403.942	1	4
404.284	1	-7
404.625	1	4
404.967	1	1
405.308	1	-3
405.649	1	7
405.991	1	7
406.332	1	-6
406.674	1	3
407.015	1	10
407.357	1	2
407.698	1	0
408.040	1	2
408.381	1	2
408.722	1	-12
409.064	1	-2
409.405	1	-2
409.747	1	0
410.088	1	12
410.430	1	-1
410.771	1	7
411.112	1	-4
411.454	1	-5
411.795	1	5
412.137	1	2
412.478	1	-2
412.819	1	-15
413.161	1	5
413.502	1	-6
413.844	1	12
414.185	1	-3
414.526	1	8
414.868	1	-7
415.209	1	-10
415.550	1	6
415.892	1	0
416.233	1	3
416.575	1	-1
416.916	1	-1
417.257	1	-4
417.599	1	1
417.940	1	-3
418.281	1	-1
418.623	1	1
418.964	1	-4
419.305	1	5
419.647	1	6
419.988	1	11
420.329	1	8
420.671	1	-4
421.012	1	6
421.353	1	0
421.695	1	-5
422.036	1	8
422.377	1	13
422.718	1	7
423.060	1	-5
423.401	1	-1
423.742	1	1
424.084	1	15
424.425	1	-10
424.766	1	-3
425.107	1	-2
425.449	1	2
425.790	1	0
426.131	1	6
426.472	1	6
426.814	1	-2
427.155	1	7
427.496	1	-4
427.837	1	-2
428.179	1	1
428.520	1	3
428.861	1	13
429.202	1	-5
429.544	1	-6
429.885	1	1
430.226	1	4
430.567	1	2
430.909	1	-3
431.250	1	5
431.591	1	-7
431.932	1	-9
432.273	1	-3
432.615	1	-10
432.956	1	3
433.297	1	-8
433.638	1	11
433.979	1	2
434.320	1	2
434.662	1	-8
435.003	1	0
435.344	1	2
435.685	1	-5
436.026	1	-3
436.368	1	5
436.709	1	-5
437.050	1	-4
437.391	1	-8
437.732	1	-1
438.073	1	3
438.414	1	-5
438.756	1	1
439.097	1	1
439.438	1	-3
439.779	1	6
440.120	1	-4
440.461	1	12
440.802	1	9
441.143	1	2
441.485	1	-8
441.826	1	3
442.167	1	1
442.508	1	-3
442.849	1	-1
443.190	1	0
443.531	1	6
443.872	1	0
444.213	1	0
444.554	1	-3
444.895	1	-7
445.237	1	-14
445.578	1	2
445.919	1	5
446.260	1	2
446.601	1	-1
446.942	1	2
447.283	1	9
447.624	1	-5
447.965	1	-5
448.306	1	-6
448.647	1	3
448.988	1	12
449.329	1	8
449.670	1	-6
450.011	1	-1
450.352	1	1
450.693	1	-12
451.034	1	-8
451.375	1	5
451.716	1	9
452.057	1	-3
452.398	1	6
452.739	1	6
453.080	1	-1
453.421	1	5
453.762	1	-8
454.103	1	-10
454.444	1	-6
454.785	1	-4
455.126	1	3
455.467	1	-6
455.808	1	4
456.149	1	3
456.490	1	3
456.831	1	0
457.172	1	-6
457.513	1	1
457.854	1	13
458.195	1	1
458.536	1	-3
458.877	1	2
459.218	1	-4
459.559	1	3
459.899	1	-6
460.240	1	1
460.581	1	8
460.922	1	-2
461.263	1	-6
461.604	1	6
461.945	1	8
462.286	1	-4
462.627	1	-1
462.968	1	5
463.309	1	4
463.649	1	-1
463.990	1	8
464.331	1	2
464.672	1	-9
465.013	1	3
465.354	1	-8
465.695	1	-2
466.036	1	-7
466.376	1	-6
466.717	1	-11
467.058	1	6
467.399	1	12
467.740	1	0
468.081	1	-6
468.422	1	8
468.762	1	9
469.103	1	8
469.444	1	3
469.785	1	-3
470.126	1	2
470.467	1	3
470.807	1	1
471.148	1	0
471.489	1	4
471.830	1	-9
472.171	1	6
472.511	1	-5
472.852	1	4
473.193	1	3
473.534	1	-1
473.875	1	0
474.215	1	-1
474.556	1	3
474.897	1	2
475.238	1	-9
475.578	1	4
475.919	1	-4
476.260	1	4
476.601	1	2
476.942	1	-5
477.282	1	11
477.623	1	10
477.964	1	6
478.305	1	-7
478.645	1	5
478.986	1	-1
479.327	1	-6
479.667	1	-4
480.008	1	5
480.349	1	8
480.690	1	1
481.030	1	0
481.371	1	4
481.712	1	4
482.053	1	-13
482.393	1	-5
482.734	1	9
483.075	1	7
483.415	1	5
483.756	1	5
484.097	1	-12
484.437	1	3
484.778	1	-15
485.119	1	4
485.459	1	-3
485.800	1	3
486.141	1	18
486.481	1	-1
486.822	1	5
487.163	1	1
487.503	1	8
487.844	1	0
488.185	1	3
488.525	1	1
488.866	1	3
489.207	1	8
489.547	1	16
489.888	1	4
490.228	1	-2
490.569	1	5
490.910	1	-3
491.250	1	0
491.591	1	3
491.932	1	8
492.272	1	8
492.613	1	6
492.953	1	-3
493.294	1	-7
493.635	1	-6
493.975	1	10
494.316	1	1
494.656	1	-1
494.997	1	1
495.337	1	3
495.678	1	2
496.019	1	-14
496.359	1	7
496.700	1	12
497.040	1	1
497.381	1	-6
497.721	1	-2
498.062	1	0
498.403	1	3
498.743	1	-1
499.084	1	7
499.424	1	7
499.765	1	-7
500.105	1	3
500.446	1	-1
500.786	1	-5
501.127	1	5
501.467	1	1
501.808	1	2
502.148	1	10
502.489	1	0
502.829	1	4
503.170	1	8
503.510	1	-2
503.851	1	5
504.191	1	-1
504.532	1	-8
504.872	1	-3
505.213	1	-6
505.553	1	-5
505.894	1	6
506.234	1	-6
506.575	1	4
506.915	1	12
507.256	1	0
507.596	1	13
507.936	1	6
508.277	1	-5
508.617	1	5
508.958	1	3
509.298	1	0
509.639	1	0
509.979	1	-3
510.319	1	-7
510.660	1	-8
511.000	1	3
511.341	1	0
511.681	1	-1
512.022	1	-1
512.362	1	-14
512.702	1	-8
513.043	1	4
513.383	1	10
513.724	1	-8
514.064	1	9
514.404	1	0
514.745	1	-6
515.085	1	3
515.425	1	4
515.766	1	7
516.106	1	7
516.447	1	-6
516.787	1	4
517.127	1	4
517.468	1	-2
517.808	1	-1
518.148	1	-5
518.489	1	11
518.829	1	1
519.169	1	1
519.510	1	8
519.850	1	-5
520.190	1	-4
520.531	1	4
520.871	1	-3
521.211	1	1
521.552	1	4
521.892	1	-3
522.232	1	-7
522.573	1	9
522.913	1	4
523.253	1	12
523.593	1	7
523.934	1	2
524.274	1	-2
524.614	1	-1
524.955	1	4
525.295	1	-2
525.635	1	0
525.975	1	-1
526.316	1	10
526.656	1	10
526.996	1	-1
527.337	1	-4
527.677	1	-8
528.017	1	-5
528.357	1	3
528.698	1	-17
529.038	1	-1
529.378	1	2
529.718	1	1
530.058	1	12
530.399	1	7
530.739	1	-4
531.079	1	5
531.419	1	2
531.760	1	2
532.100	1	-3
532.440	1	-1
532.780	1	-12
533.120	1	6
533.461	1	-1
533.801	1	7
534.141	1	-8
534.481	1	5
534.821	1	2
535.162	1	4
535.502	1	5
535.842	1	3
536.182	1	5
536.522	1	12
536.862	1	11
537.203	1	2
537.543	1	1
537.883	1	13
538.223	1	-5
538.563	1	8
538.903	1	7
539.243	1	-6
539.584	1	1
539.924	1	-4
540.264	1	6
540.604	1	-1
540.944	1	2
541.284	1	4
541.624	1	-4
541.964	1	-6
542.305	1	3
542.645	1	-1
542.985	1	4
543.325	1	-7
543.665	1	2
544.005	1	15
544.345	1	3
544.685	1	6
545.025	1	-2
545.365	1	1
545.705	1	6
546.045	1	1
546.386	1	3
546.726	1	1
547.066	1	12
547.406	1	-1
547.746	1	-3
548.086	1	8
548.426	1	10
548.766	1	8
549.106	1	-1
549.446	1	6
549.786	1	0
550.126	1	-1
550.466	1	2
550.806	1	1
551.146	1	9
551.486	1	1
551.826	1	4
552.166	1	5
552.506	1	6
552.846	1	5
553.186	1	7
553.526	1	-2
553.866	1	-4
554.206	1	-6
554.546	1	-4
554.886	1	-5
555.226	1	-6
555.566	1	5
555.906	1	-3
556.246	1	7
556.586	1	-3
556.926	1	3
557.266	1	6
557.606	1	13
557.946	1	5
558.286	1	-5
558.626	1	3
558.966	1	2
559.306	1	9
559.646	1	-3
559.986	1	7
560.325	1	-6
560.665	1	-3
561.005	1	3
561.345	1	0
561.685	1	-5
562.025	1	-8
562.365	1	1
562.705	1	5
563.045	1	3
563.385	1	6
563.725	1	-4
564.064	1	-1
564.404	1	-5
564.744	1	6
565.084	1	2
565.424	1	3
565.764	1	4
566.104	1	2
566.444	1	9
566.783	1	7
567.123	1	-1
567.463	1	-1
567.803	1	-3
568.143	1	2
568.483	1	0
568.823	1	2
569.162	1	2
569.502	1	4
569.842	1	-2
570.182	1	-3
570.522	1	3
570.862	1	-2
571.201	1	4
571.541	1	-2
571.881	1	0
572.221	1	5
572.561	1	-7
572.900	1	1
573.240	1	7
573.580	1	6
573.920	1	6
574.260	1	-6
574.599	1	3
574.939	1	-8
575.279	1	-5
575.619	1	6
575.959	1	-7
576.298	1	4
576.638	1	2
576.978	1	0
577.318	1	-4
577.657	1	1
577.997	1	-5
578.337	1	2
578.677	1	11
579.016	1	6
579.356	1	-2
579.696	1	-6
580.036	1	4
580.375	1	7
580.715	1	3
581.055	1	9
581.394	1	4
581.734	1	5
582.074	1	8
582.414	1	-1
582.753	1	-2
583.093	1	9
583.433	1	4
583.772	1	1
584.112	1	5
584.452	1	-12
584.791	1	3
585.131	1	12
585.471	1	1
585.811	1	-3
586.150	1	-1
586.490	1	11
586.830	1	-1
587.169	1	15
587.509	1	-3
587.849	1	-1
588.188	1	5
588.528	1	-2
588.867	1	-2
589.207	1	-3
589.547	1	4
589.886	1	-6
590.226	1	0
590.566	1	-7
590.905	1	11
591.245	1	3
591.585	1	-2
591.924	1	-1
592.264	1	-12
592.603	1	-5
592.943	1	4
593.283	1	-8
593.622	1	-2
593.962	1	-3
594.301	1	8
594.641	1	-2
594.981	1	7
595.320	1	-5
595.660	1	0
595.999	1	-2
596.339	1	6
596.678	1	-16
597.018	1	-8
597.358	1	-9
597.697	1	-3
598.037	1	8
598.376	1	-3
598.716	1	0
599.055	1	3
599.395	1	-5
599.734	1	14
600.074	1	2
600.413	1	-4
600.753	1	9
601.092	1	3
601.432	1	-6
601.771	1	13
602.111	1	1
602.451	1	6
602.790	1	10
603.130	1	-3
603.469	1	6
603.809	1	4
604.148	1	2
604.487	1	8
604.827	1	1
605.166	1	10
605.506	1	-10
605.845	1	8
606.185	1	9
606.524	1	-6
606.864	1	4
607.203	1	-4
607.543	1	1
607.882	1	-3
608.222	1	-1
608.561	1	5
608.901	1	6
609.240	1	2
609.579	1	0
609.919	1	1
610.258	1	2
610.598	1	-3
610.937	1	6
611.277	1	2
611.616	1	3
611.955	1	4
612.295	1	3
612.634	1	-4
612.974	1	1
613.313	1	1
613.652	1	9
613.992	1	7
614.331	1	0
614.671	1	6
615.010	1	-6
615.349	1	5
615.689	1	8
616.028	1	1
616.368	1	-6
616.707	1	-2
617.046	1	-9
617.386	1	-1
617.725	1	-1
618.064	1	-6
618.404	1	0
618.743	1	7
619.082	1	6
619.422	1	0
619.761	1	-6
620.100	1	-2
620.440	1	-2
620.779	1	-3
621.118	1	-6
621.458	1	2
621.797	1	1
622.136	1	-2
622.476	1	-5
622.815	1	11
623.154	1	-2
623.494	1	-7
623.833	1	3
624.172	1	-4
624.511	1	10
624.851	1	-4
625.190	1	7
625.529	1	-1
625.869	1	11
626.208	1	4
626.547	1	-8
626.886	1	-4
627.226	1	8
627.565	1	8
627.904	1	4
628.243	1	-3
628.583	1	-2
628.922	1	-6
629.261	1	1
629.600	1	2
629.940	1	-7
630.279	1	1
630.618	1	2
630.957	1	1
631.297	1	-4
631.636	1	16
631.975	1	-8
632.314	1	1
632.653	1	6
632.993	1	1
633.332	1	6
633.671	1	14
634.010	1	-2
634.349	1	-3
634.689	1	10
635.028	1	-1
635.367	1	-5
635.706	1	-3
636.045	1	3
636.384	1	-8
636.724	1	3
637.063	1	-1
637.402	1	3
637.741	1	-2
638.080	1	0
638.419	1	-1
638.759	1	4
639.098	1	-5
639.437	1	-2
639.776	1	1
640.115	1	8
640.454	1	6
640.793	1	0
641.132	1	-2
641.472	1	-4
641.811	1	5
642.150	1	-4
642.489	1	-9
642.828	1	5
643.167	1	-6
643.506	1	6
643.845	1	3
644.184	1	15
644.524	1	0
644.863	1	-17
645.202	1	5
645.541	1	9
645.880	1	4
646.219	1	-1
646.558	1	1
646.897	1	8
647.236	1	0
647.575	1	-1
647.914	1	-2
648.253	1	0
648.592	1	2
648.931	1	9
649.270	1	-4
649.610	1	2
649.949	1	-10
650.288	1	3
650.627	1	-3
650.966	1	4
651.305	1	-3
651.644	1	4
651.983	1	10
652.322	1	1
652.661	1	4
653.000	1	-4
653.339	1	-12
653.678	1	2
654.017	1	-1
654.356	1	6
654.695	1	-1
655.034	1	-3
655.373	1	4
655.712	1	-10
656.051	1	1
656.390	1	-7
656.729	1	-6
657.068	1	4
657.406	1	-1
657.745	1	8
658.084	1	-11
658.423	1	3
658.762	1	-1
659.101	1	1
659.440	1	4
659.779	1	-3
660.118	1	6
660.457	1	10
660.796	1	9
661.135	1	-8
661.474	1	3
661.813	1	1
662.152	1	6
662.491	1	-12
662.829	1	0
663.168	1	-9
663.507	1	-4
663.846	1	5
664.185	1	2
664.524	1	10
664.863	1	-3
665.202	1	17
665.541	1	2
665.879	1	12
666.218	1	3
666.557	1	4
666.896	1	-1
667.235	1	7
667.574	1	-12
667.913	1	0
668.251	1	4
668.590	1	1
668.929	1	7
669.268	1	1
669.607	1	-2
669.946	1	3
670.285	1	13
670.623	1	3
670.962	1	1
671.301	1	1
671.640	1	2
671.979	1	0
672.317	1	2
672.656	1	-3
672.995	1	-7
673.334	1	1
673.673	1	1
674.011	1	17
674.350	1	4
674.689	1	-1
675.028	1	-2
675.367	1	6
675.705	1	0
676.044	1	8
676.383	1	-7
676.722	1	3
677.060	1	-1
677.399	1	3
677.738	1	-1
678.077	1	14
678.416	1	-13
678.754	1	3
679.093	1	-1
679.432	1	3
679.771	1	3
680.109	1	-7
680.448	1	0
680.787	1	-5
681.125	1	4
681.464	1	12
681.803	1	8
682.142	1	-8
682.480	1	4
682.819	1	8
683.158	1	-8
683.496	1	5
683.835	1	-11
684.174	1	-8
684.512	1	3
684.851	1	-1
685.190	1	-2
685.529	1	9
685.867	1	9
686.206	1	5
686.545	1	2
686.883	1	-2
687.222	1	5
687.561	1	6
687.899	1	-8
688.238	1	-6
688.577	1	3
688.746	1	-4