File: Data/GaN_170K_550ms/GaN_sample D_spot 18_UVVIS_170 K_200um_550 ms 2x2mm1_59.txt
340.368	1	-5
340.710	1	-12
341.052	1	13
341.394	1	12
341.737	1	-4
342.079	1	6
342.421	1	8
342.763	1	5
343.105	1	9
343.447	1	-1
343.789	1	18
344.131	1	1
344.473	1	5
344.815	1	14
345.157	1	-2
345.499	1	1
345.841	1	9
346.183	1	8
346.526	1	13
346.868	1	13
347.210	1	5
347.552	1	18
347.894	1	12
348.236	1	2
348.578	1	17
348.920	1	7
349.262	1	8
349.604	1	21
349.946	1	10
350.288	1	9
350.630	1	22
350.972	1	6
351.314	1	19
351.656	1	9
351.998	1	20
352.340	1	15
352.682	1	16
353.024	1	22
353.366	1	14
353.708	1	22
354.050	1	9
354.392	1	25
354.734	1	18
355.076	1	24
355.418	1	9
355.760	1	26
356.102	1	33
356.444	1	26
356.785	1	25
357.127	1	30
357.469	1	33
357.811	1	33
358.153	1	48
358.495	1	56
358.837	1	56
359.179	1	52
359.521	1	67
359.863	1	64
360.205	1	86
360.547	1	90
360.889	1	96
361.231	1	113
361.572	1	117
361.914	1	125
362.256	1	148
362.598	1	182
362.940	1	203
363.282	1	228
363.624	1	253
363.966	1	278
364.308	1	311
364.649	1	362
364.991	1	410
365.333	1	452
365.675	1	530
366.017	1	578
366.359	1	643
366.701	1	713
367.042	1	774
367.384	1	815
367.726	1	855
368.068	1	871
368.410	1	914
368.752	1	914
369.093	1	888
369.435	1	859
369.777	1	849
370.119	1	802
370.461	1	783
370.803	1	707
371.144	1	644
371.486	1	613
371.828	1	584
372.170	1	555
372.512	1	495
372.853	1	495
373.195	1	447
373.537	1	441
373.879	1	415
374.220	1	373
374.562	1	364
374.904	1	339
375.246	1	321
375.588	1	306
375.929	1	284
376.271	1	269
376.613	1	252
376.955	1	248
377.296	1	217
377.638	1	217
377.980	1	197
378.321	1	188
378.663	1	173
379.005	1	165
379.347	1	163
379.688	1	149
380.030	1	153
380.372	1	138
380.714	1	132
381.055	1	128
381.397	1	126
381.739	1	122
382.080	1	105
382.422	1	103
382.764	1	103
383.105	1	102
383.447	1	105
383.789	1	107
384.130	1	99
384.472	1	92
384.814	1	107
385.156	1	80
385.497	1	98
385.839	1	84
386.180	1	84
386.522	1	77
386.864	1	70
387.205	1	68
387.547	1	69
387.889	1	67
388.230	1	60
388.572	1	69
388.914	1	54
389.255	1	69
389.597	1	56
389.939	1	63
390.280	1	57
390.622	1	53
390.963	1	44
391.305	1	51
391.647	1	38
391.988	1	53
392.330	1	56
392.671	1	34
393.013	1	41
393.355	1	49
393.696	1	50
394.038	1	30
394.379	1	35
394.721	1	39
395.062	1	32
395.404	1	45
395.746	1	39
396.087	1	34
396.429	1	39
396.770	1	51
397.112	1	37
397.453	1	36
397.795	1	31
398.136	1	32
398.478	1	38
398.819	1	35
399.161	1	25
399.503	1	30
399.844	1	20
400.186	1	24
400.527	1	43
400.869	1	22
401.210	1	36
401.552	1	30
401.893	1	26
402.235	1	33
402.576	1	14
402.918	1	18
403.259	1	28
403.601	1	23
403.942	1	25
404.284	1	7
404.625	1	19
404.967	1	23
405.308	1	18
405.649	1	22
405.991	1	23
406.332	1	11
406.674	1	16
407.015	1	25
407.357	1	21
407.698	1	15
408.040	1	18
408.381	1	12
408.722	1	11
409.064	1	23
409.405	1	8
409.747	1	15
410.088	1	25
410.430	1	17
410.771	1	19
411.112	1	18
411.454	1	21
411.795	1	23
412.137	1	10
412.478	1	4
412.819	1	8
413.161	1	23
413.502	1	14
413.844	1	20
414.185	1	11
414.526	1	15
414.868	1	8
415.209	1	-4
415.550	1	19
415.892	1	12
416.233	1	22
416.575	1	11
416.916	1	7
417.257	1	13
417.599	1	24
417.940	1	20
418.281	1	0
418.623	1	10
418.964	1	1
419.305	1	10
419.647	1	16
419.988	1	17
420.329	1	18
420.671	1	6
421.012	1	9
421.353	1	14
421.695	1	10
422.036	1	15
422.377	1	16
422.718	1	16
423.060	1	7
423.401	1	16
423.742	1	14
424.084	1	25
424.425	1	5
424.766	1	4
425.107	1	12
425.449	1	16
425.790	1	8
426.131	1	18
426.472	1	7
426.814	1	3
427.155	1	19
427.496	1	-8
427.837	1	19
428.179	1	11
428.520	1	15
428.861	1	18
429.202	1	4
429.544	1	9
429.885	1	14
430.226	1	12
430.567	1	9
430.909	1	10
431.250	1	15
431.591	1	5
431.932	1	11
432.273	1	10
432.615	1	10
432.956	1	17
433.297	1	11
433.638	1	20
433.979	1	6
434.320	1	18
434.662	1	-4
435.003	1	19
435.344	1	1
435.685	1	5
436.026	1	9
436.368	1	6
436.709	1	8
437.050	1	6
437.391	1	7
437.732	1	9
438.073	1	12
438.414	1	6
438.756	1	6
439.097	1	14
439.438	1	11
439.779	1	24
440.120	1	7
440.461	1	19
440.802	1	22
441.143	1	-2
441.485	1	0
441.826	1	6
442.167	1	21
442.508	1	-4
442.849	1	4
443.190	1	15
443.531	1	10
443.872	1	7
444.213	1	2
444.554	1	5
444.895	1	-1
445.237	1	-3
445.578	1	17
445.919	1	12
446.260	1	16
446.601	1	4
446.942	1	9
447.283	1	13
447.624	1	15
447.965	1	3
448.306	1	9
448.647	1	8
448.988	1	11
449.329	1	10
449.670	1	8
450.011	1	18
450.352	1	-6
450.693	1	0
451.034	1	5
451.375	1	5
451.716	1	16
452.057	1	4
452.398	1	13
452.739	1	12
453.080	1	-4
453.421	1	9
453.762	1	3
454.103	1	10
454.444	1	6
454.785	1	6
455.126	1	17
455.467	1	3
455.808	1	22
456.149	1	4
456.490	1	4
456.831	1	4
457.172	1	6
457.513	1	23
457.854	1	10
458.195	1	7
458.536	1	-3
458.877	1	9
459.218	1	5
459.559	1	6
459.899	1	9
460.240	1	13
460.581	1	9
460.922	1	11
461.263	1	4
461.604	1	7
461.945	1	10
462.286	1	5
462.627	1	16
462.968	1	24
463.309	1	9
463.649	1	13
463.990	1	5
464.331	1	10
464.672	1	16
465.013	1	18
465.354	1	6
465.695	1	13
466.036	1	0
466.376	1	14
466.717	1	5
467.058	1	15
467.399	1	19
467.740	1	16
468.081	1	6
468.422	1	2
468.762	1	16
469.103	1	18
469.444	1	19
469.785	1	11
470.126	1	19
470.467	1	10
470.807	1	15
471.148	1	6
471.489	1	13
471.830	1	7
472.171	1	17
472.511	1	8
472.852	1	9
473.193	1	22
473.534	1	17
473.875	1	9
474.215	1	12
474.556	1	19
474.897	1	12
475.238	1	8
475.578	1	6
475.919	1	17
476.260	1	29
476.601	1	9
476.942	1	13
477.282	1	28
477.623	1	15
477.964	1	17
478.305	1	14
478.645	1	19
478.986	1	8
479.327	1	0
479.667	1	14
480.008	1	21
480.349	1	19
480.690	1	16
481.030	1	14
481.371	1	14
481.712	1	17
482.053	1	19
482.393	1	12
482.734	1	28
483.075	1	20
483.415	1	22
483.756	1	24
484.097	1	14
484.437	1	19
484.778	1	10
485.119	1	24
485.459	1	21
485.800	1	14
486.141	1	33
486.481	1	31
486.822	1	15
487.163	1	26
487.503	1	21
487.844	1	26
488.185	1	34
488.525	1	31
488.866	1	36
489.207	1	37
489.547	1	33
489.888	1	33
490.228	1	33
490.569	1	35
490.910	1	46
491.250	1	42
491.591	1	27
491.932	1	43
492.272	1	38
492.613	1	40
492.953	1	37
493.294	1	35
493.635	1	36
493.975	1	37
494.316	1	45
494.656	1	40
494.997	1	42
495.337	1	43
495.678	1	47
496.019	1	41
496.359	1	49
496.700	1	55
497.040	1	35
497.381	1	55
497.721	1	40
498.062	1	50
498.403	1	50
498.743	1	43
499.084	1	47
499.424	1	54
499.765	1	43
500.105	1	39
500.446	1	49
500.786	1	57
501.127	1	51
501.467	1	61
501.808	1	43
502.148	1	63
502.489	1	70
502.829	1	59
503.170	1	71
503.510	1	60
503.851	1	57
504.191	1	63
504.532	1	58
504.872	1	81
505.213	1	57
505.553	1	70
505.894	1	77
506.234	1	60
506.575	1	70
506.915	1	65
507.256	1	76
507.596	1	67
507.936	1	82
508.277	1	55
508.617	1	80
508.958	1	71
509.298	1	66
509.639	1	70
509.979	1	68
510.319	1	67
510.660	1	66
511.000	1	66
511.341	1	90
511.681	1	72
512.022	1	74
512.362	1	58
512.702	1	73
513.043	1	75
513.383	1	80
513.724	1	88
514.064	1	92
514.404	1	78
514.745	1	69
515.085	1	84
515.425	1	83
515.766	1	89
516.106	1	81
516.447	1	86
516.787	1	92
517.127	1	88
517.468	1	86
517.808	1	94
518.148	1	93
518.489	1	97
518.829	1	96
519.169	1	83
519.510	1	93
519.850	1	79
520.190	1	89
520.531	1	103
520.871	1	80
521.211	1	87
521.552	1	104
521.892	1	90
522.232	1	80
522.573	1	104
522.913	1	108
523.253	1	102
523.593	1	88
523.934	1	87
524.274	1	94
524.614	1	100
524.955	1	90
525.295	1	105
525.635	1	95
525.975	1	94
526.316	1	105
526.656	1	96
526.996	1	98
527.337	1	97
527.677	1	97
528.017	1	111
528.357	1	100
528.698	1	99
529.038	1	95
529.378	1	105
529.718	1	99
530.058	1	96
530.399	1	121
530.739	1	98
531.079	1	109
531.419	1	115
531.760	1	107
532.100	1	110
532.440	1	109
532.780	1	107
533.120	1	113
533.461	1	107
533.801	1	111
534.141	1	101
534.481	1	109
534.821	1	106
535.162	1	106
535.502	1	97
535.842	1	96
536.182	1	98
536.522	1	96
536.862	1	92
537.203	1	95
537.543	1	94
537.883	1	92
538.223	1	90
538.563	1	85
538.903	1	95
539.243	1	82
539.584	1	92
539.924	1	82
540.264	1	98
540.604	1	85
540.944	1	81
541.284	1	80
541.624	1	83
541.964	1	88
542.305	1	90
542.645	1	98
542.985	1	111
543.325	1	93
543.665	1	95
544.005	1	96
544.345	1	93
544.685	1	88
545.025	1	85
545.365	1	89
545.705	1	94
546.045	1	79
546.386	1	77
546.726	1	92
547.066	1	101
547.406	1	97
547.746	1	90
548.086	1	93
548.426	1	97
548.766	1	89
549.106	1	103
549.446	1	93
549.786	1	85
550.126	1	88
550.466	1	94
550.806	1	90
551.146	1	95
551.486	1	85
551.826	1	93
552.166	1	89
552.506	1	100
552.846	1	84
553.186	1	92
553.526	1	67
553.866	1	78
554.206	1	85
554.546	1	74
554.886	1	87
555.226	1	73
555.566	1	84
555.906	1	75
556.246	1	83
556.586	1	77
556.926	1	76
557.266	1	86
557.606	1	82
557.946	1	74
558.286	1	77
558.626	1	83
558.966	1	80
559.306	1	84
559.646	1	72
559.986	1	80
560.325	1	71
560.665	1	79
561.005	1	70
561.345	1	64
561.685	1	72
562.025	1	77
562.365	1	68
562.705	1	70
563.045	1	72
563.385	1	86
563.725	1	60
564.064	1	69
564.404	1	64
564.744	1	65
565.084	1	68
565.424	1	73
565.764	1	66
566.104	1	78
566.444	1	80
566.783	1	63
567.123	1	62
567.463	1	55
567.803	1	63
568.143	1	63
568.483	1	68
568.823	1	57
569.162	1	66
569.502	1	64
569.842	1	58
570.182	1	56
570.522	1	60
570.862	1	56
571.201	1	58
571.541	1	51
571.881	1	57
572.221	1	55
572.561	1	57
572.900	1	47
573.240	1	48
573.580	1	62
573.920	1	65
574.260	1	58
574.599	1	48
574.939	1	51
575.279	1	49
575.619	1	59
575.959	1	41
576.298	1	62
576.638	1	56
576.978	1	61
577.318	1	56
577.657	1	58
577.997	1	53
578.337	1	55
578.677	1	52
579.016	1	51
579.356	1	53
579.696	1	43
580.036	1	51
580.375	1	57
580.715	1	60
581.055	1	55
581.394	1	62
581.734	1	54
582.074	1	58
582.414	1	49
582.753	1	50
583.093	1	55
583.433	1	57
583.772	1	45
584.112	1	45
584.452	1	42
584.791	1	52
585.131	1	57
585.471	1	65
585.811	1	36
586.150	1	33
586.490	1	52
586.830	1	45
587.169	1	56
587.509	1	41
587.849	1	43
588.188	1	39
588.528	1	41
588.867	1	42
589.207	1	43
589.547	1	49
589.886	1	30
590.226	1	29
590.566	1	34
590.905	1	45
591.245	1	39
591.585	1	40
591.924	1	37
592.264	1	35
592.603	1	35
592.943	1	35
593.283	1	41
593.622	1	24
593.962	1	39
594.301	1	51
594.641	1	41
594.981	1	32
595.320	1	32
595.660	1	31
595.999	1	41
596.339	1	39
596.678	1	28
597.018	1	22
597.358	1	24
597.697	1	36
598.037	1	29
598.376	1	28
598.716	1	42
599.055	1	35
599.395	1	34
599.734	1	43
600.074	1	27
600.413	1	28
600.753	1	42
601.092	1	38
601.432	1	24
601.771	1	47
602.111	1	20
602.451	1	47
602.790	1	46
603.130	1	30
603.469	1	31
603.809	1	27
604.148	1	38
604.487	1	46
604.827	1	35
605.166	1	41
605.506	1	27
605.845	1	38
606.185	1	39
606.524	1	34
606.864	1	23
607.203	1	36
607.543	1	46
607.882	1	27
608.222	1	40
608.561	1	36
608.901	1	36
609.240	1	27
609.579	1	35
609.919	1	29
610.258	1	43
610.598	1	36
610.937	1	31
611.277	1	27
611.616	1	26
611.955	1	31
612.295	1	25
612.634	1	12
612.974	1	30
613.313	1	30
613.652	1	39
613.992	1	31
614.331	1	24
614.671	1	41
615.010	1	30
615.349	1	28
615.689	1	32
616.028	1	25
616.368	1	31
616.707	1	29
617.046	1	17
617.386	1	13
617.725	1	15
618.064	1	30
618.404	1	20
618.743	1	19
619.082	1	32
619.422	1	12
619.761	1	18
620.100	1	18
620.440	1	28
620.779	1	18
621.118	1	13
621.458	1	19
621.797	1	24
622.136	1	24
622.476	1	15
622.815	1	32
623.154	1	24
623.494	1	20
623.833	1	24
624.172	1	26
624.511	1	23
624.851	1	7
625.190	1	30
625.529	1	22
625.869	1	36
626.208	1	21
626.547	1	11
626.886	1	25
627.226	1	20
627.565	1	27
627.904	1	17
628.243	1	17
628.583	1	20
628.922	1	13
629.261	1	24
629.600	1	11
629.940	1	19
630.279	1	22
630.618	1	11
630.957	1	26
631.297	1	28
631.636	1	30
631.975	1	11
632.314	1	17
632.653	1	25
632.993	1	16
633.332	1	20
633.671	1	22
634.010	1	19
634.349	1	19
634.689	1	22
635.028	1	24
635.367	1	9
635.706	1	23
636.045	1	29
636.384	1	12
636.724	1	25
637.063	1	17
637.402	1	13
637.741	1	14
638.080	1	19
638.419	1	16
638.759	1	17
639.098	1	14
639.437	1	9
639.776	1	20
640.115	1	18
640.454	1	20
640.793	1	17
641.132	1	20
641.472	1	14
641.811	1	28
642.150	1	11
642.489	1	19
642.828	1	16
643.167	1	15
643.506	1	14
643.845	1	22
644.184	1	21
644.524	1	17
644.863	1	11
645.202	1	23
645.541	1	22
645.880	1	18
646.219	1	16
646.558	1	18
646.897	1	23
647.236	1	16
647.575	1	13
647.914	1	22
648.253	1	11
648.592	1	19
648.931	1	24
649.270	1	9
649.610	1	23
649.949	1	7
650.288	1	17
650.627	1	12
650.966	1	18
651.305	1	11
651.644	1	14
651.983	1	14
652.322	1	13
652.661	1	16
653.000	1	8
653.339	1	7
653.678	1	17
654.017	1	18
654.356	1	23
654.695	1	22
655.034	1	22
655.373	1	20
655.712	1	5
656.051	1	14
656.390	1	2
656.729	1	15
657.068	1	11
657.406	1	15
657.745	1	21
658.084	1	5
658.423	1	14
658.762	1	3
659.101	1	12
659.440	1	12
659.779	1	17
660.118	1	18
660.457	1	17
660.796	1	10
661.135	1	6
661.474	1	20
661.813	1	12
662.152	1	10
662.491	1	10
662.829	1	4
663.168	1	25
663.507	1	10
663.846	1	18
664.185	1	19
664.524	1	16
664.863	1	15
665.202	1	16
665.541	1	6
665.879	1	12
666.218	1	26
666.557	1	15
666.896	1	15
667.235	1	8
667.574	1	1
667.913	1	-1
668.251	1	7
668.590	1	12
668.929	1	17
669.268	1	16
669.607	1	22
669.946	1	16
670.285	1	26
670.623	1	10
670.962	1	11
671.301	1	14
671.640	1	15
671.979	1	12
672.317	1	20
672.656	1	15
672.995	1	9
673.334	1	12
673.673	1	14
674.011	1	17
674.350	1	14
674.689	1	14
675.028	1	8
675.367	1	5
675.705	1	17
676.044	1	21
676.383	1	24
676.722	1	22
677.060	1	6
677.399	1	18
677.738	1	11
678.077	1	18
678.416	1	6
678.754	1	20
679.093	1	13
679.432	1	18
679.771	1	18
680.109	1	12
680.448	1	21
680.787	1	10
681.125	1	25
681.464	1	22
681.803	1	14
682.142	1	14
682.480	1	18
682.819	1	22
683.158	1	5
683.496	1	12
683.835	1	7
684.174	1	20
684.512	1	11
684.851	1	12
685.190	1	4
685.529	1	11
685.867	1	19
686.206	1	6
686.545	1	18
686.883	1	12
687.222	1	10
687.561	1	11
687.899	1	9
688.238	1	11
688.577	1	23
688.746	1	12