File: Data/GaN_170K_550ms/GaN_sample D_spot 18_UVVIS_170 K_200um_550 ms 2x2mm1_55.txt
340.368	1	4
340.710	1	-9
341.052	1	20
341.394	1	6
341.737	1	4
342.079	1	6
342.421	1	14
342.763	1	10
343.105	1	13
343.447	1	-8
343.789	1	4
344.131	1	0
344.473	1	8
344.815	1	8
345.157	1	-3
345.499	1	8
345.841	1	13
346.183	1	22
346.526	1	15
346.868	1	17
347.210	1	7
347.552	1	20
347.894	1	7
348.236	1	15
348.578	1	10
348.920	1	12
349.262	1	19
349.604	1	25
349.946	1	13
350.288	1	7
350.630	1	22
350.972	1	7
351.314	1	19
351.656	1	13
351.998	1	18
352.340	1	26
352.682	1	24
353.024	1	21
353.366	1	32
353.708	1	30
354.050	1	21
354.392	1	30
354.734	1	25
355.076	1	33
355.418	1	32
355.760	1	22
356.102	1	44
356.444	1	38
356.785	1	45
357.127	1	43
357.469	1	47
357.811	1	55
358.153	1	63
358.495	1	72
358.837	1	79
359.179	1	72
359.521	1	96
359.863	1	101
360.205	1	124
360.547	1	136
360.889	1	141
361.231	1	160
361.572	1	186
361.914	1	211
362.256	1	220
362.598	1	267
362.940	1	324
363.282	1	365
363.624	1	429
363.966	1	494
364.308	1	576
364.649	1	644
364.991	1	778
365.333	1	863
365.675	1	1012
366.017	1	1155
366.359	1	1314
366.701	1	1469
367.042	1	1598
367.384	1	1770
367.726	1	1903
368.068	1	2000
368.410	1	2035
368.752	1	2086
369.093	1	2056
369.435	1	2004
369.777	1	1949
370.119	1	1827
370.461	1	1729
370.803	1	1593
371.144	1	1461
371.486	1	1370
371.828	1	1257
372.170	1	1132
372.512	1	1071
372.853	1	1019
373.195	1	924
373.537	1	892
373.879	1	829
374.220	1	793
374.562	1	743
374.904	1	680
375.246	1	658
375.588	1	620
375.929	1	573
376.271	1	551
376.613	1	496
376.955	1	494
377.296	1	446
377.638	1	411
377.980	1	379
378.321	1	378
378.663	1	353
379.005	1	320
379.347	1	303
379.688	1	288
380.030	1	282
380.372	1	267
380.714	1	264
381.055	1	245
381.397	1	241
381.739	1	226
382.080	1	226
382.422	1	225
382.764	1	216
383.105	1	237
383.447	1	231
383.789	1	233
384.130	1	215
384.472	1	220
384.814	1	236
385.156	1	220
385.497	1	223
385.839	1	193
386.180	1	213
386.522	1	196
386.864	1	199
387.205	1	171
387.547	1	192
387.889	1	165
388.230	1	151
388.572	1	156
388.914	1	165
389.255	1	161
389.597	1	153
389.939	1	150
390.280	1	149
390.622	1	131
390.963	1	142
391.305	1	134
391.647	1	142
391.988	1	145
392.330	1	126
392.671	1	124
393.013	1	115
393.355	1	131
393.696	1	122
394.038	1	114
394.379	1	103
394.721	1	102
395.062	1	102
395.404	1	121
395.746	1	123
396.087	1	119
396.429	1	113
396.770	1	121
397.112	1	110
397.453	1	123
397.795	1	112
398.136	1	115
398.478	1	113
398.819	1	109
399.161	1	98
399.503	1	108
399.844	1	97
400.186	1	88
400.527	1	99
400.869	1	85
401.210	1	86
401.552	1	84
401.893	1	84
402.235	1	91
402.576	1	81
402.918	1	73
403.259	1	75
403.601	1	79
403.942	1	75
404.284	1	73
404.625	1	76
404.967	1	67
405.308	1	74
405.649	1	73
405.991	1	74
406.332	1	53
406.674	1	74
407.015	1	73
407.357	1	66
407.698	1	56
408.040	1	68
408.381	1	59
408.722	1	51
409.064	1	62
409.405	1	60
409.747	1	67
410.088	1	68
410.430	1	60
410.771	1	64
411.112	1	63
411.454	1	53
411.795	1	67
412.137	1	43
412.478	1	48
412.819	1	48
413.161	1	53
413.502	1	46
413.844	1	43
414.185	1	45
414.526	1	63
414.868	1	39
415.209	1	35
415.550	1	41
415.892	1	48
416.233	1	45
416.575	1	41
416.916	1	43
417.257	1	42
417.599	1	47
417.940	1	51
418.281	1	37
418.623	1	47
418.964	1	37
419.305	1	53
419.647	1	56
419.988	1	41
420.329	1	51
420.671	1	37
421.012	1	44
421.353	1	40
421.695	1	33
422.036	1	37
422.377	1	43
422.718	1	46
423.060	1	36
423.401	1	39
423.742	1	43
424.084	1	50
424.425	1	32
424.766	1	40
425.107	1	39
425.449	1	37
425.790	1	35
426.131	1	42
426.472	1	39
426.814	1	26
427.155	1	43
427.496	1	34
427.837	1	39
428.179	1	57
428.520	1	38
428.861	1	36
429.202	1	32
429.544	1	27
429.885	1	37
430.226	1	33
430.567	1	39
430.909	1	38
431.250	1	47
431.591	1	34
431.932	1	25
432.273	1	27
432.615	1	31
432.956	1	43
433.297	1	34
433.638	1	38
433.979	1	32
434.320	1	38
434.662	1	20
435.003	1	35
435.344	1	28
435.685	1	35
436.026	1	30
436.368	1	40
436.709	1	37
437.050	1	27
437.391	1	22
437.732	1	35
438.073	1	30
438.414	1	27
438.756	1	20
439.097	1	30
439.438	1	26
439.779	1	21
440.120	1	18
440.461	1	34
440.802	1	26
441.143	1	33
441.485	1	12
441.826	1	34
442.167	1	31
442.508	1	23
442.849	1	26
443.190	1	34
443.531	1	33
443.872	1	24
444.213	1	13
444.554	1	25
444.895	1	8
445.237	1	10
445.578	1	32
445.919	1	26
446.260	1	22
446.601	1	21
446.942	1	23
447.283	1	21
447.624	1	24
447.965	1	19
448.306	1	25
448.647	1	19
448.988	1	33
449.329	1	16
449.670	1	6
450.011	1	22
450.352	1	18
450.693	1	16
451.034	1	26
451.375	1	24
451.716	1	25
452.057	1	29
452.398	1	22
452.739	1	19
453.080	1	34
453.421	1	26
453.762	1	19
454.103	1	25
454.444	1	11
454.785	1	17
455.126	1	41
455.467	1	15
455.808	1	34
456.149	1	26
456.490	1	22
456.831	1	18
457.172	1	27
457.513	1	23
457.854	1	24
458.195	1	27
458.536	1	21
458.877	1	31
459.218	1	23
459.559	1	17
459.899	1	11
460.240	1	22
460.581	1	27
460.922	1	21
461.263	1	20
461.604	1	25
461.945	1	20
462.286	1	21
462.627	1	32
462.968	1	33
463.309	1	25
463.649	1	26
463.990	1	21
464.331	1	17
464.672	1	14
465.013	1	35
465.354	1	11
465.695	1	26
466.036	1	22
466.376	1	27
466.717	1	20
467.058	1	22
467.399	1	37
467.740	1	30
468.081	1	21
468.422	1	32
468.762	1	45
469.103	1	24
469.444	1	30
469.785	1	17
470.126	1	31
470.467	1	27
470.807	1	32
471.148	1	18
471.489	1	20
471.830	1	19
472.171	1	34
472.511	1	37
472.852	1	15
473.193	1	32
473.534	1	18
473.875	1	27
474.215	1	18
474.556	1	32
474.897	1	36
475.238	1	24
475.578	1	22
475.919	1	41
476.260	1	38
476.601	1	30
476.942	1	29
477.282	1	32
477.623	1	39
477.964	1	38
478.305	1	29
478.645	1	43
478.986	1	22
479.327	1	21
479.667	1	28
480.008	1	20
480.349	1	27
480.690	1	30
481.030	1	45
481.371	1	29
481.712	1	40
482.053	1	26
482.393	1	26
482.734	1	43
483.075	1	34
483.415	1	47
483.756	1	43
484.097	1	41
484.437	1	36
484.778	1	36
485.119	1	46
485.459	1	49
485.800	1	39
486.141	1	55
486.481	1	48
486.822	1	49
487.163	1	50
487.503	1	59
487.844	1	62
488.185	1	53
488.525	1	68
488.866	1	64
489.207	1	54
489.547	1	71
489.888	1	61
490.228	1	49
490.569	1	62
490.910	1	55
491.250	1	65
491.591	1	57
491.932	1	67
492.272	1	81
492.613	1	74
492.953	1	60
493.294	1	68
493.635	1	66
493.975	1	70
494.316	1	59
494.656	1	69
494.997	1	64
495.337	1	70
495.678	1	80
496.019	1	57
496.359	1	79
496.700	1	89
497.040	1	82
497.381	1	79
497.721	1	78
498.062	1	66
498.403	1	82
498.743	1	88
499.084	1	87
499.424	1	83
499.765	1	72
500.105	1	92
500.446	1	93
500.786	1	103
501.127	1	96
501.467	1	98
501.808	1	103
502.148	1	110
502.489	1	112
502.829	1	117
503.170	1	113
503.510	1	125
503.851	1	115
504.191	1	116
504.532	1	110
504.872	1	122
505.213	1	129
505.553	1	112
505.894	1	138
506.234	1	108
506.575	1	122
506.915	1	125
507.256	1	121
507.596	1	132
507.936	1	143
508.277	1	138
508.617	1	136
508.958	1	134
509.298	1	137
509.639	1	144
509.979	1	126
510.319	1	130
510.660	1	124
511.000	1	128
511.341	1	160
511.681	1	147
512.022	1	147
512.362	1	138
512.702	1	134
513.043	1	146
513.383	1	149
513.724	1	133
514.064	1	154
514.404	1	146
514.745	1	139
515.085	1	149
515.425	1	173
515.766	1	156
516.106	1	163
516.447	1	176
516.787	1	175
517.127	1	183
517.468	1	184
517.808	1	168
518.148	1	164
518.489	1	187
518.829	1	190
519.169	1	172
519.510	1	180
519.850	1	180
520.190	1	183
520.531	1	178
520.871	1	185
521.211	1	191
521.552	1	184
521.892	1	186
522.232	1	182
522.573	1	181
522.913	1	185
523.253	1	200
523.593	1	193
523.934	1	199
524.274	1	186
524.614	1	206
524.955	1	193
525.295	1	207
525.635	1	211
525.975	1	202
526.316	1	207
526.656	1	211
526.996	1	203
527.337	1	200
527.677	1	205
528.017	1	216
528.357	1	220
528.698	1	204
529.038	1	218
529.378	1	217
529.718	1	226
530.058	1	229
530.399	1	245
530.739	1	232
531.079	1	235
531.419	1	239
531.760	1	239
532.100	1	236
532.440	1	231
532.780	1	231
533.120	1	230
533.461	1	225
533.801	1	226
534.141	1	225
534.481	1	238
534.821	1	216
535.162	1	219
535.502	1	215
535.842	1	234
536.182	1	210
536.522	1	224
536.862	1	231
537.203	1	204
537.543	1	196
537.883	1	198
538.223	1	211
538.563	1	214
538.903	1	214
539.243	1	209
539.584	1	212
539.924	1	199
540.264	1	204
540.604	1	205
540.944	1	198
541.284	1	207
541.624	1	202
541.964	1	205
542.305	1	220
542.645	1	210
542.985	1	218
543.325	1	219
543.665	1	223
544.005	1	220
544.345	1	222
544.685	1	212
545.025	1	207
545.365	1	234
545.705	1	242
546.045	1	223
546.386	1	225
546.726	1	228
547.066	1	246
547.406	1	230
547.746	1	229
548.086	1	223
548.426	1	234
548.766	1	228
549.106	1	243
549.446	1	246
549.786	1	232
550.126	1	241
550.466	1	225
550.806	1	238
551.146	1	237
551.486	1	238
551.826	1	249
552.166	1	232
552.506	1	233
552.846	1	225
553.186	1	235
553.526	1	228
553.866	1	217
554.206	1	232
554.546	1	214
554.886	1	232
555.226	1	215
555.566	1	219
555.906	1	214
556.246	1	228
556.586	1	209
556.926	1	221
557.266	1	214
557.606	1	212
557.946	1	206
558.286	1	207
558.626	1	220
558.966	1	218
559.306	1	220
559.646	1	214
559.986	1	229
560.325	1	209
560.665	1	211
561.005	1	205
561.345	1	200
561.685	1	202
562.025	1	195
562.365	1	217
562.705	1	210
563.045	1	196
563.385	1	207
563.725	1	190
564.064	1	201
564.404	1	196
564.744	1	213
565.084	1	209
565.424	1	206
565.764	1	196
566.104	1	213
566.444	1	214
566.783	1	210
567.123	1	201
567.463	1	197
567.803	1	203
568.143	1	202
568.483	1	197
568.823	1	185
569.162	1	203
569.502	1	194
569.842	1	199
570.182	1	189
570.522	1	188
570.862	1	193
571.201	1	200
571.541	1	175
571.881	1	186
572.221	1	177
572.561	1	188
572.900	1	168
573.240	1	175
573.580	1	178
573.920	1	195
574.260	1	180
574.599	1	177
574.939	1	160
575.279	1	169
575.619	1	185
575.959	1	179
576.298	1	176
576.638	1	193
576.978	1	177
577.318	1	186
577.657	1	185
577.997	1	176
578.337	1	201
578.677	1	187
579.016	1	191
579.356	1	176
579.696	1	163
580.036	1	168
580.375	1	192
580.715	1	192
581.055	1	186
581.394	1	186
581.734	1	188
582.074	1	194
582.414	1	169
582.753	1	193
583.093	1	175
583.433	1	194
583.772	1	170
584.112	1	166
584.452	1	167
584.791	1	181
585.131	1	167
585.471	1	175
585.811	1	155
586.150	1	151
586.490	1	165
586.830	1	158
587.169	1	169
587.509	1	156
587.849	1	162
588.188	1	165
588.528	1	162
588.867	1	144
589.207	1	155
589.547	1	159
589.886	1	146
590.226	1	142
590.566	1	149
590.905	1	150
591.245	1	152
591.585	1	137
591.924	1	130
592.264	1	135
592.603	1	138
592.943	1	132
593.283	1	135
593.622	1	126
593.962	1	141
594.301	1	130
594.641	1	139
594.981	1	152
595.320	1	130
595.660	1	130
595.999	1	133
596.339	1	118
596.678	1	138
597.018	1	137
597.358	1	120
597.697	1	129
598.037	1	135
598.376	1	126
598.716	1	125
599.055	1	135
599.395	1	123
599.734	1	134
600.074	1	140
600.413	1	137
600.753	1	129
601.092	1	128
601.432	1	131
601.771	1	139
602.111	1	124
602.451	1	134
602.790	1	143
603.130	1	146
603.469	1	148
603.809	1	136
604.148	1	133
604.487	1	138
604.827	1	131
605.166	1	140
605.506	1	129
605.845	1	129
606.185	1	133
606.524	1	140
606.864	1	124
607.203	1	137
607.543	1	135
607.882	1	125
608.222	1	122
608.561	1	142
608.901	1	136
609.240	1	122
609.579	1	120
609.919	1	124
610.258	1	124
610.598	1	125
610.937	1	125
611.277	1	114
611.616	1	109
611.955	1	121
612.295	1	121
612.634	1	126
612.974	1	123
613.313	1	107
613.652	1	128
613.992	1	109
614.331	1	111
614.671	1	116
615.010	1	117
615.349	1	116
615.689	1	116
616.028	1	99
616.368	1	101
616.707	1	99
617.046	1	103
617.386	1	99
617.725	1	99
618.064	1	90
618.404	1	105
618.743	1	100
619.082	1	95
619.422	1	85
619.761	1	89
620.100	1	90
620.440	1	109
620.779	1	93
621.118	1	94
621.458	1	94
621.797	1	89
622.136	1	98
622.476	1	94
622.815	1	92
623.154	1	101
623.494	1	82
623.833	1	95
624.172	1	84
624.511	1	91
624.851	1	75
625.190	1	91
625.529	1	102
625.869	1	102
626.208	1	87
626.547	1	78
626.886	1	87
627.226	1	94
627.565	1	90
627.904	1	80
628.243	1	83
628.583	1	89
628.922	1	76
629.261	1	83
629.600	1	88
629.940	1	88
630.279	1	83
630.618	1	78
630.957	1	91
631.297	1	81
631.636	1	93
631.975	1	78
632.314	1	88
632.653	1	94
632.993	1	74
633.332	1	77
633.671	1	84
634.010	1	77
634.349	1	73
634.689	1	82
635.028	1	79
635.367	1	72
635.706	1	83
636.045	1	75
636.384	1	72
636.724	1	79
637.063	1	74
637.402	1	82
637.741	1	66
638.080	1	88
638.419	1	65
638.759	1	69
639.098	1	59
639.437	1	74
639.776	1	70
640.115	1	80
640.454	1	87
640.793	1	69
641.132	1	75
641.472	1	59
641.811	1	71
642.150	1	65
642.489	1	62
642.828	1	71
643.167	1	70
643.506	1	76
643.845	1	69
644.184	1	80
644.524	1	68
644.863	1	67
645.202	1	75
645.541	1	68
645.880	1	66
646.219	1	62
646.558	1	80
646.897	1	72
647.236	1	65
647.575	1	60
647.914	1	68
648.253	1	70
648.592	1	75
648.931	1	74
649.270	1	64
649.610	1	65
649.949	1	67
650.288	1	61
650.627	1	65
650.966	1	69
651.305	1	62
651.644	1	59
651.983	1	67
652.322	1	61
652.661	1	60
653.000	1	53
653.339	1	63
653.678	1	58
654.017	1	74
654.356	1	56
654.695	1	65
655.034	1	61
655.373	1	54
655.712	1	54
656.051	1	58
656.390	1	51
656.729	1	54
657.068	1	58
657.406	1	45
657.745	1	57
658.084	1	47
658.423	1	46
658.762	1	51
659.101	1	47
659.440	1	56
659.779	1	53
660.118	1	58
660.457	1	48
660.796	1	46
661.135	1	30
661.474	1	60
661.813	1	47
662.152	1	44
662.491	1	33
662.829	1	43
663.168	1	49
663.507	1	49
663.846	1	41
664.185	1	54
664.524	1	45
664.863	1	42
665.202	1	67
665.541	1	49
665.879	1	55
666.218	1	51
666.557	1	44
666.896	1	47
667.235	1	47
667.574	1	29
667.913	1	34
668.251	1	49
668.590	1	42
668.929	1	43
669.268	1	39
669.607	1	42
669.946	1	51
670.285	1	64
670.623	1	51
670.962	1	45
671.301	1	45
671.640	1	45
671.979	1	52
672.317	1	56
672.656	1	48
672.995	1	31
673.334	1	39
673.673	1	50
674.011	1	44
674.350	1	58
674.689	1	49
675.028	1	41
675.367	1	33
675.705	1	57
676.044	1	65
676.383	1	47
676.722	1	54
677.060	1	44
677.399	1	34
677.738	1	47
678.077	1	61
678.416	1	41
678.754	1	47
679.093	1	50
679.432	1	54
679.771	1	43
680.109	1	41
680.448	1	45
680.787	1	34
681.125	1	57
681.464	1	45
681.803	1	48
682.142	1	48
682.480	1	41
682.819	1	46
683.158	1	37
683.496	1	43
683.835	1	35
684.174	1	40
684.512	1	29
684.851	1	33
685.190	1	34
685.529	1	53
685.867	1	50
686.206	1	40
686.545	1	48
686.883	1	33
687.222	1	31
687.561	1	40
687.899	1	25
688.238	1	43
688.577	1	45
688.746	1	33