File: Data/GaN_170K_550ms/GaN_sample D_spot 18_UVVIS_170 K_200um_550 ms 2x2mm1_367.txt
340.368	1	3
340.710	1	-14
341.052	1	0
341.394	1	0
341.737	1	6
342.079	1	0
342.421	1	-2
342.763	1	-2
343.105	1	8
343.447	1	-10
343.789	1	16
344.131	1	4
344.473	1	-1
344.815	1	8
345.157	1	-5
345.499	1	-2
345.841	1	6
346.183	1	1
346.526	1	1
346.868	1	-1
347.210	1	-4
347.552	1	6
347.894	1	5
348.236	1	2
348.578	1	4
348.920	1	-1
349.262	1	1
349.604	1	7
349.946	1	2
350.288	1	-3
350.630	1	10
350.972	1	-7
351.314	1	3
351.656	1	-1
351.998	1	4
352.340	1	0
352.682	1	-6
353.024	1	-4
353.366	1	2
353.708	1	3
354.050	1	-5
354.392	1	3
354.734	1	8
355.076	1	-1
355.418	1	-6
355.760	1	2
356.102	1	4
356.444	1	0
356.785	1	3
357.127	1	-4
357.469	1	-7
357.811	1	-1
358.153	1	-2
358.495	1	-2
358.837	1	10
359.179	1	1
359.521	1	-1
359.863	1	2
360.205	1	4
360.547	1	3
360.889	1	8
361.231	1	-2
361.572	1	6
361.914	1	2
362.256	1	7
362.598	1	3
362.940	1	13
363.282	1	6
363.624	1	5
363.966	1	3
364.308	1	8
364.649	1	-3
364.991	1	7
365.333	1	-3
365.675	1	7
366.017	1	0
366.359	1	-2
366.701	1	7
367.042	1	6
367.384	1	10
367.726	1	8
368.068	1	10
368.410	1	12
368.752	1	8
369.093	1	-4
369.435	1	1
369.777	1	6
370.119	1	-4
370.461	1	6
370.803	1	-3
371.144	1	3
371.486	1	-5
371.828	1	1
372.170	1	10
372.512	1	-5
372.853	1	19
373.195	1	6
373.537	1	13
373.879	1	3
374.220	1	14
374.562	1	2
374.904	1	-2
375.246	1	5
375.588	1	9
375.929	1	6
376.271	1	3
376.613	1	3
376.955	1	5
377.296	1	-2
377.638	1	0
377.980	1	-17
378.321	1	4
378.663	1	-6
379.005	1	-1
379.347	1	3
379.688	1	12
380.030	1	4
380.372	1	8
380.714	1	10
381.055	1	-1
381.397	1	7
381.739	1	-3
382.080	1	-6
382.422	1	-2
382.764	1	4
383.105	1	5
383.447	1	7
383.789	1	10
384.130	1	-2
384.472	1	-11
384.814	1	-4
385.156	1	-1
385.497	1	8
385.839	1	-1
386.180	1	4
386.522	1	1
386.864	1	7
387.205	1	-8
387.547	1	2
387.889	1	9
388.230	1	1
388.572	1	7
388.914	1	-4
389.255	1	9
389.597	1	2
389.939	1	-1
390.280	1	-10
390.622	1	-1
390.963	1	-3
391.305	1	-5
391.647	1	-19
391.988	1	4
392.330	1	3
392.671	1	-4
393.013	1	-5
393.355	1	3
393.696	1	11
394.038	1	-7
394.379	1	-3
394.721	1	1
395.062	1	-1
395.404	1	5
395.746	1	2
396.087	1	1
396.429	1	2
396.770	1	10
397.112	1	-6
397.453	1	13
397.795	1	-8
398.136	1	0
398.478	1	-7
398.819	1	8
399.161	1	-7
399.503	1	7
399.844	1	-9
400.186	1	-5
400.527	1	20
400.869	1	-6
401.210	1	8
401.552	1	5
401.893	1	11
402.235	1	0
402.576	1	-8
402.918	1	0
403.259	1	3
403.601	1	13
403.942	1	4
404.284	1	-7
404.625	1	0
404.967	1	1
405.308	1	-1
405.649	1	2
405.991	1	-5
406.332	1	-8
406.674	1	12
407.015	1	4
407.357	1	-5
407.698	1	0
408.040	1	-4
408.381	1	3
408.722	1	-4
409.064	1	4
409.405	1	8
409.747	1	-6
410.088	1	5
410.430	1	0
410.771	1	3
411.112	1	-7
411.454	1	0
411.795	1	8
412.137	1	-8
412.478	1	-3
412.819	1	-10
413.161	1	4
413.502	1	2
413.844	1	11
414.185	1	-4
414.526	1	-2
414.868	1	3
415.209	1	-14
415.550	1	-1
415.892	1	2
416.233	1	3
416.575	1	0
416.916	1	-12
417.257	1	-2
417.599	1	-3
417.940	1	-3
418.281	1	-10
418.623	1	6
418.964	1	0
419.305	1	-6
419.647	1	5
419.988	1	2
420.329	1	3
420.671	1	-14
421.012	1	7
421.353	1	1
421.695	1	-12
422.036	1	6
422.377	1	-2
422.718	1	10
423.060	1	-1
423.401	1	2
423.742	1	-5
424.084	1	20
424.425	1	-8
424.766	1	2
425.107	1	-3
425.449	1	7
425.790	1	4
426.131	1	11
426.472	1	-6
426.814	1	-14
427.155	1	8
427.496	1	-4
427.837	1	-2
428.179	1	0
428.520	1	0
428.861	1	4
429.202	1	-5
429.544	1	-7
429.885	1	-3
430.226	1	-4
430.567	1	6
430.909	1	-5
431.250	1	10
431.591	1	-7
431.932	1	3
432.273	1	0
432.615	1	4
432.956	1	0
433.297	1	-2
433.638	1	7
433.979	1	10
434.320	1	13
434.662	1	-10
435.003	1	6
435.344	1	-5
435.685	1	-2
436.026	1	3
436.368	1	4
436.709	1	5
437.050	1	1
437.391	1	-4
437.732	1	7
438.073	1	-11
438.414	1	-6
438.756	1	2
439.097	1	4
439.438	1	4
439.779	1	3
440.120	1	-9
440.461	1	12
440.802	1	6
441.143	1	3
441.485	1	-9
441.826	1	1
442.167	1	3
442.508	1	-4
442.849	1	-5
443.190	1	-5
443.531	1	-10
443.872	1	2
444.213	1	2
444.554	1	-3
444.895	1	-9
445.237	1	-7
445.578	1	4
445.919	1	9
446.260	1	7
446.601	1	-11
446.942	1	2
447.283	1	3
447.624	1	2
447.965	1	1
448.306	1	0
448.647	1	-4
448.988	1	7
449.329	1	4
449.670	1	-12
450.011	1	11
450.352	1	-3
450.693	1	3
451.034	1	-13
451.375	1	6
451.716	1	2
452.057	1	0
452.398	1	8
452.739	1	2
453.080	1	0
453.421	1	1
453.762	1	3
454.103	1	-3
454.444	1	-6
454.785	1	0
455.126	1	12
455.467	1	-9
455.808	1	9
456.149	1	5
456.490	1	4
456.831	1	-5
457.172	1	-7
457.513	1	5
457.854	1	3
458.195	1	-8
458.536	1	0
458.877	1	4
459.218	1	-2
459.559	1	0
459.899	1	1
460.240	1	1
460.581	1	6
460.922	1	-6
461.263	1	2
461.604	1	7
461.945	1	3
462.286	1	-7
462.627	1	4
462.968	1	4
463.309	1	0
463.649	1	6
463.990	1	-7
464.331	1	-3
464.672	1	-1
465.013	1	4
465.354	1	-9
465.695	1	1
466.036	1	-2
466.376	1	1
466.717	1	4
467.058	1	7
467.399	1	6
467.740	1	0
468.081	1	-1
468.422	1	-3
468.762	1	9
469.103	1	8
469.444	1	0
469.785	1	-11
470.126	1	0
470.467	1	6
470.807	1	3
471.148	1	-3
471.489	1	4
471.830	1	2
472.171	1	10
472.511	1	5
472.852	1	-3
473.193	1	8
473.534	1	1
473.875	1	0
474.215	1	0
474.556	1	6
474.897	1	-2
475.238	1	8
475.578	1	1
475.919	1	4
476.260	1	5
476.601	1	4
476.942	1	-8
477.282	1	-1
477.623	1	0
477.964	1	8
478.305	1	-10
478.645	1	8
478.986	1	-2
479.327	1	-7
479.667	1	5
480.008	1	-1
480.349	1	8
480.690	1	1
481.030	1	8
481.371	1	-1
481.712	1	-5
482.053	1	-5
482.393	1	-7
482.734	1	8
483.075	1	-8
483.415	1	2
483.756	1	-1
484.097	1	-8
484.437	1	-3
484.778	1	-5
485.119	1	5
485.459	1	-5
485.800	1	-3
486.141	1	8
486.481	1	-2
486.822	1	-1
487.163	1	2
487.503	1	-1
487.844	1	2
488.185	1	-1
488.525	1	3
488.866	1	3
489.207	1	8
489.547	1	8
489.888	1	4
490.228	1	-3
490.569	1	-5
490.910	1	0
491.250	1	4
491.591	1	0
491.932	1	3
492.272	1	15
492.613	1	2
492.953	1	0
493.294	1	-1
493.635	1	-6
493.975	1	11
494.316	1	-8
494.656	1	-1
494.997	1	2
495.337	1	7
495.678	1	0
496.019	1	-10
496.359	1	1
496.700	1	10
497.040	1	-1
497.381	1	-3
497.721	1	-11
498.062	1	-5
498.403	1	-3
498.743	1	11
499.084	1	-3
499.424	1	2
499.765	1	-9
500.105	1	-9
500.446	1	3
500.786	1	-3
501.127	1	-2
501.467	1	0
501.808	1	-2
502.148	1	8
502.489	1	1
502.829	1	1
503.170	1	8
503.510	1	3
503.851	1	-6
504.191	1	-8
504.532	1	-10
504.872	1	1
505.213	1	5
505.553	1	-3
505.894	1	5
506.234	1	-6
506.575	1	3
506.915	1	9
507.256	1	2
507.596	1	6
507.936	1	-1
508.277	1	-7
508.617	1	2
508.958	1	0
509.298	1	-4
509.639	1	-2
509.979	1	8
510.319	1	-10
510.660	1	-6
511.000	1	0
511.341	1	8
511.681	1	-2
512.022	1	3
512.362	1	-7
512.702	1	1
513.043	1	-1
513.383	1	3
513.724	1	-3
514.064	1	3
514.404	1	-13
514.745	1	-1
515.085	1	4
515.425	1	4
515.766	1	-8
516.106	1	3
516.447	1	3
516.787	1	7
517.127	1	8
517.468	1	9
517.808	1	3
518.148	1	-2
518.489	1	10
518.829	1	7
519.169	1	0
519.510	1	-2
519.850	1	2
520.190	1	-2
520.531	1	11
520.871	1	-4
521.211	1	8
521.552	1	4
521.892	1	-8
522.232	1	-6
522.573	1	-5
522.913	1	10
523.253	1	4
523.593	1	5
523.934	1	1
524.274	1	-3
524.614	1	2
524.955	1	1
525.295	1	-2
525.635	1	3
525.975	1	-3
526.316	1	7
526.656	1	17
526.996	1	11
527.337	1	-10
527.677	1	-2
528.017	1	11
528.357	1	-9
528.698	1	-10
529.038	1	-11
529.378	1	3
529.718	1	4
530.058	1	6
530.399	1	1
530.739	1	-3
531.079	1	-1
531.419	1	8
531.760	1	4
532.100	1	5
532.440	1	0
532.780	1	-5
533.120	1	-1
533.461	1	3
533.801	1	2
534.141	1	-1
534.481	1	9
534.821	1	1
535.162	1	3
535.502	1	11
535.842	1	4
536.182	1	-3
536.522	1	10
536.862	1	8
537.203	1	-2
537.543	1	-7
537.883	1	8
538.223	1	8
538.563	1	-1
538.903	1	6
539.243	1	-3
539.584	1	2
539.924	1	-4
540.264	1	6
540.604	1	4
540.944	1	-5
541.284	1	12
541.624	1	-7
541.964	1	5
542.305	1	5
542.645	1	4
542.985	1	18
543.325	1	-5
543.665	1	0
544.005	1	13
544.345	1	-9
544.685	1	-3
545.025	1	-3
545.365	1	4
545.705	1	4
546.045	1	6
546.386	1	4
546.726	1	-5
547.066	1	12
547.406	1	-4
547.746	1	1
548.086	1	10
548.426	1	4
548.766	1	-1
549.106	1	6
549.446	1	-8
549.786	1	-2
550.126	1	-4
550.466	1	0
550.806	1	1
551.146	1	5
551.486	1	-7
551.826	1	2
552.166	1	4
552.506	1	2
552.846	1	1
553.186	1	-1
553.526	1	-6
553.866	1	-4
554.206	1	4
554.546	1	-4
554.886	1	-5
555.226	1	-4
555.566	1	1
555.906	1	-2
556.246	1	8
556.586	1	-6
556.926	1	-2
557.266	1	2
557.606	1	10
557.946	1	4
558.286	1	4
558.626	1	6
558.966	1	4
559.306	1	8
559.646	1	5
559.986	1	3
560.325	1	3
560.665	1	5
561.005	1	-4
561.345	1	-4
561.685	1	6
562.025	1	-7
562.365	1	-6
562.705	1	8
563.045	1	-6
563.385	1	7
563.725	1	-7
564.064	1	2
564.404	1	-2
564.744	1	7
565.084	1	1
565.424	1	-5
565.764	1	-4
566.104	1	-4
566.444	1	5
566.783	1	-2
567.123	1	-1
567.463	1	-4
567.803	1	0
568.143	1	-1
568.483	1	-1
568.823	1	-7
569.162	1	-4
569.502	1	2
569.842	1	-3
570.182	1	-7
570.522	1	-4
570.862	1	1
571.201	1	2
571.541	1	-9
571.881	1	-5
572.221	1	-7
572.561	1	2
572.900	1	2
573.240	1	2
573.580	1	-3
573.920	1	13
574.260	1	8
574.599	1	-13
574.939	1	0
575.279	1	3
575.619	1	0
575.959	1	-2
576.298	1	2
576.638	1	-5
576.978	1	0
577.318	1	-3
577.657	1	9
577.997	1	-6
578.337	1	10
578.677	1	3
579.016	1	-1
579.356	1	-7
579.696	1	-3
580.036	1	-4
580.375	1	9
580.715	1	5
581.055	1	2
581.394	1	5
581.734	1	7
582.074	1	4
582.414	1	-7
582.753	1	-2
583.093	1	1
583.433	1	10
583.772	1	-3
584.112	1	2
584.452	1	-4
584.791	1	11
585.131	1	-1
585.471	1	11
585.811	1	-16
586.150	1	-5
586.490	1	1
586.830	1	-10
587.169	1	6
587.509	1	6
587.849	1	-2
588.188	1	4
588.528	1	-1
588.867	1	3
589.207	1	0
589.547	1	-2
589.886	1	-11
590.226	1	5
590.566	1	-5
590.905	1	11
591.245	1	3
591.585	1	6
591.924	1	-2
592.264	1	-12
592.603	1	-1
592.943	1	1
593.283	1	-6
593.622	1	-12
593.962	1	-2
594.301	1	1
594.641	1	3
594.981	1	9
595.320	1	0
595.660	1	2
595.999	1	2
596.339	1	1
596.678	1	-3
597.018	1	3
597.358	1	-3
597.697	1	-2
598.037	1	-4
598.376	1	-3
598.716	1	6
599.055	1	-1
599.395	1	-3
599.734	1	10
600.074	1	-3
600.413	1	-8
600.753	1	1
601.092	1	-8
601.432	1	-3
601.771	1	4
602.111	1	-4
602.451	1	7
602.790	1	6
603.130	1	3
603.469	1	1
603.809	1	-1
604.148	1	6
604.487	1	8
604.827	1	-3
605.166	1	0
605.506	1	3
605.845	1	0
606.185	1	13
606.524	1	-3
606.864	1	-5
607.203	1	2
607.543	1	9
607.882	1	-1
608.222	1	4
608.561	1	1
608.901	1	5
609.240	1	-6
609.579	1	5
609.919	1	-3
610.258	1	5
610.598	1	3
610.937	1	-5
611.277	1	-5
611.616	1	2
611.955	1	0
612.295	1	-11
612.634	1	-9
612.974	1	-2
613.313	1	5
613.652	1	9
613.992	1	1
614.331	1	-7
614.671	1	6
615.010	1	5
615.349	1	4
615.689	1	7
616.028	1	1
616.368	1	5
616.707	1	9
617.046	1	-6
617.386	1	0
617.725	1	0
618.064	1	-5
618.404	1	5
618.743	1	3
619.082	1	6
619.422	1	-6
619.761	1	-10
620.100	1	9
620.440	1	-1
620.779	1	0
621.118	1	-10
621.458	1	-7
621.797	1	-4
622.136	1	-3
622.476	1	-4
622.815	1	5
623.154	1	8
623.494	1	-13
623.833	1	0
624.172	1	-2
624.511	1	10
624.851	1	-8
625.190	1	3
625.529	1	3
625.869	1	5
626.208	1	-2
626.547	1	-5
626.886	1	-2
627.226	1	7
627.565	1	2
627.904	1	-4
628.243	1	-6
628.583	1	-9
628.922	1	-6
629.261	1	3
629.600	1	2
629.940	1	5
630.279	1	-1
630.618	1	-4
630.957	1	0
631.297	1	-4
631.636	1	4
631.975	1	-7
632.314	1	3
632.653	1	0
632.993	1	0
633.332	1	1
633.671	1	-2
634.010	1	4
634.349	1	-13
634.689	1	-2
635.028	1	9
635.367	1	-3
635.706	1	-2
636.045	1	6
636.384	1	-4
636.724	1	4
637.063	1	7
637.402	1	8
637.741	1	-4
638.080	1	7
638.419	1	-3
638.759	1	11
639.098	1	-6
639.437	1	-14
639.776	1	0
640.115	1	0
640.454	1	-1
640.793	1	-3
641.132	1	4
641.472	1	-4
641.811	1	9
642.150	1	-3
642.489	1	2
642.828	1	-2
643.167	1	-1
643.506	1	11
643.845	1	2
644.184	1	5
644.524	1	2
644.863	1	-9
645.202	1	7
645.541	1	-4
645.880	1	0
646.219	1	-2
646.558	1	2
646.897	1	4
647.236	1	-6
647.575	1	3
647.914	1	-9
648.253	1	-8
648.592	1	5
648.931	1	2
649.270	1	-5
649.610	1	-2
649.949	1	-7
650.288	1	-2
650.627	1	-4
650.966	1	10
651.305	1	-4
651.644	1	-5
651.983	1	-6
652.322	1	2
652.661	1	-6
653.000	1	-5
653.339	1	5
653.678	1	5
654.017	1	2
654.356	1	2
654.695	1	0
655.034	1	-2
655.373	1	-7
655.712	1	-2
656.051	1	-2
656.390	1	-2
656.729	1	11
657.068	1	4
657.406	1	-8
657.745	1	3
658.084	1	-7
658.423	1	-9
658.762	1	-6
659.101	1	2
659.440	1	0
659.779	1	-2
660.118	1	-4
660.457	1	0
660.796	1	-6
661.135	1	-13
661.474	1	6
661.813	1	-2
662.152	1	-4
662.491	1	-6
662.829	1	1
663.168	1	8
663.507	1	-6
663.846	1	-3
664.185	1	0
664.524	1	-1
664.863	1	6
665.202	1	11
665.541	1	4
665.879	1	10
666.218	1	6
666.557	1	-4
666.896	1	5
667.235	1	-12
667.574	1	-15
667.913	1	-6
668.251	1	-2
668.590	1	1
668.929	1	4
669.268	1	-2
669.607	1	4
669.946	1	-5
670.285	1	9
670.623	1	-9
670.962	1	1
671.301	1	-7
671.640	1	3
671.979	1	-2
672.317	1	3
672.656	1	0
672.995	1	-6
673.334	1	-7
673.673	1	-3
674.011	1	9
674.350	1	10
674.689	1	7
675.028	1	0
675.367	1	-3
675.705	1	5
676.044	1	15
676.383	1	2
676.722	1	14
677.060	1	-2
677.399	1	0
677.738	1	-6
678.077	1	16
678.416	1	-7
678.754	1	4
679.093	1	6
679.432	1	-1
679.771	1	2
680.109	1	-1
680.448	1	7
680.787	1	-8
681.125	1	5
681.464	1	7
681.803	1	10
682.142	1	-4
682.480	1	-2
682.819	1	8
683.158	1	13
683.496	1	0
683.835	1	-5
684.174	1	1
684.512	1	-5
684.851	1	1
685.190	1	-2
685.529	1	4
685.867	1	0
686.206	1	4
686.545	1	1
686.883	1	-3
687.222	1	-1
687.561	1	4
687.899	1	-9
688.238	1	-2
688.577	1	10
688.746	1	-14