File: Data/GaN_170K_550ms/GaN_sample D_spot 18_UVVIS_170 K_200um_550 ms 2x2mm1_380.txt
340.368	1	-3
340.710	1	-11
341.052	1	1
341.394	1	1
341.737	1	-3
342.079	1	1
342.421	1	6
342.763	1	-7
343.105	1	9
343.447	1	-6
343.789	1	-6
344.131	1	9
344.473	1	-7
344.815	1	3
345.157	1	-4
345.499	1	-5
345.841	1	4
346.183	1	1
346.526	1	0
346.868	1	8
347.210	1	-1
347.552	1	5
347.894	1	-3
348.236	1	-2
348.578	1	4
348.920	1	-3
349.262	1	7
349.604	1	3
349.946	1	5
350.288	1	-3
350.630	1	10
350.972	1	1
351.314	1	6
351.656	1	-5
351.998	1	7
352.340	1	2
352.682	1	-3
353.024	1	-4
353.366	1	-1
353.708	1	3
354.050	1	-8
354.392	1	-10
354.734	1	6
355.076	1	-4
355.418	1	-2
355.760	1	-2
356.102	1	-3
356.444	1	-5
356.785	1	3
357.127	1	0
357.469	1	-4
357.811	1	-2
358.153	1	6
358.495	1	0
358.837	1	9
359.179	1	1
359.521	1	5
359.863	1	6
360.205	1	14
360.547	1	15
360.889	1	9
361.231	1	10
361.572	1	6
361.914	1	8
362.256	1	-1
362.598	1	-2
362.940	1	17
363.282	1	12
363.624	1	9
363.966	1	-1
364.308	1	2
364.649	1	-5
364.991	1	1
365.333	1	-4
365.675	1	13
366.017	1	2
366.359	1	1
366.701	1	7
367.042	1	0
367.384	1	8
367.726	1	16
368.068	1	10
368.410	1	9
368.752	1	7
369.093	1	1
369.435	1	1
369.777	1	5
370.119	1	2
370.461	1	8
370.803	1	-7
371.144	1	3
371.486	1	-4
371.828	1	-3
372.170	1	10
372.512	1	-5
372.853	1	3
373.195	1	10
373.537	1	11
373.879	1	10
374.220	1	6
374.562	1	6
374.904	1	15
375.246	1	2
375.588	1	6
375.929	1	-5
376.271	1	10
376.613	1	2
376.955	1	2
377.296	1	8
377.638	1	11
377.980	1	-9
378.321	1	2
378.663	1	-4
379.005	1	0
379.347	1	-6
379.688	1	4
380.030	1	0
380.372	1	7
380.714	1	3
381.055	1	4
381.397	1	-1
381.739	1	5
382.080	1	-9
382.422	1	4
382.764	1	4
383.105	1	6
383.447	1	4
383.789	1	-1
384.130	1	-5
384.472	1	-4
384.814	1	0
385.156	1	-1
385.497	1	3
385.839	1	-10
386.180	1	0
386.522	1	3
386.864	1	0
387.205	1	-12
387.547	1	-4
387.889	1	8
388.230	1	-7
388.572	1	8
388.914	1	3
389.255	1	14
389.597	1	3
389.939	1	-7
390.280	1	3
390.622	1	3
390.963	1	-2
391.305	1	-2
391.647	1	-10
391.988	1	1
392.330	1	3
392.671	1	-6
393.013	1	-3
393.355	1	4
393.696	1	0
394.038	1	-8
394.379	1	-3
394.721	1	-1
395.062	1	1
395.404	1	6
395.746	1	10
396.087	1	1
396.429	1	-5
396.770	1	8
397.112	1	0
397.453	1	2
397.795	1	1
398.136	1	2
398.478	1	-8
398.819	1	-1
399.161	1	-4
399.503	1	1
399.844	1	-1
400.186	1	1
400.527	1	13
400.869	1	-1
401.210	1	5
401.552	1	1
401.893	1	8
402.235	1	2
402.576	1	-7
402.918	1	2
403.259	1	-1
403.601	1	5
403.942	1	-4
404.284	1	-10
404.625	1	7
404.967	1	6
405.308	1	8
405.649	1	-7
405.991	1	4
406.332	1	-10
406.674	1	10
407.015	1	7
407.357	1	-5
407.698	1	-3
408.040	1	3
408.381	1	0
408.722	1	-3
409.064	1	-2
409.405	1	-2
409.747	1	-1
410.088	1	8
410.430	1	0
410.771	1	-4
411.112	1	-7
411.454	1	-6
411.795	1	10
412.137	1	-6
412.478	1	-4
412.819	1	-15
413.161	1	2
413.502	1	-4
413.844	1	4
414.185	1	-6
414.526	1	-11
414.868	1	-5
415.209	1	1
415.550	1	-7
415.892	1	2
416.233	1	0
416.575	1	-7
416.916	1	-4
417.257	1	2
417.599	1	3
417.940	1	0
418.281	1	-4
418.623	1	-3
418.964	1	0
419.305	1	2
419.647	1	-4
419.988	1	12
420.329	1	3
420.671	1	-4
421.012	1	4
421.353	1	8
421.695	1	-4
422.036	1	6
422.377	1	1
422.718	1	-2
423.060	1	-8
423.401	1	0
423.742	1	-9
424.084	1	20
424.425	1	-11
424.766	1	-9
425.107	1	-6
425.449	1	13
425.790	1	3
426.131	1	9
426.472	1	3
426.814	1	-4
427.155	1	1
427.496	1	-3
427.837	1	9
428.179	1	10
428.520	1	-5
428.861	1	3
429.202	1	-2
429.544	1	-5
429.885	1	-7
430.226	1	5
430.567	1	1
430.909	1	4
431.250	1	14
431.591	1	-10
431.932	1	0
432.273	1	-11
432.615	1	-5
432.956	1	6
433.297	1	-2
433.638	1	7
433.979	1	-1
434.320	1	-1
434.662	1	-12
435.003	1	-5
435.344	1	-2
435.685	1	-4
436.026	1	-6
436.368	1	-7
436.709	1	-2
437.050	1	-16
437.391	1	-8
437.732	1	-5
438.073	1	-1
438.414	1	-17
438.756	1	1
439.097	1	4
439.438	1	-1
439.779	1	-1
440.120	1	2
440.461	1	13
440.802	1	5
441.143	1	-5
441.485	1	-4
441.826	1	10
442.167	1	-1
442.508	1	1
442.849	1	-8
443.190	1	5
443.531	1	-8
443.872	1	-12
444.213	1	4
444.554	1	-3
444.895	1	-23
445.237	1	-7
445.578	1	4
445.919	1	-4
446.260	1	2
446.601	1	-7
446.942	1	5
447.283	1	3
447.624	1	-7
447.965	1	7
448.306	1	1
448.647	1	-6
448.988	1	3
449.329	1	-4
449.670	1	-14
450.011	1	6
450.352	1	-5
450.693	1	-6
451.034	1	6
451.375	1	3
451.716	1	8
452.057	1	8
452.398	1	8
452.739	1	-2
453.080	1	4
453.421	1	7
453.762	1	-6
454.103	1	-2
454.444	1	-5
454.785	1	1
455.126	1	5
455.467	1	-5
455.808	1	8
456.149	1	5
456.490	1	1
456.831	1	-4
457.172	1	1
457.513	1	-3
457.854	1	11
458.195	1	-4
458.536	1	8
458.877	1	0
459.218	1	-11
459.559	1	-1
459.899	1	4
460.240	1	1
460.581	1	6
460.922	1	-8
461.263	1	-8
461.604	1	4
461.945	1	2
462.286	1	-13
462.627	1	6
462.968	1	2
463.309	1	5
463.649	1	5
463.990	1	-5
464.331	1	-4
464.672	1	-8
465.013	1	5
465.354	1	-7
465.695	1	4
466.036	1	-4
466.376	1	6
466.717	1	0
467.058	1	-5
467.399	1	8
467.740	1	-4
468.081	1	-5
468.422	1	-4
468.762	1	9
469.103	1	8
469.444	1	3
469.785	1	-4
470.126	1	2
470.467	1	3
470.807	1	-7
471.148	1	3
471.489	1	-7
471.830	1	5
472.171	1	9
472.511	1	0
472.852	1	-3
473.193	1	5
473.534	1	-3
473.875	1	2
474.215	1	-6
474.556	1	7
474.897	1	-1
475.238	1	-9
475.578	1	-8
475.919	1	1
476.260	1	6
476.601	1	3
476.942	1	1
477.282	1	10
477.623	1	5
477.964	1	5
478.305	1	1
478.645	1	4
478.986	1	1
479.327	1	-9
479.667	1	-3
480.008	1	13
480.349	1	4
480.690	1	1
481.030	1	5
481.371	1	-7
481.712	1	-2
482.053	1	-2
482.393	1	-7
482.734	1	10
483.075	1	0
483.415	1	2
483.756	1	-2
484.097	1	-5
484.437	1	0
484.778	1	-1
485.119	1	8
485.459	1	-8
485.800	1	-4
486.141	1	11
486.481	1	0
486.822	1	6
487.163	1	-1
487.503	1	3
487.844	1	8
488.185	1	0
488.525	1	3
488.866	1	3
489.207	1	2
489.547	1	10
489.888	1	-6
490.228	1	2
490.569	1	-1
490.910	1	3
491.250	1	1
491.591	1	-8
491.932	1	3
492.272	1	8
492.613	1	3
492.953	1	-2
493.294	1	1
493.635	1	-5
493.975	1	3
494.316	1	1
494.656	1	-4
494.997	1	-5
495.337	1	-3
495.678	1	11
496.019	1	-13
496.359	1	0
496.700	1	4
497.040	1	-4
497.381	1	7
497.721	1	-7
498.062	1	-5
498.403	1	2
498.743	1	4
499.084	1	1
499.424	1	7
499.765	1	-7
500.105	1	-8
500.446	1	-5
500.786	1	2
501.127	1	-1
501.467	1	-7
501.808	1	3
502.148	1	9
502.489	1	-5
502.829	1	7
503.170	1	12
503.510	1	-3
503.851	1	-6
504.191	1	-3
504.532	1	-10
504.872	1	-6
505.213	1	1
505.553	1	-3
505.894	1	4
506.234	1	-11
506.575	1	0
506.915	1	-2
507.256	1	0
507.596	1	-3
507.936	1	4
508.277	1	-11
508.617	1	3
508.958	1	8
509.298	1	-6
509.639	1	5
509.979	1	5
510.319	1	-6
510.660	1	-10
511.000	1	7
511.341	1	0
511.681	1	1
512.022	1	7
512.362	1	-12
512.702	1	-9
513.043	1	7
513.383	1	5
513.724	1	-7
514.064	1	8
514.404	1	-7
514.745	1	4
515.085	1	0
515.425	1	0
515.766	1	1
516.106	1	6
516.447	1	-3
516.787	1	8
517.127	1	4
517.468	1	6
517.808	1	9
518.148	1	0
518.489	1	4
518.829	1	1
519.169	1	-5
519.510	1	7
519.850	1	-3
520.190	1	4
520.531	1	3
520.871	1	-9
521.211	1	2
521.552	1	6
521.892	1	-1
522.232	1	-11
522.573	1	1
522.913	1	-2
523.253	1	17
523.593	1	7
523.934	1	-7
524.274	1	1
524.614	1	5
524.955	1	0
525.295	1	1
525.635	1	5
525.975	1	3
526.316	1	5
526.656	1	5
526.996	1	-4
527.337	1	-6
527.677	1	-2
528.017	1	3
528.357	1	-9
528.698	1	-9
529.038	1	-2
529.378	1	7
529.718	1	9
530.058	1	1
530.399	1	3
530.739	1	3
531.079	1	0
531.419	1	6
531.760	1	0
532.100	1	0
532.440	1	6
532.780	1	-5
533.120	1	-3
533.461	1	2
533.801	1	6
534.141	1	-6
534.481	1	0
534.821	1	1
535.162	1	2
535.502	1	-3
535.842	1	0
536.182	1	3
536.522	1	0
536.862	1	2
537.203	1	0
537.543	1	-2
537.883	1	3
538.223	1	-5
538.563	1	-4
538.903	1	2
539.243	1	2
539.584	1	0
539.924	1	-7
540.264	1	7
540.604	1	-9
540.944	1	-6
541.284	1	9
541.624	1	-6
541.964	1	2
542.305	1	-8
542.645	1	3
542.985	1	2
543.325	1	-5
543.665	1	3
544.005	1	7
544.345	1	3
544.685	1	6
545.025	1	-1
545.365	1	5
545.705	1	3
546.045	1	0
546.386	1	1
546.726	1	0
547.066	1	10
547.406	1	-1
547.746	1	2
548.086	1	4
548.426	1	4
548.766	1	7
549.106	1	1
549.446	1	12
549.786	1	2
550.126	1	3
550.466	1	1
550.806	1	2
551.146	1	3
551.486	1	7
551.826	1	4
552.166	1	-2
552.506	1	4
552.846	1	-3
553.186	1	5
553.526	1	-6
553.866	1	-7
554.206	1	0
554.546	1	-2
554.886	1	-7
555.226	1	-7
555.566	1	-3
555.906	1	-3
556.246	1	4
556.586	1	-6
556.926	1	-2
557.266	1	7
557.606	1	3
557.946	1	5
558.286	1	-5
558.626	1	7
558.966	1	-1
559.306	1	-1
559.646	1	-2
559.986	1	-3
560.325	1	-3
560.665	1	-1
561.005	1	-4
561.345	1	-7
561.685	1	-7
562.025	1	-8
562.365	1	2
562.705	1	-1
563.045	1	-2
563.385	1	-1
563.725	1	-8
564.064	1	3
564.404	1	-2
564.744	1	-2
565.084	1	0
565.424	1	5
565.764	1	-4
566.104	1	-3
566.444	1	-7
566.783	1	3
567.123	1	-4
567.463	1	-4
567.803	1	-2
568.143	1	-1
568.483	1	4
568.823	1	-5
569.162	1	0
569.502	1	-4
569.842	1	-2
570.182	1	0
570.522	1	3
570.862	1	0
571.201	1	1
571.541	1	-9
571.881	1	-6
572.221	1	-7
572.561	1	6
572.900	1	-4
573.240	1	7
573.580	1	-5
573.920	1	6
574.260	1	4
574.599	1	-1
574.939	1	-10
575.279	1	-4
575.619	1	10
575.959	1	-9
576.298	1	3
576.638	1	0
576.978	1	-4
577.318	1	8
577.657	1	9
577.997	1	-3
578.337	1	4
578.677	1	-3
579.016	1	14
579.356	1	-3
579.696	1	-2
580.036	1	6
580.375	1	3
580.715	1	10
581.055	1	1
581.394	1	2
581.734	1	4
582.074	1	2
582.414	1	-7
582.753	1	-5
583.093	1	7
583.433	1	8
583.772	1	2
584.112	1	-4
584.452	1	-3
584.791	1	-4
585.131	1	6
585.471	1	4
585.811	1	-6
586.150	1	-6
586.490	1	6
586.830	1	-10
587.169	1	14
587.509	1	8
587.849	1	-3
588.188	1	6
588.528	1	3
588.867	1	5
589.207	1	-10
589.547	1	1
589.886	1	-8
590.226	1	6
590.566	1	-1
590.905	1	11
591.245	1	1
591.585	1	1
591.924	1	-1
592.264	1	-10
592.603	1	-5
592.943	1	-2
593.283	1	6
593.622	1	-14
593.962	1	-3
594.301	1	8
594.641	1	-3
594.981	1	14
595.320	1	-3
595.660	1	3
595.999	1	-10
596.339	1	7
596.678	1	-4
597.018	1	-9
597.358	1	-13
597.697	1	-1
598.037	1	2
598.376	1	0
598.716	1	-5
599.055	1	2
599.395	1	-6
599.734	1	7
600.074	1	-6
600.413	1	-6
600.753	1	0
601.092	1	-1
601.432	1	-12
601.771	1	3
602.111	1	1
602.451	1	-2
602.790	1	7
603.130	1	0
603.469	1	6
603.809	1	6
604.148	1	3
604.487	1	2
604.827	1	-7
605.166	1	4
605.506	1	-6
605.845	1	0
606.185	1	2
606.524	1	3
606.864	1	-1
607.203	1	5
607.543	1	2
607.882	1	-3
608.222	1	-3
608.561	1	4
608.901	1	2
609.240	1	-5
609.579	1	-5
609.919	1	-10
610.258	1	13
610.598	1	10
610.937	1	3
611.277	1	-3
611.616	1	3
611.955	1	6
612.295	1	-4
612.634	1	-10
612.974	1	-4
613.313	1	0
613.652	1	9
613.992	1	-6
614.331	1	-6
614.671	1	8
615.010	1	8
615.349	1	1
615.689	1	8
616.028	1	2
616.368	1	-13
616.707	1	4
617.046	1	-3
617.386	1	-10
617.725	1	4
618.064	1	-1
618.404	1	-5
618.743	1	4
619.082	1	8
619.422	1	-10
619.761	1	-3
620.100	1	4
620.440	1	6
620.779	1	-3
621.118	1	-1
621.458	1	2
621.797	1	2
622.136	1	1
622.476	1	-8
622.815	1	1
623.154	1	5
623.494	1	7
623.833	1	0
624.172	1	2
624.511	1	11
624.851	1	-4
625.190	1	4
625.529	1	8
625.869	1	9
626.208	1	1
626.547	1	-1
626.886	1	5
627.226	1	0
627.565	1	3
627.904	1	1
628.243	1	-3
628.583	1	-4
628.922	1	-4
629.261	1	1
629.600	1	3
629.940	1	0
630.279	1	-1
630.618	1	-10
630.957	1	11
631.297	1	-1
631.636	1	11
631.975	1	-8
632.314	1	-4
632.653	1	5
632.993	1	4
633.332	1	-4
633.671	1	12
634.010	1	6
634.349	1	-9
634.689	1	0
635.028	1	4
635.367	1	1
635.706	1	-1
636.045	1	-2
636.384	1	-2
636.724	1	4
637.063	1	4
637.402	1	4
637.741	1	1
638.080	1	1
638.419	1	-2
638.759	1	4
639.098	1	-11
639.437	1	-14
639.776	1	1
640.115	1	8
640.454	1	3
640.793	1	2
641.132	1	3
641.472	1	-8
641.811	1	3
642.150	1	-1
642.489	1	-3
642.828	1	3
643.167	1	-4
643.506	1	7
643.845	1	-2
644.184	1	2
644.524	1	4
644.863	1	-5
645.202	1	10
645.541	1	-2
645.880	1	13
646.219	1	0
646.558	1	2
646.897	1	2
647.236	1	-6
647.575	1	-4
647.914	1	0
648.253	1	-8
648.592	1	3
648.931	1	7
649.270	1	-3
649.610	1	0
649.949	1	1
650.288	1	4
650.627	1	-6
650.966	1	6
651.305	1	-11
651.644	1	-4
651.983	1	-1
652.322	1	1
652.661	1	7
653.000	1	-3
653.339	1	-3
653.678	1	6
654.017	1	9
654.356	1	-8
654.695	1	11
655.034	1	-5
655.373	1	0
655.712	1	-7
656.051	1	-1
656.390	1	-3
656.729	1	2
657.068	1	4
657.406	1	-6
657.745	1	7
658.084	1	-7
658.423	1	-3
658.762	1	1
659.101	1	0
659.440	1	-2
659.779	1	0
660.118	1	-1
660.457	1	8
660.796	1	-1
661.135	1	-9
661.474	1	3
661.813	1	-1
662.152	1	6
662.491	1	-2
662.829	1	-5
663.168	1	-7
663.507	1	-7
663.846	1	-1
664.185	1	3
664.524	1	6
664.863	1	-2
665.202	1	18
665.541	1	7
665.879	1	9
666.218	1	7
666.557	1	9
666.896	1	-5
667.235	1	7
667.574	1	-8
667.913	1	-5
668.251	1	-2
668.590	1	-6
668.929	1	4
669.268	1	0
669.607	1	-7
669.946	1	1
670.285	1	12
670.623	1	4
670.962	1	-11
671.301	1	3
671.640	1	-2
671.979	1	-2
672.317	1	4
672.656	1	2
672.995	1	-1
673.334	1	-3
673.673	1	1
674.011	1	-5
674.350	1	0
674.689	1	3
675.028	1	-3
675.367	1	0
675.705	1	2
676.044	1	3
676.383	1	-1
676.722	1	6
677.060	1	3
677.399	1	1
677.738	1	4
678.077	1	-1
678.416	1	-1
678.754	1	0
679.093	1	7
679.432	1	6
679.771	1	3
680.109	1	-1
680.448	1	5
680.787	1	-5
681.125	1	1
681.464	1	-1
681.803	1	7
682.142	1	-9
682.480	1	2
682.819	1	12
683.158	1	-12
683.496	1	1
683.835	1	-3
684.174	1	-4
684.512	1	7
684.851	1	-4
685.190	1	-9
685.529	1	5
685.867	1	1
686.206	1	-3
686.545	1	12
686.883	1	3
687.222	1	-3
687.561	1	4
687.899	1	-14
688.238	1	-6
688.577	1	3
688.746	1	-5