File: Data/GaN_170K_550ms/GaN_sample D_spot 18_UVVIS_170 K_200um_550 ms 2x2mm1_91.txt
340.368	1	-6
340.710	1	-7
341.052	1	7
341.394	1	-1
341.737	1	7
342.079	1	1
342.421	1	13
342.763	1	3
343.105	1	14
343.447	1	-8
343.789	1	7
344.131	1	3
344.473	1	7
344.815	1	11
345.157	1	3
345.499	1	-1
345.841	1	6
346.183	1	1
346.526	1	9
346.868	1	8
347.210	1	-1
347.552	1	11
347.894	1	14
348.236	1	4
348.578	1	3
348.920	1	17
349.262	1	8
349.604	1	13
349.946	1	11
350.288	1	3
350.630	1	8
350.972	1	4
351.314	1	8
351.656	1	1
351.998	1	14
352.340	1	12
352.682	1	1
353.024	1	9
353.366	1	2
353.708	1	14
354.050	1	4
354.392	1	5
354.734	1	6
355.076	1	5
355.418	1	3
355.760	1	7
356.102	1	13
356.444	1	11
356.785	1	11
357.127	1	8
357.469	1	15
357.811	1	15
358.153	1	13
358.495	1	18
358.837	1	22
359.179	1	19
359.521	1	23
359.863	1	27
360.205	1	32
360.547	1	27
360.889	1	44
361.231	1	32
361.572	1	41
361.914	1	30
362.256	1	45
362.598	1	54
362.940	1	62
363.282	1	57
363.624	1	53
363.966	1	62
364.308	1	68
364.649	1	63
364.991	1	75
365.333	1	74
365.675	1	92
366.017	1	81
366.359	1	93
366.701	1	109
367.042	1	106
367.384	1	116
367.726	1	117
368.068	1	117
368.410	1	132
368.752	1	124
369.093	1	114
369.435	1	121
369.777	1	118
370.119	1	108
370.461	1	114
370.803	1	95
371.144	1	101
371.486	1	88
371.828	1	95
372.170	1	104
372.512	1	88
372.853	1	88
373.195	1	77
373.537	1	79
373.879	1	79
374.220	1	74
374.562	1	70
374.904	1	45
375.246	1	57
375.588	1	54
375.929	1	52
376.271	1	55
376.613	1	47
376.955	1	50
377.296	1	45
377.638	1	54
377.980	1	32
378.321	1	41
378.663	1	39
379.005	1	30
379.347	1	46
379.688	1	38
380.030	1	33
380.372	1	32
380.714	1	42
381.055	1	33
381.397	1	28
381.739	1	18
382.080	1	26
382.422	1	22
382.764	1	15
383.105	1	32
383.447	1	25
383.789	1	27
384.130	1	13
384.472	1	12
384.814	1	28
385.156	1	23
385.497	1	22
385.839	1	16
386.180	1	19
386.522	1	19
386.864	1	18
387.205	1	2
387.547	1	12
387.889	1	14
388.230	1	19
388.572	1	17
388.914	1	15
389.255	1	16
389.597	1	21
389.939	1	10
390.280	1	19
390.622	1	4
390.963	1	4
391.305	1	11
391.647	1	8
391.988	1	22
392.330	1	5
392.671	1	7
393.013	1	9
393.355	1	15
393.696	1	11
394.038	1	11
394.379	1	2
394.721	1	11
395.062	1	-3
395.404	1	14
395.746	1	9
396.087	1	17
396.429	1	11
396.770	1	11
397.112	1	-2
397.453	1	21
397.795	1	1
398.136	1	8
398.478	1	1
398.819	1	8
399.161	1	-1
399.503	1	9
399.844	1	-7
400.186	1	-6
400.527	1	17
400.869	1	5
401.210	1	6
401.552	1	4
401.893	1	4
402.235	1	9
402.576	1	3
402.918	1	5
403.259	1	4
403.601	1	14
403.942	1	9
404.284	1	-5
404.625	1	10
404.967	1	7
405.308	1	2
405.649	1	3
405.991	1	10
406.332	1	1
406.674	1	13
407.015	1	21
407.357	1	-3
407.698	1	5
408.040	1	4
408.381	1	6
408.722	1	-3
409.064	1	4
409.405	1	7
409.747	1	5
410.088	1	13
410.430	1	6
410.771	1	10
411.112	1	9
411.454	1	4
411.795	1	11
412.137	1	-5
412.478	1	4
412.819	1	3
413.161	1	5
413.502	1	7
413.844	1	8
414.185	1	2
414.526	1	8
414.868	1	9
415.209	1	-6
415.550	1	4
415.892	1	0
416.233	1	-3
416.575	1	6
416.916	1	-4
417.257	1	5
417.599	1	-2
417.940	1	10
418.281	1	-10
418.623	1	5
418.964	1	-4
419.305	1	-2
419.647	1	6
419.988	1	9
420.329	1	0
420.671	1	-6
421.012	1	6
421.353	1	4
421.695	1	4
422.036	1	8
422.377	1	3
422.718	1	10
423.060	1	0
423.401	1	13
423.742	1	-6
424.084	1	19
424.425	1	-1
424.766	1	4
425.107	1	-2
425.449	1	6
425.790	1	8
426.131	1	7
426.472	1	5
426.814	1	-11
427.155	1	9
427.496	1	2
427.837	1	-1
428.179	1	9
428.520	1	2
428.861	1	5
429.202	1	2
429.544	1	3
429.885	1	1
430.226	1	10
430.567	1	2
430.909	1	2
431.250	1	16
431.591	1	-2
431.932	1	6
432.273	1	2
432.615	1	-5
432.956	1	10
433.297	1	4
433.638	1	8
433.979	1	6
434.320	1	5
434.662	1	-7
435.003	1	4
435.344	1	1
435.685	1	10
436.026	1	-3
436.368	1	8
436.709	1	-1
437.050	1	-1
437.391	1	-1
437.732	1	12
438.073	1	1
438.414	1	-4
438.756	1	2
439.097	1	5
439.438	1	7
439.779	1	18
440.120	1	-2
440.461	1	17
440.802	1	13
441.143	1	3
441.485	1	-2
441.826	1	15
442.167	1	6
442.508	1	-1
442.849	1	0
443.190	1	6
443.531	1	5
443.872	1	-5
444.213	1	8
444.554	1	2
444.895	1	-5
445.237	1	-3
445.578	1	6
445.919	1	7
446.260	1	7
446.601	1	-7
446.942	1	14
447.283	1	13
447.624	1	0
447.965	1	0
448.306	1	3
448.647	1	2
448.988	1	12
449.329	1	7
449.670	1	-7
450.011	1	6
450.352	1	-5
450.693	1	4
451.034	1	7
451.375	1	8
451.716	1	15
452.057	1	4
452.398	1	5
452.739	1	13
453.080	1	-4
453.421	1	4
453.762	1	0
454.103	1	1
454.444	1	3
454.785	1	6
455.126	1	9
455.467	1	-14
455.808	1	10
456.149	1	6
456.490	1	0
456.831	1	-2
457.172	1	-12
457.513	1	15
457.854	1	8
458.195	1	-3
458.536	1	2
458.877	1	13
459.218	1	4
459.559	1	-6
459.899	1	1
460.240	1	7
460.581	1	6
460.922	1	7
461.263	1	-3
461.604	1	9
461.945	1	3
462.286	1	-3
462.627	1	12
462.968	1	9
463.309	1	8
463.649	1	5
463.990	1	7
464.331	1	-1
464.672	1	8
465.013	1	6
465.354	1	-3
465.695	1	13
466.036	1	-8
466.376	1	5
466.717	1	2
467.058	1	11
467.399	1	12
467.740	1	8
468.081	1	-2
468.422	1	10
468.762	1	10
469.103	1	9
469.444	1	1
469.785	1	-1
470.126	1	4
470.467	1	13
470.807	1	4
471.148	1	9
471.489	1	5
471.830	1	-6
472.171	1	13
472.511	1	5
472.852	1	7
473.193	1	3
473.534	1	6
473.875	1	3
474.215	1	3
474.556	1	12
474.897	1	4
475.238	1	-1
475.578	1	10
475.919	1	9
476.260	1	10
476.601	1	2
476.942	1	-1
477.282	1	11
477.623	1	8
477.964	1	8
478.305	1	7
478.645	1	10
478.986	1	-4
479.327	1	-6
479.667	1	1
480.008	1	8
480.349	1	12
480.690	1	8
481.030	1	10
481.371	1	3
481.712	1	-1
482.053	1	-3
482.393	1	1
482.734	1	6
483.075	1	-1
483.415	1	1
483.756	1	5
484.097	1	-7
484.437	1	1
484.778	1	0
485.119	1	3
485.459	1	-1
485.800	1	-8
486.141	1	16
486.481	1	7
486.822	1	5
487.163	1	9
487.503	1	8
487.844	1	6
488.185	1	2
488.525	1	9
488.866	1	21
489.207	1	14
489.547	1	13
489.888	1	9
490.228	1	5
490.569	1	3
490.910	1	10
491.250	1	16
491.591	1	10
491.932	1	17
492.272	1	17
492.613	1	12
492.953	1	10
493.294	1	5
493.635	1	10
493.975	1	12
494.316	1	16
494.656	1	14
494.997	1	12
495.337	1	15
495.678	1	12
496.019	1	-3
496.359	1	14
496.700	1	16
497.040	1	9
497.381	1	9
497.721	1	3
498.062	1	14
498.403	1	18
498.743	1	15
499.084	1	6
499.424	1	21
499.765	1	0
500.105	1	7
500.446	1	14
500.786	1	13
501.127	1	12
501.467	1	16
501.808	1	2
502.148	1	20
502.489	1	12
502.829	1	17
503.170	1	20
503.510	1	12
503.851	1	11
504.191	1	9
504.532	1	5
504.872	1	22
505.213	1	13
505.553	1	16
505.894	1	22
506.234	1	11
506.575	1	13
506.915	1	21
507.256	1	10
507.596	1	18
507.936	1	23
508.277	1	5
508.617	1	19
508.958	1	13
509.298	1	16
509.639	1	20
509.979	1	27
510.319	1	11
510.660	1	2
511.000	1	11
511.341	1	21
511.681	1	11
512.022	1	17
512.362	1	4
512.702	1	14
513.043	1	21
513.383	1	21
513.724	1	19
514.064	1	21
514.404	1	4
514.745	1	21
515.085	1	19
515.425	1	14
515.766	1	13
516.106	1	15
516.447	1	8
516.787	1	19
517.127	1	18
517.468	1	29
517.808	1	20
518.148	1	16
518.489	1	29
518.829	1	10
519.169	1	14
519.510	1	22
519.850	1	13
520.190	1	13
520.531	1	23
520.871	1	19
521.211	1	17
521.552	1	24
521.892	1	20
522.232	1	6
522.573	1	18
522.913	1	14
523.253	1	22
523.593	1	16
523.934	1	25
524.274	1	18
524.614	1	18
524.955	1	17
525.295	1	23
525.635	1	32
525.975	1	17
526.316	1	29
526.656	1	26
526.996	1	21
527.337	1	29
527.677	1	6
528.017	1	26
528.357	1	10
528.698	1	6
529.038	1	11
529.378	1	21
529.718	1	38
530.058	1	31
530.399	1	26
530.739	1	21
531.079	1	20
531.419	1	29
531.760	1	26
532.100	1	21
532.440	1	30
532.780	1	9
533.120	1	16
533.461	1	18
533.801	1	22
534.141	1	11
534.481	1	25
534.821	1	29
535.162	1	24
535.502	1	19
535.842	1	14
536.182	1	14
536.522	1	14
536.862	1	16
537.203	1	18
537.543	1	2
537.883	1	21
538.223	1	17
538.563	1	18
538.903	1	20
539.243	1	11
539.584	1	11
539.924	1	14
540.264	1	28
540.604	1	19
540.944	1	14
541.284	1	23
541.624	1	7
541.964	1	15
542.305	1	19
542.645	1	5
542.985	1	17
543.325	1	14
543.665	1	18
544.005	1	26
544.345	1	19
544.685	1	20
545.025	1	12
545.365	1	21
545.705	1	22
546.045	1	21
546.386	1	20
546.726	1	12
547.066	1	24
547.406	1	16
547.746	1	7
548.086	1	15
548.426	1	25
548.766	1	16
549.106	1	27
549.446	1	16
549.786	1	10
550.126	1	16
550.466	1	6
550.806	1	16
551.146	1	25
551.486	1	14
551.826	1	15
552.166	1	20
552.506	1	20
552.846	1	12
553.186	1	18
553.526	1	10
553.866	1	3
554.206	1	8
554.546	1	11
554.886	1	10
555.226	1	1
555.566	1	15
555.906	1	11
556.246	1	18
556.586	1	14
556.926	1	14
557.266	1	12
557.606	1	17
557.946	1	21
558.286	1	3
558.626	1	24
558.966	1	16
559.306	1	30
559.646	1	9
559.986	1	19
560.325	1	6
560.665	1	12
561.005	1	7
561.345	1	4
561.685	1	14
562.025	1	2
562.365	1	12
562.705	1	13
563.045	1	8
563.385	1	9
563.725	1	11
564.064	1	18
564.404	1	13
564.744	1	20
565.084	1	14
565.424	1	10
565.764	1	9
566.104	1	14
566.444	1	13
566.783	1	9
567.123	1	12
567.463	1	4
567.803	1	7
568.143	1	15
568.483	1	-2
568.823	1	14
569.162	1	20
569.502	1	2
569.842	1	8
570.182	1	12
570.522	1	8
570.862	1	7
571.201	1	17
571.541	1	5
571.881	1	12
572.221	1	12
572.561	1	11
572.900	1	5
573.240	1	18
573.580	1	5
573.920	1	21
574.260	1	13
574.599	1	12
574.939	1	8
575.279	1	9
575.619	1	11
575.959	1	-1
576.298	1	8
576.638	1	15
576.978	1	7
577.318	1	10
577.657	1	14
577.997	1	6
578.337	1	7
578.677	1	6
579.016	1	12
579.356	1	9
579.696	1	8
580.036	1	8
580.375	1	14
580.715	1	17
581.055	1	9
581.394	1	9
581.734	1	20
582.074	1	7
582.414	1	-3
582.753	1	10
583.093	1	15
583.433	1	16
583.772	1	14
584.112	1	13
584.452	1	8
584.791	1	5
585.131	1	16
585.471	1	18
585.811	1	0
586.150	1	5
586.490	1	14
586.830	1	4
587.169	1	15
587.509	1	7
587.849	1	10
588.188	1	4
588.528	1	2
588.867	1	5
589.207	1	-1
589.547	1	13
589.886	1	4
590.226	1	7
590.566	1	7
590.905	1	12
591.245	1	5
591.585	1	12
591.924	1	5
592.264	1	-6
592.603	1	2
592.943	1	1
593.283	1	16
593.622	1	0
593.962	1	9
594.301	1	8
594.641	1	15
594.981	1	14
595.320	1	7
595.660	1	1
595.999	1	7
596.339	1	11
596.678	1	3
597.018	1	6
597.358	1	0
597.697	1	4
598.037	1	4
598.376	1	-4
598.716	1	8
599.055	1	1
599.395	1	4
599.734	1	10
600.074	1	3
600.413	1	8
600.753	1	10
601.092	1	7
601.432	1	-1
601.771	1	11
602.111	1	0
602.451	1	9
602.790	1	9
603.130	1	-4
603.469	1	0
603.809	1	5
604.148	1	14
604.487	1	1
604.827	1	6
605.166	1	7
605.506	1	1
605.845	1	14
606.185	1	7
606.524	1	-5
606.864	1	7
607.203	1	1
607.543	1	9
607.882	1	6
608.222	1	11
608.561	1	7
608.901	1	14
609.240	1	-4
609.579	1	8
609.919	1	4
610.258	1	11
610.598	1	10
610.937	1	8
611.277	1	6
611.616	1	3
611.955	1	4
612.295	1	5
612.634	1	9
612.974	1	9
613.313	1	5
613.652	1	15
613.992	1	4
614.331	1	2
614.671	1	4
615.010	1	5
615.349	1	12
615.689	1	17
616.028	1	9
616.368	1	6
616.707	1	12
617.046	1	4
617.386	1	1
617.725	1	2
618.064	1	-3
618.404	1	-1
618.743	1	5
619.082	1	10
619.422	1	-1
619.761	1	-6
620.100	1	-1
620.440	1	4
620.779	1	-1
621.118	1	0
621.458	1	1
621.797	1	2
622.136	1	0
622.476	1	4
622.815	1	4
623.154	1	6
623.494	1	12
623.833	1	8
624.172	1	-3
624.511	1	18
624.851	1	6
625.190	1	2
625.529	1	16
625.869	1	14
626.208	1	8
626.547	1	2
626.886	1	8
627.226	1	8
627.565	1	8
627.904	1	7
628.243	1	7
628.583	1	1
628.922	1	-17
629.261	1	9
629.600	1	1
629.940	1	2
630.279	1	6
630.618	1	0
630.957	1	6
631.297	1	4
631.636	1	7
631.975	1	6
632.314	1	3
632.653	1	14
632.993	1	0
633.332	1	13
633.671	1	-2
634.010	1	5
634.349	1	-4
634.689	1	10
635.028	1	8
635.367	1	-1
635.706	1	0
636.045	1	9
636.384	1	-5
636.724	1	11
637.063	1	9
637.402	1	8
637.741	1	6
638.080	1	6
638.419	1	-5
638.759	1	4
639.098	1	1
639.437	1	0
639.776	1	-1
640.115	1	10
640.454	1	3
640.793	1	2
641.132	1	2
641.472	1	5
641.811	1	20
642.150	1	0
642.489	1	-5
642.828	1	5
643.167	1	-4
643.506	1	15
643.845	1	4
644.184	1	18
644.524	1	4
644.863	1	-7
645.202	1	11
645.541	1	6
645.880	1	10
646.219	1	4
646.558	1	8
646.897	1	10
647.236	1	1
647.575	1	1
647.914	1	1
648.253	1	2
648.592	1	8
648.931	1	5
649.270	1	-7
649.610	1	8
649.949	1	-5
650.288	1	8
650.627	1	-9
650.966	1	7
651.305	1	-10
651.644	1	9
651.983	1	2
652.322	1	-2
652.661	1	4
653.000	1	7
653.339	1	0
653.678	1	1
654.017	1	9
654.356	1	-3
654.695	1	8
655.034	1	-5
655.373	1	4
655.712	1	-4
656.051	1	4
656.390	1	7
656.729	1	-2
657.068	1	2
657.406	1	3
657.745	1	8
658.084	1	-1
658.423	1	9
658.762	1	-2
659.101	1	9
659.440	1	3
659.779	1	-1
660.118	1	5
660.457	1	11
660.796	1	2
661.135	1	-6
661.474	1	5
661.813	1	3
662.152	1	-3
662.491	1	-4
662.829	1	6
663.168	1	1
663.507	1	5
663.846	1	6
664.185	1	12
664.524	1	11
664.863	1	5
665.202	1	16
665.541	1	5
665.879	1	12
666.218	1	16
666.557	1	6
666.896	1	-10
667.235	1	3
667.574	1	-2
667.913	1	-5
668.251	1	8
668.590	1	2
668.929	1	3
669.268	1	-3
669.607	1	-1
669.946	1	14
670.285	1	11
670.623	1	4
670.962	1	-1
671.301	1	4
671.640	1	9
671.979	1	8
672.317	1	8
672.656	1	10
672.995	1	-5
673.334	1	3
673.673	1	15
674.011	1	5
674.350	1	9
674.689	1	3
675.028	1	0
675.367	1	-5
675.705	1	5
676.044	1	6
676.383	1	3
676.722	1	22
677.060	1	-5
677.399	1	9
677.738	1	3
678.077	1	16
678.416	1	6
678.754	1	4
679.093	1	8
679.432	1	5
679.771	1	5
680.109	1	-5
680.448	1	-2
680.787	1	3
681.125	1	13
681.464	1	3
681.803	1	6
682.142	1	-5
682.480	1	7
682.819	1	13
683.158	1	-2
683.496	1	7
683.835	1	1
684.174	1	11
684.512	1	4
684.851	1	11
685.190	1	4
685.529	1	16
685.867	1	3
686.206	1	19
686.545	1	6
686.883	1	4
687.222	1	5
687.561	1	8
687.899	1	-3
688.238	1	-6
688.577	1	14
688.746	1	4