File: Data/GaN_170K_550ms/GaN_sample D_spot 18_UVVIS_170 K_200um_550 ms 2x2mm1_80.txt
340.368	1	3
340.710	1	-6
341.052	1	7
341.394	1	4
341.737	1	-4
342.079	1	2
342.421	1	1
342.763	1	3
343.105	1	8
343.447	1	-1
343.789	1	2
344.131	1	-1
344.473	1	9
344.815	1	12
345.157	1	-3
345.499	1	-5
345.841	1	1
346.183	1	7
346.526	1	16
346.868	1	3
347.210	1	1
347.552	1	9
347.894	1	6
348.236	1	0
348.578	1	10
348.920	1	4
349.262	1	4
349.604	1	14
349.946	1	13
350.288	1	2
350.630	1	22
350.972	1	-1
351.314	1	5
351.656	1	5
351.998	1	9
352.340	1	13
352.682	1	8
353.024	1	11
353.366	1	1
353.708	1	11
354.050	1	7
354.392	1	13
354.734	1	18
355.076	1	22
355.418	1	2
355.760	1	10
356.102	1	20
356.444	1	10
356.785	1	13
357.127	1	13
357.469	1	17
357.811	1	20
358.153	1	23
358.495	1	19
358.837	1	23
359.179	1	14
359.521	1	31
359.863	1	33
360.205	1	48
360.547	1	43
360.889	1	53
361.231	1	45
361.572	1	63
361.914	1	50
362.256	1	52
362.598	1	60
362.940	1	69
363.282	1	70
363.624	1	79
363.966	1	76
364.308	1	85
364.649	1	97
364.991	1	122
365.333	1	123
365.675	1	132
366.017	1	137
366.359	1	138
366.701	1	147
367.042	1	168
367.384	1	184
367.726	1	186
368.068	1	192
368.410	1	186
368.752	1	189
369.093	1	188
369.435	1	168
369.777	1	176
370.119	1	160
370.461	1	171
370.803	1	168
371.144	1	157
371.486	1	145
371.828	1	136
372.170	1	133
372.512	1	110
372.853	1	116
373.195	1	104
373.537	1	115
373.879	1	98
374.220	1	108
374.562	1	89
374.904	1	94
375.246	1	87
375.588	1	80
375.929	1	77
376.271	1	70
376.613	1	86
376.955	1	68
377.296	1	62
377.638	1	55
377.980	1	61
378.321	1	55
378.663	1	58
379.005	1	47
379.347	1	53
379.688	1	46
380.030	1	38
380.372	1	45
380.714	1	54
381.055	1	45
381.397	1	40
381.739	1	24
382.080	1	36
382.422	1	41
382.764	1	34
383.105	1	40
383.447	1	42
383.789	1	34
384.130	1	25
384.472	1	26
384.814	1	24
385.156	1	17
385.497	1	36
385.839	1	16
386.180	1	33
386.522	1	35
386.864	1	27
387.205	1	23
387.547	1	33
387.889	1	26
388.230	1	12
388.572	1	11
388.914	1	22
389.255	1	17
389.597	1	10
389.939	1	12
390.280	1	17
390.622	1	6
390.963	1	17
391.305	1	16
391.647	1	11
391.988	1	13
392.330	1	14
392.671	1	6
393.013	1	7
393.355	1	16
393.696	1	19
394.038	1	9
394.379	1	10
394.721	1	7
395.062	1	9
395.404	1	14
395.746	1	18
396.087	1	11
396.429	1	19
396.770	1	17
397.112	1	9
397.453	1	14
397.795	1	7
398.136	1	14
398.478	1	9
398.819	1	6
399.161	1	-2
399.503	1	4
399.844	1	3
400.186	1	1
400.527	1	16
400.869	1	6
401.210	1	7
401.552	1	13
401.893	1	12
402.235	1	3
402.576	1	2
402.918	1	12
403.259	1	7
403.601	1	10
403.942	1	6
404.284	1	-7
404.625	1	9
404.967	1	14
405.308	1	15
405.649	1	5
405.991	1	7
406.332	1	7
406.674	1	9
407.015	1	18
407.357	1	6
407.698	1	9
408.040	1	12
408.381	1	9
408.722	1	2
409.064	1	0
409.405	1	10
409.747	1	3
410.088	1	5
410.430	1	-1
410.771	1	3
411.112	1	2
411.454	1	8
411.795	1	15
412.137	1	-6
412.478	1	-2
412.819	1	-1
413.161	1	13
413.502	1	2
413.844	1	13
414.185	1	3
414.526	1	15
414.868	1	6
415.209	1	-8
415.550	1	5
415.892	1	6
416.233	1	11
416.575	1	5
416.916	1	2
417.257	1	14
417.599	1	2
417.940	1	4
418.281	1	-2
418.623	1	7
418.964	1	-12
419.305	1	10
419.647	1	6
419.988	1	8
420.329	1	-3
420.671	1	-3
421.012	1	3
421.353	1	6
421.695	1	0
422.036	1	5
422.377	1	6
422.718	1	12
423.060	1	-11
423.401	1	4
423.742	1	-5
424.084	1	28
424.425	1	-4
424.766	1	2
425.107	1	2
425.449	1	2
425.790	1	12
426.131	1	12
426.472	1	3
426.814	1	-1
427.155	1	9
427.496	1	5
427.837	1	11
428.179	1	2
428.520	1	2
428.861	1	9
429.202	1	-5
429.544	1	5
429.885	1	2
430.226	1	1
430.567	1	17
430.909	1	5
431.250	1	19
431.591	1	1
431.932	1	-4
432.273	1	-3
432.615	1	11
432.956	1	10
433.297	1	5
433.638	1	8
433.979	1	5
434.320	1	9
434.662	1	-3
435.003	1	15
435.344	1	4
435.685	1	5
436.026	1	3
436.368	1	10
436.709	1	7
437.050	1	1
437.391	1	-1
437.732	1	-3
438.073	1	5
438.414	1	-2
438.756	1	-3
439.097	1	10
439.438	1	10
439.779	1	6
440.120	1	4
440.461	1	6
440.802	1	7
441.143	1	-3
441.485	1	-2
441.826	1	5
442.167	1	7
442.508	1	5
442.849	1	0
443.190	1	5
443.531	1	7
443.872	1	5
444.213	1	9
444.554	1	-1
444.895	1	-21
445.237	1	-2
445.578	1	7
445.919	1	5
446.260	1	-5
446.601	1	-9
446.942	1	11
447.283	1	14
447.624	1	-5
447.965	1	8
448.306	1	-1
448.647	1	8
448.988	1	15
449.329	1	4
449.670	1	-1
450.011	1	10
450.352	1	4
450.693	1	5
451.034	1	-3
451.375	1	6
451.716	1	12
452.057	1	4
452.398	1	7
452.739	1	7
453.080	1	2
453.421	1	3
453.762	1	-1
454.103	1	-1
454.444	1	-6
454.785	1	-5
455.126	1	15
455.467	1	6
455.808	1	12
456.149	1	6
456.490	1	7
456.831	1	-3
457.172	1	2
457.513	1	12
457.854	1	10
458.195	1	5
458.536	1	3
458.877	1	11
459.218	1	-2
459.559	1	4
459.899	1	1
460.240	1	1
460.581	1	10
460.922	1	6
461.263	1	11
461.604	1	13
461.945	1	0
462.286	1	-4
462.627	1	2
462.968	1	12
463.309	1	3
463.649	1	8
463.990	1	-3
464.331	1	0
464.672	1	2
465.013	1	7
465.354	1	-5
465.695	1	11
466.036	1	-2
466.376	1	13
466.717	1	0
467.058	1	6
467.399	1	16
467.740	1	9
468.081	1	-6
468.422	1	12
468.762	1	19
469.103	1	16
469.444	1	6
469.785	1	-2
470.126	1	-2
470.467	1	3
470.807	1	2
471.148	1	4
471.489	1	3
471.830	1	12
472.171	1	15
472.511	1	11
472.852	1	10
473.193	1	7
473.534	1	5
473.875	1	4
474.215	1	7
474.556	1	10
474.897	1	13
475.238	1	4
475.578	1	5
475.919	1	6
476.260	1	9
476.601	1	10
476.942	1	-2
477.282	1	13
477.623	1	9
477.964	1	11
478.305	1	6
478.645	1	7
478.986	1	1
479.327	1	-4
479.667	1	-3
480.008	1	6
480.349	1	12
480.690	1	6
481.030	1	7
481.371	1	3
481.712	1	7
482.053	1	-2
482.393	1	0
482.734	1	7
483.075	1	10
483.415	1	4
483.756	1	-1
484.097	1	1
484.437	1	9
484.778	1	5
485.119	1	17
485.459	1	4
485.800	1	1
486.141	1	17
486.481	1	8
486.822	1	10
487.163	1	18
487.503	1	10
487.844	1	14
488.185	1	8
488.525	1	19
488.866	1	10
489.207	1	18
489.547	1	15
489.888	1	17
490.228	1	3
490.569	1	13
490.910	1	4
491.250	1	13
491.591	1	12
491.932	1	19
492.272	1	10
492.613	1	11
492.953	1	11
493.294	1	5
493.635	1	14
493.975	1	13
494.316	1	5
494.656	1	9
494.997	1	15
495.337	1	18
495.678	1	11
496.019	1	-4
496.359	1	18
496.700	1	15
497.040	1	19
497.381	1	18
497.721	1	8
498.062	1	12
498.403	1	16
498.743	1	10
499.084	1	16
499.424	1	25
499.765	1	11
500.105	1	17
500.446	1	11
500.786	1	15
501.127	1	11
501.467	1	23
501.808	1	14
502.148	1	26
502.489	1	23
502.829	1	20
503.170	1	20
503.510	1	11
503.851	1	22
504.191	1	15
504.532	1	6
504.872	1	19
505.213	1	11
505.553	1	14
505.894	1	28
506.234	1	7
506.575	1	20
506.915	1	25
507.256	1	21
507.596	1	28
507.936	1	26
508.277	1	8
508.617	1	25
508.958	1	18
509.298	1	21
509.639	1	25
509.979	1	32
510.319	1	17
510.660	1	16
511.000	1	26
511.341	1	29
511.681	1	22
512.022	1	28
512.362	1	27
512.702	1	27
513.043	1	20
513.383	1	32
513.724	1	23
514.064	1	19
514.404	1	25
514.745	1	26
515.085	1	25
515.425	1	17
515.766	1	32
516.106	1	18
516.447	1	20
516.787	1	33
517.127	1	26
517.468	1	42
517.808	1	31
518.148	1	25
518.489	1	35
518.829	1	30
519.169	1	30
519.510	1	34
519.850	1	34
520.190	1	33
520.531	1	24
520.871	1	28
521.211	1	26
521.552	1	36
521.892	1	26
522.232	1	10
522.573	1	28
522.913	1	30
523.253	1	45
523.593	1	26
523.934	1	15
524.274	1	30
524.614	1	30
524.955	1	23
525.295	1	31
525.635	1	26
525.975	1	17
526.316	1	38
526.656	1	39
526.996	1	34
527.337	1	26
527.677	1	15
528.017	1	33
528.357	1	28
528.698	1	23
529.038	1	24
529.378	1	21
529.718	1	39
530.058	1	45
530.399	1	31
530.739	1	28
531.079	1	36
531.419	1	40
531.760	1	35
532.100	1	27
532.440	1	34
532.780	1	30
533.120	1	29
533.461	1	27
533.801	1	25
534.141	1	27
534.481	1	34
534.821	1	28
535.162	1	32
535.502	1	31
535.842	1	36
536.182	1	25
536.522	1	28
536.862	1	29
537.203	1	23
537.543	1	17
537.883	1	32
538.223	1	16
538.563	1	30
538.903	1	29
539.243	1	13
539.584	1	12
539.924	1	25
540.264	1	18
540.604	1	36
540.944	1	17
541.284	1	28
541.624	1	30
541.964	1	25
542.305	1	24
542.645	1	30
542.985	1	34
543.325	1	25
543.665	1	20
544.005	1	39
544.345	1	26
544.685	1	27
545.025	1	22
545.365	1	30
545.705	1	28
546.045	1	17
546.386	1	21
546.726	1	22
547.066	1	29
547.406	1	17
547.746	1	14
548.086	1	31
548.426	1	35
548.766	1	26
549.106	1	30
549.446	1	30
549.786	1	27
550.126	1	21
550.466	1	37
550.806	1	20
551.146	1	21
551.486	1	17
551.826	1	27
552.166	1	20
552.506	1	31
552.846	1	12
553.186	1	25
553.526	1	25
553.866	1	23
554.206	1	27
554.546	1	14
554.886	1	24
555.226	1	8
555.566	1	21
555.906	1	10
556.246	1	20
556.586	1	17
556.926	1	26
557.266	1	21
557.606	1	24
557.946	1	20
558.286	1	15
558.626	1	24
558.966	1	20
559.306	1	26
559.646	1	22
559.986	1	24
560.325	1	13
560.665	1	19
561.005	1	15
561.345	1	17
561.685	1	16
562.025	1	5
562.365	1	13
562.705	1	19
563.045	1	14
563.385	1	11
563.725	1	6
564.064	1	19
564.404	1	14
564.744	1	14
565.084	1	19
565.424	1	20
565.764	1	22
566.104	1	11
566.444	1	24
566.783	1	14
567.123	1	14
567.463	1	15
567.803	1	12
568.143	1	17
568.483	1	6
568.823	1	14
569.162	1	21
569.502	1	13
569.842	1	8
570.182	1	12
570.522	1	10
570.862	1	10
571.201	1	18
571.541	1	1
571.881	1	10
572.221	1	15
572.561	1	20
572.900	1	8
573.240	1	9
573.580	1	9
573.920	1	27
574.260	1	15
574.599	1	0
574.939	1	1
575.279	1	17
575.619	1	21
575.959	1	9
576.298	1	15
576.638	1	19
576.978	1	8
577.318	1	15
577.657	1	11
577.997	1	2
578.337	1	17
578.677	1	9
579.016	1	17
579.356	1	10
579.696	1	9
580.036	1	14
580.375	1	8
580.715	1	15
581.055	1	18
581.394	1	13
581.734	1	19
582.074	1	17
582.414	1	8
582.753	1	12
583.093	1	8
583.433	1	16
583.772	1	12
584.112	1	17
584.452	1	7
584.791	1	10
585.131	1	13
585.471	1	14
585.811	1	0
586.150	1	5
586.490	1	13
586.830	1	9
587.169	1	21
587.509	1	9
587.849	1	6
588.188	1	11
588.528	1	12
588.867	1	10
589.207	1	12
589.547	1	15
589.886	1	-2
590.226	1	9
590.566	1	7
590.905	1	14
591.245	1	5
591.585	1	11
591.924	1	8
592.264	1	13
592.603	1	-2
592.943	1	9
593.283	1	8
593.622	1	-6
593.962	1	5
594.301	1	17
594.641	1	11
594.981	1	21
595.320	1	6
595.660	1	10
595.999	1	14
596.339	1	5
596.678	1	5
597.018	1	9
597.358	1	-8
597.697	1	2
598.037	1	-3
598.376	1	-4
598.716	1	9
599.055	1	3
599.395	1	5
599.734	1	6
600.074	1	-2
600.413	1	6
600.753	1	12
601.092	1	6
601.432	1	2
601.771	1	12
602.111	1	8
602.451	1	10
602.790	1	9
603.130	1	-2
603.469	1	8
603.809	1	1
604.148	1	8
604.487	1	5
604.827	1	6
605.166	1	10
605.506	1	3
605.845	1	14
606.185	1	12
606.524	1	3
606.864	1	4
607.203	1	11
607.543	1	15
607.882	1	3
608.222	1	11
608.561	1	7
608.901	1	9
609.240	1	5
609.579	1	11
609.919	1	10
610.258	1	13
610.598	1	12
610.937	1	4
611.277	1	5
611.616	1	0
611.955	1	13
612.295	1	5
612.634	1	5
612.974	1	6
613.313	1	4
613.652	1	20
613.992	1	4
614.331	1	12
614.671	1	11
615.010	1	8
615.349	1	16
615.689	1	18
616.028	1	5
616.368	1	4
616.707	1	10
617.046	1	7
617.386	1	5
617.725	1	9
618.064	1	8
618.404	1	0
618.743	1	4
619.082	1	16
619.422	1	-1
619.761	1	0
620.100	1	-7
620.440	1	16
620.779	1	12
621.118	1	-4
621.458	1	-2
621.797	1	10
622.136	1	4
622.476	1	-6
622.815	1	9
623.154	1	0
623.494	1	2
623.833	1	2
624.172	1	0
624.511	1	14
624.851	1	1
625.190	1	10
625.529	1	7
625.869	1	7
626.208	1	-1
626.547	1	0
626.886	1	3
627.226	1	5
627.565	1	6
627.904	1	6
628.243	1	5
628.583	1	-1
628.922	1	-6
629.261	1	2
629.600	1	-2
629.940	1	8
630.279	1	1
630.618	1	2
630.957	1	10
631.297	1	3
631.636	1	13
631.975	1	4
632.314	1	8
632.653	1	2
632.993	1	-1
633.332	1	2
633.671	1	12
634.010	1	5
634.349	1	-1
634.689	1	12
635.028	1	8
635.367	1	3
635.706	1	6
636.045	1	10
636.384	1	-6
636.724	1	7
637.063	1	7
637.402	1	12
637.741	1	-4
638.080	1	14
638.419	1	5
638.759	1	-1
639.098	1	-8
639.437	1	-1
639.776	1	8
640.115	1	6
640.454	1	0
640.793	1	4
641.132	1	12
641.472	1	-5
641.811	1	20
642.150	1	4
642.489	1	4
642.828	1	5
643.167	1	0
643.506	1	9
643.845	1	15
644.184	1	18
644.524	1	8
644.863	1	1
645.202	1	8
645.541	1	9
645.880	1	10
646.219	1	5
646.558	1	13
646.897	1	15
647.236	1	1
647.575	1	0
647.914	1	1
648.253	1	-5
648.592	1	1
648.931	1	4
649.270	1	1
649.610	1	8
649.949	1	-1
650.288	1	0
650.627	1	3
650.966	1	7
651.305	1	1
651.644	1	15
651.983	1	17
652.322	1	9
652.661	1	12
653.000	1	-5
653.339	1	1
653.678	1	6
654.017	1	6
654.356	1	6
654.695	1	10
655.034	1	8
655.373	1	9
655.712	1	-2
656.051	1	4
656.390	1	-2
656.729	1	6
657.068	1	8
657.406	1	6
657.745	1	15
658.084	1	-3
658.423	1	3
658.762	1	2
659.101	1	-4
659.440	1	11
659.779	1	9
660.118	1	5
660.457	1	10
660.796	1	8
661.135	1	-15
661.474	1	14
661.813	1	4
662.152	1	8
662.491	1	-9
662.829	1	-2
663.168	1	9
663.507	1	3
663.846	1	-3
664.185	1	9
664.524	1	11
664.863	1	0
665.202	1	22
665.541	1	10
665.879	1	11
666.218	1	17
666.557	1	-5
666.896	1	5
667.235	1	1
667.574	1	-8
667.913	1	-4
668.251	1	6
668.590	1	12
668.929	1	12
669.268	1	3
669.607	1	3
669.946	1	6
670.285	1	13
670.623	1	4
670.962	1	-3
671.301	1	7
671.640	1	8
671.979	1	0
672.317	1	7
672.656	1	12
672.995	1	-8
673.334	1	2
673.673	1	6
674.011	1	6
674.350	1	8
674.689	1	17
675.028	1	3
675.367	1	3
675.705	1	10
676.044	1	10
676.383	1	4
676.722	1	15
677.060	1	5
677.399	1	7
677.738	1	-3
678.077	1	6
678.416	1	3
678.754	1	9
679.093	1	14
679.432	1	7
679.771	1	7
680.109	1	9
680.448	1	2
680.787	1	2
681.125	1	12
681.464	1	4
681.803	1	11
682.142	1	6
682.480	1	8
682.819	1	16
683.158	1	1
683.496	1	9
683.835	1	1
684.174	1	1
684.512	1	3
684.851	1	1
685.190	1	5
685.529	1	12
685.867	1	13
686.206	1	9
686.545	1	9
686.883	1	3
687.222	1	7
687.561	1	7
687.899	1	6
688.238	1	3
688.577	1	23
688.746	1	3