File: Data/GaN_170K_550ms/GaN_sample D_spot 18_UVVIS_170 K_200um_550 ms 2x2mm1_76.txt
340.368	1	8
340.710	1	-8
341.052	1	11
341.394	1	-1
341.737	1	-3
342.079	1	2
342.421	1	10
342.763	1	4
343.105	1	16
343.447	1	0
343.789	1	8
344.131	1	3
344.473	1	6
344.815	1	11
345.157	1	6
345.499	1	4
345.841	1	2
346.183	1	11
346.526	1	6
346.868	1	12
347.210	1	-5
347.552	1	13
347.894	1	14
348.236	1	8
348.578	1	15
348.920	1	5
349.262	1	4
349.604	1	5
349.946	1	17
350.288	1	8
350.630	1	21
350.972	1	8
351.314	1	9
351.656	1	10
351.998	1	16
352.340	1	7
352.682	1	9
353.024	1	11
353.366	1	7
353.708	1	15
354.050	1	4
354.392	1	19
354.734	1	19
355.076	1	15
355.418	1	8
355.760	1	10
356.102	1	17
356.444	1	9
356.785	1	12
357.127	1	18
357.469	1	17
357.811	1	19
358.153	1	23
358.495	1	16
358.837	1	29
359.179	1	17
359.521	1	32
359.863	1	28
360.205	1	43
360.547	1	48
360.889	1	58
361.231	1	49
361.572	1	59
361.914	1	49
362.256	1	57
362.598	1	67
362.940	1	77
363.282	1	81
363.624	1	85
363.966	1	95
364.308	1	116
364.649	1	112
364.991	1	129
365.333	1	122
365.675	1	150
366.017	1	159
366.359	1	191
366.701	1	196
367.042	1	201
367.384	1	208
367.726	1	226
368.068	1	231
368.410	1	239
368.752	1	233
369.093	1	228
369.435	1	211
369.777	1	219
370.119	1	212
370.461	1	207
370.803	1	186
371.144	1	191
371.486	1	174
371.828	1	163
372.170	1	154
372.512	1	136
372.853	1	140
373.195	1	126
373.537	1	135
373.879	1	123
374.220	1	123
374.562	1	105
374.904	1	110
375.246	1	96
375.588	1	97
375.929	1	104
376.271	1	105
376.613	1	65
376.955	1	79
377.296	1	68
377.638	1	68
377.980	1	59
378.321	1	65
378.663	1	70
379.005	1	55
379.347	1	58
379.688	1	48
380.030	1	51
380.372	1	57
380.714	1	63
381.055	1	43
381.397	1	44
381.739	1	46
382.080	1	36
382.422	1	41
382.764	1	36
383.105	1	39
383.447	1	38
383.789	1	49
384.130	1	39
384.472	1	27
384.814	1	43
385.156	1	32
385.497	1	36
385.839	1	28
386.180	1	34
386.522	1	35
386.864	1	27
387.205	1	22
387.547	1	23
387.889	1	21
388.230	1	31
388.572	1	20
388.914	1	18
389.255	1	28
389.597	1	27
389.939	1	19
390.280	1	15
390.622	1	10
390.963	1	13
391.305	1	13
391.647	1	1
391.988	1	18
392.330	1	19
392.671	1	3
393.013	1	15
393.355	1	28
393.696	1	18
394.038	1	3
394.379	1	7
394.721	1	3
395.062	1	0
395.404	1	16
395.746	1	16
396.087	1	12
396.429	1	5
396.770	1	12
397.112	1	10
397.453	1	20
397.795	1	10
398.136	1	6
398.478	1	7
398.819	1	12
399.161	1	1
399.503	1	21
399.844	1	1
400.186	1	6
400.527	1	19
400.869	1	12
401.210	1	21
401.552	1	11
401.893	1	1
402.235	1	7
402.576	1	12
402.918	1	16
403.259	1	8
403.601	1	20
403.942	1	18
404.284	1	1
404.625	1	4
404.967	1	9
405.308	1	9
405.649	1	15
405.991	1	16
406.332	1	-4
406.674	1	7
407.015	1	8
407.357	1	0
407.698	1	5
408.040	1	4
408.381	1	-4
408.722	1	-1
409.064	1	1
409.405	1	13
409.747	1	4
410.088	1	12
410.430	1	7
410.771	1	-1
411.112	1	4
411.454	1	12
411.795	1	7
412.137	1	2
412.478	1	7
412.819	1	1
413.161	1	15
413.502	1	3
413.844	1	13
414.185	1	-2
414.526	1	4
414.868	1	7
415.209	1	-7
415.550	1	8
415.892	1	12
416.233	1	12
416.575	1	9
416.916	1	-6
417.257	1	-1
417.599	1	8
417.940	1	1
418.281	1	-2
418.623	1	4
418.964	1	-5
419.305	1	8
419.647	1	15
419.988	1	6
420.329	1	9
420.671	1	-6
421.012	1	14
421.353	1	3
421.695	1	1
422.036	1	15
422.377	1	17
422.718	1	7
423.060	1	-7
423.401	1	7
423.742	1	0
424.084	1	24
424.425	1	1
424.766	1	-1
425.107	1	7
425.449	1	7
425.790	1	3
426.131	1	14
426.472	1	2
426.814	1	1
427.155	1	17
427.496	1	-2
427.837	1	17
428.179	1	8
428.520	1	7
428.861	1	7
429.202	1	1
429.544	1	-2
429.885	1	2
430.226	1	6
430.567	1	6
430.909	1	-3
431.250	1	14
431.591	1	7
431.932	1	-4
432.273	1	0
432.615	1	6
432.956	1	4
433.297	1	2
433.638	1	13
433.979	1	18
434.320	1	15
434.662	1	-7
435.003	1	-2
435.344	1	-2
435.685	1	0
436.026	1	1
436.368	1	9
436.709	1	3
437.050	1	-4
437.391	1	-4
437.732	1	5
438.073	1	7
438.414	1	1
438.756	1	1
439.097	1	10
439.438	1	5
439.779	1	14
440.120	1	-4
440.461	1	10
440.802	1	11
441.143	1	2
441.485	1	7
441.826	1	5
442.167	1	11
442.508	1	-3
442.849	1	4
443.190	1	5
443.531	1	11
443.872	1	-1
444.213	1	2
444.554	1	0
444.895	1	-2
445.237	1	-1
445.578	1	8
445.919	1	1
446.260	1	5
446.601	1	-4
446.942	1	9
447.283	1	12
447.624	1	-1
447.965	1	9
448.306	1	5
448.647	1	-3
448.988	1	12
449.329	1	8
449.670	1	7
450.011	1	9
450.352	1	-7
450.693	1	5
451.034	1	-2
451.375	1	7
451.716	1	8
452.057	1	4
452.398	1	12
452.739	1	8
453.080	1	-1
453.421	1	7
453.762	1	6
454.103	1	0
454.444	1	-10
454.785	1	2
455.126	1	6
455.467	1	-3
455.808	1	14
456.149	1	-5
456.490	1	6
456.831	1	10
457.172	1	0
457.513	1	5
457.854	1	9
458.195	1	9
458.536	1	1
458.877	1	3
459.218	1	9
459.559	1	-8
459.899	1	5
460.240	1	3
460.581	1	13
460.922	1	3
461.263	1	2
461.604	1	13
461.945	1	4
462.286	1	-2
462.627	1	6
462.968	1	13
463.309	1	15
463.649	1	8
463.990	1	3
464.331	1	2
464.672	1	1
465.013	1	26
465.354	1	-9
465.695	1	6
466.036	1	-8
466.376	1	10
466.717	1	8
467.058	1	13
467.399	1	16
467.740	1	2
468.081	1	1
468.422	1	3
468.762	1	17
469.103	1	5
469.444	1	9
469.785	1	-2
470.126	1	13
470.467	1	8
470.807	1	1
471.148	1	1
471.489	1	3
471.830	1	4
472.171	1	12
472.511	1	4
472.852	1	7
473.193	1	13
473.534	1	3
473.875	1	8
474.215	1	8
474.556	1	14
474.897	1	11
475.238	1	2
475.578	1	5
475.919	1	8
476.260	1	16
476.601	1	6
476.942	1	-4
477.282	1	13
477.623	1	10
477.964	1	14
478.305	1	0
478.645	1	10
478.986	1	2
479.327	1	-4
479.667	1	7
480.008	1	6
480.349	1	17
480.690	1	0
481.030	1	14
481.371	1	5
481.712	1	11
482.053	1	7
482.393	1	0
482.734	1	11
483.075	1	11
483.415	1	16
483.756	1	10
484.097	1	2
484.437	1	8
484.778	1	-3
485.119	1	7
485.459	1	8
485.800	1	-2
486.141	1	19
486.481	1	3
486.822	1	5
487.163	1	0
487.503	1	11
487.844	1	16
488.185	1	12
488.525	1	13
488.866	1	11
489.207	1	17
489.547	1	21
489.888	1	21
490.228	1	6
490.569	1	5
490.910	1	14
491.250	1	8
491.591	1	9
491.932	1	13
492.272	1	22
492.613	1	20
492.953	1	7
493.294	1	8
493.635	1	16
493.975	1	22
494.316	1	15
494.656	1	15
494.997	1	19
495.337	1	16
495.678	1	14
496.019	1	5
496.359	1	17
496.700	1	10
497.040	1	21
497.381	1	17
497.721	1	8
498.062	1	12
498.403	1	15
498.743	1	17
499.084	1	23
499.424	1	18
499.765	1	3
500.105	1	10
500.446	1	15
500.786	1	17
501.127	1	21
501.467	1	19
501.808	1	17
502.148	1	34
502.489	1	23
502.829	1	20
503.170	1	27
503.510	1	18
503.851	1	22
504.191	1	14
504.532	1	9
504.872	1	34
505.213	1	15
505.553	1	15
505.894	1	30
506.234	1	14
506.575	1	27
506.915	1	19
507.256	1	18
507.596	1	31
507.936	1	44
508.277	1	9
508.617	1	39
508.958	1	24
509.298	1	21
509.639	1	30
509.979	1	21
510.319	1	18
510.660	1	18
511.000	1	37
511.341	1	28
511.681	1	17
512.022	1	36
512.362	1	15
512.702	1	14
513.043	1	32
513.383	1	27
513.724	1	20
514.064	1	30
514.404	1	24
514.745	1	24
515.085	1	33
515.425	1	35
515.766	1	39
516.106	1	43
516.447	1	34
516.787	1	32
517.127	1	37
517.468	1	34
517.808	1	39
518.148	1	28
518.489	1	42
518.829	1	34
519.169	1	31
519.510	1	39
519.850	1	28
520.190	1	27
520.531	1	40
520.871	1	27
521.211	1	30
521.552	1	37
521.892	1	39
522.232	1	34
522.573	1	34
522.913	1	43
523.253	1	40
523.593	1	35
523.934	1	32
524.274	1	34
524.614	1	38
524.955	1	33
525.295	1	24
525.635	1	32
525.975	1	29
526.316	1	28
526.656	1	37
526.996	1	40
527.337	1	28
527.677	1	29
528.017	1	41
528.357	1	25
528.698	1	24
529.038	1	36
529.378	1	46
529.718	1	38
530.058	1	40
530.399	1	38
530.739	1	46
531.079	1	38
531.419	1	47
531.760	1	34
532.100	1	43
532.440	1	45
532.780	1	32
533.120	1	45
533.461	1	34
533.801	1	42
534.141	1	30
534.481	1	42
534.821	1	39
535.162	1	25
535.502	1	36
535.842	1	35
536.182	1	20
536.522	1	35
536.862	1	38
537.203	1	29
537.543	1	30
537.883	1	42
538.223	1	36
538.563	1	38
538.903	1	33
539.243	1	32
539.584	1	29
539.924	1	24
540.264	1	38
540.604	1	33
540.944	1	24
541.284	1	36
541.624	1	26
541.964	1	38
542.305	1	28
542.645	1	24
542.985	1	38
543.325	1	32
543.665	1	40
544.005	1	46
544.345	1	30
544.685	1	31
545.025	1	28
545.365	1	24
545.705	1	27
546.045	1	28
546.386	1	31
546.726	1	20
547.066	1	40
547.406	1	25
547.746	1	38
548.086	1	37
548.426	1	38
548.766	1	27
549.106	1	42
549.446	1	37
549.786	1	29
550.126	1	22
550.466	1	27
550.806	1	30
551.146	1	31
551.486	1	33
551.826	1	19
552.166	1	37
552.506	1	32
552.846	1	21
553.186	1	39
553.526	1	23
553.866	1	20
554.206	1	26
554.546	1	23
554.886	1	31
555.226	1	14
555.566	1	25
555.906	1	24
556.246	1	32
556.586	1	23
556.926	1	27
557.266	1	25
557.606	1	24
557.946	1	26
558.286	1	30
558.626	1	30
558.966	1	31
559.306	1	25
559.646	1	18
559.986	1	32
560.325	1	21
560.665	1	22
561.005	1	33
561.345	1	17
561.685	1	32
562.025	1	24
562.365	1	21
562.705	1	22
563.045	1	25
563.385	1	21
563.725	1	9
564.064	1	16
564.404	1	19
564.744	1	17
565.084	1	20
565.424	1	26
565.764	1	13
566.104	1	17
566.444	1	28
566.783	1	19
567.123	1	20
567.463	1	6
567.803	1	24
568.143	1	14
568.483	1	15
568.823	1	24
569.162	1	19
569.502	1	16
569.842	1	13
570.182	1	12
570.522	1	16
570.862	1	9
571.201	1	24
571.541	1	13
571.881	1	7
572.221	1	21
572.561	1	18
572.900	1	16
573.240	1	19
573.580	1	13
573.920	1	26
574.260	1	21
574.599	1	16
574.939	1	7
575.279	1	20
575.619	1	29
575.959	1	8
576.298	1	17
576.638	1	16
576.978	1	7
577.318	1	15
577.657	1	18
577.997	1	11
578.337	1	26
578.677	1	20
579.016	1	12
579.356	1	20
579.696	1	6
580.036	1	15
580.375	1	17
580.715	1	14
581.055	1	19
581.394	1	5
581.734	1	9
582.074	1	13
582.414	1	11
582.753	1	12
583.093	1	13
583.433	1	20
583.772	1	5
584.112	1	12
584.452	1	14
584.791	1	13
585.131	1	23
585.471	1	12
585.811	1	1
586.150	1	9
586.490	1	18
586.830	1	7
587.169	1	18
587.509	1	11
587.849	1	14
588.188	1	10
588.528	1	15
588.867	1	18
589.207	1	11
589.547	1	13
589.886	1	1
590.226	1	5
590.566	1	8
590.905	1	12
591.245	1	8
591.585	1	12
591.924	1	1
592.264	1	4
592.603	1	9
592.943	1	19
593.283	1	12
593.622	1	-4
593.962	1	14
594.301	1	9
594.641	1	15
594.981	1	18
595.320	1	9
595.660	1	6
595.999	1	11
596.339	1	8
596.678	1	0
597.018	1	9
597.358	1	2
597.697	1	6
598.037	1	12
598.376	1	4
598.716	1	14
599.055	1	13
599.395	1	2
599.734	1	16
600.074	1	8
600.413	1	13
600.753	1	17
601.092	1	7
601.432	1	6
601.771	1	15
602.111	1	3
602.451	1	26
602.790	1	17
603.130	1	4
603.469	1	11
603.809	1	12
604.148	1	22
604.487	1	4
604.827	1	0
605.166	1	15
605.506	1	4
605.845	1	16
606.185	1	18
606.524	1	-1
606.864	1	8
607.203	1	6
607.543	1	17
607.882	1	10
608.222	1	3
608.561	1	12
608.901	1	13
609.240	1	3
609.579	1	4
609.919	1	13
610.258	1	8
610.598	1	14
610.937	1	10
611.277	1	12
611.616	1	8
611.955	1	8
612.295	1	4
612.634	1	10
612.974	1	8
613.313	1	-1
613.652	1	10
613.992	1	7
614.331	1	5
614.671	1	11
615.010	1	9
615.349	1	14
615.689	1	7
616.028	1	9
616.368	1	7
616.707	1	12
617.046	1	8
617.386	1	0
617.725	1	9
618.064	1	-2
618.404	1	10
618.743	1	7
619.082	1	14
619.422	1	-7
619.761	1	-2
620.100	1	4
620.440	1	11
620.779	1	11
621.118	1	5
621.458	1	4
621.797	1	9
622.136	1	1
622.476	1	-1
622.815	1	-2
623.154	1	16
623.494	1	0
623.833	1	12
624.172	1	13
624.511	1	7
624.851	1	1
625.190	1	15
625.529	1	10
625.869	1	21
626.208	1	4
626.547	1	4
626.886	1	-3
627.226	1	0
627.565	1	12
627.904	1	2
628.243	1	-5
628.583	1	-2
628.922	1	2
629.261	1	9
629.600	1	3
629.940	1	4
630.279	1	0
630.618	1	-5
630.957	1	9
631.297	1	10
631.636	1	13
631.975	1	1
632.314	1	8
632.653	1	9
632.993	1	2
633.332	1	11
633.671	1	5
634.010	1	11
634.349	1	-4
634.689	1	6
635.028	1	9
635.367	1	1
635.706	1	1
636.045	1	16
636.384	1	-4
636.724	1	15
637.063	1	6
637.402	1	8
637.741	1	-2
638.080	1	13
638.419	1	-6
638.759	1	10
639.098	1	-5
639.437	1	-12
639.776	1	0
640.115	1	-2
640.454	1	10
640.793	1	5
641.132	1	12
641.472	1	1
641.811	1	8
642.150	1	-1
642.489	1	-3
642.828	1	11
643.167	1	-4
643.506	1	2
643.845	1	9
644.184	1	14
644.524	1	10
644.863	1	-9
645.202	1	13
645.541	1	5
645.880	1	13
646.219	1	12
646.558	1	-1
646.897	1	14
647.236	1	5
647.575	1	-6
647.914	1	6
648.253	1	-1
648.592	1	3
648.931	1	7
649.270	1	9
649.610	1	6
649.949	1	-6
650.288	1	5
650.627	1	-2
650.966	1	14
651.305	1	5
651.644	1	11
651.983	1	4
652.322	1	7
652.661	1	12
653.000	1	7
653.339	1	-3
653.678	1	1
654.017	1	7
654.356	1	4
654.695	1	14
655.034	1	6
655.373	1	9
655.712	1	-2
656.051	1	6
656.390	1	4
656.729	1	14
657.068	1	-2
657.406	1	8
657.745	1	10
658.084	1	-7
658.423	1	1
658.762	1	1
659.101	1	0
659.440	1	3
659.779	1	10
660.118	1	1
660.457	1	12
660.796	1	7
661.135	1	-3
661.474	1	14
661.813	1	-2
662.152	1	6
662.491	1	3
662.829	1	11
663.168	1	2
663.507	1	10
663.846	1	1
664.185	1	9
664.524	1	6
664.863	1	1
665.202	1	16
665.541	1	10
665.879	1	13
666.218	1	19
666.557	1	4
666.896	1	17
667.235	1	-1
667.574	1	-9
667.913	1	4
668.251	1	1
668.590	1	7
668.929	1	5
669.268	1	4
669.607	1	6
669.946	1	11
670.285	1	17
670.623	1	4
670.962	1	-1
671.301	1	3
671.640	1	8
671.979	1	-6
672.317	1	4
672.656	1	5
672.995	1	2
673.334	1	1
673.673	1	2
674.011	1	16
674.350	1	16
674.689	1	7
675.028	1	-2
675.367	1	0
675.705	1	7
676.044	1	13
676.383	1	1
676.722	1	23
677.060	1	4
677.399	1	14
677.738	1	9
678.077	1	11
678.416	1	2
678.754	1	5
679.093	1	10
679.432	1	14
679.771	1	12
680.109	1	-4
680.448	1	6
680.787	1	2
681.125	1	7
681.464	1	6
681.803	1	9
682.142	1	5
682.480	1	4
682.819	1	22
683.158	1	-3
683.496	1	12
683.835	1	6
684.174	1	11
684.512	1	6
684.851	1	-5
685.190	1	5
685.529	1	18
685.867	1	18
686.206	1	13
686.545	1	18
686.883	1	0
687.222	1	5
687.561	1	9
687.899	1	-7
688.238	1	-1
688.577	1	19
688.746	1	4