File: Data/GaN_150K_450ms/GaN_sample D_spot15_UVVIS_150 K_200um_450 ms 2x2mm1_282.txt
340.368	1	2
340.710	1	-3
341.052	1	3
341.394	1	-5
341.737	1	9
342.079	1	8
342.421	1	2
342.763	1	4
343.105	1	-1
343.447	1	3
343.789	1	0
344.131	1	-10
344.473	1	-1
344.815	1	5
345.157	1	15
345.499	1	1
345.841	1	2
346.183	1	3
346.526	1	1
346.868	1	3
347.210	1	0
347.552	1	11
347.894	1	-2
348.236	1	7
348.578	1	6
348.920	1	5
349.262	1	0
349.604	1	3
349.946	1	-1
350.288	1	-1
350.630	1	-5
350.972	1	15
351.314	1	-8
351.656	1	5
351.998	1	-1
352.340	1	12
352.682	1	-16
353.024	1	10
353.366	1	3
353.708	1	4
354.050	1	-7
354.392	1	-6
354.734	1	4
355.076	1	13
355.418	1	0
355.760	1	5
356.102	1	4
356.444	1	13
356.785	1	6
357.127	1	-1
357.469	1	-3
357.811	1	0
358.153	1	-16
358.495	1	0
358.837	1	13
359.179	1	8
359.521	1	12
359.863	1	1
360.205	1	6
360.547	1	12
360.889	1	-1
361.231	1	2
361.572	1	8
361.914	1	8
362.256	1	10
362.598	1	15
362.940	1	6
363.282	1	0
363.624	1	10
363.966	1	5
364.308	1	1
364.649	1	7
364.991	1	10
365.333	1	6
365.675	1	23
366.017	1	16
366.359	1	11
366.701	1	4
367.042	1	16
367.384	1	13
367.726	1	8
368.068	1	18
368.410	1	8
368.752	1	22
369.093	1	12
369.435	1	26
369.777	1	21
370.119	1	22
370.461	1	10
370.803	1	9
371.144	1	5
371.486	1	12
371.828	1	8
372.170	1	11
372.512	1	1
372.853	1	14
373.195	1	8
373.537	1	-4
373.879	1	4
374.220	1	9
374.562	1	13
374.904	1	7
375.246	1	11
375.588	1	8
375.929	1	5
376.271	1	5
376.613	1	11
376.955	1	3
377.296	1	14
377.638	1	2
377.980	1	6
378.321	1	12
378.663	1	13
379.005	1	7
379.347	1	13
379.688	1	13
380.030	1	14
380.372	1	10
380.714	1	16
381.055	1	-3
381.397	1	1
381.739	1	3
382.080	1	0
382.422	1	7
382.764	1	7
383.105	1	-4
383.447	1	0
383.789	1	-5
384.130	1	1
384.472	1	-3
384.814	1	7
385.156	1	7
385.497	1	6
385.839	1	8
386.180	1	1
386.522	1	0
386.864	1	-1
387.205	1	9
387.547	1	8
387.889	1	4
388.230	1	4
388.572	1	1
388.914	1	-2
389.255	1	4
389.597	1	2
389.939	1	7
390.280	1	-5
390.622	1	-11
390.963	1	-5
391.305	1	2
391.647	1	-2
391.988	1	-3
392.330	1	1
392.671	1	17
393.013	1	14
393.355	1	4
393.696	1	9
394.038	1	6
394.379	1	-2
394.721	1	2
395.062	1	-9
395.404	1	0
395.746	1	-3
396.087	1	-1
396.429	1	8
396.770	1	3
397.112	1	3
397.453	1	9
397.795	1	2
398.136	1	4
398.478	1	1
398.819	1	-3
399.161	1	7
399.503	1	13
399.844	1	-1
400.186	1	2
400.527	1	6
400.869	1	4
401.210	1	3
401.552	1	6
401.893	1	-2
402.235	1	-1
402.576	1	-6
402.918	1	0
403.259	1	7
403.601	1	1
403.942	1	4
404.284	1	13
404.625	1	2
404.967	1	5
405.308	1	-6
405.649	1	-5
405.991	1	-2
406.332	1	8
406.674	1	-3
407.015	1	9
407.357	1	1
407.698	1	5
408.040	1	16
408.381	1	-6
408.722	1	4
409.064	1	3
409.405	1	7
409.747	1	5
410.088	1	10
410.430	1	15
410.771	1	6
411.112	1	3
411.454	1	-1
411.795	1	-5
412.137	1	-2
412.478	1	9
412.819	1	10
413.161	1	11
413.502	1	2
413.844	1	5
414.185	1	0
414.526	1	-3
414.868	1	-3
415.209	1	-9
415.550	1	2
415.892	1	3
416.233	1	3
416.575	1	1
416.916	1	0
417.257	1	-1
417.599	1	3
417.940	1	-6
418.281	1	5
418.623	1	8
418.964	1	16
419.305	1	4
419.647	1	-1
419.988	1	18
420.329	1	13
420.671	1	14
421.012	1	1
421.353	1	11
421.695	1	6
422.036	1	8
422.377	1	-3
422.718	1	11
423.060	1	11
423.401	1	-1
423.742	1	11
424.084	1	2
424.425	1	12
424.766	1	5
425.107	1	4
425.449	1	-2
425.790	1	-1
426.131	1	-4
426.472	1	14
426.814	1	1
427.155	1	3
427.496	1	3
427.837	1	5
428.179	1	10
428.520	1	7
428.861	1	12
429.202	1	-6
429.544	1	3
429.885	1	5
430.226	1	0
430.567	1	-10
430.909	1	1
431.250	1	5
431.591	1	4
431.932	1	2
432.273	1	6
432.615	1	-7
432.956	1	-4
433.297	1	-1
433.638	1	11
433.979	1	5
434.320	1	7
434.662	1	5
435.003	1	19
435.344	1	-7
435.685	1	3
436.026	1	-1
436.368	1	3
436.709	1	-1
437.050	1	0
437.391	1	4
437.732	1	12
438.073	1	-1
438.414	1	10
438.756	1	1
439.097	1	6
439.438	1	0
439.779	1	3
440.120	1	9
440.461	1	1
440.802	1	-4
441.143	1	5
441.485	1	0
441.826	1	6
442.167	1	4
442.508	1	3
442.849	1	-2
443.190	1	2
443.531	1	10
443.872	1	1
444.213	1	-10
444.554	1	6
444.895	1	-1
445.237	1	4
445.578	1	-8
445.919	1	-5
446.260	1	5
446.601	1	7
446.942	1	3
447.283	1	6
447.624	1	-9
447.965	1	7
448.306	1	2
448.647	1	1
448.988	1	15
449.329	1	6
449.670	1	-4
450.011	1	-4
450.352	1	2
450.693	1	4
451.034	1	-2
451.375	1	8
451.716	1	3
452.057	1	17
452.398	1	14
452.739	1	-1
453.080	1	5
453.421	1	13
453.762	1	11
454.103	1	5
454.444	1	4
454.785	1	5
455.126	1	3
455.467	1	-3
455.808	1	2
456.149	1	-12
456.490	1	-7
456.831	1	6
457.172	1	1
457.513	1	-3
457.854	1	5
458.195	1	-1
458.536	1	9
458.877	1	0
459.218	1	7
459.559	1	5
459.899	1	2
460.240	1	-4
460.581	1	-1
460.922	1	-2
461.263	1	12
461.604	1	0
461.945	1	9
462.286	1	-6
462.627	1	5
462.968	1	13
463.309	1	8
463.649	1	-3
463.990	1	-4
464.331	1	7
464.672	1	6
465.013	1	6
465.354	1	5
465.695	1	2
466.036	1	10
466.376	1	15
466.717	1	-8
467.058	1	7
467.399	1	-8
467.740	1	16
468.081	1	13
468.422	1	3
468.762	1	11
469.103	1	6
469.444	1	1
469.785	1	-7
470.126	1	10
470.467	1	-4
470.807	1	7
471.148	1	-3
471.489	1	-2
471.830	1	-5
472.171	1	10
472.511	1	1
472.852	1	4
473.193	1	5
473.534	1	4
473.875	1	4
474.215	1	0
474.556	1	-8
474.897	1	-2
475.238	1	3
475.578	1	-8
475.919	1	6
476.260	1	-8
476.601	1	2
476.942	1	-4
477.282	1	-11
477.623	1	-1
477.964	1	1
478.305	1	7
478.645	1	-1
478.986	1	5
479.327	1	0
479.667	1	-2
480.008	1	6
480.349	1	5
480.690	1	3
481.030	1	-1
481.371	1	-11
481.712	1	13
482.053	1	8
482.393	1	10
482.734	1	5
483.075	1	3
483.415	1	-11
483.756	1	-4
484.097	1	10
484.437	1	6
484.778	1	-4
485.119	1	7
485.459	1	-3
485.800	1	-5
486.141	1	7
486.481	1	-1
486.822	1	11
487.163	1	-6
487.503	1	4
487.844	1	-5
488.185	1	4
488.525	1	-3
488.866	1	-8
489.207	1	2
489.547	1	-6
489.888	1	4
490.228	1	1
490.569	1	-2
490.910	1	8
491.250	1	8
491.591	1	3
491.932	1	11
492.272	1	-9
492.613	1	-1
492.953	1	5
493.294	1	-11
493.635	1	1
493.975	1	13
494.316	1	2
494.656	1	10
494.997	1	-4
495.337	1	3
495.678	1	-1
496.019	1	5
496.359	1	2
496.700	1	9
497.040	1	-6
497.381	1	1
497.721	1	0
498.062	1	2
498.403	1	16
498.743	1	-5
499.084	1	3
499.424	1	-14
499.765	1	10
500.105	1	10
500.446	1	-4
500.786	1	1
501.127	1	5
501.467	1	12
501.808	1	-2
502.148	1	3
502.489	1	5
502.829	1	4
503.170	1	2
503.510	1	2
503.851	1	3
504.191	1	-4
504.532	1	14
504.872	1	-2
505.213	1	-6
505.553	1	0
505.894	1	7
506.234	1	10
506.575	1	14
506.915	1	7
507.256	1	7
507.596	1	15
507.936	1	17
508.277	1	13
508.617	1	4
508.958	1	6
509.298	1	-1
509.639	1	-2
509.979	1	4
510.319	1	5
510.660	1	4
511.000	1	-1
511.341	1	7
511.681	1	4
512.022	1	-2
512.362	1	8
512.702	1	-2
513.043	1	7
513.383	1	9
513.724	1	4
514.064	1	8
514.404	1	14
514.745	1	1
515.085	1	9
515.425	1	6
515.766	1	7
516.106	1	2
516.447	1	15
516.787	1	-4
517.127	1	6
517.468	1	13
517.808	1	-2
518.148	1	10
518.489	1	-3
518.829	1	3
519.169	1	-3
519.510	1	-6
519.850	1	0
520.190	1	5
520.531	1	7
520.871	1	2
521.211	1	4
521.552	1	-4
521.892	1	0
522.232	1	4
522.573	1	-2
522.913	1	9
523.253	1	3
523.593	1	7
523.934	1	-1
524.274	1	6
524.614	1	5
524.955	1	7
525.295	1	12
525.635	1	12
525.975	1	1
526.316	1	-3
526.656	1	1
526.996	1	0
527.337	1	12
527.677	1	19
528.017	1	-8
528.357	1	1
528.698	1	7
529.038	1	2
529.378	1	0
529.718	1	3
530.058	1	2
530.399	1	0
530.739	1	1
531.079	1	-2
531.419	1	4
531.760	1	6
532.100	1	8
532.440	1	3
532.780	1	13
533.120	1	-3
533.461	1	-3
533.801	1	-2
534.141	1	4
534.481	1	16
534.821	1	1
535.162	1	0
535.502	1	1
535.842	1	2
536.182	1	-2
536.522	1	-10
536.862	1	5
537.203	1	7
537.543	1	6
537.883	1	1
538.223	1	12
538.563	1	0
538.903	1	1
539.243	1	15
539.584	1	3
539.924	1	1
540.264	1	13
540.604	1	12
540.944	1	5
541.284	1	4
541.624	1	4
541.964	1	2
542.305	1	14
542.645	1	-2
542.985	1	3
543.325	1	10
543.665	1	-2
544.005	1	3
544.345	1	7
544.685	1	1
545.025	1	7
545.365	1	1
545.705	1	9
546.045	1	7
546.386	1	3
546.726	1	7
547.066	1	3
547.406	1	0
547.746	1	-2
548.086	1	2
548.426	1	-6
548.766	1	-6
549.106	1	1
549.446	1	9
549.786	1	5
550.126	1	7
550.466	1	0
550.806	1	19
551.146	1	0
551.486	1	-2
551.826	1	1
552.166	1	5
552.506	1	3
552.846	1	4
553.186	1	5
553.526	1	0
553.866	1	4
554.206	1	7
554.546	1	11
554.886	1	1
555.226	1	-5
555.566	1	3
555.906	1	-1
556.246	1	8
556.586	1	5
556.926	1	4
557.266	1	8
557.606	1	-3
557.946	1	14
558.286	1	-8
558.626	1	8
558.966	1	-5
559.306	1	6
559.646	1	4
559.986	1	4
560.325	1	-1
560.665	1	-1
561.005	1	7
561.345	1	-7
561.685	1	2
562.025	1	1
562.365	1	-7
562.705	1	8
563.045	1	4
563.385	1	8
563.725	1	-7
564.064	1	-1
564.404	1	-2
564.744	1	5
565.084	1	2
565.424	1	-7
565.764	1	1
566.104	1	8
566.444	1	16
566.783	1	-3
567.123	1	0
567.463	1	0
567.803	1	5
568.143	1	10
568.483	1	9
568.823	1	4
569.162	1	-1
569.502	1	-5
569.842	1	4
570.182	1	-4
570.522	1	-5
570.862	1	-9
571.201	1	12
571.541	1	2
571.881	1	4
572.221	1	-1
572.561	1	9
572.900	1	5
573.240	1	-1
573.580	1	3
573.920	1	10
574.260	1	-2
574.599	1	-2
574.939	1	6
575.279	1	11
575.619	1	-4
575.959	1	8
576.298	1	-8
576.638	1	7
576.978	1	-5
577.318	1	2
577.657	1	-10
577.997	1	0
578.337	1	3
578.677	1	-3
579.016	1	3
579.356	1	-2
579.696	1	5
580.036	1	0
580.375	1	13
580.715	1	8
581.055	1	2
581.394	1	10
581.734	1	0
582.074	1	5
582.414	1	7
582.753	1	8
583.093	1	5
583.433	1	13
583.772	1	4
584.112	1	-5
584.452	1	3
584.791	1	-1
585.131	1	4
585.471	1	0
585.811	1	12
586.150	1	7
586.490	1	2
586.830	1	2
587.169	1	3
587.509	1	-4
587.849	1	12
588.188	1	9
588.528	1	-12
588.867	1	9
589.207	1	8
589.547	1	-2
589.886	1	4
590.226	1	-1
590.566	1	-3
590.905	1	-3
591.245	1	-9
591.585	1	-2
591.924	1	-2
592.264	1	-3
592.603	1	-6
592.943	1	-1
593.283	1	6
593.622	1	-6
593.962	1	4
594.301	1	-3
594.641	1	6
594.981	1	1
595.320	1	-3
595.660	1	2
595.999	1	3
596.339	1	3
596.678	1	-14
597.018	1	-7
597.358	1	9
597.697	1	-1
598.037	1	-4
598.376	1	-5
598.716	1	6
599.055	1	-3
599.395	1	8
599.734	1	13
600.074	1	-4
600.413	1	-1
600.753	1	1
601.092	1	-4
601.432	1	-12
601.771	1	8
602.111	1	-1
602.451	1	-4
602.790	1	8
603.130	1	-2
603.469	1	7
603.809	1	-2
604.148	1	-3
604.487	1	1
604.827	1	-2
605.166	1	3
605.506	1	1
605.845	1	7
606.185	1	-1
606.524	1	0
606.864	1	15
607.203	1	0
607.543	1	3
607.882	1	5
608.222	1	-3
608.561	1	1
608.901	1	5
609.240	1	-1
609.579	1	-8
609.919	1	-6
610.258	1	10
610.598	1	1
610.937	1	-6
611.277	1	4
611.616	1	16
611.955	1	-4
612.295	1	3
612.634	1	-1
612.974	1	-2
613.313	1	-3
613.652	1	5
613.992	1	-5
614.331	1	9
614.671	1	-5
615.010	1	7
615.349	1	8
615.689	1	-5
616.028	1	11
616.368	1	7
616.707	1	11
617.046	1	2
617.386	1	6
617.725	1	-7
618.064	1	-6
618.404	1	-2
618.743	1	11
619.082	1	10
619.422	1	12
619.761	1	0
620.100	1	11
620.440	1	0
620.779	1	4
621.118	1	7
621.458	1	4
621.797	1	-6
622.136	1	-1
622.476	1	1
622.815	1	2
623.154	1	-5
623.494	1	-7
623.833	1	7
624.172	1	3
624.511	1	-7
624.851	1	-2
625.190	1	1
625.529	1	-11
625.869	1	9
626.208	1	0
626.547	1	4
626.886	1	7
627.226	1	9
627.565	1	10
627.904	1	1
628.243	1	13
628.583	1	2
628.922	1	5
629.261	1	6
629.600	1	14
629.940	1	2
630.279	1	10
630.618	1	10
630.957	1	2
631.297	1	3
631.636	1	6
631.975	1	4
632.314	1	9
632.653	1	-5
632.993	1	0
633.332	1	1
633.671	1	12
634.010	1	-5
634.349	1	1
634.689	1	3
635.028	1	-5
635.367	1	10
635.706	1	2
636.045	1	-14
636.384	1	4
636.724	1	0
637.063	1	-6
637.402	1	6
637.741	1	-10
638.080	1	3
638.419	1	-5
638.759	1	5
639.098	1	6
639.437	1	12
639.776	1	4
640.115	1	-9
640.454	1	-8
640.793	1	-1
641.132	1	3
641.472	1	-2
641.811	1	-5
642.150	1	-4
642.489	1	-3
642.828	1	12
643.167	1	5
643.506	1	-5
643.845	1	15
644.184	1	9
644.524	1	2
644.863	1	1
645.202	1	5
645.541	1	7
645.880	1	10
646.219	1	-2
646.558	1	-5
646.897	1	-14
647.236	1	-4
647.575	1	5
647.914	1	4
648.253	1	12
648.592	1	12
648.931	1	9
649.270	1	15
649.610	1	5
649.949	1	-8
650.288	1	4
650.627	1	-3
650.966	1	-3
651.305	1	1
651.644	1	9
651.983	1	-11
652.322	1	-5
652.661	1	0
653.000	1	0
653.339	1	4
653.678	1	6
654.017	1	4
654.356	1	-1
654.695	1	15
655.034	1	6
655.373	1	1
655.712	1	12
656.051	1	-7
656.390	1	1
656.729	1	5
657.068	1	-8
657.406	1	-10
657.745	1	8
658.084	1	3
658.423	1	13
658.762	1	-6
659.101	1	0
659.440	1	6
659.779	1	2
660.118	1	-2
660.457	1	6
660.796	1	7
661.135	1	7
661.474	1	3
661.813	1	-5
662.152	1	4
662.491	1	-7
662.829	1	-6
663.168	1	6
663.507	1	2
663.846	1	4
664.185	1	2
664.524	1	1
664.863	1	-9
665.202	1	2
665.541	1	-6
665.879	1	-3
666.218	1	4
666.557	1	-4
666.896	1	6
667.235	1	-2
667.574	1	2
667.913	1	5
668.251	1	-5
668.590	1	-2
668.929	1	-9
669.268	1	-2
669.607	1	-9
669.946	1	-2
670.285	1	-7
670.623	1	-4
670.962	1	1
671.301	1	2
671.640	1	8
671.979	1	4
672.317	1	-1
672.656	1	6
672.995	1	2
673.334	1	-4
673.673	1	13
674.011	1	1
674.350	1	-1
674.689	1	-3
675.028	1	3
675.367	1	0
675.705	1	-8
676.044	1	2
676.383	1	-4
676.722	1	0
677.060	1	-2
677.399	1	8
677.738	1	-2
678.077	1	0
678.416	1	-7
678.754	1	-11
679.093	1	6
679.432	1	-2
679.771	1	-4
680.109	1	-4
680.448	1	-1
680.787	1	-10
681.125	1	0
681.464	1	1
681.803	1	-2
682.142	1	7
682.480	1	-9
682.819	1	-2
683.158	1	-2
683.496	1	3
683.835	1	-2
684.174	1	-5
684.512	1	6
684.851	1	0
685.190	1	-6
685.529	1	-4
685.867	1	8
686.206	1	-19
686.545	1	4
686.883	1	7
687.222	1	4
687.561	1	1
687.899	1	0
688.238	1	3
688.577	1	5
688.746	1	-4