File: Data/GaN_150K_450ms/GaN_sample D_spot15_UVVIS_150 K_200um_450 ms 2x2mm1_156.txt
340.368	1	5
340.710	1	0
341.052	1	6
341.394	1	-13
341.737	1	2
342.079	1	9
342.421	1	8
342.763	1	9
343.105	1	9
343.447	1	8
343.789	1	0
344.131	1	-2
344.473	1	3
344.815	1	2
345.157	1	13
345.499	1	9
345.841	1	1
346.183	1	13
346.526	1	15
346.868	1	17
347.210	1	5
347.552	1	19
347.894	1	-3
348.236	1	4
348.578	1	2
348.920	1	-1
349.262	1	3
349.604	1	-7
349.946	1	-4
350.288	1	2
350.630	1	-2
350.972	1	7
351.314	1	-9
351.656	1	14
351.998	1	13
352.340	1	8
352.682	1	-5
353.024	1	10
353.366	1	10
353.708	1	4
354.050	1	1
354.392	1	-12
354.734	1	2
355.076	1	16
355.418	1	4
355.760	1	7
356.102	1	10
356.444	1	18
356.785	1	4
357.127	1	11
357.469	1	10
357.811	1	10
358.153	1	4
358.495	1	-2
358.837	1	7
359.179	1	16
359.521	1	16
359.863	1	-8
360.205	1	14
360.547	1	12
360.889	1	8
361.231	1	8
361.572	1	15
361.914	1	12
362.256	1	13
362.598	1	20
362.940	1	13
363.282	1	-5
363.624	1	24
363.966	1	9
364.308	1	27
364.649	1	20
364.991	1	30
365.333	1	22
365.675	1	29
366.017	1	42
366.359	1	30
366.701	1	25
367.042	1	32
367.384	1	37
367.726	1	29
368.068	1	49
368.410	1	33
368.752	1	47
369.093	1	46
369.435	1	32
369.777	1	47
370.119	1	44
370.461	1	24
370.803	1	38
371.144	1	35
371.486	1	34
371.828	1	32
372.170	1	31
372.512	1	17
372.853	1	29
373.195	1	28
373.537	1	14
373.879	1	12
374.220	1	25
374.562	1	21
374.904	1	18
375.246	1	12
375.588	1	12
375.929	1	18
376.271	1	11
376.613	1	17
376.955	1	14
377.296	1	9
377.638	1	8
377.980	1	12
378.321	1	23
378.663	1	9
379.005	1	9
379.347	1	8
379.688	1	16
380.030	1	12
380.372	1	6
380.714	1	14
381.055	1	7
381.397	1	11
381.739	1	-1
382.080	1	12
382.422	1	12
382.764	1	8
383.105	1	12
383.447	1	10
383.789	1	3
384.130	1	5
384.472	1	-3
384.814	1	14
385.156	1	4
385.497	1	22
385.839	1	4
386.180	1	-1
386.522	1	17
386.864	1	1
387.205	1	7
387.547	1	7
387.889	1	2
388.230	1	5
388.572	1	4
388.914	1	15
389.255	1	7
389.597	1	11
389.939	1	13
390.280	1	3
390.622	1	-9
390.963	1	2
391.305	1	2
391.647	1	1
391.988	1	5
392.330	1	4
392.671	1	8
393.013	1	9
393.355	1	12
393.696	1	2
394.038	1	6
394.379	1	11
394.721	1	6
395.062	1	4
395.404	1	14
395.746	1	1
396.087	1	16
396.429	1	10
396.770	1	0
397.112	1	1
397.453	1	-6
397.795	1	4
398.136	1	4
398.478	1	14
398.819	1	12
399.161	1	12
399.503	1	9
399.844	1	11
400.186	1	5
400.527	1	14
400.869	1	2
401.210	1	0
401.552	1	8
401.893	1	11
402.235	1	3
402.576	1	10
402.918	1	-9
403.259	1	10
403.601	1	7
403.942	1	-1
404.284	1	15
404.625	1	0
404.967	1	12
405.308	1	-10
405.649	1	5
405.991	1	9
406.332	1	7
406.674	1	8
407.015	1	13
407.357	1	13
407.698	1	12
408.040	1	17
408.381	1	-2
408.722	1	14
409.064	1	2
409.405	1	12
409.747	1	1
410.088	1	15
410.430	1	10
410.771	1	11
411.112	1	3
411.454	1	9
411.795	1	6
412.137	1	7
412.478	1	9
412.819	1	18
413.161	1	15
413.502	1	13
413.844	1	9
414.185	1	2
414.526	1	-8
414.868	1	5
415.209	1	-1
415.550	1	5
415.892	1	10
416.233	1	0
416.575	1	6
416.916	1	10
417.257	1	11
417.599	1	8
417.940	1	-6
418.281	1	11
418.623	1	7
418.964	1	23
419.305	1	7
419.647	1	13
419.988	1	22
420.329	1	12
420.671	1	13
421.012	1	5
421.353	1	5
421.695	1	11
422.036	1	14
422.377	1	1
422.718	1	13
423.060	1	8
423.401	1	17
423.742	1	10
424.084	1	15
424.425	1	16
424.766	1	16
425.107	1	10
425.449	1	16
425.790	1	10
426.131	1	1
426.472	1	16
426.814	1	5
427.155	1	10
427.496	1	12
427.837	1	12
428.179	1	21
428.520	1	1
428.861	1	10
429.202	1	13
429.544	1	13
429.885	1	9
430.226	1	-3
430.567	1	0
430.909	1	6
431.250	1	12
431.591	1	13
431.932	1	15
432.273	1	10
432.615	1	-2
432.956	1	9
433.297	1	6
433.638	1	11
433.979	1	5
434.320	1	13
434.662	1	14
435.003	1	14
435.344	1	6
435.685	1	3
436.026	1	-3
436.368	1	13
436.709	1	-2
437.050	1	4
437.391	1	4
437.732	1	3
438.073	1	11
438.414	1	8
438.756	1	12
439.097	1	15
439.438	1	6
439.779	1	7
440.120	1	13
440.461	1	11
440.802	1	2
441.143	1	2
441.485	1	13
441.826	1	12
442.167	1	5
442.508	1	9
442.849	1	13
443.190	1	11
443.531	1	3
443.872	1	0
444.213	1	-1
444.554	1	12
444.895	1	3
445.237	1	8
445.578	1	1
445.919	1	2
446.260	1	8
446.601	1	14
446.942	1	3
447.283	1	14
447.624	1	-7
447.965	1	7
448.306	1	13
448.647	1	3
448.988	1	14
449.329	1	15
449.670	1	8
450.011	1	11
450.352	1	0
450.693	1	12
451.034	1	4
451.375	1	1
451.716	1	-1
452.057	1	9
452.398	1	13
452.739	1	8
453.080	1	16
453.421	1	7
453.762	1	9
454.103	1	13
454.444	1	3
454.785	1	10
455.126	1	3
455.467	1	4
455.808	1	14
456.149	1	10
456.490	1	-4
456.831	1	1
457.172	1	12
457.513	1	2
457.854	1	10
458.195	1	8
458.536	1	6
458.877	1	8
459.218	1	14
459.559	1	9
459.899	1	-4
460.240	1	4
460.581	1	4
460.922	1	9
461.263	1	16
461.604	1	1
461.945	1	13
462.286	1	2
462.627	1	-3
462.968	1	6
463.309	1	10
463.649	1	5
463.990	1	2
464.331	1	16
464.672	1	3
465.013	1	5
465.354	1	20
465.695	1	8
466.036	1	15
466.376	1	8
466.717	1	-6
467.058	1	8
467.399	1	-7
467.740	1	12
468.081	1	4
468.422	1	11
468.762	1	11
469.103	1	-1
469.444	1	7
469.785	1	2
470.126	1	5
470.467	1	4
470.807	1	9
471.148	1	0
471.489	1	9
471.830	1	6
472.171	1	12
472.511	1	5
472.852	1	7
473.193	1	4
473.534	1	6
473.875	1	5
474.215	1	3
474.556	1	-3
474.897	1	6
475.238	1	14
475.578	1	4
475.919	1	-2
476.260	1	1
476.601	1	8
476.942	1	2
477.282	1	-1
477.623	1	2
477.964	1	6
478.305	1	3
478.645	1	7
478.986	1	16
479.327	1	12
479.667	1	1
480.008	1	10
480.349	1	8
480.690	1	1
481.030	1	-11
481.371	1	-16
481.712	1	14
482.053	1	19
482.393	1	11
482.734	1	10
483.075	1	10
483.415	1	4
483.756	1	15
484.097	1	11
484.437	1	6
484.778	1	2
485.119	1	3
485.459	1	-10
485.800	1	1
486.141	1	4
486.481	1	-1
486.822	1	13
487.163	1	-1
487.503	1	6
487.844	1	0
488.185	1	14
488.525	1	-4
488.866	1	2
489.207	1	6
489.547	1	8
489.888	1	9
490.228	1	4
490.569	1	-2
490.910	1	0
491.250	1	9
491.591	1	2
491.932	1	9
492.272	1	-1
492.613	1	3
492.953	1	-1
493.294	1	-6
493.635	1	7
493.975	1	12
494.316	1	1
494.656	1	3
494.997	1	-5
495.337	1	4
495.678	1	3
496.019	1	4
496.359	1	-7
496.700	1	11
497.040	1	4
497.381	1	10
497.721	1	2
498.062	1	-2
498.403	1	12
498.743	1	8
499.084	1	4
499.424	1	8
499.765	1	4
500.105	1	14
500.446	1	-6
500.786	1	-5
501.127	1	7
501.467	1	12
501.808	1	3
502.148	1	-2
502.489	1	10
502.829	1	3
503.170	1	13
503.510	1	5
503.851	1	11
504.191	1	-4
504.532	1	11
504.872	1	0
505.213	1	3
505.553	1	7
505.894	1	12
506.234	1	13
506.575	1	20
506.915	1	5
507.256	1	9
507.596	1	20
507.936	1	15
508.277	1	17
508.617	1	13
508.958	1	14
509.298	1	9
509.639	1	9
509.979	1	3
510.319	1	10
510.660	1	5
511.000	1	5
511.341	1	25
511.681	1	13
512.022	1	-9
512.362	1	13
512.702	1	-1
513.043	1	23
513.383	1	14
513.724	1	0
514.064	1	18
514.404	1	19
514.745	1	1
515.085	1	11
515.425	1	14
515.766	1	-5
516.106	1	2
516.447	1	14
516.787	1	16
517.127	1	23
517.468	1	12
517.808	1	2
518.148	1	16
518.489	1	7
518.829	1	10
519.169	1	11
519.510	1	3
519.850	1	10
520.190	1	7
520.531	1	18
520.871	1	4
521.211	1	8
521.552	1	5
521.892	1	9
522.232	1	9
522.573	1	11
522.913	1	8
523.253	1	16
523.593	1	16
523.934	1	12
524.274	1	4
524.614	1	12
524.955	1	9
525.295	1	16
525.635	1	15
525.975	1	4
526.316	1	-7
526.656	1	7
526.996	1	-2
527.337	1	22
527.677	1	14
528.017	1	4
528.357	1	6
528.698	1	17
529.038	1	7
529.378	1	7
529.718	1	3
530.058	1	10
530.399	1	17
530.739	1	11
531.079	1	13
531.419	1	7
531.760	1	18
532.100	1	15
532.440	1	17
532.780	1	5
533.120	1	5
533.461	1	13
533.801	1	15
534.141	1	13
534.481	1	28
534.821	1	6
535.162	1	10
535.502	1	12
535.842	1	-1
536.182	1	9
536.522	1	12
536.862	1	1
537.203	1	11
537.543	1	24
537.883	1	16
538.223	1	15
538.563	1	7
538.903	1	6
539.243	1	-3
539.584	1	6
539.924	1	2
540.264	1	16
540.604	1	20
540.944	1	13
541.284	1	8
541.624	1	15
541.964	1	12
542.305	1	14
542.645	1	5
542.985	1	9
543.325	1	14
543.665	1	9
544.005	1	5
544.345	1	17
544.685	1	7
545.025	1	11
545.365	1	10
545.705	1	-3
546.045	1	25
546.386	1	3
546.726	1	12
547.066	1	-2
547.406	1	-2
547.746	1	2
548.086	1	15
548.426	1	14
548.766	1	7
549.106	1	9
549.446	1	10
549.786	1	13
550.126	1	8
550.466	1	11
550.806	1	13
551.146	1	20
551.486	1	2
551.826	1	-3
552.166	1	3
552.506	1	10
552.846	1	11
553.186	1	6
553.526	1	10
553.866	1	4
554.206	1	14
554.546	1	9
554.886	1	-1
555.226	1	5
555.566	1	11
555.906	1	1
556.246	1	10
556.586	1	1
556.926	1	6
557.266	1	15
557.606	1	-7
557.946	1	11
558.286	1	-7
558.626	1	4
558.966	1	3
559.306	1	6
559.646	1	9
559.986	1	7
560.325	1	17
560.665	1	10
561.005	1	7
561.345	1	3
561.685	1	9
562.025	1	9
562.365	1	10
562.705	1	18
563.045	1	8
563.385	1	10
563.725	1	11
564.064	1	4
564.404	1	5
564.744	1	21
565.084	1	14
565.424	1	-1
565.764	1	9
566.104	1	6
566.444	1	19
566.783	1	0
567.123	1	10
567.463	1	7
567.803	1	15
568.143	1	4
568.483	1	10
568.823	1	5
569.162	1	0
569.502	1	4
569.842	1	13
570.182	1	5
570.522	1	-4
570.862	1	-10
571.201	1	21
571.541	1	5
571.881	1	8
572.221	1	7
572.561	1	13
572.900	1	11
573.240	1	7
573.580	1	7
573.920	1	10
574.260	1	8
574.599	1	2
574.939	1	3
575.279	1	3
575.619	1	2
575.959	1	-4
576.298	1	-5
576.638	1	13
576.978	1	3
577.318	1	9
577.657	1	-3
577.997	1	3
578.337	1	2
578.677	1	8
579.016	1	6
579.356	1	5
579.696	1	10
580.036	1	0
580.375	1	3
580.715	1	13
581.055	1	6
581.394	1	7
581.734	1	-1
582.074	1	5
582.414	1	11
582.753	1	3
583.093	1	6
583.433	1	10
583.772	1	7
584.112	1	3
584.452	1	7
584.791	1	12
585.131	1	-3
585.471	1	8
585.811	1	7
586.150	1	6
586.490	1	-11
586.830	1	7
587.169	1	4
587.509	1	3
587.849	1	8
588.188	1	8
588.528	1	0
588.867	1	9
589.207	1	11
589.547	1	13
589.886	1	4
590.226	1	0
590.566	1	0
590.905	1	5
591.245	1	-1
591.585	1	5
591.924	1	-2
592.264	1	2
592.603	1	-11
592.943	1	-2
593.283	1	10
593.622	1	5
593.962	1	8
594.301	1	0
594.641	1	5
594.981	1	8
595.320	1	6
595.660	1	15
595.999	1	8
596.339	1	3
596.678	1	-5
597.018	1	-4
597.358	1	9
597.697	1	-1
598.037	1	5
598.376	1	-2
598.716	1	9
599.055	1	4
599.395	1	-1
599.734	1	2
600.074	1	-7
600.413	1	3
600.753	1	9
601.092	1	-8
601.432	1	-2
601.771	1	6
602.111	1	3
602.451	1	-1
602.790	1	8
603.130	1	2
603.469	1	14
603.809	1	4
604.148	1	-7
604.487	1	0
604.827	1	1
605.166	1	8
605.506	1	-3
605.845	1	6
606.185	1	-2
606.524	1	5
606.864	1	10
607.203	1	10
607.543	1	14
607.882	1	14
608.222	1	9
608.561	1	10
608.901	1	0
609.240	1	2
609.579	1	-7
609.919	1	-3
610.258	1	13
610.598	1	-4
610.937	1	-4
611.277	1	2
611.616	1	13
611.955	1	10
612.295	1	17
612.634	1	4
612.974	1	0
613.313	1	3
613.652	1	15
613.992	1	5
614.331	1	18
614.671	1	0
615.010	1	-1
615.349	1	7
615.689	1	-1
616.028	1	22
616.368	1	0
616.707	1	8
617.046	1	0
617.386	1	11
617.725	1	-2
618.064	1	-4
618.404	1	1
618.743	1	7
619.082	1	20
619.422	1	19
619.761	1	4
620.100	1	7
620.440	1	4
620.779	1	13
621.118	1	12
621.458	1	7
621.797	1	5
622.136	1	3
622.476	1	13
622.815	1	11
623.154	1	1
623.494	1	-3
623.833	1	5
624.172	1	8
624.511	1	-9
624.851	1	3
625.190	1	4
625.529	1	-3
625.869	1	18
626.208	1	-11
626.547	1	4
626.886	1	-3
627.226	1	14
627.565	1	11
627.904	1	4
628.243	1	6
628.583	1	13
628.922	1	12
629.261	1	4
629.600	1	2
629.940	1	8
630.279	1	9
630.618	1	-3
630.957	1	9
631.297	1	10
631.636	1	-3
631.975	1	3
632.314	1	6
632.653	1	3
632.993	1	1
633.332	1	14
633.671	1	3
634.010	1	2
634.349	1	14
634.689	1	3
635.028	1	6
635.367	1	10
635.706	1	-7
636.045	1	-4
636.384	1	7
636.724	1	2
637.063	1	1
637.402	1	12
637.741	1	0
638.080	1	2
638.419	1	1
638.759	1	3
639.098	1	6
639.437	1	7
639.776	1	9
640.115	1	3
640.454	1	-7
640.793	1	4
641.132	1	6
641.472	1	11
641.811	1	4
642.150	1	1
642.489	1	5
642.828	1	16
643.167	1	4
643.506	1	0
643.845	1	8
644.184	1	15
644.524	1	10
644.863	1	8
645.202	1	5
645.541	1	11
645.880	1	8
646.219	1	10
646.558	1	0
646.897	1	-7
647.236	1	-6
647.575	1	7
647.914	1	5
648.253	1	13
648.592	1	9
648.931	1	6
649.270	1	11
649.610	1	5
649.949	1	1
650.288	1	8
650.627	1	1
650.966	1	9
651.305	1	8
651.644	1	20
651.983	1	-1
652.322	1	2
652.661	1	2
653.000	1	-2
653.339	1	8
653.678	1	14
654.017	1	11
654.356	1	5
654.695	1	16
655.034	1	-1
655.373	1	9
655.712	1	7
656.051	1	-7
656.390	1	12
656.729	1	7
657.068	1	-3
657.406	1	-2
657.745	1	11
658.084	1	-2
658.423	1	9
658.762	1	-5
659.101	1	0
659.440	1	0
659.779	1	5
660.118	1	-2
660.457	1	2
660.796	1	10
661.135	1	3
661.474	1	3
661.813	1	-3
662.152	1	5
662.491	1	2
662.829	1	2
663.168	1	9
663.507	1	2
663.846	1	9
664.185	1	-1
664.524	1	16
664.863	1	-3
665.202	1	5
665.541	1	2
665.879	1	5
666.218	1	10
666.557	1	2
666.896	1	-3
667.235	1	1
667.574	1	4
667.913	1	4
668.251	1	-2
668.590	1	1
668.929	1	-2
669.268	1	-3
669.607	1	0
669.946	1	6
670.285	1	3
670.623	1	17
670.962	1	-3
671.301	1	-1
671.640	1	11
671.979	1	-6
672.317	1	6
672.656	1	5
672.995	1	2
673.334	1	2
673.673	1	11
674.011	1	12
674.350	1	-4
674.689	1	-1
675.028	1	9
675.367	1	7
675.705	1	-2
676.044	1	2
676.383	1	-3
676.722	1	8
677.060	1	3
677.399	1	12
677.738	1	-2
678.077	1	0
678.416	1	1
678.754	1	-4
679.093	1	9
679.432	1	-5
679.771	1	8
680.109	1	-3
680.448	1	7
680.787	1	-2
681.125	1	6
681.464	1	6
681.803	1	8
682.142	1	6
682.480	1	-7
682.819	1	7
683.158	1	5
683.496	1	-5
683.835	1	8
684.174	1	4
684.512	1	4
684.851	1	3
685.190	1	2
685.529	1	-3
685.867	1	2
686.206	1	-2
686.545	1	-10
686.883	1	16
687.222	1	-3
687.561	1	6
687.899	1	2
688.238	1	11
688.577	1	8
688.746	1	-4