File: Data/GaN_150K_450ms/GaN_sample D_spot15_UVVIS_150 K_200um_450 ms 2x2mm1_121.txt
340.368	1	11
340.710	1	5
341.052	1	10
341.394	1	-7
341.737	1	12
342.079	1	9
342.421	1	-6
342.763	1	10
343.105	1	4
343.447	1	2
343.789	1	3
344.131	1	-6
344.473	1	3
344.815	1	9
345.157	1	15
345.499	1	12
345.841	1	6
346.183	1	3
346.526	1	4
346.868	1	-6
347.210	1	-5
347.552	1	15
347.894	1	-1
348.236	1	10
348.578	1	13
348.920	1	4
349.262	1	7
349.604	1	-3
349.946	1	4
350.288	1	2
350.630	1	-1
350.972	1	11
351.314	1	4
351.656	1	13
351.998	1	3
352.340	1	7
352.682	1	-5
353.024	1	19
353.366	1	6
353.708	1	8
354.050	1	-5
354.392	1	-5
354.734	1	8
355.076	1	22
355.418	1	4
355.760	1	8
356.102	1	0
356.444	1	8
356.785	1	9
357.127	1	16
357.469	1	13
357.811	1	2
358.153	1	-2
358.495	1	16
358.837	1	24
359.179	1	15
359.521	1	28
359.863	1	6
360.205	1	19
360.547	1	20
360.889	1	9
361.231	1	20
361.572	1	18
361.914	1	18
362.256	1	33
362.598	1	26
362.940	1	29
363.282	1	22
363.624	1	27
363.966	1	38
364.308	1	34
364.649	1	37
364.991	1	41
365.333	1	46
365.675	1	54
366.017	1	56
366.359	1	41
366.701	1	41
367.042	1	61
367.384	1	53
367.726	1	75
368.068	1	71
368.410	1	57
368.752	1	81
369.093	1	62
369.435	1	65
369.777	1	65
370.119	1	56
370.461	1	59
370.803	1	55
371.144	1	53
371.486	1	54
371.828	1	50
372.170	1	43
372.512	1	40
372.853	1	49
373.195	1	30
373.537	1	33
373.879	1	28
374.220	1	43
374.562	1	43
374.904	1	39
375.246	1	26
375.588	1	26
375.929	1	44
376.271	1	27
376.613	1	32
376.955	1	23
377.296	1	22
377.638	1	13
377.980	1	14
378.321	1	26
378.663	1	17
379.005	1	14
379.347	1	15
379.688	1	26
380.030	1	32
380.372	1	18
380.714	1	7
381.055	1	9
381.397	1	16
381.739	1	7
382.080	1	14
382.422	1	22
382.764	1	16
383.105	1	12
383.447	1	10
383.789	1	10
384.130	1	13
384.472	1	8
384.814	1	19
385.156	1	11
385.497	1	23
385.839	1	16
386.180	1	16
386.522	1	18
386.864	1	-4
387.205	1	8
387.547	1	7
387.889	1	7
388.230	1	7
388.572	1	7
388.914	1	9
389.255	1	12
389.597	1	11
389.939	1	18
390.280	1	5
390.622	1	1
390.963	1	5
391.305	1	3
391.647	1	8
391.988	1	10
392.330	1	2
392.671	1	6
393.013	1	8
393.355	1	12
393.696	1	10
394.038	1	9
394.379	1	12
394.721	1	8
395.062	1	11
395.404	1	10
395.746	1	1
396.087	1	17
396.429	1	13
396.770	1	6
397.112	1	9
397.453	1	-4
397.795	1	1
398.136	1	20
398.478	1	13
398.819	1	16
399.161	1	10
399.503	1	19
399.844	1	7
400.186	1	17
400.527	1	17
400.869	1	8
401.210	1	15
401.552	1	5
401.893	1	11
402.235	1	7
402.576	1	15
402.918	1	2
403.259	1	-6
403.601	1	12
403.942	1	8
404.284	1	24
404.625	1	5
404.967	1	9
405.308	1	-3
405.649	1	11
405.991	1	11
406.332	1	8
406.674	1	7
407.015	1	22
407.357	1	16
407.698	1	15
408.040	1	22
408.381	1	2
408.722	1	11
409.064	1	16
409.405	1	13
409.747	1	0
410.088	1	15
410.430	1	24
410.771	1	17
411.112	1	2
411.454	1	13
411.795	1	2
412.137	1	-1
412.478	1	17
412.819	1	10
413.161	1	11
413.502	1	11
413.844	1	17
414.185	1	7
414.526	1	7
414.868	1	11
415.209	1	7
415.550	1	6
415.892	1	8
416.233	1	7
416.575	1	5
416.916	1	12
417.257	1	1
417.599	1	14
417.940	1	10
418.281	1	13
418.623	1	16
418.964	1	14
419.305	1	17
419.647	1	12
419.988	1	23
420.329	1	11
420.671	1	12
421.012	1	12
421.353	1	21
421.695	1	19
422.036	1	25
422.377	1	2
422.718	1	19
423.060	1	12
423.401	1	5
423.742	1	20
424.084	1	10
424.425	1	23
424.766	1	18
425.107	1	11
425.449	1	10
425.790	1	15
426.131	1	7
426.472	1	14
426.814	1	5
427.155	1	8
427.496	1	9
427.837	1	10
428.179	1	22
428.520	1	19
428.861	1	20
429.202	1	7
429.544	1	13
429.885	1	19
430.226	1	5
430.567	1	4
430.909	1	10
431.250	1	13
431.591	1	8
431.932	1	10
432.273	1	21
432.615	1	9
432.956	1	8
433.297	1	14
433.638	1	18
433.979	1	13
434.320	1	17
434.662	1	22
435.003	1	23
435.344	1	4
435.685	1	3
436.026	1	10
436.368	1	8
436.709	1	5
437.050	1	9
437.391	1	9
437.732	1	12
438.073	1	1
438.414	1	15
438.756	1	0
439.097	1	5
439.438	1	8
439.779	1	17
440.120	1	12
440.461	1	15
440.802	1	9
441.143	1	10
441.485	1	9
441.826	1	10
442.167	1	15
442.508	1	7
442.849	1	16
443.190	1	11
443.531	1	7
443.872	1	3
444.213	1	3
444.554	1	8
444.895	1	13
445.237	1	18
445.578	1	6
445.919	1	0
446.260	1	15
446.601	1	12
446.942	1	4
447.283	1	15
447.624	1	-1
447.965	1	15
448.306	1	17
448.647	1	18
448.988	1	14
449.329	1	13
449.670	1	12
450.011	1	10
450.352	1	8
450.693	1	7
451.034	1	10
451.375	1	8
451.716	1	8
452.057	1	12
452.398	1	16
452.739	1	17
453.080	1	12
453.421	1	6
453.762	1	8
454.103	1	5
454.444	1	6
454.785	1	8
455.126	1	6
455.467	1	4
455.808	1	16
456.149	1	1
456.490	1	1
456.831	1	6
457.172	1	12
457.513	1	2
457.854	1	4
458.195	1	4
458.536	1	3
458.877	1	14
459.218	1	19
459.559	1	5
459.899	1	2
460.240	1	-1
460.581	1	-3
460.922	1	7
461.263	1	19
461.604	1	5
461.945	1	9
462.286	1	4
462.627	1	0
462.968	1	10
463.309	1	12
463.649	1	2
463.990	1	7
464.331	1	10
464.672	1	6
465.013	1	12
465.354	1	20
465.695	1	2
466.036	1	8
466.376	1	16
466.717	1	2
467.058	1	6
467.399	1	5
467.740	1	21
468.081	1	5
468.422	1	11
468.762	1	9
469.103	1	3
469.444	1	5
469.785	1	-1
470.126	1	2
470.467	1	4
470.807	1	6
471.148	1	2
471.489	1	12
471.830	1	2
472.171	1	15
472.511	1	13
472.852	1	12
473.193	1	7
473.534	1	14
473.875	1	-1
474.215	1	9
474.556	1	2
474.897	1	-1
475.238	1	10
475.578	1	-7
475.919	1	6
476.260	1	2
476.601	1	14
476.942	1	-3
477.282	1	2
477.623	1	1
477.964	1	6
478.305	1	10
478.645	1	1
478.986	1	14
479.327	1	12
479.667	1	12
480.008	1	11
480.349	1	15
480.690	1	9
481.030	1	1
481.371	1	-7
481.712	1	12
482.053	1	12
482.393	1	7
482.734	1	5
483.075	1	12
483.415	1	1
483.756	1	15
484.097	1	10
484.437	1	20
484.778	1	3
485.119	1	9
485.459	1	-2
485.800	1	3
486.141	1	11
486.481	1	1
486.822	1	18
487.163	1	-4
487.503	1	4
487.844	1	7
488.185	1	15
488.525	1	-2
488.866	1	0
489.207	1	13
489.547	1	6
489.888	1	10
490.228	1	7
490.569	1	-2
490.910	1	13
491.250	1	11
491.591	1	2
491.932	1	20
492.272	1	-2
492.613	1	2
492.953	1	9
493.294	1	-1
493.635	1	7
493.975	1	11
494.316	1	-2
494.656	1	2
494.997	1	3
495.337	1	11
495.678	1	5
496.019	1	5
496.359	1	11
496.700	1	18
497.040	1	13
497.381	1	15
497.721	1	3
498.062	1	5
498.403	1	7
498.743	1	12
499.084	1	20
499.424	1	7
499.765	1	17
500.105	1	24
500.446	1	2
500.786	1	7
501.127	1	6
501.467	1	22
501.808	1	14
502.148	1	12
502.489	1	-2
502.829	1	7
503.170	1	7
503.510	1	11
503.851	1	10
504.191	1	0
504.532	1	17
504.872	1	4
505.213	1	11
505.553	1	15
505.894	1	12
506.234	1	21
506.575	1	26
506.915	1	14
507.256	1	21
507.596	1	18
507.936	1	19
508.277	1	13
508.617	1	13
508.958	1	20
509.298	1	7
509.639	1	1
509.979	1	7
510.319	1	16
510.660	1	7
511.000	1	20
511.341	1	17
511.681	1	14
512.022	1	-1
512.362	1	9
512.702	1	11
513.043	1	18
513.383	1	11
513.724	1	15
514.064	1	14
514.404	1	16
514.745	1	11
515.085	1	19
515.425	1	11
515.766	1	12
516.106	1	12
516.447	1	14
516.787	1	8
517.127	1	20
517.468	1	29
517.808	1	21
518.148	1	21
518.489	1	17
518.829	1	17
519.169	1	11
519.510	1	10
519.850	1	12
520.190	1	18
520.531	1	18
520.871	1	13
521.211	1	14
521.552	1	2
521.892	1	17
522.232	1	18
522.573	1	23
522.913	1	19
523.253	1	14
523.593	1	20
523.934	1	14
524.274	1	14
524.614	1	24
524.955	1	16
525.295	1	12
525.635	1	25
525.975	1	15
526.316	1	8
526.656	1	23
526.996	1	10
527.337	1	20
527.677	1	30
528.017	1	11
528.357	1	25
528.698	1	26
529.038	1	14
529.378	1	18
529.718	1	18
530.058	1	14
530.399	1	21
530.739	1	12
531.079	1	10
531.419	1	24
531.760	1	20
532.100	1	31
532.440	1	27
532.780	1	17
533.120	1	21
533.461	1	9
533.801	1	17
534.141	1	17
534.481	1	40
534.821	1	19
535.162	1	20
535.502	1	19
535.842	1	17
536.182	1	9
536.522	1	13
536.862	1	17
537.203	1	8
537.543	1	20
537.883	1	19
538.223	1	27
538.563	1	12
538.903	1	17
539.243	1	12
539.584	1	20
539.924	1	18
540.264	1	25
540.604	1	29
540.944	1	25
541.284	1	5
541.624	1	16
541.964	1	10
542.305	1	22
542.645	1	9
542.985	1	17
543.325	1	13
543.665	1	7
544.005	1	14
544.345	1	18
544.685	1	6
545.025	1	19
545.365	1	14
545.705	1	23
546.045	1	14
546.386	1	13
546.726	1	10
547.066	1	15
547.406	1	16
547.746	1	17
548.086	1	12
548.426	1	18
548.766	1	13
549.106	1	13
549.446	1	13
549.786	1	6
550.126	1	10
550.466	1	7
550.806	1	24
551.146	1	8
551.486	1	11
551.826	1	10
552.166	1	24
552.506	1	15
552.846	1	14
553.186	1	5
553.526	1	20
553.866	1	17
554.206	1	24
554.546	1	14
554.886	1	13
555.226	1	8
555.566	1	15
555.906	1	8
556.246	1	12
556.586	1	9
556.926	1	-1
557.266	1	16
557.606	1	10
557.946	1	17
558.286	1	2
558.626	1	9
558.966	1	16
559.306	1	9
559.646	1	22
559.986	1	11
560.325	1	9
560.665	1	5
561.005	1	12
561.345	1	10
561.685	1	21
562.025	1	10
562.365	1	9
562.705	1	22
563.045	1	17
563.385	1	17
563.725	1	15
564.064	1	-7
564.404	1	2
564.744	1	17
565.084	1	10
565.424	1	8
565.764	1	13
566.104	1	14
566.444	1	21
566.783	1	15
567.123	1	6
567.463	1	15
567.803	1	14
568.143	1	11
568.483	1	12
568.823	1	3
569.162	1	3
569.502	1	16
569.842	1	10
570.182	1	10
570.522	1	6
570.862	1	-4
571.201	1	13
571.541	1	6
571.881	1	6
572.221	1	11
572.561	1	16
572.900	1	20
573.240	1	15
573.580	1	12
573.920	1	8
574.260	1	5
574.599	1	14
574.939	1	18
575.279	1	1
575.619	1	4
575.959	1	6
576.298	1	-4
576.638	1	16
576.978	1	13
577.318	1	16
577.657	1	7
577.997	1	21
578.337	1	10
578.677	1	12
579.016	1	4
579.356	1	8
579.696	1	11
580.036	1	5
580.375	1	18
580.715	1	11
581.055	1	6
581.394	1	8
581.734	1	13
582.074	1	7
582.414	1	8
582.753	1	11
583.093	1	11
583.433	1	18
583.772	1	12
584.112	1	11
584.452	1	6
584.791	1	12
585.131	1	9
585.471	1	1
585.811	1	14
586.150	1	13
586.490	1	6
586.830	1	6
587.169	1	14
587.509	1	8
587.849	1	15
588.188	1	11
588.528	1	-3
588.867	1	13
589.207	1	5
589.547	1	20
589.886	1	7
590.226	1	-3
590.566	1	1
590.905	1	2
591.245	1	-2
591.585	1	-7
591.924	1	11
592.264	1	-3
592.603	1	-6
592.943	1	7
593.283	1	4
593.622	1	8
593.962	1	14
594.301	1	2
594.641	1	10
594.981	1	14
595.320	1	10
595.660	1	10
595.999	1	15
596.339	1	0
596.678	1	-9
597.018	1	0
597.358	1	6
597.697	1	2
598.037	1	6
598.376	1	-1
598.716	1	9
599.055	1	16
599.395	1	1
599.734	1	8
600.074	1	-4
600.413	1	10
600.753	1	22
601.092	1	-3
601.432	1	-7
601.771	1	15
602.111	1	4
602.451	1	12
602.790	1	8
603.130	1	7
603.469	1	3
603.809	1	7
604.148	1	7
604.487	1	6
604.827	1	9
605.166	1	4
605.506	1	3
605.845	1	5
606.185	1	1
606.524	1	4
606.864	1	24
607.203	1	11
607.543	1	-1
607.882	1	15
608.222	1	7
608.561	1	10
608.901	1	12
609.240	1	14
609.579	1	-1
609.919	1	-8
610.258	1	9
610.598	1	0
610.937	1	-5
611.277	1	7
611.616	1	17
611.955	1	6
612.295	1	8
612.634	1	7
612.974	1	-2
613.313	1	-1
613.652	1	10
613.992	1	1
614.331	1	15
614.671	1	0
615.010	1	11
615.349	1	6
615.689	1	-5
616.028	1	11
616.368	1	15
616.707	1	4
617.046	1	4
617.386	1	10
617.725	1	8
618.064	1	-6
618.404	1	2
618.743	1	12
619.082	1	16
619.422	1	17
619.761	1	2
620.100	1	9
620.440	1	14
620.779	1	8
621.118	1	16
621.458	1	2
621.797	1	-5
622.136	1	-1
622.476	1	0
622.815	1	14
623.154	1	-11
623.494	1	1
623.833	1	2
624.172	1	9
624.511	1	-2
624.851	1	4
625.190	1	1
625.529	1	-5
625.869	1	19
626.208	1	-5
626.547	1	2
626.886	1	4
627.226	1	12
627.565	1	0
627.904	1	2
628.243	1	11
628.583	1	14
628.922	1	10
629.261	1	7
629.600	1	0
629.940	1	5
630.279	1	8
630.618	1	8
630.957	1	11
631.297	1	6
631.636	1	6
631.975	1	3
632.314	1	6
632.653	1	-4
632.993	1	1
633.332	1	10
633.671	1	7
634.010	1	1
634.349	1	10
634.689	1	3
635.028	1	1
635.367	1	14
635.706	1	0
636.045	1	-2
636.384	1	5
636.724	1	4
637.063	1	1
637.402	1	15
637.741	1	12
638.080	1	5
638.419	1	-3
638.759	1	6
639.098	1	6
639.437	1	7
639.776	1	7
640.115	1	1
640.454	1	-6
640.793	1	4
641.132	1	12
641.472	1	15
641.811	1	-2
642.150	1	7
642.489	1	12
642.828	1	20
643.167	1	0
643.506	1	7
643.845	1	12
644.184	1	12
644.524	1	-1
644.863	1	7
645.202	1	6
645.541	1	7
645.880	1	13
646.219	1	2
646.558	1	-1
646.897	1	-3
647.236	1	-3
647.575	1	15
647.914	1	-5
648.253	1	19
648.592	1	1
648.931	1	12
649.270	1	7
649.610	1	4
649.949	1	-9
650.288	1	10
650.627	1	9
650.966	1	6
651.305	1	4
651.644	1	10
651.983	1	2
652.322	1	1
652.661	1	11
653.000	1	7
653.339	1	-2
653.678	1	4
654.017	1	8
654.356	1	11
654.695	1	12
655.034	1	-3
655.373	1	7
655.712	1	15
656.051	1	3
656.390	1	5
656.729	1	13
657.068	1	13
657.406	1	7
657.745	1	22
658.084	1	-1
658.423	1	14
658.762	1	1
659.101	1	2
659.440	1	1
659.779	1	9
660.118	1	3
660.457	1	7
660.796	1	9
661.135	1	18
661.474	1	7
661.813	1	5
662.152	1	8
662.491	1	-1
662.829	1	-4
663.168	1	2
663.507	1	0
663.846	1	-3
664.185	1	8
664.524	1	9
664.863	1	-8
665.202	1	5
665.541	1	5
665.879	1	8
666.218	1	8
666.557	1	9
666.896	1	11
667.235	1	-4
667.574	1	-7
667.913	1	6
668.251	1	-2
668.590	1	2
668.929	1	0
669.268	1	1
669.607	1	8
669.946	1	11
670.285	1	13
670.623	1	7
670.962	1	-5
671.301	1	9
671.640	1	4
671.979	1	6
672.317	1	4
672.656	1	3
672.995	1	-1
673.334	1	-2
673.673	1	8
674.011	1	7
674.350	1	5
674.689	1	-2
675.028	1	7
675.367	1	0
675.705	1	0
676.044	1	2
676.383	1	-2
676.722	1	4
677.060	1	0
677.399	1	13
677.738	1	4
678.077	1	-1
678.416	1	4
678.754	1	10
679.093	1	-2
679.432	1	-2
679.771	1	0
680.109	1	11
680.448	1	0
680.787	1	-8
681.125	1	8
681.464	1	11
681.803	1	-1
682.142	1	4
682.480	1	-9
682.819	1	12
683.158	1	4
683.496	1	-2
683.835	1	9
684.174	1	7
684.512	1	6
684.851	1	6
685.190	1	3
685.529	1	4
685.867	1	5
686.206	1	-8
686.545	1	-4
686.883	1	14
687.222	1	9
687.561	1	-2
687.899	1	6
688.238	1	16
688.577	1	8
688.746	1	4