File: Data/GaN_150K_450ms/GaN_sample D_spot15_UVVIS_150 K_200um_450 ms 2x2mm1_14.txt
340.368	1	-3
340.710	1	-2
341.052	1	9
341.394	1	-5
341.737	1	-2
342.079	1	1
342.421	1	-5
342.763	1	5
343.105	1	1
343.447	1	-4
343.789	1	4
344.131	1	-9
344.473	1	-2
344.815	1	-3
345.157	1	11
345.499	1	2
345.841	1	5
346.183	1	3
346.526	1	-1
346.868	1	-3
347.210	1	-6
347.552	1	7
347.894	1	-4
348.236	1	0
348.578	1	0
348.920	1	1
349.262	1	2
349.604	1	4
349.946	1	-6
350.288	1	-9
350.630	1	-4
350.972	1	10
351.314	1	2
351.656	1	9
351.998	1	2
352.340	1	5
352.682	1	-13
353.024	1	9
353.366	1	12
353.708	1	3
354.050	1	-8
354.392	1	-5
354.734	1	2
355.076	1	6
355.418	1	-7
355.760	1	4
356.102	1	0
356.444	1	6
356.785	1	2
357.127	1	5
357.469	1	0
357.811	1	3
358.153	1	-12
358.495	1	-2
358.837	1	6
359.179	1	5
359.521	1	0
359.863	1	2
360.205	1	8
360.547	1	5
360.889	1	-4
361.231	1	1
361.572	1	3
361.914	1	7
362.256	1	11
362.598	1	6
362.940	1	2
363.282	1	-8
363.624	1	-1
363.966	1	-5
364.308	1	-7
364.649	1	-3
364.991	1	0
365.333	1	0
365.675	1	6
366.017	1	2
366.359	1	-3
366.701	1	-4
367.042	1	10
367.384	1	-6
367.726	1	3
368.068	1	7
368.410	1	0
368.752	1	8
369.093	1	9
369.435	1	6
369.777	1	13
370.119	1	-1
370.461	1	-3
370.803	1	0
371.144	1	2
371.486	1	2
371.828	1	-1
372.170	1	0
372.512	1	-6
372.853	1	8
373.195	1	3
373.537	1	-10
373.879	1	2
374.220	1	-2
374.562	1	5
374.904	1	-4
375.246	1	4
375.588	1	-3
375.929	1	4
376.271	1	-5
376.613	1	0
376.955	1	-1
377.296	1	-3
377.638	1	-4
377.980	1	-1
378.321	1	1
378.663	1	8
379.005	1	4
379.347	1	-2
379.688	1	10
380.030	1	9
380.372	1	3
380.714	1	5
381.055	1	2
381.397	1	-7
381.739	1	-5
382.080	1	0
382.422	1	11
382.764	1	2
383.105	1	2
383.447	1	-6
383.789	1	-8
384.130	1	5
384.472	1	-4
384.814	1	10
385.156	1	0
385.497	1	9
385.839	1	0
386.180	1	-1
386.522	1	3
386.864	1	-5
387.205	1	0
387.547	1	5
387.889	1	-3
388.230	1	-5
388.572	1	-3
388.914	1	3
389.255	1	-3
389.597	1	2
389.939	1	10
390.280	1	-7
390.622	1	-4
390.963	1	-3
391.305	1	2
391.647	1	-4
391.988	1	5
392.330	1	-2
392.671	1	1
393.013	1	7
393.355	1	7
393.696	1	5
394.038	1	5
394.379	1	12
394.721	1	0
395.062	1	4
395.404	1	3
395.746	1	-4
396.087	1	8
396.429	1	2
396.770	1	3
397.112	1	4
397.453	1	-8
397.795	1	-5
398.136	1	5
398.478	1	-4
398.819	1	5
399.161	1	10
399.503	1	2
399.844	1	0
400.186	1	4
400.527	1	-1
400.869	1	-5
401.210	1	2
401.552	1	2
401.893	1	-6
402.235	1	12
402.576	1	3
402.918	1	-4
403.259	1	3
403.601	1	7
403.942	1	-6
404.284	1	13
404.625	1	3
404.967	1	5
405.308	1	-10
405.649	1	1
405.991	1	-1
406.332	1	9
406.674	1	-1
407.015	1	4
407.357	1	4
407.698	1	3
408.040	1	10
408.381	1	-3
408.722	1	4
409.064	1	0
409.405	1	-4
409.747	1	-9
410.088	1	7
410.430	1	9
410.771	1	9
411.112	1	4
411.454	1	11
411.795	1	-4
412.137	1	2
412.478	1	1
412.819	1	1
413.161	1	1
413.502	1	4
413.844	1	9
414.185	1	8
414.526	1	-6
414.868	1	-1
415.209	1	-11
415.550	1	-2
415.892	1	3
416.233	1	0
416.575	1	-13
416.916	1	-4
417.257	1	-9
417.599	1	1
417.940	1	-5
418.281	1	3
418.623	1	1
418.964	1	11
419.305	1	10
419.647	1	2
419.988	1	12
420.329	1	1
420.671	1	9
421.012	1	-3
421.353	1	9
421.695	1	-2
422.036	1	4
422.377	1	-3
422.718	1	4
423.060	1	-3
423.401	1	-4
423.742	1	12
424.084	1	5
424.425	1	10
424.766	1	0
425.107	1	5
425.449	1	-10
425.790	1	0
426.131	1	-5
426.472	1	4
426.814	1	3
427.155	1	6
427.496	1	-5
427.837	1	-6
428.179	1	13
428.520	1	-1
428.861	1	5
429.202	1	-18
429.544	1	-6
429.885	1	1
430.226	1	-18
430.567	1	-15
430.909	1	-6
431.250	1	3
431.591	1	-1
431.932	1	-1
432.273	1	9
432.615	1	5
432.956	1	2
433.297	1	1
433.638	1	2
433.979	1	-4
434.320	1	8
434.662	1	11
435.003	1	13
435.344	1	4
435.685	1	-3
436.026	1	-9
436.368	1	-8
436.709	1	1
437.050	1	-3
437.391	1	2
437.732	1	10
438.073	1	-7
438.414	1	3
438.756	1	10
439.097	1	1
439.438	1	-4
439.779	1	-1
440.120	1	-4
440.461	1	-6
440.802	1	-1
441.143	1	-2
441.485	1	-4
441.826	1	5
442.167	1	4
442.508	1	-2
442.849	1	10
443.190	1	-8
443.531	1	-3
443.872	1	4
444.213	1	-8
444.554	1	4
444.895	1	-3
445.237	1	6
445.578	1	-12
445.919	1	0
446.260	1	8
446.601	1	-1
446.942	1	6
447.283	1	-1
447.624	1	-10
447.965	1	-1
448.306	1	-5
448.647	1	-3
448.988	1	0
449.329	1	-2
449.670	1	-1
450.011	1	1
450.352	1	-8
450.693	1	1
451.034	1	-8
451.375	1	10
451.716	1	-3
452.057	1	1
452.398	1	9
452.739	1	0
453.080	1	6
453.421	1	11
453.762	1	5
454.103	1	-2
454.444	1	0
454.785	1	1
455.126	1	-4
455.467	1	0
455.808	1	12
456.149	1	1
456.490	1	-5
456.831	1	5
457.172	1	-2
457.513	1	2
457.854	1	6
458.195	1	3
458.536	1	1
458.877	1	6
459.218	1	12
459.559	1	-4
459.899	1	3
460.240	1	5
460.581	1	3
460.922	1	12
461.263	1	11
461.604	1	-8
461.945	1	6
462.286	1	-3
462.627	1	4
462.968	1	4
463.309	1	2
463.649	1	1
463.990	1	-8
464.331	1	7
464.672	1	-1
465.013	1	4
465.354	1	8
465.695	1	2
466.036	1	2
466.376	1	10
466.717	1	-3
467.058	1	-1
467.399	1	4
467.740	1	11
468.081	1	-3
468.422	1	5
468.762	1	1
469.103	1	2
469.444	1	-2
469.785	1	-1
470.126	1	6
470.467	1	-3
470.807	1	5
471.148	1	-1
471.489	1	15
471.830	1	7
472.171	1	22
472.511	1	12
472.852	1	11
473.193	1	-2
473.534	1	-2
473.875	1	3
474.215	1	-5
474.556	1	1
474.897	1	-11
475.238	1	-2
475.578	1	-3
475.919	1	-7
476.260	1	2
476.601	1	6
476.942	1	-1
477.282	1	-4
477.623	1	0
477.964	1	4
478.305	1	1
478.645	1	4
478.986	1	6
479.327	1	5
479.667	1	6
480.008	1	4
480.349	1	-6
480.690	1	5
481.030	1	4
481.371	1	-2
481.712	1	12
482.053	1	18
482.393	1	4
482.734	1	5
483.075	1	3
483.415	1	4
483.756	1	5
484.097	1	2
484.437	1	-1
484.778	1	-1
485.119	1	0
485.459	1	-6
485.800	1	-5
486.141	1	2
486.481	1	2
486.822	1	8
487.163	1	-9
487.503	1	-3
487.844	1	-8
488.185	1	2
488.525	1	-6
488.866	1	0
489.207	1	2
489.547	1	7
489.888	1	0
490.228	1	1
490.569	1	-9
490.910	1	-1
491.250	1	0
491.591	1	8
491.932	1	6
492.272	1	-9
492.613	1	-1
492.953	1	1
493.294	1	-6
493.635	1	5
493.975	1	7
494.316	1	-4
494.656	1	7
494.997	1	-1
495.337	1	2
495.678	1	3
496.019	1	-4
496.359	1	-2
496.700	1	-11
497.040	1	-6
497.381	1	0
497.721	1	-7
498.062	1	-1
498.403	1	4
498.743	1	3
499.084	1	1
499.424	1	-3
499.765	1	11
500.105	1	6
500.446	1	-3
500.786	1	-5
501.127	1	0
501.467	1	11
501.808	1	4
502.148	1	-4
502.489	1	-2
502.829	1	-5
503.170	1	9
503.510	1	0
503.851	1	3
504.191	1	-2
504.532	1	7
504.872	1	-13
505.213	1	-7
505.553	1	2
505.894	1	1
506.234	1	9
506.575	1	18
506.915	1	1
507.256	1	18
507.596	1	10
507.936	1	7
508.277	1	8
508.617	1	0
508.958	1	4
509.298	1	1
509.639	1	-7
509.979	1	-3
510.319	1	2
510.660	1	-8
511.000	1	1
511.341	1	17
511.681	1	3
512.022	1	-6
512.362	1	4
512.702	1	-4
513.043	1	7
513.383	1	-2
513.724	1	-11
514.064	1	5
514.404	1	7
514.745	1	4
515.085	1	-3
515.425	1	1
515.766	1	0
516.106	1	-3
516.447	1	1
516.787	1	4
517.127	1	1
517.468	1	14
517.808	1	-4
518.148	1	15
518.489	1	0
518.829	1	5
519.169	1	0
519.510	1	-5
519.850	1	-1
520.190	1	-3
520.531	1	0
520.871	1	3
521.211	1	0
521.552	1	-2
521.892	1	7
522.232	1	-2
522.573	1	3
522.913	1	0
523.253	1	10
523.593	1	7
523.934	1	-3
524.274	1	0
524.614	1	5
524.955	1	0
525.295	1	4
525.635	1	10
525.975	1	-1
526.316	1	-11
526.656	1	5
526.996	1	-7
527.337	1	7
527.677	1	22
528.017	1	4
528.357	1	0
528.698	1	8
529.038	1	8
529.378	1	-4
529.718	1	2
530.058	1	0
530.399	1	2
530.739	1	-3
531.079	1	0
531.419	1	-2
531.760	1	6
532.100	1	4
532.440	1	6
532.780	1	2
533.120	1	-11
533.461	1	1
533.801	1	2
534.141	1	1
534.481	1	15
534.821	1	2
535.162	1	7
535.502	1	2
535.842	1	1
536.182	1	-3
536.522	1	-2
536.862	1	0
537.203	1	6
537.543	1	10
537.883	1	-1
538.223	1	8
538.563	1	-8
538.903	1	-1
539.243	1	-5
539.584	1	3
539.924	1	2
540.264	1	15
540.604	1	10
540.944	1	2
541.284	1	-4
541.624	1	-4
541.964	1	-3
542.305	1	5
542.645	1	-1
542.985	1	-2
543.325	1	2
543.665	1	-4
544.005	1	0
544.345	1	0
544.685	1	-4
545.025	1	3
545.365	1	3
545.705	1	-1
546.045	1	-2
546.386	1	-1
546.726	1	-1
547.066	1	1
547.406	1	-10
547.746	1	2
548.086	1	2
548.426	1	0
548.766	1	-2
549.106	1	0
549.446	1	0
549.786	1	6
550.126	1	9
550.466	1	-4
550.806	1	6
551.146	1	4
551.486	1	3
551.826	1	-3
552.166	1	4
552.506	1	4
552.846	1	2
553.186	1	-9
553.526	1	2
553.866	1	0
554.206	1	5
554.546	1	17
554.886	1	-2
555.226	1	3
555.566	1	3
555.906	1	1
556.246	1	11
556.586	1	1
556.926	1	4
557.266	1	5
557.606	1	-8
557.946	1	3
558.286	1	-9
558.626	1	6
558.966	1	8
559.306	1	11
559.646	1	7
559.986	1	2
560.325	1	3
560.665	1	-2
561.005	1	1
561.345	1	-2
561.685	1	13
562.025	1	1
562.365	1	-5
562.705	1	9
563.045	1	1
563.385	1	-2
563.725	1	-2
564.064	1	-1
564.404	1	0
564.744	1	6
565.084	1	10
565.424	1	-7
565.764	1	-2
566.104	1	8
566.444	1	9
566.783	1	-6
567.123	1	1
567.463	1	7
567.803	1	7
568.143	1	-4
568.483	1	5
568.823	1	-5
569.162	1	-13
569.502	1	8
569.842	1	-3
570.182	1	1
570.522	1	-8
570.862	1	-6
571.201	1	13
571.541	1	-8
571.881	1	-4
572.221	1	3
572.561	1	5
572.900	1	7
573.240	1	-8
573.580	1	2
573.920	1	9
574.260	1	3
574.599	1	1
574.939	1	3
575.279	1	-5
575.619	1	5
575.959	1	4
576.298	1	-7
576.638	1	8
576.978	1	-1
577.318	1	2
577.657	1	1
577.997	1	3
578.337	1	1
578.677	1	1
579.016	1	-2
579.356	1	8
579.696	1	-4
580.036	1	-1
580.375	1	-2
580.715	1	5
581.055	1	-3
581.394	1	0
581.734	1	3
582.074	1	3
582.414	1	-1
582.753	1	-6
583.093	1	-3
583.433	1	5
583.772	1	6
584.112	1	2
584.452	1	0
584.791	1	4
585.131	1	0
585.471	1	-2
585.811	1	8
586.150	1	6
586.490	1	4
586.830	1	2
587.169	1	2
587.509	1	3
587.849	1	8
588.188	1	7
588.528	1	-4
588.867	1	7
589.207	1	-6
589.547	1	-1
589.886	1	-1
590.226	1	2
590.566	1	1
590.905	1	-9
591.245	1	-11
591.585	1	-5
591.924	1	-3
592.264	1	2
592.603	1	-14
592.943	1	1
593.283	1	11
593.622	1	-4
593.962	1	8
594.301	1	-3
594.641	1	0
594.981	1	2
595.320	1	2
595.660	1	8
595.999	1	3
596.339	1	-10
596.678	1	-1
597.018	1	-7
597.358	1	4
597.697	1	-6
598.037	1	0
598.376	1	-10
598.716	1	3
599.055	1	4
599.395	1	-6
599.734	1	1
600.074	1	-9
600.413	1	3
600.753	1	4
601.092	1	-4
601.432	1	-7
601.771	1	-1
602.111	1	-1
602.451	1	-6
602.790	1	9
603.130	1	-5
603.469	1	4
603.809	1	8
604.148	1	-5
604.487	1	4
604.827	1	1
605.166	1	-3
605.506	1	-9
605.845	1	9
606.185	1	-12
606.524	1	1
606.864	1	15
607.203	1	-2
607.543	1	-3
607.882	1	7
608.222	1	2
608.561	1	-1
608.901	1	3
609.240	1	0
609.579	1	-6
609.919	1	-11
610.258	1	16
610.598	1	-4
610.937	1	-2
611.277	1	8
611.616	1	3
611.955	1	0
612.295	1	4
612.634	1	4
612.974	1	-5
613.313	1	5
613.652	1	8
613.992	1	-5
614.331	1	8
614.671	1	-1
615.010	1	-1
615.349	1	-3
615.689	1	2
616.028	1	15
616.368	1	11
616.707	1	1
617.046	1	-10
617.386	1	10
617.725	1	-6
618.064	1	-8
618.404	1	2
618.743	1	6
619.082	1	14
619.422	1	15
619.761	1	-3
620.100	1	-2
620.440	1	4
620.779	1	6
621.118	1	6
621.458	1	1
621.797	1	0
622.136	1	-2
622.476	1	1
622.815	1	4
623.154	1	-2
623.494	1	-1
623.833	1	5
624.172	1	5
624.511	1	-9
624.851	1	-1
625.190	1	5
625.529	1	1
625.869	1	9
626.208	1	-3
626.547	1	-3
626.886	1	-7
627.226	1	7
627.565	1	9
627.904	1	-3
628.243	1	12
628.583	1	8
628.922	1	2
629.261	1	4
629.600	1	-6
629.940	1	4
630.279	1	16
630.618	1	1
630.957	1	3
631.297	1	4
631.636	1	-2
631.975	1	0
632.314	1	2
632.653	1	-3
632.993	1	1
633.332	1	-2
633.671	1	6
634.010	1	-3
634.349	1	5
634.689	1	-12
635.028	1	1
635.367	1	12
635.706	1	-4
636.045	1	-8
636.384	1	11
636.724	1	-1
637.063	1	-8
637.402	1	6
637.741	1	-7
638.080	1	-3
638.419	1	-2
638.759	1	2
639.098	1	5
639.437	1	-6
639.776	1	-5
640.115	1	-10
640.454	1	-4
640.793	1	-3
641.132	1	2
641.472	1	8
641.811	1	-6
642.150	1	1
642.489	1	1
642.828	1	7
643.167	1	8
643.506	1	-1
643.845	1	3
644.184	1	8
644.524	1	6
644.863	1	10
645.202	1	1
645.541	1	-1
645.880	1	12
646.219	1	-1
646.558	1	-6
646.897	1	-9
647.236	1	-8
647.575	1	7
647.914	1	3
648.253	1	10
648.592	1	3
648.931	1	5
649.270	1	10
649.610	1	1
649.949	1	-8
650.288	1	3
650.627	1	-2
650.966	1	3
651.305	1	10
651.644	1	12
651.983	1	-4
652.322	1	8
652.661	1	7
653.000	1	-2
653.339	1	1
653.678	1	12
654.017	1	5
654.356	1	7
654.695	1	7
655.034	1	1
655.373	1	1
655.712	1	1
656.051	1	-1
656.390	1	-4
656.729	1	8
657.068	1	-3
657.406	1	-2
657.745	1	10
658.084	1	5
658.423	1	-2
658.762	1	3
659.101	1	-2
659.440	1	1
659.779	1	7
660.118	1	-3
660.457	1	-5
660.796	1	3
661.135	1	0
661.474	1	4
661.813	1	-5
662.152	1	0
662.491	1	-1
662.829	1	4
663.168	1	2
663.507	1	3
663.846	1	0
664.185	1	-4
664.524	1	8
664.863	1	-6
665.202	1	-3
665.541	1	-3
665.879	1	1
666.218	1	0
666.557	1	-4
666.896	1	9
667.235	1	-4
667.574	1	-4
667.913	1	-4
668.251	1	-7
668.590	1	-2
668.929	1	-10
669.268	1	3
669.607	1	-4
669.946	1	-4
670.285	1	0
670.623	1	-4
670.962	1	-6
671.301	1	2
671.640	1	5
671.979	1	1
672.317	1	1
672.656	1	4
672.995	1	8
673.334	1	-7
673.673	1	18
674.011	1	4
674.350	1	0
674.689	1	-2
675.028	1	-1
675.367	1	0
675.705	1	-11
676.044	1	-2
676.383	1	-8
676.722	1	3
677.060	1	7
677.399	1	12
677.738	1	-3
678.077	1	-13
678.416	1	2
678.754	1	4
679.093	1	7
679.432	1	-5
679.771	1	2
680.109	1	-5
680.448	1	-4
680.787	1	-18
681.125	1	3
681.464	1	1
681.803	1	3
682.142	1	6
682.480	1	-1
682.819	1	-1
683.158	1	-6
683.496	1	0
683.835	1	5
684.174	1	-1
684.512	1	-5
684.851	1	-8
685.190	1	-3
685.529	1	0
685.867	1	0
686.206	1	-5
686.545	1	1
686.883	1	5
687.222	1	-4
687.561	1	-1
687.899	1	7
688.238	1	8
688.577	1	6
688.746	1	5