File: Data/GaN_150K_450ms/GaN_sample D_spot15_UVVIS_150 K_200um_450 ms 2x2mm1_55.txt
340.368	1	8
340.710	1	7
341.052	1	7
341.394	1	-14
341.737	1	-1
342.079	1	6
342.421	1	0
342.763	1	2
343.105	1	5
343.447	1	5
343.789	1	8
344.131	1	-9
344.473	1	4
344.815	1	17
345.157	1	14
345.499	1	8
345.841	1	11
346.183	1	5
346.526	1	4
346.868	1	10
347.210	1	7
347.552	1	17
347.894	1	-9
348.236	1	5
348.578	1	14
348.920	1	11
349.262	1	17
349.604	1	-1
349.946	1	3
350.288	1	5
350.630	1	6
350.972	1	16
351.314	1	6
351.656	1	19
351.998	1	17
352.340	1	17
352.682	1	-2
353.024	1	18
353.366	1	14
353.708	1	10
354.050	1	4
354.392	1	8
354.734	1	22
355.076	1	31
355.418	1	14
355.760	1	26
356.102	1	27
356.444	1	30
356.785	1	26
357.127	1	39
357.469	1	28
357.811	1	35
358.153	1	32
358.495	1	38
358.837	1	53
359.179	1	47
359.521	1	68
359.863	1	48
360.205	1	68
360.547	1	78
360.889	1	66
361.231	1	88
361.572	1	106
361.914	1	122
362.256	1	130
362.598	1	149
362.940	1	180
363.282	1	196
363.624	1	231
363.966	1	238
364.308	1	295
364.649	1	313
364.991	1	388
365.333	1	427
365.675	1	490
366.017	1	538
366.359	1	575
366.701	1	631
367.042	1	687
367.384	1	730
367.726	1	739
368.068	1	756
368.410	1	767
368.752	1	754
369.093	1	723
369.435	1	701
369.777	1	649
370.119	1	639
370.461	1	542
370.803	1	524
371.144	1	483
371.486	1	458
371.828	1	425
372.170	1	403
372.512	1	361
372.853	1	349
373.195	1	339
373.537	1	312
373.879	1	312
374.220	1	295
374.562	1	276
374.904	1	251
375.246	1	227
375.588	1	206
375.929	1	219
376.271	1	206
376.613	1	194
376.955	1	183
377.296	1	171
377.638	1	142
377.980	1	151
378.321	1	135
378.663	1	138
379.005	1	129
379.347	1	120
379.688	1	125
380.030	1	104
380.372	1	114
380.714	1	122
381.055	1	91
381.397	1	113
381.739	1	93
382.080	1	94
382.422	1	108
382.764	1	94
383.105	1	90
383.447	1	88
383.789	1	87
384.130	1	99
384.472	1	97
384.814	1	95
385.156	1	92
385.497	1	101
385.839	1	97
386.180	1	86
386.522	1	94
386.864	1	84
387.205	1	77
387.547	1	84
387.889	1	64
388.230	1	66
388.572	1	72
388.914	1	77
389.255	1	63
389.597	1	77
389.939	1	68
390.280	1	69
390.622	1	64
390.963	1	51
391.305	1	68
391.647	1	69
391.988	1	56
392.330	1	59
392.671	1	69
393.013	1	54
393.355	1	58
393.696	1	54
394.038	1	52
394.379	1	63
394.721	1	54
395.062	1	43
395.404	1	57
395.746	1	44
396.087	1	66
396.429	1	54
396.770	1	58
397.112	1	49
397.453	1	52
397.795	1	45
398.136	1	70
398.478	1	51
398.819	1	59
399.161	1	58
399.503	1	58
399.844	1	42
400.186	1	40
400.527	1	56
400.869	1	33
401.210	1	39
401.552	1	44
401.893	1	40
402.235	1	46
402.576	1	46
402.918	1	28
403.259	1	46
403.601	1	42
403.942	1	40
404.284	1	43
404.625	1	28
404.967	1	37
405.308	1	27
405.649	1	39
405.991	1	39
406.332	1	32
406.674	1	47
407.015	1	43
407.357	1	37
407.698	1	43
408.040	1	47
408.381	1	34
408.722	1	37
409.064	1	37
409.405	1	34
409.747	1	25
410.088	1	38
410.430	1	36
410.771	1	29
411.112	1	29
411.454	1	27
411.795	1	24
412.137	1	32
412.478	1	33
412.819	1	26
413.161	1	32
413.502	1	28
413.844	1	34
414.185	1	27
414.526	1	23
414.868	1	26
415.209	1	32
415.550	1	27
415.892	1	28
416.233	1	43
416.575	1	25
416.916	1	18
417.257	1	27
417.599	1	38
417.940	1	16
418.281	1	29
418.623	1	26
418.964	1	37
419.305	1	22
419.647	1	18
419.988	1	43
420.329	1	28
420.671	1	28
421.012	1	17
421.353	1	41
421.695	1	22
422.036	1	31
422.377	1	23
422.718	1	40
423.060	1	29
423.401	1	18
423.742	1	27
424.084	1	17
424.425	1	31
424.766	1	21
425.107	1	21
425.449	1	23
425.790	1	24
426.131	1	32
426.472	1	32
426.814	1	25
427.155	1	25
427.496	1	23
427.837	1	22
428.179	1	42
428.520	1	21
428.861	1	24
429.202	1	17
429.544	1	22
429.885	1	23
430.226	1	18
430.567	1	22
430.909	1	16
431.250	1	31
431.591	1	31
431.932	1	10
432.273	1	33
432.615	1	25
432.956	1	22
433.297	1	21
433.638	1	32
433.979	1	29
434.320	1	24
434.662	1	26
435.003	1	41
435.344	1	20
435.685	1	17
436.026	1	12
436.368	1	23
436.709	1	8
437.050	1	9
437.391	1	30
437.732	1	18
438.073	1	14
438.414	1	24
438.756	1	20
439.097	1	14
439.438	1	23
439.779	1	13
440.120	1	12
440.461	1	22
440.802	1	21
441.143	1	21
441.485	1	27
441.826	1	12
442.167	1	19
442.508	1	15
442.849	1	18
443.190	1	22
443.531	1	17
443.872	1	14
444.213	1	2
444.554	1	22
444.895	1	7
445.237	1	18
445.578	1	7
445.919	1	13
446.260	1	36
446.601	1	18
446.942	1	17
447.283	1	39
447.624	1	7
447.965	1	21
448.306	1	19
448.647	1	18
448.988	1	13
449.329	1	23
449.670	1	17
450.011	1	16
450.352	1	23
450.693	1	18
451.034	1	21
451.375	1	19
451.716	1	21
452.057	1	8
452.398	1	12
452.739	1	25
453.080	1	20
453.421	1	23
453.762	1	32
454.103	1	6
454.444	1	22
454.785	1	19
455.126	1	26
455.467	1	9
455.808	1	20
456.149	1	18
456.490	1	11
456.831	1	16
457.172	1	18
457.513	1	15
457.854	1	16
458.195	1	21
458.536	1	20
458.877	1	19
459.218	1	21
459.559	1	22
459.899	1	15
460.240	1	11
460.581	1	6
460.922	1	17
461.263	1	21
461.604	1	11
461.945	1	20
462.286	1	12
462.627	1	11
462.968	1	24
463.309	1	13
463.649	1	13
463.990	1	13
464.331	1	22
464.672	1	20
465.013	1	14
465.354	1	28
465.695	1	16
466.036	1	18
466.376	1	18
466.717	1	6
467.058	1	20
467.399	1	9
467.740	1	23
468.081	1	21
468.422	1	17
468.762	1	17
469.103	1	18
469.444	1	26
469.785	1	12
470.126	1	25
470.467	1	11
470.807	1	18
471.148	1	8
471.489	1	18
471.830	1	13
472.171	1	27
472.511	1	21
472.852	1	18
473.193	1	25
473.534	1	28
473.875	1	25
474.215	1	23
474.556	1	11
474.897	1	17
475.238	1	24
475.578	1	16
475.919	1	17
476.260	1	23
476.601	1	17
476.942	1	14
477.282	1	24
477.623	1	19
477.964	1	29
478.305	1	19
478.645	1	25
478.986	1	30
479.327	1	24
479.667	1	30
480.008	1	21
480.349	1	22
480.690	1	34
481.030	1	25
481.371	1	23
481.712	1	35
482.053	1	42
482.393	1	34
482.734	1	35
483.075	1	27
483.415	1	27
483.756	1	37
484.097	1	39
484.437	1	38
484.778	1	28
485.119	1	24
485.459	1	33
485.800	1	34
486.141	1	43
486.481	1	34
486.822	1	50
487.163	1	38
487.503	1	35
487.844	1	30
488.185	1	42
488.525	1	44
488.866	1	29
489.207	1	53
489.547	1	38
489.888	1	62
490.228	1	49
490.569	1	42
490.910	1	55
491.250	1	56
491.591	1	55
491.932	1	56
492.272	1	44
492.613	1	40
492.953	1	57
493.294	1	51
493.635	1	57
493.975	1	69
494.316	1	62
494.656	1	55
494.997	1	48
495.337	1	52
495.678	1	58
496.019	1	66
496.359	1	61
496.700	1	61
497.040	1	62
497.381	1	57
497.721	1	51
498.062	1	74
498.403	1	72
498.743	1	71
499.084	1	82
499.424	1	66
499.765	1	72
500.105	1	80
500.446	1	75
500.786	1	84
501.127	1	87
501.467	1	88
501.808	1	72
502.148	1	92
502.489	1	72
502.829	1	77
503.170	1	97
503.510	1	81
503.851	1	102
504.191	1	93
504.532	1	103
504.872	1	90
505.213	1	97
505.553	1	91
505.894	1	99
506.234	1	102
506.575	1	105
506.915	1	105
507.256	1	113
507.596	1	106
507.936	1	107
508.277	1	111
508.617	1	112
508.958	1	115
509.298	1	97
509.639	1	106
509.979	1	101
510.319	1	110
510.660	1	108
511.000	1	101
511.341	1	111
511.681	1	102
512.022	1	114
512.362	1	116
512.702	1	114
513.043	1	113
513.383	1	126
513.724	1	107
514.064	1	115
514.404	1	121
514.745	1	121
515.085	1	133
515.425	1	132
515.766	1	119
516.106	1	123
516.447	1	127
516.787	1	129
517.127	1	133
517.468	1	136
517.808	1	122
518.148	1	144
518.489	1	135
518.829	1	141
519.169	1	129
519.510	1	130
519.850	1	136
520.190	1	142
520.531	1	138
520.871	1	134
521.211	1	125
521.552	1	123
521.892	1	127
522.232	1	139
522.573	1	136
522.913	1	140
523.253	1	151
523.593	1	146
523.934	1	146
524.274	1	137
524.614	1	154
524.955	1	143
525.295	1	152
525.635	1	156
525.975	1	140
526.316	1	140
526.656	1	146
526.996	1	146
527.337	1	159
527.677	1	165
528.017	1	142
528.357	1	134
528.698	1	148
529.038	1	159
529.378	1	160
529.718	1	158
530.058	1	151
530.399	1	156
530.739	1	165
531.079	1	154
531.419	1	173
531.760	1	163
532.100	1	169
532.440	1	178
532.780	1	146
533.120	1	146
533.461	1	142
533.801	1	161
534.141	1	161
534.481	1	166
534.821	1	155
535.162	1	145
535.502	1	139
535.842	1	141
536.182	1	145
536.522	1	131
536.862	1	132
537.203	1	134
537.543	1	141
537.883	1	133
538.223	1	142
538.563	1	135
538.903	1	127
539.243	1	135
539.584	1	134
539.924	1	130
540.264	1	156
540.604	1	138
540.944	1	132
541.284	1	139
541.624	1	136
541.964	1	132
542.305	1	142
542.645	1	133
542.985	1	124
543.325	1	140
543.665	1	133
544.005	1	136
544.345	1	141
544.685	1	125
545.025	1	144
545.365	1	131
545.705	1	142
546.045	1	145
546.386	1	129
546.726	1	129
547.066	1	129
547.406	1	138
547.746	1	128
548.086	1	136
548.426	1	137
548.766	1	144
549.106	1	143
549.446	1	133
549.786	1	133
550.126	1	134
550.466	1	135
550.806	1	140
551.146	1	135
551.486	1	122
551.826	1	128
552.166	1	123
552.506	1	124
552.846	1	131
553.186	1	125
553.526	1	120
553.866	1	121
554.206	1	123
554.546	1	112
554.886	1	125
555.226	1	117
555.566	1	113
555.906	1	117
556.246	1	114
556.586	1	114
556.926	1	111
557.266	1	108
557.606	1	106
557.946	1	116
558.286	1	100
558.626	1	97
558.966	1	98
559.306	1	101
559.646	1	109
559.986	1	101
560.325	1	116
560.665	1	109
561.005	1	100
561.345	1	99
561.685	1	103
562.025	1	107
562.365	1	106
562.705	1	97
563.045	1	94
563.385	1	90
563.725	1	92
564.064	1	95
564.404	1	84
564.744	1	102
565.084	1	98
565.424	1	95
565.764	1	101
566.104	1	86
566.444	1	108
566.783	1	99
567.123	1	86
567.463	1	92
567.803	1	96
568.143	1	86
568.483	1	95
568.823	1	83
569.162	1	79
569.502	1	90
569.842	1	81
570.182	1	93
570.522	1	78
570.862	1	75
571.201	1	88
571.541	1	81
571.881	1	80
572.221	1	75
572.561	1	82
572.900	1	83
573.240	1	70
573.580	1	70
573.920	1	77
574.260	1	77
574.599	1	81
574.939	1	71
575.279	1	70
575.619	1	67
575.959	1	79
576.298	1	64
576.638	1	83
576.978	1	75
577.318	1	77
577.657	1	73
577.997	1	81
578.337	1	74
578.677	1	71
579.016	1	74
579.356	1	71
579.696	1	72
580.036	1	75
580.375	1	81
580.715	1	71
581.055	1	70
581.394	1	80
581.734	1	62
582.074	1	65
582.414	1	67
582.753	1	69
583.093	1	69
583.433	1	66
583.772	1	70
584.112	1	64
584.452	1	69
584.791	1	71
585.131	1	69
585.471	1	70
585.811	1	71
586.150	1	67
586.490	1	73
586.830	1	56
587.169	1	62
587.509	1	58
587.849	1	68
588.188	1	61
588.528	1	54
588.867	1	63
589.207	1	59
589.547	1	61
589.886	1	58
590.226	1	58
590.566	1	52
590.905	1	49
591.245	1	55
591.585	1	56
591.924	1	47
592.264	1	50
592.603	1	38
592.943	1	55
593.283	1	50
593.622	1	51
593.962	1	54
594.301	1	53
594.641	1	59
594.981	1	43
595.320	1	63
595.660	1	57
595.999	1	61
596.339	1	47
596.678	1	34
597.018	1	42
597.358	1	41
597.697	1	55
598.037	1	50
598.376	1	47
598.716	1	57
599.055	1	50
599.395	1	42
599.734	1	54
600.074	1	52
600.413	1	46
600.753	1	52
601.092	1	45
601.432	1	38
601.771	1	55
602.111	1	43
602.451	1	51
602.790	1	54
603.130	1	40
603.469	1	52
603.809	1	44
604.148	1	41
604.487	1	52
604.827	1	52
605.166	1	41
605.506	1	44
605.845	1	47
606.185	1	53
606.524	1	37
606.864	1	59
607.203	1	54
607.543	1	49
607.882	1	51
608.222	1	51
608.561	1	46
608.901	1	42
609.240	1	51
609.579	1	50
609.919	1	30
610.258	1	64
610.598	1	43
610.937	1	41
611.277	1	43
611.616	1	50
611.955	1	36
612.295	1	41
612.634	1	44
612.974	1	35
613.313	1	52
613.652	1	41
613.992	1	34
614.331	1	49
614.671	1	44
615.010	1	44
615.349	1	32
615.689	1	37
616.028	1	59
616.368	1	48
616.707	1	39
617.046	1	45
617.386	1	39
617.725	1	33
618.064	1	40
618.404	1	35
618.743	1	30
619.082	1	43
619.422	1	42
619.761	1	30
620.100	1	38
620.440	1	44
620.779	1	49
621.118	1	42
621.458	1	35
621.797	1	37
622.136	1	38
622.476	1	42
622.815	1	34
623.154	1	36
623.494	1	31
623.833	1	36
624.172	1	28
624.511	1	27
624.851	1	34
625.190	1	36
625.529	1	32
625.869	1	33
626.208	1	34
626.547	1	29
626.886	1	34
627.226	1	34
627.565	1	39
627.904	1	38
628.243	1	44
628.583	1	32
628.922	1	27
629.261	1	38
629.600	1	32
629.940	1	38
630.279	1	42
630.618	1	43
630.957	1	37
631.297	1	34
631.636	1	23
631.975	1	30
632.314	1	29
632.653	1	26
632.993	1	36
633.332	1	37
633.671	1	37
634.010	1	28
634.349	1	40
634.689	1	37
635.028	1	30
635.367	1	37
635.706	1	26
636.045	1	24
636.384	1	36
636.724	1	33
637.063	1	24
637.402	1	39
637.741	1	26
638.080	1	28
638.419	1	25
638.759	1	39
639.098	1	27
639.437	1	25
639.776	1	21
640.115	1	22
640.454	1	27
640.793	1	16
641.132	1	34
641.472	1	39
641.811	1	31
642.150	1	23
642.489	1	27
642.828	1	41
643.167	1	33
643.506	1	22
643.845	1	45
644.184	1	40
644.524	1	23
644.863	1	14
645.202	1	31
645.541	1	34
645.880	1	28
646.219	1	23
646.558	1	19
646.897	1	19
647.236	1	16
647.575	1	52
647.914	1	26
648.253	1	30
648.592	1	33
648.931	1	34
649.270	1	35
649.610	1	22
649.949	1	27
650.288	1	25
650.627	1	18
650.966	1	35
651.305	1	29
651.644	1	28
651.983	1	26
652.322	1	30
652.661	1	22
653.000	1	23
653.339	1	31
653.678	1	43
654.017	1	33
654.356	1	26
654.695	1	29
655.034	1	30
655.373	1	23
655.712	1	40
656.051	1	19
656.390	1	27
656.729	1	34
657.068	1	25
657.406	1	15
657.745	1	33
658.084	1	25
658.423	1	17
658.762	1	10
659.101	1	16
659.440	1	33
659.779	1	23
660.118	1	20
660.457	1	26
660.796	1	30
661.135	1	30
661.474	1	31
661.813	1	26
662.152	1	22
662.491	1	12
662.829	1	25
663.168	1	22
663.507	1	20
663.846	1	12
664.185	1	13
664.524	1	21
664.863	1	17
665.202	1	23
665.541	1	31
665.879	1	22
666.218	1	25
666.557	1	13
666.896	1	30
667.235	1	24
667.574	1	14
667.913	1	21
668.251	1	17
668.590	1	15
668.929	1	24
669.268	1	19
669.607	1	13
669.946	1	24
670.285	1	22
670.623	1	29
670.962	1	19
671.301	1	20
671.640	1	37
671.979	1	18
672.317	1	20
672.656	1	27
672.995	1	18
673.334	1	20
673.673	1	29
674.011	1	28
674.350	1	21
674.689	1	11
675.028	1	24
675.367	1	21
675.705	1	6
676.044	1	21
676.383	1	11
676.722	1	23
677.060	1	23
677.399	1	35
677.738	1	15
678.077	1	16
678.416	1	32
678.754	1	23
679.093	1	27
679.432	1	25
679.771	1	28
680.109	1	19
680.448	1	11
680.787	1	16
681.125	1	10
681.464	1	16
681.803	1	19
682.142	1	23
682.480	1	16
682.819	1	24
683.158	1	14
683.496	1	20
683.835	1	31
684.174	1	20
684.512	1	24
684.851	1	22
685.190	1	19
685.529	1	15
685.867	1	20
686.206	1	23
686.545	1	14
686.883	1	24
687.222	1	22
687.561	1	21
687.899	1	17
688.238	1	39
688.577	1	23
688.746	1	28