File: Data/GaN_150K_450ms/GaN_sample D_spot15_UVVIS_150 K_200um_450 ms 2x2mm1_126.txt
340.368	1	7
340.710	1	13
341.052	1	2
341.394	1	-9
341.737	1	7
342.079	1	4
342.421	1	9
342.763	1	10
343.105	1	5
343.447	1	13
343.789	1	6
344.131	1	-3
344.473	1	11
344.815	1	5
345.157	1	25
345.499	1	10
345.841	1	9
346.183	1	10
346.526	1	4
346.868	1	0
347.210	1	-9
347.552	1	15
347.894	1	1
348.236	1	11
348.578	1	12
348.920	1	1
349.262	1	6
349.604	1	1
349.946	1	3
350.288	1	-3
350.630	1	-2
350.972	1	5
351.314	1	1
351.656	1	15
351.998	1	10
352.340	1	18
352.682	1	-2
353.024	1	19
353.366	1	13
353.708	1	5
354.050	1	-3
354.392	1	2
354.734	1	12
355.076	1	18
355.418	1	5
355.760	1	6
356.102	1	7
356.444	1	10
356.785	1	11
357.127	1	16
357.469	1	6
357.811	1	7
358.153	1	2
358.495	1	5
358.837	1	19
359.179	1	10
359.521	1	22
359.863	1	8
360.205	1	30
360.547	1	23
360.889	1	15
361.231	1	15
361.572	1	17
361.914	1	19
362.256	1	22
362.598	1	25
362.940	1	18
363.282	1	20
363.624	1	36
363.966	1	22
364.308	1	42
364.649	1	40
364.991	1	48
365.333	1	43
365.675	1	56
366.017	1	63
366.359	1	44
366.701	1	54
367.042	1	60
367.384	1	48
367.726	1	57
368.068	1	52
368.410	1	59
368.752	1	65
369.093	1	65
369.435	1	60
369.777	1	55
370.119	1	56
370.461	1	53
370.803	1	52
371.144	1	46
371.486	1	50
371.828	1	40
372.170	1	41
372.512	1	32
372.853	1	51
373.195	1	30
373.537	1	29
373.879	1	27
374.220	1	41
374.562	1	42
374.904	1	21
375.246	1	27
375.588	1	25
375.929	1	18
376.271	1	22
376.613	1	26
376.955	1	21
377.296	1	25
377.638	1	17
377.980	1	27
378.321	1	18
378.663	1	10
379.005	1	13
379.347	1	11
379.688	1	20
380.030	1	33
380.372	1	17
380.714	1	17
381.055	1	-1
381.397	1	7
381.739	1	5
382.080	1	11
382.422	1	16
382.764	1	22
383.105	1	10
383.447	1	9
383.789	1	7
384.130	1	17
384.472	1	2
384.814	1	14
385.156	1	13
385.497	1	22
385.839	1	11
386.180	1	5
386.522	1	11
386.864	1	6
387.205	1	8
387.547	1	8
387.889	1	-1
388.230	1	8
388.572	1	2
388.914	1	12
389.255	1	14
389.597	1	9
389.939	1	17
390.280	1	3
390.622	1	2
390.963	1	4
391.305	1	4
391.647	1	6
391.988	1	18
392.330	1	10
392.671	1	2
393.013	1	11
393.355	1	15
393.696	1	5
394.038	1	15
394.379	1	9
394.721	1	7
395.062	1	-2
395.404	1	6
395.746	1	0
396.087	1	12
396.429	1	8
396.770	1	7
397.112	1	9
397.453	1	-1
397.795	1	4
398.136	1	9
398.478	1	7
398.819	1	18
399.161	1	16
399.503	1	15
399.844	1	8
400.186	1	18
400.527	1	12
400.869	1	9
401.210	1	14
401.552	1	7
401.893	1	8
402.235	1	8
402.576	1	18
402.918	1	-4
403.259	1	13
403.601	1	12
403.942	1	14
404.284	1	21
404.625	1	1
404.967	1	9
405.308	1	-3
405.649	1	12
405.991	1	14
406.332	1	9
406.674	1	12
407.015	1	21
407.357	1	18
407.698	1	14
408.040	1	27
408.381	1	-2
408.722	1	15
409.064	1	12
409.405	1	10
409.747	1	9
410.088	1	12
410.430	1	17
410.771	1	16
411.112	1	9
411.454	1	7
411.795	1	9
412.137	1	6
412.478	1	11
412.819	1	10
413.161	1	9
413.502	1	20
413.844	1	18
414.185	1	18
414.526	1	1
414.868	1	4
415.209	1	1
415.550	1	10
415.892	1	12
416.233	1	15
416.575	1	11
416.916	1	5
417.257	1	8
417.599	1	15
417.940	1	11
418.281	1	18
418.623	1	17
418.964	1	28
419.305	1	18
419.647	1	16
419.988	1	20
420.329	1	15
420.671	1	28
421.012	1	9
421.353	1	25
421.695	1	0
422.036	1	22
422.377	1	15
422.718	1	13
423.060	1	18
423.401	1	8
423.742	1	15
424.084	1	20
424.425	1	14
424.766	1	5
425.107	1	10
425.449	1	9
425.790	1	9
426.131	1	6
426.472	1	10
426.814	1	13
427.155	1	8
427.496	1	9
427.837	1	10
428.179	1	22
428.520	1	12
428.861	1	19
429.202	1	-5
429.544	1	8
429.885	1	7
430.226	1	4
430.567	1	5
430.909	1	1
431.250	1	13
431.591	1	15
431.932	1	5
432.273	1	18
432.615	1	8
432.956	1	17
433.297	1	9
433.638	1	18
433.979	1	8
434.320	1	11
434.662	1	22
435.003	1	13
435.344	1	-5
435.685	1	2
436.026	1	9
436.368	1	16
436.709	1	15
437.050	1	3
437.391	1	6
437.732	1	8
438.073	1	3
438.414	1	8
438.756	1	7
439.097	1	11
439.438	1	0
439.779	1	7
440.120	1	12
440.461	1	20
440.802	1	8
441.143	1	4
441.485	1	4
441.826	1	13
442.167	1	10
442.508	1	8
442.849	1	13
443.190	1	7
443.531	1	13
443.872	1	0
444.213	1	-3
444.554	1	6
444.895	1	-3
445.237	1	20
445.578	1	0
445.919	1	11
446.260	1	9
446.601	1	22
446.942	1	19
447.283	1	16
447.624	1	-1
447.965	1	3
448.306	1	7
448.647	1	-4
448.988	1	7
449.329	1	11
449.670	1	10
450.011	1	17
450.352	1	6
450.693	1	11
451.034	1	6
451.375	1	5
451.716	1	7
452.057	1	0
452.398	1	8
452.739	1	13
453.080	1	11
453.421	1	11
453.762	1	15
454.103	1	4
454.444	1	2
454.785	1	4
455.126	1	11
455.467	1	6
455.808	1	15
456.149	1	-5
456.490	1	7
456.831	1	9
457.172	1	5
457.513	1	11
457.854	1	12
458.195	1	3
458.536	1	10
458.877	1	8
459.218	1	14
459.559	1	8
459.899	1	3
460.240	1	0
460.581	1	1
460.922	1	6
461.263	1	11
461.604	1	3
461.945	1	14
462.286	1	3
462.627	1	4
462.968	1	8
463.309	1	2
463.649	1	0
463.990	1	5
464.331	1	4
464.672	1	11
465.013	1	8
465.354	1	9
465.695	1	11
466.036	1	12
466.376	1	18
466.717	1	1
467.058	1	10
467.399	1	4
467.740	1	17
468.081	1	11
468.422	1	8
468.762	1	6
469.103	1	-1
469.444	1	9
469.785	1	2
470.126	1	19
470.467	1	9
470.807	1	7
471.148	1	0
471.489	1	7
471.830	1	4
472.171	1	13
472.511	1	7
472.852	1	7
473.193	1	-1
473.534	1	8
473.875	1	14
474.215	1	8
474.556	1	12
474.897	1	5
475.238	1	15
475.578	1	-1
475.919	1	-3
476.260	1	10
476.601	1	11
476.942	1	-2
477.282	1	0
477.623	1	3
477.964	1	-2
478.305	1	9
478.645	1	7
478.986	1	8
479.327	1	10
479.667	1	2
480.008	1	5
480.349	1	11
480.690	1	15
481.030	1	2
481.371	1	5
481.712	1	19
482.053	1	15
482.393	1	14
482.734	1	11
483.075	1	14
483.415	1	8
483.756	1	17
484.097	1	8
484.437	1	13
484.778	1	7
485.119	1	15
485.459	1	4
485.800	1	-2
486.141	1	13
486.481	1	-3
486.822	1	12
487.163	1	4
487.503	1	0
487.844	1	-4
488.185	1	4
488.525	1	3
488.866	1	3
489.207	1	8
489.547	1	10
489.888	1	14
490.228	1	17
490.569	1	4
490.910	1	8
491.250	1	12
491.591	1	8
491.932	1	21
492.272	1	1
492.613	1	-5
492.953	1	5
493.294	1	2
493.635	1	14
493.975	1	18
494.316	1	6
494.656	1	11
494.997	1	1
495.337	1	12
495.678	1	11
496.019	1	2
496.359	1	3
496.700	1	10
497.040	1	4
497.381	1	12
497.721	1	-3
498.062	1	0
498.403	1	12
498.743	1	12
499.084	1	12
499.424	1	8
499.765	1	13
500.105	1	19
500.446	1	3
500.786	1	9
501.127	1	19
501.467	1	11
501.808	1	15
502.148	1	3
502.489	1	11
502.829	1	4
503.170	1	10
503.510	1	8
503.851	1	16
504.191	1	7
504.532	1	14
504.872	1	5
505.213	1	3
505.553	1	6
505.894	1	4
506.234	1	17
506.575	1	20
506.915	1	21
507.256	1	14
507.596	1	19
507.936	1	22
508.277	1	25
508.617	1	16
508.958	1	12
509.298	1	-3
509.639	1	8
509.979	1	0
510.319	1	18
510.660	1	4
511.000	1	2
511.341	1	17
511.681	1	18
512.022	1	3
512.362	1	20
512.702	1	1
513.043	1	20
513.383	1	18
513.724	1	14
514.064	1	7
514.404	1	19
514.745	1	13
515.085	1	12
515.425	1	25
515.766	1	9
516.106	1	8
516.447	1	15
516.787	1	8
517.127	1	24
517.468	1	22
517.808	1	4
518.148	1	23
518.489	1	15
518.829	1	19
519.169	1	3
519.510	1	10
519.850	1	17
520.190	1	16
520.531	1	24
520.871	1	11
521.211	1	17
521.552	1	12
521.892	1	19
522.232	1	17
522.573	1	13
522.913	1	21
523.253	1	25
523.593	1	22
523.934	1	16
524.274	1	15
524.614	1	16
524.955	1	18
525.295	1	15
525.635	1	22
525.975	1	4
526.316	1	6
526.656	1	15
526.996	1	11
527.337	1	22
527.677	1	26
528.017	1	12
528.357	1	21
528.698	1	22
529.038	1	25
529.378	1	12
529.718	1	12
530.058	1	24
530.399	1	16
530.739	1	15
531.079	1	19
531.419	1	14
531.760	1	21
532.100	1	26
532.440	1	26
532.780	1	15
533.120	1	12
533.461	1	11
533.801	1	20
534.141	1	23
534.481	1	31
534.821	1	13
535.162	1	19
535.502	1	14
535.842	1	13
536.182	1	13
536.522	1	8
536.862	1	9
537.203	1	17
537.543	1	17
537.883	1	13
538.223	1	27
538.563	1	12
538.903	1	10
539.243	1	9
539.584	1	10
539.924	1	13
540.264	1	22
540.604	1	24
540.944	1	20
541.284	1	19
541.624	1	20
541.964	1	16
542.305	1	19
542.645	1	15
542.985	1	16
543.325	1	12
543.665	1	8
544.005	1	5
544.345	1	27
544.685	1	10
545.025	1	21
545.365	1	20
545.705	1	13
546.045	1	21
546.386	1	6
546.726	1	12
547.066	1	10
547.406	1	11
547.746	1	12
548.086	1	16
548.426	1	18
548.766	1	12
549.106	1	17
549.446	1	8
549.786	1	11
550.126	1	22
550.466	1	16
550.806	1	13
551.146	1	16
551.486	1	8
551.826	1	9
552.166	1	12
552.506	1	7
552.846	1	21
553.186	1	6
553.526	1	18
553.866	1	9
554.206	1	18
554.546	1	16
554.886	1	11
555.226	1	8
555.566	1	14
555.906	1	23
556.246	1	11
556.586	1	15
556.926	1	8
557.266	1	15
557.606	1	-2
557.946	1	19
558.286	1	-7
558.626	1	20
558.966	1	12
559.306	1	17
559.646	1	9
559.986	1	14
560.325	1	12
560.665	1	13
561.005	1	10
561.345	1	10
561.685	1	16
562.025	1	13
562.365	1	9
562.705	1	18
563.045	1	2
563.385	1	12
563.725	1	2
564.064	1	14
564.404	1	1
564.744	1	12
565.084	1	9
565.424	1	7
565.764	1	4
566.104	1	22
566.444	1	21
566.783	1	9
567.123	1	4
567.463	1	11
567.803	1	11
568.143	1	6
568.483	1	17
568.823	1	11
569.162	1	0
569.502	1	9
569.842	1	13
570.182	1	8
570.522	1	1
570.862	1	1
571.201	1	20
571.541	1	12
571.881	1	5
572.221	1	13
572.561	1	15
572.900	1	15
573.240	1	7
573.580	1	9
573.920	1	10
574.260	1	17
574.599	1	10
574.939	1	15
575.279	1	4
575.619	1	3
575.959	1	2
576.298	1	5
576.638	1	13
576.978	1	4
577.318	1	3
577.657	1	6
577.997	1	10
578.337	1	10
578.677	1	11
579.016	1	3
579.356	1	10
579.696	1	6
580.036	1	9
580.375	1	8
580.715	1	13
581.055	1	8
581.394	1	4
581.734	1	5
582.074	1	4
582.414	1	-1
582.753	1	8
583.093	1	8
583.433	1	12
583.772	1	12
584.112	1	11
584.452	1	-4
584.791	1	11
585.131	1	16
585.471	1	2
585.811	1	7
586.150	1	6
586.490	1	6
586.830	1	9
587.169	1	9
587.509	1	9
587.849	1	10
588.188	1	16
588.528	1	0
588.867	1	16
589.207	1	14
589.547	1	13
589.886	1	9
590.226	1	-3
590.566	1	8
590.905	1	7
591.245	1	4
591.585	1	-3
591.924	1	0
592.264	1	8
592.603	1	-7
592.943	1	-1
593.283	1	11
593.622	1	5
593.962	1	7
594.301	1	12
594.641	1	5
594.981	1	2
595.320	1	15
595.660	1	8
595.999	1	9
596.339	1	-1
596.678	1	-6
597.018	1	0
597.358	1	13
597.697	1	4
598.037	1	-1
598.376	1	-2
598.716	1	7
599.055	1	12
599.395	1	4
599.734	1	3
600.074	1	7
600.413	1	7
600.753	1	6
601.092	1	-4
601.432	1	7
601.771	1	9
602.111	1	8
602.451	1	-1
602.790	1	8
603.130	1	8
603.469	1	5
603.809	1	8
604.148	1	-2
604.487	1	12
604.827	1	3
605.166	1	2
605.506	1	3
605.845	1	3
606.185	1	-8
606.524	1	4
606.864	1	18
607.203	1	9
607.543	1	11
607.882	1	10
608.222	1	4
608.561	1	3
608.901	1	10
609.240	1	12
609.579	1	1
609.919	1	-5
610.258	1	13
610.598	1	-2
610.937	1	10
611.277	1	9
611.616	1	9
611.955	1	-2
612.295	1	15
612.634	1	11
612.974	1	10
613.313	1	11
613.652	1	15
613.992	1	2
614.331	1	15
614.671	1	12
615.010	1	6
615.349	1	7
615.689	1	0
616.028	1	22
616.368	1	10
616.707	1	3
617.046	1	9
617.386	1	14
617.725	1	2
618.064	1	5
618.404	1	1
618.743	1	11
619.082	1	7
619.422	1	8
619.761	1	0
620.100	1	7
620.440	1	15
620.779	1	18
621.118	1	15
621.458	1	3
621.797	1	12
622.136	1	1
622.476	1	6
622.815	1	10
623.154	1	0
623.494	1	-6
623.833	1	1
624.172	1	10
624.511	1	6
624.851	1	4
625.190	1	10
625.529	1	2
625.869	1	7
626.208	1	3
626.547	1	-4
626.886	1	9
627.226	1	12
627.565	1	8
627.904	1	-5
628.243	1	14
628.583	1	6
628.922	1	9
629.261	1	10
629.600	1	0
629.940	1	7
630.279	1	11
630.618	1	11
630.957	1	14
631.297	1	-1
631.636	1	7
631.975	1	4
632.314	1	2
632.653	1	6
632.993	1	6
633.332	1	2
633.671	1	15
634.010	1	5
634.349	1	8
634.689	1	3
635.028	1	-7
635.367	1	5
635.706	1	1
636.045	1	1
636.384	1	9
636.724	1	-2
637.063	1	1
637.402	1	6
637.741	1	8
638.080	1	2
638.419	1	6
638.759	1	0
639.098	1	6
639.437	1	8
639.776	1	6
640.115	1	-1
640.454	1	1
640.793	1	8
641.132	1	3
641.472	1	11
641.811	1	-2
642.150	1	0
642.489	1	6
642.828	1	17
643.167	1	4
643.506	1	2
643.845	1	10
644.184	1	12
644.524	1	-3
644.863	1	11
645.202	1	7
645.541	1	8
645.880	1	16
646.219	1	12
646.558	1	4
646.897	1	-1
647.236	1	-5
647.575	1	15
647.914	1	9
648.253	1	13
648.592	1	9
648.931	1	12
649.270	1	14
649.610	1	13
649.949	1	2
650.288	1	0
650.627	1	-5
650.966	1	5
651.305	1	4
651.644	1	12
651.983	1	-10
652.322	1	6
652.661	1	4
653.000	1	8
653.339	1	7
653.678	1	6
654.017	1	0
654.356	1	10
654.695	1	20
655.034	1	3
655.373	1	0
655.712	1	9
656.051	1	-4
656.390	1	10
656.729	1	11
657.068	1	5
657.406	1	1
657.745	1	14
658.084	1	10
658.423	1	16
658.762	1	-6
659.101	1	6
659.440	1	-1
659.779	1	6
660.118	1	-6
660.457	1	3
660.796	1	7
661.135	1	12
661.474	1	15
661.813	1	5
662.152	1	-4
662.491	1	-3
662.829	1	11
663.168	1	10
663.507	1	8
663.846	1	6
664.185	1	7
664.524	1	12
664.863	1	-5
665.202	1	10
665.541	1	7
665.879	1	4
666.218	1	5
666.557	1	-4
666.896	1	5
667.235	1	-3
667.574	1	1
667.913	1	-1
668.251	1	-7
668.590	1	1
668.929	1	6
669.268	1	-3
669.607	1	3
669.946	1	9
670.285	1	4
670.623	1	7
670.962	1	4
671.301	1	-1
671.640	1	4
671.979	1	-1
672.317	1	2
672.656	1	3
672.995	1	2
673.334	1	4
673.673	1	11
674.011	1	7
674.350	1	-1
674.689	1	-1
675.028	1	9
675.367	1	-2
675.705	1	-10
676.044	1	-3
676.383	1	1
676.722	1	2
677.060	1	5
677.399	1	10
677.738	1	0
678.077	1	-4
678.416	1	-5
678.754	1	-6
679.093	1	8
679.432	1	-4
679.771	1	1
680.109	1	3
680.448	1	-5
680.787	1	3
681.125	1	1
681.464	1	7
681.803	1	-3
682.142	1	0
682.480	1	-8
682.819	1	-7
683.158	1	2
683.496	1	-7
683.835	1	8
684.174	1	3
684.512	1	2
684.851	1	1
685.190	1	0
685.529	1	0
685.867	1	-2
686.206	1	-3
686.545	1	2
686.883	1	14
687.222	1	9
687.561	1	1
687.899	1	5
688.238	1	16
688.577	1	7
688.746	1	5