File: Data/GaN_150K_450ms/GaN_sample D_spot15_UVVIS_150 K_200um_450 ms 2x2mm1_169.txt
340.368	1	3
340.710	1	10
341.052	1	9
341.394	1	-10
341.737	1	7
342.079	1	9
342.421	1	0
342.763	1	5
343.105	1	10
343.447	1	8
343.789	1	3
344.131	1	-8
344.473	1	1
344.815	1	1
345.157	1	6
345.499	1	6
345.841	1	6
346.183	1	6
346.526	1	8
346.868	1	10
347.210	1	1
347.552	1	17
347.894	1	-3
348.236	1	2
348.578	1	16
348.920	1	0
349.262	1	7
349.604	1	-6
349.946	1	1
350.288	1	-3
350.630	1	-9
350.972	1	17
351.314	1	-1
351.656	1	6
351.998	1	5
352.340	1	7
352.682	1	-6
353.024	1	17
353.366	1	1
353.708	1	5
354.050	1	4
354.392	1	-8
354.734	1	4
355.076	1	10
355.418	1	6
355.760	1	10
356.102	1	-3
356.444	1	10
356.785	1	10
357.127	1	12
357.469	1	8
357.811	1	2
358.153	1	-4
358.495	1	8
358.837	1	15
359.179	1	19
359.521	1	14
359.863	1	-1
360.205	1	21
360.547	1	9
360.889	1	8
361.231	1	7
361.572	1	19
361.914	1	16
362.256	1	13
362.598	1	25
362.940	1	25
363.282	1	4
363.624	1	18
363.966	1	13
364.308	1	16
364.649	1	18
364.991	1	28
365.333	1	15
365.675	1	28
366.017	1	29
366.359	1	30
366.701	1	29
367.042	1	32
367.384	1	29
367.726	1	31
368.068	1	31
368.410	1	31
368.752	1	40
369.093	1	30
369.435	1	41
369.777	1	36
370.119	1	38
370.461	1	25
370.803	1	20
371.144	1	26
371.486	1	24
371.828	1	13
372.170	1	29
372.512	1	13
372.853	1	33
373.195	1	21
373.537	1	5
373.879	1	17
374.220	1	24
374.562	1	22
374.904	1	21
375.246	1	10
375.588	1	15
375.929	1	17
376.271	1	13
376.613	1	9
376.955	1	8
377.296	1	17
377.638	1	4
377.980	1	16
378.321	1	14
378.663	1	12
379.005	1	8
379.347	1	9
379.688	1	13
380.030	1	14
380.372	1	20
380.714	1	15
381.055	1	-2
381.397	1	4
381.739	1	-2
382.080	1	12
382.422	1	12
382.764	1	17
383.105	1	13
383.447	1	1
383.789	1	3
384.130	1	13
384.472	1	3
384.814	1	12
385.156	1	13
385.497	1	13
385.839	1	5
386.180	1	8
386.522	1	7
386.864	1	8
387.205	1	8
387.547	1	12
387.889	1	0
388.230	1	-1
388.572	1	-9
388.914	1	15
389.255	1	6
389.597	1	12
389.939	1	19
390.280	1	-2
390.622	1	2
390.963	1	-1
391.305	1	0
391.647	1	11
391.988	1	5
392.330	1	6
392.671	1	15
393.013	1	3
393.355	1	8
393.696	1	2
394.038	1	11
394.379	1	10
394.721	1	3
395.062	1	-9
395.404	1	18
395.746	1	-1
396.087	1	12
396.429	1	12
396.770	1	0
397.112	1	2
397.453	1	-2
397.795	1	18
398.136	1	13
398.478	1	1
398.819	1	1
399.161	1	8
399.503	1	7
399.844	1	3
400.186	1	11
400.527	1	12
400.869	1	3
401.210	1	-1
401.552	1	0
401.893	1	3
402.235	1	13
402.576	1	10
402.918	1	4
403.259	1	4
403.601	1	10
403.942	1	0
404.284	1	9
404.625	1	5
404.967	1	8
405.308	1	3
405.649	1	3
405.991	1	11
406.332	1	10
406.674	1	5
407.015	1	5
407.357	1	16
407.698	1	12
408.040	1	21
408.381	1	3
408.722	1	13
409.064	1	14
409.405	1	1
409.747	1	6
410.088	1	10
410.430	1	10
410.771	1	2
411.112	1	4
411.454	1	6
411.795	1	14
412.137	1	11
412.478	1	9
412.819	1	14
413.161	1	5
413.502	1	7
413.844	1	13
414.185	1	12
414.526	1	-6
414.868	1	-3
415.209	1	10
415.550	1	6
415.892	1	12
416.233	1	4
416.575	1	-3
416.916	1	4
417.257	1	2
417.599	1	7
417.940	1	-3
418.281	1	6
418.623	1	5
418.964	1	17
419.305	1	19
419.647	1	8
419.988	1	24
420.329	1	13
420.671	1	15
421.012	1	4
421.353	1	17
421.695	1	14
422.036	1	11
422.377	1	2
422.718	1	12
423.060	1	12
423.401	1	3
423.742	1	14
424.084	1	10
424.425	1	5
424.766	1	3
425.107	1	12
425.449	1	-1
425.790	1	4
426.131	1	0
426.472	1	13
426.814	1	3
427.155	1	6
427.496	1	11
427.837	1	7
428.179	1	12
428.520	1	14
428.861	1	18
429.202	1	-1
429.544	1	-3
429.885	1	3
430.226	1	-8
430.567	1	-1
430.909	1	2
431.250	1	8
431.591	1	-3
431.932	1	7
432.273	1	15
432.615	1	6
432.956	1	13
433.297	1	8
433.638	1	11
433.979	1	9
434.320	1	13
434.662	1	10
435.003	1	26
435.344	1	4
435.685	1	2
436.026	1	6
436.368	1	3
436.709	1	2
437.050	1	1
437.391	1	10
437.732	1	4
438.073	1	2
438.414	1	12
438.756	1	0
439.097	1	2
439.438	1	11
439.779	1	2
440.120	1	11
440.461	1	5
440.802	1	5
441.143	1	7
441.485	1	5
441.826	1	8
442.167	1	9
442.508	1	12
442.849	1	7
443.190	1	10
443.531	1	4
443.872	1	6
444.213	1	-3
444.554	1	12
444.895	1	1
445.237	1	22
445.578	1	5
445.919	1	-2
446.260	1	18
446.601	1	7
446.942	1	3
447.283	1	12
447.624	1	-5
447.965	1	6
448.306	1	8
448.647	1	7
448.988	1	14
449.329	1	11
449.670	1	6
450.011	1	0
450.352	1	0
450.693	1	14
451.034	1	0
451.375	1	-2
451.716	1	7
452.057	1	7
452.398	1	14
452.739	1	7
453.080	1	8
453.421	1	12
453.762	1	15
454.103	1	4
454.444	1	6
454.785	1	5
455.126	1	8
455.467	1	2
455.808	1	13
456.149	1	4
456.490	1	-2
456.831	1	8
457.172	1	5
457.513	1	-10
457.854	1	5
458.195	1	5
458.536	1	12
458.877	1	1
459.218	1	3
459.559	1	7
459.899	1	7
460.240	1	-6
460.581	1	1
460.922	1	-1
461.263	1	11
461.604	1	4
461.945	1	6
462.286	1	5
462.627	1	7
462.968	1	6
463.309	1	4
463.649	1	-2
463.990	1	-2
464.331	1	11
464.672	1	-4
465.013	1	8
465.354	1	17
465.695	1	12
466.036	1	11
466.376	1	7
466.717	1	-4
467.058	1	10
467.399	1	-7
467.740	1	13
468.081	1	3
468.422	1	4
468.762	1	10
469.103	1	0
469.444	1	9
469.785	1	-5
470.126	1	8
470.467	1	3
470.807	1	8
471.148	1	3
471.489	1	6
471.830	1	14
472.171	1	12
472.511	1	7
472.852	1	8
473.193	1	3
473.534	1	9
473.875	1	4
474.215	1	1
474.556	1	-7
474.897	1	0
475.238	1	4
475.578	1	-8
475.919	1	-11
476.260	1	6
476.601	1	-1
476.942	1	0
477.282	1	-6
477.623	1	2
477.964	1	14
478.305	1	9
478.645	1	15
478.986	1	12
479.327	1	6
479.667	1	3
480.008	1	8
480.349	1	-2
480.690	1	14
481.030	1	3
481.371	1	-1
481.712	1	18
482.053	1	10
482.393	1	2
482.734	1	2
483.075	1	10
483.415	1	2
483.756	1	10
484.097	1	11
484.437	1	-1
484.778	1	-3
485.119	1	7
485.459	1	-2
485.800	1	-6
486.141	1	9
486.481	1	-10
486.822	1	6
487.163	1	2
487.503	1	-5
487.844	1	-3
488.185	1	7
488.525	1	-3
488.866	1	0
489.207	1	5
489.547	1	3
489.888	1	6
490.228	1	5
490.569	1	-8
490.910	1	13
491.250	1	3
491.591	1	9
491.932	1	11
492.272	1	-4
492.613	1	0
492.953	1	8
493.294	1	-2
493.635	1	6
493.975	1	10
494.316	1	1
494.656	1	11
494.997	1	6
495.337	1	1
495.678	1	3
496.019	1	3
496.359	1	7
496.700	1	7
497.040	1	5
497.381	1	0
497.721	1	-5
498.062	1	6
498.403	1	0
498.743	1	8
499.084	1	5
499.424	1	-4
499.765	1	12
500.105	1	19
500.446	1	-4
500.786	1	-6
501.127	1	8
501.467	1	11
501.808	1	13
502.148	1	-6
502.489	1	0
502.829	1	5
503.170	1	11
503.510	1	4
503.851	1	7
504.191	1	0
504.532	1	14
504.872	1	-3
505.213	1	0
505.553	1	-3
505.894	1	3
506.234	1	20
506.575	1	14
506.915	1	9
507.256	1	9
507.596	1	8
507.936	1	12
508.277	1	10
508.617	1	15
508.958	1	14
509.298	1	6
509.639	1	1
509.979	1	5
510.319	1	11
510.660	1	3
511.000	1	11
511.341	1	19
511.681	1	0
512.022	1	-9
512.362	1	12
512.702	1	2
513.043	1	6
513.383	1	6
513.724	1	8
514.064	1	15
514.404	1	14
514.745	1	8
515.085	1	16
515.425	1	6
515.766	1	9
516.106	1	3
516.447	1	8
516.787	1	3
517.127	1	19
517.468	1	14
517.808	1	-2
518.148	1	12
518.489	1	9
518.829	1	13
519.169	1	4
519.510	1	0
519.850	1	7
520.190	1	2
520.531	1	3
520.871	1	10
521.211	1	9
521.552	1	4
521.892	1	11
522.232	1	12
522.573	1	12
522.913	1	19
523.253	1	20
523.593	1	16
523.934	1	9
524.274	1	12
524.614	1	14
524.955	1	4
525.295	1	8
525.635	1	10
525.975	1	9
526.316	1	-3
526.656	1	7
526.996	1	1
527.337	1	6
527.677	1	18
528.017	1	1
528.357	1	10
528.698	1	16
529.038	1	17
529.378	1	8
529.718	1	10
530.058	1	11
530.399	1	2
530.739	1	17
531.079	1	11
531.419	1	9
531.760	1	12
532.100	1	13
532.440	1	7
532.780	1	10
533.120	1	6
533.461	1	-2
533.801	1	9
534.141	1	8
534.481	1	18
534.821	1	5
535.162	1	5
535.502	1	10
535.842	1	5
536.182	1	16
536.522	1	4
536.862	1	-1
537.203	1	2
537.543	1	15
537.883	1	4
538.223	1	16
538.563	1	8
538.903	1	9
539.243	1	8
539.584	1	5
539.924	1	7
540.264	1	19
540.604	1	20
540.944	1	12
541.284	1	18
541.624	1	3
541.964	1	8
542.305	1	15
542.645	1	8
542.985	1	1
543.325	1	11
543.665	1	8
544.005	1	-1
544.345	1	12
544.685	1	10
545.025	1	7
545.365	1	19
545.705	1	14
546.045	1	12
546.386	1	4
546.726	1	12
547.066	1	8
547.406	1	-2
547.746	1	12
548.086	1	2
548.426	1	3
548.766	1	10
549.106	1	13
549.446	1	17
549.786	1	7
550.126	1	14
550.466	1	4
550.806	1	13
551.146	1	17
551.486	1	-8
551.826	1	3
552.166	1	7
552.506	1	3
552.846	1	9
553.186	1	2
553.526	1	7
553.866	1	13
554.206	1	4
554.546	1	7
554.886	1	-3
555.226	1	5
555.566	1	9
555.906	1	7
556.246	1	4
556.586	1	4
556.926	1	6
557.266	1	12
557.606	1	-2
557.946	1	11
558.286	1	-1
558.626	1	4
558.966	1	5
559.306	1	8
559.646	1	6
559.986	1	8
560.325	1	4
560.665	1	1
561.005	1	2
561.345	1	5
561.685	1	9
562.025	1	1
562.365	1	1
562.705	1	6
563.045	1	10
563.385	1	8
563.725	1	3
564.064	1	-5
564.404	1	-5
564.744	1	10
565.084	1	8
565.424	1	4
565.764	1	11
566.104	1	9
566.444	1	16
566.783	1	14
567.123	1	0
567.463	1	9
567.803	1	16
568.143	1	5
568.483	1	11
568.823	1	8
569.162	1	1
569.502	1	8
569.842	1	1
570.182	1	4
570.522	1	0
570.862	1	-8
571.201	1	4
571.541	1	6
571.881	1	0
572.221	1	5
572.561	1	10
572.900	1	15
573.240	1	3
573.580	1	7
573.920	1	7
574.260	1	6
574.599	1	11
574.939	1	8
575.279	1	0
575.619	1	2
575.959	1	4
576.298	1	-1
576.638	1	3
576.978	1	9
577.318	1	8
577.657	1	-3
577.997	1	9
578.337	1	-4
578.677	1	11
579.016	1	8
579.356	1	13
579.696	1	5
580.036	1	7
580.375	1	8
580.715	1	6
581.055	1	2
581.394	1	4
581.734	1	4
582.074	1	7
582.414	1	-1
582.753	1	4
583.093	1	7
583.433	1	7
583.772	1	6
584.112	1	4
584.452	1	15
584.791	1	7
585.131	1	9
585.471	1	7
585.811	1	8
586.150	1	1
586.490	1	-1
586.830	1	11
587.169	1	-3
587.509	1	6
587.849	1	13
588.188	1	3
588.528	1	3
588.867	1	4
589.207	1	8
589.547	1	4
589.886	1	15
590.226	1	-5
590.566	1	3
590.905	1	5
591.245	1	-3
591.585	1	-7
591.924	1	4
592.264	1	-2
592.603	1	-6
592.943	1	3
593.283	1	6
593.622	1	5
593.962	1	9
594.301	1	6
594.641	1	6
594.981	1	2
595.320	1	14
595.660	1	4
595.999	1	-1
596.339	1	9
596.678	1	-15
597.018	1	2
597.358	1	0
597.697	1	-8
598.037	1	4
598.376	1	1
598.716	1	14
599.055	1	9
599.395	1	2
599.734	1	7
600.074	1	7
600.413	1	3
600.753	1	6
601.092	1	-1
601.432	1	-3
601.771	1	9
602.111	1	5
602.451	1	4
602.790	1	10
603.130	1	6
603.469	1	9
603.809	1	7
604.148	1	-1
604.487	1	-2
604.827	1	5
605.166	1	-2
605.506	1	-4
605.845	1	6
606.185	1	-3
606.524	1	-1
606.864	1	4
607.203	1	6
607.543	1	-4
607.882	1	6
608.222	1	-5
608.561	1	2
608.901	1	3
609.240	1	1
609.579	1	-1
609.919	1	-6
610.258	1	9
610.598	1	0
610.937	1	6
611.277	1	10
611.616	1	13
611.955	1	3
612.295	1	0
612.634	1	14
612.974	1	-2
613.313	1	11
613.652	1	7
613.992	1	3
614.331	1	7
614.671	1	14
615.010	1	-2
615.349	1	0
615.689	1	6
616.028	1	10
616.368	1	12
616.707	1	2
617.046	1	1
617.386	1	7
617.725	1	-5
618.064	1	-1
618.404	1	-8
618.743	1	5
619.082	1	11
619.422	1	11
619.761	1	-5
620.100	1	5
620.440	1	16
620.779	1	9
621.118	1	14
621.458	1	-3
621.797	1	-2
622.136	1	2
622.476	1	6
622.815	1	0
623.154	1	-15
623.494	1	2
623.833	1	-3
624.172	1	7
624.511	1	-4
624.851	1	2
625.190	1	2
625.529	1	-3
625.869	1	16
626.208	1	-2
626.547	1	-7
626.886	1	-4
627.226	1	9
627.565	1	-6
627.904	1	1
628.243	1	13
628.583	1	8
628.922	1	8
629.261	1	2
629.600	1	1
629.940	1	1
630.279	1	8
630.618	1	6
630.957	1	17
631.297	1	7
631.636	1	0
631.975	1	13
632.314	1	13
632.653	1	-10
632.993	1	8
633.332	1	6
633.671	1	9
634.010	1	6
634.349	1	20
634.689	1	-1
635.028	1	2
635.367	1	6
635.706	1	-6
636.045	1	-1
636.384	1	9
636.724	1	4
637.063	1	2
637.402	1	5
637.741	1	5
638.080	1	-1
638.419	1	8
638.759	1	10
639.098	1	5
639.437	1	4
639.776	1	-1
640.115	1	-10
640.454	1	-4
640.793	1	-4
641.132	1	8
641.472	1	11
641.811	1	-1
642.150	1	5
642.489	1	16
642.828	1	11
643.167	1	11
643.506	1	-4
643.845	1	11
644.184	1	11
644.524	1	1
644.863	1	4
645.202	1	-6
645.541	1	-2
645.880	1	7
646.219	1	3
646.558	1	-7
646.897	1	4
647.236	1	-1
647.575	1	9
647.914	1	7
648.253	1	9
648.592	1	11
648.931	1	10
649.270	1	9
649.610	1	9
649.949	1	6
650.288	1	4
650.627	1	-3
650.966	1	0
651.305	1	4
651.644	1	4
651.983	1	5
652.322	1	0
652.661	1	11
653.000	1	1
653.339	1	10
653.678	1	14
654.017	1	4
654.356	1	20
654.695	1	19
655.034	1	0
655.373	1	7
655.712	1	8
656.051	1	0
656.390	1	5
656.729	1	7
657.068	1	6
657.406	1	-3
657.745	1	5
658.084	1	6
658.423	1	14
658.762	1	-3
659.101	1	0
659.440	1	11
659.779	1	9
660.118	1	10
660.457	1	5
660.796	1	10
661.135	1	10
661.474	1	11
661.813	1	1
662.152	1	7
662.491	1	0
662.829	1	12
663.168	1	-2
663.507	1	6
663.846	1	5
664.185	1	9
664.524	1	11
664.863	1	-13
665.202	1	7
665.541	1	9
665.879	1	9
666.218	1	6
666.557	1	-7
666.896	1	4
667.235	1	-4
667.574	1	-2
667.913	1	3
668.251	1	-8
668.590	1	-3
668.929	1	0
669.268	1	5
669.607	1	4
669.946	1	0
670.285	1	7
670.623	1	1
670.962	1	-1
671.301	1	-6
671.640	1	2
671.979	1	-7
672.317	1	6
672.656	1	3
672.995	1	-1
673.334	1	-1
673.673	1	13
674.011	1	4
674.350	1	-3
674.689	1	2
675.028	1	6
675.367	1	1
675.705	1	-10
676.044	1	-2
676.383	1	3
676.722	1	6
677.060	1	14
677.399	1	14
677.738	1	-1
678.077	1	-1
678.416	1	-2
678.754	1	2
679.093	1	8
679.432	1	-3
679.771	1	4
680.109	1	-5
680.448	1	10
680.787	1	-8
681.125	1	-3
681.464	1	0
681.803	1	-2
682.142	1	0
682.480	1	0
682.819	1	3
683.158	1	3
683.496	1	6
683.835	1	1
684.174	1	10
684.512	1	5
684.851	1	-2
685.190	1	3
685.529	1	-1
685.867	1	6
686.206	1	-2
686.545	1	-3
686.883	1	11
687.222	1	-9
687.561	1	5
687.899	1	-3
688.238	1	11
688.577	1	-1
688.746	1	-4