File: Data/GaN_150K_450ms/GaN_sample D_spot15_UVVIS_150 K_200um_450 ms 2x2mm1_118.txt
340.368	1	8
340.710	1	6
341.052	1	15
341.394	1	-1
341.737	1	13
342.079	1	2
342.421	1	6
342.763	1	4
343.105	1	18
343.447	1	8
343.789	1	2
344.131	1	-1
344.473	1	-3
344.815	1	4
345.157	1	10
345.499	1	6
345.841	1	2
346.183	1	-2
346.526	1	15
346.868	1	5
347.210	1	-1
347.552	1	11
347.894	1	-3
348.236	1	9
348.578	1	8
348.920	1	9
349.262	1	11
349.604	1	-5
349.946	1	-2
350.288	1	-7
350.630	1	1
350.972	1	11
351.314	1	3
351.656	1	18
351.998	1	3
352.340	1	11
352.682	1	-2
353.024	1	11
353.366	1	18
353.708	1	5
354.050	1	8
354.392	1	-5
354.734	1	10
355.076	1	17
355.418	1	5
355.760	1	21
356.102	1	13
356.444	1	13
356.785	1	13
357.127	1	13
357.469	1	14
357.811	1	10
358.153	1	-2
358.495	1	10
358.837	1	26
359.179	1	9
359.521	1	16
359.863	1	10
360.205	1	20
360.547	1	16
360.889	1	19
361.231	1	33
361.572	1	11
361.914	1	28
362.256	1	31
362.598	1	28
362.940	1	33
363.282	1	26
363.624	1	36
363.966	1	36
364.308	1	47
364.649	1	52
364.991	1	46
365.333	1	42
365.675	1	61
366.017	1	57
366.359	1	52
366.701	1	59
367.042	1	63
367.384	1	68
367.726	1	56
368.068	1	74
368.410	1	72
368.752	1	80
369.093	1	71
369.435	1	56
369.777	1	71
370.119	1	55
370.461	1	58
370.803	1	48
371.144	1	40
371.486	1	60
371.828	1	43
372.170	1	49
372.512	1	39
372.853	1	52
373.195	1	44
373.537	1	30
373.879	1	34
374.220	1	44
374.562	1	40
374.904	1	28
375.246	1	32
375.588	1	26
375.929	1	28
376.271	1	18
376.613	1	26
376.955	1	35
377.296	1	20
377.638	1	27
377.980	1	31
378.321	1	19
378.663	1	27
379.005	1	28
379.347	1	24
379.688	1	27
380.030	1	18
380.372	1	22
380.714	1	14
381.055	1	5
381.397	1	13
381.739	1	-5
382.080	1	15
382.422	1	26
382.764	1	22
383.105	1	19
383.447	1	14
383.789	1	2
384.130	1	14
384.472	1	7
384.814	1	6
385.156	1	11
385.497	1	22
385.839	1	7
386.180	1	16
386.522	1	13
386.864	1	6
387.205	1	19
387.547	1	17
387.889	1	13
388.230	1	7
388.572	1	13
388.914	1	9
389.255	1	18
389.597	1	8
389.939	1	15
390.280	1	9
390.622	1	11
390.963	1	0
391.305	1	3
391.647	1	6
391.988	1	15
392.330	1	10
392.671	1	11
393.013	1	15
393.355	1	23
393.696	1	7
394.038	1	7
394.379	1	13
394.721	1	12
395.062	1	6
395.404	1	8
395.746	1	4
396.087	1	16
396.429	1	8
396.770	1	3
397.112	1	7
397.453	1	1
397.795	1	10
398.136	1	13
398.478	1	6
398.819	1	15
399.161	1	22
399.503	1	18
399.844	1	7
400.186	1	9
400.527	1	8
400.869	1	10
401.210	1	11
401.552	1	10
401.893	1	10
402.235	1	10
402.576	1	15
402.918	1	-2
403.259	1	12
403.601	1	14
403.942	1	17
404.284	1	10
404.625	1	7
404.967	1	9
405.308	1	-1
405.649	1	21
405.991	1	17
406.332	1	14
406.674	1	6
407.015	1	12
407.357	1	12
407.698	1	9
408.040	1	12
408.381	1	0
408.722	1	8
409.064	1	10
409.405	1	12
409.747	1	5
410.088	1	13
410.430	1	6
410.771	1	19
411.112	1	20
411.454	1	10
411.795	1	13
412.137	1	7
412.478	1	18
412.819	1	15
413.161	1	12
413.502	1	14
413.844	1	15
414.185	1	15
414.526	1	20
414.868	1	14
415.209	1	9
415.550	1	6
415.892	1	17
416.233	1	14
416.575	1	12
416.916	1	8
417.257	1	1
417.599	1	23
417.940	1	4
418.281	1	20
418.623	1	12
418.964	1	21
419.305	1	14
419.647	1	7
419.988	1	23
420.329	1	17
420.671	1	12
421.012	1	11
421.353	1	20
421.695	1	15
422.036	1	24
422.377	1	9
422.718	1	20
423.060	1	10
423.401	1	6
423.742	1	11
424.084	1	13
424.425	1	22
424.766	1	20
425.107	1	13
425.449	1	11
425.790	1	18
426.131	1	18
426.472	1	27
426.814	1	8
427.155	1	13
427.496	1	16
427.837	1	9
428.179	1	29
428.520	1	1
428.861	1	24
429.202	1	10
429.544	1	11
429.885	1	8
430.226	1	2
430.567	1	8
430.909	1	8
431.250	1	20
431.591	1	17
431.932	1	16
432.273	1	28
432.615	1	7
432.956	1	8
433.297	1	6
433.638	1	18
433.979	1	11
434.320	1	5
434.662	1	19
435.003	1	16
435.344	1	4
435.685	1	11
436.026	1	8
436.368	1	7
436.709	1	-1
437.050	1	5
437.391	1	15
437.732	1	17
438.073	1	1
438.414	1	4
438.756	1	12
439.097	1	14
439.438	1	11
439.779	1	13
440.120	1	10
440.461	1	4
440.802	1	17
441.143	1	7
441.485	1	23
441.826	1	4
442.167	1	11
442.508	1	15
442.849	1	14
443.190	1	13
443.531	1	12
443.872	1	-1
444.213	1	-4
444.554	1	11
444.895	1	8
445.237	1	15
445.578	1	8
445.919	1	5
446.260	1	13
446.601	1	17
446.942	1	15
447.283	1	26
447.624	1	-4
447.965	1	10
448.306	1	11
448.647	1	9
448.988	1	18
449.329	1	14
449.670	1	6
450.011	1	5
450.352	1	-5
450.693	1	16
451.034	1	9
451.375	1	7
451.716	1	7
452.057	1	9
452.398	1	16
452.739	1	6
453.080	1	15
453.421	1	14
453.762	1	12
454.103	1	21
454.444	1	2
454.785	1	6
455.126	1	8
455.467	1	9
455.808	1	11
456.149	1	5
456.490	1	3
456.831	1	14
457.172	1	1
457.513	1	10
457.854	1	-1
458.195	1	7
458.536	1	13
458.877	1	15
459.218	1	12
459.559	1	13
459.899	1	2
460.240	1	-1
460.581	1	-3
460.922	1	7
461.263	1	20
461.604	1	3
461.945	1	15
462.286	1	8
462.627	1	9
462.968	1	12
463.309	1	16
463.649	1	-2
463.990	1	7
464.331	1	11
464.672	1	18
465.013	1	11
465.354	1	16
465.695	1	15
466.036	1	20
466.376	1	10
466.717	1	-2
467.058	1	8
467.399	1	-5
467.740	1	6
468.081	1	14
468.422	1	17
468.762	1	13
469.103	1	8
469.444	1	3
469.785	1	9
470.126	1	7
470.467	1	8
470.807	1	9
471.148	1	6
471.489	1	2
471.830	1	9
472.171	1	18
472.511	1	10
472.852	1	10
473.193	1	7
473.534	1	9
473.875	1	9
474.215	1	8
474.556	1	7
474.897	1	8
475.238	1	5
475.578	1	-2
475.919	1	3
476.260	1	-2
476.601	1	6
476.942	1	9
477.282	1	8
477.623	1	6
477.964	1	4
478.305	1	1
478.645	1	4
478.986	1	15
479.327	1	9
479.667	1	3
480.008	1	7
480.349	1	10
480.690	1	8
481.030	1	-4
481.371	1	-5
481.712	1	14
482.053	1	17
482.393	1	10
482.734	1	11
483.075	1	9
483.415	1	10
483.756	1	9
484.097	1	11
484.437	1	14
484.778	1	4
485.119	1	5
485.459	1	4
485.800	1	-4
486.141	1	10
486.481	1	-5
486.822	1	20
487.163	1	-4
487.503	1	6
487.844	1	2
488.185	1	9
488.525	1	6
488.866	1	-6
489.207	1	18
489.547	1	6
489.888	1	11
490.228	1	6
490.569	1	4
490.910	1	19
491.250	1	14
491.591	1	3
491.932	1	19
492.272	1	3
492.613	1	3
492.953	1	6
493.294	1	-2
493.635	1	12
493.975	1	13
494.316	1	8
494.656	1	17
494.997	1	-1
495.337	1	5
495.678	1	13
496.019	1	9
496.359	1	6
496.700	1	11
497.040	1	13
497.381	1	5
497.721	1	-4
498.062	1	4
498.403	1	16
498.743	1	13
499.084	1	15
499.424	1	1
499.765	1	9
500.105	1	21
500.446	1	5
500.786	1	2
501.127	1	8
501.467	1	18
501.808	1	14
502.148	1	5
502.489	1	11
502.829	1	8
503.170	1	9
503.510	1	5
503.851	1	19
504.191	1	16
504.532	1	18
504.872	1	1
505.213	1	11
505.553	1	15
505.894	1	9
506.234	1	23
506.575	1	21
506.915	1	11
507.256	1	18
507.596	1	22
507.936	1	23
508.277	1	19
508.617	1	15
508.958	1	18
509.298	1	6
509.639	1	8
509.979	1	14
510.319	1	11
510.660	1	7
511.000	1	15
511.341	1	25
511.681	1	14
512.022	1	-1
512.362	1	9
512.702	1	-1
513.043	1	19
513.383	1	12
513.724	1	14
514.064	1	15
514.404	1	22
514.745	1	13
515.085	1	25
515.425	1	12
515.766	1	12
516.106	1	12
516.447	1	25
516.787	1	13
517.127	1	25
517.468	1	26
517.808	1	10
518.148	1	14
518.489	1	7
518.829	1	15
519.169	1	15
519.510	1	8
519.850	1	15
520.190	1	12
520.531	1	12
520.871	1	21
521.211	1	25
521.552	1	8
521.892	1	18
522.232	1	14
522.573	1	18
522.913	1	24
523.253	1	23
523.593	1	23
523.934	1	16
524.274	1	21
524.614	1	20
524.955	1	13
525.295	1	17
525.635	1	20
525.975	1	11
526.316	1	11
526.656	1	26
526.996	1	19
527.337	1	23
527.677	1	24
528.017	1	3
528.357	1	18
528.698	1	25
529.038	1	25
529.378	1	17
529.718	1	12
530.058	1	19
530.399	1	15
530.739	1	20
531.079	1	18
531.419	1	17
531.760	1	18
532.100	1	16
532.440	1	17
532.780	1	17
533.120	1	19
533.461	1	12
533.801	1	20
534.141	1	16
534.481	1	28
534.821	1	13
535.162	1	19
535.502	1	13
535.842	1	23
536.182	1	18
536.522	1	15
536.862	1	9
537.203	1	17
537.543	1	22
537.883	1	20
538.223	1	25
538.563	1	3
538.903	1	8
539.243	1	12
539.584	1	17
539.924	1	13
540.264	1	30
540.604	1	31
540.944	1	16
541.284	1	12
541.624	1	10
541.964	1	19
542.305	1	21
542.645	1	14
542.985	1	20
543.325	1	13
543.665	1	9
544.005	1	15
544.345	1	20
544.685	1	13
545.025	1	18
545.365	1	10
545.705	1	11
546.045	1	13
546.386	1	5
546.726	1	8
547.066	1	10
547.406	1	19
547.746	1	13
548.086	1	17
548.426	1	10
548.766	1	12
549.106	1	6
549.446	1	13
549.786	1	26
550.126	1	16
550.466	1	13
550.806	1	26
551.146	1	13
551.486	1	7
551.826	1	13
552.166	1	12
552.506	1	12
552.846	1	10
553.186	1	1
553.526	1	20
553.866	1	10
554.206	1	14
554.546	1	16
554.886	1	13
555.226	1	15
555.566	1	14
555.906	1	19
556.246	1	15
556.586	1	17
556.926	1	9
557.266	1	21
557.606	1	0
557.946	1	19
558.286	1	-3
558.626	1	22
558.966	1	15
559.306	1	15
559.646	1	13
559.986	1	21
560.325	1	11
560.665	1	15
561.005	1	14
561.345	1	12
561.685	1	11
562.025	1	9
562.365	1	1
562.705	1	18
563.045	1	7
563.385	1	19
563.725	1	21
564.064	1	3
564.404	1	4
564.744	1	21
565.084	1	20
565.424	1	5
565.764	1	16
566.104	1	26
566.444	1	21
566.783	1	10
567.123	1	10
567.463	1	19
567.803	1	15
568.143	1	23
568.483	1	21
568.823	1	14
569.162	1	4
569.502	1	18
569.842	1	3
570.182	1	8
570.522	1	15
570.862	1	-8
571.201	1	12
571.541	1	9
571.881	1	5
572.221	1	9
572.561	1	18
572.900	1	20
573.240	1	15
573.580	1	5
573.920	1	15
574.260	1	9
574.599	1	14
574.939	1	9
575.279	1	5
575.619	1	5
575.959	1	5
576.298	1	1
576.638	1	7
576.978	1	14
577.318	1	5
577.657	1	4
577.997	1	11
578.337	1	8
578.677	1	4
579.016	1	10
579.356	1	8
579.696	1	6
580.036	1	14
580.375	1	4
580.715	1	7
581.055	1	7
581.394	1	8
581.734	1	9
582.074	1	14
582.414	1	-2
582.753	1	15
583.093	1	9
583.433	1	20
583.772	1	15
584.112	1	13
584.452	1	7
584.791	1	9
585.131	1	11
585.471	1	0
585.811	1	14
586.150	1	10
586.490	1	15
586.830	1	11
587.169	1	11
587.509	1	9
587.849	1	17
588.188	1	13
588.528	1	4
588.867	1	6
589.207	1	8
589.547	1	13
589.886	1	12
590.226	1	10
590.566	1	8
590.905	1	5
591.245	1	7
591.585	1	-4
591.924	1	2
592.264	1	8
592.603	1	-11
592.943	1	13
593.283	1	4
593.622	1	13
593.962	1	3
594.301	1	5
594.641	1	14
594.981	1	15
595.320	1	10
595.660	1	14
595.999	1	8
596.339	1	3
596.678	1	7
597.018	1	4
597.358	1	6
597.697	1	3
598.037	1	3
598.376	1	3
598.716	1	8
599.055	1	4
599.395	1	3
599.734	1	12
600.074	1	2
600.413	1	14
600.753	1	-3
601.092	1	3
601.432	1	-1
601.771	1	1
602.111	1	3
602.451	1	-1
602.790	1	5
603.130	1	4
603.469	1	4
603.809	1	12
604.148	1	1
604.487	1	8
604.827	1	5
605.166	1	1
605.506	1	4
605.845	1	9
606.185	1	4
606.524	1	0
606.864	1	13
607.203	1	9
607.543	1	12
607.882	1	8
608.222	1	4
608.561	1	3
608.901	1	2
609.240	1	3
609.579	1	6
609.919	1	-8
610.258	1	13
610.598	1	0
610.937	1	3
611.277	1	10
611.616	1	13
611.955	1	2
612.295	1	11
612.634	1	7
612.974	1	8
613.313	1	12
613.652	1	15
613.992	1	-1
614.331	1	24
614.671	1	7
615.010	1	6
615.349	1	4
615.689	1	6
616.028	1	24
616.368	1	12
616.707	1	11
617.046	1	-3
617.386	1	12
617.725	1	-2
618.064	1	-1
618.404	1	-10
618.743	1	9
619.082	1	19
619.422	1	13
619.761	1	1
620.100	1	11
620.440	1	15
620.779	1	13
621.118	1	17
621.458	1	8
621.797	1	0
622.136	1	-5
622.476	1	10
622.815	1	6
623.154	1	3
623.494	1	-1
623.833	1	4
624.172	1	1
624.511	1	1
624.851	1	5
625.190	1	9
625.529	1	-1
625.869	1	15
626.208	1	0
626.547	1	4
626.886	1	9
627.226	1	10
627.565	1	17
627.904	1	0
628.243	1	8
628.583	1	7
628.922	1	14
629.261	1	5
629.600	1	-1
629.940	1	13
630.279	1	9
630.618	1	5
630.957	1	0
631.297	1	7
631.636	1	-1
631.975	1	6
632.314	1	-1
632.653	1	1
632.993	1	6
633.332	1	9
633.671	1	11
634.010	1	7
634.349	1	17
634.689	1	0
635.028	1	3
635.367	1	14
635.706	1	-3
636.045	1	-3
636.384	1	13
636.724	1	7
637.063	1	-3
637.402	1	8
637.741	1	11
638.080	1	12
638.419	1	5
638.759	1	14
639.098	1	8
639.437	1	6
639.776	1	1
640.115	1	-1
640.454	1	1
640.793	1	-6
641.132	1	10
641.472	1	14
641.811	1	-7
642.150	1	2
642.489	1	4
642.828	1	19
643.167	1	0
643.506	1	6
643.845	1	8
644.184	1	17
644.524	1	2
644.863	1	-4
645.202	1	5
645.541	1	10
645.880	1	13
646.219	1	0
646.558	1	1
646.897	1	1
647.236	1	-7
647.575	1	8
647.914	1	3
648.253	1	7
648.592	1	11
648.931	1	15
649.270	1	13
649.610	1	8
649.949	1	3
650.288	1	9
650.627	1	6
650.966	1	-1
651.305	1	4
651.644	1	13
651.983	1	5
652.322	1	5
652.661	1	6
653.000	1	-7
653.339	1	6
653.678	1	13
654.017	1	16
654.356	1	11
654.695	1	19
655.034	1	-1
655.373	1	2
655.712	1	11
656.051	1	-3
656.390	1	6
656.729	1	15
657.068	1	1
657.406	1	-1
657.745	1	11
658.084	1	9
658.423	1	9
658.762	1	-7
659.101	1	-2
659.440	1	13
659.779	1	5
660.118	1	2
660.457	1	5
660.796	1	11
661.135	1	14
661.474	1	15
661.813	1	7
662.152	1	19
662.491	1	7
662.829	1	5
663.168	1	11
663.507	1	2
663.846	1	8
664.185	1	3
664.524	1	11
664.863	1	-10
665.202	1	4
665.541	1	1
665.879	1	17
666.218	1	13
666.557	1	6
666.896	1	7
667.235	1	-7
667.574	1	4
667.913	1	10
668.251	1	-5
668.590	1	4
668.929	1	2
669.268	1	3
669.607	1	3
669.946	1	7
670.285	1	7
670.623	1	2
670.962	1	5
671.301	1	1
671.640	1	11
671.979	1	-7
672.317	1	3
672.656	1	8
672.995	1	11
673.334	1	3
673.673	1	24
674.011	1	16
674.350	1	7
674.689	1	-5
675.028	1	6
675.367	1	7
675.705	1	1
676.044	1	3
676.383	1	4
676.722	1	9
677.060	1	18
677.399	1	20
677.738	1	10
678.077	1	3
678.416	1	5
678.754	1	-1
679.093	1	13
679.432	1	0
679.771	1	2
680.109	1	0
680.448	1	4
680.787	1	-5
681.125	1	4
681.464	1	10
681.803	1	2
682.142	1	11
682.480	1	-1
682.819	1	10
683.158	1	0
683.496	1	-5
683.835	1	7
684.174	1	5
684.512	1	6
684.851	1	5
685.190	1	1
685.529	1	-10
685.867	1	-2
686.206	1	9
686.545	1	12
686.883	1	11
687.222	1	-6
687.561	1	7
687.899	1	6
688.238	1	5
688.577	1	5
688.746	1	1