File: Data/GaN_150K_450ms/GaN_sample D_spot15_UVVIS_150 K_200um_450 ms 2x2mm1_115.txt
340.368	1	1
340.710	1	2
341.052	1	9
341.394	1	-10
341.737	1	11
342.079	1	9
342.421	1	9
342.763	1	-3
343.105	1	1
343.447	1	2
343.789	1	0
344.131	1	2
344.473	1	4
344.815	1	9
345.157	1	8
345.499	1	-4
345.841	1	8
346.183	1	5
346.526	1	13
346.868	1	10
347.210	1	0
347.552	1	26
347.894	1	8
348.236	1	14
348.578	1	8
348.920	1	6
349.262	1	12
349.604	1	4
349.946	1	14
350.288	1	2
350.630	1	-10
350.972	1	11
351.314	1	3
351.656	1	9
351.998	1	7
352.340	1	12
352.682	1	-7
353.024	1	16
353.366	1	11
353.708	1	8
354.050	1	3
354.392	1	2
354.734	1	7
355.076	1	25
355.418	1	8
355.760	1	19
356.102	1	5
356.444	1	11
356.785	1	8
357.127	1	10
357.469	1	5
357.811	1	10
358.153	1	4
358.495	1	12
358.837	1	16
359.179	1	8
359.521	1	19
359.863	1	2
360.205	1	24
360.547	1	28
360.889	1	19
361.231	1	25
361.572	1	24
361.914	1	19
362.256	1	25
362.598	1	31
362.940	1	26
363.282	1	27
363.624	1	36
363.966	1	27
364.308	1	41
364.649	1	37
364.991	1	58
365.333	1	47
365.675	1	61
366.017	1	57
366.359	1	50
366.701	1	56
367.042	1	72
367.384	1	54
367.726	1	68
368.068	1	76
368.410	1	79
368.752	1	78
369.093	1	74
369.435	1	70
369.777	1	75
370.119	1	66
370.461	1	57
370.803	1	58
371.144	1	49
371.486	1	63
371.828	1	50
372.170	1	48
372.512	1	45
372.853	1	46
373.195	1	44
373.537	1	28
373.879	1	40
374.220	1	40
374.562	1	52
374.904	1	39
375.246	1	32
375.588	1	27
375.929	1	39
376.271	1	18
376.613	1	28
376.955	1	37
377.296	1	28
377.638	1	16
377.980	1	30
378.321	1	22
378.663	1	24
379.005	1	18
379.347	1	16
379.688	1	26
380.030	1	22
380.372	1	23
380.714	1	18
381.055	1	14
381.397	1	11
381.739	1	5
382.080	1	20
382.422	1	15
382.764	1	20
383.105	1	11
383.447	1	5
383.789	1	5
384.130	1	18
384.472	1	6
384.814	1	16
385.156	1	22
385.497	1	19
385.839	1	13
386.180	1	18
386.522	1	9
386.864	1	13
387.205	1	11
387.547	1	12
387.889	1	11
388.230	1	24
388.572	1	0
388.914	1	23
389.255	1	12
389.597	1	10
389.939	1	21
390.280	1	3
390.622	1	13
390.963	1	5
391.305	1	0
391.647	1	11
391.988	1	6
392.330	1	-7
392.671	1	12
393.013	1	8
393.355	1	13
393.696	1	7
394.038	1	10
394.379	1	12
394.721	1	16
395.062	1	8
395.404	1	16
395.746	1	2
396.087	1	10
396.429	1	3
396.770	1	13
397.112	1	4
397.453	1	5
397.795	1	8
398.136	1	12
398.478	1	4
398.819	1	11
399.161	1	10
399.503	1	9
399.844	1	5
400.186	1	16
400.527	1	18
400.869	1	5
401.210	1	15
401.552	1	19
401.893	1	8
402.235	1	8
402.576	1	9
402.918	1	7
403.259	1	5
403.601	1	21
403.942	1	1
404.284	1	18
404.625	1	6
404.967	1	-4
405.308	1	5
405.649	1	11
405.991	1	9
406.332	1	21
406.674	1	3
407.015	1	19
407.357	1	9
407.698	1	10
408.040	1	25
408.381	1	2
408.722	1	12
409.064	1	19
409.405	1	14
409.747	1	0
410.088	1	16
410.430	1	16
410.771	1	9
411.112	1	7
411.454	1	12
411.795	1	12
412.137	1	-1
412.478	1	-3
412.819	1	19
413.161	1	11
413.502	1	18
413.844	1	21
414.185	1	14
414.526	1	2
414.868	1	14
415.209	1	2
415.550	1	12
415.892	1	20
416.233	1	13
416.575	1	7
416.916	1	6
417.257	1	5
417.599	1	13
417.940	1	4
418.281	1	16
418.623	1	12
418.964	1	18
419.305	1	14
419.647	1	12
419.988	1	24
420.329	1	20
420.671	1	26
421.012	1	4
421.353	1	22
421.695	1	8
422.036	1	20
422.377	1	11
422.718	1	19
423.060	1	15
423.401	1	10
423.742	1	21
424.084	1	13
424.425	1	27
424.766	1	11
425.107	1	8
425.449	1	7
425.790	1	13
426.131	1	13
426.472	1	8
426.814	1	15
427.155	1	8
427.496	1	15
427.837	1	9
428.179	1	26
428.520	1	19
428.861	1	12
429.202	1	7
429.544	1	14
429.885	1	11
430.226	1	5
430.567	1	5
430.909	1	7
431.250	1	14
431.591	1	8
431.932	1	17
432.273	1	16
432.615	1	4
432.956	1	8
433.297	1	11
433.638	1	20
433.979	1	17
434.320	1	17
434.662	1	13
435.003	1	25
435.344	1	17
435.685	1	3
436.026	1	2
436.368	1	6
436.709	1	5
437.050	1	-1
437.391	1	3
437.732	1	6
438.073	1	5
438.414	1	16
438.756	1	10
439.097	1	12
439.438	1	14
439.779	1	1
440.120	1	11
440.461	1	7
440.802	1	13
441.143	1	11
441.485	1	-3
441.826	1	6
442.167	1	5
442.508	1	8
442.849	1	17
443.190	1	11
443.531	1	15
443.872	1	9
444.213	1	-1
444.554	1	13
444.895	1	4
445.237	1	10
445.578	1	0
445.919	1	16
446.260	1	13
446.601	1	10
446.942	1	-1
447.283	1	15
447.624	1	2
447.965	1	17
448.306	1	8
448.647	1	4
448.988	1	3
449.329	1	17
449.670	1	9
450.011	1	11
450.352	1	13
450.693	1	6
451.034	1	5
451.375	1	16
451.716	1	9
452.057	1	12
452.398	1	19
452.739	1	8
453.080	1	16
453.421	1	18
453.762	1	12
454.103	1	14
454.444	1	7
454.785	1	16
455.126	1	13
455.467	1	6
455.808	1	20
456.149	1	6
456.490	1	1
456.831	1	10
457.172	1	-1
457.513	1	9
457.854	1	5
458.195	1	10
458.536	1	6
458.877	1	15
459.218	1	8
459.559	1	8
459.899	1	6
460.240	1	10
460.581	1	3
460.922	1	5
461.263	1	19
461.604	1	16
461.945	1	9
462.286	1	4
462.627	1	12
462.968	1	14
463.309	1	10
463.649	1	-2
463.990	1	4
464.331	1	21
464.672	1	9
465.013	1	12
465.354	1	21
465.695	1	3
466.036	1	13
466.376	1	20
466.717	1	-1
467.058	1	6
467.399	1	6
467.740	1	17
468.081	1	8
468.422	1	12
468.762	1	12
469.103	1	11
469.444	1	7
469.785	1	-6
470.126	1	5
470.467	1	5
470.807	1	10
471.148	1	13
471.489	1	19
471.830	1	7
472.171	1	12
472.511	1	9
472.852	1	17
473.193	1	4
473.534	1	7
473.875	1	1
474.215	1	-1
474.556	1	2
474.897	1	-2
475.238	1	6
475.578	1	4
475.919	1	5
476.260	1	-2
476.601	1	3
476.942	1	6
477.282	1	1
477.623	1	6
477.964	1	13
478.305	1	8
478.645	1	13
478.986	1	6
479.327	1	5
479.667	1	6
480.008	1	14
480.349	1	7
480.690	1	13
481.030	1	9
481.371	1	-5
481.712	1	22
482.053	1	9
482.393	1	13
482.734	1	10
483.075	1	14
483.415	1	8
483.756	1	14
484.097	1	9
484.437	1	6
484.778	1	1
485.119	1	6
485.459	1	7
485.800	1	4
486.141	1	9
486.481	1	-6
486.822	1	23
487.163	1	7
487.503	1	8
487.844	1	-3
488.185	1	9
488.525	1	0
488.866	1	-1
489.207	1	16
489.547	1	14
489.888	1	17
490.228	1	11
490.569	1	8
490.910	1	13
491.250	1	14
491.591	1	10
491.932	1	18
492.272	1	-1
492.613	1	6
492.953	1	10
493.294	1	-1
493.635	1	10
493.975	1	19
494.316	1	6
494.656	1	15
494.997	1	-5
495.337	1	9
495.678	1	9
496.019	1	2
496.359	1	8
496.700	1	12
497.040	1	5
497.381	1	14
497.721	1	2
498.062	1	16
498.403	1	20
498.743	1	17
499.084	1	4
499.424	1	1
499.765	1	8
500.105	1	15
500.446	1	10
500.786	1	17
501.127	1	11
501.467	1	16
501.808	1	12
502.148	1	6
502.489	1	14
502.829	1	8
503.170	1	8
503.510	1	12
503.851	1	18
504.191	1	5
504.532	1	10
504.872	1	5
505.213	1	12
505.553	1	12
505.894	1	18
506.234	1	20
506.575	1	25
506.915	1	16
507.256	1	18
507.596	1	14
507.936	1	19
508.277	1	21
508.617	1	15
508.958	1	15
509.298	1	11
509.639	1	1
509.979	1	10
510.319	1	6
510.660	1	13
511.000	1	12
511.341	1	29
511.681	1	20
512.022	1	9
512.362	1	17
512.702	1	6
513.043	1	7
513.383	1	12
513.724	1	19
514.064	1	19
514.404	1	24
514.745	1	15
515.085	1	17
515.425	1	19
515.766	1	11
516.106	1	18
516.447	1	26
516.787	1	13
517.127	1	32
517.468	1	23
517.808	1	9
518.148	1	23
518.489	1	10
518.829	1	16
519.169	1	8
519.510	1	17
519.850	1	14
520.190	1	21
520.531	1	11
520.871	1	9
521.211	1	20
521.552	1	16
521.892	1	12
522.232	1	18
522.573	1	15
522.913	1	21
523.253	1	26
523.593	1	30
523.934	1	18
524.274	1	26
524.614	1	23
524.955	1	3
525.295	1	20
525.635	1	17
525.975	1	8
526.316	1	6
526.656	1	25
526.996	1	15
527.337	1	22
527.677	1	28
528.017	1	9
528.357	1	14
528.698	1	16
529.038	1	17
529.378	1	19
529.718	1	13
530.058	1	10
530.399	1	20
530.739	1	24
531.079	1	14
531.419	1	24
531.760	1	23
532.100	1	26
532.440	1	26
532.780	1	28
533.120	1	16
533.461	1	14
533.801	1	22
534.141	1	18
534.481	1	34
534.821	1	22
535.162	1	21
535.502	1	24
535.842	1	15
536.182	1	19
536.522	1	10
536.862	1	21
537.203	1	25
537.543	1	17
537.883	1	24
538.223	1	29
538.563	1	4
538.903	1	10
539.243	1	11
539.584	1	17
539.924	1	18
540.264	1	27
540.604	1	29
540.944	1	11
541.284	1	24
541.624	1	14
541.964	1	5
542.305	1	15
542.645	1	4
542.985	1	16
543.325	1	16
543.665	1	11
544.005	1	15
544.345	1	30
544.685	1	8
545.025	1	27
545.365	1	14
545.705	1	14
546.045	1	16
546.386	1	14
546.726	1	18
547.066	1	12
547.406	1	18
547.746	1	13
548.086	1	25
548.426	1	17
548.766	1	27
549.106	1	11
549.446	1	10
549.786	1	20
550.126	1	14
550.466	1	12
550.806	1	23
551.146	1	20
551.486	1	7
551.826	1	14
552.166	1	12
552.506	1	7
552.846	1	17
553.186	1	10
553.526	1	18
553.866	1	7
554.206	1	14
554.546	1	10
554.886	1	7
555.226	1	15
555.566	1	17
555.906	1	15
556.246	1	11
556.586	1	12
556.926	1	7
557.266	1	22
557.606	1	3
557.946	1	23
558.286	1	4
558.626	1	11
558.966	1	8
559.306	1	13
559.646	1	18
559.986	1	17
560.325	1	3
560.665	1	12
561.005	1	13
561.345	1	5
561.685	1	11
562.025	1	15
562.365	1	14
562.705	1	23
563.045	1	12
563.385	1	10
563.725	1	9
564.064	1	12
564.404	1	4
564.744	1	14
565.084	1	12
565.424	1	8
565.764	1	13
566.104	1	25
566.444	1	15
566.783	1	6
567.123	1	3
567.463	1	18
567.803	1	20
568.143	1	14
568.483	1	15
568.823	1	9
569.162	1	6
569.502	1	12
569.842	1	10
570.182	1	8
570.522	1	0
570.862	1	-2
571.201	1	16
571.541	1	6
571.881	1	9
572.221	1	8
572.561	1	8
572.900	1	10
573.240	1	6
573.580	1	17
573.920	1	22
574.260	1	12
574.599	1	8
574.939	1	15
575.279	1	14
575.619	1	7
575.959	1	0
576.298	1	-1
576.638	1	11
576.978	1	12
577.318	1	14
577.657	1	11
577.997	1	15
578.337	1	8
578.677	1	6
579.016	1	4
579.356	1	13
579.696	1	14
580.036	1	10
580.375	1	15
580.715	1	17
581.055	1	12
581.394	1	16
581.734	1	0
582.074	1	11
582.414	1	4
582.753	1	3
583.093	1	13
583.433	1	10
583.772	1	8
584.112	1	6
584.452	1	1
584.791	1	12
585.131	1	6
585.471	1	-3
585.811	1	6
586.150	1	16
586.490	1	-1
586.830	1	10
587.169	1	2
587.509	1	9
587.849	1	14
588.188	1	21
588.528	1	5
588.867	1	3
589.207	1	12
589.547	1	10
589.886	1	9
590.226	1	5
590.566	1	5
590.905	1	0
591.245	1	0
591.585	1	-2
591.924	1	5
592.264	1	4
592.603	1	-2
592.943	1	1
593.283	1	6
593.622	1	5
593.962	1	12
594.301	1	6
594.641	1	15
594.981	1	7
595.320	1	15
595.660	1	8
595.999	1	8
596.339	1	15
596.678	1	6
597.018	1	1
597.358	1	7
597.697	1	-3
598.037	1	3
598.376	1	4
598.716	1	8
599.055	1	9
599.395	1	1
599.734	1	7
600.074	1	6
600.413	1	12
600.753	1	2
601.092	1	-2
601.432	1	4
601.771	1	17
602.111	1	11
602.451	1	-4
602.790	1	12
603.130	1	1
603.469	1	2
603.809	1	6
604.148	1	5
604.487	1	9
604.827	1	6
605.166	1	12
605.506	1	3
605.845	1	12
606.185	1	6
606.524	1	-1
606.864	1	15
607.203	1	14
607.543	1	4
607.882	1	9
608.222	1	5
608.561	1	3
608.901	1	3
609.240	1	14
609.579	1	-3
609.919	1	5
610.258	1	8
610.598	1	-4
610.937	1	7
611.277	1	8
611.616	1	14
611.955	1	-1
612.295	1	11
612.634	1	13
612.974	1	7
613.313	1	9
613.652	1	9
613.992	1	-4
614.331	1	13
614.671	1	6
615.010	1	14
615.349	1	0
615.689	1	2
616.028	1	18
616.368	1	19
616.707	1	6
617.046	1	3
617.386	1	1
617.725	1	-1
618.064	1	-10
618.404	1	0
618.743	1	9
619.082	1	22
619.422	1	20
619.761	1	6
620.100	1	6
620.440	1	15
620.779	1	9
621.118	1	8
621.458	1	3
621.797	1	9
622.136	1	10
622.476	1	5
622.815	1	9
623.154	1	5
623.494	1	-1
623.833	1	5
624.172	1	11
624.511	1	-2
624.851	1	4
625.190	1	1
625.529	1	2
625.869	1	5
626.208	1	-1
626.547	1	9
626.886	1	0
627.226	1	12
627.565	1	10
627.904	1	3
628.243	1	16
628.583	1	4
628.922	1	12
629.261	1	2
629.600	1	4
629.940	1	0
630.279	1	8
630.618	1	13
630.957	1	12
631.297	1	8
631.636	1	3
631.975	1	4
632.314	1	9
632.653	1	-2
632.993	1	0
633.332	1	2
633.671	1	14
634.010	1	4
634.349	1	10
634.689	1	9
635.028	1	0
635.367	1	9
635.706	1	3
636.045	1	3
636.384	1	7
636.724	1	8
637.063	1	-1
637.402	1	8
637.741	1	0
638.080	1	10
638.419	1	3
638.759	1	10
639.098	1	8
639.437	1	13
639.776	1	4
640.115	1	1
640.454	1	0
640.793	1	5
641.132	1	7
641.472	1	19
641.811	1	2
642.150	1	4
642.489	1	7
642.828	1	15
643.167	1	-3
643.506	1	4
643.845	1	10
644.184	1	12
644.524	1	2
644.863	1	0
645.202	1	10
645.541	1	11
645.880	1	2
646.219	1	-1
646.558	1	-7
646.897	1	-7
647.236	1	-3
647.575	1	14
647.914	1	4
648.253	1	8
648.592	1	13
648.931	1	1
649.270	1	17
649.610	1	13
649.949	1	-6
650.288	1	7
650.627	1	4
650.966	1	11
651.305	1	8
651.644	1	15
651.983	1	-1
652.322	1	2
652.661	1	9
653.000	1	5
653.339	1	4
653.678	1	2
654.017	1	18
654.356	1	11
654.695	1	16
655.034	1	3
655.373	1	10
655.712	1	10
656.051	1	-5
656.390	1	4
656.729	1	12
657.068	1	-7
657.406	1	-4
657.745	1	9
658.084	1	6
658.423	1	7
658.762	1	4
659.101	1	2
659.440	1	1
659.779	1	10
660.118	1	6
660.457	1	10
660.796	1	8
661.135	1	13
661.474	1	11
661.813	1	5
662.152	1	11
662.491	1	-3
662.829	1	10
663.168	1	2
663.507	1	6
663.846	1	5
664.185	1	2
664.524	1	20
664.863	1	-5
665.202	1	5
665.541	1	2
665.879	1	7
666.218	1	14
666.557	1	3
666.896	1	9
667.235	1	0
667.574	1	-5
667.913	1	4
668.251	1	-5
668.590	1	-8
668.929	1	6
669.268	1	6
669.607	1	0
669.946	1	-5
670.285	1	4
670.623	1	9
670.962	1	1
671.301	1	-2
671.640	1	5
671.979	1	0
672.317	1	6
672.656	1	12
672.995	1	3
673.334	1	0
673.673	1	16
674.011	1	1
674.350	1	13
674.689	1	-6
675.028	1	11
675.367	1	8
675.705	1	2
676.044	1	7
676.383	1	0
676.722	1	8
677.060	1	11
677.399	1	19
677.738	1	2
678.077	1	-1
678.416	1	7
678.754	1	4
679.093	1	6
679.432	1	0
679.771	1	4
680.109	1	0
680.448	1	2
680.787	1	3
681.125	1	2
681.464	1	11
681.803	1	3
682.142	1	0
682.480	1	-3
682.819	1	1
683.158	1	2
683.496	1	6
683.835	1	6
684.174	1	10
684.512	1	2
684.851	1	-1
685.190	1	-3
685.529	1	-1
685.867	1	5
686.206	1	-1
686.545	1	-1
686.883	1	12
687.222	1	6
687.561	1	5
687.899	1	1
688.238	1	14
688.577	1	-2
688.746	1	1