File: Data/GaN_150K_450ms/GaN_sample D_spot15_UVVIS_150 K_200um_450 ms 2x2mm1_332.txt
340.368	1	6
340.710	1	-2
341.052	1	3
341.394	1	-11
341.737	1	-1
342.079	1	4
342.421	1	-1
342.763	1	0
343.105	1	1
343.447	1	8
343.789	1	4
344.131	1	-5
344.473	1	-9
344.815	1	5
345.157	1	15
345.499	1	5
345.841	1	-3
346.183	1	3
346.526	1	11
346.868	1	-7
347.210	1	-1
347.552	1	9
347.894	1	-4
348.236	1	4
348.578	1	2
348.920	1	6
349.262	1	2
349.604	1	-4
349.946	1	-1
350.288	1	-3
350.630	1	-7
350.972	1	9
351.314	1	4
351.656	1	5
351.998	1	0
352.340	1	11
352.682	1	-12
353.024	1	11
353.366	1	3
353.708	1	-4
354.050	1	-4
354.392	1	-13
354.734	1	5
355.076	1	17
355.418	1	-7
355.760	1	-5
356.102	1	-5
356.444	1	8
356.785	1	9
357.127	1	8
357.469	1	-3
357.811	1	2
358.153	1	-8
358.495	1	4
358.837	1	9
359.179	1	-3
359.521	1	15
359.863	1	2
360.205	1	10
360.547	1	8
360.889	1	1
361.231	1	8
361.572	1	11
361.914	1	10
362.256	1	9
362.598	1	9
362.940	1	6
363.282	1	0
363.624	1	7
363.966	1	-11
364.308	1	17
364.649	1	1
364.991	1	8
365.333	1	5
365.675	1	6
366.017	1	12
366.359	1	3
366.701	1	2
367.042	1	11
367.384	1	5
367.726	1	3
368.068	1	20
368.410	1	3
368.752	1	24
369.093	1	13
369.435	1	10
369.777	1	10
370.119	1	10
370.461	1	10
370.803	1	2
371.144	1	9
371.486	1	11
371.828	1	16
372.170	1	7
372.512	1	1
372.853	1	5
373.195	1	-5
373.537	1	-13
373.879	1	1
374.220	1	8
374.562	1	9
374.904	1	1
375.246	1	6
375.588	1	-7
375.929	1	0
376.271	1	-2
376.613	1	7
376.955	1	3
377.296	1	1
377.638	1	4
377.980	1	0
378.321	1	4
378.663	1	7
379.005	1	-4
379.347	1	-3
379.688	1	14
380.030	1	13
380.372	1	10
380.714	1	4
381.055	1	1
381.397	1	11
381.739	1	0
382.080	1	2
382.422	1	4
382.764	1	5
383.105	1	-2
383.447	1	-2
383.789	1	0
384.130	1	9
384.472	1	7
384.814	1	2
385.156	1	-3
385.497	1	18
385.839	1	-5
386.180	1	11
386.522	1	-3
386.864	1	-7
387.205	1	8
387.547	1	3
387.889	1	3
388.230	1	1
388.572	1	-3
388.914	1	12
389.255	1	-1
389.597	1	-5
389.939	1	8
390.280	1	4
390.622	1	-5
390.963	1	-6
391.305	1	-12
391.647	1	7
391.988	1	-2
392.330	1	-1
392.671	1	7
393.013	1	3
393.355	1	17
393.696	1	-3
394.038	1	2
394.379	1	5
394.721	1	3
395.062	1	-6
395.404	1	4
395.746	1	1
396.087	1	3
396.429	1	-2
396.770	1	2
397.112	1	5
397.453	1	-7
397.795	1	3
398.136	1	1
398.478	1	9
398.819	1	1
399.161	1	0
399.503	1	2
399.844	1	-2
400.186	1	3
400.527	1	10
400.869	1	4
401.210	1	-3
401.552	1	-4
401.893	1	2
402.235	1	1
402.576	1	-2
402.918	1	-1
403.259	1	-1
403.601	1	1
403.942	1	-1
404.284	1	16
404.625	1	0
404.967	1	-1
405.308	1	-8
405.649	1	-6
405.991	1	0
406.332	1	3
406.674	1	-2
407.015	1	13
407.357	1	9
407.698	1	2
408.040	1	9
408.381	1	-2
408.722	1	10
409.064	1	3
409.405	1	3
409.747	1	4
410.088	1	-1
410.430	1	2
410.771	1	5
411.112	1	2
411.454	1	2
411.795	1	-2
412.137	1	5
412.478	1	7
412.819	1	7
413.161	1	-2
413.502	1	8
413.844	1	11
414.185	1	2
414.526	1	-4
414.868	1	-3
415.209	1	-1
415.550	1	8
415.892	1	4
416.233	1	-5
416.575	1	-3
416.916	1	1
417.257	1	-7
417.599	1	-4
417.940	1	-9
418.281	1	6
418.623	1	-4
418.964	1	13
419.305	1	7
419.647	1	5
419.988	1	11
420.329	1	6
420.671	1	6
421.012	1	-6
421.353	1	10
421.695	1	1
422.036	1	8
422.377	1	-1
422.718	1	6
423.060	1	8
423.401	1	1
423.742	1	6
424.084	1	-1
424.425	1	8
424.766	1	-2
425.107	1	-4
425.449	1	1
425.790	1	3
426.131	1	-5
426.472	1	16
426.814	1	5
427.155	1	-11
427.496	1	4
427.837	1	-8
428.179	1	9
428.520	1	4
428.861	1	6
429.202	1	-5
429.544	1	-2
429.885	1	5
430.226	1	-6
430.567	1	-12
430.909	1	2
431.250	1	2
431.591	1	5
431.932	1	-9
432.273	1	8
432.615	1	-2
432.956	1	-2
433.297	1	6
433.638	1	3
433.979	1	10
434.320	1	5
434.662	1	10
435.003	1	10
435.344	1	-3
435.685	1	-6
436.026	1	-6
436.368	1	-8
436.709	1	6
437.050	1	3
437.391	1	3
437.732	1	8
438.073	1	-2
438.414	1	7
438.756	1	-3
439.097	1	2
439.438	1	10
439.779	1	-2
440.120	1	7
440.461	1	2
440.802	1	1
441.143	1	3
441.485	1	-1
441.826	1	0
442.167	1	-2
442.508	1	3
442.849	1	6
443.190	1	13
443.531	1	-1
443.872	1	1
444.213	1	-7
444.554	1	0
444.895	1	-12
445.237	1	8
445.578	1	-9
445.919	1	-1
446.260	1	0
446.601	1	6
446.942	1	-2
447.283	1	6
447.624	1	-8
447.965	1	-3
448.306	1	3
448.647	1	6
448.988	1	3
449.329	1	5
449.670	1	-1
450.011	1	5
450.352	1	3
450.693	1	7
451.034	1	0
451.375	1	-1
451.716	1	-1
452.057	1	0
452.398	1	10
452.739	1	1
453.080	1	12
453.421	1	13
453.762	1	2
454.103	1	-5
454.444	1	-3
454.785	1	-4
455.126	1	4
455.467	1	1
455.808	1	5
456.149	1	0
456.490	1	-3
456.831	1	2
457.172	1	-4
457.513	1	-9
457.854	1	-1
458.195	1	-4
458.536	1	-4
458.877	1	4
459.218	1	-1
459.559	1	-4
459.899	1	1
460.240	1	-9
460.581	1	-3
460.922	1	-4
461.263	1	14
461.604	1	-3
461.945	1	20
462.286	1	-6
462.627	1	3
462.968	1	0
463.309	1	-4
463.649	1	-4
463.990	1	-2
464.331	1	7
464.672	1	2
465.013	1	3
465.354	1	4
465.695	1	-4
466.036	1	12
466.376	1	-1
466.717	1	-8
467.058	1	1
467.399	1	-6
467.740	1	11
468.081	1	1
468.422	1	6
468.762	1	0
469.103	1	-3
469.444	1	-3
469.785	1	-8
470.126	1	-2
470.467	1	-5
470.807	1	6
471.148	1	-6
471.489	1	-3
471.830	1	-6
472.171	1	-4
472.511	1	8
472.852	1	5
473.193	1	12
473.534	1	1
473.875	1	-3
474.215	1	6
474.556	1	-10
474.897	1	-12
475.238	1	5
475.578	1	-4
475.919	1	-2
476.260	1	-10
476.601	1	-8
476.942	1	0
477.282	1	2
477.623	1	-3
477.964	1	12
478.305	1	-2
478.645	1	1
478.986	1	8
479.327	1	9
479.667	1	-3
480.008	1	8
480.349	1	-3
480.690	1	7
481.030	1	-4
481.371	1	0
481.712	1	4
482.053	1	9
482.393	1	4
482.734	1	5
483.075	1	-1
483.415	1	-7
483.756	1	7
484.097	1	4
484.437	1	3
484.778	1	-6
485.119	1	0
485.459	1	-6
485.800	1	-7
486.141	1	5
486.481	1	-10
486.822	1	12
487.163	1	-3
487.503	1	0
487.844	1	-7
488.185	1	1
488.525	1	-7
488.866	1	1
489.207	1	3
489.547	1	6
489.888	1	5
490.228	1	1
490.569	1	-2
490.910	1	2
491.250	1	5
491.591	1	3
491.932	1	5
492.272	1	-6
492.613	1	2
492.953	1	2
493.294	1	-4
493.635	1	2
493.975	1	6
494.316	1	-2
494.656	1	13
494.997	1	-11
495.337	1	-3
495.678	1	-7
496.019	1	-3
496.359	1	-6
496.700	1	5
497.040	1	-1
497.381	1	-2
497.721	1	-13
498.062	1	-2
498.403	1	9
498.743	1	-4
499.084	1	0
499.424	1	-1
499.765	1	9
500.105	1	2
500.446	1	-8
500.786	1	-2
501.127	1	11
501.467	1	12
501.808	1	-3
502.148	1	-6
502.489	1	-15
502.829	1	-1
503.170	1	2
503.510	1	-12
503.851	1	6
504.191	1	1
504.532	1	2
504.872	1	-1
505.213	1	-6
505.553	1	-3
505.894	1	-2
506.234	1	6
506.575	1	17
506.915	1	9
507.256	1	9
507.596	1	9
507.936	1	11
508.277	1	12
508.617	1	6
508.958	1	9
509.298	1	-4
509.639	1	-3
509.979	1	-4
510.319	1	10
510.660	1	-7
511.000	1	-1
511.341	1	-1
511.681	1	1
512.022	1	-8
512.362	1	4
512.702	1	-2
513.043	1	2
513.383	1	-5
513.724	1	14
514.064	1	3
514.404	1	1
514.745	1	-2
515.085	1	5
515.425	1	8
515.766	1	-1
516.106	1	2
516.447	1	9
516.787	1	4
517.127	1	8
517.468	1	10
517.808	1	0
518.148	1	8
518.489	1	8
518.829	1	0
519.169	1	-8
519.510	1	-5
519.850	1	0
520.190	1	0
520.531	1	6
520.871	1	2
521.211	1	7
521.552	1	-10
521.892	1	10
522.232	1	1
522.573	1	-3
522.913	1	9
523.253	1	8
523.593	1	7
523.934	1	1
524.274	1	1
524.614	1	6
524.955	1	-2
525.295	1	4
525.635	1	9
525.975	1	3
526.316	1	-8
526.656	1	7
526.996	1	1
527.337	1	7
527.677	1	11
528.017	1	0
528.357	1	2
528.698	1	3
529.038	1	-3
529.378	1	2
529.718	1	-4
530.058	1	5
530.399	1	4
530.739	1	3
531.079	1	2
531.419	1	-1
531.760	1	7
532.100	1	12
532.440	1	4
532.780	1	3
533.120	1	3
533.461	1	-1
533.801	1	1
534.141	1	5
534.481	1	16
534.821	1	8
535.162	1	5
535.502	1	5
535.842	1	-2
536.182	1	1
536.522	1	-1
536.862	1	-1
537.203	1	7
537.543	1	-1
537.883	1	5
538.223	1	8
538.563	1	5
538.903	1	-3
539.243	1	-2
539.584	1	7
539.924	1	3
540.264	1	12
540.604	1	10
540.944	1	-6
541.284	1	7
541.624	1	-1
541.964	1	8
542.305	1	1
542.645	1	1
542.985	1	2
543.325	1	7
543.665	1	1
544.005	1	1
544.345	1	10
544.685	1	-6
545.025	1	5
545.365	1	4
545.705	1	1
546.045	1	-1
546.386	1	2
546.726	1	4
547.066	1	11
547.406	1	1
547.746	1	6
548.086	1	2
548.426	1	-7
548.766	1	17
549.106	1	-1
549.446	1	4
549.786	1	6
550.126	1	5
550.466	1	4
550.806	1	6
551.146	1	3
551.486	1	-2
551.826	1	-5
552.166	1	-2
552.506	1	0
552.846	1	8
553.186	1	-12
553.526	1	4
553.866	1	2
554.206	1	3
554.546	1	12
554.886	1	0
555.226	1	2
555.566	1	3
555.906	1	-7
556.246	1	4
556.586	1	-2
556.926	1	2
557.266	1	8
557.606	1	-3
557.946	1	9
558.286	1	-12
558.626	1	11
558.966	1	6
559.306	1	4
559.646	1	5
559.986	1	7
560.325	1	-1
560.665	1	7
561.005	1	4
561.345	1	5
561.685	1	-4
562.025	1	-2
562.365	1	-6
562.705	1	14
563.045	1	-3
563.385	1	8
563.725	1	7
564.064	1	-3
564.404	1	-2
564.744	1	13
565.084	1	-2
565.424	1	-6
565.764	1	9
566.104	1	7
566.444	1	9
566.783	1	4
567.123	1	-1
567.463	1	11
567.803	1	14
568.143	1	5
568.483	1	11
568.823	1	2
569.162	1	-8
569.502	1	11
569.842	1	-5
570.182	1	-5
570.522	1	-1
570.862	1	-9
571.201	1	8
571.541	1	0
571.881	1	-2
572.221	1	-6
572.561	1	5
572.900	1	10
573.240	1	-1
573.580	1	2
573.920	1	16
574.260	1	9
574.599	1	2
574.939	1	1
575.279	1	-10
575.619	1	1
575.959	1	-6
576.298	1	-6
576.638	1	14
576.978	1	5
577.318	1	5
577.657	1	1
577.997	1	14
578.337	1	7
578.677	1	-2
579.016	1	3
579.356	1	4
579.696	1	13
580.036	1	3
580.375	1	0
580.715	1	0
581.055	1	-7
581.394	1	-3
581.734	1	3
582.074	1	7
582.414	1	-4
582.753	1	-3
583.093	1	5
583.433	1	6
583.772	1	1
584.112	1	-7
584.452	1	4
584.791	1	1
585.131	1	0
585.471	1	3
585.811	1	5
586.150	1	2
586.490	1	5
586.830	1	6
587.169	1	9
587.509	1	-4
587.849	1	9
588.188	1	4
588.528	1	0
588.867	1	3
589.207	1	2
589.547	1	8
589.886	1	2
590.226	1	0
590.566	1	-3
590.905	1	-7
591.245	1	-18
591.585	1	-1
591.924	1	-3
592.264	1	-1
592.603	1	-9
592.943	1	1
593.283	1	1
593.622	1	1
593.962	1	6
594.301	1	3
594.641	1	4
594.981	1	-4
595.320	1	4
595.660	1	0
595.999	1	0
596.339	1	-3
596.678	1	-7
597.018	1	-4
597.358	1	3
597.697	1	-2
598.037	1	6
598.376	1	-9
598.716	1	-6
599.055	1	7
599.395	1	-2
599.734	1	0
600.074	1	-1
600.413	1	-1
600.753	1	4
601.092	1	-9
601.432	1	-7
601.771	1	-3
602.111	1	-2
602.451	1	4
602.790	1	4
603.130	1	-1
603.469	1	5
603.809	1	-3
604.148	1	-4
604.487	1	-2
604.827	1	5
605.166	1	4
605.506	1	3
605.845	1	8
606.185	1	0
606.524	1	-5
606.864	1	8
607.203	1	4
607.543	1	3
607.882	1	3
608.222	1	-2
608.561	1	-5
608.901	1	5
609.240	1	11
609.579	1	1
609.919	1	-13
610.258	1	8
610.598	1	-4
610.937	1	-2
611.277	1	7
611.616	1	3
611.955	1	-4
612.295	1	3
612.634	1	5
612.974	1	4
613.313	1	5
613.652	1	9
613.992	1	-2
614.331	1	7
614.671	1	5
615.010	1	-1
615.349	1	0
615.689	1	0
616.028	1	8
616.368	1	7
616.707	1	11
617.046	1	0
617.386	1	2
617.725	1	1
618.064	1	-7
618.404	1	-4
618.743	1	3
619.082	1	18
619.422	1	6
619.761	1	0
620.100	1	4
620.440	1	-2
620.779	1	8
621.118	1	4
621.458	1	3
621.797	1	2
622.136	1	-6
622.476	1	1
622.815	1	9
623.154	1	-9
623.494	1	-9
623.833	1	0
624.172	1	-4
624.511	1	-3
624.851	1	2
625.190	1	4
625.529	1	4
625.869	1	11
626.208	1	5
626.547	1	-3
626.886	1	-4
627.226	1	7
627.565	1	4
627.904	1	2
628.243	1	2
628.583	1	7
628.922	1	6
629.261	1	-8
629.600	1	-2
629.940	1	2
630.279	1	1
630.618	1	11
630.957	1	4
631.297	1	4
631.636	1	-6
631.975	1	3
632.314	1	-3
632.653	1	-7
632.993	1	0
633.332	1	-5
633.671	1	11
634.010	1	8
634.349	1	8
634.689	1	-7
635.028	1	-4
635.367	1	9
635.706	1	-2
636.045	1	2
636.384	1	4
636.724	1	9
637.063	1	-11
637.402	1	1
637.741	1	6
638.080	1	2
638.419	1	-2
638.759	1	4
639.098	1	-2
639.437	1	0
639.776	1	4
640.115	1	-6
640.454	1	-8
640.793	1	-2
641.132	1	1
641.472	1	12
641.811	1	-3
642.150	1	-7
642.489	1	8
642.828	1	7
643.167	1	-1
643.506	1	-2
643.845	1	2
644.184	1	11
644.524	1	-1
644.863	1	3
645.202	1	-1
645.541	1	-5
645.880	1	4
646.219	1	7
646.558	1	2
646.897	1	-3
647.236	1	-8
647.575	1	12
647.914	1	5
648.253	1	12
648.592	1	10
648.931	1	6
649.270	1	5
649.610	1	4
649.949	1	-4
650.288	1	2
650.627	1	-5
650.966	1	5
651.305	1	0
651.644	1	1
651.983	1	0
652.322	1	-2
652.661	1	6
653.000	1	2
653.339	1	3
653.678	1	13
654.017	1	6
654.356	1	4
654.695	1	11
655.034	1	-3
655.373	1	5
655.712	1	4
656.051	1	-6
656.390	1	-1
656.729	1	3
657.068	1	0
657.406	1	-8
657.745	1	8
658.084	1	0
658.423	1	6
658.762	1	-8
659.101	1	-3
659.440	1	3
659.779	1	9
660.118	1	-3
660.457	1	2
660.796	1	4
661.135	1	1
661.474	1	5
661.813	1	0
662.152	1	2
662.491	1	-6
662.829	1	3
663.168	1	2
663.507	1	12
663.846	1	-3
664.185	1	3
664.524	1	8
664.863	1	-6
665.202	1	5
665.541	1	1
665.879	1	8
666.218	1	6
666.557	1	0
666.896	1	7
667.235	1	4
667.574	1	-2
667.913	1	1
668.251	1	-11
668.590	1	1
668.929	1	2
669.268	1	-9
669.607	1	-3
669.946	1	3
670.285	1	2
670.623	1	1
670.962	1	-7
671.301	1	-2
671.640	1	0
671.979	1	0
672.317	1	-6
672.656	1	2
672.995	1	-6
673.334	1	-2
673.673	1	10
674.011	1	5
674.350	1	2
674.689	1	-2
675.028	1	12
675.367	1	-2
675.705	1	-9
676.044	1	0
676.383	1	7
676.722	1	-3
677.060	1	6
677.399	1	-3
677.738	1	3
678.077	1	1
678.416	1	8
678.754	1	-6
679.093	1	3
679.432	1	-3
679.771	1	0
680.109	1	-1
680.448	1	-1
680.787	1	-15
681.125	1	2
681.464	1	3
681.803	1	0
682.142	1	1
682.480	1	-5
682.819	1	2
683.158	1	2
683.496	1	2
683.835	1	6
684.174	1	0
684.512	1	0
684.851	1	-14
685.190	1	-6
685.529	1	-3
685.867	1	2
686.206	1	-1
686.545	1	-1
686.883	1	7
687.222	1	-4
687.561	1	-6
687.899	1	-6
688.238	1	9
688.577	1	-1
688.746	1	-12