File: Data/GaN_150K_450ms/GaN_sample D_spot15_UVVIS_150 K_200um_450 ms 2x2mm1_144.txt
340.368	1	1
340.710	1	-3
341.052	1	10
341.394	1	-5
341.737	1	7
342.079	1	3
342.421	1	1
342.763	1	2
343.105	1	2
343.447	1	-4
343.789	1	12
344.131	1	-11
344.473	1	0
344.815	1	3
345.157	1	9
345.499	1	-2
345.841	1	5
346.183	1	2
346.526	1	2
346.868	1	-1
347.210	1	-6
347.552	1	11
347.894	1	-2
348.236	1	13
348.578	1	8
348.920	1	-2
349.262	1	6
349.604	1	4
349.946	1	-2
350.288	1	-2
350.630	1	-2
350.972	1	11
351.314	1	0
351.656	1	15
351.998	1	-4
352.340	1	6
352.682	1	-4
353.024	1	6
353.366	1	13
353.708	1	10
354.050	1	-7
354.392	1	-6
354.734	1	11
355.076	1	11
355.418	1	4
355.760	1	11
356.102	1	-3
356.444	1	10
356.785	1	1
357.127	1	22
357.469	1	8
357.811	1	7
358.153	1	-9
358.495	1	5
358.837	1	14
359.179	1	11
359.521	1	16
359.863	1	-5
360.205	1	15
360.547	1	21
360.889	1	13
361.231	1	19
361.572	1	15
361.914	1	13
362.256	1	19
362.598	1	26
362.940	1	22
363.282	1	15
363.624	1	23
363.966	1	19
364.308	1	28
364.649	1	24
364.991	1	30
365.333	1	33
365.675	1	42
366.017	1	39
366.359	1	21
366.701	1	44
367.042	1	36
367.384	1	32
367.726	1	44
368.068	1	46
368.410	1	42
368.752	1	56
369.093	1	43
369.435	1	51
369.777	1	46
370.119	1	41
370.461	1	33
370.803	1	31
371.144	1	42
371.486	1	33
371.828	1	26
372.170	1	26
372.512	1	29
372.853	1	36
373.195	1	32
373.537	1	15
373.879	1	20
374.220	1	23
374.562	1	35
374.904	1	32
375.246	1	8
375.588	1	9
375.929	1	23
376.271	1	14
376.613	1	16
376.955	1	17
377.296	1	33
377.638	1	8
377.980	1	15
378.321	1	12
378.663	1	20
379.005	1	13
379.347	1	11
379.688	1	10
380.030	1	22
380.372	1	14
380.714	1	14
381.055	1	16
381.397	1	10
381.739	1	0
382.080	1	12
382.422	1	16
382.764	1	10
383.105	1	12
383.447	1	8
383.789	1	-1
384.130	1	12
384.472	1	1
384.814	1	23
385.156	1	17
385.497	1	19
385.839	1	11
386.180	1	9
386.522	1	6
386.864	1	1
387.205	1	16
387.547	1	16
387.889	1	1
388.230	1	5
388.572	1	4
388.914	1	13
389.255	1	3
389.597	1	7
389.939	1	15
390.280	1	4
390.622	1	-8
390.963	1	-1
391.305	1	5
391.647	1	8
391.988	1	10
392.330	1	14
392.671	1	11
393.013	1	14
393.355	1	16
393.696	1	14
394.038	1	11
394.379	1	2
394.721	1	2
395.062	1	8
395.404	1	18
395.746	1	7
396.087	1	12
396.429	1	17
396.770	1	6
397.112	1	10
397.453	1	1
397.795	1	0
398.136	1	16
398.478	1	9
398.819	1	7
399.161	1	15
399.503	1	21
399.844	1	9
400.186	1	4
400.527	1	15
400.869	1	4
401.210	1	-1
401.552	1	3
401.893	1	2
402.235	1	10
402.576	1	14
402.918	1	-5
403.259	1	9
403.601	1	15
403.942	1	-2
404.284	1	19
404.625	1	2
404.967	1	4
405.308	1	1
405.649	1	7
405.991	1	19
406.332	1	1
406.674	1	13
407.015	1	15
407.357	1	14
407.698	1	23
408.040	1	16
408.381	1	-1
408.722	1	6
409.064	1	16
409.405	1	8
409.747	1	3
410.088	1	10
410.430	1	17
410.771	1	12
411.112	1	-3
411.454	1	2
411.795	1	14
412.137	1	8
412.478	1	9
412.819	1	18
413.161	1	8
413.502	1	12
413.844	1	15
414.185	1	14
414.526	1	8
414.868	1	3
415.209	1	4
415.550	1	11
415.892	1	14
416.233	1	9
416.575	1	2
416.916	1	-5
417.257	1	-4
417.599	1	14
417.940	1	-5
418.281	1	7
418.623	1	8
418.964	1	20
419.305	1	8
419.647	1	12
419.988	1	18
420.329	1	14
420.671	1	22
421.012	1	12
421.353	1	26
421.695	1	13
422.036	1	20
422.377	1	8
422.718	1	14
423.060	1	12
423.401	1	10
423.742	1	18
424.084	1	9
424.425	1	18
424.766	1	6
425.107	1	16
425.449	1	4
425.790	1	11
426.131	1	3
426.472	1	15
426.814	1	5
427.155	1	10
427.496	1	13
427.837	1	9
428.179	1	23
428.520	1	9
428.861	1	15
429.202	1	-2
429.544	1	8
429.885	1	14
430.226	1	4
430.567	1	4
430.909	1	9
431.250	1	11
431.591	1	17
431.932	1	4
432.273	1	19
432.615	1	-2
432.956	1	12
433.297	1	13
433.638	1	18
433.979	1	13
434.320	1	12
434.662	1	7
435.003	1	14
435.344	1	12
435.685	1	0
436.026	1	1
436.368	1	4
436.709	1	4
437.050	1	10
437.391	1	14
437.732	1	17
438.073	1	0
438.414	1	8
438.756	1	11
439.097	1	10
439.438	1	6
439.779	1	11
440.120	1	2
440.461	1	9
440.802	1	7
441.143	1	4
441.485	1	1
441.826	1	4
442.167	1	4
442.508	1	7
442.849	1	18
443.190	1	14
443.531	1	8
443.872	1	2
444.213	1	1
444.554	1	13
444.895	1	9
445.237	1	6
445.578	1	6
445.919	1	-2
446.260	1	11
446.601	1	14
446.942	1	5
447.283	1	15
447.624	1	2
447.965	1	7
448.306	1	2
448.647	1	5
448.988	1	11
449.329	1	9
449.670	1	-3
450.011	1	3
450.352	1	0
450.693	1	13
451.034	1	8
451.375	1	-1
451.716	1	6
452.057	1	7
452.398	1	10
452.739	1	6
453.080	1	5
453.421	1	11
453.762	1	9
454.103	1	7
454.444	1	8
454.785	1	15
455.126	1	5
455.467	1	6
455.808	1	18
456.149	1	7
456.490	1	-4
456.831	1	9
457.172	1	16
457.513	1	-1
457.854	1	7
458.195	1	1
458.536	1	6
458.877	1	14
459.218	1	9
459.559	1	2
459.899	1	5
460.240	1	-1
460.581	1	0
460.922	1	12
461.263	1	14
461.604	1	6
461.945	1	11
462.286	1	1
462.627	1	3
462.968	1	6
463.309	1	10
463.649	1	2
463.990	1	5
464.331	1	11
464.672	1	5
465.013	1	6
465.354	1	13
465.695	1	4
466.036	1	4
466.376	1	10
466.717	1	-5
467.058	1	6
467.399	1	-4
467.740	1	19
468.081	1	6
468.422	1	2
468.762	1	10
469.103	1	8
469.444	1	4
469.785	1	2
470.126	1	7
470.467	1	2
470.807	1	5
471.148	1	-5
471.489	1	10
471.830	1	8
472.171	1	14
472.511	1	10
472.852	1	8
473.193	1	4
473.534	1	10
473.875	1	3
474.215	1	11
474.556	1	3
474.897	1	3
475.238	1	-6
475.578	1	-3
475.919	1	-1
476.260	1	0
476.601	1	1
476.942	1	-2
477.282	1	-7
477.623	1	5
477.964	1	5
478.305	1	8
478.645	1	11
478.986	1	9
479.327	1	1
479.667	1	-3
480.008	1	7
480.349	1	1
480.690	1	13
481.030	1	-2
481.371	1	-7
481.712	1	22
482.053	1	8
482.393	1	0
482.734	1	9
483.075	1	9
483.415	1	9
483.756	1	15
484.097	1	8
484.437	1	5
484.778	1	-2
485.119	1	9
485.459	1	-1
485.800	1	3
486.141	1	5
486.481	1	-7
486.822	1	11
487.163	1	0
487.503	1	8
487.844	1	-7
488.185	1	4
488.525	1	-4
488.866	1	-11
489.207	1	9
489.547	1	7
489.888	1	1
490.228	1	5
490.569	1	9
490.910	1	19
491.250	1	15
491.591	1	3
491.932	1	1
492.272	1	-1
492.613	1	0
492.953	1	9
493.294	1	-5
493.635	1	8
493.975	1	15
494.316	1	12
494.656	1	18
494.997	1	-3
495.337	1	7
495.678	1	8
496.019	1	-7
496.359	1	6
496.700	1	3
497.040	1	0
497.381	1	4
497.721	1	2
498.062	1	12
498.403	1	7
498.743	1	3
499.084	1	1
499.424	1	9
499.765	1	15
500.105	1	15
500.446	1	1
500.786	1	-2
501.127	1	8
501.467	1	11
501.808	1	11
502.148	1	2
502.489	1	8
502.829	1	8
503.170	1	7
503.510	1	4
503.851	1	5
504.191	1	10
504.532	1	11
504.872	1	2
505.213	1	5
505.553	1	2
505.894	1	-1
506.234	1	20
506.575	1	21
506.915	1	14
507.256	1	14
507.596	1	17
507.936	1	14
508.277	1	14
508.617	1	18
508.958	1	16
509.298	1	-2
509.639	1	-1
509.979	1	5
510.319	1	16
510.660	1	6
511.000	1	2
511.341	1	19
511.681	1	23
512.022	1	-3
512.362	1	15
512.702	1	3
513.043	1	10
513.383	1	9
513.724	1	12
514.064	1	15
514.404	1	19
514.745	1	-3
515.085	1	10
515.425	1	14
515.766	1	7
516.106	1	5
516.447	1	17
516.787	1	19
517.127	1	21
517.468	1	25
517.808	1	3
518.148	1	22
518.489	1	12
518.829	1	11
519.169	1	-1
519.510	1	-2
519.850	1	8
520.190	1	19
520.531	1	15
520.871	1	14
521.211	1	5
521.552	1	16
521.892	1	20
522.232	1	20
522.573	1	13
522.913	1	14
523.253	1	22
523.593	1	24
523.934	1	11
524.274	1	15
524.614	1	16
524.955	1	8
525.295	1	19
525.635	1	14
525.975	1	3
526.316	1	2
526.656	1	11
526.996	1	11
527.337	1	18
527.677	1	23
528.017	1	8
528.357	1	10
528.698	1	9
529.038	1	0
529.378	1	18
529.718	1	-2
530.058	1	11
530.399	1	2
530.739	1	10
531.079	1	9
531.419	1	19
531.760	1	13
532.100	1	18
532.440	1	9
532.780	1	18
533.120	1	9
533.461	1	3
533.801	1	12
534.141	1	14
534.481	1	29
534.821	1	8
535.162	1	14
535.502	1	10
535.842	1	11
536.182	1	10
536.522	1	9
536.862	1	11
537.203	1	14
537.543	1	11
537.883	1	16
538.223	1	22
538.563	1	16
538.903	1	5
539.243	1	9
539.584	1	5
539.924	1	5
540.264	1	28
540.604	1	17
540.944	1	9
541.284	1	9
541.624	1	8
541.964	1	15
542.305	1	8
542.645	1	9
542.985	1	0
543.325	1	10
543.665	1	7
544.005	1	0
544.345	1	13
544.685	1	2
545.025	1	15
545.365	1	6
545.705	1	13
546.045	1	17
546.386	1	9
546.726	1	1
547.066	1	8
547.406	1	0
547.746	1	5
548.086	1	12
548.426	1	11
548.766	1	15
549.106	1	0
549.446	1	16
549.786	1	7
550.126	1	11
550.466	1	4
550.806	1	27
551.146	1	11
551.486	1	6
551.826	1	4
552.166	1	10
552.506	1	9
552.846	1	-1
553.186	1	0
553.526	1	12
553.866	1	15
554.206	1	13
554.546	1	17
554.886	1	10
555.226	1	13
555.566	1	10
555.906	1	13
556.246	1	12
556.586	1	3
556.926	1	1
557.266	1	14
557.606	1	4
557.946	1	20
558.286	1	-11
558.626	1	12
558.966	1	9
559.306	1	18
559.646	1	12
559.986	1	14
560.325	1	10
560.665	1	5
561.005	1	3
561.345	1	7
561.685	1	9
562.025	1	8
562.365	1	12
562.705	1	13
563.045	1	7
563.385	1	18
563.725	1	4
564.064	1	-1
564.404	1	2
564.744	1	16
565.084	1	14
565.424	1	6
565.764	1	12
566.104	1	15
566.444	1	10
566.783	1	17
567.123	1	13
567.463	1	12
567.803	1	18
568.143	1	12
568.483	1	23
568.823	1	11
569.162	1	-1
569.502	1	4
569.842	1	2
570.182	1	13
570.522	1	2
570.862	1	-10
571.201	1	9
571.541	1	11
571.881	1	6
572.221	1	13
572.561	1	15
572.900	1	19
573.240	1	1
573.580	1	6
573.920	1	17
574.260	1	9
574.599	1	6
574.939	1	9
575.279	1	4
575.619	1	2
575.959	1	-3
576.298	1	-2
576.638	1	13
576.978	1	6
577.318	1	11
577.657	1	9
577.997	1	13
578.337	1	7
578.677	1	11
579.016	1	17
579.356	1	11
579.696	1	5
580.036	1	6
580.375	1	11
580.715	1	7
581.055	1	4
581.394	1	-1
581.734	1	0
582.074	1	4
582.414	1	6
582.753	1	-4
583.093	1	9
583.433	1	13
583.772	1	7
584.112	1	10
584.452	1	2
584.791	1	11
585.131	1	11
585.471	1	8
585.811	1	10
586.150	1	4
586.490	1	9
586.830	1	8
587.169	1	4
587.509	1	8
587.849	1	13
588.188	1	18
588.528	1	4
588.867	1	9
589.207	1	10
589.547	1	7
589.886	1	10
590.226	1	5
590.566	1	-4
590.905	1	5
591.245	1	4
591.585	1	7
591.924	1	9
592.264	1	8
592.603	1	-5
592.943	1	2
593.283	1	0
593.622	1	3
593.962	1	11
594.301	1	-2
594.641	1	-4
594.981	1	0
595.320	1	10
595.660	1	16
595.999	1	5
596.339	1	9
596.678	1	-6
597.018	1	2
597.358	1	5
597.697	1	-2
598.037	1	5
598.376	1	-7
598.716	1	13
599.055	1	-1
599.395	1	6
599.734	1	7
600.074	1	5
600.413	1	7
600.753	1	5
601.092	1	-2
601.432	1	6
601.771	1	4
602.111	1	6
602.451	1	5
602.790	1	3
603.130	1	6
603.469	1	2
603.809	1	9
604.148	1	0
604.487	1	-4
604.827	1	9
605.166	1	5
605.506	1	-5
605.845	1	15
606.185	1	8
606.524	1	6
606.864	1	17
607.203	1	5
607.543	1	11
607.882	1	9
608.222	1	-4
608.561	1	-2
608.901	1	13
609.240	1	8
609.579	1	8
609.919	1	-4
610.258	1	8
610.598	1	4
610.937	1	5
611.277	1	9
611.616	1	17
611.955	1	-8
612.295	1	11
612.634	1	8
612.974	1	8
613.313	1	2
613.652	1	9
613.992	1	-3
614.331	1	9
614.671	1	5
615.010	1	10
615.349	1	6
615.689	1	8
616.028	1	23
616.368	1	21
616.707	1	9
617.046	1	4
617.386	1	14
617.725	1	0
618.064	1	-1
618.404	1	-1
618.743	1	10
619.082	1	9
619.422	1	18
619.761	1	-1
620.100	1	1
620.440	1	13
620.779	1	-3
621.118	1	9
621.458	1	13
621.797	1	8
622.136	1	4
622.476	1	5
622.815	1	9
623.154	1	0
623.494	1	-3
623.833	1	1
624.172	1	4
624.511	1	2
624.851	1	10
625.190	1	3
625.529	1	3
625.869	1	18
626.208	1	3
626.547	1	1
626.886	1	2
627.226	1	10
627.565	1	2
627.904	1	-1
628.243	1	13
628.583	1	9
628.922	1	14
629.261	1	3
629.600	1	-3
629.940	1	8
630.279	1	5
630.618	1	6
630.957	1	12
631.297	1	4
631.636	1	6
631.975	1	-1
632.314	1	17
632.653	1	6
632.993	1	3
633.332	1	2
633.671	1	9
634.010	1	6
634.349	1	12
634.689	1	9
635.028	1	-4
635.367	1	7
635.706	1	8
636.045	1	-4
636.384	1	19
636.724	1	2
637.063	1	-6
637.402	1	11
637.741	1	6
638.080	1	6
638.419	1	1
638.759	1	11
639.098	1	1
639.437	1	7
639.776	1	0
640.115	1	-5
640.454	1	5
640.793	1	15
641.132	1	8
641.472	1	7
641.811	1	-3
642.150	1	-4
642.489	1	8
642.828	1	18
643.167	1	3
643.506	1	6
643.845	1	14
644.184	1	11
644.524	1	8
644.863	1	3
645.202	1	3
645.541	1	3
645.880	1	12
646.219	1	4
646.558	1	-9
646.897	1	-5
647.236	1	1
647.575	1	16
647.914	1	-5
648.253	1	8
648.592	1	7
648.931	1	10
649.270	1	11
649.610	1	8
649.949	1	-5
650.288	1	9
650.627	1	5
650.966	1	1
651.305	1	8
651.644	1	10
651.983	1	-3
652.322	1	11
652.661	1	10
653.000	1	9
653.339	1	5
653.678	1	9
654.017	1	10
654.356	1	6
654.695	1	12
655.034	1	-3
655.373	1	18
655.712	1	11
656.051	1	-9
656.390	1	1
656.729	1	8
657.068	1	8
657.406	1	-1
657.745	1	6
658.084	1	6
658.423	1	14
658.762	1	1
659.101	1	3
659.440	1	8
659.779	1	6
660.118	1	5
660.457	1	13
660.796	1	17
661.135	1	11
661.474	1	-5
661.813	1	-4
662.152	1	2
662.491	1	3
662.829	1	11
663.168	1	8
663.507	1	9
663.846	1	10
664.185	1	-2
664.524	1	13
664.863	1	-2
665.202	1	15
665.541	1	-3
665.879	1	8
666.218	1	5
666.557	1	7
666.896	1	1
667.235	1	0
667.574	1	-5
667.913	1	6
668.251	1	-7
668.590	1	1
668.929	1	-12
669.268	1	-6
669.607	1	0
669.946	1	1
670.285	1	5
670.623	1	4
670.962	1	2
671.301	1	1
671.640	1	11
671.979	1	1
672.317	1	3
672.656	1	7
672.995	1	5
673.334	1	5
673.673	1	17
674.011	1	9
674.350	1	6
674.689	1	2
675.028	1	8
675.367	1	8
675.705	1	-4
676.044	1	0
676.383	1	3
676.722	1	6
677.060	1	9
677.399	1	14
677.738	1	-3
678.077	1	-4
678.416	1	0
678.754	1	4
679.093	1	15
679.432	1	-10
679.771	1	-1
680.109	1	-1
680.448	1	8
680.787	1	-6
681.125	1	-5
681.464	1	5
681.803	1	-1
682.142	1	-4
682.480	1	4
682.819	1	3
683.158	1	-1
683.496	1	0
683.835	1	3
684.174	1	-1
684.512	1	8
684.851	1	-3
685.190	1	11
685.529	1	9
685.867	1	-2
686.206	1	-8
686.545	1	0
686.883	1	15
687.222	1	-2
687.561	1	3
687.899	1	2
688.238	1	9
688.577	1	0
688.746	1	4