File: Data/GaN_150K_450ms/GaN_sample D_spot15_UVVIS_150 K_200um_450 ms 2x2mm1_322.txt
340.368	1	0
340.710	1	0
341.052	1	1
341.394	1	-4
341.737	1	11
342.079	1	0
342.421	1	-2
342.763	1	0
343.105	1	1
343.447	1	8
343.789	1	-4
344.131	1	-11
344.473	1	-3
344.815	1	-3
345.157	1	10
345.499	1	-2
345.841	1	1
346.183	1	-1
346.526	1	6
346.868	1	-2
347.210	1	2
347.552	1	6
347.894	1	-4
348.236	1	4
348.578	1	5
348.920	1	8
349.262	1	2
349.604	1	1
349.946	1	-6
350.288	1	-1
350.630	1	-2
350.972	1	0
351.314	1	-8
351.656	1	0
351.998	1	-2
352.340	1	-3
352.682	1	-15
353.024	1	12
353.366	1	5
353.708	1	-8
354.050	1	-2
354.392	1	-1
354.734	1	10
355.076	1	9
355.418	1	3
355.760	1	-3
356.102	1	4
356.444	1	7
356.785	1	0
357.127	1	5
357.469	1	3
357.811	1	-2
358.153	1	-8
358.495	1	-3
358.837	1	12
359.179	1	-1
359.521	1	7
359.863	1	-1
360.205	1	7
360.547	1	7
360.889	1	2
361.231	1	12
361.572	1	5
361.914	1	3
362.256	1	11
362.598	1	6
362.940	1	1
363.282	1	-4
363.624	1	9
363.966	1	7
364.308	1	14
364.649	1	10
364.991	1	3
365.333	1	4
365.675	1	14
366.017	1	15
366.359	1	1
366.701	1	3
367.042	1	11
367.384	1	7
367.726	1	-3
368.068	1	16
368.410	1	19
368.752	1	21
369.093	1	10
369.435	1	9
369.777	1	20
370.119	1	7
370.461	1	7
370.803	1	8
371.144	1	6
371.486	1	19
371.828	1	6
372.170	1	5
372.512	1	2
372.853	1	17
373.195	1	12
373.537	1	-5
373.879	1	6
374.220	1	10
374.562	1	17
374.904	1	5
375.246	1	5
375.588	1	4
375.929	1	11
376.271	1	9
376.613	1	14
376.955	1	17
377.296	1	12
377.638	1	-5
377.980	1	-1
378.321	1	-1
378.663	1	6
379.005	1	2
379.347	1	5
379.688	1	4
380.030	1	5
380.372	1	4
380.714	1	5
381.055	1	7
381.397	1	-6
381.739	1	-8
382.080	1	2
382.422	1	10
382.764	1	-3
383.105	1	1
383.447	1	-2
383.789	1	0
384.130	1	-3
384.472	1	4
384.814	1	12
385.156	1	-3
385.497	1	5
385.839	1	0
386.180	1	2
386.522	1	7
386.864	1	-7
387.205	1	6
387.547	1	9
387.889	1	5
388.230	1	-1
388.572	1	-5
388.914	1	10
389.255	1	2
389.597	1	6
389.939	1	17
390.280	1	-8
390.622	1	-2
390.963	1	-4
391.305	1	-7
391.647	1	4
391.988	1	7
392.330	1	1
392.671	1	6
393.013	1	4
393.355	1	5
393.696	1	-1
394.038	1	1
394.379	1	2
394.721	1	2
395.062	1	-2
395.404	1	7
395.746	1	-4
396.087	1	5
396.429	1	9
396.770	1	7
397.112	1	-1
397.453	1	-4
397.795	1	-6
398.136	1	14
398.478	1	0
398.819	1	14
399.161	1	15
399.503	1	11
399.844	1	-1
400.186	1	7
400.527	1	12
400.869	1	8
401.210	1	3
401.552	1	6
401.893	1	1
402.235	1	-4
402.576	1	-1
402.918	1	-7
403.259	1	-2
403.601	1	8
403.942	1	2
404.284	1	5
404.625	1	-3
404.967	1	1
405.308	1	-16
405.649	1	1
405.991	1	11
406.332	1	1
406.674	1	10
407.015	1	5
407.357	1	2
407.698	1	3
408.040	1	10
408.381	1	-6
408.722	1	5
409.064	1	0
409.405	1	3
409.747	1	-3
410.088	1	5
410.430	1	14
410.771	1	2
411.112	1	-4
411.454	1	5
411.795	1	-1
412.137	1	-2
412.478	1	1
412.819	1	7
413.161	1	-2
413.502	1	9
413.844	1	12
414.185	1	-3
414.526	1	-9
414.868	1	-10
415.209	1	-8
415.550	1	2
415.892	1	9
416.233	1	-5
416.575	1	-8
416.916	1	-1
417.257	1	-8
417.599	1	4
417.940	1	-3
418.281	1	23
418.623	1	-1
418.964	1	13
419.305	1	-1
419.647	1	1
419.988	1	1
420.329	1	14
420.671	1	8
421.012	1	-4
421.353	1	10
421.695	1	6
422.036	1	7
422.377	1	-3
422.718	1	-1
423.060	1	6
423.401	1	-4
423.742	1	12
424.084	1	9
424.425	1	3
424.766	1	-1
425.107	1	1
425.449	1	-3
425.790	1	0
426.131	1	-2
426.472	1	11
426.814	1	4
427.155	1	-1
427.496	1	9
427.837	1	2
428.179	1	10
428.520	1	5
428.861	1	5
429.202	1	-6
429.544	1	1
429.885	1	9
430.226	1	-10
430.567	1	-11
430.909	1	3
431.250	1	3
431.591	1	8
431.932	1	-5
432.273	1	5
432.615	1	-2
432.956	1	0
433.297	1	-4
433.638	1	6
433.979	1	-6
434.320	1	4
434.662	1	4
435.003	1	6
435.344	1	-3
435.685	1	-3
436.026	1	0
436.368	1	-11
436.709	1	-3
437.050	1	-9
437.391	1	4
437.732	1	2
438.073	1	-6
438.414	1	21
438.756	1	-3
439.097	1	0
439.438	1	15
439.779	1	2
440.120	1	3
440.461	1	4
440.802	1	7
441.143	1	1
441.485	1	-4
441.826	1	2
442.167	1	2
442.508	1	2
442.849	1	9
443.190	1	8
443.531	1	-7
443.872	1	-8
444.213	1	-6
444.554	1	11
444.895	1	-3
445.237	1	8
445.578	1	-11
445.919	1	-1
446.260	1	10
446.601	1	1
446.942	1	-4
447.283	1	8
447.624	1	-7
447.965	1	7
448.306	1	-6
448.647	1	-4
448.988	1	3
449.329	1	7
449.670	1	-4
450.011	1	7
450.352	1	-7
450.693	1	0
451.034	1	-4
451.375	1	-2
451.716	1	6
452.057	1	3
452.398	1	5
452.739	1	1
453.080	1	9
453.421	1	11
453.762	1	8
454.103	1	4
454.444	1	0
454.785	1	1
455.126	1	1
455.467	1	3
455.808	1	16
456.149	1	-5
456.490	1	-4
456.831	1	-5
457.172	1	4
457.513	1	9
457.854	1	-4
458.195	1	-3
458.536	1	0
458.877	1	7
459.218	1	5
459.559	1	5
459.899	1	-9
460.240	1	-5
460.581	1	-4
460.922	1	2
461.263	1	11
461.604	1	-7
461.945	1	2
462.286	1	-3
462.627	1	2
462.968	1	7
463.309	1	5
463.649	1	-3
463.990	1	9
464.331	1	5
464.672	1	4
465.013	1	2
465.354	1	7
465.695	1	7
466.036	1	7
466.376	1	12
466.717	1	-20
467.058	1	3
467.399	1	-7
467.740	1	10
468.081	1	6
468.422	1	11
468.762	1	-2
469.103	1	1
469.444	1	0
469.785	1	-4
470.126	1	5
470.467	1	3
470.807	1	5
471.148	1	0
471.489	1	4
471.830	1	3
472.171	1	15
472.511	1	8
472.852	1	11
473.193	1	13
473.534	1	-4
473.875	1	9
474.215	1	0
474.556	1	1
474.897	1	5
475.238	1	7
475.578	1	-2
475.919	1	3
476.260	1	-7
476.601	1	9
476.942	1	0
477.282	1	-11
477.623	1	-6
477.964	1	9
478.305	1	4
478.645	1	7
478.986	1	7
479.327	1	2
479.667	1	-11
480.008	1	8
480.349	1	0
480.690	1	2
481.030	1	2
481.371	1	-3
481.712	1	13
482.053	1	8
482.393	1	0
482.734	1	-3
483.075	1	5
483.415	1	-2
483.756	1	-1
484.097	1	10
484.437	1	7
484.778	1	0
485.119	1	1
485.459	1	2
485.800	1	-6
486.141	1	2
486.481	1	-15
486.822	1	4
487.163	1	-4
487.503	1	-2
487.844	1	-7
488.185	1	8
488.525	1	-7
488.866	1	-15
489.207	1	7
489.547	1	-2
489.888	1	1
490.228	1	4
490.569	1	-1
490.910	1	9
491.250	1	-2
491.591	1	-2
491.932	1	7
492.272	1	-1
492.613	1	1
492.953	1	5
493.294	1	-5
493.635	1	-1
493.975	1	13
494.316	1	7
494.656	1	10
494.997	1	-8
495.337	1	-6
495.678	1	-6
496.019	1	-4
496.359	1	1
496.700	1	1
497.040	1	-6
497.381	1	6
497.721	1	-12
498.062	1	1
498.403	1	7
498.743	1	2
499.084	1	4
499.424	1	-4
499.765	1	9
500.105	1	9
500.446	1	1
500.786	1	-3
501.127	1	6
501.467	1	2
501.808	1	0
502.148	1	-3
502.489	1	-4
502.829	1	-1
503.170	1	2
503.510	1	7
503.851	1	5
504.191	1	-1
504.532	1	11
504.872	1	7
505.213	1	-2
505.553	1	0
505.894	1	4
506.234	1	11
506.575	1	9
506.915	1	5
507.256	1	9
507.596	1	5
507.936	1	9
508.277	1	9
508.617	1	8
508.958	1	9
509.298	1	-6
509.639	1	2
509.979	1	-7
510.319	1	9
510.660	1	-4
511.000	1	7
511.341	1	9
511.681	1	3
512.022	1	-8
512.362	1	3
512.702	1	-7
513.043	1	4
513.383	1	-2
513.724	1	-2
514.064	1	-2
514.404	1	5
514.745	1	-2
515.085	1	5
515.425	1	6
515.766	1	-3
516.106	1	-5
516.447	1	1
516.787	1	7
517.127	1	4
517.468	1	8
517.808	1	1
518.148	1	18
518.489	1	-1
518.829	1	10
519.169	1	-1
519.510	1	-10
519.850	1	0
520.190	1	5
520.531	1	3
520.871	1	7
521.211	1	6
521.552	1	-4
521.892	1	5
522.232	1	2
522.573	1	0
522.913	1	13
523.253	1	1
523.593	1	13
523.934	1	-2
524.274	1	12
524.614	1	5
524.955	1	-5
525.295	1	0
525.635	1	-5
525.975	1	2
526.316	1	-8
526.656	1	-2
526.996	1	5
527.337	1	12
527.677	1	18
528.017	1	-5
528.357	1	4
528.698	1	12
529.038	1	-3
529.378	1	-1
529.718	1	-1
530.058	1	5
530.399	1	3
530.739	1	2
531.079	1	1
531.419	1	-6
531.760	1	6
532.100	1	3
532.440	1	7
532.780	1	1
533.120	1	-5
533.461	1	-1
533.801	1	1
534.141	1	4
534.481	1	24
534.821	1	0
535.162	1	10
535.502	1	11
535.842	1	-6
536.182	1	-6
536.522	1	-1
536.862	1	-5
537.203	1	4
537.543	1	0
537.883	1	2
538.223	1	19
538.563	1	3
538.903	1	-2
539.243	1	4
539.584	1	6
539.924	1	8
540.264	1	17
540.604	1	5
540.944	1	8
541.284	1	-1
541.624	1	-1
541.964	1	2
542.305	1	14
542.645	1	-5
542.985	1	-1
543.325	1	11
543.665	1	-2
544.005	1	2
544.345	1	5
544.685	1	3
545.025	1	1
545.365	1	2
545.705	1	2
546.045	1	0
546.386	1	-13
546.726	1	-5
547.066	1	0
547.406	1	1
547.746	1	1
548.086	1	2
548.426	1	3
548.766	1	-4
549.106	1	6
549.446	1	16
549.786	1	12
550.126	1	2
550.466	1	-4
550.806	1	10
551.146	1	-2
551.486	1	1
551.826	1	3
552.166	1	4
552.506	1	-7
552.846	1	7
553.186	1	0
553.526	1	-10
553.866	1	1
554.206	1	5
554.546	1	0
554.886	1	7
555.226	1	5
555.566	1	1
555.906	1	-2
556.246	1	1
556.586	1	0
556.926	1	2
557.266	1	7
557.606	1	-8
557.946	1	11
558.286	1	-11
558.626	1	10
558.966	1	2
559.306	1	7
559.646	1	13
559.986	1	2
560.325	1	-5
560.665	1	3
561.005	1	2
561.345	1	-1
561.685	1	10
562.025	1	4
562.365	1	-2
562.705	1	11
563.045	1	-1
563.385	1	-4
563.725	1	1
564.064	1	-2
564.404	1	-6
564.744	1	3
565.084	1	1
565.424	1	-5
565.764	1	5
566.104	1	7
566.444	1	7
566.783	1	5
567.123	1	2
567.463	1	-1
567.803	1	7
568.143	1	3
568.483	1	9
568.823	1	-1
569.162	1	-4
569.502	1	-4
569.842	1	-2
570.182	1	-3
570.522	1	-5
570.862	1	-5
571.201	1	5
571.541	1	2
571.881	1	-6
572.221	1	-2
572.561	1	6
572.900	1	12
573.240	1	-7
573.580	1	11
573.920	1	17
574.260	1	10
574.599	1	-5
574.939	1	1
575.279	1	4
575.619	1	1
575.959	1	3
576.298	1	-1
576.638	1	9
576.978	1	1
577.318	1	4
577.657	1	-4
577.997	1	5
578.337	1	0
578.677	1	2
579.016	1	2
579.356	1	3
579.696	1	3
580.036	1	5
580.375	1	3
580.715	1	-2
581.055	1	3
581.394	1	8
581.734	1	-1
582.074	1	0
582.414	1	-4
582.753	1	0
583.093	1	1
583.433	1	7
583.772	1	6
584.112	1	-2
584.452	1	6
584.791	1	7
585.131	1	8
585.471	1	6
585.811	1	-1
586.150	1	-1
586.490	1	7
586.830	1	9
587.169	1	-1
587.509	1	0
587.849	1	12
588.188	1	-2
588.528	1	-4
588.867	1	7
589.207	1	11
589.547	1	0
589.886	1	4
590.226	1	-7
590.566	1	-7
590.905	1	10
591.245	1	-5
591.585	1	-9
591.924	1	-3
592.264	1	8
592.603	1	-9
592.943	1	-4
593.283	1	0
593.622	1	-1
593.962	1	3
594.301	1	-1
594.641	1	9
594.981	1	1
595.320	1	11
595.660	1	0
595.999	1	-2
596.339	1	-3
596.678	1	-4
597.018	1	2
597.358	1	4
597.697	1	-6
598.037	1	-9
598.376	1	-1
598.716	1	12
599.055	1	8
599.395	1	7
599.734	1	2
600.074	1	-4
600.413	1	0
600.753	1	8
601.092	1	-6
601.432	1	-9
601.771	1	9
602.111	1	-1
602.451	1	-2
602.790	1	-3
603.130	1	3
603.469	1	3
603.809	1	4
604.148	1	-9
604.487	1	-9
604.827	1	12
605.166	1	-5
605.506	1	-6
605.845	1	9
606.185	1	0
606.524	1	-8
606.864	1	8
607.203	1	4
607.543	1	8
607.882	1	9
608.222	1	-3
608.561	1	4
608.901	1	1
609.240	1	4
609.579	1	-9
609.919	1	-5
610.258	1	13
610.598	1	-4
610.937	1	6
611.277	1	5
611.616	1	9
611.955	1	-10
612.295	1	11
612.634	1	4
612.974	1	-3
613.313	1	4
613.652	1	12
613.992	1	3
614.331	1	3
614.671	1	1
615.010	1	1
615.349	1	-4
615.689	1	-4
616.028	1	17
616.368	1	-3
616.707	1	0
617.046	1	-4
617.386	1	13
617.725	1	-5
618.064	1	-8
618.404	1	-4
618.743	1	8
619.082	1	14
619.422	1	16
619.761	1	3
620.100	1	10
620.440	1	6
620.779	1	-2
621.118	1	2
621.458	1	2
621.797	1	1
622.136	1	-1
622.476	1	6
622.815	1	4
623.154	1	-5
623.494	1	-17
623.833	1	-4
624.172	1	5
624.511	1	-9
624.851	1	8
625.190	1	-2
625.529	1	-1
625.869	1	4
626.208	1	-10
626.547	1	-4
626.886	1	1
627.226	1	11
627.565	1	6
627.904	1	-5
628.243	1	5
628.583	1	6
628.922	1	4
629.261	1	-1
629.600	1	-6
629.940	1	6
630.279	1	8
630.618	1	12
630.957	1	4
631.297	1	2
631.636	1	-8
631.975	1	-2
632.314	1	7
632.653	1	2
632.993	1	-1
633.332	1	-7
633.671	1	8
634.010	1	-6
634.349	1	9
634.689	1	-3
635.028	1	-2
635.367	1	6
635.706	1	2
636.045	1	-7
636.384	1	11
636.724	1	-6
637.063	1	-6
637.402	1	-3
637.741	1	-2
638.080	1	-7
638.419	1	-2
638.759	1	2
639.098	1	-3
639.437	1	-2
639.776	1	-1
640.115	1	-4
640.454	1	-1
640.793	1	0
641.132	1	8
641.472	1	12
641.811	1	-5
642.150	1	-2
642.489	1	10
642.828	1	11
643.167	1	2
643.506	1	-4
643.845	1	12
644.184	1	12
644.524	1	-3
644.863	1	2
645.202	1	7
645.541	1	4
645.880	1	6
646.219	1	1
646.558	1	-3
646.897	1	-7
647.236	1	-1
647.575	1	11
647.914	1	9
648.253	1	15
648.592	1	2
648.931	1	1
649.270	1	9
649.610	1	10
649.949	1	-2
650.288	1	3
650.627	1	-4
650.966	1	-4
651.305	1	3
651.644	1	7
651.983	1	-2
652.322	1	0
652.661	1	1
653.000	1	-4
653.339	1	-1
653.678	1	7
654.017	1	6
654.356	1	8
654.695	1	17
655.034	1	3
655.373	1	5
655.712	1	3
656.051	1	-7
656.390	1	5
656.729	1	14
657.068	1	-4
657.406	1	9
657.745	1	7
658.084	1	1
658.423	1	9
658.762	1	-13
659.101	1	6
659.440	1	-1
659.779	1	9
660.118	1	-4
660.457	1	4
660.796	1	11
661.135	1	3
661.474	1	2
661.813	1	4
662.152	1	3
662.491	1	-5
662.829	1	-1
663.168	1	2
663.507	1	1
663.846	1	1
664.185	1	-3
664.524	1	8
664.863	1	-7
665.202	1	8
665.541	1	0
665.879	1	-2
666.218	1	3
666.557	1	-4
666.896	1	-2
667.235	1	-4
667.574	1	-2
667.913	1	4
668.251	1	-4
668.590	1	-5
668.929	1	-14
669.268	1	-10
669.607	1	-1
669.946	1	-3
670.285	1	-4
670.623	1	1
670.962	1	-2
671.301	1	0
671.640	1	2
671.979	1	1
672.317	1	8
672.656	1	10
672.995	1	2
673.334	1	-9
673.673	1	8
674.011	1	6
674.350	1	3
674.689	1	-9
675.028	1	4
675.367	1	5
675.705	1	-7
676.044	1	-4
676.383	1	2
676.722	1	4
677.060	1	-1
677.399	1	8
677.738	1	-10
678.077	1	-3
678.416	1	-7
678.754	1	1
679.093	1	2
679.432	1	-9
679.771	1	1
680.109	1	-1
680.448	1	-12
680.787	1	-9
681.125	1	-3
681.464	1	1
681.803	1	-2
682.142	1	1
682.480	1	3
682.819	1	-4
683.158	1	1
683.496	1	3
683.835	1	0
684.174	1	-3
684.512	1	3
684.851	1	-3
685.190	1	4
685.529	1	-4
685.867	1	-1
686.206	1	-6
686.545	1	1
686.883	1	9
687.222	1	-1
687.561	1	1
687.899	1	-6
688.238	1	16
688.577	1	-4
688.746	1	0