File: Data/GaN_150K_450ms/GaN_sample D_spot15_UVVIS_150 K_200um_450 ms 2x2mm1_181.txt
340.368	1	-4
340.710	1	4
341.052	1	5
341.394	1	-7
341.737	1	13
342.079	1	3
342.421	1	4
342.763	1	-2
343.105	1	10
343.447	1	10
343.789	1	8
344.131	1	-9
344.473	1	3
344.815	1	-1
345.157	1	4
345.499	1	2
345.841	1	12
346.183	1	1
346.526	1	2
346.868	1	5
347.210	1	-1
347.552	1	12
347.894	1	0
348.236	1	8
348.578	1	6
348.920	1	6
349.262	1	5
349.604	1	5
349.946	1	4
350.288	1	3
350.630	1	-2
350.972	1	5
351.314	1	-5
351.656	1	14
351.998	1	1
352.340	1	5
352.682	1	-2
353.024	1	10
353.366	1	6
353.708	1	-4
354.050	1	-7
354.392	1	-9
354.734	1	3
355.076	1	19
355.418	1	-3
355.760	1	13
356.102	1	10
356.444	1	3
356.785	1	14
357.127	1	14
357.469	1	8
357.811	1	4
358.153	1	-7
358.495	1	8
358.837	1	17
359.179	1	9
359.521	1	13
359.863	1	3
360.205	1	13
360.547	1	12
360.889	1	8
361.231	1	15
361.572	1	13
361.914	1	14
362.256	1	12
362.598	1	15
362.940	1	11
363.282	1	9
363.624	1	23
363.966	1	16
364.308	1	23
364.649	1	19
364.991	1	17
365.333	1	16
365.675	1	15
366.017	1	23
366.359	1	13
366.701	1	30
367.042	1	29
367.384	1	25
367.726	1	27
368.068	1	42
368.410	1	29
368.752	1	34
369.093	1	43
369.435	1	30
369.777	1	32
370.119	1	32
370.461	1	22
370.803	1	11
371.144	1	20
371.486	1	27
371.828	1	22
372.170	1	12
372.512	1	13
372.853	1	26
373.195	1	23
373.537	1	1
373.879	1	12
374.220	1	17
374.562	1	25
374.904	1	10
375.246	1	19
375.588	1	11
375.929	1	18
376.271	1	14
376.613	1	18
376.955	1	13
377.296	1	18
377.638	1	8
377.980	1	10
378.321	1	15
378.663	1	4
379.005	1	10
379.347	1	11
379.688	1	14
380.030	1	19
380.372	1	11
380.714	1	16
381.055	1	8
381.397	1	2
381.739	1	-3
382.080	1	6
382.422	1	11
382.764	1	17
383.105	1	-5
383.447	1	-4
383.789	1	-9
384.130	1	7
384.472	1	0
384.814	1	12
385.156	1	18
385.497	1	2
385.839	1	6
386.180	1	6
386.522	1	7
386.864	1	0
387.205	1	6
387.547	1	7
387.889	1	9
388.230	1	11
388.572	1	7
388.914	1	10
389.255	1	6
389.597	1	5
389.939	1	15
390.280	1	2
390.622	1	-3
390.963	1	4
391.305	1	1
391.647	1	0
391.988	1	6
392.330	1	3
392.671	1	10
393.013	1	2
393.355	1	23
393.696	1	2
394.038	1	2
394.379	1	14
394.721	1	2
395.062	1	2
395.404	1	7
395.746	1	0
396.087	1	6
396.429	1	3
396.770	1	5
397.112	1	0
397.453	1	2
397.795	1	9
398.136	1	5
398.478	1	3
398.819	1	9
399.161	1	14
399.503	1	10
399.844	1	0
400.186	1	9
400.527	1	8
400.869	1	-1
401.210	1	10
401.552	1	9
401.893	1	4
402.235	1	8
402.576	1	4
402.918	1	-1
403.259	1	-1
403.601	1	9
403.942	1	4
404.284	1	15
404.625	1	4
404.967	1	14
405.308	1	-4
405.649	1	1
405.991	1	8
406.332	1	6
406.674	1	4
407.015	1	7
407.357	1	8
407.698	1	12
408.040	1	16
408.381	1	5
408.722	1	16
409.064	1	3
409.405	1	13
409.747	1	4
410.088	1	11
410.430	1	19
410.771	1	12
411.112	1	4
411.454	1	7
411.795	1	9
412.137	1	5
412.478	1	9
412.819	1	9
413.161	1	1
413.502	1	5
413.844	1	16
414.185	1	5
414.526	1	-4
414.868	1	5
415.209	1	4
415.550	1	0
415.892	1	8
416.233	1	10
416.575	1	-7
416.916	1	-5
417.257	1	-1
417.599	1	14
417.940	1	-2
418.281	1	12
418.623	1	4
418.964	1	17
419.305	1	18
419.647	1	9
419.988	1	20
420.329	1	4
420.671	1	9
421.012	1	-1
421.353	1	14
421.695	1	1
422.036	1	13
422.377	1	8
422.718	1	13
423.060	1	9
423.401	1	-4
423.742	1	3
424.084	1	-2
424.425	1	15
424.766	1	7
425.107	1	6
425.449	1	7
425.790	1	9
426.131	1	1
426.472	1	19
426.814	1	6
427.155	1	17
427.496	1	9
427.837	1	2
428.179	1	18
428.520	1	11
428.861	1	15
429.202	1	-5
429.544	1	10
429.885	1	7
430.226	1	-6
430.567	1	3
430.909	1	11
431.250	1	14
431.591	1	6
431.932	1	6
432.273	1	19
432.615	1	1
432.956	1	8
433.297	1	8
433.638	1	9
433.979	1	18
434.320	1	2
434.662	1	3
435.003	1	19
435.344	1	6
435.685	1	8
436.026	1	8
436.368	1	2
436.709	1	0
437.050	1	3
437.391	1	5
437.732	1	4
438.073	1	4
438.414	1	13
438.756	1	9
439.097	1	12
439.438	1	0
439.779	1	9
440.120	1	5
440.461	1	5
440.802	1	10
441.143	1	6
441.485	1	6
441.826	1	10
442.167	1	13
442.508	1	1
442.849	1	11
443.190	1	17
443.531	1	6
443.872	1	-1
444.213	1	-7
444.554	1	5
444.895	1	3
445.237	1	0
445.578	1	-1
445.919	1	-2
446.260	1	17
446.601	1	8
446.942	1	7
447.283	1	6
447.624	1	-2
447.965	1	7
448.306	1	-4
448.647	1	2
448.988	1	7
449.329	1	8
449.670	1	4
450.011	1	9
450.352	1	1
450.693	1	11
451.034	1	3
451.375	1	6
451.716	1	0
452.057	1	10
452.398	1	10
452.739	1	6
453.080	1	8
453.421	1	10
453.762	1	17
454.103	1	11
454.444	1	8
454.785	1	9
455.126	1	8
455.467	1	9
455.808	1	19
456.149	1	2
456.490	1	3
456.831	1	6
457.172	1	4
457.513	1	3
457.854	1	-1
458.195	1	8
458.536	1	7
458.877	1	1
459.218	1	12
459.559	1	8
459.899	1	5
460.240	1	0
460.581	1	5
460.922	1	8
461.263	1	11
461.604	1	10
461.945	1	9
462.286	1	0
462.627	1	7
462.968	1	15
463.309	1	1
463.649	1	-4
463.990	1	4
464.331	1	14
464.672	1	1
465.013	1	13
465.354	1	11
465.695	1	-3
466.036	1	6
466.376	1	9
466.717	1	-2
467.058	1	0
467.399	1	-1
467.740	1	16
468.081	1	9
468.422	1	6
468.762	1	4
469.103	1	5
469.444	1	4
469.785	1	8
470.126	1	10
470.467	1	3
470.807	1	-1
471.148	1	-2
471.489	1	3
471.830	1	6
472.171	1	7
472.511	1	15
472.852	1	5
473.193	1	11
473.534	1	4
473.875	1	0
474.215	1	7
474.556	1	-6
474.897	1	-3
475.238	1	10
475.578	1	2
475.919	1	5
476.260	1	3
476.601	1	5
476.942	1	6
477.282	1	-2
477.623	1	7
477.964	1	9
478.305	1	8
478.645	1	7
478.986	1	8
479.327	1	7
479.667	1	0
480.008	1	4
480.349	1	-4
480.690	1	14
481.030	1	1
481.371	1	-5
481.712	1	11
482.053	1	11
482.393	1	8
482.734	1	10
483.075	1	4
483.415	1	9
483.756	1	8
484.097	1	10
484.437	1	12
484.778	1	-3
485.119	1	7
485.459	1	4
485.800	1	3
486.141	1	1
486.481	1	-6
486.822	1	18
487.163	1	0
487.503	1	3
487.844	1	-9
488.185	1	-2
488.525	1	-9
488.866	1	-4
489.207	1	6
489.547	1	12
489.888	1	0
490.228	1	4
490.569	1	-7
490.910	1	7
491.250	1	-4
491.591	1	5
491.932	1	10
492.272	1	-1
492.613	1	1
492.953	1	0
493.294	1	1
493.635	1	4
493.975	1	17
494.316	1	3
494.656	1	5
494.997	1	-1
495.337	1	9
495.678	1	5
496.019	1	9
496.359	1	0
496.700	1	0
497.040	1	1
497.381	1	6
497.721	1	1
498.062	1	2
498.403	1	13
498.743	1	9
499.084	1	11
499.424	1	-6
499.765	1	6
500.105	1	13
500.446	1	-5
500.786	1	-8
501.127	1	5
501.467	1	13
501.808	1	1
502.148	1	3
502.489	1	-2
502.829	1	-2
503.170	1	1
503.510	1	-3
503.851	1	5
504.191	1	1
504.532	1	10
504.872	1	-4
505.213	1	3
505.553	1	8
505.894	1	12
506.234	1	11
506.575	1	14
506.915	1	5
507.256	1	13
507.596	1	17
507.936	1	14
508.277	1	9
508.617	1	3
508.958	1	9
509.298	1	6
509.639	1	-1
509.979	1	1
510.319	1	7
510.660	1	3
511.000	1	1
511.341	1	21
511.681	1	3
512.022	1	-12
512.362	1	21
512.702	1	-1
513.043	1	1
513.383	1	5
513.724	1	11
514.064	1	6
514.404	1	17
514.745	1	5
515.085	1	2
515.425	1	4
515.766	1	1
516.106	1	7
516.447	1	12
516.787	1	1
517.127	1	9
517.468	1	18
517.808	1	5
518.148	1	18
518.489	1	5
518.829	1	15
519.169	1	4
519.510	1	-3
519.850	1	14
520.190	1	9
520.531	1	5
520.871	1	13
521.211	1	14
521.552	1	-3
521.892	1	12
522.232	1	19
522.573	1	16
522.913	1	5
523.253	1	17
523.593	1	12
523.934	1	15
524.274	1	-2
524.614	1	10
524.955	1	1
525.295	1	15
525.635	1	9
525.975	1	3
526.316	1	-4
526.656	1	4
526.996	1	3
527.337	1	11
527.677	1	22
528.017	1	-3
528.357	1	9
528.698	1	6
529.038	1	10
529.378	1	7
529.718	1	-3
530.058	1	5
530.399	1	4
530.739	1	7
531.079	1	-3
531.419	1	10
531.760	1	11
532.100	1	8
532.440	1	3
532.780	1	5
533.120	1	11
533.461	1	-2
533.801	1	16
534.141	1	2
534.481	1	29
534.821	1	12
535.162	1	10
535.502	1	6
535.842	1	2
536.182	1	8
536.522	1	-2
536.862	1	-1
537.203	1	2
537.543	1	12
537.883	1	7
538.223	1	11
538.563	1	3
538.903	1	0
539.243	1	2
539.584	1	7
539.924	1	0
540.264	1	16
540.604	1	12
540.944	1	3
541.284	1	7
541.624	1	6
541.964	1	3
542.305	1	4
542.645	1	4
542.985	1	6
543.325	1	6
543.665	1	9
544.005	1	4
544.345	1	15
544.685	1	-1
545.025	1	17
545.365	1	13
545.705	1	1
546.045	1	6
546.386	1	3
546.726	1	6
547.066	1	5
547.406	1	9
547.746	1	7
548.086	1	14
548.426	1	6
548.766	1	11
549.106	1	3
549.446	1	14
549.786	1	11
550.126	1	11
550.466	1	0
550.806	1	21
551.146	1	11
551.486	1	0
551.826	1	7
552.166	1	10
552.506	1	13
552.846	1	4
553.186	1	8
553.526	1	-1
553.866	1	-3
554.206	1	7
554.546	1	6
554.886	1	7
555.226	1	4
555.566	1	2
555.906	1	7
556.246	1	3
556.586	1	-4
556.926	1	10
557.266	1	8
557.606	1	-9
557.946	1	9
558.286	1	-15
558.626	1	6
558.966	1	0
559.306	1	9
559.646	1	10
559.986	1	5
560.325	1	-7
560.665	1	5
561.005	1	4
561.345	1	11
561.685	1	8
562.025	1	8
562.365	1	-4
562.705	1	7
563.045	1	0
563.385	1	0
563.725	1	5
564.064	1	-1
564.404	1	4
564.744	1	11
565.084	1	9
565.424	1	-1
565.764	1	9
566.104	1	10
566.444	1	17
566.783	1	14
567.123	1	8
567.463	1	2
567.803	1	4
568.143	1	1
568.483	1	16
568.823	1	1
569.162	1	3
569.502	1	8
569.842	1	7
570.182	1	1
570.522	1	-3
570.862	1	-8
571.201	1	13
571.541	1	5
571.881	1	-6
572.221	1	-1
572.561	1	12
572.900	1	5
573.240	1	-7
573.580	1	2
573.920	1	11
574.260	1	0
574.599	1	6
574.939	1	10
575.279	1	16
575.619	1	5
575.959	1	-4
576.298	1	-4
576.638	1	21
576.978	1	11
577.318	1	5
577.657	1	3
577.997	1	6
578.337	1	7
578.677	1	1
579.016	1	1
579.356	1	1
579.696	1	-2
580.036	1	4
580.375	1	-2
580.715	1	4
581.055	1	6
581.394	1	2
581.734	1	14
582.074	1	9
582.414	1	-1
582.753	1	2
583.093	1	5
583.433	1	10
583.772	1	8
584.112	1	7
584.452	1	7
584.791	1	6
585.131	1	6
585.471	1	7
585.811	1	10
586.150	1	4
586.490	1	2
586.830	1	-6
587.169	1	8
587.509	1	0
587.849	1	18
588.188	1	4
588.528	1	-3
588.867	1	7
589.207	1	13
589.547	1	6
589.886	1	8
590.226	1	6
590.566	1	-3
590.905	1	4
591.245	1	-9
591.585	1	-1
591.924	1	-2
592.264	1	-8
592.603	1	-6
592.943	1	-1
593.283	1	6
593.622	1	-2
593.962	1	7
594.301	1	10
594.641	1	7
594.981	1	3
595.320	1	4
595.660	1	8
595.999	1	6
596.339	1	3
596.678	1	-3
597.018	1	-3
597.358	1	9
597.697	1	0
598.037	1	7
598.376	1	-1
598.716	1	6
599.055	1	4
599.395	1	0
599.734	1	4
600.074	1	-2
600.413	1	5
600.753	1	6
601.092	1	-6
601.432	1	0
601.771	1	9
602.111	1	0
602.451	1	-7
602.790	1	3
603.130	1	8
603.469	1	0
603.809	1	2
604.148	1	-3
604.487	1	2
604.827	1	8
605.166	1	-1
605.506	1	2
605.845	1	7
606.185	1	2
606.524	1	0
606.864	1	5
607.203	1	5
607.543	1	5
607.882	1	8
608.222	1	-6
608.561	1	-2
608.901	1	6
609.240	1	6
609.579	1	2
609.919	1	-4
610.258	1	5
610.598	1	-12
610.937	1	-2
611.277	1	3
611.616	1	1
611.955	1	-3
612.295	1	4
612.634	1	16
612.974	1	4
613.313	1	11
613.652	1	11
613.992	1	4
614.331	1	20
614.671	1	0
615.010	1	11
615.349	1	-1
615.689	1	-2
616.028	1	11
616.368	1	9
616.707	1	-3
617.046	1	-1
617.386	1	5
617.725	1	-1
618.064	1	-1
618.404	1	-2
618.743	1	9
619.082	1	16
619.422	1	11
619.761	1	4
620.100	1	0
620.440	1	15
620.779	1	3
621.118	1	17
621.458	1	7
621.797	1	6
622.136	1	-2
622.476	1	7
622.815	1	12
623.154	1	-6
623.494	1	-9
623.833	1	4
624.172	1	-1
624.511	1	-4
624.851	1	0
625.190	1	4
625.529	1	1
625.869	1	7
626.208	1	-3
626.547	1	3
626.886	1	-1
627.226	1	4
627.565	1	2
627.904	1	0
628.243	1	15
628.583	1	7
628.922	1	13
629.261	1	9
629.600	1	3
629.940	1	12
630.279	1	6
630.618	1	16
630.957	1	9
631.297	1	-2
631.636	1	1
631.975	1	7
632.314	1	2
632.653	1	-3
632.993	1	1
633.332	1	3
633.671	1	9
634.010	1	6
634.349	1	5
634.689	1	6
635.028	1	0
635.367	1	14
635.706	1	-4
636.045	1	2
636.384	1	7
636.724	1	6
637.063	1	-11
637.402	1	6
637.741	1	2
638.080	1	-2
638.419	1	2
638.759	1	3
639.098	1	-2
639.437	1	7
639.776	1	0
640.115	1	-10
640.454	1	7
640.793	1	4
641.132	1	10
641.472	1	14
641.811	1	1
642.150	1	2
642.489	1	8
642.828	1	16
643.167	1	0
643.506	1	-2
643.845	1	11
644.184	1	9
644.524	1	7
644.863	1	3
645.202	1	-1
645.541	1	5
645.880	1	7
646.219	1	-3
646.558	1	-10
646.897	1	-2
647.236	1	-6
647.575	1	9
647.914	1	6
648.253	1	13
648.592	1	14
648.931	1	12
649.270	1	4
649.610	1	18
649.949	1	1
650.288	1	5
650.627	1	-6
650.966	1	9
651.305	1	3
651.644	1	11
651.983	1	4
652.322	1	7
652.661	1	14
653.000	1	3
653.339	1	3
653.678	1	15
654.017	1	9
654.356	1	8
654.695	1	15
655.034	1	4
655.373	1	-7
655.712	1	10
656.051	1	7
656.390	1	-2
656.729	1	5
657.068	1	-1
657.406	1	5
657.745	1	3
658.084	1	6
658.423	1	9
658.762	1	-4
659.101	1	1
659.440	1	8
659.779	1	4
660.118	1	-1
660.457	1	5
660.796	1	9
661.135	1	2
661.474	1	3
661.813	1	11
662.152	1	12
662.491	1	2
662.829	1	-3
663.168	1	6
663.507	1	10
663.846	1	-1
664.185	1	6
664.524	1	11
664.863	1	0
665.202	1	7
665.541	1	1
665.879	1	4
666.218	1	9
666.557	1	6
666.896	1	-1
667.235	1	0
667.574	1	-1
667.913	1	2
668.251	1	-7
668.590	1	-1
668.929	1	-6
669.268	1	2
669.607	1	-1
669.946	1	3
670.285	1	0
670.623	1	0
670.962	1	1
671.301	1	7
671.640	1	0
671.979	1	3
672.317	1	0
672.656	1	-1
672.995	1	1
673.334	1	-5
673.673	1	16
674.011	1	8
674.350	1	6
674.689	1	2
675.028	1	9
675.367	1	2
675.705	1	-5
676.044	1	-1
676.383	1	7
676.722	1	11
677.060	1	4
677.399	1	6
677.738	1	-3
678.077	1	2
678.416	1	-2
678.754	1	9
679.093	1	17
679.432	1	-4
679.771	1	-2
680.109	1	8
680.448	1	8
680.787	1	-11
681.125	1	6
681.464	1	9
681.803	1	-1
682.142	1	3
682.480	1	-6
682.819	1	-7
683.158	1	3
683.496	1	-1
683.835	1	12
684.174	1	4
684.512	1	-3
684.851	1	-5
685.190	1	-4
685.529	1	-3
685.867	1	9
686.206	1	0
686.545	1	-3
686.883	1	18
687.222	1	0
687.561	1	6
687.899	1	2
688.238	1	8
688.577	1	0
688.746	1	-2