File: Data/GaN_150K_450ms/GaN_sample D_spot15_UVVIS_150 K_200um_450 ms 2x2mm1_329.txt
340.368	1	4
340.710	1	-3
341.052	1	6
341.394	1	-3
341.737	1	4
342.079	1	1
342.421	1	-1
342.763	1	5
343.105	1	6
343.447	1	1
343.789	1	-6
344.131	1	-20
344.473	1	9
344.815	1	-3
345.157	1	8
345.499	1	-1
345.841	1	8
346.183	1	-1
346.526	1	5
346.868	1	-2
347.210	1	-1
347.552	1	9
347.894	1	-6
348.236	1	2
348.578	1	6
348.920	1	1
349.262	1	-3
349.604	1	-3
349.946	1	-13
350.288	1	-1
350.630	1	-8
350.972	1	8
351.314	1	-3
351.656	1	13
351.998	1	7
352.340	1	1
352.682	1	-11
353.024	1	19
353.366	1	3
353.708	1	-5
354.050	1	-6
354.392	1	-5
354.734	1	8
355.076	1	11
355.418	1	-3
355.760	1	-2
356.102	1	-3
356.444	1	6
356.785	1	8
357.127	1	10
357.469	1	4
357.811	1	-1
358.153	1	-9
358.495	1	-2
358.837	1	15
359.179	1	0
359.521	1	10
359.863	1	1
360.205	1	7
360.547	1	-1
360.889	1	8
361.231	1	7
361.572	1	4
361.914	1	6
362.256	1	9
362.598	1	1
362.940	1	3
363.282	1	0
363.624	1	8
363.966	1	0
364.308	1	10
364.649	1	15
364.991	1	6
365.333	1	6
365.675	1	16
366.017	1	11
366.359	1	5
366.701	1	13
367.042	1	4
367.384	1	-3
367.726	1	4
368.068	1	15
368.410	1	9
368.752	1	17
369.093	1	12
369.435	1	19
369.777	1	24
370.119	1	21
370.461	1	5
370.803	1	-2
371.144	1	12
371.486	1	17
371.828	1	3
372.170	1	6
372.512	1	1
372.853	1	16
373.195	1	-5
373.537	1	0
373.879	1	7
374.220	1	8
374.562	1	12
374.904	1	-1
375.246	1	3
375.588	1	5
375.929	1	7
376.271	1	7
376.613	1	2
376.955	1	2
377.296	1	1
377.638	1	-1
377.980	1	-4
378.321	1	7
378.663	1	6
379.005	1	-2
379.347	1	6
379.688	1	12
380.030	1	13
380.372	1	2
380.714	1	3
381.055	1	1
381.397	1	3
381.739	1	-5
382.080	1	4
382.422	1	4
382.764	1	-4
383.105	1	-8
383.447	1	-6
383.789	1	1
384.130	1	-4
384.472	1	-11
384.814	1	2
385.156	1	10
385.497	1	13
385.839	1	3
386.180	1	-1
386.522	1	3
386.864	1	-10
387.205	1	-1
387.547	1	9
387.889	1	4
388.230	1	5
388.572	1	0
388.914	1	5
389.255	1	4
389.597	1	1
389.939	1	13
390.280	1	-3
390.622	1	2
390.963	1	-12
391.305	1	-3
391.647	1	1
391.988	1	3
392.330	1	-5
392.671	1	5
393.013	1	13
393.355	1	5
393.696	1	15
394.038	1	2
394.379	1	8
394.721	1	-5
395.062	1	0
395.404	1	-1
395.746	1	-6
396.087	1	-4
396.429	1	7
396.770	1	2
397.112	1	4
397.453	1	-4
397.795	1	5
398.136	1	7
398.478	1	0
398.819	1	6
399.161	1	4
399.503	1	9
399.844	1	-1
400.186	1	0
400.527	1	9
400.869	1	0
401.210	1	1
401.552	1	5
401.893	1	10
402.235	1	5
402.576	1	0
402.918	1	-7
403.259	1	-7
403.601	1	11
403.942	1	5
404.284	1	11
404.625	1	-1
404.967	1	-4
405.308	1	-10
405.649	1	6
405.991	1	2
406.332	1	5
406.674	1	-6
407.015	1	7
407.357	1	7
407.698	1	2
408.040	1	8
408.381	1	-7
408.722	1	6
409.064	1	2
409.405	1	9
409.747	1	6
410.088	1	-2
410.430	1	7
410.771	1	1
411.112	1	5
411.454	1	-1
411.795	1	5
412.137	1	2
412.478	1	3
412.819	1	8
413.161	1	4
413.502	1	0
413.844	1	7
414.185	1	7
414.526	1	-7
414.868	1	6
415.209	1	-5
415.550	1	4
415.892	1	11
416.233	1	0
416.575	1	-8
416.916	1	-8
417.257	1	0
417.599	1	-1
417.940	1	-1
418.281	1	12
418.623	1	-5
418.964	1	15
419.305	1	11
419.647	1	0
419.988	1	7
420.329	1	10
420.671	1	3
421.012	1	-1
421.353	1	7
421.695	1	7
422.036	1	14
422.377	1	5
422.718	1	7
423.060	1	3
423.401	1	-5
423.742	1	10
424.084	1	6
424.425	1	4
424.766	1	4
425.107	1	12
425.449	1	-4
425.790	1	-4
426.131	1	0
426.472	1	7
426.814	1	1
427.155	1	-9
427.496	1	9
427.837	1	1
428.179	1	8
428.520	1	5
428.861	1	6
429.202	1	-8
429.544	1	-1
429.885	1	-1
430.226	1	-7
430.567	1	-4
430.909	1	-6
431.250	1	6
431.591	1	11
431.932	1	3
432.273	1	5
432.615	1	-10
432.956	1	3
433.297	1	2
433.638	1	8
433.979	1	-1
434.320	1	2
434.662	1	5
435.003	1	12
435.344	1	-1
435.685	1	-3
436.026	1	-7
436.368	1	-10
436.709	1	-3
437.050	1	-8
437.391	1	3
437.732	1	1
438.073	1	-3
438.414	1	4
438.756	1	0
439.097	1	2
439.438	1	10
439.779	1	6
440.120	1	1
440.461	1	4
440.802	1	6
441.143	1	3
441.485	1	3
441.826	1	-7
442.167	1	9
442.508	1	5
442.849	1	0
443.190	1	3
443.531	1	11
443.872	1	-9
444.213	1	-13
444.554	1	5
444.895	1	-5
445.237	1	1
445.578	1	-1
445.919	1	2
446.260	1	7
446.601	1	-2
446.942	1	0
447.283	1	3
447.624	1	-6
447.965	1	7
448.306	1	6
448.647	1	3
448.988	1	1
449.329	1	12
449.670	1	3
450.011	1	5
450.352	1	-3
450.693	1	3
451.034	1	-4
451.375	1	-1
451.716	1	2
452.057	1	-1
452.398	1	6
452.739	1	8
453.080	1	2
453.421	1	13
453.762	1	19
454.103	1	3
454.444	1	-4
454.785	1	2
455.126	1	3
455.467	1	4
455.808	1	2
456.149	1	-10
456.490	1	-4
456.831	1	-2
457.172	1	-2
457.513	1	-6
457.854	1	-3
458.195	1	-1
458.536	1	12
458.877	1	5
459.218	1	6
459.559	1	-2
459.899	1	4
460.240	1	-9
460.581	1	0
460.922	1	6
461.263	1	10
461.604	1	3
461.945	1	11
462.286	1	2
462.627	1	3
462.968	1	2
463.309	1	6
463.649	1	-1
463.990	1	-4
464.331	1	5
464.672	1	-4
465.013	1	1
465.354	1	5
465.695	1	-3
466.036	1	13
466.376	1	10
466.717	1	-15
467.058	1	9
467.399	1	-5
467.740	1	12
468.081	1	5
468.422	1	7
468.762	1	-6
469.103	1	2
469.444	1	14
469.785	1	-6
470.126	1	6
470.467	1	-3
470.807	1	11
471.148	1	-7
471.489	1	6
471.830	1	-8
472.171	1	8
472.511	1	-1
472.852	1	2
473.193	1	5
473.534	1	-1
473.875	1	3
474.215	1	2
474.556	1	-10
474.897	1	-5
475.238	1	8
475.578	1	1
475.919	1	1
476.260	1	0
476.601	1	5
476.942	1	5
477.282	1	-13
477.623	1	-4
477.964	1	6
478.305	1	-4
478.645	1	4
478.986	1	10
479.327	1	-2
479.667	1	6
480.008	1	2
480.349	1	-1
480.690	1	13
481.030	1	-4
481.371	1	-5
481.712	1	5
482.053	1	7
482.393	1	6
482.734	1	-3
483.075	1	3
483.415	1	-1
483.756	1	11
484.097	1	11
484.437	1	10
484.778	1	-8
485.119	1	7
485.459	1	-9
485.800	1	0
486.141	1	-1
486.481	1	-15
486.822	1	6
487.163	1	-8
487.503	1	5
487.844	1	-5
488.185	1	8
488.525	1	1
488.866	1	-8
489.207	1	6
489.547	1	11
489.888	1	2
490.228	1	-2
490.569	1	-4
490.910	1	-1
491.250	1	5
491.591	1	-2
491.932	1	4
492.272	1	-9
492.613	1	-5
492.953	1	1
493.294	1	-13
493.635	1	-1
493.975	1	4
494.316	1	3
494.656	1	5
494.997	1	-7
495.337	1	1
495.678	1	3
496.019	1	5
496.359	1	-2
496.700	1	-8
497.040	1	-9
497.381	1	-2
497.721	1	-5
498.062	1	-4
498.403	1	0
498.743	1	8
499.084	1	0
499.424	1	-12
499.765	1	3
500.105	1	16
500.446	1	-1
500.786	1	-5
501.127	1	3
501.467	1	5
501.808	1	3
502.148	1	-6
502.489	1	0
502.829	1	4
503.170	1	-1
503.510	1	4
503.851	1	9
504.191	1	5
504.532	1	10
504.872	1	0
505.213	1	-10
505.553	1	5
505.894	1	9
506.234	1	19
506.575	1	9
506.915	1	1
507.256	1	10
507.596	1	8
507.936	1	6
508.277	1	7
508.617	1	8
508.958	1	11
509.298	1	-12
509.639	1	2
509.979	1	-7
510.319	1	-2
510.660	1	4
511.000	1	-2
511.341	1	13
511.681	1	4
512.022	1	-11
512.362	1	5
512.702	1	-4
513.043	1	7
513.383	1	3
513.724	1	4
514.064	1	4
514.404	1	3
514.745	1	6
515.085	1	4
515.425	1	1
515.766	1	0
516.106	1	-4
516.447	1	6
516.787	1	4
517.127	1	12
517.468	1	9
517.808	1	0
518.148	1	8
518.489	1	3
518.829	1	2
519.169	1	-4
519.510	1	-10
519.850	1	0
520.190	1	-2
520.531	1	4
520.871	1	-2
521.211	1	1
521.552	1	-3
521.892	1	-2
522.232	1	4
522.573	1	11
522.913	1	15
523.253	1	8
523.593	1	4
523.934	1	-7
524.274	1	5
524.614	1	6
524.955	1	7
525.295	1	7
525.635	1	2
525.975	1	4
526.316	1	-10
526.656	1	9
526.996	1	-4
527.337	1	12
527.677	1	13
528.017	1	-9
528.357	1	7
528.698	1	6
529.038	1	6
529.378	1	-2
529.718	1	-1
530.058	1	2
530.399	1	-7
530.739	1	2
531.079	1	-2
531.419	1	8
531.760	1	3
532.100	1	10
532.440	1	6
532.780	1	1
533.120	1	6
533.461	1	4
533.801	1	6
534.141	1	8
534.481	1	15
534.821	1	2
535.162	1	-1
535.502	1	-3
535.842	1	-2
536.182	1	-5
536.522	1	-5
536.862	1	-4
537.203	1	6
537.543	1	7
537.883	1	6
538.223	1	9
538.563	1	7
538.903	1	3
539.243	1	-1
539.584	1	1
539.924	1	-5
540.264	1	11
540.604	1	15
540.944	1	10
541.284	1	1
541.624	1	2
541.964	1	-3
542.305	1	7
542.645	1	0
542.985	1	-7
543.325	1	6
543.665	1	-6
544.005	1	0
544.345	1	10
544.685	1	-3
545.025	1	-3
545.365	1	3
545.705	1	3
546.045	1	16
546.386	1	3
546.726	1	3
547.066	1	-4
547.406	1	-6
547.746	1	-2
548.086	1	6
548.426	1	3
548.766	1	13
549.106	1	0
549.446	1	0
549.786	1	6
550.126	1	8
550.466	1	-7
550.806	1	9
551.146	1	2
551.486	1	-3
551.826	1	-6
552.166	1	2
552.506	1	-3
552.846	1	3
553.186	1	-9
553.526	1	-1
553.866	1	1
554.206	1	4
554.546	1	1
554.886	1	-6
555.226	1	-1
555.566	1	3
555.906	1	-1
556.246	1	3
556.586	1	-4
556.926	1	-6
557.266	1	4
557.606	1	-9
557.946	1	5
558.286	1	-10
558.626	1	-4
558.966	1	-1
559.306	1	10
559.646	1	-3
559.986	1	4
560.325	1	7
560.665	1	-4
561.005	1	11
561.345	1	-1
561.685	1	9
562.025	1	2
562.365	1	-4
562.705	1	3
563.045	1	3
563.385	1	13
563.725	1	2
564.064	1	-6
564.404	1	-12
564.744	1	4
565.084	1	15
565.424	1	-9
565.764	1	-7
566.104	1	8
566.444	1	1
566.783	1	4
567.123	1	4
567.463	1	1
567.803	1	11
568.143	1	9
568.483	1	7
568.823	1	-3
569.162	1	-4
569.502	1	3
569.842	1	-10
570.182	1	-10
570.522	1	0
570.862	1	-10
571.201	1	8
571.541	1	-2
571.881	1	-6
572.221	1	6
572.561	1	7
572.900	1	-2
573.240	1	3
573.580	1	3
573.920	1	7
574.260	1	5
574.599	1	4
574.939	1	1
575.279	1	-4
575.619	1	0
575.959	1	5
576.298	1	-12
576.638	1	6
576.978	1	1
577.318	1	-7
577.657	1	5
577.997	1	6
578.337	1	-1
578.677	1	4
579.016	1	0
579.356	1	3
579.696	1	-3
580.036	1	-5
580.375	1	3
580.715	1	0
581.055	1	-8
581.394	1	-2
581.734	1	3
582.074	1	-2
582.414	1	-3
582.753	1	-6
583.093	1	0
583.433	1	12
583.772	1	11
584.112	1	4
584.452	1	5
584.791	1	0
585.131	1	-1
585.471	1	1
585.811	1	4
586.150	1	5
586.490	1	-1
586.830	1	-3
587.169	1	8
587.509	1	-1
587.849	1	1
588.188	1	4
588.528	1	-3
588.867	1	10
589.207	1	5
589.547	1	3
589.886	1	1
590.226	1	-7
590.566	1	7
590.905	1	-4
591.245	1	-11
591.585	1	-6
591.924	1	-8
592.264	1	-2
592.603	1	0
592.943	1	0
593.283	1	2
593.622	1	3
593.962	1	6
594.301	1	-5
594.641	1	-1
594.981	1	6
595.320	1	1
595.660	1	2
595.999	1	2
596.339	1	-2
596.678	1	-6
597.018	1	-3
597.358	1	-7
597.697	1	-5
598.037	1	-4
598.376	1	-1
598.716	1	7
599.055	1	-3
599.395	1	-4
599.734	1	5
600.074	1	1
600.413	1	4
600.753	1	11
601.092	1	-5
601.432	1	3
601.771	1	6
602.111	1	2
602.451	1	-7
602.790	1	9
603.130	1	-6
603.469	1	0
603.809	1	2
604.148	1	-8
604.487	1	3
604.827	1	3
605.166	1	1
605.506	1	-7
605.845	1	13
606.185	1	-6
606.524	1	-10
606.864	1	13
607.203	1	5
607.543	1	-1
607.882	1	16
608.222	1	3
608.561	1	-1
608.901	1	0
609.240	1	8
609.579	1	-8
609.919	1	-12
610.258	1	5
610.598	1	-15
610.937	1	5
611.277	1	3
611.616	1	7
611.955	1	0
612.295	1	-3
612.634	1	5
612.974	1	-11
613.313	1	3
613.652	1	8
613.992	1	1
614.331	1	2
614.671	1	0
615.010	1	0
615.349	1	2
615.689	1	1
616.028	1	13
616.368	1	5
616.707	1	0
617.046	1	2
617.386	1	1
617.725	1	-5
618.064	1	-4
618.404	1	3
618.743	1	2
619.082	1	11
619.422	1	18
619.761	1	2
620.100	1	4
620.440	1	3
620.779	1	2
621.118	1	9
621.458	1	6
621.797	1	7
622.136	1	-4
622.476	1	0
622.815	1	4
623.154	1	-12
623.494	1	-10
623.833	1	2
624.172	1	2
624.511	1	4
624.851	1	0
625.190	1	-9
625.529	1	-6
625.869	1	6
626.208	1	0
626.547	1	-4
626.886	1	-2
627.226	1	-6
627.565	1	3
627.904	1	-8
628.243	1	12
628.583	1	7
628.922	1	6
629.261	1	4
629.600	1	-3
629.940	1	7
630.279	1	2
630.618	1	9
630.957	1	-5
631.297	1	0
631.636	1	4
631.975	1	-1
632.314	1	17
632.653	1	-7
632.993	1	1
633.332	1	2
633.671	1	9
634.010	1	-3
634.349	1	11
634.689	1	-2
635.028	1	-3
635.367	1	3
635.706	1	-3
636.045	1	-6
636.384	1	11
636.724	1	6
637.063	1	-5
637.402	1	1
637.741	1	3
638.080	1	8
638.419	1	-1
638.759	1	2
639.098	1	3
639.437	1	-1
639.776	1	0
640.115	1	-1
640.454	1	-4
640.793	1	-5
641.132	1	4
641.472	1	2
641.811	1	9
642.150	1	-7
642.489	1	8
642.828	1	26
643.167	1	0
643.506	1	-3
643.845	1	3
644.184	1	9
644.524	1	2
644.863	1	-4
645.202	1	1
645.541	1	0
645.880	1	8
646.219	1	6
646.558	1	-3
646.897	1	-7
647.236	1	-4
647.575	1	7
647.914	1	0
648.253	1	14
648.592	1	-1
648.931	1	4
649.270	1	-2
649.610	1	10
649.949	1	-1
650.288	1	4
650.627	1	-4
650.966	1	4
651.305	1	5
651.644	1	10
651.983	1	-4
652.322	1	-5
652.661	1	6
653.000	1	-5
653.339	1	1
653.678	1	6
654.017	1	10
654.356	1	11
654.695	1	13
655.034	1	5
655.373	1	4
655.712	1	5
656.051	1	0
656.390	1	3
656.729	1	7
657.068	1	-2
657.406	1	-10
657.745	1	9
658.084	1	3
658.423	1	11
658.762	1	0
659.101	1	3
659.440	1	6
659.779	1	0
660.118	1	9
660.457	1	-1
660.796	1	9
661.135	1	0
661.474	1	10
661.813	1	-3
662.152	1	1
662.491	1	-3
662.829	1	1
663.168	1	4
663.507	1	4
663.846	1	2
664.185	1	0
664.524	1	10
664.863	1	-5
665.202	1	8
665.541	1	8
665.879	1	5
666.218	1	3
666.557	1	-7
666.896	1	6
667.235	1	-5
667.574	1	-2
667.913	1	2
668.251	1	-13
668.590	1	-4
668.929	1	5
669.268	1	4
669.607	1	-6
669.946	1	-1
670.285	1	3
670.623	1	5
670.962	1	-5
671.301	1	-3
671.640	1	2
671.979	1	-1
672.317	1	6
672.656	1	11
672.995	1	-4
673.334	1	-8
673.673	1	8
674.011	1	6
674.350	1	4
674.689	1	-4
675.028	1	4
675.367	1	2
675.705	1	-7
676.044	1	1
676.383	1	2
676.722	1	0
677.060	1	10
677.399	1	15
677.738	1	1
678.077	1	-8
678.416	1	-2
678.754	1	2
679.093	1	12
679.432	1	-6
679.771	1	1
680.109	1	2
680.448	1	-1
680.787	1	-9
681.125	1	-5
681.464	1	2
681.803	1	3
682.142	1	-3
682.480	1	-5
682.819	1	0
683.158	1	-1
683.496	1	2
683.835	1	0
684.174	1	14
684.512	1	-13
684.851	1	-3
685.190	1	-8
685.529	1	-5
685.867	1	-6
686.206	1	-6
686.545	1	-5
686.883	1	2
687.222	1	-10
687.561	1	-10
687.899	1	-2
688.238	1	12
688.577	1	-1
688.746	1	-4