File: Data/GaN_150K_450ms/GaN_sample D_spot15_UVVIS_150 K_200um_450 ms 2x2mm1_348.txt
340.368	1	-2
340.710	1	-4
341.052	1	-4
341.394	1	-9
341.737	1	-2
342.079	1	3
342.421	1	-4
342.763	1	-5
343.105	1	-7
343.447	1	-4
343.789	1	-6
344.131	1	-17
344.473	1	-5
344.815	1	0
345.157	1	7
345.499	1	1
345.841	1	2
346.183	1	3
346.526	1	0
346.868	1	-9
347.210	1	-1
347.552	1	8
347.894	1	-1
348.236	1	-2
348.578	1	-4
348.920	1	0
349.262	1	-8
349.604	1	-3
349.946	1	-8
350.288	1	-7
350.630	1	-5
350.972	1	4
351.314	1	2
351.656	1	-1
351.998	1	-5
352.340	1	3
352.682	1	-7
353.024	1	8
353.366	1	7
353.708	1	-4
354.050	1	-13
354.392	1	-16
354.734	1	6
355.076	1	5
355.418	1	-11
355.760	1	-1
356.102	1	-1
356.444	1	2
356.785	1	-5
357.127	1	4
357.469	1	3
357.811	1	-3
358.153	1	-15
358.495	1	-10
358.837	1	12
359.179	1	-13
359.521	1	9
359.863	1	-5
360.205	1	10
360.547	1	3
360.889	1	-3
361.231	1	6
361.572	1	7
361.914	1	1
362.256	1	-1
362.598	1	13
362.940	1	3
363.282	1	-11
363.624	1	3
363.966	1	-2
364.308	1	-5
364.649	1	4
364.991	1	-1
365.333	1	-11
365.675	1	2
366.017	1	2
366.359	1	-5
366.701	1	-12
367.042	1	2
367.384	1	-8
367.726	1	-4
368.068	1	1
368.410	1	0
368.752	1	3
369.093	1	7
369.435	1	7
369.777	1	6
370.119	1	0
370.461	1	-2
370.803	1	-5
371.144	1	1
371.486	1	9
371.828	1	-2
372.170	1	-3
372.512	1	-10
372.853	1	6
373.195	1	4
373.537	1	-11
373.879	1	4
374.220	1	2
374.562	1	14
374.904	1	-2
375.246	1	2
375.588	1	-3
375.929	1	3
376.271	1	1
376.613	1	5
376.955	1	0
377.296	1	-3
377.638	1	6
377.980	1	-3
378.321	1	2
378.663	1	8
379.005	1	5
379.347	1	2
379.688	1	13
380.030	1	6
380.372	1	-2
380.714	1	2
381.055	1	-1
381.397	1	-7
381.739	1	-16
382.080	1	-1
382.422	1	-5
382.764	1	-2
383.105	1	1
383.447	1	-1
383.789	1	-3
384.130	1	-4
384.472	1	-2
384.814	1	1
385.156	1	0
385.497	1	14
385.839	1	2
386.180	1	1
386.522	1	2
386.864	1	-7
387.205	1	-6
387.547	1	-2
387.889	1	-1
388.230	1	-3
388.572	1	-4
388.914	1	3
389.255	1	-8
389.597	1	-4
389.939	1	7
390.280	1	-3
390.622	1	-5
390.963	1	-6
391.305	1	-2
391.647	1	2
391.988	1	-9
392.330	1	3
392.671	1	-8
393.013	1	-2
393.355	1	3
393.696	1	-6
394.038	1	-7
394.379	1	1
394.721	1	3
395.062	1	-1
395.404	1	-5
395.746	1	-7
396.087	1	2
396.429	1	2
396.770	1	-1
397.112	1	-4
397.453	1	-5
397.795	1	-2
398.136	1	6
398.478	1	-7
398.819	1	3
399.161	1	7
399.503	1	-5
399.844	1	-5
400.186	1	7
400.527	1	5
400.869	1	-4
401.210	1	-4
401.552	1	-4
401.893	1	-4
402.235	1	-1
402.576	1	-5
402.918	1	-9
403.259	1	-3
403.601	1	1
403.942	1	0
404.284	1	4
404.625	1	-8
404.967	1	-2
405.308	1	-10
405.649	1	2
405.991	1	0
406.332	1	-7
406.674	1	-1
407.015	1	7
407.357	1	7
407.698	1	-8
408.040	1	13
408.381	1	1
408.722	1	5
409.064	1	2
409.405	1	0
409.747	1	-1
410.088	1	5
410.430	1	3
410.771	1	-5
411.112	1	-2
411.454	1	-1
411.795	1	3
412.137	1	-9
412.478	1	4
412.819	1	-1
413.161	1	-3
413.502	1	-2
413.844	1	-1
414.185	1	-2
414.526	1	-8
414.868	1	2
415.209	1	-3
415.550	1	-9
415.892	1	-1
416.233	1	-2
416.575	1	-4
416.916	1	0
417.257	1	1
417.599	1	-10
417.940	1	-10
418.281	1	-1
418.623	1	-1
418.964	1	7
419.305	1	3
419.647	1	2
419.988	1	11
420.329	1	-5
420.671	1	9
421.012	1	-12
421.353	1	2
421.695	1	5
422.036	1	3
422.377	1	-11
422.718	1	-1
423.060	1	-3
423.401	1	-4
423.742	1	5
424.084	1	4
424.425	1	5
424.766	1	-6
425.107	1	-4
425.449	1	-8
425.790	1	-10
426.131	1	-10
426.472	1	6
426.814	1	2
427.155	1	-3
427.496	1	-2
427.837	1	-8
428.179	1	8
428.520	1	-3
428.861	1	4
429.202	1	-1
429.544	1	1
429.885	1	3
430.226	1	-14
430.567	1	-14
430.909	1	-14
431.250	1	2
431.591	1	-1
431.932	1	-9
432.273	1	9
432.615	1	-7
432.956	1	3
433.297	1	5
433.638	1	-6
433.979	1	5
434.320	1	1
434.662	1	2
435.003	1	5
435.344	1	-6
435.685	1	-6
436.026	1	-7
436.368	1	-5
436.709	1	-5
437.050	1	-7
437.391	1	-5
437.732	1	1
438.073	1	0
438.414	1	8
438.756	1	-2
439.097	1	6
439.438	1	0
439.779	1	1
440.120	1	-5
440.461	1	-2
440.802	1	-4
441.143	1	-4
441.485	1	-1
441.826	1	-6
442.167	1	-2
442.508	1	-8
442.849	1	4
443.190	1	8
443.531	1	-3
443.872	1	-3
444.213	1	-7
444.554	1	2
444.895	1	-10
445.237	1	-2
445.578	1	-3
445.919	1	-4
446.260	1	3
446.601	1	1
446.942	1	-1
447.283	1	15
447.624	1	-7
447.965	1	-2
448.306	1	-5
448.647	1	-4
448.988	1	1
449.329	1	6
449.670	1	-3
450.011	1	-2
450.352	1	-3
450.693	1	2
451.034	1	-8
451.375	1	2
451.716	1	-8
452.057	1	6
452.398	1	6
452.739	1	2
453.080	1	5
453.421	1	11
453.762	1	1
454.103	1	-2
454.444	1	-1
454.785	1	-4
455.126	1	4
455.467	1	3
455.808	1	-4
456.149	1	-7
456.490	1	4
456.831	1	-7
457.172	1	-3
457.513	1	-9
457.854	1	2
458.195	1	-4
458.536	1	4
458.877	1	-5
459.218	1	2
459.559	1	-3
459.899	1	1
460.240	1	-5
460.581	1	-7
460.922	1	3
461.263	1	11
461.604	1	-6
461.945	1	-1
462.286	1	-11
462.627	1	-8
462.968	1	-2
463.309	1	-1
463.649	1	-4
463.990	1	-10
464.331	1	5
464.672	1	-1
465.013	1	5
465.354	1	10
465.695	1	-5
466.036	1	6
466.376	1	3
466.717	1	-4
467.058	1	4
467.399	1	-9
467.740	1	10
468.081	1	-6
468.422	1	-8
468.762	1	1
469.103	1	2
469.444	1	1
469.785	1	-7
470.126	1	9
470.467	1	-1
470.807	1	5
471.148	1	-5
471.489	1	9
471.830	1	-9
472.171	1	-1
472.511	1	1
472.852	1	8
473.193	1	-8
473.534	1	3
473.875	1	2
474.215	1	-2
474.556	1	-2
474.897	1	-6
475.238	1	1
475.578	1	-13
475.919	1	-2
476.260	1	-2
476.601	1	1
476.942	1	-1
477.282	1	-9
477.623	1	9
477.964	1	1
478.305	1	-2
478.645	1	-1
478.986	1	-4
479.327	1	5
479.667	1	-6
480.008	1	10
480.349	1	-2
480.690	1	16
481.030	1	-2
481.371	1	-9
481.712	1	7
482.053	1	9
482.393	1	-3
482.734	1	7
483.075	1	1
483.415	1	9
483.756	1	4
484.097	1	1
484.437	1	4
484.778	1	-5
485.119	1	-2
485.459	1	-8
485.800	1	0
486.141	1	-10
486.481	1	-5
486.822	1	4
487.163	1	-8
487.503	1	1
487.844	1	-2
488.185	1	3
488.525	1	-4
488.866	1	-5
489.207	1	1
489.547	1	-4
489.888	1	2
490.228	1	-1
490.569	1	-8
490.910	1	-6
491.250	1	0
491.591	1	3
491.932	1	3
492.272	1	-5
492.613	1	-7
492.953	1	1
493.294	1	-8
493.635	1	0
493.975	1	7
494.316	1	0
494.656	1	7
494.997	1	-8
495.337	1	-4
495.678	1	-9
496.019	1	2
496.359	1	-11
496.700	1	4
497.040	1	-4
497.381	1	1
497.721	1	-7
498.062	1	0
498.403	1	-1
498.743	1	4
499.084	1	-2
499.424	1	-1
499.765	1	-2
500.105	1	1
500.446	1	-3
500.786	1	-8
501.127	1	-9
501.467	1	0
501.808	1	-8
502.148	1	-1
502.489	1	0
502.829	1	-3
503.170	1	0
503.510	1	-11
503.851	1	1
504.191	1	-10
504.532	1	11
504.872	1	-9
505.213	1	-13
505.553	1	-3
505.894	1	5
506.234	1	1
506.575	1	10
506.915	1	5
507.256	1	3
507.596	1	7
507.936	1	-5
508.277	1	16
508.617	1	5
508.958	1	-4
509.298	1	-2
509.639	1	-4
509.979	1	2
510.319	1	-1
510.660	1	-13
511.000	1	-4
511.341	1	4
511.681	1	5
512.022	1	-7
512.362	1	-6
512.702	1	-6
513.043	1	-1
513.383	1	-6
513.724	1	-4
514.064	1	3
514.404	1	4
514.745	1	-7
515.085	1	-8
515.425	1	-3
515.766	1	-5
516.106	1	-7
516.447	1	3
516.787	1	-3
517.127	1	2
517.468	1	6
517.808	1	-10
518.148	1	8
518.489	1	-5
518.829	1	-7
519.169	1	0
519.510	1	-8
519.850	1	1
520.190	1	-8
520.531	1	-4
520.871	1	3
521.211	1	-3
521.552	1	-8
521.892	1	4
522.232	1	4
522.573	1	-2
522.913	1	5
523.253	1	4
523.593	1	8
523.934	1	8
524.274	1	-4
524.614	1	-1
524.955	1	-7
525.295	1	4
525.635	1	2
525.975	1	-7
526.316	1	-5
526.656	1	0
526.996	1	-9
527.337	1	-6
527.677	1	10
528.017	1	-14
528.357	1	3
528.698	1	8
529.038	1	6
529.378	1	-4
529.718	1	-5
530.058	1	7
530.399	1	0
530.739	1	-10
531.079	1	-8
531.419	1	3
531.760	1	-3
532.100	1	8
532.440	1	5
532.780	1	-8
533.120	1	0
533.461	1	-10
533.801	1	0
534.141	1	-2
534.481	1	8
534.821	1	1
535.162	1	2
535.502	1	-3
535.842	1	-2
536.182	1	-2
536.522	1	-2
536.862	1	-3
537.203	1	-5
537.543	1	2
537.883	1	-5
538.223	1	6
538.563	1	-1
538.903	1	-8
539.243	1	0
539.584	1	-4
539.924	1	0
540.264	1	16
540.604	1	4
540.944	1	2
541.284	1	2
541.624	1	5
541.964	1	-4
542.305	1	2
542.645	1	-8
542.985	1	-14
543.325	1	0
543.665	1	-4
544.005	1	-4
544.345	1	0
544.685	1	-8
545.025	1	-1
545.365	1	17
545.705	1	-4
546.045	1	4
546.386	1	-3
546.726	1	-5
547.066	1	1
547.406	1	-6
547.746	1	1
548.086	1	5
548.426	1	-4
548.766	1	-5
549.106	1	-5
549.446	1	2
549.786	1	6
550.126	1	0
550.466	1	-5
550.806	1	1
551.146	1	0
551.486	1	-4
551.826	1	-6
552.166	1	-1
552.506	1	1
552.846	1	-7
553.186	1	-14
553.526	1	-2
553.866	1	-9
554.206	1	2
554.546	1	0
554.886	1	-2
555.226	1	3
555.566	1	6
555.906	1	-8
556.246	1	-2
556.586	1	1
556.926	1	0
557.266	1	3
557.606	1	-13
557.946	1	10
558.286	1	-19
558.626	1	1
558.966	1	-6
559.306	1	2
559.646	1	-1
559.986	1	3
560.325	1	1
560.665	1	-4
561.005	1	-7
561.345	1	-3
561.685	1	-8
562.025	1	2
562.365	1	-4
562.705	1	8
563.045	1	-1
563.385	1	8
563.725	1	-8
564.064	1	0
564.404	1	1
564.744	1	1
565.084	1	5
565.424	1	-9
565.764	1	1
566.104	1	3
566.444	1	5
566.783	1	2
567.123	1	-4
567.463	1	5
567.803	1	-3
568.143	1	-2
568.483	1	-2
568.823	1	-8
569.162	1	-7
569.502	1	-6
569.842	1	-8
570.182	1	0
570.522	1	-2
570.862	1	-14
571.201	1	7
571.541	1	0
571.881	1	-5
572.221	1	-2
572.561	1	4
572.900	1	6
573.240	1	-7
573.580	1	1
573.920	1	4
574.260	1	-1
574.599	1	2
574.939	1	1
575.279	1	-2
575.619	1	-4
575.959	1	-2
576.298	1	-13
576.638	1	4
576.978	1	0
577.318	1	4
577.657	1	-6
577.997	1	-3
578.337	1	1
578.677	1	0
579.016	1	-7
579.356	1	-5
579.696	1	-5
580.036	1	-4
580.375	1	3
580.715	1	0
581.055	1	-3
581.394	1	-2
581.734	1	-1
582.074	1	1
582.414	1	-5
582.753	1	-2
583.093	1	7
583.433	1	2
583.772	1	8
584.112	1	-3
584.452	1	-4
584.791	1	5
585.131	1	7
585.471	1	-2
585.811	1	-2
586.150	1	5
586.490	1	-3
586.830	1	-2
587.169	1	-5
587.509	1	1
587.849	1	3
588.188	1	-1
588.528	1	-3
588.867	1	12
589.207	1	4
589.547	1	6
589.886	1	6
590.226	1	-9
590.566	1	0
590.905	1	-1
591.245	1	0
591.585	1	-14
591.924	1	-6
592.264	1	-5
592.603	1	-13
592.943	1	0
593.283	1	6
593.622	1	-5
593.962	1	7
594.301	1	-1
594.641	1	3
594.981	1	-1
595.320	1	0
595.660	1	2
595.999	1	-3
596.339	1	4
596.678	1	-8
597.018	1	-7
597.358	1	3
597.697	1	-13
598.037	1	-3
598.376	1	-15
598.716	1	0
599.055	1	1
599.395	1	-12
599.734	1	-2
600.074	1	-7
600.413	1	-1
600.753	1	-2
601.092	1	-12
601.432	1	-9
601.771	1	-2
602.111	1	-3
602.451	1	1
602.790	1	-4
603.130	1	0
603.469	1	2
603.809	1	2
604.148	1	-9
604.487	1	-7
604.827	1	5
605.166	1	2
605.506	1	-11
605.845	1	2
606.185	1	-5
606.524	1	-9
606.864	1	5
607.203	1	4
607.543	1	4
607.882	1	0
608.222	1	3
608.561	1	-9
608.901	1	5
609.240	1	8
609.579	1	-5
609.919	1	-9
610.258	1	9
610.598	1	-6
610.937	1	-2
611.277	1	3
611.616	1	6
611.955	1	-3
612.295	1	-4
612.634	1	-2
612.974	1	1
613.313	1	5
613.652	1	-2
613.992	1	-4
614.331	1	12
614.671	1	3
615.010	1	2
615.349	1	4
615.689	1	3
616.028	1	4
616.368	1	10
616.707	1	-2
617.046	1	0
617.386	1	7
617.725	1	-1
618.064	1	-4
618.404	1	-2
618.743	1	2
619.082	1	13
619.422	1	14
619.761	1	1
620.100	1	7
620.440	1	-2
620.779	1	1
621.118	1	10
621.458	1	1
621.797	1	-2
622.136	1	-7
622.476	1	1
622.815	1	4
623.154	1	-9
623.494	1	-8
623.833	1	-1
624.172	1	5
624.511	1	3
624.851	1	-4
625.190	1	0
625.529	1	-2
625.869	1	6
626.208	1	-13
626.547	1	-9
626.886	1	-13
627.226	1	-4
627.565	1	3
627.904	1	3
628.243	1	7
628.583	1	5
628.922	1	2
629.261	1	-7
629.600	1	-5
629.940	1	4
630.279	1	-2
630.618	1	6
630.957	1	3
631.297	1	-1
631.636	1	-1
631.975	1	-5
632.314	1	-6
632.653	1	-5
632.993	1	0
633.332	1	-2
633.671	1	2
634.010	1	-4
634.349	1	0
634.689	1	1
635.028	1	-5
635.367	1	3
635.706	1	-10
636.045	1	-6
636.384	1	4
636.724	1	-1
637.063	1	-12
637.402	1	-2
637.741	1	-6
638.080	1	-4
638.419	1	-5
638.759	1	4
639.098	1	2
639.437	1	-2
639.776	1	3
640.115	1	-11
640.454	1	-3
640.793	1	2
641.132	1	-2
641.472	1	5
641.811	1	-11
642.150	1	-1
642.489	1	-1
642.828	1	7
643.167	1	-2
643.506	1	-7
643.845	1	2
644.184	1	9
644.524	1	-12
644.863	1	-8
645.202	1	-3
645.541	1	-2
645.880	1	3
646.219	1	1
646.558	1	-7
646.897	1	-13
647.236	1	-13
647.575	1	4
647.914	1	2
648.253	1	5
648.592	1	2
648.931	1	1
649.270	1	10
649.610	1	-1
649.949	1	-5
650.288	1	6
650.627	1	-9
650.966	1	-6
651.305	1	-1
651.644	1	7
651.983	1	-5
652.322	1	-4
652.661	1	2
653.000	1	-1
653.339	1	-12
653.678	1	4
654.017	1	3
654.356	1	1
654.695	1	9
655.034	1	-11
655.373	1	-6
655.712	1	8
656.051	1	-14
656.390	1	3
656.729	1	-4
657.068	1	-1
657.406	1	-10
657.745	1	6
658.084	1	-9
658.423	1	4
658.762	1	-4
659.101	1	-6
659.440	1	-1
659.779	1	2
660.118	1	-4
660.457	1	-4
660.796	1	-5
661.135	1	1
661.474	1	0
661.813	1	-3
662.152	1	-1
662.491	1	-7
662.829	1	1
663.168	1	2
663.507	1	3
663.846	1	3
664.185	1	2
664.524	1	3
664.863	1	-11
665.202	1	6
665.541	1	1
665.879	1	8
666.218	1	5
666.557	1	-2
666.896	1	3
667.235	1	-10
667.574	1	-5
667.913	1	-2
668.251	1	-11
668.590	1	4
668.929	1	-2
669.268	1	-1
669.607	1	-1
669.946	1	-2
670.285	1	-14
670.623	1	-6
670.962	1	-5
671.301	1	-10
671.640	1	4
671.979	1	-8
672.317	1	6
672.656	1	1
672.995	1	4
673.334	1	-8
673.673	1	10
674.011	1	5
674.350	1	6
674.689	1	-10
675.028	1	-6
675.367	1	-4
675.705	1	-5
676.044	1	-2
676.383	1	-4
676.722	1	2
677.060	1	-3
677.399	1	3
677.738	1	-8
678.077	1	-8
678.416	1	-3
678.754	1	-1
679.093	1	5
679.432	1	-11
679.771	1	-2
680.109	1	-8
680.448	1	-9
680.787	1	-11
681.125	1	-5
681.464	1	-2
681.803	1	-4
682.142	1	1
682.480	1	-9
682.819	1	-2
683.158	1	-5
683.496	1	-4
683.835	1	-9
684.174	1	-6
684.512	1	2
684.851	1	-7
685.190	1	-7
685.529	1	-1
685.867	1	-11
686.206	1	-12
686.545	1	2
686.883	1	4
687.222	1	-6
687.561	1	-10
687.899	1	2
688.238	1	-4
688.577	1	-6
688.746	1	-9