File: Data/GaN_150K_450ms/GaN_sample D_spot15_UVVIS_150 K_200um_450 ms 2x2mm1_270.txt
340.368	1	1
340.710	1	1
341.052	1	3
341.394	1	-5
341.737	1	1
342.079	1	-5
342.421	1	1
342.763	1	-1
343.105	1	7
343.447	1	0
343.789	1	2
344.131	1	-9
344.473	1	3
344.815	1	1
345.157	1	5
345.499	1	4
345.841	1	9
346.183	1	2
346.526	1	5
346.868	1	-7
347.210	1	0
347.552	1	15
347.894	1	2
348.236	1	17
348.578	1	6
348.920	1	4
349.262	1	4
349.604	1	-8
349.946	1	-2
350.288	1	2
350.630	1	-6
350.972	1	1
351.314	1	-1
351.656	1	3
351.998	1	-2
352.340	1	7
352.682	1	-14
353.024	1	11
353.366	1	5
353.708	1	4
354.050	1	-4
354.392	1	-3
354.734	1	12
355.076	1	7
355.418	1	-6
355.760	1	-4
356.102	1	1
356.444	1	10
356.785	1	8
357.127	1	6
357.469	1	10
357.811	1	0
358.153	1	2
358.495	1	4
358.837	1	15
359.179	1	-2
359.521	1	6
359.863	1	-4
360.205	1	19
360.547	1	6
360.889	1	-1
361.231	1	7
361.572	1	9
361.914	1	8
362.256	1	6
362.598	1	8
362.940	1	2
363.282	1	-4
363.624	1	2
363.966	1	5
364.308	1	4
364.649	1	0
364.991	1	13
365.333	1	10
365.675	1	9
366.017	1	10
366.359	1	-1
366.701	1	2
367.042	1	17
367.384	1	-6
367.726	1	18
368.068	1	23
368.410	1	27
368.752	1	20
369.093	1	14
369.435	1	10
369.777	1	16
370.119	1	14
370.461	1	7
370.803	1	14
371.144	1	13
371.486	1	19
371.828	1	3
372.170	1	4
372.512	1	1
372.853	1	18
373.195	1	11
373.537	1	5
373.879	1	11
374.220	1	10
374.562	1	14
374.904	1	4
375.246	1	11
375.588	1	4
375.929	1	-3
376.271	1	7
376.613	1	3
376.955	1	14
377.296	1	8
377.638	1	5
377.980	1	7
378.321	1	5
378.663	1	14
379.005	1	3
379.347	1	2
379.688	1	18
380.030	1	9
380.372	1	6
380.714	1	6
381.055	1	-2
381.397	1	0
381.739	1	-5
382.080	1	2
382.422	1	5
382.764	1	-2
383.105	1	0
383.447	1	6
383.789	1	-14
384.130	1	8
384.472	1	-3
384.814	1	5
385.156	1	5
385.497	1	6
385.839	1	6
386.180	1	4
386.522	1	15
386.864	1	1
387.205	1	-4
387.547	1	11
387.889	1	2
388.230	1	3
388.572	1	-3
388.914	1	7
389.255	1	-4
389.597	1	3
389.939	1	7
390.280	1	4
390.622	1	-7
390.963	1	-2
391.305	1	3
391.647	1	7
391.988	1	9
392.330	1	-2
392.671	1	6
393.013	1	14
393.355	1	11
393.696	1	2
394.038	1	1
394.379	1	7
394.721	1	1
395.062	1	-3
395.404	1	1
395.746	1	-5
396.087	1	4
396.429	1	5
396.770	1	3
397.112	1	-4
397.453	1	-4
397.795	1	6
398.136	1	9
398.478	1	5
398.819	1	-1
399.161	1	1
399.503	1	6
399.844	1	-3
400.186	1	6
400.527	1	8
400.869	1	5
401.210	1	5
401.552	1	-1
401.893	1	4
402.235	1	-3
402.576	1	0
402.918	1	-1
403.259	1	5
403.601	1	9
403.942	1	-2
404.284	1	10
404.625	1	-2
404.967	1	10
405.308	1	-7
405.649	1	7
405.991	1	2
406.332	1	-3
406.674	1	2
407.015	1	4
407.357	1	9
407.698	1	1
408.040	1	5
408.381	1	-8
408.722	1	7
409.064	1	8
409.405	1	5
409.747	1	4
410.088	1	0
410.430	1	8
410.771	1	11
411.112	1	4
411.454	1	-3
411.795	1	5
412.137	1	5
412.478	1	4
412.819	1	4
413.161	1	6
413.502	1	-5
413.844	1	8
414.185	1	-2
414.526	1	-3
414.868	1	-3
415.209	1	-3
415.550	1	7
415.892	1	1
416.233	1	1
416.575	1	-1
416.916	1	-2
417.257	1	7
417.599	1	8
417.940	1	2
418.281	1	4
418.623	1	1
418.964	1	6
419.305	1	12
419.647	1	0
419.988	1	18
420.329	1	6
420.671	1	3
421.012	1	-1
421.353	1	3
421.695	1	8
422.036	1	12
422.377	1	2
422.718	1	7
423.060	1	6
423.401	1	-1
423.742	1	6
424.084	1	0
424.425	1	13
424.766	1	8
425.107	1	4
425.449	1	0
425.790	1	4
426.131	1	8
426.472	1	14
426.814	1	0
427.155	1	7
427.496	1	-2
427.837	1	4
428.179	1	13
428.520	1	10
428.861	1	9
429.202	1	7
429.544	1	7
429.885	1	14
430.226	1	0
430.567	1	-1
430.909	1	-16
431.250	1	11
431.591	1	2
431.932	1	9
432.273	1	10
432.615	1	1
432.956	1	3
433.297	1	1
433.638	1	6
433.979	1	-2
434.320	1	6
434.662	1	12
435.003	1	9
435.344	1	8
435.685	1	-7
436.026	1	-4
436.368	1	-6
436.709	1	0
437.050	1	-1
437.391	1	5
437.732	1	10
438.073	1	2
438.414	1	16
438.756	1	4
439.097	1	-1
439.438	1	2
439.779	1	-3
440.120	1	-5
440.461	1	1
440.802	1	-3
441.143	1	1
441.485	1	5
441.826	1	4
442.167	1	8
442.508	1	-8
442.849	1	7
443.190	1	3
443.531	1	-4
443.872	1	-9
444.213	1	-10
444.554	1	9
444.895	1	6
445.237	1	8
445.578	1	-10
445.919	1	2
446.260	1	15
446.601	1	-4
446.942	1	0
447.283	1	9
447.624	1	-1
447.965	1	1
448.306	1	10
448.647	1	-5
448.988	1	4
449.329	1	8
449.670	1	1
450.011	1	2
450.352	1	3
450.693	1	0
451.034	1	1
451.375	1	-6
451.716	1	0
452.057	1	-1
452.398	1	12
452.739	1	-2
453.080	1	9
453.421	1	6
453.762	1	6
454.103	1	3
454.444	1	1
454.785	1	11
455.126	1	0
455.467	1	6
455.808	1	9
456.149	1	6
456.490	1	-2
456.831	1	3
457.172	1	7
457.513	1	1
457.854	1	8
458.195	1	10
458.536	1	10
458.877	1	12
459.218	1	10
459.559	1	2
459.899	1	1
460.240	1	2
460.581	1	-6
460.922	1	7
461.263	1	8
461.604	1	3
461.945	1	5
462.286	1	4
462.627	1	-3
462.968	1	10
463.309	1	7
463.649	1	-5
463.990	1	1
464.331	1	4
464.672	1	7
465.013	1	-9
465.354	1	15
465.695	1	7
466.036	1	1
466.376	1	15
466.717	1	3
467.058	1	-4
467.399	1	-2
467.740	1	10
468.081	1	1
468.422	1	-2
468.762	1	5
469.103	1	3
469.444	1	3
469.785	1	-6
470.126	1	8
470.467	1	-1
470.807	1	4
471.148	1	5
471.489	1	10
471.830	1	0
472.171	1	5
472.511	1	8
472.852	1	8
473.193	1	-2
473.534	1	4
473.875	1	2
474.215	1	-4
474.556	1	-12
474.897	1	-4
475.238	1	3
475.578	1	-7
475.919	1	-6
476.260	1	3
476.601	1	-2
476.942	1	-1
477.282	1	-1
477.623	1	-2
477.964	1	13
478.305	1	7
478.645	1	7
478.986	1	5
479.327	1	8
479.667	1	-1
480.008	1	-2
480.349	1	0
480.690	1	2
481.030	1	0
481.371	1	-13
481.712	1	9
482.053	1	2
482.393	1	0
482.734	1	2
483.075	1	8
483.415	1	3
483.756	1	5
484.097	1	11
484.437	1	3
484.778	1	-5
485.119	1	4
485.459	1	-3
485.800	1	2
486.141	1	4
486.481	1	0
486.822	1	12
487.163	1	-3
487.503	1	2
487.844	1	-3
488.185	1	7
488.525	1	-4
488.866	1	1
489.207	1	-3
489.547	1	6
489.888	1	-10
490.228	1	1
490.569	1	-7
490.910	1	3
491.250	1	1
491.591	1	-2
491.932	1	17
492.272	1	-13
492.613	1	-5
492.953	1	7
493.294	1	-1
493.635	1	5
493.975	1	13
494.316	1	-7
494.656	1	3
494.997	1	-12
495.337	1	0
495.678	1	-15
496.019	1	2
496.359	1	-1
496.700	1	7
497.040	1	1
497.381	1	8
497.721	1	-3
498.062	1	-2
498.403	1	2
498.743	1	4
499.084	1	2
499.424	1	-2
499.765	1	13
500.105	1	8
500.446	1	5
500.786	1	-2
501.127	1	0
501.467	1	10
501.808	1	2
502.148	1	0
502.489	1	-3
502.829	1	-1
503.170	1	5
503.510	1	-2
503.851	1	11
504.191	1	-10
504.532	1	15
504.872	1	-13
505.213	1	10
505.553	1	4
505.894	1	5
506.234	1	5
506.575	1	16
506.915	1	4
507.256	1	2
507.596	1	11
507.936	1	11
508.277	1	11
508.617	1	7
508.958	1	5
509.298	1	0
509.639	1	-3
509.979	1	4
510.319	1	1
510.660	1	-2
511.000	1	-6
511.341	1	4
511.681	1	2
512.022	1	5
512.362	1	5
512.702	1	-2
513.043	1	6
513.383	1	10
513.724	1	5
514.064	1	11
514.404	1	13
514.745	1	0
515.085	1	8
515.425	1	11
515.766	1	0
516.106	1	-1
516.447	1	4
516.787	1	-5
517.127	1	5
517.468	1	12
517.808	1	-7
518.148	1	4
518.489	1	5
518.829	1	-1
519.169	1	-7
519.510	1	-7
519.850	1	2
520.190	1	-3
520.531	1	1
520.871	1	6
521.211	1	1
521.552	1	-3
521.892	1	-3
522.232	1	-2
522.573	1	2
522.913	1	9
523.253	1	9
523.593	1	8
523.934	1	9
524.274	1	4
524.614	1	8
524.955	1	0
525.295	1	3
525.635	1	5
525.975	1	-5
526.316	1	-1
526.656	1	2
526.996	1	-6
527.337	1	11
527.677	1	9
528.017	1	1
528.357	1	4
528.698	1	12
529.038	1	-2
529.378	1	5
529.718	1	9
530.058	1	3
530.399	1	6
530.739	1	-1
531.079	1	3
531.419	1	12
531.760	1	4
532.100	1	13
532.440	1	6
532.780	1	9
533.120	1	0
533.461	1	1
533.801	1	-1
534.141	1	11
534.481	1	22
534.821	1	0
535.162	1	14
535.502	1	10
535.842	1	3
536.182	1	3
536.522	1	3
536.862	1	0
537.203	1	-3
537.543	1	3
537.883	1	6
538.223	1	12
538.563	1	-3
538.903	1	9
539.243	1	0
539.584	1	6
539.924	1	7
540.264	1	9
540.604	1	14
540.944	1	10
541.284	1	-4
541.624	1	-2
541.964	1	-5
542.305	1	14
542.645	1	4
542.985	1	-6
543.325	1	3
543.665	1	-3
544.005	1	-4
544.345	1	4
544.685	1	-4
545.025	1	10
545.365	1	-1
545.705	1	3
546.045	1	3
546.386	1	4
546.726	1	-1
547.066	1	1
547.406	1	-1
547.746	1	1
548.086	1	10
548.426	1	3
548.766	1	0
549.106	1	1
549.446	1	14
549.786	1	10
550.126	1	5
550.466	1	-2
550.806	1	14
551.146	1	4
551.486	1	9
551.826	1	-4
552.166	1	5
552.506	1	2
552.846	1	4
553.186	1	-2
553.526	1	3
553.866	1	1
554.206	1	4
554.546	1	10
554.886	1	1
555.226	1	1
555.566	1	6
555.906	1	-5
556.246	1	2
556.586	1	-1
556.926	1	2
557.266	1	-7
557.606	1	-6
557.946	1	3
558.286	1	-14
558.626	1	3
558.966	1	7
559.306	1	5
559.646	1	11
559.986	1	10
560.325	1	3
560.665	1	0
561.005	1	6
561.345	1	-2
561.685	1	11
562.025	1	1
562.365	1	-3
562.705	1	6
563.045	1	10
563.385	1	6
563.725	1	7
564.064	1	-7
564.404	1	-5
564.744	1	11
565.084	1	9
565.424	1	-3
565.764	1	0
566.104	1	8
566.444	1	11
566.783	1	4
567.123	1	0
567.463	1	5
567.803	1	9
568.143	1	3
568.483	1	14
568.823	1	-2
569.162	1	-4
569.502	1	3
569.842	1	-4
570.182	1	-6
570.522	1	-3
570.862	1	-3
571.201	1	17
571.541	1	10
571.881	1	3
572.221	1	2
572.561	1	6
572.900	1	19
573.240	1	-1
573.580	1	3
573.920	1	16
574.260	1	0
574.599	1	17
574.939	1	-3
575.279	1	0
575.619	1	2
575.959	1	6
576.298	1	-5
576.638	1	1
576.978	1	5
577.318	1	8
577.657	1	0
577.997	1	7
578.337	1	5
578.677	1	2
579.016	1	7
579.356	1	11
579.696	1	0
580.036	1	5
580.375	1	7
580.715	1	10
581.055	1	5
581.394	1	2
581.734	1	4
582.074	1	0
582.414	1	5
582.753	1	6
583.093	1	-2
583.433	1	3
583.772	1	3
584.112	1	-3
584.452	1	6
584.791	1	4
585.131	1	5
585.471	1	6
585.811	1	3
586.150	1	2
586.490	1	-3
586.830	1	-8
587.169	1	-1
587.509	1	0
587.849	1	5
588.188	1	4
588.528	1	-2
588.867	1	4
589.207	1	4
589.547	1	9
589.886	1	12
590.226	1	-2
590.566	1	0
590.905	1	0
591.245	1	-3
591.585	1	-3
591.924	1	-3
592.264	1	-2
592.603	1	-5
592.943	1	6
593.283	1	1
593.622	1	7
593.962	1	-2
594.301	1	4
594.641	1	5
594.981	1	9
595.320	1	5
595.660	1	10
595.999	1	9
596.339	1	-1
596.678	1	-11
597.018	1	-2
597.358	1	2
597.697	1	-10
598.037	1	3
598.376	1	-9
598.716	1	7
599.055	1	5
599.395	1	-2
599.734	1	4
600.074	1	-1
600.413	1	2
600.753	1	0
601.092	1	1
601.432	1	-11
601.771	1	4
602.111	1	5
602.451	1	-2
602.790	1	-1
603.130	1	3
603.469	1	2
603.809	1	2
604.148	1	-5
604.487	1	11
604.827	1	5
605.166	1	0
605.506	1	-2
605.845	1	8
606.185	1	1
606.524	1	-6
606.864	1	19
607.203	1	7
607.543	1	3
607.882	1	12
608.222	1	-4
608.561	1	-3
608.901	1	8
609.240	1	10
609.579	1	0
609.919	1	-2
610.258	1	8
610.598	1	-6
610.937	1	1
611.277	1	6
611.616	1	9
611.955	1	-3
612.295	1	4
612.634	1	-1
612.974	1	-6
613.313	1	9
613.652	1	5
613.992	1	1
614.331	1	11
614.671	1	1
615.010	1	3
615.349	1	0
615.689	1	-1
616.028	1	19
616.368	1	8
616.707	1	3
617.046	1	-12
617.386	1	14
617.725	1	3
618.064	1	-5
618.404	1	2
618.743	1	4
619.082	1	13
619.422	1	10
619.761	1	-1
620.100	1	0
620.440	1	9
620.779	1	2
621.118	1	9
621.458	1	0
621.797	1	8
622.136	1	-7
622.476	1	-1
622.815	1	6
623.154	1	-6
623.494	1	-4
623.833	1	3
624.172	1	4
624.511	1	7
624.851	1	0
625.190	1	-1
625.529	1	-1
625.869	1	4
626.208	1	4
626.547	1	-9
626.886	1	-4
627.226	1	12
627.565	1	6
627.904	1	-3
628.243	1	3
628.583	1	-1
628.922	1	2
629.261	1	4
629.600	1	-7
629.940	1	2
630.279	1	4
630.618	1	-2
630.957	1	3
631.297	1	4
631.636	1	-7
631.975	1	-6
632.314	1	2
632.653	1	-3
632.993	1	-6
633.332	1	1
633.671	1	9
634.010	1	-2
634.349	1	3
634.689	1	8
635.028	1	-3
635.367	1	7
635.706	1	-7
636.045	1	0
636.384	1	4
636.724	1	4
637.063	1	0
637.402	1	-1
637.741	1	-4
638.080	1	2
638.419	1	8
638.759	1	1
639.098	1	9
639.437	1	-5
639.776	1	-2
640.115	1	-7
640.454	1	-5
640.793	1	2
641.132	1	6
641.472	1	15
641.811	1	1
642.150	1	3
642.489	1	4
642.828	1	8
643.167	1	11
643.506	1	-2
643.845	1	8
644.184	1	4
644.524	1	-1
644.863	1	4
645.202	1	5
645.541	1	-7
645.880	1	7
646.219	1	6
646.558	1	-7
646.897	1	0
647.236	1	-6
647.575	1	10
647.914	1	6
648.253	1	7
648.592	1	12
648.931	1	8
649.270	1	2
649.610	1	3
649.949	1	1
650.288	1	5
650.627	1	-11
650.966	1	2
651.305	1	4
651.644	1	15
651.983	1	-6
652.322	1	2
652.661	1	3
653.000	1	5
653.339	1	10
653.678	1	5
654.017	1	-2
654.356	1	5
654.695	1	10
655.034	1	5
655.373	1	7
655.712	1	15
656.051	1	0
656.390	1	6
656.729	1	7
657.068	1	0
657.406	1	-5
657.745	1	8
658.084	1	1
658.423	1	7
658.762	1	0
659.101	1	-1
659.440	1	5
659.779	1	6
660.118	1	-2
660.457	1	0
660.796	1	11
661.135	1	8
661.474	1	12
661.813	1	6
662.152	1	12
662.491	1	-1
662.829	1	-1
663.168	1	3
663.507	1	3
663.846	1	-2
664.185	1	0
664.524	1	6
664.863	1	-5
665.202	1	13
665.541	1	0
665.879	1	1
666.218	1	6
666.557	1	8
666.896	1	5
667.235	1	3
667.574	1	-3
667.913	1	9
668.251	1	-7
668.590	1	3
668.929	1	0
669.268	1	-13
669.607	1	-10
669.946	1	2
670.285	1	6
670.623	1	-3
670.962	1	-4
671.301	1	-1
671.640	1	6
671.979	1	7
672.317	1	6
672.656	1	9
672.995	1	7
673.334	1	1
673.673	1	9
674.011	1	10
674.350	1	-6
674.689	1	-8
675.028	1	1
675.367	1	11
675.705	1	-6
676.044	1	-2
676.383	1	1
676.722	1	-1
677.060	1	6
677.399	1	11
677.738	1	-1
678.077	1	2
678.416	1	-2
678.754	1	6
679.093	1	-1
679.432	1	0
679.771	1	3
680.109	1	4
680.448	1	-1
680.787	1	-9
681.125	1	-4
681.464	1	9
681.803	1	2
682.142	1	1
682.480	1	-6
682.819	1	-8
683.158	1	2
683.496	1	3
683.835	1	10
684.174	1	3
684.512	1	0
684.851	1	-7
685.190	1	0
685.529	1	0
685.867	1	5
686.206	1	-6
686.545	1	-7
686.883	1	9
687.222	1	-9
687.561	1	-2
687.899	1	-10
688.238	1	1
688.577	1	0
688.746	1	1