File: Data/GaN_150K_450ms/GaN_sample D_spot15_UVVIS_150 K_200um_450 ms 2x2mm1_99.txt
340.368	1	-3
340.710	1	0
341.052	1	17
341.394	1	-5
341.737	1	5
342.079	1	4
342.421	1	-1
342.763	1	18
343.105	1	14
343.447	1	1
343.789	1	6
344.131	1	0
344.473	1	9
344.815	1	-3
345.157	1	13
345.499	1	10
345.841	1	7
346.183	1	13
346.526	1	8
346.868	1	10
347.210	1	6
347.552	1	16
347.894	1	16
348.236	1	3
348.578	1	7
348.920	1	4
349.262	1	8
349.604	1	5
349.946	1	4
350.288	1	1
350.630	1	-14
350.972	1	10
351.314	1	-4
351.656	1	18
351.998	1	8
352.340	1	8
352.682	1	-5
353.024	1	14
353.366	1	21
353.708	1	5
354.050	1	3
354.392	1	3
354.734	1	15
355.076	1	22
355.418	1	3
355.760	1	10
356.102	1	8
356.444	1	24
356.785	1	25
357.127	1	19
357.469	1	10
357.811	1	10
358.153	1	2
358.495	1	15
358.837	1	26
359.179	1	22
359.521	1	34
359.863	1	0
360.205	1	22
360.547	1	31
360.889	1	17
361.231	1	24
361.572	1	24
361.914	1	26
362.256	1	44
362.598	1	42
362.940	1	47
363.282	1	33
363.624	1	47
363.966	1	40
364.308	1	53
364.649	1	70
364.991	1	53
365.333	1	78
365.675	1	72
366.017	1	85
366.359	1	68
366.701	1	82
367.042	1	95
367.384	1	83
367.726	1	101
368.068	1	99
368.410	1	95
368.752	1	108
369.093	1	100
369.435	1	98
369.777	1	90
370.119	1	79
370.461	1	82
370.803	1	70
371.144	1	78
371.486	1	69
371.828	1	58
372.170	1	64
372.512	1	55
372.853	1	69
373.195	1	54
373.537	1	42
373.879	1	46
374.220	1	52
374.562	1	54
374.904	1	39
375.246	1	43
375.588	1	32
375.929	1	57
376.271	1	47
376.613	1	36
376.955	1	29
377.296	1	30
377.638	1	34
377.980	1	27
378.321	1	42
378.663	1	28
379.005	1	39
379.347	1	28
379.688	1	29
380.030	1	25
380.372	1	27
380.714	1	20
381.055	1	23
381.397	1	17
381.739	1	14
382.080	1	12
382.422	1	20
382.764	1	22
383.105	1	25
383.447	1	24
383.789	1	12
384.130	1	8
384.472	1	11
384.814	1	14
385.156	1	24
385.497	1	27
385.839	1	18
386.180	1	21
386.522	1	25
386.864	1	12
387.205	1	20
387.547	1	21
387.889	1	5
388.230	1	19
388.572	1	2
388.914	1	24
389.255	1	15
389.597	1	12
389.939	1	19
390.280	1	13
390.622	1	8
390.963	1	7
391.305	1	16
391.647	1	13
391.988	1	11
392.330	1	16
392.671	1	14
393.013	1	14
393.355	1	7
393.696	1	17
394.038	1	20
394.379	1	4
394.721	1	1
395.062	1	4
395.404	1	22
395.746	1	9
396.087	1	20
396.429	1	12
396.770	1	14
397.112	1	13
397.453	1	9
397.795	1	13
398.136	1	14
398.478	1	9
398.819	1	13
399.161	1	19
399.503	1	15
399.844	1	7
400.186	1	9
400.527	1	14
400.869	1	6
401.210	1	16
401.552	1	16
401.893	1	2
402.235	1	10
402.576	1	11
402.918	1	8
403.259	1	8
403.601	1	15
403.942	1	8
404.284	1	20
404.625	1	7
404.967	1	11
405.308	1	4
405.649	1	10
405.991	1	10
406.332	1	10
406.674	1	13
407.015	1	13
407.357	1	1
407.698	1	21
408.040	1	22
408.381	1	-2
408.722	1	22
409.064	1	15
409.405	1	20
409.747	1	12
410.088	1	15
410.430	1	18
410.771	1	17
411.112	1	12
411.454	1	7
411.795	1	15
412.137	1	12
412.478	1	19
412.819	1	22
413.161	1	13
413.502	1	16
413.844	1	20
414.185	1	23
414.526	1	5
414.868	1	8
415.209	1	13
415.550	1	15
415.892	1	21
416.233	1	11
416.575	1	1
416.916	1	10
417.257	1	14
417.599	1	14
417.940	1	13
418.281	1	20
418.623	1	9
418.964	1	22
419.305	1	11
419.647	1	21
419.988	1	22
420.329	1	18
420.671	1	16
421.012	1	13
421.353	1	15
421.695	1	27
422.036	1	23
422.377	1	8
422.718	1	21
423.060	1	13
423.401	1	10
423.742	1	12
424.084	1	16
424.425	1	19
424.766	1	9
425.107	1	20
425.449	1	9
425.790	1	11
426.131	1	7
426.472	1	21
426.814	1	8
427.155	1	16
427.496	1	19
427.837	1	11
428.179	1	32
428.520	1	17
428.861	1	17
429.202	1	7
429.544	1	16
429.885	1	26
430.226	1	-1
430.567	1	10
430.909	1	5
431.250	1	21
431.591	1	15
431.932	1	5
432.273	1	22
432.615	1	17
432.956	1	16
433.297	1	14
433.638	1	21
433.979	1	19
434.320	1	12
434.662	1	12
435.003	1	21
435.344	1	23
435.685	1	8
436.026	1	9
436.368	1	5
436.709	1	11
437.050	1	10
437.391	1	12
437.732	1	6
438.073	1	6
438.414	1	19
438.756	1	17
439.097	1	22
439.438	1	15
439.779	1	9
440.120	1	11
440.461	1	5
440.802	1	11
441.143	1	19
441.485	1	15
441.826	1	13
442.167	1	7
442.508	1	11
442.849	1	20
443.190	1	8
443.531	1	11
443.872	1	8
444.213	1	7
444.554	1	21
444.895	1	2
445.237	1	22
445.578	1	8
445.919	1	12
446.260	1	18
446.601	1	19
446.942	1	7
447.283	1	17
447.624	1	4
447.965	1	8
448.306	1	16
448.647	1	3
448.988	1	6
449.329	1	9
449.670	1	12
450.011	1	16
450.352	1	5
450.693	1	18
451.034	1	9
451.375	1	12
451.716	1	2
452.057	1	9
452.398	1	19
452.739	1	13
453.080	1	17
453.421	1	19
453.762	1	12
454.103	1	10
454.444	1	12
454.785	1	10
455.126	1	3
455.467	1	14
455.808	1	26
456.149	1	7
456.490	1	5
456.831	1	9
457.172	1	7
457.513	1	6
457.854	1	11
458.195	1	12
458.536	1	10
458.877	1	10
459.218	1	16
459.559	1	11
459.899	1	3
460.240	1	1
460.581	1	7
460.922	1	11
461.263	1	18
461.604	1	7
461.945	1	14
462.286	1	3
462.627	1	14
462.968	1	5
463.309	1	15
463.649	1	1
463.990	1	9
464.331	1	13
464.672	1	11
465.013	1	5
465.354	1	19
465.695	1	16
466.036	1	13
466.376	1	8
466.717	1	-8
467.058	1	13
467.399	1	7
467.740	1	17
468.081	1	9
468.422	1	6
468.762	1	9
469.103	1	4
469.444	1	10
469.785	1	0
470.126	1	12
470.467	1	5
470.807	1	10
471.148	1	5
471.489	1	15
471.830	1	3
472.171	1	14
472.511	1	8
472.852	1	14
473.193	1	12
473.534	1	4
473.875	1	11
474.215	1	11
474.556	1	2
474.897	1	-2
475.238	1	9
475.578	1	7
475.919	1	6
476.260	1	3
476.601	1	3
476.942	1	16
477.282	1	-3
477.623	1	6
477.964	1	6
478.305	1	11
478.645	1	3
478.986	1	14
479.327	1	11
479.667	1	3
480.008	1	10
480.349	1	0
480.690	1	11
481.030	1	4
481.371	1	-3
481.712	1	10
482.053	1	13
482.393	1	6
482.734	1	8
483.075	1	15
483.415	1	8
483.756	1	4
484.097	1	15
484.437	1	15
484.778	1	2
485.119	1	8
485.459	1	0
485.800	1	1
486.141	1	12
486.481	1	-4
486.822	1	18
487.163	1	0
487.503	1	9
487.844	1	-5
488.185	1	8
488.525	1	4
488.866	1	-1
489.207	1	17
489.547	1	15
489.888	1	13
490.228	1	14
490.569	1	6
490.910	1	25
491.250	1	5
491.591	1	13
491.932	1	20
492.272	1	-1
492.613	1	3
492.953	1	7
493.294	1	-2
493.635	1	13
493.975	1	20
494.316	1	4
494.656	1	13
494.997	1	4
495.337	1	19
495.678	1	9
496.019	1	2
496.359	1	8
496.700	1	9
497.040	1	18
497.381	1	13
497.721	1	9
498.062	1	18
498.403	1	24
498.743	1	6
499.084	1	13
499.424	1	18
499.765	1	17
500.105	1	30
500.446	1	-6
500.786	1	15
501.127	1	20
501.467	1	18
501.808	1	14
502.148	1	10
502.489	1	6
502.829	1	10
503.170	1	17
503.510	1	8
503.851	1	20
504.191	1	11
504.532	1	24
504.872	1	14
505.213	1	15
505.553	1	15
505.894	1	26
506.234	1	22
506.575	1	36
506.915	1	29
507.256	1	20
507.596	1	30
507.936	1	20
508.277	1	23
508.617	1	28
508.958	1	29
509.298	1	16
509.639	1	10
509.979	1	20
510.319	1	21
510.660	1	18
511.000	1	26
511.341	1	24
511.681	1	17
512.022	1	14
512.362	1	24
512.702	1	7
513.043	1	16
513.383	1	16
513.724	1	14
514.064	1	32
514.404	1	23
514.745	1	18
515.085	1	30
515.425	1	25
515.766	1	16
516.106	1	21
516.447	1	39
516.787	1	18
517.127	1	28
517.468	1	27
517.808	1	19
518.148	1	26
518.489	1	18
518.829	1	23
519.169	1	25
519.510	1	17
519.850	1	31
520.190	1	16
520.531	1	23
520.871	1	32
521.211	1	22
521.552	1	16
521.892	1	27
522.232	1	18
522.573	1	22
522.913	1	24
523.253	1	25
523.593	1	33
523.934	1	29
524.274	1	18
524.614	1	27
524.955	1	25
525.295	1	32
525.635	1	28
525.975	1	31
526.316	1	24
526.656	1	19
526.996	1	26
527.337	1	30
527.677	1	42
528.017	1	22
528.357	1	32
528.698	1	31
529.038	1	32
529.378	1	23
529.718	1	11
530.058	1	24
530.399	1	17
530.739	1	32
531.079	1	27
531.419	1	18
531.760	1	34
532.100	1	44
532.440	1	31
532.780	1	26
533.120	1	30
533.461	1	29
533.801	1	29
534.141	1	38
534.481	1	51
534.821	1	30
535.162	1	29
535.502	1	30
535.842	1	31
536.182	1	19
536.522	1	28
536.862	1	24
537.203	1	21
537.543	1	26
537.883	1	27
538.223	1	41
538.563	1	18
538.903	1	19
539.243	1	26
539.584	1	24
539.924	1	14
540.264	1	32
540.604	1	35
540.944	1	17
541.284	1	12
541.624	1	31
541.964	1	12
542.305	1	29
542.645	1	26
542.985	1	13
543.325	1	30
543.665	1	30
544.005	1	24
544.345	1	28
544.685	1	14
545.025	1	28
545.365	1	20
545.705	1	21
546.045	1	30
546.386	1	20
546.726	1	10
547.066	1	30
547.406	1	13
547.746	1	17
548.086	1	25
548.426	1	28
548.766	1	32
549.106	1	19
549.446	1	29
549.786	1	27
550.126	1	22
550.466	1	19
550.806	1	30
551.146	1	15
551.486	1	20
551.826	1	10
552.166	1	22
552.506	1	25
552.846	1	21
553.186	1	7
553.526	1	27
553.866	1	14
554.206	1	25
554.546	1	30
554.886	1	13
555.226	1	26
555.566	1	24
555.906	1	11
556.246	1	26
556.586	1	18
556.926	1	10
557.266	1	31
557.606	1	6
557.946	1	16
558.286	1	7
558.626	1	14
558.966	1	25
559.306	1	18
559.646	1	25
559.986	1	23
560.325	1	13
560.665	1	21
561.005	1	13
561.345	1	11
561.685	1	17
562.025	1	15
562.365	1	15
562.705	1	23
563.045	1	12
563.385	1	28
563.725	1	11
564.064	1	9
564.404	1	12
564.744	1	29
565.084	1	13
565.424	1	5
565.764	1	18
566.104	1	16
566.444	1	25
566.783	1	16
567.123	1	8
567.463	1	15
567.803	1	13
568.143	1	17
568.483	1	15
568.823	1	8
569.162	1	5
569.502	1	21
569.842	1	12
570.182	1	15
570.522	1	11
570.862	1	-2
571.201	1	24
571.541	1	6
571.881	1	6
572.221	1	15
572.561	1	22
572.900	1	25
573.240	1	9
573.580	1	12
573.920	1	20
574.260	1	14
574.599	1	20
574.939	1	13
575.279	1	11
575.619	1	11
575.959	1	12
576.298	1	-3
576.638	1	20
576.978	1	17
577.318	1	11
577.657	1	13
577.997	1	10
578.337	1	8
578.677	1	13
579.016	1	22
579.356	1	10
579.696	1	9
580.036	1	15
580.375	1	15
580.715	1	11
581.055	1	15
581.394	1	14
581.734	1	16
582.074	1	20
582.414	1	2
582.753	1	13
583.093	1	15
583.433	1	10
583.772	1	18
584.112	1	14
584.452	1	12
584.791	1	13
585.131	1	18
585.471	1	13
585.811	1	10
586.150	1	10
586.490	1	11
586.830	1	11
587.169	1	3
587.509	1	12
587.849	1	31
588.188	1	16
588.528	1	-4
588.867	1	13
589.207	1	7
589.547	1	17
589.886	1	8
590.226	1	4
590.566	1	18
590.905	1	1
591.245	1	-2
591.585	1	10
591.924	1	3
592.264	1	15
592.603	1	-7
592.943	1	7
593.283	1	3
593.622	1	10
593.962	1	19
594.301	1	5
594.641	1	14
594.981	1	12
595.320	1	15
595.660	1	18
595.999	1	9
596.339	1	7
596.678	1	-7
597.018	1	-2
597.358	1	12
597.697	1	8
598.037	1	4
598.376	1	-2
598.716	1	11
599.055	1	10
599.395	1	2
599.734	1	9
600.074	1	4
600.413	1	17
600.753	1	8
601.092	1	4
601.432	1	0
601.771	1	3
602.111	1	17
602.451	1	5
602.790	1	10
603.130	1	16
603.469	1	12
603.809	1	10
604.148	1	5
604.487	1	11
604.827	1	3
605.166	1	14
605.506	1	-6
605.845	1	12
606.185	1	-2
606.524	1	4
606.864	1	13
607.203	1	12
607.543	1	10
607.882	1	18
608.222	1	-2
608.561	1	5
608.901	1	17
609.240	1	15
609.579	1	5
609.919	1	1
610.258	1	12
610.598	1	-3
610.937	1	3
611.277	1	14
611.616	1	13
611.955	1	3
612.295	1	7
612.634	1	10
612.974	1	7
613.313	1	10
613.652	1	6
613.992	1	8
614.331	1	13
614.671	1	9
615.010	1	7
615.349	1	6
615.689	1	5
616.028	1	24
616.368	1	21
616.707	1	8
617.046	1	0
617.386	1	7
617.725	1	-9
618.064	1	2
618.404	1	-3
618.743	1	10
619.082	1	14
619.422	1	12
619.761	1	-2
620.100	1	9
620.440	1	14
620.779	1	6
621.118	1	15
621.458	1	11
621.797	1	5
622.136	1	2
622.476	1	7
622.815	1	3
623.154	1	0
623.494	1	-4
623.833	1	12
624.172	1	6
624.511	1	-3
624.851	1	8
625.190	1	1
625.529	1	6
625.869	1	12
626.208	1	-3
626.547	1	-1
626.886	1	-1
627.226	1	18
627.565	1	9
627.904	1	0
628.243	1	15
628.583	1	11
628.922	1	8
629.261	1	4
629.600	1	7
629.940	1	11
630.279	1	12
630.618	1	12
630.957	1	16
631.297	1	13
631.636	1	4
631.975	1	3
632.314	1	1
632.653	1	11
632.993	1	1
633.332	1	8
633.671	1	12
634.010	1	2
634.349	1	20
634.689	1	3
635.028	1	3
635.367	1	16
635.706	1	4
636.045	1	3
636.384	1	8
636.724	1	11
637.063	1	-1
637.402	1	9
637.741	1	3
638.080	1	6
638.419	1	1
638.759	1	9
639.098	1	-2
639.437	1	8
639.776	1	11
640.115	1	-1
640.454	1	-6
640.793	1	6
641.132	1	3
641.472	1	19
641.811	1	-8
642.150	1	-1
642.489	1	13
642.828	1	19
643.167	1	7
643.506	1	4
643.845	1	15
644.184	1	15
644.524	1	1
644.863	1	5
645.202	1	4
645.541	1	10
645.880	1	18
646.219	1	8
646.558	1	-4
646.897	1	-7
647.236	1	-2
647.575	1	10
647.914	1	2
648.253	1	11
648.592	1	9
648.931	1	7
649.270	1	9
649.610	1	12
649.949	1	-1
650.288	1	11
650.627	1	9
650.966	1	4
651.305	1	13
651.644	1	19
651.983	1	-4
652.322	1	8
652.661	1	7
653.000	1	8
653.339	1	3
653.678	1	11
654.017	1	5
654.356	1	11
654.695	1	18
655.034	1	2
655.373	1	16
655.712	1	11
656.051	1	4
656.390	1	8
656.729	1	10
657.068	1	9
657.406	1	8
657.745	1	14
658.084	1	12
658.423	1	8
658.762	1	-2
659.101	1	1
659.440	1	2
659.779	1	8
660.118	1	-1
660.457	1	12
660.796	1	11
661.135	1	2
661.474	1	8
661.813	1	-7
662.152	1	6
662.491	1	-4
662.829	1	10
663.168	1	2
663.507	1	12
663.846	1	3
664.185	1	-6
664.524	1	17
664.863	1	-2
665.202	1	11
665.541	1	10
665.879	1	12
666.218	1	8
666.557	1	-5
666.896	1	9
667.235	1	-3
667.574	1	11
667.913	1	9
668.251	1	0
668.590	1	0
668.929	1	-3
669.268	1	8
669.607	1	-2
669.946	1	11
670.285	1	7
670.623	1	2
670.962	1	1
671.301	1	4
671.640	1	14
671.979	1	0
672.317	1	8
672.656	1	1
672.995	1	10
673.334	1	5
673.673	1	22
674.011	1	17
674.350	1	8
674.689	1	-4
675.028	1	5
675.367	1	7
675.705	1	5
676.044	1	-6
676.383	1	9
676.722	1	5
677.060	1	-1
677.399	1	16
677.738	1	7
678.077	1	0
678.416	1	6
678.754	1	11
679.093	1	19
679.432	1	5
679.771	1	4
680.109	1	9
680.448	1	7
680.787	1	-6
681.125	1	-4
681.464	1	8
681.803	1	10
682.142	1	5
682.480	1	-7
682.819	1	-3
683.158	1	2
683.496	1	0
683.835	1	11
684.174	1	3
684.512	1	10
684.851	1	5
685.190	1	8
685.529	1	9
685.867	1	6
686.206	1	4
686.545	1	7
686.883	1	18
687.222	1	3
687.561	1	7
687.899	1	2
688.238	1	16
688.577	1	-8
688.746	1	9