File: Data/GaN_150K_450ms/GaN_sample D_spot15_UVVIS_150 K_200um_450 ms 2x2mm1_331.txt
340.368	1	4
340.710	1	4
341.052	1	10
341.394	1	-15
341.737	1	10
342.079	1	10
342.421	1	0
342.763	1	7
343.105	1	4
343.447	1	5
343.789	1	10
344.131	1	-7
344.473	1	1
344.815	1	3
345.157	1	7
345.499	1	7
345.841	1	12
346.183	1	3
346.526	1	0
346.868	1	-4
347.210	1	-2
347.552	1	20
347.894	1	-2
348.236	1	-3
348.578	1	-3
348.920	1	2
349.262	1	10
349.604	1	-7
349.946	1	-7
350.288	1	-3
350.630	1	-1
350.972	1	9
351.314	1	-2
351.656	1	2
351.998	1	2
352.340	1	6
352.682	1	-5
353.024	1	4
353.366	1	12
353.708	1	7
354.050	1	-10
354.392	1	-9
354.734	1	0
355.076	1	16
355.418	1	-1
355.760	1	12
356.102	1	-2
356.444	1	7
356.785	1	5
357.127	1	6
357.469	1	7
357.811	1	4
358.153	1	-12
358.495	1	3
358.837	1	12
359.179	1	-1
359.521	1	8
359.863	1	3
360.205	1	12
360.547	1	6
360.889	1	5
361.231	1	9
361.572	1	7
361.914	1	-2
362.256	1	14
362.598	1	9
362.940	1	4
363.282	1	-1
363.624	1	4
363.966	1	-1
364.308	1	10
364.649	1	6
364.991	1	3
365.333	1	0
365.675	1	13
366.017	1	13
366.359	1	4
366.701	1	2
367.042	1	17
367.384	1	2
367.726	1	8
368.068	1	24
368.410	1	7
368.752	1	23
369.093	1	10
369.435	1	15
369.777	1	12
370.119	1	6
370.461	1	5
370.803	1	3
371.144	1	6
371.486	1	13
371.828	1	-2
372.170	1	7
372.512	1	-1
372.853	1	10
373.195	1	8
373.537	1	-1
373.879	1	3
374.220	1	1
374.562	1	18
374.904	1	9
375.246	1	3
375.588	1	0
375.929	1	7
376.271	1	6
376.613	1	13
376.955	1	6
377.296	1	5
377.638	1	-5
377.980	1	-5
378.321	1	5
378.663	1	6
379.005	1	8
379.347	1	-1
379.688	1	5
380.030	1	11
380.372	1	12
380.714	1	6
381.055	1	6
381.397	1	-4
381.739	1	-10
382.080	1	-2
382.422	1	12
382.764	1	1
383.105	1	-1
383.447	1	-5
383.789	1	1
384.130	1	3
384.472	1	3
384.814	1	-2
385.156	1	12
385.497	1	11
385.839	1	2
386.180	1	5
386.522	1	1
386.864	1	-9
387.205	1	1
387.547	1	4
387.889	1	0
388.230	1	-1
388.572	1	-1
388.914	1	7
389.255	1	-5
389.597	1	4
389.939	1	8
390.280	1	-5
390.622	1	-2
390.963	1	-10
391.305	1	-5
391.647	1	-9
391.988	1	1
392.330	1	-1
392.671	1	1
393.013	1	6
393.355	1	9
393.696	1	-1
394.038	1	4
394.379	1	5
394.721	1	-4
395.062	1	0
395.404	1	16
395.746	1	-2
396.087	1	3
396.429	1	8
396.770	1	-6
397.112	1	5
397.453	1	5
397.795	1	0
398.136	1	5
398.478	1	-4
398.819	1	-4
399.161	1	7
399.503	1	10
399.844	1	-2
400.186	1	7
400.527	1	-1
400.869	1	5
401.210	1	7
401.552	1	-4
401.893	1	0
402.235	1	6
402.576	1	1
402.918	1	-8
403.259	1	6
403.601	1	1
403.942	1	7
404.284	1	15
404.625	1	1
404.967	1	2
405.308	1	-6
405.649	1	0
405.991	1	-1
406.332	1	5
406.674	1	-5
407.015	1	7
407.357	1	4
407.698	1	-3
408.040	1	17
408.381	1	-1
408.722	1	6
409.064	1	5
409.405	1	7
409.747	1	-10
410.088	1	5
410.430	1	14
410.771	1	2
411.112	1	6
411.454	1	8
411.795	1	2
412.137	1	6
412.478	1	5
412.819	1	15
413.161	1	5
413.502	1	1
413.844	1	11
414.185	1	9
414.526	1	0
414.868	1	-3
415.209	1	-4
415.550	1	-2
415.892	1	3
416.233	1	4
416.575	1	-10
416.916	1	-4
417.257	1	8
417.599	1	-1
417.940	1	-3
418.281	1	-2
418.623	1	-12
418.964	1	4
419.305	1	0
419.647	1	5
419.988	1	5
420.329	1	9
420.671	1	10
421.012	1	2
421.353	1	10
421.695	1	10
422.036	1	9
422.377	1	-3
422.718	1	1
423.060	1	5
423.401	1	1
423.742	1	10
424.084	1	6
424.425	1	5
424.766	1	6
425.107	1	4
425.449	1	-3
425.790	1	4
426.131	1	-5
426.472	1	9
426.814	1	10
427.155	1	3
427.496	1	-4
427.837	1	3
428.179	1	16
428.520	1	4
428.861	1	7
429.202	1	-3
429.544	1	-6
429.885	1	-2
430.226	1	-9
430.567	1	-11
430.909	1	-5
431.250	1	7
431.591	1	10
431.932	1	-5
432.273	1	16
432.615	1	5
432.956	1	7
433.297	1	6
433.638	1	1
433.979	1	5
434.320	1	0
434.662	1	7
435.003	1	4
435.344	1	-12
435.685	1	3
436.026	1	-6
436.368	1	1
436.709	1	-3
437.050	1	-5
437.391	1	-9
437.732	1	-3
438.073	1	-2
438.414	1	5
438.756	1	-3
439.097	1	7
439.438	1	6
439.779	1	0
440.120	1	-8
440.461	1	5
440.802	1	1
441.143	1	7
441.485	1	7
441.826	1	0
442.167	1	-5
442.508	1	-5
442.849	1	8
443.190	1	3
443.531	1	3
443.872	1	1
444.213	1	-9
444.554	1	-1
444.895	1	-9
445.237	1	2
445.578	1	-13
445.919	1	-2
446.260	1	16
446.601	1	0
446.942	1	-4
447.283	1	0
447.624	1	-7
447.965	1	1
448.306	1	5
448.647	1	6
448.988	1	10
449.329	1	12
449.670	1	1
450.011	1	5
450.352	1	-1
450.693	1	15
451.034	1	-10
451.375	1	-1
451.716	1	1
452.057	1	7
452.398	1	2
452.739	1	2
453.080	1	7
453.421	1	14
453.762	1	6
454.103	1	1
454.444	1	-5
454.785	1	6
455.126	1	0
455.467	1	2
455.808	1	10
456.149	1	-2
456.490	1	-9
456.831	1	-3
457.172	1	6
457.513	1	0
457.854	1	0
458.195	1	9
458.536	1	9
458.877	1	12
459.218	1	2
459.559	1	-2
459.899	1	6
460.240	1	-4
460.581	1	-8
460.922	1	3
461.263	1	9
461.604	1	4
461.945	1	7
462.286	1	-1
462.627	1	2
462.968	1	-6
463.309	1	0
463.649	1	3
463.990	1	4
464.331	1	5
464.672	1	7
465.013	1	1
465.354	1	14
465.695	1	4
466.036	1	10
466.376	1	7
466.717	1	-6
467.058	1	6
467.399	1	-3
467.740	1	9
468.081	1	1
468.422	1	12
468.762	1	1
469.103	1	3
469.444	1	1
469.785	1	-4
470.126	1	5
470.467	1	-2
470.807	1	6
471.148	1	-8
471.489	1	-4
471.830	1	5
472.171	1	2
472.511	1	7
472.852	1	4
473.193	1	6
473.534	1	-3
473.875	1	0
474.215	1	8
474.556	1	-4
474.897	1	-3
475.238	1	-3
475.578	1	-7
475.919	1	2
476.260	1	-1
476.601	1	5
476.942	1	0
477.282	1	-8
477.623	1	3
477.964	1	3
478.305	1	-2
478.645	1	-3
478.986	1	4
479.327	1	8
479.667	1	-2
480.008	1	11
480.349	1	-8
480.690	1	16
481.030	1	-4
481.371	1	-14
481.712	1	12
482.053	1	9
482.393	1	-3
482.734	1	4
483.075	1	4
483.415	1	-4
483.756	1	6
484.097	1	4
484.437	1	5
484.778	1	-3
485.119	1	-5
485.459	1	2
485.800	1	-4
486.141	1	7
486.481	1	-12
486.822	1	1
487.163	1	-6
487.503	1	1
487.844	1	-12
488.185	1	7
488.525	1	-7
488.866	1	-2
489.207	1	3
489.547	1	3
489.888	1	-3
490.228	1	4
490.569	1	-2
490.910	1	3
491.250	1	2
491.591	1	2
491.932	1	12
492.272	1	-1
492.613	1	-3
492.953	1	2
493.294	1	-7
493.635	1	-1
493.975	1	15
494.316	1	-5
494.656	1	3
494.997	1	-13
495.337	1	1
495.678	1	4
496.019	1	2
496.359	1	3
496.700	1	-7
497.040	1	2
497.381	1	5
497.721	1	-5
498.062	1	1
498.403	1	6
498.743	1	9
499.084	1	0
499.424	1	-2
499.765	1	4
500.105	1	10
500.446	1	-4
500.786	1	-8
501.127	1	0
501.467	1	2
501.808	1	-1
502.148	1	-4
502.489	1	-2
502.829	1	-9
503.170	1	1
503.510	1	-6
503.851	1	6
504.191	1	0
504.532	1	2
504.872	1	-9
505.213	1	-2
505.553	1	-10
505.894	1	9
506.234	1	10
506.575	1	13
506.915	1	-1
507.256	1	9
507.596	1	9
507.936	1	14
508.277	1	4
508.617	1	-4
508.958	1	10
509.298	1	-2
509.639	1	-3
509.979	1	-3
510.319	1	9
510.660	1	0
511.000	1	-3
511.341	1	1
511.681	1	5
512.022	1	-8
512.362	1	6
512.702	1	-4
513.043	1	6
513.383	1	0
513.724	1	-6
514.064	1	3
514.404	1	7
514.745	1	0
515.085	1	10
515.425	1	1
515.766	1	1
516.106	1	1
516.447	1	12
516.787	1	10
517.127	1	15
517.468	1	12
517.808	1	-11
518.148	1	8
518.489	1	-6
518.829	1	5
519.169	1	-8
519.510	1	-1
519.850	1	2
520.190	1	-2
520.531	1	0
520.871	1	3
521.211	1	7
521.552	1	1
521.892	1	-7
522.232	1	-1
522.573	1	-1
522.913	1	11
523.253	1	3
523.593	1	7
523.934	1	3
524.274	1	-8
524.614	1	6
524.955	1	1
525.295	1	7
525.635	1	6
525.975	1	2
526.316	1	-7
526.656	1	0
526.996	1	-2
527.337	1	12
527.677	1	12
528.017	1	-2
528.357	1	10
528.698	1	5
529.038	1	2
529.378	1	5
529.718	1	-4
530.058	1	3
530.399	1	-10
530.739	1	9
531.079	1	-2
531.419	1	4
531.760	1	0
532.100	1	6
532.440	1	3
532.780	1	6
533.120	1	-5
533.461	1	-2
533.801	1	4
534.141	1	-6
534.481	1	20
534.821	1	4
535.162	1	9
535.502	1	-2
535.842	1	-2
536.182	1	-3
536.522	1	-2
536.862	1	2
537.203	1	2
537.543	1	9
537.883	1	2
538.223	1	16
538.563	1	0
538.903	1	1
539.243	1	3
539.584	1	1
539.924	1	2
540.264	1	8
540.604	1	18
540.944	1	5
541.284	1	-6
541.624	1	-5
541.964	1	8
542.305	1	0
542.645	1	-4
542.985	1	2
543.325	1	15
543.665	1	-2
544.005	1	-6
544.345	1	2
544.685	1	3
545.025	1	3
545.365	1	7
545.705	1	3
546.045	1	3
546.386	1	-2
546.726	1	3
547.066	1	0
547.406	1	-5
547.746	1	-7
548.086	1	3
548.426	1	-3
548.766	1	2
549.106	1	-11
549.446	1	5
549.786	1	5
550.126	1	-5
550.466	1	1
550.806	1	18
551.146	1	-1
551.486	1	-5
551.826	1	-11
552.166	1	3
552.506	1	3
552.846	1	-1
553.186	1	1
553.526	1	3
553.866	1	0
554.206	1	8
554.546	1	6
554.886	1	0
555.226	1	2
555.566	1	9
555.906	1	-2
556.246	1	-3
556.586	1	3
556.926	1	-2
557.266	1	9
557.606	1	-10
557.946	1	4
558.286	1	-9
558.626	1	5
558.966	1	1
559.306	1	-2
559.646	1	0
559.986	1	9
560.325	1	0
560.665	1	-5
561.005	1	-2
561.345	1	3
561.685	1	4
562.025	1	11
562.365	1	6
562.705	1	5
563.045	1	-1
563.385	1	4
563.725	1	-6
564.064	1	-1
564.404	1	-4
564.744	1	6
565.084	1	-2
565.424	1	-9
565.764	1	-4
566.104	1	7
566.444	1	3
566.783	1	10
567.123	1	-5
567.463	1	14
567.803	1	10
568.143	1	10
568.483	1	2
568.823	1	1
569.162	1	-8
569.502	1	-1
569.842	1	2
570.182	1	-9
570.522	1	3
570.862	1	-14
571.201	1	11
571.541	1	1
571.881	1	-2
572.221	1	-3
572.561	1	8
572.900	1	12
573.240	1	-6
573.580	1	3
573.920	1	2
574.260	1	5
574.599	1	8
574.939	1	0
575.279	1	9
575.619	1	-3
575.959	1	6
576.298	1	-3
576.638	1	3
576.978	1	2
577.318	1	2
577.657	1	-3
577.997	1	9
578.337	1	1
578.677	1	2
579.016	1	7
579.356	1	-1
579.696	1	7
580.036	1	-3
580.375	1	4
580.715	1	2
581.055	1	-1
581.394	1	4
581.734	1	-3
582.074	1	-4
582.414	1	-3
582.753	1	1
583.093	1	0
583.433	1	12
583.772	1	0
584.112	1	-1
584.452	1	2
584.791	1	0
585.131	1	2
585.471	1	4
585.811	1	12
586.150	1	2
586.490	1	1
586.830	1	-5
587.169	1	0
587.509	1	-1
587.849	1	7
588.188	1	5
588.528	1	12
588.867	1	5
589.207	1	8
589.547	1	9
589.886	1	2
590.226	1	-9
590.566	1	4
590.905	1	6
591.245	1	0
591.585	1	-5
591.924	1	-8
592.264	1	3
592.603	1	-17
592.943	1	-9
593.283	1	2
593.622	1	-12
593.962	1	-2
594.301	1	5
594.641	1	8
594.981	1	2
595.320	1	2
595.660	1	8
595.999	1	9
596.339	1	3
596.678	1	-8
597.018	1	-5
597.358	1	-2
597.697	1	-2
598.037	1	-7
598.376	1	-6
598.716	1	2
599.055	1	-4
599.395	1	3
599.734	1	1
600.074	1	-4
600.413	1	4
600.753	1	3
601.092	1	-3
601.432	1	-2
601.771	1	3
602.111	1	-3
602.451	1	-1
602.790	1	1
603.130	1	8
603.469	1	7
603.809	1	6
604.148	1	-5
604.487	1	2
604.827	1	2
605.166	1	-9
605.506	1	-10
605.845	1	9
606.185	1	4
606.524	1	-12
606.864	1	11
607.203	1	8
607.543	1	0
607.882	1	4
608.222	1	-6
608.561	1	-1
608.901	1	8
609.240	1	7
609.579	1	2
609.919	1	-8
610.258	1	13
610.598	1	-2
610.937	1	1
611.277	1	1
611.616	1	6
611.955	1	-3
612.295	1	0
612.634	1	-2
612.974	1	-8
613.313	1	7
613.652	1	9
613.992	1	6
614.331	1	9
614.671	1	-3
615.010	1	3
615.349	1	0
615.689	1	-5
616.028	1	17
616.368	1	9
616.707	1	3
617.046	1	-2
617.386	1	7
617.725	1	3
618.064	1	9
618.404	1	-4
618.743	1	4
619.082	1	13
619.422	1	9
619.761	1	-1
620.100	1	-1
620.440	1	4
620.779	1	6
621.118	1	8
621.458	1	4
621.797	1	4
622.136	1	-6
622.476	1	2
622.815	1	10
623.154	1	-2
623.494	1	-12
623.833	1	5
624.172	1	6
624.511	1	-1
624.851	1	0
625.190	1	4
625.529	1	3
625.869	1	4
626.208	1	-10
626.547	1	-1
626.886	1	1
627.226	1	4
627.565	1	11
627.904	1	-8
628.243	1	13
628.583	1	4
628.922	1	6
629.261	1	3
629.600	1	-5
629.940	1	-2
630.279	1	5
630.618	1	5
630.957	1	-1
631.297	1	3
631.636	1	2
631.975	1	3
632.314	1	0
632.653	1	-12
632.993	1	2
633.332	1	7
633.671	1	-1
634.010	1	-5
634.349	1	10
634.689	1	-9
635.028	1	-6
635.367	1	8
635.706	1	-4
636.045	1	0
636.384	1	9
636.724	1	0
637.063	1	-7
637.402	1	14
637.741	1	1
638.080	1	4
638.419	1	10
638.759	1	-4
639.098	1	2
639.437	1	3
639.776	1	2
640.115	1	-3
640.454	1	5
640.793	1	4
641.132	1	-5
641.472	1	-1
641.811	1	4
642.150	1	-1
642.489	1	4
642.828	1	15
643.167	1	0
643.506	1	2
643.845	1	6
644.184	1	8
644.524	1	-4
644.863	1	4
645.202	1	-3
645.541	1	5
645.880	1	1
646.219	1	8
646.558	1	-7
646.897	1	-8
647.236	1	-5
647.575	1	11
647.914	1	16
648.253	1	11
648.592	1	9
648.931	1	13
649.270	1	1
649.610	1	5
649.949	1	-10
650.288	1	7
650.627	1	-2
650.966	1	2
651.305	1	0
651.644	1	7
651.983	1	-5
652.322	1	9
652.661	1	4
653.000	1	-1
653.339	1	1
653.678	1	12
654.017	1	7
654.356	1	5
654.695	1	12
655.034	1	-7
655.373	1	7
655.712	1	1
656.051	1	-8
656.390	1	2
656.729	1	9
657.068	1	4
657.406	1	-6
657.745	1	12
658.084	1	8
658.423	1	3
658.762	1	-8
659.101	1	-4
659.440	1	4
659.779	1	6
660.118	1	5
660.457	1	-2
660.796	1	6
661.135	1	3
661.474	1	-1
661.813	1	9
662.152	1	4
662.491	1	-3
662.829	1	-6
663.168	1	-5
663.507	1	5
663.846	1	-5
664.185	1	-1
664.524	1	7
664.863	1	-19
665.202	1	8
665.541	1	5
665.879	1	6
666.218	1	7
666.557	1	2
666.896	1	4
667.235	1	-4
667.574	1	1
667.913	1	-4
668.251	1	-10
668.590	1	-3
668.929	1	5
669.268	1	6
669.607	1	-9
669.946	1	-1
670.285	1	-2
670.623	1	3
670.962	1	-4
671.301	1	-2
671.640	1	-2
671.979	1	-4
672.317	1	6
672.656	1	3
672.995	1	4
673.334	1	-7
673.673	1	6
674.011	1	7
674.350	1	2
674.689	1	1
675.028	1	5
675.367	1	7
675.705	1	-9
676.044	1	-1
676.383	1	2
676.722	1	2
677.060	1	2
677.399	1	9
677.738	1	-2
678.077	1	-3
678.416	1	-4
678.754	1	9
679.093	1	7
679.432	1	-12
679.771	1	7
680.109	1	7
680.448	1	-2
680.787	1	0
681.125	1	-1
681.464	1	8
681.803	1	-7
682.142	1	4
682.480	1	-5
682.819	1	-1
683.158	1	-4
683.496	1	-7
683.835	1	5
684.174	1	-2
684.512	1	-10
684.851	1	-1
685.190	1	-5
685.529	1	-7
685.867	1	1
686.206	1	-10
686.545	1	0
686.883	1	3
687.222	1	3
687.561	1	-4
687.899	1	0
688.238	1	8
688.577	1	2
688.746	1	4