File: Data/GaN_150K_450ms/GaN_sample D_spot15_UVVIS_150 K_200um_450 ms 2x2mm1_137.txt
340.368	1	2
340.710	1	-2
341.052	1	6
341.394	1	0
341.737	1	2
342.079	1	3
342.421	1	-4
342.763	1	-2
343.105	1	7
343.447	1	6
343.789	1	3
344.131	1	-11
344.473	1	4
344.815	1	9
345.157	1	7
345.499	1	4
345.841	1	2
346.183	1	13
346.526	1	12
346.868	1	4
347.210	1	-6
347.552	1	8
347.894	1	3
348.236	1	5
348.578	1	5
348.920	1	3
349.262	1	12
349.604	1	-4
349.946	1	9
350.288	1	-5
350.630	1	6
350.972	1	12
351.314	1	-8
351.656	1	17
351.998	1	12
352.340	1	8
352.682	1	-9
353.024	1	14
353.366	1	14
353.708	1	0
354.050	1	3
354.392	1	-4
354.734	1	7
355.076	1	21
355.418	1	4
355.760	1	6
356.102	1	9
356.444	1	16
356.785	1	9
357.127	1	7
357.469	1	7
357.811	1	4
358.153	1	-8
358.495	1	6
358.837	1	11
359.179	1	10
359.521	1	20
359.863	1	7
360.205	1	22
360.547	1	17
360.889	1	13
361.231	1	21
361.572	1	14
361.914	1	19
362.256	1	16
362.598	1	20
362.940	1	27
363.282	1	14
363.624	1	16
363.966	1	25
364.308	1	28
364.649	1	17
364.991	1	26
365.333	1	25
365.675	1	40
366.017	1	48
366.359	1	25
366.701	1	42
367.042	1	39
367.384	1	45
367.726	1	48
368.068	1	59
368.410	1	51
368.752	1	63
369.093	1	54
369.435	1	47
369.777	1	53
370.119	1	39
370.461	1	43
370.803	1	46
371.144	1	41
371.486	1	40
371.828	1	30
372.170	1	42
372.512	1	30
372.853	1	53
373.195	1	34
373.537	1	21
373.879	1	34
374.220	1	35
374.562	1	30
374.904	1	26
375.246	1	15
375.588	1	23
375.929	1	17
376.271	1	21
376.613	1	18
376.955	1	20
377.296	1	21
377.638	1	10
377.980	1	15
378.321	1	13
378.663	1	9
379.005	1	8
379.347	1	24
379.688	1	31
380.030	1	19
380.372	1	22
380.714	1	16
381.055	1	14
381.397	1	8
381.739	1	8
382.080	1	11
382.422	1	13
382.764	1	10
383.105	1	12
383.447	1	19
383.789	1	1
384.130	1	10
384.472	1	8
384.814	1	16
385.156	1	1
385.497	1	17
385.839	1	7
386.180	1	12
386.522	1	14
386.864	1	4
387.205	1	4
387.547	1	17
387.889	1	0
388.230	1	4
388.572	1	-2
388.914	1	20
389.255	1	4
389.597	1	-2
389.939	1	10
390.280	1	5
390.622	1	7
390.963	1	-1
391.305	1	2
391.647	1	13
391.988	1	7
392.330	1	4
392.671	1	10
393.013	1	9
393.355	1	17
393.696	1	5
394.038	1	3
394.379	1	6
394.721	1	3
395.062	1	2
395.404	1	7
395.746	1	3
396.087	1	12
396.429	1	12
396.770	1	12
397.112	1	2
397.453	1	-8
397.795	1	11
398.136	1	10
398.478	1	1
398.819	1	9
399.161	1	13
399.503	1	20
399.844	1	6
400.186	1	7
400.527	1	4
400.869	1	0
401.210	1	12
401.552	1	7
401.893	1	8
402.235	1	12
402.576	1	12
402.918	1	-7
403.259	1	-1
403.601	1	14
403.942	1	4
404.284	1	18
404.625	1	4
404.967	1	8
405.308	1	-3
405.649	1	8
405.991	1	10
406.332	1	3
406.674	1	18
407.015	1	14
407.357	1	17
407.698	1	7
408.040	1	25
408.381	1	2
408.722	1	15
409.064	1	18
409.405	1	9
409.747	1	7
410.088	1	19
410.430	1	16
410.771	1	13
411.112	1	7
411.454	1	8
411.795	1	2
412.137	1	9
412.478	1	21
412.819	1	18
413.161	1	6
413.502	1	14
413.844	1	16
414.185	1	3
414.526	1	10
414.868	1	7
415.209	1	9
415.550	1	5
415.892	1	20
416.233	1	16
416.575	1	0
416.916	1	7
417.257	1	8
417.599	1	12
417.940	1	5
418.281	1	12
418.623	1	9
418.964	1	23
419.305	1	24
419.647	1	12
419.988	1	17
420.329	1	22
420.671	1	13
421.012	1	5
421.353	1	25
421.695	1	12
422.036	1	19
422.377	1	12
422.718	1	16
423.060	1	19
423.401	1	-2
423.742	1	19
424.084	1	12
424.425	1	18
424.766	1	12
425.107	1	7
425.449	1	10
425.790	1	10
426.131	1	12
426.472	1	16
426.814	1	6
427.155	1	10
427.496	1	15
427.837	1	4
428.179	1	14
428.520	1	8
428.861	1	20
429.202	1	5
429.544	1	14
429.885	1	15
430.226	1	-1
430.567	1	-2
430.909	1	-2
431.250	1	16
431.591	1	5
431.932	1	8
432.273	1	21
432.615	1	-3
432.956	1	6
433.297	1	8
433.638	1	15
433.979	1	17
434.320	1	11
434.662	1	18
435.003	1	23
435.344	1	10
435.685	1	6
436.026	1	1
436.368	1	5
436.709	1	0
437.050	1	8
437.391	1	5
437.732	1	12
438.073	1	-1
438.414	1	14
438.756	1	10
439.097	1	8
439.438	1	6
439.779	1	3
440.120	1	1
440.461	1	9
440.802	1	6
441.143	1	5
441.485	1	4
441.826	1	5
442.167	1	12
442.508	1	4
442.849	1	19
443.190	1	10
443.531	1	3
443.872	1	0
444.213	1	-3
444.554	1	16
444.895	1	13
445.237	1	9
445.578	1	10
445.919	1	14
446.260	1	17
446.601	1	7
446.942	1	2
447.283	1	8
447.624	1	-2
447.965	1	4
448.306	1	11
448.647	1	2
448.988	1	17
449.329	1	7
449.670	1	3
450.011	1	6
450.352	1	7
450.693	1	8
451.034	1	7
451.375	1	12
451.716	1	6
452.057	1	5
452.398	1	11
452.739	1	7
453.080	1	6
453.421	1	12
453.762	1	12
454.103	1	4
454.444	1	9
454.785	1	4
455.126	1	10
455.467	1	9
455.808	1	9
456.149	1	3
456.490	1	0
456.831	1	13
457.172	1	12
457.513	1	5
457.854	1	11
458.195	1	10
458.536	1	12
458.877	1	3
459.218	1	19
459.559	1	10
459.899	1	4
460.240	1	5
460.581	1	1
460.922	1	5
461.263	1	9
461.604	1	11
461.945	1	9
462.286	1	8
462.627	1	3
462.968	1	17
463.309	1	6
463.649	1	2
463.990	1	3
464.331	1	9
464.672	1	15
465.013	1	6
465.354	1	11
465.695	1	8
466.036	1	9
466.376	1	19
466.717	1	3
467.058	1	7
467.399	1	2
467.740	1	15
468.081	1	9
468.422	1	11
468.762	1	3
469.103	1	6
469.444	1	3
469.785	1	5
470.126	1	11
470.467	1	12
470.807	1	13
471.148	1	-9
471.489	1	7
471.830	1	1
472.171	1	9
472.511	1	7
472.852	1	10
473.193	1	9
473.534	1	7
473.875	1	6
474.215	1	9
474.556	1	5
474.897	1	-2
475.238	1	2
475.578	1	-8
475.919	1	5
476.260	1	3
476.601	1	4
476.942	1	1
477.282	1	-1
477.623	1	2
477.964	1	12
478.305	1	6
478.645	1	7
478.986	1	9
479.327	1	3
479.667	1	7
480.008	1	12
480.349	1	6
480.690	1	12
481.030	1	2
481.371	1	-6
481.712	1	11
482.053	1	22
482.393	1	5
482.734	1	16
483.075	1	1
483.415	1	10
483.756	1	1
484.097	1	13
484.437	1	9
484.778	1	-8
485.119	1	14
485.459	1	-1
485.800	1	-1
486.141	1	12
486.481	1	1
486.822	1	15
487.163	1	-5
487.503	1	1
487.844	1	-2
488.185	1	9
488.525	1	-4
488.866	1	0
489.207	1	13
489.547	1	14
489.888	1	6
490.228	1	13
490.569	1	3
490.910	1	12
491.250	1	10
491.591	1	11
491.932	1	3
492.272	1	-4
492.613	1	1
492.953	1	6
493.294	1	-3
493.635	1	14
493.975	1	18
494.316	1	6
494.656	1	13
494.997	1	-3
495.337	1	4
495.678	1	-1
496.019	1	9
496.359	1	0
496.700	1	15
497.040	1	-3
497.381	1	8
497.721	1	-2
498.062	1	10
498.403	1	11
498.743	1	14
499.084	1	13
499.424	1	8
499.765	1	11
500.105	1	19
500.446	1	1
500.786	1	3
501.127	1	17
501.467	1	6
501.808	1	13
502.148	1	3
502.489	1	4
502.829	1	-1
503.170	1	17
503.510	1	2
503.851	1	14
504.191	1	14
504.532	1	19
504.872	1	7
505.213	1	-3
505.553	1	16
505.894	1	12
506.234	1	12
506.575	1	20
506.915	1	12
507.256	1	16
507.596	1	18
507.936	1	14
508.277	1	18
508.617	1	6
508.958	1	15
509.298	1	-5
509.639	1	4
509.979	1	3
510.319	1	12
510.660	1	5
511.000	1	10
511.341	1	13
511.681	1	11
512.022	1	4
512.362	1	21
512.702	1	5
513.043	1	13
513.383	1	7
513.724	1	12
514.064	1	21
514.404	1	12
514.745	1	10
515.085	1	12
515.425	1	14
515.766	1	15
516.106	1	0
516.447	1	12
516.787	1	18
517.127	1	21
517.468	1	26
517.808	1	7
518.148	1	12
518.489	1	18
518.829	1	13
519.169	1	11
519.510	1	4
519.850	1	18
520.190	1	9
520.531	1	13
520.871	1	17
521.211	1	12
521.552	1	11
521.892	1	7
522.232	1	13
522.573	1	20
522.913	1	17
523.253	1	17
523.593	1	16
523.934	1	8
524.274	1	13
524.614	1	14
524.955	1	4
525.295	1	17
525.635	1	14
525.975	1	13
526.316	1	-8
526.656	1	11
526.996	1	10
527.337	1	19
527.677	1	28
528.017	1	3
528.357	1	10
528.698	1	23
529.038	1	18
529.378	1	15
529.718	1	5
530.058	1	18
530.399	1	7
530.739	1	19
531.079	1	14
531.419	1	13
531.760	1	22
532.100	1	19
532.440	1	12
532.780	1	18
533.120	1	3
533.461	1	9
533.801	1	15
534.141	1	14
534.481	1	25
534.821	1	18
535.162	1	14
535.502	1	11
535.842	1	9
536.182	1	6
536.522	1	4
536.862	1	10
537.203	1	9
537.543	1	12
537.883	1	14
538.223	1	17
538.563	1	8
538.903	1	10
539.243	1	11
539.584	1	9
539.924	1	10
540.264	1	17
540.604	1	18
540.944	1	10
541.284	1	9
541.624	1	16
541.964	1	13
542.305	1	20
542.645	1	4
542.985	1	11
543.325	1	8
543.665	1	13
544.005	1	16
544.345	1	17
544.685	1	6
545.025	1	15
545.365	1	18
545.705	1	15
546.045	1	18
546.386	1	8
546.726	1	8
547.066	1	14
547.406	1	7
547.746	1	-2
548.086	1	12
548.426	1	8
548.766	1	17
549.106	1	6
549.446	1	5
549.786	1	14
550.126	1	18
550.466	1	10
550.806	1	27
551.146	1	5
551.486	1	5
551.826	1	7
552.166	1	9
552.506	1	5
552.846	1	16
553.186	1	12
553.526	1	9
553.866	1	3
554.206	1	16
554.546	1	10
554.886	1	3
555.226	1	12
555.566	1	4
555.906	1	5
556.246	1	21
556.586	1	7
556.926	1	15
557.266	1	6
557.606	1	-2
557.946	1	13
558.286	1	2
558.626	1	13
558.966	1	3
559.306	1	17
559.646	1	9
559.986	1	11
560.325	1	0
560.665	1	10
561.005	1	11
561.345	1	12
561.685	1	14
562.025	1	2
562.365	1	3
562.705	1	10
563.045	1	6
563.385	1	9
563.725	1	10
564.064	1	3
564.404	1	-1
564.744	1	15
565.084	1	7
565.424	1	4
565.764	1	4
566.104	1	17
566.444	1	20
566.783	1	8
567.123	1	13
567.463	1	5
567.803	1	4
568.143	1	5
568.483	1	14
568.823	1	7
569.162	1	2
569.502	1	2
569.842	1	9
570.182	1	7
570.522	1	-1
570.862	1	-10
571.201	1	14
571.541	1	5
571.881	1	3
572.221	1	6
572.561	1	14
572.900	1	15
573.240	1	-3
573.580	1	8
573.920	1	11
574.260	1	11
574.599	1	8
574.939	1	9
575.279	1	9
575.619	1	11
575.959	1	4
576.298	1	0
576.638	1	20
576.978	1	2
577.318	1	11
577.657	1	-5
577.997	1	11
578.337	1	2
578.677	1	5
579.016	1	8
579.356	1	8
579.696	1	11
580.036	1	4
580.375	1	17
580.715	1	12
581.055	1	6
581.394	1	6
581.734	1	10
582.074	1	6
582.414	1	8
582.753	1	4
583.093	1	9
583.433	1	12
583.772	1	17
584.112	1	7
584.452	1	9
584.791	1	10
585.131	1	4
585.471	1	0
585.811	1	5
586.150	1	15
586.490	1	11
586.830	1	3
587.169	1	1
587.509	1	7
587.849	1	5
588.188	1	10
588.528	1	0
588.867	1	8
589.207	1	6
589.547	1	13
589.886	1	10
590.226	1	2
590.566	1	12
590.905	1	8
591.245	1	6
591.585	1	8
591.924	1	-3
592.264	1	5
592.603	1	-4
592.943	1	7
593.283	1	13
593.622	1	-2
593.962	1	19
594.301	1	0
594.641	1	8
594.981	1	2
595.320	1	22
595.660	1	5
595.999	1	7
596.339	1	4
596.678	1	-5
597.018	1	-7
597.358	1	1
597.697	1	0
598.037	1	10
598.376	1	7
598.716	1	10
599.055	1	5
599.395	1	-2
599.734	1	10
600.074	1	1
600.413	1	10
600.753	1	4
601.092	1	-5
601.432	1	-3
601.771	1	10
602.111	1	5
602.451	1	3
602.790	1	1
603.130	1	6
603.469	1	8
603.809	1	0
604.148	1	1
604.487	1	5
604.827	1	9
605.166	1	6
605.506	1	5
605.845	1	6
606.185	1	-2
606.524	1	-4
606.864	1	24
607.203	1	11
607.543	1	0
607.882	1	5
608.222	1	5
608.561	1	8
608.901	1	7
609.240	1	3
609.579	1	4
609.919	1	-1
610.258	1	13
610.598	1	0
610.937	1	1
611.277	1	12
611.616	1	12
611.955	1	4
612.295	1	10
612.634	1	0
612.974	1	-3
613.313	1	4
613.652	1	12
613.992	1	5
614.331	1	16
614.671	1	8
615.010	1	3
615.349	1	16
615.689	1	4
616.028	1	25
616.368	1	10
616.707	1	13
617.046	1	1
617.386	1	7
617.725	1	0
618.064	1	4
618.404	1	0
618.743	1	6
619.082	1	10
619.422	1	11
619.761	1	4
620.100	1	15
620.440	1	3
620.779	1	10
621.118	1	16
621.458	1	5
621.797	1	1
622.136	1	-6
622.476	1	9
622.815	1	10
623.154	1	-3
623.494	1	-10
623.833	1	4
624.172	1	8
624.511	1	1
624.851	1	2
625.190	1	0
625.529	1	2
625.869	1	7
626.208	1	-3
626.547	1	3
626.886	1	2
627.226	1	6
627.565	1	3
627.904	1	2
628.243	1	18
628.583	1	17
628.922	1	11
629.261	1	4
629.600	1	4
629.940	1	8
630.279	1	5
630.618	1	12
630.957	1	3
631.297	1	4
631.636	1	6
631.975	1	16
632.314	1	7
632.653	1	-1
632.993	1	5
633.332	1	1
633.671	1	5
634.010	1	0
634.349	1	10
634.689	1	-4
635.028	1	-5
635.367	1	18
635.706	1	4
636.045	1	-3
636.384	1	14
636.724	1	1
637.063	1	3
637.402	1	9
637.741	1	1
638.080	1	2
638.419	1	-3
638.759	1	7
639.098	1	5
639.437	1	12
639.776	1	5
640.115	1	0
640.454	1	-12
640.793	1	5
641.132	1	-1
641.472	1	13
641.811	1	1
642.150	1	-3
642.489	1	8
642.828	1	17
643.167	1	2
643.506	1	0
643.845	1	2
644.184	1	21
644.524	1	-5
644.863	1	4
645.202	1	2
645.541	1	3
645.880	1	4
646.219	1	3
646.558	1	-10
646.897	1	0
647.236	1	-5
647.575	1	4
647.914	1	7
648.253	1	14
648.592	1	7
648.931	1	10
649.270	1	6
649.610	1	0
649.949	1	6
650.288	1	5
650.627	1	11
650.966	1	9
651.305	1	1
651.644	1	14
651.983	1	-2
652.322	1	1
652.661	1	5
653.000	1	3
653.339	1	4
653.678	1	6
654.017	1	11
654.356	1	12
654.695	1	12
655.034	1	-2
655.373	1	-1
655.712	1	11
656.051	1	-6
656.390	1	-1
656.729	1	1
657.068	1	0
657.406	1	0
657.745	1	14
658.084	1	5
658.423	1	15
658.762	1	-6
659.101	1	-1
659.440	1	9
659.779	1	3
660.118	1	-7
660.457	1	4
660.796	1	9
661.135	1	12
661.474	1	10
661.813	1	0
662.152	1	8
662.491	1	0
662.829	1	8
663.168	1	0
663.507	1	-5
663.846	1	2
664.185	1	2
664.524	1	14
664.863	1	-5
665.202	1	7
665.541	1	-4
665.879	1	11
666.218	1	10
666.557	1	3
666.896	1	7
667.235	1	-7
667.574	1	-6
667.913	1	8
668.251	1	-5
668.590	1	4
668.929	1	7
669.268	1	3
669.607	1	0
669.946	1	1
670.285	1	4
670.623	1	10
670.962	1	4
671.301	1	1
671.640	1	8
671.979	1	-7
672.317	1	3
672.656	1	9
672.995	1	10
673.334	1	-1
673.673	1	9
674.011	1	7
674.350	1	3
674.689	1	-6
675.028	1	9
675.367	1	7
675.705	1	-4
676.044	1	2
676.383	1	6
676.722	1	5
677.060	1	7
677.399	1	20
677.738	1	-3
678.077	1	5
678.416	1	-6
678.754	1	8
679.093	1	15
679.432	1	-5
679.771	1	5
680.109	1	8
680.448	1	-2
680.787	1	-1
681.125	1	6
681.464	1	8
681.803	1	3
682.142	1	8
682.480	1	-3
682.819	1	0
683.158	1	0
683.496	1	-9
683.835	1	8
684.174	1	5
684.512	1	8
684.851	1	1
685.190	1	2
685.529	1	5
685.867	1	3
686.206	1	2
686.545	1	4
686.883	1	9
687.222	1	-7
687.561	1	-1
687.899	1	-1
688.238	1	12
688.577	1	10
688.746	1	5