File: Data/GaN_150K_450ms/GaN_sample D_spot15_UVVIS_150 K_200um_450 ms 2x2mm1_273.txt
340.368	1	3
340.710	1	-2
341.052	1	8
341.394	1	-9
341.737	1	12
342.079	1	0
342.421	1	2
342.763	1	1
343.105	1	5
343.447	1	3
343.789	1	7
344.131	1	-3
344.473	1	6
344.815	1	2
345.157	1	9
345.499	1	7
345.841	1	6
346.183	1	3
346.526	1	7
346.868	1	-8
347.210	1	-3
347.552	1	15
347.894	1	-2
348.236	1	2
348.578	1	6
348.920	1	15
349.262	1	10
349.604	1	0
349.946	1	-4
350.288	1	5
350.630	1	2
350.972	1	-1
351.314	1	-1
351.656	1	11
351.998	1	-3
352.340	1	3
352.682	1	-16
353.024	1	12
353.366	1	12
353.708	1	-2
354.050	1	-13
354.392	1	-5
354.734	1	2
355.076	1	17
355.418	1	2
355.760	1	6
356.102	1	-2
356.444	1	12
356.785	1	3
357.127	1	8
357.469	1	15
357.811	1	3
358.153	1	-7
358.495	1	-3
358.837	1	12
359.179	1	6
359.521	1	10
359.863	1	-5
360.205	1	12
360.547	1	13
360.889	1	-1
361.231	1	10
361.572	1	14
361.914	1	8
362.256	1	12
362.598	1	18
362.940	1	9
363.282	1	13
363.624	1	9
363.966	1	-4
364.308	1	8
364.649	1	5
364.991	1	15
365.333	1	9
365.675	1	15
366.017	1	10
366.359	1	2
366.701	1	5
367.042	1	15
367.384	1	4
367.726	1	17
368.068	1	16
368.410	1	18
368.752	1	22
369.093	1	13
369.435	1	14
369.777	1	22
370.119	1	19
370.461	1	13
370.803	1	7
371.144	1	8
371.486	1	22
371.828	1	12
372.170	1	5
372.512	1	0
372.853	1	23
373.195	1	2
373.537	1	1
373.879	1	2
374.220	1	4
374.562	1	15
374.904	1	12
375.246	1	4
375.588	1	-2
375.929	1	14
376.271	1	8
376.613	1	11
376.955	1	0
377.296	1	13
377.638	1	5
377.980	1	-3
378.321	1	10
378.663	1	8
379.005	1	7
379.347	1	6
379.688	1	16
380.030	1	16
380.372	1	3
380.714	1	6
381.055	1	1
381.397	1	0
381.739	1	-7
382.080	1	6
382.422	1	2
382.764	1	1
383.105	1	1
383.447	1	3
383.789	1	-6
384.130	1	0
384.472	1	6
384.814	1	8
385.156	1	2
385.497	1	4
385.839	1	2
386.180	1	10
386.522	1	2
386.864	1	-1
387.205	1	-4
387.547	1	6
387.889	1	-4
388.230	1	2
388.572	1	-4
388.914	1	2
389.255	1	2
389.597	1	-1
389.939	1	8
390.280	1	-4
390.622	1	1
390.963	1	-11
391.305	1	1
391.647	1	7
391.988	1	3
392.330	1	4
392.671	1	12
393.013	1	9
393.355	1	8
393.696	1	13
394.038	1	11
394.379	1	2
394.721	1	-5
395.062	1	-9
395.404	1	2
395.746	1	5
396.087	1	6
396.429	1	6
396.770	1	4
397.112	1	5
397.453	1	-6
397.795	1	2
398.136	1	3
398.478	1	-1
398.819	1	0
399.161	1	12
399.503	1	7
399.844	1	-1
400.186	1	4
400.527	1	14
400.869	1	1
401.210	1	-1
401.552	1	2
401.893	1	4
402.235	1	-2
402.576	1	1
402.918	1	5
403.259	1	2
403.601	1	1
403.942	1	-6
404.284	1	7
404.625	1	-3
404.967	1	-1
405.308	1	-7
405.649	1	-5
405.991	1	5
406.332	1	-2
406.674	1	-5
407.015	1	11
407.357	1	10
407.698	1	11
408.040	1	11
408.381	1	-14
408.722	1	7
409.064	1	3
409.405	1	8
409.747	1	1
410.088	1	4
410.430	1	12
410.771	1	12
411.112	1	8
411.454	1	1
411.795	1	9
412.137	1	1
412.478	1	7
412.819	1	6
413.161	1	11
413.502	1	0
413.844	1	11
414.185	1	0
414.526	1	0
414.868	1	-8
415.209	1	5
415.550	1	-3
415.892	1	8
416.233	1	12
416.575	1	-8
416.916	1	-2
417.257	1	9
417.599	1	7
417.940	1	-3
418.281	1	5
418.623	1	-9
418.964	1	9
419.305	1	10
419.647	1	1
419.988	1	8
420.329	1	-1
420.671	1	4
421.012	1	-6
421.353	1	3
421.695	1	0
422.036	1	12
422.377	1	8
422.718	1	9
423.060	1	6
423.401	1	4
423.742	1	11
424.084	1	1
424.425	1	11
424.766	1	-4
425.107	1	-1
425.449	1	-4
425.790	1	4
426.131	1	-12
426.472	1	4
426.814	1	4
427.155	1	11
427.496	1	5
427.837	1	1
428.179	1	17
428.520	1	2
428.861	1	5
429.202	1	-1
429.544	1	0
429.885	1	6
430.226	1	-7
430.567	1	-4
430.909	1	-6
431.250	1	7
431.591	1	7
431.932	1	-2
432.273	1	9
432.615	1	5
432.956	1	-1
433.297	1	0
433.638	1	-3
433.979	1	8
434.320	1	12
434.662	1	5
435.003	1	8
435.344	1	4
435.685	1	3
436.026	1	3
436.368	1	-3
436.709	1	1
437.050	1	-12
437.391	1	-1
437.732	1	6
438.073	1	-2
438.414	1	12
438.756	1	-3
439.097	1	13
439.438	1	-1
439.779	1	3
440.120	1	-4
440.461	1	-1
440.802	1	8
441.143	1	2
441.485	1	1
441.826	1	-2
442.167	1	-1
442.508	1	4
442.849	1	5
443.190	1	-2
443.531	1	7
443.872	1	-1
444.213	1	4
444.554	1	2
444.895	1	0
445.237	1	8
445.578	1	-5
445.919	1	-4
446.260	1	11
446.601	1	6
446.942	1	0
447.283	1	8
447.624	1	-6
447.965	1	0
448.306	1	1
448.647	1	1
448.988	1	1
449.329	1	4
449.670	1	1
450.011	1	-3
450.352	1	-2
450.693	1	2
451.034	1	4
451.375	1	-3
451.716	1	-8
452.057	1	7
452.398	1	3
452.739	1	8
453.080	1	-5
453.421	1	6
453.762	1	8
454.103	1	-4
454.444	1	0
454.785	1	3
455.126	1	4
455.467	1	10
455.808	1	8
456.149	1	-1
456.490	1	-1
456.831	1	-3
457.172	1	7
457.513	1	-4
457.854	1	0
458.195	1	-3
458.536	1	-1
458.877	1	13
459.218	1	7
459.559	1	1
459.899	1	1
460.240	1	0
460.581	1	-6
460.922	1	6
461.263	1	8
461.604	1	1
461.945	1	9
462.286	1	5
462.627	1	2
462.968	1	5
463.309	1	-1
463.649	1	-6
463.990	1	-5
464.331	1	1
464.672	1	6
465.013	1	-1
465.354	1	10
465.695	1	7
466.036	1	13
466.376	1	13
466.717	1	-6
467.058	1	-3
467.399	1	-7
467.740	1	11
468.081	1	8
468.422	1	4
468.762	1	6
469.103	1	-2
469.444	1	6
469.785	1	-5
470.126	1	5
470.467	1	0
470.807	1	5
471.148	1	4
471.489	1	14
471.830	1	6
472.171	1	8
472.511	1	2
472.852	1	4
473.193	1	4
473.534	1	3
473.875	1	4
474.215	1	5
474.556	1	0
474.897	1	-3
475.238	1	6
475.578	1	-10
475.919	1	-2
476.260	1	1
476.601	1	4
476.942	1	6
477.282	1	-1
477.623	1	0
477.964	1	11
478.305	1	8
478.645	1	5
478.986	1	5
479.327	1	4
479.667	1	-2
480.008	1	14
480.349	1	3
480.690	1	8
481.030	1	3
481.371	1	0
481.712	1	14
482.053	1	15
482.393	1	6
482.734	1	2
483.075	1	5
483.415	1	5
483.756	1	-3
484.097	1	4
484.437	1	4
484.778	1	-4
485.119	1	1
485.459	1	0
485.800	1	-4
486.141	1	3
486.481	1	-9
486.822	1	10
487.163	1	0
487.503	1	1
487.844	1	-4
488.185	1	2
488.525	1	2
488.866	1	-4
489.207	1	3
489.547	1	-2
489.888	1	0
490.228	1	2
490.569	1	1
490.910	1	1
491.250	1	7
491.591	1	8
491.932	1	14
492.272	1	-8
492.613	1	-1
492.953	1	3
493.294	1	-8
493.635	1	3
493.975	1	22
494.316	1	12
494.656	1	8
494.997	1	-6
495.337	1	4
495.678	1	4
496.019	1	0
496.359	1	-1
496.700	1	-2
497.040	1	-3
497.381	1	0
497.721	1	-6
498.062	1	0
498.403	1	3
498.743	1	0
499.084	1	5
499.424	1	0
499.765	1	11
500.105	1	4
500.446	1	-4
500.786	1	-2
501.127	1	7
501.467	1	5
501.808	1	11
502.148	1	-6
502.489	1	-5
502.829	1	0
503.170	1	0
503.510	1	5
503.851	1	9
504.191	1	5
504.532	1	20
504.872	1	-1
505.213	1	-3
505.553	1	3
505.894	1	11
506.234	1	3
506.575	1	13
506.915	1	6
507.256	1	1
507.596	1	9
507.936	1	14
508.277	1	3
508.617	1	-1
508.958	1	6
509.298	1	-2
509.639	1	-8
509.979	1	6
510.319	1	7
510.660	1	3
511.000	1	10
511.341	1	14
511.681	1	3
512.022	1	2
512.362	1	8
512.702	1	-9
513.043	1	6
513.383	1	7
513.724	1	4
514.064	1	13
514.404	1	2
514.745	1	3
515.085	1	13
515.425	1	4
515.766	1	-5
516.106	1	-12
516.447	1	5
516.787	1	-3
517.127	1	6
517.468	1	16
517.808	1	0
518.148	1	12
518.489	1	0
518.829	1	5
519.169	1	0
519.510	1	0
519.850	1	1
520.190	1	8
520.531	1	-2
520.871	1	0
521.211	1	1
521.552	1	-3
521.892	1	8
522.232	1	2
522.573	1	6
522.913	1	12
523.253	1	10
523.593	1	12
523.934	1	1
524.274	1	2
524.614	1	11
524.955	1	4
525.295	1	9
525.635	1	6
525.975	1	-7
526.316	1	-11
526.656	1	4
526.996	1	1
527.337	1	11
527.677	1	17
528.017	1	-1
528.357	1	10
528.698	1	8
529.038	1	-7
529.378	1	0
529.718	1	-5
530.058	1	1
530.399	1	-3
530.739	1	9
531.079	1	-5
531.419	1	1
531.760	1	11
532.100	1	23
532.440	1	8
532.780	1	0
533.120	1	6
533.461	1	-4
533.801	1	0
534.141	1	11
534.481	1	17
534.821	1	2
535.162	1	1
535.502	1	0
535.842	1	-1
536.182	1	-5
536.522	1	-8
536.862	1	-1
537.203	1	0
537.543	1	-1
537.883	1	11
538.223	1	16
538.563	1	-2
538.903	1	-14
539.243	1	2
539.584	1	4
539.924	1	-8
540.264	1	7
540.604	1	8
540.944	1	3
541.284	1	-6
541.624	1	5
541.964	1	-1
542.305	1	7
542.645	1	-1
542.985	1	2
543.325	1	6
543.665	1	4
544.005	1	2
544.345	1	3
544.685	1	-9
545.025	1	2
545.365	1	3
545.705	1	2
546.045	1	4
546.386	1	-2
546.726	1	-2
547.066	1	2
547.406	1	-1
547.746	1	6
548.086	1	2
548.426	1	0
548.766	1	1
549.106	1	6
549.446	1	10
549.786	1	10
550.126	1	3
550.466	1	6
550.806	1	13
551.146	1	8
551.486	1	-5
551.826	1	-2
552.166	1	1
552.506	1	1
552.846	1	3
553.186	1	1
553.526	1	4
553.866	1	7
554.206	1	6
554.546	1	2
554.886	1	7
555.226	1	0
555.566	1	9
555.906	1	0
556.246	1	7
556.586	1	4
556.926	1	-1
557.266	1	4
557.606	1	-7
557.946	1	10
558.286	1	-4
558.626	1	10
558.966	1	5
559.306	1	8
559.646	1	10
559.986	1	-1
560.325	1	8
560.665	1	0
561.005	1	5
561.345	1	-9
561.685	1	15
562.025	1	5
562.365	1	5
562.705	1	6
563.045	1	1
563.385	1	8
563.725	1	0
564.064	1	0
564.404	1	-1
564.744	1	10
565.084	1	0
565.424	1	-4
565.764	1	9
566.104	1	22
566.444	1	11
566.783	1	3
567.123	1	4
567.463	1	11
567.803	1	10
568.143	1	9
568.483	1	7
568.823	1	-2
569.162	1	-3
569.502	1	0
569.842	1	1
570.182	1	1
570.522	1	6
570.862	1	-5
571.201	1	11
571.541	1	2
571.881	1	0
572.221	1	-1
572.561	1	5
572.900	1	-3
573.240	1	0
573.580	1	4
573.920	1	20
574.260	1	4
574.599	1	2
574.939	1	3
575.279	1	3
575.619	1	4
575.959	1	-6
576.298	1	-6
576.638	1	14
576.978	1	5
577.318	1	7
577.657	1	-9
577.997	1	4
578.337	1	-3
578.677	1	12
579.016	1	-1
579.356	1	-4
579.696	1	6
580.036	1	5
580.375	1	5
580.715	1	14
581.055	1	-5
581.394	1	5
581.734	1	4
582.074	1	3
582.414	1	-2
582.753	1	5
583.093	1	6
583.433	1	5
583.772	1	17
584.112	1	-3
584.452	1	-2
584.791	1	4
585.131	1	8
585.471	1	6
585.811	1	6
586.150	1	-6
586.490	1	2
586.830	1	10
587.169	1	-4
587.509	1	5
587.849	1	15
588.188	1	-5
588.528	1	-5
588.867	1	9
589.207	1	8
589.547	1	13
589.886	1	4
590.226	1	2
590.566	1	-3
590.905	1	-2
591.245	1	-8
591.585	1	-6
591.924	1	-1
592.264	1	1
592.603	1	-12
592.943	1	3
593.283	1	4
593.622	1	-4
593.962	1	10
594.301	1	-2
594.641	1	7
594.981	1	0
595.320	1	6
595.660	1	4
595.999	1	4
596.339	1	-2
596.678	1	-2
597.018	1	-8
597.358	1	7
597.697	1	-5
598.037	1	-4
598.376	1	-8
598.716	1	5
599.055	1	-4
599.395	1	-4
599.734	1	12
600.074	1	-7
600.413	1	0
600.753	1	1
601.092	1	2
601.432	1	-1
601.771	1	0
602.111	1	3
602.451	1	-2
602.790	1	10
603.130	1	-2
603.469	1	1
603.809	1	6
604.148	1	1
604.487	1	3
604.827	1	4
605.166	1	5
605.506	1	0
605.845	1	4
606.185	1	-10
606.524	1	-2
606.864	1	7
607.203	1	6
607.543	1	3
607.882	1	13
608.222	1	-8
608.561	1	-1
608.901	1	10
609.240	1	10
609.579	1	-5
609.919	1	-9
610.258	1	11
610.598	1	-7
610.937	1	-4
611.277	1	6
611.616	1	3
611.955	1	2
612.295	1	3
612.634	1	1
612.974	1	-5
613.313	1	5
613.652	1	6
613.992	1	-2
614.331	1	8
614.671	1	6
615.010	1	8
615.349	1	3
615.689	1	-3
616.028	1	15
616.368	1	3
616.707	1	-1
617.046	1	-1
617.386	1	7
617.725	1	3
618.064	1	-2
618.404	1	5
618.743	1	2
619.082	1	14
619.422	1	7
619.761	1	0
620.100	1	-1
620.440	1	4
620.779	1	7
621.118	1	14
621.458	1	3
621.797	1	1
622.136	1	-2
622.476	1	2
622.815	1	5
623.154	1	-1
623.494	1	-1
623.833	1	-3
624.172	1	5
624.511	1	1
624.851	1	-4
625.190	1	2
625.529	1	0
625.869	1	5
626.208	1	-1
626.547	1	-12
626.886	1	0
627.226	1	10
627.565	1	4
627.904	1	4
628.243	1	8
628.583	1	4
628.922	1	15
629.261	1	2
629.600	1	-4
629.940	1	3
630.279	1	2
630.618	1	-2
630.957	1	-2
631.297	1	1
631.636	1	1
631.975	1	-4
632.314	1	3
632.653	1	-1
632.993	1	6
633.332	1	4
633.671	1	7
634.010	1	6
634.349	1	10
634.689	1	4
635.028	1	-1
635.367	1	10
635.706	1	-1
636.045	1	2
636.384	1	12
636.724	1	0
637.063	1	-7
637.402	1	12
637.741	1	6
638.080	1	4
638.419	1	4
638.759	1	3
639.098	1	2
639.437	1	-9
639.776	1	3
640.115	1	-7
640.454	1	-7
640.793	1	5
641.132	1	3
641.472	1	5
641.811	1	0
642.150	1	-3
642.489	1	6
642.828	1	15
643.167	1	10
643.506	1	2
643.845	1	9
644.184	1	7
644.524	1	-7
644.863	1	3
645.202	1	-2
645.541	1	-10
645.880	1	4
646.219	1	3
646.558	1	-3
646.897	1	-6
647.236	1	-9
647.575	1	10
647.914	1	1
648.253	1	12
648.592	1	6
648.931	1	13
649.270	1	0
649.610	1	1
649.949	1	4
650.288	1	3
650.627	1	-9
650.966	1	4
651.305	1	6
651.644	1	7
651.983	1	-9
652.322	1	0
652.661	1	5
653.000	1	7
653.339	1	3
653.678	1	6
654.017	1	7
654.356	1	1
654.695	1	13
655.034	1	-5
655.373	1	1
655.712	1	14
656.051	1	-4
656.390	1	0
656.729	1	9
657.068	1	-2
657.406	1	6
657.745	1	13
658.084	1	2
658.423	1	11
658.762	1	-7
659.101	1	-4
659.440	1	0
659.779	1	5
660.118	1	-1
660.457	1	2
660.796	1	5
661.135	1	8
661.474	1	2
661.813	1	0
662.152	1	0
662.491	1	-5
662.829	1	2
663.168	1	3
663.507	1	7
663.846	1	6
664.185	1	1
664.524	1	11
664.863	1	-2
665.202	1	3
665.541	1	5
665.879	1	0
666.218	1	0
666.557	1	-4
666.896	1	-7
667.235	1	-4
667.574	1	-4
667.913	1	-1
668.251	1	-8
668.590	1	-1
668.929	1	3
669.268	1	-9
669.607	1	-5
669.946	1	6
670.285	1	0
670.623	1	7
670.962	1	-5
671.301	1	5
671.640	1	8
671.979	1	-4
672.317	1	-1
672.656	1	2
672.995	1	-1
673.334	1	1
673.673	1	13
674.011	1	9
674.350	1	8
674.689	1	-2
675.028	1	4
675.367	1	7
675.705	1	-7
676.044	1	-1
676.383	1	4
676.722	1	4
677.060	1	6
677.399	1	12
677.738	1	9
678.077	1	-12
678.416	1	0
678.754	1	1
679.093	1	6
679.432	1	-7
679.771	1	0
680.109	1	2
680.448	1	-5
680.787	1	-7
681.125	1	-2
681.464	1	8
681.803	1	0
682.142	1	2
682.480	1	-4
682.819	1	-6
683.158	1	-1
683.496	1	2
683.835	1	9
684.174	1	-1
684.512	1	3
684.851	1	1
685.190	1	5
685.529	1	4
685.867	1	-1
686.206	1	-9
686.545	1	-2
686.883	1	6
687.222	1	-8
687.561	1	-3
687.899	1	-2
688.238	1	13
688.577	1	1
688.746	1	3