File: Data/GaN_150K_450ms/GaN_sample D_spot15_UVVIS_150 K_200um_450 ms 2x2mm1_147.txt
340.368	1	6
340.710	1	1
341.052	1	12
341.394	1	9
341.737	1	15
342.079	1	6
342.421	1	4
342.763	1	7
343.105	1	7
343.447	1	8
343.789	1	16
344.131	1	-6
344.473	1	8
344.815	1	-1
345.157	1	16
345.499	1	8
345.841	1	6
346.183	1	1
346.526	1	10
346.868	1	4
347.210	1	2
347.552	1	12
347.894	1	-4
348.236	1	4
348.578	1	4
348.920	1	0
349.262	1	9
349.604	1	-9
349.946	1	8
350.288	1	3
350.630	1	0
350.972	1	13
351.314	1	-4
351.656	1	14
351.998	1	3
352.340	1	10
352.682	1	3
353.024	1	9
353.366	1	19
353.708	1	5
354.050	1	-4
354.392	1	-1
354.734	1	3
355.076	1	15
355.418	1	5
355.760	1	8
356.102	1	10
356.444	1	8
356.785	1	6
357.127	1	16
357.469	1	7
357.811	1	7
358.153	1	5
358.495	1	6
358.837	1	17
359.179	1	7
359.521	1	20
359.863	1	0
360.205	1	21
360.547	1	11
360.889	1	13
361.231	1	12
361.572	1	17
361.914	1	14
362.256	1	16
362.598	1	15
362.940	1	14
363.282	1	6
363.624	1	23
363.966	1	19
364.308	1	26
364.649	1	26
364.991	1	24
365.333	1	22
365.675	1	38
366.017	1	39
366.359	1	28
366.701	1	34
367.042	1	36
367.384	1	34
367.726	1	44
368.068	1	47
368.410	1	51
368.752	1	52
369.093	1	55
369.435	1	43
369.777	1	42
370.119	1	36
370.461	1	35
370.803	1	37
371.144	1	36
371.486	1	39
371.828	1	28
372.170	1	31
372.512	1	29
372.853	1	25
373.195	1	26
373.537	1	15
373.879	1	24
374.220	1	25
374.562	1	22
374.904	1	16
375.246	1	20
375.588	1	17
375.929	1	20
376.271	1	15
376.613	1	14
376.955	1	15
377.296	1	23
377.638	1	14
377.980	1	16
378.321	1	23
378.663	1	16
379.005	1	11
379.347	1	18
379.688	1	24
380.030	1	16
380.372	1	14
380.714	1	12
381.055	1	8
381.397	1	12
381.739	1	-6
382.080	1	6
382.422	1	18
382.764	1	10
383.105	1	15
383.447	1	11
383.789	1	-1
384.130	1	12
384.472	1	4
384.814	1	14
385.156	1	6
385.497	1	20
385.839	1	8
386.180	1	9
386.522	1	24
386.864	1	-1
387.205	1	11
387.547	1	5
387.889	1	-1
388.230	1	8
388.572	1	6
388.914	1	14
389.255	1	8
389.597	1	0
389.939	1	13
390.280	1	4
390.622	1	-2
390.963	1	-2
391.305	1	3
391.647	1	9
391.988	1	10
392.330	1	-4
392.671	1	9
393.013	1	8
393.355	1	16
393.696	1	2
394.038	1	10
394.379	1	11
394.721	1	19
395.062	1	0
395.404	1	0
395.746	1	-6
396.087	1	15
396.429	1	9
396.770	1	10
397.112	1	9
397.453	1	6
397.795	1	8
398.136	1	9
398.478	1	8
398.819	1	3
399.161	1	15
399.503	1	15
399.844	1	4
400.186	1	22
400.527	1	13
400.869	1	6
401.210	1	9
401.552	1	8
401.893	1	9
402.235	1	13
402.576	1	8
402.918	1	-3
403.259	1	5
403.601	1	7
403.942	1	10
404.284	1	7
404.625	1	8
404.967	1	12
405.308	1	-1
405.649	1	7
405.991	1	11
406.332	1	7
406.674	1	5
407.015	1	14
407.357	1	10
407.698	1	4
408.040	1	20
408.381	1	2
408.722	1	14
409.064	1	17
409.405	1	9
409.747	1	2
410.088	1	5
410.430	1	16
410.771	1	21
411.112	1	9
411.454	1	11
411.795	1	3
412.137	1	5
412.478	1	17
412.819	1	11
413.161	1	15
413.502	1	8
413.844	1	18
414.185	1	8
414.526	1	2
414.868	1	3
415.209	1	6
415.550	1	5
415.892	1	13
416.233	1	6
416.575	1	7
416.916	1	12
417.257	1	15
417.599	1	5
417.940	1	9
418.281	1	10
418.623	1	9
418.964	1	14
419.305	1	11
419.647	1	13
419.988	1	21
420.329	1	17
420.671	1	15
421.012	1	2
421.353	1	17
421.695	1	15
422.036	1	17
422.377	1	13
422.718	1	8
423.060	1	12
423.401	1	3
423.742	1	15
424.084	1	14
424.425	1	21
424.766	1	10
425.107	1	18
425.449	1	11
425.790	1	22
426.131	1	3
426.472	1	12
426.814	1	10
427.155	1	10
427.496	1	8
427.837	1	6
428.179	1	16
428.520	1	13
428.861	1	15
429.202	1	7
429.544	1	8
429.885	1	13
430.226	1	15
430.567	1	-4
430.909	1	8
431.250	1	13
431.591	1	18
431.932	1	3
432.273	1	13
432.615	1	0
432.956	1	10
433.297	1	12
433.638	1	11
433.979	1	21
434.320	1	8
434.662	1	8
435.003	1	18
435.344	1	3
435.685	1	-2
436.026	1	4
436.368	1	-3
436.709	1	8
437.050	1	6
437.391	1	7
437.732	1	16
438.073	1	6
438.414	1	8
438.756	1	12
439.097	1	6
439.438	1	13
439.779	1	-3
440.120	1	7
440.461	1	2
440.802	1	14
441.143	1	3
441.485	1	6
441.826	1	14
442.167	1	1
442.508	1	4
442.849	1	16
443.190	1	14
443.531	1	7
443.872	1	5
444.213	1	-7
444.554	1	16
444.895	1	-1
445.237	1	10
445.578	1	-7
445.919	1	5
446.260	1	12
446.601	1	7
446.942	1	7
447.283	1	29
447.624	1	2
447.965	1	8
448.306	1	13
448.647	1	3
448.988	1	17
449.329	1	6
449.670	1	10
450.011	1	5
450.352	1	3
450.693	1	2
451.034	1	5
451.375	1	7
451.716	1	-1
452.057	1	8
452.398	1	14
452.739	1	8
453.080	1	9
453.421	1	14
453.762	1	14
454.103	1	11
454.444	1	5
454.785	1	6
455.126	1	11
455.467	1	13
455.808	1	15
456.149	1	2
456.490	1	-1
456.831	1	9
457.172	1	8
457.513	1	0
457.854	1	5
458.195	1	14
458.536	1	13
458.877	1	10
459.218	1	9
459.559	1	7
459.899	1	6
460.240	1	0
460.581	1	-3
460.922	1	8
461.263	1	15
461.604	1	5
461.945	1	8
462.286	1	2
462.627	1	-1
462.968	1	7
463.309	1	16
463.649	1	-4
463.990	1	5
464.331	1	13
464.672	1	5
465.013	1	1
465.354	1	15
465.695	1	13
466.036	1	10
466.376	1	12
466.717	1	-14
467.058	1	-6
467.399	1	2
467.740	1	21
468.081	1	10
468.422	1	3
468.762	1	5
469.103	1	3
469.444	1	11
469.785	1	-8
470.126	1	7
470.467	1	9
470.807	1	23
471.148	1	6
471.489	1	14
471.830	1	3
472.171	1	12
472.511	1	2
472.852	1	11
473.193	1	0
473.534	1	9
473.875	1	2
474.215	1	15
474.556	1	-4
474.897	1	3
475.238	1	10
475.578	1	1
475.919	1	1
476.260	1	3
476.601	1	6
476.942	1	1
477.282	1	-7
477.623	1	5
477.964	1	9
478.305	1	2
478.645	1	9
478.986	1	5
479.327	1	14
479.667	1	7
480.008	1	6
480.349	1	3
480.690	1	8
481.030	1	1
481.371	1	7
481.712	1	16
482.053	1	8
482.393	1	9
482.734	1	4
483.075	1	15
483.415	1	5
483.756	1	2
484.097	1	13
484.437	1	3
484.778	1	0
485.119	1	5
485.459	1	1
485.800	1	0
486.141	1	13
486.481	1	-4
486.822	1	9
487.163	1	-7
487.503	1	6
487.844	1	-3
488.185	1	5
488.525	1	7
488.866	1	-3
489.207	1	8
489.547	1	2
489.888	1	11
490.228	1	8
490.569	1	8
490.910	1	17
491.250	1	-2
491.591	1	-3
491.932	1	4
492.272	1	0
492.613	1	8
492.953	1	10
493.294	1	-7
493.635	1	9
493.975	1	17
494.316	1	-4
494.656	1	9
494.997	1	-7
495.337	1	-5
495.678	1	6
496.019	1	-6
496.359	1	6
496.700	1	7
497.040	1	8
497.381	1	4
497.721	1	-3
498.062	1	8
498.403	1	13
498.743	1	8
499.084	1	14
499.424	1	6
499.765	1	15
500.105	1	21
500.446	1	3
500.786	1	9
501.127	1	15
501.467	1	20
501.808	1	6
502.148	1	1
502.489	1	1
502.829	1	3
503.170	1	10
503.510	1	0
503.851	1	17
504.191	1	1
504.532	1	16
504.872	1	5
505.213	1	-6
505.553	1	1
505.894	1	9
506.234	1	12
506.575	1	26
506.915	1	17
507.256	1	18
507.596	1	14
507.936	1	10
508.277	1	22
508.617	1	5
508.958	1	17
509.298	1	5
509.639	1	5
509.979	1	7
510.319	1	14
510.660	1	8
511.000	1	6
511.341	1	14
511.681	1	11
512.022	1	-2
512.362	1	9
512.702	1	2
513.043	1	17
513.383	1	10
513.724	1	7
514.064	1	19
514.404	1	15
514.745	1	13
515.085	1	22
515.425	1	6
515.766	1	-2
516.106	1	-2
516.447	1	10
516.787	1	5
517.127	1	10
517.468	1	17
517.808	1	4
518.148	1	12
518.489	1	20
518.829	1	9
519.169	1	6
519.510	1	-1
519.850	1	6
520.190	1	8
520.531	1	10
520.871	1	8
521.211	1	8
521.552	1	3
521.892	1	19
522.232	1	19
522.573	1	12
522.913	1	21
523.253	1	18
523.593	1	16
523.934	1	16
524.274	1	11
524.614	1	12
524.955	1	8
525.295	1	15
525.635	1	8
525.975	1	6
526.316	1	0
526.656	1	18
526.996	1	2
527.337	1	14
527.677	1	26
528.017	1	4
528.357	1	13
528.698	1	15
529.038	1	5
529.378	1	13
529.718	1	12
530.058	1	0
530.399	1	2
530.739	1	8
531.079	1	8
531.419	1	10
531.760	1	21
532.100	1	20
532.440	1	18
532.780	1	7
533.120	1	2
533.461	1	-2
533.801	1	10
534.141	1	21
534.481	1	22
534.821	1	8
535.162	1	16
535.502	1	15
535.842	1	4
536.182	1	11
536.522	1	5
536.862	1	7
537.203	1	9
537.543	1	11
537.883	1	14
538.223	1	21
538.563	1	1
538.903	1	11
539.243	1	14
539.584	1	7
539.924	1	10
540.264	1	23
540.604	1	16
540.944	1	13
541.284	1	17
541.624	1	11
541.964	1	-1
542.305	1	13
542.645	1	10
542.985	1	12
543.325	1	17
543.665	1	7
544.005	1	6
544.345	1	14
544.685	1	7
545.025	1	5
545.365	1	13
545.705	1	0
546.045	1	13
546.386	1	16
546.726	1	3
547.066	1	12
547.406	1	5
547.746	1	6
548.086	1	20
548.426	1	5
548.766	1	9
549.106	1	8
549.446	1	17
549.786	1	17
550.126	1	18
550.466	1	9
550.806	1	29
551.146	1	3
551.486	1	9
551.826	1	6
552.166	1	13
552.506	1	6
552.846	1	13
553.186	1	2
553.526	1	9
553.866	1	9
554.206	1	11
554.546	1	4
554.886	1	8
555.226	1	8
555.566	1	11
555.906	1	13
556.246	1	11
556.586	1	9
556.926	1	4
557.266	1	16
557.606	1	-4
557.946	1	17
558.286	1	2
558.626	1	19
558.966	1	5
559.306	1	15
559.646	1	13
559.986	1	9
560.325	1	2
560.665	1	7
561.005	1	4
561.345	1	-2
561.685	1	16
562.025	1	14
562.365	1	2
562.705	1	14
563.045	1	9
563.385	1	18
563.725	1	5
564.064	1	13
564.404	1	1
564.744	1	14
565.084	1	12
565.424	1	6
565.764	1	10
566.104	1	13
566.444	1	16
566.783	1	12
567.123	1	7
567.463	1	8
567.803	1	12
568.143	1	11
568.483	1	11
568.823	1	6
569.162	1	-5
569.502	1	12
569.842	1	11
570.182	1	7
570.522	1	3
570.862	1	-3
571.201	1	12
571.541	1	7
571.881	1	5
572.221	1	11
572.561	1	22
572.900	1	14
573.240	1	6
573.580	1	5
573.920	1	15
574.260	1	12
574.599	1	9
574.939	1	1
575.279	1	4
575.619	1	6
575.959	1	5
576.298	1	5
576.638	1	18
576.978	1	13
577.318	1	9
577.657	1	2
577.997	1	14
578.337	1	4
578.677	1	2
579.016	1	0
579.356	1	4
579.696	1	4
580.036	1	-1
580.375	1	7
580.715	1	9
581.055	1	8
581.394	1	4
581.734	1	8
582.074	1	10
582.414	1	10
582.753	1	7
583.093	1	10
583.433	1	7
583.772	1	10
584.112	1	10
584.452	1	3
584.791	1	14
585.131	1	12
585.471	1	-1
585.811	1	7
586.150	1	4
586.490	1	2
586.830	1	3
587.169	1	5
587.509	1	5
587.849	1	15
588.188	1	6
588.528	1	1
588.867	1	9
589.207	1	4
589.547	1	11
589.886	1	1
590.226	1	2
590.566	1	5
590.905	1	7
591.245	1	-10
591.585	1	5
591.924	1	-3
592.264	1	-4
592.603	1	-2
592.943	1	5
593.283	1	10
593.622	1	0
593.962	1	1
594.301	1	-2
594.641	1	5
594.981	1	10
595.320	1	12
595.660	1	12
595.999	1	9
596.339	1	2
596.678	1	-3
597.018	1	0
597.358	1	9
597.697	1	-4
598.037	1	-1
598.376	1	-5
598.716	1	8
599.055	1	7
599.395	1	0
599.734	1	6
600.074	1	1
600.413	1	11
600.753	1	6
601.092	1	-2
601.432	1	-8
601.771	1	9
602.111	1	5
602.451	1	-2
602.790	1	7
603.130	1	-3
603.469	1	8
603.809	1	-2
604.148	1	-6
604.487	1	-1
604.827	1	2
605.166	1	5
605.506	1	3
605.845	1	7
606.185	1	3
606.524	1	-6
606.864	1	9
607.203	1	6
607.543	1	7
607.882	1	17
608.222	1	18
608.561	1	4
608.901	1	10
609.240	1	4
609.579	1	8
609.919	1	-6
610.258	1	15
610.598	1	-4
610.937	1	2
611.277	1	13
611.616	1	15
611.955	1	9
612.295	1	2
612.634	1	5
612.974	1	-3
613.313	1	3
613.652	1	18
613.992	1	6
614.331	1	11
614.671	1	10
615.010	1	8
615.349	1	7
615.689	1	4
616.028	1	17
616.368	1	13
616.707	1	-3
617.046	1	-5
617.386	1	10
617.725	1	-3
618.064	1	2
618.404	1	-5
618.743	1	5
619.082	1	13
619.422	1	18
619.761	1	9
620.100	1	5
620.440	1	11
620.779	1	4
621.118	1	7
621.458	1	1
621.797	1	10
622.136	1	-7
622.476	1	4
622.815	1	6
623.154	1	-10
623.494	1	-7
623.833	1	9
624.172	1	7
624.511	1	-5
624.851	1	5
625.190	1	1
625.529	1	6
625.869	1	12
626.208	1	-3
626.547	1	3
626.886	1	12
627.226	1	11
627.565	1	9
627.904	1	2
628.243	1	2
628.583	1	1
628.922	1	6
629.261	1	8
629.600	1	-3
629.940	1	15
630.279	1	15
630.618	1	7
630.957	1	10
631.297	1	13
631.636	1	7
631.975	1	5
632.314	1	13
632.653	1	0
632.993	1	3
633.332	1	9
633.671	1	11
634.010	1	1
634.349	1	14
634.689	1	3
635.028	1	3
635.367	1	16
635.706	1	-4
636.045	1	-4
636.384	1	7
636.724	1	3
637.063	1	-4
637.402	1	11
637.741	1	2
638.080	1	4
638.419	1	-4
638.759	1	4
639.098	1	-5
639.437	1	0
639.776	1	0
640.115	1	-7
640.454	1	5
640.793	1	12
641.132	1	5
641.472	1	14
641.811	1	3
642.150	1	6
642.489	1	4
642.828	1	14
643.167	1	8
643.506	1	11
643.845	1	4
644.184	1	7
644.524	1	-2
644.863	1	7
645.202	1	8
645.541	1	10
645.880	1	13
646.219	1	2
646.558	1	-3
646.897	1	-2
647.236	1	-3
647.575	1	13
647.914	1	-1
648.253	1	9
648.592	1	6
648.931	1	8
649.270	1	13
649.610	1	9
649.949	1	-3
650.288	1	10
650.627	1	3
650.966	1	5
651.305	1	-2
651.644	1	12
651.983	1	-8
652.322	1	4
652.661	1	17
653.000	1	6
653.339	1	6
653.678	1	13
654.017	1	7
654.356	1	13
654.695	1	11
655.034	1	-4
655.373	1	-2
655.712	1	7
656.051	1	0
656.390	1	8
656.729	1	17
657.068	1	4
657.406	1	-1
657.745	1	14
658.084	1	9
658.423	1	13
658.762	1	0
659.101	1	4
659.440	1	11
659.779	1	7
660.118	1	1
660.457	1	5
660.796	1	13
661.135	1	6
661.474	1	0
661.813	1	4
662.152	1	9
662.491	1	-1
662.829	1	7
663.168	1	0
663.507	1	9
663.846	1	3
664.185	1	6
664.524	1	15
664.863	1	-10
665.202	1	10
665.541	1	5
665.879	1	4
666.218	1	17
666.557	1	2
666.896	1	5
667.235	1	-1
667.574	1	-4
667.913	1	7
668.251	1	-3
668.590	1	3
668.929	1	4
669.268	1	-5
669.607	1	1
669.946	1	4
670.285	1	2
670.623	1	2
670.962	1	-4
671.301	1	9
671.640	1	5
671.979	1	-2
672.317	1	6
672.656	1	8
672.995	1	5
673.334	1	-2
673.673	1	14
674.011	1	6
674.350	1	7
674.689	1	0
675.028	1	8
675.367	1	4
675.705	1	-5
676.044	1	-3
676.383	1	-2
676.722	1	2
677.060	1	8
677.399	1	13
677.738	1	-2
678.077	1	1
678.416	1	-7
678.754	1	2
679.093	1	16
679.432	1	-10
679.771	1	5
680.109	1	6
680.448	1	0
680.787	1	-7
681.125	1	-1
681.464	1	11
681.803	1	8
682.142	1	2
682.480	1	5
682.819	1	-4
683.158	1	1
683.496	1	-1
683.835	1	7
684.174	1	2
684.512	1	14
684.851	1	0
685.190	1	-5
685.529	1	-12
685.867	1	-3
686.206	1	-7
686.545	1	1
686.883	1	9
687.222	1	5
687.561	1	4
687.899	1	6
688.238	1	20
688.577	1	5
688.746	1	2