File: Data/GaN_150K_450ms/GaN_sample D_spot15_UVVIS_150 K_200um_450 ms 2x2mm1_290.txt
340.368	1	5
340.710	1	4
341.052	1	0
341.394	1	-10
341.737	1	2
342.079	1	5
342.421	1	-8
342.763	1	4
343.105	1	3
343.447	1	-3
343.789	1	-3
344.131	1	-10
344.473	1	-1
344.815	1	3
345.157	1	10
345.499	1	2
345.841	1	6
346.183	1	10
346.526	1	4
346.868	1	7
347.210	1	0
347.552	1	16
347.894	1	6
348.236	1	5
348.578	1	3
348.920	1	-6
349.262	1	3
349.604	1	0
349.946	1	0
350.288	1	-2
350.630	1	-4
350.972	1	3
351.314	1	-3
351.656	1	9
351.998	1	-1
352.340	1	7
352.682	1	-15
353.024	1	10
353.366	1	2
353.708	1	2
354.050	1	-9
354.392	1	-2
354.734	1	11
355.076	1	14
355.418	1	3
355.760	1	2
356.102	1	6
356.444	1	8
356.785	1	11
357.127	1	8
357.469	1	-6
357.811	1	9
358.153	1	-14
358.495	1	3
358.837	1	5
359.179	1	3
359.521	1	11
359.863	1	-2
360.205	1	11
360.547	1	12
360.889	1	4
361.231	1	8
361.572	1	4
361.914	1	14
362.256	1	6
362.598	1	10
362.940	1	4
363.282	1	4
363.624	1	10
363.966	1	6
364.308	1	2
364.649	1	8
364.991	1	0
365.333	1	6
365.675	1	21
366.017	1	9
366.359	1	5
366.701	1	9
367.042	1	8
367.384	1	6
367.726	1	5
368.068	1	22
368.410	1	13
368.752	1	28
369.093	1	14
369.435	1	16
369.777	1	18
370.119	1	20
370.461	1	17
370.803	1	12
371.144	1	13
371.486	1	16
371.828	1	12
372.170	1	15
372.512	1	10
372.853	1	29
373.195	1	2
373.537	1	-3
373.879	1	5
374.220	1	11
374.562	1	19
374.904	1	1
375.246	1	8
375.588	1	4
375.929	1	5
376.271	1	11
376.613	1	13
376.955	1	13
377.296	1	5
377.638	1	6
377.980	1	3
378.321	1	6
378.663	1	4
379.005	1	7
379.347	1	5
379.688	1	9
380.030	1	4
380.372	1	8
380.714	1	5
381.055	1	-2
381.397	1	11
381.739	1	-7
382.080	1	5
382.422	1	13
382.764	1	7
383.105	1	1
383.447	1	7
383.789	1	-3
384.130	1	7
384.472	1	-1
384.814	1	4
385.156	1	-4
385.497	1	8
385.839	1	-3
386.180	1	2
386.522	1	8
386.864	1	-4
387.205	1	6
387.547	1	5
387.889	1	6
388.230	1	-9
388.572	1	-2
388.914	1	4
389.255	1	-2
389.597	1	-4
389.939	1	13
390.280	1	-2
390.622	1	5
390.963	1	-8
391.305	1	-3
391.647	1	3
391.988	1	-4
392.330	1	-1
392.671	1	0
393.013	1	14
393.355	1	12
393.696	1	5
394.038	1	8
394.379	1	12
394.721	1	0
395.062	1	-5
395.404	1	8
395.746	1	-5
396.087	1	8
396.429	1	11
396.770	1	1
397.112	1	3
397.453	1	-6
397.795	1	-6
398.136	1	3
398.478	1	8
398.819	1	2
399.161	1	2
399.503	1	3
399.844	1	-4
400.186	1	9
400.527	1	0
400.869	1	-4
401.210	1	2
401.552	1	3
401.893	1	3
402.235	1	3
402.576	1	-3
402.918	1	-7
403.259	1	-2
403.601	1	5
403.942	1	-1
404.284	1	3
404.625	1	-6
404.967	1	-2
405.308	1	-16
405.649	1	-1
405.991	1	7
406.332	1	-5
406.674	1	-5
407.015	1	5
407.357	1	8
407.698	1	-1
408.040	1	6
408.381	1	-10
408.722	1	5
409.064	1	8
409.405	1	0
409.747	1	1
410.088	1	8
410.430	1	20
410.771	1	0
411.112	1	3
411.454	1	-1
411.795	1	4
412.137	1	4
412.478	1	7
412.819	1	-2
413.161	1	0
413.502	1	-4
413.844	1	11
414.185	1	4
414.526	1	3
414.868	1	-9
415.209	1	-5
415.550	1	-2
415.892	1	3
416.233	1	3
416.575	1	-10
416.916	1	-1
417.257	1	1
417.599	1	12
417.940	1	-6
418.281	1	13
418.623	1	3
418.964	1	6
419.305	1	9
419.647	1	5
419.988	1	8
420.329	1	0
420.671	1	10
421.012	1	4
421.353	1	12
421.695	1	3
422.036	1	11
422.377	1	2
422.718	1	7
423.060	1	6
423.401	1	-1
423.742	1	10
424.084	1	3
424.425	1	2
424.766	1	-3
425.107	1	-2
425.449	1	5
425.790	1	3
426.131	1	-2
426.472	1	9
426.814	1	9
427.155	1	4
427.496	1	-4
427.837	1	0
428.179	1	7
428.520	1	0
428.861	1	1
429.202	1	-4
429.544	1	0
429.885	1	11
430.226	1	-3
430.567	1	2
430.909	1	4
431.250	1	11
431.591	1	3
431.932	1	-10
432.273	1	4
432.615	1	-6
432.956	1	2
433.297	1	-6
433.638	1	-3
433.979	1	-2
434.320	1	4
434.662	1	4
435.003	1	13
435.344	1	0
435.685	1	-5
436.026	1	1
436.368	1	-6
436.709	1	-9
437.050	1	-2
437.391	1	-1
437.732	1	4
438.073	1	4
438.414	1	13
438.756	1	6
439.097	1	2
439.438	1	2
439.779	1	4
440.120	1	5
440.461	1	-4
440.802	1	6
441.143	1	2
441.485	1	-2
441.826	1	1
442.167	1	9
442.508	1	4
442.849	1	11
443.190	1	9
443.531	1	6
443.872	1	-3
444.213	1	-2
444.554	1	7
444.895	1	-13
445.237	1	5
445.578	1	-8
445.919	1	6
446.260	1	13
446.601	1	4
446.942	1	2
447.283	1	12
447.624	1	-9
447.965	1	6
448.306	1	5
448.647	1	-1
448.988	1	2
449.329	1	7
449.670	1	9
450.011	1	3
450.352	1	5
450.693	1	9
451.034	1	5
451.375	1	5
451.716	1	5
452.057	1	6
452.398	1	3
452.739	1	3
453.080	1	8
453.421	1	13
453.762	1	4
454.103	1	3
454.444	1	7
454.785	1	2
455.126	1	7
455.467	1	-5
455.808	1	9
456.149	1	0
456.490	1	-7
456.831	1	-6
457.172	1	-2
457.513	1	-3
457.854	1	0
458.195	1	1
458.536	1	5
458.877	1	3
459.218	1	9
459.559	1	2
459.899	1	-2
460.240	1	-5
460.581	1	-5
460.922	1	1
461.263	1	9
461.604	1	7
461.945	1	8
462.286	1	5
462.627	1	-4
462.968	1	4
463.309	1	4
463.649	1	1
463.990	1	-5
464.331	1	3
464.672	1	8
465.013	1	-1
465.354	1	9
465.695	1	2
466.036	1	3
466.376	1	13
466.717	1	-11
467.058	1	4
467.399	1	-6
467.740	1	11
468.081	1	-3
468.422	1	8
468.762	1	4
469.103	1	3
469.444	1	0
469.785	1	-6
470.126	1	7
470.467	1	6
470.807	1	2
471.148	1	-3
471.489	1	13
471.830	1	6
472.171	1	9
472.511	1	0
472.852	1	2
473.193	1	1
473.534	1	3
473.875	1	0
474.215	1	-1
474.556	1	-4
474.897	1	-3
475.238	1	2
475.578	1	3
475.919	1	-8
476.260	1	3
476.601	1	2
476.942	1	-2
477.282	1	-6
477.623	1	-3
477.964	1	9
478.305	1	4
478.645	1	10
478.986	1	9
479.327	1	2
479.667	1	-2
480.008	1	10
480.349	1	-9
480.690	1	-1
481.030	1	-12
481.371	1	6
481.712	1	12
482.053	1	12
482.393	1	4
482.734	1	8
483.075	1	5
483.415	1	1
483.756	1	0
484.097	1	3
484.437	1	12
484.778	1	8
485.119	1	4
485.459	1	11
485.800	1	-7
486.141	1	1
486.481	1	-2
486.822	1	6
487.163	1	-8
487.503	1	1
487.844	1	-9
488.185	1	1
488.525	1	-8
488.866	1	-6
489.207	1	8
489.547	1	5
489.888	1	1
490.228	1	5
490.569	1	-3
490.910	1	1
491.250	1	3
491.591	1	9
491.932	1	8
492.272	1	-6
492.613	1	-1
492.953	1	-3
493.294	1	-8
493.635	1	-4
493.975	1	9
494.316	1	1
494.656	1	0
494.997	1	-4
495.337	1	-1
495.678	1	-2
496.019	1	-9
496.359	1	-2
496.700	1	3
497.040	1	-2
497.381	1	8
497.721	1	-7
498.062	1	0
498.403	1	-1
498.743	1	8
499.084	1	7
499.424	1	-2
499.765	1	11
500.105	1	10
500.446	1	-3
500.786	1	4
501.127	1	12
501.467	1	10
501.808	1	-11
502.148	1	-4
502.489	1	0
502.829	1	1
503.170	1	0
503.510	1	1
503.851	1	-2
504.191	1	2
504.532	1	12
504.872	1	-6
505.213	1	-10
505.553	1	11
505.894	1	10
506.234	1	5
506.575	1	10
506.915	1	7
507.256	1	1
507.596	1	10
507.936	1	14
508.277	1	2
508.617	1	5
508.958	1	-1
509.298	1	0
509.639	1	0
509.979	1	-2
510.319	1	3
510.660	1	2
511.000	1	-5
511.341	1	9
511.681	1	9
512.022	1	-2
512.362	1	3
512.702	1	-10
513.043	1	9
513.383	1	4
513.724	1	1
514.064	1	11
514.404	1	9
514.745	1	4
515.085	1	10
515.425	1	-2
515.766	1	-2
516.106	1	-6
516.447	1	5
516.787	1	11
517.127	1	16
517.468	1	10
517.808	1	-1
518.148	1	16
518.489	1	2
518.829	1	13
519.169	1	-10
519.510	1	0
519.850	1	6
520.190	1	0
520.531	1	4
520.871	1	5
521.211	1	0
521.552	1	-7
521.892	1	8
522.232	1	1
522.573	1	1
522.913	1	7
523.253	1	7
523.593	1	10
523.934	1	7
524.274	1	-3
524.614	1	22
524.955	1	6
525.295	1	12
525.635	1	1
525.975	1	-1
526.316	1	-13
526.656	1	13
526.996	1	4
527.337	1	14
527.677	1	14
528.017	1	-2
528.357	1	15
528.698	1	0
529.038	1	5
529.378	1	3
529.718	1	-3
530.058	1	0
530.399	1	1
530.739	1	3
531.079	1	7
531.419	1	3
531.760	1	7
532.100	1	19
532.440	1	10
532.780	1	9
533.120	1	-3
533.461	1	-3
533.801	1	4
534.141	1	11
534.481	1	14
534.821	1	5
535.162	1	9
535.502	1	-1
535.842	1	1
536.182	1	-5
536.522	1	0
536.862	1	-1
537.203	1	3
537.543	1	8
537.883	1	7
538.223	1	12
538.563	1	-2
538.903	1	0
539.243	1	-2
539.584	1	7
539.924	1	-1
540.264	1	20
540.604	1	8
540.944	1	2
541.284	1	1
541.624	1	6
541.964	1	-2
542.305	1	4
542.645	1	-1
542.985	1	-1
543.325	1	5
543.665	1	-3
544.005	1	3
544.345	1	1
544.685	1	11
545.025	1	14
545.365	1	0
545.705	1	-4
546.045	1	4
546.386	1	-8
546.726	1	13
547.066	1	0
547.406	1	-1
547.746	1	2
548.086	1	6
548.426	1	-4
548.766	1	-3
549.106	1	-6
549.446	1	3
549.786	1	7
550.126	1	0
550.466	1	-2
550.806	1	15
551.146	1	9
551.486	1	2
551.826	1	0
552.166	1	-5
552.506	1	-2
552.846	1	3
553.186	1	-6
553.526	1	0
553.866	1	-1
554.206	1	9
554.546	1	6
554.886	1	3
555.226	1	-2
555.566	1	7
555.906	1	-1
556.246	1	12
556.586	1	1
556.926	1	3
557.266	1	11
557.606	1	-15
557.946	1	9
558.286	1	-11
558.626	1	3
558.966	1	2
559.306	1	2
559.646	1	2
559.986	1	6
560.325	1	-6
560.665	1	0
561.005	1	1
561.345	1	-10
561.685	1	5
562.025	1	8
562.365	1	0
562.705	1	10
563.045	1	0
563.385	1	7
563.725	1	0
564.064	1	-1
564.404	1	1
564.744	1	11
565.084	1	1
565.424	1	-2
565.764	1	3
566.104	1	7
566.444	1	6
566.783	1	1
567.123	1	-11
567.463	1	5
567.803	1	1
568.143	1	2
568.483	1	4
568.823	1	-4
569.162	1	0
569.502	1	10
569.842	1	1
570.182	1	-8
570.522	1	3
570.862	1	-12
571.201	1	10
571.541	1	2
571.881	1	-1
572.221	1	-3
572.561	1	5
572.900	1	8
573.240	1	1
573.580	1	6
573.920	1	6
574.260	1	-3
574.599	1	9
574.939	1	5
575.279	1	-5
575.619	1	-5
575.959	1	-4
576.298	1	-6
576.638	1	7
576.978	1	7
577.318	1	7
577.657	1	2
577.997	1	3
578.337	1	1
578.677	1	7
579.016	1	2
579.356	1	4
579.696	1	-2
580.036	1	4
580.375	1	4
580.715	1	4
581.055	1	4
581.394	1	-4
581.734	1	10
582.074	1	-1
582.414	1	1
582.753	1	3
583.093	1	-2
583.433	1	8
583.772	1	10
584.112	1	2
584.452	1	4
584.791	1	2
585.131	1	0
585.471	1	-5
585.811	1	16
586.150	1	0
586.490	1	2
586.830	1	2
587.169	1	9
587.509	1	-3
587.849	1	11
588.188	1	4
588.528	1	0
588.867	1	-2
589.207	1	5
589.547	1	7
589.886	1	-1
590.226	1	1
590.566	1	-3
590.905	1	0
591.245	1	-2
591.585	1	-7
591.924	1	1
592.264	1	-4
592.603	1	-7
592.943	1	4
593.283	1	5
593.622	1	-6
593.962	1	-6
594.301	1	9
594.641	1	10
594.981	1	5
595.320	1	4
595.660	1	4
595.999	1	9
596.339	1	-2
596.678	1	-19
597.018	1	0
597.358	1	2
597.697	1	-7
598.037	1	-11
598.376	1	0
598.716	1	-2
599.055	1	9
599.395	1	-4
599.734	1	4
600.074	1	1
600.413	1	-2
600.753	1	4
601.092	1	-6
601.432	1	-14
601.771	1	2
602.111	1	-8
602.451	1	-6
602.790	1	2
603.130	1	3
603.469	1	2
603.809	1	-5
604.148	1	-6
604.487	1	9
604.827	1	2
605.166	1	11
605.506	1	-5
605.845	1	4
606.185	1	-3
606.524	1	-11
606.864	1	10
607.203	1	9
607.543	1	1
607.882	1	9
608.222	1	-9
608.561	1	3
608.901	1	4
609.240	1	12
609.579	1	-1
609.919	1	1
610.258	1	11
610.598	1	-7
610.937	1	-2
611.277	1	5
611.616	1	15
611.955	1	-12
612.295	1	0
612.634	1	-3
612.974	1	-1
613.313	1	13
613.652	1	3
613.992	1	0
614.331	1	15
614.671	1	7
615.010	1	1
615.349	1	2
615.689	1	-6
616.028	1	19
616.368	1	10
616.707	1	7
617.046	1	-1
617.386	1	8
617.725	1	0
618.064	1	-3
618.404	1	-8
618.743	1	3
619.082	1	21
619.422	1	15
619.761	1	0
620.100	1	9
620.440	1	9
620.779	1	6
621.118	1	13
621.458	1	4
621.797	1	-5
622.136	1	-13
622.476	1	-4
622.815	1	-4
623.154	1	-12
623.494	1	-4
623.833	1	-4
624.172	1	4
624.511	1	-8
624.851	1	5
625.190	1	0
625.529	1	3
625.869	1	-1
626.208	1	0
626.547	1	-9
626.886	1	-2
627.226	1	0
627.565	1	6
627.904	1	2
628.243	1	11
628.583	1	9
628.922	1	6
629.261	1	4
629.600	1	6
629.940	1	9
630.279	1	6
630.618	1	5
630.957	1	5
631.297	1	5
631.636	1	6
631.975	1	-8
632.314	1	8
632.653	1	-10
632.993	1	0
633.332	1	8
633.671	1	14
634.010	1	6
634.349	1	10
634.689	1	-2
635.028	1	-3
635.367	1	8
635.706	1	-6
636.045	1	0
636.384	1	0
636.724	1	6
637.063	1	-7
637.402	1	4
637.741	1	-5
638.080	1	5
638.419	1	6
638.759	1	7
639.098	1	0
639.437	1	-3
639.776	1	10
640.115	1	-12
640.454	1	-9
640.793	1	-5
641.132	1	4
641.472	1	5
641.811	1	-5
642.150	1	-6
642.489	1	-3
642.828	1	3
643.167	1	9
643.506	1	-3
643.845	1	16
644.184	1	8
644.524	1	-4
644.863	1	-7
645.202	1	-1
645.541	1	4
645.880	1	10
646.219	1	10
646.558	1	-5
646.897	1	-1
647.236	1	-9
647.575	1	8
647.914	1	2
648.253	1	12
648.592	1	2
648.931	1	14
649.270	1	12
649.610	1	7
649.949	1	-5
650.288	1	11
650.627	1	2
650.966	1	0
651.305	1	3
651.644	1	7
651.983	1	-14
652.322	1	6
652.661	1	5
653.000	1	2
653.339	1	-2
653.678	1	6
654.017	1	7
654.356	1	5
654.695	1	11
655.034	1	-5
655.373	1	3
655.712	1	7
656.051	1	0
656.390	1	1
656.729	1	4
657.068	1	2
657.406	1	-6
657.745	1	12
658.084	1	11
658.423	1	14
658.762	1	-3
659.101	1	1
659.440	1	-5
659.779	1	2
660.118	1	6
660.457	1	-2
660.796	1	11
661.135	1	10
661.474	1	1
661.813	1	-6
662.152	1	4
662.491	1	-6
662.829	1	4
663.168	1	0
663.507	1	3
663.846	1	-6
664.185	1	6
664.524	1	13
664.863	1	-11
665.202	1	3
665.541	1	10
665.879	1	3
666.218	1	5
666.557	1	-6
666.896	1	7
667.235	1	-5
667.574	1	2
667.913	1	3
668.251	1	-6
668.590	1	2
668.929	1	-2
669.268	1	0
669.607	1	-1
669.946	1	-1
670.285	1	-1
670.623	1	5
670.962	1	-5
671.301	1	-3
671.640	1	5
671.979	1	-7
672.317	1	-2
672.656	1	7
672.995	1	5
673.334	1	-2
673.673	1	14
674.011	1	7
674.350	1	8
674.689	1	-6
675.028	1	11
675.367	1	4
675.705	1	-7
676.044	1	1
676.383	1	0
676.722	1	0
677.060	1	3
677.399	1	13
677.738	1	-10
678.077	1	-1
678.416	1	0
678.754	1	-8
679.093	1	7
679.432	1	-5
679.771	1	-5
680.109	1	5
680.448	1	4
680.787	1	-10
681.125	1	1
681.464	1	8
681.803	1	-9
682.142	1	-2
682.480	1	-1
682.819	1	1
683.158	1	-10
683.496	1	-4
683.835	1	10
684.174	1	-5
684.512	1	-1
684.851	1	-6
685.190	1	-6
685.529	1	-1
685.867	1	5
686.206	1	-10
686.545	1	-1
686.883	1	3
687.222	1	-9
687.561	1	-1
687.899	1	13
688.238	1	12
688.577	1	-4
688.746	1	6