File: Data/GaN_150K_450ms/GaN_sample D_spot15_UVVIS_150 K_200um_450 ms 2x2mm1_283.txt
340.368	1	10
340.710	1	-2
341.052	1	8
341.394	1	-4
341.737	1	15
342.079	1	0
342.421	1	8
342.763	1	1
343.105	1	12
343.447	1	-2
343.789	1	4
344.131	1	-9
344.473	1	6
344.815	1	7
345.157	1	7
345.499	1	1
345.841	1	4
346.183	1	7
346.526	1	2
346.868	1	-5
347.210	1	4
347.552	1	17
347.894	1	-3
348.236	1	10
348.578	1	5
348.920	1	0
349.262	1	4
349.604	1	-4
349.946	1	-4
350.288	1	-7
350.630	1	-5
350.972	1	3
351.314	1	-8
351.656	1	4
351.998	1	1
352.340	1	4
352.682	1	-6
353.024	1	11
353.366	1	4
353.708	1	-1
354.050	1	-7
354.392	1	-3
354.734	1	2
355.076	1	9
355.418	1	-2
355.760	1	7
356.102	1	4
356.444	1	-4
356.785	1	5
357.127	1	10
357.469	1	8
357.811	1	-1
358.153	1	-12
358.495	1	-3
358.837	1	11
359.179	1	2
359.521	1	12
359.863	1	-5
360.205	1	13
360.547	1	2
360.889	1	-1
361.231	1	15
361.572	1	8
361.914	1	7
362.256	1	6
362.598	1	14
362.940	1	6
363.282	1	0
363.624	1	0
363.966	1	-1
364.308	1	10
364.649	1	8
364.991	1	22
365.333	1	0
365.675	1	18
366.017	1	10
366.359	1	9
366.701	1	10
367.042	1	14
367.384	1	8
367.726	1	14
368.068	1	19
368.410	1	12
368.752	1	22
369.093	1	18
369.435	1	17
369.777	1	24
370.119	1	15
370.461	1	2
370.803	1	11
371.144	1	9
371.486	1	19
371.828	1	10
372.170	1	8
372.512	1	6
372.853	1	18
373.195	1	6
373.537	1	6
373.879	1	0
374.220	1	12
374.562	1	11
374.904	1	7
375.246	1	13
375.588	1	2
375.929	1	7
376.271	1	-1
376.613	1	1
376.955	1	13
377.296	1	7
377.638	1	0
377.980	1	5
378.321	1	4
378.663	1	5
379.005	1	4
379.347	1	5
379.688	1	16
380.030	1	15
380.372	1	5
380.714	1	8
381.055	1	-5
381.397	1	-4
381.739	1	-5
382.080	1	3
382.422	1	15
382.764	1	2
383.105	1	0
383.447	1	11
383.789	1	-5
384.130	1	8
384.472	1	-2
384.814	1	7
385.156	1	7
385.497	1	11
385.839	1	11
386.180	1	-3
386.522	1	6
386.864	1	-3
387.205	1	5
387.547	1	5
387.889	1	-3
388.230	1	-4
388.572	1	-6
388.914	1	14
389.255	1	6
389.597	1	-3
389.939	1	9
390.280	1	-10
390.622	1	-4
390.963	1	-3
391.305	1	9
391.647	1	-5
391.988	1	7
392.330	1	0
392.671	1	9
393.013	1	6
393.355	1	11
393.696	1	3
394.038	1	7
394.379	1	4
394.721	1	6
395.062	1	0
395.404	1	4
395.746	1	-5
396.087	1	6
396.429	1	6
396.770	1	-2
397.112	1	-1
397.453	1	-3
397.795	1	2
398.136	1	5
398.478	1	3
398.819	1	6
399.161	1	1
399.503	1	9
399.844	1	-2
400.186	1	0
400.527	1	1
400.869	1	-2
401.210	1	5
401.552	1	8
401.893	1	6
402.235	1	8
402.576	1	8
402.918	1	3
403.259	1	-2
403.601	1	3
403.942	1	9
404.284	1	1
404.625	1	-5
404.967	1	0
405.308	1	-7
405.649	1	5
405.991	1	5
406.332	1	10
406.674	1	3
407.015	1	-1
407.357	1	6
407.698	1	1
408.040	1	6
408.381	1	-10
408.722	1	10
409.064	1	7
409.405	1	3
409.747	1	9
410.088	1	-2
410.430	1	11
410.771	1	-6
411.112	1	9
411.454	1	-1
411.795	1	4
412.137	1	-1
412.478	1	4
412.819	1	9
413.161	1	-1
413.502	1	-1
413.844	1	12
414.185	1	-1
414.526	1	-8
414.868	1	-1
415.209	1	-6
415.550	1	2
415.892	1	7
416.233	1	5
416.575	1	-13
416.916	1	-6
417.257	1	2
417.599	1	-1
417.940	1	1
418.281	1	6
418.623	1	-1
418.964	1	17
419.305	1	7
419.647	1	7
419.988	1	14
420.329	1	1
420.671	1	-6
421.012	1	-6
421.353	1	13
421.695	1	12
422.036	1	14
422.377	1	0
422.718	1	5
423.060	1	6
423.401	1	7
423.742	1	14
424.084	1	-1
424.425	1	19
424.766	1	6
425.107	1	2
425.449	1	6
425.790	1	-2
426.131	1	-2
426.472	1	11
426.814	1	7
427.155	1	0
427.496	1	-7
427.837	1	0
428.179	1	9
428.520	1	7
428.861	1	7
429.202	1	0
429.544	1	3
429.885	1	6
430.226	1	-2
430.567	1	-9
430.909	1	5
431.250	1	11
431.591	1	12
431.932	1	-2
432.273	1	10
432.615	1	0
432.956	1	5
433.297	1	5
433.638	1	7
433.979	1	8
434.320	1	-3
434.662	1	4
435.003	1	10
435.344	1	-6
435.685	1	0
436.026	1	5
436.368	1	-6
436.709	1	-2
437.050	1	-2
437.391	1	-6
437.732	1	-5
438.073	1	-5
438.414	1	4
438.756	1	-8
439.097	1	1
439.438	1	2
439.779	1	-3
440.120	1	-8
440.461	1	5
440.802	1	5
441.143	1	1
441.485	1	3
441.826	1	2
442.167	1	5
442.508	1	2
442.849	1	12
443.190	1	-2
443.531	1	4
443.872	1	-4
444.213	1	-2
444.554	1	8
444.895	1	-6
445.237	1	3
445.578	1	-12
445.919	1	-3
446.260	1	10
446.601	1	0
446.942	1	-4
447.283	1	13
447.624	1	-3
447.965	1	5
448.306	1	8
448.647	1	3
448.988	1	-4
449.329	1	1
449.670	1	8
450.011	1	3
450.352	1	3
450.693	1	9
451.034	1	3
451.375	1	-1
451.716	1	7
452.057	1	8
452.398	1	5
452.739	1	14
453.080	1	7
453.421	1	6
453.762	1	1
454.103	1	1
454.444	1	-1
454.785	1	5
455.126	1	3
455.467	1	0
455.808	1	13
456.149	1	-5
456.490	1	-11
456.831	1	-2
457.172	1	1
457.513	1	0
457.854	1	0
458.195	1	0
458.536	1	4
458.877	1	6
459.218	1	5
459.559	1	-3
459.899	1	-3
460.240	1	-1
460.581	1	1
460.922	1	5
461.263	1	9
461.604	1	-1
461.945	1	9
462.286	1	3
462.627	1	0
462.968	1	7
463.309	1	-1
463.649	1	-1
463.990	1	-4
464.331	1	4
464.672	1	12
465.013	1	0
465.354	1	9
465.695	1	-6
466.036	1	3
466.376	1	6
466.717	1	-10
467.058	1	6
467.399	1	-2
467.740	1	11
468.081	1	16
468.422	1	9
468.762	1	2
469.103	1	-1
469.444	1	5
469.785	1	-2
470.126	1	-1
470.467	1	9
470.807	1	9
471.148	1	-3
471.489	1	7
471.830	1	4
472.171	1	10
472.511	1	12
472.852	1	12
473.193	1	7
473.534	1	4
473.875	1	0
474.215	1	4
474.556	1	-4
474.897	1	-5
475.238	1	-6
475.578	1	-6
475.919	1	-3
476.260	1	-2
476.601	1	6
476.942	1	-2
477.282	1	-7
477.623	1	-2
477.964	1	6
478.305	1	6
478.645	1	0
478.986	1	4
479.327	1	1
479.667	1	5
480.008	1	4
480.349	1	6
480.690	1	0
481.030	1	-10
481.371	1	-13
481.712	1	12
482.053	1	15
482.393	1	2
482.734	1	2
483.075	1	-4
483.415	1	6
483.756	1	8
484.097	1	14
484.437	1	7
484.778	1	-13
485.119	1	6
485.459	1	-7
485.800	1	-3
486.141	1	6
486.481	1	-11
486.822	1	4
487.163	1	-2
487.503	1	1
487.844	1	-2
488.185	1	12
488.525	1	-4
488.866	1	-4
489.207	1	0
489.547	1	6
489.888	1	1
490.228	1	-4
490.569	1	-7
490.910	1	8
491.250	1	2
491.591	1	3
491.932	1	-4
492.272	1	-10
492.613	1	-1
492.953	1	-2
493.294	1	-13
493.635	1	-2
493.975	1	11
494.316	1	-14
494.656	1	3
494.997	1	-13
495.337	1	-4
495.678	1	-2
496.019	1	-5
496.359	1	3
496.700	1	7
497.040	1	-4
497.381	1	-1
497.721	1	0
498.062	1	-7
498.403	1	8
498.743	1	2
499.084	1	4
499.424	1	-4
499.765	1	6
500.105	1	12
500.446	1	-7
500.786	1	-2
501.127	1	-5
501.467	1	3
501.808	1	11
502.148	1	4
502.489	1	-2
502.829	1	-4
503.170	1	2
503.510	1	-6
503.851	1	4
504.191	1	-1
504.532	1	9
504.872	1	-1
505.213	1	-3
505.553	1	8
505.894	1	11
506.234	1	9
506.575	1	16
506.915	1	-1
507.256	1	3
507.596	1	13
507.936	1	9
508.277	1	4
508.617	1	12
508.958	1	5
509.298	1	2
509.639	1	-7
509.979	1	-1
510.319	1	6
510.660	1	5
511.000	1	2
511.341	1	7
511.681	1	6
512.022	1	-6
512.362	1	3
512.702	1	-2
513.043	1	4
513.383	1	-1
513.724	1	1
514.064	1	16
514.404	1	-1
514.745	1	-3
515.085	1	6
515.425	1	10
515.766	1	9
516.106	1	-1
516.447	1	5
516.787	1	2
517.127	1	4
517.468	1	9
517.808	1	0
518.148	1	17
518.489	1	1
518.829	1	6
519.169	1	3
519.510	1	-6
519.850	1	-1
520.190	1	4
520.531	1	3
520.871	1	5
521.211	1	6
521.552	1	-1
521.892	1	0
522.232	1	6
522.573	1	9
522.913	1	9
523.253	1	7
523.593	1	10
523.934	1	1
524.274	1	5
524.614	1	5
524.955	1	-3
525.295	1	15
525.635	1	6
525.975	1	-3
526.316	1	-11
526.656	1	1
526.996	1	-2
527.337	1	13
527.677	1	20
528.017	1	-14
528.357	1	-5
528.698	1	8
529.038	1	2
529.378	1	4
529.718	1	0
530.058	1	1
530.399	1	0
530.739	1	7
531.079	1	1
531.419	1	-5
531.760	1	13
532.100	1	8
532.440	1	13
532.780	1	3
533.120	1	1
533.461	1	-7
533.801	1	-2
534.141	1	-2
534.481	1	17
534.821	1	4
535.162	1	-2
535.502	1	6
535.842	1	6
536.182	1	7
536.522	1	1
536.862	1	3
537.203	1	4
537.543	1	16
537.883	1	2
538.223	1	16
538.563	1	-3
538.903	1	4
539.243	1	1
539.584	1	-5
539.924	1	2
540.264	1	10
540.604	1	9
540.944	1	2
541.284	1	-4
541.624	1	2
541.964	1	5
542.305	1	9
542.645	1	2
542.985	1	5
543.325	1	10
543.665	1	2
544.005	1	-1
544.345	1	10
544.685	1	0
545.025	1	12
545.365	1	7
545.705	1	5
546.045	1	2
546.386	1	-1
546.726	1	-8
547.066	1	-5
547.406	1	2
547.746	1	11
548.086	1	9
548.426	1	-8
548.766	1	6
549.106	1	-2
549.446	1	4
549.786	1	6
550.126	1	1
550.466	1	0
550.806	1	10
551.146	1	2
551.486	1	-7
551.826	1	-4
552.166	1	3
552.506	1	6
552.846	1	-1
553.186	1	-3
553.526	1	-2
553.866	1	-5
554.206	1	10
554.546	1	8
554.886	1	7
555.226	1	0
555.566	1	7
555.906	1	-4
556.246	1	2
556.586	1	-1
556.926	1	1
557.266	1	4
557.606	1	-13
557.946	1	9
558.286	1	3
558.626	1	0
558.966	1	-1
559.306	1	10
559.646	1	8
559.986	1	18
560.325	1	8
560.665	1	-1
561.005	1	4
561.345	1	-1
561.685	1	5
562.025	1	20
562.365	1	-5
562.705	1	4
563.045	1	8
563.385	1	8
563.725	1	-2
564.064	1	-6
564.404	1	4
564.744	1	22
565.084	1	1
565.424	1	-4
565.764	1	2
566.104	1	7
566.444	1	11
566.783	1	7
567.123	1	2
567.463	1	4
567.803	1	4
568.143	1	-1
568.483	1	6
568.823	1	-6
569.162	1	-6
569.502	1	5
569.842	1	0
570.182	1	-1
570.522	1	0
570.862	1	-13
571.201	1	3
571.541	1	0
571.881	1	0
572.221	1	3
572.561	1	15
572.900	1	7
573.240	1	-5
573.580	1	1
573.920	1	8
574.260	1	-2
574.599	1	10
574.939	1	-2
575.279	1	2
575.619	1	4
575.959	1	2
576.298	1	-11
576.638	1	4
576.978	1	0
577.318	1	2
577.657	1	-3
577.997	1	1
578.337	1	4
578.677	1	8
579.016	1	-1
579.356	1	6
579.696	1	-7
580.036	1	3
580.375	1	5
580.715	1	-7
581.055	1	-1
581.394	1	2
581.734	1	-10
582.074	1	1
582.414	1	2
582.753	1	4
583.093	1	1
583.433	1	6
583.772	1	7
584.112	1	5
584.452	1	5
584.791	1	6
585.131	1	10
585.471	1	0
585.811	1	7
586.150	1	0
586.490	1	10
586.830	1	3
587.169	1	-7
587.509	1	0
587.849	1	9
588.188	1	8
588.528	1	-9
588.867	1	5
589.207	1	-6
589.547	1	-3
589.886	1	6
590.226	1	2
590.566	1	1
590.905	1	-3
591.245	1	-13
591.585	1	0
591.924	1	-1
592.264	1	7
592.603	1	-16
592.943	1	4
593.283	1	-8
593.622	1	6
593.962	1	0
594.301	1	2
594.641	1	0
594.981	1	3
595.320	1	11
595.660	1	-3
595.999	1	3
596.339	1	-2
596.678	1	-5
597.018	1	-3
597.358	1	4
597.697	1	-3
598.037	1	1
598.376	1	-5
598.716	1	5
599.055	1	7
599.395	1	-4
599.734	1	0
600.074	1	-6
600.413	1	2
600.753	1	6
601.092	1	-6
601.432	1	-6
601.771	1	5
602.111	1	7
602.451	1	-3
602.790	1	10
603.130	1	-4
603.469	1	-1
603.809	1	7
604.148	1	-1
604.487	1	3
604.827	1	3
605.166	1	5
605.506	1	-5
605.845	1	4
606.185	1	0
606.524	1	-6
606.864	1	0
607.203	1	12
607.543	1	5
607.882	1	17
608.222	1	-2
608.561	1	1
608.901	1	6
609.240	1	3
609.579	1	-1
609.919	1	-4
610.258	1	14
610.598	1	-3
610.937	1	8
611.277	1	-2
611.616	1	7
611.955	1	-3
612.295	1	7
612.634	1	3
612.974	1	0
613.313	1	1
613.652	1	8
613.992	1	0
614.331	1	16
614.671	1	4
615.010	1	3
615.349	1	1
615.689	1	-8
616.028	1	17
616.368	1	14
616.707	1	7
617.046	1	6
617.386	1	4
617.725	1	-2
618.064	1	2
618.404	1	-2
618.743	1	0
619.082	1	11
619.422	1	21
619.761	1	-1
620.100	1	-4
620.440	1	5
620.779	1	8
621.118	1	14
621.458	1	5
621.797	1	-3
622.136	1	2
622.476	1	2
622.815	1	2
623.154	1	-11
623.494	1	-3
623.833	1	-4
624.172	1	5
624.511	1	-9
624.851	1	-2
625.190	1	-2
625.529	1	-7
625.869	1	2
626.208	1	-1
626.547	1	-1
626.886	1	-5
627.226	1	8
627.565	1	1
627.904	1	-6
628.243	1	9
628.583	1	2
628.922	1	6
629.261	1	6
629.600	1	2
629.940	1	10
630.279	1	8
630.618	1	4
630.957	1	2
631.297	1	-4
631.636	1	-1
631.975	1	5
632.314	1	-6
632.653	1	-6
632.993	1	1
633.332	1	4
633.671	1	6
634.010	1	0
634.349	1	8
634.689	1	-3
635.028	1	-13
635.367	1	13
635.706	1	3
636.045	1	-6
636.384	1	2
636.724	1	-3
637.063	1	0
637.402	1	13
637.741	1	1
638.080	1	0
638.419	1	-4
638.759	1	-2
639.098	1	7
639.437	1	7
639.776	1	-5
640.115	1	-10
640.454	1	-6
640.793	1	8
641.132	1	0
641.472	1	14
641.811	1	-3
642.150	1	-6
642.489	1	6
642.828	1	14
643.167	1	-5
643.506	1	0
643.845	1	2
644.184	1	4
644.524	1	-6
644.863	1	0
645.202	1	-3
645.541	1	-5
645.880	1	5
646.219	1	-2
646.558	1	-2
646.897	1	-6
647.236	1	-3
647.575	1	8
647.914	1	1
648.253	1	11
648.592	1	1
648.931	1	7
649.270	1	12
649.610	1	6
649.949	1	-3
650.288	1	4
650.627	1	0
650.966	1	3
651.305	1	9
651.644	1	9
651.983	1	-2
652.322	1	-6
652.661	1	0
653.000	1	4
653.339	1	2
653.678	1	-2
654.017	1	14
654.356	1	1
654.695	1	12
655.034	1	-6
655.373	1	2
655.712	1	6
656.051	1	-5
656.390	1	4
656.729	1	15
657.068	1	5
657.406	1	-8
657.745	1	6
658.084	1	-3
658.423	1	12
658.762	1	-11
659.101	1	2
659.440	1	3
659.779	1	5
660.118	1	0
660.457	1	5
660.796	1	10
661.135	1	12
661.474	1	9
661.813	1	-7
662.152	1	6
662.491	1	-1
662.829	1	0
663.168	1	2
663.507	1	13
663.846	1	6
664.185	1	-2
664.524	1	7
664.863	1	-4
665.202	1	6
665.541	1	0
665.879	1	5
666.218	1	5
666.557	1	-4
666.896	1	5
667.235	1	-16
667.574	1	-4
667.913	1	9
668.251	1	-4
668.590	1	-1
668.929	1	7
669.268	1	6
669.607	1	-12
669.946	1	0
670.285	1	1
670.623	1	1
670.962	1	2
671.301	1	-1
671.640	1	0
671.979	1	-1
672.317	1	4
672.656	1	5
672.995	1	-10
673.334	1	-2
673.673	1	4
674.011	1	2
674.350	1	0
674.689	1	-3
675.028	1	-1
675.367	1	5
675.705	1	-9
676.044	1	0
676.383	1	-2
676.722	1	-3
677.060	1	3
677.399	1	13
677.738	1	-10
678.077	1	0
678.416	1	0
678.754	1	9
679.093	1	7
679.432	1	-1
679.771	1	5
680.109	1	6
680.448	1	-8
680.787	1	2
681.125	1	-9
681.464	1	2
681.803	1	-5
682.142	1	0
682.480	1	-5
682.819	1	-3
683.158	1	-2
683.496	1	-6
683.835	1	-3
684.174	1	-1
684.512	1	2
684.851	1	-5
685.190	1	5
685.529	1	-1
685.867	1	-5
686.206	1	-6
686.545	1	-2
686.883	1	-1
687.222	1	1
687.561	1	-8
687.899	1	-6
688.238	1	13
688.577	1	2
688.746	1	3