File: Data/GaN_150K_450ms/GaN_sample D_spot15_UVVIS_150 K_200um_450 ms 2x2mm1_83.txt
340.368	1	6
340.710	1	9
341.052	1	1
341.394	1	-5
341.737	1	9
342.079	1	6
342.421	1	7
342.763	1	12
343.105	1	8
343.447	1	1
343.789	1	-4
344.131	1	-10
344.473	1	-3
344.815	1	1
345.157	1	14
345.499	1	6
345.841	1	4
346.183	1	-5
346.526	1	9
346.868	1	3
347.210	1	7
347.552	1	16
347.894	1	-4
348.236	1	9
348.578	1	12
348.920	1	1
349.262	1	14
349.604	1	-2
349.946	1	7
350.288	1	-5
350.630	1	1
350.972	1	11
351.314	1	4
351.656	1	17
351.998	1	12
352.340	1	7
352.682	1	-12
353.024	1	15
353.366	1	7
353.708	1	10
354.050	1	2
354.392	1	-4
354.734	1	13
355.076	1	24
355.418	1	10
355.760	1	9
356.102	1	4
356.444	1	18
356.785	1	22
357.127	1	17
357.469	1	6
357.811	1	14
358.153	1	7
358.495	1	19
358.837	1	32
359.179	1	20
359.521	1	30
359.863	1	27
360.205	1	35
360.547	1	33
360.889	1	36
361.231	1	37
361.572	1	48
361.914	1	47
362.256	1	57
362.598	1	55
362.940	1	60
363.282	1	55
363.624	1	65
363.966	1	67
364.308	1	87
364.649	1	85
364.991	1	91
365.333	1	92
365.675	1	122
366.017	1	109
366.359	1	126
366.701	1	123
367.042	1	143
367.384	1	133
367.726	1	137
368.068	1	145
368.410	1	146
368.752	1	152
369.093	1	147
369.435	1	139
369.777	1	141
370.119	1	136
370.461	1	106
370.803	1	120
371.144	1	112
371.486	1	123
371.828	1	103
372.170	1	90
372.512	1	79
372.853	1	104
373.195	1	80
373.537	1	62
373.879	1	83
374.220	1	84
374.562	1	72
374.904	1	69
375.246	1	60
375.588	1	64
375.929	1	64
376.271	1	61
376.613	1	46
376.955	1	53
377.296	1	53
377.638	1	45
377.980	1	39
378.321	1	51
378.663	1	44
379.005	1	40
379.347	1	40
379.688	1	45
380.030	1	39
380.372	1	47
380.714	1	37
381.055	1	19
381.397	1	39
381.739	1	30
382.080	1	22
382.422	1	34
382.764	1	31
383.105	1	20
383.447	1	30
383.789	1	28
384.130	1	19
384.472	1	26
384.814	1	30
385.156	1	28
385.497	1	32
385.839	1	24
386.180	1	21
386.522	1	24
386.864	1	11
387.205	1	19
387.547	1	20
387.889	1	19
388.230	1	21
388.572	1	18
388.914	1	27
389.255	1	20
389.597	1	21
389.939	1	31
390.280	1	10
390.622	1	8
390.963	1	16
391.305	1	18
391.647	1	14
391.988	1	25
392.330	1	17
392.671	1	23
393.013	1	11
393.355	1	21
393.696	1	8
394.038	1	18
394.379	1	17
394.721	1	16
395.062	1	12
395.404	1	21
395.746	1	16
396.087	1	17
396.429	1	19
396.770	1	8
397.112	1	12
397.453	1	12
397.795	1	19
398.136	1	25
398.478	1	12
398.819	1	17
399.161	1	21
399.503	1	23
399.844	1	11
400.186	1	17
400.527	1	19
400.869	1	18
401.210	1	11
401.552	1	12
401.893	1	16
402.235	1	15
402.576	1	15
402.918	1	5
403.259	1	10
403.601	1	10
403.942	1	18
404.284	1	28
404.625	1	0
404.967	1	22
405.308	1	3
405.649	1	16
405.991	1	7
406.332	1	14
406.674	1	8
407.015	1	18
407.357	1	17
407.698	1	23
408.040	1	23
408.381	1	13
408.722	1	12
409.064	1	16
409.405	1	12
409.747	1	10
410.088	1	14
410.430	1	19
410.771	1	21
411.112	1	16
411.454	1	10
411.795	1	20
412.137	1	19
412.478	1	14
412.819	1	10
413.161	1	12
413.502	1	18
413.844	1	15
414.185	1	13
414.526	1	7
414.868	1	8
415.209	1	20
415.550	1	13
415.892	1	16
416.233	1	9
416.575	1	15
416.916	1	17
417.257	1	15
417.599	1	20
417.940	1	9
418.281	1	19
418.623	1	15
418.964	1	32
419.305	1	9
419.647	1	22
419.988	1	26
420.329	1	15
420.671	1	23
421.012	1	8
421.353	1	13
421.695	1	20
422.036	1	17
422.377	1	15
422.718	1	19
423.060	1	30
423.401	1	8
423.742	1	21
424.084	1	20
424.425	1	22
424.766	1	11
425.107	1	22
425.449	1	23
425.790	1	20
426.131	1	11
426.472	1	21
426.814	1	24
427.155	1	11
427.496	1	12
427.837	1	14
428.179	1	19
428.520	1	7
428.861	1	18
429.202	1	10
429.544	1	19
429.885	1	19
430.226	1	-3
430.567	1	11
430.909	1	13
431.250	1	20
431.591	1	14
431.932	1	10
432.273	1	19
432.615	1	12
432.956	1	11
433.297	1	11
433.638	1	18
433.979	1	17
434.320	1	15
434.662	1	10
435.003	1	20
435.344	1	12
435.685	1	14
436.026	1	15
436.368	1	6
436.709	1	20
437.050	1	0
437.391	1	12
437.732	1	11
438.073	1	3
438.414	1	6
438.756	1	10
439.097	1	22
439.438	1	13
439.779	1	12
440.120	1	6
440.461	1	15
440.802	1	14
441.143	1	12
441.485	1	18
441.826	1	17
442.167	1	24
442.508	1	15
442.849	1	18
443.190	1	7
443.531	1	11
443.872	1	3
444.213	1	10
444.554	1	15
444.895	1	8
445.237	1	17
445.578	1	7
445.919	1	8
446.260	1	16
446.601	1	16
446.942	1	5
447.283	1	11
447.624	1	3
447.965	1	8
448.306	1	10
448.647	1	6
448.988	1	12
449.329	1	13
449.670	1	9
450.011	1	12
450.352	1	0
450.693	1	10
451.034	1	2
451.375	1	12
451.716	1	11
452.057	1	10
452.398	1	18
452.739	1	13
453.080	1	18
453.421	1	16
453.762	1	9
454.103	1	13
454.444	1	2
454.785	1	22
455.126	1	11
455.467	1	12
455.808	1	21
456.149	1	9
456.490	1	0
456.831	1	16
457.172	1	6
457.513	1	10
457.854	1	3
458.195	1	18
458.536	1	16
458.877	1	12
459.218	1	11
459.559	1	6
459.899	1	5
460.240	1	6
460.581	1	6
460.922	1	12
461.263	1	19
461.604	1	9
461.945	1	8
462.286	1	3
462.627	1	14
462.968	1	16
463.309	1	7
463.649	1	8
463.990	1	1
464.331	1	13
464.672	1	12
465.013	1	11
465.354	1	18
465.695	1	13
466.036	1	11
466.376	1	15
466.717	1	0
467.058	1	6
467.399	1	2
467.740	1	20
468.081	1	13
468.422	1	9
468.762	1	7
469.103	1	12
469.444	1	5
469.785	1	7
470.126	1	17
470.467	1	7
470.807	1	17
471.148	1	2
471.489	1	5
471.830	1	8
472.171	1	8
472.511	1	20
472.852	1	12
473.193	1	8
473.534	1	6
473.875	1	9
474.215	1	14
474.556	1	12
474.897	1	5
475.238	1	12
475.578	1	4
475.919	1	9
476.260	1	8
476.601	1	21
476.942	1	3
477.282	1	2
477.623	1	16
477.964	1	15
478.305	1	11
478.645	1	13
478.986	1	19
479.327	1	13
479.667	1	3
480.008	1	9
480.349	1	6
480.690	1	14
481.030	1	4
481.371	1	-9
481.712	1	28
482.053	1	15
482.393	1	4
482.734	1	9
483.075	1	17
483.415	1	16
483.756	1	9
484.097	1	13
484.437	1	23
484.778	1	13
485.119	1	12
485.459	1	3
485.800	1	3
486.141	1	18
486.481	1	1
486.822	1	19
487.163	1	5
487.503	1	10
487.844	1	11
488.185	1	12
488.525	1	4
488.866	1	12
489.207	1	20
489.547	1	12
489.888	1	14
490.228	1	6
490.569	1	9
490.910	1	28
491.250	1	14
491.591	1	21
491.932	1	20
492.272	1	11
492.613	1	5
492.953	1	23
493.294	1	9
493.635	1	20
493.975	1	21
494.316	1	10
494.656	1	19
494.997	1	14
495.337	1	4
495.678	1	14
496.019	1	24
496.359	1	12
496.700	1	21
497.040	1	23
497.381	1	15
497.721	1	4
498.062	1	14
498.403	1	23
498.743	1	27
499.084	1	21
499.424	1	16
499.765	1	16
500.105	1	28
500.446	1	17
500.786	1	21
501.127	1	27
501.467	1	33
501.808	1	20
502.148	1	19
502.489	1	34
502.829	1	21
503.170	1	24
503.510	1	22
503.851	1	32
504.191	1	24
504.532	1	30
504.872	1	27
505.213	1	30
505.553	1	20
505.894	1	33
506.234	1	40
506.575	1	42
506.915	1	33
507.256	1	40
507.596	1	30
507.936	1	36
508.277	1	35
508.617	1	36
508.958	1	40
509.298	1	23
509.639	1	21
509.979	1	28
510.319	1	25
510.660	1	37
511.000	1	29
511.341	1	40
511.681	1	29
512.022	1	19
512.362	1	32
512.702	1	38
513.043	1	42
513.383	1	46
513.724	1	34
514.064	1	42
514.404	1	43
514.745	1	31
515.085	1	36
515.425	1	48
515.766	1	37
516.106	1	28
516.447	1	46
516.787	1	42
517.127	1	48
517.468	1	47
517.808	1	29
518.148	1	44
518.489	1	31
518.829	1	36
519.169	1	27
519.510	1	34
519.850	1	46
520.190	1	32
520.531	1	42
520.871	1	41
521.211	1	50
521.552	1	27
521.892	1	37
522.232	1	42
522.573	1	39
522.913	1	38
523.253	1	52
523.593	1	37
523.934	1	41
524.274	1	47
524.614	1	54
524.955	1	40
525.295	1	46
525.635	1	41
525.975	1	36
526.316	1	28
526.656	1	44
526.996	1	35
527.337	1	40
527.677	1	47
528.017	1	41
528.357	1	40
528.698	1	51
529.038	1	45
529.378	1	38
529.718	1	45
530.058	1	43
530.399	1	44
530.739	1	42
531.079	1	35
531.419	1	36
531.760	1	47
532.100	1	50
532.440	1	46
532.780	1	43
533.120	1	32
533.461	1	38
533.801	1	44
534.141	1	44
534.481	1	49
534.821	1	43
535.162	1	34
535.502	1	40
535.842	1	42
536.182	1	39
536.522	1	39
536.862	1	32
537.203	1	31
537.543	1	31
537.883	1	28
538.223	1	41
538.563	1	32
538.903	1	38
539.243	1	39
539.584	1	39
539.924	1	43
540.264	1	41
540.604	1	41
540.944	1	44
541.284	1	32
541.624	1	37
541.964	1	37
542.305	1	38
542.645	1	20
542.985	1	28
543.325	1	46
543.665	1	34
544.005	1	39
544.345	1	45
544.685	1	33
545.025	1	36
545.365	1	41
545.705	1	32
546.045	1	29
546.386	1	33
546.726	1	39
547.066	1	45
547.406	1	24
547.746	1	36
548.086	1	37
548.426	1	41
548.766	1	34
549.106	1	38
549.446	1	36
549.786	1	39
550.126	1	40
550.466	1	36
550.806	1	47
551.146	1	44
551.486	1	31
551.826	1	22
552.166	1	35
552.506	1	25
552.846	1	38
553.186	1	18
553.526	1	25
553.866	1	30
554.206	1	31
554.546	1	26
554.886	1	35
555.226	1	34
555.566	1	34
555.906	1	16
556.246	1	33
556.586	1	25
556.926	1	15
557.266	1	40
557.606	1	26
557.946	1	23
558.286	1	27
558.626	1	27
558.966	1	23
559.306	1	30
559.646	1	18
559.986	1	33
560.325	1	23
560.665	1	22
561.005	1	33
561.345	1	21
561.685	1	26
562.025	1	29
562.365	1	22
562.705	1	31
563.045	1	28
563.385	1	30
563.725	1	24
564.064	1	23
564.404	1	16
564.744	1	33
565.084	1	22
565.424	1	21
565.764	1	16
566.104	1	34
566.444	1	24
566.783	1	17
567.123	1	16
567.463	1	20
567.803	1	23
568.143	1	34
568.483	1	30
568.823	1	12
569.162	1	17
569.502	1	22
569.842	1	22
570.182	1	13
570.522	1	15
570.862	1	17
571.201	1	25
571.541	1	17
571.881	1	19
572.221	1	19
572.561	1	24
572.900	1	33
573.240	1	11
573.580	1	24
573.920	1	23
574.260	1	16
574.599	1	17
574.939	1	10
575.279	1	13
575.619	1	11
575.959	1	6
576.298	1	5
576.638	1	21
576.978	1	15
577.318	1	19
577.657	1	8
577.997	1	20
578.337	1	12
578.677	1	17
579.016	1	25
579.356	1	21
579.696	1	12
580.036	1	6
580.375	1	13
580.715	1	20
581.055	1	15
581.394	1	16
581.734	1	11
582.074	1	11
582.414	1	19
582.753	1	13
583.093	1	25
583.433	1	26
583.772	1	27
584.112	1	16
584.452	1	14
584.791	1	19
585.131	1	22
585.471	1	22
585.811	1	16
586.150	1	21
586.490	1	11
586.830	1	16
587.169	1	16
587.509	1	7
587.849	1	16
588.188	1	14
588.528	1	13
588.867	1	17
589.207	1	13
589.547	1	22
589.886	1	13
590.226	1	6
590.566	1	10
590.905	1	7
591.245	1	1
591.585	1	6
591.924	1	7
592.264	1	5
592.603	1	1
592.943	1	10
593.283	1	12
593.622	1	3
593.962	1	13
594.301	1	9
594.641	1	8
594.981	1	10
595.320	1	16
595.660	1	12
595.999	1	9
596.339	1	12
596.678	1	-3
597.018	1	4
597.358	1	8
597.697	1	8
598.037	1	8
598.376	1	6
598.716	1	14
599.055	1	20
599.395	1	4
599.734	1	13
600.074	1	2
600.413	1	10
600.753	1	10
601.092	1	2
601.432	1	11
601.771	1	7
602.111	1	17
602.451	1	1
602.790	1	15
603.130	1	16
603.469	1	11
603.809	1	6
604.148	1	-2
604.487	1	14
604.827	1	19
605.166	1	8
605.506	1	10
605.845	1	12
606.185	1	4
606.524	1	5
606.864	1	19
607.203	1	16
607.543	1	15
607.882	1	11
608.222	1	10
608.561	1	19
608.901	1	11
609.240	1	18
609.579	1	7
609.919	1	-1
610.258	1	21
610.598	1	3
610.937	1	10
611.277	1	14
611.616	1	15
611.955	1	9
612.295	1	14
612.634	1	14
612.974	1	-4
613.313	1	9
613.652	1	17
613.992	1	8
614.331	1	23
614.671	1	8
615.010	1	9
615.349	1	2
615.689	1	-1
616.028	1	18
616.368	1	15
616.707	1	11
617.046	1	8
617.386	1	15
617.725	1	3
618.064	1	3
618.404	1	4
618.743	1	13
619.082	1	17
619.422	1	13
619.761	1	5
620.100	1	11
620.440	1	17
620.779	1	8
621.118	1	13
621.458	1	1
621.797	1	7
622.136	1	-7
622.476	1	4
622.815	1	15
623.154	1	-2
623.494	1	-1
623.833	1	5
624.172	1	5
624.511	1	-1
624.851	1	-7
625.190	1	13
625.529	1	-3
625.869	1	23
626.208	1	9
626.547	1	9
626.886	1	4
627.226	1	12
627.565	1	14
627.904	1	12
628.243	1	10
628.583	1	12
628.922	1	5
629.261	1	9
629.600	1	11
629.940	1	9
630.279	1	9
630.618	1	17
630.957	1	16
631.297	1	8
631.636	1	12
631.975	1	11
632.314	1	17
632.653	1	-4
632.993	1	11
633.332	1	5
633.671	1	11
634.010	1	3
634.349	1	21
634.689	1	3
635.028	1	4
635.367	1	19
635.706	1	4
636.045	1	11
636.384	1	12
636.724	1	7
637.063	1	-3
637.402	1	12
637.741	1	5
638.080	1	5
638.419	1	-5
638.759	1	11
639.098	1	11
639.437	1	3
639.776	1	8
640.115	1	0
640.454	1	2
640.793	1	9
641.132	1	11
641.472	1	18
641.811	1	4
642.150	1	3
642.489	1	14
642.828	1	26
643.167	1	5
643.506	1	4
643.845	1	3
644.184	1	12
644.524	1	0
644.863	1	8
645.202	1	12
645.541	1	6
645.880	1	16
646.219	1	4
646.558	1	3
646.897	1	-2
647.236	1	0
647.575	1	16
647.914	1	13
648.253	1	13
648.592	1	8
648.931	1	16
649.270	1	0
649.610	1	8
649.949	1	-5
650.288	1	5
650.627	1	9
650.966	1	8
651.305	1	14
651.644	1	19
651.983	1	-4
652.322	1	7
652.661	1	12
653.000	1	12
653.339	1	11
653.678	1	11
654.017	1	13
654.356	1	17
654.695	1	19
655.034	1	0
655.373	1	3
655.712	1	10
656.051	1	-3
656.390	1	5
656.729	1	4
657.068	1	1
657.406	1	2
657.745	1	13
658.084	1	8
658.423	1	10
658.762	1	6
659.101	1	8
659.440	1	9
659.779	1	8
660.118	1	2
660.457	1	4
660.796	1	7
661.135	1	10
661.474	1	9
661.813	1	11
662.152	1	6
662.491	1	-1
662.829	1	8
663.168	1	9
663.507	1	5
663.846	1	10
664.185	1	14
664.524	1	20
664.863	1	1
665.202	1	15
665.541	1	11
665.879	1	11
666.218	1	9
666.557	1	4
666.896	1	2
667.235	1	0
667.574	1	3
667.913	1	9
668.251	1	-4
668.590	1	6
668.929	1	7
669.268	1	0
669.607	1	6
669.946	1	10
670.285	1	10
670.623	1	15
670.962	1	-10
671.301	1	11
671.640	1	17
671.979	1	4
672.317	1	9
672.656	1	9
672.995	1	3
673.334	1	-1
673.673	1	9
674.011	1	5
674.350	1	8
674.689	1	-5
675.028	1	8
675.367	1	6
675.705	1	4
676.044	1	5
676.383	1	9
676.722	1	8
677.060	1	6
677.399	1	16
677.738	1	0
678.077	1	5
678.416	1	8
678.754	1	6
679.093	1	16
679.432	1	7
679.771	1	3
680.109	1	-3
680.448	1	-3
680.787	1	-10
681.125	1	3
681.464	1	14
681.803	1	7
682.142	1	8
682.480	1	6
682.819	1	7
683.158	1	8
683.496	1	7
683.835	1	15
684.174	1	4
684.512	1	-1
684.851	1	2
685.190	1	5
685.529	1	5
685.867	1	11
686.206	1	-6
686.545	1	18
686.883	1	6
687.222	1	3
687.561	1	5
687.899	1	11
688.238	1	21
688.577	1	2
688.746	1	1