File: Data/GaN_150K_450ms/GaN_sample D_spot15_UVVIS_150 K_200um_450 ms 2x2mm1_90.txt
340.368	1	14
340.710	1	10
341.052	1	2
341.394	1	-7
341.737	1	14
342.079	1	0
342.421	1	1
342.763	1	0
343.105	1	2
343.447	1	9
343.789	1	6
344.131	1	1
344.473	1	1
344.815	1	8
345.157	1	18
345.499	1	12
345.841	1	4
346.183	1	7
346.526	1	7
346.868	1	8
347.210	1	8
347.552	1	17
347.894	1	-2
348.236	1	7
348.578	1	12
348.920	1	3
349.262	1	12
349.604	1	4
349.946	1	3
350.288	1	3
350.630	1	0
350.972	1	10
351.314	1	3
351.656	1	12
351.998	1	3
352.340	1	17
352.682	1	-6
353.024	1	12
353.366	1	6
353.708	1	9
354.050	1	2
354.392	1	8
354.734	1	17
355.076	1	17
355.418	1	8
355.760	1	3
356.102	1	17
356.444	1	15
356.785	1	19
357.127	1	23
357.469	1	9
357.811	1	15
358.153	1	11
358.495	1	8
358.837	1	24
359.179	1	15
359.521	1	22
359.863	1	14
360.205	1	28
360.547	1	29
360.889	1	25
361.231	1	33
361.572	1	46
361.914	1	44
362.256	1	46
362.598	1	55
362.940	1	45
363.282	1	49
363.624	1	53
363.966	1	58
364.308	1	73
364.649	1	77
364.991	1	76
365.333	1	83
365.675	1	100
366.017	1	87
366.359	1	90
366.701	1	112
367.042	1	118
367.384	1	117
367.726	1	128
368.068	1	122
368.410	1	115
368.752	1	133
369.093	1	125
369.435	1	121
369.777	1	118
370.119	1	111
370.461	1	99
370.803	1	103
371.144	1	92
371.486	1	91
371.828	1	86
372.170	1	76
372.512	1	76
372.853	1	78
373.195	1	69
373.537	1	73
373.879	1	59
374.220	1	66
374.562	1	66
374.904	1	55
375.246	1	56
375.588	1	55
375.929	1	63
376.271	1	45
376.613	1	48
376.955	1	35
377.296	1	51
377.638	1	38
377.980	1	26
378.321	1	40
378.663	1	38
379.005	1	34
379.347	1	34
379.688	1	42
380.030	1	30
380.372	1	26
380.714	1	28
381.055	1	18
381.397	1	16
381.739	1	22
382.080	1	32
382.422	1	29
382.764	1	25
383.105	1	24
383.447	1	19
383.789	1	10
384.130	1	23
384.472	1	18
384.814	1	27
385.156	1	21
385.497	1	25
385.839	1	10
386.180	1	15
386.522	1	19
386.864	1	12
387.205	1	20
387.547	1	22
387.889	1	9
388.230	1	22
388.572	1	7
388.914	1	12
389.255	1	17
389.597	1	15
389.939	1	21
390.280	1	12
390.622	1	-1
390.963	1	3
391.305	1	9
391.647	1	9
391.988	1	15
392.330	1	18
392.671	1	10
393.013	1	20
393.355	1	18
393.696	1	6
394.038	1	15
394.379	1	15
394.721	1	14
395.062	1	6
395.404	1	15
395.746	1	8
396.087	1	29
396.429	1	20
396.770	1	24
397.112	1	9
397.453	1	7
397.795	1	13
398.136	1	16
398.478	1	21
398.819	1	20
399.161	1	19
399.503	1	12
399.844	1	6
400.186	1	20
400.527	1	10
400.869	1	12
401.210	1	21
401.552	1	19
401.893	1	16
402.235	1	15
402.576	1	13
402.918	1	4
403.259	1	12
403.601	1	23
403.942	1	5
404.284	1	21
404.625	1	8
404.967	1	13
405.308	1	4
405.649	1	7
405.991	1	13
406.332	1	19
406.674	1	23
407.015	1	13
407.357	1	13
407.698	1	19
408.040	1	15
408.381	1	8
408.722	1	17
409.064	1	5
409.405	1	10
409.747	1	11
410.088	1	21
410.430	1	23
410.771	1	16
411.112	1	13
411.454	1	12
411.795	1	12
412.137	1	4
412.478	1	15
412.819	1	24
413.161	1	6
413.502	1	17
413.844	1	29
414.185	1	14
414.526	1	10
414.868	1	4
415.209	1	14
415.550	1	11
415.892	1	15
416.233	1	19
416.575	1	10
416.916	1	16
417.257	1	13
417.599	1	19
417.940	1	-1
418.281	1	17
418.623	1	5
418.964	1	19
419.305	1	10
419.647	1	14
419.988	1	21
420.329	1	21
420.671	1	18
421.012	1	16
421.353	1	17
421.695	1	24
422.036	1	17
422.377	1	12
422.718	1	31
423.060	1	15
423.401	1	10
423.742	1	26
424.084	1	14
424.425	1	32
424.766	1	11
425.107	1	15
425.449	1	26
425.790	1	26
426.131	1	7
426.472	1	9
426.814	1	15
427.155	1	14
427.496	1	17
427.837	1	14
428.179	1	23
428.520	1	14
428.861	1	25
429.202	1	1
429.544	1	11
429.885	1	12
430.226	1	12
430.567	1	3
430.909	1	12
431.250	1	15
431.591	1	24
431.932	1	18
432.273	1	21
432.615	1	16
432.956	1	17
433.297	1	19
433.638	1	22
433.979	1	10
434.320	1	15
434.662	1	18
435.003	1	18
435.344	1	2
435.685	1	6
436.026	1	4
436.368	1	4
436.709	1	15
437.050	1	12
437.391	1	10
437.732	1	17
438.073	1	6
438.414	1	22
438.756	1	12
439.097	1	12
439.438	1	12
439.779	1	7
440.120	1	10
440.461	1	10
440.802	1	6
441.143	1	8
441.485	1	17
441.826	1	16
442.167	1	9
442.508	1	12
442.849	1	21
443.190	1	12
443.531	1	13
443.872	1	10
444.213	1	9
444.554	1	14
444.895	1	4
445.237	1	14
445.578	1	5
445.919	1	9
446.260	1	20
446.601	1	17
446.942	1	9
447.283	1	23
447.624	1	6
447.965	1	15
448.306	1	7
448.647	1	9
448.988	1	17
449.329	1	14
449.670	1	4
450.011	1	11
450.352	1	12
450.693	1	17
451.034	1	8
451.375	1	6
451.716	1	9
452.057	1	14
452.398	1	25
452.739	1	5
453.080	1	14
453.421	1	13
453.762	1	14
454.103	1	11
454.444	1	16
454.785	1	12
455.126	1	9
455.467	1	10
455.808	1	20
456.149	1	7
456.490	1	3
456.831	1	5
457.172	1	15
457.513	1	14
457.854	1	12
458.195	1	15
458.536	1	16
458.877	1	16
459.218	1	7
459.559	1	8
459.899	1	8
460.240	1	9
460.581	1	2
460.922	1	9
461.263	1	12
461.604	1	6
461.945	1	13
462.286	1	3
462.627	1	5
462.968	1	11
463.309	1	11
463.649	1	14
463.990	1	14
464.331	1	9
464.672	1	14
465.013	1	10
465.354	1	15
465.695	1	9
466.036	1	12
466.376	1	17
466.717	1	0
467.058	1	13
467.399	1	6
467.740	1	22
468.081	1	3
468.422	1	8
468.762	1	7
469.103	1	16
469.444	1	17
469.785	1	6
470.126	1	15
470.467	1	3
470.807	1	14
471.148	1	1
471.489	1	17
471.830	1	12
472.171	1	14
472.511	1	11
472.852	1	19
473.193	1	11
473.534	1	2
473.875	1	11
474.215	1	16
474.556	1	2
474.897	1	-3
475.238	1	6
475.578	1	3
475.919	1	-1
476.260	1	3
476.601	1	2
476.942	1	5
477.282	1	5
477.623	1	5
477.964	1	25
478.305	1	13
478.645	1	11
478.986	1	13
479.327	1	10
479.667	1	9
480.008	1	10
480.349	1	1
480.690	1	12
481.030	1	1
481.371	1	3
481.712	1	15
482.053	1	20
482.393	1	15
482.734	1	11
483.075	1	13
483.415	1	15
483.756	1	7
484.097	1	14
484.437	1	7
484.778	1	11
485.119	1	10
485.459	1	3
485.800	1	5
486.141	1	13
486.481	1	3
486.822	1	22
487.163	1	4
487.503	1	5
487.844	1	0
488.185	1	17
488.525	1	7
488.866	1	7
489.207	1	10
489.547	1	18
489.888	1	14
490.228	1	8
490.569	1	18
490.910	1	15
491.250	1	13
491.591	1	12
491.932	1	13
492.272	1	11
492.613	1	7
492.953	1	9
493.294	1	6
493.635	1	4
493.975	1	24
494.316	1	13
494.656	1	17
494.997	1	9
495.337	1	21
495.678	1	9
496.019	1	22
496.359	1	10
496.700	1	15
497.040	1	11
497.381	1	20
497.721	1	12
498.062	1	11
498.403	1	22
498.743	1	19
499.084	1	20
499.424	1	19
499.765	1	21
500.105	1	31
500.446	1	10
500.786	1	16
501.127	1	27
501.467	1	17
501.808	1	19
502.148	1	14
502.489	1	27
502.829	1	23
503.170	1	21
503.510	1	16
503.851	1	26
504.191	1	13
504.532	1	39
504.872	1	15
505.213	1	15
505.553	1	20
505.894	1	20
506.234	1	35
506.575	1	32
506.915	1	14
507.256	1	23
507.596	1	25
507.936	1	37
508.277	1	33
508.617	1	17
508.958	1	27
509.298	1	17
509.639	1	14
509.979	1	18
510.319	1	25
510.660	1	29
511.000	1	22
511.341	1	41
511.681	1	25
512.022	1	6
512.362	1	27
512.702	1	16
513.043	1	29
513.383	1	31
513.724	1	20
514.064	1	43
514.404	1	35
514.745	1	18
515.085	1	39
515.425	1	26
515.766	1	23
516.106	1	28
516.447	1	33
516.787	1	31
517.127	1	43
517.468	1	41
517.808	1	33
518.148	1	48
518.489	1	30
518.829	1	32
519.169	1	32
519.510	1	26
519.850	1	32
520.190	1	26
520.531	1	32
520.871	1	28
521.211	1	30
521.552	1	33
521.892	1	21
522.232	1	24
522.573	1	31
522.913	1	44
523.253	1	46
523.593	1	29
523.934	1	34
524.274	1	44
524.614	1	36
524.955	1	30
525.295	1	42
525.635	1	35
525.975	1	24
526.316	1	19
526.656	1	36
526.996	1	29
527.337	1	35
527.677	1	50
528.017	1	29
528.357	1	48
528.698	1	44
529.038	1	38
529.378	1	28
529.718	1	33
530.058	1	37
530.399	1	35
530.739	1	30
531.079	1	37
531.419	1	37
531.760	1	40
532.100	1	36
532.440	1	41
532.780	1	33
533.120	1	24
533.461	1	25
533.801	1	28
534.141	1	29
534.481	1	46
534.821	1	30
535.162	1	34
535.502	1	30
535.842	1	30
536.182	1	30
536.522	1	30
536.862	1	33
537.203	1	27
537.543	1	30
537.883	1	37
538.223	1	45
538.563	1	31
538.903	1	39
539.243	1	25
539.584	1	27
539.924	1	35
540.264	1	30
540.604	1	37
540.944	1	43
541.284	1	30
541.624	1	28
541.964	1	22
542.305	1	37
542.645	1	21
542.985	1	23
543.325	1	27
543.665	1	30
544.005	1	36
544.345	1	33
544.685	1	25
545.025	1	33
545.365	1	33
545.705	1	30
546.045	1	29
546.386	1	23
546.726	1	26
547.066	1	15
547.406	1	23
547.746	1	26
548.086	1	31
548.426	1	32
548.766	1	31
549.106	1	26
549.446	1	28
549.786	1	29
550.126	1	33
550.466	1	20
550.806	1	43
551.146	1	33
551.486	1	31
551.826	1	17
552.166	1	36
552.506	1	24
552.846	1	35
553.186	1	22
553.526	1	30
553.866	1	21
554.206	1	25
554.546	1	27
554.886	1	24
555.226	1	28
555.566	1	25
555.906	1	18
556.246	1	35
556.586	1	16
556.926	1	27
557.266	1	29
557.606	1	18
557.946	1	26
558.286	1	5
558.626	1	30
558.966	1	18
559.306	1	26
559.646	1	26
559.986	1	22
560.325	1	19
560.665	1	23
561.005	1	21
561.345	1	11
561.685	1	26
562.025	1	19
562.365	1	21
562.705	1	35
563.045	1	16
563.385	1	19
563.725	1	24
564.064	1	6
564.404	1	18
564.744	1	24
565.084	1	19
565.424	1	14
565.764	1	22
566.104	1	23
566.444	1	23
566.783	1	18
567.123	1	13
567.463	1	16
567.803	1	17
568.143	1	14
568.483	1	29
568.823	1	8
569.162	1	7
569.502	1	15
569.842	1	17
570.182	1	20
570.522	1	15
570.862	1	5
571.201	1	25
571.541	1	16
571.881	1	16
572.221	1	12
572.561	1	26
572.900	1	20
573.240	1	2
573.580	1	19
573.920	1	23
574.260	1	10
574.599	1	24
574.939	1	7
575.279	1	11
575.619	1	13
575.959	1	7
576.298	1	3
576.638	1	11
576.978	1	25
577.318	1	15
577.657	1	17
577.997	1	24
578.337	1	16
578.677	1	16
579.016	1	17
579.356	1	17
579.696	1	10
580.036	1	13
580.375	1	7
580.715	1	15
581.055	1	8
581.394	1	19
581.734	1	12
582.074	1	9
582.414	1	15
582.753	1	19
583.093	1	7
583.433	1	9
583.772	1	13
584.112	1	13
584.452	1	25
584.791	1	23
585.131	1	18
585.471	1	8
585.811	1	19
586.150	1	17
586.490	1	13
586.830	1	18
587.169	1	13
587.509	1	10
587.849	1	21
588.188	1	14
588.528	1	8
588.867	1	7
589.207	1	6
589.547	1	12
589.886	1	14
590.226	1	8
590.566	1	11
590.905	1	10
591.245	1	5
591.585	1	11
591.924	1	12
592.264	1	8
592.603	1	3
592.943	1	3
593.283	1	16
593.622	1	16
593.962	1	18
594.301	1	5
594.641	1	10
594.981	1	15
595.320	1	19
595.660	1	13
595.999	1	16
596.339	1	3
596.678	1	2
597.018	1	2
597.358	1	5
597.697	1	5
598.037	1	6
598.376	1	11
598.716	1	7
599.055	1	8
599.395	1	1
599.734	1	4
600.074	1	2
600.413	1	12
600.753	1	9
601.092	1	1
601.432	1	4
601.771	1	9
602.111	1	3
602.451	1	6
602.790	1	13
603.130	1	15
603.469	1	5
603.809	1	8
604.148	1	-7
604.487	1	7
604.827	1	12
605.166	1	4
605.506	1	5
605.845	1	16
606.185	1	0
606.524	1	4
606.864	1	18
607.203	1	20
607.543	1	17
607.882	1	14
608.222	1	6
608.561	1	5
608.901	1	15
609.240	1	11
609.579	1	9
609.919	1	1
610.258	1	18
610.598	1	-6
610.937	1	12
611.277	1	8
611.616	1	22
611.955	1	-1
612.295	1	-1
612.634	1	8
612.974	1	2
613.313	1	17
613.652	1	15
613.992	1	12
614.331	1	24
614.671	1	9
615.010	1	8
615.349	1	10
615.689	1	7
616.028	1	25
616.368	1	11
616.707	1	6
617.046	1	4
617.386	1	11
617.725	1	4
618.064	1	9
618.404	1	3
618.743	1	12
619.082	1	19
619.422	1	16
619.761	1	10
620.100	1	12
620.440	1	3
620.779	1	15
621.118	1	23
621.458	1	12
621.797	1	8
622.136	1	-2
622.476	1	14
622.815	1	6
623.154	1	-10
623.494	1	3
623.833	1	6
624.172	1	10
624.511	1	-1
624.851	1	1
625.190	1	7
625.529	1	-1
625.869	1	15
626.208	1	6
626.547	1	4
626.886	1	7
627.226	1	13
627.565	1	19
627.904	1	-2
628.243	1	15
628.583	1	13
628.922	1	11
629.261	1	13
629.600	1	1
629.940	1	10
630.279	1	8
630.618	1	9
630.957	1	15
631.297	1	9
631.636	1	6
631.975	1	10
632.314	1	9
632.653	1	-2
632.993	1	5
633.332	1	13
633.671	1	17
634.010	1	12
634.349	1	14
634.689	1	3
635.028	1	4
635.367	1	9
635.706	1	3
636.045	1	10
636.384	1	12
636.724	1	3
637.063	1	-4
637.402	1	6
637.741	1	11
638.080	1	10
638.419	1	10
638.759	1	9
639.098	1	6
639.437	1	6
639.776	1	-3
640.115	1	3
640.454	1	7
640.793	1	7
641.132	1	3
641.472	1	8
641.811	1	5
642.150	1	8
642.489	1	5
642.828	1	14
643.167	1	10
643.506	1	-6
643.845	1	17
644.184	1	15
644.524	1	5
644.863	1	7
645.202	1	9
645.541	1	5
645.880	1	11
646.219	1	9
646.558	1	-1
646.897	1	-2
647.236	1	1
647.575	1	15
647.914	1	11
648.253	1	17
648.592	1	14
648.931	1	12
649.270	1	17
649.610	1	8
649.949	1	4
650.288	1	10
650.627	1	4
650.966	1	7
651.305	1	4
651.644	1	7
651.983	1	-5
652.322	1	6
652.661	1	16
653.000	1	6
653.339	1	-1
653.678	1	14
654.017	1	14
654.356	1	14
654.695	1	16
655.034	1	-1
655.373	1	8
655.712	1	4
656.051	1	8
656.390	1	9
656.729	1	9
657.068	1	5
657.406	1	3
657.745	1	21
658.084	1	7
658.423	1	10
658.762	1	5
659.101	1	3
659.440	1	1
659.779	1	16
660.118	1	-2
660.457	1	3
660.796	1	16
661.135	1	0
661.474	1	13
661.813	1	5
662.152	1	6
662.491	1	6
662.829	1	9
663.168	1	-1
663.507	1	9
663.846	1	2
664.185	1	3
664.524	1	20
664.863	1	5
665.202	1	9
665.541	1	7
665.879	1	2
666.218	1	13
666.557	1	-1
666.896	1	4
667.235	1	-7
667.574	1	7
667.913	1	10
668.251	1	2
668.590	1	-1
668.929	1	7
669.268	1	-2
669.607	1	2
669.946	1	4
670.285	1	7
670.623	1	9
670.962	1	4
671.301	1	3
671.640	1	4
671.979	1	3
672.317	1	5
672.656	1	14
672.995	1	13
673.334	1	2
673.673	1	9
674.011	1	12
674.350	1	6
674.689	1	5
675.028	1	3
675.367	1	11
675.705	1	0
676.044	1	3
676.383	1	10
676.722	1	7
677.060	1	16
677.399	1	15
677.738	1	2
678.077	1	5
678.416	1	8
678.754	1	3
679.093	1	15
679.432	1	5
679.771	1	2
680.109	1	5
680.448	1	6
680.787	1	-11
681.125	1	5
681.464	1	13
681.803	1	3
682.142	1	4
682.480	1	9
682.819	1	8
683.158	1	7
683.496	1	-1
683.835	1	8
684.174	1	1
684.512	1	4
684.851	1	8
685.190	1	7
685.529	1	1
685.867	1	9
686.206	1	3
686.545	1	5
686.883	1	16
687.222	1	8
687.561	1	2
687.899	1	9
688.238	1	14
688.577	1	7
688.746	1	4