File: Data/GaN_150K_450ms/GaN_sample D_spot15_UVVIS_150 K_200um_450 ms 2x2mm1_256.txt
340.368	1	7
340.710	1	6
341.052	1	4
341.394	1	-8
341.737	1	-1
342.079	1	-2
342.421	1	3
342.763	1	8
343.105	1	4
343.447	1	6
343.789	1	5
344.131	1	-8
344.473	1	4
344.815	1	0
345.157	1	5
345.499	1	8
345.841	1	-2
346.183	1	5
346.526	1	9
346.868	1	3
347.210	1	0
347.552	1	12
347.894	1	1
348.236	1	0
348.578	1	9
348.920	1	-2
349.262	1	9
349.604	1	-1
349.946	1	1
350.288	1	-1
350.630	1	4
350.972	1	13
351.314	1	-10
351.656	1	9
351.998	1	1
352.340	1	3
352.682	1	-13
353.024	1	14
353.366	1	8
353.708	1	5
354.050	1	1
354.392	1	-6
354.734	1	0
355.076	1	14
355.418	1	-1
355.760	1	7
356.102	1	7
356.444	1	13
356.785	1	10
357.127	1	12
357.469	1	7
357.811	1	-7
358.153	1	-9
358.495	1	3
358.837	1	9
359.179	1	2
359.521	1	10
359.863	1	2
360.205	1	14
360.547	1	7
360.889	1	1
361.231	1	6
361.572	1	10
361.914	1	16
362.256	1	-1
362.598	1	15
362.940	1	11
363.282	1	1
363.624	1	6
363.966	1	5
364.308	1	18
364.649	1	6
364.991	1	9
365.333	1	12
365.675	1	13
366.017	1	19
366.359	1	13
366.701	1	14
367.042	1	8
367.384	1	0
367.726	1	15
368.068	1	24
368.410	1	14
368.752	1	19
369.093	1	17
369.435	1	19
369.777	1	21
370.119	1	8
370.461	1	7
370.803	1	9
371.144	1	14
371.486	1	14
371.828	1	9
372.170	1	7
372.512	1	7
372.853	1	20
373.195	1	6
373.537	1	-2
373.879	1	5
374.220	1	15
374.562	1	9
374.904	1	8
375.246	1	6
375.588	1	8
375.929	1	15
376.271	1	7
376.613	1	5
376.955	1	7
377.296	1	5
377.638	1	6
377.980	1	12
378.321	1	7
378.663	1	-2
379.005	1	7
379.347	1	6
379.688	1	9
380.030	1	13
380.372	1	2
380.714	1	11
381.055	1	-4
381.397	1	5
381.739	1	1
382.080	1	11
382.422	1	10
382.764	1	2
383.105	1	7
383.447	1	2
383.789	1	-2
384.130	1	5
384.472	1	2
384.814	1	10
385.156	1	3
385.497	1	9
385.839	1	4
386.180	1	-3
386.522	1	0
386.864	1	4
387.205	1	8
387.547	1	7
387.889	1	2
388.230	1	7
388.572	1	-2
388.914	1	10
389.255	1	5
389.597	1	5
389.939	1	16
390.280	1	1
390.622	1	-9
390.963	1	-12
391.305	1	3
391.647	1	2
391.988	1	1
392.330	1	1
392.671	1	8
393.013	1	8
393.355	1	5
393.696	1	7
394.038	1	4
394.379	1	7
394.721	1	-5
395.062	1	-2
395.404	1	2
395.746	1	-2
396.087	1	7
396.429	1	8
396.770	1	8
397.112	1	-4
397.453	1	-4
397.795	1	-9
398.136	1	5
398.478	1	6
398.819	1	11
399.161	1	5
399.503	1	11
399.844	1	8
400.186	1	3
400.527	1	-5
400.869	1	-1
401.210	1	9
401.552	1	-4
401.893	1	6
402.235	1	14
402.576	1	8
402.918	1	-7
403.259	1	0
403.601	1	3
403.942	1	-2
404.284	1	15
404.625	1	2
404.967	1	8
405.308	1	-10
405.649	1	-3
405.991	1	3
406.332	1	5
406.674	1	2
407.015	1	-1
407.357	1	9
407.698	1	4
408.040	1	17
408.381	1	1
408.722	1	11
409.064	1	5
409.405	1	1
409.747	1	1
410.088	1	1
410.430	1	10
410.771	1	14
411.112	1	6
411.454	1	2
411.795	1	10
412.137	1	0
412.478	1	1
412.819	1	9
413.161	1	1
413.502	1	3
413.844	1	2
414.185	1	6
414.526	1	3
414.868	1	8
415.209	1	-6
415.550	1	3
415.892	1	6
416.233	1	10
416.575	1	-11
416.916	1	3
417.257	1	0
417.599	1	2
417.940	1	-11
418.281	1	8
418.623	1	6
418.964	1	14
419.305	1	2
419.647	1	2
419.988	1	9
420.329	1	2
420.671	1	15
421.012	1	3
421.353	1	8
421.695	1	10
422.036	1	16
422.377	1	2
422.718	1	1
423.060	1	-3
423.401	1	-1
423.742	1	21
424.084	1	3
424.425	1	11
424.766	1	3
425.107	1	3
425.449	1	1
425.790	1	9
426.131	1	-5
426.472	1	12
426.814	1	3
427.155	1	-6
427.496	1	3
427.837	1	1
428.179	1	10
428.520	1	6
428.861	1	-1
429.202	1	-9
429.544	1	2
429.885	1	12
430.226	1	-14
430.567	1	-3
430.909	1	0
431.250	1	9
431.591	1	2
431.932	1	0
432.273	1	8
432.615	1	1
432.956	1	0
433.297	1	-1
433.638	1	12
433.979	1	16
434.320	1	6
434.662	1	7
435.003	1	19
435.344	1	8
435.685	1	1
436.026	1	0
436.368	1	-8
436.709	1	-6
437.050	1	-7
437.391	1	-1
437.732	1	11
438.073	1	-7
438.414	1	1
438.756	1	1
439.097	1	8
439.438	1	-6
439.779	1	4
440.120	1	3
440.461	1	9
440.802	1	1
441.143	1	-3
441.485	1	-2
441.826	1	-1
442.167	1	-7
442.508	1	-2
442.849	1	14
443.190	1	8
443.531	1	7
443.872	1	-13
444.213	1	-2
444.554	1	11
444.895	1	-5
445.237	1	10
445.578	1	-10
445.919	1	8
446.260	1	18
446.601	1	6
446.942	1	0
447.283	1	10
447.624	1	-9
447.965	1	-1
448.306	1	1
448.647	1	0
448.988	1	5
449.329	1	8
449.670	1	1
450.011	1	2
450.352	1	4
450.693	1	4
451.034	1	-4
451.375	1	8
451.716	1	8
452.057	1	7
452.398	1	10
452.739	1	3
453.080	1	4
453.421	1	17
453.762	1	11
454.103	1	4
454.444	1	2
454.785	1	5
455.126	1	6
455.467	1	8
455.808	1	11
456.149	1	-5
456.490	1	-2
456.831	1	1
457.172	1	1
457.513	1	8
457.854	1	5
458.195	1	1
458.536	1	12
458.877	1	3
459.218	1	8
459.559	1	1
459.899	1	1
460.240	1	-11
460.581	1	-2
460.922	1	7
461.263	1	11
461.604	1	2
461.945	1	6
462.286	1	-2
462.627	1	6
462.968	1	11
463.309	1	5
463.649	1	-5
463.990	1	-6
464.331	1	3
464.672	1	3
465.013	1	-1
465.354	1	10
465.695	1	-6
466.036	1	9
466.376	1	7
466.717	1	-7
467.058	1	6
467.399	1	-6
467.740	1	-3
468.081	1	8
468.422	1	14
468.762	1	1
469.103	1	-1
469.444	1	8
469.785	1	-4
470.126	1	0
470.467	1	4
470.807	1	10
471.148	1	-3
471.489	1	8
471.830	1	1
472.171	1	9
472.511	1	2
472.852	1	7
473.193	1	1
473.534	1	9
473.875	1	2
474.215	1	9
474.556	1	2
474.897	1	-5
475.238	1	0
475.578	1	-9
475.919	1	3
476.260	1	-4
476.601	1	2
476.942	1	0
477.282	1	-5
477.623	1	3
477.964	1	5
478.305	1	6
478.645	1	2
478.986	1	9
479.327	1	8
479.667	1	1
480.008	1	0
480.349	1	-2
480.690	1	8
481.030	1	-4
481.371	1	-10
481.712	1	13
482.053	1	4
482.393	1	9
482.734	1	2
483.075	1	5
483.415	1	4
483.756	1	5
484.097	1	17
484.437	1	-1
484.778	1	-2
485.119	1	3
485.459	1	4
485.800	1	-4
486.141	1	3
486.481	1	-13
486.822	1	13
487.163	1	3
487.503	1	1
487.844	1	-4
488.185	1	11
488.525	1	-7
488.866	1	-5
489.207	1	8
489.547	1	2
489.888	1	-4
490.228	1	6
490.569	1	-5
490.910	1	-5
491.250	1	16
491.591	1	4
491.932	1	9
492.272	1	-2
492.613	1	4
492.953	1	3
493.294	1	-4
493.635	1	5
493.975	1	21
494.316	1	2
494.656	1	10
494.997	1	-2
495.337	1	-2
495.678	1	8
496.019	1	2
496.359	1	-1
496.700	1	0
497.040	1	4
497.381	1	9
497.721	1	-14
498.062	1	2
498.403	1	10
498.743	1	11
499.084	1	11
499.424	1	-1
499.765	1	11
500.105	1	7
500.446	1	1
500.786	1	-2
501.127	1	8
501.467	1	0
501.808	1	4
502.148	1	6
502.489	1	5
502.829	1	-4
503.170	1	7
503.510	1	-9
503.851	1	9
504.191	1	-1
504.532	1	6
504.872	1	3
505.213	1	1
505.553	1	2
505.894	1	3
506.234	1	14
506.575	1	14
506.915	1	3
507.256	1	3
507.596	1	4
507.936	1	12
508.277	1	13
508.617	1	2
508.958	1	11
509.298	1	-1
509.639	1	-1
509.979	1	-1
510.319	1	-5
510.660	1	-4
511.000	1	-8
511.341	1	19
511.681	1	6
512.022	1	1
512.362	1	3
512.702	1	-3
513.043	1	6
513.383	1	7
513.724	1	10
514.064	1	2
514.404	1	15
514.745	1	1
515.085	1	3
515.425	1	6
515.766	1	-5
516.106	1	1
516.447	1	13
516.787	1	-6
517.127	1	12
517.468	1	15
517.808	1	-1
518.148	1	7
518.489	1	10
518.829	1	2
519.169	1	-2
519.510	1	0
519.850	1	15
520.190	1	0
520.531	1	3
520.871	1	2
521.211	1	-3
521.552	1	-1
521.892	1	7
522.232	1	0
522.573	1	3
522.913	1	9
523.253	1	8
523.593	1	13
523.934	1	7
524.274	1	2
524.614	1	7
524.955	1	5
525.295	1	12
525.635	1	6
525.975	1	-1
526.316	1	-7
526.656	1	3
526.996	1	-4
527.337	1	9
527.677	1	14
528.017	1	-2
528.357	1	6
528.698	1	6
529.038	1	3
529.378	1	-5
529.718	1	2
530.058	1	1
530.399	1	2
530.739	1	1
531.079	1	4
531.419	1	11
531.760	1	13
532.100	1	9
532.440	1	10
532.780	1	1
533.120	1	-2
533.461	1	11
533.801	1	-8
534.141	1	2
534.481	1	20
534.821	1	-2
535.162	1	9
535.502	1	5
535.842	1	-9
536.182	1	-3
536.522	1	0
536.862	1	-5
537.203	1	3
537.543	1	9
537.883	1	2
538.223	1	4
538.563	1	2
538.903	1	0
539.243	1	5
539.584	1	2
539.924	1	5
540.264	1	15
540.604	1	8
540.944	1	5
541.284	1	3
541.624	1	3
541.964	1	6
542.305	1	11
542.645	1	-6
542.985	1	2
543.325	1	3
543.665	1	-1
544.005	1	4
544.345	1	7
544.685	1	-8
545.025	1	9
545.365	1	9
545.705	1	-2
546.045	1	8
546.386	1	6
546.726	1	6
547.066	1	6
547.406	1	-1
547.746	1	4
548.086	1	5
548.426	1	4
548.766	1	10
549.106	1	5
549.446	1	9
549.786	1	12
550.126	1	-4
550.466	1	1
550.806	1	20
551.146	1	10
551.486	1	-5
551.826	1	-3
552.166	1	5
552.506	1	2
552.846	1	10
553.186	1	-1
553.526	1	4
553.866	1	8
554.206	1	7
554.546	1	5
554.886	1	0
555.226	1	-3
555.566	1	3
555.906	1	-1
556.246	1	12
556.586	1	3
556.926	1	3
557.266	1	1
557.606	1	-4
557.946	1	5
558.286	1	-14
558.626	1	8
558.966	1	6
559.306	1	10
559.646	1	3
559.986	1	8
560.325	1	-2
560.665	1	-4
561.005	1	-2
561.345	1	2
561.685	1	5
562.025	1	13
562.365	1	4
562.705	1	13
563.045	1	9
563.385	1	8
563.725	1	0
564.064	1	-8
564.404	1	-1
564.744	1	6
565.084	1	-1
565.424	1	-3
565.764	1	3
566.104	1	6
566.444	1	12
566.783	1	4
567.123	1	-4
567.463	1	8
567.803	1	7
568.143	1	-6
568.483	1	10
568.823	1	-7
569.162	1	-7
569.502	1	6
569.842	1	5
570.182	1	-4
570.522	1	-2
570.862	1	-7
571.201	1	10
571.541	1	2
571.881	1	2
572.221	1	1
572.561	1	4
572.900	1	14
573.240	1	-10
573.580	1	8
573.920	1	6
574.260	1	4
574.599	1	14
574.939	1	5
575.279	1	0
575.619	1	5
575.959	1	6
576.298	1	-15
576.638	1	6
576.978	1	3
577.318	1	8
577.657	1	2
577.997	1	5
578.337	1	3
578.677	1	2
579.016	1	8
579.356	1	5
579.696	1	6
580.036	1	1
580.375	1	1
580.715	1	11
581.055	1	2
581.394	1	13
581.734	1	-3
582.074	1	3
582.414	1	-2
582.753	1	-2
583.093	1	8
583.433	1	3
583.772	1	9
584.112	1	3
584.452	1	2
584.791	1	-2
585.131	1	4
585.471	1	4
585.811	1	-1
586.150	1	-4
586.490	1	-1
586.830	1	3
587.169	1	-1
587.509	1	9
587.849	1	12
588.188	1	12
588.528	1	0
588.867	1	4
589.207	1	6
589.547	1	0
589.886	1	5
590.226	1	-4
590.566	1	5
590.905	1	0
591.245	1	-4
591.585	1	0
591.924	1	-2
592.264	1	-2
592.603	1	-9
592.943	1	-3
593.283	1	6
593.622	1	-2
593.962	1	8
594.301	1	1
594.641	1	9
594.981	1	5
595.320	1	5
595.660	1	5
595.999	1	3
596.339	1	0
596.678	1	-4
597.018	1	-12
597.358	1	4
597.697	1	-2
598.037	1	0
598.376	1	-10
598.716	1	3
599.055	1	10
599.395	1	-4
599.734	1	3
600.074	1	-4
600.413	1	2
600.753	1	2
601.092	1	-6
601.432	1	-3
601.771	1	-8
602.111	1	3
602.451	1	-4
602.790	1	5
603.130	1	0
603.469	1	2
603.809	1	4
604.148	1	-4
604.487	1	0
604.827	1	3
605.166	1	14
605.506	1	-4
605.845	1	9
606.185	1	-7
606.524	1	0
606.864	1	15
607.203	1	2
607.543	1	-5
607.882	1	8
608.222	1	-1
608.561	1	-2
608.901	1	-1
609.240	1	3
609.579	1	-2
609.919	1	-5
610.258	1	13
610.598	1	-4
610.937	1	-8
611.277	1	3
611.616	1	10
611.955	1	-5
612.295	1	2
612.634	1	7
612.974	1	-1
613.313	1	3
613.652	1	10
613.992	1	-6
614.331	1	9
614.671	1	12
615.010	1	0
615.349	1	10
615.689	1	-2
616.028	1	18
616.368	1	7
616.707	1	4
617.046	1	6
617.386	1	9
617.725	1	1
618.064	1	-5
618.404	1	-2
618.743	1	2
619.082	1	9
619.422	1	16
619.761	1	3
620.100	1	9
620.440	1	4
620.779	1	0
621.118	1	8
621.458	1	0
621.797	1	0
622.136	1	4
622.476	1	3
622.815	1	-3
623.154	1	-7
623.494	1	-11
623.833	1	2
624.172	1	5
624.511	1	-6
624.851	1	-9
625.190	1	2
625.529	1	-13
625.869	1	14
626.208	1	-5
626.547	1	1
626.886	1	-9
627.226	1	9
627.565	1	8
627.904	1	1
628.243	1	8
628.583	1	5
628.922	1	3
629.261	1	-9
629.600	1	4
629.940	1	6
630.279	1	1
630.618	1	4
630.957	1	11
631.297	1	10
631.636	1	10
631.975	1	-3
632.314	1	5
632.653	1	-3
632.993	1	4
633.332	1	5
633.671	1	7
634.010	1	4
634.349	1	0
634.689	1	4
635.028	1	-4
635.367	1	13
635.706	1	-3
636.045	1	-2
636.384	1	12
636.724	1	3
637.063	1	-12
637.402	1	-1
637.741	1	2
638.080	1	2
638.419	1	-3
638.759	1	8
639.098	1	4
639.437	1	5
639.776	1	3
640.115	1	-4
640.454	1	-3
640.793	1	0
641.132	1	3
641.472	1	6
641.811	1	-4
642.150	1	-7
642.489	1	12
642.828	1	15
643.167	1	-4
643.506	1	4
643.845	1	4
644.184	1	12
644.524	1	-7
644.863	1	-1
645.202	1	2
645.541	1	6
645.880	1	2
646.219	1	-7
646.558	1	-10
646.897	1	-4
647.236	1	-8
647.575	1	4
647.914	1	-4
648.253	1	4
648.592	1	16
648.931	1	3
649.270	1	5
649.610	1	5
649.949	1	1
650.288	1	6
650.627	1	6
650.966	1	1
651.305	1	-1
651.644	1	20
651.983	1	-4
652.322	1	8
652.661	1	3
653.000	1	-1
653.339	1	1
653.678	1	12
654.017	1	13
654.356	1	2
654.695	1	12
655.034	1	-2
655.373	1	1
655.712	1	14
656.051	1	-15
656.390	1	-9
656.729	1	-1
657.068	1	0
657.406	1	-5
657.745	1	12
658.084	1	-1
658.423	1	10
658.762	1	-4
659.101	1	1
659.440	1	0
659.779	1	2
660.118	1	8
660.457	1	-2
660.796	1	11
661.135	1	1
661.474	1	2
661.813	1	-3
662.152	1	7
662.491	1	-8
662.829	1	15
663.168	1	-1
663.507	1	1
663.846	1	-6
664.185	1	2
664.524	1	11
664.863	1	-5
665.202	1	1
665.541	1	-1
665.879	1	5
666.218	1	0
666.557	1	-7
666.896	1	12
667.235	1	-9
667.574	1	4
667.913	1	0
668.251	1	-9
668.590	1	3
668.929	1	-2
669.268	1	0
669.607	1	-19
669.946	1	3
670.285	1	-4
670.623	1	4
670.962	1	-3
671.301	1	3
671.640	1	13
671.979	1	1
672.317	1	8
672.656	1	3
672.995	1	3
673.334	1	-3
673.673	1	11
674.011	1	4
674.350	1	-3
674.689	1	-5
675.028	1	5
675.367	1	9
675.705	1	-7
676.044	1	-3
676.383	1	0
676.722	1	5
677.060	1	9
677.399	1	9
677.738	1	5
678.077	1	-9
678.416	1	1
678.754	1	-1
679.093	1	11
679.432	1	7
679.771	1	4
680.109	1	-1
680.448	1	2
680.787	1	-6
681.125	1	-10
681.464	1	7
681.803	1	1
682.142	1	3
682.480	1	-7
682.819	1	-6
683.158	1	-5
683.496	1	-5
683.835	1	5
684.174	1	3
684.512	1	2
684.851	1	-3
685.190	1	-5
685.529	1	5
685.867	1	16
686.206	1	-6
686.545	1	-3
686.883	1	7
687.222	1	1
687.561	1	0
687.899	1	-2
688.238	1	14
688.577	1	-2
688.746	1	-2