File: Data/GaN_150K_450ms/GaN_sample D_spot15_UVVIS_150 K_200um_450 ms 2x2mm1_220.txt
340.368	1	3
340.710	1	3
341.052	1	-6
341.394	1	-18
341.737	1	4
342.079	1	8
342.421	1	-8
342.763	1	1
343.105	1	8
343.447	1	7
343.789	1	5
344.131	1	-11
344.473	1	3
344.815	1	4
345.157	1	11
345.499	1	0
345.841	1	1
346.183	1	3
346.526	1	9
346.868	1	5
347.210	1	-6
347.552	1	22
347.894	1	-11
348.236	1	5
348.578	1	5
348.920	1	8
349.262	1	5
349.604	1	-7
349.946	1	1
350.288	1	-7
350.630	1	-3
350.972	1	12
351.314	1	-4
351.656	1	10
351.998	1	6
352.340	1	8
352.682	1	-8
353.024	1	10
353.366	1	2
353.708	1	1
354.050	1	-3
354.392	1	-1
354.734	1	-7
355.076	1	17
355.418	1	0
355.760	1	6
356.102	1	9
356.444	1	14
356.785	1	6
357.127	1	6
357.469	1	12
357.811	1	-6
358.153	1	-1
358.495	1	0
358.837	1	11
359.179	1	8
359.521	1	4
359.863	1	-7
360.205	1	6
360.547	1	11
360.889	1	1
361.231	1	12
361.572	1	7
361.914	1	10
362.256	1	18
362.598	1	12
362.940	1	8
363.282	1	1
363.624	1	8
363.966	1	8
364.308	1	16
364.649	1	15
364.991	1	12
365.333	1	11
365.675	1	16
366.017	1	18
366.359	1	6
366.701	1	22
367.042	1	25
367.384	1	16
367.726	1	17
368.068	1	29
368.410	1	20
368.752	1	26
369.093	1	25
369.435	1	22
369.777	1	27
370.119	1	25
370.461	1	15
370.803	1	11
371.144	1	21
371.486	1	22
371.828	1	14
372.170	1	11
372.512	1	4
372.853	1	20
373.195	1	9
373.537	1	5
373.879	1	7
374.220	1	6
374.562	1	28
374.904	1	5
375.246	1	0
375.588	1	3
375.929	1	6
376.271	1	7
376.613	1	9
376.955	1	11
377.296	1	10
377.638	1	-1
377.980	1	3
378.321	1	14
378.663	1	16
379.005	1	13
379.347	1	8
379.688	1	9
380.030	1	12
380.372	1	10
380.714	1	8
381.055	1	4
381.397	1	2
381.739	1	-7
382.080	1	2
382.422	1	8
382.764	1	13
383.105	1	1
383.447	1	9
383.789	1	-5
384.130	1	7
384.472	1	0
384.814	1	4
385.156	1	4
385.497	1	10
385.839	1	3
386.180	1	4
386.522	1	10
386.864	1	5
387.205	1	17
387.547	1	11
387.889	1	9
388.230	1	-3
388.572	1	6
388.914	1	19
389.255	1	-3
389.597	1	10
389.939	1	9
390.280	1	0
390.622	1	4
390.963	1	-7
391.305	1	1
391.647	1	4
391.988	1	5
392.330	1	6
392.671	1	11
393.013	1	1
393.355	1	17
393.696	1	5
394.038	1	5
394.379	1	7
394.721	1	2
395.062	1	0
395.404	1	10
395.746	1	6
396.087	1	5
396.429	1	3
396.770	1	9
397.112	1	0
397.453	1	2
397.795	1	2
398.136	1	7
398.478	1	3
398.819	1	3
399.161	1	14
399.503	1	9
399.844	1	2
400.186	1	1
400.527	1	8
400.869	1	2
401.210	1	9
401.552	1	10
401.893	1	11
402.235	1	10
402.576	1	0
402.918	1	-6
403.259	1	9
403.601	1	16
403.942	1	-1
404.284	1	9
404.625	1	-2
404.967	1	4
405.308	1	-7
405.649	1	1
405.991	1	3
406.332	1	2
406.674	1	3
407.015	1	4
407.357	1	5
407.698	1	7
408.040	1	22
408.381	1	0
408.722	1	9
409.064	1	11
409.405	1	5
409.747	1	8
410.088	1	16
410.430	1	11
410.771	1	7
411.112	1	4
411.454	1	-3
411.795	1	-4
412.137	1	5
412.478	1	6
412.819	1	11
413.161	1	13
413.502	1	3
413.844	1	13
414.185	1	10
414.526	1	-6
414.868	1	6
415.209	1	2
415.550	1	6
415.892	1	10
416.233	1	-7
416.575	1	-8
416.916	1	2
417.257	1	7
417.599	1	11
417.940	1	-6
418.281	1	1
418.623	1	5
418.964	1	20
419.305	1	6
419.647	1	4
419.988	1	3
420.329	1	2
420.671	1	12
421.012	1	1
421.353	1	2
421.695	1	7
422.036	1	2
422.377	1	7
422.718	1	17
423.060	1	1
423.401	1	-1
423.742	1	15
424.084	1	11
424.425	1	7
424.766	1	7
425.107	1	4
425.449	1	5
425.790	1	2
426.131	1	-5
426.472	1	7
426.814	1	5
427.155	1	3
427.496	1	1
427.837	1	3
428.179	1	11
428.520	1	5
428.861	1	6
429.202	1	-2
429.544	1	6
429.885	1	8
430.226	1	-2
430.567	1	-9
430.909	1	4
431.250	1	11
431.591	1	11
431.932	1	7
432.273	1	18
432.615	1	1
432.956	1	9
433.297	1	9
433.638	1	1
433.979	1	-2
434.320	1	17
434.662	1	8
435.003	1	15
435.344	1	2
435.685	1	-1
436.026	1	2
436.368	1	2
436.709	1	4
437.050	1	3
437.391	1	-3
437.732	1	3
438.073	1	0
438.414	1	10
438.756	1	-6
439.097	1	8
439.438	1	-3
439.779	1	-3
440.120	1	-2
440.461	1	4
440.802	1	5
441.143	1	3
441.485	1	2
441.826	1	12
442.167	1	5
442.508	1	3
442.849	1	4
443.190	1	6
443.531	1	1
443.872	1	-3
444.213	1	1
444.554	1	4
444.895	1	1
445.237	1	4
445.578	1	2
445.919	1	6
446.260	1	7
446.601	1	8
446.942	1	-3
447.283	1	17
447.624	1	-4
447.965	1	7
448.306	1	13
448.647	1	-2
448.988	1	8
449.329	1	2
449.670	1	5
450.011	1	-1
450.352	1	-2
450.693	1	14
451.034	1	0
451.375	1	10
451.716	1	7
452.057	1	-1
452.398	1	9
452.739	1	7
453.080	1	12
453.421	1	7
453.762	1	10
454.103	1	-10
454.444	1	5
454.785	1	10
455.126	1	3
455.467	1	5
455.808	1	15
456.149	1	-1
456.490	1	-2
456.831	1	6
457.172	1	9
457.513	1	-2
457.854	1	1
458.195	1	7
458.536	1	3
458.877	1	5
459.218	1	9
459.559	1	1
459.899	1	-5
460.240	1	2
460.581	1	-4
460.922	1	8
461.263	1	14
461.604	1	0
461.945	1	13
462.286	1	-6
462.627	1	4
462.968	1	7
463.309	1	5
463.649	1	-5
463.990	1	9
464.331	1	6
464.672	1	5
465.013	1	1
465.354	1	10
465.695	1	0
466.036	1	16
466.376	1	11
466.717	1	-4
467.058	1	10
467.399	1	-4
467.740	1	18
468.081	1	2
468.422	1	1
468.762	1	6
469.103	1	4
469.444	1	1
469.785	1	-6
470.126	1	11
470.467	1	6
470.807	1	0
471.148	1	-4
471.489	1	4
471.830	1	6
472.171	1	7
472.511	1	4
472.852	1	8
473.193	1	5
473.534	1	1
473.875	1	5
474.215	1	-3
474.556	1	-1
474.897	1	-4
475.238	1	-3
475.578	1	-7
475.919	1	-4
476.260	1	-3
476.601	1	13
476.942	1	5
477.282	1	-3
477.623	1	-2
477.964	1	2
478.305	1	8
478.645	1	9
478.986	1	5
479.327	1	0
479.667	1	10
480.008	1	3
480.349	1	-9
480.690	1	5
481.030	1	4
481.371	1	-1
481.712	1	12
482.053	1	10
482.393	1	1
482.734	1	4
483.075	1	3
483.415	1	1
483.756	1	2
484.097	1	5
484.437	1	3
484.778	1	-2
485.119	1	1
485.459	1	-7
485.800	1	-4
486.141	1	7
486.481	1	-9
486.822	1	3
487.163	1	-2
487.503	1	-1
487.844	1	2
488.185	1	3
488.525	1	-4
488.866	1	0
489.207	1	1
489.547	1	5
489.888	1	8
490.228	1	-2
490.569	1	-5
490.910	1	15
491.250	1	7
491.591	1	-8
491.932	1	9
492.272	1	-10
492.613	1	-4
492.953	1	0
493.294	1	-12
493.635	1	3
493.975	1	12
494.316	1	2
494.656	1	6
494.997	1	-4
495.337	1	0
495.678	1	-9
496.019	1	8
496.359	1	7
496.700	1	-1
497.040	1	2
497.381	1	9
497.721	1	2
498.062	1	8
498.403	1	11
498.743	1	1
499.084	1	10
499.424	1	4
499.765	1	4
500.105	1	4
500.446	1	0
500.786	1	-4
501.127	1	9
501.467	1	3
501.808	1	4
502.148	1	-2
502.489	1	1
502.829	1	1
503.170	1	-1
503.510	1	-5
503.851	1	0
504.191	1	2
504.532	1	7
504.872	1	-7
505.213	1	1
505.553	1	5
505.894	1	6
506.234	1	12
506.575	1	18
506.915	1	9
507.256	1	1
507.596	1	9
507.936	1	9
508.277	1	6
508.617	1	9
508.958	1	14
509.298	1	1
509.639	1	-6
509.979	1	-4
510.319	1	-3
510.660	1	0
511.000	1	3
511.341	1	16
511.681	1	9
512.022	1	-3
512.362	1	11
512.702	1	-5
513.043	1	0
513.383	1	-6
513.724	1	12
514.064	1	2
514.404	1	13
514.745	1	5
515.085	1	1
515.425	1	14
515.766	1	-4
516.106	1	-5
516.447	1	6
516.787	1	6
517.127	1	5
517.468	1	7
517.808	1	-3
518.148	1	9
518.489	1	1
518.829	1	0
519.169	1	-3
519.510	1	-2
519.850	1	9
520.190	1	9
520.531	1	7
520.871	1	4
521.211	1	6
521.552	1	-1
521.892	1	6
522.232	1	2
522.573	1	6
522.913	1	10
523.253	1	13
523.593	1	8
523.934	1	7
524.274	1	6
524.614	1	12
524.955	1	-2
525.295	1	9
525.635	1	10
525.975	1	1
526.316	1	-7
526.656	1	13
526.996	1	6
527.337	1	15
527.677	1	14
528.017	1	-8
528.357	1	0
528.698	1	5
529.038	1	5
529.378	1	8
529.718	1	3
530.058	1	4
530.399	1	4
530.739	1	3
531.079	1	10
531.419	1	8
531.760	1	5
532.100	1	8
532.440	1	0
532.780	1	-4
533.120	1	2
533.461	1	2
533.801	1	5
534.141	1	4
534.481	1	18
534.821	1	9
535.162	1	9
535.502	1	-5
535.842	1	6
536.182	1	4
536.522	1	8
536.862	1	9
537.203	1	5
537.543	1	3
537.883	1	-1
538.223	1	12
538.563	1	4
538.903	1	2
539.243	1	8
539.584	1	2
539.924	1	4
540.264	1	12
540.604	1	8
540.944	1	7
541.284	1	-1
541.624	1	0
541.964	1	2
542.305	1	22
542.645	1	8
542.985	1	-5
543.325	1	4
543.665	1	-2
544.005	1	3
544.345	1	15
544.685	1	-6
545.025	1	5
545.365	1	0
545.705	1	-5
546.045	1	12
546.386	1	-6
546.726	1	9
547.066	1	-3
547.406	1	-3
547.746	1	6
548.086	1	5
548.426	1	8
548.766	1	6
549.106	1	1
549.446	1	6
549.786	1	9
550.126	1	3
550.466	1	8
550.806	1	9
551.146	1	10
551.486	1	1
551.826	1	4
552.166	1	4
552.506	1	4
552.846	1	12
553.186	1	-11
553.526	1	3
553.866	1	0
554.206	1	10
554.546	1	-1
554.886	1	5
555.226	1	11
555.566	1	6
555.906	1	4
556.246	1	0
556.586	1	-3
556.926	1	3
557.266	1	15
557.606	1	-12
557.946	1	6
558.286	1	-4
558.626	1	4
558.966	1	1
559.306	1	4
559.646	1	10
559.986	1	3
560.325	1	10
560.665	1	9
561.005	1	12
561.345	1	7
561.685	1	9
562.025	1	-5
562.365	1	-1
562.705	1	12
563.045	1	10
563.385	1	5
563.725	1	-2
564.064	1	2
564.404	1	1
564.744	1	15
565.084	1	3
565.424	1	3
565.764	1	2
566.104	1	8
566.444	1	9
566.783	1	6
567.123	1	-2
567.463	1	2
567.803	1	8
568.143	1	-1
568.483	1	8
568.823	1	3
569.162	1	-5
569.502	1	5
569.842	1	9
570.182	1	0
570.522	1	1
570.862	1	-11
571.201	1	15
571.541	1	4
571.881	1	0
572.221	1	1
572.561	1	9
572.900	1	7
573.240	1	-2
573.580	1	1
573.920	1	15
574.260	1	2
574.599	1	6
574.939	1	9
575.279	1	-4
575.619	1	2
575.959	1	-2
576.298	1	-2
576.638	1	5
576.978	1	2
577.318	1	5
577.657	1	-6
577.997	1	5
578.337	1	3
578.677	1	-1
579.016	1	-2
579.356	1	10
579.696	1	-3
580.036	1	8
580.375	1	4
580.715	1	5
581.055	1	1
581.394	1	5
581.734	1	6
582.074	1	0
582.414	1	0
582.753	1	4
583.093	1	11
583.433	1	8
583.772	1	9
584.112	1	10
584.452	1	10
584.791	1	5
585.131	1	1
585.471	1	4
585.811	1	-2
586.150	1	3
586.490	1	4
586.830	1	2
587.169	1	-1
587.509	1	-4
587.849	1	12
588.188	1	10
588.528	1	-4
588.867	1	9
589.207	1	6
589.547	1	12
589.886	1	6
590.226	1	-5
590.566	1	3
590.905	1	1
591.245	1	0
591.585	1	-3
591.924	1	-8
592.264	1	0
592.603	1	-5
592.943	1	3
593.283	1	6
593.622	1	2
593.962	1	4
594.301	1	1
594.641	1	6
594.981	1	4
595.320	1	3
595.660	1	8
595.999	1	9
596.339	1	4
596.678	1	-16
597.018	1	-2
597.358	1	1
597.697	1	-4
598.037	1	0
598.376	1	-8
598.716	1	5
599.055	1	8
599.395	1	5
599.734	1	10
600.074	1	-5
600.413	1	13
600.753	1	13
601.092	1	-2
601.432	1	-4
601.771	1	4
602.111	1	0
602.451	1	-3
602.790	1	4
603.130	1	3
603.469	1	-3
603.809	1	9
604.148	1	-4
604.487	1	7
604.827	1	4
605.166	1	3
605.506	1	3
605.845	1	5
606.185	1	-3
606.524	1	2
606.864	1	4
607.203	1	19
607.543	1	-1
607.882	1	9
608.222	1	-9
608.561	1	-7
608.901	1	12
609.240	1	10
609.579	1	5
609.919	1	-11
610.258	1	7
610.598	1	-4
610.937	1	-1
611.277	1	3
611.616	1	12
611.955	1	-8
612.295	1	7
612.634	1	4
612.974	1	-4
613.313	1	2
613.652	1	8
613.992	1	2
614.331	1	17
614.671	1	3
615.010	1	5
615.349	1	3
615.689	1	-7
616.028	1	19
616.368	1	11
616.707	1	3
617.046	1	6
617.386	1	12
617.725	1	3
618.064	1	4
618.404	1	-4
618.743	1	2
619.082	1	11
619.422	1	16
619.761	1	1
620.100	1	2
620.440	1	4
620.779	1	-3
621.118	1	9
621.458	1	1
621.797	1	1
622.136	1	0
622.476	1	1
622.815	1	17
623.154	1	3
623.494	1	-1
623.833	1	1
624.172	1	6
624.511	1	-3
624.851	1	1
625.190	1	-1
625.529	1	2
625.869	1	11
626.208	1	-5
626.547	1	-4
626.886	1	-2
627.226	1	4
627.565	1	7
627.904	1	-1
628.243	1	7
628.583	1	7
628.922	1	15
629.261	1	3
629.600	1	9
629.940	1	-6
630.279	1	6
630.618	1	2
630.957	1	2
631.297	1	4
631.636	1	-1
631.975	1	10
632.314	1	-4
632.653	1	-6
632.993	1	-3
633.332	1	-2
633.671	1	5
634.010	1	4
634.349	1	9
634.689	1	-6
635.028	1	-4
635.367	1	9
635.706	1	-2
636.045	1	-2
636.384	1	4
636.724	1	6
637.063	1	-5
637.402	1	6
637.741	1	3
638.080	1	-1
638.419	1	-2
638.759	1	0
639.098	1	2
639.437	1	4
639.776	1	3
640.115	1	1
640.454	1	-4
640.793	1	0
641.132	1	1
641.472	1	11
641.811	1	0
642.150	1	-8
642.489	1	0
642.828	1	11
643.167	1	19
643.506	1	-2
643.845	1	12
644.184	1	12
644.524	1	5
644.863	1	7
645.202	1	6
645.541	1	-3
645.880	1	8
646.219	1	2
646.558	1	-4
646.897	1	-6
647.236	1	-6
647.575	1	13
647.914	1	0
648.253	1	15
648.592	1	10
648.931	1	14
649.270	1	12
649.610	1	6
649.949	1	-3
650.288	1	7
650.627	1	6
650.966	1	5
651.305	1	2
651.644	1	11
651.983	1	-14
652.322	1	11
652.661	1	8
653.000	1	0
653.339	1	0
653.678	1	12
654.017	1	3
654.356	1	7
654.695	1	15
655.034	1	-1
655.373	1	6
655.712	1	8
656.051	1	1
656.390	1	3
656.729	1	7
657.068	1	-1
657.406	1	1
657.745	1	14
658.084	1	7
658.423	1	-1
658.762	1	-2
659.101	1	-2
659.440	1	4
659.779	1	5
660.118	1	1
660.457	1	4
660.796	1	11
661.135	1	1
661.474	1	11
661.813	1	7
662.152	1	-5
662.491	1	1
662.829	1	7
663.168	1	-7
663.507	1	5
663.846	1	7
664.185	1	13
664.524	1	7
664.863	1	-2
665.202	1	9
665.541	1	-3
665.879	1	1
666.218	1	-1
666.557	1	0
666.896	1	5
667.235	1	-1
667.574	1	0
667.913	1	5
668.251	1	-9
668.590	1	-1
668.929	1	2
669.268	1	5
669.607	1	-13
669.946	1	1
670.285	1	-5
670.623	1	0
670.962	1	-8
671.301	1	-2
671.640	1	-6
671.979	1	-2
672.317	1	0
672.656	1	16
672.995	1	-1
673.334	1	-5
673.673	1	8
674.011	1	3
674.350	1	3
674.689	1	-11
675.028	1	2
675.367	1	6
675.705	1	-8
676.044	1	0
676.383	1	8
676.722	1	-3
677.060	1	-2
677.399	1	20
677.738	1	-10
678.077	1	-6
678.416	1	0
678.754	1	10
679.093	1	9
679.432	1	-8
679.771	1	2
680.109	1	3
680.448	1	0
680.787	1	-13
681.125	1	-2
681.464	1	5
681.803	1	-4
682.142	1	-1
682.480	1	-7
682.819	1	3
683.158	1	2
683.496	1	0
683.835	1	-1
684.174	1	-4
684.512	1	-1
684.851	1	0
685.190	1	1
685.529	1	-1
685.867	1	0
686.206	1	-6
686.545	1	2
686.883	1	8
687.222	1	-5
687.561	1	-1
687.899	1	0
688.238	1	7
688.577	1	-7
688.746	1	-5