File: Data/GaN_150K_450ms/GaN_sample D_spot15_UVVIS_150 K_200um_450 ms 2x2mm1_27.txt
340.368	1	0
340.710	1	-10
341.052	1	5
341.394	1	-11
341.737	1	-2
342.079	1	0
342.421	1	3
342.763	1	-4
343.105	1	-2
343.447	1	7
343.789	1	3
344.131	1	-10
344.473	1	-4
344.815	1	3
345.157	1	8
345.499	1	-8
345.841	1	4
346.183	1	-2
346.526	1	-4
346.868	1	-9
347.210	1	-4
347.552	1	14
347.894	1	-7
348.236	1	3
348.578	1	8
348.920	1	8
349.262	1	10
349.604	1	-3
349.946	1	-2
350.288	1	-10
350.630	1	-3
350.972	1	3
351.314	1	1
351.656	1	3
351.998	1	-1
352.340	1	4
352.682	1	-14
353.024	1	10
353.366	1	6
353.708	1	-1
354.050	1	-2
354.392	1	-3
354.734	1	-1
355.076	1	12
355.418	1	-5
355.760	1	0
356.102	1	2
356.444	1	5
356.785	1	2
357.127	1	9
357.469	1	4
357.811	1	-2
358.153	1	-4
358.495	1	-3
358.837	1	14
359.179	1	0
359.521	1	8
359.863	1	-6
360.205	1	9
360.547	1	5
360.889	1	-6
361.231	1	5
361.572	1	12
361.914	1	0
362.256	1	7
362.598	1	6
362.940	1	1
363.282	1	-5
363.624	1	-5
363.966	1	2
364.308	1	1
364.649	1	0
364.991	1	2
365.333	1	0
365.675	1	13
366.017	1	2
366.359	1	-7
366.701	1	4
367.042	1	1
367.384	1	-8
367.726	1	-5
368.068	1	4
368.410	1	4
368.752	1	13
369.093	1	8
369.435	1	0
369.777	1	7
370.119	1	4
370.461	1	-3
370.803	1	-3
371.144	1	1
371.486	1	1
371.828	1	8
372.170	1	1
372.512	1	-5
372.853	1	-2
373.195	1	-8
373.537	1	-13
373.879	1	0
374.220	1	8
374.562	1	18
374.904	1	3
375.246	1	1
375.588	1	-3
375.929	1	-2
376.271	1	2
376.613	1	1
376.955	1	3
377.296	1	4
377.638	1	9
377.980	1	-1
378.321	1	9
378.663	1	6
379.005	1	-1
379.347	1	3
379.688	1	12
380.030	1	15
380.372	1	6
380.714	1	5
381.055	1	-2
381.397	1	-3
381.739	1	-4
382.080	1	3
382.422	1	3
382.764	1	1
383.105	1	-1
383.447	1	4
383.789	1	1
384.130	1	-2
384.472	1	-5
384.814	1	4
385.156	1	5
385.497	1	11
385.839	1	2
386.180	1	4
386.522	1	-2
386.864	1	-8
387.205	1	3
387.547	1	4
387.889	1	-3
388.230	1	6
388.572	1	-1
388.914	1	1
389.255	1	-4
389.597	1	3
389.939	1	9
390.280	1	4
390.622	1	-7
390.963	1	-10
391.305	1	-6
391.647	1	0
391.988	1	5
392.330	1	-2
392.671	1	11
393.013	1	9
393.355	1	-3
393.696	1	1
394.038	1	3
394.379	1	5
394.721	1	-5
395.062	1	-4
395.404	1	2
395.746	1	-8
396.087	1	2
396.429	1	7
396.770	1	4
397.112	1	-2
397.453	1	-4
397.795	1	-2
398.136	1	5
398.478	1	0
398.819	1	2
399.161	1	4
399.503	1	7
399.844	1	6
400.186	1	-2
400.527	1	5
400.869	1	-2
401.210	1	16
401.552	1	6
401.893	1	6
402.235	1	9
402.576	1	2
402.918	1	-13
403.259	1	-1
403.601	1	4
403.942	1	3
404.284	1	8
404.625	1	-7
404.967	1	2
405.308	1	-16
405.649	1	-8
405.991	1	2
406.332	1	6
406.674	1	-9
407.015	1	7
407.357	1	-1
407.698	1	5
408.040	1	10
408.381	1	-9
408.722	1	7
409.064	1	0
409.405	1	-3
409.747	1	1
410.088	1	2
410.430	1	3
410.771	1	0
411.112	1	4
411.454	1	6
411.795	1	1
412.137	1	2
412.478	1	1
412.819	1	-1
413.161	1	1
413.502	1	6
413.844	1	7
414.185	1	-8
414.526	1	-6
414.868	1	-1
415.209	1	1
415.550	1	1
415.892	1	10
416.233	1	5
416.575	1	5
416.916	1	3
417.257	1	2
417.599	1	7
417.940	1	-4
418.281	1	7
418.623	1	2
418.964	1	18
419.305	1	-1
419.647	1	4
419.988	1	9
420.329	1	3
420.671	1	11
421.012	1	-14
421.353	1	12
421.695	1	0
422.036	1	8
422.377	1	-1
422.718	1	7
423.060	1	5
423.401	1	-2
423.742	1	4
424.084	1	5
424.425	1	1
424.766	1	4
425.107	1	-5
425.449	1	2
425.790	1	-1
426.131	1	-7
426.472	1	11
426.814	1	4
427.155	1	-4
427.496	1	-7
427.837	1	-4
428.179	1	13
428.520	1	4
428.861	1	7
429.202	1	-11
429.544	1	-1
429.885	1	0
430.226	1	-12
430.567	1	-3
430.909	1	-2
431.250	1	4
431.591	1	7
431.932	1	-7
432.273	1	8
432.615	1	1
432.956	1	4
433.297	1	3
433.638	1	10
433.979	1	4
434.320	1	3
434.662	1	7
435.003	1	14
435.344	1	-2
435.685	1	-1
436.026	1	-12
436.368	1	-6
436.709	1	-4
437.050	1	-9
437.391	1	-1
437.732	1	0
438.073	1	-2
438.414	1	2
438.756	1	1
439.097	1	0
439.438	1	-3
439.779	1	3
440.120	1	1
440.461	1	1
440.802	1	5
441.143	1	-4
441.485	1	0
441.826	1	9
442.167	1	-7
442.508	1	6
442.849	1	6
443.190	1	-1
443.531	1	-3
443.872	1	3
444.213	1	-10
444.554	1	2
444.895	1	-4
445.237	1	-3
445.578	1	-3
445.919	1	-2
446.260	1	11
446.601	1	1
446.942	1	-1
447.283	1	7
447.624	1	-14
447.965	1	3
448.306	1	6
448.647	1	-1
448.988	1	5
449.329	1	4
449.670	1	-4
450.011	1	-1
450.352	1	-7
450.693	1	5
451.034	1	3
451.375	1	3
451.716	1	0
452.057	1	-5
452.398	1	9
452.739	1	5
453.080	1	10
453.421	1	4
453.762	1	3
454.103	1	0
454.444	1	-3
454.785	1	3
455.126	1	-4
455.467	1	-1
455.808	1	13
456.149	1	-4
456.490	1	-3
456.831	1	-4
457.172	1	0
457.513	1	-1
457.854	1	1
458.195	1	5
458.536	1	4
458.877	1	8
459.218	1	7
459.559	1	0
459.899	1	-1
460.240	1	-4
460.581	1	-2
460.922	1	7
461.263	1	8
461.604	1	-4
461.945	1	10
462.286	1	-2
462.627	1	-1
462.968	1	1
463.309	1	13
463.649	1	-6
463.990	1	5
464.331	1	6
464.672	1	2
465.013	1	-2
465.354	1	8
465.695	1	-1
466.036	1	7
466.376	1	4
466.717	1	-2
467.058	1	-2
467.399	1	2
467.740	1	13
468.081	1	3
468.422	1	3
468.762	1	4
469.103	1	5
469.444	1	3
469.785	1	-4
470.126	1	2
470.467	1	-1
470.807	1	4
471.148	1	-6
471.489	1	9
471.830	1	5
472.171	1	10
472.511	1	6
472.852	1	13
473.193	1	10
473.534	1	6
473.875	1	9
474.215	1	-1
474.556	1	1
474.897	1	-4
475.238	1	3
475.578	1	-8
475.919	1	-3
476.260	1	-12
476.601	1	4
476.942	1	-3
477.282	1	-5
477.623	1	-1
477.964	1	10
478.305	1	-1
478.645	1	-2
478.986	1	7
479.327	1	4
479.667	1	-8
480.008	1	5
480.349	1	4
480.690	1	9
481.030	1	0
481.371	1	-5
481.712	1	9
482.053	1	4
482.393	1	8
482.734	1	3
483.075	1	11
483.415	1	5
483.756	1	5
484.097	1	9
484.437	1	12
484.778	1	-4
485.119	1	3
485.459	1	9
485.800	1	2
486.141	1	7
486.481	1	-3
486.822	1	7
487.163	1	0
487.503	1	-3
487.844	1	-2
488.185	1	0
488.525	1	-5
488.866	1	1
489.207	1	3
489.547	1	-6
489.888	1	7
490.228	1	6
490.569	1	-6
490.910	1	0
491.250	1	-2
491.591	1	1
491.932	1	9
492.272	1	-10
492.613	1	-8
492.953	1	-3
493.294	1	-10
493.635	1	0
493.975	1	11
494.316	1	-2
494.656	1	6
494.997	1	-1
495.337	1	-7
495.678	1	-2
496.019	1	-5
496.359	1	-3
496.700	1	-2
497.040	1	-10
497.381	1	8
497.721	1	-1
498.062	1	-3
498.403	1	8
498.743	1	5
499.084	1	2
499.424	1	-2
499.765	1	1
500.105	1	3
500.446	1	4
500.786	1	-4
501.127	1	6
501.467	1	6
501.808	1	-8
502.148	1	-7
502.489	1	-7
502.829	1	-5
503.170	1	4
503.510	1	7
503.851	1	0
504.191	1	3
504.532	1	6
504.872	1	2
505.213	1	-3
505.553	1	2
505.894	1	15
506.234	1	0
506.575	1	11
506.915	1	4
507.256	1	6
507.596	1	3
507.936	1	10
508.277	1	14
508.617	1	-6
508.958	1	-5
509.298	1	-6
509.639	1	0
509.979	1	-5
510.319	1	12
510.660	1	0
511.000	1	9
511.341	1	10
511.681	1	5
512.022	1	-12
512.362	1	10
512.702	1	-9
513.043	1	5
513.383	1	1
513.724	1	-5
514.064	1	9
514.404	1	9
514.745	1	4
515.085	1	12
515.425	1	11
515.766	1	-2
516.106	1	-1
516.447	1	1
516.787	1	5
517.127	1	14
517.468	1	4
517.808	1	-6
518.148	1	12
518.489	1	-6
518.829	1	5
519.169	1	-7
519.510	1	-4
519.850	1	7
520.190	1	-4
520.531	1	3
520.871	1	4
521.211	1	3
521.552	1	-4
521.892	1	-4
522.232	1	5
522.573	1	3
522.913	1	7
523.253	1	6
523.593	1	8
523.934	1	2
524.274	1	8
524.614	1	8
524.955	1	-2
525.295	1	9
525.635	1	2
525.975	1	-2
526.316	1	-3
526.656	1	1
526.996	1	1
527.337	1	10
527.677	1	10
528.017	1	-5
528.357	1	4
528.698	1	9
529.038	1	6
529.378	1	-4
529.718	1	-3
530.058	1	3
530.399	1	-6
530.739	1	4
531.079	1	-7
531.419	1	7
531.760	1	3
532.100	1	19
532.440	1	-3
532.780	1	-4
533.120	1	-2
533.461	1	-5
533.801	1	7
534.141	1	8
534.481	1	14
534.821	1	2
535.162	1	5
535.502	1	10
535.842	1	-7
536.182	1	-3
536.522	1	7
536.862	1	0
537.203	1	9
537.543	1	3
537.883	1	3
538.223	1	-2
538.563	1	-3
538.903	1	0
539.243	1	-1
539.584	1	-1
539.924	1	5
540.264	1	13
540.604	1	11
540.944	1	6
541.284	1	-6
541.624	1	0
541.964	1	3
542.305	1	3
542.645	1	-2
542.985	1	-1
543.325	1	9
543.665	1	-7
544.005	1	9
544.345	1	5
544.685	1	-5
545.025	1	10
545.365	1	3
545.705	1	3
546.045	1	-4
546.386	1	-1
546.726	1	-5
547.066	1	9
547.406	1	-8
547.746	1	8
548.086	1	8
548.426	1	-5
548.766	1	-1
549.106	1	-3
549.446	1	-1
549.786	1	-1
550.126	1	4
550.466	1	-4
550.806	1	13
551.146	1	4
551.486	1	-9
551.826	1	-4
552.166	1	6
552.506	1	2
552.846	1	-4
553.186	1	-11
553.526	1	-7
553.866	1	-5
554.206	1	6
554.546	1	12
554.886	1	-3
555.226	1	3
555.566	1	-1
555.906	1	-5
556.246	1	7
556.586	1	6
556.926	1	4
557.266	1	5
557.606	1	-10
557.946	1	4
558.286	1	-15
558.626	1	8
558.966	1	3
559.306	1	3
559.646	1	5
559.986	1	4
560.325	1	-7
560.665	1	-3
561.005	1	-2
561.345	1	-5
561.685	1	-2
562.025	1	4
562.365	1	-6
562.705	1	5
563.045	1	6
563.385	1	9
563.725	1	1
564.064	1	0
564.404	1	5
564.744	1	9
565.084	1	13
565.424	1	1
565.764	1	8
566.104	1	2
566.444	1	14
566.783	1	-1
567.123	1	-2
567.463	1	5
567.803	1	3
568.143	1	4
568.483	1	3
568.823	1	-1
569.162	1	-3
569.502	1	2
569.842	1	-5
570.182	1	-2
570.522	1	-3
570.862	1	-15
571.201	1	12
571.541	1	0
571.881	1	-3
572.221	1	8
572.561	1	4
572.900	1	7
573.240	1	-4
573.580	1	3
573.920	1	6
574.260	1	-1
574.599	1	0
574.939	1	1
575.279	1	-1
575.619	1	2
575.959	1	8
576.298	1	-5
576.638	1	4
576.978	1	8
577.318	1	1
577.657	1	4
577.997	1	5
578.337	1	-3
578.677	1	4
579.016	1	7
579.356	1	-3
579.696	1	3
580.036	1	7
580.375	1	3
580.715	1	2
581.055	1	5
581.394	1	-2
581.734	1	5
582.074	1	3
582.414	1	-7
582.753	1	-4
583.093	1	-4
583.433	1	11
583.772	1	8
584.112	1	8
584.452	1	12
584.791	1	5
585.131	1	5
585.471	1	3
585.811	1	-2
586.150	1	6
586.490	1	1
586.830	1	4
587.169	1	-4
587.509	1	5
587.849	1	8
588.188	1	-3
588.528	1	-6
588.867	1	11
589.207	1	4
589.547	1	13
589.886	1	2
590.226	1	-3
590.566	1	0
590.905	1	0
591.245	1	-9
591.585	1	-8
591.924	1	2
592.264	1	0
592.603	1	-7
592.943	1	-5
593.283	1	7
593.622	1	-7
593.962	1	4
594.301	1	0
594.641	1	8
594.981	1	14
595.320	1	5
595.660	1	5
595.999	1	13
596.339	1	3
596.678	1	-9
597.018	1	-1
597.358	1	2
597.697	1	-4
598.037	1	1
598.376	1	5
598.716	1	-2
599.055	1	6
599.395	1	-7
599.734	1	5
600.074	1	-5
600.413	1	3
600.753	1	11
601.092	1	-3
601.432	1	2
601.771	1	4
602.111	1	1
602.451	1	-1
602.790	1	3
603.130	1	-1
603.469	1	1
603.809	1	2
604.148	1	-6
604.487	1	7
604.827	1	4
605.166	1	-2
605.506	1	-7
605.845	1	7
606.185	1	-1
606.524	1	-7
606.864	1	6
607.203	1	0
607.543	1	2
607.882	1	4
608.222	1	5
608.561	1	1
608.901	1	3
609.240	1	-1
609.579	1	-5
609.919	1	-15
610.258	1	9
610.598	1	-4
610.937	1	3
611.277	1	10
611.616	1	11
611.955	1	-6
612.295	1	4
612.634	1	5
612.974	1	-1
613.313	1	0
613.652	1	11
613.992	1	1
614.331	1	3
614.671	1	8
615.010	1	5
615.349	1	13
615.689	1	-8
616.028	1	7
616.368	1	10
616.707	1	5
617.046	1	-7
617.386	1	13
617.725	1	-3
618.064	1	-5
618.404	1	-3
618.743	1	6
619.082	1	8
619.422	1	16
619.761	1	-1
620.100	1	-3
620.440	1	13
620.779	1	6
621.118	1	10
621.458	1	0
621.797	1	-5
622.136	1	-9
622.476	1	0
622.815	1	-3
623.154	1	-8
623.494	1	-13
623.833	1	0
624.172	1	1
624.511	1	-11
624.851	1	-10
625.190	1	-2
625.529	1	-2
625.869	1	4
626.208	1	0
626.547	1	0
626.886	1	0
627.226	1	4
627.565	1	2
627.904	1	-4
628.243	1	3
628.583	1	12
628.922	1	6
629.261	1	5
629.600	1	2
629.940	1	5
630.279	1	7
630.618	1	4
630.957	1	-3
631.297	1	7
631.636	1	3
631.975	1	-2
632.314	1	-8
632.653	1	1
632.993	1	2
633.332	1	-3
633.671	1	3
634.010	1	4
634.349	1	4
634.689	1	-7
635.028	1	-5
635.367	1	6
635.706	1	-3
636.045	1	-1
636.384	1	8
636.724	1	-1
637.063	1	-2
637.402	1	3
637.741	1	8
638.080	1	-3
638.419	1	1
638.759	1	2
639.098	1	-1
639.437	1	-3
639.776	1	6
640.115	1	-2
640.454	1	-2
640.793	1	-4
641.132	1	-1
641.472	1	10
641.811	1	-13
642.150	1	-6
642.489	1	-6
642.828	1	6
643.167	1	2
643.506	1	-8
643.845	1	5
644.184	1	3
644.524	1	-1
644.863	1	4
645.202	1	-5
645.541	1	-1
645.880	1	8
646.219	1	-4
646.558	1	-5
646.897	1	-6
647.236	1	-14
647.575	1	6
647.914	1	3
648.253	1	-2
648.592	1	7
648.931	1	7
649.270	1	4
649.610	1	0
649.949	1	0
650.288	1	5
650.627	1	-1
650.966	1	0
651.305	1	5
651.644	1	9
651.983	1	-12
652.322	1	3
652.661	1	-1
653.000	1	-2
653.339	1	0
653.678	1	6
654.017	1	0
654.356	1	-4
654.695	1	14
655.034	1	-8
655.373	1	10
655.712	1	-2
656.051	1	-8
656.390	1	13
656.729	1	1
657.068	1	-2
657.406	1	-4
657.745	1	12
658.084	1	8
658.423	1	3
658.762	1	-5
659.101	1	3
659.440	1	2
659.779	1	1
660.118	1	-6
660.457	1	4
660.796	1	1
661.135	1	9
661.474	1	4
661.813	1	0
662.152	1	-5
662.491	1	-3
662.829	1	-10
663.168	1	4
663.507	1	7
663.846	1	2
664.185	1	5
664.524	1	7
664.863	1	-7
665.202	1	2
665.541	1	3
665.879	1	-6
666.218	1	15
666.557	1	1
666.896	1	-1
667.235	1	-3
667.574	1	-8
667.913	1	-5
668.251	1	-4
668.590	1	1
668.929	1	-2
669.268	1	6
669.607	1	-7
669.946	1	-4
670.285	1	4
670.623	1	-4
670.962	1	-6
671.301	1	1
671.640	1	0
671.979	1	-5
672.317	1	7
672.656	1	6
672.995	1	-1
673.334	1	3
673.673	1	11
674.011	1	5
674.350	1	7
674.689	1	-13
675.028	1	-2
675.367	1	1
675.705	1	-15
676.044	1	-9
676.383	1	-1
676.722	1	5
677.060	1	4
677.399	1	11
677.738	1	4
678.077	1	-2
678.416	1	-5
678.754	1	-1
679.093	1	13
679.432	1	-1
679.771	1	-1
680.109	1	0
680.448	1	14
680.787	1	-5
681.125	1	2
681.464	1	3
681.803	1	5
682.142	1	0
682.480	1	-4
682.819	1	-2
683.158	1	-4
683.496	1	-3
683.835	1	7
684.174	1	9
684.512	1	-2
684.851	1	2
685.190	1	-7
685.529	1	3
685.867	1	2
686.206	1	-3
686.545	1	-3
686.883	1	13
687.222	1	0
687.561	1	3
687.899	1	-4
688.238	1	5
688.577	1	2
688.746	1	1