File: Data/GaN_150K_450ms/GaN_sample D_spot15_UVVIS_150 K_200um_450 ms 2x2mm1_93.txt
340.368	1	2
340.710	1	7
341.052	1	6
341.394	1	-5
341.737	1	7
342.079	1	7
342.421	1	8
342.763	1	0
343.105	1	7
343.447	1	4
343.789	1	7
344.131	1	-4
344.473	1	8
344.815	1	12
345.157	1	6
345.499	1	11
345.841	1	13
346.183	1	8
346.526	1	4
346.868	1	14
347.210	1	0
347.552	1	20
347.894	1	-4
348.236	1	2
348.578	1	10
348.920	1	6
349.262	1	7
349.604	1	-6
349.946	1	1
350.288	1	-1
350.630	1	2
350.972	1	13
351.314	1	-1
351.656	1	5
351.998	1	4
352.340	1	7
352.682	1	-2
353.024	1	15
353.366	1	3
353.708	1	9
354.050	1	3
354.392	1	1
354.734	1	11
355.076	1	18
355.418	1	7
355.760	1	13
356.102	1	16
356.444	1	17
356.785	1	24
357.127	1	16
357.469	1	11
357.811	1	9
358.153	1	-3
358.495	1	18
358.837	1	17
359.179	1	20
359.521	1	24
359.863	1	18
360.205	1	19
360.547	1	26
360.889	1	19
361.231	1	28
361.572	1	35
361.914	1	40
362.256	1	46
362.598	1	48
362.940	1	47
363.282	1	37
363.624	1	55
363.966	1	45
364.308	1	60
364.649	1	63
364.991	1	71
365.333	1	69
365.675	1	88
366.017	1	96
366.359	1	84
366.701	1	97
367.042	1	91
367.384	1	101
367.726	1	106
368.068	1	117
368.410	1	111
368.752	1	117
369.093	1	109
369.435	1	115
369.777	1	105
370.119	1	103
370.461	1	91
370.803	1	94
371.144	1	75
371.486	1	85
371.828	1	66
372.170	1	65
372.512	1	57
372.853	1	76
373.195	1	63
373.537	1	55
373.879	1	53
374.220	1	59
374.562	1	56
374.904	1	52
375.246	1	45
375.588	1	38
375.929	1	47
376.271	1	47
376.613	1	48
376.955	1	37
377.296	1	47
377.638	1	35
377.980	1	33
378.321	1	39
378.663	1	35
379.005	1	33
379.347	1	31
379.688	1	36
380.030	1	43
380.372	1	37
380.714	1	17
381.055	1	22
381.397	1	26
381.739	1	12
382.080	1	25
382.422	1	25
382.764	1	15
383.105	1	21
383.447	1	12
383.789	1	6
384.130	1	27
384.472	1	18
384.814	1	11
385.156	1	16
385.497	1	25
385.839	1	13
386.180	1	7
386.522	1	21
386.864	1	14
387.205	1	11
387.547	1	13
387.889	1	18
388.230	1	21
388.572	1	4
388.914	1	19
389.255	1	13
389.597	1	18
389.939	1	19
390.280	1	7
390.622	1	5
390.963	1	-2
391.305	1	2
391.647	1	16
391.988	1	2
392.330	1	6
392.671	1	19
393.013	1	24
393.355	1	17
393.696	1	15
394.038	1	18
394.379	1	16
394.721	1	12
395.062	1	4
395.404	1	16
395.746	1	7
396.087	1	11
396.429	1	15
396.770	1	15
397.112	1	14
397.453	1	17
397.795	1	7
398.136	1	7
398.478	1	11
398.819	1	15
399.161	1	16
399.503	1	13
399.844	1	14
400.186	1	19
400.527	1	11
400.869	1	8
401.210	1	15
401.552	1	13
401.893	1	14
402.235	1	14
402.576	1	12
402.918	1	4
403.259	1	15
403.601	1	5
403.942	1	9
404.284	1	16
404.625	1	7
404.967	1	9
405.308	1	4
405.649	1	15
405.991	1	14
406.332	1	18
406.674	1	16
407.015	1	12
407.357	1	19
407.698	1	13
408.040	1	20
408.381	1	4
408.722	1	15
409.064	1	11
409.405	1	12
409.747	1	19
410.088	1	17
410.430	1	20
410.771	1	12
411.112	1	15
411.454	1	17
411.795	1	18
412.137	1	8
412.478	1	19
412.819	1	13
413.161	1	12
413.502	1	22
413.844	1	28
414.185	1	12
414.526	1	4
414.868	1	16
415.209	1	1
415.550	1	8
415.892	1	18
416.233	1	22
416.575	1	8
416.916	1	16
417.257	1	18
417.599	1	15
417.940	1	11
418.281	1	14
418.623	1	13
418.964	1	23
419.305	1	17
419.647	1	20
419.988	1	24
420.329	1	15
420.671	1	23
421.012	1	11
421.353	1	22
421.695	1	18
422.036	1	19
422.377	1	12
422.718	1	19
423.060	1	19
423.401	1	12
423.742	1	17
424.084	1	14
424.425	1	19
424.766	1	19
425.107	1	24
425.449	1	10
425.790	1	17
426.131	1	10
426.472	1	18
426.814	1	8
427.155	1	11
427.496	1	23
427.837	1	12
428.179	1	21
428.520	1	12
428.861	1	10
429.202	1	5
429.544	1	17
429.885	1	25
430.226	1	6
430.567	1	-1
430.909	1	17
431.250	1	25
431.591	1	18
431.932	1	8
432.273	1	19
432.615	1	4
432.956	1	16
433.297	1	18
433.638	1	24
433.979	1	14
434.320	1	15
434.662	1	23
435.003	1	25
435.344	1	10
435.685	1	8
436.026	1	8
436.368	1	13
436.709	1	15
437.050	1	-3
437.391	1	12
437.732	1	13
438.073	1	12
438.414	1	15
438.756	1	20
439.097	1	11
439.438	1	8
439.779	1	7
440.120	1	11
440.461	1	11
440.802	1	9
441.143	1	9
441.485	1	4
441.826	1	19
442.167	1	10
442.508	1	14
442.849	1	17
443.190	1	13
443.531	1	12
443.872	1	-5
444.213	1	3
444.554	1	17
444.895	1	6
445.237	1	22
445.578	1	9
445.919	1	8
446.260	1	17
446.601	1	10
446.942	1	5
447.283	1	17
447.624	1	7
447.965	1	6
448.306	1	9
448.647	1	11
448.988	1	10
449.329	1	5
449.670	1	11
450.011	1	3
450.352	1	16
450.693	1	16
451.034	1	9
451.375	1	8
451.716	1	4
452.057	1	22
452.398	1	12
452.739	1	15
453.080	1	12
453.421	1	16
453.762	1	20
454.103	1	5
454.444	1	3
454.785	1	12
455.126	1	12
455.467	1	11
455.808	1	19
456.149	1	2
456.490	1	-5
456.831	1	11
457.172	1	17
457.513	1	15
457.854	1	9
458.195	1	8
458.536	1	20
458.877	1	10
459.218	1	18
459.559	1	9
459.899	1	7
460.240	1	9
460.581	1	2
460.922	1	4
461.263	1	17
461.604	1	9
461.945	1	9
462.286	1	12
462.627	1	8
462.968	1	14
463.309	1	10
463.649	1	-3
463.990	1	1
464.331	1	20
464.672	1	9
465.013	1	14
465.354	1	11
465.695	1	8
466.036	1	18
466.376	1	12
466.717	1	-4
467.058	1	13
467.399	1	1
467.740	1	21
468.081	1	9
468.422	1	15
468.762	1	11
469.103	1	11
469.444	1	5
469.785	1	3
470.126	1	13
470.467	1	9
470.807	1	5
471.148	1	4
471.489	1	-2
471.830	1	7
472.171	1	24
472.511	1	9
472.852	1	13
473.193	1	4
473.534	1	10
473.875	1	13
474.215	1	14
474.556	1	-3
474.897	1	9
475.238	1	7
475.578	1	1
475.919	1	7
476.260	1	2
476.601	1	4
476.942	1	8
477.282	1	-1
477.623	1	13
477.964	1	13
478.305	1	14
478.645	1	10
478.986	1	19
479.327	1	6
479.667	1	10
480.008	1	8
480.349	1	3
480.690	1	8
481.030	1	5
481.371	1	-2
481.712	1	19
482.053	1	20
482.393	1	15
482.734	1	3
483.075	1	7
483.415	1	14
483.756	1	12
484.097	1	12
484.437	1	12
484.778	1	3
485.119	1	4
485.459	1	5
485.800	1	3
486.141	1	16
486.481	1	4
486.822	1	15
487.163	1	4
487.503	1	11
487.844	1	4
488.185	1	9
488.525	1	12
488.866	1	10
489.207	1	24
489.547	1	17
489.888	1	16
490.228	1	8
490.569	1	6
490.910	1	4
491.250	1	7
491.591	1	10
491.932	1	14
492.272	1	-1
492.613	1	11
492.953	1	11
493.294	1	4
493.635	1	5
493.975	1	14
494.316	1	9
494.656	1	21
494.997	1	5
495.337	1	3
495.678	1	8
496.019	1	17
496.359	1	11
496.700	1	14
497.040	1	8
497.381	1	14
497.721	1	9
498.062	1	15
498.403	1	10
498.743	1	13
499.084	1	18
499.424	1	10
499.765	1	17
500.105	1	26
500.446	1	13
500.786	1	19
501.127	1	28
501.467	1	22
501.808	1	22
502.148	1	12
502.489	1	6
502.829	1	16
503.170	1	25
503.510	1	13
503.851	1	18
504.191	1	13
504.532	1	20
504.872	1	18
505.213	1	13
505.553	1	15
505.894	1	20
506.234	1	24
506.575	1	22
506.915	1	21
507.256	1	26
507.596	1	22
507.936	1	28
508.277	1	23
508.617	1	16
508.958	1	21
509.298	1	18
509.639	1	22
509.979	1	18
510.319	1	22
510.660	1	23
511.000	1	18
511.341	1	33
511.681	1	31
512.022	1	15
512.362	1	20
512.702	1	17
513.043	1	26
513.383	1	21
513.724	1	21
514.064	1	24
514.404	1	32
514.745	1	11
515.085	1	21
515.425	1	39
515.766	1	29
516.106	1	19
516.447	1	41
516.787	1	18
517.127	1	27
517.468	1	40
517.808	1	18
518.148	1	44
518.489	1	28
518.829	1	25
519.169	1	30
519.510	1	24
519.850	1	30
520.190	1	36
520.531	1	34
520.871	1	26
521.211	1	31
521.552	1	31
521.892	1	20
522.232	1	35
522.573	1	36
522.913	1	28
523.253	1	38
523.593	1	42
523.934	1	39
524.274	1	23
524.614	1	34
524.955	1	20
525.295	1	27
525.635	1	32
525.975	1	28
526.316	1	34
526.656	1	42
526.996	1	36
527.337	1	34
527.677	1	46
528.017	1	37
528.357	1	28
528.698	1	35
529.038	1	29
529.378	1	25
529.718	1	28
530.058	1	35
530.399	1	22
530.739	1	37
531.079	1	32
531.419	1	37
531.760	1	30
532.100	1	36
532.440	1	41
532.780	1	36
533.120	1	35
533.461	1	26
533.801	1	41
534.141	1	23
534.481	1	44
534.821	1	34
535.162	1	41
535.502	1	31
535.842	1	19
536.182	1	20
536.522	1	23
536.862	1	21
537.203	1	21
537.543	1	32
537.883	1	26
538.223	1	35
538.563	1	26
538.903	1	20
539.243	1	27
539.584	1	17
539.924	1	35
540.264	1	36
540.604	1	34
540.944	1	30
541.284	1	23
541.624	1	23
541.964	1	21
542.305	1	34
542.645	1	25
542.985	1	24
543.325	1	31
543.665	1	30
544.005	1	25
544.345	1	41
544.685	1	12
545.025	1	24
545.365	1	18
545.705	1	11
546.045	1	32
546.386	1	29
546.726	1	18
547.066	1	15
547.406	1	23
547.746	1	9
548.086	1	20
548.426	1	33
548.766	1	23
549.106	1	20
549.446	1	29
549.786	1	27
550.126	1	24
550.466	1	32
550.806	1	29
551.146	1	23
551.486	1	18
551.826	1	28
552.166	1	28
552.506	1	17
552.846	1	22
553.186	1	19
553.526	1	21
553.866	1	17
554.206	1	27
554.546	1	22
554.886	1	23
555.226	1	22
555.566	1	21
555.906	1	16
556.246	1	22
556.586	1	16
556.926	1	18
557.266	1	24
557.606	1	19
557.946	1	33
558.286	1	8
558.626	1	23
558.966	1	13
559.306	1	21
559.646	1	24
559.986	1	17
560.325	1	15
560.665	1	22
561.005	1	15
561.345	1	18
561.685	1	18
562.025	1	17
562.365	1	14
562.705	1	24
563.045	1	21
563.385	1	10
563.725	1	14
564.064	1	7
564.404	1	20
564.744	1	23
565.084	1	24
565.424	1	11
565.764	1	11
566.104	1	20
566.444	1	20
566.783	1	17
567.123	1	7
567.463	1	26
567.803	1	21
568.143	1	15
568.483	1	21
568.823	1	12
569.162	1	11
569.502	1	14
569.842	1	12
570.182	1	10
570.522	1	14
570.862	1	6
571.201	1	24
571.541	1	19
571.881	1	15
572.221	1	18
572.561	1	24
572.900	1	16
573.240	1	6
573.580	1	19
573.920	1	20
574.260	1	11
574.599	1	14
574.939	1	2
575.279	1	20
575.619	1	7
575.959	1	8
576.298	1	13
576.638	1	19
576.978	1	16
577.318	1	14
577.657	1	9
577.997	1	23
578.337	1	9
578.677	1	15
579.016	1	12
579.356	1	16
579.696	1	5
580.036	1	16
580.375	1	17
580.715	1	20
581.055	1	16
581.394	1	11
581.734	1	14
582.074	1	12
582.414	1	7
582.753	1	6
583.093	1	12
583.433	1	13
583.772	1	15
584.112	1	18
584.452	1	6
584.791	1	18
585.131	1	20
585.471	1	6
585.811	1	11
586.150	1	11
586.490	1	20
586.830	1	14
587.169	1	19
587.509	1	14
587.849	1	21
588.188	1	12
588.528	1	3
588.867	1	13
589.207	1	5
589.547	1	9
589.886	1	15
590.226	1	-2
590.566	1	7
590.905	1	6
591.245	1	3
591.585	1	3
591.924	1	6
592.264	1	10
592.603	1	-3
592.943	1	7
593.283	1	11
593.622	1	5
593.962	1	11
594.301	1	16
594.641	1	17
594.981	1	13
595.320	1	15
595.660	1	8
595.999	1	3
596.339	1	15
596.678	1	7
597.018	1	0
597.358	1	6
597.697	1	0
598.037	1	5
598.376	1	3
598.716	1	9
599.055	1	8
599.395	1	-1
599.734	1	-1
600.074	1	3
600.413	1	6
600.753	1	3
601.092	1	4
601.432	1	-5
601.771	1	17
602.111	1	11
602.451	1	8
602.790	1	6
603.130	1	12
603.469	1	11
603.809	1	7
604.148	1	-5
604.487	1	12
604.827	1	13
605.166	1	13
605.506	1	-1
605.845	1	16
606.185	1	4
606.524	1	-4
606.864	1	17
607.203	1	13
607.543	1	12
607.882	1	4
608.222	1	8
608.561	1	1
608.901	1	11
609.240	1	15
609.579	1	7
609.919	1	5
610.258	1	20
610.598	1	1
610.937	1	-2
611.277	1	9
611.616	1	13
611.955	1	4
612.295	1	10
612.634	1	20
612.974	1	11
613.313	1	3
613.652	1	13
613.992	1	5
614.331	1	15
614.671	1	6
615.010	1	-2
615.349	1	5
615.689	1	9
616.028	1	18
616.368	1	22
616.707	1	14
617.046	1	5
617.386	1	10
617.725	1	3
618.064	1	0
618.404	1	8
618.743	1	9
619.082	1	19
619.422	1	19
619.761	1	8
620.100	1	2
620.440	1	17
620.779	1	12
621.118	1	14
621.458	1	6
621.797	1	7
622.136	1	12
622.476	1	6
622.815	1	10
623.154	1	-10
623.494	1	-5
623.833	1	11
624.172	1	12
624.511	1	3
624.851	1	13
625.190	1	10
625.529	1	7
625.869	1	11
626.208	1	-2
626.547	1	4
626.886	1	-6
627.226	1	14
627.565	1	18
627.904	1	-2
628.243	1	5
628.583	1	10
628.922	1	9
629.261	1	6
629.600	1	7
629.940	1	6
630.279	1	6
630.618	1	13
630.957	1	12
631.297	1	15
631.636	1	9
631.975	1	16
632.314	1	10
632.653	1	7
632.993	1	5
633.332	1	5
633.671	1	9
634.010	1	10
634.349	1	18
634.689	1	-1
635.028	1	0
635.367	1	16
635.706	1	-4
636.045	1	-4
636.384	1	10
636.724	1	1
637.063	1	1
637.402	1	10
637.741	1	-5
638.080	1	-4
638.419	1	-1
638.759	1	8
639.098	1	5
639.437	1	7
639.776	1	7
640.115	1	4
640.454	1	6
640.793	1	-5
641.132	1	6
641.472	1	17
641.811	1	3
642.150	1	6
642.489	1	12
642.828	1	23
643.167	1	10
643.506	1	13
643.845	1	7
644.184	1	18
644.524	1	7
644.863	1	3
645.202	1	4
645.541	1	-1
645.880	1	10
646.219	1	-2
646.558	1	3
646.897	1	-9
647.236	1	-1
647.575	1	14
647.914	1	5
648.253	1	9
648.592	1	10
648.931	1	0
649.270	1	16
649.610	1	8
649.949	1	-3
650.288	1	3
650.627	1	5
650.966	1	6
651.305	1	12
651.644	1	17
651.983	1	7
652.322	1	10
652.661	1	10
653.000	1	3
653.339	1	8
653.678	1	10
654.017	1	12
654.356	1	16
654.695	1	23
655.034	1	8
655.373	1	9
655.712	1	11
656.051	1	7
656.390	1	4
656.729	1	10
657.068	1	7
657.406	1	-4
657.745	1	13
658.084	1	10
658.423	1	9
658.762	1	-1
659.101	1	8
659.440	1	7
659.779	1	8
660.118	1	5
660.457	1	5
660.796	1	17
661.135	1	18
661.474	1	10
661.813	1	0
662.152	1	-4
662.491	1	9
662.829	1	23
663.168	1	11
663.507	1	8
663.846	1	-2
664.185	1	11
664.524	1	12
664.863	1	-4
665.202	1	11
665.541	1	13
665.879	1	-2
666.218	1	12
666.557	1	-2
666.896	1	2
667.235	1	-1
667.574	1	6
667.913	1	7
668.251	1	-1
668.590	1	0
668.929	1	11
669.268	1	-1
669.607	1	-4
669.946	1	7
670.285	1	6
670.623	1	12
670.962	1	3
671.301	1	2
671.640	1	3
671.979	1	9
672.317	1	0
672.656	1	11
672.995	1	12
673.334	1	7
673.673	1	11
674.011	1	11
674.350	1	15
674.689	1	-4
675.028	1	6
675.367	1	10
675.705	1	0
676.044	1	12
676.383	1	9
676.722	1	-1
677.060	1	5
677.399	1	17
677.738	1	1
678.077	1	-1
678.416	1	0
678.754	1	7
679.093	1	16
679.432	1	0
679.771	1	1
680.109	1	-3
680.448	1	2
680.787	1	-10
681.125	1	1
681.464	1	9
681.803	1	-2
682.142	1	6
682.480	1	-6
682.819	1	8
683.158	1	10
683.496	1	2
683.835	1	8
684.174	1	15
684.512	1	11
684.851	1	-1
685.190	1	7
685.529	1	0
685.867	1	8
686.206	1	-8
686.545	1	1
686.883	1	15
687.222	1	4
687.561	1	10
687.899	1	1
688.238	1	20
688.577	1	4
688.746	1	5