File: Data/GaN_150K_450ms/GaN_sample D_spot15_UVVIS_150 K_200um_450 ms 2x2mm1_334.txt
340.368	1	-5
340.710	1	-1
341.052	1	9
341.394	1	-6
341.737	1	1
342.079	1	4
342.421	1	-6
342.763	1	-9
343.105	1	8
343.447	1	11
343.789	1	8
344.131	1	-11
344.473	1	-3
344.815	1	10
345.157	1	6
345.499	1	-1
345.841	1	4
346.183	1	-1
346.526	1	2
346.868	1	-4
347.210	1	-4
347.552	1	11
347.894	1	0
348.236	1	6
348.578	1	6
348.920	1	-2
349.262	1	7
349.604	1	-5
349.946	1	-6
350.288	1	-16
350.630	1	-3
350.972	1	4
351.314	1	1
351.656	1	14
351.998	1	5
352.340	1	7
352.682	1	-10
353.024	1	19
353.366	1	4
353.708	1	-2
354.050	1	-8
354.392	1	-8
354.734	1	12
355.076	1	11
355.418	1	-3
355.760	1	2
356.102	1	1
356.444	1	4
356.785	1	3
357.127	1	6
357.469	1	1
357.811	1	6
358.153	1	-16
358.495	1	4
358.837	1	5
359.179	1	7
359.521	1	7
359.863	1	-6
360.205	1	-1
360.547	1	4
360.889	1	2
361.231	1	0
361.572	1	8
361.914	1	4
362.256	1	15
362.598	1	13
362.940	1	9
363.282	1	-6
363.624	1	1
363.966	1	2
364.308	1	4
364.649	1	10
364.991	1	7
365.333	1	-1
365.675	1	15
366.017	1	19
366.359	1	5
366.701	1	1
367.042	1	12
367.384	1	4
367.726	1	5
368.068	1	15
368.410	1	14
368.752	1	27
369.093	1	9
369.435	1	18
369.777	1	12
370.119	1	3
370.461	1	7
370.803	1	6
371.144	1	9
371.486	1	15
371.828	1	5
372.170	1	9
372.512	1	0
372.853	1	12
373.195	1	6
373.537	1	-5
373.879	1	0
374.220	1	6
374.562	1	4
374.904	1	-1
375.246	1	7
375.588	1	1
375.929	1	10
376.271	1	1
376.613	1	2
376.955	1	-2
377.296	1	5
377.638	1	7
377.980	1	2
378.321	1	6
378.663	1	5
379.005	1	0
379.347	1	1
379.688	1	7
380.030	1	15
380.372	1	5
380.714	1	9
381.055	1	6
381.397	1	2
381.739	1	-9
382.080	1	0
382.422	1	2
382.764	1	3
383.105	1	-1
383.447	1	3
383.789	1	-9
384.130	1	8
384.472	1	-5
384.814	1	10
385.156	1	4
385.497	1	12
385.839	1	1
386.180	1	-5
386.522	1	7
386.864	1	-9
387.205	1	6
387.547	1	6
387.889	1	-7
388.230	1	7
388.572	1	-7
388.914	1	5
389.255	1	-1
389.597	1	-10
389.939	1	4
390.280	1	-3
390.622	1	0
390.963	1	-9
391.305	1	3
391.647	1	-6
391.988	1	7
392.330	1	-1
392.671	1	0
393.013	1	12
393.355	1	6
393.696	1	8
394.038	1	6
394.379	1	11
394.721	1	0
395.062	1	2
395.404	1	4
395.746	1	-5
396.087	1	4
396.429	1	7
396.770	1	2
397.112	1	-3
397.453	1	-8
397.795	1	-5
398.136	1	4
398.478	1	8
398.819	1	-1
399.161	1	10
399.503	1	11
399.844	1	-1
400.186	1	-2
400.527	1	4
400.869	1	2
401.210	1	7
401.552	1	4
401.893	1	2
402.235	1	3
402.576	1	3
402.918	1	-9
403.259	1	-4
403.601	1	16
403.942	1	-4
404.284	1	14
404.625	1	-7
404.967	1	7
405.308	1	-11
405.649	1	6
405.991	1	-1
406.332	1	-3
406.674	1	-4
407.015	1	2
407.357	1	7
407.698	1	-6
408.040	1	12
408.381	1	-3
408.722	1	-1
409.064	1	4
409.405	1	-4
409.747	1	2
410.088	1	-1
410.430	1	7
410.771	1	0
411.112	1	3
411.454	1	5
411.795	1	0
412.137	1	-15
412.478	1	0
412.819	1	5
413.161	1	-1
413.502	1	3
413.844	1	4
414.185	1	9
414.526	1	-13
414.868	1	-5
415.209	1	-8
415.550	1	4
415.892	1	3
416.233	1	2
416.575	1	-7
416.916	1	1
417.257	1	-9
417.599	1	8
417.940	1	-11
418.281	1	0
418.623	1	-7
418.964	1	12
419.305	1	6
419.647	1	0
419.988	1	11
420.329	1	4
420.671	1	14
421.012	1	-3
421.353	1	10
421.695	1	5
422.036	1	10
422.377	1	8
422.718	1	3
423.060	1	14
423.401	1	-4
423.742	1	8
424.084	1	6
424.425	1	13
424.766	1	-2
425.107	1	0
425.449	1	-1
425.790	1	-1
426.131	1	-10
426.472	1	2
426.814	1	-2
427.155	1	-1
427.496	1	5
427.837	1	-5
428.179	1	15
428.520	1	-4
428.861	1	2
429.202	1	-4
429.544	1	4
429.885	1	6
430.226	1	-13
430.567	1	-14
430.909	1	-9
431.250	1	2
431.591	1	4
431.932	1	4
432.273	1	8
432.615	1	-6
432.956	1	1
433.297	1	7
433.638	1	8
433.979	1	-8
434.320	1	1
434.662	1	6
435.003	1	9
435.344	1	2
435.685	1	-7
436.026	1	-5
436.368	1	-7
436.709	1	-4
437.050	1	1
437.391	1	1
437.732	1	1
438.073	1	-1
438.414	1	11
438.756	1	-4
439.097	1	3
439.438	1	9
439.779	1	-1
440.120	1	4
440.461	1	1
440.802	1	5
441.143	1	5
441.485	1	-6
441.826	1	1
442.167	1	0
442.508	1	6
442.849	1	10
443.190	1	4
443.531	1	3
443.872	1	1
444.213	1	-8
444.554	1	5
444.895	1	-8
445.237	1	-2
445.578	1	-6
445.919	1	6
446.260	1	-2
446.601	1	2
446.942	1	-7
447.283	1	7
447.624	1	-9
447.965	1	1
448.306	1	1
448.647	1	-3
448.988	1	6
449.329	1	2
449.670	1	4
450.011	1	-8
450.352	1	4
450.693	1	9
451.034	1	7
451.375	1	-3
451.716	1	-5
452.057	1	2
452.398	1	15
452.739	1	8
453.080	1	5
453.421	1	16
453.762	1	5
454.103	1	-1
454.444	1	1
454.785	1	0
455.126	1	3
455.467	1	-1
455.808	1	2
456.149	1	-1
456.490	1	-3
456.831	1	3
457.172	1	6
457.513	1	-2
457.854	1	3
458.195	1	-1
458.536	1	6
458.877	1	4
459.218	1	5
459.559	1	-5
459.899	1	1
460.240	1	-9
460.581	1	-11
460.922	1	1
461.263	1	14
461.604	1	0
461.945	1	7
462.286	1	-3
462.627	1	3
462.968	1	7
463.309	1	1
463.649	1	-10
463.990	1	-6
464.331	1	8
464.672	1	-3
465.013	1	6
465.354	1	8
465.695	1	4
466.036	1	4
466.376	1	2
466.717	1	-7
467.058	1	3
467.399	1	-11
467.740	1	7
468.081	1	1
468.422	1	10
468.762	1	8
469.103	1	8
469.444	1	2
469.785	1	-2
470.126	1	4
470.467	1	-4
470.807	1	5
471.148	1	-15
471.489	1	12
471.830	1	7
472.171	1	10
472.511	1	3
472.852	1	8
473.193	1	2
473.534	1	8
473.875	1	-2
474.215	1	5
474.556	1	-1
474.897	1	-6
475.238	1	6
475.578	1	-5
475.919	1	-4
476.260	1	-6
476.601	1	0
476.942	1	-7
477.282	1	-8
477.623	1	-3
477.964	1	3
478.305	1	5
478.645	1	9
478.986	1	1
479.327	1	1
479.667	1	-4
480.008	1	-1
480.349	1	-8
480.690	1	2
481.030	1	-2
481.371	1	-12
481.712	1	17
482.053	1	15
482.393	1	2
482.734	1	5
483.075	1	0
483.415	1	8
483.756	1	3
484.097	1	7
484.437	1	1
484.778	1	0
485.119	1	4
485.459	1	-10
485.800	1	-6
486.141	1	2
486.481	1	-14
486.822	1	8
487.163	1	-8
487.503	1	0
487.844	1	-15
488.185	1	2
488.525	1	-1
488.866	1	-7
489.207	1	3
489.547	1	6
489.888	1	2
490.228	1	2
490.569	1	0
490.910	1	-4
491.250	1	0
491.591	1	-8
491.932	1	7
492.272	1	-6
492.613	1	3
492.953	1	-2
493.294	1	-7
493.635	1	5
493.975	1	6
494.316	1	-9
494.656	1	7
494.997	1	-3
495.337	1	-3
495.678	1	-3
496.019	1	-2
496.359	1	0
496.700	1	-3
497.040	1	-6
497.381	1	3
497.721	1	-8
498.062	1	-6
498.403	1	9
498.743	1	3
499.084	1	3
499.424	1	-4
499.765	1	-6
500.105	1	4
500.446	1	-3
500.786	1	-13
501.127	1	2
501.467	1	-1
501.808	1	-2
502.148	1	-8
502.489	1	-8
502.829	1	-3
503.170	1	1
503.510	1	-2
503.851	1	5
504.191	1	-4
504.532	1	11
504.872	1	-4
505.213	1	-2
505.553	1	2
505.894	1	10
506.234	1	-3
506.575	1	16
506.915	1	0
507.256	1	4
507.596	1	10
507.936	1	7
508.277	1	8
508.617	1	7
508.958	1	9
509.298	1	-4
509.639	1	2
509.979	1	-1
510.319	1	-4
510.660	1	0
511.000	1	-6
511.341	1	11
511.681	1	8
512.022	1	-10
512.362	1	5
512.702	1	-10
513.043	1	1
513.383	1	-1
513.724	1	3
514.064	1	-1
514.404	1	2
514.745	1	-3
515.085	1	4
515.425	1	19
515.766	1	7
516.106	1	4
516.447	1	5
516.787	1	2
517.127	1	7
517.468	1	7
517.808	1	-7
518.148	1	10
518.489	1	-3
518.829	1	-2
519.169	1	-7
519.510	1	-8
519.850	1	-1
520.190	1	-4
520.531	1	5
520.871	1	8
521.211	1	9
521.552	1	-5
521.892	1	2
522.232	1	-2
522.573	1	-1
522.913	1	1
523.253	1	8
523.593	1	10
523.934	1	-1
524.274	1	2
524.614	1	-4
524.955	1	3
525.295	1	6
525.635	1	8
525.975	1	-1
526.316	1	-5
526.656	1	1
526.996	1	-2
527.337	1	2
527.677	1	4
528.017	1	-1
528.357	1	10
528.698	1	10
529.038	1	-4
529.378	1	8
529.718	1	-1
530.058	1	8
530.399	1	-6
530.739	1	5
531.079	1	-2
531.419	1	-1
531.760	1	11
532.100	1	10
532.440	1	12
532.780	1	-3
533.120	1	1
533.461	1	-3
533.801	1	5
534.141	1	4
534.481	1	9
534.821	1	-4
535.162	1	7
535.502	1	4
535.842	1	-9
536.182	1	-2
536.522	1	1
536.862	1	1
537.203	1	2
537.543	1	5
537.883	1	4
538.223	1	15
538.563	1	-4
538.903	1	-7
539.243	1	-1
539.584	1	-3
539.924	1	3
540.264	1	8
540.604	1	14
540.944	1	2
541.284	1	0
541.624	1	4
541.964	1	-4
542.305	1	0
542.645	1	3
542.985	1	-5
543.325	1	8
543.665	1	-1
544.005	1	0
544.345	1	8
544.685	1	-3
545.025	1	1
545.365	1	2
545.705	1	4
546.045	1	11
546.386	1	0
546.726	1	-2
547.066	1	-2
547.406	1	-10
547.746	1	4
548.086	1	1
548.426	1	1
548.766	1	5
549.106	1	3
549.446	1	4
549.786	1	8
550.126	1	5
550.466	1	-1
550.806	1	6
551.146	1	3
551.486	1	2
551.826	1	4
552.166	1	0
552.506	1	-10
552.846	1	-1
553.186	1	1
553.526	1	-6
553.866	1	-1
554.206	1	9
554.546	1	1
554.886	1	0
555.226	1	1
555.566	1	-6
555.906	1	0
556.246	1	2
556.586	1	-13
556.926	1	5
557.266	1	12
557.606	1	-19
557.946	1	8
558.286	1	-9
558.626	1	2
558.966	1	2
559.306	1	8
559.646	1	11
559.986	1	9
560.325	1	-3
560.665	1	4
561.005	1	3
561.345	1	-3
561.685	1	1
562.025	1	7
562.365	1	-3
562.705	1	18
563.045	1	3
563.385	1	5
563.725	1	3
564.064	1	-5
564.404	1	-8
564.744	1	18
565.084	1	11
565.424	1	-5
565.764	1	5
566.104	1	13
566.444	1	13
566.783	1	7
567.123	1	12
567.463	1	5
567.803	1	10
568.143	1	3
568.483	1	6
568.823	1	-5
569.162	1	-9
569.502	1	9
569.842	1	-5
570.182	1	-3
570.522	1	2
570.862	1	-4
571.201	1	13
571.541	1	-3
571.881	1	1
572.221	1	2
572.561	1	8
572.900	1	8
573.240	1	-7
573.580	1	5
573.920	1	5
574.260	1	7
574.599	1	1
574.939	1	-7
575.279	1	-8
575.619	1	4
575.959	1	5
576.298	1	-11
576.638	1	12
576.978	1	1
577.318	1	0
577.657	1	-6
577.997	1	-3
578.337	1	-1
578.677	1	2
579.016	1	1
579.356	1	-2
579.696	1	1
580.036	1	3
580.375	1	-1
580.715	1	9
581.055	1	-1
581.394	1	-1
581.734	1	-5
582.074	1	7
582.414	1	-4
582.753	1	2
583.093	1	4
583.433	1	0
583.772	1	14
584.112	1	3
584.452	1	-1
584.791	1	8
585.131	1	12
585.471	1	6
585.811	1	4
586.150	1	-3
586.490	1	1
586.830	1	-4
587.169	1	-1
587.509	1	-2
587.849	1	15
588.188	1	9
588.528	1	3
588.867	1	3
589.207	1	-5
589.547	1	8
589.886	1	2
590.226	1	-1
590.566	1	-6
590.905	1	-7
591.245	1	-2
591.585	1	-5
591.924	1	0
592.264	1	7
592.603	1	-3
592.943	1	-4
593.283	1	5
593.622	1	-2
593.962	1	7
594.301	1	0
594.641	1	3
594.981	1	5
595.320	1	8
595.660	1	13
595.999	1	-5
596.339	1	-1
596.678	1	-7
597.018	1	-12
597.358	1	1
597.697	1	0
598.037	1	4
598.376	1	-12
598.716	1	-3
599.055	1	-1
599.395	1	-13
599.734	1	4
600.074	1	-8
600.413	1	-5
600.753	1	11
601.092	1	-4
601.432	1	-10
601.771	1	2
602.111	1	-3
602.451	1	9
602.790	1	0
603.130	1	2
603.469	1	2
603.809	1	-4
604.148	1	-10
604.487	1	-2
604.827	1	5
605.166	1	-3
605.506	1	4
605.845	1	5
606.185	1	-6
606.524	1	-1
606.864	1	9
607.203	1	-4
607.543	1	4
607.882	1	12
608.222	1	-7
608.561	1	0
608.901	1	2
609.240	1	11
609.579	1	1
609.919	1	-5
610.258	1	4
610.598	1	-2
610.937	1	2
611.277	1	-3
611.616	1	9
611.955	1	-3
612.295	1	-1
612.634	1	-2
612.974	1	-1
613.313	1	-7
613.652	1	9
613.992	1	-1
614.331	1	9
614.671	1	8
615.010	1	-2
615.349	1	4
615.689	1	-6
616.028	1	11
616.368	1	10
616.707	1	-4
617.046	1	2
617.386	1	12
617.725	1	8
618.064	1	0
618.404	1	-4
618.743	1	7
619.082	1	16
619.422	1	11
619.761	1	1
620.100	1	0
620.440	1	4
620.779	1	8
621.118	1	9
621.458	1	6
621.797	1	0
622.136	1	-8
622.476	1	6
622.815	1	-3
623.154	1	-10
623.494	1	-17
623.833	1	7
624.172	1	0
624.511	1	-5
624.851	1	-1
625.190	1	-9
625.529	1	-5
625.869	1	8
626.208	1	-1
626.547	1	-5
626.886	1	-8
627.226	1	3
627.565	1	5
627.904	1	-3
628.243	1	9
628.583	1	10
628.922	1	4
629.261	1	-7
629.600	1	0
629.940	1	5
630.279	1	7
630.618	1	2
630.957	1	3
631.297	1	11
631.636	1	-1
631.975	1	-1
632.314	1	-4
632.653	1	-4
632.993	1	0
633.332	1	0
633.671	1	0
634.010	1	1
634.349	1	9
634.689	1	1
635.028	1	0
635.367	1	2
635.706	1	0
636.045	1	-2
636.384	1	11
636.724	1	4
637.063	1	5
637.402	1	-5
637.741	1	0
638.080	1	11
638.419	1	-2
638.759	1	-4
639.098	1	-2
639.437	1	-1
639.776	1	11
640.115	1	-3
640.454	1	-6
640.793	1	5
641.132	1	0
641.472	1	6
641.811	1	1
642.150	1	-1
642.489	1	9
642.828	1	11
643.167	1	1
643.506	1	3
643.845	1	8
644.184	1	13
644.524	1	-5
644.863	1	0
645.202	1	4
645.541	1	3
645.880	1	2
646.219	1	0
646.558	1	-12
646.897	1	-11
647.236	1	-12
647.575	1	12
647.914	1	3
648.253	1	9
648.592	1	11
648.931	1	3
649.270	1	13
649.610	1	0
649.949	1	0
650.288	1	8
650.627	1	3
650.966	1	7
651.305	1	0
651.644	1	10
651.983	1	-10
652.322	1	7
652.661	1	3
653.000	1	0
653.339	1	-6
653.678	1	-2
654.017	1	9
654.356	1	-2
654.695	1	10
655.034	1	-1
655.373	1	5
655.712	1	-3
656.051	1	-10
656.390	1	-4
656.729	1	10
657.068	1	3
657.406	1	3
657.745	1	13
658.084	1	2
658.423	1	6
658.762	1	-6
659.101	1	-9
659.440	1	-2
659.779	1	3
660.118	1	-4
660.457	1	8
660.796	1	5
661.135	1	13
661.474	1	2
661.813	1	-3
662.152	1	4
662.491	1	-4
662.829	1	4
663.168	1	-6
663.507	1	4
663.846	1	6
664.185	1	-1
664.524	1	3
664.863	1	-4
665.202	1	8
665.541	1	6
665.879	1	2
666.218	1	-7
666.557	1	-9
666.896	1	10
667.235	1	-7
667.574	1	2
667.913	1	1
668.251	1	-8
668.590	1	-6
668.929	1	0
669.268	1	-11
669.607	1	-7
669.946	1	-1
670.285	1	0
670.623	1	-2
670.962	1	-4
671.301	1	3
671.640	1	9
671.979	1	-11
672.317	1	-2
672.656	1	2
672.995	1	3
673.334	1	-9
673.673	1	9
674.011	1	-2
674.350	1	3
674.689	1	-9
675.028	1	3
675.367	1	8
675.705	1	-6
676.044	1	-4
676.383	1	3
676.722	1	1
677.060	1	0
677.399	1	6
677.738	1	0
678.077	1	-10
678.416	1	-1
678.754	1	-3
679.093	1	6
679.432	1	-7
679.771	1	-2
680.109	1	-7
680.448	1	-2
680.787	1	-6
681.125	1	-3
681.464	1	7
681.803	1	-2
682.142	1	-1
682.480	1	-5
682.819	1	-12
683.158	1	-8
683.496	1	-4
683.835	1	4
684.174	1	0
684.512	1	-2
684.851	1	-1
685.190	1	3
685.529	1	-6
685.867	1	0
686.206	1	-8
686.545	1	1
686.883	1	11
687.222	1	3
687.561	1	-5
687.899	1	2
688.238	1	3
688.577	1	-4
688.746	1	5