File: Data/GaN_150K_450ms/GaN_sample D_spot15_UVVIS_150 K_200um_450 ms 2x2mm1_164.txt
340.368	1	-5
340.710	1	1
341.052	1	-1
341.394	1	-5
341.737	1	12
342.079	1	0
342.421	1	1
342.763	1	0
343.105	1	7
343.447	1	2
343.789	1	2
344.131	1	-2
344.473	1	4
344.815	1	3
345.157	1	10
345.499	1	4
345.841	1	8
346.183	1	0
346.526	1	12
346.868	1	-5
347.210	1	1
347.552	1	13
347.894	1	4
348.236	1	9
348.578	1	12
348.920	1	8
349.262	1	-2
349.604	1	3
349.946	1	5
350.288	1	-4
350.630	1	-5
350.972	1	7
351.314	1	-2
351.656	1	7
351.998	1	0
352.340	1	7
352.682	1	-10
353.024	1	9
353.366	1	6
353.708	1	-1
354.050	1	-6
354.392	1	-10
354.734	1	1
355.076	1	19
355.418	1	2
355.760	1	12
356.102	1	8
356.444	1	9
356.785	1	6
357.127	1	9
357.469	1	15
357.811	1	4
358.153	1	0
358.495	1	0
358.837	1	13
359.179	1	4
359.521	1	9
359.863	1	7
360.205	1	15
360.547	1	20
360.889	1	10
361.231	1	19
361.572	1	19
361.914	1	14
362.256	1	9
362.598	1	21
362.940	1	15
363.282	1	5
363.624	1	10
363.966	1	17
364.308	1	14
364.649	1	18
364.991	1	20
365.333	1	19
365.675	1	36
366.017	1	37
366.359	1	15
366.701	1	24
367.042	1	27
367.384	1	18
367.726	1	33
368.068	1	37
368.410	1	29
368.752	1	39
369.093	1	29
369.435	1	38
369.777	1	40
370.119	1	28
370.461	1	24
370.803	1	27
371.144	1	29
371.486	1	35
371.828	1	20
372.170	1	32
372.512	1	17
372.853	1	27
373.195	1	24
373.537	1	0
373.879	1	17
374.220	1	19
374.562	1	23
374.904	1	22
375.246	1	15
375.588	1	16
375.929	1	11
376.271	1	9
376.613	1	17
376.955	1	8
377.296	1	19
377.638	1	12
377.980	1	9
378.321	1	16
378.663	1	16
379.005	1	15
379.347	1	10
379.688	1	17
380.030	1	15
380.372	1	18
380.714	1	13
381.055	1	10
381.397	1	11
381.739	1	2
382.080	1	15
382.422	1	12
382.764	1	12
383.105	1	2
383.447	1	3
383.789	1	3
384.130	1	7
384.472	1	6
384.814	1	4
385.156	1	14
385.497	1	19
385.839	1	6
386.180	1	1
386.522	1	6
386.864	1	-1
387.205	1	7
387.547	1	21
387.889	1	4
388.230	1	3
388.572	1	-1
388.914	1	12
389.255	1	5
389.597	1	0
389.939	1	16
390.280	1	5
390.622	1	3
390.963	1	4
391.305	1	1
391.647	1	9
391.988	1	4
392.330	1	-2
392.671	1	11
393.013	1	12
393.355	1	4
393.696	1	8
394.038	1	7
394.379	1	17
394.721	1	6
395.062	1	2
395.404	1	10
395.746	1	6
396.087	1	7
396.429	1	8
396.770	1	6
397.112	1	-2
397.453	1	0
397.795	1	2
398.136	1	8
398.478	1	6
398.819	1	5
399.161	1	11
399.503	1	17
399.844	1	4
400.186	1	9
400.527	1	7
400.869	1	7
401.210	1	11
401.552	1	9
401.893	1	12
402.235	1	18
402.576	1	10
402.918	1	-2
403.259	1	6
403.601	1	18
403.942	1	11
404.284	1	16
404.625	1	0
404.967	1	11
405.308	1	-4
405.649	1	3
405.991	1	10
406.332	1	16
406.674	1	11
407.015	1	0
407.357	1	8
407.698	1	5
408.040	1	16
408.381	1	1
408.722	1	10
409.064	1	5
409.405	1	5
409.747	1	-3
410.088	1	12
410.430	1	8
410.771	1	10
411.112	1	17
411.454	1	9
411.795	1	1
412.137	1	7
412.478	1	6
412.819	1	8
413.161	1	12
413.502	1	11
413.844	1	10
414.185	1	2
414.526	1	-5
414.868	1	13
415.209	1	2
415.550	1	8
415.892	1	17
416.233	1	4
416.575	1	-1
416.916	1	0
417.257	1	2
417.599	1	7
417.940	1	4
418.281	1	9
418.623	1	8
418.964	1	19
419.305	1	11
419.647	1	7
419.988	1	19
420.329	1	10
420.671	1	19
421.012	1	8
421.353	1	17
421.695	1	8
422.036	1	13
422.377	1	7
422.718	1	5
423.060	1	19
423.401	1	4
423.742	1	12
424.084	1	3
424.425	1	9
424.766	1	8
425.107	1	19
425.449	1	12
425.790	1	7
426.131	1	-2
426.472	1	17
426.814	1	7
427.155	1	6
427.496	1	7
427.837	1	9
428.179	1	17
428.520	1	14
428.861	1	10
429.202	1	5
429.544	1	9
429.885	1	-1
430.226	1	-6
430.567	1	0
430.909	1	1
431.250	1	9
431.591	1	14
431.932	1	6
432.273	1	24
432.615	1	-1
432.956	1	5
433.297	1	1
433.638	1	14
433.979	1	7
434.320	1	5
434.662	1	8
435.003	1	8
435.344	1	4
435.685	1	0
436.026	1	3
436.368	1	-6
436.709	1	7
437.050	1	8
437.391	1	7
437.732	1	15
438.073	1	3
438.414	1	9
438.756	1	7
439.097	1	6
439.438	1	11
439.779	1	2
440.120	1	4
440.461	1	4
440.802	1	1
441.143	1	8
441.485	1	-1
441.826	1	11
442.167	1	4
442.508	1	6
442.849	1	11
443.190	1	16
443.531	1	17
443.872	1	-4
444.213	1	-6
444.554	1	8
444.895	1	3
445.237	1	9
445.578	1	-6
445.919	1	7
446.260	1	19
446.601	1	5
446.942	1	5
447.283	1	12
447.624	1	-5
447.965	1	4
448.306	1	2
448.647	1	1
448.988	1	14
449.329	1	6
449.670	1	7
450.011	1	2
450.352	1	9
450.693	1	11
451.034	1	8
451.375	1	-1
451.716	1	6
452.057	1	6
452.398	1	10
452.739	1	5
453.080	1	3
453.421	1	10
453.762	1	4
454.103	1	5
454.444	1	1
454.785	1	6
455.126	1	7
455.467	1	7
455.808	1	10
456.149	1	-1
456.490	1	2
456.831	1	0
457.172	1	1
457.513	1	3
457.854	1	6
458.195	1	4
458.536	1	9
458.877	1	4
459.218	1	8
459.559	1	13
459.899	1	4
460.240	1	1
460.581	1	-6
460.922	1	8
461.263	1	15
461.604	1	7
461.945	1	6
462.286	1	-2
462.627	1	7
462.968	1	11
463.309	1	9
463.649	1	1
463.990	1	3
464.331	1	10
464.672	1	7
465.013	1	10
465.354	1	18
465.695	1	8
466.036	1	14
466.376	1	19
466.717	1	-5
467.058	1	2
467.399	1	6
467.740	1	10
468.081	1	7
468.422	1	-1
468.762	1	0
469.103	1	-6
469.444	1	9
469.785	1	3
470.126	1	17
470.467	1	-3
470.807	1	7
471.148	1	3
471.489	1	4
471.830	1	4
472.171	1	15
472.511	1	10
472.852	1	10
473.193	1	7
473.534	1	10
473.875	1	1
474.215	1	8
474.556	1	7
474.897	1	-2
475.238	1	10
475.578	1	-2
475.919	1	-4
476.260	1	-2
476.601	1	-3
476.942	1	13
477.282	1	-4
477.623	1	-1
477.964	1	4
478.305	1	8
478.645	1	8
478.986	1	5
479.327	1	5
479.667	1	5
480.008	1	-2
480.349	1	4
480.690	1	9
481.030	1	4
481.371	1	-1
481.712	1	18
482.053	1	6
482.393	1	9
482.734	1	6
483.075	1	9
483.415	1	10
483.756	1	7
484.097	1	7
484.437	1	7
484.778	1	7
485.119	1	1
485.459	1	-4
485.800	1	0
486.141	1	5
486.481	1	-1
486.822	1	8
487.163	1	-3
487.503	1	13
487.844	1	-1
488.185	1	-3
488.525	1	-4
488.866	1	-1
489.207	1	8
489.547	1	5
489.888	1	4
490.228	1	10
490.569	1	1
490.910	1	7
491.250	1	13
491.591	1	3
491.932	1	11
492.272	1	-2
492.613	1	5
492.953	1	7
493.294	1	0
493.635	1	0
493.975	1	13
494.316	1	2
494.656	1	10
494.997	1	-5
495.337	1	5
495.678	1	3
496.019	1	0
496.359	1	-5
496.700	1	-5
497.040	1	6
497.381	1	5
497.721	1	0
498.062	1	0
498.403	1	9
498.743	1	0
499.084	1	8
499.424	1	-2
499.765	1	3
500.105	1	7
500.446	1	0
500.786	1	7
501.127	1	14
501.467	1	7
501.808	1	10
502.148	1	-1
502.489	1	-4
502.829	1	-2
503.170	1	14
503.510	1	11
503.851	1	7
504.191	1	0
504.532	1	11
504.872	1	5
505.213	1	4
505.553	1	-2
505.894	1	3
506.234	1	4
506.575	1	16
506.915	1	6
507.256	1	14
507.596	1	10
507.936	1	8
508.277	1	11
508.617	1	8
508.958	1	19
509.298	1	-2
509.639	1	7
509.979	1	2
510.319	1	12
510.660	1	2
511.000	1	9
511.341	1	17
511.681	1	2
512.022	1	0
512.362	1	10
512.702	1	-10
513.043	1	17
513.383	1	3
513.724	1	15
514.064	1	7
514.404	1	12
514.745	1	5
515.085	1	14
515.425	1	11
515.766	1	2
516.106	1	13
516.447	1	10
516.787	1	5
517.127	1	18
517.468	1	15
517.808	1	-8
518.148	1	7
518.489	1	0
518.829	1	14
519.169	1	-2
519.510	1	5
519.850	1	7
520.190	1	7
520.531	1	4
520.871	1	11
521.211	1	7
521.552	1	13
521.892	1	10
522.232	1	9
522.573	1	15
522.913	1	15
523.253	1	20
523.593	1	17
523.934	1	10
524.274	1	4
524.614	1	15
524.955	1	5
525.295	1	17
525.635	1	9
525.975	1	-1
526.316	1	-5
526.656	1	4
526.996	1	0
527.337	1	11
527.677	1	15
528.017	1	1
528.357	1	8
528.698	1	18
529.038	1	9
529.378	1	9
529.718	1	4
530.058	1	7
530.399	1	11
530.739	1	15
531.079	1	5
531.419	1	5
531.760	1	13
532.100	1	16
532.440	1	13
532.780	1	5
533.120	1	11
533.461	1	11
533.801	1	14
534.141	1	11
534.481	1	19
534.821	1	10
535.162	1	5
535.502	1	12
535.842	1	12
536.182	1	8
536.522	1	-6
536.862	1	8
537.203	1	6
537.543	1	7
537.883	1	8
538.223	1	20
538.563	1	9
538.903	1	2
539.243	1	7
539.584	1	10
539.924	1	7
540.264	1	21
540.604	1	12
540.944	1	7
541.284	1	5
541.624	1	4
541.964	1	6
542.305	1	18
542.645	1	7
542.985	1	1
543.325	1	14
543.665	1	4
544.005	1	1
544.345	1	5
544.685	1	0
545.025	1	7
545.365	1	15
545.705	1	5
546.045	1	8
546.386	1	4
546.726	1	5
547.066	1	7
547.406	1	3
547.746	1	7
548.086	1	3
548.426	1	8
548.766	1	12
549.106	1	0
549.446	1	9
549.786	1	9
550.126	1	0
550.466	1	11
550.806	1	25
551.146	1	13
551.486	1	2
551.826	1	3
552.166	1	6
552.506	1	8
552.846	1	13
553.186	1	3
553.526	1	0
553.866	1	-8
554.206	1	5
554.546	1	11
554.886	1	6
555.226	1	6
555.566	1	9
555.906	1	8
556.246	1	8
556.586	1	9
556.926	1	9
557.266	1	14
557.606	1	-2
557.946	1	9
558.286	1	-4
558.626	1	8
558.966	1	5
559.306	1	10
559.646	1	10
559.986	1	13
560.325	1	9
560.665	1	4
561.005	1	3
561.345	1	7
561.685	1	10
562.025	1	13
562.365	1	2
562.705	1	10
563.045	1	10
563.385	1	8
563.725	1	6
564.064	1	0
564.404	1	-3
564.744	1	17
565.084	1	11
565.424	1	-1
565.764	1	8
566.104	1	7
566.444	1	8
566.783	1	9
567.123	1	3
567.463	1	6
567.803	1	13
568.143	1	8
568.483	1	15
568.823	1	10
569.162	1	-4
569.502	1	9
569.842	1	2
570.182	1	-3
570.522	1	-2
570.862	1	-6
571.201	1	13
571.541	1	5
571.881	1	0
572.221	1	-2
572.561	1	7
572.900	1	11
573.240	1	0
573.580	1	16
573.920	1	12
574.260	1	6
574.599	1	10
574.939	1	3
575.279	1	-1
575.619	1	2
575.959	1	9
576.298	1	0
576.638	1	14
576.978	1	9
577.318	1	10
577.657	1	1
577.997	1	10
578.337	1	8
578.677	1	-1
579.016	1	5
579.356	1	5
579.696	1	4
580.036	1	-3
580.375	1	10
580.715	1	11
581.055	1	1
581.394	1	5
581.734	1	6
582.074	1	-2
582.414	1	5
582.753	1	1
583.093	1	10
583.433	1	13
583.772	1	2
584.112	1	11
584.452	1	11
584.791	1	10
585.131	1	6
585.471	1	0
585.811	1	5
586.150	1	4
586.490	1	-3
586.830	1	0
587.169	1	0
587.509	1	0
587.849	1	12
588.188	1	13
588.528	1	6
588.867	1	6
589.207	1	-3
589.547	1	-2
589.886	1	9
590.226	1	4
590.566	1	5
590.905	1	-1
591.245	1	-2
591.585	1	-2
591.924	1	4
592.264	1	4
592.603	1	-3
592.943	1	1
593.283	1	0
593.622	1	4
593.962	1	5
594.301	1	9
594.641	1	4
594.981	1	-1
595.320	1	5
595.660	1	11
595.999	1	4
596.339	1	4
596.678	1	-7
597.018	1	-3
597.358	1	5
597.697	1	-4
598.037	1	-2
598.376	1	6
598.716	1	6
599.055	1	8
599.395	1	-6
599.734	1	9
600.074	1	0
600.413	1	6
600.753	1	11
601.092	1	-3
601.432	1	-4
601.771	1	1
602.111	1	10
602.451	1	0
602.790	1	4
603.130	1	5
603.469	1	8
603.809	1	9
604.148	1	6
604.487	1	5
604.827	1	1
605.166	1	8
605.506	1	-5
605.845	1	4
606.185	1	10
606.524	1	4
606.864	1	20
607.203	1	8
607.543	1	3
607.882	1	2
608.222	1	2
608.561	1	3
608.901	1	5
609.240	1	9
609.579	1	4
609.919	1	-6
610.258	1	16
610.598	1	-8
610.937	1	1
611.277	1	8
611.616	1	13
611.955	1	-2
612.295	1	7
612.634	1	1
612.974	1	2
613.313	1	14
613.652	1	14
613.992	1	-4
614.331	1	11
614.671	1	7
615.010	1	14
615.349	1	2
615.689	1	1
616.028	1	10
616.368	1	10
616.707	1	9
617.046	1	6
617.386	1	4
617.725	1	7
618.064	1	-3
618.404	1	-1
618.743	1	4
619.082	1	13
619.422	1	13
619.761	1	3
620.100	1	5
620.440	1	9
620.779	1	16
621.118	1	15
621.458	1	-2
621.797	1	-8
622.136	1	2
622.476	1	8
622.815	1	8
623.154	1	-8
623.494	1	-6
623.833	1	3
624.172	1	7
624.511	1	-2
624.851	1	-1
625.190	1	1
625.529	1	4
625.869	1	7
626.208	1	-5
626.547	1	-5
626.886	1	0
627.226	1	7
627.565	1	13
627.904	1	6
628.243	1	12
628.583	1	8
628.922	1	16
629.261	1	-1
629.600	1	5
629.940	1	8
630.279	1	9
630.618	1	15
630.957	1	-3
631.297	1	0
631.636	1	-2
631.975	1	5
632.314	1	8
632.653	1	-2
632.993	1	7
633.332	1	-2
633.671	1	4
634.010	1	3
634.349	1	11
634.689	1	0
635.028	1	1
635.367	1	10
635.706	1	3
636.045	1	-2
636.384	1	3
636.724	1	1
637.063	1	-9
637.402	1	7
637.741	1	5
638.080	1	14
638.419	1	3
638.759	1	8
639.098	1	9
639.437	1	6
639.776	1	4
640.115	1	-8
640.454	1	-4
640.793	1	4
641.132	1	5
641.472	1	11
641.811	1	3
642.150	1	0
642.489	1	8
642.828	1	16
643.167	1	11
643.506	1	0
643.845	1	11
644.184	1	9
644.524	1	7
644.863	1	4
645.202	1	2
645.541	1	6
645.880	1	6
646.219	1	1
646.558	1	-5
646.897	1	5
647.236	1	1
647.575	1	17
647.914	1	4
648.253	1	6
648.592	1	0
648.931	1	10
649.270	1	11
649.610	1	10
649.949	1	5
650.288	1	5
650.627	1	4
650.966	1	-4
651.305	1	7
651.644	1	11
651.983	1	-8
652.322	1	0
652.661	1	10
653.000	1	8
653.339	1	3
653.678	1	10
654.017	1	24
654.356	1	11
654.695	1	12
655.034	1	-2
655.373	1	8
655.712	1	11
656.051	1	-4
656.390	1	4
656.729	1	0
657.068	1	2
657.406	1	-1
657.745	1	12
658.084	1	2
658.423	1	2
658.762	1	2
659.101	1	-4
659.440	1	5
659.779	1	4
660.118	1	0
660.457	1	1
660.796	1	8
661.135	1	20
661.474	1	7
661.813	1	5
662.152	1	4
662.491	1	9
662.829	1	8
663.168	1	0
663.507	1	11
663.846	1	-1
664.185	1	1
664.524	1	13
664.863	1	-3
665.202	1	1
665.541	1	6
665.879	1	7
666.218	1	8
666.557	1	2
666.896	1	6
667.235	1	-11
667.574	1	0
667.913	1	8
668.251	1	-1
668.590	1	0
668.929	1	3
669.268	1	4
669.607	1	-3
669.946	1	8
670.285	1	7
670.623	1	1
670.962	1	-9
671.301	1	9
671.640	1	7
671.979	1	5
672.317	1	6
672.656	1	11
672.995	1	0
673.334	1	2
673.673	1	17
674.011	1	4
674.350	1	-13
674.689	1	-1
675.028	1	11
675.367	1	6
675.705	1	-4
676.044	1	0
676.383	1	5
676.722	1	2
677.060	1	-1
677.399	1	8
677.738	1	-5
678.077	1	2
678.416	1	-8
678.754	1	7
679.093	1	16
679.432	1	-3
679.771	1	2
680.109	1	-3
680.448	1	-4
680.787	1	-4
681.125	1	-3
681.464	1	5
681.803	1	-8
682.142	1	2
682.480	1	1
682.819	1	5
683.158	1	-1
683.496	1	-1
683.835	1	17
684.174	1	9
684.512	1	10
684.851	1	4
685.190	1	6
685.529	1	-3
685.867	1	1
686.206	1	-1
686.545	1	3
686.883	1	9
687.222	1	0
687.561	1	2
687.899	1	-2
688.238	1	5
688.577	1	-2
688.746	1	3