File: Data/GaN_150K_450ms/GaN_sample D_spot15_UVVIS_150 K_200um_450 ms 2x2mm1_289.txt
340.368	1	8
340.710	1	-2
341.052	1	-2
341.394	1	-7
341.737	1	6
342.079	1	-2
342.421	1	-6
342.763	1	4
343.105	1	5
343.447	1	4
343.789	1	2
344.131	1	-5
344.473	1	-2
344.815	1	11
345.157	1	12
345.499	1	5
345.841	1	5
346.183	1	7
346.526	1	5
346.868	1	-8
347.210	1	4
347.552	1	19
347.894	1	-7
348.236	1	8
348.578	1	3
348.920	1	2
349.262	1	5
349.604	1	-6
349.946	1	6
350.288	1	-2
350.630	1	-8
350.972	1	5
351.314	1	3
351.656	1	10
351.998	1	-7
352.340	1	7
352.682	1	-1
353.024	1	13
353.366	1	2
353.708	1	9
354.050	1	-4
354.392	1	-3
354.734	1	0
355.076	1	11
355.418	1	-5
355.760	1	-3
356.102	1	2
356.444	1	9
356.785	1	11
357.127	1	11
357.469	1	7
357.811	1	2
358.153	1	-3
358.495	1	-5
358.837	1	12
359.179	1	-5
359.521	1	4
359.863	1	1
360.205	1	9
360.547	1	11
360.889	1	-2
361.231	1	6
361.572	1	9
361.914	1	11
362.256	1	6
362.598	1	14
362.940	1	-4
363.282	1	-6
363.624	1	14
363.966	1	-4
364.308	1	15
364.649	1	1
364.991	1	7
365.333	1	3
365.675	1	16
366.017	1	13
366.359	1	8
366.701	1	3
367.042	1	19
367.384	1	3
367.726	1	1
368.068	1	14
368.410	1	4
368.752	1	19
369.093	1	10
369.435	1	20
369.777	1	18
370.119	1	10
370.461	1	13
370.803	1	18
371.144	1	13
371.486	1	17
371.828	1	9
372.170	1	6
372.512	1	0
372.853	1	20
373.195	1	11
373.537	1	7
373.879	1	-1
374.220	1	8
374.562	1	10
374.904	1	7
375.246	1	3
375.588	1	4
375.929	1	5
376.271	1	5
376.613	1	17
376.955	1	2
377.296	1	5
377.638	1	6
377.980	1	6
378.321	1	6
378.663	1	8
379.005	1	6
379.347	1	-5
379.688	1	18
380.030	1	-4
380.372	1	5
380.714	1	5
381.055	1	-3
381.397	1	7
381.739	1	-5
382.080	1	9
382.422	1	8
382.764	1	4
383.105	1	-2
383.447	1	-1
383.789	1	-7
384.130	1	3
384.472	1	5
384.814	1	-3
385.156	1	3
385.497	1	8
385.839	1	4
386.180	1	2
386.522	1	1
386.864	1	1
387.205	1	13
387.547	1	9
387.889	1	-1
388.230	1	-2
388.572	1	-5
388.914	1	7
389.255	1	0
389.597	1	2
389.939	1	13
390.280	1	3
390.622	1	4
390.963	1	-7
391.305	1	4
391.647	1	6
391.988	1	-1
392.330	1	3
392.671	1	8
393.013	1	3
393.355	1	7
393.696	1	2
394.038	1	4
394.379	1	7
394.721	1	-4
395.062	1	4
395.404	1	5
395.746	1	-2
396.087	1	11
396.429	1	3
396.770	1	6
397.112	1	3
397.453	1	13
397.795	1	-1
398.136	1	5
398.478	1	2
398.819	1	-1
399.161	1	2
399.503	1	11
399.844	1	4
400.186	1	2
400.527	1	2
400.869	1	1
401.210	1	10
401.552	1	12
401.893	1	11
402.235	1	8
402.576	1	7
402.918	1	-5
403.259	1	6
403.601	1	6
403.942	1	1
404.284	1	16
404.625	1	-13
404.967	1	1
405.308	1	-16
405.649	1	4
405.991	1	-7
406.332	1	7
406.674	1	-3
407.015	1	9
407.357	1	9
407.698	1	9
408.040	1	9
408.381	1	0
408.722	1	6
409.064	1	6
409.405	1	6
409.747	1	-5
410.088	1	7
410.430	1	7
410.771	1	-6
411.112	1	6
411.454	1	3
411.795	1	1
412.137	1	-2
412.478	1	4
412.819	1	11
413.161	1	5
413.502	1	4
413.844	1	14
414.185	1	-1
414.526	1	-1
414.868	1	2
415.209	1	-1
415.550	1	-1
415.892	1	4
416.233	1	12
416.575	1	-9
416.916	1	7
417.257	1	-5
417.599	1	12
417.940	1	-1
418.281	1	8
418.623	1	-7
418.964	1	18
419.305	1	0
419.647	1	1
419.988	1	7
420.329	1	-5
420.671	1	12
421.012	1	4
421.353	1	5
421.695	1	0
422.036	1	4
422.377	1	-3
422.718	1	3
423.060	1	5
423.401	1	2
423.742	1	9
424.084	1	8
424.425	1	11
424.766	1	-6
425.107	1	3
425.449	1	1
425.790	1	-1
426.131	1	-8
426.472	1	14
426.814	1	8
427.155	1	-1
427.496	1	0
427.837	1	-4
428.179	1	16
428.520	1	3
428.861	1	13
429.202	1	0
429.544	1	1
429.885	1	13
430.226	1	-6
430.567	1	-10
430.909	1	-8
431.250	1	2
431.591	1	6
431.932	1	1
432.273	1	7
432.615	1	-5
432.956	1	5
433.297	1	9
433.638	1	11
433.979	1	7
434.320	1	-3
434.662	1	7
435.003	1	15
435.344	1	-3
435.685	1	0
436.026	1	-2
436.368	1	-4
436.709	1	-6
437.050	1	6
437.391	1	-2
437.732	1	0
438.073	1	0
438.414	1	4
438.756	1	-2
439.097	1	2
439.438	1	9
439.779	1	-3
440.120	1	-5
440.461	1	0
440.802	1	0
441.143	1	-1
441.485	1	4
441.826	1	3
442.167	1	4
442.508	1	0
442.849	1	9
443.190	1	7
443.531	1	0
443.872	1	-5
444.213	1	-8
444.554	1	10
444.895	1	0
445.237	1	6
445.578	1	-5
445.919	1	-4
446.260	1	5
446.601	1	0
446.942	1	-8
447.283	1	6
447.624	1	-10
447.965	1	3
448.306	1	8
448.647	1	-2
448.988	1	2
449.329	1	-3
449.670	1	6
450.011	1	3
450.352	1	-5
450.693	1	7
451.034	1	4
451.375	1	-3
451.716	1	-7
452.057	1	7
452.398	1	7
452.739	1	-1
453.080	1	0
453.421	1	4
453.762	1	12
454.103	1	5
454.444	1	-1
454.785	1	2
455.126	1	6
455.467	1	-2
455.808	1	4
456.149	1	-3
456.490	1	-1
456.831	1	5
457.172	1	5
457.513	1	2
457.854	1	-1
458.195	1	3
458.536	1	6
458.877	1	6
459.218	1	9
459.559	1	2
459.899	1	-2
460.240	1	-4
460.581	1	-6
460.922	1	6
461.263	1	8
461.604	1	4
461.945	1	4
462.286	1	-5
462.627	1	5
462.968	1	3
463.309	1	5
463.649	1	4
463.990	1	7
464.331	1	10
464.672	1	6
465.013	1	2
465.354	1	10
465.695	1	9
466.036	1	-4
466.376	1	8
466.717	1	-6
467.058	1	0
467.399	1	-6
467.740	1	7
468.081	1	1
468.422	1	-1
468.762	1	1
469.103	1	8
469.444	1	3
469.785	1	-4
470.126	1	5
470.467	1	5
470.807	1	16
471.148	1	-4
471.489	1	6
471.830	1	-4
472.171	1	1
472.511	1	11
472.852	1	1
473.193	1	3
473.534	1	1
473.875	1	5
474.215	1	3
474.556	1	-8
474.897	1	1
475.238	1	1
475.578	1	-1
475.919	1	1
476.260	1	3
476.601	1	-2
476.942	1	3
477.282	1	-1
477.623	1	-8
477.964	1	0
478.305	1	5
478.645	1	-5
478.986	1	11
479.327	1	7
479.667	1	4
480.008	1	2
480.349	1	-5
480.690	1	6
481.030	1	-8
481.371	1	-3
481.712	1	4
482.053	1	10
482.393	1	-6
482.734	1	0
483.075	1	6
483.415	1	-4
483.756	1	1
484.097	1	10
484.437	1	9
484.778	1	1
485.119	1	-1
485.459	1	-1
485.800	1	-5
486.141	1	6
486.481	1	-4
486.822	1	8
487.163	1	4
487.503	1	2
487.844	1	-1
488.185	1	7
488.525	1	-4
488.866	1	-5
489.207	1	10
489.547	1	3
489.888	1	2
490.228	1	0
490.569	1	-6
490.910	1	5
491.250	1	1
491.591	1	3
491.932	1	3
492.272	1	-8
492.613	1	-1
492.953	1	-4
493.294	1	-9
493.635	1	6
493.975	1	13
494.316	1	2
494.656	1	4
494.997	1	-5
495.337	1	5
495.678	1	5
496.019	1	2
496.359	1	-6
496.700	1	2
497.040	1	0
497.381	1	2
497.721	1	2
498.062	1	-3
498.403	1	9
498.743	1	5
499.084	1	0
499.424	1	2
499.765	1	-3
500.105	1	9
500.446	1	-7
500.786	1	1
501.127	1	7
501.467	1	4
501.808	1	-7
502.148	1	-6
502.489	1	10
502.829	1	-11
503.170	1	5
503.510	1	1
503.851	1	11
504.191	1	-2
504.532	1	10
504.872	1	-3
505.213	1	-5
505.553	1	1
505.894	1	11
506.234	1	5
506.575	1	6
506.915	1	9
507.256	1	3
507.596	1	14
507.936	1	12
508.277	1	1
508.617	1	3
508.958	1	5
509.298	1	-6
509.639	1	-8
509.979	1	-1
510.319	1	5
510.660	1	-4
511.000	1	3
511.341	1	10
511.681	1	7
512.022	1	1
512.362	1	6
512.702	1	-5
513.043	1	10
513.383	1	1
513.724	1	2
514.064	1	7
514.404	1	7
514.745	1	-4
515.085	1	11
515.425	1	1
515.766	1	3
516.106	1	-4
516.447	1	14
516.787	1	2
517.127	1	9
517.468	1	4
517.808	1	-2
518.148	1	16
518.489	1	5
518.829	1	5
519.169	1	-3
519.510	1	-7
519.850	1	2
520.190	1	-1
520.531	1	12
520.871	1	9
521.211	1	-1
521.552	1	-4
521.892	1	-4
522.232	1	11
522.573	1	3
522.913	1	3
523.253	1	17
523.593	1	12
523.934	1	-5
524.274	1	5
524.614	1	4
524.955	1	0
525.295	1	10
525.635	1	-3
525.975	1	-6
526.316	1	-10
526.656	1	9
526.996	1	-5
527.337	1	11
527.677	1	9
528.017	1	-4
528.357	1	4
528.698	1	11
529.038	1	5
529.378	1	6
529.718	1	4
530.058	1	6
530.399	1	0
530.739	1	12
531.079	1	0
531.419	1	-7
531.760	1	7
532.100	1	10
532.440	1	4
532.780	1	2
533.120	1	1
533.461	1	-7
533.801	1	5
534.141	1	8
534.481	1	10
534.821	1	8
535.162	1	9
535.502	1	1
535.842	1	-3
536.182	1	3
536.522	1	-1
536.862	1	-7
537.203	1	7
537.543	1	7
537.883	1	2
538.223	1	12
538.563	1	3
538.903	1	-6
539.243	1	2
539.584	1	1
539.924	1	-5
540.264	1	8
540.604	1	6
540.944	1	1
541.284	1	2
541.624	1	-4
541.964	1	-2
542.305	1	11
542.645	1	-3
542.985	1	2
543.325	1	1
543.665	1	4
544.005	1	1
544.345	1	-1
544.685	1	-16
545.025	1	5
545.365	1	7
545.705	1	6
546.045	1	5
546.386	1	3
546.726	1	-1
547.066	1	9
547.406	1	-5
547.746	1	-8
548.086	1	7
548.426	1	5
548.766	1	0
549.106	1	2
549.446	1	-3
549.786	1	5
550.126	1	9
550.466	1	3
550.806	1	8
551.146	1	8
551.486	1	2
551.826	1	-3
552.166	1	3
552.506	1	0
552.846	1	4
553.186	1	-4
553.526	1	1
553.866	1	7
554.206	1	2
554.546	1	8
554.886	1	1
555.226	1	8
555.566	1	3
555.906	1	0
556.246	1	4
556.586	1	12
556.926	1	-1
557.266	1	7
557.606	1	-14
557.946	1	2
558.286	1	-4
558.626	1	9
558.966	1	7
559.306	1	2
559.646	1	12
559.986	1	4
560.325	1	0
560.665	1	2
561.005	1	-2
561.345	1	4
561.685	1	3
562.025	1	10
562.365	1	6
562.705	1	7
563.045	1	7
563.385	1	7
563.725	1	-5
564.064	1	-8
564.404	1	-4
564.744	1	9
565.084	1	3
565.424	1	-3
565.764	1	-2
566.104	1	13
566.444	1	6
566.783	1	4
567.123	1	2
567.463	1	17
567.803	1	3
568.143	1	7
568.483	1	13
568.823	1	-4
569.162	1	1
569.502	1	-4
569.842	1	-4
570.182	1	2
570.522	1	-2
570.862	1	-4
571.201	1	10
571.541	1	-3
571.881	1	1
572.221	1	7
572.561	1	14
572.900	1	14
573.240	1	-4
573.580	1	11
573.920	1	11
574.260	1	6
574.599	1	10
574.939	1	10
575.279	1	3
575.619	1	-6
575.959	1	-3
576.298	1	-8
576.638	1	9
576.978	1	5
577.318	1	-1
577.657	1	0
577.997	1	2
578.337	1	2
578.677	1	0
579.016	1	8
579.356	1	2
579.696	1	0
580.036	1	0
580.375	1	7
580.715	1	-5
581.055	1	2
581.394	1	-5
581.734	1	12
582.074	1	3
582.414	1	2
582.753	1	-2
583.093	1	-2
583.433	1	7
583.772	1	-1
584.112	1	2
584.452	1	-3
584.791	1	-1
585.131	1	6
585.471	1	1
585.811	1	-1
586.150	1	-3
586.490	1	0
586.830	1	-4
587.169	1	-5
587.509	1	3
587.849	1	9
588.188	1	10
588.528	1	0
588.867	1	1
589.207	1	-4
589.547	1	1
589.886	1	7
590.226	1	6
590.566	1	-2
590.905	1	-7
591.245	1	-9
591.585	1	-8
591.924	1	2
592.264	1	-1
592.603	1	-6
592.943	1	5
593.283	1	5
593.622	1	-1
593.962	1	4
594.301	1	6
594.641	1	-5
594.981	1	5
595.320	1	5
595.660	1	14
595.999	1	1
596.339	1	-1
596.678	1	-13
597.018	1	-4
597.358	1	4
597.697	1	-5
598.037	1	-3
598.376	1	-5
598.716	1	2
599.055	1	11
599.395	1	1
599.734	1	-2
600.074	1	-8
600.413	1	0
600.753	1	7
601.092	1	-7
601.432	1	-3
601.771	1	3
602.111	1	1
602.451	1	-3
602.790	1	4
603.130	1	7
603.469	1	5
603.809	1	7
604.148	1	3
604.487	1	5
604.827	1	7
605.166	1	-6
605.506	1	1
605.845	1	9
606.185	1	-8
606.524	1	3
606.864	1	17
607.203	1	14
607.543	1	-2
607.882	1	9
608.222	1	-7
608.561	1	7
608.901	1	-1
609.240	1	6
609.579	1	-2
609.919	1	2
610.258	1	14
610.598	1	-10
610.937	1	-7
611.277	1	2
611.616	1	15
611.955	1	-3
612.295	1	11
612.634	1	1
612.974	1	-10
613.313	1	2
613.652	1	11
613.992	1	4
614.331	1	22
614.671	1	-1
615.010	1	7
615.349	1	-3
615.689	1	-7
616.028	1	9
616.368	1	13
616.707	1	2
617.046	1	-2
617.386	1	6
617.725	1	-5
618.064	1	-2
618.404	1	-1
618.743	1	1
619.082	1	11
619.422	1	16
619.761	1	-5
620.100	1	-2
620.440	1	3
620.779	1	9
621.118	1	12
621.458	1	-2
621.797	1	11
622.136	1	-3
622.476	1	1
622.815	1	-3
623.154	1	-2
623.494	1	-2
623.833	1	-6
624.172	1	6
624.511	1	-9
624.851	1	8
625.190	1	6
625.529	1	1
625.869	1	12
626.208	1	-5
626.547	1	-2
626.886	1	-3
627.226	1	4
627.565	1	8
627.904	1	-5
628.243	1	11
628.583	1	3
628.922	1	11
629.261	1	4
629.600	1	5
629.940	1	3
630.279	1	20
630.618	1	9
630.957	1	1
631.297	1	15
631.636	1	-2
631.975	1	0
632.314	1	1
632.653	1	-7
632.993	1	-2
633.332	1	-8
633.671	1	12
634.010	1	-7
634.349	1	14
634.689	1	-5
635.028	1	-1
635.367	1	4
635.706	1	2
636.045	1	-3
636.384	1	11
636.724	1	4
637.063	1	-3
637.402	1	-1
637.741	1	-3
638.080	1	10
638.419	1	5
638.759	1	-2
639.098	1	5
639.437	1	7
639.776	1	8
640.115	1	-2
640.454	1	0
640.793	1	-4
641.132	1	-3
641.472	1	-1
641.811	1	-3
642.150	1	-3
642.489	1	5
642.828	1	7
643.167	1	-1
643.506	1	-3
643.845	1	8
644.184	1	14
644.524	1	-3
644.863	1	-2
645.202	1	1
645.541	1	6
645.880	1	7
646.219	1	-1
646.558	1	-7
646.897	1	-1
647.236	1	-10
647.575	1	6
647.914	1	-4
648.253	1	12
648.592	1	8
648.931	1	14
649.270	1	1
649.610	1	5
649.949	1	-8
650.288	1	2
650.627	1	1
650.966	1	5
651.305	1	-1
651.644	1	7
651.983	1	-3
652.322	1	3
652.661	1	5
653.000	1	-2
653.339	1	-2
653.678	1	9
654.017	1	12
654.356	1	8
654.695	1	15
655.034	1	0
655.373	1	2
655.712	1	7
656.051	1	-12
656.390	1	-2
656.729	1	9
657.068	1	-6
657.406	1	1
657.745	1	3
658.084	1	2
658.423	1	3
658.762	1	-4
659.101	1	-1
659.440	1	1
659.779	1	0
660.118	1	7
660.457	1	1
660.796	1	4
661.135	1	12
661.474	1	2
661.813	1	-1
662.152	1	-5
662.491	1	9
662.829	1	5
663.168	1	3
663.507	1	1
663.846	1	1
664.185	1	-1
664.524	1	10
664.863	1	-9
665.202	1	0
665.541	1	2
665.879	1	5
666.218	1	5
666.557	1	4
666.896	1	1
667.235	1	-2
667.574	1	0
667.913	1	0
668.251	1	-9
668.590	1	-7
668.929	1	-6
669.268	1	-7
669.607	1	-10
669.946	1	0
670.285	1	7
670.623	1	7
670.962	1	1
671.301	1	2
671.640	1	7
671.979	1	9
672.317	1	3
672.656	1	4
672.995	1	-1
673.334	1	-6
673.673	1	12
674.011	1	0
674.350	1	2
674.689	1	-8
675.028	1	4
675.367	1	6
675.705	1	-4
676.044	1	6
676.383	1	-6
676.722	1	1
677.060	1	0
677.399	1	9
677.738	1	-3
678.077	1	3
678.416	1	-4
678.754	1	5
679.093	1	11
679.432	1	-4
679.771	1	0
680.109	1	8
680.448	1	2
680.787	1	-2
681.125	1	-2
681.464	1	-2
681.803	1	-3
682.142	1	2
682.480	1	-3
682.819	1	2
683.158	1	3
683.496	1	-4
683.835	1	5
684.174	1	-3
684.512	1	1
684.851	1	-2
685.190	1	1
685.529	1	-5
685.867	1	-2
686.206	1	-5
686.545	1	-2
686.883	1	6
687.222	1	-2
687.561	1	1
687.899	1	1
688.238	1	6
688.577	1	-6
688.746	1	6