File: Data/GaN_150K_450ms/GaN_sample D_spot15_UVVIS_150 K_200um_450 ms 2x2mm1_56.txt
340.368	1	-2
340.710	1	-1
341.052	1	7
341.394	1	-1
341.737	1	10
342.079	1	1
342.421	1	-1
342.763	1	5
343.105	1	12
343.447	1	6
343.789	1	7
344.131	1	-7
344.473	1	3
344.815	1	8
345.157	1	11
345.499	1	1
345.841	1	2
346.183	1	1
346.526	1	17
346.868	1	9
347.210	1	6
347.552	1	21
347.894	1	-2
348.236	1	13
348.578	1	12
348.920	1	13
349.262	1	6
349.604	1	8
349.946	1	10
350.288	1	3
350.630	1	0
350.972	1	10
351.314	1	8
351.656	1	21
351.998	1	14
352.340	1	29
352.682	1	11
353.024	1	15
353.366	1	17
353.708	1	22
354.050	1	11
354.392	1	3
354.734	1	19
355.076	1	21
355.418	1	25
355.760	1	25
356.102	1	16
356.444	1	32
356.785	1	30
357.127	1	38
357.469	1	36
357.811	1	26
358.153	1	26
358.495	1	37
358.837	1	47
359.179	1	43
359.521	1	54
359.863	1	51
360.205	1	74
360.547	1	73
360.889	1	70
361.231	1	93
361.572	1	107
361.914	1	118
362.256	1	120
362.598	1	136
362.940	1	168
363.282	1	174
363.624	1	216
363.966	1	227
364.308	1	267
364.649	1	299
364.991	1	342
365.333	1	389
365.675	1	448
366.017	1	498
366.359	1	550
366.701	1	567
367.042	1	620
367.384	1	636
367.726	1	649
368.068	1	697
368.410	1	677
368.752	1	664
369.093	1	666
369.435	1	615
369.777	1	604
370.119	1	569
370.461	1	518
370.803	1	492
371.144	1	427
371.486	1	430
371.828	1	366
372.170	1	352
372.512	1	334
372.853	1	328
373.195	1	320
373.537	1	289
373.879	1	279
374.220	1	257
374.562	1	250
374.904	1	216
375.246	1	208
375.588	1	196
375.929	1	196
376.271	1	183
376.613	1	163
376.955	1	158
377.296	1	165
377.638	1	138
377.980	1	138
378.321	1	134
378.663	1	123
379.005	1	113
379.347	1	103
379.688	1	125
380.030	1	104
380.372	1	100
380.714	1	98
381.055	1	93
381.397	1	94
381.739	1	86
382.080	1	85
382.422	1	92
382.764	1	87
383.105	1	82
383.447	1	88
383.789	1	85
384.130	1	92
384.472	1	81
384.814	1	83
385.156	1	99
385.497	1	79
385.839	1	77
386.180	1	76
386.522	1	89
386.864	1	73
387.205	1	67
387.547	1	83
387.889	1	62
388.230	1	58
388.572	1	64
388.914	1	63
389.255	1	63
389.597	1	53
389.939	1	64
390.280	1	62
390.622	1	67
390.963	1	50
391.305	1	52
391.647	1	58
391.988	1	51
392.330	1	52
392.671	1	63
393.013	1	46
393.355	1	56
393.696	1	48
394.038	1	50
394.379	1	53
394.721	1	41
395.062	1	44
395.404	1	50
395.746	1	41
396.087	1	54
396.429	1	55
396.770	1	51
397.112	1	41
397.453	1	42
397.795	1	46
398.136	1	54
398.478	1	51
398.819	1	51
399.161	1	51
399.503	1	42
399.844	1	33
400.186	1	38
400.527	1	46
400.869	1	39
401.210	1	40
401.552	1	41
401.893	1	36
402.235	1	46
402.576	1	36
402.918	1	34
403.259	1	40
403.601	1	42
403.942	1	31
404.284	1	40
404.625	1	24
404.967	1	38
405.308	1	22
405.649	1	29
405.991	1	42
406.332	1	43
406.674	1	35
407.015	1	31
407.357	1	36
407.698	1	35
408.040	1	41
408.381	1	28
408.722	1	31
409.064	1	39
409.405	1	28
409.747	1	28
410.088	1	43
410.430	1	39
410.771	1	46
411.112	1	32
411.454	1	35
411.795	1	32
412.137	1	33
412.478	1	24
412.819	1	33
413.161	1	24
413.502	1	37
413.844	1	37
414.185	1	27
414.526	1	25
414.868	1	18
415.209	1	27
415.550	1	35
415.892	1	24
416.233	1	27
416.575	1	25
416.916	1	26
417.257	1	20
417.599	1	27
417.940	1	13
418.281	1	25
418.623	1	28
418.964	1	36
419.305	1	31
419.647	1	38
419.988	1	45
420.329	1	30
420.671	1	26
421.012	1	19
421.353	1	39
421.695	1	32
422.036	1	31
422.377	1	25
422.718	1	38
423.060	1	23
423.401	1	23
423.742	1	24
424.084	1	16
424.425	1	33
424.766	1	23
425.107	1	25
425.449	1	8
425.790	1	11
426.131	1	10
426.472	1	34
426.814	1	18
427.155	1	9
427.496	1	29
427.837	1	13
428.179	1	24
428.520	1	28
428.861	1	34
429.202	1	11
429.544	1	18
429.885	1	35
430.226	1	11
430.567	1	10
430.909	1	14
431.250	1	34
431.591	1	20
431.932	1	17
432.273	1	26
432.615	1	20
432.956	1	26
433.297	1	17
433.638	1	14
433.979	1	23
434.320	1	16
434.662	1	13
435.003	1	33
435.344	1	14
435.685	1	10
436.026	1	12
436.368	1	16
436.709	1	8
437.050	1	13
437.391	1	14
437.732	1	20
438.073	1	16
438.414	1	26
438.756	1	22
439.097	1	25
439.438	1	21
439.779	1	19
440.120	1	16
440.461	1	21
440.802	1	19
441.143	1	21
441.485	1	19
441.826	1	7
442.167	1	23
442.508	1	18
442.849	1	12
443.190	1	18
443.531	1	23
443.872	1	15
444.213	1	8
444.554	1	23
444.895	1	16
445.237	1	21
445.578	1	7
445.919	1	20
446.260	1	22
446.601	1	13
446.942	1	8
447.283	1	14
447.624	1	13
447.965	1	18
448.306	1	12
448.647	1	6
448.988	1	15
449.329	1	22
449.670	1	15
450.011	1	9
450.352	1	18
450.693	1	24
451.034	1	19
451.375	1	7
451.716	1	14
452.057	1	17
452.398	1	22
452.739	1	13
453.080	1	20
453.421	1	26
453.762	1	28
454.103	1	15
454.444	1	16
454.785	1	9
455.126	1	9
455.467	1	20
455.808	1	21
456.149	1	8
456.490	1	13
456.831	1	20
457.172	1	20
457.513	1	14
457.854	1	14
458.195	1	16
458.536	1	14
458.877	1	17
459.218	1	20
459.559	1	15
459.899	1	9
460.240	1	13
460.581	1	9
460.922	1	17
461.263	1	22
461.604	1	19
461.945	1	24
462.286	1	23
462.627	1	18
462.968	1	13
463.309	1	9
463.649	1	10
463.990	1	21
464.331	1	12
464.672	1	17
465.013	1	20
465.354	1	17
465.695	1	22
466.036	1	27
466.376	1	21
466.717	1	2
467.058	1	17
467.399	1	18
467.740	1	26
468.081	1	15
468.422	1	15
468.762	1	22
469.103	1	14
469.444	1	20
469.785	1	14
470.126	1	17
470.467	1	10
470.807	1	23
471.148	1	6
471.489	1	22
471.830	1	11
472.171	1	25
472.511	1	24
472.852	1	25
473.193	1	19
473.534	1	26
473.875	1	18
474.215	1	17
474.556	1	12
474.897	1	12
475.238	1	19
475.578	1	17
475.919	1	21
476.260	1	21
476.601	1	14
476.942	1	13
477.282	1	11
477.623	1	30
477.964	1	29
478.305	1	20
478.645	1	25
478.986	1	27
479.327	1	19
479.667	1	21
480.008	1	16
480.349	1	25
480.690	1	23
481.030	1	22
481.371	1	17
481.712	1	30
482.053	1	28
482.393	1	32
482.734	1	20
483.075	1	18
483.415	1	39
483.756	1	27
484.097	1	41
484.437	1	33
484.778	1	13
485.119	1	29
485.459	1	34
485.800	1	23
486.141	1	32
486.481	1	21
486.822	1	47
487.163	1	30
487.503	1	38
487.844	1	34
488.185	1	45
488.525	1	40
488.866	1	29
489.207	1	39
489.547	1	37
489.888	1	48
490.228	1	37
490.569	1	39
490.910	1	48
491.250	1	49
491.591	1	46
491.932	1	48
492.272	1	37
492.613	1	39
492.953	1	56
493.294	1	43
493.635	1	48
493.975	1	54
494.316	1	43
494.656	1	51
494.997	1	45
495.337	1	52
495.678	1	50
496.019	1	54
496.359	1	53
496.700	1	44
497.040	1	47
497.381	1	58
497.721	1	59
498.062	1	60
498.403	1	68
498.743	1	59
499.084	1	66
499.424	1	58
499.765	1	65
500.105	1	74
500.446	1	68
500.786	1	64
501.127	1	68
501.467	1	73
501.808	1	71
502.148	1	65
502.489	1	70
502.829	1	66
503.170	1	76
503.510	1	85
503.851	1	96
504.191	1	83
504.532	1	93
504.872	1	82
505.213	1	75
505.553	1	85
505.894	1	90
506.234	1	105
506.575	1	107
506.915	1	87
507.256	1	100
507.596	1	99
507.936	1	102
508.277	1	107
508.617	1	103
508.958	1	98
509.298	1	97
509.639	1	93
509.979	1	99
510.319	1	97
510.660	1	94
511.000	1	106
511.341	1	107
511.681	1	102
512.022	1	87
512.362	1	109
512.702	1	94
513.043	1	101
513.383	1	105
513.724	1	103
514.064	1	111
514.404	1	111
514.745	1	118
515.085	1	118
515.425	1	119
515.766	1	111
516.106	1	113
516.447	1	120
516.787	1	119
517.127	1	112
517.468	1	130
517.808	1	108
518.148	1	126
518.489	1	120
518.829	1	137
519.169	1	121
519.510	1	119
519.850	1	132
520.190	1	121
520.531	1	124
520.871	1	142
521.211	1	126
521.552	1	117
521.892	1	129
522.232	1	130
522.573	1	121
522.913	1	133
523.253	1	133
523.593	1	134
523.934	1	127
524.274	1	134
524.614	1	136
524.955	1	131
525.295	1	140
525.635	1	139
525.975	1	137
526.316	1	132
526.656	1	143
526.996	1	140
527.337	1	142
527.677	1	156
528.017	1	134
528.357	1	138
528.698	1	142
529.038	1	144
529.378	1	133
529.718	1	150
530.058	1	140
530.399	1	144
530.739	1	136
531.079	1	141
531.419	1	145
531.760	1	163
532.100	1	160
532.440	1	143
532.780	1	147
533.120	1	134
533.461	1	132
533.801	1	144
534.141	1	142
534.481	1	154
534.821	1	133
535.162	1	136
535.502	1	133
535.842	1	117
536.182	1	130
536.522	1	126
536.862	1	128
537.203	1	123
537.543	1	129
537.883	1	126
538.223	1	133
538.563	1	108
538.903	1	121
539.243	1	129
539.584	1	112
539.924	1	118
540.264	1	134
540.604	1	131
540.944	1	126
541.284	1	128
541.624	1	123
541.964	1	122
542.305	1	135
542.645	1	118
542.985	1	116
543.325	1	131
543.665	1	122
544.005	1	118
544.345	1	125
544.685	1	116
545.025	1	133
545.365	1	123
545.705	1	128
546.045	1	131
546.386	1	114
546.726	1	133
547.066	1	129
547.406	1	121
547.746	1	126
548.086	1	115
548.426	1	135
548.766	1	116
549.106	1	116
549.446	1	123
549.786	1	127
550.126	1	122
550.466	1	123
550.806	1	127
551.146	1	116
551.486	1	128
551.826	1	107
552.166	1	106
552.506	1	113
552.846	1	109
553.186	1	104
553.526	1	122
553.866	1	105
554.206	1	112
554.546	1	109
554.886	1	109
555.226	1	113
555.566	1	115
555.906	1	110
556.246	1	96
556.586	1	90
556.926	1	105
557.266	1	113
557.606	1	92
557.946	1	99
558.286	1	74
558.626	1	103
558.966	1	90
559.306	1	96
559.646	1	90
559.986	1	87
560.325	1	89
560.665	1	87
561.005	1	94
561.345	1	96
561.685	1	84
562.025	1	92
562.365	1	93
562.705	1	93
563.045	1	99
563.385	1	98
563.725	1	75
564.064	1	91
564.404	1	81
564.744	1	93
565.084	1	89
565.424	1	81
565.764	1	86
566.104	1	86
566.444	1	91
566.783	1	80
567.123	1	73
567.463	1	90
567.803	1	80
568.143	1	81
568.483	1	96
568.823	1	79
569.162	1	72
569.502	1	82
569.842	1	68
570.182	1	72
570.522	1	74
570.862	1	66
571.201	1	70
571.541	1	72
571.881	1	77
572.221	1	75
572.561	1	78
572.900	1	88
573.240	1	74
573.580	1	74
573.920	1	69
574.260	1	71
574.599	1	86
574.939	1	76
575.279	1	71
575.619	1	55
575.959	1	60
576.298	1	55
576.638	1	72
576.978	1	78
577.318	1	64
577.657	1	61
577.997	1	73
578.337	1	70
578.677	1	67
579.016	1	66
579.356	1	69
579.696	1	72
580.036	1	64
580.375	1	68
580.715	1	65
581.055	1	67
581.394	1	61
581.734	1	63
582.074	1	55
582.414	1	49
582.753	1	61
583.093	1	64
583.433	1	66
583.772	1	61
584.112	1	72
584.452	1	57
584.791	1	67
585.131	1	57
585.471	1	62
585.811	1	60
586.150	1	67
586.490	1	48
586.830	1	48
587.169	1	56
587.509	1	59
587.849	1	59
588.188	1	50
588.528	1	45
588.867	1	54
589.207	1	56
589.547	1	51
589.886	1	44
590.226	1	57
590.566	1	42
590.905	1	51
591.245	1	46
591.585	1	43
591.924	1	49
592.264	1	47
592.603	1	41
592.943	1	43
593.283	1	45
593.622	1	42
593.962	1	47
594.301	1	42
594.641	1	46
594.981	1	47
595.320	1	48
595.660	1	38
595.999	1	43
596.339	1	52
596.678	1	38
597.018	1	39
597.358	1	39
597.697	1	34
598.037	1	30
598.376	1	29
598.716	1	44
599.055	1	47
599.395	1	40
599.734	1	48
600.074	1	48
600.413	1	48
600.753	1	51
601.092	1	31
601.432	1	36
601.771	1	44
602.111	1	41
602.451	1	41
602.790	1	43
603.130	1	40
603.469	1	49
603.809	1	45
604.148	1	32
604.487	1	46
604.827	1	43
605.166	1	48
605.506	1	37
605.845	1	47
606.185	1	37
606.524	1	36
606.864	1	57
607.203	1	54
607.543	1	47
607.882	1	42
608.222	1	44
608.561	1	40
608.901	1	43
609.240	1	45
609.579	1	38
609.919	1	32
610.258	1	55
610.598	1	31
610.937	1	32
611.277	1	40
611.616	1	41
611.955	1	39
612.295	1	41
612.634	1	40
612.974	1	35
613.313	1	35
613.652	1	38
613.992	1	31
614.331	1	48
614.671	1	33
615.010	1	41
615.349	1	36
615.689	1	21
616.028	1	52
616.368	1	37
616.707	1	35
617.046	1	27
617.386	1	35
617.725	1	32
618.064	1	23
618.404	1	27
618.743	1	28
619.082	1	41
619.422	1	36
619.761	1	30
620.100	1	30
620.440	1	35
620.779	1	35
621.118	1	40
621.458	1	28
621.797	1	33
622.136	1	30
622.476	1	37
622.815	1	29
623.154	1	21
623.494	1	9
623.833	1	29
624.172	1	35
624.511	1	13
624.851	1	32
625.190	1	33
625.529	1	28
625.869	1	45
626.208	1	24
626.547	1	36
626.886	1	32
627.226	1	46
627.565	1	28
627.904	1	30
628.243	1	40
628.583	1	31
628.922	1	38
629.261	1	21
629.600	1	34
629.940	1	38
630.279	1	28
630.618	1	35
630.957	1	30
631.297	1	31
631.636	1	30
631.975	1	36
632.314	1	33
632.653	1	22
632.993	1	27
633.332	1	29
633.671	1	37
634.010	1	32
634.349	1	33
634.689	1	28
635.028	1	12
635.367	1	31
635.706	1	27
636.045	1	20
636.384	1	33
636.724	1	22
637.063	1	21
637.402	1	25
637.741	1	31
638.080	1	23
638.419	1	15
638.759	1	25
639.098	1	23
639.437	1	30
639.776	1	22
640.115	1	20
640.454	1	16
640.793	1	20
641.132	1	34
641.472	1	38
641.811	1	17
642.150	1	23
642.489	1	35
642.828	1	28
643.167	1	21
643.506	1	19
643.845	1	23
644.184	1	40
644.524	1	10
644.863	1	23
645.202	1	30
645.541	1	20
645.880	1	31
646.219	1	25
646.558	1	7
646.897	1	9
647.236	1	14
647.575	1	31
647.914	1	24
648.253	1	29
648.592	1	33
648.931	1	24
649.270	1	26
649.610	1	27
649.949	1	21
650.288	1	19
650.627	1	12
650.966	1	31
651.305	1	29
651.644	1	34
651.983	1	21
652.322	1	10
652.661	1	23
653.000	1	20
653.339	1	17
653.678	1	21
654.017	1	31
654.356	1	20
654.695	1	31
655.034	1	22
655.373	1	22
655.712	1	27
656.051	1	8
656.390	1	20
656.729	1	20
657.068	1	21
657.406	1	17
657.745	1	24
658.084	1	18
658.423	1	24
658.762	1	12
659.101	1	16
659.440	1	26
659.779	1	28
660.118	1	20
660.457	1	15
660.796	1	20
661.135	1	29
661.474	1	30
661.813	1	18
662.152	1	14
662.491	1	5
662.829	1	21
663.168	1	10
663.507	1	23
663.846	1	18
664.185	1	10
664.524	1	25
664.863	1	23
665.202	1	16
665.541	1	23
665.879	1	20
666.218	1	26
666.557	1	17
666.896	1	21
667.235	1	8
667.574	1	23
667.913	1	14
668.251	1	5
668.590	1	16
668.929	1	20
669.268	1	12
669.607	1	13
669.946	1	18
670.285	1	14
670.623	1	29
670.962	1	12
671.301	1	14
671.640	1	25
671.979	1	23
672.317	1	16
672.656	1	23
672.995	1	21
673.334	1	22
673.673	1	29
674.011	1	28
674.350	1	14
674.689	1	9
675.028	1	24
675.367	1	19
675.705	1	12
676.044	1	24
676.383	1	17
676.722	1	17
677.060	1	31
677.399	1	34
677.738	1	18
678.077	1	14
678.416	1	12
678.754	1	19
679.093	1	34
679.432	1	13
679.771	1	23
680.109	1	19
680.448	1	19
680.787	1	1
681.125	1	18
681.464	1	17
681.803	1	14
682.142	1	15
682.480	1	14
682.819	1	13
683.158	1	12
683.496	1	6
683.835	1	20
684.174	1	16
684.512	1	13
684.851	1	13
685.190	1	14
685.529	1	10
685.867	1	13
686.206	1	11
686.545	1	18
686.883	1	20
687.222	1	10
687.561	1	17
687.899	1	29
688.238	1	33
688.577	1	24
688.746	1	14