File: Data/GaN_150K_450ms/GaN_sample D_spot15_UVVIS_150 K_200um_450 ms 2x2mm1_259.txt
340.368	1	3
340.710	1	5
341.052	1	7
341.394	1	-5
341.737	1	9
342.079	1	9
342.421	1	4
342.763	1	-7
343.105	1	6
343.447	1	-3
343.789	1	10
344.131	1	-15
344.473	1	-4
344.815	1	5
345.157	1	17
345.499	1	2
345.841	1	8
346.183	1	5
346.526	1	9
346.868	1	-5
347.210	1	-2
347.552	1	15
347.894	1	5
348.236	1	-3
348.578	1	-1
348.920	1	9
349.262	1	-4
349.604	1	-5
349.946	1	-3
350.288	1	-10
350.630	1	-9
350.972	1	11
351.314	1	-2
351.656	1	3
351.998	1	5
352.340	1	11
352.682	1	-6
353.024	1	11
353.366	1	3
353.708	1	0
354.050	1	-7
354.392	1	-8
354.734	1	-8
355.076	1	12
355.418	1	8
355.760	1	10
356.102	1	-1
356.444	1	12
356.785	1	2
357.127	1	8
357.469	1	10
357.811	1	9
358.153	1	-2
358.495	1	6
358.837	1	12
359.179	1	2
359.521	1	12
359.863	1	-4
360.205	1	15
360.547	1	14
360.889	1	6
361.231	1	3
361.572	1	9
361.914	1	7
362.256	1	7
362.598	1	12
362.940	1	12
363.282	1	-9
363.624	1	9
363.966	1	2
364.308	1	13
364.649	1	3
364.991	1	6
365.333	1	6
365.675	1	13
366.017	1	18
366.359	1	9
366.701	1	14
367.042	1	20
367.384	1	15
367.726	1	7
368.068	1	23
368.410	1	6
368.752	1	22
369.093	1	21
369.435	1	20
369.777	1	25
370.119	1	13
370.461	1	10
370.803	1	20
371.144	1	17
371.486	1	23
371.828	1	15
372.170	1	9
372.512	1	4
372.853	1	23
373.195	1	9
373.537	1	-7
373.879	1	6
374.220	1	7
374.562	1	23
374.904	1	12
375.246	1	5
375.588	1	-5
375.929	1	15
376.271	1	8
376.613	1	9
376.955	1	7
377.296	1	3
377.638	1	9
377.980	1	0
378.321	1	11
378.663	1	1
379.005	1	-1
379.347	1	3
379.688	1	12
380.030	1	9
380.372	1	6
380.714	1	6
381.055	1	3
381.397	1	8
381.739	1	-5
382.080	1	3
382.422	1	15
382.764	1	9
383.105	1	9
383.447	1	-2
383.789	1	3
384.130	1	4
384.472	1	3
384.814	1	11
385.156	1	-3
385.497	1	4
385.839	1	6
386.180	1	5
386.522	1	16
386.864	1	0
387.205	1	11
387.547	1	6
387.889	1	3
388.230	1	0
388.572	1	-5
388.914	1	6
389.255	1	0
389.597	1	0
389.939	1	13
390.280	1	-2
390.622	1	8
390.963	1	0
391.305	1	-1
391.647	1	3
391.988	1	8
392.330	1	5
392.671	1	9
393.013	1	-4
393.355	1	12
393.696	1	7
394.038	1	8
394.379	1	13
394.721	1	-1
395.062	1	-4
395.404	1	15
395.746	1	-1
396.087	1	16
396.429	1	7
396.770	1	9
397.112	1	7
397.453	1	0
397.795	1	2
398.136	1	5
398.478	1	0
398.819	1	6
399.161	1	9
399.503	1	6
399.844	1	5
400.186	1	2
400.527	1	10
400.869	1	5
401.210	1	1
401.552	1	2
401.893	1	6
402.235	1	8
402.576	1	1
402.918	1	-6
403.259	1	4
403.601	1	10
403.942	1	1
404.284	1	13
404.625	1	2
404.967	1	3
405.308	1	-8
405.649	1	8
405.991	1	1
406.332	1	10
406.674	1	5
407.015	1	4
407.357	1	8
407.698	1	8
408.040	1	16
408.381	1	-6
408.722	1	4
409.064	1	6
409.405	1	-2
409.747	1	5
410.088	1	4
410.430	1	7
410.771	1	2
411.112	1	3
411.454	1	1
411.795	1	6
412.137	1	-6
412.478	1	-3
412.819	1	7
413.161	1	4
413.502	1	-1
413.844	1	12
414.185	1	8
414.526	1	-7
414.868	1	5
415.209	1	-4
415.550	1	3
415.892	1	5
416.233	1	6
416.575	1	-12
416.916	1	1
417.257	1	-2
417.599	1	5
417.940	1	2
418.281	1	5
418.623	1	9
418.964	1	15
419.305	1	4
419.647	1	3
419.988	1	10
420.329	1	6
420.671	1	10
421.012	1	5
421.353	1	4
421.695	1	6
422.036	1	16
422.377	1	-2
422.718	1	18
423.060	1	5
423.401	1	0
423.742	1	5
424.084	1	2
424.425	1	9
424.766	1	-1
425.107	1	9
425.449	1	0
425.790	1	9
426.131	1	2
426.472	1	7
426.814	1	7
427.155	1	1
427.496	1	2
427.837	1	4
428.179	1	15
428.520	1	1
428.861	1	6
429.202	1	-8
429.544	1	3
429.885	1	-1
430.226	1	-2
430.567	1	-2
430.909	1	-4
431.250	1	3
431.591	1	2
431.932	1	6
432.273	1	7
432.615	1	-7
432.956	1	5
433.297	1	-3
433.638	1	12
433.979	1	-1
434.320	1	1
434.662	1	9
435.003	1	17
435.344	1	0
435.685	1	-4
436.026	1	2
436.368	1	1
436.709	1	-5
437.050	1	-5
437.391	1	6
437.732	1	8
438.073	1	-2
438.414	1	5
438.756	1	1
439.097	1	8
439.438	1	2
439.779	1	9
440.120	1	1
440.461	1	6
440.802	1	3
441.143	1	3
441.485	1	6
441.826	1	11
442.167	1	7
442.508	1	0
442.849	1	7
443.190	1	3
443.531	1	1
443.872	1	0
444.213	1	-13
444.554	1	1
444.895	1	-5
445.237	1	-1
445.578	1	-7
445.919	1	0
446.260	1	14
446.601	1	9
446.942	1	5
447.283	1	14
447.624	1	-8
447.965	1	7
448.306	1	10
448.647	1	2
448.988	1	0
449.329	1	5
449.670	1	4
450.011	1	6
450.352	1	-4
450.693	1	2
451.034	1	4
451.375	1	7
451.716	1	3
452.057	1	8
452.398	1	9
452.739	1	3
453.080	1	8
453.421	1	7
453.762	1	12
454.103	1	3
454.444	1	-3
454.785	1	6
455.126	1	5
455.467	1	6
455.808	1	7
456.149	1	6
456.490	1	-2
456.831	1	-5
457.172	1	8
457.513	1	1
457.854	1	0
458.195	1	-1
458.536	1	7
458.877	1	9
459.218	1	18
459.559	1	-1
459.899	1	5
460.240	1	-2
460.581	1	-11
460.922	1	4
461.263	1	8
461.604	1	5
461.945	1	14
462.286	1	1
462.627	1	2
462.968	1	7
463.309	1	-3
463.649	1	-10
463.990	1	-5
464.331	1	0
464.672	1	1
465.013	1	4
465.354	1	13
465.695	1	-5
466.036	1	6
466.376	1	14
466.717	1	-7
467.058	1	7
467.399	1	4
467.740	1	3
468.081	1	-1
468.422	1	4
468.762	1	9
469.103	1	2
469.444	1	2
469.785	1	-1
470.126	1	8
470.467	1	9
470.807	1	5
471.148	1	2
471.489	1	10
471.830	1	0
472.171	1	4
472.511	1	5
472.852	1	6
473.193	1	0
473.534	1	16
473.875	1	-3
474.215	1	9
474.556	1	-7
474.897	1	7
475.238	1	9
475.578	1	3
475.919	1	-1
476.260	1	-5
476.601	1	5
476.942	1	2
477.282	1	-10
477.623	1	3
477.964	1	0
478.305	1	5
478.645	1	6
478.986	1	7
479.327	1	6
479.667	1	-3
480.008	1	5
480.349	1	8
480.690	1	6
481.030	1	1
481.371	1	-5
481.712	1	12
482.053	1	18
482.393	1	3
482.734	1	7
483.075	1	5
483.415	1	1
483.756	1	9
484.097	1	13
484.437	1	6
484.778	1	2
485.119	1	0
485.459	1	0
485.800	1	-3
486.141	1	0
486.481	1	-8
486.822	1	10
487.163	1	-2
487.503	1	-2
487.844	1	0
488.185	1	12
488.525	1	-1
488.866	1	4
489.207	1	6
489.547	1	9
489.888	1	2
490.228	1	1
490.569	1	-3
490.910	1	-2
491.250	1	9
491.591	1	3
491.932	1	8
492.272	1	-4
492.613	1	2
492.953	1	2
493.294	1	-2
493.635	1	-5
493.975	1	11
494.316	1	4
494.656	1	6
494.997	1	-4
495.337	1	-4
495.678	1	3
496.019	1	-2
496.359	1	-3
496.700	1	9
497.040	1	-3
497.381	1	2
497.721	1	-7
498.062	1	1
498.403	1	-1
498.743	1	3
499.084	1	11
499.424	1	-2
499.765	1	17
500.105	1	12
500.446	1	-4
500.786	1	-3
501.127	1	9
501.467	1	8
501.808	1	5
502.148	1	-7
502.489	1	-3
502.829	1	-1
503.170	1	1
503.510	1	1
503.851	1	6
504.191	1	2
504.532	1	11
504.872	1	3
505.213	1	3
505.553	1	-4
505.894	1	12
506.234	1	4
506.575	1	15
506.915	1	6
507.256	1	4
507.596	1	15
507.936	1	18
508.277	1	3
508.617	1	0
508.958	1	0
509.298	1	-8
509.639	1	-3
509.979	1	-4
510.319	1	4
510.660	1	1
511.000	1	-2
511.341	1	15
511.681	1	0
512.022	1	-12
512.362	1	12
512.702	1	-4
513.043	1	4
513.383	1	1
513.724	1	8
514.064	1	10
514.404	1	17
514.745	1	-4
515.085	1	5
515.425	1	7
515.766	1	4
516.106	1	0
516.447	1	17
516.787	1	3
517.127	1	7
517.468	1	10
517.808	1	-7
518.148	1	11
518.489	1	-3
518.829	1	6
519.169	1	-5
519.510	1	3
519.850	1	6
520.190	1	-3
520.531	1	-3
520.871	1	2
521.211	1	11
521.552	1	3
521.892	1	5
522.232	1	6
522.573	1	4
522.913	1	11
523.253	1	3
523.593	1	19
523.934	1	-1
524.274	1	-2
524.614	1	0
524.955	1	3
525.295	1	2
525.635	1	11
525.975	1	-2
526.316	1	-2
526.656	1	3
526.996	1	-3
527.337	1	12
527.677	1	12
528.017	1	-3
528.357	1	2
528.698	1	9
529.038	1	2
529.378	1	0
529.718	1	-7
530.058	1	-4
530.399	1	1
530.739	1	6
531.079	1	7
531.419	1	12
531.760	1	12
532.100	1	16
532.440	1	3
532.780	1	0
533.120	1	-1
533.461	1	-6
533.801	1	-1
534.141	1	5
534.481	1	17
534.821	1	5
535.162	1	10
535.502	1	8
535.842	1	-3
536.182	1	-2
536.522	1	-2
536.862	1	0
537.203	1	0
537.543	1	-1
537.883	1	10
538.223	1	7
538.563	1	-7
538.903	1	-2
539.243	1	8
539.584	1	11
539.924	1	-1
540.264	1	14
540.604	1	8
540.944	1	11
541.284	1	4
541.624	1	6
541.964	1	8
542.305	1	9
542.645	1	-3
542.985	1	-2
543.325	1	4
543.665	1	-7
544.005	1	9
544.345	1	6
544.685	1	3
545.025	1	3
545.365	1	4
545.705	1	6
546.045	1	3
546.386	1	7
546.726	1	-1
547.066	1	-3
547.406	1	-3
547.746	1	-5
548.086	1	3
548.426	1	6
548.766	1	7
549.106	1	1
549.446	1	7
549.786	1	12
550.126	1	7
550.466	1	9
550.806	1	8
551.146	1	-8
551.486	1	-1
551.826	1	-5
552.166	1	8
552.506	1	2
552.846	1	7
553.186	1	1
553.526	1	1
553.866	1	-3
554.206	1	4
554.546	1	9
554.886	1	-3
555.226	1	14
555.566	1	7
555.906	1	-5
556.246	1	1
556.586	1	-4
556.926	1	-2
557.266	1	11
557.606	1	-5
557.946	1	-2
558.286	1	-3
558.626	1	12
558.966	1	4
559.306	1	6
559.646	1	1
559.986	1	5
560.325	1	2
560.665	1	3
561.005	1	-1
561.345	1	4
561.685	1	3
562.025	1	7
562.365	1	-6
562.705	1	2
563.045	1	10
563.385	1	4
563.725	1	-2
564.064	1	-2
564.404	1	1
564.744	1	8
565.084	1	10
565.424	1	5
565.764	1	2
566.104	1	9
566.444	1	8
566.783	1	10
567.123	1	4
567.463	1	4
567.803	1	4
568.143	1	1
568.483	1	11
568.823	1	-2
569.162	1	-1
569.502	1	7
569.842	1	4
570.182	1	12
570.522	1	-7
570.862	1	-5
571.201	1	13
571.541	1	1
571.881	1	-2
572.221	1	3
572.561	1	3
572.900	1	8
573.240	1	-6
573.580	1	11
573.920	1	9
574.260	1	5
574.599	1	8
574.939	1	-1
575.279	1	2
575.619	1	-4
575.959	1	-11
576.298	1	1
576.638	1	2
576.978	1	1
577.318	1	10
577.657	1	0
577.997	1	13
578.337	1	1
578.677	1	6
579.016	1	3
579.356	1	-1
579.696	1	-3
580.036	1	8
580.375	1	3
580.715	1	12
581.055	1	-5
581.394	1	3
581.734	1	0
582.074	1	2
582.414	1	1
582.753	1	-4
583.093	1	8
583.433	1	0
583.772	1	3
584.112	1	5
584.452	1	5
584.791	1	10
585.131	1	2
585.471	1	9
585.811	1	1
586.150	1	0
586.490	1	1
586.830	1	2
587.169	1	5
587.509	1	0
587.849	1	9
588.188	1	2
588.528	1	-3
588.867	1	2
589.207	1	9
589.547	1	9
589.886	1	9
590.226	1	6
590.566	1	8
590.905	1	10
591.245	1	-1
591.585	1	-7
591.924	1	3
592.264	1	4
592.603	1	-17
592.943	1	2
593.283	1	3
593.622	1	-3
593.962	1	3
594.301	1	8
594.641	1	1
594.981	1	-5
595.320	1	5
595.660	1	8
595.999	1	7
596.339	1	-1
596.678	1	-9
597.018	1	-7
597.358	1	-2
597.697	1	-7
598.037	1	-1
598.376	1	-11
598.716	1	9
599.055	1	5
599.395	1	2
599.734	1	-1
600.074	1	-5
600.413	1	-4
600.753	1	9
601.092	1	-4
601.432	1	-6
601.771	1	-1
602.111	1	4
602.451	1	-1
602.790	1	10
603.130	1	0
603.469	1	-7
603.809	1	6
604.148	1	-4
604.487	1	1
604.827	1	14
605.166	1	2
605.506	1	-2
605.845	1	20
606.185	1	-4
606.524	1	-3
606.864	1	8
607.203	1	11
607.543	1	12
607.882	1	15
608.222	1	-7
608.561	1	2
608.901	1	4
609.240	1	3
609.579	1	0
609.919	1	-11
610.258	1	8
610.598	1	-1
610.937	1	-1
611.277	1	12
611.616	1	12
611.955	1	-3
612.295	1	10
612.634	1	8
612.974	1	4
613.313	1	9
613.652	1	9
613.992	1	1
614.331	1	17
614.671	1	-3
615.010	1	11
615.349	1	4
615.689	1	-2
616.028	1	24
616.368	1	18
616.707	1	1
617.046	1	-1
617.386	1	8
617.725	1	4
618.064	1	-2
618.404	1	-2
618.743	1	10
619.082	1	15
619.422	1	17
619.761	1	1
620.100	1	1
620.440	1	10
620.779	1	1
621.118	1	12
621.458	1	-2
621.797	1	-4
622.136	1	-2
622.476	1	9
622.815	1	4
623.154	1	-12
623.494	1	-11
623.833	1	3
624.172	1	12
624.511	1	-8
624.851	1	0
625.190	1	-14
625.529	1	-4
625.869	1	12
626.208	1	-2
626.547	1	1
626.886	1	7
627.226	1	2
627.565	1	7
627.904	1	-1
628.243	1	6
628.583	1	8
628.922	1	5
629.261	1	1
629.600	1	-5
629.940	1	8
630.279	1	8
630.618	1	1
630.957	1	2
631.297	1	-3
631.636	1	7
631.975	1	0
632.314	1	4
632.653	1	-5
632.993	1	6
633.332	1	0
633.671	1	-3
634.010	1	-9
634.349	1	17
634.689	1	4
635.028	1	-6
635.367	1	2
635.706	1	-3
636.045	1	-4
636.384	1	6
636.724	1	8
637.063	1	-8
637.402	1	1
637.741	1	5
638.080	1	11
638.419	1	1
638.759	1	2
639.098	1	1
639.437	1	-2
639.776	1	-2
640.115	1	-2
640.454	1	-1
640.793	1	9
641.132	1	-5
641.472	1	11
641.811	1	2
642.150	1	-3
642.489	1	0
642.828	1	12
643.167	1	7
643.506	1	-2
643.845	1	13
644.184	1	14
644.524	1	-2
644.863	1	7
645.202	1	4
645.541	1	4
645.880	1	12
646.219	1	2
646.558	1	-5
646.897	1	-4
647.236	1	-10
647.575	1	14
647.914	1	1
648.253	1	14
648.592	1	6
648.931	1	2
649.270	1	5
649.610	1	-2
649.949	1	-1
650.288	1	0
650.627	1	-4
650.966	1	6
651.305	1	2
651.644	1	8
651.983	1	-9
652.322	1	-2
652.661	1	2
653.000	1	2
653.339	1	5
653.678	1	6
654.017	1	8
654.356	1	12
654.695	1	13
655.034	1	-2
655.373	1	8
655.712	1	8
656.051	1	0
656.390	1	2
656.729	1	10
657.068	1	-4
657.406	1	-3
657.745	1	11
658.084	1	4
658.423	1	1
658.762	1	0
659.101	1	-3
659.440	1	7
659.779	1	-3
660.118	1	-1
660.457	1	3
660.796	1	9
661.135	1	14
661.474	1	-2
661.813	1	3
662.152	1	4
662.491	1	-3
662.829	1	0
663.168	1	-7
663.507	1	3
663.846	1	-4
664.185	1	10
664.524	1	12
664.863	1	-14
665.202	1	8
665.541	1	11
665.879	1	8
666.218	1	8
666.557	1	-4
666.896	1	9
667.235	1	-7
667.574	1	1
667.913	1	7
668.251	1	-8
668.590	1	-10
668.929	1	2
669.268	1	-1
669.607	1	-1
669.946	1	1
670.285	1	4
670.623	1	5
670.962	1	-8
671.301	1	-1
671.640	1	5
671.979	1	1
672.317	1	4
672.656	1	6
672.995	1	-3
673.334	1	-9
673.673	1	12
674.011	1	6
674.350	1	3
674.689	1	0
675.028	1	11
675.367	1	-2
675.705	1	1
676.044	1	1
676.383	1	0
676.722	1	0
677.060	1	7
677.399	1	13
677.738	1	-7
678.077	1	-1
678.416	1	-3
678.754	1	-3
679.093	1	9
679.432	1	-9
679.771	1	7
680.109	1	-2
680.448	1	6
680.787	1	-16
681.125	1	-9
681.464	1	11
681.803	1	-6
682.142	1	-1
682.480	1	-9
682.819	1	1
683.158	1	2
683.496	1	-3
683.835	1	11
684.174	1	1
684.512	1	3
684.851	1	2
685.190	1	-1
685.529	1	-2
685.867	1	-3
686.206	1	-3
686.545	1	3
686.883	1	4
687.222	1	-8
687.561	1	-1
687.899	1	5
688.238	1	10
688.577	1	-2
688.746	1	1