File: Data/GaN_150K_450ms/GaN_sample D_spot15_UVVIS_150 K_200um_450 ms 2x2mm1_73.txt
340.368	1	3
340.710	1	9
341.052	1	8
341.394	1	10
341.737	1	12
342.079	1	8
342.421	1	-2
342.763	1	10
343.105	1	8
343.447	1	3
343.789	1	4
344.131	1	-7
344.473	1	15
344.815	1	7
345.157	1	14
345.499	1	5
345.841	1	11
346.183	1	7
346.526	1	5
346.868	1	8
347.210	1	3
347.552	1	20
347.894	1	2
348.236	1	14
348.578	1	5
348.920	1	5
349.262	1	14
349.604	1	8
349.946	1	4
350.288	1	-3
350.630	1	4
350.972	1	21
351.314	1	8
351.656	1	8
351.998	1	1
352.340	1	8
352.682	1	-7
353.024	1	25
353.366	1	17
353.708	1	10
354.050	1	0
354.392	1	1
354.734	1	15
355.076	1	28
355.418	1	14
355.760	1	14
356.102	1	7
356.444	1	26
356.785	1	21
357.127	1	25
357.469	1	21
357.811	1	7
358.153	1	9
358.495	1	13
358.837	1	34
359.179	1	22
359.521	1	29
359.863	1	12
360.205	1	48
360.547	1	45
360.889	1	35
361.231	1	56
361.572	1	59
361.914	1	57
362.256	1	59
362.598	1	76
362.940	1	78
363.282	1	73
363.624	1	88
363.966	1	97
364.308	1	121
364.649	1	122
364.991	1	131
365.333	1	126
365.675	1	159
366.017	1	162
366.359	1	168
366.701	1	181
367.042	1	205
367.384	1	197
367.726	1	211
368.068	1	213
368.410	1	210
368.752	1	231
369.093	1	228
369.435	1	205
369.777	1	210
370.119	1	197
370.461	1	160
370.803	1	161
371.144	1	158
371.486	1	149
371.828	1	136
372.170	1	127
372.512	1	124
372.853	1	136
373.195	1	112
373.537	1	84
373.879	1	100
374.220	1	96
374.562	1	101
374.904	1	92
375.246	1	80
375.588	1	72
375.929	1	74
376.271	1	81
376.613	1	64
376.955	1	60
377.296	1	60
377.638	1	49
377.980	1	62
378.321	1	64
378.663	1	47
379.005	1	51
379.347	1	49
379.688	1	53
380.030	1	60
380.372	1	54
380.714	1	43
381.055	1	33
381.397	1	34
381.739	1	40
382.080	1	37
382.422	1	38
382.764	1	38
383.105	1	37
383.447	1	35
383.789	1	29
384.130	1	34
384.472	1	31
384.814	1	43
385.156	1	23
385.497	1	50
385.839	1	26
386.180	1	36
386.522	1	32
386.864	1	23
387.205	1	27
387.547	1	40
387.889	1	26
388.230	1	16
388.572	1	7
388.914	1	31
389.255	1	20
389.597	1	20
389.939	1	29
390.280	1	24
390.622	1	14
390.963	1	14
391.305	1	27
391.647	1	26
391.988	1	14
392.330	1	9
392.671	1	14
393.013	1	23
393.355	1	21
393.696	1	15
394.038	1	11
394.379	1	23
394.721	1	23
395.062	1	23
395.404	1	16
395.746	1	0
396.087	1	16
396.429	1	21
396.770	1	24
397.112	1	22
397.453	1	10
397.795	1	14
398.136	1	25
398.478	1	11
398.819	1	17
399.161	1	24
399.503	1	22
399.844	1	16
400.186	1	15
400.527	1	16
400.869	1	19
401.210	1	19
401.552	1	13
401.893	1	15
402.235	1	23
402.576	1	17
402.918	1	11
403.259	1	8
403.601	1	17
403.942	1	20
404.284	1	23
404.625	1	8
404.967	1	19
405.308	1	6
405.649	1	15
405.991	1	14
406.332	1	22
406.674	1	12
407.015	1	20
407.357	1	22
407.698	1	11
408.040	1	19
408.381	1	3
408.722	1	18
409.064	1	24
409.405	1	16
409.747	1	21
410.088	1	15
410.430	1	24
410.771	1	10
411.112	1	19
411.454	1	19
411.795	1	19
412.137	1	10
412.478	1	16
412.819	1	21
413.161	1	12
413.502	1	21
413.844	1	27
414.185	1	18
414.526	1	9
414.868	1	19
415.209	1	10
415.550	1	11
415.892	1	20
416.233	1	19
416.575	1	14
416.916	1	6
417.257	1	4
417.599	1	23
417.940	1	8
418.281	1	19
418.623	1	17
418.964	1	28
419.305	1	14
419.647	1	22
419.988	1	37
420.329	1	15
420.671	1	26
421.012	1	21
421.353	1	19
421.695	1	23
422.036	1	23
422.377	1	15
422.718	1	23
423.060	1	25
423.401	1	10
423.742	1	23
424.084	1	16
424.425	1	24
424.766	1	18
425.107	1	20
425.449	1	16
425.790	1	15
426.131	1	2
426.472	1	29
426.814	1	15
427.155	1	12
427.496	1	12
427.837	1	16
428.179	1	33
428.520	1	13
428.861	1	27
429.202	1	7
429.544	1	8
429.885	1	24
430.226	1	6
430.567	1	0
430.909	1	8
431.250	1	16
431.591	1	21
431.932	1	12
432.273	1	20
432.615	1	14
432.956	1	17
433.297	1	25
433.638	1	20
433.979	1	21
434.320	1	25
434.662	1	18
435.003	1	29
435.344	1	11
435.685	1	20
436.026	1	12
436.368	1	7
436.709	1	4
437.050	1	16
437.391	1	8
437.732	1	13
438.073	1	9
438.414	1	23
438.756	1	17
439.097	1	9
439.438	1	15
439.779	1	15
440.120	1	11
440.461	1	18
440.802	1	11
441.143	1	14
441.485	1	13
441.826	1	17
442.167	1	13
442.508	1	18
442.849	1	20
443.190	1	15
443.531	1	12
443.872	1	-2
444.213	1	9
444.554	1	19
444.895	1	14
445.237	1	27
445.578	1	5
445.919	1	20
446.260	1	19
446.601	1	17
446.942	1	6
447.283	1	21
447.624	1	3
447.965	1	13
448.306	1	14
448.647	1	6
448.988	1	11
449.329	1	18
449.670	1	9
450.011	1	10
450.352	1	3
450.693	1	25
451.034	1	10
451.375	1	19
451.716	1	12
452.057	1	14
452.398	1	11
452.739	1	7
453.080	1	19
453.421	1	14
453.762	1	22
454.103	1	12
454.444	1	9
454.785	1	10
455.126	1	13
455.467	1	17
455.808	1	13
456.149	1	7
456.490	1	4
456.831	1	12
457.172	1	10
457.513	1	11
457.854	1	7
458.195	1	11
458.536	1	11
458.877	1	12
459.218	1	13
459.559	1	2
459.899	1	1
460.240	1	-6
460.581	1	2
460.922	1	24
461.263	1	24
461.604	1	12
461.945	1	13
462.286	1	5
462.627	1	11
462.968	1	11
463.309	1	10
463.649	1	3
463.990	1	11
464.331	1	17
464.672	1	11
465.013	1	14
465.354	1	12
465.695	1	18
466.036	1	14
466.376	1	22
466.717	1	-2
467.058	1	18
467.399	1	6
467.740	1	28
468.081	1	8
468.422	1	13
468.762	1	14
469.103	1	18
469.444	1	9
469.785	1	8
470.126	1	19
470.467	1	9
470.807	1	9
471.148	1	1
471.489	1	17
471.830	1	10
472.171	1	21
472.511	1	6
472.852	1	23
473.193	1	4
473.534	1	13
473.875	1	1
474.215	1	4
474.556	1	17
474.897	1	6
475.238	1	18
475.578	1	5
475.919	1	3
476.260	1	16
476.601	1	8
476.942	1	8
477.282	1	3
477.623	1	6
477.964	1	8
478.305	1	16
478.645	1	15
478.986	1	18
479.327	1	13
479.667	1	9
480.008	1	3
480.349	1	10
480.690	1	21
481.030	1	16
481.371	1	4
481.712	1	16
482.053	1	13
482.393	1	15
482.734	1	16
483.075	1	15
483.415	1	18
483.756	1	14
484.097	1	21
484.437	1	19
484.778	1	8
485.119	1	7
485.459	1	11
485.800	1	11
486.141	1	21
486.481	1	5
486.822	1	18
487.163	1	17
487.503	1	16
487.844	1	4
488.185	1	17
488.525	1	12
488.866	1	15
489.207	1	19
489.547	1	16
489.888	1	22
490.228	1	14
490.569	1	9
490.910	1	30
491.250	1	21
491.591	1	24
491.932	1	27
492.272	1	7
492.613	1	15
492.953	1	5
493.294	1	11
493.635	1	23
493.975	1	38
494.316	1	26
494.656	1	15
494.997	1	10
495.337	1	21
495.678	1	23
496.019	1	13
496.359	1	23
496.700	1	21
497.040	1	22
497.381	1	22
497.721	1	11
498.062	1	15
498.403	1	25
498.743	1	32
499.084	1	30
499.424	1	24
499.765	1	33
500.105	1	38
500.446	1	36
500.786	1	30
501.127	1	38
501.467	1	28
501.808	1	27
502.148	1	31
502.489	1	38
502.829	1	30
503.170	1	40
503.510	1	36
503.851	1	48
504.191	1	31
504.532	1	37
504.872	1	24
505.213	1	26
505.553	1	34
505.894	1	49
506.234	1	51
506.575	1	46
506.915	1	42
507.256	1	42
507.596	1	43
507.936	1	45
508.277	1	41
508.617	1	38
508.958	1	48
509.298	1	33
509.639	1	37
509.979	1	40
510.319	1	38
510.660	1	42
511.000	1	41
511.341	1	45
511.681	1	46
512.022	1	25
512.362	1	50
512.702	1	35
513.043	1	39
513.383	1	45
513.724	1	36
514.064	1	41
514.404	1	48
514.745	1	51
515.085	1	53
515.425	1	46
515.766	1	47
516.106	1	43
516.447	1	49
516.787	1	41
517.127	1	52
517.468	1	57
517.808	1	43
518.148	1	62
518.489	1	46
518.829	1	51
519.169	1	40
519.510	1	55
519.850	1	54
520.190	1	52
520.531	1	59
520.871	1	51
521.211	1	53
521.552	1	44
521.892	1	51
522.232	1	49
522.573	1	53
522.913	1	59
523.253	1	48
523.593	1	65
523.934	1	42
524.274	1	45
524.614	1	55
524.955	1	49
525.295	1	52
525.635	1	58
525.975	1	52
526.316	1	44
526.656	1	50
526.996	1	54
527.337	1	58
527.677	1	52
528.017	1	54
528.357	1	57
528.698	1	63
529.038	1	54
529.378	1	55
529.718	1	55
530.058	1	68
530.399	1	45
530.739	1	54
531.079	1	69
531.419	1	61
531.760	1	50
532.100	1	68
532.440	1	69
532.780	1	60
533.120	1	44
533.461	1	49
533.801	1	62
534.141	1	50
534.481	1	67
534.821	1	50
535.162	1	59
535.502	1	58
535.842	1	55
536.182	1	54
536.522	1	54
536.862	1	48
537.203	1	56
537.543	1	48
537.883	1	47
538.223	1	54
538.563	1	43
538.903	1	42
539.243	1	51
539.584	1	42
539.924	1	47
540.264	1	59
540.604	1	55
540.944	1	51
541.284	1	39
541.624	1	54
541.964	1	49
542.305	1	61
542.645	1	40
542.985	1	36
543.325	1	46
543.665	1	47
544.005	1	46
544.345	1	56
544.685	1	41
545.025	1	52
545.365	1	48
545.705	1	60
546.045	1	47
546.386	1	43
546.726	1	44
547.066	1	49
547.406	1	39
547.746	1	44
548.086	1	50
548.426	1	43
548.766	1	53
549.106	1	36
549.446	1	43
549.786	1	50
550.126	1	42
550.466	1	47
550.806	1	58
551.146	1	45
551.486	1	40
551.826	1	43
552.166	1	51
552.506	1	46
552.846	1	54
553.186	1	38
553.526	1	42
553.866	1	48
554.206	1	56
554.546	1	53
554.886	1	38
555.226	1	48
555.566	1	51
555.906	1	38
556.246	1	48
556.586	1	26
556.926	1	44
557.266	1	41
557.606	1	34
557.946	1	38
558.286	1	27
558.626	1	37
558.966	1	36
559.306	1	38
559.646	1	46
559.986	1	29
560.325	1	35
560.665	1	31
561.005	1	35
561.345	1	37
561.685	1	37
562.025	1	38
562.365	1	29
562.705	1	35
563.045	1	31
563.385	1	40
563.725	1	36
564.064	1	28
564.404	1	27
564.744	1	40
565.084	1	28
565.424	1	34
565.764	1	42
566.104	1	31
566.444	1	40
566.783	1	32
567.123	1	36
567.463	1	39
567.803	1	39
568.143	1	30
568.483	1	36
568.823	1	19
569.162	1	31
569.502	1	30
569.842	1	28
570.182	1	27
570.522	1	25
570.862	1	12
571.201	1	33
571.541	1	38
571.881	1	25
572.221	1	18
572.561	1	34
572.900	1	32
573.240	1	10
573.580	1	29
573.920	1	35
574.260	1	23
574.599	1	30
574.939	1	33
575.279	1	22
575.619	1	26
575.959	1	21
576.298	1	4
576.638	1	28
576.978	1	24
577.318	1	17
577.657	1	17
577.997	1	29
578.337	1	17
578.677	1	25
579.016	1	32
579.356	1	27
579.696	1	25
580.036	1	21
580.375	1	19
580.715	1	25
581.055	1	21
581.394	1	29
581.734	1	24
582.074	1	24
582.414	1	27
582.753	1	25
583.093	1	22
583.433	1	21
583.772	1	31
584.112	1	24
584.452	1	19
584.791	1	16
585.131	1	28
585.471	1	23
585.811	1	26
586.150	1	22
586.490	1	21
586.830	1	22
587.169	1	12
587.509	1	18
587.849	1	21
588.188	1	23
588.528	1	12
588.867	1	18
589.207	1	26
589.547	1	15
589.886	1	15
590.226	1	18
590.566	1	12
590.905	1	8
591.245	1	11
591.585	1	14
591.924	1	5
592.264	1	18
592.603	1	14
592.943	1	17
593.283	1	14
593.622	1	6
593.962	1	17
594.301	1	6
594.641	1	13
594.981	1	14
595.320	1	14
595.660	1	13
595.999	1	14
596.339	1	15
596.678	1	4
597.018	1	5
597.358	1	22
597.697	1	-5
598.037	1	11
598.376	1	-4
598.716	1	12
599.055	1	14
599.395	1	16
599.734	1	13
600.074	1	-3
600.413	1	9
600.753	1	12
601.092	1	7
601.432	1	12
601.771	1	21
602.111	1	10
602.451	1	7
602.790	1	16
603.130	1	9
603.469	1	10
603.809	1	17
604.148	1	0
604.487	1	10
604.827	1	14
605.166	1	6
605.506	1	3
605.845	1	24
606.185	1	11
606.524	1	12
606.864	1	20
607.203	1	14
607.543	1	12
607.882	1	24
608.222	1	8
608.561	1	11
608.901	1	17
609.240	1	20
609.579	1	12
609.919	1	12
610.258	1	17
610.598	1	-4
610.937	1	11
611.277	1	9
611.616	1	23
611.955	1	5
612.295	1	21
612.634	1	11
612.974	1	7
613.313	1	13
613.652	1	19
613.992	1	9
614.331	1	23
614.671	1	7
615.010	1	19
615.349	1	10
615.689	1	4
616.028	1	23
616.368	1	18
616.707	1	17
617.046	1	9
617.386	1	14
617.725	1	4
618.064	1	5
618.404	1	6
618.743	1	12
619.082	1	16
619.422	1	9
619.761	1	6
620.100	1	12
620.440	1	14
620.779	1	12
621.118	1	20
621.458	1	1
621.797	1	6
622.136	1	13
622.476	1	8
622.815	1	11
623.154	1	-3
623.494	1	13
623.833	1	5
624.172	1	6
624.511	1	10
624.851	1	7
625.190	1	15
625.529	1	14
625.869	1	23
626.208	1	7
626.547	1	3
626.886	1	3
627.226	1	15
627.565	1	13
627.904	1	9
628.243	1	20
628.583	1	13
628.922	1	12
629.261	1	5
629.600	1	10
629.940	1	14
630.279	1	5
630.618	1	10
630.957	1	12
631.297	1	11
631.636	1	8
631.975	1	2
632.314	1	9
632.653	1	-3
632.993	1	18
633.332	1	6
633.671	1	10
634.010	1	14
634.349	1	16
634.689	1	8
635.028	1	1
635.367	1	18
635.706	1	5
636.045	1	0
636.384	1	16
636.724	1	15
637.063	1	-6
637.402	1	14
637.741	1	3
638.080	1	8
638.419	1	0
638.759	1	12
639.098	1	7
639.437	1	15
639.776	1	13
640.115	1	0
640.454	1	6
640.793	1	13
641.132	1	15
641.472	1	14
641.811	1	9
642.150	1	6
642.489	1	8
642.828	1	12
643.167	1	9
643.506	1	6
643.845	1	19
644.184	1	8
644.524	1	-4
644.863	1	6
645.202	1	11
645.541	1	4
645.880	1	5
646.219	1	11
646.558	1	5
646.897	1	2
647.236	1	-8
647.575	1	15
647.914	1	10
648.253	1	11
648.592	1	11
648.931	1	19
649.270	1	16
649.610	1	19
649.949	1	0
650.288	1	1
650.627	1	8
650.966	1	3
651.305	1	9
651.644	1	18
651.983	1	3
652.322	1	3
652.661	1	4
653.000	1	13
653.339	1	15
653.678	1	20
654.017	1	8
654.356	1	5
654.695	1	20
655.034	1	8
655.373	1	12
655.712	1	24
656.051	1	-4
656.390	1	1
656.729	1	21
657.068	1	7
657.406	1	3
657.745	1	17
658.084	1	8
658.423	1	14
658.762	1	-2
659.101	1	2
659.440	1	11
659.779	1	5
660.118	1	8
660.457	1	5
660.796	1	13
661.135	1	6
661.474	1	16
661.813	1	7
662.152	1	0
662.491	1	7
662.829	1	0
663.168	1	6
663.507	1	11
663.846	1	6
664.185	1	6
664.524	1	12
664.863	1	-3
665.202	1	7
665.541	1	2
665.879	1	20
666.218	1	6
666.557	1	0
666.896	1	3
667.235	1	2
667.574	1	13
667.913	1	12
668.251	1	1
668.590	1	1
668.929	1	0
669.268	1	10
669.607	1	-2
669.946	1	8
670.285	1	4
670.623	1	12
670.962	1	2
671.301	1	4
671.640	1	9
671.979	1	8
672.317	1	8
672.656	1	14
672.995	1	-2
673.334	1	2
673.673	1	21
674.011	1	14
674.350	1	0
674.689	1	2
675.028	1	10
675.367	1	13
675.705	1	2
676.044	1	2
676.383	1	10
676.722	1	-2
677.060	1	11
677.399	1	15
677.738	1	0
678.077	1	7
678.416	1	7
678.754	1	16
679.093	1	17
679.432	1	-2
679.771	1	6
680.109	1	10
680.448	1	5
680.787	1	0
681.125	1	4
681.464	1	8
681.803	1	4
682.142	1	8
682.480	1	6
682.819	1	13
683.158	1	6
683.496	1	-1
683.835	1	16
684.174	1	13
684.512	1	6
684.851	1	-2
685.190	1	6
685.529	1	7
685.867	1	8
686.206	1	6
686.545	1	12
686.883	1	13
687.222	1	3
687.561	1	17
687.899	1	13
688.238	1	14
688.577	1	8
688.746	1	4