File: Data/GaN_150K_450ms/GaN_sample D_spot15_UVVIS_150 K_200um_450 ms 2x2mm1_48.txt
340.368	1	-2
340.710	1	-8
341.052	1	0
341.394	1	0
341.737	1	7
342.079	1	3
342.421	1	8
342.763	1	1
343.105	1	-4
343.447	1	4
343.789	1	-2
344.131	1	-8
344.473	1	-2
344.815	1	3
345.157	1	8
345.499	1	-2
345.841	1	6
346.183	1	8
346.526	1	6
346.868	1	-5
347.210	1	-10
347.552	1	13
347.894	1	-7
348.236	1	11
348.578	1	8
348.920	1	5
349.262	1	6
349.604	1	-3
349.946	1	-4
350.288	1	-9
350.630	1	-5
350.972	1	9
351.314	1	2
351.656	1	7
351.998	1	3
352.340	1	12
352.682	1	-1
353.024	1	12
353.366	1	14
353.708	1	0
354.050	1	-1
354.392	1	-12
354.734	1	0
355.076	1	12
355.418	1	4
355.760	1	13
356.102	1	7
356.444	1	12
356.785	1	5
357.127	1	11
357.469	1	13
357.811	1	7
358.153	1	-10
358.495	1	8
358.837	1	16
359.179	1	5
359.521	1	22
359.863	1	8
360.205	1	15
360.547	1	15
360.889	1	20
361.231	1	14
361.572	1	20
361.914	1	16
362.256	1	31
362.598	1	34
362.940	1	28
363.282	1	33
363.624	1	53
363.966	1	58
364.308	1	70
364.649	1	94
364.991	1	98
365.333	1	108
365.675	1	147
366.017	1	156
366.359	1	161
366.701	1	177
367.042	1	222
367.384	1	226
367.726	1	250
368.068	1	278
368.410	1	262
368.752	1	275
369.093	1	247
369.435	1	240
369.777	1	246
370.119	1	215
370.461	1	198
370.803	1	164
371.144	1	166
371.486	1	140
371.828	1	142
372.170	1	113
372.512	1	106
372.853	1	116
373.195	1	89
373.537	1	81
373.879	1	93
374.220	1	92
374.562	1	90
374.904	1	76
375.246	1	77
375.588	1	61
375.929	1	67
376.271	1	63
376.613	1	63
376.955	1	56
377.296	1	64
377.638	1	52
377.980	1	57
378.321	1	55
378.663	1	46
379.005	1	57
379.347	1	58
379.688	1	53
380.030	1	60
380.372	1	57
380.714	1	60
381.055	1	64
381.397	1	66
381.739	1	66
382.080	1	82
382.422	1	97
382.764	1	99
383.105	1	96
383.447	1	113
383.789	1	117
384.130	1	130
384.472	1	137
384.814	1	156
385.156	1	156
385.497	1	150
385.839	1	162
386.180	1	151
386.522	1	168
386.864	1	138
387.205	1	156
387.547	1	156
387.889	1	151
388.230	1	146
388.572	1	136
388.914	1	151
389.255	1	131
389.597	1	134
389.939	1	133
390.280	1	130
390.622	1	135
390.963	1	126
391.305	1	133
391.647	1	132
391.988	1	129
392.330	1	120
392.671	1	127
393.013	1	119
393.355	1	117
393.696	1	121
394.038	1	118
394.379	1	113
394.721	1	112
395.062	1	122
395.404	1	118
395.746	1	132
396.087	1	129
396.429	1	139
396.770	1	140
397.112	1	136
397.453	1	132
397.795	1	135
398.136	1	147
398.478	1	132
398.819	1	128
399.161	1	126
399.503	1	125
399.844	1	119
400.186	1	121
400.527	1	115
400.869	1	114
401.210	1	109
401.552	1	91
401.893	1	98
402.235	1	97
402.576	1	96
402.918	1	87
403.259	1	98
403.601	1	99
403.942	1	82
404.284	1	99
404.625	1	92
404.967	1	97
405.308	1	82
405.649	1	92
405.991	1	84
406.332	1	80
406.674	1	87
407.015	1	79
407.357	1	78
407.698	1	83
408.040	1	91
408.381	1	72
408.722	1	91
409.064	1	78
409.405	1	77
409.747	1	70
410.088	1	80
410.430	1	84
410.771	1	81
411.112	1	69
411.454	1	72
411.795	1	67
412.137	1	67
412.478	1	63
412.819	1	66
413.161	1	67
413.502	1	65
413.844	1	59
414.185	1	56
414.526	1	54
414.868	1	54
415.209	1	49
415.550	1	58
415.892	1	49
416.233	1	57
416.575	1	55
416.916	1	54
417.257	1	62
417.599	1	52
417.940	1	51
418.281	1	56
418.623	1	46
418.964	1	59
419.305	1	54
419.647	1	55
419.988	1	58
420.329	1	44
420.671	1	53
421.012	1	39
421.353	1	57
421.695	1	42
422.036	1	46
422.377	1	36
422.718	1	42
423.060	1	43
423.401	1	36
423.742	1	47
424.084	1	37
424.425	1	45
424.766	1	29
425.107	1	44
425.449	1	32
425.790	1	41
426.131	1	24
426.472	1	44
426.814	1	29
427.155	1	30
427.496	1	37
427.837	1	30
428.179	1	46
428.520	1	20
428.861	1	48
429.202	1	27
429.544	1	21
429.885	1	39
430.226	1	15
430.567	1	7
430.909	1	27
431.250	1	31
431.591	1	28
431.932	1	25
432.273	1	28
432.615	1	30
432.956	1	31
433.297	1	21
433.638	1	24
433.979	1	33
434.320	1	19
434.662	1	24
435.003	1	24
435.344	1	18
435.685	1	17
436.026	1	11
436.368	1	10
436.709	1	25
437.050	1	14
437.391	1	18
437.732	1	14
438.073	1	20
438.414	1	22
438.756	1	10
439.097	1	6
439.438	1	11
439.779	1	11
440.120	1	8
440.461	1	7
440.802	1	17
441.143	1	14
441.485	1	10
441.826	1	18
442.167	1	12
442.508	1	19
442.849	1	24
443.190	1	21
443.531	1	14
443.872	1	0
444.213	1	6
444.554	1	24
444.895	1	4
445.237	1	21
445.578	1	10
445.919	1	15
446.260	1	18
446.601	1	8
446.942	1	10
447.283	1	17
447.624	1	2
447.965	1	9
448.306	1	20
448.647	1	13
448.988	1	15
449.329	1	21
449.670	1	0
450.011	1	10
450.352	1	0
450.693	1	20
451.034	1	10
451.375	1	13
451.716	1	3
452.057	1	9
452.398	1	21
452.739	1	26
453.080	1	12
453.421	1	17
453.762	1	20
454.103	1	8
454.444	1	2
454.785	1	15
455.126	1	12
455.467	1	6
455.808	1	21
456.149	1	9
456.490	1	5
456.831	1	5
457.172	1	13
457.513	1	7
457.854	1	2
458.195	1	13
458.536	1	15
458.877	1	16
459.218	1	15
459.559	1	9
459.899	1	9
460.240	1	13
460.581	1	-2
460.922	1	7
461.263	1	11
461.604	1	8
461.945	1	17
462.286	1	1
462.627	1	16
462.968	1	12
463.309	1	4
463.649	1	6
463.990	1	13
464.331	1	17
464.672	1	16
465.013	1	13
465.354	1	7
465.695	1	9
466.036	1	19
466.376	1	19
466.717	1	6
467.058	1	10
467.399	1	2
467.740	1	21
468.081	1	6
468.422	1	17
468.762	1	12
469.103	1	7
469.444	1	9
469.785	1	1
470.126	1	16
470.467	1	8
470.807	1	16
471.148	1	3
471.489	1	3
471.830	1	13
472.171	1	11
472.511	1	8
472.852	1	21
473.193	1	16
473.534	1	16
473.875	1	15
474.215	1	14
474.556	1	7
474.897	1	9
475.238	1	4
475.578	1	9
475.919	1	8
476.260	1	7
476.601	1	11
476.942	1	3
477.282	1	4
477.623	1	2
477.964	1	15
478.305	1	3
478.645	1	9
478.986	1	10
479.327	1	19
479.667	1	7
480.008	1	11
480.349	1	3
480.690	1	12
481.030	1	10
481.371	1	4
481.712	1	21
482.053	1	11
482.393	1	8
482.734	1	9
483.075	1	19
483.415	1	9
483.756	1	18
484.097	1	12
484.437	1	9
484.778	1	2
485.119	1	14
485.459	1	5
485.800	1	7
486.141	1	9
486.481	1	8
486.822	1	22
487.163	1	5
487.503	1	10
487.844	1	3
488.185	1	22
488.525	1	11
488.866	1	5
489.207	1	16
489.547	1	10
489.888	1	19
490.228	1	14
490.569	1	9
490.910	1	14
491.250	1	17
491.591	1	16
491.932	1	19
492.272	1	7
492.613	1	4
492.953	1	2
493.294	1	12
493.635	1	13
493.975	1	21
494.316	1	11
494.656	1	15
494.997	1	11
495.337	1	4
495.678	1	14
496.019	1	10
496.359	1	9
496.700	1	10
497.040	1	14
497.381	1	20
497.721	1	1
498.062	1	26
498.403	1	25
498.743	1	14
499.084	1	19
499.424	1	17
499.765	1	26
500.105	1	21
500.446	1	17
500.786	1	18
501.127	1	21
501.467	1	26
501.808	1	20
502.148	1	24
502.489	1	19
502.829	1	24
503.170	1	28
503.510	1	28
503.851	1	31
504.191	1	24
504.532	1	36
504.872	1	39
505.213	1	28
505.553	1	22
505.894	1	35
506.234	1	40
506.575	1	43
506.915	1	33
507.256	1	40
507.596	1	41
507.936	1	40
508.277	1	43
508.617	1	31
508.958	1	44
509.298	1	31
509.639	1	29
509.979	1	33
510.319	1	34
510.660	1	29
511.000	1	40
511.341	1	41
511.681	1	40
512.022	1	24
512.362	1	49
512.702	1	19
513.043	1	43
513.383	1	44
513.724	1	37
514.064	1	39
514.404	1	47
514.745	1	41
515.085	1	47
515.425	1	46
515.766	1	41
516.106	1	46
516.447	1	57
516.787	1	47
517.127	1	47
517.468	1	61
517.808	1	38
518.148	1	63
518.489	1	54
518.829	1	55
519.169	1	41
519.510	1	39
519.850	1	46
520.190	1	39
520.531	1	42
520.871	1	50
521.211	1	52
521.552	1	46
521.892	1	56
522.232	1	46
522.573	1	48
522.913	1	59
523.253	1	70
523.593	1	63
523.934	1	55
524.274	1	61
524.614	1	56
524.955	1	56
525.295	1	53
525.635	1	61
525.975	1	52
526.316	1	47
526.656	1	53
526.996	1	53
527.337	1	63
527.677	1	74
528.017	1	63
528.357	1	62
528.698	1	57
529.038	1	70
529.378	1	63
529.718	1	65
530.058	1	69
530.399	1	65
530.739	1	64
531.079	1	67
531.419	1	64
531.760	1	78
532.100	1	76
532.440	1	73
532.780	1	69
533.120	1	71
533.461	1	76
533.801	1	77
534.141	1	76
534.481	1	82
534.821	1	73
535.162	1	64
535.502	1	72
535.842	1	70
536.182	1	70
536.522	1	69
536.862	1	78
537.203	1	69
537.543	1	74
537.883	1	70
538.223	1	81
538.563	1	63
538.903	1	69
539.243	1	79
539.584	1	70
539.924	1	71
540.264	1	84
540.604	1	80
540.944	1	75
541.284	1	68
541.624	1	82
541.964	1	80
542.305	1	76
542.645	1	67
542.985	1	78
543.325	1	84
543.665	1	72
544.005	1	82
544.345	1	82
544.685	1	72
545.025	1	86
545.365	1	86
545.705	1	81
546.045	1	87
546.386	1	82
546.726	1	91
547.066	1	79
547.406	1	86
547.746	1	89
548.086	1	82
548.426	1	86
548.766	1	90
549.106	1	95
549.446	1	91
549.786	1	94
550.126	1	97
550.466	1	79
550.806	1	110
551.146	1	94
551.486	1	88
551.826	1	93
552.166	1	95
552.506	1	86
552.846	1	97
553.186	1	68
553.526	1	90
553.866	1	91
554.206	1	109
554.546	1	89
554.886	1	91
555.226	1	101
555.566	1	87
555.906	1	80
556.246	1	94
556.586	1	88
556.926	1	83
557.266	1	90
557.606	1	81
557.946	1	96
558.286	1	71
558.626	1	87
558.966	1	86
559.306	1	87
559.646	1	91
559.986	1	87
560.325	1	78
560.665	1	86
561.005	1	93
561.345	1	85
561.685	1	94
562.025	1	92
562.365	1	84
562.705	1	96
563.045	1	90
563.385	1	92
563.725	1	84
564.064	1	75
564.404	1	97
564.744	1	88
565.084	1	86
565.424	1	77
565.764	1	86
566.104	1	101
566.444	1	97
566.783	1	100
567.123	1	90
567.463	1	100
567.803	1	96
568.143	1	87
568.483	1	96
568.823	1	86
569.162	1	91
569.502	1	102
569.842	1	92
570.182	1	94
570.522	1	89
570.862	1	75
571.201	1	98
571.541	1	96
571.881	1	94
572.221	1	89
572.561	1	92
572.900	1	93
573.240	1	86
573.580	1	110
573.920	1	92
574.260	1	83
574.599	1	98
574.939	1	88
575.279	1	95
575.619	1	81
575.959	1	87
576.298	1	79
576.638	1	86
576.978	1	98
577.318	1	88
577.657	1	86
577.997	1	84
578.337	1	91
578.677	1	78
579.016	1	91
579.356	1	84
579.696	1	97
580.036	1	93
580.375	1	86
580.715	1	83
581.055	1	97
581.394	1	100
581.734	1	88
582.074	1	92
582.414	1	91
582.753	1	95
583.093	1	89
583.433	1	100
583.772	1	96
584.112	1	101
584.452	1	91
584.791	1	91
585.131	1	93
585.471	1	90
585.811	1	90
586.150	1	99
586.490	1	75
586.830	1	99
587.169	1	92
587.509	1	88
587.849	1	104
588.188	1	90
588.528	1	78
588.867	1	101
589.207	1	97
589.547	1	81
589.886	1	91
590.226	1	85
590.566	1	86
590.905	1	83
591.245	1	85
591.585	1	72
591.924	1	81
592.264	1	74
592.603	1	63
592.943	1	79
593.283	1	79
593.622	1	82
593.962	1	78
594.301	1	73
594.641	1	71
594.981	1	75
595.320	1	90
595.660	1	79
595.999	1	72
596.339	1	76
596.678	1	68
597.018	1	65
597.358	1	82
597.697	1	78
598.037	1	75
598.376	1	74
598.716	1	71
599.055	1	81
599.395	1	78
599.734	1	73
600.074	1	66
600.413	1	84
600.753	1	76
601.092	1	68
601.432	1	70
601.771	1	79
602.111	1	67
602.451	1	79
602.790	1	81
603.130	1	75
603.469	1	81
603.809	1	76
604.148	1	69
604.487	1	69
604.827	1	73
605.166	1	84
605.506	1	73
605.845	1	85
606.185	1	70
606.524	1	69
606.864	1	92
607.203	1	87
607.543	1	89
607.882	1	69
608.222	1	74
608.561	1	81
608.901	1	81
609.240	1	79
609.579	1	67
609.919	1	61
610.258	1	83
610.598	1	67
610.937	1	72
611.277	1	68
611.616	1	77
611.955	1	69
612.295	1	65
612.634	1	67
612.974	1	62
613.313	1	68
613.652	1	66
613.992	1	62
614.331	1	75
614.671	1	71
615.010	1	73
615.349	1	64
615.689	1	56
616.028	1	72
616.368	1	71
616.707	1	67
617.046	1	60
617.386	1	77
617.725	1	55
618.064	1	62
618.404	1	54
618.743	1	65
619.082	1	68
619.422	1	67
619.761	1	64
620.100	1	66
620.440	1	76
620.779	1	55
621.118	1	74
621.458	1	55
621.797	1	57
622.136	1	55
622.476	1	52
622.815	1	53
623.154	1	54
623.494	1	45
623.833	1	58
624.172	1	60
624.511	1	47
624.851	1	59
625.190	1	51
625.529	1	50
625.869	1	57
626.208	1	53
626.547	1	48
626.886	1	58
627.226	1	63
627.565	1	61
627.904	1	46
628.243	1	59
628.583	1	63
628.922	1	55
629.261	1	56
629.600	1	50
629.940	1	53
630.279	1	59
630.618	1	64
630.957	1	55
631.297	1	52
631.636	1	48
631.975	1	40
632.314	1	47
632.653	1	51
632.993	1	61
633.332	1	45
633.671	1	55
634.010	1	42
634.349	1	59
634.689	1	43
635.028	1	36
635.367	1	51
635.706	1	50
636.045	1	32
636.384	1	47
636.724	1	45
637.063	1	44
637.402	1	60
637.741	1	46
638.080	1	50
638.419	1	39
638.759	1	48
639.098	1	40
639.437	1	48
639.776	1	47
640.115	1	41
640.454	1	47
640.793	1	38
641.132	1	46
641.472	1	50
641.811	1	37
642.150	1	40
642.489	1	41
642.828	1	53
643.167	1	49
643.506	1	42
643.845	1	52
644.184	1	51
644.524	1	45
644.863	1	48
645.202	1	34
645.541	1	40
645.880	1	50
646.219	1	46
646.558	1	38
646.897	1	38
647.236	1	44
647.575	1	49
647.914	1	41
648.253	1	50
648.592	1	52
648.931	1	48
649.270	1	52
649.610	1	40
649.949	1	41
650.288	1	38
650.627	1	42
650.966	1	45
651.305	1	44
651.644	1	49
651.983	1	35
652.322	1	50
652.661	1	36
653.000	1	38
653.339	1	42
653.678	1	47
654.017	1	47
654.356	1	48
654.695	1	44
655.034	1	33
655.373	1	36
655.712	1	37
656.051	1	36
656.390	1	39
656.729	1	35
657.068	1	34
657.406	1	28
657.745	1	43
658.084	1	42
658.423	1	37
658.762	1	29
659.101	1	42
659.440	1	37
659.779	1	35
660.118	1	39
660.457	1	34
660.796	1	37
661.135	1	31
661.474	1	36
661.813	1	32
662.152	1	29
662.491	1	23
662.829	1	35
663.168	1	26
663.507	1	34
663.846	1	27
664.185	1	32
664.524	1	41
664.863	1	23
665.202	1	41
665.541	1	28
665.879	1	30
666.218	1	36
666.557	1	33
666.896	1	28
667.235	1	26
667.574	1	29
667.913	1	39
668.251	1	24
668.590	1	31
668.929	1	24
669.268	1	26
669.607	1	20
669.946	1	20
670.285	1	19
670.623	1	31
670.962	1	32
671.301	1	31
671.640	1	31
671.979	1	24
672.317	1	38
672.656	1	35
672.995	1	32
673.334	1	21
673.673	1	33
674.011	1	30
674.350	1	32
674.689	1	22
675.028	1	27
675.367	1	31
675.705	1	29
676.044	1	27
676.383	1	23
676.722	1	26
677.060	1	35
677.399	1	36
677.738	1	23
678.077	1	36
678.416	1	26
678.754	1	29
679.093	1	31
679.432	1	16
679.771	1	28
680.109	1	27
680.448	1	24
680.787	1	25
681.125	1	28
681.464	1	35
681.803	1	26
682.142	1	31
682.480	1	21
682.819	1	26
683.158	1	24
683.496	1	31
683.835	1	35
684.174	1	30
684.512	1	18
684.851	1	27
685.190	1	28
685.529	1	19
685.867	1	26
686.206	1	25
686.545	1	32
686.883	1	31
687.222	1	30
687.561	1	20
687.899	1	16
688.238	1	40
688.577	1	12
688.746	1	30