File: Data/GaN_150K_450ms/GaN_sample D_spot15_UVVIS_150 K_200um_450 ms 2x2mm1_258.txt
340.368	1	3
340.710	1	-1
341.052	1	-1
341.394	1	-7
341.737	1	10
342.079	1	-4
342.421	1	1
342.763	1	-2
343.105	1	1
343.447	1	8
343.789	1	13
344.131	1	-15
344.473	1	5
344.815	1	7
345.157	1	11
345.499	1	1
345.841	1	-3
346.183	1	0
346.526	1	11
346.868	1	-1
347.210	1	-5
347.552	1	9
347.894	1	-3
348.236	1	9
348.578	1	3
348.920	1	1
349.262	1	5
349.604	1	-2
349.946	1	4
350.288	1	0
350.630	1	1
350.972	1	10
351.314	1	3
351.656	1	6
351.998	1	7
352.340	1	3
352.682	1	-14
353.024	1	13
353.366	1	10
353.708	1	3
354.050	1	-10
354.392	1	5
354.734	1	2
355.076	1	9
355.418	1	-5
355.760	1	11
356.102	1	6
356.444	1	3
356.785	1	13
357.127	1	5
357.469	1	-4
357.811	1	-7
358.153	1	-8
358.495	1	12
358.837	1	14
359.179	1	5
359.521	1	16
359.863	1	-4
360.205	1	15
360.547	1	14
360.889	1	0
361.231	1	14
361.572	1	5
361.914	1	5
362.256	1	15
362.598	1	2
362.940	1	14
363.282	1	-2
363.624	1	12
363.966	1	-4
364.308	1	7
364.649	1	10
364.991	1	13
365.333	1	8
365.675	1	15
366.017	1	14
366.359	1	9
366.701	1	8
367.042	1	20
367.384	1	0
367.726	1	14
368.068	1	24
368.410	1	20
368.752	1	24
369.093	1	15
369.435	1	18
369.777	1	27
370.119	1	19
370.461	1	11
370.803	1	15
371.144	1	19
371.486	1	18
371.828	1	21
372.170	1	12
372.512	1	3
372.853	1	13
373.195	1	6
373.537	1	-3
373.879	1	12
374.220	1	14
374.562	1	14
374.904	1	7
375.246	1	16
375.588	1	2
375.929	1	8
376.271	1	6
376.613	1	11
376.955	1	11
377.296	1	6
377.638	1	9
377.980	1	10
378.321	1	11
378.663	1	4
379.005	1	8
379.347	1	3
379.688	1	0
380.030	1	8
380.372	1	7
380.714	1	5
381.055	1	-1
381.397	1	2
381.739	1	-6
382.080	1	7
382.422	1	8
382.764	1	6
383.105	1	-2
383.447	1	6
383.789	1	0
384.130	1	4
384.472	1	3
384.814	1	7
385.156	1	5
385.497	1	18
385.839	1	0
386.180	1	3
386.522	1	8
386.864	1	-6
387.205	1	6
387.547	1	13
387.889	1	-2
388.230	1	4
388.572	1	-7
388.914	1	6
389.255	1	3
389.597	1	-4
389.939	1	13
390.280	1	-2
390.622	1	-4
390.963	1	-11
391.305	1	3
391.647	1	-2
391.988	1	3
392.330	1	1
392.671	1	-2
393.013	1	7
393.355	1	13
393.696	1	4
394.038	1	2
394.379	1	7
394.721	1	1
395.062	1	-4
395.404	1	1
395.746	1	0
396.087	1	9
396.429	1	8
396.770	1	11
397.112	1	-3
397.453	1	-2
397.795	1	-3
398.136	1	8
398.478	1	-10
398.819	1	1
399.161	1	10
399.503	1	13
399.844	1	-5
400.186	1	7
400.527	1	5
400.869	1	3
401.210	1	3
401.552	1	4
401.893	1	4
402.235	1	4
402.576	1	9
402.918	1	2
403.259	1	0
403.601	1	12
403.942	1	6
404.284	1	13
404.625	1	-1
404.967	1	1
405.308	1	-13
405.649	1	-2
405.991	1	8
406.332	1	8
406.674	1	-2
407.015	1	4
407.357	1	8
407.698	1	7
408.040	1	14
408.381	1	-5
408.722	1	11
409.064	1	11
409.405	1	0
409.747	1	8
410.088	1	10
410.430	1	9
410.771	1	9
411.112	1	11
411.454	1	-3
411.795	1	0
412.137	1	-1
412.478	1	-5
412.819	1	4
413.161	1	5
413.502	1	4
413.844	1	8
414.185	1	1
414.526	1	-13
414.868	1	-2
415.209	1	-4
415.550	1	2
415.892	1	6
416.233	1	5
416.575	1	-7
416.916	1	0
417.257	1	-3
417.599	1	5
417.940	1	5
418.281	1	14
418.623	1	1
418.964	1	5
419.305	1	1
419.647	1	-1
419.988	1	14
420.329	1	9
420.671	1	11
421.012	1	2
421.353	1	8
421.695	1	10
422.036	1	17
422.377	1	0
422.718	1	7
423.060	1	7
423.401	1	0
423.742	1	18
424.084	1	3
424.425	1	8
424.766	1	2
425.107	1	-1
425.449	1	-9
425.790	1	2
426.131	1	-4
426.472	1	11
426.814	1	6
427.155	1	11
427.496	1	7
427.837	1	1
428.179	1	6
428.520	1	2
428.861	1	1
429.202	1	-3
429.544	1	2
429.885	1	9
430.226	1	-3
430.567	1	-10
430.909	1	-1
431.250	1	-2
431.591	1	8
431.932	1	-1
432.273	1	18
432.615	1	0
432.956	1	1
433.297	1	6
433.638	1	9
433.979	1	10
434.320	1	3
434.662	1	6
435.003	1	9
435.344	1	0
435.685	1	2
436.026	1	-1
436.368	1	-1
436.709	1	4
437.050	1	2
437.391	1	6
437.732	1	1
438.073	1	1
438.414	1	13
438.756	1	1
439.097	1	4
439.438	1	8
439.779	1	7
440.120	1	6
440.461	1	4
440.802	1	-7
441.143	1	3
441.485	1	-7
441.826	1	8
442.167	1	0
442.508	1	1
442.849	1	14
443.190	1	-1
443.531	1	-1
443.872	1	6
444.213	1	-1
444.554	1	8
444.895	1	6
445.237	1	11
445.578	1	-15
445.919	1	5
446.260	1	11
446.601	1	3
446.942	1	-1
447.283	1	16
447.624	1	-11
447.965	1	5
448.306	1	-2
448.647	1	-3
448.988	1	12
449.329	1	1
449.670	1	1
450.011	1	4
450.352	1	-3
450.693	1	1
451.034	1	-2
451.375	1	0
451.716	1	-7
452.057	1	4
452.398	1	10
452.739	1	7
453.080	1	3
453.421	1	8
453.762	1	4
454.103	1	8
454.444	1	-2
454.785	1	3
455.126	1	2
455.467	1	3
455.808	1	8
456.149	1	3
456.490	1	-5
456.831	1	-1
457.172	1	4
457.513	1	3
457.854	1	9
458.195	1	4
458.536	1	9
458.877	1	1
459.218	1	11
459.559	1	-4
459.899	1	-1
460.240	1	-3
460.581	1	-2
460.922	1	-1
461.263	1	20
461.604	1	-6
461.945	1	0
462.286	1	-3
462.627	1	1
462.968	1	7
463.309	1	1
463.649	1	-3
463.990	1	1
464.331	1	7
464.672	1	7
465.013	1	11
465.354	1	7
465.695	1	1
466.036	1	12
466.376	1	16
466.717	1	-6
467.058	1	5
467.399	1	1
467.740	1	10
468.081	1	10
468.422	1	1
468.762	1	6
469.103	1	1
469.444	1	11
469.785	1	-1
470.126	1	-1
470.467	1	-2
470.807	1	12
471.148	1	-5
471.489	1	5
471.830	1	14
472.171	1	11
472.511	1	3
472.852	1	2
473.193	1	2
473.534	1	3
473.875	1	3
474.215	1	0
474.556	1	-4
474.897	1	3
475.238	1	7
475.578	1	3
475.919	1	7
476.260	1	4
476.601	1	3
476.942	1	-1
477.282	1	-9
477.623	1	1
477.964	1	7
478.305	1	7
478.645	1	7
478.986	1	7
479.327	1	5
479.667	1	-9
480.008	1	8
480.349	1	-4
480.690	1	7
481.030	1	-1
481.371	1	-13
481.712	1	5
482.053	1	7
482.393	1	0
482.734	1	9
483.075	1	4
483.415	1	8
483.756	1	3
484.097	1	4
484.437	1	3
484.778	1	-2
485.119	1	-1
485.459	1	6
485.800	1	-9
486.141	1	10
486.481	1	-8
486.822	1	14
487.163	1	-2
487.503	1	8
487.844	1	-10
488.185	1	5
488.525	1	0
488.866	1	0
489.207	1	1
489.547	1	2
489.888	1	8
490.228	1	4
490.569	1	1
490.910	1	5
491.250	1	6
491.591	1	4
491.932	1	10
492.272	1	-2
492.613	1	6
492.953	1	3
493.294	1	-5
493.635	1	11
493.975	1	10
494.316	1	-5
494.656	1	16
494.997	1	-8
495.337	1	-7
495.678	1	-4
496.019	1	-1
496.359	1	0
496.700	1	-5
497.040	1	-2
497.381	1	-4
497.721	1	-1
498.062	1	3
498.403	1	7
498.743	1	-1
499.084	1	2
499.424	1	-2
499.765	1	-2
500.105	1	14
500.446	1	-5
500.786	1	-4
501.127	1	1
501.467	1	8
501.808	1	9
502.148	1	-2
502.489	1	-1
502.829	1	-7
503.170	1	3
503.510	1	-1
503.851	1	4
504.191	1	2
504.532	1	5
504.872	1	2
505.213	1	3
505.553	1	5
505.894	1	8
506.234	1	9
506.575	1	22
506.915	1	5
507.256	1	4
507.596	1	8
507.936	1	11
508.277	1	12
508.617	1	8
508.958	1	2
509.298	1	-5
509.639	1	5
509.979	1	2
510.319	1	9
510.660	1	4
511.000	1	5
511.341	1	13
511.681	1	3
512.022	1	-4
512.362	1	7
512.702	1	2
513.043	1	5
513.383	1	5
513.724	1	2
514.064	1	14
514.404	1	2
514.745	1	-3
515.085	1	10
515.425	1	5
515.766	1	6
516.106	1	8
516.447	1	11
516.787	1	-4
517.127	1	17
517.468	1	13
517.808	1	-1
518.148	1	10
518.489	1	0
518.829	1	10
519.169	1	4
519.510	1	-4
519.850	1	8
520.190	1	-6
520.531	1	10
520.871	1	-1
521.211	1	-3
521.552	1	-2
521.892	1	0
522.232	1	7
522.573	1	14
522.913	1	12
523.253	1	13
523.593	1	14
523.934	1	10
524.274	1	7
524.614	1	6
524.955	1	3
525.295	1	1
525.635	1	4
525.975	1	-3
526.316	1	-5
526.656	1	6
526.996	1	0
527.337	1	10
527.677	1	15
528.017	1	5
528.357	1	5
528.698	1	10
529.038	1	4
529.378	1	8
529.718	1	1
530.058	1	-2
530.399	1	2
530.739	1	5
531.079	1	-5
531.419	1	1
531.760	1	12
532.100	1	12
532.440	1	1
532.780	1	2
533.120	1	4
533.461	1	0
533.801	1	9
534.141	1	7
534.481	1	18
534.821	1	-1
535.162	1	4
535.502	1	0
535.842	1	3
536.182	1	-5
536.522	1	1
536.862	1	-2
537.203	1	5
537.543	1	3
537.883	1	13
538.223	1	17
538.563	1	-4
538.903	1	-3
539.243	1	1
539.584	1	0
539.924	1	5
540.264	1	15
540.604	1	6
540.944	1	7
541.284	1	8
541.624	1	8
541.964	1	4
542.305	1	9
542.645	1	1
542.985	1	-3
543.325	1	5
543.665	1	6
544.005	1	-6
544.345	1	15
544.685	1	1
545.025	1	3
545.365	1	0
545.705	1	6
546.045	1	12
546.386	1	6
546.726	1	7
547.066	1	-10
547.406	1	-10
547.746	1	6
548.086	1	4
548.426	1	7
548.766	1	6
549.106	1	-5
549.446	1	-7
549.786	1	2
550.126	1	8
550.466	1	5
550.806	1	11
551.146	1	10
551.486	1	5
551.826	1	-6
552.166	1	13
552.506	1	0
552.846	1	7
553.186	1	-6
553.526	1	9
553.866	1	2
554.206	1	7
554.546	1	11
554.886	1	3
555.226	1	4
555.566	1	8
555.906	1	-1
556.246	1	-3
556.586	1	3
556.926	1	2
557.266	1	14
557.606	1	-9
557.946	1	8
558.286	1	-12
558.626	1	5
558.966	1	2
559.306	1	12
559.646	1	13
559.986	1	9
560.325	1	6
560.665	1	1
561.005	1	-1
561.345	1	-6
561.685	1	8
562.025	1	-3
562.365	1	-2
562.705	1	13
563.045	1	10
563.385	1	-1
563.725	1	-4
564.064	1	0
564.404	1	7
564.744	1	9
565.084	1	2
565.424	1	-3
565.764	1	1
566.104	1	15
566.444	1	4
566.783	1	8
567.123	1	-4
567.463	1	6
567.803	1	8
568.143	1	-3
568.483	1	10
568.823	1	1
569.162	1	1
569.502	1	7
569.842	1	0
570.182	1	1
570.522	1	6
570.862	1	-14
571.201	1	14
571.541	1	1
571.881	1	0
572.221	1	-4
572.561	1	7
572.900	1	13
573.240	1	-3
573.580	1	-1
573.920	1	11
574.260	1	6
574.599	1	0
574.939	1	2
575.279	1	0
575.619	1	2
575.959	1	9
576.298	1	-8
576.638	1	8
576.978	1	5
577.318	1	5
577.657	1	-8
577.997	1	6
578.337	1	-1
578.677	1	3
579.016	1	2
579.356	1	1
579.696	1	1
580.036	1	5
580.375	1	7
580.715	1	6
581.055	1	7
581.394	1	5
581.734	1	10
582.074	1	6
582.414	1	-2
582.753	1	-1
583.093	1	10
583.433	1	12
583.772	1	10
584.112	1	3
584.452	1	9
584.791	1	3
585.131	1	-1
585.471	1	7
585.811	1	1
586.150	1	4
586.490	1	3
586.830	1	5
587.169	1	1
587.509	1	2
587.849	1	8
588.188	1	0
588.528	1	2
588.867	1	-2
589.207	1	-5
589.547	1	8
589.886	1	4
590.226	1	-3
590.566	1	4
590.905	1	0
591.245	1	-1
591.585	1	-1
591.924	1	4
592.264	1	-1
592.603	1	-17
592.943	1	-4
593.283	1	12
593.622	1	4
593.962	1	2
594.301	1	-6
594.641	1	6
594.981	1	7
595.320	1	3
595.660	1	5
595.999	1	1
596.339	1	3
596.678	1	-7
597.018	1	0
597.358	1	0
597.697	1	-1
598.037	1	-2
598.376	1	-4
598.716	1	10
599.055	1	3
599.395	1	3
599.734	1	2
600.074	1	-5
600.413	1	10
600.753	1	3
601.092	1	-5
601.432	1	-8
601.771	1	8
602.111	1	-2
602.451	1	-7
602.790	1	2
603.130	1	7
603.469	1	4
603.809	1	4
604.148	1	2
604.487	1	0
604.827	1	2
605.166	1	7
605.506	1	-1
605.845	1	2
606.185	1	-5
606.524	1	-6
606.864	1	15
607.203	1	7
607.543	1	4
607.882	1	9
608.222	1	7
608.561	1	5
608.901	1	10
609.240	1	10
609.579	1	-4
609.919	1	-3
610.258	1	5
610.598	1	-5
610.937	1	-6
611.277	1	10
611.616	1	6
611.955	1	-1
612.295	1	6
612.634	1	4
612.974	1	-8
613.313	1	2
613.652	1	11
613.992	1	-2
614.331	1	11
614.671	1	-1
615.010	1	7
615.349	1	4
615.689	1	4
616.028	1	10
616.368	1	7
616.707	1	15
617.046	1	-4
617.386	1	5
617.725	1	-2
618.064	1	-3
618.404	1	-2
618.743	1	1
619.082	1	21
619.422	1	15
619.761	1	-2
620.100	1	3
620.440	1	11
620.779	1	0
621.118	1	11
621.458	1	2
621.797	1	2
622.136	1	8
622.476	1	8
622.815	1	-2
623.154	1	-3
623.494	1	-2
623.833	1	-1
624.172	1	7
624.511	1	-2
624.851	1	-1
625.190	1	5
625.529	1	-3
625.869	1	6
626.208	1	-8
626.547	1	-9
626.886	1	-2
627.226	1	5
627.565	1	7
627.904	1	0
628.243	1	12
628.583	1	10
628.922	1	-7
629.261	1	5
629.600	1	-4
629.940	1	11
630.279	1	2
630.618	1	12
630.957	1	9
631.297	1	8
631.636	1	4
631.975	1	4
632.314	1	-3
632.653	1	1
632.993	1	6
633.332	1	5
633.671	1	9
634.010	1	3
634.349	1	7
634.689	1	-4
635.028	1	-5
635.367	1	7
635.706	1	-2
636.045	1	-2
636.384	1	2
636.724	1	-1
637.063	1	-8
637.402	1	7
637.741	1	0
638.080	1	-7
638.419	1	0
638.759	1	5
639.098	1	4
639.437	1	-2
639.776	1	7
640.115	1	-6
640.454	1	-3
640.793	1	2
641.132	1	2
641.472	1	5
641.811	1	-1
642.150	1	7
642.489	1	0
642.828	1	14
643.167	1	5
643.506	1	12
643.845	1	13
644.184	1	5
644.524	1	1
644.863	1	11
645.202	1	-6
645.541	1	-7
645.880	1	12
646.219	1	6
646.558	1	-11
646.897	1	-2
647.236	1	-11
647.575	1	9
647.914	1	-4
648.253	1	7
648.592	1	11
648.931	1	7
649.270	1	13
649.610	1	-6
649.949	1	3
650.288	1	6
650.627	1	-3
650.966	1	8
651.305	1	4
651.644	1	12
651.983	1	-3
652.322	1	5
652.661	1	5
653.000	1	3
653.339	1	-5
653.678	1	12
654.017	1	5
654.356	1	1
654.695	1	13
655.034	1	-4
655.373	1	4
655.712	1	8
656.051	1	-1
656.390	1	-4
656.729	1	5
657.068	1	1
657.406	1	3
657.745	1	10
658.084	1	-5
658.423	1	4
658.762	1	-1
659.101	1	-4
659.440	1	9
659.779	1	-1
660.118	1	8
660.457	1	-4
660.796	1	2
661.135	1	11
661.474	1	0
661.813	1	0
662.152	1	5
662.491	1	1
662.829	1	5
663.168	1	-1
663.507	1	8
663.846	1	-8
664.185	1	0
664.524	1	10
664.863	1	-7
665.202	1	8
665.541	1	5
665.879	1	3
666.218	1	10
666.557	1	-6
666.896	1	7
667.235	1	-7
667.574	1	-3
667.913	1	13
668.251	1	-8
668.590	1	2
668.929	1	0
669.268	1	1
669.607	1	-10
669.946	1	-6
670.285	1	-1
670.623	1	12
670.962	1	-5
671.301	1	6
671.640	1	5
671.979	1	-6
672.317	1	9
672.656	1	6
672.995	1	-2
673.334	1	-2
673.673	1	13
674.011	1	4
674.350	1	9
674.689	1	-11
675.028	1	1
675.367	1	5
675.705	1	-2
676.044	1	10
676.383	1	10
676.722	1	2
677.060	1	8
677.399	1	5
677.738	1	-2
678.077	1	-5
678.416	1	-1
678.754	1	1
679.093	1	5
679.432	1	-7
679.771	1	3
680.109	1	-2
680.448	1	-2
680.787	1	-10
681.125	1	-3
681.464	1	6
681.803	1	-6
682.142	1	-6
682.480	1	-7
682.819	1	-1
683.158	1	0
683.496	1	0
683.835	1	9
684.174	1	4
684.512	1	5
684.851	1	-2
685.190	1	5
685.529	1	-10
685.867	1	-4
686.206	1	-5
686.545	1	2
686.883	1	13
687.222	1	-5
687.561	1	3
687.899	1	1
688.238	1	1
688.577	1	-5
688.746	1	10