File: Data/GaN_150K_450ms/GaN_sample D_spot15_UVVIS_150 K_200um_450 ms 2x2mm1_318.txt
340.368	1	-2
340.710	1	-1
341.052	1	8
341.394	1	-8
341.737	1	7
342.079	1	-2
342.421	1	0
342.763	1	0
343.105	1	8
343.447	1	-1
343.789	1	6
344.131	1	-6
344.473	1	0
344.815	1	4
345.157	1	14
345.499	1	0
345.841	1	2
346.183	1	-2
346.526	1	7
346.868	1	2
347.210	1	0
347.552	1	13
347.894	1	-2
348.236	1	13
348.578	1	4
348.920	1	1
349.262	1	9
349.604	1	0
349.946	1	0
350.288	1	-2
350.630	1	-5
350.972	1	4
351.314	1	-10
351.656	1	7
351.998	1	5
352.340	1	8
352.682	1	-15
353.024	1	15
353.366	1	7
353.708	1	2
354.050	1	-9
354.392	1	-11
354.734	1	-4
355.076	1	2
355.418	1	-4
355.760	1	6
356.102	1	2
356.444	1	8
356.785	1	8
357.127	1	9
357.469	1	2
357.811	1	-2
358.153	1	-12
358.495	1	6
358.837	1	14
359.179	1	7
359.521	1	14
359.863	1	6
360.205	1	2
360.547	1	2
360.889	1	2
361.231	1	3
361.572	1	17
361.914	1	6
362.256	1	7
362.598	1	12
362.940	1	4
363.282	1	-1
363.624	1	9
363.966	1	2
364.308	1	8
364.649	1	6
364.991	1	7
365.333	1	6
365.675	1	12
366.017	1	10
366.359	1	1
366.701	1	10
367.042	1	15
367.384	1	1
367.726	1	0
368.068	1	12
368.410	1	16
368.752	1	21
369.093	1	7
369.435	1	19
369.777	1	18
370.119	1	10
370.461	1	9
370.803	1	4
371.144	1	8
371.486	1	17
371.828	1	3
372.170	1	4
372.512	1	-3
372.853	1	16
373.195	1	6
373.537	1	-4
373.879	1	3
374.220	1	8
374.562	1	15
374.904	1	5
375.246	1	6
375.588	1	-1
375.929	1	7
376.271	1	2
376.613	1	4
376.955	1	-1
377.296	1	9
377.638	1	4
377.980	1	0
378.321	1	9
378.663	1	-1
379.005	1	12
379.347	1	5
379.688	1	10
380.030	1	11
380.372	1	12
380.714	1	2
381.055	1	-6
381.397	1	6
381.739	1	-10
382.080	1	7
382.422	1	9
382.764	1	0
383.105	1	-1
383.447	1	8
383.789	1	1
384.130	1	11
384.472	1	0
384.814	1	-1
385.156	1	-1
385.497	1	13
385.839	1	10
386.180	1	1
386.522	1	0
386.864	1	3
387.205	1	-2
387.547	1	4
387.889	1	6
388.230	1	3
388.572	1	-3
388.914	1	9
389.255	1	1
389.597	1	-4
389.939	1	8
390.280	1	1
390.622	1	-9
390.963	1	-11
391.305	1	1
391.647	1	-7
391.988	1	-4
392.330	1	-2
392.671	1	3
393.013	1	11
393.355	1	11
393.696	1	6
394.038	1	2
394.379	1	6
394.721	1	-3
395.062	1	-10
395.404	1	4
395.746	1	1
396.087	1	6
396.429	1	1
396.770	1	1
397.112	1	1
397.453	1	-6
397.795	1	-6
398.136	1	-6
398.478	1	-2
398.819	1	1
399.161	1	2
399.503	1	5
399.844	1	-3
400.186	1	5
400.527	1	12
400.869	1	-4
401.210	1	5
401.552	1	8
401.893	1	5
402.235	1	4
402.576	1	-1
402.918	1	-2
403.259	1	2
403.601	1	8
403.942	1	6
404.284	1	13
404.625	1	1
404.967	1	2
405.308	1	-6
405.649	1	4
405.991	1	2
406.332	1	-2
406.674	1	0
407.015	1	8
407.357	1	6
407.698	1	7
408.040	1	3
408.381	1	-5
408.722	1	4
409.064	1	3
409.405	1	-2
409.747	1	7
410.088	1	5
410.430	1	10
410.771	1	7
411.112	1	-4
411.454	1	-6
411.795	1	-6
412.137	1	2
412.478	1	3
412.819	1	7
413.161	1	-4
413.502	1	10
413.844	1	10
414.185	1	0
414.526	1	-10
414.868	1	-7
415.209	1	-2
415.550	1	3
415.892	1	4
416.233	1	4
416.575	1	-9
416.916	1	-11
417.257	1	4
417.599	1	3
417.940	1	-8
418.281	1	6
418.623	1	-7
418.964	1	12
419.305	1	3
419.647	1	8
419.988	1	12
420.329	1	6
420.671	1	10
421.012	1	-3
421.353	1	2
421.695	1	2
422.036	1	12
422.377	1	3
422.718	1	7
423.060	1	5
423.401	1	-2
423.742	1	8
424.084	1	5
424.425	1	9
424.766	1	3
425.107	1	-1
425.449	1	0
425.790	1	5
426.131	1	-3
426.472	1	10
426.814	1	5
427.155	1	8
427.496	1	5
427.837	1	4
428.179	1	12
428.520	1	0
428.861	1	7
429.202	1	-1
429.544	1	3
429.885	1	9
430.226	1	-13
430.567	1	-9
430.909	1	-4
431.250	1	7
431.591	1	6
431.932	1	7
432.273	1	6
432.615	1	-5
432.956	1	0
433.297	1	1
433.638	1	3
433.979	1	5
434.320	1	4
434.662	1	0
435.003	1	12
435.344	1	1
435.685	1	-5
436.026	1	0
436.368	1	-4
436.709	1	2
437.050	1	-3
437.391	1	2
437.732	1	1
438.073	1	-3
438.414	1	9
438.756	1	2
439.097	1	-1
439.438	1	4
439.779	1	-3
440.120	1	9
440.461	1	4
440.802	1	-2
441.143	1	-4
441.485	1	-1
441.826	1	-1
442.167	1	4
442.508	1	1
442.849	1	-1
443.190	1	-1
443.531	1	-1
443.872	1	-10
444.213	1	-9
444.554	1	5
444.895	1	-9
445.237	1	2
445.578	1	-4
445.919	1	-4
446.260	1	9
446.601	1	-1
446.942	1	-5
447.283	1	5
447.624	1	-7
447.965	1	0
448.306	1	2
448.647	1	0
448.988	1	-3
449.329	1	1
449.670	1	7
450.011	1	2
450.352	1	-9
450.693	1	10
451.034	1	-11
451.375	1	4
451.716	1	0
452.057	1	4
452.398	1	3
452.739	1	4
453.080	1	4
453.421	1	12
453.762	1	0
454.103	1	0
454.444	1	2
454.785	1	9
455.126	1	3
455.467	1	-1
455.808	1	9
456.149	1	-1
456.490	1	-17
456.831	1	-1
457.172	1	2
457.513	1	-2
457.854	1	3
458.195	1	6
458.536	1	5
458.877	1	7
459.218	1	8
459.559	1	2
459.899	1	2
460.240	1	-1
460.581	1	-5
460.922	1	11
461.263	1	10
461.604	1	-4
461.945	1	4
462.286	1	-8
462.627	1	-2
462.968	1	3
463.309	1	4
463.649	1	0
463.990	1	1
464.331	1	6
464.672	1	9
465.013	1	12
465.354	1	6
465.695	1	6
466.036	1	13
466.376	1	15
466.717	1	-15
467.058	1	3
467.399	1	-10
467.740	1	14
468.081	1	6
468.422	1	8
468.762	1	2
469.103	1	3
469.444	1	-5
469.785	1	-1
470.126	1	11
470.467	1	-1
470.807	1	-4
471.148	1	-4
471.489	1	16
471.830	1	-2
472.171	1	8
472.511	1	1
472.852	1	13
473.193	1	6
473.534	1	6
473.875	1	-1
474.215	1	8
474.556	1	1
474.897	1	-1
475.238	1	8
475.578	1	-9
475.919	1	-9
476.260	1	-6
476.601	1	-3
476.942	1	0
477.282	1	-8
477.623	1	-6
477.964	1	4
478.305	1	3
478.645	1	7
478.986	1	7
479.327	1	5
479.667	1	1
480.008	1	5
480.349	1	3
480.690	1	4
481.030	1	-2
481.371	1	-2
481.712	1	10
482.053	1	7
482.393	1	-1
482.734	1	-1
483.075	1	-2
483.415	1	12
483.756	1	4
484.097	1	7
484.437	1	9
484.778	1	-2
485.119	1	6
485.459	1	-1
485.800	1	-2
486.141	1	4
486.481	1	-1
486.822	1	10
487.163	1	-2
487.503	1	0
487.844	1	-6
488.185	1	-1
488.525	1	-3
488.866	1	-7
489.207	1	1
489.547	1	-4
489.888	1	-2
490.228	1	3
490.569	1	-1
490.910	1	2
491.250	1	14
491.591	1	-4
491.932	1	8
492.272	1	-8
492.613	1	-10
492.953	1	-4
493.294	1	-10
493.635	1	3
493.975	1	8
494.316	1	-5
494.656	1	7
494.997	1	2
495.337	1	1
495.678	1	-1
496.019	1	-4
496.359	1	-5
496.700	1	9
497.040	1	-11
497.381	1	-5
497.721	1	-2
498.062	1	0
498.403	1	9
498.743	1	0
499.084	1	9
499.424	1	0
499.765	1	2
500.105	1	4
500.446	1	-7
500.786	1	2
501.127	1	-3
501.467	1	9
501.808	1	0
502.148	1	-2
502.489	1	2
502.829	1	-8
503.170	1	5
503.510	1	0
503.851	1	6
504.191	1	-1
504.532	1	18
504.872	1	-1
505.213	1	-10
505.553	1	-1
505.894	1	6
506.234	1	8
506.575	1	9
506.915	1	0
507.256	1	2
507.596	1	5
507.936	1	15
508.277	1	14
508.617	1	9
508.958	1	5
509.298	1	4
509.639	1	-1
509.979	1	2
510.319	1	-1
510.660	1	-7
511.000	1	-4
511.341	1	3
511.681	1	4
512.022	1	-8
512.362	1	12
512.702	1	4
513.043	1	5
513.383	1	5
513.724	1	-1
514.064	1	3
514.404	1	3
514.745	1	5
515.085	1	12
515.425	1	6
515.766	1	2
516.106	1	-5
516.447	1	2
516.787	1	-1
517.127	1	9
517.468	1	13
517.808	1	-4
518.148	1	2
518.489	1	-1
518.829	1	2
519.169	1	-1
519.510	1	-7
519.850	1	-4
520.190	1	4
520.531	1	2
520.871	1	5
521.211	1	2
521.552	1	3
521.892	1	2
522.232	1	0
522.573	1	2
522.913	1	4
523.253	1	14
523.593	1	3
523.934	1	1
524.274	1	-5
524.614	1	4
524.955	1	4
525.295	1	8
525.635	1	2
525.975	1	3
526.316	1	-7
526.656	1	5
526.996	1	0
527.337	1	5
527.677	1	16
528.017	1	4
528.357	1	7
528.698	1	6
529.038	1	10
529.378	1	3
529.718	1	1
530.058	1	-1
530.399	1	-3
530.739	1	4
531.079	1	2
531.419	1	5
531.760	1	7
532.100	1	3
532.440	1	9
532.780	1	13
533.120	1	-2
533.461	1	1
533.801	1	7
534.141	1	4
534.481	1	5
534.821	1	-2
535.162	1	4
535.502	1	1
535.842	1	2
536.182	1	1
536.522	1	-6
536.862	1	3
537.203	1	9
537.543	1	5
537.883	1	9
538.223	1	16
538.563	1	4
538.903	1	-1
539.243	1	8
539.584	1	2
539.924	1	3
540.264	1	15
540.604	1	11
540.944	1	6
541.284	1	6
541.624	1	-3
541.964	1	-6
542.305	1	19
542.645	1	0
542.985	1	-2
543.325	1	5
543.665	1	-5
544.005	1	-3
544.345	1	11
544.685	1	-7
545.025	1	8
545.365	1	12
545.705	1	0
546.045	1	11
546.386	1	-2
546.726	1	2
547.066	1	2
547.406	1	0
547.746	1	-3
548.086	1	12
548.426	1	1
548.766	1	2
549.106	1	-4
549.446	1	9
549.786	1	0
550.126	1	12
550.466	1	5
550.806	1	17
551.146	1	5
551.486	1	5
551.826	1	-10
552.166	1	-9
552.506	1	4
552.846	1	9
553.186	1	-9
553.526	1	5
553.866	1	2
554.206	1	5
554.546	1	6
554.886	1	-7
555.226	1	-2
555.566	1	7
555.906	1	3
556.246	1	14
556.586	1	7
556.926	1	-2
557.266	1	2
557.606	1	-11
557.946	1	8
558.286	1	-14
558.626	1	3
558.966	1	-3
559.306	1	15
559.646	1	1
559.986	1	-1
560.325	1	6
560.665	1	-3
561.005	1	3
561.345	1	-6
561.685	1	2
562.025	1	-4
562.365	1	-1
562.705	1	5
563.045	1	4
563.385	1	10
563.725	1	-5
564.064	1	-7
564.404	1	-2
564.744	1	9
565.084	1	1
565.424	1	-4
565.764	1	-4
566.104	1	12
566.444	1	8
566.783	1	10
567.123	1	1
567.463	1	9
567.803	1	1
568.143	1	-1
568.483	1	4
568.823	1	-6
569.162	1	-1
569.502	1	0
569.842	1	-4
570.182	1	1
570.522	1	-7
570.862	1	-3
571.201	1	4
571.541	1	0
571.881	1	-7
572.221	1	-1
572.561	1	12
572.900	1	13
573.240	1	8
573.580	1	7
573.920	1	7
574.260	1	9
574.599	1	9
574.939	1	5
575.279	1	-3
575.619	1	-8
575.959	1	-10
576.298	1	-3
576.638	1	10
576.978	1	0
577.318	1	4
577.657	1	3
577.997	1	6
578.337	1	1
578.677	1	-1
579.016	1	-5
579.356	1	3
579.696	1	2
580.036	1	5
580.375	1	4
580.715	1	2
581.055	1	5
581.394	1	2
581.734	1	-1
582.074	1	-5
582.414	1	-1
582.753	1	4
583.093	1	2
583.433	1	5
583.772	1	8
584.112	1	-1
584.452	1	1
584.791	1	6
585.131	1	3
585.471	1	-8
585.811	1	2
586.150	1	-2
586.490	1	3
586.830	1	-4
587.169	1	4
587.509	1	-2
587.849	1	14
588.188	1	9
588.528	1	2
588.867	1	9
589.207	1	5
589.547	1	7
589.886	1	3
590.226	1	1
590.566	1	1
590.905	1	1
591.245	1	0
591.585	1	2
591.924	1	-4
592.264	1	-11
592.603	1	-15
592.943	1	-6
593.283	1	3
593.622	1	-6
593.962	1	1
594.301	1	3
594.641	1	6
594.981	1	4
595.320	1	6
595.660	1	5
595.999	1	6
596.339	1	-2
596.678	1	-5
597.018	1	-1
597.358	1	4
597.697	1	-3
598.037	1	-1
598.376	1	-9
598.716	1	6
599.055	1	4
599.395	1	-8
599.734	1	-1
600.074	1	-4
600.413	1	1
600.753	1	5
601.092	1	-8
601.432	1	-5
601.771	1	2
602.111	1	-7
602.451	1	-7
602.790	1	7
603.130	1	1
603.469	1	1
603.809	1	1
604.148	1	-9
604.487	1	7
604.827	1	0
605.166	1	-4
605.506	1	-4
605.845	1	6
606.185	1	1
606.524	1	-2
606.864	1	13
607.203	1	6
607.543	1	8
607.882	1	5
608.222	1	-1
608.561	1	-1
608.901	1	2
609.240	1	12
609.579	1	-3
609.919	1	1
610.258	1	4
610.598	1	7
610.937	1	1
611.277	1	6
611.616	1	9
611.955	1	-3
612.295	1	4
612.634	1	4
612.974	1	-2
613.313	1	1
613.652	1	13
613.992	1	-6
614.331	1	13
614.671	1	2
615.010	1	5
615.349	1	0
615.689	1	-8
616.028	1	8
616.368	1	14
616.707	1	6
617.046	1	3
617.386	1	14
617.725	1	0
618.064	1	-6
618.404	1	-5
618.743	1	1
619.082	1	15
619.422	1	13
619.761	1	0
620.100	1	2
620.440	1	12
620.779	1	5
621.118	1	5
621.458	1	9
621.797	1	0
622.136	1	-3
622.476	1	2
622.815	1	0
623.154	1	-9
623.494	1	-5
623.833	1	4
624.172	1	-2
624.511	1	-6
624.851	1	6
625.190	1	5
625.529	1	1
625.869	1	7
626.208	1	0
626.547	1	-5
626.886	1	-2
627.226	1	4
627.565	1	5
627.904	1	-5
628.243	1	18
628.583	1	0
628.922	1	7
629.261	1	-3
629.600	1	-1
629.940	1	5
630.279	1	7
630.618	1	6
630.957	1	-7
631.297	1	8
631.636	1	-3
631.975	1	5
632.314	1	8
632.653	1	12
632.993	1	2
633.332	1	-5
633.671	1	1
634.010	1	3
634.349	1	11
634.689	1	1
635.028	1	-6
635.367	1	9
635.706	1	-3
636.045	1	-5
636.384	1	2
636.724	1	-10
637.063	1	-7
637.402	1	9
637.741	1	1
638.080	1	2
638.419	1	3
638.759	1	1
639.098	1	6
639.437	1	-7
639.776	1	-3
640.115	1	-12
640.454	1	5
640.793	1	3
641.132	1	7
641.472	1	9
641.811	1	2
642.150	1	2
642.489	1	5
642.828	1	10
643.167	1	1
643.506	1	-2
643.845	1	11
644.184	1	-1
644.524	1	-7
644.863	1	1
645.202	1	-2
645.541	1	-2
645.880	1	5
646.219	1	7
646.558	1	-10
646.897	1	-3
647.236	1	-3
647.575	1	10
647.914	1	9
648.253	1	18
648.592	1	8
648.931	1	-2
649.270	1	11
649.610	1	-1
649.949	1	-8
650.288	1	8
650.627	1	-4
650.966	1	3
651.305	1	7
651.644	1	8
651.983	1	-8
652.322	1	6
652.661	1	-1
653.000	1	4
653.339	1	-2
653.678	1	4
654.017	1	7
654.356	1	5
654.695	1	1
655.034	1	1
655.373	1	-5
655.712	1	6
656.051	1	-5
656.390	1	8
656.729	1	1
657.068	1	-4
657.406	1	-4
657.745	1	10
658.084	1	9
658.423	1	13
658.762	1	3
659.101	1	-5
659.440	1	4
659.779	1	-1
660.118	1	1
660.457	1	-7
660.796	1	5
661.135	1	7
661.474	1	5
661.813	1	-3
662.152	1	-4
662.491	1	-6
662.829	1	2
663.168	1	-4
663.507	1	9
663.846	1	-10
664.185	1	-3
664.524	1	6
664.863	1	-1
665.202	1	-1
665.541	1	5
665.879	1	-3
666.218	1	-7
666.557	1	-4
666.896	1	8
667.235	1	-8
667.574	1	-6
667.913	1	7
668.251	1	-4
668.590	1	-3
668.929	1	-5
669.268	1	-3
669.607	1	-4
669.946	1	8
670.285	1	7
670.623	1	11
670.962	1	-2
671.301	1	-4
671.640	1	-3
671.979	1	-4
672.317	1	3
672.656	1	6
672.995	1	4
673.334	1	4
673.673	1	7
674.011	1	2
674.350	1	-4
674.689	1	3
675.028	1	5
675.367	1	8
675.705	1	-5
676.044	1	3
676.383	1	4
676.722	1	0
677.060	1	5
677.399	1	12
677.738	1	-2
678.077	1	-2
678.416	1	-4
678.754	1	2
679.093	1	4
679.432	1	3
679.771	1	-2
680.109	1	12
680.448	1	2
680.787	1	-11
681.125	1	1
681.464	1	0
681.803	1	0
682.142	1	0
682.480	1	-2
682.819	1	-13
683.158	1	-2
683.496	1	-4
683.835	1	3
684.174	1	-2
684.512	1	3
684.851	1	-3
685.190	1	-8
685.529	1	4
685.867	1	1
686.206	1	1
686.545	1	3
686.883	1	4
687.222	1	-3
687.561	1	2
687.899	1	-5
688.238	1	1
688.577	1	-3
688.746	1	2