File: Data/GaN_150K_450ms/GaN_sample D_spot15_UVVIS_150 K_200um_450 ms 2x2mm1_49.txt
340.368	1	7
340.710	1	5
341.052	1	11
341.394	1	2
341.737	1	3
342.079	1	8
342.421	1	1
342.763	1	7
343.105	1	15
343.447	1	13
343.789	1	8
344.131	1	-1
344.473	1	4
344.815	1	10
345.157	1	14
345.499	1	7
345.841	1	16
346.183	1	11
346.526	1	14
346.868	1	8
347.210	1	7
347.552	1	31
347.894	1	6
348.236	1	7
348.578	1	19
348.920	1	17
349.262	1	23
349.604	1	5
349.946	1	9
350.288	1	7
350.630	1	5
350.972	1	22
351.314	1	13
351.656	1	17
351.998	1	22
352.340	1	19
352.682	1	15
353.024	1	37
353.366	1	26
353.708	1	26
354.050	1	25
354.392	1	24
354.734	1	27
355.076	1	48
355.418	1	35
355.760	1	45
356.102	1	35
356.444	1	60
356.785	1	44
357.127	1	54
357.469	1	59
357.811	1	51
358.153	1	48
358.495	1	64
358.837	1	66
359.179	1	75
359.521	1	91
359.863	1	92
360.205	1	122
360.547	1	115
360.889	1	140
361.231	1	162
361.572	1	186
361.914	1	217
362.256	1	250
362.598	1	285
362.940	1	348
363.282	1	397
363.624	1	472
363.966	1	541
364.308	1	664
364.649	1	766
364.991	1	915
365.333	1	1091
365.675	1	1300
366.017	1	1471
366.359	1	1698
366.701	1	1848
367.042	1	2044
367.384	1	2192
367.726	1	2361
368.068	1	2413
368.410	1	2481
368.752	1	2427
369.093	1	2336
369.435	1	2240
369.777	1	2083
370.119	1	1957
370.461	1	1740
370.803	1	1611
371.144	1	1426
371.486	1	1311
371.828	1	1230
372.170	1	1129
372.512	1	1014
372.853	1	1000
373.195	1	908
373.537	1	857
373.879	1	805
374.220	1	787
374.562	1	741
374.904	1	693
375.246	1	648
375.588	1	615
375.929	1	578
376.271	1	555
376.613	1	522
376.955	1	494
377.296	1	476
377.638	1	450
377.980	1	429
378.321	1	398
378.663	1	394
379.005	1	387
379.347	1	374
379.688	1	382
380.030	1	379
380.372	1	403
380.714	1	411
381.055	1	438
381.397	1	463
381.739	1	474
382.080	1	502
382.422	1	539
382.764	1	569
383.105	1	615
383.447	1	646
383.789	1	681
384.130	1	713
384.472	1	743
384.814	1	798
385.156	1	826
385.497	1	859
385.839	1	838
386.180	1	819
386.522	1	825
386.864	1	813
387.205	1	823
387.547	1	810
387.889	1	760
388.230	1	767
388.572	1	733
388.914	1	745
389.255	1	747
389.597	1	720
389.939	1	749
390.280	1	728
390.622	1	726
390.963	1	693
391.305	1	701
391.647	1	679
391.988	1	664
392.330	1	649
392.671	1	643
393.013	1	630
393.355	1	620
393.696	1	624
394.038	1	601
394.379	1	631
394.721	1	631
395.062	1	623
395.404	1	645
395.746	1	635
396.087	1	665
396.429	1	694
396.770	1	680
397.112	1	726
397.453	1	697
397.795	1	670
398.136	1	691
398.478	1	664
398.819	1	655
399.161	1	653
399.503	1	607
399.844	1	589
400.186	1	579
400.527	1	562
400.869	1	549
401.210	1	524
401.552	1	496
401.893	1	487
402.235	1	500
402.576	1	487
402.918	1	472
403.259	1	466
403.601	1	465
403.942	1	467
404.284	1	476
404.625	1	455
404.967	1	437
405.308	1	435
405.649	1	437
405.991	1	444
406.332	1	432
406.674	1	423
407.015	1	422
407.357	1	415
407.698	1	409
408.040	1	400
408.381	1	396
408.722	1	399
409.064	1	381
409.405	1	379
409.747	1	383
410.088	1	393
410.430	1	375
410.771	1	361
411.112	1	363
411.454	1	348
411.795	1	330
412.137	1	317
412.478	1	309
412.819	1	317
413.161	1	293
413.502	1	278
413.844	1	286
414.185	1	283
414.526	1	252
414.868	1	259
415.209	1	263
415.550	1	272
415.892	1	283
416.233	1	266
416.575	1	260
416.916	1	254
417.257	1	268
417.599	1	265
417.940	1	256
418.281	1	267
418.623	1	259
418.964	1	285
419.305	1	247
419.647	1	243
419.988	1	255
420.329	1	235
420.671	1	229
421.012	1	219
421.353	1	224
421.695	1	199
422.036	1	199
422.377	1	191
422.718	1	200
423.060	1	180
423.401	1	175
423.742	1	204
424.084	1	174
424.425	1	193
424.766	1	179
425.107	1	181
425.449	1	171
425.790	1	182
426.131	1	174
426.472	1	189
426.814	1	179
427.155	1	170
427.496	1	164
427.837	1	162
428.179	1	180
428.520	1	159
428.861	1	170
429.202	1	144
429.544	1	140
429.885	1	153
430.226	1	145
430.567	1	142
430.909	1	134
431.250	1	143
431.591	1	130
431.932	1	115
432.273	1	132
432.615	1	116
432.956	1	133
433.297	1	132
433.638	1	131
433.979	1	113
434.320	1	122
434.662	1	124
435.003	1	126
435.344	1	107
435.685	1	103
436.026	1	111
436.368	1	91
436.709	1	111
437.050	1	100
437.391	1	103
437.732	1	103
438.073	1	102
438.414	1	99
438.756	1	101
439.097	1	97
439.438	1	94
439.779	1	97
440.120	1	106
440.461	1	108
440.802	1	99
441.143	1	89
441.485	1	89
441.826	1	80
442.167	1	91
442.508	1	98
442.849	1	85
443.190	1	94
443.531	1	97
443.872	1	71
444.213	1	76
444.554	1	95
444.895	1	83
445.237	1	97
445.578	1	77
445.919	1	86
446.260	1	82
446.601	1	81
446.942	1	78
447.283	1	90
447.624	1	61
447.965	1	76
448.306	1	77
448.647	1	70
448.988	1	88
449.329	1	81
449.670	1	71
450.011	1	69
450.352	1	68
450.693	1	81
451.034	1	76
451.375	1	68
451.716	1	71
452.057	1	67
452.398	1	80
452.739	1	70
453.080	1	74
453.421	1	77
453.762	1	73
454.103	1	70
454.444	1	71
454.785	1	71
455.126	1	71
455.467	1	64
455.808	1	79
456.149	1	58
456.490	1	60
456.831	1	70
457.172	1	65
457.513	1	61
457.854	1	60
458.195	1	59
458.536	1	59
458.877	1	64
459.218	1	73
459.559	1	56
459.899	1	56
460.240	1	56
460.581	1	66
460.922	1	56
461.263	1	66
461.604	1	62
461.945	1	62
462.286	1	52
462.627	1	51
462.968	1	64
463.309	1	69
463.649	1	61
463.990	1	57
464.331	1	60
464.672	1	60
465.013	1	62
465.354	1	66
465.695	1	57
466.036	1	62
466.376	1	70
466.717	1	51
467.058	1	59
467.399	1	47
467.740	1	84
468.081	1	64
468.422	1	65
468.762	1	53
469.103	1	51
469.444	1	57
469.785	1	50
470.126	1	58
470.467	1	59
470.807	1	48
471.148	1	56
471.489	1	59
471.830	1	57
472.171	1	56
472.511	1	60
472.852	1	58
473.193	1	69
473.534	1	52
473.875	1	52
474.215	1	48
474.556	1	55
474.897	1	56
475.238	1	58
475.578	1	54
475.919	1	60
476.260	1	53
476.601	1	57
476.942	1	54
477.282	1	53
477.623	1	52
477.964	1	70
478.305	1	61
478.645	1	58
478.986	1	63
479.327	1	71
479.667	1	60
480.008	1	63
480.349	1	56
480.690	1	67
481.030	1	67
481.371	1	59
481.712	1	67
482.053	1	70
482.393	1	60
482.734	1	67
483.075	1	63
483.415	1	65
483.756	1	69
484.097	1	64
484.437	1	73
484.778	1	73
485.119	1	77
485.459	1	84
485.800	1	68
486.141	1	87
486.481	1	58
486.822	1	90
487.163	1	85
487.503	1	85
487.844	1	82
488.185	1	94
488.525	1	99
488.866	1	96
489.207	1	102
489.547	1	86
489.888	1	103
490.228	1	112
490.569	1	99
490.910	1	101
491.250	1	116
491.591	1	104
491.932	1	115
492.272	1	99
492.613	1	110
492.953	1	122
493.294	1	106
493.635	1	123
493.975	1	123
494.316	1	113
494.656	1	123
494.997	1	112
495.337	1	121
495.678	1	122
496.019	1	124
496.359	1	123
496.700	1	122
497.040	1	139
497.381	1	126
497.721	1	124
498.062	1	145
498.403	1	142
498.743	1	159
499.084	1	152
499.424	1	148
499.765	1	167
500.105	1	172
500.446	1	174
500.786	1	170
501.127	1	181
501.467	1	191
501.808	1	182
502.148	1	184
502.489	1	189
502.829	1	200
503.170	1	205
503.510	1	205
503.851	1	204
504.191	1	206
504.532	1	216
504.872	1	203
505.213	1	218
505.553	1	228
505.894	1	233
506.234	1	231
506.575	1	239
506.915	1	239
507.256	1	253
507.596	1	237
507.936	1	254
508.277	1	239
508.617	1	239
508.958	1	257
509.298	1	239
509.639	1	236
509.979	1	241
510.319	1	256
510.660	1	259
511.000	1	257
511.341	1	261
511.681	1	264
512.022	1	253
512.362	1	262
512.702	1	260
513.043	1	277
513.383	1	272
513.724	1	280
514.064	1	294
514.404	1	290
514.745	1	292
515.085	1	295
515.425	1	296
515.766	1	304
516.106	1	308
516.447	1	317
516.787	1	323
517.127	1	326
517.468	1	329
517.808	1	312
518.148	1	335
518.489	1	335
518.829	1	342
519.169	1	350
519.510	1	339
519.850	1	356
520.190	1	375
520.531	1	363
520.871	1	359
521.211	1	361
521.552	1	366
521.892	1	355
522.232	1	369
522.573	1	368
522.913	1	378
523.253	1	362
523.593	1	370
523.934	1	368
524.274	1	369
524.614	1	386
524.955	1	374
525.295	1	400
525.635	1	387
525.975	1	383
526.316	1	385
526.656	1	415
526.996	1	387
527.337	1	403
527.677	1	419
528.017	1	412
528.357	1	427
528.698	1	436
529.038	1	421
529.378	1	424
529.718	1	445
530.058	1	454
530.399	1	460
530.739	1	456
531.079	1	451
531.419	1	462
531.760	1	471
532.100	1	479
532.440	1	467
532.780	1	470
533.120	1	472
533.461	1	460
533.801	1	492
534.141	1	470
534.481	1	488
534.821	1	448
535.162	1	469
535.502	1	474
535.842	1	442
536.182	1	464
536.522	1	437
536.862	1	435
537.203	1	463
537.543	1	428
537.883	1	442
538.223	1	448
538.563	1	450
538.903	1	438
539.243	1	435
539.584	1	441
539.924	1	460
540.264	1	446
540.604	1	466
540.944	1	442
541.284	1	437
541.624	1	458
541.964	1	456
542.305	1	445
542.645	1	453
542.985	1	438
543.325	1	448
543.665	1	454
544.005	1	475
544.345	1	500
544.685	1	477
545.025	1	449
545.365	1	481
545.705	1	487
546.045	1	495
546.386	1	502
546.726	1	508
547.066	1	502
547.406	1	502
547.746	1	513
548.086	1	526
548.426	1	532
548.766	1	531
549.106	1	529
549.446	1	568
549.786	1	537
550.126	1	539
550.466	1	532
550.806	1	556
551.146	1	540
551.486	1	538
551.826	1	526
552.166	1	531
552.506	1	545
552.846	1	549
553.186	1	522
553.526	1	526
553.866	1	537
554.206	1	530
554.546	1	535
554.886	1	513
555.226	1	514
555.566	1	520
555.906	1	518
556.246	1	516
556.586	1	490
556.926	1	504
557.266	1	509
557.606	1	504
557.946	1	513
558.286	1	487
558.626	1	504
558.966	1	506
559.306	1	516
559.646	1	503
559.986	1	505
560.325	1	499
560.665	1	502
561.005	1	521
561.345	1	525
561.685	1	495
562.025	1	522
562.365	1	499
562.705	1	513
563.045	1	528
563.385	1	500
563.725	1	511
564.064	1	505
564.404	1	487
564.744	1	511
565.084	1	503
565.424	1	500
565.764	1	532
566.104	1	526
566.444	1	540
566.783	1	526
567.123	1	518
567.463	1	511
567.803	1	505
568.143	1	518
568.483	1	524
568.823	1	513
569.162	1	518
569.502	1	508
569.842	1	506
570.182	1	494
570.522	1	509
570.862	1	504
571.201	1	516
571.541	1	510
571.881	1	501
572.221	1	491
572.561	1	508
572.900	1	501
573.240	1	497
573.580	1	480
573.920	1	493
574.260	1	498
574.599	1	495
574.939	1	499
575.279	1	480
575.619	1	478
575.959	1	473
576.298	1	487
576.638	1	490
576.978	1	496
577.318	1	507
577.657	1	497
577.997	1	494
578.337	1	499
578.677	1	501
579.016	1	488
579.356	1	501
579.696	1	505
580.036	1	513
580.375	1	504
580.715	1	516
581.055	1	488
581.394	1	508
581.734	1	488
582.074	1	496
582.414	1	479
582.753	1	499
583.093	1	502
583.433	1	494
583.772	1	495
584.112	1	476
584.452	1	499
584.791	1	505
585.131	1	484
585.471	1	480
585.811	1	483
586.150	1	481
586.490	1	497
586.830	1	487
587.169	1	485
587.509	1	452
587.849	1	472
588.188	1	484
588.528	1	448
588.867	1	467
589.207	1	465
589.547	1	445
589.886	1	464
590.226	1	429
590.566	1	438
590.905	1	437
591.245	1	441
591.585	1	435
591.924	1	419
592.264	1	420
592.603	1	397
592.943	1	414
593.283	1	425
593.622	1	424
593.962	1	419
594.301	1	401
594.641	1	414
594.981	1	413
595.320	1	421
595.660	1	411
595.999	1	428
596.339	1	408
596.678	1	400
597.018	1	412
597.358	1	418
597.697	1	408
598.037	1	402
598.376	1	384
598.716	1	413
599.055	1	417
599.395	1	390
599.734	1	402
600.074	1	402
600.413	1	408
600.753	1	411
601.092	1	400
601.432	1	387
601.771	1	411
602.111	1	420
602.451	1	405
602.790	1	415
603.130	1	422
603.469	1	426
603.809	1	399
604.148	1	413
604.487	1	398
604.827	1	420
605.166	1	427
605.506	1	406
605.845	1	442
606.185	1	413
606.524	1	395
606.864	1	435
607.203	1	427
607.543	1	407
607.882	1	421
608.222	1	409
608.561	1	410
608.901	1	400
609.240	1	408
609.579	1	392
609.919	1	384
610.258	1	388
610.598	1	381
610.937	1	389
611.277	1	385
611.616	1	395
611.955	1	385
612.295	1	374
612.634	1	374
612.974	1	370
613.313	1	363
613.652	1	373
613.992	1	358
614.331	1	351
614.671	1	359
615.010	1	362
615.349	1	361
615.689	1	342
616.028	1	350
616.368	1	349
616.707	1	351
617.046	1	330
617.386	1	334
617.725	1	339
618.064	1	323
618.404	1	338
618.743	1	314
619.082	1	346
619.422	1	339
619.761	1	325
620.100	1	311
620.440	1	336
620.779	1	335
621.118	1	315
621.458	1	312
621.797	1	317
622.136	1	313
622.476	1	320
622.815	1	307
623.154	1	301
623.494	1	317
623.833	1	334
624.172	1	313
624.511	1	318
624.851	1	315
625.190	1	314
625.529	1	305
625.869	1	309
626.208	1	289
626.547	1	293
626.886	1	298
627.226	1	305
627.565	1	306
627.904	1	283
628.243	1	299
628.583	1	304
628.922	1	311
629.261	1	301
629.600	1	309
629.940	1	296
630.279	1	302
630.618	1	306
630.957	1	304
631.297	1	304
631.636	1	292
631.975	1	295
632.314	1	302
632.653	1	286
632.993	1	282
633.332	1	292
633.671	1	293
634.010	1	288
634.349	1	298
634.689	1	268
635.028	1	275
635.367	1	280
635.706	1	268
636.045	1	262
636.384	1	287
636.724	1	265
637.063	1	257
637.402	1	256
637.741	1	258
638.080	1	268
638.419	1	268
638.759	1	258
639.098	1	253
639.437	1	252
639.776	1	249
640.115	1	230
640.454	1	255
640.793	1	261
641.132	1	249
641.472	1	269
641.811	1	249
642.150	1	250
642.489	1	254
642.828	1	254
643.167	1	238
643.506	1	249
643.845	1	255
644.184	1	248
644.524	1	250
644.863	1	244
645.202	1	247
645.541	1	248
645.880	1	243
646.219	1	243
646.558	1	238
646.897	1	230
647.236	1	223
647.575	1	249
647.914	1	227
648.253	1	249
648.592	1	244
648.931	1	241
649.270	1	256
649.610	1	243
649.949	1	223
650.288	1	224
650.627	1	230
650.966	1	235
651.305	1	221
651.644	1	221
651.983	1	228
652.322	1	243
652.661	1	238
653.000	1	225
653.339	1	219
653.678	1	211
654.017	1	223
654.356	1	219
654.695	1	229
655.034	1	221
655.373	1	202
655.712	1	204
656.051	1	206
656.390	1	214
656.729	1	216
657.068	1	210
657.406	1	203
657.745	1	214
658.084	1	193
658.423	1	210
658.762	1	197
659.101	1	184
659.440	1	213
659.779	1	187
660.118	1	189
660.457	1	195
660.796	1	188
661.135	1	188
661.474	1	195
661.813	1	176
662.152	1	191
662.491	1	179
662.829	1	190
663.168	1	177
663.507	1	186
663.846	1	177
664.185	1	189
664.524	1	183
664.863	1	173
665.202	1	179
665.541	1	164
665.879	1	184
666.218	1	176
666.557	1	167
666.896	1	179
667.235	1	175
667.574	1	168
667.913	1	173
668.251	1	163
668.590	1	165
668.929	1	164
669.268	1	155
669.607	1	157
669.946	1	178
670.285	1	167
670.623	1	174
670.962	1	167
671.301	1	164
671.640	1	176
671.979	1	167
672.317	1	176
672.656	1	181
672.995	1	179
673.334	1	171
673.673	1	187
674.011	1	171
674.350	1	171
674.689	1	183
675.028	1	173
675.367	1	182
675.705	1	156
676.044	1	160
676.383	1	170
676.722	1	161
677.060	1	177
677.399	1	173
677.738	1	174
678.077	1	167
678.416	1	161
678.754	1	161
679.093	1	173
679.432	1	153
679.771	1	171
680.109	1	158
680.448	1	155
680.787	1	163
681.125	1	162
681.464	1	160
681.803	1	154
682.142	1	166
682.480	1	158
682.819	1	153
683.158	1	149
683.496	1	145
683.835	1	156
684.174	1	148
684.512	1	160
684.851	1	146
685.190	1	144
685.529	1	143
685.867	1	139
686.206	1	143
686.545	1	140
686.883	1	148
687.222	1	155
687.561	1	145
687.899	1	155
688.238	1	155
688.577	1	149
688.746	1	150