File: Data/GaN_150K_450ms/GaN_sample D_spot15_UVVIS_150 K_200um_450 ms 2x2mm1_142.txt
340.368	1	11
340.710	1	6
341.052	1	4
341.394	1	-9
341.737	1	13
342.079	1	5
342.421	1	2
342.763	1	2
343.105	1	3
343.447	1	5
343.789	1	11
344.131	1	-10
344.473	1	-1
344.815	1	3
345.157	1	16
345.499	1	11
345.841	1	2
346.183	1	10
346.526	1	7
346.868	1	0
347.210	1	3
347.552	1	9
347.894	1	1
348.236	1	8
348.578	1	18
348.920	1	8
349.262	1	-1
349.604	1	-4
349.946	1	-2
350.288	1	2
350.630	1	-2
350.972	1	10
351.314	1	2
351.656	1	9
351.998	1	4
352.340	1	11
352.682	1	-3
353.024	1	18
353.366	1	7
353.708	1	-1
354.050	1	-9
354.392	1	1
354.734	1	3
355.076	1	19
355.418	1	8
355.760	1	10
356.102	1	14
356.444	1	10
356.785	1	15
357.127	1	13
357.469	1	11
357.811	1	8
358.153	1	-8
358.495	1	14
358.837	1	12
359.179	1	16
359.521	1	10
359.863	1	-4
360.205	1	21
360.547	1	14
360.889	1	1
361.231	1	18
361.572	1	9
361.914	1	19
362.256	1	24
362.598	1	30
362.940	1	15
363.282	1	8
363.624	1	22
363.966	1	12
364.308	1	29
364.649	1	32
364.991	1	32
365.333	1	37
365.675	1	41
366.017	1	46
366.359	1	36
366.701	1	51
367.042	1	41
367.384	1	39
367.726	1	35
368.068	1	46
368.410	1	45
368.752	1	46
369.093	1	46
369.435	1	46
369.777	1	52
370.119	1	46
370.461	1	39
370.803	1	36
371.144	1	27
371.486	1	42
371.828	1	28
372.170	1	33
372.512	1	17
372.853	1	40
373.195	1	37
373.537	1	7
373.879	1	36
374.220	1	25
374.562	1	40
374.904	1	18
375.246	1	20
375.588	1	19
375.929	1	19
376.271	1	20
376.613	1	16
376.955	1	14
377.296	1	22
377.638	1	15
377.980	1	13
378.321	1	17
378.663	1	3
379.005	1	8
379.347	1	6
379.688	1	21
380.030	1	14
380.372	1	23
380.714	1	14
381.055	1	10
381.397	1	8
381.739	1	9
382.080	1	10
382.422	1	14
382.764	1	11
383.105	1	15
383.447	1	11
383.789	1	2
384.130	1	9
384.472	1	10
384.814	1	19
385.156	1	7
385.497	1	26
385.839	1	5
386.180	1	7
386.522	1	6
386.864	1	17
387.205	1	9
387.547	1	21
387.889	1	5
388.230	1	8
388.572	1	-1
388.914	1	11
389.255	1	13
389.597	1	2
389.939	1	15
390.280	1	-1
390.622	1	-2
390.963	1	7
391.305	1	11
391.647	1	7
391.988	1	4
392.330	1	7
392.671	1	8
393.013	1	12
393.355	1	17
393.696	1	14
394.038	1	8
394.379	1	12
394.721	1	11
395.062	1	9
395.404	1	11
395.746	1	3
396.087	1	12
396.429	1	12
396.770	1	13
397.112	1	3
397.453	1	0
397.795	1	0
398.136	1	9
398.478	1	3
398.819	1	9
399.161	1	13
399.503	1	20
399.844	1	3
400.186	1	4
400.527	1	10
400.869	1	5
401.210	1	5
401.552	1	8
401.893	1	16
402.235	1	13
402.576	1	-2
402.918	1	1
403.259	1	8
403.601	1	11
403.942	1	6
404.284	1	20
404.625	1	8
404.967	1	2
405.308	1	-3
405.649	1	9
405.991	1	9
406.332	1	4
406.674	1	7
407.015	1	12
407.357	1	10
407.698	1	5
408.040	1	11
408.381	1	-1
408.722	1	13
409.064	1	15
409.405	1	5
409.747	1	8
410.088	1	19
410.430	1	15
410.771	1	16
411.112	1	8
411.454	1	9
411.795	1	20
412.137	1	15
412.478	1	16
412.819	1	7
413.161	1	4
413.502	1	10
413.844	1	22
414.185	1	3
414.526	1	1
414.868	1	5
415.209	1	-3
415.550	1	10
415.892	1	17
416.233	1	9
416.575	1	5
416.916	1	12
417.257	1	0
417.599	1	13
417.940	1	-2
418.281	1	20
418.623	1	10
418.964	1	23
419.305	1	14
419.647	1	6
419.988	1	10
420.329	1	14
420.671	1	12
421.012	1	6
421.353	1	20
421.695	1	18
422.036	1	12
422.377	1	9
422.718	1	11
423.060	1	12
423.401	1	5
423.742	1	20
424.084	1	7
424.425	1	17
424.766	1	8
425.107	1	12
425.449	1	16
425.790	1	12
426.131	1	-4
426.472	1	18
426.814	1	5
427.155	1	5
427.496	1	8
427.837	1	6
428.179	1	25
428.520	1	14
428.861	1	19
429.202	1	0
429.544	1	12
429.885	1	9
430.226	1	3
430.567	1	1
430.909	1	4
431.250	1	15
431.591	1	6
431.932	1	10
432.273	1	11
432.615	1	6
432.956	1	11
433.297	1	11
433.638	1	14
433.979	1	14
434.320	1	14
434.662	1	7
435.003	1	16
435.344	1	4
435.685	1	5
436.026	1	0
436.368	1	-3
436.709	1	-6
437.050	1	14
437.391	1	6
437.732	1	3
438.073	1	-4
438.414	1	7
438.756	1	2
439.097	1	14
439.438	1	6
439.779	1	9
440.120	1	6
440.461	1	10
440.802	1	12
441.143	1	0
441.485	1	11
441.826	1	13
442.167	1	12
442.508	1	11
442.849	1	7
443.190	1	11
443.531	1	5
443.872	1	-3
444.213	1	4
444.554	1	0
444.895	1	0
445.237	1	2
445.578	1	1
445.919	1	16
446.260	1	24
446.601	1	10
446.942	1	-1
447.283	1	12
447.624	1	-10
447.965	1	7
448.306	1	5
448.647	1	10
448.988	1	7
449.329	1	13
449.670	1	8
450.011	1	2
450.352	1	-1
450.693	1	8
451.034	1	2
451.375	1	3
451.716	1	8
452.057	1	0
452.398	1	12
452.739	1	12
453.080	1	18
453.421	1	7
453.762	1	14
454.103	1	9
454.444	1	19
454.785	1	3
455.126	1	7
455.467	1	4
455.808	1	15
456.149	1	0
456.490	1	0
456.831	1	6
457.172	1	8
457.513	1	4
457.854	1	4
458.195	1	12
458.536	1	5
458.877	1	4
459.218	1	8
459.559	1	-2
459.899	1	12
460.240	1	6
460.581	1	-5
460.922	1	4
461.263	1	6
461.604	1	-1
461.945	1	14
462.286	1	5
462.627	1	12
462.968	1	10
463.309	1	8
463.649	1	-2
463.990	1	-4
464.331	1	7
464.672	1	4
465.013	1	2
465.354	1	17
465.695	1	6
466.036	1	9
466.376	1	4
466.717	1	-2
467.058	1	-1
467.399	1	0
467.740	1	10
468.081	1	10
468.422	1	1
468.762	1	10
469.103	1	-1
469.444	1	15
469.785	1	-1
470.126	1	9
470.467	1	3
470.807	1	6
471.148	1	2
471.489	1	9
471.830	1	18
472.171	1	2
472.511	1	6
472.852	1	5
473.193	1	9
473.534	1	7
473.875	1	2
474.215	1	6
474.556	1	5
474.897	1	3
475.238	1	6
475.578	1	2
475.919	1	0
476.260	1	5
476.601	1	5
476.942	1	12
477.282	1	0
477.623	1	2
477.964	1	10
478.305	1	-2
478.645	1	3
478.986	1	12
479.327	1	10
479.667	1	14
480.008	1	12
480.349	1	3
480.690	1	1
481.030	1	12
481.371	1	-2
481.712	1	11
482.053	1	8
482.393	1	9
482.734	1	9
483.075	1	6
483.415	1	5
483.756	1	4
484.097	1	4
484.437	1	8
484.778	1	5
485.119	1	3
485.459	1	-5
485.800	1	6
486.141	1	13
486.481	1	-6
486.822	1	12
487.163	1	-1
487.503	1	2
487.844	1	-5
488.185	1	1
488.525	1	-1
488.866	1	-1
489.207	1	3
489.547	1	7
489.888	1	8
490.228	1	11
490.569	1	-3
490.910	1	11
491.250	1	10
491.591	1	3
491.932	1	14
492.272	1	-9
492.613	1	5
492.953	1	-2
493.294	1	-4
493.635	1	9
493.975	1	20
494.316	1	5
494.656	1	10
494.997	1	-1
495.337	1	4
495.678	1	3
496.019	1	3
496.359	1	5
496.700	1	4
497.040	1	5
497.381	1	7
497.721	1	-3
498.062	1	3
498.403	1	11
498.743	1	8
499.084	1	5
499.424	1	-3
499.765	1	7
500.105	1	13
500.446	1	5
500.786	1	5
501.127	1	5
501.467	1	10
501.808	1	9
502.148	1	10
502.489	1	4
502.829	1	6
503.170	1	9
503.510	1	4
503.851	1	7
504.191	1	3
504.532	1	11
504.872	1	2
505.213	1	4
505.553	1	11
505.894	1	9
506.234	1	12
506.575	1	15
506.915	1	11
507.256	1	9
507.596	1	12
507.936	1	11
508.277	1	8
508.617	1	14
508.958	1	12
509.298	1	0
509.639	1	2
509.979	1	0
510.319	1	11
510.660	1	4
511.000	1	8
511.341	1	19
511.681	1	9
512.022	1	0
512.362	1	18
512.702	1	4
513.043	1	23
513.383	1	5
513.724	1	12
514.064	1	14
514.404	1	17
514.745	1	3
515.085	1	11
515.425	1	10
515.766	1	6
516.106	1	9
516.447	1	14
516.787	1	5
517.127	1	15
517.468	1	22
517.808	1	1
518.148	1	22
518.489	1	14
518.829	1	15
519.169	1	6
519.510	1	-1
519.850	1	6
520.190	1	9
520.531	1	9
520.871	1	20
521.211	1	19
521.552	1	0
521.892	1	16
522.232	1	8
522.573	1	13
522.913	1	10
523.253	1	26
523.593	1	23
523.934	1	12
524.274	1	9
524.614	1	18
524.955	1	8
525.295	1	17
525.635	1	15
525.975	1	11
526.316	1	4
526.656	1	3
526.996	1	14
527.337	1	5
527.677	1	26
528.017	1	9
528.357	1	5
528.698	1	14
529.038	1	13
529.378	1	20
529.718	1	12
530.058	1	16
530.399	1	10
530.739	1	21
531.079	1	15
531.419	1	10
531.760	1	19
532.100	1	16
532.440	1	14
532.780	1	13
533.120	1	15
533.461	1	8
533.801	1	11
534.141	1	14
534.481	1	21
534.821	1	14
535.162	1	21
535.502	1	11
535.842	1	10
536.182	1	10
536.522	1	4
536.862	1	3
537.203	1	9
537.543	1	17
537.883	1	10
538.223	1	18
538.563	1	10
538.903	1	8
539.243	1	3
539.584	1	15
539.924	1	12
540.264	1	20
540.604	1	20
540.944	1	11
541.284	1	5
541.624	1	13
541.964	1	20
542.305	1	21
542.645	1	8
542.985	1	4
543.325	1	24
543.665	1	7
544.005	1	16
544.345	1	15
544.685	1	3
545.025	1	20
545.365	1	7
545.705	1	13
546.045	1	11
546.386	1	4
546.726	1	11
547.066	1	6
547.406	1	3
547.746	1	10
548.086	1	11
548.426	1	7
548.766	1	6
549.106	1	5
549.446	1	22
549.786	1	17
550.126	1	8
550.466	1	8
550.806	1	21
551.146	1	10
551.486	1	5
551.826	1	4
552.166	1	15
552.506	1	4
552.846	1	12
553.186	1	-3
553.526	1	15
553.866	1	7
554.206	1	16
554.546	1	6
554.886	1	7
555.226	1	15
555.566	1	6
555.906	1	-2
556.246	1	11
556.586	1	11
556.926	1	-5
557.266	1	13
557.606	1	1
557.946	1	15
558.286	1	-9
558.626	1	18
558.966	1	10
559.306	1	1
559.646	1	12
559.986	1	6
560.325	1	11
560.665	1	7
561.005	1	10
561.345	1	0
561.685	1	11
562.025	1	11
562.365	1	4
562.705	1	8
563.045	1	12
563.385	1	6
563.725	1	9
564.064	1	3
564.404	1	-2
564.744	1	22
565.084	1	9
565.424	1	-6
565.764	1	10
566.104	1	16
566.444	1	13
566.783	1	-2
567.123	1	-4
567.463	1	13
567.803	1	9
568.143	1	3
568.483	1	16
568.823	1	3
569.162	1	-5
569.502	1	8
569.842	1	12
570.182	1	2
570.522	1	-4
570.862	1	6
571.201	1	9
571.541	1	3
571.881	1	7
572.221	1	-1
572.561	1	8
572.900	1	13
573.240	1	7
573.580	1	6
573.920	1	11
574.260	1	10
574.599	1	14
574.939	1	5
575.279	1	9
575.619	1	8
575.959	1	5
576.298	1	-5
576.638	1	9
576.978	1	11
577.318	1	9
577.657	1	4
577.997	1	14
578.337	1	12
578.677	1	9
579.016	1	7
579.356	1	3
579.696	1	4
580.036	1	6
580.375	1	15
580.715	1	10
581.055	1	5
581.394	1	-3
581.734	1	6
582.074	1	8
582.414	1	4
582.753	1	4
583.093	1	11
583.433	1	20
583.772	1	13
584.112	1	1
584.452	1	-1
584.791	1	10
585.131	1	8
585.471	1	10
585.811	1	1
586.150	1	14
586.490	1	8
586.830	1	11
587.169	1	6
587.509	1	3
587.849	1	10
588.188	1	9
588.528	1	5
588.867	1	10
589.207	1	15
589.547	1	8
589.886	1	7
590.226	1	6
590.566	1	-4
590.905	1	7
591.245	1	-3
591.585	1	10
591.924	1	0
592.264	1	-4
592.603	1	-13
592.943	1	2
593.283	1	6
593.622	1	6
593.962	1	12
594.301	1	1
594.641	1	-1
594.981	1	9
595.320	1	14
595.660	1	8
595.999	1	8
596.339	1	9
596.678	1	-9
597.018	1	3
597.358	1	3
597.697	1	-2
598.037	1	4
598.376	1	-2
598.716	1	4
599.055	1	17
599.395	1	-4
599.734	1	10
600.074	1	-5
600.413	1	8
600.753	1	2
601.092	1	-8
601.432	1	0
601.771	1	6
602.111	1	6
602.451	1	-5
602.790	1	4
603.130	1	1
603.469	1	10
603.809	1	8
604.148	1	7
604.487	1	9
604.827	1	8
605.166	1	15
605.506	1	-5
605.845	1	8
606.185	1	-1
606.524	1	-7
606.864	1	10
607.203	1	6
607.543	1	12
607.882	1	6
608.222	1	-3
608.561	1	-4
608.901	1	4
609.240	1	4
609.579	1	2
609.919	1	-7
610.258	1	22
610.598	1	-4
610.937	1	6
611.277	1	10
611.616	1	5
611.955	1	-1
612.295	1	3
612.634	1	7
612.974	1	6
613.313	1	12
613.652	1	16
613.992	1	2
614.331	1	18
614.671	1	-7
615.010	1	1
615.349	1	11
615.689	1	8
616.028	1	10
616.368	1	9
616.707	1	8
617.046	1	3
617.386	1	6
617.725	1	7
618.064	1	-9
618.404	1	-2
618.743	1	19
619.082	1	16
619.422	1	16
619.761	1	-3
620.100	1	9
620.440	1	7
620.779	1	14
621.118	1	15
621.458	1	4
621.797	1	9
622.136	1	-2
622.476	1	2
622.815	1	2
623.154	1	0
623.494	1	-4
623.833	1	2
624.172	1	-2
624.511	1	-6
624.851	1	-5
625.190	1	13
625.529	1	-3
625.869	1	13
626.208	1	3
626.547	1	0
626.886	1	0
627.226	1	4
627.565	1	12
627.904	1	2
628.243	1	10
628.583	1	11
628.922	1	11
629.261	1	7
629.600	1	10
629.940	1	12
630.279	1	7
630.618	1	20
630.957	1	17
631.297	1	9
631.636	1	-1
631.975	1	7
632.314	1	0
632.653	1	4
632.993	1	4
633.332	1	4
633.671	1	3
634.010	1	-1
634.349	1	14
634.689	1	0
635.028	1	-2
635.367	1	9
635.706	1	2
636.045	1	-3
636.384	1	2
636.724	1	9
637.063	1	-12
637.402	1	5
637.741	1	-4
638.080	1	3
638.419	1	-9
638.759	1	0
639.098	1	2
639.437	1	6
639.776	1	12
640.115	1	-5
640.454	1	-8
640.793	1	2
641.132	1	8
641.472	1	13
641.811	1	0
642.150	1	-2
642.489	1	15
642.828	1	14
643.167	1	4
643.506	1	4
643.845	1	8
644.184	1	13
644.524	1	-4
644.863	1	-4
645.202	1	8
645.541	1	8
645.880	1	11
646.219	1	0
646.558	1	-3
646.897	1	-3
647.236	1	-2
647.575	1	9
647.914	1	4
648.253	1	7
648.592	1	6
648.931	1	14
649.270	1	16
649.610	1	12
649.949	1	-6
650.288	1	0
650.627	1	-5
650.966	1	6
651.305	1	9
651.644	1	13
651.983	1	-6
652.322	1	2
652.661	1	17
653.000	1	3
653.339	1	2
653.678	1	14
654.017	1	6
654.356	1	4
654.695	1	19
655.034	1	-4
655.373	1	4
655.712	1	1
656.051	1	2
656.390	1	8
656.729	1	13
657.068	1	6
657.406	1	-2
657.745	1	4
658.084	1	6
658.423	1	6
658.762	1	0
659.101	1	2
659.440	1	3
659.779	1	10
660.118	1	-1
660.457	1	10
660.796	1	12
661.135	1	10
661.474	1	6
661.813	1	2
662.152	1	-5
662.491	1	6
662.829	1	2
663.168	1	7
663.507	1	7
663.846	1	10
664.185	1	11
664.524	1	7
664.863	1	-3
665.202	1	15
665.541	1	-1
665.879	1	3
666.218	1	9
666.557	1	1
666.896	1	6
667.235	1	-3
667.574	1	5
667.913	1	4
668.251	1	-3
668.590	1	0
668.929	1	2
669.268	1	6
669.607	1	3
669.946	1	9
670.285	1	-2
670.623	1	5
670.962	1	1
671.301	1	0
671.640	1	6
671.979	1	0
672.317	1	12
672.656	1	8
672.995	1	7
673.334	1	5
673.673	1	9
674.011	1	9
674.350	1	1
674.689	1	2
675.028	1	1
675.367	1	7
675.705	1	-2
676.044	1	10
676.383	1	2
676.722	1	8
677.060	1	4
677.399	1	20
677.738	1	5
678.077	1	4
678.416	1	6
678.754	1	-3
679.093	1	20
679.432	1	6
679.771	1	-1
680.109	1	1
680.448	1	-2
680.787	1	-13
681.125	1	2
681.464	1	7
681.803	1	10
682.142	1	3
682.480	1	1
682.819	1	6
683.158	1	3
683.496	1	-7
683.835	1	7
684.174	1	4
684.512	1	1
684.851	1	0
685.190	1	-1
685.529	1	3
685.867	1	6
686.206	1	-5
686.545	1	2
686.883	1	12
687.222	1	-5
687.561	1	14
687.899	1	1
688.238	1	8
688.577	1	0
688.746	1	7