File: Data/GaN_150K_450ms/GaN_sample D_spot15_UVVIS_150 K_200um_450 ms 2x2mm1_111.txt
340.368	1	3
340.710	1	12
341.052	1	0
341.394	1	-8
341.737	1	12
342.079	1	5
342.421	1	7
342.763	1	3
343.105	1	8
343.447	1	-5
343.789	1	8
344.131	1	-1
344.473	1	3
344.815	1	7
345.157	1	8
345.499	1	12
345.841	1	7
346.183	1	8
346.526	1	10
346.868	1	-1
347.210	1	4
347.552	1	14
347.894	1	-3
348.236	1	8
348.578	1	11
348.920	1	7
349.262	1	11
349.604	1	1
349.946	1	9
350.288	1	2
350.630	1	3
350.972	1	16
351.314	1	-1
351.656	1	12
351.998	1	10
352.340	1	19
352.682	1	-4
353.024	1	15
353.366	1	13
353.708	1	9
354.050	1	6
354.392	1	0
354.734	1	11
355.076	1	16
355.418	1	5
355.760	1	16
356.102	1	14
356.444	1	16
356.785	1	14
357.127	1	21
357.469	1	10
357.811	1	14
358.153	1	-2
358.495	1	8
358.837	1	20
359.179	1	16
359.521	1	26
359.863	1	11
360.205	1	25
360.547	1	21
360.889	1	10
361.231	1	21
361.572	1	24
361.914	1	32
362.256	1	19
362.598	1	38
362.940	1	35
363.282	1	29
363.624	1	33
363.966	1	38
364.308	1	39
364.649	1	42
364.991	1	46
365.333	1	49
365.675	1	61
366.017	1	61
366.359	1	64
366.701	1	69
367.042	1	77
367.384	1	69
367.726	1	65
368.068	1	79
368.410	1	59
368.752	1	80
369.093	1	77
369.435	1	69
369.777	1	67
370.119	1	71
370.461	1	64
370.803	1	61
371.144	1	69
371.486	1	63
371.828	1	47
372.170	1	50
372.512	1	46
372.853	1	70
373.195	1	34
373.537	1	31
373.879	1	42
374.220	1	45
374.562	1	39
374.904	1	37
375.246	1	32
375.588	1	38
375.929	1	31
376.271	1	24
376.613	1	30
376.955	1	33
377.296	1	19
377.638	1	29
377.980	1	29
378.321	1	22
378.663	1	15
379.005	1	22
379.347	1	25
379.688	1	29
380.030	1	24
380.372	1	22
380.714	1	22
381.055	1	11
381.397	1	11
381.739	1	3
382.080	1	15
382.422	1	18
382.764	1	15
383.105	1	15
383.447	1	8
383.789	1	9
384.130	1	16
384.472	1	11
384.814	1	24
385.156	1	4
385.497	1	24
385.839	1	10
386.180	1	14
386.522	1	17
386.864	1	9
387.205	1	18
387.547	1	20
387.889	1	6
388.230	1	10
388.572	1	2
388.914	1	16
389.255	1	15
389.597	1	10
389.939	1	19
390.280	1	6
390.622	1	5
390.963	1	7
391.305	1	4
391.647	1	8
391.988	1	12
392.330	1	14
392.671	1	13
393.013	1	12
393.355	1	10
393.696	1	11
394.038	1	14
394.379	1	19
394.721	1	6
395.062	1	7
395.404	1	9
395.746	1	4
396.087	1	15
396.429	1	10
396.770	1	15
397.112	1	2
397.453	1	6
397.795	1	12
398.136	1	14
398.478	1	6
398.819	1	10
399.161	1	20
399.503	1	13
399.844	1	10
400.186	1	12
400.527	1	13
400.869	1	18
401.210	1	15
401.552	1	16
401.893	1	3
402.235	1	15
402.576	1	9
402.918	1	10
403.259	1	7
403.601	1	17
403.942	1	9
404.284	1	20
404.625	1	7
404.967	1	8
405.308	1	-4
405.649	1	6
405.991	1	8
406.332	1	13
406.674	1	7
407.015	1	13
407.357	1	14
407.698	1	9
408.040	1	21
408.381	1	7
408.722	1	10
409.064	1	12
409.405	1	2
409.747	1	4
410.088	1	17
410.430	1	14
410.771	1	15
411.112	1	14
411.454	1	7
411.795	1	8
412.137	1	2
412.478	1	18
412.819	1	13
413.161	1	10
413.502	1	15
413.844	1	23
414.185	1	18
414.526	1	9
414.868	1	7
415.209	1	10
415.550	1	9
415.892	1	12
416.233	1	10
416.575	1	8
416.916	1	13
417.257	1	10
417.599	1	15
417.940	1	2
418.281	1	23
418.623	1	13
418.964	1	30
419.305	1	12
419.647	1	14
419.988	1	18
420.329	1	15
420.671	1	26
421.012	1	10
421.353	1	21
421.695	1	19
422.036	1	19
422.377	1	21
422.718	1	20
423.060	1	15
423.401	1	8
423.742	1	20
424.084	1	9
424.425	1	29
424.766	1	10
425.107	1	13
425.449	1	11
425.790	1	15
426.131	1	10
426.472	1	21
426.814	1	13
427.155	1	14
427.496	1	16
427.837	1	7
428.179	1	22
428.520	1	16
428.861	1	21
429.202	1	13
429.544	1	12
429.885	1	17
430.226	1	-5
430.567	1	-2
430.909	1	12
431.250	1	15
431.591	1	15
431.932	1	9
432.273	1	12
432.615	1	9
432.956	1	13
433.297	1	16
433.638	1	14
433.979	1	21
434.320	1	21
434.662	1	22
435.003	1	21
435.344	1	11
435.685	1	3
436.026	1	5
436.368	1	6
436.709	1	8
437.050	1	13
437.391	1	2
437.732	1	12
438.073	1	-1
438.414	1	19
438.756	1	11
439.097	1	7
439.438	1	11
439.779	1	7
440.120	1	10
440.461	1	12
440.802	1	5
441.143	1	20
441.485	1	1
441.826	1	16
442.167	1	14
442.508	1	13
442.849	1	11
443.190	1	22
443.531	1	12
443.872	1	2
444.213	1	1
444.554	1	16
444.895	1	7
445.237	1	10
445.578	1	2
445.919	1	7
446.260	1	12
446.601	1	9
446.942	1	13
447.283	1	13
447.624	1	1
447.965	1	12
448.306	1	8
448.647	1	0
448.988	1	14
449.329	1	17
449.670	1	2
450.011	1	10
450.352	1	6
450.693	1	6
451.034	1	5
451.375	1	7
451.716	1	5
452.057	1	13
452.398	1	18
452.739	1	3
453.080	1	12
453.421	1	16
453.762	1	13
454.103	1	4
454.444	1	13
454.785	1	10
455.126	1	8
455.467	1	4
455.808	1	19
456.149	1	5
456.490	1	4
456.831	1	3
457.172	1	16
457.513	1	5
457.854	1	7
458.195	1	6
458.536	1	11
458.877	1	7
459.218	1	11
459.559	1	1
459.899	1	10
460.240	1	3
460.581	1	6
460.922	1	9
461.263	1	13
461.604	1	7
461.945	1	15
462.286	1	-1
462.627	1	4
462.968	1	8
463.309	1	8
463.649	1	-2
463.990	1	7
464.331	1	13
464.672	1	9
465.013	1	11
465.354	1	16
465.695	1	10
466.036	1	11
466.376	1	16
466.717	1	4
467.058	1	8
467.399	1	4
467.740	1	15
468.081	1	9
468.422	1	11
468.762	1	13
469.103	1	7
469.444	1	15
469.785	1	6
470.126	1	2
470.467	1	15
470.807	1	9
471.148	1	3
471.489	1	11
471.830	1	9
472.171	1	17
472.511	1	8
472.852	1	16
473.193	1	6
473.534	1	4
473.875	1	1
474.215	1	7
474.556	1	0
474.897	1	5
475.238	1	15
475.578	1	-6
475.919	1	11
476.260	1	9
476.601	1	11
476.942	1	7
477.282	1	-6
477.623	1	4
477.964	1	14
478.305	1	7
478.645	1	12
478.986	1	10
479.327	1	7
479.667	1	7
480.008	1	9
480.349	1	6
480.690	1	17
481.030	1	9
481.371	1	7
481.712	1	9
482.053	1	10
482.393	1	6
482.734	1	12
483.075	1	17
483.415	1	14
483.756	1	12
484.097	1	5
484.437	1	10
484.778	1	1
485.119	1	0
485.459	1	7
485.800	1	-5
486.141	1	11
486.481	1	-8
486.822	1	6
487.163	1	14
487.503	1	1
487.844	1	2
488.185	1	9
488.525	1	11
488.866	1	6
489.207	1	11
489.547	1	16
489.888	1	17
490.228	1	14
490.569	1	2
490.910	1	10
491.250	1	14
491.591	1	13
491.932	1	20
492.272	1	-4
492.613	1	2
492.953	1	5
493.294	1	4
493.635	1	16
493.975	1	16
494.316	1	7
494.656	1	18
494.997	1	-3
495.337	1	7
495.678	1	8
496.019	1	10
496.359	1	13
496.700	1	9
497.040	1	4
497.381	1	12
497.721	1	5
498.062	1	6
498.403	1	15
498.743	1	13
499.084	1	9
499.424	1	10
499.765	1	11
500.105	1	24
500.446	1	2
500.786	1	0
501.127	1	17
501.467	1	8
501.808	1	9
502.148	1	6
502.489	1	18
502.829	1	2
503.170	1	18
503.510	1	12
503.851	1	16
504.191	1	11
504.532	1	16
504.872	1	12
505.213	1	3
505.553	1	19
505.894	1	14
506.234	1	5
506.575	1	30
506.915	1	17
507.256	1	14
507.596	1	18
507.936	1	14
508.277	1	28
508.617	1	9
508.958	1	14
509.298	1	9
509.639	1	6
509.979	1	14
510.319	1	20
510.660	1	17
511.000	1	12
511.341	1	24
511.681	1	14
512.022	1	13
512.362	1	19
512.702	1	10
513.043	1	12
513.383	1	12
513.724	1	11
514.064	1	17
514.404	1	24
514.745	1	18
515.085	1	20
515.425	1	22
515.766	1	16
516.106	1	17
516.447	1	23
516.787	1	9
517.127	1	21
517.468	1	19
517.808	1	8
518.148	1	20
518.489	1	14
518.829	1	22
519.169	1	7
519.510	1	4
519.850	1	15
520.190	1	23
520.531	1	18
520.871	1	22
521.211	1	30
521.552	1	17
521.892	1	15
522.232	1	32
522.573	1	24
522.913	1	24
523.253	1	24
523.593	1	25
523.934	1	22
524.274	1	16
524.614	1	24
524.955	1	20
525.295	1	23
525.635	1	21
525.975	1	19
526.316	1	14
526.656	1	16
526.996	1	12
527.337	1	13
527.677	1	26
528.017	1	21
528.357	1	25
528.698	1	19
529.038	1	23
529.378	1	14
529.718	1	22
530.058	1	16
530.399	1	20
530.739	1	22
531.079	1	24
531.419	1	6
531.760	1	14
532.100	1	32
532.440	1	15
532.780	1	13
533.120	1	15
533.461	1	13
533.801	1	20
534.141	1	17
534.481	1	32
534.821	1	15
535.162	1	23
535.502	1	23
535.842	1	17
536.182	1	15
536.522	1	13
536.862	1	18
537.203	1	13
537.543	1	19
537.883	1	28
538.223	1	29
538.563	1	7
538.903	1	13
539.243	1	16
539.584	1	18
539.924	1	18
540.264	1	31
540.604	1	21
540.944	1	18
541.284	1	19
541.624	1	19
541.964	1	19
542.305	1	19
542.645	1	16
542.985	1	6
543.325	1	16
543.665	1	13
544.005	1	11
544.345	1	20
544.685	1	5
545.025	1	19
545.365	1	22
545.705	1	9
546.045	1	17
546.386	1	1
546.726	1	18
547.066	1	15
547.406	1	15
547.746	1	9
548.086	1	28
548.426	1	12
548.766	1	15
549.106	1	12
549.446	1	16
549.786	1	26
550.126	1	20
550.466	1	12
550.806	1	24
551.146	1	24
551.486	1	9
551.826	1	4
552.166	1	5
552.506	1	18
552.846	1	16
553.186	1	14
553.526	1	19
553.866	1	18
554.206	1	12
554.546	1	16
554.886	1	18
555.226	1	19
555.566	1	21
555.906	1	10
556.246	1	6
556.586	1	17
556.926	1	5
557.266	1	22
557.606	1	5
557.946	1	16
558.286	1	5
558.626	1	16
558.966	1	6
559.306	1	14
559.646	1	23
559.986	1	18
560.325	1	11
560.665	1	9
561.005	1	16
561.345	1	5
561.685	1	17
562.025	1	11
562.365	1	9
562.705	1	15
563.045	1	19
563.385	1	9
563.725	1	4
564.064	1	7
564.404	1	8
564.744	1	19
565.084	1	12
565.424	1	7
565.764	1	15
566.104	1	11
566.444	1	24
566.783	1	13
567.123	1	10
567.463	1	16
567.803	1	21
568.143	1	17
568.483	1	23
568.823	1	15
569.162	1	4
569.502	1	10
569.842	1	9
570.182	1	9
570.522	1	2
570.862	1	5
571.201	1	17
571.541	1	12
571.881	1	9
572.221	1	13
572.561	1	11
572.900	1	14
573.240	1	5
573.580	1	16
573.920	1	20
574.260	1	18
574.599	1	9
574.939	1	9
575.279	1	8
575.619	1	9
575.959	1	-2
576.298	1	11
576.638	1	14
576.978	1	6
577.318	1	15
577.657	1	6
577.997	1	8
578.337	1	8
578.677	1	16
579.016	1	3
579.356	1	10
579.696	1	6
580.036	1	8
580.375	1	15
580.715	1	12
581.055	1	6
581.394	1	11
581.734	1	17
582.074	1	11
582.414	1	7
582.753	1	12
583.093	1	15
583.433	1	14
583.772	1	17
584.112	1	8
584.452	1	10
584.791	1	11
585.131	1	15
585.471	1	1
585.811	1	7
586.150	1	3
586.490	1	10
586.830	1	9
587.169	1	14
587.509	1	4
587.849	1	7
588.188	1	6
588.528	1	6
588.867	1	12
589.207	1	12
589.547	1	13
589.886	1	12
590.226	1	11
590.566	1	-5
590.905	1	4
591.245	1	1
591.585	1	6
591.924	1	-3
592.264	1	9
592.603	1	-15
592.943	1	11
593.283	1	6
593.622	1	2
593.962	1	6
594.301	1	8
594.641	1	10
594.981	1	4
595.320	1	13
595.660	1	13
595.999	1	17
596.339	1	14
596.678	1	-2
597.018	1	3
597.358	1	5
597.697	1	1
598.037	1	4
598.376	1	-2
598.716	1	9
599.055	1	17
599.395	1	2
599.734	1	13
600.074	1	6
600.413	1	7
600.753	1	12
601.092	1	-1
601.432	1	-10
601.771	1	15
602.111	1	6
602.451	1	-1
602.790	1	10
603.130	1	10
603.469	1	10
603.809	1	6
604.148	1	2
604.487	1	2
604.827	1	17
605.166	1	1
605.506	1	4
605.845	1	8
606.185	1	1
606.524	1	5
606.864	1	18
607.203	1	13
607.543	1	10
607.882	1	15
608.222	1	10
608.561	1	5
608.901	1	4
609.240	1	4
609.579	1	4
609.919	1	1
610.258	1	18
610.598	1	3
610.937	1	9
611.277	1	15
611.616	1	9
611.955	1	2
612.295	1	12
612.634	1	4
612.974	1	3
613.313	1	1
613.652	1	18
613.992	1	6
614.331	1	16
614.671	1	9
615.010	1	3
615.349	1	7
615.689	1	10
616.028	1	16
616.368	1	8
616.707	1	13
617.046	1	4
617.386	1	19
617.725	1	4
618.064	1	3
618.404	1	7
618.743	1	10
619.082	1	17
619.422	1	18
619.761	1	2
620.100	1	1
620.440	1	8
620.779	1	15
621.118	1	7
621.458	1	7
621.797	1	3
622.136	1	3
622.476	1	0
622.815	1	6
623.154	1	1
623.494	1	5
623.833	1	7
624.172	1	2
624.511	1	-2
624.851	1	0
625.190	1	6
625.529	1	6
625.869	1	12
626.208	1	3
626.547	1	0
626.886	1	-1
627.226	1	11
627.565	1	18
627.904	1	11
628.243	1	12
628.583	1	15
628.922	1	9
629.261	1	10
629.600	1	3
629.940	1	8
630.279	1	7
630.618	1	13
630.957	1	4
631.297	1	5
631.636	1	4
631.975	1	10
632.314	1	8
632.653	1	1
632.993	1	12
633.332	1	6
633.671	1	6
634.010	1	10
634.349	1	8
634.689	1	3
635.028	1	-1
635.367	1	16
635.706	1	-2
636.045	1	-1
636.384	1	11
636.724	1	12
637.063	1	0
637.402	1	4
637.741	1	6
638.080	1	5
638.419	1	4
638.759	1	15
639.098	1	-1
639.437	1	9
639.776	1	6
640.115	1	-2
640.454	1	-1
640.793	1	6
641.132	1	1
641.472	1	16
641.811	1	5
642.150	1	5
642.489	1	3
642.828	1	23
643.167	1	4
643.506	1	7
643.845	1	3
644.184	1	9
644.524	1	6
644.863	1	0
645.202	1	8
645.541	1	1
645.880	1	5
646.219	1	8
646.558	1	-3
646.897	1	-8
647.236	1	11
647.575	1	15
647.914	1	-4
648.253	1	19
648.592	1	12
648.931	1	7
649.270	1	9
649.610	1	11
649.949	1	-5
650.288	1	7
650.627	1	1
650.966	1	8
651.305	1	10
651.644	1	5
651.983	1	1
652.322	1	0
652.661	1	16
653.000	1	9
653.339	1	13
653.678	1	15
654.017	1	13
654.356	1	17
654.695	1	12
655.034	1	-3
655.373	1	4
655.712	1	7
656.051	1	0
656.390	1	-2
656.729	1	4
657.068	1	6
657.406	1	-4
657.745	1	16
658.084	1	12
658.423	1	8
658.762	1	3
659.101	1	-2
659.440	1	7
659.779	1	7
660.118	1	7
660.457	1	3
660.796	1	13
661.135	1	6
661.474	1	1
661.813	1	5
662.152	1	0
662.491	1	2
662.829	1	4
663.168	1	2
663.507	1	16
663.846	1	4
664.185	1	10
664.524	1	15
664.863	1	-4
665.202	1	7
665.541	1	2
665.879	1	2
666.218	1	5
666.557	1	-4
666.896	1	1
667.235	1	1
667.574	1	2
667.913	1	13
668.251	1	-4
668.590	1	-4
668.929	1	6
669.268	1	7
669.607	1	1
669.946	1	4
670.285	1	6
670.623	1	3
670.962	1	-6
671.301	1	6
671.640	1	12
671.979	1	6
672.317	1	3
672.656	1	14
672.995	1	2
673.334	1	8
673.673	1	14
674.011	1	12
674.350	1	-2
674.689	1	-1
675.028	1	0
675.367	1	13
675.705	1	-6
676.044	1	5
676.383	1	-11
676.722	1	2
677.060	1	11
677.399	1	18
677.738	1	0
678.077	1	-7
678.416	1	9
678.754	1	5
679.093	1	12
679.432	1	0
679.771	1	-1
680.109	1	10
680.448	1	8
680.787	1	-2
681.125	1	1
681.464	1	16
681.803	1	2
682.142	1	3
682.480	1	1
682.819	1	1
683.158	1	3
683.496	1	8
683.835	1	11
684.174	1	6
684.512	1	1
684.851	1	-4
685.190	1	8
685.529	1	2
685.867	1	2
686.206	1	-1
686.545	1	4
686.883	1	4
687.222	1	2
687.561	1	4
687.899	1	4
688.238	1	14
688.577	1	6
688.746	1	7