File: Data/GaN_150K_450ms/GaN_sample D_spot15_UVVIS_150 K_200um_450 ms 2x2mm1_248.txt
340.368	1	-14
340.710	1	2
341.052	1	0
341.394	1	-1
341.737	1	3
342.079	1	3
342.421	1	4
342.763	1	5
343.105	1	8
343.447	1	4
343.789	1	0
344.131	1	-12
344.473	1	1
344.815	1	-9
345.157	1	11
345.499	1	9
345.841	1	-4
346.183	1	3
346.526	1	4
346.868	1	4
347.210	1	6
347.552	1	5
347.894	1	1
348.236	1	-1
348.578	1	14
348.920	1	-3
349.262	1	4
349.604	1	-1
349.946	1	-2
350.288	1	-7
350.630	1	-4
350.972	1	11
351.314	1	1
351.656	1	12
351.998	1	1
352.340	1	6
352.682	1	-14
353.024	1	10
353.366	1	5
353.708	1	5
354.050	1	-10
354.392	1	-3
354.734	1	5
355.076	1	17
355.418	1	-10
355.760	1	3
356.102	1	-2
356.444	1	7
356.785	1	1
357.127	1	12
357.469	1	4
357.811	1	3
358.153	1	-3
358.495	1	-1
358.837	1	4
359.179	1	-1
359.521	1	10
359.863	1	-5
360.205	1	13
360.547	1	12
360.889	1	-2
361.231	1	3
361.572	1	13
361.914	1	10
362.256	1	10
362.598	1	8
362.940	1	13
363.282	1	5
363.624	1	5
363.966	1	7
364.308	1	11
364.649	1	12
364.991	1	7
365.333	1	15
365.675	1	17
366.017	1	21
366.359	1	7
366.701	1	9
367.042	1	15
367.384	1	7
367.726	1	16
368.068	1	19
368.410	1	23
368.752	1	25
369.093	1	21
369.435	1	20
369.777	1	23
370.119	1	7
370.461	1	13
370.803	1	15
371.144	1	11
371.486	1	26
371.828	1	2
372.170	1	11
372.512	1	10
372.853	1	23
373.195	1	19
373.537	1	-3
373.879	1	-1
374.220	1	9
374.562	1	25
374.904	1	2
375.246	1	6
375.588	1	-10
375.929	1	16
376.271	1	-1
376.613	1	10
376.955	1	5
377.296	1	6
377.638	1	-1
377.980	1	7
378.321	1	11
378.663	1	9
379.005	1	3
379.347	1	9
379.688	1	14
380.030	1	8
380.372	1	6
380.714	1	-1
381.055	1	-4
381.397	1	-1
381.739	1	5
382.080	1	5
382.422	1	10
382.764	1	7
383.105	1	2
383.447	1	-4
383.789	1	3
384.130	1	13
384.472	1	13
384.814	1	10
385.156	1	-7
385.497	1	16
385.839	1	2
386.180	1	10
386.522	1	4
386.864	1	-1
387.205	1	4
387.547	1	4
387.889	1	8
388.230	1	-1
388.572	1	-2
388.914	1	7
389.255	1	1
389.597	1	3
389.939	1	10
390.280	1	-1
390.622	1	-3
390.963	1	-5
391.305	1	-1
391.647	1	-8
391.988	1	0
392.330	1	4
392.671	1	4
393.013	1	7
393.355	1	7
393.696	1	5
394.038	1	-2
394.379	1	9
394.721	1	0
395.062	1	-1
395.404	1	8
395.746	1	-10
396.087	1	7
396.429	1	15
396.770	1	5
397.112	1	0
397.453	1	-3
397.795	1	6
398.136	1	2
398.478	1	9
398.819	1	2
399.161	1	0
399.503	1	9
399.844	1	-2
400.186	1	2
400.527	1	11
400.869	1	0
401.210	1	1
401.552	1	-2
401.893	1	17
402.235	1	3
402.576	1	6
402.918	1	6
403.259	1	8
403.601	1	1
403.942	1	2
404.284	1	13
404.625	1	-2
404.967	1	9
405.308	1	-11
405.649	1	3
405.991	1	2
406.332	1	-1
406.674	1	-3
407.015	1	4
407.357	1	-1
407.698	1	8
408.040	1	13
408.381	1	-18
408.722	1	-1
409.064	1	0
409.405	1	-5
409.747	1	-8
410.088	1	13
410.430	1	12
410.771	1	11
411.112	1	11
411.454	1	0
411.795	1	9
412.137	1	-3
412.478	1	9
412.819	1	13
413.161	1	4
413.502	1	2
413.844	1	18
414.185	1	-1
414.526	1	-6
414.868	1	-2
415.209	1	-4
415.550	1	8
415.892	1	5
416.233	1	2
416.575	1	-5
416.916	1	3
417.257	1	0
417.599	1	11
417.940	1	-7
418.281	1	4
418.623	1	3
418.964	1	14
419.305	1	4
419.647	1	8
419.988	1	14
420.329	1	6
420.671	1	14
421.012	1	-4
421.353	1	13
421.695	1	1
422.036	1	11
422.377	1	0
422.718	1	9
423.060	1	15
423.401	1	10
423.742	1	13
424.084	1	6
424.425	1	7
424.766	1	11
425.107	1	-1
425.449	1	-1
425.790	1	10
426.131	1	3
426.472	1	11
426.814	1	0
427.155	1	1
427.496	1	3
427.837	1	3
428.179	1	13
428.520	1	8
428.861	1	4
429.202	1	0
429.544	1	10
429.885	1	9
430.226	1	-14
430.567	1	-5
430.909	1	4
431.250	1	8
431.591	1	6
431.932	1	8
432.273	1	11
432.615	1	0
432.956	1	-1
433.297	1	10
433.638	1	4
433.979	1	7
434.320	1	0
434.662	1	7
435.003	1	17
435.344	1	-1
435.685	1	-3
436.026	1	1
436.368	1	3
436.709	1	5
437.050	1	1
437.391	1	1
437.732	1	6
438.073	1	1
438.414	1	11
438.756	1	-10
439.097	1	1
439.438	1	4
439.779	1	0
440.120	1	0
440.461	1	-3
440.802	1	0
441.143	1	0
441.485	1	6
441.826	1	1
442.167	1	3
442.508	1	4
442.849	1	8
443.190	1	13
443.531	1	0
443.872	1	-2
444.213	1	-18
444.554	1	9
444.895	1	3
445.237	1	-3
445.578	1	-10
445.919	1	2
446.260	1	12
446.601	1	10
446.942	1	3
447.283	1	21
447.624	1	0
447.965	1	12
448.306	1	10
448.647	1	-5
448.988	1	8
449.329	1	5
449.670	1	6
450.011	1	4
450.352	1	-1
450.693	1	8
451.034	1	-1
451.375	1	-3
451.716	1	12
452.057	1	6
452.398	1	8
452.739	1	6
453.080	1	11
453.421	1	15
453.762	1	13
454.103	1	7
454.444	1	8
454.785	1	7
455.126	1	5
455.467	1	1
455.808	1	6
456.149	1	-6
456.490	1	-2
456.831	1	6
457.172	1	9
457.513	1	-4
457.854	1	8
458.195	1	8
458.536	1	15
458.877	1	0
459.218	1	3
459.559	1	4
459.899	1	2
460.240	1	-7
460.581	1	3
460.922	1	0
461.263	1	13
461.604	1	-2
461.945	1	10
462.286	1	1
462.627	1	8
462.968	1	0
463.309	1	4
463.649	1	-2
463.990	1	4
464.331	1	6
464.672	1	0
465.013	1	2
465.354	1	9
465.695	1	2
466.036	1	6
466.376	1	0
466.717	1	-13
467.058	1	4
467.399	1	-1
467.740	1	10
468.081	1	14
468.422	1	-9
468.762	1	9
469.103	1	5
469.444	1	4
469.785	1	-13
470.126	1	10
470.467	1	5
470.807	1	5
471.148	1	-1
471.489	1	14
471.830	1	3
472.171	1	8
472.511	1	0
472.852	1	2
473.193	1	11
473.534	1	8
473.875	1	1
474.215	1	3
474.556	1	-5
474.897	1	-3
475.238	1	1
475.578	1	-2
475.919	1	-1
476.260	1	-9
476.601	1	-3
476.942	1	-8
477.282	1	-2
477.623	1	-2
477.964	1	10
478.305	1	2
478.645	1	-1
478.986	1	6
479.327	1	4
479.667	1	6
480.008	1	8
480.349	1	-1
480.690	1	9
481.030	1	-8
481.371	1	-5
481.712	1	18
482.053	1	6
482.393	1	15
482.734	1	1
483.075	1	8
483.415	1	3
483.756	1	-2
484.097	1	4
484.437	1	1
484.778	1	2
485.119	1	0
485.459	1	-7
485.800	1	6
486.141	1	6
486.481	1	-6
486.822	1	11
487.163	1	-1
487.503	1	6
487.844	1	-4
488.185	1	11
488.525	1	-1
488.866	1	-4
489.207	1	17
489.547	1	4
489.888	1	-2
490.228	1	2
490.569	1	-2
490.910	1	12
491.250	1	4
491.591	1	3
491.932	1	0
492.272	1	-6
492.613	1	0
492.953	1	-3
493.294	1	-6
493.635	1	4
493.975	1	9
494.316	1	4
494.656	1	13
494.997	1	-2
495.337	1	-4
495.678	1	-12
496.019	1	2
496.359	1	1
496.700	1	2
497.040	1	-2
497.381	1	5
497.721	1	-10
498.062	1	3
498.403	1	10
498.743	1	8
499.084	1	13
499.424	1	-6
499.765	1	2
500.105	1	7
500.446	1	4
500.786	1	4
501.127	1	1
501.467	1	17
501.808	1	0
502.148	1	4
502.489	1	-2
502.829	1	-6
503.170	1	1
503.510	1	8
503.851	1	2
504.191	1	0
504.532	1	13
504.872	1	-3
505.213	1	-2
505.553	1	-6
505.894	1	7
506.234	1	15
506.575	1	13
506.915	1	3
507.256	1	-3
507.596	1	11
507.936	1	8
508.277	1	3
508.617	1	-4
508.958	1	9
509.298	1	0
509.639	1	-5
509.979	1	5
510.319	1	0
510.660	1	1
511.000	1	6
511.341	1	23
511.681	1	10
512.022	1	-12
512.362	1	3
512.702	1	-6
513.043	1	4
513.383	1	5
513.724	1	-1
514.064	1	9
514.404	1	11
514.745	1	0
515.085	1	13
515.425	1	10
515.766	1	-2
516.106	1	-3
516.447	1	2
516.787	1	5
517.127	1	13
517.468	1	15
517.808	1	-6
518.148	1	17
518.489	1	2
518.829	1	4
519.169	1	3
519.510	1	-8
519.850	1	15
520.190	1	13
520.531	1	5
520.871	1	2
521.211	1	8
521.552	1	-8
521.892	1	3
522.232	1	-4
522.573	1	3
522.913	1	21
523.253	1	7
523.593	1	6
523.934	1	4
524.274	1	10
524.614	1	13
524.955	1	-2
525.295	1	13
525.635	1	9
525.975	1	1
526.316	1	-5
526.656	1	2
526.996	1	10
527.337	1	6
527.677	1	19
528.017	1	1
528.357	1	9
528.698	1	8
529.038	1	1
529.378	1	5
529.718	1	-2
530.058	1	7
530.399	1	-2
530.739	1	8
531.079	1	12
531.419	1	5
531.760	1	8
532.100	1	11
532.440	1	4
532.780	1	2
533.120	1	8
533.461	1	1
533.801	1	1
534.141	1	-6
534.481	1	11
534.821	1	4
535.162	1	1
535.502	1	7
535.842	1	2
536.182	1	0
536.522	1	6
536.862	1	7
537.203	1	5
537.543	1	2
537.883	1	5
538.223	1	14
538.563	1	7
538.903	1	2
539.243	1	7
539.584	1	4
539.924	1	4
540.264	1	14
540.604	1	12
540.944	1	6
541.284	1	-1
541.624	1	7
541.964	1	0
542.305	1	15
542.645	1	-4
542.985	1	1
543.325	1	12
543.665	1	-4
544.005	1	1
544.345	1	0
544.685	1	5
545.025	1	10
545.365	1	9
545.705	1	0
546.045	1	2
546.386	1	-4
546.726	1	3
547.066	1	-3
547.406	1	1
547.746	1	-1
548.086	1	1
548.426	1	-1
548.766	1	0
549.106	1	-1
549.446	1	6
549.786	1	5
550.126	1	6
550.466	1	3
550.806	1	16
551.146	1	9
551.486	1	1
551.826	1	-1
552.166	1	-2
552.506	1	0
552.846	1	13
553.186	1	-6
553.526	1	7
553.866	1	-8
554.206	1	8
554.546	1	16
554.886	1	8
555.226	1	6
555.566	1	6
555.906	1	-1
556.246	1	7
556.586	1	4
556.926	1	1
557.266	1	5
557.606	1	-4
557.946	1	8
558.286	1	-4
558.626	1	-4
558.966	1	1
559.306	1	-1
559.646	1	-2
559.986	1	2
560.325	1	0
560.665	1	5
561.005	1	5
561.345	1	-4
561.685	1	3
562.025	1	1
562.365	1	8
562.705	1	12
563.045	1	3
563.385	1	-1
563.725	1	5
564.064	1	-2
564.404	1	1
564.744	1	15
565.084	1	9
565.424	1	1
565.764	1	13
566.104	1	10
566.444	1	15
566.783	1	3
567.123	1	1
567.463	1	6
567.803	1	15
568.143	1	0
568.483	1	5
568.823	1	1
569.162	1	-9
569.502	1	13
569.842	1	-5
570.182	1	-3
570.522	1	-8
570.862	1	-7
571.201	1	11
571.541	1	-3
571.881	1	-3
572.221	1	7
572.561	1	7
572.900	1	15
573.240	1	0
573.580	1	4
573.920	1	9
574.260	1	6
574.599	1	4
574.939	1	4
575.279	1	3
575.619	1	4
575.959	1	-1
576.298	1	-2
576.638	1	12
576.978	1	10
577.318	1	8
577.657	1	1
577.997	1	8
578.337	1	7
578.677	1	2
579.016	1	5
579.356	1	11
579.696	1	-1
580.036	1	4
580.375	1	5
580.715	1	4
581.055	1	0
581.394	1	3
581.734	1	5
582.074	1	4
582.414	1	11
582.753	1	-2
583.093	1	14
583.433	1	16
583.772	1	10
584.112	1	2
584.452	1	5
584.791	1	1
585.131	1	-4
585.471	1	5
585.811	1	0
586.150	1	-2
586.490	1	4
586.830	1	-3
587.169	1	1
587.509	1	0
587.849	1	10
588.188	1	0
588.528	1	-3
588.867	1	4
589.207	1	1
589.547	1	13
589.886	1	6
590.226	1	-10
590.566	1	-4
590.905	1	-1
591.245	1	-6
591.585	1	-5
591.924	1	0
592.264	1	5
592.603	1	-11
592.943	1	-2
593.283	1	3
593.622	1	1
593.962	1	11
594.301	1	6
594.641	1	5
594.981	1	-1
595.320	1	13
595.660	1	9
595.999	1	9
596.339	1	4
596.678	1	-10
597.018	1	-4
597.358	1	12
597.697	1	-7
598.037	1	7
598.376	1	2
598.716	1	14
599.055	1	10
599.395	1	8
599.734	1	15
600.074	1	-2
600.413	1	0
600.753	1	8
601.092	1	-9
601.432	1	-7
601.771	1	-1
602.111	1	6
602.451	1	0
602.790	1	12
603.130	1	-3
603.469	1	-2
603.809	1	9
604.148	1	-12
604.487	1	8
604.827	1	-1
605.166	1	-6
605.506	1	-4
605.845	1	7
606.185	1	1
606.524	1	-1
606.864	1	5
607.203	1	2
607.543	1	-2
607.882	1	6
608.222	1	-1
608.561	1	6
608.901	1	1
609.240	1	12
609.579	1	-8
609.919	1	-3
610.258	1	11
610.598	1	-8
610.937	1	0
611.277	1	3
611.616	1	8
611.955	1	-1
612.295	1	11
612.634	1	8
612.974	1	0
613.313	1	5
613.652	1	13
613.992	1	-7
614.331	1	15
614.671	1	2
615.010	1	8
615.349	1	4
615.689	1	-3
616.028	1	12
616.368	1	7
616.707	1	9
617.046	1	0
617.386	1	9
617.725	1	4
618.064	1	-3
618.404	1	-4
618.743	1	2
619.082	1	12
619.422	1	13
619.761	1	5
620.100	1	5
620.440	1	-2
620.779	1	-3
621.118	1	12
621.458	1	2
621.797	1	5
622.136	1	0
622.476	1	-1
622.815	1	8
623.154	1	-2
623.494	1	-7
623.833	1	4
624.172	1	7
624.511	1	-1
624.851	1	2
625.190	1	9
625.529	1	-2
625.869	1	12
626.208	1	-12
626.547	1	-1
626.886	1	-1
627.226	1	4
627.565	1	8
627.904	1	-4
628.243	1	13
628.583	1	7
628.922	1	9
629.261	1	6
629.600	1	7
629.940	1	5
630.279	1	16
630.618	1	4
630.957	1	4
631.297	1	-2
631.636	1	4
631.975	1	13
632.314	1	-5
632.653	1	-3
632.993	1	1
633.332	1	4
633.671	1	-4
634.010	1	5
634.349	1	13
634.689	1	0
635.028	1	-10
635.367	1	8
635.706	1	-5
636.045	1	-7
636.384	1	12
636.724	1	0
637.063	1	-2
637.402	1	7
637.741	1	-5
638.080	1	5
638.419	1	0
638.759	1	5
639.098	1	1
639.437	1	-1
639.776	1	4
640.115	1	-3
640.454	1	5
640.793	1	-2
641.132	1	-3
641.472	1	6
641.811	1	-2
642.150	1	5
642.489	1	12
642.828	1	10
643.167	1	0
643.506	1	4
643.845	1	4
644.184	1	13
644.524	1	-7
644.863	1	-6
645.202	1	8
645.541	1	2
645.880	1	4
646.219	1	1
646.558	1	-13
646.897	1	-15
647.236	1	-9
647.575	1	17
647.914	1	9
648.253	1	5
648.592	1	10
648.931	1	2
649.270	1	7
649.610	1	0
649.949	1	-2
650.288	1	0
650.627	1	1
650.966	1	7
651.305	1	3
651.644	1	10
651.983	1	-10
652.322	1	5
652.661	1	8
653.000	1	2
653.339	1	-1
653.678	1	3
654.017	1	2
654.356	1	8
654.695	1	9
655.034	1	2
655.373	1	4
655.712	1	-1
656.051	1	-5
656.390	1	12
656.729	1	9
657.068	1	-2
657.406	1	-1
657.745	1	13
658.084	1	0
658.423	1	7
658.762	1	-1
659.101	1	7
659.440	1	5
659.779	1	-6
660.118	1	3
660.457	1	3
660.796	1	3
661.135	1	7
661.474	1	7
661.813	1	-5
662.152	1	-4
662.491	1	-8
662.829	1	-4
663.168	1	4
663.507	1	5
663.846	1	-2
664.185	1	-1
664.524	1	1
664.863	1	-8
665.202	1	0
665.541	1	-5
665.879	1	9
666.218	1	2
666.557	1	1
666.896	1	6
667.235	1	-2
667.574	1	-4
667.913	1	4
668.251	1	-11
668.590	1	-1
668.929	1	6
669.268	1	-3
669.607	1	-3
669.946	1	-7
670.285	1	-1
670.623	1	6
670.962	1	2
671.301	1	3
671.640	1	13
671.979	1	-8
672.317	1	7
672.656	1	12
672.995	1	0
673.334	1	-9
673.673	1	5
674.011	1	13
674.350	1	-1
674.689	1	2
675.028	1	3
675.367	1	1
675.705	1	1
676.044	1	5
676.383	1	-1
676.722	1	1
677.060	1	9
677.399	1	10
677.738	1	-11
678.077	1	-9
678.416	1	-3
678.754	1	-6
679.093	1	5
679.432	1	-5
679.771	1	-5
680.109	1	0
680.448	1	4
680.787	1	-13
681.125	1	0
681.464	1	4
681.803	1	0
682.142	1	2
682.480	1	2
682.819	1	-4
683.158	1	2
683.496	1	3
683.835	1	8
684.174	1	0
684.512	1	0
684.851	1	-7
685.190	1	-1
685.529	1	-1
685.867	1	-2
686.206	1	-6
686.545	1	2
686.883	1	3
687.222	1	-1
687.561	1	5
687.899	1	-1
688.238	1	5
688.577	1	-4
688.746	1	-9