File: Data/GaN_150K_450ms/GaN_sample D_spot15_UVVIS_150 K_200um_450 ms 2x2mm1_135.txt
340.368	1	3
340.710	1	8
341.052	1	4
341.394	1	-10
341.737	1	11
342.079	1	3
342.421	1	4
342.763	1	4
343.105	1	5
343.447	1	2
343.789	1	8
344.131	1	1
344.473	1	8
344.815	1	6
345.157	1	8
345.499	1	7
345.841	1	13
346.183	1	5
346.526	1	11
346.868	1	0
347.210	1	2
347.552	1	15
347.894	1	3
348.236	1	6
348.578	1	3
348.920	1	-2
349.262	1	12
349.604	1	-4
349.946	1	5
350.288	1	-3
350.630	1	-3
350.972	1	8
351.314	1	-5
351.656	1	14
351.998	1	17
352.340	1	14
352.682	1	-2
353.024	1	7
353.366	1	15
353.708	1	6
354.050	1	5
354.392	1	0
354.734	1	13
355.076	1	22
355.418	1	7
355.760	1	4
356.102	1	0
356.444	1	14
356.785	1	15
357.127	1	11
357.469	1	9
357.811	1	7
358.153	1	-6
358.495	1	0
358.837	1	15
359.179	1	18
359.521	1	13
359.863	1	4
360.205	1	13
360.547	1	22
360.889	1	9
361.231	1	25
361.572	1	11
361.914	1	24
362.256	1	10
362.598	1	22
362.940	1	16
363.282	1	17
363.624	1	27
363.966	1	17
364.308	1	27
364.649	1	26
364.991	1	43
365.333	1	26
365.675	1	52
366.017	1	45
366.359	1	33
366.701	1	51
367.042	1	46
367.384	1	47
367.726	1	43
368.068	1	42
368.410	1	53
368.752	1	65
369.093	1	53
369.435	1	52
369.777	1	59
370.119	1	49
370.461	1	27
370.803	1	41
371.144	1	44
371.486	1	39
371.828	1	36
372.170	1	38
372.512	1	35
372.853	1	43
373.195	1	27
373.537	1	21
373.879	1	29
374.220	1	32
374.562	1	32
374.904	1	36
375.246	1	29
375.588	1	9
375.929	1	30
376.271	1	20
376.613	1	18
376.955	1	10
377.296	1	26
377.638	1	12
377.980	1	6
378.321	1	22
378.663	1	15
379.005	1	12
379.347	1	17
379.688	1	10
380.030	1	16
380.372	1	11
380.714	1	19
381.055	1	13
381.397	1	5
381.739	1	9
382.080	1	17
382.422	1	7
382.764	1	15
383.105	1	11
383.447	1	11
383.789	1	-1
384.130	1	15
384.472	1	14
384.814	1	9
385.156	1	8
385.497	1	22
385.839	1	4
386.180	1	6
386.522	1	10
386.864	1	-2
387.205	1	12
387.547	1	23
387.889	1	6
388.230	1	14
388.572	1	6
388.914	1	22
389.255	1	9
389.597	1	4
389.939	1	20
390.280	1	7
390.622	1	3
390.963	1	1
391.305	1	7
391.647	1	12
391.988	1	3
392.330	1	4
392.671	1	9
393.013	1	16
393.355	1	19
393.696	1	10
394.038	1	13
394.379	1	11
394.721	1	8
395.062	1	6
395.404	1	20
395.746	1	-3
396.087	1	11
396.429	1	11
396.770	1	8
397.112	1	3
397.453	1	0
397.795	1	4
398.136	1	14
398.478	1	5
398.819	1	17
399.161	1	15
399.503	1	18
399.844	1	1
400.186	1	11
400.527	1	16
400.869	1	1
401.210	1	9
401.552	1	10
401.893	1	9
402.235	1	12
402.576	1	7
402.918	1	9
403.259	1	8
403.601	1	17
403.942	1	11
404.284	1	16
404.625	1	2
404.967	1	7
405.308	1	-3
405.649	1	-2
405.991	1	6
406.332	1	14
406.674	1	9
407.015	1	16
407.357	1	18
407.698	1	19
408.040	1	7
408.381	1	3
408.722	1	15
409.064	1	17
409.405	1	2
409.747	1	8
410.088	1	23
410.430	1	13
410.771	1	12
411.112	1	10
411.454	1	9
411.795	1	19
412.137	1	14
412.478	1	20
412.819	1	8
413.161	1	16
413.502	1	8
413.844	1	19
414.185	1	18
414.526	1	3
414.868	1	13
415.209	1	5
415.550	1	8
415.892	1	7
416.233	1	8
416.575	1	2
416.916	1	6
417.257	1	6
417.599	1	18
417.940	1	7
418.281	1	21
418.623	1	3
418.964	1	18
419.305	1	10
419.647	1	20
419.988	1	22
420.329	1	12
420.671	1	9
421.012	1	8
421.353	1	29
421.695	1	26
422.036	1	11
422.377	1	6
422.718	1	18
423.060	1	12
423.401	1	3
423.742	1	17
424.084	1	5
424.425	1	10
424.766	1	22
425.107	1	23
425.449	1	9
425.790	1	15
426.131	1	3
426.472	1	27
426.814	1	22
427.155	1	14
427.496	1	12
427.837	1	4
428.179	1	19
428.520	1	14
428.861	1	14
429.202	1	7
429.544	1	12
429.885	1	17
430.226	1	-1
430.567	1	0
430.909	1	5
431.250	1	15
431.591	1	21
431.932	1	14
432.273	1	19
432.615	1	11
432.956	1	13
433.297	1	13
433.638	1	19
433.979	1	9
434.320	1	9
434.662	1	17
435.003	1	23
435.344	1	6
435.685	1	-5
436.026	1	4
436.368	1	7
436.709	1	4
437.050	1	14
437.391	1	11
437.732	1	17
438.073	1	12
438.414	1	13
438.756	1	8
439.097	1	15
439.438	1	13
439.779	1	1
440.120	1	4
440.461	1	12
440.802	1	14
441.143	1	7
441.485	1	8
441.826	1	5
442.167	1	9
442.508	1	12
442.849	1	11
443.190	1	9
443.531	1	10
443.872	1	-2
444.213	1	5
444.554	1	11
444.895	1	3
445.237	1	7
445.578	1	10
445.919	1	9
446.260	1	14
446.601	1	14
446.942	1	2
447.283	1	16
447.624	1	-12
447.965	1	3
448.306	1	14
448.647	1	16
448.988	1	6
449.329	1	13
449.670	1	3
450.011	1	13
450.352	1	6
450.693	1	15
451.034	1	1
451.375	1	2
451.716	1	0
452.057	1	4
452.398	1	5
452.739	1	14
453.080	1	13
453.421	1	18
453.762	1	19
454.103	1	9
454.444	1	9
454.785	1	13
455.126	1	12
455.467	1	6
455.808	1	11
456.149	1	8
456.490	1	2
456.831	1	0
457.172	1	5
457.513	1	3
457.854	1	8
458.195	1	11
458.536	1	16
458.877	1	9
459.218	1	7
459.559	1	4
459.899	1	4
460.240	1	5
460.581	1	-5
460.922	1	5
461.263	1	22
461.604	1	4
461.945	1	10
462.286	1	2
462.627	1	9
462.968	1	8
463.309	1	11
463.649	1	6
463.990	1	9
464.331	1	10
464.672	1	2
465.013	1	0
465.354	1	7
465.695	1	7
466.036	1	8
466.376	1	14
466.717	1	-4
467.058	1	1
467.399	1	9
467.740	1	3
468.081	1	15
468.422	1	8
468.762	1	8
469.103	1	4
469.444	1	0
469.785	1	-1
470.126	1	1
470.467	1	4
470.807	1	15
471.148	1	2
471.489	1	13
471.830	1	2
472.171	1	10
472.511	1	7
472.852	1	12
473.193	1	5
473.534	1	1
473.875	1	6
474.215	1	7
474.556	1	-1
474.897	1	8
475.238	1	9
475.578	1	4
475.919	1	1
476.260	1	8
476.601	1	6
476.942	1	3
477.282	1	0
477.623	1	0
477.964	1	8
478.305	1	5
478.645	1	7
478.986	1	7
479.327	1	10
479.667	1	11
480.008	1	5
480.349	1	-5
480.690	1	8
481.030	1	-1
481.371	1	-8
481.712	1	4
482.053	1	13
482.393	1	2
482.734	1	12
483.075	1	7
483.415	1	10
483.756	1	7
484.097	1	4
484.437	1	5
484.778	1	3
485.119	1	1
485.459	1	-3
485.800	1	3
486.141	1	15
486.481	1	2
486.822	1	15
487.163	1	1
487.503	1	11
487.844	1	-5
488.185	1	13
488.525	1	-3
488.866	1	-5
489.207	1	12
489.547	1	4
489.888	1	10
490.228	1	9
490.569	1	-2
490.910	1	9
491.250	1	11
491.591	1	6
491.932	1	7
492.272	1	-2
492.613	1	1
492.953	1	4
493.294	1	6
493.635	1	0
493.975	1	15
494.316	1	-4
494.656	1	10
494.997	1	-4
495.337	1	10
495.678	1	6
496.019	1	2
496.359	1	10
496.700	1	5
497.040	1	1
497.381	1	6
497.721	1	0
498.062	1	3
498.403	1	16
498.743	1	14
499.084	1	11
499.424	1	0
499.765	1	13
500.105	1	11
500.446	1	3
500.786	1	8
501.127	1	13
501.467	1	16
501.808	1	7
502.148	1	2
502.489	1	8
502.829	1	9
503.170	1	13
503.510	1	4
503.851	1	14
504.191	1	6
504.532	1	22
504.872	1	9
505.213	1	10
505.553	1	5
505.894	1	12
506.234	1	11
506.575	1	27
506.915	1	12
507.256	1	9
507.596	1	20
507.936	1	15
508.277	1	7
508.617	1	11
508.958	1	16
509.298	1	9
509.639	1	0
509.979	1	17
510.319	1	11
510.660	1	7
511.000	1	11
511.341	1	21
511.681	1	20
512.022	1	11
512.362	1	27
512.702	1	4
513.043	1	19
513.383	1	1
513.724	1	13
514.064	1	17
514.404	1	13
514.745	1	8
515.085	1	12
515.425	1	19
515.766	1	6
516.106	1	7
516.447	1	14
516.787	1	16
517.127	1	19
517.468	1	21
517.808	1	6
518.148	1	11
518.489	1	13
518.829	1	6
519.169	1	7
519.510	1	-7
519.850	1	9
520.190	1	14
520.531	1	14
520.871	1	24
521.211	1	6
521.552	1	11
521.892	1	18
522.232	1	14
522.573	1	10
522.913	1	14
523.253	1	20
523.593	1	19
523.934	1	14
524.274	1	13
524.614	1	15
524.955	1	12
525.295	1	14
525.635	1	12
525.975	1	13
526.316	1	-1
526.656	1	10
526.996	1	11
527.337	1	20
527.677	1	26
528.017	1	2
528.357	1	12
528.698	1	19
529.038	1	22
529.378	1	10
529.718	1	6
530.058	1	16
530.399	1	11
530.739	1	20
531.079	1	13
531.419	1	7
531.760	1	21
532.100	1	18
532.440	1	24
532.780	1	17
533.120	1	11
533.461	1	11
533.801	1	20
534.141	1	14
534.481	1	33
534.821	1	18
535.162	1	10
535.502	1	7
535.842	1	8
536.182	1	16
536.522	1	5
536.862	1	4
537.203	1	9
537.543	1	17
537.883	1	21
538.223	1	21
538.563	1	4
538.903	1	11
539.243	1	18
539.584	1	15
539.924	1	9
540.264	1	23
540.604	1	17
540.944	1	14
541.284	1	7
541.624	1	17
541.964	1	10
542.305	1	17
542.645	1	8
542.985	1	16
543.325	1	17
543.665	1	8
544.005	1	9
544.345	1	16
544.685	1	13
545.025	1	19
545.365	1	30
545.705	1	16
546.045	1	6
546.386	1	5
546.726	1	12
547.066	1	15
547.406	1	-5
547.746	1	4
548.086	1	14
548.426	1	9
548.766	1	9
549.106	1	9
549.446	1	18
549.786	1	8
550.126	1	17
550.466	1	13
550.806	1	23
551.146	1	10
551.486	1	0
551.826	1	6
552.166	1	14
552.506	1	7
552.846	1	14
553.186	1	4
553.526	1	10
553.866	1	8
554.206	1	12
554.546	1	20
554.886	1	6
555.226	1	12
555.566	1	9
555.906	1	5
556.246	1	7
556.586	1	18
556.926	1	11
557.266	1	15
557.606	1	-5
557.946	1	14
558.286	1	-3
558.626	1	11
558.966	1	6
559.306	1	9
559.646	1	17
559.986	1	15
560.325	1	3
560.665	1	3
561.005	1	4
561.345	1	8
561.685	1	9
562.025	1	6
562.365	1	10
562.705	1	19
563.045	1	15
563.385	1	13
563.725	1	7
564.064	1	4
564.404	1	8
564.744	1	20
565.084	1	11
565.424	1	8
565.764	1	6
566.104	1	16
566.444	1	10
566.783	1	9
567.123	1	6
567.463	1	11
567.803	1	15
568.143	1	13
568.483	1	17
568.823	1	3
569.162	1	-2
569.502	1	16
569.842	1	9
570.182	1	6
570.522	1	7
570.862	1	-13
571.201	1	10
571.541	1	11
571.881	1	1
572.221	1	6
572.561	1	16
572.900	1	21
573.240	1	3
573.580	1	12
573.920	1	17
574.260	1	10
574.599	1	11
574.939	1	10
575.279	1	4
575.619	1	5
575.959	1	0
576.298	1	-5
576.638	1	12
576.978	1	9
577.318	1	2
577.657	1	1
577.997	1	2
578.337	1	14
578.677	1	12
579.016	1	7
579.356	1	7
579.696	1	3
580.036	1	10
580.375	1	3
580.715	1	5
581.055	1	5
581.394	1	8
581.734	1	-1
582.074	1	9
582.414	1	5
582.753	1	0
583.093	1	11
583.433	1	13
583.772	1	5
584.112	1	8
584.452	1	8
584.791	1	15
585.131	1	8
585.471	1	11
585.811	1	1
586.150	1	10
586.490	1	11
586.830	1	5
587.169	1	11
587.509	1	13
587.849	1	9
588.188	1	10
588.528	1	7
588.867	1	3
589.207	1	3
589.547	1	12
589.886	1	0
590.226	1	-2
590.566	1	7
590.905	1	1
591.245	1	1
591.585	1	-2
591.924	1	1
592.264	1	7
592.603	1	-2
592.943	1	6
593.283	1	10
593.622	1	4
593.962	1	11
594.301	1	3
594.641	1	4
594.981	1	11
595.320	1	17
595.660	1	9
595.999	1	-2
596.339	1	7
596.678	1	0
597.018	1	2
597.358	1	5
597.697	1	-1
598.037	1	5
598.376	1	-3
598.716	1	7
599.055	1	12
599.395	1	-1
599.734	1	3
600.074	1	-7
600.413	1	6
600.753	1	9
601.092	1	-4
601.432	1	-7
601.771	1	7
602.111	1	9
602.451	1	8
602.790	1	10
603.130	1	6
603.469	1	10
603.809	1	5
604.148	1	5
604.487	1	5
604.827	1	8
605.166	1	11
605.506	1	2
605.845	1	13
606.185	1	4
606.524	1	-6
606.864	1	10
607.203	1	11
607.543	1	9
607.882	1	14
608.222	1	4
608.561	1	0
608.901	1	8
609.240	1	7
609.579	1	4
609.919	1	-3
610.258	1	11
610.598	1	0
610.937	1	3
611.277	1	16
611.616	1	11
611.955	1	-3
612.295	1	13
612.634	1	11
612.974	1	4
613.313	1	6
613.652	1	15
613.992	1	11
614.331	1	15
614.671	1	18
615.010	1	6
615.349	1	9
615.689	1	6
616.028	1	21
616.368	1	12
616.707	1	12
617.046	1	1
617.386	1	5
617.725	1	-3
618.064	1	4
618.404	1	10
618.743	1	13
619.082	1	9
619.422	1	21
619.761	1	3
620.100	1	3
620.440	1	12
620.779	1	3
621.118	1	18
621.458	1	1
621.797	1	9
622.136	1	-2
622.476	1	4
622.815	1	7
623.154	1	-6
623.494	1	-10
623.833	1	5
624.172	1	13
624.511	1	-6
624.851	1	-2
625.190	1	-1
625.529	1	7
625.869	1	5
626.208	1	-1
626.547	1	2
626.886	1	3
627.226	1	3
627.565	1	11
627.904	1	5
628.243	1	10
628.583	1	11
628.922	1	17
629.261	1	9
629.600	1	1
629.940	1	11
630.279	1	6
630.618	1	18
630.957	1	8
631.297	1	9
631.636	1	2
631.975	1	9
632.314	1	7
632.653	1	-3
632.993	1	5
633.332	1	5
633.671	1	5
634.010	1	9
634.349	1	11
634.689	1	2
635.028	1	6
635.367	1	13
635.706	1	10
636.045	1	3
636.384	1	9
636.724	1	9
637.063	1	1
637.402	1	6
637.741	1	7
638.080	1	9
638.419	1	6
638.759	1	10
639.098	1	13
639.437	1	-1
639.776	1	8
640.115	1	-2
640.454	1	5
640.793	1	2
641.132	1	6
641.472	1	10
641.811	1	3
642.150	1	1
642.489	1	15
642.828	1	10
643.167	1	3
643.506	1	-4
643.845	1	14
644.184	1	8
644.524	1	6
644.863	1	3
645.202	1	1
645.541	1	6
645.880	1	5
646.219	1	13
646.558	1	-1
646.897	1	-3
647.236	1	-2
647.575	1	9
647.914	1	9
648.253	1	3
648.592	1	10
648.931	1	2
649.270	1	14
649.610	1	4
649.949	1	2
650.288	1	11
650.627	1	4
650.966	1	4
651.305	1	10
651.644	1	17
651.983	1	2
652.322	1	0
652.661	1	7
653.000	1	3
653.339	1	-1
653.678	1	7
654.017	1	7
654.356	1	4
654.695	1	11
655.034	1	7
655.373	1	5
655.712	1	8
656.051	1	-8
656.390	1	6
656.729	1	6
657.068	1	9
657.406	1	-7
657.745	1	9
658.084	1	8
658.423	1	6
658.762	1	3
659.101	1	2
659.440	1	5
659.779	1	10
660.118	1	8
660.457	1	12
660.796	1	11
661.135	1	8
661.474	1	8
661.813	1	3
662.152	1	4
662.491	1	0
662.829	1	-2
663.168	1	0
663.507	1	10
663.846	1	3
664.185	1	0
664.524	1	5
664.863	1	-6
665.202	1	10
665.541	1	6
665.879	1	1
666.218	1	4
666.557	1	-2
666.896	1	12
667.235	1	-3
667.574	1	-6
667.913	1	9
668.251	1	-3
668.590	1	5
668.929	1	-2
669.268	1	8
669.607	1	-6
669.946	1	3
670.285	1	-2
670.623	1	6
670.962	1	0
671.301	1	8
671.640	1	8
671.979	1	8
672.317	1	7
672.656	1	7
672.995	1	4
673.334	1	-3
673.673	1	11
674.011	1	6
674.350	1	15
674.689	1	7
675.028	1	5
675.367	1	3
675.705	1	-2
676.044	1	3
676.383	1	2
676.722	1	9
677.060	1	7
677.399	1	13
677.738	1	0
678.077	1	3
678.416	1	5
678.754	1	13
679.093	1	13
679.432	1	4
679.771	1	7
680.109	1	1
680.448	1	1
680.787	1	-15
681.125	1	2
681.464	1	3
681.803	1	2
682.142	1	10
682.480	1	0
682.819	1	2
683.158	1	3
683.496	1	0
683.835	1	3
684.174	1	8
684.512	1	-1
684.851	1	-1
685.190	1	9
685.529	1	0
685.867	1	-1
686.206	1	-3
686.545	1	-3
686.883	1	19
687.222	1	3
687.561	1	9
687.899	1	7
688.238	1	3
688.577	1	8
688.746	1	2