File: Data/GaN_150K_450ms/GaN_sample D_spot15_UVVIS_150 K_200um_450 ms 2x2mm1_86.txt
340.368	1	4
340.710	1	8
341.052	1	10
341.394	1	-5
341.737	1	5
342.079	1	3
342.421	1	4
342.763	1	5
343.105	1	9
343.447	1	2
343.789	1	2
344.131	1	-5
344.473	1	4
344.815	1	7
345.157	1	14
345.499	1	4
345.841	1	6
346.183	1	5
346.526	1	11
346.868	1	2
347.210	1	5
347.552	1	20
347.894	1	8
348.236	1	6
348.578	1	16
348.920	1	6
349.262	1	16
349.604	1	-1
349.946	1	4
350.288	1	4
350.630	1	6
350.972	1	9
351.314	1	2
351.656	1	16
351.998	1	5
352.340	1	10
352.682	1	-5
353.024	1	26
353.366	1	13
353.708	1	6
354.050	1	-3
354.392	1	-3
354.734	1	18
355.076	1	17
355.418	1	6
355.760	1	12
356.102	1	10
356.444	1	26
356.785	1	20
357.127	1	22
357.469	1	16
357.811	1	16
358.153	1	12
358.495	1	19
358.837	1	28
359.179	1	19
359.521	1	31
359.863	1	25
360.205	1	26
360.547	1	37
360.889	1	32
361.231	1	34
361.572	1	36
361.914	1	45
362.256	1	55
362.598	1	48
362.940	1	53
363.282	1	48
363.624	1	64
363.966	1	60
364.308	1	73
364.649	1	74
364.991	1	94
365.333	1	84
365.675	1	112
366.017	1	119
366.359	1	117
366.701	1	115
367.042	1	114
367.384	1	118
367.726	1	139
368.068	1	139
368.410	1	139
368.752	1	149
369.093	1	140
369.435	1	130
369.777	1	128
370.119	1	118
370.461	1	115
370.803	1	102
371.144	1	93
371.486	1	96
371.828	1	95
372.170	1	85
372.512	1	79
372.853	1	78
373.195	1	67
373.537	1	61
373.879	1	64
374.220	1	79
374.562	1	71
374.904	1	69
375.246	1	54
375.588	1	55
375.929	1	60
376.271	1	58
376.613	1	43
376.955	1	44
377.296	1	40
377.638	1	44
377.980	1	37
378.321	1	50
378.663	1	39
379.005	1	41
379.347	1	38
379.688	1	41
380.030	1	33
380.372	1	38
380.714	1	33
381.055	1	26
381.397	1	30
381.739	1	28
382.080	1	29
382.422	1	36
382.764	1	21
383.105	1	21
383.447	1	16
383.789	1	12
384.130	1	24
384.472	1	27
384.814	1	23
385.156	1	25
385.497	1	41
385.839	1	24
386.180	1	16
386.522	1	28
386.864	1	9
387.205	1	21
387.547	1	19
387.889	1	25
388.230	1	16
388.572	1	11
388.914	1	26
389.255	1	20
389.597	1	12
389.939	1	24
390.280	1	17
390.622	1	20
390.963	1	18
391.305	1	12
391.647	1	20
391.988	1	12
392.330	1	17
392.671	1	24
393.013	1	19
393.355	1	22
393.696	1	19
394.038	1	12
394.379	1	10
394.721	1	8
395.062	1	9
395.404	1	21
395.746	1	2
396.087	1	22
396.429	1	24
396.770	1	14
397.112	1	13
397.453	1	10
397.795	1	9
398.136	1	13
398.478	1	9
398.819	1	13
399.161	1	15
399.503	1	14
399.844	1	10
400.186	1	21
400.527	1	14
400.869	1	17
401.210	1	14
401.552	1	9
401.893	1	10
402.235	1	21
402.576	1	13
402.918	1	5
403.259	1	10
403.601	1	20
403.942	1	7
404.284	1	23
404.625	1	5
404.967	1	15
405.308	1	1
405.649	1	13
405.991	1	15
406.332	1	13
406.674	1	23
407.015	1	14
407.357	1	17
407.698	1	22
408.040	1	18
408.381	1	-3
408.722	1	17
409.064	1	13
409.405	1	13
409.747	1	9
410.088	1	13
410.430	1	23
410.771	1	12
411.112	1	16
411.454	1	19
411.795	1	11
412.137	1	8
412.478	1	15
412.819	1	18
413.161	1	22
413.502	1	24
413.844	1	26
414.185	1	15
414.526	1	12
414.868	1	1
415.209	1	4
415.550	1	17
415.892	1	23
416.233	1	4
416.575	1	3
416.916	1	8
417.257	1	15
417.599	1	5
417.940	1	10
418.281	1	23
418.623	1	6
418.964	1	32
419.305	1	25
419.647	1	8
419.988	1	19
420.329	1	21
420.671	1	22
421.012	1	9
421.353	1	26
421.695	1	19
422.036	1	15
422.377	1	24
422.718	1	18
423.060	1	26
423.401	1	4
423.742	1	25
424.084	1	14
424.425	1	25
424.766	1	23
425.107	1	19
425.449	1	10
425.790	1	15
426.131	1	17
426.472	1	28
426.814	1	15
427.155	1	22
427.496	1	24
427.837	1	12
428.179	1	24
428.520	1	15
428.861	1	24
429.202	1	12
429.544	1	12
429.885	1	14
430.226	1	2
430.567	1	6
430.909	1	8
431.250	1	19
431.591	1	15
431.932	1	17
432.273	1	22
432.615	1	6
432.956	1	11
433.297	1	12
433.638	1	18
433.979	1	15
434.320	1	15
434.662	1	19
435.003	1	26
435.344	1	20
435.685	1	10
436.026	1	4
436.368	1	6
436.709	1	11
437.050	1	6
437.391	1	18
437.732	1	14
438.073	1	11
438.414	1	14
438.756	1	12
439.097	1	10
439.438	1	13
439.779	1	18
440.120	1	15
440.461	1	13
440.802	1	6
441.143	1	19
441.485	1	13
441.826	1	18
442.167	1	19
442.508	1	14
442.849	1	11
443.190	1	16
443.531	1	8
443.872	1	4
444.213	1	-1
444.554	1	15
444.895	1	10
445.237	1	10
445.578	1	11
445.919	1	5
446.260	1	13
446.601	1	6
446.942	1	11
447.283	1	26
447.624	1	0
447.965	1	5
448.306	1	9
448.647	1	6
448.988	1	12
449.329	1	12
449.670	1	10
450.011	1	3
450.352	1	8
450.693	1	14
451.034	1	12
451.375	1	7
451.716	1	9
452.057	1	8
452.398	1	15
452.739	1	11
453.080	1	16
453.421	1	25
453.762	1	16
454.103	1	10
454.444	1	11
454.785	1	13
455.126	1	10
455.467	1	11
455.808	1	11
456.149	1	10
456.490	1	8
456.831	1	15
457.172	1	11
457.513	1	5
457.854	1	11
458.195	1	13
458.536	1	7
458.877	1	17
459.218	1	12
459.559	1	6
459.899	1	12
460.240	1	13
460.581	1	7
460.922	1	3
461.263	1	14
461.604	1	5
461.945	1	13
462.286	1	6
462.627	1	9
462.968	1	14
463.309	1	17
463.649	1	7
463.990	1	4
464.331	1	20
464.672	1	5
465.013	1	6
465.354	1	17
465.695	1	7
466.036	1	13
466.376	1	14
466.717	1	0
467.058	1	9
467.399	1	1
467.740	1	17
468.081	1	14
468.422	1	6
468.762	1	11
469.103	1	13
469.444	1	17
469.785	1	4
470.126	1	23
470.467	1	10
470.807	1	17
471.148	1	0
471.489	1	12
471.830	1	4
472.171	1	8
472.511	1	7
472.852	1	12
473.193	1	5
473.534	1	13
473.875	1	4
474.215	1	2
474.556	1	4
474.897	1	5
475.238	1	21
475.578	1	4
475.919	1	6
476.260	1	-2
476.601	1	12
476.942	1	5
477.282	1	-6
477.623	1	10
477.964	1	12
478.305	1	10
478.645	1	12
478.986	1	16
479.327	1	10
479.667	1	10
480.008	1	8
480.349	1	8
480.690	1	11
481.030	1	3
481.371	1	1
481.712	1	14
482.053	1	24
482.393	1	18
482.734	1	15
483.075	1	10
483.415	1	10
483.756	1	17
484.097	1	20
484.437	1	16
484.778	1	5
485.119	1	3
485.459	1	1
485.800	1	6
486.141	1	18
486.481	1	10
486.822	1	18
487.163	1	3
487.503	1	6
487.844	1	12
488.185	1	13
488.525	1	6
488.866	1	-3
489.207	1	15
489.547	1	10
489.888	1	21
490.228	1	17
490.569	1	11
490.910	1	17
491.250	1	10
491.591	1	12
491.932	1	21
492.272	1	8
492.613	1	14
492.953	1	14
493.294	1	7
493.635	1	11
493.975	1	30
494.316	1	17
494.656	1	24
494.997	1	11
495.337	1	16
495.678	1	17
496.019	1	12
496.359	1	11
496.700	1	12
497.040	1	16
497.381	1	20
497.721	1	10
498.062	1	19
498.403	1	23
498.743	1	16
499.084	1	23
499.424	1	20
499.765	1	22
500.105	1	33
500.446	1	17
500.786	1	13
501.127	1	26
501.467	1	26
501.808	1	24
502.148	1	6
502.489	1	15
502.829	1	16
503.170	1	26
503.510	1	13
503.851	1	28
504.191	1	29
504.532	1	26
504.872	1	14
505.213	1	27
505.553	1	20
505.894	1	26
506.234	1	33
506.575	1	36
506.915	1	20
507.256	1	30
507.596	1	35
507.936	1	24
508.277	1	43
508.617	1	31
508.958	1	26
509.298	1	25
509.639	1	18
509.979	1	23
510.319	1	32
510.660	1	24
511.000	1	24
511.341	1	35
511.681	1	44
512.022	1	18
512.362	1	42
512.702	1	21
513.043	1	27
513.383	1	29
513.724	1	39
514.064	1	30
514.404	1	48
514.745	1	33
515.085	1	39
515.425	1	38
515.766	1	34
516.106	1	31
516.447	1	32
516.787	1	30
517.127	1	40
517.468	1	43
517.808	1	22
518.148	1	40
518.489	1	35
518.829	1	37
519.169	1	28
519.510	1	28
519.850	1	34
520.190	1	39
520.531	1	38
520.871	1	43
521.211	1	36
521.552	1	33
521.892	1	39
522.232	1	43
522.573	1	29
522.913	1	42
523.253	1	35
523.593	1	44
523.934	1	41
524.274	1	40
524.614	1	37
524.955	1	37
525.295	1	41
525.635	1	30
525.975	1	33
526.316	1	33
526.656	1	29
526.996	1	31
527.337	1	46
527.677	1	47
528.017	1	27
528.357	1	40
528.698	1	39
529.038	1	42
529.378	1	38
529.718	1	30
530.058	1	32
530.399	1	34
530.739	1	51
531.079	1	27
531.419	1	41
531.760	1	27
532.100	1	40
532.440	1	28
532.780	1	33
533.120	1	33
533.461	1	36
533.801	1	35
534.141	1	38
534.481	1	50
534.821	1	36
535.162	1	34
535.502	1	41
535.842	1	27
536.182	1	29
536.522	1	27
536.862	1	33
537.203	1	43
537.543	1	41
537.883	1	35
538.223	1	38
538.563	1	24
538.903	1	27
539.243	1	36
539.584	1	29
539.924	1	35
540.264	1	42
540.604	1	44
540.944	1	38
541.284	1	33
541.624	1	32
541.964	1	31
542.305	1	41
542.645	1	26
542.985	1	32
543.325	1	35
543.665	1	27
544.005	1	31
544.345	1	35
544.685	1	37
545.025	1	32
545.365	1	36
545.705	1	38
546.045	1	38
546.386	1	36
546.726	1	32
547.066	1	32
547.406	1	18
547.746	1	33
548.086	1	38
548.426	1	26
548.766	1	50
549.106	1	29
549.446	1	31
549.786	1	34
550.126	1	32
550.466	1	29
550.806	1	34
551.146	1	29
551.486	1	39
551.826	1	21
552.166	1	32
552.506	1	31
552.846	1	35
553.186	1	22
553.526	1	36
553.866	1	30
554.206	1	26
554.546	1	44
554.886	1	19
555.226	1	25
555.566	1	25
555.906	1	14
556.246	1	22
556.586	1	20
556.926	1	12
557.266	1	40
557.606	1	15
557.946	1	21
558.286	1	11
558.626	1	22
558.966	1	22
559.306	1	23
559.646	1	26
559.986	1	37
560.325	1	22
560.665	1	16
561.005	1	29
561.345	1	21
561.685	1	26
562.025	1	26
562.365	1	26
562.705	1	28
563.045	1	25
563.385	1	24
563.725	1	24
564.064	1	21
564.404	1	14
564.744	1	32
565.084	1	30
565.424	1	17
565.764	1	25
566.104	1	39
566.444	1	20
566.783	1	30
567.123	1	16
567.463	1	20
567.803	1	21
568.143	1	18
568.483	1	20
568.823	1	17
569.162	1	15
569.502	1	16
569.842	1	13
570.182	1	19
570.522	1	19
570.862	1	2
571.201	1	18
571.541	1	19
571.881	1	22
572.221	1	18
572.561	1	16
572.900	1	20
573.240	1	21
573.580	1	19
573.920	1	22
574.260	1	13
574.599	1	17
574.939	1	20
575.279	1	17
575.619	1	18
575.959	1	16
576.298	1	2
576.638	1	22
576.978	1	18
577.318	1	11
577.657	1	17
577.997	1	12
578.337	1	16
578.677	1	13
579.016	1	21
579.356	1	22
579.696	1	15
580.036	1	17
580.375	1	15
580.715	1	17
581.055	1	12
581.394	1	14
581.734	1	21
582.074	1	11
582.414	1	11
582.753	1	9
583.093	1	7
583.433	1	16
583.772	1	18
584.112	1	15
584.452	1	13
584.791	1	17
585.131	1	16
585.471	1	13
585.811	1	14
586.150	1	15
586.490	1	11
586.830	1	14
587.169	1	10
587.509	1	16
587.849	1	22
588.188	1	12
588.528	1	9
588.867	1	17
589.207	1	16
589.547	1	11
589.886	1	9
590.226	1	2
590.566	1	11
590.905	1	20
591.245	1	6
591.585	1	2
591.924	1	-3
592.264	1	11
592.603	1	-4
592.943	1	15
593.283	1	18
593.622	1	7
593.962	1	20
594.301	1	9
594.641	1	8
594.981	1	10
595.320	1	25
595.660	1	18
595.999	1	4
596.339	1	8
596.678	1	0
597.018	1	14
597.358	1	17
597.697	1	-2
598.037	1	11
598.376	1	3
598.716	1	16
599.055	1	13
599.395	1	-1
599.734	1	12
600.074	1	7
600.413	1	6
600.753	1	13
601.092	1	3
601.432	1	-4
601.771	1	11
602.111	1	6
602.451	1	7
602.790	1	16
603.130	1	10
603.469	1	13
603.809	1	12
604.148	1	6
604.487	1	14
604.827	1	9
605.166	1	9
605.506	1	3
605.845	1	19
606.185	1	12
606.524	1	6
606.864	1	13
607.203	1	16
607.543	1	15
607.882	1	17
608.222	1	10
608.561	1	14
608.901	1	10
609.240	1	17
609.579	1	0
609.919	1	-4
610.258	1	14
610.598	1	2
610.937	1	8
611.277	1	2
611.616	1	13
611.955	1	8
612.295	1	12
612.634	1	7
612.974	1	0
613.313	1	12
613.652	1	15
613.992	1	3
614.331	1	20
614.671	1	1
615.010	1	19
615.349	1	12
615.689	1	13
616.028	1	21
616.368	1	11
616.707	1	5
617.046	1	11
617.386	1	14
617.725	1	4
618.064	1	3
618.404	1	2
618.743	1	9
619.082	1	24
619.422	1	21
619.761	1	3
620.100	1	17
620.440	1	14
620.779	1	12
621.118	1	13
621.458	1	13
621.797	1	7
622.136	1	5
622.476	1	5
622.815	1	15
623.154	1	-3
623.494	1	1
623.833	1	9
624.172	1	3
624.511	1	-8
624.851	1	6
625.190	1	8
625.529	1	-5
625.869	1	12
626.208	1	8
626.547	1	6
626.886	1	3
627.226	1	12
627.565	1	11
627.904	1	6
628.243	1	14
628.583	1	11
628.922	1	12
629.261	1	10
629.600	1	1
629.940	1	8
630.279	1	10
630.618	1	14
630.957	1	18
631.297	1	11
631.636	1	5
631.975	1	5
632.314	1	11
632.653	1	0
632.993	1	1
633.332	1	17
633.671	1	14
634.010	1	6
634.349	1	27
634.689	1	4
635.028	1	7
635.367	1	20
635.706	1	10
636.045	1	3
636.384	1	15
636.724	1	7
637.063	1	-2
637.402	1	8
637.741	1	6
638.080	1	13
638.419	1	-1
638.759	1	8
639.098	1	9
639.437	1	12
639.776	1	0
640.115	1	3
640.454	1	6
640.793	1	11
641.132	1	16
641.472	1	12
641.811	1	4
642.150	1	-2
642.489	1	7
642.828	1	19
643.167	1	12
643.506	1	14
643.845	1	11
644.184	1	16
644.524	1	5
644.863	1	3
645.202	1	6
645.541	1	7
645.880	1	10
646.219	1	10
646.558	1	-2
646.897	1	-5
647.236	1	3
647.575	1	13
647.914	1	11
648.253	1	22
648.592	1	15
648.931	1	14
649.270	1	7
649.610	1	11
649.949	1	6
650.288	1	6
650.627	1	0
650.966	1	13
651.305	1	8
651.644	1	14
651.983	1	-1
652.322	1	9
652.661	1	12
653.000	1	5
653.339	1	8
653.678	1	12
654.017	1	5
654.356	1	2
654.695	1	19
655.034	1	8
655.373	1	4
655.712	1	17
656.051	1	-1
656.390	1	14
656.729	1	12
657.068	1	-1
657.406	1	1
657.745	1	18
658.084	1	13
658.423	1	11
658.762	1	2
659.101	1	5
659.440	1	11
659.779	1	10
660.118	1	5
660.457	1	2
660.796	1	15
661.135	1	6
661.474	1	6
661.813	1	7
662.152	1	1
662.491	1	2
662.829	1	12
663.168	1	1
663.507	1	4
663.846	1	3
664.185	1	14
664.524	1	17
664.863	1	1
665.202	1	5
665.541	1	10
665.879	1	13
666.218	1	14
666.557	1	7
666.896	1	9
667.235	1	8
667.574	1	3
667.913	1	10
668.251	1	-1
668.590	1	2
668.929	1	8
669.268	1	1
669.607	1	-4
669.946	1	13
670.285	1	14
670.623	1	9
670.962	1	-1
671.301	1	5
671.640	1	13
671.979	1	3
672.317	1	11
672.656	1	2
672.995	1	4
673.334	1	-3
673.673	1	19
674.011	1	6
674.350	1	5
674.689	1	2
675.028	1	9
675.367	1	12
675.705	1	2
676.044	1	0
676.383	1	5
676.722	1	7
677.060	1	8
677.399	1	12
677.738	1	11
678.077	1	-3
678.416	1	9
678.754	1	11
679.093	1	12
679.432	1	2
679.771	1	1
680.109	1	7
680.448	1	5
680.787	1	0
681.125	1	8
681.464	1	4
681.803	1	1
682.142	1	9
682.480	1	-8
682.819	1	7
683.158	1	1
683.496	1	3
683.835	1	8
684.174	1	4
684.512	1	2
684.851	1	2
685.190	1	5
685.529	1	5
685.867	1	9
686.206	1	3
686.545	1	11
686.883	1	19
687.222	1	6
687.561	1	12
687.899	1	7
688.238	1	14
688.577	1	9
688.746	1	7