File: Data/GaN_150K_450ms/GaN_sample D_spot15_UVVIS_150 K_200um_450 ms 2x2mm1_320.txt
340.368	1	-7
340.710	1	-1
341.052	1	4
341.394	1	-7
341.737	1	2
342.079	1	1
342.421	1	-6
342.763	1	3
343.105	1	-2
343.447	1	2
343.789	1	1
344.131	1	-1
344.473	1	9
344.815	1	9
345.157	1	16
345.499	1	-2
345.841	1	12
346.183	1	8
346.526	1	12
346.868	1	0
347.210	1	-4
347.552	1	5
347.894	1	-8
348.236	1	2
348.578	1	8
348.920	1	4
349.262	1	3
349.604	1	2
349.946	1	-5
350.288	1	0
350.630	1	-6
350.972	1	10
351.314	1	-5
351.656	1	5
351.998	1	14
352.340	1	5
352.682	1	-10
353.024	1	2
353.366	1	8
353.708	1	-2
354.050	1	-8
354.392	1	-6
354.734	1	12
355.076	1	3
355.418	1	-7
355.760	1	5
356.102	1	-1
356.444	1	14
356.785	1	2
357.127	1	-4
357.469	1	9
357.811	1	-7
358.153	1	-10
358.495	1	5
358.837	1	9
359.179	1	-1
359.521	1	15
359.863	1	-13
360.205	1	13
360.547	1	5
360.889	1	9
361.231	1	7
361.572	1	1
361.914	1	5
362.256	1	11
362.598	1	10
362.940	1	2
363.282	1	-4
363.624	1	4
363.966	1	1
364.308	1	2
364.649	1	4
364.991	1	10
365.333	1	3
365.675	1	12
366.017	1	15
366.359	1	-2
366.701	1	1
367.042	1	15
367.384	1	-1
367.726	1	8
368.068	1	14
368.410	1	22
368.752	1	13
369.093	1	3
369.435	1	19
369.777	1	24
370.119	1	13
370.461	1	4
370.803	1	4
371.144	1	2
371.486	1	12
371.828	1	12
372.170	1	8
372.512	1	-3
372.853	1	9
373.195	1	-1
373.537	1	4
373.879	1	-2
374.220	1	11
374.562	1	15
374.904	1	3
375.246	1	1
375.588	1	-3
375.929	1	5
376.271	1	5
376.613	1	-2
376.955	1	-6
377.296	1	5
377.638	1	-1
377.980	1	-1
378.321	1	9
378.663	1	6
379.005	1	0
379.347	1	6
379.688	1	12
380.030	1	9
380.372	1	11
380.714	1	-1
381.055	1	2
381.397	1	1
381.739	1	1
382.080	1	11
382.422	1	5
382.764	1	1
383.105	1	-1
383.447	1	2
383.789	1	-7
384.130	1	-5
384.472	1	-5
384.814	1	4
385.156	1	-1
385.497	1	8
385.839	1	9
386.180	1	1
386.522	1	2
386.864	1	-4
387.205	1	-4
387.547	1	9
387.889	1	2
388.230	1	3
388.572	1	-3
388.914	1	9
389.255	1	5
389.597	1	2
389.939	1	5
390.280	1	-6
390.622	1	-7
390.963	1	-17
391.305	1	-6
391.647	1	6
391.988	1	10
392.330	1	-3
392.671	1	0
393.013	1	6
393.355	1	13
393.696	1	4
394.038	1	8
394.379	1	12
394.721	1	4
395.062	1	-5
395.404	1	10
395.746	1	-3
396.087	1	4
396.429	1	0
396.770	1	4
397.112	1	-2
397.453	1	2
397.795	1	-1
398.136	1	12
398.478	1	2
398.819	1	4
399.161	1	5
399.503	1	12
399.844	1	-3
400.186	1	-6
400.527	1	4
400.869	1	-2
401.210	1	-4
401.552	1	2
401.893	1	1
402.235	1	-3
402.576	1	1
402.918	1	-7
403.259	1	5
403.601	1	12
403.942	1	1
404.284	1	8
404.625	1	0
404.967	1	7
405.308	1	-14
405.649	1	-6
405.991	1	-4
406.332	1	3
406.674	1	-4
407.015	1	-4
407.357	1	5
407.698	1	1
408.040	1	18
408.381	1	-8
408.722	1	3
409.064	1	3
409.405	1	7
409.747	1	2
410.088	1	9
410.430	1	11
410.771	1	13
411.112	1	4
411.454	1	3
411.795	1	8
412.137	1	-10
412.478	1	1
412.819	1	9
413.161	1	0
413.502	1	1
413.844	1	7
414.185	1	0
414.526	1	-5
414.868	1	3
415.209	1	-1
415.550	1	4
415.892	1	13
416.233	1	6
416.575	1	0
416.916	1	-8
417.257	1	-5
417.599	1	2
417.940	1	-12
418.281	1	4
418.623	1	0
418.964	1	7
419.305	1	13
419.647	1	1
419.988	1	5
420.329	1	8
420.671	1	9
421.012	1	0
421.353	1	16
421.695	1	11
422.036	1	6
422.377	1	1
422.718	1	5
423.060	1	4
423.401	1	-3
423.742	1	4
424.084	1	-2
424.425	1	5
424.766	1	5
425.107	1	2
425.449	1	-2
425.790	1	3
426.131	1	-1
426.472	1	2
426.814	1	1
427.155	1	-6
427.496	1	-1
427.837	1	-8
428.179	1	10
428.520	1	4
428.861	1	6
429.202	1	0
429.544	1	2
429.885	1	0
430.226	1	-6
430.567	1	-11
430.909	1	-1
431.250	1	-1
431.591	1	2
431.932	1	-2
432.273	1	14
432.615	1	4
432.956	1	-3
433.297	1	4
433.638	1	10
433.979	1	-6
434.320	1	0
434.662	1	7
435.003	1	13
435.344	1	-1
435.685	1	4
436.026	1	6
436.368	1	1
436.709	1	3
437.050	1	1
437.391	1	3
437.732	1	6
438.073	1	0
438.414	1	3
438.756	1	-1
439.097	1	7
439.438	1	-2
439.779	1	1
440.120	1	-8
440.461	1	-5
440.802	1	4
441.143	1	9
441.485	1	-1
441.826	1	7
442.167	1	2
442.508	1	-2
442.849	1	6
443.190	1	8
443.531	1	4
443.872	1	-11
444.213	1	-7
444.554	1	1
444.895	1	-1
445.237	1	-2
445.578	1	-2
445.919	1	-1
446.260	1	-1
446.601	1	2
446.942	1	5
447.283	1	7
447.624	1	-6
447.965	1	5
448.306	1	-5
448.647	1	-7
448.988	1	8
449.329	1	6
449.670	1	8
450.011	1	6
450.352	1	-1
450.693	1	7
451.034	1	-3
451.375	1	1
451.716	1	3
452.057	1	7
452.398	1	5
452.739	1	10
453.080	1	-4
453.421	1	7
453.762	1	9
454.103	1	-5
454.444	1	-4
454.785	1	3
455.126	1	-5
455.467	1	3
455.808	1	12
456.149	1	-17
456.490	1	-5
456.831	1	-2
457.172	1	2
457.513	1	3
457.854	1	-6
458.195	1	-1
458.536	1	8
458.877	1	-3
459.218	1	7
459.559	1	-7
459.899	1	-1
460.240	1	-7
460.581	1	-4
460.922	1	-1
461.263	1	10
461.604	1	-7
461.945	1	12
462.286	1	1
462.627	1	1
462.968	1	13
463.309	1	7
463.649	1	-1
463.990	1	0
464.331	1	-8
464.672	1	1
465.013	1	-1
465.354	1	14
465.695	1	2
466.036	1	0
466.376	1	13
466.717	1	-5
467.058	1	0
467.399	1	-3
467.740	1	9
468.081	1	-1
468.422	1	11
468.762	1	6
469.103	1	-1
469.444	1	8
469.785	1	3
470.126	1	9
470.467	1	-4
470.807	1	0
471.148	1	-6
471.489	1	-3
471.830	1	8
472.171	1	12
472.511	1	8
472.852	1	13
473.193	1	-1
473.534	1	-1
473.875	1	-7
474.215	1	0
474.556	1	-2
474.897	1	-6
475.238	1	1
475.578	1	-1
475.919	1	0
476.260	1	-1
476.601	1	3
476.942	1	-2
477.282	1	-2
477.623	1	5
477.964	1	2
478.305	1	4
478.645	1	3
478.986	1	7
479.327	1	7
479.667	1	-3
480.008	1	10
480.349	1	-13
480.690	1	-2
481.030	1	-4
481.371	1	-2
481.712	1	12
482.053	1	2
482.393	1	1
482.734	1	-1
483.075	1	9
483.415	1	0
483.756	1	2
484.097	1	10
484.437	1	4
484.778	1	-2
485.119	1	6
485.459	1	1
485.800	1	-3
486.141	1	9
486.481	1	-10
486.822	1	10
487.163	1	3
487.503	1	6
487.844	1	-9
488.185	1	0
488.525	1	-5
488.866	1	-4
489.207	1	4
489.547	1	5
489.888	1	6
490.228	1	-3
490.569	1	-6
490.910	1	8
491.250	1	3
491.591	1	3
491.932	1	1
492.272	1	-2
492.613	1	4
492.953	1	-4
493.294	1	-11
493.635	1	3
493.975	1	8
494.316	1	-8
494.656	1	3
494.997	1	-8
495.337	1	-2
495.678	1	2
496.019	1	4
496.359	1	-3
496.700	1	3
497.040	1	-6
497.381	1	-5
497.721	1	-4
498.062	1	-5
498.403	1	13
498.743	1	9
499.084	1	7
499.424	1	-1
499.765	1	-1
500.105	1	7
500.446	1	-9
500.786	1	-11
501.127	1	8
501.467	1	5
501.808	1	4
502.148	1	1
502.489	1	-6
502.829	1	-4
503.170	1	3
503.510	1	-5
503.851	1	-4
504.191	1	-5
504.532	1	2
504.872	1	-3
505.213	1	-12
505.553	1	5
505.894	1	7
506.234	1	5
506.575	1	7
506.915	1	3
507.256	1	2
507.596	1	1
507.936	1	9
508.277	1	5
508.617	1	-1
508.958	1	7
509.298	1	-9
509.639	1	-10
509.979	1	3
510.319	1	11
510.660	1	3
511.000	1	-2
511.341	1	16
511.681	1	9
512.022	1	-5
512.362	1	5
512.702	1	1
513.043	1	1
513.383	1	12
513.724	1	-4
514.064	1	8
514.404	1	2
514.745	1	0
515.085	1	7
515.425	1	5
515.766	1	-1
516.106	1	-4
516.447	1	8
516.787	1	4
517.127	1	5
517.468	1	9
517.808	1	-1
518.148	1	7
518.489	1	-2
518.829	1	3
519.169	1	-8
519.510	1	-1
519.850	1	2
520.190	1	0
520.531	1	-3
520.871	1	1
521.211	1	6
521.552	1	5
521.892	1	2
522.232	1	7
522.573	1	-3
522.913	1	7
523.253	1	5
523.593	1	9
523.934	1	-1
524.274	1	7
524.614	1	10
524.955	1	-3
525.295	1	9
525.635	1	9
525.975	1	0
526.316	1	-9
526.656	1	4
526.996	1	-5
527.337	1	-2
527.677	1	12
528.017	1	-3
528.357	1	5
528.698	1	7
529.038	1	3
529.378	1	4
529.718	1	-9
530.058	1	-3
530.399	1	3
530.739	1	4
531.079	1	-8
531.419	1	6
531.760	1	1
532.100	1	11
532.440	1	3
532.780	1	6
533.120	1	9
533.461	1	0
533.801	1	5
534.141	1	4
534.481	1	20
534.821	1	1
535.162	1	8
535.502	1	2
535.842	1	2
536.182	1	4
536.522	1	-5
536.862	1	-7
537.203	1	-7
537.543	1	-3
537.883	1	0
538.223	1	17
538.563	1	-2
538.903	1	-2
539.243	1	9
539.584	1	-6
539.924	1	3
540.264	1	15
540.604	1	6
540.944	1	-2
541.284	1	0
541.624	1	2
541.964	1	0
542.305	1	12
542.645	1	-15
542.985	1	3
543.325	1	1
543.665	1	9
544.005	1	3
544.345	1	4
544.685	1	-12
545.025	1	15
545.365	1	7
545.705	1	3
546.045	1	8
546.386	1	-4
546.726	1	-3
547.066	1	1
547.406	1	-4
547.746	1	-3
548.086	1	8
548.426	1	5
548.766	1	-2
549.106	1	-3
549.446	1	-1
549.786	1	5
550.126	1	-2
550.466	1	-1
550.806	1	12
551.146	1	2
551.486	1	0
551.826	1	-5
552.166	1	8
552.506	1	1
552.846	1	-2
553.186	1	-7
553.526	1	6
553.866	1	7
554.206	1	4
554.546	1	7
554.886	1	8
555.226	1	2
555.566	1	4
555.906	1	-6
556.246	1	0
556.586	1	5
556.926	1	-3
557.266	1	5
557.606	1	-9
557.946	1	9
558.286	1	-7
558.626	1	3
558.966	1	6
559.306	1	7
559.646	1	4
559.986	1	11
560.325	1	1
560.665	1	1
561.005	1	0
561.345	1	-1
561.685	1	11
562.025	1	6
562.365	1	2
562.705	1	5
563.045	1	4
563.385	1	4
563.725	1	-3
564.064	1	-4
564.404	1	5
564.744	1	11
565.084	1	4
565.424	1	4
565.764	1	5
566.104	1	-1
566.444	1	16
566.783	1	7
567.123	1	-2
567.463	1	2
567.803	1	2
568.143	1	2
568.483	1	17
568.823	1	2
569.162	1	-10
569.502	1	5
569.842	1	5
570.182	1	-5
570.522	1	-6
570.862	1	-13
571.201	1	15
571.541	1	7
571.881	1	1
572.221	1	2
572.561	1	11
572.900	1	14
573.240	1	0
573.580	1	7
573.920	1	9
574.260	1	1
574.599	1	-7
574.939	1	2
575.279	1	8
575.619	1	5
575.959	1	0
576.298	1	0
576.638	1	8
576.978	1	4
577.318	1	-2
577.657	1	-2
577.997	1	4
578.337	1	9
578.677	1	4
579.016	1	-1
579.356	1	4
579.696	1	-3
580.036	1	-4
580.375	1	0
580.715	1	8
581.055	1	1
581.394	1	-4
581.734	1	9
582.074	1	3
582.414	1	4
582.753	1	-1
583.093	1	5
583.433	1	9
583.772	1	10
584.112	1	7
584.452	1	-4
584.791	1	5
585.131	1	5
585.471	1	8
585.811	1	5
586.150	1	4
586.490	1	-4
586.830	1	-3
587.169	1	3
587.509	1	4
587.849	1	9
588.188	1	3
588.528	1	3
588.867	1	-12
589.207	1	10
589.547	1	9
589.886	1	6
590.226	1	1
590.566	1	-4
590.905	1	2
591.245	1	-12
591.585	1	-8
591.924	1	-2
592.264	1	1
592.603	1	-3
592.943	1	-5
593.283	1	-1
593.622	1	-1
593.962	1	6
594.301	1	2
594.641	1	3
594.981	1	3
595.320	1	16
595.660	1	12
595.999	1	5
596.339	1	-3
596.678	1	-5
597.018	1	-3
597.358	1	6
597.697	1	0
598.037	1	-4
598.376	1	0
598.716	1	-2
599.055	1	2
599.395	1	1
599.734	1	-4
600.074	1	0
600.413	1	-1
600.753	1	6
601.092	1	-5
601.432	1	-4
601.771	1	6
602.111	1	1
602.451	1	-3
602.790	1	5
603.130	1	10
603.469	1	3
603.809	1	-2
604.148	1	-8
604.487	1	1
604.827	1	8
605.166	1	-2
605.506	1	-1
605.845	1	8
606.185	1	-3
606.524	1	-11
606.864	1	0
607.203	1	6
607.543	1	1
607.882	1	10
608.222	1	2
608.561	1	1
608.901	1	4
609.240	1	7
609.579	1	1
609.919	1	-9
610.258	1	4
610.598	1	-7
610.937	1	3
611.277	1	-1
611.616	1	12
611.955	1	1
612.295	1	5
612.634	1	-2
612.974	1	-6
613.313	1	8
613.652	1	5
613.992	1	-4
614.331	1	15
614.671	1	6
615.010	1	5
615.349	1	7
615.689	1	-1
616.028	1	9
616.368	1	4
616.707	1	4
617.046	1	2
617.386	1	14
617.725	1	3
618.064	1	6
618.404	1	-3
618.743	1	2
619.082	1	16
619.422	1	16
619.761	1	2
620.100	1	-3
620.440	1	14
620.779	1	0
621.118	1	12
621.458	1	-1
621.797	1	-2
622.136	1	0
622.476	1	1
622.815	1	3
623.154	1	-6
623.494	1	-6
623.833	1	5
624.172	1	0
624.511	1	-3
624.851	1	-4
625.190	1	4
625.529	1	-1
625.869	1	8
626.208	1	-3
626.547	1	-6
626.886	1	-3
627.226	1	2
627.565	1	3
627.904	1	-2
628.243	1	10
628.583	1	11
628.922	1	3
629.261	1	0
629.600	1	-1
629.940	1	-1
630.279	1	5
630.618	1	14
630.957	1	8
631.297	1	-3
631.636	1	-3
631.975	1	3
632.314	1	-5
632.653	1	-3
632.993	1	-2
633.332	1	9
633.671	1	3
634.010	1	3
634.349	1	12
634.689	1	-3
635.028	1	1
635.367	1	2
635.706	1	3
636.045	1	-5
636.384	1	8
636.724	1	6
637.063	1	2
637.402	1	3
637.741	1	-4
638.080	1	2
638.419	1	3
638.759	1	3
639.098	1	1
639.437	1	1
639.776	1	-1
640.115	1	-8
640.454	1	-10
640.793	1	2
641.132	1	5
641.472	1	7
641.811	1	-1
642.150	1	-9
642.489	1	7
642.828	1	12
643.167	1	4
643.506	1	-7
643.845	1	6
644.184	1	6
644.524	1	3
644.863	1	-3
645.202	1	1
645.541	1	2
645.880	1	-4
646.219	1	4
646.558	1	-8
646.897	1	-10
647.236	1	-10
647.575	1	4
647.914	1	5
648.253	1	12
648.592	1	1
648.931	1	4
649.270	1	2
649.610	1	8
649.949	1	-2
650.288	1	-3
650.627	1	-5
650.966	1	-6
651.305	1	7
651.644	1	6
651.983	1	-2
652.322	1	7
652.661	1	5
653.000	1	2
653.339	1	-2
653.678	1	5
654.017	1	6
654.356	1	10
654.695	1	13
655.034	1	2
655.373	1	0
655.712	1	5
656.051	1	-6
656.390	1	6
656.729	1	8
657.068	1	4
657.406	1	-1
657.745	1	14
658.084	1	-1
658.423	1	8
658.762	1	-1
659.101	1	-5
659.440	1	3
659.779	1	1
660.118	1	5
660.457	1	2
660.796	1	4
661.135	1	2
661.474	1	-3
661.813	1	-6
662.152	1	3
662.491	1	-1
662.829	1	-1
663.168	1	6
663.507	1	5
663.846	1	-2
664.185	1	-2
664.524	1	11
664.863	1	-9
665.202	1	3
665.541	1	2
665.879	1	1
666.218	1	2
666.557	1	2
666.896	1	4
667.235	1	0
667.574	1	-5
667.913	1	2
668.251	1	-6
668.590	1	-4
668.929	1	-2
669.268	1	1
669.607	1	-3
669.946	1	-9
670.285	1	4
670.623	1	3
670.962	1	-6
671.301	1	3
671.640	1	10
671.979	1	-8
672.317	1	-2
672.656	1	2
672.995	1	-4
673.334	1	-4
673.673	1	11
674.011	1	-1
674.350	1	0
674.689	1	-7
675.028	1	6
675.367	1	-1
675.705	1	-13
676.044	1	6
676.383	1	7
676.722	1	-4
677.060	1	11
677.399	1	8
677.738	1	-6
678.077	1	-3
678.416	1	-5
678.754	1	-7
679.093	1	4
679.432	1	-11
679.771	1	3
680.109	1	1
680.448	1	2
680.787	1	-12
681.125	1	0
681.464	1	9
681.803	1	-1
682.142	1	-6
682.480	1	-5
682.819	1	0
683.158	1	-4
683.496	1	0
683.835	1	0
684.174	1	0
684.512	1	0
684.851	1	0
685.190	1	0
685.529	1	1
685.867	1	0
686.206	1	-8
686.545	1	4
686.883	1	9
687.222	1	-3
687.561	1	-5
687.899	1	-10
688.238	1	6
688.577	1	7
688.746	1	3