File: Data/GaN_150K_450ms/GaN_sample D_spot15_UVVIS_150 K_200um_450 ms 2x2mm1_100.txt
340.368	1	4
340.710	1	-5
341.052	1	2
341.394	1	1
341.737	1	9
342.079	1	7
342.421	1	3
342.763	1	9
343.105	1	7
343.447	1	9
343.789	1	7
344.131	1	1
344.473	1	8
344.815	1	8
345.157	1	17
345.499	1	-2
345.841	1	5
346.183	1	13
346.526	1	16
346.868	1	9
347.210	1	-2
347.552	1	18
347.894	1	3
348.236	1	10
348.578	1	15
348.920	1	13
349.262	1	9
349.604	1	0
349.946	1	4
350.288	1	4
350.630	1	-4
350.972	1	9
351.314	1	3
351.656	1	20
351.998	1	4
352.340	1	8
352.682	1	-1
353.024	1	15
353.366	1	12
353.708	1	5
354.050	1	-4
354.392	1	-3
354.734	1	11
355.076	1	22
355.418	1	11
355.760	1	7
356.102	1	9
356.444	1	23
356.785	1	20
357.127	1	22
357.469	1	16
357.811	1	9
358.153	1	1
358.495	1	5
358.837	1	19
359.179	1	22
359.521	1	28
359.863	1	15
360.205	1	18
360.547	1	18
360.889	1	19
361.231	1	27
361.572	1	25
361.914	1	27
362.256	1	41
362.598	1	42
362.940	1	40
363.282	1	47
363.624	1	42
363.966	1	43
364.308	1	53
364.649	1	63
364.991	1	65
365.333	1	66
365.675	1	74
366.017	1	80
366.359	1	74
366.701	1	81
367.042	1	84
367.384	1	93
367.726	1	90
368.068	1	112
368.410	1	88
368.752	1	105
369.093	1	92
369.435	1	95
369.777	1	88
370.119	1	96
370.461	1	72
370.803	1	80
371.144	1	73
371.486	1	74
371.828	1	55
372.170	1	60
372.512	1	48
372.853	1	64
373.195	1	49
373.537	1	53
373.879	1	47
374.220	1	52
374.562	1	54
374.904	1	39
375.246	1	42
375.588	1	44
375.929	1	41
376.271	1	36
376.613	1	42
376.955	1	36
377.296	1	37
377.638	1	31
377.980	1	32
378.321	1	33
378.663	1	34
379.005	1	35
379.347	1	34
379.688	1	39
380.030	1	34
380.372	1	29
380.714	1	29
381.055	1	25
381.397	1	22
381.739	1	8
382.080	1	16
382.422	1	20
382.764	1	19
383.105	1	12
383.447	1	20
383.789	1	8
384.130	1	25
384.472	1	12
384.814	1	18
385.156	1	22
385.497	1	31
385.839	1	20
386.180	1	13
386.522	1	25
386.864	1	-3
387.205	1	12
387.547	1	12
387.889	1	16
388.230	1	13
388.572	1	16
388.914	1	18
389.255	1	14
389.597	1	14
389.939	1	19
390.280	1	15
390.622	1	7
390.963	1	0
391.305	1	4
391.647	1	15
391.988	1	21
392.330	1	14
392.671	1	19
393.013	1	20
393.355	1	16
393.696	1	20
394.038	1	18
394.379	1	17
394.721	1	16
395.062	1	8
395.404	1	17
395.746	1	5
396.087	1	9
396.429	1	14
396.770	1	12
397.112	1	10
397.453	1	9
397.795	1	5
398.136	1	6
398.478	1	9
398.819	1	15
399.161	1	19
399.503	1	19
399.844	1	9
400.186	1	17
400.527	1	6
400.869	1	14
401.210	1	13
401.552	1	13
401.893	1	4
402.235	1	13
402.576	1	11
402.918	1	6
403.259	1	16
403.601	1	25
403.942	1	13
404.284	1	19
404.625	1	5
404.967	1	16
405.308	1	4
405.649	1	8
405.991	1	16
406.332	1	9
406.674	1	5
407.015	1	14
407.357	1	18
407.698	1	7
408.040	1	26
408.381	1	-2
408.722	1	17
409.064	1	15
409.405	1	19
409.747	1	2
410.088	1	12
410.430	1	19
410.771	1	26
411.112	1	21
411.454	1	6
411.795	1	21
412.137	1	6
412.478	1	20
412.819	1	27
413.161	1	7
413.502	1	14
413.844	1	13
414.185	1	8
414.526	1	9
414.868	1	11
415.209	1	6
415.550	1	12
415.892	1	16
416.233	1	7
416.575	1	6
416.916	1	15
417.257	1	10
417.599	1	17
417.940	1	6
418.281	1	16
418.623	1	9
418.964	1	24
419.305	1	12
419.647	1	13
419.988	1	26
420.329	1	7
420.671	1	18
421.012	1	14
421.353	1	19
421.695	1	7
422.036	1	22
422.377	1	14
422.718	1	19
423.060	1	17
423.401	1	18
423.742	1	22
424.084	1	16
424.425	1	21
424.766	1	8
425.107	1	16
425.449	1	15
425.790	1	18
426.131	1	8
426.472	1	25
426.814	1	10
427.155	1	8
427.496	1	19
427.837	1	14
428.179	1	20
428.520	1	13
428.861	1	14
429.202	1	5
429.544	1	10
429.885	1	11
430.226	1	1
430.567	1	13
430.909	1	6
431.250	1	22
431.591	1	20
431.932	1	12
432.273	1	15
432.615	1	5
432.956	1	12
433.297	1	6
433.638	1	13
433.979	1	20
434.320	1	16
434.662	1	16
435.003	1	22
435.344	1	2
435.685	1	9
436.026	1	3
436.368	1	7
436.709	1	10
437.050	1	10
437.391	1	9
437.732	1	17
438.073	1	-2
438.414	1	17
438.756	1	7
439.097	1	15
439.438	1	8
439.779	1	16
440.120	1	10
440.461	1	14
440.802	1	10
441.143	1	11
441.485	1	14
441.826	1	16
442.167	1	9
442.508	1	12
442.849	1	22
443.190	1	21
443.531	1	12
443.872	1	-6
444.213	1	2
444.554	1	21
444.895	1	5
445.237	1	22
445.578	1	6
445.919	1	10
446.260	1	10
446.601	1	10
446.942	1	5
447.283	1	11
447.624	1	-9
447.965	1	11
448.306	1	4
448.647	1	6
448.988	1	18
449.329	1	18
449.670	1	8
450.011	1	6
450.352	1	12
450.693	1	13
451.034	1	7
451.375	1	3
451.716	1	10
452.057	1	13
452.398	1	13
452.739	1	5
453.080	1	11
453.421	1	19
453.762	1	19
454.103	1	14
454.444	1	8
454.785	1	11
455.126	1	14
455.467	1	8
455.808	1	13
456.149	1	-1
456.490	1	5
456.831	1	8
457.172	1	3
457.513	1	5
457.854	1	18
458.195	1	10
458.536	1	7
458.877	1	18
459.218	1	7
459.559	1	10
459.899	1	12
460.240	1	5
460.581	1	8
460.922	1	7
461.263	1	16
461.604	1	7
461.945	1	14
462.286	1	-1
462.627	1	5
462.968	1	17
463.309	1	20
463.649	1	5
463.990	1	5
464.331	1	10
464.672	1	10
465.013	1	2
465.354	1	19
465.695	1	3
466.036	1	15
466.376	1	12
466.717	1	1
467.058	1	4
467.399	1	-2
467.740	1	12
468.081	1	17
468.422	1	6
468.762	1	3
469.103	1	7
469.444	1	13
469.785	1	3
470.126	1	13
470.467	1	2
470.807	1	22
471.148	1	2
471.489	1	10
471.830	1	8
472.171	1	7
472.511	1	6
472.852	1	12
473.193	1	6
473.534	1	4
473.875	1	13
474.215	1	2
474.556	1	2
474.897	1	3
475.238	1	12
475.578	1	3
475.919	1	9
476.260	1	8
476.601	1	6
476.942	1	12
477.282	1	2
477.623	1	9
477.964	1	11
478.305	1	12
478.645	1	11
478.986	1	21
479.327	1	13
479.667	1	1
480.008	1	13
480.349	1	11
480.690	1	12
481.030	1	8
481.371	1	-2
481.712	1	17
482.053	1	13
482.393	1	8
482.734	1	10
483.075	1	8
483.415	1	10
483.756	1	11
484.097	1	11
484.437	1	5
484.778	1	5
485.119	1	18
485.459	1	4
485.800	1	12
486.141	1	17
486.481	1	9
486.822	1	14
487.163	1	3
487.503	1	17
487.844	1	-4
488.185	1	13
488.525	1	11
488.866	1	10
489.207	1	7
489.547	1	11
489.888	1	14
490.228	1	14
490.569	1	5
490.910	1	14
491.250	1	12
491.591	1	3
491.932	1	17
492.272	1	3
492.613	1	15
492.953	1	2
493.294	1	8
493.635	1	14
493.975	1	23
494.316	1	7
494.656	1	7
494.997	1	5
495.337	1	9
495.678	1	13
496.019	1	8
496.359	1	10
496.700	1	16
497.040	1	5
497.381	1	20
497.721	1	11
498.062	1	4
498.403	1	14
498.743	1	14
499.084	1	14
499.424	1	21
499.765	1	15
500.105	1	19
500.446	1	6
500.786	1	13
501.127	1	16
501.467	1	19
501.808	1	14
502.148	1	4
502.489	1	10
502.829	1	15
503.170	1	19
503.510	1	21
503.851	1	21
504.191	1	13
504.532	1	29
504.872	1	15
505.213	1	16
505.553	1	15
505.894	1	18
506.234	1	31
506.575	1	30
506.915	1	17
507.256	1	20
507.596	1	20
507.936	1	30
508.277	1	29
508.617	1	18
508.958	1	18
509.298	1	12
509.639	1	11
509.979	1	19
510.319	1	19
510.660	1	14
511.000	1	16
511.341	1	30
511.681	1	27
512.022	1	12
512.362	1	30
512.702	1	9
513.043	1	26
513.383	1	21
513.724	1	21
514.064	1	27
514.404	1	25
514.745	1	22
515.085	1	25
515.425	1	39
515.766	1	16
516.106	1	26
516.447	1	31
516.787	1	22
517.127	1	27
517.468	1	27
517.808	1	17
518.148	1	31
518.489	1	15
518.829	1	20
519.169	1	10
519.510	1	13
519.850	1	20
520.190	1	32
520.531	1	24
520.871	1	13
521.211	1	38
521.552	1	18
521.892	1	29
522.232	1	26
522.573	1	24
522.913	1	24
523.253	1	28
523.593	1	29
523.934	1	24
524.274	1	27
524.614	1	26
524.955	1	22
525.295	1	33
525.635	1	26
525.975	1	21
526.316	1	19
526.656	1	32
526.996	1	19
527.337	1	24
527.677	1	26
528.017	1	16
528.357	1	29
528.698	1	33
529.038	1	20
529.378	1	29
529.718	1	31
530.058	1	23
530.399	1	37
530.739	1	37
531.079	1	27
531.419	1	29
531.760	1	30
532.100	1	32
532.440	1	36
532.780	1	23
533.120	1	26
533.461	1	25
533.801	1	27
534.141	1	23
534.481	1	38
534.821	1	26
535.162	1	31
535.502	1	21
535.842	1	22
536.182	1	28
536.522	1	21
536.862	1	19
537.203	1	21
537.543	1	31
537.883	1	24
538.223	1	38
538.563	1	19
538.903	1	14
539.243	1	30
539.584	1	19
539.924	1	21
540.264	1	28
540.604	1	32
540.944	1	21
541.284	1	20
541.624	1	23
541.964	1	21
542.305	1	36
542.645	1	17
542.985	1	20
543.325	1	36
543.665	1	15
544.005	1	24
544.345	1	33
544.685	1	13
545.025	1	17
545.365	1	25
545.705	1	11
546.045	1	36
546.386	1	11
546.726	1	18
547.066	1	20
547.406	1	11
547.746	1	22
548.086	1	17
548.426	1	21
548.766	1	12
549.106	1	21
549.446	1	25
549.786	1	22
550.126	1	19
550.466	1	16
550.806	1	23
551.146	1	23
551.486	1	13
551.826	1	21
552.166	1	13
552.506	1	14
552.846	1	25
553.186	1	13
553.526	1	18
553.866	1	21
554.206	1	21
554.546	1	27
554.886	1	14
555.226	1	16
555.566	1	23
555.906	1	20
556.246	1	15
556.586	1	12
556.926	1	16
557.266	1	20
557.606	1	4
557.946	1	21
558.286	1	5
558.626	1	13
558.966	1	20
559.306	1	12
559.646	1	19
559.986	1	23
560.325	1	18
560.665	1	19
561.005	1	17
561.345	1	10
561.685	1	22
562.025	1	21
562.365	1	10
562.705	1	19
563.045	1	23
563.385	1	20
563.725	1	14
564.064	1	10
564.404	1	14
564.744	1	22
565.084	1	16
565.424	1	16
565.764	1	17
566.104	1	25
566.444	1	26
566.783	1	18
567.123	1	10
567.463	1	8
567.803	1	20
568.143	1	14
568.483	1	24
568.823	1	11
569.162	1	13
569.502	1	12
569.842	1	6
570.182	1	6
570.522	1	7
570.862	1	-2
571.201	1	19
571.541	1	19
571.881	1	6
572.221	1	14
572.561	1	22
572.900	1	17
573.240	1	11
573.580	1	12
573.920	1	20
574.260	1	19
574.599	1	18
574.939	1	20
575.279	1	15
575.619	1	8
575.959	1	12
576.298	1	11
576.638	1	17
576.978	1	17
577.318	1	19
577.657	1	18
577.997	1	10
578.337	1	5
578.677	1	16
579.016	1	10
579.356	1	19
579.696	1	10
580.036	1	13
580.375	1	6
580.715	1	13
581.055	1	13
581.394	1	10
581.734	1	7
582.074	1	9
582.414	1	16
582.753	1	15
583.093	1	16
583.433	1	19
583.772	1	12
584.112	1	9
584.452	1	7
584.791	1	21
585.131	1	10
585.471	1	8
585.811	1	12
586.150	1	15
586.490	1	11
586.830	1	13
587.169	1	12
587.509	1	12
587.849	1	14
588.188	1	16
588.528	1	1
588.867	1	17
589.207	1	10
589.547	1	6
589.886	1	8
590.226	1	3
590.566	1	9
590.905	1	4
591.245	1	-1
591.585	1	10
591.924	1	3
592.264	1	10
592.603	1	-6
592.943	1	7
593.283	1	10
593.622	1	6
593.962	1	7
594.301	1	14
594.641	1	13
594.981	1	14
595.320	1	12
595.660	1	3
595.999	1	0
596.339	1	11
596.678	1	10
597.018	1	1
597.358	1	8
597.697	1	2
598.037	1	6
598.376	1	4
598.716	1	5
599.055	1	7
599.395	1	10
599.734	1	17
600.074	1	-1
600.413	1	2
600.753	1	10
601.092	1	1
601.432	1	-6
601.771	1	10
602.111	1	5
602.451	1	1
602.790	1	17
603.130	1	13
603.469	1	6
603.809	1	14
604.148	1	6
604.487	1	4
604.827	1	5
605.166	1	7
605.506	1	12
605.845	1	11
606.185	1	2
606.524	1	-1
606.864	1	20
607.203	1	10
607.543	1	4
607.882	1	9
608.222	1	9
608.561	1	9
608.901	1	12
609.240	1	4
609.579	1	9
609.919	1	-6
610.258	1	17
610.598	1	4
610.937	1	2
611.277	1	13
611.616	1	8
611.955	1	2
612.295	1	5
612.634	1	11
612.974	1	2
613.313	1	16
613.652	1	18
613.992	1	5
614.331	1	18
614.671	1	12
615.010	1	10
615.349	1	7
615.689	1	10
616.028	1	27
616.368	1	4
616.707	1	2
617.046	1	3
617.386	1	6
617.725	1	10
618.064	1	7
618.404	1	4
618.743	1	3
619.082	1	18
619.422	1	22
619.761	1	7
620.100	1	16
620.440	1	10
620.779	1	10
621.118	1	10
621.458	1	2
621.797	1	8
622.136	1	8
622.476	1	2
622.815	1	-5
623.154	1	-3
623.494	1	4
623.833	1	7
624.172	1	7
624.511	1	2
624.851	1	8
625.190	1	9
625.529	1	6
625.869	1	8
626.208	1	3
626.547	1	-8
626.886	1	-2
627.226	1	14
627.565	1	13
627.904	1	4
628.243	1	13
628.583	1	12
628.922	1	10
629.261	1	16
629.600	1	7
629.940	1	-1
630.279	1	13
630.618	1	16
630.957	1	13
631.297	1	7
631.636	1	-2
631.975	1	2
632.314	1	3
632.653	1	2
632.993	1	-1
633.332	1	10
633.671	1	15
634.010	1	-2
634.349	1	20
634.689	1	3
635.028	1	6
635.367	1	21
635.706	1	6
636.045	1	-1
636.384	1	12
636.724	1	8
637.063	1	-1
637.402	1	9
637.741	1	6
638.080	1	12
638.419	1	7
638.759	1	1
639.098	1	7
639.437	1	16
639.776	1	11
640.115	1	1
640.454	1	0
640.793	1	-1
641.132	1	7
641.472	1	18
641.811	1	-1
642.150	1	0
642.489	1	8
642.828	1	20
643.167	1	17
643.506	1	-7
643.845	1	18
644.184	1	3
644.524	1	6
644.863	1	9
645.202	1	7
645.541	1	4
645.880	1	8
646.219	1	-1
646.558	1	-8
646.897	1	1
647.236	1	-5
647.575	1	12
647.914	1	7
648.253	1	14
648.592	1	14
648.931	1	12
649.270	1	9
649.610	1	8
649.949	1	-7
650.288	1	8
650.627	1	-6
650.966	1	-1
651.305	1	6
651.644	1	13
651.983	1	0
652.322	1	10
652.661	1	8
653.000	1	2
653.339	1	4
653.678	1	14
654.017	1	22
654.356	1	6
654.695	1	13
655.034	1	2
655.373	1	2
655.712	1	5
656.051	1	7
656.390	1	12
656.729	1	14
657.068	1	0
657.406	1	2
657.745	1	18
658.084	1	5
658.423	1	15
658.762	1	6
659.101	1	10
659.440	1	7
659.779	1	5
660.118	1	12
660.457	1	-1
660.796	1	10
661.135	1	7
661.474	1	7
661.813	1	7
662.152	1	10
662.491	1	6
662.829	1	0
663.168	1	5
663.507	1	9
663.846	1	1
664.185	1	-4
664.524	1	12
664.863	1	-5
665.202	1	13
665.541	1	3
665.879	1	3
666.218	1	5
666.557	1	9
666.896	1	4
667.235	1	-2
667.574	1	3
667.913	1	14
668.251	1	-5
668.590	1	2
668.929	1	-2
669.268	1	-1
669.607	1	-3
669.946	1	6
670.285	1	6
670.623	1	7
670.962	1	1
671.301	1	3
671.640	1	16
671.979	1	4
672.317	1	6
672.656	1	7
672.995	1	5
673.334	1	-1
673.673	1	9
674.011	1	15
674.350	1	6
674.689	1	-5
675.028	1	9
675.367	1	9
675.705	1	2
676.044	1	0
676.383	1	0
676.722	1	4
677.060	1	11
677.399	1	21
677.738	1	-2
678.077	1	7
678.416	1	-5
678.754	1	3
679.093	1	17
679.432	1	3
679.771	1	7
680.109	1	7
680.448	1	3
680.787	1	0
681.125	1	-6
681.464	1	10
681.803	1	3
682.142	1	15
682.480	1	-5
682.819	1	4
683.158	1	2
683.496	1	7
683.835	1	15
684.174	1	7
684.512	1	2
684.851	1	3
685.190	1	5
685.529	1	9
685.867	1	7
686.206	1	1
686.545	1	6
686.883	1	16
687.222	1	9
687.561	1	-3
687.899	1	6
688.238	1	5
688.577	1	-3
688.746	1	-2