File: Data/GaN_150K_450ms/GaN_sample D_spot15_UVVIS_150 K_200um_450 ms 2x2mm1_101.txt
340.368	1	9
340.710	1	-5
341.052	1	10
341.394	1	-1
341.737	1	10
342.079	1	5
342.421	1	5
342.763	1	-3
343.105	1	-2
343.447	1	7
343.789	1	2
344.131	1	-6
344.473	1	-2
344.815	1	0
345.157	1	15
345.499	1	9
345.841	1	12
346.183	1	2
346.526	1	10
346.868	1	8
347.210	1	-3
347.552	1	13
347.894	1	-1
348.236	1	15
348.578	1	4
348.920	1	7
349.262	1	10
349.604	1	-7
349.946	1	0
350.288	1	1
350.630	1	2
350.972	1	19
351.314	1	6
351.656	1	12
351.998	1	-2
352.340	1	16
352.682	1	0
353.024	1	15
353.366	1	8
353.708	1	12
354.050	1	3
354.392	1	-1
354.734	1	12
355.076	1	11
355.418	1	5
355.760	1	9
356.102	1	10
356.444	1	19
356.785	1	13
357.127	1	22
357.469	1	17
357.811	1	14
358.153	1	-3
358.495	1	7
358.837	1	29
359.179	1	14
359.521	1	33
359.863	1	12
360.205	1	26
360.547	1	19
360.889	1	16
361.231	1	28
361.572	1	44
361.914	1	30
362.256	1	42
362.598	1	42
362.940	1	31
363.282	1	32
363.624	1	48
363.966	1	35
364.308	1	58
364.649	1	54
364.991	1	63
365.333	1	53
365.675	1	67
366.017	1	76
366.359	1	77
366.701	1	72
367.042	1	90
367.384	1	76
367.726	1	81
368.068	1	80
368.410	1	90
368.752	1	104
369.093	1	88
369.435	1	94
369.777	1	94
370.119	1	84
370.461	1	73
370.803	1	76
371.144	1	66
371.486	1	63
371.828	1	60
372.170	1	61
372.512	1	59
372.853	1	73
373.195	1	49
373.537	1	44
373.879	1	49
374.220	1	48
374.562	1	56
374.904	1	40
375.246	1	34
375.588	1	39
375.929	1	42
376.271	1	38
376.613	1	45
376.955	1	39
377.296	1	33
377.638	1	34
377.980	1	22
378.321	1	38
378.663	1	28
379.005	1	20
379.347	1	23
379.688	1	32
380.030	1	27
380.372	1	24
380.714	1	25
381.055	1	25
381.397	1	23
381.739	1	8
382.080	1	25
382.422	1	16
382.764	1	17
383.105	1	18
383.447	1	27
383.789	1	7
384.130	1	14
384.472	1	18
384.814	1	27
385.156	1	18
385.497	1	22
385.839	1	17
386.180	1	16
386.522	1	16
386.864	1	5
387.205	1	21
387.547	1	15
387.889	1	16
388.230	1	14
388.572	1	8
388.914	1	15
389.255	1	7
389.597	1	1
389.939	1	20
390.280	1	14
390.622	1	1
390.963	1	13
391.305	1	7
391.647	1	11
391.988	1	16
392.330	1	6
392.671	1	16
393.013	1	21
393.355	1	19
393.696	1	23
394.038	1	11
394.379	1	21
394.721	1	6
395.062	1	8
395.404	1	13
395.746	1	11
396.087	1	14
396.429	1	19
396.770	1	6
397.112	1	13
397.453	1	15
397.795	1	0
398.136	1	13
398.478	1	11
398.819	1	16
399.161	1	14
399.503	1	17
399.844	1	7
400.186	1	16
400.527	1	11
400.869	1	12
401.210	1	10
401.552	1	12
401.893	1	13
402.235	1	16
402.576	1	13
402.918	1	3
403.259	1	5
403.601	1	12
403.942	1	15
404.284	1	22
404.625	1	16
404.967	1	12
405.308	1	-1
405.649	1	15
405.991	1	9
406.332	1	21
406.674	1	15
407.015	1	12
407.357	1	15
407.698	1	22
408.040	1	18
408.381	1	0
408.722	1	15
409.064	1	18
409.405	1	14
409.747	1	14
410.088	1	8
410.430	1	21
410.771	1	26
411.112	1	10
411.454	1	15
411.795	1	8
412.137	1	11
412.478	1	13
412.819	1	27
413.161	1	15
413.502	1	9
413.844	1	21
414.185	1	8
414.526	1	11
414.868	1	22
415.209	1	7
415.550	1	14
415.892	1	18
416.233	1	15
416.575	1	10
416.916	1	10
417.257	1	7
417.599	1	20
417.940	1	16
418.281	1	19
418.623	1	12
418.964	1	17
419.305	1	19
419.647	1	20
419.988	1	32
420.329	1	23
420.671	1	19
421.012	1	16
421.353	1	27
421.695	1	16
422.036	1	15
422.377	1	16
422.718	1	14
423.060	1	23
423.401	1	11
423.742	1	28
424.084	1	14
424.425	1	20
424.766	1	15
425.107	1	19
425.449	1	0
425.790	1	8
426.131	1	4
426.472	1	17
426.814	1	15
427.155	1	6
427.496	1	15
427.837	1	7
428.179	1	24
428.520	1	16
428.861	1	15
429.202	1	6
429.544	1	12
429.885	1	16
430.226	1	0
430.567	1	4
430.909	1	8
431.250	1	11
431.591	1	20
431.932	1	12
432.273	1	16
432.615	1	12
432.956	1	9
433.297	1	11
433.638	1	14
433.979	1	7
434.320	1	8
434.662	1	16
435.003	1	21
435.344	1	6
435.685	1	11
436.026	1	12
436.368	1	11
436.709	1	8
437.050	1	5
437.391	1	8
437.732	1	14
438.073	1	4
438.414	1	14
438.756	1	4
439.097	1	18
439.438	1	11
439.779	1	8
440.120	1	17
440.461	1	13
440.802	1	12
441.143	1	7
441.485	1	6
441.826	1	14
442.167	1	20
442.508	1	7
442.849	1	11
443.190	1	13
443.531	1	14
443.872	1	7
444.213	1	4
444.554	1	14
444.895	1	5
445.237	1	9
445.578	1	2
445.919	1	16
446.260	1	13
446.601	1	18
446.942	1	3
447.283	1	19
447.624	1	4
447.965	1	12
448.306	1	14
448.647	1	5
448.988	1	9
449.329	1	13
449.670	1	13
450.011	1	2
450.352	1	-3
450.693	1	18
451.034	1	8
451.375	1	11
451.716	1	7
452.057	1	10
452.398	1	22
452.739	1	16
453.080	1	10
453.421	1	7
453.762	1	8
454.103	1	12
454.444	1	4
454.785	1	6
455.126	1	4
455.467	1	15
455.808	1	13
456.149	1	9
456.490	1	5
456.831	1	9
457.172	1	4
457.513	1	8
457.854	1	8
458.195	1	16
458.536	1	16
458.877	1	16
459.218	1	16
459.559	1	6
459.899	1	2
460.240	1	10
460.581	1	-3
460.922	1	12
461.263	1	9
461.604	1	10
461.945	1	11
462.286	1	1
462.627	1	9
462.968	1	8
463.309	1	14
463.649	1	0
463.990	1	2
464.331	1	16
464.672	1	11
465.013	1	9
465.354	1	10
465.695	1	8
466.036	1	5
466.376	1	23
466.717	1	2
467.058	1	9
467.399	1	4
467.740	1	10
468.081	1	9
468.422	1	5
468.762	1	11
469.103	1	0
469.444	1	7
469.785	1	2
470.126	1	6
470.467	1	4
470.807	1	10
471.148	1	8
471.489	1	13
471.830	1	6
472.171	1	14
472.511	1	15
472.852	1	13
473.193	1	5
473.534	1	9
473.875	1	10
474.215	1	12
474.556	1	-6
474.897	1	-6
475.238	1	4
475.578	1	6
475.919	1	2
476.260	1	-1
476.601	1	-1
476.942	1	5
477.282	1	6
477.623	1	6
477.964	1	8
478.305	1	14
478.645	1	13
478.986	1	16
479.327	1	19
479.667	1	1
480.008	1	12
480.349	1	7
480.690	1	11
481.030	1	3
481.371	1	-3
481.712	1	18
482.053	1	14
482.393	1	9
482.734	1	11
483.075	1	9
483.415	1	9
483.756	1	8
484.097	1	12
484.437	1	11
484.778	1	3
485.119	1	13
485.459	1	5
485.800	1	0
486.141	1	12
486.481	1	5
486.822	1	3
487.163	1	8
487.503	1	10
487.844	1	5
488.185	1	22
488.525	1	1
488.866	1	-5
489.207	1	9
489.547	1	4
489.888	1	19
490.228	1	11
490.569	1	13
490.910	1	16
491.250	1	16
491.591	1	15
491.932	1	10
492.272	1	-8
492.613	1	9
492.953	1	5
493.294	1	2
493.635	1	15
493.975	1	10
494.316	1	10
494.656	1	20
494.997	1	3
495.337	1	6
495.678	1	7
496.019	1	13
496.359	1	4
496.700	1	8
497.040	1	12
497.381	1	14
497.721	1	1
498.062	1	14
498.403	1	14
498.743	1	18
499.084	1	17
499.424	1	13
499.765	1	12
500.105	1	25
500.446	1	7
500.786	1	13
501.127	1	17
501.467	1	15
501.808	1	15
502.148	1	8
502.489	1	17
502.829	1	5
503.170	1	18
503.510	1	12
503.851	1	16
504.191	1	17
504.532	1	27
504.872	1	12
505.213	1	9
505.553	1	11
505.894	1	17
506.234	1	24
506.575	1	12
506.915	1	20
507.256	1	17
507.596	1	20
507.936	1	20
508.277	1	29
508.617	1	31
508.958	1	22
509.298	1	0
509.639	1	14
509.979	1	15
510.319	1	20
510.660	1	18
511.000	1	18
511.341	1	33
511.681	1	21
512.022	1	18
512.362	1	11
512.702	1	2
513.043	1	20
513.383	1	21
513.724	1	27
514.064	1	16
514.404	1	26
514.745	1	9
515.085	1	23
515.425	1	21
515.766	1	17
516.106	1	11
516.447	1	25
516.787	1	17
517.127	1	30
517.468	1	21
517.808	1	6
518.148	1	42
518.489	1	23
518.829	1	29
519.169	1	16
519.510	1	19
519.850	1	25
520.190	1	22
520.531	1	20
520.871	1	21
521.211	1	16
521.552	1	13
521.892	1	27
522.232	1	33
522.573	1	16
522.913	1	32
523.253	1	43
523.593	1	33
523.934	1	26
524.274	1	23
524.614	1	26
524.955	1	26
525.295	1	28
525.635	1	24
525.975	1	26
526.316	1	13
526.656	1	19
526.996	1	23
527.337	1	25
527.677	1	32
528.017	1	22
528.357	1	27
528.698	1	27
529.038	1	29
529.378	1	25
529.718	1	19
530.058	1	15
530.399	1	18
530.739	1	35
531.079	1	26
531.419	1	21
531.760	1	30
532.100	1	36
532.440	1	29
532.780	1	30
533.120	1	20
533.461	1	19
533.801	1	17
534.141	1	26
534.481	1	44
534.821	1	22
535.162	1	21
535.502	1	20
535.842	1	18
536.182	1	14
536.522	1	17
536.862	1	21
537.203	1	25
537.543	1	25
537.883	1	13
538.223	1	34
538.563	1	14
538.903	1	18
539.243	1	18
539.584	1	19
539.924	1	16
540.264	1	27
540.604	1	34
540.944	1	18
541.284	1	23
541.624	1	14
541.964	1	23
542.305	1	21
542.645	1	9
542.985	1	10
543.325	1	20
543.665	1	26
544.005	1	22
544.345	1	17
544.685	1	23
545.025	1	26
545.365	1	23
545.705	1	20
546.045	1	29
546.386	1	14
546.726	1	25
547.066	1	20
547.406	1	24
547.746	1	21
548.086	1	25
548.426	1	26
548.766	1	14
549.106	1	15
549.446	1	25
549.786	1	23
550.126	1	29
550.466	1	14
550.806	1	32
551.146	1	17
551.486	1	14
551.826	1	10
552.166	1	15
552.506	1	10
552.846	1	22
553.186	1	6
553.526	1	17
553.866	1	18
554.206	1	15
554.546	1	18
554.886	1	15
555.226	1	23
555.566	1	23
555.906	1	12
556.246	1	23
556.586	1	24
556.926	1	19
557.266	1	10
557.606	1	9
557.946	1	26
558.286	1	11
558.626	1	24
558.966	1	20
559.306	1	25
559.646	1	14
559.986	1	24
560.325	1	12
560.665	1	12
561.005	1	6
561.345	1	12
561.685	1	13
562.025	1	7
562.365	1	12
562.705	1	19
563.045	1	19
563.385	1	22
563.725	1	10
564.064	1	9
564.404	1	5
564.744	1	23
565.084	1	11
565.424	1	10
565.764	1	11
566.104	1	9
566.444	1	22
566.783	1	15
567.123	1	20
567.463	1	17
567.803	1	17
568.143	1	4
568.483	1	16
568.823	1	12
569.162	1	10
569.502	1	18
569.842	1	13
570.182	1	12
570.522	1	10
570.862	1	2
571.201	1	19
571.541	1	16
571.881	1	7
572.221	1	22
572.561	1	7
572.900	1	21
573.240	1	8
573.580	1	16
573.920	1	11
574.260	1	7
574.599	1	11
574.939	1	17
575.279	1	4
575.619	1	10
575.959	1	8
576.298	1	3
576.638	1	12
576.978	1	15
577.318	1	14
577.657	1	5
577.997	1	14
578.337	1	8
578.677	1	17
579.016	1	9
579.356	1	12
579.696	1	6
580.036	1	11
580.375	1	7
580.715	1	13
581.055	1	7
581.394	1	7
581.734	1	7
582.074	1	0
582.414	1	7
582.753	1	8
583.093	1	20
583.433	1	19
583.772	1	17
584.112	1	18
584.452	1	3
584.791	1	12
585.131	1	9
585.471	1	12
585.811	1	12
586.150	1	14
586.490	1	8
586.830	1	8
587.169	1	11
587.509	1	-2
587.849	1	19
588.188	1	10
588.528	1	4
588.867	1	7
589.207	1	15
589.547	1	2
589.886	1	8
590.226	1	3
590.566	1	0
590.905	1	8
591.245	1	1
591.585	1	8
591.924	1	-8
592.264	1	15
592.603	1	-7
592.943	1	10
593.283	1	10
593.622	1	1
593.962	1	15
594.301	1	1
594.641	1	11
594.981	1	6
595.320	1	13
595.660	1	3
595.999	1	15
596.339	1	12
596.678	1	0
597.018	1	0
597.358	1	5
597.697	1	3
598.037	1	10
598.376	1	10
598.716	1	-3
599.055	1	10
599.395	1	2
599.734	1	8
600.074	1	6
600.413	1	3
600.753	1	16
601.092	1	2
601.432	1	-4
601.771	1	4
602.111	1	6
602.451	1	2
602.790	1	12
603.130	1	5
603.469	1	7
603.809	1	16
604.148	1	5
604.487	1	10
604.827	1	8
605.166	1	9
605.506	1	-7
605.845	1	13
606.185	1	2
606.524	1	-1
606.864	1	22
607.203	1	9
607.543	1	4
607.882	1	10
608.222	1	3
608.561	1	15
608.901	1	17
609.240	1	5
609.579	1	5
609.919	1	4
610.258	1	25
610.598	1	-2
610.937	1	2
611.277	1	5
611.616	1	15
611.955	1	4
612.295	1	11
612.634	1	11
612.974	1	5
613.313	1	13
613.652	1	22
613.992	1	-3
614.331	1	14
614.671	1	14
615.010	1	7
615.349	1	9
615.689	1	1
616.028	1	16
616.368	1	13
616.707	1	11
617.046	1	9
617.386	1	24
617.725	1	4
618.064	1	0
618.404	1	0
618.743	1	10
619.082	1	21
619.422	1	16
619.761	1	7
620.100	1	3
620.440	1	15
620.779	1	9
621.118	1	15
621.458	1	8
621.797	1	8
622.136	1	8
622.476	1	9
622.815	1	9
623.154	1	-3
623.494	1	4
623.833	1	9
624.172	1	10
624.511	1	-3
624.851	1	9
625.190	1	-2
625.529	1	4
625.869	1	11
626.208	1	5
626.547	1	-2
626.886	1	4
627.226	1	12
627.565	1	10
627.904	1	-3
628.243	1	4
628.583	1	14
628.922	1	6
629.261	1	2
629.600	1	5
629.940	1	9
630.279	1	14
630.618	1	8
630.957	1	8
631.297	1	12
631.636	1	5
631.975	1	5
632.314	1	14
632.653	1	-2
632.993	1	7
633.332	1	14
633.671	1	8
634.010	1	7
634.349	1	12
634.689	1	-8
635.028	1	3
635.367	1	12
635.706	1	2
636.045	1	-1
636.384	1	15
636.724	1	2
637.063	1	0
637.402	1	-1
637.741	1	4
638.080	1	8
638.419	1	0
638.759	1	13
639.098	1	4
639.437	1	2
639.776	1	8
640.115	1	-2
640.454	1	-3
640.793	1	9
641.132	1	8
641.472	1	15
641.811	1	-3
642.150	1	3
642.489	1	9
642.828	1	13
643.167	1	9
643.506	1	7
643.845	1	13
644.184	1	19
644.524	1	3
644.863	1	6
645.202	1	1
645.541	1	3
645.880	1	11
646.219	1	13
646.558	1	-1
646.897	1	5
647.236	1	2
647.575	1	8
647.914	1	8
648.253	1	5
648.592	1	19
648.931	1	2
649.270	1	7
649.610	1	15
649.949	1	-6
650.288	1	3
650.627	1	2
650.966	1	9
651.305	1	7
651.644	1	17
651.983	1	-13
652.322	1	7
652.661	1	15
653.000	1	11
653.339	1	3
653.678	1	12
654.017	1	10
654.356	1	11
654.695	1	23
655.034	1	13
655.373	1	4
655.712	1	8
656.051	1	-4
656.390	1	2
656.729	1	13
657.068	1	9
657.406	1	4
657.745	1	15
658.084	1	10
658.423	1	14
658.762	1	-4
659.101	1	0
659.440	1	8
659.779	1	7
660.118	1	4
660.457	1	4
660.796	1	9
661.135	1	13
661.474	1	8
661.813	1	1
662.152	1	6
662.491	1	-7
662.829	1	10
663.168	1	5
663.507	1	5
663.846	1	0
664.185	1	6
664.524	1	8
664.863	1	-8
665.202	1	9
665.541	1	0
665.879	1	6
666.218	1	3
666.557	1	-5
666.896	1	8
667.235	1	1
667.574	1	8
667.913	1	0
668.251	1	-12
668.590	1	5
668.929	1	9
669.268	1	2
669.607	1	-7
669.946	1	-2
670.285	1	2
670.623	1	11
670.962	1	-2
671.301	1	5
671.640	1	6
671.979	1	4
672.317	1	18
672.656	1	11
672.995	1	6
673.334	1	2
673.673	1	18
674.011	1	12
674.350	1	-1
674.689	1	1
675.028	1	8
675.367	1	7
675.705	1	6
676.044	1	8
676.383	1	4
676.722	1	10
677.060	1	4
677.399	1	24
677.738	1	3
678.077	1	-2
678.416	1	-4
678.754	1	12
679.093	1	12
679.432	1	6
679.771	1	5
680.109	1	0
680.448	1	3
680.787	1	-4
681.125	1	11
681.464	1	3
681.803	1	0
682.142	1	12
682.480	1	8
682.819	1	0
683.158	1	5
683.496	1	7
683.835	1	6
684.174	1	6
684.512	1	-2
684.851	1	5
685.190	1	3
685.529	1	1
685.867	1	5
686.206	1	3
686.545	1	-4
686.883	1	10
687.222	1	7
687.561	1	1
687.899	1	10
688.238	1	11
688.577	1	12
688.746	1	2