File: Data/GaN_150K_450ms/GaN_sample D_spot15_UVVIS_150 K_200um_450 ms 2x2mm1_217.txt
340.368	1	3
340.710	1	-4
341.052	1	5
341.394	1	-5
341.737	1	8
342.079	1	2
342.421	1	0
342.763	1	3
343.105	1	4
343.447	1	-1
343.789	1	4
344.131	1	-10
344.473	1	8
344.815	1	9
345.157	1	10
345.499	1	1
345.841	1	0
346.183	1	5
346.526	1	14
346.868	1	1
347.210	1	1
347.552	1	11
347.894	1	-1
348.236	1	6
348.578	1	10
348.920	1	1
349.262	1	2
349.604	1	0
349.946	1	-2
350.288	1	-1
350.630	1	1
350.972	1	14
351.314	1	-1
351.656	1	1
351.998	1	3
352.340	1	14
352.682	1	-2
353.024	1	14
353.366	1	-1
353.708	1	11
354.050	1	-4
354.392	1	3
354.734	1	11
355.076	1	15
355.418	1	-1
355.760	1	9
356.102	1	4
356.444	1	13
356.785	1	2
357.127	1	18
357.469	1	-7
357.811	1	6
358.153	1	-4
358.495	1	-2
358.837	1	10
359.179	1	7
359.521	1	15
359.863	1	0
360.205	1	6
360.547	1	3
360.889	1	-2
361.231	1	8
361.572	1	10
361.914	1	11
362.256	1	19
362.598	1	22
362.940	1	1
363.282	1	-4
363.624	1	6
363.966	1	1
364.308	1	17
364.649	1	17
364.991	1	13
365.333	1	12
365.675	1	17
366.017	1	19
366.359	1	14
366.701	1	14
367.042	1	22
367.384	1	8
367.726	1	17
368.068	1	24
368.410	1	21
368.752	1	23
369.093	1	24
369.435	1	30
369.777	1	26
370.119	1	22
370.461	1	17
370.803	1	18
371.144	1	16
371.486	1	26
371.828	1	12
372.170	1	10
372.512	1	5
372.853	1	18
373.195	1	3
373.537	1	5
373.879	1	-1
374.220	1	11
374.562	1	18
374.904	1	6
375.246	1	12
375.588	1	2
375.929	1	6
376.271	1	13
376.613	1	14
376.955	1	6
377.296	1	8
377.638	1	-1
377.980	1	10
378.321	1	18
378.663	1	11
379.005	1	7
379.347	1	6
379.688	1	6
380.030	1	8
380.372	1	6
380.714	1	4
381.055	1	3
381.397	1	10
381.739	1	1
382.080	1	11
382.422	1	12
382.764	1	6
383.105	1	-1
383.447	1	14
383.789	1	4
384.130	1	7
384.472	1	-5
384.814	1	3
385.156	1	0
385.497	1	17
385.839	1	0
386.180	1	-2
386.522	1	14
386.864	1	-5
387.205	1	4
387.547	1	1
387.889	1	1
388.230	1	6
388.572	1	8
388.914	1	9
389.255	1	11
389.597	1	0
389.939	1	14
390.280	1	4
390.622	1	-7
390.963	1	-5
391.305	1	-1
391.647	1	-4
391.988	1	7
392.330	1	6
392.671	1	5
393.013	1	6
393.355	1	8
393.696	1	-2
394.038	1	4
394.379	1	13
394.721	1	6
395.062	1	0
395.404	1	9
395.746	1	5
396.087	1	9
396.429	1	11
396.770	1	1
397.112	1	6
397.453	1	-4
397.795	1	-5
398.136	1	7
398.478	1	7
398.819	1	4
399.161	1	12
399.503	1	15
399.844	1	-4
400.186	1	3
400.527	1	6
400.869	1	1
401.210	1	4
401.552	1	5
401.893	1	3
402.235	1	4
402.576	1	3
402.918	1	1
403.259	1	5
403.601	1	13
403.942	1	0
404.284	1	9
404.625	1	-3
404.967	1	0
405.308	1	-4
405.649	1	4
405.991	1	2
406.332	1	8
406.674	1	3
407.015	1	13
407.357	1	11
407.698	1	9
408.040	1	8
408.381	1	4
408.722	1	9
409.064	1	10
409.405	1	5
409.747	1	-2
410.088	1	2
410.430	1	5
410.771	1	1
411.112	1	-1
411.454	1	3
411.795	1	6
412.137	1	6
412.478	1	5
412.819	1	0
413.161	1	4
413.502	1	11
413.844	1	20
414.185	1	5
414.526	1	-3
414.868	1	-2
415.209	1	3
415.550	1	7
415.892	1	13
416.233	1	0
416.575	1	-10
416.916	1	-3
417.257	1	8
417.599	1	8
417.940	1	-4
418.281	1	7
418.623	1	-1
418.964	1	13
419.305	1	4
419.647	1	6
419.988	1	14
420.329	1	9
420.671	1	6
421.012	1	-9
421.353	1	13
421.695	1	4
422.036	1	5
422.377	1	9
422.718	1	6
423.060	1	11
423.401	1	-4
423.742	1	3
424.084	1	7
424.425	1	9
424.766	1	13
425.107	1	7
425.449	1	3
425.790	1	2
426.131	1	8
426.472	1	11
426.814	1	0
427.155	1	2
427.496	1	-1
427.837	1	0
428.179	1	21
428.520	1	7
428.861	1	5
429.202	1	-12
429.544	1	7
429.885	1	8
430.226	1	-2
430.567	1	-12
430.909	1	-6
431.250	1	9
431.591	1	5
431.932	1	4
432.273	1	15
432.615	1	1
432.956	1	-2
433.297	1	2
433.638	1	1
433.979	1	11
434.320	1	11
434.662	1	3
435.003	1	14
435.344	1	4
435.685	1	0
436.026	1	-3
436.368	1	4
436.709	1	0
437.050	1	0
437.391	1	4
437.732	1	6
438.073	1	1
438.414	1	5
438.756	1	4
439.097	1	3
439.438	1	6
439.779	1	3
440.120	1	-2
440.461	1	4
440.802	1	-2
441.143	1	-2
441.485	1	4
441.826	1	3
442.167	1	4
442.508	1	1
442.849	1	10
443.190	1	10
443.531	1	3
443.872	1	-2
444.213	1	0
444.554	1	12
444.895	1	1
445.237	1	8
445.578	1	-1
445.919	1	14
446.260	1	13
446.601	1	0
446.942	1	-4
447.283	1	9
447.624	1	-8
447.965	1	3
448.306	1	-1
448.647	1	-2
448.988	1	11
449.329	1	8
449.670	1	1
450.011	1	4
450.352	1	-8
450.693	1	5
451.034	1	-6
451.375	1	-3
451.716	1	1
452.057	1	1
452.398	1	4
452.739	1	-6
453.080	1	6
453.421	1	16
453.762	1	8
454.103	1	7
454.444	1	5
454.785	1	0
455.126	1	3
455.467	1	5
455.808	1	9
456.149	1	-9
456.490	1	-5
456.831	1	-1
457.172	1	4
457.513	1	1
457.854	1	-2
458.195	1	12
458.536	1	11
458.877	1	6
459.218	1	5
459.559	1	0
459.899	1	0
460.240	1	-2
460.581	1	-3
460.922	1	1
461.263	1	10
461.604	1	5
461.945	1	8
462.286	1	-3
462.627	1	-5
462.968	1	10
463.309	1	4
463.649	1	2
463.990	1	8
464.331	1	8
464.672	1	8
465.013	1	-2
465.354	1	11
465.695	1	4
466.036	1	2
466.376	1	19
466.717	1	1
467.058	1	10
467.399	1	-5
467.740	1	14
468.081	1	5
468.422	1	8
468.762	1	2
469.103	1	-4
469.444	1	1
469.785	1	4
470.126	1	11
470.467	1	0
470.807	1	1
471.148	1	-3
471.489	1	6
471.830	1	10
472.171	1	13
472.511	1	16
472.852	1	8
473.193	1	4
473.534	1	3
473.875	1	-4
474.215	1	-3
474.556	1	0
474.897	1	0
475.238	1	4
475.578	1	3
475.919	1	0
476.260	1	-5
476.601	1	4
476.942	1	5
477.282	1	-12
477.623	1	-2
477.964	1	2
478.305	1	-6
478.645	1	12
478.986	1	10
479.327	1	13
479.667	1	4
480.008	1	3
480.349	1	-1
480.690	1	12
481.030	1	3
481.371	1	-2
481.712	1	10
482.053	1	3
482.393	1	5
482.734	1	2
483.075	1	-2
483.415	1	8
483.756	1	3
484.097	1	12
484.437	1	17
484.778	1	4
485.119	1	-1
485.459	1	-4
485.800	1	-4
486.141	1	9
486.481	1	-7
486.822	1	7
487.163	1	-1
487.503	1	3
487.844	1	-5
488.185	1	9
488.525	1	-14
488.866	1	-12
489.207	1	10
489.547	1	3
489.888	1	11
490.228	1	3
490.569	1	2
490.910	1	5
491.250	1	8
491.591	1	0
491.932	1	10
492.272	1	-10
492.613	1	-1
492.953	1	10
493.294	1	0
493.635	1	12
493.975	1	14
494.316	1	5
494.656	1	9
494.997	1	-3
495.337	1	-1
495.678	1	6
496.019	1	5
496.359	1	4
496.700	1	-5
497.040	1	-5
497.381	1	-10
497.721	1	-6
498.062	1	-3
498.403	1	15
498.743	1	6
499.084	1	8
499.424	1	1
499.765	1	3
500.105	1	12
500.446	1	-1
500.786	1	1
501.127	1	1
501.467	1	5
501.808	1	3
502.148	1	-5
502.489	1	4
502.829	1	-9
503.170	1	9
503.510	1	0
503.851	1	7
504.191	1	1
504.532	1	5
504.872	1	-13
505.213	1	2
505.553	1	5
505.894	1	6
506.234	1	6
506.575	1	12
506.915	1	4
507.256	1	9
507.596	1	9
507.936	1	8
508.277	1	12
508.617	1	1
508.958	1	8
509.298	1	0
509.639	1	1
509.979	1	1
510.319	1	12
510.660	1	2
511.000	1	-4
511.341	1	7
511.681	1	10
512.022	1	-7
512.362	1	7
512.702	1	-6
513.043	1	-1
513.383	1	16
513.724	1	0
514.064	1	18
514.404	1	8
514.745	1	-4
515.085	1	4
515.425	1	2
515.766	1	1
516.106	1	1
516.447	1	3
516.787	1	5
517.127	1	10
517.468	1	15
517.808	1	-3
518.148	1	7
518.489	1	3
518.829	1	8
519.169	1	2
519.510	1	1
519.850	1	-1
520.190	1	-4
520.531	1	7
520.871	1	9
521.211	1	12
521.552	1	-5
521.892	1	7
522.232	1	6
522.573	1	5
522.913	1	11
523.253	1	7
523.593	1	8
523.934	1	13
524.274	1	8
524.614	1	13
524.955	1	0
525.295	1	14
525.635	1	5
525.975	1	1
526.316	1	1
526.656	1	-6
526.996	1	5
527.337	1	11
527.677	1	15
528.017	1	5
528.357	1	12
528.698	1	13
529.038	1	3
529.378	1	11
529.718	1	3
530.058	1	7
530.399	1	0
530.739	1	10
531.079	1	3
531.419	1	13
531.760	1	7
532.100	1	9
532.440	1	16
532.780	1	8
533.120	1	3
533.461	1	-5
533.801	1	-1
534.141	1	9
534.481	1	17
534.821	1	8
535.162	1	2
535.502	1	1
535.842	1	8
536.182	1	4
536.522	1	2
536.862	1	6
537.203	1	14
537.543	1	6
537.883	1	6
538.223	1	17
538.563	1	-5
538.903	1	1
539.243	1	10
539.584	1	2
539.924	1	8
540.264	1	16
540.604	1	16
540.944	1	1
541.284	1	-3
541.624	1	3
541.964	1	8
542.305	1	12
542.645	1	0
542.985	1	3
543.325	1	5
543.665	1	5
544.005	1	-1
544.345	1	12
544.685	1	-6
545.025	1	13
545.365	1	8
545.705	1	11
546.045	1	12
546.386	1	-3
546.726	1	3
547.066	1	-1
547.406	1	0
547.746	1	2
548.086	1	12
548.426	1	4
548.766	1	6
549.106	1	-1
549.446	1	7
549.786	1	9
550.126	1	8
550.466	1	1
550.806	1	10
551.146	1	3
551.486	1	-4
551.826	1	0
552.166	1	3
552.506	1	8
552.846	1	9
553.186	1	-7
553.526	1	7
553.866	1	8
554.206	1	13
554.546	1	3
554.886	1	0
555.226	1	7
555.566	1	4
555.906	1	0
556.246	1	9
556.586	1	12
556.926	1	6
557.266	1	11
557.606	1	-6
557.946	1	8
558.286	1	-6
558.626	1	10
558.966	1	2
559.306	1	7
559.646	1	6
559.986	1	9
560.325	1	-3
560.665	1	-5
561.005	1	1
561.345	1	-5
561.685	1	4
562.025	1	6
562.365	1	-5
562.705	1	12
563.045	1	2
563.385	1	7
563.725	1	6
564.064	1	-6
564.404	1	2
564.744	1	13
565.084	1	1
565.424	1	-2
565.764	1	3
566.104	1	4
566.444	1	16
566.783	1	2
567.123	1	-3
567.463	1	3
567.803	1	0
568.143	1	1
568.483	1	2
568.823	1	2
569.162	1	-7
569.502	1	15
569.842	1	6
570.182	1	5
570.522	1	1
570.862	1	-11
571.201	1	12
571.541	1	-4
571.881	1	1
572.221	1	-4
572.561	1	8
572.900	1	14
573.240	1	2
573.580	1	11
573.920	1	19
574.260	1	0
574.599	1	4
574.939	1	6
575.279	1	1
575.619	1	0
575.959	1	-2
576.298	1	-9
576.638	1	8
576.978	1	5
577.318	1	-1
577.657	1	-5
577.997	1	-3
578.337	1	5
578.677	1	5
579.016	1	11
579.356	1	0
579.696	1	6
580.036	1	-2
580.375	1	6
580.715	1	9
581.055	1	7
581.394	1	-2
581.734	1	9
582.074	1	0
582.414	1	7
582.753	1	9
583.093	1	6
583.433	1	10
583.772	1	5
584.112	1	3
584.452	1	1
584.791	1	13
585.131	1	4
585.471	1	6
585.811	1	7
586.150	1	9
586.490	1	2
586.830	1	9
587.169	1	11
587.509	1	2
587.849	1	14
588.188	1	3
588.528	1	-3
588.867	1	9
589.207	1	11
589.547	1	6
589.886	1	12
590.226	1	1
590.566	1	0
590.905	1	-3
591.245	1	-2
591.585	1	-2
591.924	1	1
592.264	1	5
592.603	1	-18
592.943	1	8
593.283	1	-3
593.622	1	-4
593.962	1	6
594.301	1	-5
594.641	1	-5
594.981	1	0
595.320	1	15
595.660	1	10
595.999	1	8
596.339	1	2
596.678	1	3
597.018	1	-4
597.358	1	6
597.697	1	-11
598.037	1	6
598.376	1	-12
598.716	1	5
599.055	1	4
599.395	1	1
599.734	1	15
600.074	1	-12
600.413	1	9
600.753	1	2
601.092	1	-4
601.432	1	-8
601.771	1	-2
602.111	1	-3
602.451	1	-2
602.790	1	13
603.130	1	-9
603.469	1	0
603.809	1	8
604.148	1	-3
604.487	1	3
604.827	1	6
605.166	1	2
605.506	1	-2
605.845	1	11
606.185	1	2
606.524	1	-5
606.864	1	7
607.203	1	6
607.543	1	3
607.882	1	2
608.222	1	-9
608.561	1	1
608.901	1	1
609.240	1	8
609.579	1	0
609.919	1	-3
610.258	1	9
610.598	1	-6
610.937	1	4
611.277	1	12
611.616	1	12
611.955	1	2
612.295	1	6
612.634	1	4
612.974	1	5
613.313	1	5
613.652	1	19
613.992	1	2
614.331	1	17
614.671	1	7
615.010	1	3
615.349	1	5
615.689	1	-3
616.028	1	21
616.368	1	12
616.707	1	5
617.046	1	-8
617.386	1	11
617.725	1	2
618.064	1	-9
618.404	1	8
618.743	1	8
619.082	1	18
619.422	1	13
619.761	1	-1
620.100	1	3
620.440	1	6
620.779	1	14
621.118	1	2
621.458	1	8
621.797	1	0
622.136	1	-1
622.476	1	-3
622.815	1	9
623.154	1	-12
623.494	1	-6
623.833	1	-1
624.172	1	7
624.511	1	-3
624.851	1	-2
625.190	1	-1
625.529	1	5
625.869	1	14
626.208	1	-7
626.547	1	-8
626.886	1	5
627.226	1	12
627.565	1	20
627.904	1	-1
628.243	1	10
628.583	1	10
628.922	1	-2
629.261	1	2
629.600	1	-2
629.940	1	7
630.279	1	7
630.618	1	2
630.957	1	5
631.297	1	6
631.636	1	0
631.975	1	4
632.314	1	1
632.653	1	-6
632.993	1	1
633.332	1	-2
633.671	1	4
634.010	1	-2
634.349	1	20
634.689	1	0
635.028	1	-2
635.367	1	6
635.706	1	1
636.045	1	-4
636.384	1	10
636.724	1	1
637.063	1	-3
637.402	1	10
637.741	1	-4
638.080	1	3
638.419	1	1
638.759	1	0
639.098	1	5
639.437	1	1
639.776	1	3
640.115	1	-2
640.454	1	0
640.793	1	1
641.132	1	6
641.472	1	15
641.811	1	-4
642.150	1	8
642.489	1	-1
642.828	1	16
643.167	1	-5
643.506	1	6
643.845	1	3
644.184	1	6
644.524	1	7
644.863	1	-4
645.202	1	-3
645.541	1	6
645.880	1	7
646.219	1	5
646.558	1	-12
646.897	1	-5
647.236	1	-3
647.575	1	7
647.914	1	-3
648.253	1	10
648.592	1	9
648.931	1	-3
649.270	1	10
649.610	1	5
649.949	1	-7
650.288	1	0
650.627	1	-2
650.966	1	7
651.305	1	3
651.644	1	9
651.983	1	-5
652.322	1	1
652.661	1	10
653.000	1	4
653.339	1	-7
653.678	1	4
654.017	1	15
654.356	1	7
654.695	1	15
655.034	1	0
655.373	1	8
655.712	1	5
656.051	1	6
656.390	1	5
656.729	1	8
657.068	1	5
657.406	1	3
657.745	1	12
658.084	1	0
658.423	1	10
658.762	1	4
659.101	1	1
659.440	1	-3
659.779	1	1
660.118	1	2
660.457	1	6
660.796	1	13
661.135	1	1
661.474	1	8
661.813	1	4
662.152	1	-6
662.491	1	-2
662.829	1	9
663.168	1	0
663.507	1	4
663.846	1	-2
664.185	1	9
664.524	1	13
664.863	1	-8
665.202	1	-8
665.541	1	4
665.879	1	0
666.218	1	6
666.557	1	3
666.896	1	-1
667.235	1	-6
667.574	1	2
667.913	1	4
668.251	1	0
668.590	1	-3
668.929	1	-3
669.268	1	-2
669.607	1	-7
669.946	1	2
670.285	1	3
670.623	1	1
670.962	1	-4
671.301	1	0
671.640	1	8
671.979	1	0
672.317	1	2
672.656	1	13
672.995	1	7
673.334	1	6
673.673	1	11
674.011	1	4
674.350	1	0
674.689	1	-5
675.028	1	9
675.367	1	0
675.705	1	-13
676.044	1	-6
676.383	1	-3
676.722	1	-4
677.060	1	3
677.399	1	7
677.738	1	-3
678.077	1	2
678.416	1	4
678.754	1	4
679.093	1	7
679.432	1	-7
679.771	1	-1
680.109	1	8
680.448	1	-3
680.787	1	-7
681.125	1	2
681.464	1	10
681.803	1	-3
682.142	1	-2
682.480	1	-3
682.819	1	2
683.158	1	5
683.496	1	4
683.835	1	-3
684.174	1	-10
684.512	1	-3
684.851	1	-3
685.190	1	7
685.529	1	-2
685.867	1	-8
686.206	1	-8
686.545	1	-3
686.883	1	9
687.222	1	-14
687.561	1	-6
687.899	1	-2
688.238	1	6
688.577	1	5
688.746	1	2