File: Data/GaN_150K_450ms/GaN_sample D_spot15_UVVIS_150 K_200um_450 ms 2x2mm1_75.txt
340.368	1	4
340.710	1	-2
341.052	1	7
341.394	1	-1
341.737	1	10
342.079	1	12
342.421	1	14
342.763	1	6
343.105	1	12
343.447	1	7
343.789	1	5
344.131	1	-8
344.473	1	2
344.815	1	9
345.157	1	12
345.499	1	4
345.841	1	-2
346.183	1	10
346.526	1	9
346.868	1	-8
347.210	1	-1
347.552	1	13
347.894	1	-1
348.236	1	10
348.578	1	13
348.920	1	13
349.262	1	11
349.604	1	3
349.946	1	8
350.288	1	1
350.630	1	6
350.972	1	15
351.314	1	-1
351.656	1	14
351.998	1	5
352.340	1	24
352.682	1	-5
353.024	1	25
353.366	1	16
353.708	1	13
354.050	1	-1
354.392	1	7
354.734	1	15
355.076	1	27
355.418	1	11
355.760	1	16
356.102	1	11
356.444	1	20
356.785	1	16
357.127	1	19
357.469	1	14
357.811	1	15
358.153	1	9
358.495	1	15
358.837	1	36
359.179	1	21
359.521	1	41
359.863	1	25
360.205	1	37
360.547	1	46
360.889	1	42
361.231	1	44
361.572	1	52
361.914	1	47
362.256	1	66
362.598	1	67
362.940	1	69
363.282	1	70
363.624	1	84
363.966	1	86
364.308	1	102
364.649	1	110
364.991	1	118
365.333	1	126
365.675	1	150
366.017	1	154
366.359	1	164
366.701	1	178
367.042	1	199
367.384	1	191
367.726	1	202
368.068	1	220
368.410	1	209
368.752	1	213
369.093	1	197
369.435	1	198
369.777	1	194
370.119	1	194
370.461	1	166
370.803	1	157
371.144	1	146
371.486	1	151
371.828	1	141
372.170	1	127
372.512	1	115
372.853	1	132
373.195	1	107
373.537	1	93
373.879	1	99
374.220	1	97
374.562	1	103
374.904	1	96
375.246	1	83
375.588	1	69
375.929	1	76
376.271	1	67
376.613	1	60
376.955	1	58
377.296	1	69
377.638	1	61
377.980	1	51
378.321	1	55
378.663	1	58
379.005	1	44
379.347	1	49
379.688	1	51
380.030	1	44
380.372	1	55
380.714	1	49
381.055	1	36
381.397	1	46
381.739	1	27
382.080	1	34
382.422	1	37
382.764	1	37
383.105	1	29
383.447	1	31
383.789	1	29
384.130	1	37
384.472	1	29
384.814	1	46
385.156	1	40
385.497	1	36
385.839	1	33
386.180	1	35
386.522	1	30
386.864	1	23
387.205	1	33
387.547	1	34
387.889	1	23
388.230	1	19
388.572	1	14
388.914	1	28
389.255	1	25
389.597	1	17
389.939	1	29
390.280	1	20
390.622	1	16
390.963	1	16
391.305	1	17
391.647	1	17
391.988	1	20
392.330	1	14
392.671	1	25
393.013	1	18
393.355	1	20
393.696	1	18
394.038	1	13
394.379	1	18
394.721	1	13
395.062	1	8
395.404	1	25
395.746	1	10
396.087	1	13
396.429	1	23
396.770	1	23
397.112	1	18
397.453	1	19
397.795	1	12
398.136	1	21
398.478	1	11
398.819	1	19
399.161	1	27
399.503	1	25
399.844	1	14
400.186	1	18
400.527	1	21
400.869	1	13
401.210	1	17
401.552	1	10
401.893	1	17
402.235	1	15
402.576	1	24
402.918	1	14
403.259	1	16
403.601	1	22
403.942	1	19
404.284	1	32
404.625	1	14
404.967	1	20
405.308	1	4
405.649	1	11
405.991	1	10
406.332	1	20
406.674	1	8
407.015	1	21
407.357	1	29
407.698	1	19
408.040	1	33
408.381	1	8
408.722	1	20
409.064	1	21
409.405	1	27
409.747	1	14
410.088	1	25
410.430	1	25
410.771	1	10
411.112	1	20
411.454	1	19
411.795	1	10
412.137	1	14
412.478	1	18
412.819	1	16
413.161	1	12
413.502	1	18
413.844	1	23
414.185	1	18
414.526	1	17
414.868	1	17
415.209	1	13
415.550	1	9
415.892	1	14
416.233	1	11
416.575	1	8
416.916	1	13
417.257	1	9
417.599	1	16
417.940	1	7
418.281	1	22
418.623	1	14
418.964	1	26
419.305	1	24
419.647	1	10
419.988	1	26
420.329	1	15
420.671	1	28
421.012	1	9
421.353	1	27
421.695	1	18
422.036	1	22
422.377	1	26
422.718	1	20
423.060	1	10
423.401	1	3
423.742	1	20
424.084	1	16
424.425	1	29
424.766	1	13
425.107	1	11
425.449	1	20
425.790	1	9
426.131	1	6
426.472	1	20
426.814	1	13
427.155	1	19
427.496	1	16
427.837	1	20
428.179	1	21
428.520	1	16
428.861	1	9
429.202	1	14
429.544	1	8
429.885	1	24
430.226	1	8
430.567	1	9
430.909	1	10
431.250	1	20
431.591	1	21
431.932	1	12
432.273	1	16
432.615	1	6
432.956	1	14
433.297	1	17
433.638	1	21
433.979	1	17
434.320	1	13
434.662	1	18
435.003	1	19
435.344	1	15
435.685	1	11
436.026	1	21
436.368	1	22
436.709	1	15
437.050	1	6
437.391	1	6
437.732	1	19
438.073	1	-1
438.414	1	12
438.756	1	10
439.097	1	22
439.438	1	15
439.779	1	9
440.120	1	15
440.461	1	15
440.802	1	14
441.143	1	17
441.485	1	9
441.826	1	16
442.167	1	5
442.508	1	6
442.849	1	9
443.190	1	6
443.531	1	7
443.872	1	9
444.213	1	2
444.554	1	11
444.895	1	12
445.237	1	19
445.578	1	7
445.919	1	5
446.260	1	23
446.601	1	12
446.942	1	12
447.283	1	14
447.624	1	8
447.965	1	7
448.306	1	10
448.647	1	17
448.988	1	19
449.329	1	19
449.670	1	20
450.011	1	14
450.352	1	3
450.693	1	14
451.034	1	13
451.375	1	3
451.716	1	21
452.057	1	11
452.398	1	19
452.739	1	4
453.080	1	20
453.421	1	20
453.762	1	14
454.103	1	9
454.444	1	12
454.785	1	18
455.126	1	7
455.467	1	8
455.808	1	21
456.149	1	-1
456.490	1	-2
456.831	1	11
457.172	1	12
457.513	1	9
457.854	1	13
458.195	1	13
458.536	1	18
458.877	1	14
459.218	1	19
459.559	1	12
459.899	1	5
460.240	1	5
460.581	1	14
460.922	1	0
461.263	1	18
461.604	1	7
461.945	1	12
462.286	1	4
462.627	1	3
462.968	1	6
463.309	1	14
463.649	1	1
463.990	1	3
464.331	1	14
464.672	1	8
465.013	1	6
465.354	1	17
465.695	1	11
466.036	1	17
466.376	1	19
466.717	1	-3
467.058	1	10
467.399	1	0
467.740	1	21
468.081	1	7
468.422	1	24
468.762	1	20
469.103	1	5
469.444	1	12
469.785	1	6
470.126	1	14
470.467	1	5
470.807	1	12
471.148	1	-3
471.489	1	24
471.830	1	11
472.171	1	18
472.511	1	10
472.852	1	15
473.193	1	13
473.534	1	7
473.875	1	-1
474.215	1	16
474.556	1	9
474.897	1	9
475.238	1	19
475.578	1	14
475.919	1	9
476.260	1	2
476.601	1	12
476.942	1	10
477.282	1	-9
477.623	1	15
477.964	1	19
478.305	1	13
478.645	1	16
478.986	1	16
479.327	1	6
479.667	1	7
480.008	1	14
480.349	1	12
480.690	1	19
481.030	1	6
481.371	1	8
481.712	1	29
482.053	1	21
482.393	1	18
482.734	1	18
483.075	1	14
483.415	1	10
483.756	1	17
484.097	1	13
484.437	1	22
484.778	1	3
485.119	1	16
485.459	1	7
485.800	1	7
486.141	1	17
486.481	1	5
486.822	1	29
487.163	1	20
487.503	1	18
487.844	1	5
488.185	1	26
488.525	1	7
488.866	1	9
489.207	1	15
489.547	1	21
489.888	1	16
490.228	1	24
490.569	1	18
490.910	1	22
491.250	1	23
491.591	1	21
491.932	1	25
492.272	1	13
492.613	1	15
492.953	1	12
493.294	1	9
493.635	1	23
493.975	1	26
494.316	1	16
494.656	1	30
494.997	1	12
495.337	1	24
495.678	1	17
496.019	1	16
496.359	1	17
496.700	1	18
497.040	1	12
497.381	1	30
497.721	1	17
498.062	1	34
498.403	1	39
498.743	1	26
499.084	1	31
499.424	1	22
499.765	1	31
500.105	1	40
500.446	1	21
500.786	1	32
501.127	1	35
501.467	1	36
501.808	1	28
502.148	1	32
502.489	1	26
502.829	1	32
503.170	1	43
503.510	1	34
503.851	1	41
504.191	1	32
504.532	1	47
504.872	1	32
505.213	1	40
505.553	1	42
505.894	1	38
506.234	1	51
506.575	1	47
506.915	1	40
507.256	1	35
507.596	1	36
507.936	1	50
508.277	1	45
508.617	1	41
508.958	1	40
509.298	1	36
509.639	1	31
509.979	1	42
510.319	1	46
510.660	1	34
511.000	1	43
511.341	1	58
511.681	1	37
512.022	1	30
512.362	1	52
512.702	1	32
513.043	1	50
513.383	1	41
513.724	1	52
514.064	1	42
514.404	1	51
514.745	1	37
515.085	1	51
515.425	1	48
515.766	1	40
516.106	1	42
516.447	1	55
516.787	1	40
517.127	1	51
517.468	1	52
517.808	1	43
518.148	1	53
518.489	1	52
518.829	1	49
519.169	1	44
519.510	1	45
519.850	1	48
520.190	1	49
520.531	1	61
520.871	1	47
521.211	1	54
521.552	1	45
521.892	1	48
522.232	1	47
522.573	1	43
522.913	1	57
523.253	1	59
523.593	1	59
523.934	1	42
524.274	1	48
524.614	1	55
524.955	1	47
525.295	1	48
525.635	1	52
525.975	1	50
526.316	1	41
526.656	1	56
526.996	1	46
527.337	1	55
527.677	1	65
528.017	1	40
528.357	1	54
528.698	1	54
529.038	1	56
529.378	1	55
529.718	1	58
530.058	1	57
530.399	1	45
530.739	1	63
531.079	1	55
531.419	1	57
531.760	1	56
532.100	1	68
532.440	1	52
532.780	1	51
533.120	1	48
533.461	1	48
533.801	1	65
534.141	1	57
534.481	1	64
534.821	1	50
535.162	1	56
535.502	1	59
535.842	1	49
536.182	1	51
536.522	1	35
536.862	1	48
537.203	1	41
537.543	1	64
537.883	1	53
538.223	1	56
538.563	1	44
538.903	1	35
539.243	1	48
539.584	1	49
539.924	1	49
540.264	1	54
540.604	1	45
540.944	1	55
541.284	1	44
541.624	1	50
541.964	1	47
542.305	1	59
542.645	1	49
542.985	1	37
543.325	1	47
543.665	1	34
544.005	1	48
544.345	1	51
544.685	1	36
545.025	1	52
545.365	1	32
545.705	1	52
546.045	1	50
546.386	1	40
546.726	1	46
547.066	1	40
547.406	1	45
547.746	1	43
548.086	1	51
548.426	1	51
548.766	1	48
549.106	1	40
549.446	1	52
549.786	1	50
550.126	1	58
550.466	1	37
550.806	1	53
551.146	1	49
551.486	1	39
551.826	1	40
552.166	1	47
552.506	1	31
552.846	1	40
553.186	1	44
553.526	1	40
553.866	1	35
554.206	1	49
554.546	1	47
554.886	1	35
555.226	1	39
555.566	1	44
555.906	1	31
556.246	1	40
556.586	1	34
556.926	1	32
557.266	1	27
557.606	1	35
557.946	1	44
558.286	1	26
558.626	1	41
558.966	1	39
559.306	1	40
559.646	1	39
559.986	1	36
560.325	1	36
560.665	1	36
561.005	1	36
561.345	1	36
561.685	1	47
562.025	1	33
562.365	1	26
562.705	1	52
563.045	1	24
563.385	1	38
563.725	1	36
564.064	1	33
564.404	1	32
564.744	1	40
565.084	1	39
565.424	1	34
565.764	1	36
566.104	1	40
566.444	1	35
566.783	1	35
567.123	1	19
567.463	1	31
567.803	1	37
568.143	1	29
568.483	1	36
568.823	1	33
569.162	1	20
569.502	1	38
569.842	1	32
570.182	1	16
570.522	1	23
570.862	1	15
571.201	1	30
571.541	1	23
571.881	1	30
572.221	1	31
572.561	1	39
572.900	1	46
573.240	1	27
573.580	1	23
573.920	1	27
574.260	1	29
574.599	1	21
574.939	1	20
575.279	1	9
575.619	1	29
575.959	1	14
576.298	1	14
576.638	1	23
576.978	1	24
577.318	1	26
577.657	1	28
577.997	1	27
578.337	1	24
578.677	1	10
579.016	1	19
579.356	1	23
579.696	1	24
580.036	1	21
580.375	1	20
580.715	1	30
581.055	1	11
581.394	1	17
581.734	1	25
582.074	1	17
582.414	1	16
582.753	1	18
583.093	1	21
583.433	1	25
583.772	1	21
584.112	1	19
584.452	1	25
584.791	1	16
585.131	1	21
585.471	1	27
585.811	1	20
586.150	1	10
586.490	1	15
586.830	1	24
587.169	1	19
587.509	1	15
587.849	1	23
588.188	1	20
588.528	1	11
588.867	1	18
589.207	1	21
589.547	1	22
589.886	1	20
590.226	1	18
590.566	1	16
590.905	1	13
591.245	1	4
591.585	1	21
591.924	1	5
592.264	1	12
592.603	1	4
592.943	1	18
593.283	1	11
593.622	1	7
593.962	1	13
594.301	1	8
594.641	1	17
594.981	1	18
595.320	1	19
595.660	1	20
595.999	1	12
596.339	1	13
596.678	1	1
597.018	1	12
597.358	1	11
597.697	1	9
598.037	1	11
598.376	1	7
598.716	1	11
599.055	1	16
599.395	1	14
599.734	1	25
600.074	1	10
600.413	1	17
600.753	1	18
601.092	1	2
601.432	1	15
601.771	1	21
602.111	1	8
602.451	1	10
602.790	1	16
603.130	1	14
603.469	1	14
603.809	1	20
604.148	1	3
604.487	1	14
604.827	1	17
605.166	1	8
605.506	1	3
605.845	1	20
606.185	1	6
606.524	1	7
606.864	1	19
607.203	1	17
607.543	1	13
607.882	1	24
608.222	1	4
608.561	1	4
608.901	1	9
609.240	1	17
609.579	1	14
609.919	1	-3
610.258	1	16
610.598	1	6
610.937	1	4
611.277	1	12
611.616	1	19
611.955	1	10
612.295	1	16
612.634	1	15
612.974	1	10
613.313	1	10
613.652	1	22
613.992	1	1
614.331	1	11
614.671	1	9
615.010	1	10
615.349	1	14
615.689	1	4
616.028	1	20
616.368	1	16
616.707	1	8
617.046	1	8
617.386	1	25
617.725	1	8
618.064	1	1
618.404	1	-8
618.743	1	12
619.082	1	19
619.422	1	26
619.761	1	-2
620.100	1	5
620.440	1	10
620.779	1	21
621.118	1	18
621.458	1	7
621.797	1	9
622.136	1	9
622.476	1	15
622.815	1	12
623.154	1	5
623.494	1	-1
623.833	1	10
624.172	1	12
624.511	1	7
624.851	1	4
625.190	1	10
625.529	1	10
625.869	1	19
626.208	1	6
626.547	1	11
626.886	1	6
627.226	1	12
627.565	1	12
627.904	1	12
628.243	1	15
628.583	1	4
628.922	1	13
629.261	1	5
629.600	1	9
629.940	1	13
630.279	1	20
630.618	1	18
630.957	1	14
631.297	1	8
631.636	1	6
631.975	1	3
632.314	1	7
632.653	1	4
632.993	1	11
633.332	1	7
633.671	1	14
634.010	1	6
634.349	1	9
634.689	1	9
635.028	1	1
635.367	1	13
635.706	1	3
636.045	1	8
636.384	1	8
636.724	1	8
637.063	1	-1
637.402	1	12
637.741	1	5
638.080	1	8
638.419	1	12
638.759	1	3
639.098	1	1
639.437	1	14
639.776	1	14
640.115	1	5
640.454	1	-1
640.793	1	12
641.132	1	8
641.472	1	25
641.811	1	5
642.150	1	4
642.489	1	17
642.828	1	17
643.167	1	8
643.506	1	15
643.845	1	14
644.184	1	20
644.524	1	12
644.863	1	6
645.202	1	12
645.541	1	7
645.880	1	5
646.219	1	14
646.558	1	0
646.897	1	0
647.236	1	3
647.575	1	12
647.914	1	8
648.253	1	13
648.592	1	10
648.931	1	12
649.270	1	16
649.610	1	7
649.949	1	6
650.288	1	9
650.627	1	8
650.966	1	14
651.305	1	5
651.644	1	16
651.983	1	6
652.322	1	9
652.661	1	16
653.000	1	3
653.339	1	3
653.678	1	14
654.017	1	9
654.356	1	12
654.695	1	22
655.034	1	14
655.373	1	3
655.712	1	12
656.051	1	6
656.390	1	9
656.729	1	12
657.068	1	0
657.406	1	-1
657.745	1	12
658.084	1	14
658.423	1	15
658.762	1	11
659.101	1	2
659.440	1	9
659.779	1	8
660.118	1	7
660.457	1	12
660.796	1	16
661.135	1	21
661.474	1	11
661.813	1	-3
662.152	1	8
662.491	1	4
662.829	1	22
663.168	1	0
663.507	1	6
663.846	1	2
664.185	1	7
664.524	1	7
664.863	1	2
665.202	1	13
665.541	1	10
665.879	1	9
666.218	1	12
666.557	1	1
666.896	1	14
667.235	1	2
667.574	1	-1
667.913	1	10
668.251	1	-4
668.590	1	9
668.929	1	7
669.268	1	1
669.607	1	-7
669.946	1	12
670.285	1	6
670.623	1	6
670.962	1	1
671.301	1	13
671.640	1	10
671.979	1	4
672.317	1	12
672.656	1	12
672.995	1	7
673.334	1	1
673.673	1	14
674.011	1	12
674.350	1	9
674.689	1	2
675.028	1	11
675.367	1	0
675.705	1	0
676.044	1	12
676.383	1	7
676.722	1	8
677.060	1	10
677.399	1	24
677.738	1	0
678.077	1	0
678.416	1	2
678.754	1	5
679.093	1	15
679.432	1	8
679.771	1	16
680.109	1	2
680.448	1	1
680.787	1	4
681.125	1	3
681.464	1	12
681.803	1	5
682.142	1	4
682.480	1	1
682.819	1	5
683.158	1	6
683.496	1	3
683.835	1	7
684.174	1	10
684.512	1	5
684.851	1	3
685.190	1	6
685.529	1	1
685.867	1	8
686.206	1	-2
686.545	1	9
686.883	1	16
687.222	1	7
687.561	1	11
687.899	1	9
688.238	1	24
688.577	1	8
688.746	1	5