File: Data/GaN_150K_450ms/GaN_sample D_spot15_UVVIS_150 K_200um_450 ms 2x2mm1_218.txt
340.368	1	4
340.710	1	3
341.052	1	1
341.394	1	-9
341.737	1	6
342.079	1	11
342.421	1	2
342.763	1	-4
343.105	1	1
343.447	1	8
343.789	1	5
344.131	1	-14
344.473	1	4
344.815	1	8
345.157	1	19
345.499	1	2
345.841	1	10
346.183	1	7
346.526	1	15
346.868	1	-2
347.210	1	6
347.552	1	16
347.894	1	5
348.236	1	3
348.578	1	9
348.920	1	2
349.262	1	7
349.604	1	-2
349.946	1	-4
350.288	1	-9
350.630	1	-8
350.972	1	11
351.314	1	2
351.656	1	11
351.998	1	-3
352.340	1	7
352.682	1	-5
353.024	1	10
353.366	1	1
353.708	1	-4
354.050	1	-4
354.392	1	-2
354.734	1	-2
355.076	1	11
355.418	1	9
355.760	1	11
356.102	1	7
356.444	1	4
356.785	1	7
357.127	1	15
357.469	1	6
357.811	1	9
358.153	1	-4
358.495	1	3
358.837	1	6
359.179	1	2
359.521	1	14
359.863	1	4
360.205	1	13
360.547	1	10
360.889	1	5
361.231	1	14
361.572	1	5
361.914	1	13
362.256	1	16
362.598	1	0
362.940	1	14
363.282	1	-3
363.624	1	19
363.966	1	13
364.308	1	14
364.649	1	8
364.991	1	14
365.333	1	12
365.675	1	25
366.017	1	15
366.359	1	12
366.701	1	9
367.042	1	19
367.384	1	9
367.726	1	14
368.068	1	31
368.410	1	18
368.752	1	27
369.093	1	27
369.435	1	26
369.777	1	33
370.119	1	28
370.461	1	21
370.803	1	14
371.144	1	14
371.486	1	18
371.828	1	22
372.170	1	22
372.512	1	5
372.853	1	18
373.195	1	14
373.537	1	7
373.879	1	11
374.220	1	22
374.562	1	17
374.904	1	6
375.246	1	7
375.588	1	3
375.929	1	8
376.271	1	11
376.613	1	8
376.955	1	-3
377.296	1	17
377.638	1	1
377.980	1	3
378.321	1	8
378.663	1	13
379.005	1	3
379.347	1	4
379.688	1	7
380.030	1	4
380.372	1	0
380.714	1	15
381.055	1	1
381.397	1	3
381.739	1	7
382.080	1	1
382.422	1	14
382.764	1	1
383.105	1	-2
383.447	1	-5
383.789	1	-2
384.130	1	-1
384.472	1	-1
384.814	1	3
385.156	1	1
385.497	1	12
385.839	1	5
386.180	1	8
386.522	1	15
386.864	1	-6
387.205	1	6
387.547	1	13
387.889	1	8
388.230	1	8
388.572	1	-1
388.914	1	7
389.255	1	8
389.597	1	8
389.939	1	13
390.280	1	6
390.622	1	-9
390.963	1	-9
391.305	1	0
391.647	1	4
391.988	1	-2
392.330	1	-1
392.671	1	3
393.013	1	6
393.355	1	10
393.696	1	13
394.038	1	5
394.379	1	10
394.721	1	3
395.062	1	0
395.404	1	9
395.746	1	4
396.087	1	6
396.429	1	10
396.770	1	6
397.112	1	4
397.453	1	-1
397.795	1	0
398.136	1	6
398.478	1	-5
398.819	1	4
399.161	1	9
399.503	1	8
399.844	1	-4
400.186	1	0
400.527	1	8
400.869	1	2
401.210	1	0
401.552	1	6
401.893	1	5
402.235	1	6
402.576	1	6
402.918	1	0
403.259	1	5
403.601	1	6
403.942	1	3
404.284	1	10
404.625	1	1
404.967	1	0
405.308	1	-8
405.649	1	8
405.991	1	12
406.332	1	1
406.674	1	10
407.015	1	7
407.357	1	8
407.698	1	8
408.040	1	17
408.381	1	-2
408.722	1	5
409.064	1	8
409.405	1	6
409.747	1	0
410.088	1	14
410.430	1	4
410.771	1	9
411.112	1	-2
411.454	1	7
411.795	1	13
412.137	1	4
412.478	1	0
412.819	1	14
413.161	1	11
413.502	1	5
413.844	1	13
414.185	1	5
414.526	1	-4
414.868	1	2
415.209	1	2
415.550	1	4
415.892	1	7
416.233	1	10
416.575	1	-4
416.916	1	0
417.257	1	4
417.599	1	3
417.940	1	-6
418.281	1	15
418.623	1	1
418.964	1	15
419.305	1	9
419.647	1	3
419.988	1	18
420.329	1	-2
420.671	1	4
421.012	1	-8
421.353	1	7
421.695	1	12
422.036	1	14
422.377	1	-7
422.718	1	21
423.060	1	14
423.401	1	1
423.742	1	7
424.084	1	5
424.425	1	14
424.766	1	12
425.107	1	4
425.449	1	-6
425.790	1	6
426.131	1	0
426.472	1	9
426.814	1	6
427.155	1	10
427.496	1	3
427.837	1	8
428.179	1	23
428.520	1	3
428.861	1	8
429.202	1	-3
429.544	1	8
429.885	1	13
430.226	1	-5
430.567	1	-6
430.909	1	-4
431.250	1	-4
431.591	1	9
431.932	1	3
432.273	1	11
432.615	1	-9
432.956	1	1
433.297	1	1
433.638	1	11
433.979	1	10
434.320	1	6
434.662	1	11
435.003	1	15
435.344	1	9
435.685	1	-5
436.026	1	1
436.368	1	1
436.709	1	0
437.050	1	5
437.391	1	1
437.732	1	5
438.073	1	-3
438.414	1	6
438.756	1	17
439.097	1	6
439.438	1	8
439.779	1	6
440.120	1	-1
440.461	1	7
440.802	1	3
441.143	1	5
441.485	1	6
441.826	1	4
442.167	1	1
442.508	1	1
442.849	1	6
443.190	1	9
443.531	1	2
443.872	1	-8
444.213	1	-7
444.554	1	11
444.895	1	2
445.237	1	8
445.578	1	-2
445.919	1	5
446.260	1	15
446.601	1	3
446.942	1	2
447.283	1	8
447.624	1	-4
447.965	1	-1
448.306	1	1
448.647	1	1
448.988	1	1
449.329	1	12
449.670	1	4
450.011	1	0
450.352	1	-1
450.693	1	12
451.034	1	4
451.375	1	0
451.716	1	8
452.057	1	0
452.398	1	4
452.739	1	7
453.080	1	9
453.421	1	8
453.762	1	8
454.103	1	9
454.444	1	9
454.785	1	3
455.126	1	-4
455.467	1	-3
455.808	1	2
456.149	1	1
456.490	1	-5
456.831	1	-4
457.172	1	6
457.513	1	-4
457.854	1	-4
458.195	1	8
458.536	1	5
458.877	1	0
459.218	1	8
459.559	1	1
459.899	1	4
460.240	1	-4
460.581	1	-2
460.922	1	5
461.263	1	17
461.604	1	6
461.945	1	9
462.286	1	-15
462.627	1	-2
462.968	1	11
463.309	1	6
463.649	1	1
463.990	1	6
464.331	1	6
464.672	1	5
465.013	1	13
465.354	1	8
465.695	1	10
466.036	1	15
466.376	1	11
466.717	1	-5
467.058	1	1
467.399	1	3
467.740	1	9
468.081	1	10
468.422	1	7
468.762	1	8
469.103	1	7
469.444	1	2
469.785	1	-1
470.126	1	9
470.467	1	3
470.807	1	0
471.148	1	0
471.489	1	14
471.830	1	2
472.171	1	6
472.511	1	5
472.852	1	7
473.193	1	-4
473.534	1	0
473.875	1	8
474.215	1	4
474.556	1	-3
474.897	1	-7
475.238	1	7
475.578	1	-4
475.919	1	10
476.260	1	2
476.601	1	2
476.942	1	5
477.282	1	1
477.623	1	2
477.964	1	5
478.305	1	7
478.645	1	6
478.986	1	3
479.327	1	9
479.667	1	-2
480.008	1	-1
480.349	1	-8
480.690	1	10
481.030	1	1
481.371	1	4
481.712	1	16
482.053	1	5
482.393	1	9
482.734	1	1
483.075	1	8
483.415	1	12
483.756	1	11
484.097	1	8
484.437	1	0
484.778	1	5
485.119	1	-2
485.459	1	-7
485.800	1	-3
486.141	1	-3
486.481	1	-6
486.822	1	15
487.163	1	-8
487.503	1	5
487.844	1	-16
488.185	1	5
488.525	1	-5
488.866	1	-4
489.207	1	8
489.547	1	0
489.888	1	4
490.228	1	1
490.569	1	4
490.910	1	8
491.250	1	14
491.591	1	10
491.932	1	13
492.272	1	0
492.613	1	3
492.953	1	7
493.294	1	-4
493.635	1	15
493.975	1	15
494.316	1	0
494.656	1	7
494.997	1	-2
495.337	1	-1
495.678	1	4
496.019	1	3
496.359	1	4
496.700	1	-4
497.040	1	-6
497.381	1	6
497.721	1	-6
498.062	1	7
498.403	1	13
498.743	1	9
499.084	1	3
499.424	1	2
499.765	1	5
500.105	1	7
500.446	1	1
500.786	1	1
501.127	1	1
501.467	1	17
501.808	1	0
502.148	1	-4
502.489	1	2
502.829	1	-7
503.170	1	3
503.510	1	4
503.851	1	-2
504.191	1	-11
504.532	1	6
504.872	1	-4
505.213	1	3
505.553	1	6
505.894	1	0
506.234	1	11
506.575	1	15
506.915	1	11
507.256	1	10
507.596	1	10
507.936	1	16
508.277	1	-1
508.617	1	11
508.958	1	17
509.298	1	-6
509.639	1	-9
509.979	1	6
510.319	1	9
510.660	1	11
511.000	1	-2
511.341	1	10
511.681	1	8
512.022	1	-4
512.362	1	14
512.702	1	-2
513.043	1	4
513.383	1	7
513.724	1	-8
514.064	1	7
514.404	1	6
514.745	1	0
515.085	1	9
515.425	1	11
515.766	1	3
516.106	1	-1
516.447	1	8
516.787	1	-3
517.127	1	13
517.468	1	5
517.808	1	0
518.148	1	4
518.489	1	8
518.829	1	3
519.169	1	-3
519.510	1	6
519.850	1	7
520.190	1	8
520.531	1	9
520.871	1	10
521.211	1	3
521.552	1	-2
521.892	1	10
522.232	1	-6
522.573	1	16
522.913	1	9
523.253	1	10
523.593	1	8
523.934	1	6
524.274	1	2
524.614	1	6
524.955	1	-1
525.295	1	8
525.635	1	13
525.975	1	0
526.316	1	-1
526.656	1	5
526.996	1	4
527.337	1	5
527.677	1	22
528.017	1	4
528.357	1	10
528.698	1	12
529.038	1	-2
529.378	1	2
529.718	1	6
530.058	1	12
530.399	1	7
530.739	1	4
531.079	1	-5
531.419	1	3
531.760	1	13
532.100	1	9
532.440	1	3
532.780	1	6
533.120	1	3
533.461	1	1
533.801	1	8
534.141	1	9
534.481	1	25
534.821	1	5
535.162	1	9
535.502	1	4
535.842	1	1
536.182	1	7
536.522	1	-3
536.862	1	-4
537.203	1	12
537.543	1	4
537.883	1	13
538.223	1	27
538.563	1	0
538.903	1	4
539.243	1	8
539.584	1	7
539.924	1	10
540.264	1	9
540.604	1	12
540.944	1	7
541.284	1	0
541.624	1	1
541.964	1	-6
542.305	1	15
542.645	1	6
542.985	1	12
543.325	1	11
543.665	1	2
544.005	1	-2
544.345	1	5
544.685	1	6
545.025	1	9
545.365	1	6
545.705	1	6
546.045	1	7
546.386	1	6
546.726	1	0
547.066	1	10
547.406	1	-9
547.746	1	4
548.086	1	8
548.426	1	2
548.766	1	6
549.106	1	1
549.446	1	8
549.786	1	1
550.126	1	7
550.466	1	7
550.806	1	14
551.146	1	-4
551.486	1	6
551.826	1	-1
552.166	1	-2
552.506	1	1
552.846	1	1
553.186	1	-1
553.526	1	2
553.866	1	2
554.206	1	5
554.546	1	8
554.886	1	-1
555.226	1	4
555.566	1	4
555.906	1	-1
556.246	1	8
556.586	1	1
556.926	1	5
557.266	1	9
557.606	1	-8
557.946	1	6
558.286	1	-16
558.626	1	4
558.966	1	4
559.306	1	0
559.646	1	13
559.986	1	6
560.325	1	2
560.665	1	3
561.005	1	2
561.345	1	-5
561.685	1	4
562.025	1	-3
562.365	1	9
562.705	1	10
563.045	1	6
563.385	1	2
563.725	1	2
564.064	1	-6
564.404	1	-4
564.744	1	8
565.084	1	4
565.424	1	-2
565.764	1	2
566.104	1	12
566.444	1	10
566.783	1	2
567.123	1	4
567.463	1	2
567.803	1	9
568.143	1	6
568.483	1	7
568.823	1	5
569.162	1	-1
569.502	1	6
569.842	1	5
570.182	1	-5
570.522	1	-6
570.862	1	-5
571.201	1	14
571.541	1	4
571.881	1	1
572.221	1	-2
572.561	1	12
572.900	1	9
573.240	1	-1
573.580	1	8
573.920	1	12
574.260	1	7
574.599	1	5
574.939	1	4
575.279	1	10
575.619	1	5
575.959	1	6
576.298	1	-6
576.638	1	-1
576.978	1	7
577.318	1	2
577.657	1	1
577.997	1	5
578.337	1	6
578.677	1	2
579.016	1	7
579.356	1	9
579.696	1	15
580.036	1	9
580.375	1	10
580.715	1	0
581.055	1	9
581.394	1	2
581.734	1	10
582.074	1	4
582.414	1	2
582.753	1	6
583.093	1	5
583.433	1	13
583.772	1	6
584.112	1	0
584.452	1	3
584.791	1	3
585.131	1	-2
585.471	1	1
585.811	1	-1
586.150	1	2
586.490	1	8
586.830	1	0
587.169	1	5
587.509	1	-1
587.849	1	11
588.188	1	3
588.528	1	0
588.867	1	7
589.207	1	2
589.547	1	8
589.886	1	8
590.226	1	0
590.566	1	3
590.905	1	3
591.245	1	5
591.585	1	-4
591.924	1	-7
592.264	1	-3
592.603	1	-6
592.943	1	0
593.283	1	10
593.622	1	7
593.962	1	15
594.301	1	3
594.641	1	4
594.981	1	3
595.320	1	5
595.660	1	12
595.999	1	10
596.339	1	9
596.678	1	-6
597.018	1	-3
597.358	1	8
597.697	1	-3
598.037	1	-4
598.376	1	3
598.716	1	3
599.055	1	10
599.395	1	-6
599.734	1	7
600.074	1	-7
600.413	1	3
600.753	1	4
601.092	1	-10
601.432	1	-7
601.771	1	8
602.111	1	2
602.451	1	-7
602.790	1	5
603.130	1	2
603.469	1	-6
603.809	1	0
604.148	1	-11
604.487	1	7
604.827	1	5
605.166	1	1
605.506	1	4
605.845	1	5
606.185	1	3
606.524	1	-7
606.864	1	8
607.203	1	7
607.543	1	5
607.882	1	10
608.222	1	-2
608.561	1	5
608.901	1	5
609.240	1	5
609.579	1	-5
609.919	1	-4
610.258	1	19
610.598	1	-3
610.937	1	-1
611.277	1	4
611.616	1	13
611.955	1	-3
612.295	1	9
612.634	1	8
612.974	1	-2
613.313	1	0
613.652	1	3
613.992	1	2
614.331	1	8
614.671	1	2
615.010	1	3
615.349	1	3
615.689	1	-6
616.028	1	10
616.368	1	3
616.707	1	2
617.046	1	-1
617.386	1	1
617.725	1	6
618.064	1	5
618.404	1	-1
618.743	1	2
619.082	1	5
619.422	1	16
619.761	1	-9
620.100	1	7
620.440	1	12
620.779	1	13
621.118	1	17
621.458	1	-3
621.797	1	7
622.136	1	-3
622.476	1	2
622.815	1	1
623.154	1	-5
623.494	1	-5
623.833	1	0
624.172	1	0
624.511	1	-7
624.851	1	-1
625.190	1	0
625.529	1	-5
625.869	1	18
626.208	1	-8
626.547	1	-7
626.886	1	7
627.226	1	4
627.565	1	4
627.904	1	-6
628.243	1	7
628.583	1	3
628.922	1	3
629.261	1	3
629.600	1	-1
629.940	1	5
630.279	1	4
630.618	1	6
630.957	1	3
631.297	1	0
631.636	1	-4
631.975	1	3
632.314	1	0
632.653	1	2
632.993	1	1
633.332	1	2
633.671	1	10
634.010	1	4
634.349	1	13
634.689	1	3
635.028	1	0
635.367	1	-1
635.706	1	7
636.045	1	-7
636.384	1	12
636.724	1	10
637.063	1	0
637.402	1	5
637.741	1	-2
638.080	1	-2
638.419	1	4
638.759	1	4
639.098	1	-4
639.437	1	0
639.776	1	-5
640.115	1	2
640.454	1	0
640.793	1	8
641.132	1	8
641.472	1	13
641.811	1	6
642.150	1	3
642.489	1	8
642.828	1	11
643.167	1	9
643.506	1	11
643.845	1	19
644.184	1	4
644.524	1	-5
644.863	1	5
645.202	1	1
645.541	1	4
645.880	1	10
646.219	1	5
646.558	1	-10
646.897	1	-8
647.236	1	-13
647.575	1	9
647.914	1	2
648.253	1	12
648.592	1	6
648.931	1	18
649.270	1	12
649.610	1	5
649.949	1	-10
650.288	1	6
650.627	1	-2
650.966	1	9
651.305	1	6
651.644	1	2
651.983	1	1
652.322	1	2
652.661	1	11
653.000	1	11
653.339	1	-3
653.678	1	16
654.017	1	5
654.356	1	4
654.695	1	12
655.034	1	-3
655.373	1	9
655.712	1	14
656.051	1	-9
656.390	1	-3
656.729	1	1
657.068	1	10
657.406	1	3
657.745	1	17
658.084	1	2
658.423	1	10
658.762	1	-2
659.101	1	2
659.440	1	0
659.779	1	5
660.118	1	0
660.457	1	-7
660.796	1	12
661.135	1	-4
661.474	1	7
661.813	1	0
662.152	1	7
662.491	1	8
662.829	1	-2
663.168	1	-3
663.507	1	6
663.846	1	0
664.185	1	3
664.524	1	12
664.863	1	-14
665.202	1	-3
665.541	1	3
665.879	1	-2
666.218	1	8
666.557	1	-4
666.896	1	5
667.235	1	-2
667.574	1	3
667.913	1	11
668.251	1	-9
668.590	1	-1
668.929	1	-1
669.268	1	-1
669.607	1	-6
669.946	1	-3
670.285	1	6
670.623	1	-1
670.962	1	-7
671.301	1	-2
671.640	1	3
671.979	1	-8
672.317	1	-1
672.656	1	13
672.995	1	-5
673.334	1	5
673.673	1	14
674.011	1	3
674.350	1	9
674.689	1	-7
675.028	1	3
675.367	1	2
675.705	1	-2
676.044	1	0
676.383	1	2
676.722	1	-2
677.060	1	6
677.399	1	18
677.738	1	-7
678.077	1	-3
678.416	1	-2
678.754	1	6
679.093	1	-2
679.432	1	-4
679.771	1	7
680.109	1	0
680.448	1	4
680.787	1	-6
681.125	1	1
681.464	1	-5
681.803	1	-1
682.142	1	4
682.480	1	5
682.819	1	-1
683.158	1	-1
683.496	1	-5
683.835	1	1
684.174	1	3
684.512	1	3
684.851	1	-10
685.190	1	-1
685.529	1	-3
685.867	1	-2
686.206	1	-6
686.545	1	2
686.883	1	8
687.222	1	0
687.561	1	-3
687.899	1	-4
688.238	1	16
688.577	1	3
688.746	1	-2