File: Data/GaN_150K_450ms/GaN_sample D_spot15_UVVIS_150 K_200um_450 ms 2x2mm1_124.txt
340.368	1	8
340.710	1	5
341.052	1	4
341.394	1	0
341.737	1	4
342.079	1	2
342.421	1	4
342.763	1	9
343.105	1	-2
343.447	1	-2
343.789	1	14
344.131	1	-10
344.473	1	-3
344.815	1	7
345.157	1	17
345.499	1	1
345.841	1	6
346.183	1	-2
346.526	1	11
346.868	1	-1
347.210	1	-1
347.552	1	20
347.894	1	-5
348.236	1	12
348.578	1	16
348.920	1	12
349.262	1	7
349.604	1	-4
349.946	1	3
350.288	1	-3
350.630	1	2
350.972	1	10
351.314	1	2
351.656	1	9
351.998	1	11
352.340	1	6
352.682	1	-7
353.024	1	16
353.366	1	12
353.708	1	7
354.050	1	-6
354.392	1	-1
354.734	1	6
355.076	1	16
355.418	1	-1
355.760	1	6
356.102	1	7
356.444	1	14
356.785	1	12
357.127	1	15
357.469	1	1
357.811	1	14
358.153	1	2
358.495	1	13
358.837	1	15
359.179	1	12
359.521	1	20
359.863	1	8
360.205	1	21
360.547	1	20
360.889	1	12
361.231	1	21
361.572	1	23
361.914	1	17
362.256	1	29
362.598	1	30
362.940	1	22
363.282	1	17
363.624	1	22
363.966	1	16
364.308	1	37
364.649	1	36
364.991	1	50
365.333	1	36
365.675	1	48
366.017	1	58
366.359	1	47
366.701	1	52
367.042	1	52
367.384	1	50
367.726	1	51
368.068	1	79
368.410	1	70
368.752	1	62
369.093	1	56
369.435	1	66
369.777	1	70
370.119	1	61
370.461	1	47
370.803	1	39
371.144	1	39
371.486	1	50
371.828	1	37
372.170	1	48
372.512	1	34
372.853	1	41
373.195	1	33
373.537	1	31
373.879	1	33
374.220	1	44
374.562	1	38
374.904	1	24
375.246	1	22
375.588	1	25
375.929	1	37
376.271	1	20
376.613	1	25
376.955	1	25
377.296	1	29
377.638	1	19
377.980	1	14
378.321	1	24
378.663	1	20
379.005	1	22
379.347	1	20
379.688	1	18
380.030	1	32
380.372	1	21
380.714	1	14
381.055	1	10
381.397	1	12
381.739	1	15
382.080	1	23
382.422	1	20
382.764	1	9
383.105	1	14
383.447	1	14
383.789	1	-2
384.130	1	13
384.472	1	11
384.814	1	18
385.156	1	10
385.497	1	19
385.839	1	20
386.180	1	9
386.522	1	16
386.864	1	3
387.205	1	12
387.547	1	14
387.889	1	3
388.230	1	14
388.572	1	1
388.914	1	20
389.255	1	6
389.597	1	5
389.939	1	17
390.280	1	10
390.622	1	6
390.963	1	4
391.305	1	3
391.647	1	12
391.988	1	7
392.330	1	8
392.671	1	1
393.013	1	19
393.355	1	17
393.696	1	16
394.038	1	16
394.379	1	9
394.721	1	12
395.062	1	7
395.404	1	15
395.746	1	8
396.087	1	6
396.429	1	8
396.770	1	16
397.112	1	8
397.453	1	4
397.795	1	13
398.136	1	12
398.478	1	11
398.819	1	7
399.161	1	16
399.503	1	8
399.844	1	6
400.186	1	12
400.527	1	7
400.869	1	12
401.210	1	5
401.552	1	8
401.893	1	2
402.235	1	13
402.576	1	16
402.918	1	-1
403.259	1	10
403.601	1	13
403.942	1	-4
404.284	1	19
404.625	1	3
404.967	1	2
405.308	1	0
405.649	1	11
405.991	1	14
406.332	1	5
406.674	1	9
407.015	1	16
407.357	1	20
407.698	1	13
408.040	1	21
408.381	1	1
408.722	1	9
409.064	1	19
409.405	1	12
409.747	1	1
410.088	1	15
410.430	1	10
410.771	1	20
411.112	1	14
411.454	1	15
411.795	1	8
412.137	1	6
412.478	1	15
412.819	1	14
413.161	1	15
413.502	1	3
413.844	1	15
414.185	1	11
414.526	1	0
414.868	1	7
415.209	1	10
415.550	1	11
415.892	1	11
416.233	1	3
416.575	1	2
416.916	1	12
417.257	1	13
417.599	1	17
417.940	1	-2
418.281	1	13
418.623	1	19
418.964	1	24
419.305	1	22
419.647	1	7
419.988	1	20
420.329	1	14
420.671	1	16
421.012	1	9
421.353	1	22
421.695	1	30
422.036	1	13
422.377	1	15
422.718	1	13
423.060	1	17
423.401	1	10
423.742	1	20
424.084	1	5
424.425	1	20
424.766	1	6
425.107	1	14
425.449	1	7
425.790	1	12
426.131	1	7
426.472	1	11
426.814	1	9
427.155	1	7
427.496	1	17
427.837	1	15
428.179	1	18
428.520	1	12
428.861	1	7
429.202	1	1
429.544	1	2
429.885	1	15
430.226	1	-6
430.567	1	-2
430.909	1	7
431.250	1	14
431.591	1	12
431.932	1	15
432.273	1	22
432.615	1	9
432.956	1	10
433.297	1	21
433.638	1	14
433.979	1	11
434.320	1	18
434.662	1	15
435.003	1	12
435.344	1	7
435.685	1	3
436.026	1	12
436.368	1	-7
436.709	1	8
437.050	1	12
437.391	1	13
437.732	1	13
438.073	1	6
438.414	1	25
438.756	1	9
439.097	1	15
439.438	1	5
439.779	1	9
440.120	1	4
440.461	1	13
440.802	1	11
441.143	1	10
441.485	1	4
441.826	1	10
442.167	1	10
442.508	1	10
442.849	1	11
443.190	1	6
443.531	1	14
443.872	1	-4
444.213	1	1
444.554	1	17
444.895	1	1
445.237	1	14
445.578	1	11
445.919	1	9
446.260	1	20
446.601	1	6
446.942	1	3
447.283	1	16
447.624	1	-1
447.965	1	1
448.306	1	7
448.647	1	7
448.988	1	6
449.329	1	15
449.670	1	6
450.011	1	5
450.352	1	5
450.693	1	8
451.034	1	0
451.375	1	9
451.716	1	6
452.057	1	17
452.398	1	9
452.739	1	8
453.080	1	17
453.421	1	20
453.762	1	16
454.103	1	3
454.444	1	4
454.785	1	11
455.126	1	9
455.467	1	6
455.808	1	15
456.149	1	6
456.490	1	-1
456.831	1	5
457.172	1	10
457.513	1	5
457.854	1	9
458.195	1	1
458.536	1	15
458.877	1	2
459.218	1	5
459.559	1	5
459.899	1	-1
460.240	1	2
460.581	1	-4
460.922	1	11
461.263	1	8
461.604	1	6
461.945	1	6
462.286	1	4
462.627	1	2
462.968	1	9
463.309	1	8
463.649	1	-4
463.990	1	3
464.331	1	15
464.672	1	8
465.013	1	18
465.354	1	7
465.695	1	8
466.036	1	10
466.376	1	13
466.717	1	-1
467.058	1	4
467.399	1	-2
467.740	1	12
468.081	1	10
468.422	1	12
468.762	1	4
469.103	1	1
469.444	1	7
469.785	1	10
470.126	1	9
470.467	1	7
470.807	1	15
471.148	1	-1
471.489	1	12
471.830	1	-2
472.171	1	10
472.511	1	10
472.852	1	4
473.193	1	8
473.534	1	1
473.875	1	10
474.215	1	10
474.556	1	9
474.897	1	2
475.238	1	10
475.578	1	4
475.919	1	4
476.260	1	14
476.601	1	5
476.942	1	-3
477.282	1	-3
477.623	1	1
477.964	1	12
478.305	1	8
478.645	1	10
478.986	1	5
479.327	1	11
479.667	1	8
480.008	1	14
480.349	1	8
480.690	1	6
481.030	1	4
481.371	1	-6
481.712	1	11
482.053	1	20
482.393	1	1
482.734	1	12
483.075	1	11
483.415	1	9
483.756	1	9
484.097	1	14
484.437	1	12
484.778	1	1
485.119	1	2
485.459	1	-2
485.800	1	4
486.141	1	15
486.481	1	0
486.822	1	11
487.163	1	7
487.503	1	6
487.844	1	-4
488.185	1	14
488.525	1	-8
488.866	1	6
489.207	1	13
489.547	1	6
489.888	1	5
490.228	1	7
490.569	1	2
490.910	1	11
491.250	1	12
491.591	1	2
491.932	1	13
492.272	1	0
492.613	1	2
492.953	1	3
493.294	1	-3
493.635	1	12
493.975	1	18
494.316	1	5
494.656	1	10
494.997	1	-3
495.337	1	15
495.678	1	3
496.019	1	4
496.359	1	14
496.700	1	12
497.040	1	4
497.381	1	9
497.721	1	3
498.062	1	5
498.403	1	16
498.743	1	11
499.084	1	7
499.424	1	4
499.765	1	12
500.105	1	14
500.446	1	5
500.786	1	-3
501.127	1	11
501.467	1	11
501.808	1	14
502.148	1	10
502.489	1	3
502.829	1	0
503.170	1	15
503.510	1	7
503.851	1	9
504.191	1	5
504.532	1	25
504.872	1	6
505.213	1	6
505.553	1	9
505.894	1	6
506.234	1	13
506.575	1	22
506.915	1	15
507.256	1	13
507.596	1	13
507.936	1	25
508.277	1	19
508.617	1	14
508.958	1	12
509.298	1	7
509.639	1	10
509.979	1	11
510.319	1	20
510.660	1	16
511.000	1	7
511.341	1	13
511.681	1	19
512.022	1	4
512.362	1	21
512.702	1	7
513.043	1	9
513.383	1	10
513.724	1	15
514.064	1	11
514.404	1	19
514.745	1	11
515.085	1	22
515.425	1	19
515.766	1	14
516.106	1	12
516.447	1	19
516.787	1	15
517.127	1	16
517.468	1	21
517.808	1	4
518.148	1	23
518.489	1	14
518.829	1	21
519.169	1	9
519.510	1	11
519.850	1	13
520.190	1	15
520.531	1	15
520.871	1	16
521.211	1	13
521.552	1	11
521.892	1	5
522.232	1	10
522.573	1	22
522.913	1	25
523.253	1	18
523.593	1	19
523.934	1	22
524.274	1	14
524.614	1	18
524.955	1	14
525.295	1	15
525.635	1	24
525.975	1	16
526.316	1	-1
526.656	1	14
526.996	1	6
527.337	1	21
527.677	1	23
528.017	1	11
528.357	1	14
528.698	1	11
529.038	1	20
529.378	1	18
529.718	1	15
530.058	1	12
530.399	1	13
530.739	1	19
531.079	1	10
531.419	1	20
531.760	1	22
532.100	1	30
532.440	1	16
532.780	1	22
533.120	1	12
533.461	1	13
533.801	1	16
534.141	1	7
534.481	1	24
534.821	1	19
535.162	1	15
535.502	1	13
535.842	1	4
536.182	1	22
536.522	1	13
536.862	1	17
537.203	1	13
537.543	1	16
537.883	1	9
538.223	1	22
538.563	1	11
538.903	1	9
539.243	1	29
539.584	1	20
539.924	1	3
540.264	1	19
540.604	1	25
540.944	1	14
541.284	1	21
541.624	1	10
541.964	1	10
542.305	1	24
542.645	1	10
542.985	1	14
543.325	1	19
543.665	1	11
544.005	1	16
544.345	1	12
544.685	1	18
545.025	1	15
545.365	1	20
545.705	1	11
546.045	1	14
546.386	1	9
546.726	1	19
547.066	1	11
547.406	1	9
547.746	1	3
548.086	1	8
548.426	1	17
548.766	1	15
549.106	1	21
549.446	1	25
549.786	1	20
550.126	1	16
550.466	1	19
550.806	1	28
551.146	1	15
551.486	1	8
551.826	1	10
552.166	1	8
552.506	1	13
552.846	1	13
553.186	1	2
553.526	1	5
553.866	1	7
554.206	1	11
554.546	1	19
554.886	1	11
555.226	1	12
555.566	1	15
555.906	1	9
556.246	1	8
556.586	1	7
556.926	1	7
557.266	1	13
557.606	1	6
557.946	1	15
558.286	1	5
558.626	1	19
558.966	1	8
559.306	1	17
559.646	1	15
559.986	1	18
560.325	1	5
560.665	1	9
561.005	1	2
561.345	1	5
561.685	1	9
562.025	1	15
562.365	1	16
562.705	1	21
563.045	1	15
563.385	1	19
563.725	1	8
564.064	1	12
564.404	1	-2
564.744	1	19
565.084	1	14
565.424	1	5
565.764	1	12
566.104	1	13
566.444	1	16
566.783	1	16
567.123	1	18
567.463	1	18
567.803	1	11
568.143	1	13
568.483	1	14
568.823	1	5
569.162	1	-1
569.502	1	9
569.842	1	13
570.182	1	11
570.522	1	16
570.862	1	0
571.201	1	15
571.541	1	9
571.881	1	12
572.221	1	11
572.561	1	4
572.900	1	13
573.240	1	6
573.580	1	17
573.920	1	21
574.260	1	13
574.599	1	11
574.939	1	9
575.279	1	8
575.619	1	2
575.959	1	7
576.298	1	2
576.638	1	16
576.978	1	10
577.318	1	6
577.657	1	0
577.997	1	14
578.337	1	6
578.677	1	5
579.016	1	12
579.356	1	13
579.696	1	5
580.036	1	12
580.375	1	5
580.715	1	13
581.055	1	7
581.394	1	7
581.734	1	7
582.074	1	6
582.414	1	5
582.753	1	7
583.093	1	11
583.433	1	8
583.772	1	19
584.112	1	9
584.452	1	9
584.791	1	19
585.131	1	15
585.471	1	8
585.811	1	4
586.150	1	-1
586.490	1	2
586.830	1	6
587.169	1	-3
587.509	1	12
587.849	1	11
588.188	1	15
588.528	1	0
588.867	1	14
589.207	1	1
589.547	1	10
589.886	1	10
590.226	1	5
590.566	1	10
590.905	1	6
591.245	1	-3
591.585	1	0
591.924	1	-10
592.264	1	12
592.603	1	-9
592.943	1	6
593.283	1	9
593.622	1	-2
593.962	1	8
594.301	1	-4
594.641	1	0
594.981	1	4
595.320	1	15
595.660	1	12
595.999	1	15
596.339	1	8
596.678	1	-4
597.018	1	0
597.358	1	8
597.697	1	-3
598.037	1	-9
598.376	1	-8
598.716	1	9
599.055	1	9
599.395	1	3
599.734	1	5
600.074	1	-5
600.413	1	1
600.753	1	11
601.092	1	6
601.432	1	-6
601.771	1	1
602.111	1	5
602.451	1	5
602.790	1	9
603.130	1	8
603.469	1	-2
603.809	1	6
604.148	1	-7
604.487	1	14
604.827	1	3
605.166	1	6
605.506	1	1
605.845	1	1
606.185	1	-1
606.524	1	3
606.864	1	16
607.203	1	9
607.543	1	11
607.882	1	13
608.222	1	7
608.561	1	4
608.901	1	9
609.240	1	14
609.579	1	-6
609.919	1	-3
610.258	1	14
610.598	1	6
610.937	1	4
611.277	1	9
611.616	1	16
611.955	1	1
612.295	1	14
612.634	1	6
612.974	1	4
613.313	1	10
613.652	1	21
613.992	1	-1
614.331	1	15
614.671	1	-6
615.010	1	8
615.349	1	11
615.689	1	-1
616.028	1	16
616.368	1	11
616.707	1	12
617.046	1	-2
617.386	1	10
617.725	1	4
618.064	1	1
618.404	1	9
618.743	1	14
619.082	1	14
619.422	1	19
619.761	1	5
620.100	1	4
620.440	1	12
620.779	1	11
621.118	1	16
621.458	1	13
621.797	1	9
622.136	1	0
622.476	1	13
622.815	1	10
623.154	1	-4
623.494	1	1
623.833	1	3
624.172	1	8
624.511	1	1
624.851	1	5
625.190	1	0
625.529	1	3
625.869	1	10
626.208	1	-1
626.547	1	3
626.886	1	0
627.226	1	1
627.565	1	10
627.904	1	1
628.243	1	9
628.583	1	12
628.922	1	6
629.261	1	4
629.600	1	3
629.940	1	0
630.279	1	6
630.618	1	7
630.957	1	4
631.297	1	6
631.636	1	3
631.975	1	7
632.314	1	9
632.653	1	4
632.993	1	2
633.332	1	8
633.671	1	15
634.010	1	1
634.349	1	8
634.689	1	-1
635.028	1	-5
635.367	1	14
635.706	1	-1
636.045	1	-4
636.384	1	17
636.724	1	2
637.063	1	0
637.402	1	0
637.741	1	1
638.080	1	2
638.419	1	4
638.759	1	3
639.098	1	7
639.437	1	5
639.776	1	5
640.115	1	-6
640.454	1	-3
640.793	1	11
641.132	1	5
641.472	1	9
641.811	1	-2
642.150	1	0
642.489	1	14
642.828	1	22
643.167	1	4
643.506	1	2
643.845	1	5
644.184	1	9
644.524	1	7
644.863	1	4
645.202	1	6
645.541	1	6
645.880	1	11
646.219	1	8
646.558	1	-5
646.897	1	-3
647.236	1	-8
647.575	1	9
647.914	1	5
648.253	1	8
648.592	1	2
648.931	1	2
649.270	1	5
649.610	1	14
649.949	1	4
650.288	1	10
650.627	1	5
650.966	1	4
651.305	1	9
651.644	1	7
651.983	1	1
652.322	1	4
652.661	1	9
653.000	1	4
653.339	1	-1
653.678	1	12
654.017	1	16
654.356	1	8
654.695	1	16
655.034	1	4
655.373	1	-4
655.712	1	4
656.051	1	-5
656.390	1	4
656.729	1	11
657.068	1	4
657.406	1	-1
657.745	1	15
658.084	1	5
658.423	1	16
658.762	1	4
659.101	1	0
659.440	1	13
659.779	1	10
660.118	1	4
660.457	1	6
660.796	1	5
661.135	1	3
661.474	1	3
661.813	1	6
662.152	1	7
662.491	1	-8
662.829	1	7
663.168	1	7
663.507	1	2
663.846	1	-3
664.185	1	7
664.524	1	4
664.863	1	-4
665.202	1	11
665.541	1	7
665.879	1	-1
666.218	1	5
666.557	1	-3
666.896	1	15
667.235	1	-3
667.574	1	-4
667.913	1	6
668.251	1	-2
668.590	1	-2
668.929	1	4
669.268	1	-7
669.607	1	-4
669.946	1	-1
670.285	1	7
670.623	1	6
670.962	1	1
671.301	1	6
671.640	1	13
671.979	1	0
672.317	1	10
672.656	1	5
672.995	1	4
673.334	1	2
673.673	1	6
674.011	1	16
674.350	1	5
674.689	1	7
675.028	1	7
675.367	1	10
675.705	1	5
676.044	1	-1
676.383	1	1
676.722	1	0
677.060	1	5
677.399	1	16
677.738	1	7
678.077	1	5
678.416	1	1
678.754	1	5
679.093	1	14
679.432	1	0
679.771	1	-2
680.109	1	9
680.448	1	1
680.787	1	-8
681.125	1	-3
681.464	1	16
681.803	1	0
682.142	1	-2
682.480	1	1
682.819	1	0
683.158	1	1
683.496	1	-2
683.835	1	9
684.174	1	-2
684.512	1	2
684.851	1	5
685.190	1	13
685.529	1	-1
685.867	1	-3
686.206	1	0
686.545	1	2
686.883	1	15
687.222	1	5
687.561	1	1
687.899	1	4
688.238	1	11
688.577	1	8
688.746	1	1