File: Data/GaN_150K_450ms/GaN_sample D_spot15_UVVIS_150 K_200um_450 ms 2x2mm1_165.txt
340.368	1	4
340.710	1	1
341.052	1	2
341.394	1	-6
341.737	1	19
342.079	1	-2
342.421	1	3
342.763	1	7
343.105	1	9
343.447	1	11
343.789	1	7
344.131	1	-2
344.473	1	1
344.815	1	11
345.157	1	12
345.499	1	0
345.841	1	3
346.183	1	6
346.526	1	10
346.868	1	-11
347.210	1	-13
347.552	1	16
347.894	1	-2
348.236	1	11
348.578	1	0
348.920	1	5
349.262	1	7
349.604	1	8
349.946	1	-2
350.288	1	-6
350.630	1	2
350.972	1	12
351.314	1	-2
351.656	1	8
351.998	1	1
352.340	1	3
352.682	1	-8
353.024	1	9
353.366	1	7
353.708	1	7
354.050	1	-2
354.392	1	1
354.734	1	2
355.076	1	18
355.418	1	1
355.760	1	12
356.102	1	-5
356.444	1	8
356.785	1	8
357.127	1	13
357.469	1	6
357.811	1	10
358.153	1	-11
358.495	1	7
358.837	1	12
359.179	1	9
359.521	1	11
359.863	1	-1
360.205	1	14
360.547	1	14
360.889	1	7
361.231	1	15
361.572	1	10
361.914	1	10
362.256	1	22
362.598	1	18
362.940	1	13
363.282	1	18
363.624	1	20
363.966	1	14
364.308	1	29
364.649	1	15
364.991	1	22
365.333	1	23
365.675	1	27
366.017	1	22
366.359	1	23
366.701	1	29
367.042	1	37
367.384	1	34
367.726	1	36
368.068	1	45
368.410	1	38
368.752	1	45
369.093	1	36
369.435	1	34
369.777	1	40
370.119	1	37
370.461	1	33
370.803	1	29
371.144	1	29
371.486	1	29
371.828	1	33
372.170	1	24
372.512	1	17
372.853	1	35
373.195	1	28
373.537	1	12
373.879	1	27
374.220	1	17
374.562	1	19
374.904	1	15
375.246	1	19
375.588	1	14
375.929	1	13
376.271	1	14
376.613	1	26
376.955	1	16
377.296	1	19
377.638	1	7
377.980	1	8
378.321	1	15
378.663	1	13
379.005	1	8
379.347	1	7
379.688	1	10
380.030	1	18
380.372	1	14
380.714	1	9
381.055	1	8
381.397	1	11
381.739	1	0
382.080	1	4
382.422	1	13
382.764	1	15
383.105	1	12
383.447	1	0
383.789	1	-3
384.130	1	9
384.472	1	-5
384.814	1	8
385.156	1	3
385.497	1	16
385.839	1	9
386.180	1	6
386.522	1	11
386.864	1	4
387.205	1	11
387.547	1	12
387.889	1	2
388.230	1	7
388.572	1	10
388.914	1	12
389.255	1	9
389.597	1	9
389.939	1	17
390.280	1	4
390.622	1	2
390.963	1	5
391.305	1	7
391.647	1	-3
391.988	1	3
392.330	1	1
392.671	1	8
393.013	1	18
393.355	1	14
393.696	1	3
394.038	1	8
394.379	1	11
394.721	1	1
395.062	1	-8
395.404	1	2
395.746	1	-5
396.087	1	10
396.429	1	12
396.770	1	11
397.112	1	-2
397.453	1	3
397.795	1	3
398.136	1	5
398.478	1	3
398.819	1	7
399.161	1	8
399.503	1	25
399.844	1	3
400.186	1	3
400.527	1	8
400.869	1	1
401.210	1	4
401.552	1	10
401.893	1	11
402.235	1	3
402.576	1	9
402.918	1	1
403.259	1	7
403.601	1	10
403.942	1	13
404.284	1	10
404.625	1	3
404.967	1	1
405.308	1	-9
405.649	1	9
405.991	1	1
406.332	1	1
406.674	1	8
407.015	1	6
407.357	1	12
407.698	1	10
408.040	1	18
408.381	1	-6
408.722	1	9
409.064	1	11
409.405	1	11
409.747	1	7
410.088	1	19
410.430	1	13
410.771	1	11
411.112	1	7
411.454	1	9
411.795	1	12
412.137	1	7
412.478	1	10
412.819	1	10
413.161	1	10
413.502	1	13
413.844	1	12
414.185	1	9
414.526	1	3
414.868	1	5
415.209	1	2
415.550	1	1
415.892	1	18
416.233	1	-2
416.575	1	5
416.916	1	4
417.257	1	4
417.599	1	14
417.940	1	0
418.281	1	13
418.623	1	8
418.964	1	22
419.305	1	8
419.647	1	0
419.988	1	20
420.329	1	11
420.671	1	11
421.012	1	10
421.353	1	22
421.695	1	16
422.036	1	18
422.377	1	4
422.718	1	9
423.060	1	17
423.401	1	-2
423.742	1	19
424.084	1	4
424.425	1	8
424.766	1	9
425.107	1	11
425.449	1	6
425.790	1	10
426.131	1	10
426.472	1	22
426.814	1	14
427.155	1	11
427.496	1	8
427.837	1	7
428.179	1	19
428.520	1	4
428.861	1	14
429.202	1	7
429.544	1	12
429.885	1	11
430.226	1	-2
430.567	1	4
430.909	1	10
431.250	1	4
431.591	1	13
431.932	1	5
432.273	1	2
432.615	1	3
432.956	1	4
433.297	1	8
433.638	1	14
433.979	1	9
434.320	1	12
434.662	1	20
435.003	1	15
435.344	1	6
435.685	1	9
436.026	1	8
436.368	1	0
436.709	1	-10
437.050	1	-3
437.391	1	12
437.732	1	15
438.073	1	5
438.414	1	12
438.756	1	4
439.097	1	15
439.438	1	7
439.779	1	-7
440.120	1	3
440.461	1	9
440.802	1	11
441.143	1	15
441.485	1	10
441.826	1	8
442.167	1	9
442.508	1	8
442.849	1	12
443.190	1	19
443.531	1	10
443.872	1	-1
444.213	1	0
444.554	1	12
444.895	1	3
445.237	1	9
445.578	1	-6
445.919	1	7
446.260	1	19
446.601	1	9
446.942	1	-2
447.283	1	18
447.624	1	-4
447.965	1	4
448.306	1	9
448.647	1	3
448.988	1	12
449.329	1	11
449.670	1	12
450.011	1	1
450.352	1	-1
450.693	1	10
451.034	1	1
451.375	1	5
451.716	1	6
452.057	1	3
452.398	1	14
452.739	1	9
453.080	1	6
453.421	1	19
453.762	1	10
454.103	1	4
454.444	1	3
454.785	1	15
455.126	1	4
455.467	1	5
455.808	1	15
456.149	1	2
456.490	1	-1
456.831	1	-9
457.172	1	12
457.513	1	7
457.854	1	-5
458.195	1	2
458.536	1	8
458.877	1	8
459.218	1	13
459.559	1	9
459.899	1	5
460.240	1	3
460.581	1	5
460.922	1	14
461.263	1	14
461.604	1	5
461.945	1	11
462.286	1	0
462.627	1	11
462.968	1	-3
463.309	1	8
463.649	1	10
463.990	1	11
464.331	1	4
464.672	1	1
465.013	1	0
465.354	1	7
465.695	1	8
466.036	1	12
466.376	1	13
466.717	1	-12
467.058	1	10
467.399	1	-2
467.740	1	17
468.081	1	4
468.422	1	2
468.762	1	8
469.103	1	3
469.444	1	9
469.785	1	1
470.126	1	5
470.467	1	2
470.807	1	1
471.148	1	-10
471.489	1	4
471.830	1	5
472.171	1	1
472.511	1	11
472.852	1	14
473.193	1	12
473.534	1	6
473.875	1	9
474.215	1	4
474.556	1	-2
474.897	1	2
475.238	1	5
475.578	1	-1
475.919	1	2
476.260	1	1
476.601	1	7
476.942	1	-2
477.282	1	-5
477.623	1	9
477.964	1	13
478.305	1	7
478.645	1	14
478.986	1	5
479.327	1	8
479.667	1	2
480.008	1	7
480.349	1	2
480.690	1	2
481.030	1	0
481.371	1	-2
481.712	1	16
482.053	1	14
482.393	1	4
482.734	1	9
483.075	1	0
483.415	1	5
483.756	1	7
484.097	1	14
484.437	1	12
484.778	1	3
485.119	1	10
485.459	1	-5
485.800	1	2
486.141	1	6
486.481	1	1
486.822	1	10
487.163	1	-1
487.503	1	5
487.844	1	7
488.185	1	11
488.525	1	8
488.866	1	5
489.207	1	10
489.547	1	4
489.888	1	5
490.228	1	-6
490.569	1	3
490.910	1	1
491.250	1	10
491.591	1	9
491.932	1	10
492.272	1	-5
492.613	1	-1
492.953	1	9
493.294	1	-11
493.635	1	8
493.975	1	4
494.316	1	-2
494.656	1	18
494.997	1	-7
495.337	1	6
495.678	1	0
496.019	1	0
496.359	1	13
496.700	1	14
497.040	1	-1
497.381	1	1
497.721	1	-8
498.062	1	2
498.403	1	10
498.743	1	5
499.084	1	13
499.424	1	2
499.765	1	12
500.105	1	15
500.446	1	-6
500.786	1	1
501.127	1	5
501.467	1	11
501.808	1	6
502.148	1	-2
502.489	1	9
502.829	1	-5
503.170	1	8
503.510	1	3
503.851	1	10
504.191	1	4
504.532	1	16
504.872	1	4
505.213	1	1
505.553	1	9
505.894	1	9
506.234	1	13
506.575	1	15
506.915	1	11
507.256	1	10
507.596	1	2
507.936	1	11
508.277	1	14
508.617	1	7
508.958	1	12
509.298	1	2
509.639	1	2
509.979	1	6
510.319	1	13
510.660	1	6
511.000	1	2
511.341	1	10
511.681	1	13
512.022	1	3
512.362	1	10
512.702	1	1
513.043	1	4
513.383	1	6
513.724	1	8
514.064	1	18
514.404	1	14
514.745	1	6
515.085	1	8
515.425	1	15
515.766	1	5
516.106	1	-6
516.447	1	10
516.787	1	2
517.127	1	7
517.468	1	17
517.808	1	2
518.148	1	8
518.489	1	5
518.829	1	7
519.169	1	-1
519.510	1	1
519.850	1	14
520.190	1	3
520.531	1	9
520.871	1	5
521.211	1	9
521.552	1	8
521.892	1	14
522.232	1	9
522.573	1	7
522.913	1	10
523.253	1	11
523.593	1	20
523.934	1	2
524.274	1	7
524.614	1	7
524.955	1	12
525.295	1	11
525.635	1	7
525.975	1	11
526.316	1	9
526.656	1	14
526.996	1	7
527.337	1	17
527.677	1	14
528.017	1	-1
528.357	1	11
528.698	1	14
529.038	1	16
529.378	1	12
529.718	1	1
530.058	1	17
530.399	1	8
530.739	1	10
531.079	1	6
531.419	1	15
531.760	1	19
532.100	1	20
532.440	1	18
532.780	1	11
533.120	1	-1
533.461	1	5
533.801	1	9
534.141	1	10
534.481	1	19
534.821	1	15
535.162	1	8
535.502	1	13
535.842	1	0
536.182	1	7
536.522	1	8
536.862	1	10
537.203	1	13
537.543	1	7
537.883	1	3
538.223	1	22
538.563	1	5
538.903	1	2
539.243	1	14
539.584	1	14
539.924	1	9
540.264	1	10
540.604	1	21
540.944	1	5
541.284	1	4
541.624	1	9
541.964	1	10
542.305	1	18
542.645	1	4
542.985	1	1
543.325	1	4
543.665	1	8
544.005	1	15
544.345	1	14
544.685	1	8
545.025	1	13
545.365	1	26
545.705	1	6
546.045	1	6
546.386	1	5
546.726	1	7
547.066	1	10
547.406	1	-3
547.746	1	-2
548.086	1	11
548.426	1	15
548.766	1	7
549.106	1	5
549.446	1	14
549.786	1	-2
550.126	1	13
550.466	1	8
550.806	1	18
551.146	1	12
551.486	1	5
551.826	1	5
552.166	1	5
552.506	1	-6
552.846	1	8
553.186	1	0
553.526	1	3
553.866	1	14
554.206	1	7
554.546	1	18
554.886	1	6
555.226	1	0
555.566	1	4
555.906	1	5
556.246	1	3
556.586	1	13
556.926	1	11
557.266	1	15
557.606	1	-5
557.946	1	13
558.286	1	1
558.626	1	-1
558.966	1	2
559.306	1	6
559.646	1	10
559.986	1	8
560.325	1	13
560.665	1	13
561.005	1	4
561.345	1	-2
561.685	1	2
562.025	1	6
562.365	1	0
562.705	1	13
563.045	1	12
563.385	1	6
563.725	1	-1
564.064	1	-2
564.404	1	5
564.744	1	17
565.084	1	10
565.424	1	5
565.764	1	9
566.104	1	10
566.444	1	18
566.783	1	-2
567.123	1	-2
567.463	1	8
567.803	1	8
568.143	1	8
568.483	1	18
568.823	1	7
569.162	1	0
569.502	1	13
569.842	1	4
570.182	1	-2
570.522	1	-2
570.862	1	-6
571.201	1	24
571.541	1	7
571.881	1	4
572.221	1	13
572.561	1	14
572.900	1	8
573.240	1	-6
573.580	1	11
573.920	1	12
574.260	1	14
574.599	1	9
574.939	1	4
575.279	1	10
575.619	1	-2
575.959	1	6
576.298	1	3
576.638	1	17
576.978	1	12
577.318	1	14
577.657	1	9
577.997	1	7
578.337	1	1
578.677	1	10
579.016	1	10
579.356	1	2
579.696	1	4
580.036	1	1
580.375	1	3
580.715	1	13
581.055	1	9
581.394	1	8
581.734	1	6
582.074	1	0
582.414	1	-3
582.753	1	10
583.093	1	3
583.433	1	9
583.772	1	12
584.112	1	-2
584.452	1	7
584.791	1	0
585.131	1	4
585.471	1	-1
585.811	1	7
586.150	1	3
586.490	1	10
586.830	1	3
587.169	1	-1
587.509	1	10
587.849	1	-1
588.188	1	8
588.528	1	-10
588.867	1	4
589.207	1	11
589.547	1	10
589.886	1	3
590.226	1	7
590.566	1	9
590.905	1	9
591.245	1	4
591.585	1	-1
591.924	1	0
592.264	1	1
592.603	1	-10
592.943	1	3
593.283	1	16
593.622	1	2
593.962	1	20
594.301	1	2
594.641	1	8
594.981	1	2
595.320	1	2
595.660	1	9
595.999	1	1
596.339	1	2
596.678	1	1
597.018	1	-2
597.358	1	6
597.697	1	-9
598.037	1	2
598.376	1	-4
598.716	1	-3
599.055	1	12
599.395	1	-1
599.734	1	3
600.074	1	10
600.413	1	3
600.753	1	4
601.092	1	-9
601.432	1	0
601.771	1	4
602.111	1	8
602.451	1	-2
602.790	1	5
603.130	1	7
603.469	1	4
603.809	1	1
604.148	1	3
604.487	1	-1
604.827	1	13
605.166	1	2
605.506	1	-6
605.845	1	10
606.185	1	0
606.524	1	11
606.864	1	11
607.203	1	18
607.543	1	1
607.882	1	11
608.222	1	4
608.561	1	1
608.901	1	2
609.240	1	11
609.579	1	-2
609.919	1	-5
610.258	1	12
610.598	1	-9
610.937	1	5
611.277	1	7
611.616	1	8
611.955	1	2
612.295	1	8
612.634	1	8
612.974	1	1
613.313	1	8
613.652	1	7
613.992	1	3
614.331	1	17
614.671	1	7
615.010	1	4
615.349	1	4
615.689	1	-4
616.028	1	10
616.368	1	5
616.707	1	12
617.046	1	2
617.386	1	2
617.725	1	-2
618.064	1	6
618.404	1	2
618.743	1	5
619.082	1	6
619.422	1	14
619.761	1	6
620.100	1	3
620.440	1	15
620.779	1	11
621.118	1	9
621.458	1	13
621.797	1	4
622.136	1	2
622.476	1	4
622.815	1	0
623.154	1	-6
623.494	1	-4
623.833	1	7
624.172	1	3
624.511	1	1
624.851	1	5
625.190	1	3
625.529	1	2
625.869	1	14
626.208	1	-3
626.547	1	3
626.886	1	1
627.226	1	8
627.565	1	5
627.904	1	3
628.243	1	13
628.583	1	6
628.922	1	12
629.261	1	-2
629.600	1	-2
629.940	1	11
630.279	1	2
630.618	1	11
630.957	1	9
631.297	1	2
631.636	1	1
631.975	1	-1
632.314	1	11
632.653	1	4
632.993	1	13
633.332	1	5
633.671	1	4
634.010	1	0
634.349	1	14
634.689	1	9
635.028	1	-3
635.367	1	12
635.706	1	-2
636.045	1	-7
636.384	1	7
636.724	1	6
637.063	1	2
637.402	1	7
637.741	1	-7
638.080	1	17
638.419	1	0
638.759	1	9
639.098	1	5
639.437	1	8
639.776	1	7
640.115	1	-1
640.454	1	4
640.793	1	7
641.132	1	6
641.472	1	11
641.811	1	0
642.150	1	-1
642.489	1	10
642.828	1	15
643.167	1	8
643.506	1	-2
643.845	1	14
644.184	1	17
644.524	1	9
644.863	1	2
645.202	1	0
645.541	1	-3
645.880	1	9
646.219	1	-4
646.558	1	5
646.897	1	-7
647.236	1	1
647.575	1	10
647.914	1	6
648.253	1	6
648.592	1	6
648.931	1	3
649.270	1	17
649.610	1	8
649.949	1	1
650.288	1	4
650.627	1	-2
650.966	1	8
651.305	1	2
651.644	1	10
651.983	1	-8
652.322	1	4
652.661	1	1
653.000	1	9
653.339	1	-1
653.678	1	6
654.017	1	10
654.356	1	6
654.695	1	22
655.034	1	-1
655.373	1	-2
655.712	1	0
656.051	1	1
656.390	1	1
656.729	1	5
657.068	1	3
657.406	1	3
657.745	1	5
658.084	1	13
658.423	1	6
658.762	1	3
659.101	1	0
659.440	1	4
659.779	1	6
660.118	1	-2
660.457	1	-3
660.796	1	7
661.135	1	2
661.474	1	8
661.813	1	5
662.152	1	-1
662.491	1	1
662.829	1	7
663.168	1	6
663.507	1	4
663.846	1	8
664.185	1	6
664.524	1	16
664.863	1	-8
665.202	1	9
665.541	1	1
665.879	1	2
666.218	1	9
666.557	1	3
666.896	1	8
667.235	1	1
667.574	1	-2
667.913	1	7
668.251	1	-11
668.590	1	9
668.929	1	4
669.268	1	-6
669.607	1	-4
669.946	1	2
670.285	1	4
670.623	1	2
670.962	1	-5
671.301	1	6
671.640	1	15
671.979	1	6
672.317	1	4
672.656	1	12
672.995	1	4
673.334	1	4
673.673	1	15
674.011	1	4
674.350	1	2
674.689	1	-6
675.028	1	3
675.367	1	5
675.705	1	5
676.044	1	3
676.383	1	12
676.722	1	2
677.060	1	5
677.399	1	11
677.738	1	-3
678.077	1	-5
678.416	1	4
678.754	1	2
679.093	1	11
679.432	1	-8
679.771	1	6
680.109	1	8
680.448	1	-5
680.787	1	-9
681.125	1	1
681.464	1	4
681.803	1	7
682.142	1	2
682.480	1	-7
682.819	1	8
683.158	1	7
683.496	1	-2
683.835	1	4
684.174	1	4
684.512	1	3
684.851	1	-6
685.190	1	2
685.529	1	1
685.867	1	4
686.206	1	-6
686.545	1	9
686.883	1	10
687.222	1	-1
687.561	1	-3
687.899	1	6
688.238	1	9
688.577	1	-1
688.746	1	-5