File: Data/GaN_150K_450ms/GaN_sample D_spot15_UVVIS_150 K_200um_450 ms 2x2mm1_191.txt
340.368	1	4
340.710	1	4
341.052	1	7
341.394	1	-11
341.737	1	5
342.079	1	8
342.421	1	5
342.763	1	0
343.105	1	6
343.447	1	4
343.789	1	8
344.131	1	-17
344.473	1	-6
344.815	1	4
345.157	1	2
345.499	1	5
345.841	1	3
346.183	1	3
346.526	1	6
346.868	1	3
347.210	1	1
347.552	1	20
347.894	1	-4
348.236	1	3
348.578	1	0
348.920	1	11
349.262	1	10
349.604	1	5
349.946	1	1
350.288	1	0
350.630	1	-3
350.972	1	5
351.314	1	0
351.656	1	12
351.998	1	-1
352.340	1	10
352.682	1	-7
353.024	1	14
353.366	1	11
353.708	1	6
354.050	1	-3
354.392	1	-1
354.734	1	9
355.076	1	12
355.418	1	3
355.760	1	15
356.102	1	9
356.444	1	9
356.785	1	8
357.127	1	11
357.469	1	7
357.811	1	11
358.153	1	-4
358.495	1	1
358.837	1	10
359.179	1	6
359.521	1	15
359.863	1	0
360.205	1	17
360.547	1	18
360.889	1	3
361.231	1	24
361.572	1	17
361.914	1	12
362.256	1	17
362.598	1	16
362.940	1	8
363.282	1	4
363.624	1	10
363.966	1	14
364.308	1	13
364.649	1	13
364.991	1	21
365.333	1	9
365.675	1	17
366.017	1	13
366.359	1	14
366.701	1	19
367.042	1	27
367.384	1	15
367.726	1	25
368.068	1	35
368.410	1	24
368.752	1	31
369.093	1	17
369.435	1	31
369.777	1	30
370.119	1	26
370.461	1	20
370.803	1	14
371.144	1	18
371.486	1	27
371.828	1	14
372.170	1	22
372.512	1	13
372.853	1	23
373.195	1	8
373.537	1	10
373.879	1	12
374.220	1	13
374.562	1	18
374.904	1	15
375.246	1	15
375.588	1	13
375.929	1	16
376.271	1	4
376.613	1	12
376.955	1	4
377.296	1	13
377.638	1	5
377.980	1	3
378.321	1	15
378.663	1	12
379.005	1	8
379.347	1	21
379.688	1	20
380.030	1	14
380.372	1	3
380.714	1	7
381.055	1	-2
381.397	1	-2
381.739	1	0
382.080	1	12
382.422	1	9
382.764	1	12
383.105	1	2
383.447	1	4
383.789	1	-5
384.130	1	3
384.472	1	17
384.814	1	11
385.156	1	2
385.497	1	17
385.839	1	8
386.180	1	3
386.522	1	8
386.864	1	-5
387.205	1	10
387.547	1	0
387.889	1	6
388.230	1	5
388.572	1	4
388.914	1	12
389.255	1	12
389.597	1	-4
389.939	1	11
390.280	1	1
390.622	1	0
390.963	1	-6
391.305	1	-1
391.647	1	8
391.988	1	8
392.330	1	3
392.671	1	4
393.013	1	4
393.355	1	12
393.696	1	13
394.038	1	5
394.379	1	3
394.721	1	1
395.062	1	-6
395.404	1	12
395.746	1	-7
396.087	1	2
396.429	1	14
396.770	1	3
397.112	1	0
397.453	1	1
397.795	1	7
398.136	1	7
398.478	1	9
398.819	1	11
399.161	1	12
399.503	1	19
399.844	1	5
400.186	1	3
400.527	1	11
400.869	1	1
401.210	1	8
401.552	1	-1
401.893	1	2
402.235	1	16
402.576	1	6
402.918	1	-9
403.259	1	3
403.601	1	10
403.942	1	0
404.284	1	8
404.625	1	2
404.967	1	10
405.308	1	-7
405.649	1	9
405.991	1	6
406.332	1	9
406.674	1	9
407.015	1	9
407.357	1	12
407.698	1	16
408.040	1	17
408.381	1	5
408.722	1	14
409.064	1	5
409.405	1	-4
409.747	1	10
410.088	1	7
410.430	1	18
410.771	1	6
411.112	1	6
411.454	1	4
411.795	1	5
412.137	1	6
412.478	1	11
412.819	1	10
413.161	1	9
413.502	1	6
413.844	1	10
414.185	1	8
414.526	1	-3
414.868	1	-3
415.209	1	1
415.550	1	6
415.892	1	10
416.233	1	6
416.575	1	-3
416.916	1	-3
417.257	1	6
417.599	1	12
417.940	1	-1
418.281	1	11
418.623	1	2
418.964	1	14
419.305	1	6
419.647	1	5
419.988	1	15
420.329	1	6
420.671	1	20
421.012	1	-2
421.353	1	16
421.695	1	12
422.036	1	13
422.377	1	3
422.718	1	12
423.060	1	14
423.401	1	4
423.742	1	6
424.084	1	6
424.425	1	16
424.766	1	9
425.107	1	5
425.449	1	-4
425.790	1	7
426.131	1	3
426.472	1	3
426.814	1	8
427.155	1	12
427.496	1	10
427.837	1	4
428.179	1	17
428.520	1	16
428.861	1	18
429.202	1	1
429.544	1	1
429.885	1	7
430.226	1	-15
430.567	1	-7
430.909	1	-4
431.250	1	13
431.591	1	8
431.932	1	6
432.273	1	11
432.615	1	-3
432.956	1	5
433.297	1	-3
433.638	1	8
433.979	1	8
434.320	1	3
434.662	1	16
435.003	1	12
435.344	1	-10
435.685	1	6
436.026	1	5
436.368	1	3
436.709	1	7
437.050	1	-4
437.391	1	9
437.732	1	8
438.073	1	13
438.414	1	4
438.756	1	3
439.097	1	6
439.438	1	6
439.779	1	5
440.120	1	0
440.461	1	6
440.802	1	3
441.143	1	14
441.485	1	1
441.826	1	6
442.167	1	6
442.508	1	6
442.849	1	1
443.190	1	4
443.531	1	10
443.872	1	-9
444.213	1	-1
444.554	1	5
444.895	1	5
445.237	1	11
445.578	1	2
445.919	1	-10
446.260	1	16
446.601	1	17
446.942	1	3
447.283	1	14
447.624	1	-8
447.965	1	0
448.306	1	4
448.647	1	1
448.988	1	7
449.329	1	11
449.670	1	6
450.011	1	6
450.352	1	7
450.693	1	6
451.034	1	8
451.375	1	-2
451.716	1	-2
452.057	1	6
452.398	1	5
452.739	1	0
453.080	1	12
453.421	1	15
453.762	1	12
454.103	1	5
454.444	1	3
454.785	1	6
455.126	1	6
455.467	1	3
455.808	1	15
456.149	1	-8
456.490	1	-4
456.831	1	3
457.172	1	8
457.513	1	7
457.854	1	6
458.195	1	1
458.536	1	6
458.877	1	15
459.218	1	9
459.559	1	5
459.899	1	-5
460.240	1	-1
460.581	1	-4
460.922	1	1
461.263	1	11
461.604	1	2
461.945	1	11
462.286	1	-2
462.627	1	6
462.968	1	7
463.309	1	11
463.649	1	-2
463.990	1	3
464.331	1	13
464.672	1	4
465.013	1	4
465.354	1	14
465.695	1	1
466.036	1	9
466.376	1	9
466.717	1	-9
467.058	1	5
467.399	1	7
467.740	1	18
468.081	1	2
468.422	1	4
468.762	1	8
469.103	1	3
469.444	1	0
469.785	1	-8
470.126	1	4
470.467	1	-8
470.807	1	-3
471.148	1	5
471.489	1	7
471.830	1	9
472.171	1	14
472.511	1	15
472.852	1	14
473.193	1	4
473.534	1	7
473.875	1	3
474.215	1	2
474.556	1	0
474.897	1	-6
475.238	1	-2
475.578	1	-11
475.919	1	-1
476.260	1	1
476.601	1	5
476.942	1	3
477.282	1	2
477.623	1	2
477.964	1	11
478.305	1	6
478.645	1	7
478.986	1	0
479.327	1	4
479.667	1	1
480.008	1	7
480.349	1	5
480.690	1	14
481.030	1	2
481.371	1	-5
481.712	1	12
482.053	1	5
482.393	1	9
482.734	1	9
483.075	1	9
483.415	1	4
483.756	1	14
484.097	1	2
484.437	1	3
484.778	1	-2
485.119	1	-3
485.459	1	-1
485.800	1	2
486.141	1	6
486.481	1	-4
486.822	1	6
487.163	1	7
487.503	1	2
487.844	1	-7
488.185	1	10
488.525	1	-6
488.866	1	-6
489.207	1	10
489.547	1	7
489.888	1	6
490.228	1	6
490.569	1	-1
490.910	1	5
491.250	1	8
491.591	1	-1
491.932	1	11
492.272	1	-9
492.613	1	2
492.953	1	3
493.294	1	-6
493.635	1	4
493.975	1	11
494.316	1	3
494.656	1	5
494.997	1	-9
495.337	1	-5
495.678	1	-2
496.019	1	4
496.359	1	5
496.700	1	14
497.040	1	11
497.381	1	6
497.721	1	-2
498.062	1	5
498.403	1	6
498.743	1	4
499.084	1	10
499.424	1	-4
499.765	1	8
500.105	1	2
500.446	1	8
500.786	1	3
501.127	1	11
501.467	1	10
501.808	1	4
502.148	1	-2
502.489	1	7
502.829	1	0
503.170	1	10
503.510	1	7
503.851	1	15
504.191	1	8
504.532	1	16
504.872	1	1
505.213	1	0
505.553	1	4
505.894	1	11
506.234	1	12
506.575	1	13
506.915	1	5
507.256	1	18
507.596	1	14
507.936	1	13
508.277	1	8
508.617	1	12
508.958	1	9
509.298	1	0
509.639	1	-1
509.979	1	9
510.319	1	8
510.660	1	-3
511.000	1	0
511.341	1	25
511.681	1	11
512.022	1	-7
512.362	1	9
512.702	1	2
513.043	1	2
513.383	1	8
513.724	1	10
514.064	1	6
514.404	1	10
514.745	1	-1
515.085	1	6
515.425	1	7
515.766	1	3
516.106	1	0
516.447	1	18
516.787	1	-3
517.127	1	13
517.468	1	15
517.808	1	-2
518.148	1	14
518.489	1	5
518.829	1	18
519.169	1	6
519.510	1	3
519.850	1	7
520.190	1	-2
520.531	1	6
520.871	1	10
521.211	1	5
521.552	1	-1
521.892	1	7
522.232	1	4
522.573	1	-2
522.913	1	14
523.253	1	7
523.593	1	12
523.934	1	13
524.274	1	9
524.614	1	8
524.955	1	5
525.295	1	11
525.635	1	14
525.975	1	0
526.316	1	-6
526.656	1	18
526.996	1	2
527.337	1	5
527.677	1	16
528.017	1	-1
528.357	1	7
528.698	1	11
529.038	1	11
529.378	1	-2
529.718	1	2
530.058	1	8
530.399	1	9
530.739	1	4
531.079	1	3
531.419	1	4
531.760	1	14
532.100	1	19
532.440	1	10
532.780	1	9
533.120	1	4
533.461	1	1
533.801	1	6
534.141	1	4
534.481	1	21
534.821	1	4
535.162	1	9
535.502	1	6
535.842	1	-2
536.182	1	5
536.522	1	3
536.862	1	-5
537.203	1	-1
537.543	1	11
537.883	1	0
538.223	1	15
538.563	1	4
538.903	1	6
539.243	1	3
539.584	1	9
539.924	1	3
540.264	1	17
540.604	1	9
540.944	1	4
541.284	1	13
541.624	1	4
541.964	1	1
542.305	1	15
542.645	1	1
542.985	1	9
543.325	1	2
543.665	1	14
544.005	1	2
544.345	1	7
544.685	1	0
545.025	1	6
545.365	1	7
545.705	1	-2
546.045	1	11
546.386	1	4
546.726	1	6
547.066	1	2
547.406	1	0
547.746	1	-1
548.086	1	17
548.426	1	9
548.766	1	-2
549.106	1	-3
549.446	1	20
549.786	1	13
550.126	1	2
550.466	1	6
550.806	1	12
551.146	1	9
551.486	1	6
551.826	1	1
552.166	1	6
552.506	1	-2
552.846	1	5
553.186	1	-4
553.526	1	6
553.866	1	-5
554.206	1	3
554.546	1	16
554.886	1	0
555.226	1	6
555.566	1	2
555.906	1	4
556.246	1	4
556.586	1	9
556.926	1	-1
557.266	1	14
557.606	1	0
557.946	1	10
558.286	1	-2
558.626	1	2
558.966	1	4
559.306	1	8
559.646	1	13
559.986	1	7
560.325	1	7
560.665	1	-4
561.005	1	0
561.345	1	5
561.685	1	12
562.025	1	15
562.365	1	11
562.705	1	11
563.045	1	6
563.385	1	6
563.725	1	2
564.064	1	1
564.404	1	-7
564.744	1	9
565.084	1	6
565.424	1	-16
565.764	1	7
566.104	1	9
566.444	1	13
566.783	1	-1
567.123	1	0
567.463	1	5
567.803	1	8
568.143	1	-3
568.483	1	11
568.823	1	1
569.162	1	3
569.502	1	19
569.842	1	10
570.182	1	4
570.522	1	-2
570.862	1	-2
571.201	1	9
571.541	1	6
571.881	1	5
572.221	1	4
572.561	1	9
572.900	1	16
573.240	1	-1
573.580	1	4
573.920	1	10
574.260	1	18
574.599	1	16
574.939	1	6
575.279	1	6
575.619	1	-2
575.959	1	0
576.298	1	-6
576.638	1	12
576.978	1	13
577.318	1	-1
577.657	1	-4
577.997	1	12
578.337	1	4
578.677	1	3
579.016	1	10
579.356	1	11
579.696	1	6
580.036	1	3
580.375	1	0
580.715	1	4
581.055	1	6
581.394	1	7
581.734	1	8
582.074	1	4
582.414	1	8
582.753	1	-1
583.093	1	10
583.433	1	-1
583.772	1	11
584.112	1	8
584.452	1	15
584.791	1	9
585.131	1	4
585.471	1	8
585.811	1	7
586.150	1	4
586.490	1	5
586.830	1	0
587.169	1	0
587.509	1	6
587.849	1	12
588.188	1	3
588.528	1	-3
588.867	1	3
589.207	1	15
589.547	1	7
589.886	1	-1
590.226	1	2
590.566	1	7
590.905	1	5
591.245	1	7
591.585	1	5
591.924	1	-1
592.264	1	12
592.603	1	-6
592.943	1	3
593.283	1	3
593.622	1	-1
593.962	1	14
594.301	1	3
594.641	1	5
594.981	1	3
595.320	1	7
595.660	1	7
595.999	1	1
596.339	1	8
596.678	1	-1
597.018	1	-4
597.358	1	-1
597.697	1	-11
598.037	1	1
598.376	1	-6
598.716	1	0
599.055	1	3
599.395	1	-2
599.734	1	0
600.074	1	2
600.413	1	9
600.753	1	11
601.092	1	-2
601.432	1	-6
601.771	1	11
602.111	1	5
602.451	1	5
602.790	1	2
603.130	1	4
603.469	1	5
603.809	1	6
604.148	1	-1
604.487	1	1
604.827	1	4
605.166	1	9
605.506	1	4
605.845	1	9
606.185	1	-1
606.524	1	-7
606.864	1	14
607.203	1	12
607.543	1	3
607.882	1	8
608.222	1	-2
608.561	1	4
608.901	1	13
609.240	1	11
609.579	1	1
609.919	1	1
610.258	1	18
610.598	1	5
610.937	1	-6
611.277	1	4
611.616	1	10
611.955	1	1
612.295	1	3
612.634	1	9
612.974	1	-6
613.313	1	0
613.652	1	14
613.992	1	9
614.331	1	15
614.671	1	3
615.010	1	9
615.349	1	8
615.689	1	-4
616.028	1	13
616.368	1	6
616.707	1	7
617.046	1	-2
617.386	1	8
617.725	1	0
618.064	1	-5
618.404	1	-1
618.743	1	9
619.082	1	17
619.422	1	19
619.761	1	4
620.100	1	1
620.440	1	11
620.779	1	7
621.118	1	11
621.458	1	2
621.797	1	8
622.136	1	13
622.476	1	2
622.815	1	5
623.154	1	-9
623.494	1	-8
623.833	1	1
624.172	1	10
624.511	1	-6
624.851	1	-3
625.190	1	8
625.529	1	-3
625.869	1	14
626.208	1	-5
626.547	1	-4
626.886	1	1
627.226	1	-1
627.565	1	9
627.904	1	-6
628.243	1	15
628.583	1	9
628.922	1	7
629.261	1	3
629.600	1	2
629.940	1	5
630.279	1	5
630.618	1	8
630.957	1	1
631.297	1	5
631.636	1	-2
631.975	1	7
632.314	1	1
632.653	1	1
632.993	1	0
633.332	1	6
633.671	1	4
634.010	1	0
634.349	1	13
634.689	1	1
635.028	1	-2
635.367	1	10
635.706	1	3
636.045	1	2
636.384	1	9
636.724	1	9
637.063	1	-1
637.402	1	9
637.741	1	1
638.080	1	2
638.419	1	1
638.759	1	9
639.098	1	4
639.437	1	5
639.776	1	2
640.115	1	-2
640.454	1	0
640.793	1	-3
641.132	1	-5
641.472	1	15
641.811	1	4
642.150	1	7
642.489	1	4
642.828	1	14
643.167	1	5
643.506	1	3
643.845	1	10
644.184	1	10
644.524	1	3
644.863	1	6
645.202	1	7
645.541	1	10
645.880	1	11
646.219	1	4
646.558	1	-8
646.897	1	-8
647.236	1	-11
647.575	1	15
647.914	1	7
648.253	1	6
648.592	1	8
648.931	1	5
649.270	1	5
649.610	1	14
649.949	1	1
650.288	1	8
650.627	1	-1
650.966	1	3
651.305	1	5
651.644	1	0
651.983	1	-7
652.322	1	0
652.661	1	9
653.000	1	5
653.339	1	0
653.678	1	10
654.017	1	11
654.356	1	3
654.695	1	11
655.034	1	-6
655.373	1	8
655.712	1	5
656.051	1	-1
656.390	1	4
656.729	1	5
657.068	1	-3
657.406	1	-1
657.745	1	7
658.084	1	5
658.423	1	6
658.762	1	-2
659.101	1	6
659.440	1	11
659.779	1	8
660.118	1	-1
660.457	1	3
660.796	1	2
661.135	1	13
661.474	1	5
661.813	1	-2
662.152	1	4
662.491	1	-3
662.829	1	13
663.168	1	1
663.507	1	13
663.846	1	0
664.185	1	6
664.524	1	1
664.863	1	-4
665.202	1	-1
665.541	1	5
665.879	1	10
666.218	1	0
666.557	1	-1
666.896	1	11
667.235	1	-3
667.574	1	8
667.913	1	6
668.251	1	-10
668.590	1	-7
668.929	1	2
669.268	1	5
669.607	1	0
669.946	1	1
670.285	1	-5
670.623	1	4
670.962	1	1
671.301	1	0
671.640	1	0
671.979	1	0
672.317	1	6
672.656	1	1
672.995	1	1
673.334	1	-1
673.673	1	6
674.011	1	1
674.350	1	2
674.689	1	1
675.028	1	5
675.367	1	7
675.705	1	2
676.044	1	1
676.383	1	4
676.722	1	-1
677.060	1	9
677.399	1	2
677.738	1	-7
678.077	1	-6
678.416	1	-2
678.754	1	0
679.093	1	8
679.432	1	-4
679.771	1	2
680.109	1	4
680.448	1	0
680.787	1	-9
681.125	1	2
681.464	1	1
681.803	1	-2
682.142	1	-2
682.480	1	4
682.819	1	4
683.158	1	8
683.496	1	2
683.835	1	4
684.174	1	-3
684.512	1	8
684.851	1	3
685.190	1	2
685.529	1	0
685.867	1	5
686.206	1	-7
686.545	1	8
686.883	1	12
687.222	1	-2
687.561	1	3
687.899	1	-1
688.238	1	10
688.577	1	7
688.746	1	4