File: Data/GaN_150K_450ms/GaN_sample D_spot15_UVVIS_150 K_200um_450 ms 2x2mm1_82.txt
340.368	1	4
340.710	1	11
341.052	1	2
341.394	1	-7
341.737	1	12
342.079	1	8
342.421	1	3
342.763	1	7
343.105	1	15
343.447	1	12
343.789	1	3
344.131	1	-7
344.473	1	2
344.815	1	12
345.157	1	19
345.499	1	4
345.841	1	17
346.183	1	4
346.526	1	4
346.868	1	3
347.210	1	8
347.552	1	23
347.894	1	2
348.236	1	-2
348.578	1	6
348.920	1	3
349.262	1	8
349.604	1	5
349.946	1	8
350.288	1	4
350.630	1	12
350.972	1	1
351.314	1	0
351.656	1	12
351.998	1	7
352.340	1	7
352.682	1	-8
353.024	1	19
353.366	1	16
353.708	1	13
354.050	1	6
354.392	1	9
354.734	1	15
355.076	1	21
355.418	1	11
355.760	1	11
356.102	1	8
356.444	1	22
356.785	1	17
357.127	1	20
357.469	1	16
357.811	1	15
358.153	1	14
358.495	1	16
358.837	1	36
359.179	1	39
359.521	1	19
359.863	1	25
360.205	1	50
360.547	1	30
360.889	1	25
361.231	1	39
361.572	1	49
361.914	1	45
362.256	1	49
362.598	1	63
362.940	1	58
363.282	1	48
363.624	1	78
363.966	1	74
364.308	1	82
364.649	1	83
364.991	1	96
365.333	1	101
365.675	1	117
366.017	1	121
366.359	1	130
366.701	1	133
367.042	1	138
367.384	1	149
367.726	1	147
368.068	1	161
368.410	1	148
368.752	1	156
369.093	1	150
369.435	1	154
369.777	1	145
370.119	1	138
370.461	1	135
370.803	1	122
371.144	1	112
371.486	1	110
371.828	1	110
372.170	1	97
372.512	1	92
372.853	1	108
373.195	1	89
373.537	1	82
373.879	1	75
374.220	1	88
374.562	1	79
374.904	1	77
375.246	1	64
375.588	1	54
375.929	1	64
376.271	1	63
376.613	1	55
376.955	1	51
377.296	1	65
377.638	1	41
377.980	1	43
378.321	1	46
378.663	1	49
379.005	1	48
379.347	1	40
379.688	1	43
380.030	1	39
380.372	1	39
380.714	1	35
381.055	1	33
381.397	1	38
381.739	1	20
382.080	1	29
382.422	1	34
382.764	1	27
383.105	1	26
383.447	1	33
383.789	1	13
384.130	1	34
384.472	1	24
384.814	1	24
385.156	1	19
385.497	1	40
385.839	1	29
386.180	1	20
386.522	1	27
386.864	1	18
387.205	1	19
387.547	1	26
387.889	1	13
388.230	1	13
388.572	1	16
388.914	1	21
389.255	1	24
389.597	1	16
389.939	1	31
390.280	1	15
390.622	1	7
390.963	1	10
391.305	1	16
391.647	1	13
391.988	1	19
392.330	1	13
392.671	1	20
393.013	1	12
393.355	1	33
393.696	1	11
394.038	1	23
394.379	1	21
394.721	1	20
395.062	1	7
395.404	1	20
395.746	1	4
396.087	1	21
396.429	1	20
396.770	1	14
397.112	1	16
397.453	1	15
397.795	1	18
398.136	1	20
398.478	1	16
398.819	1	19
399.161	1	17
399.503	1	29
399.844	1	8
400.186	1	19
400.527	1	17
400.869	1	4
401.210	1	21
401.552	1	15
401.893	1	28
402.235	1	22
402.576	1	23
402.918	1	4
403.259	1	24
403.601	1	21
403.942	1	8
404.284	1	19
404.625	1	9
404.967	1	8
405.308	1	5
405.649	1	15
405.991	1	13
406.332	1	10
406.674	1	7
407.015	1	17
407.357	1	20
407.698	1	24
408.040	1	26
408.381	1	8
408.722	1	22
409.064	1	23
409.405	1	14
409.747	1	11
410.088	1	18
410.430	1	25
410.771	1	20
411.112	1	15
411.454	1	14
411.795	1	16
412.137	1	9
412.478	1	18
412.819	1	14
413.161	1	16
413.502	1	21
413.844	1	23
414.185	1	13
414.526	1	8
414.868	1	10
415.209	1	10
415.550	1	9
415.892	1	28
416.233	1	7
416.575	1	15
416.916	1	7
417.257	1	3
417.599	1	19
417.940	1	15
418.281	1	24
418.623	1	14
418.964	1	25
419.305	1	20
419.647	1	15
419.988	1	25
420.329	1	13
420.671	1	26
421.012	1	14
421.353	1	20
421.695	1	16
422.036	1	15
422.377	1	9
422.718	1	19
423.060	1	23
423.401	1	9
423.742	1	18
424.084	1	25
424.425	1	27
424.766	1	2
425.107	1	12
425.449	1	18
425.790	1	14
426.131	1	9
426.472	1	29
426.814	1	14
427.155	1	18
427.496	1	19
427.837	1	16
428.179	1	25
428.520	1	18
428.861	1	27
429.202	1	6
429.544	1	17
429.885	1	17
430.226	1	3
430.567	1	10
430.909	1	14
431.250	1	18
431.591	1	21
431.932	1	15
432.273	1	30
432.615	1	20
432.956	1	16
433.297	1	18
433.638	1	22
433.979	1	19
434.320	1	15
434.662	1	16
435.003	1	23
435.344	1	7
435.685	1	6
436.026	1	25
436.368	1	15
436.709	1	11
437.050	1	10
437.391	1	14
437.732	1	12
438.073	1	8
438.414	1	14
438.756	1	17
439.097	1	18
439.438	1	10
439.779	1	6
440.120	1	11
440.461	1	17
440.802	1	12
441.143	1	18
441.485	1	13
441.826	1	13
442.167	1	6
442.508	1	14
442.849	1	18
443.190	1	20
443.531	1	14
443.872	1	5
444.213	1	2
444.554	1	12
444.895	1	16
445.237	1	20
445.578	1	3
445.919	1	13
446.260	1	15
446.601	1	15
446.942	1	1
447.283	1	16
447.624	1	4
447.965	1	5
448.306	1	7
448.647	1	10
448.988	1	10
449.329	1	19
449.670	1	13
450.011	1	6
450.352	1	8
450.693	1	16
451.034	1	11
451.375	1	16
451.716	1	11
452.057	1	19
452.398	1	19
452.739	1	13
453.080	1	14
453.421	1	17
453.762	1	13
454.103	1	10
454.444	1	6
454.785	1	9
455.126	1	10
455.467	1	12
455.808	1	16
456.149	1	5
456.490	1	4
456.831	1	8
457.172	1	4
457.513	1	6
457.854	1	5
458.195	1	13
458.536	1	21
458.877	1	20
459.218	1	11
459.559	1	10
459.899	1	10
460.240	1	15
460.581	1	1
460.922	1	8
461.263	1	17
461.604	1	7
461.945	1	11
462.286	1	10
462.627	1	14
462.968	1	0
463.309	1	6
463.649	1	2
463.990	1	13
464.331	1	10
464.672	1	6
465.013	1	10
465.354	1	18
465.695	1	1
466.036	1	13
466.376	1	24
466.717	1	2
467.058	1	24
467.399	1	1
467.740	1	7
468.081	1	13
468.422	1	11
468.762	1	17
469.103	1	17
469.444	1	13
469.785	1	5
470.126	1	14
470.467	1	11
470.807	1	11
471.148	1	9
471.489	1	7
471.830	1	15
472.171	1	13
472.511	1	11
472.852	1	17
473.193	1	7
473.534	1	14
473.875	1	5
474.215	1	11
474.556	1	6
474.897	1	7
475.238	1	11
475.578	1	-3
475.919	1	1
476.260	1	5
476.601	1	13
476.942	1	11
477.282	1	6
477.623	1	5
477.964	1	16
478.305	1	18
478.645	1	5
478.986	1	11
479.327	1	10
479.667	1	7
480.008	1	10
480.349	1	11
480.690	1	12
481.030	1	2
481.371	1	1
481.712	1	23
482.053	1	15
482.393	1	12
482.734	1	12
483.075	1	15
483.415	1	8
483.756	1	12
484.097	1	17
484.437	1	16
484.778	1	1
485.119	1	18
485.459	1	10
485.800	1	9
486.141	1	18
486.481	1	3
486.822	1	24
487.163	1	8
487.503	1	6
487.844	1	5
488.185	1	12
488.525	1	3
488.866	1	14
489.207	1	18
489.547	1	14
489.888	1	22
490.228	1	14
490.569	1	16
490.910	1	19
491.250	1	16
491.591	1	17
491.932	1	17
492.272	1	5
492.613	1	15
492.953	1	23
493.294	1	10
493.635	1	21
493.975	1	19
494.316	1	14
494.656	1	23
494.997	1	9
495.337	1	10
495.678	1	11
496.019	1	17
496.359	1	9
496.700	1	15
497.040	1	8
497.381	1	23
497.721	1	8
498.062	1	16
498.403	1	28
498.743	1	28
499.084	1	22
499.424	1	22
499.765	1	26
500.105	1	26
500.446	1	25
500.786	1	18
501.127	1	25
501.467	1	22
501.808	1	20
502.148	1	20
502.489	1	23
502.829	1	19
503.170	1	21
503.510	1	26
503.851	1	26
504.191	1	22
504.532	1	41
504.872	1	31
505.213	1	23
505.553	1	39
505.894	1	29
506.234	1	36
506.575	1	50
506.915	1	27
507.256	1	42
507.596	1	39
507.936	1	32
508.277	1	40
508.617	1	41
508.958	1	34
509.298	1	27
509.639	1	26
509.979	1	28
510.319	1	36
510.660	1	44
511.000	1	28
511.341	1	46
511.681	1	26
512.022	1	27
512.362	1	43
512.702	1	33
513.043	1	42
513.383	1	32
513.724	1	32
514.064	1	33
514.404	1	47
514.745	1	36
515.085	1	47
515.425	1	40
515.766	1	40
516.106	1	28
516.447	1	39
516.787	1	34
517.127	1	39
517.468	1	43
517.808	1	34
518.148	1	44
518.489	1	38
518.829	1	50
519.169	1	36
519.510	1	33
519.850	1	40
520.190	1	40
520.531	1	35
520.871	1	41
521.211	1	46
521.552	1	35
521.892	1	45
522.232	1	37
522.573	1	41
522.913	1	40
523.253	1	42
523.593	1	38
523.934	1	40
524.274	1	47
524.614	1	40
524.955	1	33
525.295	1	52
525.635	1	46
525.975	1	39
526.316	1	33
526.656	1	47
526.996	1	36
527.337	1	42
527.677	1	50
528.017	1	41
528.357	1	50
528.698	1	49
529.038	1	48
529.378	1	45
529.718	1	34
530.058	1	40
530.399	1	49
530.739	1	49
531.079	1	49
531.419	1	43
531.760	1	50
532.100	1	58
532.440	1	48
532.780	1	51
533.120	1	36
533.461	1	41
533.801	1	47
534.141	1	32
534.481	1	57
534.821	1	46
535.162	1	45
535.502	1	39
535.842	1	40
536.182	1	45
536.522	1	27
536.862	1	37
537.203	1	41
537.543	1	43
537.883	1	39
538.223	1	50
538.563	1	43
538.903	1	36
539.243	1	40
539.584	1	36
539.924	1	43
540.264	1	41
540.604	1	43
540.944	1	39
541.284	1	37
541.624	1	33
541.964	1	30
542.305	1	42
542.645	1	38
542.985	1	32
543.325	1	33
543.665	1	37
544.005	1	34
544.345	1	59
544.685	1	37
545.025	1	38
545.365	1	42
545.705	1	40
546.045	1	38
546.386	1	43
546.726	1	35
547.066	1	38
547.406	1	38
547.746	1	35
548.086	1	40
548.426	1	42
548.766	1	44
549.106	1	33
549.446	1	48
549.786	1	36
550.126	1	43
550.466	1	37
550.806	1	30
551.146	1	30
551.486	1	30
551.826	1	29
552.166	1	32
552.506	1	33
552.846	1	39
553.186	1	28
553.526	1	26
553.866	1	42
554.206	1	38
554.546	1	26
554.886	1	30
555.226	1	36
555.566	1	28
555.906	1	20
556.246	1	34
556.586	1	39
556.926	1	19
557.266	1	27
557.606	1	18
557.946	1	41
558.286	1	16
558.626	1	22
558.966	1	29
559.306	1	29
559.646	1	26
559.986	1	34
560.325	1	31
560.665	1	30
561.005	1	24
561.345	1	24
561.685	1	35
562.025	1	30
562.365	1	29
562.705	1	33
563.045	1	22
563.385	1	20
563.725	1	27
564.064	1	26
564.404	1	14
564.744	1	38
565.084	1	26
565.424	1	11
565.764	1	23
566.104	1	25
566.444	1	24
566.783	1	21
567.123	1	27
567.463	1	20
567.803	1	27
568.143	1	35
568.483	1	28
568.823	1	22
569.162	1	17
569.502	1	27
569.842	1	21
570.182	1	20
570.522	1	20
570.862	1	10
571.201	1	35
571.541	1	23
571.881	1	14
572.221	1	19
572.561	1	20
572.900	1	29
573.240	1	23
573.580	1	20
573.920	1	21
574.260	1	25
574.599	1	23
574.939	1	17
575.279	1	17
575.619	1	20
575.959	1	20
576.298	1	9
576.638	1	19
576.978	1	21
577.318	1	19
577.657	1	12
577.997	1	19
578.337	1	19
578.677	1	21
579.016	1	10
579.356	1	20
579.696	1	14
580.036	1	14
580.375	1	13
580.715	1	15
581.055	1	14
581.394	1	26
581.734	1	17
582.074	1	15
582.414	1	20
582.753	1	14
583.093	1	27
583.433	1	26
583.772	1	25
584.112	1	18
584.452	1	19
584.791	1	17
585.131	1	18
585.471	1	18
585.811	1	19
586.150	1	16
586.490	1	23
586.830	1	12
587.169	1	13
587.509	1	26
587.849	1	24
588.188	1	27
588.528	1	7
588.867	1	12
589.207	1	10
589.547	1	19
589.886	1	14
590.226	1	9
590.566	1	8
590.905	1	16
591.245	1	8
591.585	1	1
591.924	1	7
592.264	1	-2
592.603	1	-3
592.943	1	13
593.283	1	14
593.622	1	10
593.962	1	15
594.301	1	5
594.641	1	14
594.981	1	10
595.320	1	16
595.660	1	11
595.999	1	10
596.339	1	9
596.678	1	5
597.018	1	-1
597.358	1	7
597.697	1	7
598.037	1	15
598.376	1	-1
598.716	1	9
599.055	1	16
599.395	1	6
599.734	1	9
600.074	1	6
600.413	1	4
600.753	1	9
601.092	1	5
601.432	1	6
601.771	1	20
602.111	1	12
602.451	1	15
602.790	1	6
603.130	1	13
603.469	1	18
603.809	1	16
604.148	1	2
604.487	1	9
604.827	1	13
605.166	1	19
605.506	1	5
605.845	1	12
606.185	1	7
606.524	1	1
606.864	1	14
607.203	1	19
607.543	1	8
607.882	1	11
608.222	1	2
608.561	1	9
608.901	1	13
609.240	1	8
609.579	1	10
609.919	1	6
610.258	1	24
610.598	1	1
610.937	1	4
611.277	1	19
611.616	1	15
611.955	1	2
612.295	1	20
612.634	1	9
612.974	1	8
613.313	1	5
613.652	1	11
613.992	1	11
614.331	1	16
614.671	1	5
615.010	1	14
615.349	1	9
615.689	1	10
616.028	1	22
616.368	1	13
616.707	1	1
617.046	1	3
617.386	1	13
617.725	1	8
618.064	1	3
618.404	1	13
618.743	1	13
619.082	1	24
619.422	1	14
619.761	1	9
620.100	1	11
620.440	1	19
620.779	1	13
621.118	1	8
621.458	1	11
621.797	1	3
622.136	1	5
622.476	1	8
622.815	1	8
623.154	1	-1
623.494	1	-5
623.833	1	5
624.172	1	14
624.511	1	-2
624.851	1	4
625.190	1	7
625.529	1	10
625.869	1	14
626.208	1	-1
626.547	1	3
626.886	1	6
627.226	1	7
627.565	1	8
627.904	1	3
628.243	1	15
628.583	1	6
628.922	1	12
629.261	1	11
629.600	1	6
629.940	1	14
630.279	1	9
630.618	1	9
630.957	1	6
631.297	1	10
631.636	1	7
631.975	1	9
632.314	1	4
632.653	1	1
632.993	1	5
633.332	1	19
633.671	1	15
634.010	1	8
634.349	1	10
634.689	1	3
635.028	1	2
635.367	1	16
635.706	1	0
636.045	1	8
636.384	1	11
636.724	1	8
637.063	1	3
637.402	1	5
637.741	1	8
638.080	1	0
638.419	1	9
638.759	1	12
639.098	1	2
639.437	1	7
639.776	1	7
640.115	1	7
640.454	1	8
640.793	1	6
641.132	1	2
641.472	1	15
641.811	1	0
642.150	1	4
642.489	1	9
642.828	1	24
643.167	1	2
643.506	1	-2
643.845	1	21
644.184	1	18
644.524	1	3
644.863	1	5
645.202	1	3
645.541	1	3
645.880	1	2
646.219	1	2
646.558	1	-4
646.897	1	-1
647.236	1	-6
647.575	1	16
647.914	1	5
648.253	1	19
648.592	1	2
648.931	1	15
649.270	1	15
649.610	1	13
649.949	1	4
650.288	1	7
650.627	1	8
650.966	1	4
651.305	1	13
651.644	1	19
651.983	1	6
652.322	1	4
652.661	1	11
653.000	1	12
653.339	1	2
653.678	1	15
654.017	1	15
654.356	1	12
654.695	1	21
655.034	1	10
655.373	1	7
655.712	1	15
656.051	1	0
656.390	1	8
656.729	1	15
657.068	1	6
657.406	1	-3
657.745	1	16
658.084	1	14
658.423	1	11
658.762	1	2
659.101	1	7
659.440	1	10
659.779	1	8
660.118	1	2
660.457	1	8
660.796	1	11
661.135	1	17
661.474	1	7
661.813	1	-4
662.152	1	12
662.491	1	-4
662.829	1	-1
663.168	1	11
663.507	1	4
663.846	1	1
664.185	1	9
664.524	1	18
664.863	1	5
665.202	1	0
665.541	1	8
665.879	1	15
666.218	1	11
666.557	1	-1
666.896	1	15
667.235	1	3
667.574	1	5
667.913	1	14
668.251	1	-2
668.590	1	-2
668.929	1	4
669.268	1	6
669.607	1	0
669.946	1	15
670.285	1	9
670.623	1	9
670.962	1	-3
671.301	1	5
671.640	1	3
671.979	1	1
672.317	1	9
672.656	1	12
672.995	1	1
673.334	1	3
673.673	1	15
674.011	1	22
674.350	1	7
674.689	1	4
675.028	1	15
675.367	1	23
675.705	1	-3
676.044	1	0
676.383	1	7
676.722	1	-2
677.060	1	15
677.399	1	18
677.738	1	6
678.077	1	3
678.416	1	-9
678.754	1	-1
679.093	1	16
679.432	1	5
679.771	1	13
680.109	1	1
680.448	1	2
680.787	1	-3
681.125	1	6
681.464	1	4
681.803	1	8
682.142	1	10
682.480	1	7
682.819	1	0
683.158	1	2
683.496	1	1
683.835	1	11
684.174	1	6
684.512	1	3
684.851	1	7
685.190	1	7
685.529	1	-4
685.867	1	14
686.206	1	-2
686.545	1	12
686.883	1	15
687.222	1	6
687.561	1	6
687.899	1	10
688.238	1	12
688.577	1	11
688.746	1	11