File: Data/GaN_150K_450ms/GaN_sample D_spot15_UVVIS_150 K_200um_450 ms 2x2mm1_244.txt
340.368	1	1
340.710	1	4
341.052	1	6
341.394	1	-21
341.737	1	9
342.079	1	-1
342.421	1	-2
342.763	1	5
343.105	1	10
343.447	1	4
343.789	1	1
344.131	1	-14
344.473	1	0
344.815	1	5
345.157	1	6
345.499	1	4
345.841	1	4
346.183	1	-2
346.526	1	4
346.868	1	2
347.210	1	3
347.552	1	9
347.894	1	-3
348.236	1	4
348.578	1	4
348.920	1	8
349.262	1	4
349.604	1	4
349.946	1	1
350.288	1	-6
350.630	1	-6
350.972	1	9
351.314	1	-8
351.656	1	4
351.998	1	0
352.340	1	9
352.682	1	-7
353.024	1	8
353.366	1	10
353.708	1	6
354.050	1	-5
354.392	1	-4
354.734	1	1
355.076	1	9
355.418	1	-4
355.760	1	4
356.102	1	4
356.444	1	1
356.785	1	7
357.127	1	4
357.469	1	1
357.811	1	-4
358.153	1	-12
358.495	1	1
358.837	1	2
359.179	1	10
359.521	1	3
359.863	1	5
360.205	1	4
360.547	1	13
360.889	1	0
361.231	1	12
361.572	1	9
361.914	1	8
362.256	1	3
362.598	1	14
362.940	1	10
363.282	1	1
363.624	1	1
363.966	1	2
364.308	1	2
364.649	1	8
364.991	1	10
365.333	1	7
365.675	1	26
366.017	1	4
366.359	1	9
366.701	1	2
367.042	1	22
367.384	1	5
367.726	1	14
368.068	1	14
368.410	1	18
368.752	1	20
369.093	1	15
369.435	1	24
369.777	1	25
370.119	1	24
370.461	1	12
370.803	1	14
371.144	1	4
371.486	1	17
371.828	1	2
372.170	1	14
372.512	1	16
372.853	1	15
373.195	1	3
373.537	1	0
373.879	1	4
374.220	1	14
374.562	1	20
374.904	1	7
375.246	1	6
375.588	1	-1
375.929	1	9
376.271	1	-2
376.613	1	4
376.955	1	6
377.296	1	9
377.638	1	2
377.980	1	-1
378.321	1	14
378.663	1	9
379.005	1	-2
379.347	1	9
379.688	1	15
380.030	1	4
380.372	1	9
380.714	1	5
381.055	1	4
381.397	1	-1
381.739	1	-10
382.080	1	9
382.422	1	11
382.764	1	11
383.105	1	9
383.447	1	4
383.789	1	-8
384.130	1	3
384.472	1	-1
384.814	1	9
385.156	1	8
385.497	1	14
385.839	1	14
386.180	1	0
386.522	1	16
386.864	1	5
387.205	1	11
387.547	1	11
387.889	1	2
388.230	1	7
388.572	1	-2
388.914	1	9
389.255	1	-1
389.597	1	-1
389.939	1	6
390.280	1	-4
390.622	1	-2
390.963	1	-3
391.305	1	7
391.647	1	-1
391.988	1	-4
392.330	1	3
392.671	1	2
393.013	1	3
393.355	1	15
393.696	1	10
394.038	1	1
394.379	1	6
394.721	1	3
395.062	1	3
395.404	1	5
395.746	1	-7
396.087	1	4
396.429	1	4
396.770	1	6
397.112	1	4
397.453	1	0
397.795	1	-8
398.136	1	11
398.478	1	5
398.819	1	7
399.161	1	2
399.503	1	9
399.844	1	-2
400.186	1	3
400.527	1	14
400.869	1	-3
401.210	1	5
401.552	1	1
401.893	1	5
402.235	1	9
402.576	1	0
402.918	1	-4
403.259	1	-2
403.601	1	9
403.942	1	-2
404.284	1	11
404.625	1	-3
404.967	1	0
405.308	1	1
405.649	1	-2
405.991	1	-3
406.332	1	4
406.674	1	6
407.015	1	8
407.357	1	8
407.698	1	2
408.040	1	9
408.381	1	-1
408.722	1	9
409.064	1	10
409.405	1	-1
409.747	1	3
410.088	1	6
410.430	1	10
410.771	1	23
411.112	1	8
411.454	1	7
411.795	1	-8
412.137	1	4
412.478	1	5
412.819	1	2
413.161	1	-1
413.502	1	1
413.844	1	6
414.185	1	4
414.526	1	-4
414.868	1	-2
415.209	1	-2
415.550	1	12
415.892	1	4
416.233	1	2
416.575	1	-2
416.916	1	-3
417.257	1	-2
417.599	1	4
417.940	1	-4
418.281	1	14
418.623	1	0
418.964	1	16
419.305	1	3
419.647	1	3
419.988	1	15
420.329	1	0
420.671	1	15
421.012	1	-9
421.353	1	12
421.695	1	10
422.036	1	13
422.377	1	-1
422.718	1	11
423.060	1	-3
423.401	1	5
423.742	1	17
424.084	1	-1
424.425	1	16
424.766	1	-6
425.107	1	-3
425.449	1	6
425.790	1	2
426.131	1	-4
426.472	1	8
426.814	1	2
427.155	1	3
427.496	1	-5
427.837	1	2
428.179	1	7
428.520	1	5
428.861	1	4
429.202	1	-3
429.544	1	6
429.885	1	7
430.226	1	-7
430.567	1	-4
430.909	1	-2
431.250	1	12
431.591	1	11
431.932	1	4
432.273	1	5
432.615	1	0
432.956	1	4
433.297	1	6
433.638	1	10
433.979	1	6
434.320	1	9
434.662	1	9
435.003	1	13
435.344	1	5
435.685	1	-10
436.026	1	-1
436.368	1	-9
436.709	1	-7
437.050	1	-3
437.391	1	-1
437.732	1	0
438.073	1	-9
438.414	1	8
438.756	1	3
439.097	1	4
439.438	1	9
439.779	1	0
440.120	1	2
440.461	1	7
440.802	1	-2
441.143	1	0
441.485	1	1
441.826	1	2
442.167	1	-1
442.508	1	6
442.849	1	9
443.190	1	6
443.531	1	0
443.872	1	-3
444.213	1	-9
444.554	1	3
444.895	1	5
445.237	1	7
445.578	1	2
445.919	1	-4
446.260	1	11
446.601	1	5
446.942	1	1
447.283	1	12
447.624	1	-2
447.965	1	9
448.306	1	15
448.647	1	0
448.988	1	1
449.329	1	2
449.670	1	4
450.011	1	0
450.352	1	-8
450.693	1	7
451.034	1	2
451.375	1	-2
451.716	1	-3
452.057	1	9
452.398	1	15
452.739	1	3
453.080	1	-5
453.421	1	7
453.762	1	14
454.103	1	9
454.444	1	8
454.785	1	6
455.126	1	6
455.467	1	9
455.808	1	7
456.149	1	1
456.490	1	-4
456.831	1	0
457.172	1	0
457.513	1	7
457.854	1	12
458.195	1	15
458.536	1	0
458.877	1	3
459.218	1	11
459.559	1	3
459.899	1	-1
460.240	1	-10
460.581	1	0
460.922	1	3
461.263	1	7
461.604	1	-5
461.945	1	2
462.286	1	-3
462.627	1	-2
462.968	1	7
463.309	1	3
463.649	1	-3
463.990	1	5
464.331	1	4
464.672	1	10
465.013	1	-4
465.354	1	6
465.695	1	4
466.036	1	7
466.376	1	14
466.717	1	-7
467.058	1	-2
467.399	1	-6
467.740	1	15
468.081	1	10
468.422	1	-9
468.762	1	3
469.103	1	6
469.444	1	6
469.785	1	4
470.126	1	5
470.467	1	10
470.807	1	7
471.148	1	-3
471.489	1	3
471.830	1	-1
472.171	1	3
472.511	1	-5
472.852	1	12
473.193	1	1
473.534	1	3
473.875	1	-7
474.215	1	-3
474.556	1	-4
474.897	1	3
475.238	1	1
475.578	1	-3
475.919	1	-7
476.260	1	-4
476.601	1	0
476.942	1	3
477.282	1	-9
477.623	1	-11
477.964	1	8
478.305	1	10
478.645	1	6
478.986	1	1
479.327	1	7
479.667	1	-8
480.008	1	0
480.349	1	-13
480.690	1	2
481.030	1	-3
481.371	1	-6
481.712	1	12
482.053	1	10
482.393	1	2
482.734	1	13
483.075	1	-2
483.415	1	-5
483.756	1	6
484.097	1	8
484.437	1	1
484.778	1	-5
485.119	1	-6
485.459	1	-3
485.800	1	2
486.141	1	2
486.481	1	-7
486.822	1	17
487.163	1	-5
487.503	1	0
487.844	1	-5
488.185	1	5
488.525	1	-3
488.866	1	-4
489.207	1	8
489.547	1	0
489.888	1	4
490.228	1	-5
490.569	1	5
490.910	1	5
491.250	1	6
491.591	1	1
491.932	1	9
492.272	1	-5
492.613	1	4
492.953	1	0
493.294	1	-10
493.635	1	7
493.975	1	13
494.316	1	-8
494.656	1	12
494.997	1	-6
495.337	1	-9
495.678	1	0
496.019	1	6
496.359	1	-1
496.700	1	4
497.040	1	-3
497.381	1	-1
497.721	1	-12
498.062	1	-3
498.403	1	7
498.743	1	-5
499.084	1	1
499.424	1	-6
499.765	1	1
500.105	1	10
500.446	1	-10
500.786	1	0
501.127	1	-1
501.467	1	12
501.808	1	3
502.148	1	3
502.489	1	2
502.829	1	-3
503.170	1	-1
503.510	1	5
503.851	1	7
504.191	1	9
504.532	1	7
504.872	1	-8
505.213	1	-2
505.553	1	7
505.894	1	9
506.234	1	5
506.575	1	17
506.915	1	-3
507.256	1	12
507.596	1	6
507.936	1	9
508.277	1	5
508.617	1	7
508.958	1	4
509.298	1	-13
509.639	1	-6
509.979	1	-2
510.319	1	3
510.660	1	4
511.000	1	-6
511.341	1	8
511.681	1	2
512.022	1	-12
512.362	1	8
512.702	1	-5
513.043	1	-2
513.383	1	-2
513.724	1	2
514.064	1	10
514.404	1	15
514.745	1	9
515.085	1	8
515.425	1	-1
515.766	1	-2
516.106	1	-1
516.447	1	13
516.787	1	10
517.127	1	5
517.468	1	8
517.808	1	-3
518.148	1	4
518.489	1	2
518.829	1	5
519.169	1	-10
519.510	1	-6
519.850	1	4
520.190	1	2
520.531	1	-6
520.871	1	7
521.211	1	0
521.552	1	2
521.892	1	5
522.232	1	8
522.573	1	1
522.913	1	6
523.253	1	11
523.593	1	10
523.934	1	11
524.274	1	1
524.614	1	14
524.955	1	7
525.295	1	11
525.635	1	6
525.975	1	7
526.316	1	-7
526.656	1	9
526.996	1	15
527.337	1	11
527.677	1	14
528.017	1	-6
528.357	1	9
528.698	1	11
529.038	1	5
529.378	1	3
529.718	1	7
530.058	1	6
530.399	1	4
530.739	1	13
531.079	1	4
531.419	1	3
531.760	1	5
532.100	1	16
532.440	1	11
532.780	1	10
533.120	1	-4
533.461	1	-4
533.801	1	10
534.141	1	3
534.481	1	21
534.821	1	1
535.162	1	5
535.502	1	5
535.842	1	10
536.182	1	2
536.522	1	5
536.862	1	9
537.203	1	6
537.543	1	14
537.883	1	1
538.223	1	13
538.563	1	-7
538.903	1	1
539.243	1	3
539.584	1	4
539.924	1	1
540.264	1	11
540.604	1	19
540.944	1	5
541.284	1	6
541.624	1	4
541.964	1	0
542.305	1	10
542.645	1	0
542.985	1	0
543.325	1	11
543.665	1	4
544.005	1	-6
544.345	1	7
544.685	1	1
545.025	1	6
545.365	1	2
545.705	1	3
546.045	1	5
546.386	1	3
546.726	1	-1
547.066	1	-4
547.406	1	-5
547.746	1	10
548.086	1	-1
548.426	1	4
548.766	1	7
549.106	1	-6
549.446	1	15
549.786	1	0
550.126	1	3
550.466	1	6
550.806	1	7
551.146	1	3
551.486	1	-3
551.826	1	8
552.166	1	2
552.506	1	-1
552.846	1	5
553.186	1	2
553.526	1	4
553.866	1	0
554.206	1	8
554.546	1	19
554.886	1	4
555.226	1	9
555.566	1	1
555.906	1	-2
556.246	1	7
556.586	1	6
556.926	1	4
557.266	1	8
557.606	1	-3
557.946	1	13
558.286	1	-4
558.626	1	10
558.966	1	1
559.306	1	2
559.646	1	8
559.986	1	11
560.325	1	7
560.665	1	-3
561.005	1	4
561.345	1	-6
561.685	1	6
562.025	1	6
562.365	1	-6
562.705	1	14
563.045	1	6
563.385	1	4
563.725	1	3
564.064	1	-6
564.404	1	5
564.744	1	2
565.084	1	4
565.424	1	-13
565.764	1	10
566.104	1	15
566.444	1	15
566.783	1	5
567.123	1	-1
567.463	1	12
567.803	1	7
568.143	1	2
568.483	1	11
568.823	1	-5
569.162	1	-3
569.502	1	7
569.842	1	1
570.182	1	0
570.522	1	-2
570.862	1	-6
571.201	1	8
571.541	1	2
571.881	1	-4
572.221	1	3
572.561	1	14
572.900	1	6
573.240	1	-4
573.580	1	4
573.920	1	13
574.260	1	5
574.599	1	6
574.939	1	13
575.279	1	-8
575.619	1	0
575.959	1	3
576.298	1	-8
576.638	1	1
576.978	1	2
577.318	1	3
577.657	1	4
577.997	1	7
578.337	1	2
578.677	1	2
579.016	1	1
579.356	1	9
579.696	1	1
580.036	1	6
580.375	1	5
580.715	1	6
581.055	1	4
581.394	1	-1
581.734	1	4
582.074	1	0
582.414	1	-1
582.753	1	2
583.093	1	9
583.433	1	3
583.772	1	8
584.112	1	-4
584.452	1	4
584.791	1	1
585.131	1	5
585.471	1	7
585.811	1	12
586.150	1	-4
586.490	1	5
586.830	1	13
587.169	1	0
587.509	1	3
587.849	1	10
588.188	1	-1
588.528	1	-4
588.867	1	7
589.207	1	1
589.547	1	8
589.886	1	7
590.226	1	5
590.566	1	3
590.905	1	8
591.245	1	-1
591.585	1	-4
591.924	1	-2
592.264	1	4
592.603	1	-8
592.943	1	-8
593.283	1	2
593.622	1	0
593.962	1	-1
594.301	1	-10
594.641	1	9
594.981	1	-2
595.320	1	9
595.660	1	8
595.999	1	2
596.339	1	5
596.678	1	-4
597.018	1	-1
597.358	1	-2
597.697	1	-3
598.037	1	2
598.376	1	-12
598.716	1	7
599.055	1	5
599.395	1	-2
599.734	1	4
600.074	1	1
600.413	1	1
600.753	1	1
601.092	1	-4
601.432	1	-4
601.771	1	0
602.111	1	-6
602.451	1	0
602.790	1	-4
603.130	1	0
603.469	1	6
603.809	1	6
604.148	1	-5
604.487	1	0
604.827	1	9
605.166	1	9
605.506	1	2
605.845	1	-3
606.185	1	-8
606.524	1	1
606.864	1	8
607.203	1	4
607.543	1	-2
607.882	1	2
608.222	1	-4
608.561	1	6
608.901	1	9
609.240	1	6
609.579	1	0
609.919	1	-1
610.258	1	21
610.598	1	-2
610.937	1	2
611.277	1	12
611.616	1	9
611.955	1	-3
612.295	1	6
612.634	1	5
612.974	1	4
613.313	1	5
613.652	1	15
613.992	1	-2
614.331	1	16
614.671	1	3
615.010	1	1
615.349	1	6
615.689	1	-2
616.028	1	7
616.368	1	6
616.707	1	3
617.046	1	-1
617.386	1	7
617.725	1	-5
618.064	1	-3
618.404	1	-17
618.743	1	0
619.082	1	9
619.422	1	14
619.761	1	0
620.100	1	6
620.440	1	0
620.779	1	9
621.118	1	11
621.458	1	2
621.797	1	1
622.136	1	9
622.476	1	10
622.815	1	0
623.154	1	-8
623.494	1	-6
623.833	1	2
624.172	1	4
624.511	1	0
624.851	1	0
625.190	1	5
625.529	1	1
625.869	1	10
626.208	1	-1
626.547	1	-6
626.886	1	-10
627.226	1	5
627.565	1	15
627.904	1	3
628.243	1	9
628.583	1	5
628.922	1	4
629.261	1	5
629.600	1	0
629.940	1	6
630.279	1	5
630.618	1	1
630.957	1	2
631.297	1	7
631.636	1	2
631.975	1	6
632.314	1	-2
632.653	1	2
632.993	1	5
633.332	1	10
633.671	1	6
634.010	1	6
634.349	1	19
634.689	1	3
635.028	1	2
635.367	1	4
635.706	1	4
636.045	1	-5
636.384	1	3
636.724	1	2
637.063	1	-13
637.402	1	1
637.741	1	-7
638.080	1	9
638.419	1	-8
638.759	1	3
639.098	1	-1
639.437	1	1
639.776	1	-6
640.115	1	-9
640.454	1	-9
640.793	1	1
641.132	1	1
641.472	1	5
641.811	1	-5
642.150	1	-1
642.489	1	4
642.828	1	20
643.167	1	5
643.506	1	-1
643.845	1	9
644.184	1	11
644.524	1	-1
644.863	1	0
645.202	1	-1
645.541	1	0
645.880	1	6
646.219	1	9
646.558	1	-7
646.897	1	-9
647.236	1	-13
647.575	1	10
647.914	1	2
648.253	1	13
648.592	1	4
648.931	1	8
649.270	1	15
649.610	1	9
649.949	1	-7
650.288	1	-3
650.627	1	-2
650.966	1	8
651.305	1	3
651.644	1	19
651.983	1	0
652.322	1	5
652.661	1	2
653.000	1	5
653.339	1	2
653.678	1	10
654.017	1	14
654.356	1	-2
654.695	1	12
655.034	1	-1
655.373	1	-2
655.712	1	2
656.051	1	-1
656.390	1	1
656.729	1	1
657.068	1	0
657.406	1	3
657.745	1	15
658.084	1	11
658.423	1	16
658.762	1	-3
659.101	1	-1
659.440	1	2
659.779	1	-1
660.118	1	7
660.457	1	-1
660.796	1	11
661.135	1	3
661.474	1	4
661.813	1	-2
662.152	1	0
662.491	1	-3
662.829	1	0
663.168	1	4
663.507	1	6
663.846	1	-7
664.185	1	6
664.524	1	7
664.863	1	-5
665.202	1	4
665.541	1	2
665.879	1	3
666.218	1	5
666.557	1	-5
666.896	1	6
667.235	1	-2
667.574	1	-4
667.913	1	-6
668.251	1	5
668.590	1	-2
668.929	1	-3
669.268	1	-1
669.607	1	-5
669.946	1	5
670.285	1	3
670.623	1	1
670.962	1	-7
671.301	1	-6
671.640	1	4
671.979	1	-6
672.317	1	13
672.656	1	3
672.995	1	-1
673.334	1	-5
673.673	1	12
674.011	1	8
674.350	1	7
674.689	1	-11
675.028	1	3
675.367	1	-1
675.705	1	7
676.044	1	-6
676.383	1	-2
676.722	1	2
677.060	1	-1
677.399	1	16
677.738	1	-1
678.077	1	4
678.416	1	-4
678.754	1	5
679.093	1	20
679.432	1	1
679.771	1	6
680.109	1	0
680.448	1	-2
680.787	1	-15
681.125	1	-12
681.464	1	6
681.803	1	6
682.142	1	-5
682.480	1	-7
682.819	1	-10
683.158	1	2
683.496	1	3
683.835	1	4
684.174	1	4
684.512	1	8
684.851	1	0
685.190	1	2
685.529	1	-6
685.867	1	7
686.206	1	-12
686.545	1	-5
686.883	1	10
687.222	1	-5
687.561	1	4
687.899	1	0
688.238	1	12
688.577	1	3
688.746	1	1