File: Data/GaN_150K_450ms/GaN_sample D_spot15_UVVIS_150 K_200um_450 ms 2x2mm1_219.txt
340.368	1	2
340.710	1	7
341.052	1	8
341.394	1	4
341.737	1	6
342.079	1	8
342.421	1	0
342.763	1	8
343.105	1	1
343.447	1	9
343.789	1	8
344.131	1	-13
344.473	1	-2
344.815	1	3
345.157	1	11
345.499	1	-4
345.841	1	1
346.183	1	11
346.526	1	8
346.868	1	-1
347.210	1	2
347.552	1	22
347.894	1	3
348.236	1	9
348.578	1	4
348.920	1	-1
349.262	1	3
349.604	1	-4
349.946	1	2
350.288	1	-1
350.630	1	-1
350.972	1	9
351.314	1	1
351.656	1	2
351.998	1	-1
352.340	1	-2
352.682	1	-6
353.024	1	16
353.366	1	10
353.708	1	-1
354.050	1	-2
354.392	1	3
354.734	1	7
355.076	1	21
355.418	1	2
355.760	1	8
356.102	1	4
356.444	1	15
356.785	1	5
357.127	1	9
357.469	1	5
357.811	1	10
358.153	1	-5
358.495	1	4
358.837	1	5
359.179	1	0
359.521	1	14
359.863	1	1
360.205	1	18
360.547	1	8
360.889	1	-7
361.231	1	5
361.572	1	10
361.914	1	7
362.256	1	16
362.598	1	9
362.940	1	9
363.282	1	4
363.624	1	5
363.966	1	2
364.308	1	16
364.649	1	14
364.991	1	18
365.333	1	12
365.675	1	26
366.017	1	21
366.359	1	3
366.701	1	17
367.042	1	21
367.384	1	4
367.726	1	16
368.068	1	32
368.410	1	29
368.752	1	42
369.093	1	18
369.435	1	30
369.777	1	22
370.119	1	26
370.461	1	14
370.803	1	14
371.144	1	16
371.486	1	25
371.828	1	13
372.170	1	12
372.512	1	5
372.853	1	24
373.195	1	13
373.537	1	6
373.879	1	8
374.220	1	13
374.562	1	20
374.904	1	9
375.246	1	9
375.588	1	3
375.929	1	4
376.271	1	15
376.613	1	10
376.955	1	7
377.296	1	14
377.638	1	3
377.980	1	0
378.321	1	13
378.663	1	10
379.005	1	15
379.347	1	6
379.688	1	15
380.030	1	15
380.372	1	13
380.714	1	7
381.055	1	-2
381.397	1	5
381.739	1	2
382.080	1	-1
382.422	1	19
382.764	1	0
383.105	1	10
383.447	1	2
383.789	1	-4
384.130	1	7
384.472	1	0
384.814	1	13
385.156	1	6
385.497	1	13
385.839	1	3
386.180	1	-2
386.522	1	7
386.864	1	4
387.205	1	5
387.547	1	11
387.889	1	2
388.230	1	-1
388.572	1	4
388.914	1	17
389.255	1	2
389.597	1	8
389.939	1	19
390.280	1	0
390.622	1	-5
390.963	1	-4
391.305	1	-1
391.647	1	6
391.988	1	12
392.330	1	-5
392.671	1	8
393.013	1	-1
393.355	1	12
393.696	1	9
394.038	1	6
394.379	1	4
394.721	1	8
395.062	1	-4
395.404	1	14
395.746	1	0
396.087	1	3
396.429	1	4
396.770	1	7
397.112	1	1
397.453	1	6
397.795	1	0
398.136	1	7
398.478	1	2
398.819	1	6
399.161	1	14
399.503	1	7
399.844	1	3
400.186	1	4
400.527	1	3
400.869	1	0
401.210	1	3
401.552	1	1
401.893	1	2
402.235	1	5
402.576	1	-2
402.918	1	3
403.259	1	-1
403.601	1	17
403.942	1	-3
404.284	1	7
404.625	1	-1
404.967	1	8
405.308	1	-5
405.649	1	3
405.991	1	8
406.332	1	-1
406.674	1	8
407.015	1	8
407.357	1	2
407.698	1	6
408.040	1	21
408.381	1	-1
408.722	1	8
409.064	1	7
409.405	1	-4
409.747	1	0
410.088	1	2
410.430	1	2
410.771	1	12
411.112	1	3
411.454	1	8
411.795	1	13
412.137	1	3
412.478	1	6
412.819	1	12
413.161	1	0
413.502	1	9
413.844	1	8
414.185	1	2
414.526	1	4
414.868	1	-4
415.209	1	0
415.550	1	2
415.892	1	4
416.233	1	11
416.575	1	10
416.916	1	6
417.257	1	1
417.599	1	11
417.940	1	-7
418.281	1	15
418.623	1	3
418.964	1	19
419.305	1	4
419.647	1	12
419.988	1	15
420.329	1	9
420.671	1	14
421.012	1	4
421.353	1	17
421.695	1	12
422.036	1	12
422.377	1	4
422.718	1	18
423.060	1	6
423.401	1	-1
423.742	1	10
424.084	1	7
424.425	1	11
424.766	1	4
425.107	1	8
425.449	1	5
425.790	1	7
426.131	1	-2
426.472	1	10
426.814	1	-4
427.155	1	4
427.496	1	0
427.837	1	2
428.179	1	3
428.520	1	6
428.861	1	15
429.202	1	2
429.544	1	2
429.885	1	11
430.226	1	-7
430.567	1	5
430.909	1	-2
431.250	1	3
431.591	1	11
431.932	1	0
432.273	1	1
432.615	1	2
432.956	1	-3
433.297	1	8
433.638	1	8
433.979	1	2
434.320	1	4
434.662	1	6
435.003	1	8
435.344	1	1
435.685	1	-1
436.026	1	2
436.368	1	0
436.709	1	-2
437.050	1	-1
437.391	1	1
437.732	1	4
438.073	1	-12
438.414	1	6
438.756	1	1
439.097	1	5
439.438	1	1
439.779	1	-3
440.120	1	3
440.461	1	-2
440.802	1	8
441.143	1	-1
441.485	1	2
441.826	1	1
442.167	1	3
442.508	1	9
442.849	1	10
443.190	1	10
443.531	1	3
443.872	1	0
444.213	1	-5
444.554	1	2
444.895	1	-4
445.237	1	7
445.578	1	-8
445.919	1	4
446.260	1	13
446.601	1	9
446.942	1	3
447.283	1	10
447.624	1	0
447.965	1	8
448.306	1	7
448.647	1	4
448.988	1	9
449.329	1	3
449.670	1	7
450.011	1	0
450.352	1	-6
450.693	1	12
451.034	1	1
451.375	1	3
451.716	1	0
452.057	1	3
452.398	1	13
452.739	1	-2
453.080	1	5
453.421	1	11
453.762	1	7
454.103	1	5
454.444	1	9
454.785	1	-2
455.126	1	3
455.467	1	3
455.808	1	10
456.149	1	-10
456.490	1	-8
456.831	1	-4
457.172	1	8
457.513	1	-6
457.854	1	3
458.195	1	-1
458.536	1	4
458.877	1	12
459.218	1	15
459.559	1	4
459.899	1	2
460.240	1	-9
460.581	1	-7
460.922	1	1
461.263	1	9
461.604	1	7
461.945	1	3
462.286	1	9
462.627	1	5
462.968	1	-3
463.309	1	2
463.649	1	-1
463.990	1	6
464.331	1	16
464.672	1	3
465.013	1	7
465.354	1	7
465.695	1	2
466.036	1	9
466.376	1	11
466.717	1	-8
467.058	1	4
467.399	1	-5
467.740	1	15
468.081	1	-4
468.422	1	-3
468.762	1	1
469.103	1	4
469.444	1	5
469.785	1	-4
470.126	1	3
470.467	1	-1
470.807	1	6
471.148	1	-3
471.489	1	10
471.830	1	5
472.171	1	8
472.511	1	6
472.852	1	9
473.193	1	0
473.534	1	5
473.875	1	0
474.215	1	4
474.556	1	-3
474.897	1	-3
475.238	1	13
475.578	1	3
475.919	1	-3
476.260	1	10
476.601	1	3
476.942	1	-1
477.282	1	-4
477.623	1	0
477.964	1	6
478.305	1	5
478.645	1	1
478.986	1	3
479.327	1	5
479.667	1	3
480.008	1	12
480.349	1	4
480.690	1	15
481.030	1	0
481.371	1	-2
481.712	1	10
482.053	1	12
482.393	1	2
482.734	1	5
483.075	1	4
483.415	1	2
483.756	1	3
484.097	1	6
484.437	1	0
484.778	1	0
485.119	1	11
485.459	1	2
485.800	1	-2
486.141	1	3
486.481	1	-13
486.822	1	3
487.163	1	1
487.503	1	5
487.844	1	-6
488.185	1	4
488.525	1	-7
488.866	1	4
489.207	1	4
489.547	1	6
489.888	1	-1
490.228	1	4
490.569	1	-5
490.910	1	11
491.250	1	9
491.591	1	1
491.932	1	4
492.272	1	-5
492.613	1	3
492.953	1	7
493.294	1	-12
493.635	1	4
493.975	1	10
494.316	1	0
494.656	1	4
494.997	1	-12
495.337	1	-2
495.678	1	-3
496.019	1	1
496.359	1	-5
496.700	1	5
497.040	1	0
497.381	1	13
497.721	1	-4
498.062	1	1
498.403	1	7
498.743	1	-1
499.084	1	6
499.424	1	0
499.765	1	2
500.105	1	15
500.446	1	1
500.786	1	-5
501.127	1	7
501.467	1	17
501.808	1	-3
502.148	1	-2
502.489	1	2
502.829	1	-9
503.170	1	9
503.510	1	2
503.851	1	11
504.191	1	0
504.532	1	8
504.872	1	9
505.213	1	3
505.553	1	3
505.894	1	3
506.234	1	13
506.575	1	15
506.915	1	18
507.256	1	5
507.596	1	6
507.936	1	9
508.277	1	14
508.617	1	-3
508.958	1	8
509.298	1	-10
509.639	1	0
509.979	1	2
510.319	1	-2
510.660	1	-1
511.000	1	2
511.341	1	22
511.681	1	6
512.022	1	-9
512.362	1	11
512.702	1	-5
513.043	1	-2
513.383	1	-2
513.724	1	8
514.064	1	16
514.404	1	10
514.745	1	1
515.085	1	7
515.425	1	13
515.766	1	1
516.106	1	4
516.447	1	11
516.787	1	7
517.127	1	15
517.468	1	8
517.808	1	-6
518.148	1	7
518.489	1	-8
518.829	1	4
519.169	1	-6
519.510	1	-2
519.850	1	2
520.190	1	2
520.531	1	11
520.871	1	3
521.211	1	5
521.552	1	5
521.892	1	-4
522.232	1	9
522.573	1	15
522.913	1	11
523.253	1	1
523.593	1	4
523.934	1	16
524.274	1	4
524.614	1	10
524.955	1	-4
525.295	1	11
525.635	1	2
525.975	1	0
526.316	1	-1
526.656	1	10
526.996	1	-4
527.337	1	3
527.677	1	18
528.017	1	-2
528.357	1	4
528.698	1	17
529.038	1	5
529.378	1	4
529.718	1	1
530.058	1	5
530.399	1	4
530.739	1	17
531.079	1	12
531.419	1	6
531.760	1	5
532.100	1	14
532.440	1	16
532.780	1	6
533.120	1	5
533.461	1	6
533.801	1	9
534.141	1	9
534.481	1	19
534.821	1	4
535.162	1	8
535.502	1	14
535.842	1	-3
536.182	1	5
536.522	1	3
536.862	1	0
537.203	1	8
537.543	1	5
537.883	1	-1
538.223	1	15
538.563	1	5
538.903	1	-8
539.243	1	13
539.584	1	5
539.924	1	4
540.264	1	16
540.604	1	20
540.944	1	4
541.284	1	5
541.624	1	1
541.964	1	3
542.305	1	16
542.645	1	-2
542.985	1	0
543.325	1	6
543.665	1	10
544.005	1	6
544.345	1	6
544.685	1	2
545.025	1	8
545.365	1	4
545.705	1	4
546.045	1	8
546.386	1	2
546.726	1	4
547.066	1	6
547.406	1	3
547.746	1	6
548.086	1	5
548.426	1	1
548.766	1	10
549.106	1	5
549.446	1	1
549.786	1	2
550.126	1	12
550.466	1	-2
550.806	1	18
551.146	1	10
551.486	1	11
551.826	1	-1
552.166	1	-1
552.506	1	-5
552.846	1	8
553.186	1	-14
553.526	1	3
553.866	1	-4
554.206	1	15
554.546	1	13
554.886	1	1
555.226	1	11
555.566	1	6
555.906	1	-1
556.246	1	4
556.586	1	3
556.926	1	4
557.266	1	11
557.606	1	-2
557.946	1	5
558.286	1	-5
558.626	1	9
558.966	1	-1
559.306	1	14
559.646	1	8
559.986	1	-4
560.325	1	1
560.665	1	-1
561.005	1	4
561.345	1	-2
561.685	1	-6
562.025	1	3
562.365	1	4
562.705	1	7
563.045	1	2
563.385	1	3
563.725	1	-1
564.064	1	-3
564.404	1	2
564.744	1	8
565.084	1	8
565.424	1	0
565.764	1	4
566.104	1	12
566.444	1	7
566.783	1	-1
567.123	1	0
567.463	1	-4
567.803	1	2
568.143	1	-7
568.483	1	2
568.823	1	3
569.162	1	-2
569.502	1	1
569.842	1	11
570.182	1	5
570.522	1	5
570.862	1	-12
571.201	1	10
571.541	1	4
571.881	1	1
572.221	1	3
572.561	1	12
572.900	1	12
573.240	1	1
573.580	1	4
573.920	1	6
574.260	1	11
574.599	1	9
574.939	1	7
575.279	1	-3
575.619	1	-5
575.959	1	-6
576.298	1	-9
576.638	1	9
576.978	1	2
577.318	1	-10
577.657	1	3
577.997	1	9
578.337	1	8
578.677	1	10
579.016	1	3
579.356	1	3
579.696	1	5
580.036	1	6
580.375	1	-4
580.715	1	3
581.055	1	-2
581.394	1	-1
581.734	1	4
582.074	1	-1
582.414	1	-7
582.753	1	4
583.093	1	4
583.433	1	5
583.772	1	8
584.112	1	5
584.452	1	7
584.791	1	5
585.131	1	-1
585.471	1	2
585.811	1	9
586.150	1	10
586.490	1	7
586.830	1	6
587.169	1	10
587.509	1	7
587.849	1	11
588.188	1	5
588.528	1	5
588.867	1	4
589.207	1	8
589.547	1	9
589.886	1	5
590.226	1	4
590.566	1	4
590.905	1	-4
591.245	1	-5
591.585	1	1
591.924	1	2
592.264	1	4
592.603	1	3
592.943	1	5
593.283	1	2
593.622	1	-7
593.962	1	4
594.301	1	-3
594.641	1	2
594.981	1	2
595.320	1	3
595.660	1	7
595.999	1	7
596.339	1	4
596.678	1	-2
597.018	1	-4
597.358	1	0
597.697	1	-4
598.037	1	6
598.376	1	-3
598.716	1	7
599.055	1	1
599.395	1	1
599.734	1	7
600.074	1	-2
600.413	1	11
600.753	1	0
601.092	1	-1
601.432	1	-6
601.771	1	6
602.111	1	-5
602.451	1	6
602.790	1	1
603.130	1	1
603.469	1	9
603.809	1	12
604.148	1	-7
604.487	1	3
604.827	1	8
605.166	1	7
605.506	1	-7
605.845	1	3
606.185	1	3
606.524	1	5
606.864	1	10
607.203	1	10
607.543	1	0
607.882	1	5
608.222	1	-4
608.561	1	3
608.901	1	13
609.240	1	6
609.579	1	6
609.919	1	-2
610.258	1	8
610.598	1	-10
610.937	1	0
611.277	1	2
611.616	1	15
611.955	1	7
612.295	1	9
612.634	1	3
612.974	1	6
613.313	1	7
613.652	1	5
613.992	1	6
614.331	1	12
614.671	1	10
615.010	1	5
615.349	1	6
615.689	1	-8
616.028	1	12
616.368	1	13
616.707	1	9
617.046	1	-4
617.386	1	20
617.725	1	-9
618.064	1	-6
618.404	1	0
618.743	1	1
619.082	1	-1
619.422	1	20
619.761	1	2
620.100	1	6
620.440	1	-2
620.779	1	2
621.118	1	12
621.458	1	1
621.797	1	6
622.136	1	-7
622.476	1	9
622.815	1	-7
623.154	1	-14
623.494	1	-14
623.833	1	0
624.172	1	3
624.511	1	2
624.851	1	15
625.190	1	-6
625.529	1	-3
625.869	1	13
626.208	1	-1
626.547	1	4
626.886	1	-2
627.226	1	10
627.565	1	-2
627.904	1	-6
628.243	1	12
628.583	1	-1
628.922	1	11
629.261	1	-4
629.600	1	-4
629.940	1	8
630.279	1	2
630.618	1	4
630.957	1	1
631.297	1	6
631.636	1	-1
631.975	1	11
632.314	1	3
632.653	1	-1
632.993	1	5
633.332	1	2
633.671	1	16
634.010	1	4
634.349	1	2
634.689	1	2
635.028	1	1
635.367	1	15
635.706	1	1
636.045	1	-4
636.384	1	7
636.724	1	5
637.063	1	-5
637.402	1	9
637.741	1	-1
638.080	1	6
638.419	1	6
638.759	1	3
639.098	1	-1
639.437	1	-2
639.776	1	2
640.115	1	-5
640.454	1	6
640.793	1	-6
641.132	1	1
641.472	1	5
641.811	1	-4
642.150	1	7
642.489	1	12
642.828	1	14
643.167	1	-3
643.506	1	2
643.845	1	7
644.184	1	15
644.524	1	-2
644.863	1	2
645.202	1	2
645.541	1	6
645.880	1	10
646.219	1	4
646.558	1	-4
646.897	1	-5
647.236	1	-12
647.575	1	9
647.914	1	1
648.253	1	9
648.592	1	4
648.931	1	2
649.270	1	6
649.610	1	10
649.949	1	-6
650.288	1	3
650.627	1	3
650.966	1	1
651.305	1	1
651.644	1	11
651.983	1	-5
652.322	1	-4
652.661	1	0
653.000	1	2
653.339	1	-3
653.678	1	-1
654.017	1	1
654.356	1	6
654.695	1	16
655.034	1	-5
655.373	1	2
655.712	1	7
656.051	1	-3
656.390	1	0
656.729	1	11
657.068	1	8
657.406	1	9
657.745	1	9
658.084	1	5
658.423	1	3
658.762	1	-11
659.101	1	1
659.440	1	11
659.779	1	8
660.118	1	-2
660.457	1	7
660.796	1	4
661.135	1	10
661.474	1	8
661.813	1	6
662.152	1	4
662.491	1	7
662.829	1	-7
663.168	1	0
663.507	1	6
663.846	1	-2
664.185	1	-2
664.524	1	14
664.863	1	-8
665.202	1	5
665.541	1	5
665.879	1	3
666.218	1	8
666.557	1	1
666.896	1	3
667.235	1	-12
667.574	1	3
667.913	1	7
668.251	1	-1
668.590	1	1
668.929	1	11
669.268	1	1
669.607	1	-7
669.946	1	6
670.285	1	-3
670.623	1	2
670.962	1	-5
671.301	1	9
671.640	1	11
671.979	1	5
672.317	1	2
672.656	1	13
672.995	1	2
673.334	1	-3
673.673	1	10
674.011	1	5
674.350	1	-3
674.689	1	-2
675.028	1	3
675.367	1	2
675.705	1	-7
676.044	1	1
676.383	1	-6
676.722	1	4
677.060	1	7
677.399	1	10
677.738	1	-7
678.077	1	-1
678.416	1	10
678.754	1	3
679.093	1	12
679.432	1	-10
679.771	1	0
680.109	1	0
680.448	1	4
680.787	1	-9
681.125	1	1
681.464	1	9
681.803	1	-4
682.142	1	7
682.480	1	-5
682.819	1	-6
683.158	1	0
683.496	1	5
683.835	1	14
684.174	1	-6
684.512	1	-3
684.851	1	1
685.190	1	3
685.529	1	-5
685.867	1	4
686.206	1	-5
686.545	1	4
686.883	1	8
687.222	1	1
687.561	1	4
687.899	1	3
688.238	1	3
688.577	1	2
688.746	1	-8