File: Data/GaN_150K_450ms/GaN_sample D_spot15_UVVIS_150 K_200um_450 ms 2x2mm1_70.txt
340.368	1	0
340.710	1	2
341.052	1	5
341.394	1	-4
341.737	1	6
342.079	1	2
342.421	1	6
342.763	1	5
343.105	1	12
343.447	1	12
343.789	1	7
344.131	1	-9
344.473	1	-1
344.815	1	4
345.157	1	13
345.499	1	8
345.841	1	11
346.183	1	7
346.526	1	6
346.868	1	3
347.210	1	-2
347.552	1	21
347.894	1	-9
348.236	1	11
348.578	1	9
348.920	1	14
349.262	1	15
349.604	1	11
349.946	1	1
350.288	1	-5
350.630	1	7
350.972	1	14
351.314	1	3
351.656	1	10
351.998	1	7
352.340	1	18
352.682	1	5
353.024	1	21
353.366	1	15
353.708	1	10
354.050	1	11
354.392	1	9
354.734	1	16
355.076	1	17
355.418	1	12
355.760	1	19
356.102	1	14
356.444	1	19
356.785	1	23
357.127	1	30
357.469	1	18
357.811	1	28
358.153	1	11
358.495	1	27
358.837	1	43
359.179	1	29
359.521	1	41
359.863	1	28
360.205	1	49
360.547	1	42
360.889	1	39
361.231	1	54
361.572	1	56
361.914	1	63
362.256	1	74
362.598	1	79
362.940	1	90
363.282	1	88
363.624	1	100
363.966	1	101
364.308	1	118
364.649	1	136
364.991	1	149
365.333	1	167
365.675	1	193
366.017	1	210
366.359	1	199
366.701	1	224
367.042	1	237
367.384	1	232
367.726	1	245
368.068	1	259
368.410	1	260
368.752	1	246
369.093	1	245
369.435	1	242
369.777	1	246
370.119	1	210
370.461	1	212
370.803	1	178
371.144	1	185
371.486	1	161
371.828	1	156
372.170	1	154
372.512	1	152
372.853	1	139
373.195	1	131
373.537	1	108
373.879	1	121
374.220	1	120
374.562	1	96
374.904	1	105
375.246	1	89
375.588	1	93
375.929	1	82
376.271	1	82
376.613	1	83
376.955	1	83
377.296	1	78
377.638	1	56
377.980	1	60
378.321	1	75
378.663	1	60
379.005	1	65
379.347	1	52
379.688	1	58
380.030	1	54
380.372	1	57
380.714	1	49
381.055	1	34
381.397	1	45
381.739	1	43
382.080	1	43
382.422	1	46
382.764	1	42
383.105	1	37
383.447	1	36
383.789	1	36
384.130	1	39
384.472	1	33
384.814	1	38
385.156	1	39
385.497	1	46
385.839	1	34
386.180	1	39
386.522	1	34
386.864	1	30
387.205	1	31
387.547	1	40
387.889	1	21
388.230	1	29
388.572	1	31
388.914	1	38
389.255	1	25
389.597	1	31
389.939	1	42
390.280	1	16
390.622	1	23
390.963	1	11
391.305	1	19
391.647	1	20
391.988	1	27
392.330	1	15
392.671	1	26
393.013	1	28
393.355	1	28
393.696	1	24
394.038	1	20
394.379	1	19
394.721	1	12
395.062	1	21
395.404	1	26
395.746	1	7
396.087	1	33
396.429	1	23
396.770	1	15
397.112	1	25
397.453	1	18
397.795	1	19
398.136	1	21
398.478	1	17
398.819	1	24
399.161	1	28
399.503	1	22
399.844	1	17
400.186	1	18
400.527	1	18
400.869	1	19
401.210	1	18
401.552	1	15
401.893	1	16
402.235	1	17
402.576	1	17
402.918	1	12
403.259	1	18
403.601	1	25
403.942	1	17
404.284	1	27
404.625	1	12
404.967	1	22
405.308	1	9
405.649	1	16
405.991	1	19
406.332	1	16
406.674	1	25
407.015	1	17
407.357	1	18
407.698	1	11
408.040	1	24
408.381	1	17
408.722	1	18
409.064	1	24
409.405	1	24
409.747	1	13
410.088	1	26
410.430	1	31
410.771	1	14
411.112	1	15
411.454	1	12
411.795	1	18
412.137	1	17
412.478	1	25
412.819	1	25
413.161	1	18
413.502	1	21
413.844	1	29
414.185	1	8
414.526	1	4
414.868	1	15
415.209	1	7
415.550	1	12
415.892	1	22
416.233	1	20
416.575	1	5
416.916	1	12
417.257	1	10
417.599	1	24
417.940	1	7
418.281	1	20
418.623	1	10
418.964	1	25
419.305	1	10
419.647	1	17
419.988	1	25
420.329	1	17
420.671	1	24
421.012	1	3
421.353	1	18
421.695	1	13
422.036	1	32
422.377	1	17
422.718	1	17
423.060	1	19
423.401	1	12
423.742	1	21
424.084	1	17
424.425	1	17
424.766	1	5
425.107	1	7
425.449	1	25
425.790	1	8
426.131	1	15
426.472	1	21
426.814	1	15
427.155	1	18
427.496	1	11
427.837	1	8
428.179	1	24
428.520	1	17
428.861	1	10
429.202	1	10
429.544	1	14
429.885	1	20
430.226	1	3
430.567	1	8
430.909	1	8
431.250	1	19
431.591	1	18
431.932	1	13
432.273	1	22
432.615	1	12
432.956	1	18
433.297	1	14
433.638	1	15
433.979	1	15
434.320	1	17
434.662	1	20
435.003	1	20
435.344	1	9
435.685	1	12
436.026	1	11
436.368	1	12
436.709	1	13
437.050	1	7
437.391	1	10
437.732	1	20
438.073	1	11
438.414	1	23
438.756	1	14
439.097	1	16
439.438	1	19
439.779	1	15
440.120	1	14
440.461	1	14
440.802	1	16
441.143	1	16
441.485	1	15
441.826	1	12
442.167	1	18
442.508	1	14
442.849	1	20
443.190	1	15
443.531	1	16
443.872	1	3
444.213	1	6
444.554	1	21
444.895	1	11
445.237	1	13
445.578	1	8
445.919	1	9
446.260	1	23
446.601	1	9
446.942	1	7
447.283	1	16
447.624	1	2
447.965	1	9
448.306	1	14
448.647	1	10
448.988	1	15
449.329	1	11
449.670	1	14
450.011	1	13
450.352	1	3
450.693	1	15
451.034	1	13
451.375	1	7
451.716	1	9
452.057	1	8
452.398	1	22
452.739	1	14
453.080	1	25
453.421	1	18
453.762	1	23
454.103	1	15
454.444	1	19
454.785	1	13
455.126	1	13
455.467	1	8
455.808	1	14
456.149	1	7
456.490	1	8
456.831	1	9
457.172	1	5
457.513	1	4
457.854	1	3
458.195	1	12
458.536	1	11
458.877	1	14
459.218	1	14
459.559	1	20
459.899	1	5
460.240	1	-1
460.581	1	5
460.922	1	13
461.263	1	24
461.604	1	18
461.945	1	14
462.286	1	17
462.627	1	18
462.968	1	14
463.309	1	11
463.649	1	2
463.990	1	12
464.331	1	15
464.672	1	13
465.013	1	7
465.354	1	12
465.695	1	20
466.036	1	17
466.376	1	20
466.717	1	2
467.058	1	10
467.399	1	2
467.740	1	14
468.081	1	7
468.422	1	15
468.762	1	12
469.103	1	14
469.444	1	11
469.785	1	8
470.126	1	17
470.467	1	15
470.807	1	18
471.148	1	9
471.489	1	14
471.830	1	8
472.171	1	14
472.511	1	17
472.852	1	15
473.193	1	12
473.534	1	12
473.875	1	9
474.215	1	17
474.556	1	1
474.897	1	9
475.238	1	24
475.578	1	5
475.919	1	14
476.260	1	4
476.601	1	11
476.942	1	9
477.282	1	-3
477.623	1	6
477.964	1	8
478.305	1	7
478.645	1	13
478.986	1	16
479.327	1	17
479.667	1	9
480.008	1	9
480.349	1	12
480.690	1	13
481.030	1	5
481.371	1	6
481.712	1	30
482.053	1	21
482.393	1	14
482.734	1	18
483.075	1	14
483.415	1	11
483.756	1	15
484.097	1	20
484.437	1	21
484.778	1	8
485.119	1	23
485.459	1	16
485.800	1	2
486.141	1	21
486.481	1	6
486.822	1	23
487.163	1	16
487.503	1	24
487.844	1	7
488.185	1	22
488.525	1	16
488.866	1	15
489.207	1	21
489.547	1	19
489.888	1	14
490.228	1	12
490.569	1	21
490.910	1	27
491.250	1	35
491.591	1	23
491.932	1	27
492.272	1	22
492.613	1	19
492.953	1	29
493.294	1	18
493.635	1	30
493.975	1	21
494.316	1	20
494.656	1	35
494.997	1	22
495.337	1	22
495.678	1	23
496.019	1	27
496.359	1	27
496.700	1	25
497.040	1	27
497.381	1	33
497.721	1	17
498.062	1	31
498.403	1	33
498.743	1	26
499.084	1	26
499.424	1	34
499.765	1	33
500.105	1	48
500.446	1	32
500.786	1	27
501.127	1	33
501.467	1	51
501.808	1	34
502.148	1	34
502.489	1	37
502.829	1	28
503.170	1	45
503.510	1	43
503.851	1	41
504.191	1	32
504.532	1	51
504.872	1	39
505.213	1	35
505.553	1	37
505.894	1	37
506.234	1	51
506.575	1	56
506.915	1	45
507.256	1	54
507.596	1	53
507.936	1	51
508.277	1	62
508.617	1	55
508.958	1	56
509.298	1	42
509.639	1	44
509.979	1	48
510.319	1	43
510.660	1	40
511.000	1	48
511.341	1	51
511.681	1	45
512.022	1	37
512.362	1	57
512.702	1	44
513.043	1	43
513.383	1	46
513.724	1	57
514.064	1	45
514.404	1	52
514.745	1	54
515.085	1	58
515.425	1	52
515.766	1	52
516.106	1	52
516.447	1	62
516.787	1	48
517.127	1	63
517.468	1	68
517.808	1	53
518.148	1	64
518.489	1	67
518.829	1	70
519.169	1	51
519.510	1	48
519.850	1	65
520.190	1	59
520.531	1	62
520.871	1	55
521.211	1	54
521.552	1	57
521.892	1	58
522.232	1	61
522.573	1	61
522.913	1	67
523.253	1	72
523.593	1	66
523.934	1	61
524.274	1	64
524.614	1	61
524.955	1	50
525.295	1	67
525.635	1	67
525.975	1	56
526.316	1	55
526.656	1	61
526.996	1	62
527.337	1	66
527.677	1	78
528.017	1	69
528.357	1	62
528.698	1	57
529.038	1	68
529.378	1	67
529.718	1	63
530.058	1	67
530.399	1	69
530.739	1	69
531.079	1	70
531.419	1	68
531.760	1	77
532.100	1	70
532.440	1	60
532.780	1	73
533.120	1	64
533.461	1	62
533.801	1	74
534.141	1	60
534.481	1	76
534.821	1	62
535.162	1	75
535.502	1	61
535.842	1	54
536.182	1	58
536.522	1	60
536.862	1	61
537.203	1	58
537.543	1	64
537.883	1	55
538.223	1	80
538.563	1	59
538.903	1	55
539.243	1	52
539.584	1	55
539.924	1	56
540.264	1	53
540.604	1	65
540.944	1	55
541.284	1	60
541.624	1	57
541.964	1	56
542.305	1	63
542.645	1	57
542.985	1	51
543.325	1	61
543.665	1	48
544.005	1	53
544.345	1	58
544.685	1	43
545.025	1	60
545.365	1	56
545.705	1	58
546.045	1	52
546.386	1	46
546.726	1	56
547.066	1	60
547.406	1	47
547.746	1	51
548.086	1	54
548.426	1	48
548.766	1	60
549.106	1	58
549.446	1	56
549.786	1	58
550.126	1	51
550.466	1	46
550.806	1	69
551.146	1	52
551.486	1	43
551.826	1	43
552.166	1	44
552.506	1	47
552.846	1	47
553.186	1	32
553.526	1	61
553.866	1	53
554.206	1	53
554.546	1	54
554.886	1	46
555.226	1	47
555.566	1	40
555.906	1	48
556.246	1	49
556.586	1	46
556.926	1	44
557.266	1	53
557.606	1	36
557.946	1	46
558.286	1	25
558.626	1	42
558.966	1	34
559.306	1	50
559.646	1	44
559.986	1	44
560.325	1	42
560.665	1	32
561.005	1	35
561.345	1	38
561.685	1	43
562.025	1	38
562.365	1	38
562.705	1	44
563.045	1	46
563.385	1	46
563.725	1	41
564.064	1	42
564.404	1	30
564.744	1	50
565.084	1	45
565.424	1	35
565.764	1	43
566.104	1	31
566.444	1	40
566.783	1	50
567.123	1	29
567.463	1	47
567.803	1	42
568.143	1	41
568.483	1	42
568.823	1	28
569.162	1	28
569.502	1	35
569.842	1	31
570.182	1	33
570.522	1	26
570.862	1	21
571.201	1	45
571.541	1	30
571.881	1	36
572.221	1	39
572.561	1	44
572.900	1	36
573.240	1	25
573.580	1	30
573.920	1	37
574.260	1	38
574.599	1	33
574.939	1	17
575.279	1	25
575.619	1	26
575.959	1	23
576.298	1	21
576.638	1	20
576.978	1	35
577.318	1	30
577.657	1	24
577.997	1	26
578.337	1	21
578.677	1	40
579.016	1	36
579.356	1	28
579.696	1	29
580.036	1	23
580.375	1	26
580.715	1	30
581.055	1	32
581.394	1	28
581.734	1	28
582.074	1	28
582.414	1	28
582.753	1	25
583.093	1	21
583.433	1	32
583.772	1	27
584.112	1	22
584.452	1	21
584.791	1	22
585.131	1	25
585.471	1	23
585.811	1	22
586.150	1	26
586.490	1	17
586.830	1	16
587.169	1	16
587.509	1	19
587.849	1	25
588.188	1	30
588.528	1	7
588.867	1	22
589.207	1	20
589.547	1	36
589.886	1	17
590.226	1	22
590.566	1	14
590.905	1	14
591.245	1	8
591.585	1	13
591.924	1	13
592.264	1	24
592.603	1	7
592.943	1	13
593.283	1	19
593.622	1	18
593.962	1	22
594.301	1	6
594.641	1	17
594.981	1	13
595.320	1	20
595.660	1	22
595.999	1	23
596.339	1	16
596.678	1	17
597.018	1	8
597.358	1	21
597.697	1	2
598.037	1	17
598.376	1	9
598.716	1	15
599.055	1	20
599.395	1	8
599.734	1	20
600.074	1	13
600.413	1	21
600.753	1	20
601.092	1	1
601.432	1	13
601.771	1	19
602.111	1	15
602.451	1	14
602.790	1	20
603.130	1	13
603.469	1	17
603.809	1	11
604.148	1	6
604.487	1	26
604.827	1	20
605.166	1	15
605.506	1	11
605.845	1	20
606.185	1	4
606.524	1	9
606.864	1	22
607.203	1	17
607.543	1	15
607.882	1	21
608.222	1	9
608.561	1	11
608.901	1	21
609.240	1	17
609.579	1	12
609.919	1	8
610.258	1	21
610.598	1	7
610.937	1	16
611.277	1	26
611.616	1	20
611.955	1	13
612.295	1	5
612.634	1	23
612.974	1	11
613.313	1	13
613.652	1	21
613.992	1	9
614.331	1	31
614.671	1	16
615.010	1	10
615.349	1	15
615.689	1	8
616.028	1	31
616.368	1	14
616.707	1	19
617.046	1	6
617.386	1	19
617.725	1	6
618.064	1	7
618.404	1	11
618.743	1	7
619.082	1	22
619.422	1	23
619.761	1	3
620.100	1	14
620.440	1	14
620.779	1	10
621.118	1	19
621.458	1	10
621.797	1	6
622.136	1	10
622.476	1	7
622.815	1	17
623.154	1	4
623.494	1	3
623.833	1	7
624.172	1	12
624.511	1	4
624.851	1	4
625.190	1	8
625.529	1	3
625.869	1	16
626.208	1	11
626.547	1	-3
626.886	1	9
627.226	1	16
627.565	1	18
627.904	1	8
628.243	1	15
628.583	1	23
628.922	1	13
629.261	1	13
629.600	1	10
629.940	1	12
630.279	1	19
630.618	1	15
630.957	1	9
631.297	1	12
631.636	1	-1
631.975	1	19
632.314	1	11
632.653	1	6
632.993	1	10
633.332	1	15
633.671	1	13
634.010	1	5
634.349	1	18
634.689	1	9
635.028	1	6
635.367	1	12
635.706	1	10
636.045	1	-3
636.384	1	17
636.724	1	12
637.063	1	-5
637.402	1	11
637.741	1	11
638.080	1	20
638.419	1	3
638.759	1	11
639.098	1	16
639.437	1	9
639.776	1	13
640.115	1	1
640.454	1	3
640.793	1	17
641.132	1	12
641.472	1	21
641.811	1	10
642.150	1	1
642.489	1	17
642.828	1	9
643.167	1	3
643.506	1	7
643.845	1	19
644.184	1	20
644.524	1	4
644.863	1	5
645.202	1	4
645.541	1	7
645.880	1	27
646.219	1	7
646.558	1	-1
646.897	1	4
647.236	1	-8
647.575	1	9
647.914	1	12
648.253	1	13
648.592	1	13
648.931	1	7
649.270	1	15
649.610	1	17
649.949	1	8
650.288	1	5
650.627	1	12
650.966	1	15
651.305	1	13
651.644	1	22
651.983	1	6
652.322	1	2
652.661	1	8
653.000	1	12
653.339	1	6
653.678	1	18
654.017	1	14
654.356	1	17
654.695	1	16
655.034	1	7
655.373	1	11
655.712	1	10
656.051	1	-1
656.390	1	3
656.729	1	14
657.068	1	15
657.406	1	6
657.745	1	21
658.084	1	7
658.423	1	11
658.762	1	10
659.101	1	4
659.440	1	8
659.779	1	9
660.118	1	3
660.457	1	14
660.796	1	17
661.135	1	7
661.474	1	10
661.813	1	11
662.152	1	16
662.491	1	2
662.829	1	13
663.168	1	8
663.507	1	13
663.846	1	10
664.185	1	5
664.524	1	21
664.863	1	0
665.202	1	12
665.541	1	7
665.879	1	12
666.218	1	4
666.557	1	9
666.896	1	18
667.235	1	6
667.574	1	7
667.913	1	8
668.251	1	0
668.590	1	6
668.929	1	4
669.268	1	4
669.607	1	-1
669.946	1	5
670.285	1	5
670.623	1	6
670.962	1	0
671.301	1	13
671.640	1	10
671.979	1	6
672.317	1	10
672.656	1	16
672.995	1	8
673.334	1	9
673.673	1	22
674.011	1	4
674.350	1	6
674.689	1	5
675.028	1	20
675.367	1	7
675.705	1	6
676.044	1	5
676.383	1	7
676.722	1	10
677.060	1	9
677.399	1	24
677.738	1	0
678.077	1	3
678.416	1	11
678.754	1	7
679.093	1	25
679.432	1	-3
679.771	1	3
680.109	1	9
680.448	1	7
680.787	1	-6
681.125	1	4
681.464	1	15
681.803	1	2
682.142	1	13
682.480	1	10
682.819	1	10
683.158	1	-2
683.496	1	0
683.835	1	10
684.174	1	8
684.512	1	13
684.851	1	11
685.190	1	5
685.529	1	8
685.867	1	9
686.206	1	1
686.545	1	18
686.883	1	16
687.222	1	16
687.561	1	16
687.899	1	6
688.238	1	13
688.577	1	10
688.746	1	7