File: Data/GaN_150K_450ms/GaN_sample D_spot15_UVVIS_150 K_200um_450 ms 2x2mm1_132.txt
340.368	1	-3
340.710	1	6
341.052	1	3
341.394	1	-8
341.737	1	1
342.079	1	-4
342.421	1	2
342.763	1	4
343.105	1	6
343.447	1	1
343.789	1	10
344.131	1	-9
344.473	1	6
344.815	1	7
345.157	1	8
345.499	1	-2
345.841	1	8
346.183	1	-1
346.526	1	10
346.868	1	2
347.210	1	-2
347.552	1	11
347.894	1	0
348.236	1	8
348.578	1	11
348.920	1	3
349.262	1	0
349.604	1	1
349.946	1	12
350.288	1	0
350.630	1	4
350.972	1	11
351.314	1	1
351.656	1	7
351.998	1	-3
352.340	1	12
352.682	1	-12
353.024	1	21
353.366	1	5
353.708	1	7
354.050	1	-6
354.392	1	0
354.734	1	8
355.076	1	17
355.418	1	6
355.760	1	8
356.102	1	6
356.444	1	16
356.785	1	15
357.127	1	15
357.469	1	11
357.811	1	9
358.153	1	1
358.495	1	1
358.837	1	13
359.179	1	11
359.521	1	22
359.863	1	20
360.205	1	11
360.547	1	21
360.889	1	4
361.231	1	12
361.572	1	17
361.914	1	7
362.256	1	17
362.598	1	25
362.940	1	22
363.282	1	27
363.624	1	17
363.966	1	23
364.308	1	39
364.649	1	33
364.991	1	35
365.333	1	36
365.675	1	48
366.017	1	47
366.359	1	47
366.701	1	38
367.042	1	59
367.384	1	42
367.726	1	58
368.068	1	63
368.410	1	56
368.752	1	60
369.093	1	47
369.435	1	54
369.777	1	59
370.119	1	47
370.461	1	33
370.803	1	48
371.144	1	38
371.486	1	59
371.828	1	38
372.170	1	43
372.512	1	29
372.853	1	51
373.195	1	29
373.537	1	20
373.879	1	20
374.220	1	32
374.562	1	40
374.904	1	32
375.246	1	27
375.588	1	20
375.929	1	26
376.271	1	19
376.613	1	20
376.955	1	15
377.296	1	22
377.638	1	17
377.980	1	19
378.321	1	18
378.663	1	13
379.005	1	19
379.347	1	27
379.688	1	20
380.030	1	23
380.372	1	17
380.714	1	22
381.055	1	1
381.397	1	9
381.739	1	1
382.080	1	22
382.422	1	14
382.764	1	16
383.105	1	11
383.447	1	8
383.789	1	9
384.130	1	8
384.472	1	5
384.814	1	17
385.156	1	17
385.497	1	22
385.839	1	8
386.180	1	13
386.522	1	8
386.864	1	4
387.205	1	13
387.547	1	11
387.889	1	-3
388.230	1	7
388.572	1	2
388.914	1	13
389.255	1	10
389.597	1	8
389.939	1	7
390.280	1	14
390.622	1	5
390.963	1	-4
391.305	1	4
391.647	1	6
391.988	1	1
392.330	1	8
392.671	1	11
393.013	1	10
393.355	1	17
393.696	1	5
394.038	1	11
394.379	1	6
394.721	1	8
395.062	1	0
395.404	1	15
395.746	1	-4
396.087	1	5
396.429	1	4
396.770	1	8
397.112	1	11
397.453	1	-9
397.795	1	9
398.136	1	14
398.478	1	11
398.819	1	13
399.161	1	11
399.503	1	22
399.844	1	1
400.186	1	12
400.527	1	11
400.869	1	9
401.210	1	10
401.552	1	15
401.893	1	5
402.235	1	7
402.576	1	10
402.918	1	1
403.259	1	12
403.601	1	13
403.942	1	3
404.284	1	22
404.625	1	10
404.967	1	14
405.308	1	2
405.649	1	13
405.991	1	11
406.332	1	17
406.674	1	9
407.015	1	12
407.357	1	18
407.698	1	13
408.040	1	27
408.381	1	-3
408.722	1	7
409.064	1	14
409.405	1	18
409.747	1	12
410.088	1	6
410.430	1	16
410.771	1	12
411.112	1	8
411.454	1	17
411.795	1	6
412.137	1	6
412.478	1	15
412.819	1	12
413.161	1	8
413.502	1	12
413.844	1	21
414.185	1	12
414.526	1	2
414.868	1	9
415.209	1	1
415.550	1	12
415.892	1	9
416.233	1	4
416.575	1	-2
416.916	1	7
417.257	1	7
417.599	1	21
417.940	1	8
418.281	1	17
418.623	1	13
418.964	1	30
419.305	1	22
419.647	1	17
419.988	1	21
420.329	1	12
420.671	1	15
421.012	1	6
421.353	1	28
421.695	1	13
422.036	1	14
422.377	1	-1
422.718	1	7
423.060	1	17
423.401	1	10
423.742	1	19
424.084	1	9
424.425	1	25
424.766	1	20
425.107	1	6
425.449	1	12
425.790	1	12
426.131	1	-2
426.472	1	10
426.814	1	4
427.155	1	17
427.496	1	14
427.837	1	9
428.179	1	21
428.520	1	17
428.861	1	12
429.202	1	5
429.544	1	3
429.885	1	9
430.226	1	-5
430.567	1	3
430.909	1	8
431.250	1	8
431.591	1	9
431.932	1	5
432.273	1	19
432.615	1	10
432.956	1	8
433.297	1	12
433.638	1	24
433.979	1	20
434.320	1	4
434.662	1	15
435.003	1	18
435.344	1	8
435.685	1	6
436.026	1	2
436.368	1	3
436.709	1	6
437.050	1	4
437.391	1	12
437.732	1	9
438.073	1	0
438.414	1	9
438.756	1	9
439.097	1	18
439.438	1	9
439.779	1	14
440.120	1	13
440.461	1	12
440.802	1	13
441.143	1	12
441.485	1	8
441.826	1	5
442.167	1	12
442.508	1	18
442.849	1	7
443.190	1	7
443.531	1	16
443.872	1	7
444.213	1	2
444.554	1	11
444.895	1	4
445.237	1	9
445.578	1	10
445.919	1	10
446.260	1	16
446.601	1	1
446.942	1	0
447.283	1	14
447.624	1	0
447.965	1	12
448.306	1	6
448.647	1	7
448.988	1	10
449.329	1	8
449.670	1	4
450.011	1	11
450.352	1	0
450.693	1	19
451.034	1	-2
451.375	1	4
451.716	1	1
452.057	1	8
452.398	1	17
452.739	1	13
453.080	1	3
453.421	1	15
453.762	1	7
454.103	1	4
454.444	1	2
454.785	1	7
455.126	1	9
455.467	1	11
455.808	1	16
456.149	1	-1
456.490	1	6
456.831	1	11
457.172	1	9
457.513	1	-3
457.854	1	7
458.195	1	14
458.536	1	15
458.877	1	2
459.218	1	12
459.559	1	11
459.899	1	-4
460.240	1	2
460.581	1	-1
460.922	1	9
461.263	1	16
461.604	1	11
461.945	1	11
462.286	1	4
462.627	1	2
462.968	1	6
463.309	1	9
463.649	1	-7
463.990	1	-2
464.331	1	4
464.672	1	8
465.013	1	7
465.354	1	21
465.695	1	1
466.036	1	7
466.376	1	9
466.717	1	0
467.058	1	5
467.399	1	5
467.740	1	15
468.081	1	10
468.422	1	7
468.762	1	11
469.103	1	10
469.444	1	0
469.785	1	1
470.126	1	12
470.467	1	9
470.807	1	2
471.148	1	3
471.489	1	10
471.830	1	8
472.171	1	18
472.511	1	6
472.852	1	9
473.193	1	14
473.534	1	5
473.875	1	4
474.215	1	2
474.556	1	1
474.897	1	5
475.238	1	4
475.578	1	5
475.919	1	6
476.260	1	-3
476.601	1	2
476.942	1	4
477.282	1	2
477.623	1	5
477.964	1	-3
478.305	1	10
478.645	1	4
478.986	1	8
479.327	1	4
479.667	1	10
480.008	1	-2
480.349	1	-1
480.690	1	14
481.030	1	5
481.371	1	4
481.712	1	6
482.053	1	7
482.393	1	9
482.734	1	4
483.075	1	19
483.415	1	1
483.756	1	6
484.097	1	8
484.437	1	17
484.778	1	-5
485.119	1	1
485.459	1	2
485.800	1	1
486.141	1	9
486.481	1	-1
486.822	1	6
487.163	1	1
487.503	1	12
487.844	1	0
488.185	1	10
488.525	1	7
488.866	1	1
489.207	1	11
489.547	1	7
489.888	1	16
490.228	1	2
490.569	1	7
490.910	1	14
491.250	1	6
491.591	1	5
491.932	1	11
492.272	1	11
492.613	1	2
492.953	1	6
493.294	1	3
493.635	1	3
493.975	1	20
494.316	1	5
494.656	1	12
494.997	1	0
495.337	1	7
495.678	1	8
496.019	1	13
496.359	1	8
496.700	1	16
497.040	1	5
497.381	1	11
497.721	1	-2
498.062	1	11
498.403	1	11
498.743	1	8
499.084	1	9
499.424	1	12
499.765	1	6
500.105	1	11
500.446	1	4
500.786	1	2
501.127	1	13
501.467	1	17
501.808	1	6
502.148	1	2
502.489	1	-3
502.829	1	9
503.170	1	1
503.510	1	3
503.851	1	16
504.191	1	9
504.532	1	11
504.872	1	5
505.213	1	5
505.553	1	6
505.894	1	18
506.234	1	14
506.575	1	21
506.915	1	8
507.256	1	11
507.596	1	11
507.936	1	10
508.277	1	19
508.617	1	12
508.958	1	17
509.298	1	3
509.639	1	5
509.979	1	10
510.319	1	6
510.660	1	9
511.000	1	8
511.341	1	17
511.681	1	14
512.022	1	-5
512.362	1	13
512.702	1	6
513.043	1	6
513.383	1	5
513.724	1	8
514.064	1	16
514.404	1	20
514.745	1	3
515.085	1	18
515.425	1	12
515.766	1	7
516.106	1	6
516.447	1	16
516.787	1	15
517.127	1	12
517.468	1	29
517.808	1	3
518.148	1	17
518.489	1	13
518.829	1	23
519.169	1	10
519.510	1	3
519.850	1	11
520.190	1	11
520.531	1	5
520.871	1	15
521.211	1	14
521.552	1	9
521.892	1	24
522.232	1	14
522.573	1	20
522.913	1	15
523.253	1	15
523.593	1	17
523.934	1	18
524.274	1	10
524.614	1	13
524.955	1	7
525.295	1	11
525.635	1	13
525.975	1	14
526.316	1	7
526.656	1	16
526.996	1	7
527.337	1	22
527.677	1	21
528.017	1	-1
528.357	1	16
528.698	1	19
529.038	1	7
529.378	1	23
529.718	1	7
530.058	1	15
530.399	1	15
530.739	1	22
531.079	1	12
531.419	1	9
531.760	1	21
532.100	1	23
532.440	1	15
532.780	1	23
533.120	1	5
533.461	1	10
533.801	1	10
534.141	1	14
534.481	1	32
534.821	1	10
535.162	1	13
535.502	1	10
535.842	1	4
536.182	1	14
536.522	1	14
536.862	1	11
537.203	1	14
537.543	1	19
537.883	1	10
538.223	1	26
538.563	1	12
538.903	1	7
539.243	1	17
539.584	1	5
539.924	1	13
540.264	1	17
540.604	1	17
540.944	1	13
541.284	1	17
541.624	1	8
541.964	1	17
542.305	1	14
542.645	1	15
542.985	1	10
543.325	1	17
543.665	1	8
544.005	1	6
544.345	1	18
544.685	1	13
545.025	1	12
545.365	1	21
545.705	1	11
546.045	1	14
546.386	1	2
546.726	1	14
547.066	1	8
547.406	1	4
547.746	1	7
548.086	1	17
548.426	1	11
548.766	1	15
549.106	1	5
549.446	1	13
549.786	1	21
550.126	1	9
550.466	1	2
550.806	1	18
551.146	1	16
551.486	1	8
551.826	1	7
552.166	1	15
552.506	1	11
552.846	1	14
553.186	1	5
553.526	1	14
553.866	1	14
554.206	1	15
554.546	1	11
554.886	1	7
555.226	1	8
555.566	1	16
555.906	1	15
556.246	1	5
556.586	1	7
556.926	1	14
557.266	1	22
557.606	1	8
557.946	1	10
558.286	1	-1
558.626	1	18
558.966	1	16
559.306	1	17
559.646	1	9
559.986	1	14
560.325	1	7
560.665	1	7
561.005	1	5
561.345	1	9
561.685	1	10
562.025	1	10
562.365	1	12
562.705	1	5
563.045	1	5
563.385	1	14
563.725	1	8
564.064	1	-3
564.404	1	11
564.744	1	23
565.084	1	11
565.424	1	3
565.764	1	8
566.104	1	10
566.444	1	19
566.783	1	17
567.123	1	11
567.463	1	16
567.803	1	14
568.143	1	1
568.483	1	23
568.823	1	3
569.162	1	0
569.502	1	9
569.842	1	5
570.182	1	10
570.522	1	0
570.862	1	-1
571.201	1	15
571.541	1	2
571.881	1	11
572.221	1	12
572.561	1	9
572.900	1	16
573.240	1	2
573.580	1	9
573.920	1	28
574.260	1	14
574.599	1	12
574.939	1	11
575.279	1	13
575.619	1	12
575.959	1	2
576.298	1	-7
576.638	1	8
576.978	1	7
577.318	1	9
577.657	1	3
577.997	1	8
578.337	1	11
578.677	1	5
579.016	1	8
579.356	1	15
579.696	1	14
580.036	1	2
580.375	1	4
580.715	1	17
581.055	1	4
581.394	1	2
581.734	1	8
582.074	1	6
582.414	1	3
582.753	1	5
583.093	1	16
583.433	1	11
583.772	1	11
584.112	1	10
584.452	1	15
584.791	1	8
585.131	1	8
585.471	1	-1
585.811	1	2
586.150	1	7
586.490	1	15
586.830	1	10
587.169	1	7
587.509	1	3
587.849	1	16
588.188	1	11
588.528	1	11
588.867	1	8
589.207	1	9
589.547	1	15
589.886	1	1
590.226	1	-2
590.566	1	-1
590.905	1	3
591.245	1	0
591.585	1	-3
591.924	1	7
592.264	1	4
592.603	1	-10
592.943	1	6
593.283	1	6
593.622	1	10
593.962	1	0
594.301	1	2
594.641	1	11
594.981	1	-1
595.320	1	14
595.660	1	6
595.999	1	9
596.339	1	2
596.678	1	0
597.018	1	-1
597.358	1	1
597.697	1	-3
598.037	1	0
598.376	1	2
598.716	1	6
599.055	1	9
599.395	1	4
599.734	1	9
600.074	1	4
600.413	1	9
600.753	1	8
601.092	1	0
601.432	1	-5
601.771	1	5
602.111	1	4
602.451	1	-1
602.790	1	2
603.130	1	3
603.469	1	11
603.809	1	3
604.148	1	-2
604.487	1	5
604.827	1	12
605.166	1	5
605.506	1	1
605.845	1	7
606.185	1	-4
606.524	1	0
606.864	1	20
607.203	1	12
607.543	1	8
607.882	1	12
608.222	1	9
608.561	1	5
608.901	1	4
609.240	1	5
609.579	1	12
609.919	1	-3
610.258	1	11
610.598	1	-8
610.937	1	0
611.277	1	10
611.616	1	18
611.955	1	-1
612.295	1	4
612.634	1	9
612.974	1	9
613.313	1	15
613.652	1	9
613.992	1	5
614.331	1	18
614.671	1	5
615.010	1	13
615.349	1	7
615.689	1	-9
616.028	1	23
616.368	1	8
616.707	1	8
617.046	1	2
617.386	1	13
617.725	1	4
618.064	1	-4
618.404	1	4
618.743	1	5
619.082	1	27
619.422	1	13
619.761	1	-1
620.100	1	2
620.440	1	8
620.779	1	16
621.118	1	19
621.458	1	6
621.797	1	2
622.136	1	1
622.476	1	7
622.815	1	11
623.154	1	6
623.494	1	-5
623.833	1	2
624.172	1	6
624.511	1	-1
624.851	1	2
625.190	1	-1
625.529	1	-5
625.869	1	11
626.208	1	-2
626.547	1	0
626.886	1	-1
627.226	1	5
627.565	1	10
627.904	1	-5
628.243	1	18
628.583	1	16
628.922	1	13
629.261	1	8
629.600	1	5
629.940	1	17
630.279	1	15
630.618	1	14
630.957	1	7
631.297	1	11
631.636	1	9
631.975	1	4
632.314	1	5
632.653	1	-1
632.993	1	6
633.332	1	11
633.671	1	9
634.010	1	4
634.349	1	8
634.689	1	-1
635.028	1	3
635.367	1	9
635.706	1	2
636.045	1	-7
636.384	1	15
636.724	1	6
637.063	1	-2
637.402	1	2
637.741	1	-2
638.080	1	10
638.419	1	4
638.759	1	8
639.098	1	6
639.437	1	1
639.776	1	3
640.115	1	6
640.454	1	-4
640.793	1	-3
641.132	1	1
641.472	1	11
641.811	1	-4
642.150	1	8
642.489	1	9
642.828	1	10
643.167	1	6
643.506	1	6
643.845	1	18
644.184	1	11
644.524	1	11
644.863	1	-3
645.202	1	6
645.541	1	8
645.880	1	4
646.219	1	6
646.558	1	-2
646.897	1	-7
647.236	1	-10
647.575	1	8
647.914	1	-4
648.253	1	15
648.592	1	2
648.931	1	10
649.270	1	8
649.610	1	15
649.949	1	3
650.288	1	5
650.627	1	2
650.966	1	21
651.305	1	3
651.644	1	9
651.983	1	-9
652.322	1	8
652.661	1	4
653.000	1	4
653.339	1	4
653.678	1	7
654.017	1	16
654.356	1	0
654.695	1	13
655.034	1	4
655.373	1	0
655.712	1	16
656.051	1	6
656.390	1	-2
656.729	1	2
657.068	1	-4
657.406	1	-5
657.745	1	11
658.084	1	6
658.423	1	6
658.762	1	2
659.101	1	2
659.440	1	17
659.779	1	1
660.118	1	9
660.457	1	4
660.796	1	16
661.135	1	7
661.474	1	1
661.813	1	0
662.152	1	7
662.491	1	0
662.829	1	12
663.168	1	10
663.507	1	-3
663.846	1	-1
664.185	1	2
664.524	1	14
664.863	1	-2
665.202	1	5
665.541	1	6
665.879	1	-3
666.218	1	-2
666.557	1	-4
666.896	1	6
667.235	1	0
667.574	1	5
667.913	1	12
668.251	1	-6
668.590	1	2
668.929	1	-2
669.268	1	1
669.607	1	-6
669.946	1	7
670.285	1	0
670.623	1	1
670.962	1	-2
671.301	1	9
671.640	1	4
671.979	1	-2
672.317	1	11
672.656	1	16
672.995	1	3
673.334	1	3
673.673	1	15
674.011	1	8
674.350	1	6
674.689	1	4
675.028	1	8
675.367	1	10
675.705	1	6
676.044	1	0
676.383	1	2
676.722	1	3
677.060	1	9
677.399	1	7
677.738	1	-3
678.077	1	-5
678.416	1	4
678.754	1	-1
679.093	1	14
679.432	1	2
679.771	1	3
680.109	1	4
680.448	1	5
680.787	1	0
681.125	1	-1
681.464	1	7
681.803	1	4
682.142	1	10
682.480	1	3
682.819	1	2
683.158	1	-2
683.496	1	5
683.835	1	1
684.174	1	-4
684.512	1	11
684.851	1	-3
685.190	1	0
685.529	1	-5
685.867	1	-3
686.206	1	-1
686.545	1	9
686.883	1	13
687.222	1	0
687.561	1	5
687.899	1	-2
688.238	1	10
688.577	1	8
688.746	1	2