File: Data/GaN_150K_450ms/GaN_sample D_spot15_UVVIS_150 K_200um_450 ms 2x2mm1_97.txt
340.368	1	7
340.710	1	4
341.052	1	-4
341.394	1	-6
341.737	1	9
342.079	1	3
342.421	1	9
342.763	1	5
343.105	1	6
343.447	1	6
343.789	1	6
344.131	1	-13
344.473	1	-3
344.815	1	4
345.157	1	9
345.499	1	7
345.841	1	14
346.183	1	5
346.526	1	15
346.868	1	2
347.210	1	-4
347.552	1	18
347.894	1	-3
348.236	1	7
348.578	1	8
348.920	1	11
349.262	1	11
349.604	1	1
349.946	1	7
350.288	1	2
350.630	1	4
350.972	1	7
351.314	1	0
351.656	1	14
351.998	1	4
352.340	1	9
352.682	1	-10
353.024	1	18
353.366	1	13
353.708	1	13
354.050	1	-2
354.392	1	-1
354.734	1	7
355.076	1	29
355.418	1	6
355.760	1	4
356.102	1	10
356.444	1	22
356.785	1	13
357.127	1	14
357.469	1	11
357.811	1	6
358.153	1	8
358.495	1	13
358.837	1	23
359.179	1	23
359.521	1	27
359.863	1	11
360.205	1	31
360.547	1	26
360.889	1	20
361.231	1	30
361.572	1	44
361.914	1	25
362.256	1	48
362.598	1	45
362.940	1	36
363.282	1	30
363.624	1	45
363.966	1	49
364.308	1	66
364.649	1	62
364.991	1	73
365.333	1	74
365.675	1	69
366.017	1	93
366.359	1	77
366.701	1	88
367.042	1	98
367.384	1	89
367.726	1	96
368.068	1	107
368.410	1	106
368.752	1	115
369.093	1	96
369.435	1	91
369.777	1	107
370.119	1	95
370.461	1	73
370.803	1	82
371.144	1	74
371.486	1	81
371.828	1	64
372.170	1	61
372.512	1	58
372.853	1	65
373.195	1	58
373.537	1	42
373.879	1	43
374.220	1	60
374.562	1	66
374.904	1	51
375.246	1	45
375.588	1	37
375.929	1	42
376.271	1	40
376.613	1	43
376.955	1	23
377.296	1	40
377.638	1	32
377.980	1	34
378.321	1	41
378.663	1	32
379.005	1	39
379.347	1	30
379.688	1	36
380.030	1	33
380.372	1	36
380.714	1	36
381.055	1	17
381.397	1	19
381.739	1	12
382.080	1	11
382.422	1	22
382.764	1	21
383.105	1	20
383.447	1	15
383.789	1	6
384.130	1	17
384.472	1	14
384.814	1	17
385.156	1	15
385.497	1	19
385.839	1	13
386.180	1	8
386.522	1	20
386.864	1	8
387.205	1	21
387.547	1	23
387.889	1	9
388.230	1	20
388.572	1	4
388.914	1	23
389.255	1	19
389.597	1	14
389.939	1	24
390.280	1	11
390.622	1	13
390.963	1	5
391.305	1	11
391.647	1	8
391.988	1	14
392.330	1	12
392.671	1	13
393.013	1	15
393.355	1	13
393.696	1	15
394.038	1	5
394.379	1	19
394.721	1	14
395.062	1	15
395.404	1	16
395.746	1	3
396.087	1	23
396.429	1	17
396.770	1	11
397.112	1	6
397.453	1	10
397.795	1	12
398.136	1	8
398.478	1	13
398.819	1	21
399.161	1	17
399.503	1	19
399.844	1	16
400.186	1	14
400.527	1	14
400.869	1	3
401.210	1	17
401.552	1	12
401.893	1	10
402.235	1	21
402.576	1	22
402.918	1	6
403.259	1	8
403.601	1	15
403.942	1	10
404.284	1	12
404.625	1	0
404.967	1	9
405.308	1	1
405.649	1	14
405.991	1	14
406.332	1	19
406.674	1	10
407.015	1	21
407.357	1	23
407.698	1	15
408.040	1	21
408.381	1	9
408.722	1	12
409.064	1	13
409.405	1	9
409.747	1	15
410.088	1	11
410.430	1	21
410.771	1	15
411.112	1	16
411.454	1	6
411.795	1	4
412.137	1	12
412.478	1	16
412.819	1	21
413.161	1	7
413.502	1	15
413.844	1	29
414.185	1	4
414.526	1	9
414.868	1	10
415.209	1	9
415.550	1	16
415.892	1	13
416.233	1	20
416.575	1	13
416.916	1	14
417.257	1	13
417.599	1	21
417.940	1	11
418.281	1	20
418.623	1	16
418.964	1	32
419.305	1	24
419.647	1	19
419.988	1	23
420.329	1	12
420.671	1	18
421.012	1	3
421.353	1	21
421.695	1	18
422.036	1	23
422.377	1	14
422.718	1	20
423.060	1	16
423.401	1	15
423.742	1	28
424.084	1	15
424.425	1	16
424.766	1	20
425.107	1	15
425.449	1	8
425.790	1	9
426.131	1	11
426.472	1	25
426.814	1	10
427.155	1	17
427.496	1	16
427.837	1	11
428.179	1	24
428.520	1	12
428.861	1	22
429.202	1	-2
429.544	1	17
429.885	1	24
430.226	1	0
430.567	1	0
430.909	1	10
431.250	1	16
431.591	1	19
431.932	1	11
432.273	1	19
432.615	1	8
432.956	1	15
433.297	1	14
433.638	1	17
433.979	1	16
434.320	1	20
434.662	1	25
435.003	1	25
435.344	1	15
435.685	1	5
436.026	1	8
436.368	1	9
436.709	1	8
437.050	1	6
437.391	1	9
437.732	1	27
438.073	1	10
438.414	1	13
438.756	1	9
439.097	1	15
439.438	1	7
439.779	1	6
440.120	1	15
440.461	1	9
440.802	1	13
441.143	1	16
441.485	1	11
441.826	1	10
442.167	1	16
442.508	1	8
442.849	1	12
443.190	1	12
443.531	1	9
443.872	1	0
444.213	1	4
444.554	1	13
444.895	1	3
445.237	1	12
445.578	1	-1
445.919	1	14
446.260	1	21
446.601	1	-1
446.942	1	6
447.283	1	18
447.624	1	3
447.965	1	11
448.306	1	20
448.647	1	6
448.988	1	20
449.329	1	7
449.670	1	10
450.011	1	11
450.352	1	10
450.693	1	15
451.034	1	2
451.375	1	11
451.716	1	10
452.057	1	19
452.398	1	10
452.739	1	13
453.080	1	10
453.421	1	14
453.762	1	12
454.103	1	7
454.444	1	7
454.785	1	11
455.126	1	1
455.467	1	15
455.808	1	17
456.149	1	6
456.490	1	7
456.831	1	11
457.172	1	11
457.513	1	12
457.854	1	5
458.195	1	9
458.536	1	22
458.877	1	7
459.218	1	12
459.559	1	15
459.899	1	8
460.240	1	2
460.581	1	5
460.922	1	6
461.263	1	16
461.604	1	17
461.945	1	11
462.286	1	11
462.627	1	14
462.968	1	7
463.309	1	9
463.649	1	3
463.990	1	9
464.331	1	14
464.672	1	14
465.013	1	8
465.354	1	21
465.695	1	14
466.036	1	23
466.376	1	7
466.717	1	-3
467.058	1	9
467.399	1	6
467.740	1	21
468.081	1	16
468.422	1	14
468.762	1	4
469.103	1	15
469.444	1	4
469.785	1	2
470.126	1	6
470.467	1	10
470.807	1	17
471.148	1	0
471.489	1	11
471.830	1	9
472.171	1	15
472.511	1	9
472.852	1	10
473.193	1	12
473.534	1	3
473.875	1	9
474.215	1	10
474.556	1	7
474.897	1	4
475.238	1	0
475.578	1	6
475.919	1	10
476.260	1	6
476.601	1	8
476.942	1	12
477.282	1	6
477.623	1	8
477.964	1	7
478.305	1	3
478.645	1	9
478.986	1	5
479.327	1	11
479.667	1	12
480.008	1	20
480.349	1	8
480.690	1	10
481.030	1	1
481.371	1	0
481.712	1	22
482.053	1	21
482.393	1	4
482.734	1	15
483.075	1	6
483.415	1	12
483.756	1	8
484.097	1	16
484.437	1	11
484.778	1	2
485.119	1	6
485.459	1	-12
485.800	1	1
486.141	1	14
486.481	1	-6
486.822	1	16
487.163	1	5
487.503	1	13
487.844	1	1
488.185	1	20
488.525	1	2
488.866	1	-8
489.207	1	12
489.547	1	10
489.888	1	13
490.228	1	11
490.569	1	10
490.910	1	11
491.250	1	16
491.591	1	9
491.932	1	22
492.272	1	-1
492.613	1	11
492.953	1	7
493.294	1	14
493.635	1	16
493.975	1	17
494.316	1	14
494.656	1	22
494.997	1	5
495.337	1	24
495.678	1	16
496.019	1	13
496.359	1	3
496.700	1	21
497.040	1	9
497.381	1	11
497.721	1	5
498.062	1	17
498.403	1	11
498.743	1	24
499.084	1	25
499.424	1	12
499.765	1	12
500.105	1	20
500.446	1	8
500.786	1	5
501.127	1	20
501.467	1	18
501.808	1	17
502.148	1	15
502.489	1	14
502.829	1	5
503.170	1	20
503.510	1	7
503.851	1	21
504.191	1	2
504.532	1	28
504.872	1	20
505.213	1	18
505.553	1	16
505.894	1	22
506.234	1	21
506.575	1	23
506.915	1	19
507.256	1	22
507.596	1	24
507.936	1	27
508.277	1	24
508.617	1	23
508.958	1	30
509.298	1	19
509.639	1	15
509.979	1	21
510.319	1	20
510.660	1	17
511.000	1	21
511.341	1	38
511.681	1	18
512.022	1	10
512.362	1	33
512.702	1	7
513.043	1	17
513.383	1	12
513.724	1	36
514.064	1	26
514.404	1	38
514.745	1	32
515.085	1	29
515.425	1	22
515.766	1	23
516.106	1	29
516.447	1	26
516.787	1	19
517.127	1	33
517.468	1	20
517.808	1	18
518.148	1	39
518.489	1	29
518.829	1	28
519.169	1	14
519.510	1	19
519.850	1	33
520.190	1	16
520.531	1	25
520.871	1	30
521.211	1	33
521.552	1	19
521.892	1	35
522.232	1	29
522.573	1	25
522.913	1	27
523.253	1	32
523.593	1	30
523.934	1	25
524.274	1	29
524.614	1	34
524.955	1	20
525.295	1	34
525.635	1	34
525.975	1	32
526.316	1	25
526.656	1	31
526.996	1	21
527.337	1	34
527.677	1	31
528.017	1	23
528.357	1	36
528.698	1	29
529.038	1	29
529.378	1	21
529.718	1	15
530.058	1	36
530.399	1	17
530.739	1	38
531.079	1	37
531.419	1	19
531.760	1	32
532.100	1	35
532.440	1	29
532.780	1	35
533.120	1	26
533.461	1	27
533.801	1	31
534.141	1	29
534.481	1	45
534.821	1	31
535.162	1	24
535.502	1	32
535.842	1	34
536.182	1	27
536.522	1	28
536.862	1	23
537.203	1	29
537.543	1	29
537.883	1	18
538.223	1	31
538.563	1	19
538.903	1	20
539.243	1	19
539.584	1	17
539.924	1	20
540.264	1	33
540.604	1	35
540.944	1	17
541.284	1	12
541.624	1	24
541.964	1	28
542.305	1	38
542.645	1	14
542.985	1	16
543.325	1	26
543.665	1	22
544.005	1	20
544.345	1	29
544.685	1	15
545.025	1	29
545.365	1	22
545.705	1	26
546.045	1	26
546.386	1	15
546.726	1	37
547.066	1	23
547.406	1	8
547.746	1	29
548.086	1	22
548.426	1	19
548.766	1	27
549.106	1	17
549.446	1	20
549.786	1	24
550.126	1	30
550.466	1	27
550.806	1	39
551.146	1	23
551.486	1	21
551.826	1	11
552.166	1	21
552.506	1	22
552.846	1	17
553.186	1	9
553.526	1	19
553.866	1	17
554.206	1	31
554.546	1	20
554.886	1	15
555.226	1	14
555.566	1	16
555.906	1	14
556.246	1	29
556.586	1	15
556.926	1	17
557.266	1	24
557.606	1	13
557.946	1	17
558.286	1	3
558.626	1	14
558.966	1	12
559.306	1	34
559.646	1	13
559.986	1	23
560.325	1	24
560.665	1	21
561.005	1	14
561.345	1	14
561.685	1	11
562.025	1	20
562.365	1	23
562.705	1	13
563.045	1	13
563.385	1	19
563.725	1	6
564.064	1	11
564.404	1	9
564.744	1	17
565.084	1	18
565.424	1	4
565.764	1	18
566.104	1	28
566.444	1	25
566.783	1	15
567.123	1	9
567.463	1	10
567.803	1	28
568.143	1	9
568.483	1	23
568.823	1	11
569.162	1	9
569.502	1	18
569.842	1	13
570.182	1	8
570.522	1	10
570.862	1	0
571.201	1	18
571.541	1	9
571.881	1	5
572.221	1	11
572.561	1	19
572.900	1	14
573.240	1	9
573.580	1	12
573.920	1	19
574.260	1	23
574.599	1	18
574.939	1	5
575.279	1	4
575.619	1	3
575.959	1	7
576.298	1	-3
576.638	1	20
576.978	1	18
577.318	1	12
577.657	1	6
577.997	1	15
578.337	1	17
578.677	1	17
579.016	1	14
579.356	1	15
579.696	1	10
580.036	1	2
580.375	1	14
580.715	1	6
581.055	1	6
581.394	1	16
581.734	1	5
582.074	1	13
582.414	1	12
582.753	1	10
583.093	1	13
583.433	1	13
583.772	1	14
584.112	1	14
584.452	1	16
584.791	1	20
585.131	1	15
585.471	1	12
585.811	1	6
586.150	1	13
586.490	1	10
586.830	1	14
587.169	1	18
587.509	1	11
587.849	1	14
588.188	1	16
588.528	1	6
588.867	1	11
589.207	1	11
589.547	1	21
589.886	1	11
590.226	1	1
590.566	1	5
590.905	1	5
591.245	1	-4
591.585	1	6
591.924	1	-1
592.264	1	7
592.603	1	-4
592.943	1	4
593.283	1	5
593.622	1	10
593.962	1	15
594.301	1	6
594.641	1	10
594.981	1	11
595.320	1	7
595.660	1	16
595.999	1	6
596.339	1	-1
596.678	1	-9
597.018	1	6
597.358	1	3
597.697	1	5
598.037	1	6
598.376	1	-1
598.716	1	0
599.055	1	6
599.395	1	3
599.734	1	10
600.074	1	7
600.413	1	4
600.753	1	12
601.092	1	-4
601.432	1	-4
601.771	1	9
602.111	1	9
602.451	1	-12
602.790	1	7
603.130	1	1
603.469	1	2
603.809	1	9
604.148	1	-5
604.487	1	12
604.827	1	9
605.166	1	10
605.506	1	3
605.845	1	7
606.185	1	6
606.524	1	2
606.864	1	18
607.203	1	12
607.543	1	17
607.882	1	11
608.222	1	-1
608.561	1	12
608.901	1	17
609.240	1	6
609.579	1	2
609.919	1	1
610.258	1	11
610.598	1	5
610.937	1	-2
611.277	1	7
611.616	1	14
611.955	1	7
612.295	1	14
612.634	1	7
612.974	1	15
613.313	1	15
613.652	1	18
613.992	1	-2
614.331	1	19
614.671	1	12
615.010	1	8
615.349	1	4
615.689	1	3
616.028	1	22
616.368	1	12
616.707	1	15
617.046	1	5
617.386	1	14
617.725	1	-1
618.064	1	-3
618.404	1	13
618.743	1	20
619.082	1	16
619.422	1	12
619.761	1	6
620.100	1	13
620.440	1	20
620.779	1	1
621.118	1	7
621.458	1	12
621.797	1	7
622.136	1	0
622.476	1	4
622.815	1	7
623.154	1	-1
623.494	1	2
623.833	1	-4
624.172	1	3
624.511	1	0
624.851	1	2
625.190	1	15
625.529	1	8
625.869	1	10
626.208	1	4
626.547	1	5
626.886	1	-4
627.226	1	5
627.565	1	4
627.904	1	3
628.243	1	14
628.583	1	6
628.922	1	9
629.261	1	2
629.600	1	4
629.940	1	12
630.279	1	8
630.618	1	10
630.957	1	15
631.297	1	7
631.636	1	8
631.975	1	1
632.314	1	7
632.653	1	4
632.993	1	7
633.332	1	8
633.671	1	6
634.010	1	3
634.349	1	14
634.689	1	6
635.028	1	-3
635.367	1	16
635.706	1	4
636.045	1	2
636.384	1	15
636.724	1	3
637.063	1	-8
637.402	1	6
637.741	1	2
638.080	1	11
638.419	1	11
638.759	1	6
639.098	1	2
639.437	1	4
639.776	1	6
640.115	1	0
640.454	1	7
640.793	1	7
641.132	1	8
641.472	1	11
641.811	1	5
642.150	1	-6
642.489	1	7
642.828	1	17
643.167	1	7
643.506	1	13
643.845	1	23
644.184	1	11
644.524	1	8
644.863	1	3
645.202	1	13
645.541	1	9
645.880	1	13
646.219	1	0
646.558	1	0
646.897	1	-1
647.236	1	-2
647.575	1	11
647.914	1	5
648.253	1	10
648.592	1	5
648.931	1	8
649.270	1	6
649.610	1	8
649.949	1	8
650.288	1	6
650.627	1	10
650.966	1	9
651.305	1	5
651.644	1	6
651.983	1	-3
652.322	1	10
652.661	1	13
653.000	1	-1
653.339	1	0
653.678	1	9
654.017	1	9
654.356	1	1
654.695	1	15
655.034	1	3
655.373	1	13
655.712	1	11
656.051	1	-7
656.390	1	11
656.729	1	1
657.068	1	1
657.406	1	8
657.745	1	15
658.084	1	3
658.423	1	4
658.762	1	-4
659.101	1	2
659.440	1	12
659.779	1	13
660.118	1	4
660.457	1	4
660.796	1	16
661.135	1	11
661.474	1	7
661.813	1	16
662.152	1	6
662.491	1	1
662.829	1	5
663.168	1	2
663.507	1	15
663.846	1	-2
664.185	1	1
664.524	1	13
664.863	1	-4
665.202	1	12
665.541	1	2
665.879	1	4
666.218	1	15
666.557	1	6
666.896	1	8
667.235	1	1
667.574	1	1
667.913	1	13
668.251	1	-2
668.590	1	-4
668.929	1	4
669.268	1	4
669.607	1	-1
669.946	1	0
670.285	1	4
670.623	1	-1
670.962	1	1
671.301	1	3
671.640	1	3
671.979	1	1
672.317	1	11
672.656	1	9
672.995	1	2
673.334	1	-5
673.673	1	25
674.011	1	14
674.350	1	7
674.689	1	2
675.028	1	11
675.367	1	-1
675.705	1	0
676.044	1	5
676.383	1	3
676.722	1	4
677.060	1	10
677.399	1	25
677.738	1	-1
678.077	1	4
678.416	1	2
678.754	1	1
679.093	1	10
679.432	1	5
679.771	1	4
680.109	1	-4
680.448	1	1
680.787	1	-10
681.125	1	-5
681.464	1	2
681.803	1	8
682.142	1	3
682.480	1	1
682.819	1	3
683.158	1	1
683.496	1	-1
683.835	1	12
684.174	1	5
684.512	1	11
684.851	1	1
685.190	1	8
685.529	1	-1
685.867	1	-4
686.206	1	-5
686.545	1	6
686.883	1	6
687.222	1	-2
687.561	1	1
687.899	1	10
688.238	1	10
688.577	1	5
688.746	1	5