File: Data/GaN_150K_450ms/GaN_sample D_spot15_UVVIS_150 K_200um_450 ms 2x2mm1_335.txt
340.368	1	-6
340.710	1	7
341.052	1	0
341.394	1	-13
341.737	1	3
342.079	1	7
342.421	1	-6
342.763	1	4
343.105	1	5
343.447	1	8
343.789	1	-6
344.131	1	-7
344.473	1	-3
344.815	1	3
345.157	1	17
345.499	1	2
345.841	1	2
346.183	1	-2
346.526	1	4
346.868	1	-5
347.210	1	-6
347.552	1	11
347.894	1	-2
348.236	1	4
348.578	1	6
348.920	1	-8
349.262	1	2
349.604	1	-3
349.946	1	-2
350.288	1	-5
350.630	1	-12
350.972	1	6
351.314	1	-1
351.656	1	3
351.998	1	-5
352.340	1	5
352.682	1	-7
353.024	1	12
353.366	1	5
353.708	1	0
354.050	1	-5
354.392	1	-5
354.734	1	-1
355.076	1	18
355.418	1	-2
355.760	1	3
356.102	1	5
356.444	1	4
356.785	1	0
357.127	1	6
357.469	1	4
357.811	1	-9
358.153	1	-4
358.495	1	9
358.837	1	7
359.179	1	5
359.521	1	12
359.863	1	0
360.205	1	10
360.547	1	4
360.889	1	2
361.231	1	-7
361.572	1	1
361.914	1	17
362.256	1	4
362.598	1	2
362.940	1	3
363.282	1	-8
363.624	1	-2
363.966	1	-2
364.308	1	9
364.649	1	10
364.991	1	13
365.333	1	8
365.675	1	15
366.017	1	12
366.359	1	-1
366.701	1	-2
367.042	1	15
367.384	1	-1
367.726	1	9
368.068	1	14
368.410	1	9
368.752	1	15
369.093	1	13
369.435	1	12
369.777	1	11
370.119	1	12
370.461	1	2
370.803	1	4
371.144	1	-4
371.486	1	11
371.828	1	9
372.170	1	8
372.512	1	-2
372.853	1	14
373.195	1	3
373.537	1	-1
373.879	1	10
374.220	1	20
374.562	1	7
374.904	1	11
375.246	1	0
375.588	1	-4
375.929	1	6
376.271	1	-2
376.613	1	0
376.955	1	3
377.296	1	6
377.638	1	-6
377.980	1	5
378.321	1	2
378.663	1	13
379.005	1	-1
379.347	1	1
379.688	1	9
380.030	1	12
380.372	1	7
380.714	1	10
381.055	1	-1
381.397	1	-1
381.739	1	-5
382.080	1	5
382.422	1	3
382.764	1	2
383.105	1	3
383.447	1	-2
383.789	1	-5
384.130	1	3
384.472	1	-7
384.814	1	6
385.156	1	0
385.497	1	7
385.839	1	-3
386.180	1	-4
386.522	1	8
386.864	1	-7
387.205	1	8
387.547	1	2
387.889	1	2
388.230	1	-6
388.572	1	-10
388.914	1	5
389.255	1	8
389.597	1	6
389.939	1	15
390.280	1	4
390.622	1	-1
390.963	1	-8
391.305	1	5
391.647	1	0
391.988	1	0
392.330	1	-1
392.671	1	15
393.013	1	4
393.355	1	4
393.696	1	-1
394.038	1	5
394.379	1	-3
394.721	1	4
395.062	1	-6
395.404	1	7
395.746	1	-8
396.087	1	3
396.429	1	-3
396.770	1	1
397.112	1	8
397.453	1	-9
397.795	1	1
398.136	1	3
398.478	1	14
398.819	1	-2
399.161	1	5
399.503	1	5
399.844	1	-9
400.186	1	6
400.527	1	4
400.869	1	-2
401.210	1	2
401.552	1	4
401.893	1	-4
402.235	1	7
402.576	1	1
402.918	1	-11
403.259	1	1
403.601	1	-1
403.942	1	-4
404.284	1	1
404.625	1	1
404.967	1	3
405.308	1	-4
405.649	1	0
405.991	1	10
406.332	1	-6
406.674	1	-2
407.015	1	8
407.357	1	3
407.698	1	4
408.040	1	4
408.381	1	-4
408.722	1	6
409.064	1	1
409.405	1	3
409.747	1	-4
410.088	1	7
410.430	1	2
410.771	1	16
411.112	1	-4
411.454	1	5
411.795	1	-1
412.137	1	2
412.478	1	-3
412.819	1	-1
413.161	1	-6
413.502	1	0
413.844	1	14
414.185	1	-2
414.526	1	-2
414.868	1	-4
415.209	1	-4
415.550	1	2
415.892	1	3
416.233	1	6
416.575	1	-15
416.916	1	-1
417.257	1	1
417.599	1	-1
417.940	1	0
418.281	1	0
418.623	1	1
418.964	1	10
419.305	1	1
419.647	1	2
419.988	1	9
420.329	1	5
420.671	1	2
421.012	1	6
421.353	1	8
421.695	1	5
422.036	1	16
422.377	1	0
422.718	1	7
423.060	1	11
423.401	1	3
423.742	1	6
424.084	1	10
424.425	1	11
424.766	1	-2
425.107	1	-1
425.449	1	3
425.790	1	6
426.131	1	-2
426.472	1	9
426.814	1	6
427.155	1	9
427.496	1	2
427.837	1	3
428.179	1	11
428.520	1	5
428.861	1	9
429.202	1	-9
429.544	1	-5
429.885	1	10
430.226	1	-6
430.567	1	-8
430.909	1	-2
431.250	1	7
431.591	1	2
431.932	1	-4
432.273	1	15
432.615	1	-7
432.956	1	4
433.297	1	-1
433.638	1	1
433.979	1	12
434.320	1	1
434.662	1	14
435.003	1	13
435.344	1	2
435.685	1	-7
436.026	1	-2
436.368	1	-2
436.709	1	-1
437.050	1	-1
437.391	1	-2
437.732	1	0
438.073	1	4
438.414	1	13
438.756	1	0
439.097	1	5
439.438	1	-2
439.779	1	3
440.120	1	-2
440.461	1	-12
440.802	1	2
441.143	1	6
441.485	1	-2
441.826	1	-3
442.167	1	-6
442.508	1	4
442.849	1	4
443.190	1	4
443.531	1	-4
443.872	1	-14
444.213	1	0
444.554	1	3
444.895	1	-4
445.237	1	6
445.578	1	-2
445.919	1	-7
446.260	1	8
446.601	1	4
446.942	1	-12
447.283	1	9
447.624	1	-7
447.965	1	-3
448.306	1	7
448.647	1	-3
448.988	1	6
449.329	1	6
449.670	1	0
450.011	1	4
450.352	1	-3
450.693	1	3
451.034	1	2
451.375	1	7
451.716	1	-3
452.057	1	3
452.398	1	10
452.739	1	-5
453.080	1	7
453.421	1	-2
453.762	1	6
454.103	1	0
454.444	1	-1
454.785	1	-4
455.126	1	4
455.467	1	2
455.808	1	5
456.149	1	3
456.490	1	-3
456.831	1	-1
457.172	1	7
457.513	1	3
457.854	1	0
458.195	1	1
458.536	1	7
458.877	1	1
459.218	1	4
459.559	1	5
459.899	1	-1
460.240	1	-3
460.581	1	-5
460.922	1	-4
461.263	1	11
461.604	1	-5
461.945	1	4
462.286	1	0
462.627	1	9
462.968	1	0
463.309	1	1
463.649	1	3
463.990	1	14
464.331	1	7
464.672	1	4
465.013	1	0
465.354	1	7
465.695	1	0
466.036	1	6
466.376	1	9
466.717	1	-14
467.058	1	3
467.399	1	-5
467.740	1	5
468.081	1	4
468.422	1	-3
468.762	1	6
469.103	1	-2
469.444	1	3
469.785	1	1
470.126	1	5
470.467	1	3
470.807	1	1
471.148	1	-3
471.489	1	7
471.830	1	4
472.171	1	0
472.511	1	1
472.852	1	4
473.193	1	1
473.534	1	-2
473.875	1	5
474.215	1	2
474.556	1	2
474.897	1	7
475.238	1	0
475.578	1	-6
475.919	1	-4
476.260	1	2
476.601	1	2
476.942	1	-7
477.282	1	-6
477.623	1	-7
477.964	1	8
478.305	1	-4
478.645	1	-3
478.986	1	3
479.327	1	2
479.667	1	-5
480.008	1	0
480.349	1	-6
480.690	1	9
481.030	1	-5
481.371	1	-2
481.712	1	9
482.053	1	8
482.393	1	1
482.734	1	-1
483.075	1	6
483.415	1	2
483.756	1	7
484.097	1	3
484.437	1	5
484.778	1	-5
485.119	1	1
485.459	1	-3
485.800	1	3
486.141	1	11
486.481	1	-8
486.822	1	18
487.163	1	-1
487.503	1	4
487.844	1	-4
488.185	1	-7
488.525	1	-3
488.866	1	-9
489.207	1	-2
489.547	1	7
489.888	1	2
490.228	1	-3
490.569	1	-2
490.910	1	2
491.250	1	2
491.591	1	6
491.932	1	8
492.272	1	-14
492.613	1	0
492.953	1	0
493.294	1	-3
493.635	1	6
493.975	1	12
494.316	1	-2
494.656	1	7
494.997	1	-1
495.337	1	2
495.678	1	-5
496.019	1	-2
496.359	1	-7
496.700	1	-3
497.040	1	-5
497.381	1	3
497.721	1	-12
498.062	1	2
498.403	1	1
498.743	1	-1
499.084	1	-2
499.424	1	-3
499.765	1	9
500.105	1	10
500.446	1	-8
500.786	1	3
501.127	1	1
501.467	1	13
501.808	1	0
502.148	1	0
502.489	1	-1
502.829	1	-7
503.170	1	5
503.510	1	-7
503.851	1	9
504.191	1	-8
504.532	1	6
504.872	1	1
505.213	1	-5
505.553	1	2
505.894	1	8
506.234	1	16
506.575	1	11
506.915	1	5
507.256	1	4
507.596	1	13
507.936	1	5
508.277	1	7
508.617	1	3
508.958	1	6
509.298	1	-6
509.639	1	-6
509.979	1	-4
510.319	1	4
510.660	1	-2
511.000	1	-1
511.341	1	6
511.681	1	5
512.022	1	0
512.362	1	9
512.702	1	-2
513.043	1	-3
513.383	1	-9
513.724	1	3
514.064	1	5
514.404	1	7
514.745	1	-9
515.085	1	4
515.425	1	6
515.766	1	3
516.106	1	-8
516.447	1	5
516.787	1	3
517.127	1	5
517.468	1	7
517.808	1	-14
518.148	1	8
518.489	1	-4
518.829	1	9
519.169	1	-3
519.510	1	-8
519.850	1	2
520.190	1	2
520.531	1	0
520.871	1	2
521.211	1	-5
521.552	1	1
521.892	1	-1
522.232	1	2
522.573	1	-3
522.913	1	9
523.253	1	4
523.593	1	15
523.934	1	2
524.274	1	8
524.614	1	8
524.955	1	0
525.295	1	14
525.635	1	4
525.975	1	-7
526.316	1	-12
526.656	1	9
526.996	1	-6
527.337	1	8
527.677	1	13
528.017	1	-2
528.357	1	5
528.698	1	8
529.038	1	-5
529.378	1	-4
529.718	1	-1
530.058	1	-3
530.399	1	-2
530.739	1	-7
531.079	1	-1
531.419	1	0
531.760	1	4
532.100	1	16
532.440	1	0
532.780	1	5
533.120	1	0
533.461	1	2
533.801	1	1
534.141	1	1
534.481	1	18
534.821	1	3
535.162	1	8
535.502	1	-5
535.842	1	-1
536.182	1	-2
536.522	1	-8
536.862	1	6
537.203	1	-3
537.543	1	10
537.883	1	-5
538.223	1	12
538.563	1	-3
538.903	1	3
539.243	1	-2
539.584	1	0
539.924	1	0
540.264	1	12
540.604	1	10
540.944	1	8
541.284	1	6
541.624	1	-1
541.964	1	-3
542.305	1	9
542.645	1	8
542.985	1	-4
543.325	1	7
543.665	1	-2
544.005	1	-5
544.345	1	10
544.685	1	-2
545.025	1	3
545.365	1	6
545.705	1	-4
546.045	1	14
546.386	1	-8
546.726	1	3
547.066	1	-1
547.406	1	0
547.746	1	-1
548.086	1	1
548.426	1	-3
548.766	1	6
549.106	1	-5
549.446	1	0
549.786	1	8
550.126	1	-2
550.466	1	-1
550.806	1	13
551.146	1	-1
551.486	1	1
551.826	1	-6
552.166	1	-1
552.506	1	-2
552.846	1	1
553.186	1	0
553.526	1	4
553.866	1	2
554.206	1	2
554.546	1	11
554.886	1	-4
555.226	1	2
555.566	1	2
555.906	1	-8
556.246	1	1
556.586	1	-3
556.926	1	0
557.266	1	8
557.606	1	-11
557.946	1	7
558.286	1	-9
558.626	1	9
558.966	1	-4
559.306	1	2
559.646	1	4
559.986	1	7
560.325	1	-1
560.665	1	-3
561.005	1	0
561.345	1	-1
561.685	1	2
562.025	1	-1
562.365	1	8
562.705	1	4
563.045	1	2
563.385	1	8
563.725	1	1
564.064	1	-1
564.404	1	-7
564.744	1	12
565.084	1	2
565.424	1	-1
565.764	1	3
566.104	1	4
566.444	1	5
566.783	1	-4
567.123	1	5
567.463	1	0
567.803	1	9
568.143	1	5
568.483	1	5
568.823	1	-1
569.162	1	1
569.502	1	2
569.842	1	-4
570.182	1	4
570.522	1	-5
570.862	1	-4
571.201	1	6
571.541	1	-6
571.881	1	-4
572.221	1	4
572.561	1	16
572.900	1	0
573.240	1	-1
573.580	1	1
573.920	1	14
574.260	1	5
574.599	1	2
574.939	1	-5
575.279	1	-3
575.619	1	-4
575.959	1	0
576.298	1	-9
576.638	1	-1
576.978	1	0
577.318	1	-1
577.657	1	-3
577.997	1	3
578.337	1	0
578.677	1	3
579.016	1	3
579.356	1	6
579.696	1	-4
580.036	1	6
580.375	1	0
580.715	1	-2
581.055	1	-1
581.394	1	-3
581.734	1	-3
582.074	1	-4
582.414	1	0
582.753	1	1
583.093	1	11
583.433	1	10
583.772	1	9
584.112	1	3
584.452	1	8
584.791	1	7
585.131	1	-2
585.471	1	5
585.811	1	4
586.150	1	11
586.490	1	-1
586.830	1	4
587.169	1	1
587.509	1	1
587.849	1	15
588.188	1	9
588.528	1	-7
588.867	1	5
589.207	1	-3
589.547	1	0
589.886	1	1
590.226	1	-13
590.566	1	-2
590.905	1	-2
591.245	1	-1
591.585	1	-11
591.924	1	-2
592.264	1	1
592.603	1	-10
592.943	1	-5
593.283	1	4
593.622	1	4
593.962	1	7
594.301	1	-2
594.641	1	1
594.981	1	-3
595.320	1	13
595.660	1	6
595.999	1	2
596.339	1	7
596.678	1	-6
597.018	1	-4
597.358	1	-7
597.697	1	-6
598.037	1	3
598.376	1	-11
598.716	1	1
599.055	1	1
599.395	1	0
599.734	1	1
600.074	1	-4
600.413	1	-5
600.753	1	2
601.092	1	-8
601.432	1	-7
601.771	1	4
602.111	1	2
602.451	1	-7
602.790	1	-3
603.130	1	4
603.469	1	7
603.809	1	6
604.148	1	1
604.487	1	10
604.827	1	6
605.166	1	4
605.506	1	1
605.845	1	2
606.185	1	4
606.524	1	2
606.864	1	10
607.203	1	8
607.543	1	-6
607.882	1	10
608.222	1	-10
608.561	1	3
608.901	1	9
609.240	1	5
609.579	1	-12
609.919	1	-12
610.258	1	6
610.598	1	-4
610.937	1	0
611.277	1	2
611.616	1	12
611.955	1	-2
612.295	1	11
612.634	1	-1
612.974	1	-2
613.313	1	-1
613.652	1	17
613.992	1	0
614.331	1	12
614.671	1	-6
615.010	1	-3
615.349	1	1
615.689	1	-1
616.028	1	11
616.368	1	1
616.707	1	-1
617.046	1	1
617.386	1	12
617.725	1	-1
618.064	1	1
618.404	1	-6
618.743	1	-5
619.082	1	14
619.422	1	17
619.761	1	5
620.100	1	9
620.440	1	6
620.779	1	6
621.118	1	8
621.458	1	0
621.797	1	5
622.136	1	-10
622.476	1	-1
622.815	1	7
623.154	1	-15
623.494	1	-6
623.833	1	-6
624.172	1	4
624.511	1	-7
624.851	1	-9
625.190	1	1
625.529	1	6
625.869	1	2
626.208	1	4
626.547	1	-1
626.886	1	-11
627.226	1	7
627.565	1	9
627.904	1	-5
628.243	1	3
628.583	1	3
628.922	1	6
629.261	1	-2
629.600	1	-1
629.940	1	-3
630.279	1	5
630.618	1	5
630.957	1	4
631.297	1	-6
631.636	1	-4
631.975	1	-4
632.314	1	0
632.653	1	0
632.993	1	12
633.332	1	2
633.671	1	7
634.010	1	4
634.349	1	4
634.689	1	1
635.028	1	-3
635.367	1	1
635.706	1	-6
636.045	1	-7
636.384	1	5
636.724	1	5
637.063	1	2
637.402	1	3
637.741	1	-1
638.080	1	9
638.419	1	-1
638.759	1	13
639.098	1	-1
639.437	1	5
639.776	1	3
640.115	1	-5
640.454	1	1
640.793	1	-3
641.132	1	5
641.472	1	7
641.811	1	2
642.150	1	1
642.489	1	9
642.828	1	10
643.167	1	2
643.506	1	-3
643.845	1	4
644.184	1	1
644.524	1	-3
644.863	1	3
645.202	1	-2
645.541	1	0
645.880	1	3
646.219	1	-4
646.558	1	-6
646.897	1	-6
647.236	1	-5
647.575	1	4
647.914	1	6
648.253	1	18
648.592	1	9
648.931	1	4
649.270	1	8
649.610	1	1
649.949	1	0
650.288	1	8
650.627	1	-6
650.966	1	9
651.305	1	3
651.644	1	15
651.983	1	-7
652.322	1	6
652.661	1	4
653.000	1	3
653.339	1	-8
653.678	1	1
654.017	1	9
654.356	1	9
654.695	1	17
655.034	1	-2
655.373	1	-2
655.712	1	7
656.051	1	4
656.390	1	4
656.729	1	2
657.068	1	-5
657.406	1	-6
657.745	1	14
658.084	1	5
658.423	1	6
658.762	1	-10
659.101	1	0
659.440	1	2
659.779	1	6
660.118	1	-2
660.457	1	0
660.796	1	6
661.135	1	5
661.474	1	7
661.813	1	13
662.152	1	9
662.491	1	-2
662.829	1	5
663.168	1	5
663.507	1	2
663.846	1	-2
664.185	1	0
664.524	1	4
664.863	1	-4
665.202	1	-2
665.541	1	4
665.879	1	0
666.218	1	6
666.557	1	4
666.896	1	3
667.235	1	-8
667.574	1	-4
667.913	1	12
668.251	1	-7
668.590	1	2
668.929	1	5
669.268	1	8
669.607	1	-6
669.946	1	3
670.285	1	-3
670.623	1	8
670.962	1	-7
671.301	1	5
671.640	1	15
671.979	1	6
672.317	1	3
672.656	1	6
672.995	1	8
673.334	1	2
673.673	1	17
674.011	1	5
674.350	1	0
674.689	1	-1
675.028	1	6
675.367	1	-1
675.705	1	-9
676.044	1	0
676.383	1	6
676.722	1	-5
677.060	1	-1
677.399	1	12
677.738	1	-8
678.077	1	0
678.416	1	-12
678.754	1	-4
679.093	1	0
679.432	1	-3
679.771	1	3
680.109	1	5
680.448	1	-3
680.787	1	-11
681.125	1	0
681.464	1	10
681.803	1	0
682.142	1	1
682.480	1	-2
682.819	1	3
683.158	1	-6
683.496	1	8
683.835	1	-5
684.174	1	4
684.512	1	1
684.851	1	-12
685.190	1	3
685.529	1	0
685.867	1	-4
686.206	1	-5
686.545	1	-10
686.883	1	14
687.222	1	-10
687.561	1	7
687.899	1	-9
688.238	1	4
688.577	1	5
688.746	1	3