File: Data/GaN_150K_450ms/GaN_sample D_spot15_UVVIS_150 K_200um_450 ms 2x2mm1_265.txt
340.368	1	0
340.710	1	4
341.052	1	1
341.394	1	-4
341.737	1	7
342.079	1	7
342.421	1	0
342.763	1	2
343.105	1	6
343.447	1	1
343.789	1	4
344.131	1	-4
344.473	1	3
344.815	1	-3
345.157	1	11
345.499	1	3
345.841	1	2
346.183	1	-5
346.526	1	13
346.868	1	0
347.210	1	1
347.552	1	19
347.894	1	-4
348.236	1	7
348.578	1	-1
348.920	1	6
349.262	1	3
349.604	1	-7
349.946	1	6
350.288	1	-6
350.630	1	-2
350.972	1	13
351.314	1	-5
351.656	1	6
351.998	1	2
352.340	1	3
352.682	1	-15
353.024	1	3
353.366	1	9
353.708	1	4
354.050	1	-7
354.392	1	-7
354.734	1	10
355.076	1	13
355.418	1	6
355.760	1	3
356.102	1	-9
356.444	1	13
356.785	1	4
357.127	1	11
357.469	1	2
357.811	1	6
358.153	1	-13
358.495	1	-2
358.837	1	15
359.179	1	5
359.521	1	5
359.863	1	2
360.205	1	10
360.547	1	6
360.889	1	3
361.231	1	1
361.572	1	8
361.914	1	2
362.256	1	12
362.598	1	10
362.940	1	17
363.282	1	-3
363.624	1	6
363.966	1	0
364.308	1	17
364.649	1	12
364.991	1	21
365.333	1	6
365.675	1	16
366.017	1	17
366.359	1	10
366.701	1	7
367.042	1	15
367.384	1	7
367.726	1	12
368.068	1	25
368.410	1	15
368.752	1	32
369.093	1	19
369.435	1	21
369.777	1	27
370.119	1	13
370.461	1	14
370.803	1	5
371.144	1	11
371.486	1	16
371.828	1	9
372.170	1	3
372.512	1	0
372.853	1	18
373.195	1	7
373.537	1	-3
373.879	1	12
374.220	1	12
374.562	1	14
374.904	1	12
375.246	1	22
375.588	1	4
375.929	1	12
376.271	1	7
376.613	1	14
376.955	1	9
377.296	1	4
377.638	1	-6
377.980	1	-1
378.321	1	10
378.663	1	11
379.005	1	-1
379.347	1	4
379.688	1	9
380.030	1	13
380.372	1	9
380.714	1	11
381.055	1	9
381.397	1	3
381.739	1	-4
382.080	1	5
382.422	1	10
382.764	1	4
383.105	1	2
383.447	1	2
383.789	1	3
384.130	1	7
384.472	1	-5
384.814	1	9
385.156	1	11
385.497	1	14
385.839	1	-1
386.180	1	-2
386.522	1	2
386.864	1	-3
387.205	1	2
387.547	1	8
387.889	1	-1
388.230	1	4
388.572	1	0
388.914	1	11
389.255	1	9
389.597	1	-2
389.939	1	11
390.280	1	1
390.622	1	-5
390.963	1	-3
391.305	1	-5
391.647	1	-4
391.988	1	0
392.330	1	-1
392.671	1	7
393.013	1	3
393.355	1	16
393.696	1	0
394.038	1	7
394.379	1	2
394.721	1	-1
395.062	1	0
395.404	1	3
395.746	1	-5
396.087	1	14
396.429	1	6
396.770	1	6
397.112	1	-3
397.453	1	0
397.795	1	-6
398.136	1	10
398.478	1	0
398.819	1	2
399.161	1	6
399.503	1	2
399.844	1	-4
400.186	1	6
400.527	1	13
400.869	1	1
401.210	1	3
401.552	1	16
401.893	1	3
402.235	1	1
402.576	1	3
402.918	1	-5
403.259	1	6
403.601	1	7
403.942	1	-4
404.284	1	13
404.625	1	-4
404.967	1	2
405.308	1	-9
405.649	1	0
405.991	1	7
406.332	1	3
406.674	1	-2
407.015	1	8
407.357	1	10
407.698	1	-2
408.040	1	10
408.381	1	0
408.722	1	8
409.064	1	0
409.405	1	4
409.747	1	-5
410.088	1	5
410.430	1	12
410.771	1	1
411.112	1	6
411.454	1	8
411.795	1	3
412.137	1	0
412.478	1	16
412.819	1	8
413.161	1	2
413.502	1	8
413.844	1	7
414.185	1	0
414.526	1	1
414.868	1	-3
415.209	1	2
415.550	1	2
415.892	1	5
416.233	1	6
416.575	1	-6
416.916	1	1
417.257	1	4
417.599	1	14
417.940	1	-3
418.281	1	11
418.623	1	0
418.964	1	5
419.305	1	9
419.647	1	-4
419.988	1	16
420.329	1	6
420.671	1	10
421.012	1	-2
421.353	1	6
421.695	1	3
422.036	1	9
422.377	1	-1
422.718	1	-3
423.060	1	3
423.401	1	5
423.742	1	10
424.084	1	6
424.425	1	8
424.766	1	4
425.107	1	-1
425.449	1	5
425.790	1	6
426.131	1	7
426.472	1	16
426.814	1	7
427.155	1	8
427.496	1	0
427.837	1	1
428.179	1	12
428.520	1	7
428.861	1	9
429.202	1	-5
429.544	1	6
429.885	1	4
430.226	1	-11
430.567	1	-5
430.909	1	-1
431.250	1	7
431.591	1	1
431.932	1	8
432.273	1	7
432.615	1	-1
432.956	1	4
433.297	1	5
433.638	1	5
433.979	1	4
434.320	1	-2
434.662	1	11
435.003	1	5
435.344	1	5
435.685	1	2
436.026	1	-7
436.368	1	7
436.709	1	0
437.050	1	-6
437.391	1	1
437.732	1	9
438.073	1	-4
438.414	1	8
438.756	1	4
439.097	1	2
439.438	1	13
439.779	1	7
440.120	1	2
440.461	1	9
440.802	1	5
441.143	1	0
441.485	1	3
441.826	1	6
442.167	1	5
442.508	1	6
442.849	1	8
443.190	1	3
443.531	1	2
443.872	1	0
444.213	1	-1
444.554	1	7
444.895	1	2
445.237	1	7
445.578	1	1
445.919	1	3
446.260	1	10
446.601	1	4
446.942	1	5
447.283	1	10
447.624	1	-7
447.965	1	4
448.306	1	6
448.647	1	0
448.988	1	-4
449.329	1	4
449.670	1	5
450.011	1	-4
450.352	1	1
450.693	1	5
451.034	1	-6
451.375	1	9
451.716	1	6
452.057	1	11
452.398	1	12
452.739	1	5
453.080	1	2
453.421	1	1
453.762	1	3
454.103	1	4
454.444	1	0
454.785	1	10
455.126	1	0
455.467	1	5
455.808	1	8
456.149	1	2
456.490	1	-2
456.831	1	1
457.172	1	1
457.513	1	2
457.854	1	-5
458.195	1	6
458.536	1	8
458.877	1	4
459.218	1	8
459.559	1	-1
459.899	1	6
460.240	1	-3
460.581	1	-5
460.922	1	3
461.263	1	10
461.604	1	2
461.945	1	10
462.286	1	-4
462.627	1	2
462.968	1	3
463.309	1	4
463.649	1	5
463.990	1	6
464.331	1	9
464.672	1	0
465.013	1	-3
465.354	1	15
465.695	1	10
466.036	1	0
466.376	1	14
466.717	1	-3
467.058	1	5
467.399	1	-3
467.740	1	15
468.081	1	2
468.422	1	3
468.762	1	9
469.103	1	-1
469.444	1	5
469.785	1	4
470.126	1	14
470.467	1	-4
470.807	1	1
471.148	1	-1
471.489	1	6
471.830	1	3
472.171	1	0
472.511	1	6
472.852	1	14
473.193	1	8
473.534	1	0
473.875	1	7
474.215	1	-5
474.556	1	-5
474.897	1	-7
475.238	1	14
475.578	1	2
475.919	1	1
476.260	1	-5
476.601	1	-3
476.942	1	-2
477.282	1	-8
477.623	1	-2
477.964	1	-4
478.305	1	7
478.645	1	7
478.986	1	13
479.327	1	13
479.667	1	10
480.008	1	10
480.349	1	-2
480.690	1	-1
481.030	1	-2
481.371	1	-12
481.712	1	13
482.053	1	3
482.393	1	-9
482.734	1	2
483.075	1	1
483.415	1	6
483.756	1	6
484.097	1	13
484.437	1	7
484.778	1	-6
485.119	1	8
485.459	1	-8
485.800	1	-3
486.141	1	9
486.481	1	-9
486.822	1	10
487.163	1	-12
487.503	1	5
487.844	1	-1
488.185	1	6
488.525	1	-2
488.866	1	4
489.207	1	-4
489.547	1	7
489.888	1	3
490.228	1	12
490.569	1	-9
490.910	1	8
491.250	1	4
491.591	1	-1
491.932	1	1
492.272	1	-9
492.613	1	-2
492.953	1	1
493.294	1	-10
493.635	1	7
493.975	1	17
494.316	1	-10
494.656	1	1
494.997	1	-6
495.337	1	1
495.678	1	1
496.019	1	-3
496.359	1	3
496.700	1	3
497.040	1	-8
497.381	1	7
497.721	1	-6
498.062	1	-5
498.403	1	10
498.743	1	6
499.084	1	7
499.424	1	-1
499.765	1	7
500.105	1	16
500.446	1	0
500.786	1	-9
501.127	1	0
501.467	1	2
501.808	1	2
502.148	1	-2
502.489	1	4
502.829	1	-7
503.170	1	6
503.510	1	-4
503.851	1	15
504.191	1	-3
504.532	1	11
504.872	1	-1
505.213	1	-3
505.553	1	6
505.894	1	4
506.234	1	20
506.575	1	18
506.915	1	1
507.256	1	4
507.596	1	5
507.936	1	6
508.277	1	13
508.617	1	8
508.958	1	2
509.298	1	-5
509.639	1	-1
509.979	1	1
510.319	1	13
510.660	1	0
511.000	1	-3
511.341	1	13
511.681	1	10
512.022	1	-4
512.362	1	6
512.702	1	-5
513.043	1	4
513.383	1	10
513.724	1	-6
514.064	1	12
514.404	1	5
514.745	1	-6
515.085	1	2
515.425	1	1
515.766	1	0
516.106	1	-2
516.447	1	9
516.787	1	11
517.127	1	10
517.468	1	15
517.808	1	-5
518.148	1	13
518.489	1	4
518.829	1	5
519.169	1	-1
519.510	1	-5
519.850	1	10
520.190	1	6
520.531	1	4
520.871	1	4
521.211	1	6
521.552	1	-4
521.892	1	1
522.232	1	-2
522.573	1	0
522.913	1	4
523.253	1	5
523.593	1	14
523.934	1	8
524.274	1	1
524.614	1	10
524.955	1	1
525.295	1	8
525.635	1	5
525.975	1	1
526.316	1	-7
526.656	1	4
526.996	1	0
527.337	1	16
527.677	1	19
528.017	1	-6
528.357	1	6
528.698	1	13
529.038	1	2
529.378	1	5
529.718	1	3
530.058	1	1
530.399	1	0
530.739	1	8
531.079	1	2
531.419	1	12
531.760	1	6
532.100	1	13
532.440	1	9
532.780	1	9
533.120	1	1
533.461	1	2
533.801	1	2
534.141	1	6
534.481	1	18
534.821	1	4
535.162	1	8
535.502	1	10
535.842	1	-1
536.182	1	12
536.522	1	-2
536.862	1	-7
537.203	1	7
537.543	1	3
537.883	1	2
538.223	1	6
538.563	1	-1
538.903	1	6
539.243	1	6
539.584	1	6
539.924	1	8
540.264	1	13
540.604	1	11
540.944	1	13
541.284	1	4
541.624	1	3
541.964	1	1
542.305	1	15
542.645	1	-2
542.985	1	2
543.325	1	10
543.665	1	9
544.005	1	7
544.345	1	9
544.685	1	-3
545.025	1	10
545.365	1	-3
545.705	1	3
546.045	1	-6
546.386	1	3
546.726	1	-2
547.066	1	-15
547.406	1	-4
547.746	1	6
548.086	1	-1
548.426	1	6
548.766	1	7
549.106	1	-1
549.446	1	9
549.786	1	9
550.126	1	5
550.466	1	3
550.806	1	7
551.146	1	3
551.486	1	4
551.826	1	1
552.166	1	2
552.506	1	-6
552.846	1	-1
553.186	1	4
553.526	1	4
553.866	1	3
554.206	1	8
554.546	1	4
554.886	1	-5
555.226	1	6
555.566	1	7
555.906	1	0
556.246	1	8
556.586	1	8
556.926	1	6
557.266	1	11
557.606	1	0
557.946	1	4
558.286	1	-9
558.626	1	10
558.966	1	1
559.306	1	2
559.646	1	11
559.986	1	10
560.325	1	1
560.665	1	6
561.005	1	0
561.345	1	0
561.685	1	7
562.025	1	2
562.365	1	11
562.705	1	7
563.045	1	9
563.385	1	4
563.725	1	-3
564.064	1	2
564.404	1	-5
564.744	1	8
565.084	1	-1
565.424	1	-13
565.764	1	2
566.104	1	6
566.444	1	10
566.783	1	3
567.123	1	-3
567.463	1	6
567.803	1	6
568.143	1	3
568.483	1	7
568.823	1	6
569.162	1	-11
569.502	1	14
569.842	1	0
570.182	1	-7
570.522	1	-6
570.862	1	-15
571.201	1	15
571.541	1	7
571.881	1	3
572.221	1	3
572.561	1	10
572.900	1	5
573.240	1	0
573.580	1	8
573.920	1	9
574.260	1	9
574.599	1	8
574.939	1	1
575.279	1	-2
575.619	1	3
575.959	1	-6
576.298	1	-11
576.638	1	5
576.978	1	5
577.318	1	5
577.657	1	4
577.997	1	5
578.337	1	0
578.677	1	0
579.016	1	3
579.356	1	4
579.696	1	1
580.036	1	2
580.375	1	4
580.715	1	4
581.055	1	2
581.394	1	1
581.734	1	0
582.074	1	-1
582.414	1	1
582.753	1	0
583.093	1	-1
583.433	1	10
583.772	1	9
584.112	1	10
584.452	1	1
584.791	1	-1
585.131	1	1
585.471	1	5
585.811	1	9
586.150	1	6
586.490	1	7
586.830	1	1
587.169	1	-2
587.509	1	6
587.849	1	9
588.188	1	7
588.528	1	-2
588.867	1	8
589.207	1	6
589.547	1	11
589.886	1	4
590.226	1	1
590.566	1	-8
590.905	1	-1
591.245	1	-3
591.585	1	-1
591.924	1	3
592.264	1	5
592.603	1	-6
592.943	1	-4
593.283	1	4
593.622	1	-6
593.962	1	5
594.301	1	0
594.641	1	8
594.981	1	1
595.320	1	6
595.660	1	4
595.999	1	2
596.339	1	5
596.678	1	-5
597.018	1	3
597.358	1	2
597.697	1	1
598.037	1	1
598.376	1	-5
598.716	1	1
599.055	1	2
599.395	1	7
599.734	1	11
600.074	1	-3
600.413	1	1
600.753	1	11
601.092	1	-4
601.432	1	-8
601.771	1	10
602.111	1	-1
602.451	1	-9
602.790	1	4
603.130	1	10
603.469	1	5
603.809	1	1
604.148	1	-1
604.487	1	7
604.827	1	9
605.166	1	2
605.506	1	-2
605.845	1	8
606.185	1	-3
606.524	1	-2
606.864	1	14
607.203	1	5
607.543	1	10
607.882	1	9
608.222	1	3
608.561	1	-4
608.901	1	3
609.240	1	4
609.579	1	10
609.919	1	-10
610.258	1	10
610.598	1	-8
610.937	1	0
611.277	1	-1
611.616	1	6
611.955	1	-8
612.295	1	16
612.634	1	3
612.974	1	0
613.313	1	8
613.652	1	7
613.992	1	-5
614.331	1	12
614.671	1	1
615.010	1	5
615.349	1	3
615.689	1	0
616.028	1	16
616.368	1	2
616.707	1	1
617.046	1	-1
617.386	1	4
617.725	1	1
618.064	1	-3
618.404	1	-4
618.743	1	3
619.082	1	22
619.422	1	16
619.761	1	-8
620.100	1	2
620.440	1	3
620.779	1	-1
621.118	1	6
621.458	1	-5
621.797	1	1
622.136	1	-9
622.476	1	0
622.815	1	8
623.154	1	-7
623.494	1	-12
623.833	1	-1
624.172	1	3
624.511	1	-1
624.851	1	2
625.190	1	-7
625.529	1	-2
625.869	1	11
626.208	1	-6
626.547	1	-2
626.886	1	-5
627.226	1	5
627.565	1	11
627.904	1	-5
628.243	1	20
628.583	1	9
628.922	1	2
629.261	1	7
629.600	1	4
629.940	1	8
630.279	1	10
630.618	1	9
630.957	1	4
631.297	1	11
631.636	1	2
631.975	1	2
632.314	1	1
632.653	1	-2
632.993	1	-1
633.332	1	5
633.671	1	2
634.010	1	-6
634.349	1	5
634.689	1	-1
635.028	1	-4
635.367	1	13
635.706	1	-5
636.045	1	-4
636.384	1	6
636.724	1	4
637.063	1	-6
637.402	1	5
637.741	1	0
638.080	1	11
638.419	1	6
638.759	1	2
639.098	1	-1
639.437	1	3
639.776	1	2
640.115	1	2
640.454	1	-9
640.793	1	-7
641.132	1	0
641.472	1	14
641.811	1	-6
642.150	1	-7
642.489	1	9
642.828	1	14
643.167	1	13
643.506	1	3
643.845	1	12
644.184	1	6
644.524	1	7
644.863	1	-5
645.202	1	-6
645.541	1	0
645.880	1	4
646.219	1	-1
646.558	1	6
646.897	1	7
647.236	1	-11
647.575	1	9
647.914	1	4
648.253	1	11
648.592	1	4
648.931	1	2
649.270	1	15
649.610	1	0
649.949	1	1
650.288	1	8
650.627	1	-2
650.966	1	3
651.305	1	2
651.644	1	6
651.983	1	1
652.322	1	2
652.661	1	5
653.000	1	0
653.339	1	0
653.678	1	7
654.017	1	1
654.356	1	0
654.695	1	6
655.034	1	-6
655.373	1	4
655.712	1	15
656.051	1	-8
656.390	1	6
656.729	1	8
657.068	1	1
657.406	1	-7
657.745	1	15
658.084	1	8
658.423	1	0
658.762	1	-3
659.101	1	-4
659.440	1	6
659.779	1	6
660.118	1	-5
660.457	1	-7
660.796	1	11
661.135	1	10
661.474	1	7
661.813	1	-4
662.152	1	4
662.491	1	-6
662.829	1	2
663.168	1	3
663.507	1	3
663.846	1	-8
664.185	1	8
664.524	1	11
664.863	1	-3
665.202	1	7
665.541	1	-1
665.879	1	0
666.218	1	11
666.557	1	7
666.896	1	-1
667.235	1	-2
667.574	1	6
667.913	1	-3
668.251	1	-8
668.590	1	-5
668.929	1	1
669.268	1	8
669.607	1	-3
669.946	1	-7
670.285	1	2
670.623	1	6
670.962	1	-7
671.301	1	15
671.640	1	4
671.979	1	1
672.317	1	-6
672.656	1	5
672.995	1	4
673.334	1	5
673.673	1	8
674.011	1	12
674.350	1	2
674.689	1	-4
675.028	1	6
675.367	1	8
675.705	1	-7
676.044	1	1
676.383	1	5
676.722	1	3
677.060	1	8
677.399	1	14
677.738	1	-4
678.077	1	-8
678.416	1	-4
678.754	1	-4
679.093	1	4
679.432	1	-7
679.771	1	-4
680.109	1	-1
680.448	1	-1
680.787	1	-8
681.125	1	-9
681.464	1	5
681.803	1	-9
682.142	1	5
682.480	1	0
682.819	1	3
683.158	1	0
683.496	1	-9
683.835	1	4
684.174	1	7
684.512	1	-2
684.851	1	-4
685.190	1	2
685.529	1	-8
685.867	1	1
686.206	1	-13
686.545	1	-10
686.883	1	10
687.222	1	-3
687.561	1	-2
687.899	1	-2
688.238	1	6
688.577	1	-2
688.746	1	-6