File: Data/GaN_150K_450ms/GaN_sample D_spot15_UVVIS_150 K_200um_450 ms 2x2mm1_53.txt
340.368	1	6
340.710	1	2
341.052	1	5
341.394	1	-1
341.737	1	9
342.079	1	5
342.421	1	3
342.763	1	8
343.105	1	13
343.447	1	2
343.789	1	11
344.131	1	-7
344.473	1	8
344.815	1	5
345.157	1	21
345.499	1	2
345.841	1	7
346.183	1	10
346.526	1	6
346.868	1	-1
347.210	1	-2
347.552	1	20
347.894	1	7
348.236	1	13
348.578	1	11
348.920	1	10
349.262	1	15
349.604	1	8
349.946	1	9
350.288	1	8
350.630	1	-1
350.972	1	20
351.314	1	5
351.656	1	16
351.998	1	14
352.340	1	18
352.682	1	5
353.024	1	29
353.366	1	13
353.708	1	19
354.050	1	5
354.392	1	13
354.734	1	17
355.076	1	36
355.418	1	19
355.760	1	20
356.102	1	28
356.444	1	37
356.785	1	34
357.127	1	40
357.469	1	45
357.811	1	34
358.153	1	24
358.495	1	46
358.837	1	61
359.179	1	55
359.521	1	62
359.863	1	69
360.205	1	79
360.547	1	76
360.889	1	99
361.231	1	108
361.572	1	117
361.914	1	139
362.256	1	155
362.598	1	184
362.940	1	196
363.282	1	229
363.624	1	254
363.966	1	308
364.308	1	359
364.649	1	420
364.991	1	474
365.333	1	550
365.675	1	619
366.017	1	673
366.359	1	755
366.701	1	822
367.042	1	892
367.384	1	967
367.726	1	948
368.068	1	995
368.410	1	1012
368.752	1	993
369.093	1	943
369.435	1	916
369.777	1	863
370.119	1	806
370.461	1	728
370.803	1	668
371.144	1	629
371.486	1	596
371.828	1	526
372.170	1	493
372.512	1	472
372.853	1	438
373.195	1	417
373.537	1	391
373.879	1	375
374.220	1	352
374.562	1	345
374.904	1	307
375.246	1	309
375.588	1	269
375.929	1	279
376.271	1	248
376.613	1	235
376.955	1	225
377.296	1	204
377.638	1	202
377.980	1	178
378.321	1	175
378.663	1	165
379.005	1	173
379.347	1	151
379.688	1	158
380.030	1	127
380.372	1	135
380.714	1	132
381.055	1	118
381.397	1	123
381.739	1	112
382.080	1	114
382.422	1	126
382.764	1	115
383.105	1	116
383.447	1	119
383.789	1	116
384.130	1	128
384.472	1	132
384.814	1	127
385.156	1	132
385.497	1	140
385.839	1	131
386.180	1	126
386.522	1	124
386.864	1	116
387.205	1	113
387.547	1	115
387.889	1	107
388.230	1	111
388.572	1	107
388.914	1	105
389.255	1	93
389.597	1	96
389.939	1	110
390.280	1	95
390.622	1	83
390.963	1	95
391.305	1	93
391.647	1	94
391.988	1	77
392.330	1	82
392.671	1	88
393.013	1	77
393.355	1	87
393.696	1	83
394.038	1	77
394.379	1	84
394.721	1	83
395.062	1	69
395.404	1	73
395.746	1	70
396.087	1	72
396.429	1	83
396.770	1	78
397.112	1	85
397.453	1	88
397.795	1	74
398.136	1	83
398.478	1	72
398.819	1	74
399.161	1	90
399.503	1	76
399.844	1	74
400.186	1	59
400.527	1	66
400.869	1	60
401.210	1	73
401.552	1	63
401.893	1	73
402.235	1	55
402.576	1	60
402.918	1	48
403.259	1	55
403.601	1	56
403.942	1	62
404.284	1	72
404.625	1	53
404.967	1	65
405.308	1	49
405.649	1	42
405.991	1	60
406.332	1	59
406.674	1	45
407.015	1	58
407.357	1	65
407.698	1	44
408.040	1	58
408.381	1	37
408.722	1	53
409.064	1	57
409.405	1	44
409.747	1	45
410.088	1	54
410.430	1	54
410.771	1	49
411.112	1	50
411.454	1	47
411.795	1	45
412.137	1	42
412.478	1	40
412.819	1	46
413.161	1	42
413.502	1	40
413.844	1	48
414.185	1	41
414.526	1	35
414.868	1	28
415.209	1	36
415.550	1	29
415.892	1	39
416.233	1	31
416.575	1	38
416.916	1	42
417.257	1	31
417.599	1	47
417.940	1	24
418.281	1	35
418.623	1	54
418.964	1	41
419.305	1	48
419.647	1	38
419.988	1	46
420.329	1	43
420.671	1	42
421.012	1	35
421.353	1	43
421.695	1	42
422.036	1	32
422.377	1	30
422.718	1	40
423.060	1	38
423.401	1	25
423.742	1	32
424.084	1	27
424.425	1	38
424.766	1	28
425.107	1	32
425.449	1	29
425.790	1	37
426.131	1	18
426.472	1	45
426.814	1	40
427.155	1	25
427.496	1	31
427.837	1	29
428.179	1	38
428.520	1	24
428.861	1	40
429.202	1	21
429.544	1	42
429.885	1	40
430.226	1	19
430.567	1	23
430.909	1	32
431.250	1	37
431.591	1	34
431.932	1	21
432.273	1	37
432.615	1	34
432.956	1	17
433.297	1	25
433.638	1	39
433.979	1	35
434.320	1	18
434.662	1	41
435.003	1	39
435.344	1	26
435.685	1	22
436.026	1	13
436.368	1	21
436.709	1	21
437.050	1	28
437.391	1	21
437.732	1	27
438.073	1	32
438.414	1	24
438.756	1	23
439.097	1	18
439.438	1	27
439.779	1	21
440.120	1	18
440.461	1	27
440.802	1	28
441.143	1	25
441.485	1	26
441.826	1	25
442.167	1	28
442.508	1	31
442.849	1	19
443.190	1	18
443.531	1	28
443.872	1	21
444.213	1	2
444.554	1	24
444.895	1	21
445.237	1	32
445.578	1	27
445.919	1	20
446.260	1	41
446.601	1	20
446.942	1	18
447.283	1	19
447.624	1	22
447.965	1	23
448.306	1	13
448.647	1	14
448.988	1	24
449.329	1	32
449.670	1	28
450.011	1	17
450.352	1	25
450.693	1	31
451.034	1	13
451.375	1	19
451.716	1	29
452.057	1	21
452.398	1	32
452.739	1	22
453.080	1	20
453.421	1	29
453.762	1	33
454.103	1	28
454.444	1	21
454.785	1	30
455.126	1	24
455.467	1	26
455.808	1	33
456.149	1	20
456.490	1	19
456.831	1	28
457.172	1	30
457.513	1	13
457.854	1	32
458.195	1	26
458.536	1	21
458.877	1	35
459.218	1	30
459.559	1	19
459.899	1	24
460.240	1	26
460.581	1	17
460.922	1	29
461.263	1	25
461.604	1	18
461.945	1	31
462.286	1	14
462.627	1	18
462.968	1	28
463.309	1	19
463.649	1	23
463.990	1	21
464.331	1	26
464.672	1	26
465.013	1	18
465.354	1	30
465.695	1	21
466.036	1	33
466.376	1	31
466.717	1	10
467.058	1	28
467.399	1	13
467.740	1	30
468.081	1	19
468.422	1	21
468.762	1	27
469.103	1	19
469.444	1	33
469.785	1	21
470.126	1	25
470.467	1	28
470.807	1	30
471.148	1	7
471.489	1	30
471.830	1	27
472.171	1	31
472.511	1	22
472.852	1	36
473.193	1	17
473.534	1	29
473.875	1	29
474.215	1	29
474.556	1	17
474.897	1	19
475.238	1	38
475.578	1	24
475.919	1	26
476.260	1	25
476.601	1	32
476.942	1	27
477.282	1	25
477.623	1	31
477.964	1	32
478.305	1	41
478.645	1	42
478.986	1	44
479.327	1	45
479.667	1	31
480.008	1	42
480.349	1	25
480.690	1	41
481.030	1	33
481.371	1	30
481.712	1	41
482.053	1	47
482.393	1	32
482.734	1	34
483.075	1	36
483.415	1	34
483.756	1	43
484.097	1	41
484.437	1	53
484.778	1	38
485.119	1	38
485.459	1	37
485.800	1	35
486.141	1	54
486.481	1	45
486.822	1	53
487.163	1	35
487.503	1	57
487.844	1	41
488.185	1	58
488.525	1	48
488.866	1	40
489.207	1	54
489.547	1	59
489.888	1	63
490.228	1	51
490.569	1	53
490.910	1	69
491.250	1	71
491.591	1	56
491.932	1	75
492.272	1	47
492.613	1	60
492.953	1	59
493.294	1	56
493.635	1	64
493.975	1	75
494.316	1	60
494.656	1	75
494.997	1	50
495.337	1	72
495.678	1	70
496.019	1	66
496.359	1	71
496.700	1	69
497.040	1	74
497.381	1	77
497.721	1	67
498.062	1	78
498.403	1	89
498.743	1	86
499.084	1	88
499.424	1	82
499.765	1	103
500.105	1	101
500.446	1	83
500.786	1	86
501.127	1	105
501.467	1	100
501.808	1	99
502.148	1	92
502.489	1	104
502.829	1	101
503.170	1	120
503.510	1	117
503.851	1	115
504.191	1	120
504.532	1	121
504.872	1	117
505.213	1	116
505.553	1	115
505.894	1	121
506.234	1	126
506.575	1	141
506.915	1	138
507.256	1	135
507.596	1	127
507.936	1	129
508.277	1	136
508.617	1	125
508.958	1	123
509.298	1	128
509.639	1	133
509.979	1	130
510.319	1	122
510.660	1	124
511.000	1	138
511.341	1	147
511.681	1	133
512.022	1	127
512.362	1	141
512.702	1	130
513.043	1	147
513.383	1	149
513.724	1	145
514.064	1	154
514.404	1	152
514.745	1	143
515.085	1	151
515.425	1	154
515.766	1	151
516.106	1	149
516.447	1	164
516.787	1	148
517.127	1	148
517.468	1	169
517.808	1	155
518.148	1	164
518.489	1	170
518.829	1	171
519.169	1	163
519.510	1	139
519.850	1	179
520.190	1	168
520.531	1	177
520.871	1	166
521.211	1	184
521.552	1	166
521.892	1	169
522.232	1	173
522.573	1	187
522.913	1	177
523.253	1	180
523.593	1	175
523.934	1	166
524.274	1	168
524.614	1	173
524.955	1	164
525.295	1	185
525.635	1	183
525.975	1	185
526.316	1	173
526.656	1	187
526.996	1	180
527.337	1	189
527.677	1	191
528.017	1	193
528.357	1	204
528.698	1	195
529.038	1	189
529.378	1	207
529.718	1	199
530.058	1	187
530.399	1	198
530.739	1	210
531.079	1	203
531.419	1	208
531.760	1	190
532.100	1	200
532.440	1	206
532.780	1	204
533.120	1	204
533.461	1	202
533.801	1	193
534.141	1	207
534.481	1	216
534.821	1	185
535.162	1	184
535.502	1	189
535.842	1	182
536.182	1	177
536.522	1	180
536.862	1	161
537.203	1	169
537.543	1	167
537.883	1	181
538.223	1	183
538.563	1	167
538.903	1	171
539.243	1	174
539.584	1	163
539.924	1	175
540.264	1	168
540.604	1	180
540.944	1	177
541.284	1	163
541.624	1	163
541.964	1	169
542.305	1	170
542.645	1	165
542.985	1	162
543.325	1	174
543.665	1	168
544.005	1	177
544.345	1	173
544.685	1	161
545.025	1	178
545.365	1	173
545.705	1	160
546.045	1	189
546.386	1	164
546.726	1	167
547.066	1	170
547.406	1	171
547.746	1	185
548.086	1	170
548.426	1	178
548.766	1	175
549.106	1	173
549.446	1	178
549.786	1	185
550.126	1	163
550.466	1	167
550.806	1	177
551.146	1	177
551.486	1	167
551.826	1	156
552.166	1	183
552.506	1	158
552.846	1	160
553.186	1	167
553.526	1	151
553.866	1	156
554.206	1	162
554.546	1	162
554.886	1	140
555.226	1	137
555.566	1	150
555.906	1	148
556.246	1	139
556.586	1	141
556.926	1	152
557.266	1	150
557.606	1	131
557.946	1	146
558.286	1	113
558.626	1	137
558.966	1	140
559.306	1	142
559.646	1	135
559.986	1	143
560.325	1	147
560.665	1	133
561.005	1	139
561.345	1	121
561.685	1	125
562.025	1	126
562.365	1	145
562.705	1	138
563.045	1	124
563.385	1	128
563.725	1	126
564.064	1	130
564.404	1	117
564.744	1	135
565.084	1	119
565.424	1	118
565.764	1	123
566.104	1	126
566.444	1	129
566.783	1	127
567.123	1	119
567.463	1	118
567.803	1	129
568.143	1	117
568.483	1	127
568.823	1	122
569.162	1	115
569.502	1	118
569.842	1	121
570.182	1	124
570.522	1	106
570.862	1	112
571.201	1	132
571.541	1	111
571.881	1	100
572.221	1	107
572.561	1	108
572.900	1	113
573.240	1	106
573.580	1	98
573.920	1	108
574.260	1	111
574.599	1	117
574.939	1	106
575.279	1	99
575.619	1	112
575.959	1	100
576.298	1	80
576.638	1	97
576.978	1	102
577.318	1	104
577.657	1	113
577.997	1	102
578.337	1	105
578.677	1	105
579.016	1	103
579.356	1	105
579.696	1	100
580.036	1	103
580.375	1	97
580.715	1	98
581.055	1	99
581.394	1	103
581.734	1	91
582.074	1	96
582.414	1	97
582.753	1	89
583.093	1	104
583.433	1	96
583.772	1	97
584.112	1	98
584.452	1	91
584.791	1	105
585.131	1	104
585.471	1	95
585.811	1	79
586.150	1	85
586.490	1	90
586.830	1	77
587.169	1	85
587.509	1	92
587.849	1	82
588.188	1	82
588.528	1	83
588.867	1	86
589.207	1	81
589.547	1	76
589.886	1	84
590.226	1	67
590.566	1	77
590.905	1	75
591.245	1	61
591.585	1	53
591.924	1	69
592.264	1	65
592.603	1	62
592.943	1	67
593.283	1	75
593.622	1	70
593.962	1	75
594.301	1	65
594.641	1	69
594.981	1	66
595.320	1	76
595.660	1	79
595.999	1	75
596.339	1	71
596.678	1	63
597.018	1	67
597.358	1	76
597.697	1	59
598.037	1	69
598.376	1	65
598.716	1	64
599.055	1	73
599.395	1	74
599.734	1	66
600.074	1	66
600.413	1	71
600.753	1	67
601.092	1	60
601.432	1	71
601.771	1	72
602.111	1	77
602.451	1	63
602.790	1	85
603.130	1	59
603.469	1	67
603.809	1	68
604.148	1	65
604.487	1	69
604.827	1	66
605.166	1	69
605.506	1	62
605.845	1	72
606.185	1	57
606.524	1	68
606.864	1	85
607.203	1	73
607.543	1	63
607.882	1	64
608.222	1	65
608.561	1	63
608.901	1	65
609.240	1	67
609.579	1	57
609.919	1	62
610.258	1	74
610.598	1	59
610.937	1	61
611.277	1	63
611.616	1	61
611.955	1	62
612.295	1	61
612.634	1	67
612.974	1	51
613.313	1	70
613.652	1	58
613.992	1	47
614.331	1	73
614.671	1	67
615.010	1	49
615.349	1	56
615.689	1	58
616.028	1	71
616.368	1	58
616.707	1	54
617.046	1	52
617.386	1	56
617.725	1	58
618.064	1	51
618.404	1	44
618.743	1	52
619.082	1	67
619.422	1	65
619.761	1	45
620.100	1	51
620.440	1	59
620.779	1	52
621.118	1	56
621.458	1	46
621.797	1	48
622.136	1	54
622.476	1	50
622.815	1	61
623.154	1	45
623.494	1	46
623.833	1	58
624.172	1	46
624.511	1	42
624.851	1	47
625.190	1	43
625.529	1	47
625.869	1	46
626.208	1	44
626.547	1	46
626.886	1	45
627.226	1	57
627.565	1	51
627.904	1	43
628.243	1	51
628.583	1	50
628.922	1	50
629.261	1	46
629.600	1	47
629.940	1	51
630.279	1	45
630.618	1	53
630.957	1	53
631.297	1	49
631.636	1	53
631.975	1	42
632.314	1	51
632.653	1	44
632.993	1	52
633.332	1	46
633.671	1	54
634.010	1	49
634.349	1	50
634.689	1	42
635.028	1	35
635.367	1	49
635.706	1	40
636.045	1	39
636.384	1	41
636.724	1	43
637.063	1	43
637.402	1	39
637.741	1	31
638.080	1	43
638.419	1	35
638.759	1	52
639.098	1	44
639.437	1	42
639.776	1	45
640.115	1	38
640.454	1	44
640.793	1	37
641.132	1	38
641.472	1	54
641.811	1	34
642.150	1	46
642.489	1	49
642.828	1	50
643.167	1	32
643.506	1	37
643.845	1	44
644.184	1	56
644.524	1	38
644.863	1	41
645.202	1	39
645.541	1	38
645.880	1	50
646.219	1	49
646.558	1	27
646.897	1	34
647.236	1	35
647.575	1	52
647.914	1	39
648.253	1	48
648.592	1	54
648.931	1	44
649.270	1	45
649.610	1	43
649.949	1	30
650.288	1	40
650.627	1	37
650.966	1	43
651.305	1	44
651.644	1	51
651.983	1	35
652.322	1	48
652.661	1	40
653.000	1	45
653.339	1	35
653.678	1	43
654.017	1	43
654.356	1	41
654.695	1	55
655.034	1	27
655.373	1	51
655.712	1	43
656.051	1	25
656.390	1	34
656.729	1	40
657.068	1	39
657.406	1	38
657.745	1	43
658.084	1	40
658.423	1	48
658.762	1	29
659.101	1	32
659.440	1	30
659.779	1	46
660.118	1	27
660.457	1	37
660.796	1	49
661.135	1	42
661.474	1	36
661.813	1	33
662.152	1	38
662.491	1	27
662.829	1	36
663.168	1	34
663.507	1	29
663.846	1	27
664.185	1	26
664.524	1	47
664.863	1	32
665.202	1	41
665.541	1	34
665.879	1	32
666.218	1	41
666.557	1	26
666.896	1	36
667.235	1	32
667.574	1	19
667.913	1	40
668.251	1	26
668.590	1	31
668.929	1	29
669.268	1	38
669.607	1	23
669.946	1	36
670.285	1	32
670.623	1	31
670.962	1	33
671.301	1	34
671.640	1	38
671.979	1	37
672.317	1	37
672.656	1	40
672.995	1	32
673.334	1	38
673.673	1	45
674.011	1	36
674.350	1	39
674.689	1	30
675.028	1	35
675.367	1	38
675.705	1	30
676.044	1	30
676.383	1	39
676.722	1	38
677.060	1	40
677.399	1	43
677.738	1	34
678.077	1	29
678.416	1	29
678.754	1	36
679.093	1	41
679.432	1	26
679.771	1	33
680.109	1	33
680.448	1	24
680.787	1	20
681.125	1	38
681.464	1	44
681.803	1	38
682.142	1	32
682.480	1	23
682.819	1	31
683.158	1	30
683.496	1	32
683.835	1	34
684.174	1	28
684.512	1	27
684.851	1	27
685.190	1	27
685.529	1	29
685.867	1	26
686.206	1	25
686.545	1	31
686.883	1	37
687.222	1	30
687.561	1	31
687.899	1	44
688.238	1	44
688.577	1	34
688.746	1	40