File: Data/GaN_150K_450ms/GaN_sample D_spot15_UVVIS_150 K_200um_450 ms 2x2mm1_160.txt
340.368	1	0
340.710	1	9
341.052	1	1
341.394	1	3
341.737	1	2
342.079	1	6
342.421	1	2
342.763	1	11
343.105	1	15
343.447	1	0
343.789	1	8
344.131	1	-1
344.473	1	5
344.815	1	3
345.157	1	10
345.499	1	5
345.841	1	5
346.183	1	4
346.526	1	1
346.868	1	-1
347.210	1	2
347.552	1	19
347.894	1	-2
348.236	1	15
348.578	1	6
348.920	1	3
349.262	1	7
349.604	1	-6
349.946	1	11
350.288	1	0
350.630	1	-7
350.972	1	19
351.314	1	9
351.656	1	3
351.998	1	-3
352.340	1	6
352.682	1	-5
353.024	1	18
353.366	1	11
353.708	1	-1
354.050	1	-4
354.392	1	-2
354.734	1	6
355.076	1	11
355.418	1	8
355.760	1	5
356.102	1	1
356.444	1	13
356.785	1	6
357.127	1	11
357.469	1	3
357.811	1	6
358.153	1	-11
358.495	1	15
358.837	1	13
359.179	1	10
359.521	1	8
359.863	1	2
360.205	1	13
360.547	1	19
360.889	1	4
361.231	1	15
361.572	1	23
361.914	1	24
362.256	1	13
362.598	1	20
362.940	1	20
363.282	1	5
363.624	1	16
363.966	1	13
364.308	1	18
364.649	1	20
364.991	1	29
365.333	1	16
365.675	1	27
366.017	1	29
366.359	1	27
366.701	1	29
367.042	1	44
367.384	1	31
367.726	1	40
368.068	1	44
368.410	1	42
368.752	1	46
369.093	1	39
369.435	1	44
369.777	1	48
370.119	1	33
370.461	1	35
370.803	1	42
371.144	1	27
371.486	1	39
371.828	1	22
372.170	1	27
372.512	1	16
372.853	1	34
373.195	1	24
373.537	1	7
373.879	1	17
374.220	1	24
374.562	1	20
374.904	1	18
375.246	1	20
375.588	1	12
375.929	1	12
376.271	1	14
376.613	1	13
376.955	1	16
377.296	1	18
377.638	1	19
377.980	1	16
378.321	1	13
378.663	1	10
379.005	1	9
379.347	1	13
379.688	1	19
380.030	1	22
380.372	1	11
380.714	1	6
381.055	1	3
381.397	1	7
381.739	1	-2
382.080	1	11
382.422	1	16
382.764	1	16
383.105	1	13
383.447	1	1
383.789	1	2
384.130	1	7
384.472	1	2
384.814	1	12
385.156	1	10
385.497	1	16
385.839	1	7
386.180	1	12
386.522	1	12
386.864	1	3
387.205	1	16
387.547	1	10
387.889	1	8
388.230	1	2
388.572	1	0
388.914	1	13
389.255	1	14
389.597	1	-2
389.939	1	13
390.280	1	7
390.622	1	-9
390.963	1	-1
391.305	1	0
391.647	1	8
391.988	1	5
392.330	1	5
392.671	1	10
393.013	1	17
393.355	1	7
393.696	1	9
394.038	1	10
394.379	1	16
394.721	1	0
395.062	1	-5
395.404	1	14
395.746	1	1
396.087	1	14
396.429	1	3
396.770	1	12
397.112	1	8
397.453	1	-3
397.795	1	7
398.136	1	8
398.478	1	1
398.819	1	10
399.161	1	11
399.503	1	11
399.844	1	5
400.186	1	10
400.527	1	13
400.869	1	8
401.210	1	2
401.552	1	9
401.893	1	4
402.235	1	10
402.576	1	7
402.918	1	0
403.259	1	2
403.601	1	9
403.942	1	8
404.284	1	18
404.625	1	4
404.967	1	7
405.308	1	-2
405.649	1	2
405.991	1	11
406.332	1	4
406.674	1	6
407.015	1	16
407.357	1	6
407.698	1	9
408.040	1	16
408.381	1	3
408.722	1	7
409.064	1	8
409.405	1	8
409.747	1	3
410.088	1	9
410.430	1	20
410.771	1	13
411.112	1	13
411.454	1	4
411.795	1	8
412.137	1	-1
412.478	1	12
412.819	1	6
413.161	1	2
413.502	1	0
413.844	1	15
414.185	1	7
414.526	1	5
414.868	1	3
415.209	1	4
415.550	1	7
415.892	1	15
416.233	1	7
416.575	1	10
416.916	1	-3
417.257	1	9
417.599	1	13
417.940	1	7
418.281	1	8
418.623	1	3
418.964	1	20
419.305	1	7
419.647	1	13
419.988	1	17
420.329	1	9
420.671	1	20
421.012	1	5
421.353	1	18
421.695	1	9
422.036	1	14
422.377	1	3
422.718	1	15
423.060	1	7
423.401	1	5
423.742	1	20
424.084	1	15
424.425	1	10
424.766	1	3
425.107	1	7
425.449	1	11
425.790	1	5
426.131	1	3
426.472	1	12
426.814	1	16
427.155	1	11
427.496	1	11
427.837	1	2
428.179	1	21
428.520	1	11
428.861	1	12
429.202	1	6
429.544	1	10
429.885	1	4
430.226	1	-2
430.567	1	-2
430.909	1	2
431.250	1	14
431.591	1	14
431.932	1	-3
432.273	1	13
432.615	1	5
432.956	1	15
433.297	1	8
433.638	1	1
433.979	1	18
434.320	1	10
434.662	1	15
435.003	1	21
435.344	1	13
435.685	1	6
436.026	1	13
436.368	1	7
436.709	1	-2
437.050	1	4
437.391	1	3
437.732	1	6
438.073	1	2
438.414	1	12
438.756	1	13
439.097	1	8
439.438	1	17
439.779	1	10
440.120	1	9
440.461	1	5
440.802	1	7
441.143	1	8
441.485	1	1
441.826	1	11
442.167	1	5
442.508	1	9
442.849	1	6
443.190	1	11
443.531	1	-1
443.872	1	1
444.213	1	-4
444.554	1	2
444.895	1	-3
445.237	1	11
445.578	1	4
445.919	1	10
446.260	1	4
446.601	1	8
446.942	1	9
447.283	1	12
447.624	1	3
447.965	1	4
448.306	1	0
448.647	1	9
448.988	1	7
449.329	1	12
449.670	1	3
450.011	1	12
450.352	1	2
450.693	1	20
451.034	1	1
451.375	1	3
451.716	1	9
452.057	1	4
452.398	1	11
452.739	1	9
453.080	1	6
453.421	1	13
453.762	1	13
454.103	1	7
454.444	1	6
454.785	1	13
455.126	1	3
455.467	1	5
455.808	1	11
456.149	1	3
456.490	1	-3
456.831	1	3
457.172	1	6
457.513	1	10
457.854	1	10
458.195	1	1
458.536	1	7
458.877	1	8
459.218	1	15
459.559	1	7
459.899	1	2
460.240	1	4
460.581	1	-2
460.922	1	12
461.263	1	9
461.604	1	-3
461.945	1	15
462.286	1	-3
462.627	1	3
462.968	1	1
463.309	1	3
463.649	1	-5
463.990	1	2
464.331	1	3
464.672	1	8
465.013	1	7
465.354	1	17
465.695	1	9
466.036	1	14
466.376	1	14
466.717	1	-4
467.058	1	12
467.399	1	-1
467.740	1	13
468.081	1	7
468.422	1	5
468.762	1	3
469.103	1	4
469.444	1	10
469.785	1	0
470.126	1	4
470.467	1	4
470.807	1	12
471.148	1	3
471.489	1	2
471.830	1	5
472.171	1	9
472.511	1	13
472.852	1	13
473.193	1	0
473.534	1	10
473.875	1	2
474.215	1	11
474.556	1	5
474.897	1	-7
475.238	1	6
475.578	1	-5
475.919	1	-1
476.260	1	1
476.601	1	2
476.942	1	2
477.282	1	-2
477.623	1	-1
477.964	1	4
478.305	1	12
478.645	1	6
478.986	1	6
479.327	1	6
479.667	1	8
480.008	1	16
480.349	1	3
480.690	1	18
481.030	1	3
481.371	1	0
481.712	1	12
482.053	1	5
482.393	1	5
482.734	1	3
483.075	1	0
483.415	1	-1
483.756	1	5
484.097	1	10
484.437	1	7
484.778	1	-2
485.119	1	-2
485.459	1	1
485.800	1	2
486.141	1	5
486.481	1	-1
486.822	1	12
487.163	1	-11
487.503	1	4
487.844	1	-3
488.185	1	7
488.525	1	-2
488.866	1	5
489.207	1	2
489.547	1	5
489.888	1	5
490.228	1	3
490.569	1	-5
490.910	1	7
491.250	1	9
491.591	1	0
491.932	1	15
492.272	1	-4
492.613	1	-13
492.953	1	6
493.294	1	-7
493.635	1	6
493.975	1	15
494.316	1	-1
494.656	1	-5
494.997	1	11
495.337	1	5
495.678	1	-2
496.019	1	6
496.359	1	-1
496.700	1	5
497.040	1	6
497.381	1	12
497.721	1	-10
498.062	1	5
498.403	1	9
498.743	1	-1
499.084	1	7
499.424	1	8
499.765	1	8
500.105	1	4
500.446	1	-4
500.786	1	1
501.127	1	7
501.467	1	13
501.808	1	1
502.148	1	0
502.489	1	2
502.829	1	-4
503.170	1	8
503.510	1	1
503.851	1	22
504.191	1	3
504.532	1	10
504.872	1	-1
505.213	1	-4
505.553	1	8
505.894	1	10
506.234	1	13
506.575	1	19
506.915	1	17
507.256	1	15
507.596	1	5
507.936	1	10
508.277	1	10
508.617	1	12
508.958	1	19
509.298	1	4
509.639	1	-2
509.979	1	5
510.319	1	8
510.660	1	13
511.000	1	9
511.341	1	17
511.681	1	12
512.022	1	-3
512.362	1	8
512.702	1	-7
513.043	1	10
513.383	1	2
513.724	1	6
514.064	1	9
514.404	1	12
514.745	1	8
515.085	1	15
515.425	1	8
515.766	1	6
516.106	1	4
516.447	1	19
516.787	1	6
517.127	1	19
517.468	1	15
517.808	1	4
518.148	1	3
518.489	1	2
518.829	1	14
519.169	1	2
519.510	1	0
519.850	1	8
520.190	1	2
520.531	1	8
520.871	1	19
521.211	1	12
521.552	1	5
521.892	1	7
522.232	1	12
522.573	1	8
522.913	1	19
523.253	1	18
523.593	1	10
523.934	1	3
524.274	1	11
524.614	1	14
524.955	1	13
525.295	1	13
525.635	1	9
525.975	1	3
526.316	1	-2
526.656	1	14
526.996	1	8
527.337	1	14
527.677	1	16
528.017	1	11
528.357	1	8
528.698	1	19
529.038	1	10
529.378	1	9
529.718	1	7
530.058	1	8
530.399	1	11
530.739	1	11
531.079	1	9
531.419	1	6
531.760	1	21
532.100	1	17
532.440	1	9
532.780	1	16
533.120	1	3
533.461	1	8
533.801	1	17
534.141	1	12
534.481	1	20
534.821	1	13
535.162	1	19
535.502	1	14
535.842	1	2
536.182	1	8
536.522	1	6
536.862	1	6
537.203	1	15
537.543	1	12
537.883	1	7
538.223	1	14
538.563	1	5
538.903	1	12
539.243	1	17
539.584	1	7
539.924	1	8
540.264	1	20
540.604	1	19
540.944	1	12
541.284	1	12
541.624	1	19
541.964	1	10
542.305	1	8
542.645	1	9
542.985	1	1
543.325	1	9
543.665	1	5
544.005	1	5
544.345	1	15
544.685	1	3
545.025	1	4
545.365	1	13
545.705	1	3
546.045	1	10
546.386	1	9
546.726	1	8
547.066	1	4
547.406	1	5
547.746	1	2
548.086	1	10
548.426	1	5
548.766	1	7
549.106	1	9
549.446	1	5
549.786	1	10
550.126	1	8
550.466	1	12
550.806	1	12
551.146	1	12
551.486	1	5
551.826	1	1
552.166	1	2
552.506	1	5
552.846	1	8
553.186	1	3
553.526	1	9
553.866	1	2
554.206	1	7
554.546	1	10
554.886	1	9
555.226	1	8
555.566	1	13
555.906	1	4
556.246	1	6
556.586	1	-4
556.926	1	6
557.266	1	9
557.606	1	3
557.946	1	8
558.286	1	-5
558.626	1	3
558.966	1	15
559.306	1	11
559.646	1	11
559.986	1	16
560.325	1	2
560.665	1	6
561.005	1	5
561.345	1	9
561.685	1	5
562.025	1	10
562.365	1	0
562.705	1	12
563.045	1	8
563.385	1	6
563.725	1	6
564.064	1	5
564.404	1	1
564.744	1	8
565.084	1	7
565.424	1	-1
565.764	1	9
566.104	1	11
566.444	1	14
566.783	1	10
567.123	1	3
567.463	1	3
567.803	1	15
568.143	1	0
568.483	1	20
568.823	1	-2
569.162	1	-1
569.502	1	6
569.842	1	6
570.182	1	-6
570.522	1	7
570.862	1	-5
571.201	1	12
571.541	1	15
571.881	1	9
572.221	1	12
572.561	1	9
572.900	1	7
573.240	1	-2
573.580	1	16
573.920	1	8
574.260	1	7
574.599	1	10
574.939	1	7
575.279	1	3
575.619	1	5
575.959	1	1
576.298	1	-6
576.638	1	17
576.978	1	8
577.318	1	6
577.657	1	3
577.997	1	6
578.337	1	4
578.677	1	3
579.016	1	6
579.356	1	7
579.696	1	5
580.036	1	9
580.375	1	7
580.715	1	14
581.055	1	8
581.394	1	7
581.734	1	5
582.074	1	2
582.414	1	11
582.753	1	1
583.093	1	6
583.433	1	2
583.772	1	15
584.112	1	8
584.452	1	3
584.791	1	4
585.131	1	14
585.471	1	9
585.811	1	14
586.150	1	8
586.490	1	0
586.830	1	4
587.169	1	8
587.509	1	6
587.849	1	4
588.188	1	7
588.528	1	-4
588.867	1	4
589.207	1	4
589.547	1	8
589.886	1	10
590.226	1	0
590.566	1	-1
590.905	1	0
591.245	1	2
591.585	1	6
591.924	1	0
592.264	1	8
592.603	1	-9
592.943	1	3
593.283	1	9
593.622	1	1
593.962	1	10
594.301	1	-3
594.641	1	11
594.981	1	5
595.320	1	10
595.660	1	8
595.999	1	14
596.339	1	5
596.678	1	1
597.018	1	5
597.358	1	1
597.697	1	-2
598.037	1	5
598.376	1	-8
598.716	1	5
599.055	1	6
599.395	1	-5
599.734	1	11
600.074	1	3
600.413	1	10
600.753	1	12
601.092	1	-3
601.432	1	-2
601.771	1	7
602.111	1	1
602.451	1	-1
602.790	1	8
603.130	1	1
603.469	1	11
603.809	1	1
604.148	1	-1
604.487	1	1
604.827	1	5
605.166	1	4
605.506	1	0
605.845	1	3
606.185	1	8
606.524	1	1
606.864	1	12
607.203	1	1
607.543	1	3
607.882	1	9
608.222	1	10
608.561	1	1
608.901	1	8
609.240	1	13
609.579	1	-2
609.919	1	-3
610.258	1	2
610.598	1	-3
610.937	1	10
611.277	1	9
611.616	1	11
611.955	1	-6
612.295	1	5
612.634	1	2
612.974	1	5
613.313	1	10
613.652	1	15
613.992	1	2
614.331	1	13
614.671	1	5
615.010	1	7
615.349	1	9
615.689	1	2
616.028	1	16
616.368	1	11
616.707	1	15
617.046	1	3
617.386	1	9
617.725	1	1
618.064	1	2
618.404	1	-1
618.743	1	9
619.082	1	14
619.422	1	17
619.761	1	5
620.100	1	10
620.440	1	19
620.779	1	4
621.118	1	14
621.458	1	7
621.797	1	2
622.136	1	-7
622.476	1	5
622.815	1	8
623.154	1	-7
623.494	1	-9
623.833	1	1
624.172	1	10
624.511	1	-5
624.851	1	-5
625.190	1	-6
625.529	1	6
625.869	1	11
626.208	1	2
626.547	1	2
626.886	1	-3
627.226	1	4
627.565	1	11
627.904	1	5
628.243	1	11
628.583	1	5
628.922	1	6
629.261	1	1
629.600	1	-3
629.940	1	6
630.279	1	0
630.618	1	10
630.957	1	6
631.297	1	5
631.636	1	14
631.975	1	5
632.314	1	10
632.653	1	7
632.993	1	4
633.332	1	10
633.671	1	6
634.010	1	5
634.349	1	16
634.689	1	-6
635.028	1	9
635.367	1	5
635.706	1	-3
636.045	1	-15
636.384	1	1
636.724	1	7
637.063	1	3
637.402	1	7
637.741	1	4
638.080	1	1
638.419	1	2
638.759	1	10
639.098	1	6
639.437	1	4
639.776	1	7
640.115	1	4
640.454	1	-2
640.793	1	4
641.132	1	10
641.472	1	23
641.811	1	-1
642.150	1	-2
642.489	1	10
642.828	1	1
643.167	1	5
643.506	1	8
643.845	1	7
644.184	1	5
644.524	1	3
644.863	1	-3
645.202	1	5
645.541	1	3
645.880	1	5
646.219	1	7
646.558	1	-5
646.897	1	-2
647.236	1	-7
647.575	1	21
647.914	1	2
648.253	1	19
648.592	1	11
648.931	1	8
649.270	1	10
649.610	1	12
649.949	1	-9
650.288	1	5
650.627	1	13
650.966	1	3
651.305	1	8
651.644	1	12
651.983	1	-4
652.322	1	5
652.661	1	5
653.000	1	7
653.339	1	4
653.678	1	14
654.017	1	10
654.356	1	10
654.695	1	17
655.034	1	4
655.373	1	4
655.712	1	4
656.051	1	0
656.390	1	8
656.729	1	4
657.068	1	-3
657.406	1	6
657.745	1	10
658.084	1	6
658.423	1	9
658.762	1	2
659.101	1	-2
659.440	1	4
659.779	1	7
660.118	1	4
660.457	1	13
660.796	1	9
661.135	1	11
661.474	1	13
661.813	1	1
662.152	1	3
662.491	1	-2
662.829	1	2
663.168	1	6
663.507	1	-1
663.846	1	-5
664.185	1	4
664.524	1	12
664.863	1	-10
665.202	1	9
665.541	1	15
665.879	1	-5
666.218	1	4
666.557	1	-1
666.896	1	7
667.235	1	0
667.574	1	-5
667.913	1	1
668.251	1	-10
668.590	1	8
668.929	1	8
669.268	1	-4
669.607	1	-11
669.946	1	7
670.285	1	0
670.623	1	9
670.962	1	-14
671.301	1	4
671.640	1	7
671.979	1	0
672.317	1	8
672.656	1	10
672.995	1	7
673.334	1	-2
673.673	1	17
674.011	1	4
674.350	1	-7
674.689	1	-1
675.028	1	-1
675.367	1	5
675.705	1	0
676.044	1	-2
676.383	1	2
676.722	1	0
677.060	1	13
677.399	1	13
677.738	1	-1
678.077	1	-1
678.416	1	5
678.754	1	1
679.093	1	5
679.432	1	1
679.771	1	6
680.109	1	-2
680.448	1	-3
680.787	1	-12
681.125	1	-6
681.464	1	-1
681.803	1	2
682.142	1	2
682.480	1	-4
682.819	1	-2
683.158	1	-9
683.496	1	-6
683.835	1	2
684.174	1	2
684.512	1	1
684.851	1	4
685.190	1	-6
685.529	1	-3
685.867	1	1
686.206	1	4
686.545	1	2
686.883	1	12
687.222	1	-3
687.561	1	7
687.899	1	8
688.238	1	6
688.577	1	3
688.746	1	4