File: Data/GaN_150K_450ms/GaN_sample D_spot15_UVVIS_150 K_200um_450 ms 2x2mm1_196.txt
340.368	1	4
340.710	1	3
341.052	1	-1
341.394	1	-11
341.737	1	12
342.079	1	7
342.421	1	-7
342.763	1	5
343.105	1	11
343.447	1	7
343.789	1	6
344.131	1	0
344.473	1	4
344.815	1	2
345.157	1	8
345.499	1	-2
345.841	1	-1
346.183	1	3
346.526	1	3
346.868	1	4
347.210	1	4
347.552	1	15
347.894	1	-4
348.236	1	7
348.578	1	4
348.920	1	3
349.262	1	0
349.604	1	-2
349.946	1	-8
350.288	1	-7
350.630	1	-1
350.972	1	10
351.314	1	-3
351.656	1	8
351.998	1	-1
352.340	1	13
352.682	1	-11
353.024	1	24
353.366	1	3
353.708	1	-3
354.050	1	4
354.392	1	-2
354.734	1	7
355.076	1	11
355.418	1	4
355.760	1	7
356.102	1	6
356.444	1	12
356.785	1	11
357.127	1	11
357.469	1	1
357.811	1	4
358.153	1	-13
358.495	1	0
358.837	1	16
359.179	1	6
359.521	1	16
359.863	1	2
360.205	1	13
360.547	1	18
360.889	1	10
361.231	1	9
361.572	1	9
361.914	1	6
362.256	1	12
362.598	1	8
362.940	1	14
363.282	1	16
363.624	1	18
363.966	1	-2
364.308	1	21
364.649	1	14
364.991	1	19
365.333	1	20
365.675	1	25
366.017	1	22
366.359	1	20
366.701	1	11
367.042	1	36
367.384	1	21
367.726	1	8
368.068	1	35
368.410	1	19
368.752	1	25
369.093	1	35
369.435	1	26
369.777	1	30
370.119	1	26
370.461	1	18
370.803	1	24
371.144	1	27
371.486	1	19
371.828	1	17
372.170	1	22
372.512	1	17
372.853	1	15
373.195	1	14
373.537	1	3
373.879	1	13
374.220	1	22
374.562	1	17
374.904	1	12
375.246	1	6
375.588	1	8
375.929	1	16
376.271	1	14
376.613	1	3
376.955	1	0
377.296	1	21
377.638	1	11
377.980	1	7
378.321	1	6
378.663	1	16
379.005	1	10
379.347	1	2
379.688	1	16
380.030	1	16
380.372	1	3
380.714	1	16
381.055	1	9
381.397	1	-3
381.739	1	-3
382.080	1	6
382.422	1	6
382.764	1	10
383.105	1	7
383.447	1	4
383.789	1	1
384.130	1	14
384.472	1	4
384.814	1	5
385.156	1	9
385.497	1	10
385.839	1	10
386.180	1	1
386.522	1	17
386.864	1	8
387.205	1	10
387.547	1	6
387.889	1	1
388.230	1	5
388.572	1	12
388.914	1	14
389.255	1	9
389.597	1	6
389.939	1	13
390.280	1	-1
390.622	1	-5
390.963	1	0
391.305	1	4
391.647	1	1
391.988	1	2
392.330	1	4
392.671	1	8
393.013	1	12
393.355	1	14
393.696	1	5
394.038	1	12
394.379	1	16
394.721	1	-5
395.062	1	-2
395.404	1	12
395.746	1	12
396.087	1	4
396.429	1	10
396.770	1	-5
397.112	1	0
397.453	1	-4
397.795	1	-1
398.136	1	17
398.478	1	11
398.819	1	10
399.161	1	5
399.503	1	17
399.844	1	4
400.186	1	5
400.527	1	3
400.869	1	0
401.210	1	8
401.552	1	3
401.893	1	2
402.235	1	6
402.576	1	9
402.918	1	-4
403.259	1	3
403.601	1	9
403.942	1	5
404.284	1	18
404.625	1	0
404.967	1	8
405.308	1	-7
405.649	1	5
405.991	1	1
406.332	1	1
406.674	1	5
407.015	1	9
407.357	1	11
407.698	1	9
408.040	1	21
408.381	1	-1
408.722	1	5
409.064	1	4
409.405	1	-3
409.747	1	6
410.088	1	9
410.430	1	11
410.771	1	7
411.112	1	7
411.454	1	5
411.795	1	-1
412.137	1	-3
412.478	1	6
412.819	1	6
413.161	1	6
413.502	1	5
413.844	1	12
414.185	1	0
414.526	1	7
414.868	1	5
415.209	1	2
415.550	1	0
415.892	1	7
416.233	1	10
416.575	1	-4
416.916	1	13
417.257	1	5
417.599	1	9
417.940	1	-8
418.281	1	2
418.623	1	2
418.964	1	23
419.305	1	8
419.647	1	-4
419.988	1	12
420.329	1	5
420.671	1	20
421.012	1	4
421.353	1	16
421.695	1	12
422.036	1	20
422.377	1	13
422.718	1	8
423.060	1	11
423.401	1	0
423.742	1	5
424.084	1	5
424.425	1	16
424.766	1	-2
425.107	1	4
425.449	1	3
425.790	1	10
426.131	1	3
426.472	1	10
426.814	1	2
427.155	1	4
427.496	1	6
427.837	1	-3
428.179	1	12
428.520	1	12
428.861	1	12
429.202	1	3
429.544	1	7
429.885	1	4
430.226	1	-7
430.567	1	-3
430.909	1	0
431.250	1	13
431.591	1	17
431.932	1	8
432.273	1	10
432.615	1	-7
432.956	1	9
433.297	1	6
433.638	1	10
433.979	1	3
434.320	1	3
434.662	1	9
435.003	1	15
435.344	1	0
435.685	1	-4
436.026	1	0
436.368	1	-1
436.709	1	3
437.050	1	5
437.391	1	8
437.732	1	7
438.073	1	2
438.414	1	5
438.756	1	1
439.097	1	10
439.438	1	6
439.779	1	7
440.120	1	3
440.461	1	4
440.802	1	1
441.143	1	1
441.485	1	8
441.826	1	7
442.167	1	8
442.508	1	-1
442.849	1	8
443.190	1	6
443.531	1	11
443.872	1	-7
444.213	1	-5
444.554	1	1
444.895	1	2
445.237	1	4
445.578	1	-5
445.919	1	0
446.260	1	12
446.601	1	9
446.942	1	-6
447.283	1	11
447.624	1	-12
447.965	1	8
448.306	1	0
448.647	1	6
448.988	1	-5
449.329	1	14
449.670	1	9
450.011	1	6
450.352	1	-3
450.693	1	9
451.034	1	2
451.375	1	8
451.716	1	7
452.057	1	7
452.398	1	18
452.739	1	2
453.080	1	4
453.421	1	5
453.762	1	4
454.103	1	0
454.444	1	9
454.785	1	-1
455.126	1	5
455.467	1	6
455.808	1	18
456.149	1	-1
456.490	1	-2
456.831	1	2
457.172	1	4
457.513	1	-3
457.854	1	0
458.195	1	2
458.536	1	5
458.877	1	-1
459.218	1	14
459.559	1	-4
459.899	1	-1
460.240	1	-4
460.581	1	-4
460.922	1	8
461.263	1	21
461.604	1	15
461.945	1	11
462.286	1	-7
462.627	1	5
462.968	1	2
463.309	1	6
463.649	1	6
463.990	1	8
464.331	1	-2
464.672	1	8
465.013	1	6
465.354	1	13
465.695	1	5
466.036	1	7
466.376	1	14
466.717	1	-7
467.058	1	9
467.399	1	-9
467.740	1	10
468.081	1	8
468.422	1	-4
468.762	1	5
469.103	1	0
469.444	1	5
469.785	1	-6
470.126	1	2
470.467	1	-1
470.807	1	12
471.148	1	2
471.489	1	6
471.830	1	5
472.171	1	12
472.511	1	9
472.852	1	9
473.193	1	5
473.534	1	0
473.875	1	6
474.215	1	-2
474.556	1	9
474.897	1	0
475.238	1	3
475.578	1	-3
475.919	1	2
476.260	1	2
476.601	1	2
476.942	1	2
477.282	1	-3
477.623	1	5
477.964	1	4
478.305	1	9
478.645	1	4
478.986	1	7
479.327	1	6
479.667	1	4
480.008	1	11
480.349	1	1
480.690	1	12
481.030	1	-5
481.371	1	-12
481.712	1	11
482.053	1	8
482.393	1	3
482.734	1	8
483.075	1	3
483.415	1	9
483.756	1	6
484.097	1	14
484.437	1	3
484.778	1	8
485.119	1	7
485.459	1	-8
485.800	1	-2
486.141	1	7
486.481	1	-6
486.822	1	12
487.163	1	-1
487.503	1	2
487.844	1	4
488.185	1	12
488.525	1	-1
488.866	1	-10
489.207	1	-4
489.547	1	11
489.888	1	4
490.228	1	3
490.569	1	-7
490.910	1	15
491.250	1	11
491.591	1	9
491.932	1	5
492.272	1	-9
492.613	1	1
492.953	1	8
493.294	1	-8
493.635	1	12
493.975	1	13
494.316	1	3
494.656	1	7
494.997	1	-7
495.337	1	2
495.678	1	5
496.019	1	7
496.359	1	-3
496.700	1	0
497.040	1	1
497.381	1	-3
497.721	1	-1
498.062	1	-1
498.403	1	12
498.743	1	10
499.084	1	9
499.424	1	-6
499.765	1	10
500.105	1	17
500.446	1	4
500.786	1	7
501.127	1	14
501.467	1	8
501.808	1	8
502.148	1	3
502.489	1	5
502.829	1	2
503.170	1	9
503.510	1	6
503.851	1	11
504.191	1	0
504.532	1	15
504.872	1	-6
505.213	1	2
505.553	1	2
505.894	1	9
506.234	1	5
506.575	1	13
506.915	1	5
507.256	1	9
507.596	1	14
507.936	1	11
508.277	1	15
508.617	1	10
508.958	1	6
509.298	1	-2
509.639	1	2
509.979	1	6
510.319	1	8
510.660	1	3
511.000	1	11
511.341	1	8
511.681	1	8
512.022	1	-4
512.362	1	10
512.702	1	1
513.043	1	3
513.383	1	13
513.724	1	7
514.064	1	9
514.404	1	8
514.745	1	5
515.085	1	5
515.425	1	12
515.766	1	0
516.106	1	4
516.447	1	10
516.787	1	4
517.127	1	16
517.468	1	12
517.808	1	-2
518.148	1	7
518.489	1	-3
518.829	1	4
519.169	1	-2
519.510	1	3
519.850	1	7
520.190	1	3
520.531	1	8
520.871	1	6
521.211	1	8
521.552	1	0
521.892	1	6
522.232	1	8
522.573	1	10
522.913	1	9
523.253	1	15
523.593	1	12
523.934	1	0
524.274	1	3
524.614	1	6
524.955	1	1
525.295	1	17
525.635	1	14
525.975	1	0
526.316	1	-7
526.656	1	2
526.996	1	3
527.337	1	13
527.677	1	13
528.017	1	2
528.357	1	2
528.698	1	5
529.038	1	0
529.378	1	3
529.718	1	0
530.058	1	6
530.399	1	2
530.739	1	3
531.079	1	6
531.419	1	12
531.760	1	18
532.100	1	22
532.440	1	11
532.780	1	0
533.120	1	4
533.461	1	1
533.801	1	7
534.141	1	8
534.481	1	10
534.821	1	3
535.162	1	16
535.502	1	7
535.842	1	-4
536.182	1	2
536.522	1	2
536.862	1	6
537.203	1	8
537.543	1	10
537.883	1	3
538.223	1	13
538.563	1	6
538.903	1	1
539.243	1	7
539.584	1	7
539.924	1	11
540.264	1	11
540.604	1	10
540.944	1	6
541.284	1	3
541.624	1	10
541.964	1	7
542.305	1	10
542.645	1	5
542.985	1	5
543.325	1	7
543.665	1	14
544.005	1	-3
544.345	1	4
544.685	1	2
545.025	1	9
545.365	1	7
545.705	1	2
546.045	1	15
546.386	1	-4
546.726	1	2
547.066	1	-3
547.406	1	5
547.746	1	1
548.086	1	8
548.426	1	6
548.766	1	15
549.106	1	-1
549.446	1	9
549.786	1	5
550.126	1	11
550.466	1	1
550.806	1	12
551.146	1	5
551.486	1	12
551.826	1	-4
552.166	1	-4
552.506	1	3
552.846	1	11
553.186	1	-3
553.526	1	10
553.866	1	1
554.206	1	12
554.546	1	8
554.886	1	-2
555.226	1	7
555.566	1	9
555.906	1	-9
556.246	1	3
556.586	1	5
556.926	1	-4
557.266	1	7
557.606	1	-4
557.946	1	6
558.286	1	-4
558.626	1	3
558.966	1	6
559.306	1	11
559.646	1	13
559.986	1	10
560.325	1	3
560.665	1	5
561.005	1	5
561.345	1	3
561.685	1	6
562.025	1	9
562.365	1	-3
562.705	1	11
563.045	1	0
563.385	1	12
563.725	1	0
564.064	1	0
564.404	1	-4
564.744	1	6
565.084	1	11
565.424	1	4
565.764	1	4
566.104	1	5
566.444	1	8
566.783	1	5
567.123	1	6
567.463	1	0
567.803	1	14
568.143	1	-4
568.483	1	8
568.823	1	9
569.162	1	-2
569.502	1	6
569.842	1	2
570.182	1	5
570.522	1	1
570.862	1	-14
571.201	1	18
571.541	1	-2
571.881	1	11
572.221	1	9
572.561	1	9
572.900	1	10
573.240	1	5
573.580	1	5
573.920	1	14
574.260	1	6
574.599	1	12
574.939	1	3
575.279	1	2
575.619	1	-1
575.959	1	2
576.298	1	-7
576.638	1	2
576.978	1	2
577.318	1	7
577.657	1	4
577.997	1	9
578.337	1	3
578.677	1	12
579.016	1	3
579.356	1	8
579.696	1	7
580.036	1	4
580.375	1	6
580.715	1	16
581.055	1	1
581.394	1	5
581.734	1	-1
582.074	1	6
582.414	1	3
582.753	1	5
583.093	1	0
583.433	1	7
583.772	1	15
584.112	1	-4
584.452	1	2
584.791	1	8
585.131	1	3
585.471	1	5
585.811	1	15
586.150	1	5
586.490	1	12
586.830	1	7
587.169	1	2
587.509	1	7
587.849	1	9
588.188	1	5
588.528	1	7
588.867	1	9
589.207	1	9
589.547	1	6
589.886	1	8
590.226	1	3
590.566	1	-6
590.905	1	3
591.245	1	-8
591.585	1	1
591.924	1	-5
592.264	1	-3
592.603	1	-10
592.943	1	4
593.283	1	2
593.622	1	5
593.962	1	8
594.301	1	3
594.641	1	-2
594.981	1	5
595.320	1	6
595.660	1	5
595.999	1	9
596.339	1	1
596.678	1	-9
597.018	1	-14
597.358	1	-3
597.697	1	4
598.037	1	2
598.376	1	-6
598.716	1	6
599.055	1	-2
599.395	1	1
599.734	1	6
600.074	1	-7
600.413	1	7
600.753	1	4
601.092	1	-4
601.432	1	-2
601.771	1	9
602.111	1	-4
602.451	1	5
602.790	1	6
603.130	1	-5
603.469	1	3
603.809	1	3
604.148	1	-4
604.487	1	9
604.827	1	8
605.166	1	5
605.506	1	-9
605.845	1	8
606.185	1	-2
606.524	1	3
606.864	1	12
607.203	1	8
607.543	1	11
607.882	1	11
608.222	1	0
608.561	1	-3
608.901	1	11
609.240	1	7
609.579	1	3
609.919	1	-6
610.258	1	10
610.598	1	-5
610.937	1	5
611.277	1	2
611.616	1	14
611.955	1	-2
612.295	1	4
612.634	1	15
612.974	1	0
613.313	1	6
613.652	1	7
613.992	1	-1
614.331	1	12
614.671	1	14
615.010	1	5
615.349	1	6
615.689	1	8
616.028	1	16
616.368	1	3
616.707	1	12
617.046	1	2
617.386	1	14
617.725	1	7
618.064	1	-6
618.404	1	8
618.743	1	6
619.082	1	18
619.422	1	16
619.761	1	3
620.100	1	14
620.440	1	4
620.779	1	8
621.118	1	4
621.458	1	-6
621.797	1	1
622.136	1	1
622.476	1	5
622.815	1	8
623.154	1	0
623.494	1	-11
623.833	1	0
624.172	1	8
624.511	1	-4
624.851	1	8
625.190	1	8
625.529	1	4
625.869	1	9
626.208	1	1
626.547	1	-1
626.886	1	2
627.226	1	6
627.565	1	3
627.904	1	-5
628.243	1	3
628.583	1	9
628.922	1	3
629.261	1	0
629.600	1	-1
629.940	1	6
630.279	1	11
630.618	1	5
630.957	1	14
631.297	1	0
631.636	1	2
631.975	1	-2
632.314	1	2
632.653	1	6
632.993	1	4
633.332	1	9
633.671	1	4
634.010	1	-6
634.349	1	7
634.689	1	2
635.028	1	2
635.367	1	3
635.706	1	3
636.045	1	-1
636.384	1	6
636.724	1	7
637.063	1	-9
637.402	1	10
637.741	1	3
638.080	1	15
638.419	1	1
638.759	1	0
639.098	1	-5
639.437	1	3
639.776	1	0
640.115	1	-1
640.454	1	-3
640.793	1	4
641.132	1	6
641.472	1	12
641.811	1	-1
642.150	1	4
642.489	1	6
642.828	1	18
643.167	1	11
643.506	1	7
643.845	1	17
644.184	1	8
644.524	1	5
644.863	1	3
645.202	1	-2
645.541	1	7
645.880	1	3
646.219	1	4
646.558	1	-5
646.897	1	-4
647.236	1	-7
647.575	1	14
647.914	1	1
648.253	1	7
648.592	1	5
648.931	1	2
649.270	1	14
649.610	1	10
649.949	1	-1
650.288	1	6
650.627	1	-2
650.966	1	9
651.305	1	0
651.644	1	6
651.983	1	-3
652.322	1	5
652.661	1	8
653.000	1	4
653.339	1	-1
653.678	1	9
654.017	1	11
654.356	1	14
654.695	1	6
655.034	1	-5
655.373	1	4
655.712	1	2
656.051	1	-7
656.390	1	10
656.729	1	3
657.068	1	8
657.406	1	3
657.745	1	15
658.084	1	9
658.423	1	8
658.762	1	-5
659.101	1	3
659.440	1	9
659.779	1	8
660.118	1	4
660.457	1	1
660.796	1	0
661.135	1	18
661.474	1	4
661.813	1	-2
662.152	1	5
662.491	1	4
662.829	1	7
663.168	1	5
663.507	1	8
663.846	1	8
664.185	1	0
664.524	1	5
664.863	1	-5
665.202	1	5
665.541	1	-11
665.879	1	-3
666.218	1	3
666.557	1	-4
666.896	1	5
667.235	1	-14
667.574	1	5
667.913	1	4
668.251	1	-4
668.590	1	2
668.929	1	1
669.268	1	-3
669.607	1	-4
669.946	1	0
670.285	1	1
670.623	1	1
670.962	1	0
671.301	1	-3
671.640	1	4
671.979	1	2
672.317	1	7
672.656	1	5
672.995	1	5
673.334	1	1
673.673	1	19
674.011	1	6
674.350	1	9
674.689	1	-6
675.028	1	0
675.367	1	10
675.705	1	-1
676.044	1	4
676.383	1	2
676.722	1	4
677.060	1	0
677.399	1	22
677.738	1	-5
678.077	1	1
678.416	1	-12
678.754	1	2
679.093	1	10
679.432	1	-4
679.771	1	-2
680.109	1	7
680.448	1	-8
680.787	1	-3
681.125	1	0
681.464	1	2
681.803	1	0
682.142	1	9
682.480	1	-4
682.819	1	3
683.158	1	-2
683.496	1	0
683.835	1	10
684.174	1	10
684.512	1	-1
684.851	1	2
685.190	1	-1
685.529	1	2
685.867	1	9
686.206	1	-9
686.545	1	-2
686.883	1	10
687.222	1	-7
687.561	1	-2
687.899	1	2
688.238	1	3
688.577	1	4
688.746	1	0