File: Data/GaN_150K_450ms/GaN_sample D_spot15_UVVIS_150 K_200um_450 ms 2x2mm1_110.txt
340.368	1	-4
340.710	1	5
341.052	1	13
341.394	1	-10
341.737	1	15
342.079	1	4
342.421	1	-1
342.763	1	2
343.105	1	1
343.447	1	4
343.789	1	3
344.131	1	-3
344.473	1	8
344.815	1	8
345.157	1	6
345.499	1	10
345.841	1	7
346.183	1	15
346.526	1	16
346.868	1	-3
347.210	1	-5
347.552	1	13
347.894	1	1
348.236	1	11
348.578	1	17
348.920	1	10
349.262	1	6
349.604	1	8
349.946	1	1
350.288	1	0
350.630	1	-2
350.972	1	13
351.314	1	4
351.656	1	10
351.998	1	8
352.340	1	17
352.682	1	-7
353.024	1	20
353.366	1	2
353.708	1	10
354.050	1	-6
354.392	1	-5
354.734	1	9
355.076	1	23
355.418	1	5
355.760	1	6
356.102	1	5
356.444	1	18
356.785	1	13
357.127	1	22
357.469	1	16
357.811	1	7
358.153	1	6
358.495	1	15
358.837	1	25
359.179	1	17
359.521	1	19
359.863	1	9
360.205	1	29
360.547	1	22
360.889	1	9
361.231	1	27
361.572	1	20
361.914	1	25
362.256	1	23
362.598	1	43
362.940	1	32
363.282	1	38
363.624	1	40
363.966	1	35
364.308	1	44
364.649	1	51
364.991	1	62
365.333	1	51
365.675	1	64
366.017	1	72
366.359	1	64
366.701	1	67
367.042	1	72
367.384	1	69
367.726	1	82
368.068	1	87
368.410	1	83
368.752	1	90
369.093	1	86
369.435	1	91
369.777	1	95
370.119	1	70
370.461	1	67
370.803	1	60
371.144	1	59
371.486	1	65
371.828	1	61
372.170	1	59
372.512	1	48
372.853	1	64
373.195	1	50
373.537	1	30
373.879	1	45
374.220	1	42
374.562	1	53
374.904	1	33
375.246	1	39
375.588	1	46
375.929	1	40
376.271	1	40
376.613	1	40
376.955	1	34
377.296	1	37
377.638	1	25
377.980	1	31
378.321	1	30
378.663	1	27
379.005	1	13
379.347	1	20
379.688	1	32
380.030	1	25
380.372	1	27
380.714	1	19
381.055	1	12
381.397	1	21
381.739	1	5
382.080	1	21
382.422	1	13
382.764	1	15
383.105	1	22
383.447	1	10
383.789	1	14
384.130	1	13
384.472	1	13
384.814	1	15
385.156	1	15
385.497	1	16
385.839	1	18
386.180	1	21
386.522	1	16
386.864	1	17
387.205	1	13
387.547	1	16
387.889	1	4
388.230	1	6
388.572	1	6
388.914	1	14
389.255	1	13
389.597	1	6
389.939	1	13
390.280	1	6
390.622	1	2
390.963	1	3
391.305	1	9
391.647	1	10
391.988	1	9
392.330	1	6
392.671	1	21
393.013	1	15
393.355	1	14
393.696	1	10
394.038	1	12
394.379	1	20
394.721	1	14
395.062	1	7
395.404	1	13
395.746	1	1
396.087	1	9
396.429	1	17
396.770	1	18
397.112	1	17
397.453	1	7
397.795	1	12
398.136	1	19
398.478	1	13
398.819	1	14
399.161	1	20
399.503	1	20
399.844	1	8
400.186	1	15
400.527	1	10
400.869	1	7
401.210	1	9
401.552	1	11
401.893	1	14
402.235	1	11
402.576	1	9
402.918	1	4
403.259	1	16
403.601	1	22
403.942	1	15
404.284	1	20
404.625	1	5
404.967	1	21
405.308	1	-5
405.649	1	3
405.991	1	13
406.332	1	13
406.674	1	15
407.015	1	18
407.357	1	20
407.698	1	12
408.040	1	18
408.381	1	5
408.722	1	20
409.064	1	12
409.405	1	3
409.747	1	15
410.088	1	21
410.430	1	17
410.771	1	20
411.112	1	10
411.454	1	12
411.795	1	11
412.137	1	7
412.478	1	16
412.819	1	18
413.161	1	7
413.502	1	9
413.844	1	21
414.185	1	15
414.526	1	0
414.868	1	3
415.209	1	7
415.550	1	15
415.892	1	10
416.233	1	16
416.575	1	3
416.916	1	4
417.257	1	9
417.599	1	18
417.940	1	7
418.281	1	19
418.623	1	6
418.964	1	19
419.305	1	22
419.647	1	15
419.988	1	29
420.329	1	10
420.671	1	18
421.012	1	11
421.353	1	21
421.695	1	21
422.036	1	14
422.377	1	10
422.718	1	23
423.060	1	11
423.401	1	10
423.742	1	16
424.084	1	12
424.425	1	19
424.766	1	16
425.107	1	21
425.449	1	10
425.790	1	14
426.131	1	10
426.472	1	22
426.814	1	15
427.155	1	16
427.496	1	10
427.837	1	15
428.179	1	28
428.520	1	13
428.861	1	20
429.202	1	0
429.544	1	13
429.885	1	15
430.226	1	-1
430.567	1	1
430.909	1	18
431.250	1	17
431.591	1	13
431.932	1	12
432.273	1	18
432.615	1	4
432.956	1	7
433.297	1	11
433.638	1	21
433.979	1	18
434.320	1	17
434.662	1	9
435.003	1	23
435.344	1	15
435.685	1	17
436.026	1	14
436.368	1	1
436.709	1	8
437.050	1	9
437.391	1	9
437.732	1	17
438.073	1	4
438.414	1	20
438.756	1	3
439.097	1	17
439.438	1	7
439.779	1	18
440.120	1	10
440.461	1	18
440.802	1	13
441.143	1	7
441.485	1	8
441.826	1	3
442.167	1	11
442.508	1	13
442.849	1	11
443.190	1	11
443.531	1	11
443.872	1	7
444.213	1	3
444.554	1	15
444.895	1	1
445.237	1	11
445.578	1	-2
445.919	1	13
446.260	1	25
446.601	1	17
446.942	1	0
447.283	1	8
447.624	1	0
447.965	1	18
448.306	1	12
448.647	1	6
448.988	1	18
449.329	1	10
449.670	1	14
450.011	1	12
450.352	1	11
450.693	1	11
451.034	1	7
451.375	1	13
451.716	1	16
452.057	1	11
452.398	1	8
452.739	1	13
453.080	1	18
453.421	1	18
453.762	1	14
454.103	1	6
454.444	1	6
454.785	1	15
455.126	1	7
455.467	1	5
455.808	1	10
456.149	1	4
456.490	1	3
456.831	1	6
457.172	1	10
457.513	1	5
457.854	1	12
458.195	1	9
458.536	1	13
458.877	1	12
459.218	1	11
459.559	1	8
459.899	1	6
460.240	1	8
460.581	1	9
460.922	1	7
461.263	1	18
461.604	1	10
461.945	1	12
462.286	1	5
462.627	1	5
462.968	1	8
463.309	1	6
463.649	1	8
463.990	1	7
464.331	1	7
464.672	1	2
465.013	1	6
465.354	1	18
465.695	1	12
466.036	1	12
466.376	1	13
466.717	1	-8
467.058	1	13
467.399	1	5
467.740	1	17
468.081	1	10
468.422	1	9
468.762	1	16
469.103	1	7
469.444	1	15
469.785	1	4
470.126	1	14
470.467	1	0
470.807	1	9
471.148	1	9
471.489	1	14
471.830	1	7
472.171	1	11
472.511	1	11
472.852	1	9
473.193	1	12
473.534	1	3
473.875	1	11
474.215	1	9
474.556	1	5
474.897	1	6
475.238	1	18
475.578	1	-1
475.919	1	-1
476.260	1	2
476.601	1	13
476.942	1	0
477.282	1	8
477.623	1	14
477.964	1	9
478.305	1	11
478.645	1	10
478.986	1	9
479.327	1	2
479.667	1	2
480.008	1	13
480.349	1	7
480.690	1	10
481.030	1	-1
481.371	1	2
481.712	1	8
482.053	1	17
482.393	1	8
482.734	1	4
483.075	1	11
483.415	1	12
483.756	1	16
484.097	1	21
484.437	1	19
484.778	1	6
485.119	1	4
485.459	1	3
485.800	1	8
486.141	1	9
486.481	1	-4
486.822	1	17
487.163	1	14
487.503	1	10
487.844	1	-4
488.185	1	17
488.525	1	1
488.866	1	6
489.207	1	16
489.547	1	8
489.888	1	12
490.228	1	0
490.569	1	6
490.910	1	14
491.250	1	11
491.591	1	11
491.932	1	9
492.272	1	-5
492.613	1	16
492.953	1	8
493.294	1	0
493.635	1	20
493.975	1	18
494.316	1	4
494.656	1	14
494.997	1	5
495.337	1	3
495.678	1	8
496.019	1	2
496.359	1	7
496.700	1	-2
497.040	1	10
497.381	1	14
497.721	1	-2
498.062	1	7
498.403	1	7
498.743	1	14
499.084	1	11
499.424	1	13
499.765	1	7
500.105	1	15
500.446	1	10
500.786	1	7
501.127	1	22
501.467	1	13
501.808	1	13
502.148	1	4
502.489	1	17
502.829	1	17
503.170	1	15
503.510	1	9
503.851	1	13
504.191	1	1
504.532	1	26
504.872	1	14
505.213	1	5
505.553	1	11
505.894	1	11
506.234	1	19
506.575	1	34
506.915	1	22
507.256	1	15
507.596	1	17
507.936	1	25
508.277	1	22
508.617	1	15
508.958	1	17
509.298	1	7
509.639	1	4
509.979	1	16
510.319	1	24
510.660	1	13
511.000	1	15
511.341	1	31
511.681	1	13
512.022	1	4
512.362	1	20
512.702	1	7
513.043	1	17
513.383	1	14
513.724	1	10
514.064	1	17
514.404	1	27
514.745	1	11
515.085	1	16
515.425	1	34
515.766	1	13
516.106	1	13
516.447	1	38
516.787	1	12
517.127	1	24
517.468	1	24
517.808	1	5
518.148	1	25
518.489	1	25
518.829	1	21
519.169	1	17
519.510	1	9
519.850	1	30
520.190	1	18
520.531	1	20
520.871	1	30
521.211	1	17
521.552	1	19
521.892	1	16
522.232	1	21
522.573	1	21
522.913	1	30
523.253	1	34
523.593	1	30
523.934	1	16
524.274	1	24
524.614	1	29
524.955	1	15
525.295	1	19
525.635	1	20
525.975	1	21
526.316	1	11
526.656	1	25
526.996	1	16
527.337	1	21
527.677	1	24
528.017	1	13
528.357	1	24
528.698	1	25
529.038	1	19
529.378	1	5
529.718	1	26
530.058	1	19
530.399	1	27
530.739	1	28
531.079	1	28
531.419	1	24
531.760	1	32
532.100	1	28
532.440	1	19
532.780	1	9
533.120	1	10
533.461	1	17
533.801	1	26
534.141	1	21
534.481	1	35
534.821	1	21
535.162	1	32
535.502	1	20
535.842	1	19
536.182	1	24
536.522	1	18
536.862	1	14
537.203	1	28
537.543	1	22
537.883	1	16
538.223	1	29
538.563	1	17
538.903	1	18
539.243	1	5
539.584	1	11
539.924	1	16
540.264	1	30
540.604	1	31
540.944	1	22
541.284	1	18
541.624	1	25
541.964	1	17
542.305	1	30
542.645	1	13
542.985	1	7
543.325	1	22
543.665	1	17
544.005	1	10
544.345	1	21
544.685	1	11
545.025	1	28
545.365	1	20
545.705	1	22
546.045	1	23
546.386	1	14
546.726	1	13
547.066	1	16
547.406	1	11
547.746	1	7
548.086	1	22
548.426	1	23
548.766	1	31
549.106	1	13
549.446	1	14
549.786	1	23
550.126	1	19
550.466	1	12
550.806	1	18
551.146	1	14
551.486	1	13
551.826	1	14
552.166	1	18
552.506	1	20
552.846	1	24
553.186	1	13
553.526	1	15
553.866	1	11
554.206	1	17
554.546	1	29
554.886	1	9
555.226	1	23
555.566	1	20
555.906	1	19
556.246	1	25
556.586	1	18
556.926	1	12
557.266	1	14
557.606	1	-3
557.946	1	16
558.286	1	0
558.626	1	14
558.966	1	21
559.306	1	19
559.646	1	22
559.986	1	24
560.325	1	13
560.665	1	12
561.005	1	4
561.345	1	9
561.685	1	14
562.025	1	20
562.365	1	7
562.705	1	19
563.045	1	16
563.385	1	20
563.725	1	12
564.064	1	2
564.404	1	-1
564.744	1	23
565.084	1	13
565.424	1	3
565.764	1	21
566.104	1	19
566.444	1	26
566.783	1	16
567.123	1	11
567.463	1	19
567.803	1	15
568.143	1	2
568.483	1	23
568.823	1	12
569.162	1	5
569.502	1	16
569.842	1	11
570.182	1	4
570.522	1	10
570.862	1	-1
571.201	1	15
571.541	1	15
571.881	1	0
572.221	1	22
572.561	1	8
572.900	1	17
573.240	1	2
573.580	1	15
573.920	1	26
574.260	1	19
574.599	1	12
574.939	1	16
575.279	1	15
575.619	1	7
575.959	1	4
576.298	1	-1
576.638	1	17
576.978	1	13
577.318	1	11
577.657	1	3
577.997	1	16
578.337	1	10
578.677	1	6
579.016	1	4
579.356	1	14
579.696	1	8
580.036	1	15
580.375	1	17
580.715	1	11
581.055	1	7
581.394	1	10
581.734	1	9
582.074	1	20
582.414	1	10
582.753	1	6
583.093	1	13
583.433	1	14
583.772	1	14
584.112	1	3
584.452	1	10
584.791	1	11
585.131	1	9
585.471	1	4
585.811	1	11
586.150	1	13
586.490	1	6
586.830	1	5
587.169	1	8
587.509	1	0
587.849	1	12
588.188	1	7
588.528	1	8
588.867	1	10
589.207	1	5
589.547	1	7
589.886	1	13
590.226	1	-1
590.566	1	7
590.905	1	3
591.245	1	1
591.585	1	3
591.924	1	0
592.264	1	5
592.603	1	-3
592.943	1	6
593.283	1	7
593.622	1	2
593.962	1	13
594.301	1	6
594.641	1	24
594.981	1	6
595.320	1	11
595.660	1	3
595.999	1	13
596.339	1	12
596.678	1	0
597.018	1	-1
597.358	1	10
597.697	1	2
598.037	1	5
598.376	1	-1
598.716	1	5
599.055	1	14
599.395	1	8
599.734	1	9
600.074	1	8
600.413	1	14
600.753	1	19
601.092	1	-7
601.432	1	-7
601.771	1	12
602.111	1	10
602.451	1	12
602.790	1	12
603.130	1	5
603.469	1	0
603.809	1	7
604.148	1	-2
604.487	1	12
604.827	1	8
605.166	1	14
605.506	1	3
605.845	1	8
606.185	1	2
606.524	1	5
606.864	1	14
607.203	1	7
607.543	1	7
607.882	1	5
608.222	1	18
608.561	1	-4
608.901	1	5
609.240	1	6
609.579	1	6
609.919	1	4
610.258	1	17
610.598	1	3
610.937	1	7
611.277	1	17
611.616	1	13
611.955	1	9
612.295	1	9
612.634	1	6
612.974	1	2
613.313	1	15
613.652	1	17
613.992	1	6
614.331	1	15
614.671	1	10
615.010	1	17
615.349	1	10
615.689	1	-5
616.028	1	19
616.368	1	14
616.707	1	4
617.046	1	9
617.386	1	12
617.725	1	-2
618.064	1	-2
618.404	1	2
618.743	1	12
619.082	1	7
619.422	1	17
619.761	1	1
620.100	1	7
620.440	1	9
620.779	1	11
621.118	1	16
621.458	1	8
621.797	1	9
622.136	1	8
622.476	1	3
622.815	1	13
623.154	1	0
623.494	1	1
623.833	1	5
624.172	1	1
624.511	1	4
624.851	1	9
625.190	1	2
625.529	1	-3
625.869	1	11
626.208	1	2
626.547	1	3
626.886	1	3
627.226	1	9
627.565	1	15
627.904	1	3
628.243	1	7
628.583	1	9
628.922	1	5
629.261	1	10
629.600	1	2
629.940	1	12
630.279	1	12
630.618	1	13
630.957	1	11
631.297	1	7
631.636	1	9
631.975	1	2
632.314	1	12
632.653	1	7
632.993	1	12
633.332	1	8
633.671	1	10
634.010	1	4
634.349	1	7
634.689	1	-1
635.028	1	0
635.367	1	15
635.706	1	4
636.045	1	1
636.384	1	11
636.724	1	3
637.063	1	-1
637.402	1	4
637.741	1	2
638.080	1	8
638.419	1	-1
638.759	1	2
639.098	1	2
639.437	1	16
639.776	1	3
640.115	1	-7
640.454	1	3
640.793	1	1
641.132	1	4
641.472	1	10
641.811	1	0
642.150	1	-4
642.489	1	15
642.828	1	17
643.167	1	6
643.506	1	-4
643.845	1	13
644.184	1	9
644.524	1	7
644.863	1	8
645.202	1	-5
645.541	1	4
645.880	1	10
646.219	1	17
646.558	1	-2
646.897	1	-1
647.236	1	-9
647.575	1	13
647.914	1	10
648.253	1	8
648.592	1	8
648.931	1	16
649.270	1	6
649.610	1	5
649.949	1	-4
650.288	1	7
650.627	1	5
650.966	1	8
651.305	1	6
651.644	1	19
651.983	1	-5
652.322	1	1
652.661	1	8
653.000	1	5
653.339	1	14
653.678	1	7
654.017	1	11
654.356	1	8
654.695	1	18
655.034	1	9
655.373	1	7
655.712	1	9
656.051	1	2
656.390	1	5
656.729	1	9
657.068	1	12
657.406	1	3
657.745	1	14
658.084	1	5
658.423	1	16
658.762	1	10
659.101	1	5
659.440	1	3
659.779	1	21
660.118	1	2
660.457	1	-3
660.796	1	3
661.135	1	7
661.474	1	10
661.813	1	-8
662.152	1	12
662.491	1	-4
662.829	1	7
663.168	1	2
663.507	1	8
663.846	1	3
664.185	1	12
664.524	1	18
664.863	1	1
665.202	1	13
665.541	1	-1
665.879	1	9
666.218	1	10
666.557	1	4
666.896	1	7
667.235	1	-9
667.574	1	4
667.913	1	4
668.251	1	-1
668.590	1	6
668.929	1	11
669.268	1	-2
669.607	1	-2
669.946	1	9
670.285	1	2
670.623	1	12
670.962	1	-1
671.301	1	6
671.640	1	11
671.979	1	-1
672.317	1	7
672.656	1	7
672.995	1	12
673.334	1	-5
673.673	1	20
674.011	1	3
674.350	1	5
674.689	1	-6
675.028	1	3
675.367	1	8
675.705	1	5
676.044	1	3
676.383	1	1
676.722	1	-3
677.060	1	11
677.399	1	13
677.738	1	7
678.077	1	-7
678.416	1	-7
678.754	1	5
679.093	1	14
679.432	1	2
679.771	1	3
680.109	1	10
680.448	1	2
680.787	1	-10
681.125	1	-1
681.464	1	13
681.803	1	3
682.142	1	3
682.480	1	1
682.819	1	-2
683.158	1	2
683.496	1	2
683.835	1	4
684.174	1	13
684.512	1	12
684.851	1	0
685.190	1	1
685.529	1	6
685.867	1	2
686.206	1	1
686.545	1	7
686.883	1	9
687.222	1	1
687.561	1	2
687.899	1	6
688.238	1	10
688.577	1	3
688.746	1	4