File: Data/GaN_150K_450ms/GaN_sample D_spot15_UVVIS_150 K_200um_450 ms 2x2mm1_96.txt
340.368	1	8
340.710	1	3
341.052	1	6
341.394	1	-10
341.737	1	3
342.079	1	-2
342.421	1	-3
342.763	1	0
343.105	1	11
343.447	1	8
343.789	1	-1
344.131	1	-2
344.473	1	3
344.815	1	4
345.157	1	12
345.499	1	2
345.841	1	4
346.183	1	7
346.526	1	5
346.868	1	-3
347.210	1	6
347.552	1	13
347.894	1	7
348.236	1	3
348.578	1	10
348.920	1	10
349.262	1	12
349.604	1	6
349.946	1	8
350.288	1	-6
350.630	1	3
350.972	1	7
351.314	1	-1
351.656	1	15
351.998	1	7
352.340	1	13
352.682	1	-12
353.024	1	14
353.366	1	11
353.708	1	3
354.050	1	-4
354.392	1	-1
354.734	1	13
355.076	1	14
355.418	1	9
355.760	1	6
356.102	1	4
356.444	1	28
356.785	1	10
357.127	1	18
357.469	1	14
357.811	1	14
358.153	1	14
358.495	1	11
358.837	1	18
359.179	1	11
359.521	1	27
359.863	1	15
360.205	1	22
360.547	1	26
360.889	1	27
361.231	1	23
361.572	1	34
361.914	1	41
362.256	1	40
362.598	1	40
362.940	1	45
363.282	1	36
363.624	1	45
363.966	1	42
364.308	1	52
364.649	1	59
364.991	1	67
365.333	1	76
365.675	1	86
366.017	1	90
366.359	1	80
366.701	1	87
367.042	1	93
367.384	1	86
367.726	1	104
368.068	1	99
368.410	1	101
368.752	1	111
369.093	1	107
369.435	1	108
369.777	1	102
370.119	1	94
370.461	1	86
370.803	1	86
371.144	1	74
371.486	1	78
371.828	1	70
372.170	1	66
372.512	1	57
372.853	1	61
373.195	1	63
373.537	1	50
373.879	1	57
374.220	1	51
374.562	1	56
374.904	1	48
375.246	1	48
375.588	1	44
375.929	1	48
376.271	1	47
376.613	1	39
376.955	1	41
377.296	1	37
377.638	1	30
377.980	1	35
378.321	1	34
378.663	1	34
379.005	1	34
379.347	1	30
379.688	1	32
380.030	1	33
380.372	1	25
380.714	1	23
381.055	1	28
381.397	1	19
381.739	1	10
382.080	1	23
382.422	1	17
382.764	1	30
383.105	1	25
383.447	1	11
383.789	1	12
384.130	1	20
384.472	1	11
384.814	1	17
385.156	1	13
385.497	1	25
385.839	1	21
386.180	1	12
386.522	1	14
386.864	1	10
387.205	1	20
387.547	1	21
387.889	1	12
388.230	1	18
388.572	1	6
388.914	1	20
389.255	1	15
389.597	1	2
389.939	1	16
390.280	1	8
390.622	1	10
390.963	1	11
391.305	1	14
391.647	1	7
391.988	1	17
392.330	1	7
392.671	1	11
393.013	1	21
393.355	1	21
393.696	1	9
394.038	1	20
394.379	1	25
394.721	1	6
395.062	1	11
395.404	1	9
395.746	1	7
396.087	1	14
396.429	1	28
396.770	1	17
397.112	1	12
397.453	1	11
397.795	1	13
398.136	1	19
398.478	1	14
398.819	1	13
399.161	1	21
399.503	1	24
399.844	1	8
400.186	1	15
400.527	1	19
400.869	1	6
401.210	1	6
401.552	1	21
401.893	1	9
402.235	1	9
402.576	1	11
402.918	1	9
403.259	1	11
403.601	1	18
403.942	1	17
404.284	1	14
404.625	1	6
404.967	1	12
405.308	1	5
405.649	1	17
405.991	1	10
406.332	1	13
406.674	1	6
407.015	1	13
407.357	1	14
407.698	1	11
408.040	1	15
408.381	1	7
408.722	1	11
409.064	1	27
409.405	1	9
409.747	1	5
410.088	1	15
410.430	1	21
410.771	1	16
411.112	1	11
411.454	1	10
411.795	1	18
412.137	1	6
412.478	1	11
412.819	1	27
413.161	1	16
413.502	1	17
413.844	1	22
414.185	1	8
414.526	1	5
414.868	1	16
415.209	1	4
415.550	1	15
415.892	1	16
416.233	1	16
416.575	1	9
416.916	1	5
417.257	1	16
417.599	1	7
417.940	1	2
418.281	1	17
418.623	1	9
418.964	1	19
419.305	1	19
419.647	1	15
419.988	1	20
420.329	1	11
420.671	1	22
421.012	1	8
421.353	1	23
421.695	1	15
422.036	1	16
422.377	1	13
422.718	1	20
423.060	1	26
423.401	1	8
423.742	1	19
424.084	1	19
424.425	1	26
424.766	1	17
425.107	1	14
425.449	1	14
425.790	1	22
426.131	1	8
426.472	1	20
426.814	1	16
427.155	1	23
427.496	1	11
427.837	1	11
428.179	1	23
428.520	1	13
428.861	1	19
429.202	1	-1
429.544	1	19
429.885	1	11
430.226	1	4
430.567	1	4
430.909	1	5
431.250	1	9
431.591	1	10
431.932	1	9
432.273	1	21
432.615	1	6
432.956	1	6
433.297	1	17
433.638	1	15
433.979	1	15
434.320	1	15
434.662	1	9
435.003	1	26
435.344	1	21
435.685	1	4
436.026	1	2
436.368	1	9
436.709	1	10
437.050	1	7
437.391	1	8
437.732	1	16
438.073	1	2
438.414	1	14
438.756	1	10
439.097	1	12
439.438	1	15
439.779	1	13
440.120	1	13
440.461	1	12
440.802	1	8
441.143	1	11
441.485	1	11
441.826	1	10
442.167	1	11
442.508	1	13
442.849	1	16
443.190	1	15
443.531	1	6
443.872	1	-5
444.213	1	2
444.554	1	16
444.895	1	14
445.237	1	23
445.578	1	8
445.919	1	8
446.260	1	20
446.601	1	13
446.942	1	5
447.283	1	16
447.624	1	5
447.965	1	19
448.306	1	7
448.647	1	11
448.988	1	15
449.329	1	18
449.670	1	13
450.011	1	19
450.352	1	7
450.693	1	19
451.034	1	6
451.375	1	11
451.716	1	7
452.057	1	15
452.398	1	11
452.739	1	9
453.080	1	11
453.421	1	18
453.762	1	15
454.103	1	10
454.444	1	8
454.785	1	15
455.126	1	8
455.467	1	9
455.808	1	13
456.149	1	6
456.490	1	3
456.831	1	8
457.172	1	19
457.513	1	8
457.854	1	13
458.195	1	10
458.536	1	21
458.877	1	14
459.218	1	11
459.559	1	6
459.899	1	12
460.240	1	10
460.581	1	1
460.922	1	14
461.263	1	13
461.604	1	7
461.945	1	13
462.286	1	3
462.627	1	10
462.968	1	8
463.309	1	9
463.649	1	7
463.990	1	5
464.331	1	8
464.672	1	12
465.013	1	10
465.354	1	11
465.695	1	18
466.036	1	15
466.376	1	7
466.717	1	-6
467.058	1	5
467.399	1	-5
467.740	1	17
468.081	1	14
468.422	1	16
468.762	1	3
469.103	1	14
469.444	1	6
469.785	1	1
470.126	1	19
470.467	1	1
470.807	1	11
471.148	1	4
471.489	1	11
471.830	1	8
472.171	1	10
472.511	1	11
472.852	1	15
473.193	1	7
473.534	1	6
473.875	1	0
474.215	1	8
474.556	1	1
474.897	1	4
475.238	1	13
475.578	1	4
475.919	1	2
476.260	1	10
476.601	1	11
476.942	1	8
477.282	1	6
477.623	1	8
477.964	1	20
478.305	1	11
478.645	1	7
478.986	1	6
479.327	1	15
479.667	1	6
480.008	1	7
480.349	1	0
480.690	1	14
481.030	1	11
481.371	1	3
481.712	1	17
482.053	1	21
482.393	1	17
482.734	1	7
483.075	1	15
483.415	1	0
483.756	1	18
484.097	1	10
484.437	1	10
484.778	1	13
485.119	1	10
485.459	1	-1
485.800	1	7
486.141	1	18
486.481	1	-6
486.822	1	16
487.163	1	10
487.503	1	14
487.844	1	7
488.185	1	9
488.525	1	0
488.866	1	0
489.207	1	16
489.547	1	23
489.888	1	17
490.228	1	9
490.569	1	3
490.910	1	13
491.250	1	13
491.591	1	9
491.932	1	14
492.272	1	5
492.613	1	13
492.953	1	9
493.294	1	3
493.635	1	19
493.975	1	27
494.316	1	3
494.656	1	3
494.997	1	8
495.337	1	23
495.678	1	14
496.019	1	13
496.359	1	8
496.700	1	4
497.040	1	8
497.381	1	13
497.721	1	8
498.062	1	0
498.403	1	17
498.743	1	11
499.084	1	20
499.424	1	20
499.765	1	13
500.105	1	14
500.446	1	10
500.786	1	11
501.127	1	18
501.467	1	25
501.808	1	17
502.148	1	18
502.489	1	12
502.829	1	11
503.170	1	27
503.510	1	14
503.851	1	17
504.191	1	19
504.532	1	28
504.872	1	12
505.213	1	22
505.553	1	17
505.894	1	7
506.234	1	23
506.575	1	25
506.915	1	30
507.256	1	20
507.596	1	27
507.936	1	31
508.277	1	35
508.617	1	20
508.958	1	21
509.298	1	21
509.639	1	9
509.979	1	18
510.319	1	21
510.660	1	17
511.000	1	16
511.341	1	25
511.681	1	18
512.022	1	12
512.362	1	26
512.702	1	17
513.043	1	27
513.383	1	20
513.724	1	21
514.064	1	21
514.404	1	28
514.745	1	18
515.085	1	21
515.425	1	26
515.766	1	29
516.106	1	21
516.447	1	21
516.787	1	11
517.127	1	31
517.468	1	27
517.808	1	16
518.148	1	38
518.489	1	24
518.829	1	27
519.169	1	17
519.510	1	15
519.850	1	27
520.190	1	26
520.531	1	17
520.871	1	14
521.211	1	30
521.552	1	23
521.892	1	21
522.232	1	34
522.573	1	33
522.913	1	23
523.253	1	33
523.593	1	32
523.934	1	28
524.274	1	24
524.614	1	26
524.955	1	28
525.295	1	25
525.635	1	31
525.975	1	32
526.316	1	19
526.656	1	32
526.996	1	35
527.337	1	35
527.677	1	47
528.017	1	14
528.357	1	33
528.698	1	38
529.038	1	23
529.378	1	43
529.718	1	21
530.058	1	26
530.399	1	30
530.739	1	32
531.079	1	27
531.419	1	30
531.760	1	34
532.100	1	32
532.440	1	28
532.780	1	28
533.120	1	26
533.461	1	24
533.801	1	31
534.141	1	32
534.481	1	38
534.821	1	21
535.162	1	31
535.502	1	21
535.842	1	19
536.182	1	27
536.522	1	19
536.862	1	22
537.203	1	27
537.543	1	23
537.883	1	27
538.223	1	40
538.563	1	20
538.903	1	27
539.243	1	24
539.584	1	18
539.924	1	18
540.264	1	32
540.604	1	30
540.944	1	30
541.284	1	24
541.624	1	15
541.964	1	22
542.305	1	24
542.645	1	23
542.985	1	17
543.325	1	29
543.665	1	34
544.005	1	24
544.345	1	30
544.685	1	7
545.025	1	29
545.365	1	22
545.705	1	26
546.045	1	29
546.386	1	22
546.726	1	30
547.066	1	13
547.406	1	17
547.746	1	17
548.086	1	22
548.426	1	21
548.766	1	18
549.106	1	24
549.446	1	16
549.786	1	24
550.126	1	27
550.466	1	16
550.806	1	33
551.146	1	28
551.486	1	19
551.826	1	12
552.166	1	27
552.506	1	14
552.846	1	23
553.186	1	15
553.526	1	35
553.866	1	14
554.206	1	22
554.546	1	28
554.886	1	20
555.226	1	22
555.566	1	20
555.906	1	20
556.246	1	24
556.586	1	21
556.926	1	15
557.266	1	31
557.606	1	5
557.946	1	20
558.286	1	1
558.626	1	26
558.966	1	22
559.306	1	27
559.646	1	26
559.986	1	15
560.325	1	24
560.665	1	14
561.005	1	17
561.345	1	12
561.685	1	25
562.025	1	15
562.365	1	19
562.705	1	24
563.045	1	25
563.385	1	17
563.725	1	20
564.064	1	8
564.404	1	13
564.744	1	25
565.084	1	15
565.424	1	15
565.764	1	16
566.104	1	24
566.444	1	20
566.783	1	21
567.123	1	7
567.463	1	16
567.803	1	23
568.143	1	16
568.483	1	20
568.823	1	1
569.162	1	13
569.502	1	13
569.842	1	12
570.182	1	17
570.522	1	11
570.862	1	10
571.201	1	19
571.541	1	13
571.881	1	12
572.221	1	8
572.561	1	26
572.900	1	9
573.240	1	13
573.580	1	14
573.920	1	23
574.260	1	20
574.599	1	19
574.939	1	13
575.279	1	17
575.619	1	13
575.959	1	7
576.298	1	4
576.638	1	10
576.978	1	8
577.318	1	9
577.657	1	5
577.997	1	4
578.337	1	10
578.677	1	8
579.016	1	13
579.356	1	16
579.696	1	15
580.036	1	9
580.375	1	13
580.715	1	17
581.055	1	4
581.394	1	12
581.734	1	16
582.074	1	21
582.414	1	7
582.753	1	5
583.093	1	15
583.433	1	18
583.772	1	19
584.112	1	7
584.452	1	16
584.791	1	10
585.131	1	17
585.471	1	8
585.811	1	14
586.150	1	15
586.490	1	2
586.830	1	6
587.169	1	6
587.509	1	13
587.849	1	19
588.188	1	15
588.528	1	3
588.867	1	11
589.207	1	20
589.547	1	15
589.886	1	11
590.226	1	7
590.566	1	15
590.905	1	6
591.245	1	6
591.585	1	1
591.924	1	11
592.264	1	5
592.603	1	-6
592.943	1	10
593.283	1	10
593.622	1	1
593.962	1	15
594.301	1	2
594.641	1	10
594.981	1	5
595.320	1	11
595.660	1	1
595.999	1	-5
596.339	1	7
596.678	1	-2
597.018	1	8
597.358	1	7
597.697	1	-1
598.037	1	8
598.376	1	4
598.716	1	7
599.055	1	12
599.395	1	6
599.734	1	9
600.074	1	4
600.413	1	8
600.753	1	11
601.092	1	-3
601.432	1	2
601.771	1	10
602.111	1	7
602.451	1	7
602.790	1	18
603.130	1	17
603.469	1	8
603.809	1	13
604.148	1	1
604.487	1	17
604.827	1	11
605.166	1	9
605.506	1	-2
605.845	1	11
606.185	1	5
606.524	1	4
606.864	1	26
607.203	1	14
607.543	1	10
607.882	1	10
608.222	1	4
608.561	1	8
608.901	1	12
609.240	1	12
609.579	1	1
609.919	1	5
610.258	1	17
610.598	1	-2
610.937	1	6
611.277	1	8
611.616	1	19
611.955	1	5
612.295	1	8
612.634	1	7
612.974	1	12
613.313	1	12
613.652	1	10
613.992	1	-1
614.331	1	18
614.671	1	9
615.010	1	5
615.349	1	17
615.689	1	13
616.028	1	21
616.368	1	19
616.707	1	5
617.046	1	6
617.386	1	15
617.725	1	10
618.064	1	12
618.404	1	5
618.743	1	18
619.082	1	20
619.422	1	16
619.761	1	0
620.100	1	8
620.440	1	18
620.779	1	10
621.118	1	7
621.458	1	10
621.797	1	-1
622.136	1	3
622.476	1	9
622.815	1	3
623.154	1	1
623.494	1	1
623.833	1	5
624.172	1	7
624.511	1	4
624.851	1	3
625.190	1	1
625.529	1	0
625.869	1	5
626.208	1	-11
626.547	1	5
626.886	1	0
627.226	1	13
627.565	1	6
627.904	1	-4
628.243	1	8
628.583	1	12
628.922	1	18
629.261	1	10
629.600	1	-3
629.940	1	11
630.279	1	15
630.618	1	6
630.957	1	11
631.297	1	14
631.636	1	11
631.975	1	3
632.314	1	4
632.653	1	7
632.993	1	11
633.332	1	11
633.671	1	14
634.010	1	6
634.349	1	11
634.689	1	2
635.028	1	3
635.367	1	15
635.706	1	15
636.045	1	2
636.384	1	14
636.724	1	2
637.063	1	-7
637.402	1	6
637.741	1	0
638.080	1	4
638.419	1	1
638.759	1	10
639.098	1	4
639.437	1	12
639.776	1	11
640.115	1	-8
640.454	1	3
640.793	1	5
641.132	1	10
641.472	1	19
641.811	1	-2
642.150	1	4
642.489	1	12
642.828	1	17
643.167	1	11
643.506	1	11
643.845	1	19
644.184	1	17
644.524	1	5
644.863	1	7
645.202	1	7
645.541	1	20
645.880	1	10
646.219	1	3
646.558	1	-9
646.897	1	-4
647.236	1	-7
647.575	1	10
647.914	1	9
648.253	1	12
648.592	1	6
648.931	1	15
649.270	1	9
649.610	1	11
649.949	1	10
650.288	1	6
650.627	1	6
650.966	1	7
651.305	1	4
651.644	1	16
651.983	1	-3
652.322	1	4
652.661	1	13
653.000	1	6
653.339	1	1
653.678	1	12
654.017	1	8
654.356	1	7
654.695	1	11
655.034	1	-5
655.373	1	3
655.712	1	9
656.051	1	-7
656.390	1	7
656.729	1	10
657.068	1	7
657.406	1	4
657.745	1	15
658.084	1	6
658.423	1	11
658.762	1	4
659.101	1	1
659.440	1	2
659.779	1	7
660.118	1	10
660.457	1	7
660.796	1	12
661.135	1	13
661.474	1	11
661.813	1	5
662.152	1	12
662.491	1	2
662.829	1	5
663.168	1	3
663.507	1	5
663.846	1	-1
664.185	1	7
664.524	1	16
664.863	1	-6
665.202	1	0
665.541	1	2
665.879	1	11
666.218	1	4
666.557	1	0
666.896	1	13
667.235	1	0
667.574	1	0
667.913	1	6
668.251	1	-4
668.590	1	3
668.929	1	6
669.268	1	0
669.607	1	-8
669.946	1	5
670.285	1	5
670.623	1	5
670.962	1	-10
671.301	1	6
671.640	1	12
671.979	1	5
672.317	1	6
672.656	1	8
672.995	1	7
673.334	1	7
673.673	1	22
674.011	1	6
674.350	1	4
674.689	1	-6
675.028	1	6
675.367	1	8
675.705	1	-3
676.044	1	-2
676.383	1	9
676.722	1	-1
677.060	1	11
677.399	1	8
677.738	1	-4
678.077	1	-5
678.416	1	9
678.754	1	3
679.093	1	10
679.432	1	2
679.771	1	5
680.109	1	6
680.448	1	8
680.787	1	-3
681.125	1	9
681.464	1	6
681.803	1	0
682.142	1	4
682.480	1	-3
682.819	1	9
683.158	1	5
683.496	1	-3
683.835	1	8
684.174	1	-3
684.512	1	4
684.851	1	0
685.190	1	6
685.529	1	1
685.867	1	2
686.206	1	-4
686.545	1	4
686.883	1	11
687.222	1	2
687.561	1	2
687.899	1	5
688.238	1	7
688.577	1	6
688.746	1	8