File: Data/GaN_150K_450ms/GaN_sample D_spot15_UVVIS_150 K_200um_450 ms 2x2mm1_112.txt
340.368	1	7
340.710	1	-1
341.052	1	2
341.394	1	-10
341.737	1	9
342.079	1	3
342.421	1	1
342.763	1	0
343.105	1	7
343.447	1	13
343.789	1	8
344.131	1	-15
344.473	1	2
344.815	1	-6
345.157	1	14
345.499	1	1
345.841	1	5
346.183	1	10
346.526	1	11
346.868	1	7
347.210	1	3
347.552	1	23
347.894	1	0
348.236	1	6
348.578	1	7
348.920	1	9
349.262	1	10
349.604	1	-3
349.946	1	9
350.288	1	1
350.630	1	-1
350.972	1	7
351.314	1	1
351.656	1	15
351.998	1	5
352.340	1	7
352.682	1	-3
353.024	1	17
353.366	1	15
353.708	1	9
354.050	1	-1
354.392	1	0
354.734	1	10
355.076	1	16
355.418	1	16
355.760	1	9
356.102	1	7
356.444	1	20
356.785	1	16
357.127	1	16
357.469	1	9
357.811	1	7
358.153	1	-3
358.495	1	8
358.837	1	24
359.179	1	6
359.521	1	22
359.863	1	3
360.205	1	23
360.547	1	28
360.889	1	10
361.231	1	28
361.572	1	29
361.914	1	26
362.256	1	33
362.598	1	35
362.940	1	34
363.282	1	23
363.624	1	37
363.966	1	34
364.308	1	53
364.649	1	43
364.991	1	51
365.333	1	60
365.675	1	57
366.017	1	60
366.359	1	65
366.701	1	65
367.042	1	76
367.384	1	75
367.726	1	73
368.068	1	74
368.410	1	66
368.752	1	81
369.093	1	74
369.435	1	81
369.777	1	74
370.119	1	67
370.461	1	57
370.803	1	57
371.144	1	70
371.486	1	64
371.828	1	47
372.170	1	54
372.512	1	45
372.853	1	58
373.195	1	46
373.537	1	40
373.879	1	43
374.220	1	43
374.562	1	42
374.904	1	36
375.246	1	35
375.588	1	36
375.929	1	35
376.271	1	34
376.613	1	29
376.955	1	33
377.296	1	28
377.638	1	28
377.980	1	24
378.321	1	21
378.663	1	37
379.005	1	23
379.347	1	23
379.688	1	29
380.030	1	24
380.372	1	21
380.714	1	24
381.055	1	10
381.397	1	19
381.739	1	3
382.080	1	19
382.422	1	21
382.764	1	12
383.105	1	12
383.447	1	10
383.789	1	4
384.130	1	18
384.472	1	12
384.814	1	19
385.156	1	9
385.497	1	21
385.839	1	18
386.180	1	9
386.522	1	18
386.864	1	3
387.205	1	15
387.547	1	10
387.889	1	11
388.230	1	17
388.572	1	8
388.914	1	13
389.255	1	12
389.597	1	8
389.939	1	12
390.280	1	13
390.622	1	6
390.963	1	1
391.305	1	4
391.647	1	9
391.988	1	13
392.330	1	11
392.671	1	11
393.013	1	15
393.355	1	17
393.696	1	11
394.038	1	5
394.379	1	15
394.721	1	0
395.062	1	5
395.404	1	11
395.746	1	1
396.087	1	21
396.429	1	15
396.770	1	12
397.112	1	6
397.453	1	-3
397.795	1	6
398.136	1	13
398.478	1	14
398.819	1	15
399.161	1	12
399.503	1	22
399.844	1	4
400.186	1	6
400.527	1	18
400.869	1	1
401.210	1	14
401.552	1	9
401.893	1	2
402.235	1	9
402.576	1	16
402.918	1	7
403.259	1	9
403.601	1	16
403.942	1	16
404.284	1	16
404.625	1	5
404.967	1	10
405.308	1	7
405.649	1	10
405.991	1	11
406.332	1	8
406.674	1	16
407.015	1	15
407.357	1	17
407.698	1	15
408.040	1	19
408.381	1	8
408.722	1	11
409.064	1	21
409.405	1	9
409.747	1	12
410.088	1	13
410.430	1	18
410.771	1	9
411.112	1	9
411.454	1	12
411.795	1	15
412.137	1	14
412.478	1	17
412.819	1	10
413.161	1	11
413.502	1	16
413.844	1	21
414.185	1	8
414.526	1	2
414.868	1	2
415.209	1	8
415.550	1	12
415.892	1	20
416.233	1	8
416.575	1	11
416.916	1	14
417.257	1	7
417.599	1	7
417.940	1	0
418.281	1	17
418.623	1	20
418.964	1	22
419.305	1	15
419.647	1	18
419.988	1	20
420.329	1	18
420.671	1	12
421.012	1	3
421.353	1	18
421.695	1	18
422.036	1	20
422.377	1	16
422.718	1	25
423.060	1	17
423.401	1	14
423.742	1	24
424.084	1	18
424.425	1	33
424.766	1	13
425.107	1	14
425.449	1	5
425.790	1	12
426.131	1	1
426.472	1	22
426.814	1	18
427.155	1	15
427.496	1	15
427.837	1	14
428.179	1	17
428.520	1	18
428.861	1	18
429.202	1	0
429.544	1	9
429.885	1	13
430.226	1	5
430.567	1	4
430.909	1	13
431.250	1	14
431.591	1	10
431.932	1	9
432.273	1	26
432.615	1	8
432.956	1	13
433.297	1	14
433.638	1	15
433.979	1	15
434.320	1	16
434.662	1	21
435.003	1	21
435.344	1	2
435.685	1	6
436.026	1	9
436.368	1	3
436.709	1	9
437.050	1	7
437.391	1	11
437.732	1	23
438.073	1	7
438.414	1	15
438.756	1	6
439.097	1	4
439.438	1	10
439.779	1	11
440.120	1	4
440.461	1	13
440.802	1	15
441.143	1	2
441.485	1	7
441.826	1	7
442.167	1	15
442.508	1	16
442.849	1	8
443.190	1	12
443.531	1	7
443.872	1	9
444.213	1	8
444.554	1	17
444.895	1	13
445.237	1	11
445.578	1	15
445.919	1	13
446.260	1	16
446.601	1	14
446.942	1	3
447.283	1	20
447.624	1	2
447.965	1	12
448.306	1	5
448.647	1	13
448.988	1	16
449.329	1	12
449.670	1	14
450.011	1	5
450.352	1	6
450.693	1	9
451.034	1	7
451.375	1	13
451.716	1	6
452.057	1	16
452.398	1	19
452.739	1	13
453.080	1	10
453.421	1	16
453.762	1	2
454.103	1	4
454.444	1	8
454.785	1	4
455.126	1	6
455.467	1	5
455.808	1	18
456.149	1	9
456.490	1	8
456.831	1	-4
457.172	1	13
457.513	1	10
457.854	1	11
458.195	1	7
458.536	1	8
458.877	1	7
459.218	1	15
459.559	1	10
459.899	1	9
460.240	1	7
460.581	1	3
460.922	1	5
461.263	1	11
461.604	1	12
461.945	1	14
462.286	1	2
462.627	1	7
462.968	1	14
463.309	1	16
463.649	1	-1
463.990	1	11
464.331	1	16
464.672	1	16
465.013	1	14
465.354	1	15
465.695	1	11
466.036	1	2
466.376	1	14
466.717	1	1
467.058	1	-3
467.399	1	2
467.740	1	21
468.081	1	9
468.422	1	11
468.762	1	10
469.103	1	11
469.444	1	7
469.785	1	-5
470.126	1	9
470.467	1	6
470.807	1	16
471.148	1	0
471.489	1	17
471.830	1	10
472.171	1	13
472.511	1	13
472.852	1	14
473.193	1	6
473.534	1	3
473.875	1	6
474.215	1	-1
474.556	1	4
474.897	1	2
475.238	1	4
475.578	1	0
475.919	1	-1
476.260	1	3
476.601	1	8
476.942	1	0
477.282	1	1
477.623	1	-7
477.964	1	13
478.305	1	14
478.645	1	3
478.986	1	19
479.327	1	3
479.667	1	8
480.008	1	13
480.349	1	13
480.690	1	9
481.030	1	4
481.371	1	-8
481.712	1	17
482.053	1	13
482.393	1	13
482.734	1	8
483.075	1	9
483.415	1	18
483.756	1	11
484.097	1	11
484.437	1	9
484.778	1	2
485.119	1	11
485.459	1	-2
485.800	1	10
486.141	1	-3
486.481	1	0
486.822	1	14
487.163	1	13
487.503	1	6
487.844	1	3
488.185	1	1
488.525	1	5
488.866	1	-4
489.207	1	-2
489.547	1	11
489.888	1	10
490.228	1	11
490.569	1	5
490.910	1	13
491.250	1	12
491.591	1	5
491.932	1	22
492.272	1	2
492.613	1	12
492.953	1	13
493.294	1	1
493.635	1	11
493.975	1	13
494.316	1	0
494.656	1	17
494.997	1	4
495.337	1	10
495.678	1	12
496.019	1	12
496.359	1	0
496.700	1	10
497.040	1	3
497.381	1	5
497.721	1	0
498.062	1	15
498.403	1	13
498.743	1	10
499.084	1	15
499.424	1	13
499.765	1	5
500.105	1	12
500.446	1	6
500.786	1	4
501.127	1	16
501.467	1	17
501.808	1	13
502.148	1	16
502.489	1	10
502.829	1	9
503.170	1	14
503.510	1	12
503.851	1	16
504.191	1	15
504.532	1	21
504.872	1	0
505.213	1	0
505.553	1	8
505.894	1	28
506.234	1	19
506.575	1	15
506.915	1	15
507.256	1	10
507.596	1	21
507.936	1	15
508.277	1	26
508.617	1	13
508.958	1	20
509.298	1	7
509.639	1	6
509.979	1	10
510.319	1	21
510.660	1	16
511.000	1	10
511.341	1	23
511.681	1	22
512.022	1	3
512.362	1	22
512.702	1	12
513.043	1	16
513.383	1	24
513.724	1	17
514.064	1	26
514.404	1	23
514.745	1	16
515.085	1	29
515.425	1	17
515.766	1	5
516.106	1	8
516.447	1	29
516.787	1	14
517.127	1	14
517.468	1	25
517.808	1	7
518.148	1	28
518.489	1	21
518.829	1	22
519.169	1	8
519.510	1	9
519.850	1	22
520.190	1	26
520.531	1	27
520.871	1	14
521.211	1	25
521.552	1	17
521.892	1	25
522.232	1	21
522.573	1	16
522.913	1	20
523.253	1	27
523.593	1	28
523.934	1	16
524.274	1	20
524.614	1	24
524.955	1	10
525.295	1	24
525.635	1	19
525.975	1	16
526.316	1	16
526.656	1	17
526.996	1	18
527.337	1	28
527.677	1	22
528.017	1	16
528.357	1	19
528.698	1	20
529.038	1	20
529.378	1	3
529.718	1	19
530.058	1	15
530.399	1	18
530.739	1	19
531.079	1	21
531.419	1	18
531.760	1	29
532.100	1	29
532.440	1	20
532.780	1	19
533.120	1	18
533.461	1	13
533.801	1	25
534.141	1	16
534.481	1	33
534.821	1	16
535.162	1	21
535.502	1	13
535.842	1	16
536.182	1	18
536.522	1	17
536.862	1	20
537.203	1	19
537.543	1	19
537.883	1	15
538.223	1	25
538.563	1	10
538.903	1	13
539.243	1	16
539.584	1	18
539.924	1	17
540.264	1	24
540.604	1	22
540.944	1	15
541.284	1	18
541.624	1	11
541.964	1	15
542.305	1	23
542.645	1	12
542.985	1	20
543.325	1	30
543.665	1	21
544.005	1	15
544.345	1	30
544.685	1	12
545.025	1	22
545.365	1	24
545.705	1	16
546.045	1	18
546.386	1	19
546.726	1	18
547.066	1	15
547.406	1	16
547.746	1	7
548.086	1	16
548.426	1	21
548.766	1	16
549.106	1	13
549.446	1	18
549.786	1	18
550.126	1	13
550.466	1	16
550.806	1	23
551.146	1	15
551.486	1	6
551.826	1	8
552.166	1	14
552.506	1	11
552.846	1	17
553.186	1	5
553.526	1	8
553.866	1	13
554.206	1	20
554.546	1	10
554.886	1	12
555.226	1	11
555.566	1	19
555.906	1	11
556.246	1	16
556.586	1	11
556.926	1	16
557.266	1	16
557.606	1	5
557.946	1	13
558.286	1	-3
558.626	1	23
558.966	1	6
559.306	1	25
559.646	1	11
559.986	1	23
560.325	1	14
560.665	1	17
561.005	1	15
561.345	1	4
561.685	1	19
562.025	1	16
562.365	1	11
562.705	1	19
563.045	1	17
563.385	1	11
563.725	1	8
564.064	1	1
564.404	1	1
564.744	1	24
565.084	1	12
565.424	1	7
565.764	1	4
566.104	1	17
566.444	1	26
566.783	1	10
567.123	1	7
567.463	1	18
567.803	1	14
568.143	1	12
568.483	1	26
568.823	1	14
569.162	1	0
569.502	1	12
569.842	1	10
570.182	1	9
570.522	1	6
570.862	1	4
571.201	1	18
571.541	1	4
571.881	1	2
572.221	1	16
572.561	1	25
572.900	1	14
573.240	1	4
573.580	1	14
573.920	1	19
574.260	1	14
574.599	1	13
574.939	1	10
575.279	1	10
575.619	1	9
575.959	1	12
576.298	1	-2
576.638	1	15
576.978	1	13
577.318	1	14
577.657	1	4
577.997	1	11
578.337	1	11
578.677	1	11
579.016	1	1
579.356	1	7
579.696	1	11
580.036	1	12
580.375	1	8
580.715	1	7
581.055	1	8
581.394	1	7
581.734	1	9
582.074	1	14
582.414	1	9
582.753	1	13
583.093	1	10
583.433	1	11
583.772	1	11
584.112	1	12
584.452	1	5
584.791	1	7
585.131	1	7
585.471	1	11
585.811	1	4
586.150	1	14
586.490	1	-4
586.830	1	11
587.169	1	10
587.509	1	2
587.849	1	12
588.188	1	11
588.528	1	13
588.867	1	8
589.207	1	15
589.547	1	7
589.886	1	13
590.226	1	-2
590.566	1	3
590.905	1	2
591.245	1	-2
591.585	1	4
591.924	1	3
592.264	1	13
592.603	1	2
592.943	1	18
593.283	1	14
593.622	1	2
593.962	1	5
594.301	1	2
594.641	1	4
594.981	1	4
595.320	1	10
595.660	1	10
595.999	1	6
596.339	1	0
596.678	1	-3
597.018	1	5
597.358	1	10
597.697	1	0
598.037	1	10
598.376	1	-6
598.716	1	15
599.055	1	10
599.395	1	0
599.734	1	6
600.074	1	1
600.413	1	11
600.753	1	19
601.092	1	-5
601.432	1	3
601.771	1	13
602.111	1	5
602.451	1	3
602.790	1	14
603.130	1	9
603.469	1	4
603.809	1	5
604.148	1	-1
604.487	1	7
604.827	1	10
605.166	1	0
605.506	1	5
605.845	1	15
606.185	1	-1
606.524	1	0
606.864	1	18
607.203	1	10
607.543	1	2
607.882	1	17
608.222	1	13
608.561	1	0
608.901	1	6
609.240	1	2
609.579	1	7
609.919	1	-6
610.258	1	8
610.598	1	-1
610.937	1	13
611.277	1	1
611.616	1	17
611.955	1	4
612.295	1	7
612.634	1	8
612.974	1	4
613.313	1	8
613.652	1	9
613.992	1	16
614.331	1	17
614.671	1	16
615.010	1	5
615.349	1	10
615.689	1	3
616.028	1	26
616.368	1	16
616.707	1	17
617.046	1	5
617.386	1	9
617.725	1	5
618.064	1	-2
618.404	1	-1
618.743	1	12
619.082	1	20
619.422	1	8
619.761	1	-3
620.100	1	8
620.440	1	16
620.779	1	8
621.118	1	12
621.458	1	0
621.797	1	2
622.136	1	4
622.476	1	11
622.815	1	18
623.154	1	-11
623.494	1	-7
623.833	1	-5
624.172	1	16
624.511	1	-1
624.851	1	-1
625.190	1	-4
625.529	1	7
625.869	1	11
626.208	1	8
626.547	1	-6
626.886	1	-2
627.226	1	17
627.565	1	8
627.904	1	3
628.243	1	7
628.583	1	6
628.922	1	6
629.261	1	15
629.600	1	1
629.940	1	7
630.279	1	20
630.618	1	6
630.957	1	8
631.297	1	10
631.636	1	0
631.975	1	11
632.314	1	8
632.653	1	0
632.993	1	7
633.332	1	0
633.671	1	6
634.010	1	6
634.349	1	11
634.689	1	-1
635.028	1	-7
635.367	1	16
635.706	1	-3
636.045	1	-6
636.384	1	4
636.724	1	4
637.063	1	2
637.402	1	10
637.741	1	3
638.080	1	2
638.419	1	4
638.759	1	7
639.098	1	4
639.437	1	-1
639.776	1	3
640.115	1	-1
640.454	1	6
640.793	1	0
641.132	1	6
641.472	1	12
641.811	1	2
642.150	1	5
642.489	1	20
642.828	1	18
643.167	1	6
643.506	1	0
643.845	1	16
644.184	1	5
644.524	1	0
644.863	1	6
645.202	1	-5
645.541	1	5
645.880	1	11
646.219	1	12
646.558	1	-4
646.897	1	-6
647.236	1	-7
647.575	1	11
647.914	1	-5
648.253	1	15
648.592	1	15
648.931	1	11
649.270	1	11
649.610	1	6
649.949	1	5
650.288	1	4
650.627	1	14
650.966	1	6
651.305	1	14
651.644	1	18
651.983	1	-6
652.322	1	4
652.661	1	15
653.000	1	7
653.339	1	9
653.678	1	11
654.017	1	15
654.356	1	12
654.695	1	7
655.034	1	1
655.373	1	3
655.712	1	7
656.051	1	3
656.390	1	5
656.729	1	10
657.068	1	4
657.406	1	0
657.745	1	13
658.084	1	6
658.423	1	3
658.762	1	3
659.101	1	9
659.440	1	9
659.779	1	10
660.118	1	5
660.457	1	7
660.796	1	12
661.135	1	12
661.474	1	-4
661.813	1	2
662.152	1	2
662.491	1	-6
662.829	1	11
663.168	1	8
663.507	1	12
663.846	1	5
664.185	1	2
664.524	1	14
664.863	1	0
665.202	1	7
665.541	1	1
665.879	1	9
666.218	1	12
666.557	1	4
666.896	1	6
667.235	1	-4
667.574	1	-1
667.913	1	14
668.251	1	-4
668.590	1	6
668.929	1	8
669.268	1	0
669.607	1	1
669.946	1	17
670.285	1	3
670.623	1	10
670.962	1	3
671.301	1	2
671.640	1	12
671.979	1	0
672.317	1	8
672.656	1	14
672.995	1	4
673.334	1	3
673.673	1	21
674.011	1	12
674.350	1	7
674.689	1	-4
675.028	1	8
675.367	1	-4
675.705	1	-4
676.044	1	7
676.383	1	-1
676.722	1	-3
677.060	1	15
677.399	1	22
677.738	1	3
678.077	1	0
678.416	1	-1
678.754	1	10
679.093	1	5
679.432	1	-6
679.771	1	9
680.109	1	3
680.448	1	-3
680.787	1	0
681.125	1	-1
681.464	1	6
681.803	1	1
682.142	1	7
682.480	1	-5
682.819	1	11
683.158	1	7
683.496	1	7
683.835	1	9
684.174	1	2
684.512	1	-1
684.851	1	0
685.190	1	4
685.529	1	4
685.867	1	7
686.206	1	-8
686.545	1	11
686.883	1	16
687.222	1	2
687.561	1	4
687.899	1	-1
688.238	1	15
688.577	1	3
688.746	1	1