File: Data/GaN_150K_450ms/GaN_sample D_spot15_UVVIS_150 K_200um_450 ms 2x2mm1_239.txt
340.368	1	5
340.710	1	7
341.052	1	5
341.394	1	-7
341.737	1	4
342.079	1	1
342.421	1	-3
342.763	1	-5
343.105	1	8
343.447	1	4
343.789	1	10
344.131	1	-4
344.473	1	4
344.815	1	5
345.157	1	13
345.499	1	5
345.841	1	8
346.183	1	5
346.526	1	3
346.868	1	9
347.210	1	-10
347.552	1	20
347.894	1	5
348.236	1	2
348.578	1	11
348.920	1	4
349.262	1	3
349.604	1	-6
349.946	1	-7
350.288	1	8
350.630	1	-4
350.972	1	7
351.314	1	-4
351.656	1	7
351.998	1	10
352.340	1	7
352.682	1	-14
353.024	1	9
353.366	1	11
353.708	1	-1
354.050	1	-2
354.392	1	-10
354.734	1	11
355.076	1	8
355.418	1	7
355.760	1	2
356.102	1	0
356.444	1	0
356.785	1	12
357.127	1	8
357.469	1	2
357.811	1	-6
358.153	1	-13
358.495	1	13
358.837	1	17
359.179	1	3
359.521	1	14
359.863	1	2
360.205	1	16
360.547	1	13
360.889	1	0
361.231	1	10
361.572	1	7
361.914	1	8
362.256	1	8
362.598	1	5
362.940	1	6
363.282	1	-2
363.624	1	10
363.966	1	0
364.308	1	6
364.649	1	13
364.991	1	9
365.333	1	10
365.675	1	24
366.017	1	17
366.359	1	8
366.701	1	10
367.042	1	18
367.384	1	12
367.726	1	11
368.068	1	18
368.410	1	22
368.752	1	30
369.093	1	24
369.435	1	19
369.777	1	22
370.119	1	26
370.461	1	13
370.803	1	11
371.144	1	17
371.486	1	21
371.828	1	11
372.170	1	10
372.512	1	-4
372.853	1	17
373.195	1	4
373.537	1	8
373.879	1	14
374.220	1	12
374.562	1	10
374.904	1	3
375.246	1	7
375.588	1	9
375.929	1	11
376.271	1	-1
376.613	1	5
376.955	1	14
377.296	1	11
377.638	1	5
377.980	1	-4
378.321	1	9
378.663	1	13
379.005	1	4
379.347	1	5
379.688	1	12
380.030	1	14
380.372	1	9
380.714	1	9
381.055	1	-2
381.397	1	1
381.739	1	0
382.080	1	9
382.422	1	10
382.764	1	3
383.105	1	9
383.447	1	4
383.789	1	5
384.130	1	0
384.472	1	4
384.814	1	9
385.156	1	4
385.497	1	12
385.839	1	3
386.180	1	11
386.522	1	7
386.864	1	-1
387.205	1	3
387.547	1	3
387.889	1	-5
388.230	1	4
388.572	1	-6
388.914	1	3
389.255	1	3
389.597	1	-2
389.939	1	8
390.280	1	2
390.622	1	-7
390.963	1	2
391.305	1	-1
391.647	1	-4
391.988	1	1
392.330	1	-1
392.671	1	2
393.013	1	9
393.355	1	14
393.696	1	-5
394.038	1	3
394.379	1	11
394.721	1	8
395.062	1	-3
395.404	1	1
395.746	1	-2
396.087	1	6
396.429	1	4
396.770	1	3
397.112	1	1
397.453	1	-4
397.795	1	-1
398.136	1	11
398.478	1	2
398.819	1	0
399.161	1	7
399.503	1	8
399.844	1	2
400.186	1	0
400.527	1	7
400.869	1	-3
401.210	1	-1
401.552	1	4
401.893	1	12
402.235	1	7
402.576	1	9
402.918	1	-6
403.259	1	10
403.601	1	5
403.942	1	10
404.284	1	9
404.625	1	4
404.967	1	2
405.308	1	-3
405.649	1	0
405.991	1	5
406.332	1	12
406.674	1	7
407.015	1	4
407.357	1	14
407.698	1	13
408.040	1	8
408.381	1	4
408.722	1	6
409.064	1	6
409.405	1	9
409.747	1	8
410.088	1	5
410.430	1	8
410.771	1	9
411.112	1	0
411.454	1	9
411.795	1	3
412.137	1	-2
412.478	1	8
412.819	1	12
413.161	1	6
413.502	1	12
413.844	1	15
414.185	1	11
414.526	1	1
414.868	1	2
415.209	1	2
415.550	1	2
415.892	1	2
416.233	1	0
416.575	1	-7
416.916	1	8
417.257	1	-6
417.599	1	7
417.940	1	-4
418.281	1	4
418.623	1	6
418.964	1	21
419.305	1	2
419.647	1	1
419.988	1	13
420.329	1	1
420.671	1	10
421.012	1	6
421.353	1	10
421.695	1	8
422.036	1	14
422.377	1	12
422.718	1	18
423.060	1	12
423.401	1	3
423.742	1	12
424.084	1	3
424.425	1	14
424.766	1	0
425.107	1	9
425.449	1	0
425.790	1	6
426.131	1	-6
426.472	1	15
426.814	1	7
427.155	1	10
427.496	1	0
427.837	1	-1
428.179	1	9
428.520	1	10
428.861	1	4
429.202	1	5
429.544	1	8
429.885	1	8
430.226	1	-4
430.567	1	-3
430.909	1	-10
431.250	1	6
431.591	1	5
431.932	1	5
432.273	1	11
432.615	1	-4
432.956	1	16
433.297	1	7
433.638	1	8
433.979	1	8
434.320	1	5
434.662	1	13
435.003	1	7
435.344	1	2
435.685	1	-1
436.026	1	-1
436.368	1	-3
436.709	1	2
437.050	1	1
437.391	1	-3
437.732	1	4
438.073	1	-2
438.414	1	4
438.756	1	2
439.097	1	7
439.438	1	5
439.779	1	-2
440.120	1	3
440.461	1	4
440.802	1	6
441.143	1	8
441.485	1	-3
441.826	1	-3
442.167	1	5
442.508	1	0
442.849	1	-2
443.190	1	2
443.531	1	2
443.872	1	-14
444.213	1	0
444.554	1	9
444.895	1	4
445.237	1	11
445.578	1	-2
445.919	1	5
446.260	1	12
446.601	1	12
446.942	1	6
447.283	1	10
447.624	1	-4
447.965	1	1
448.306	1	7
448.647	1	-1
448.988	1	12
449.329	1	9
449.670	1	8
450.011	1	5
450.352	1	5
450.693	1	11
451.034	1	-2
451.375	1	-1
451.716	1	2
452.057	1	-1
452.398	1	7
452.739	1	8
453.080	1	10
453.421	1	6
453.762	1	11
454.103	1	7
454.444	1	5
454.785	1	-2
455.126	1	1
455.467	1	6
455.808	1	10
456.149	1	-7
456.490	1	-3
456.831	1	-2
457.172	1	7
457.513	1	-3
457.854	1	5
458.195	1	9
458.536	1	8
458.877	1	-1
459.218	1	7
459.559	1	2
459.899	1	3
460.240	1	-2
460.581	1	-3
460.922	1	5
461.263	1	9
461.604	1	3
461.945	1	8
462.286	1	-1
462.627	1	4
462.968	1	7
463.309	1	7
463.649	1	-2
463.990	1	0
464.331	1	14
464.672	1	3
465.013	1	2
465.354	1	11
465.695	1	-2
466.036	1	11
466.376	1	10
466.717	1	-2
467.058	1	-1
467.399	1	-6
467.740	1	22
468.081	1	3
468.422	1	5
468.762	1	3
469.103	1	3
469.444	1	6
469.785	1	-1
470.126	1	12
470.467	1	-5
470.807	1	8
471.148	1	-1
471.489	1	7
471.830	1	6
472.171	1	11
472.511	1	4
472.852	1	2
473.193	1	4
473.534	1	5
473.875	1	-2
474.215	1	-1
474.556	1	-10
474.897	1	-5
475.238	1	2
475.578	1	2
475.919	1	9
476.260	1	0
476.601	1	2
476.942	1	0
477.282	1	1
477.623	1	-5
477.964	1	8
478.305	1	9
478.645	1	6
478.986	1	2
479.327	1	3
479.667	1	-3
480.008	1	12
480.349	1	0
480.690	1	4
481.030	1	-9
481.371	1	-10
481.712	1	15
482.053	1	13
482.393	1	6
482.734	1	8
483.075	1	12
483.415	1	4
483.756	1	2
484.097	1	8
484.437	1	-1
484.778	1	-1
485.119	1	-3
485.459	1	-4
485.800	1	-4
486.141	1	3
486.481	1	-2
486.822	1	15
487.163	1	4
487.503	1	1
487.844	1	-4
488.185	1	5
488.525	1	3
488.866	1	-4
489.207	1	3
489.547	1	11
489.888	1	12
490.228	1	2
490.569	1	-7
490.910	1	3
491.250	1	11
491.591	1	6
491.932	1	5
492.272	1	-4
492.613	1	0
492.953	1	3
493.294	1	-7
493.635	1	10
493.975	1	10
494.316	1	-3
494.656	1	13
494.997	1	-9
495.337	1	0
495.678	1	0
496.019	1	-5
496.359	1	0
496.700	1	5
497.040	1	2
497.381	1	-3
497.721	1	-1
498.062	1	-3
498.403	1	4
498.743	1	3
499.084	1	11
499.424	1	-3
499.765	1	1
500.105	1	13
500.446	1	-3
500.786	1	-10
501.127	1	-1
501.467	1	10
501.808	1	5
502.148	1	1
502.489	1	-4
502.829	1	-1
503.170	1	8
503.510	1	0
503.851	1	9
504.191	1	-6
504.532	1	4
504.872	1	0
505.213	1	-2
505.553	1	3
505.894	1	6
506.234	1	11
506.575	1	10
506.915	1	-2
507.256	1	11
507.596	1	13
507.936	1	13
508.277	1	14
508.617	1	13
508.958	1	6
509.298	1	-15
509.639	1	-2
509.979	1	-7
510.319	1	0
510.660	1	0
511.000	1	2
511.341	1	3
511.681	1	9
512.022	1	-1
512.362	1	5
512.702	1	-3
513.043	1	2
513.383	1	2
513.724	1	7
514.064	1	7
514.404	1	8
514.745	1	2
515.085	1	12
515.425	1	7
515.766	1	2
516.106	1	-5
516.447	1	9
516.787	1	-3
517.127	1	11
517.468	1	14
517.808	1	-1
518.148	1	10
518.489	1	2
518.829	1	8
519.169	1	6
519.510	1	2
519.850	1	4
520.190	1	3
520.531	1	-1
520.871	1	2
521.211	1	13
521.552	1	4
521.892	1	8
522.232	1	10
522.573	1	3
522.913	1	7
523.253	1	-3
523.593	1	12
523.934	1	1
524.274	1	2
524.614	1	13
524.955	1	-2
525.295	1	3
525.635	1	3
525.975	1	-5
526.316	1	-4
526.656	1	12
526.996	1	10
527.337	1	8
527.677	1	19
528.017	1	-4
528.357	1	-2
528.698	1	8
529.038	1	10
529.378	1	3
529.718	1	2
530.058	1	7
530.399	1	4
530.739	1	3
531.079	1	4
531.419	1	8
531.760	1	12
532.100	1	5
532.440	1	8
532.780	1	9
533.120	1	-3
533.461	1	-7
533.801	1	6
534.141	1	10
534.481	1	10
534.821	1	2
535.162	1	7
535.502	1	7
535.842	1	0
536.182	1	2
536.522	1	-3
536.862	1	4
537.203	1	6
537.543	1	3
537.883	1	13
538.223	1	15
538.563	1	-4
538.903	1	-5
539.243	1	8
539.584	1	-3
539.924	1	1
540.264	1	18
540.604	1	11
540.944	1	4
541.284	1	2
541.624	1	3
541.964	1	-1
542.305	1	4
542.645	1	0
542.985	1	7
543.325	1	6
543.665	1	-4
544.005	1	3
544.345	1	13
544.685	1	5
545.025	1	9
545.365	1	2
545.705	1	-1
546.045	1	8
546.386	1	5
546.726	1	2
547.066	1	4
547.406	1	-8
547.746	1	-2
548.086	1	5
548.426	1	8
548.766	1	2
549.106	1	-7
549.446	1	1
549.786	1	11
550.126	1	7
550.466	1	-8
550.806	1	9
551.146	1	4
551.486	1	3
551.826	1	-8
552.166	1	1
552.506	1	7
552.846	1	6
553.186	1	-3
553.526	1	8
553.866	1	-4
554.206	1	8
554.546	1	-7
554.886	1	4
555.226	1	9
555.566	1	9
555.906	1	0
556.246	1	9
556.586	1	7
556.926	1	2
557.266	1	12
557.606	1	-12
557.946	1	10
558.286	1	-8
558.626	1	2
558.966	1	6
559.306	1	2
559.646	1	6
559.986	1	3
560.325	1	-2
560.665	1	-1
561.005	1	-2
561.345	1	7
561.685	1	0
562.025	1	3
562.365	1	-3
562.705	1	5
563.045	1	11
563.385	1	7
563.725	1	10
564.064	1	-1
564.404	1	-7
564.744	1	8
565.084	1	13
565.424	1	-5
565.764	1	-1
566.104	1	16
566.444	1	4
566.783	1	7
567.123	1	-1
567.463	1	8
567.803	1	0
568.143	1	6
568.483	1	7
568.823	1	-5
569.162	1	1
569.502	1	5
569.842	1	0
570.182	1	0
570.522	1	6
570.862	1	-5
571.201	1	13
571.541	1	4
571.881	1	-2
572.221	1	10
572.561	1	6
572.900	1	17
573.240	1	-4
573.580	1	11
573.920	1	7
574.260	1	9
574.599	1	4
574.939	1	2
575.279	1	5
575.619	1	-6
575.959	1	-1
576.298	1	-15
576.638	1	3
576.978	1	10
577.318	1	3
577.657	1	-5
577.997	1	8
578.337	1	1
578.677	1	6
579.016	1	2
579.356	1	8
579.696	1	5
580.036	1	6
580.375	1	9
580.715	1	3
581.055	1	3
581.394	1	4
581.734	1	0
582.074	1	-8
582.414	1	-4
582.753	1	3
583.093	1	14
583.433	1	5
583.772	1	6
584.112	1	9
584.452	1	9
584.791	1	16
585.131	1	-7
585.471	1	-2
585.811	1	3
586.150	1	9
586.490	1	-7
586.830	1	4
587.169	1	8
587.509	1	1
587.849	1	10
588.188	1	7
588.528	1	-11
588.867	1	1
589.207	1	10
589.547	1	5
589.886	1	11
590.226	1	-4
590.566	1	6
590.905	1	4
591.245	1	-7
591.585	1	5
591.924	1	-3
592.264	1	1
592.603	1	-5
592.943	1	10
593.283	1	6
593.622	1	-9
593.962	1	7
594.301	1	-4
594.641	1	-1
594.981	1	1
595.320	1	13
595.660	1	7
595.999	1	13
596.339	1	3
596.678	1	-8
597.018	1	-2
597.358	1	0
597.697	1	-1
598.037	1	8
598.376	1	0
598.716	1	4
599.055	1	5
599.395	1	-10
599.734	1	-6
600.074	1	-1
600.413	1	-1
600.753	1	3
601.092	1	-7
601.432	1	-4
601.771	1	6
602.111	1	-3
602.451	1	-13
602.790	1	3
603.130	1	0
603.469	1	-1
603.809	1	10
604.148	1	-1
604.487	1	3
604.827	1	1
605.166	1	1
605.506	1	-6
605.845	1	5
606.185	1	-2
606.524	1	1
606.864	1	11
607.203	1	4
607.543	1	-2
607.882	1	2
608.222	1	2
608.561	1	-1
608.901	1	9
609.240	1	3
609.579	1	2
609.919	1	-6
610.258	1	13
610.598	1	-1
610.937	1	-3
611.277	1	11
611.616	1	10
611.955	1	4
612.295	1	-5
612.634	1	7
612.974	1	7
613.313	1	5
613.652	1	7
613.992	1	0
614.331	1	16
614.671	1	7
615.010	1	5
615.349	1	0
615.689	1	-1
616.028	1	16
616.368	1	12
616.707	1	4
617.046	1	-3
617.386	1	8
617.725	1	3
618.064	1	-4
618.404	1	0
618.743	1	10
619.082	1	17
619.422	1	13
619.761	1	-3
620.100	1	4
620.440	1	6
620.779	1	5
621.118	1	16
621.458	1	-1
621.797	1	-2
622.136	1	3
622.476	1	5
622.815	1	0
623.154	1	-5
623.494	1	-6
623.833	1	0
624.172	1	7
624.511	1	3
624.851	1	-2
625.190	1	-4
625.529	1	5
625.869	1	12
626.208	1	-3
626.547	1	-4
626.886	1	-6
627.226	1	10
627.565	1	21
627.904	1	-14
628.243	1	5
628.583	1	6
628.922	1	8
629.261	1	-6
629.600	1	1
629.940	1	7
630.279	1	8
630.618	1	9
630.957	1	4
631.297	1	-2
631.636	1	-6
631.975	1	4
632.314	1	4
632.653	1	-5
632.993	1	3
633.332	1	4
633.671	1	3
634.010	1	-3
634.349	1	9
634.689	1	-7
635.028	1	-8
635.367	1	7
635.706	1	0
636.045	1	2
636.384	1	6
636.724	1	2
637.063	1	-3
637.402	1	5
637.741	1	0
638.080	1	4
638.419	1	-3
638.759	1	5
639.098	1	1
639.437	1	-8
639.776	1	5
640.115	1	-13
640.454	1	-9
640.793	1	1
641.132	1	-2
641.472	1	14
641.811	1	-5
642.150	1	-2
642.489	1	3
642.828	1	3
643.167	1	3
643.506	1	7
643.845	1	14
644.184	1	6
644.524	1	3
644.863	1	5
645.202	1	-8
645.541	1	-5
645.880	1	5
646.219	1	1
646.558	1	-5
646.897	1	-7
647.236	1	-5
647.575	1	14
647.914	1	0
648.253	1	12
648.592	1	1
648.931	1	2
649.270	1	6
649.610	1	10
649.949	1	-4
650.288	1	11
650.627	1	0
650.966	1	-5
651.305	1	-2
651.644	1	10
651.983	1	0
652.322	1	0
652.661	1	4
653.000	1	5
653.339	1	8
653.678	1	9
654.017	1	4
654.356	1	15
654.695	1	14
655.034	1	5
655.373	1	5
655.712	1	6
656.051	1	-7
656.390	1	4
656.729	1	7
657.068	1	0
657.406	1	2
657.745	1	5
658.084	1	0
658.423	1	4
658.762	1	-6
659.101	1	7
659.440	1	8
659.779	1	7
660.118	1	2
660.457	1	2
660.796	1	1
661.135	1	8
661.474	1	7
661.813	1	4
662.152	1	-1
662.491	1	13
662.829	1	4
663.168	1	0
663.507	1	0
663.846	1	1
664.185	1	-2
664.524	1	11
664.863	1	-13
665.202	1	8
665.541	1	2
665.879	1	9
666.218	1	-1
666.557	1	4
666.896	1	3
667.235	1	1
667.574	1	5
667.913	1	3
668.251	1	-4
668.590	1	-9
668.929	1	2
669.268	1	0
669.607	1	-6
669.946	1	0
670.285	1	7
670.623	1	4
670.962	1	-8
671.301	1	-1
671.640	1	6
671.979	1	5
672.317	1	5
672.656	1	13
672.995	1	4
673.334	1	-3
673.673	1	15
674.011	1	7
674.350	1	1
674.689	1	-4
675.028	1	7
675.367	1	1
675.705	1	1
676.044	1	-2
676.383	1	0
676.722	1	-2
677.060	1	9
677.399	1	9
677.738	1	-8
678.077	1	-2
678.416	1	-6
678.754	1	7
679.093	1	2
679.432	1	-5
679.771	1	7
680.109	1	5
680.448	1	2
680.787	1	-11
681.125	1	0
681.464	1	10
681.803	1	-7
682.142	1	0
682.480	1	-14
682.819	1	-9
683.158	1	1
683.496	1	3
683.835	1	7
684.174	1	-4
684.512	1	6
684.851	1	-2
685.190	1	-5
685.529	1	2
685.867	1	1
686.206	1	-8
686.545	1	-2
686.883	1	10
687.222	1	-7
687.561	1	2
687.899	1	3
688.238	1	7
688.577	1	8
688.746	1	2