File: Data/GaN_150K_450ms/GaN_sample D_spot15_UVVIS_150 K_200um_450 ms 2x2mm1_131.txt
340.368	1	2
340.710	1	-2
341.052	1	4
341.394	1	-6
341.737	1	8
342.079	1	-2
342.421	1	8
342.763	1	8
343.105	1	13
343.447	1	1
343.789	1	1
344.131	1	-5
344.473	1	-1
344.815	1	16
345.157	1	13
345.499	1	6
345.841	1	3
346.183	1	4
346.526	1	13
346.868	1	-1
347.210	1	5
347.552	1	17
347.894	1	6
348.236	1	8
348.578	1	10
348.920	1	-1
349.262	1	10
349.604	1	3
349.946	1	0
350.288	1	-4
350.630	1	1
350.972	1	17
351.314	1	0
351.656	1	12
351.998	1	7
352.340	1	7
352.682	1	-1
353.024	1	17
353.366	1	6
353.708	1	10
354.050	1	2
354.392	1	-4
354.734	1	7
355.076	1	21
355.418	1	3
355.760	1	12
356.102	1	4
356.444	1	17
356.785	1	9
357.127	1	16
357.469	1	8
357.811	1	6
358.153	1	-3
358.495	1	12
358.837	1	19
359.179	1	13
359.521	1	17
359.863	1	6
360.205	1	25
360.547	1	13
360.889	1	9
361.231	1	22
361.572	1	24
361.914	1	16
362.256	1	14
362.598	1	18
362.940	1	20
363.282	1	15
363.624	1	20
363.966	1	27
364.308	1	28
364.649	1	28
364.991	1	36
365.333	1	43
365.675	1	49
366.017	1	36
366.359	1	43
366.701	1	43
367.042	1	55
367.384	1	46
367.726	1	46
368.068	1	69
368.410	1	49
368.752	1	64
369.093	1	50
369.435	1	55
369.777	1	52
370.119	1	53
370.461	1	38
370.803	1	42
371.144	1	42
371.486	1	49
371.828	1	39
372.170	1	37
372.512	1	31
372.853	1	39
373.195	1	35
373.537	1	32
373.879	1	33
374.220	1	38
374.562	1	25
374.904	1	32
375.246	1	27
375.588	1	15
375.929	1	16
376.271	1	22
376.613	1	32
376.955	1	18
377.296	1	20
377.638	1	21
377.980	1	18
378.321	1	24
378.663	1	18
379.005	1	10
379.347	1	19
379.688	1	22
380.030	1	12
380.372	1	20
380.714	1	20
381.055	1	8
381.397	1	9
381.739	1	9
382.080	1	20
382.422	1	18
382.764	1	12
383.105	1	8
383.447	1	10
383.789	1	5
384.130	1	7
384.472	1	17
384.814	1	17
385.156	1	11
385.497	1	15
385.839	1	16
386.180	1	16
386.522	1	19
386.864	1	2
387.205	1	20
387.547	1	8
387.889	1	8
388.230	1	9
388.572	1	11
388.914	1	15
389.255	1	11
389.597	1	7
389.939	1	14
390.280	1	11
390.622	1	11
390.963	1	-1
391.305	1	7
391.647	1	12
391.988	1	14
392.330	1	10
392.671	1	0
393.013	1	19
393.355	1	17
393.696	1	9
394.038	1	5
394.379	1	11
394.721	1	5
395.062	1	-2
395.404	1	15
395.746	1	-3
396.087	1	19
396.429	1	7
396.770	1	14
397.112	1	7
397.453	1	5
397.795	1	6
398.136	1	8
398.478	1	11
398.819	1	13
399.161	1	16
399.503	1	11
399.844	1	9
400.186	1	3
400.527	1	8
400.869	1	3
401.210	1	8
401.552	1	5
401.893	1	6
402.235	1	13
402.576	1	16
402.918	1	4
403.259	1	3
403.601	1	13
403.942	1	1
404.284	1	15
404.625	1	1
404.967	1	4
405.308	1	4
405.649	1	8
405.991	1	13
406.332	1	13
406.674	1	5
407.015	1	22
407.357	1	6
407.698	1	8
408.040	1	16
408.381	1	-2
408.722	1	15
409.064	1	9
409.405	1	17
409.747	1	8
410.088	1	9
410.430	1	13
410.771	1	24
411.112	1	9
411.454	1	12
411.795	1	9
412.137	1	12
412.478	1	12
412.819	1	17
413.161	1	10
413.502	1	6
413.844	1	12
414.185	1	8
414.526	1	6
414.868	1	10
415.209	1	9
415.550	1	9
415.892	1	17
416.233	1	16
416.575	1	4
416.916	1	5
417.257	1	15
417.599	1	11
417.940	1	5
418.281	1	14
418.623	1	9
418.964	1	11
419.305	1	19
419.647	1	3
419.988	1	22
420.329	1	6
420.671	1	15
421.012	1	18
421.353	1	14
421.695	1	15
422.036	1	21
422.377	1	14
422.718	1	17
423.060	1	8
423.401	1	5
423.742	1	21
424.084	1	10
424.425	1	20
424.766	1	13
425.107	1	15
425.449	1	6
425.790	1	10
426.131	1	4
426.472	1	10
426.814	1	7
427.155	1	6
427.496	1	19
427.837	1	6
428.179	1	13
428.520	1	6
428.861	1	25
429.202	1	3
429.544	1	10
429.885	1	14
430.226	1	-5
430.567	1	2
430.909	1	9
431.250	1	16
431.591	1	13
431.932	1	10
432.273	1	22
432.615	1	5
432.956	1	15
433.297	1	8
433.638	1	14
433.979	1	11
434.320	1	13
434.662	1	12
435.003	1	23
435.344	1	16
435.685	1	-4
436.026	1	1
436.368	1	5
436.709	1	5
437.050	1	7
437.391	1	18
437.732	1	5
438.073	1	5
438.414	1	15
438.756	1	13
439.097	1	2
439.438	1	13
439.779	1	5
440.120	1	7
440.461	1	5
440.802	1	15
441.143	1	7
441.485	1	2
441.826	1	16
442.167	1	3
442.508	1	8
442.849	1	12
443.190	1	22
443.531	1	4
443.872	1	-8
444.213	1	9
444.554	1	10
444.895	1	12
445.237	1	17
445.578	1	-8
445.919	1	5
446.260	1	11
446.601	1	3
446.942	1	4
447.283	1	23
447.624	1	-5
447.965	1	7
448.306	1	14
448.647	1	9
448.988	1	16
449.329	1	12
449.670	1	9
450.011	1	11
450.352	1	2
450.693	1	20
451.034	1	8
451.375	1	12
451.716	1	8
452.057	1	7
452.398	1	24
452.739	1	6
453.080	1	5
453.421	1	18
453.762	1	4
454.103	1	11
454.444	1	12
454.785	1	7
455.126	1	10
455.467	1	6
455.808	1	12
456.149	1	8
456.490	1	10
456.831	1	7
457.172	1	11
457.513	1	13
457.854	1	8
458.195	1	6
458.536	1	13
458.877	1	8
459.218	1	15
459.559	1	6
459.899	1	1
460.240	1	6
460.581	1	4
460.922	1	10
461.263	1	18
461.604	1	4
461.945	1	11
462.286	1	2
462.627	1	-6
462.968	1	5
463.309	1	8
463.649	1	5
463.990	1	14
464.331	1	10
464.672	1	8
465.013	1	8
465.354	1	9
465.695	1	10
466.036	1	13
466.376	1	18
466.717	1	-5
467.058	1	4
467.399	1	2
467.740	1	18
468.081	1	11
468.422	1	11
468.762	1	0
469.103	1	7
469.444	1	14
469.785	1	7
470.126	1	10
470.467	1	9
470.807	1	10
471.148	1	4
471.489	1	15
471.830	1	9
472.171	1	7
472.511	1	8
472.852	1	10
473.193	1	7
473.534	1	9
473.875	1	3
474.215	1	7
474.556	1	-5
474.897	1	-1
475.238	1	6
475.578	1	1
475.919	1	6
476.260	1	-2
476.601	1	11
476.942	1	6
477.282	1	2
477.623	1	0
477.964	1	1
478.305	1	13
478.645	1	6
478.986	1	16
479.327	1	13
479.667	1	7
480.008	1	9
480.349	1	5
480.690	1	14
481.030	1	-2
481.371	1	-2
481.712	1	17
482.053	1	13
482.393	1	2
482.734	1	7
483.075	1	12
483.415	1	0
483.756	1	6
484.097	1	11
484.437	1	11
484.778	1	3
485.119	1	5
485.459	1	3
485.800	1	4
486.141	1	4
486.481	1	-6
486.822	1	11
487.163	1	3
487.503	1	8
487.844	1	-1
488.185	1	0
488.525	1	-1
488.866	1	3
489.207	1	14
489.547	1	6
489.888	1	18
490.228	1	3
490.569	1	3
490.910	1	6
491.250	1	7
491.591	1	8
491.932	1	9
492.272	1	0
492.613	1	5
492.953	1	12
493.294	1	-9
493.635	1	11
493.975	1	14
494.316	1	-3
494.656	1	9
494.997	1	0
495.337	1	3
495.678	1	7
496.019	1	9
496.359	1	11
496.700	1	4
497.040	1	4
497.381	1	11
497.721	1	5
498.062	1	7
498.403	1	21
498.743	1	8
499.084	1	17
499.424	1	12
499.765	1	5
500.105	1	12
500.446	1	2
500.786	1	3
501.127	1	12
501.467	1	19
501.808	1	13
502.148	1	4
502.489	1	11
502.829	1	5
503.170	1	9
503.510	1	1
503.851	1	10
504.191	1	-1
504.532	1	24
504.872	1	-2
505.213	1	-1
505.553	1	5
505.894	1	11
506.234	1	19
506.575	1	11
506.915	1	20
507.256	1	14
507.596	1	24
507.936	1	18
508.277	1	6
508.617	1	11
508.958	1	19
509.298	1	7
509.639	1	-1
509.979	1	11
510.319	1	10
510.660	1	8
511.000	1	7
511.341	1	17
511.681	1	18
512.022	1	2
512.362	1	14
512.702	1	6
513.043	1	15
513.383	1	10
513.724	1	7
514.064	1	12
514.404	1	14
514.745	1	16
515.085	1	7
515.425	1	13
515.766	1	9
516.106	1	8
516.447	1	20
516.787	1	11
517.127	1	24
517.468	1	25
517.808	1	2
518.148	1	24
518.489	1	3
518.829	1	19
519.169	1	9
519.510	1	12
519.850	1	11
520.190	1	4
520.531	1	11
520.871	1	16
521.211	1	16
521.552	1	11
521.892	1	11
522.232	1	9
522.573	1	23
522.913	1	24
523.253	1	19
523.593	1	9
523.934	1	13
524.274	1	12
524.614	1	16
524.955	1	6
525.295	1	12
525.635	1	15
525.975	1	8
526.316	1	2
526.656	1	11
526.996	1	11
527.337	1	8
527.677	1	21
528.017	1	1
528.357	1	17
528.698	1	16
529.038	1	18
529.378	1	7
529.718	1	10
530.058	1	17
530.399	1	15
530.739	1	23
531.079	1	10
531.419	1	20
531.760	1	26
532.100	1	16
532.440	1	18
532.780	1	13
533.120	1	13
533.461	1	5
533.801	1	17
534.141	1	13
534.481	1	28
534.821	1	14
535.162	1	19
535.502	1	14
535.842	1	12
536.182	1	14
536.522	1	12
536.862	1	10
537.203	1	8
537.543	1	16
537.883	1	10
538.223	1	27
538.563	1	9
538.903	1	8
539.243	1	7
539.584	1	6
539.924	1	13
540.264	1	36
540.604	1	23
540.944	1	15
541.284	1	12
541.624	1	7
541.964	1	15
542.305	1	22
542.645	1	4
542.985	1	6
543.325	1	15
543.665	1	2
544.005	1	11
544.345	1	14
544.685	1	8
545.025	1	17
545.365	1	19
545.705	1	14
546.045	1	13
546.386	1	6
546.726	1	10
547.066	1	10
547.406	1	8
547.746	1	3
548.086	1	23
548.426	1	13
548.766	1	18
549.106	1	5
549.446	1	20
549.786	1	11
550.126	1	22
550.466	1	5
550.806	1	19
551.146	1	5
551.486	1	12
551.826	1	11
552.166	1	10
552.506	1	3
552.846	1	9
553.186	1	3
553.526	1	13
553.866	1	5
554.206	1	9
554.546	1	14
554.886	1	8
555.226	1	12
555.566	1	8
555.906	1	0
556.246	1	17
556.586	1	9
556.926	1	9
557.266	1	18
557.606	1	-3
557.946	1	13
558.286	1	-2
558.626	1	11
558.966	1	10
559.306	1	12
559.646	1	15
559.986	1	14
560.325	1	14
560.665	1	12
561.005	1	5
561.345	1	3
561.685	1	5
562.025	1	11
562.365	1	5
562.705	1	15
563.045	1	0
563.385	1	14
563.725	1	8
564.064	1	4
564.404	1	1
564.744	1	9
565.084	1	10
565.424	1	11
565.764	1	14
566.104	1	17
566.444	1	17
566.783	1	12
567.123	1	13
567.463	1	13
567.803	1	5
568.143	1	9
568.483	1	16
568.823	1	4
569.162	1	6
569.502	1	12
569.842	1	0
570.182	1	14
570.522	1	-1
570.862	1	-3
571.201	1	14
571.541	1	-1
571.881	1	3
572.221	1	8
572.561	1	13
572.900	1	20
573.240	1	-3
573.580	1	15
573.920	1	14
574.260	1	10
574.599	1	9
574.939	1	8
575.279	1	10
575.619	1	2
575.959	1	-1
576.298	1	-5
576.638	1	14
576.978	1	2
577.318	1	6
577.657	1	9
577.997	1	14
578.337	1	2
578.677	1	7
579.016	1	10
579.356	1	17
579.696	1	6
580.036	1	2
580.375	1	4
580.715	1	15
581.055	1	4
581.394	1	5
581.734	1	8
582.074	1	10
582.414	1	3
582.753	1	5
583.093	1	8
583.433	1	12
583.772	1	5
584.112	1	6
584.452	1	14
584.791	1	11
585.131	1	9
585.471	1	4
585.811	1	15
586.150	1	4
586.490	1	6
586.830	1	9
587.169	1	13
587.509	1	6
587.849	1	12
588.188	1	6
588.528	1	-2
588.867	1	13
589.207	1	8
589.547	1	-1
589.886	1	5
590.226	1	-1
590.566	1	-2
590.905	1	4
591.245	1	-5
591.585	1	-2
591.924	1	-3
592.264	1	-2
592.603	1	-5
592.943	1	-3
593.283	1	4
593.622	1	2
593.962	1	11
594.301	1	3
594.641	1	2
594.981	1	5
595.320	1	10
595.660	1	21
595.999	1	3
596.339	1	8
596.678	1	-2
597.018	1	1
597.358	1	-1
597.697	1	6
598.037	1	8
598.376	1	0
598.716	1	8
599.055	1	7
599.395	1	3
599.734	1	7
600.074	1	0
600.413	1	3
600.753	1	2
601.092	1	-2
601.432	1	3
601.771	1	3
602.111	1	11
602.451	1	-5
602.790	1	9
603.130	1	6
603.469	1	5
603.809	1	11
604.148	1	-2
604.487	1	0
604.827	1	6
605.166	1	9
605.506	1	2
605.845	1	17
606.185	1	-5
606.524	1	1
606.864	1	11
607.203	1	16
607.543	1	4
607.882	1	11
608.222	1	1
608.561	1	2
608.901	1	11
609.240	1	7
609.579	1	2
609.919	1	-3
610.258	1	12
610.598	1	1
610.937	1	9
611.277	1	9
611.616	1	10
611.955	1	2
612.295	1	3
612.634	1	5
612.974	1	1
613.313	1	6
613.652	1	22
613.992	1	2
614.331	1	14
614.671	1	7
615.010	1	12
615.349	1	9
615.689	1	-5
616.028	1	12
616.368	1	5
616.707	1	11
617.046	1	12
617.386	1	18
617.725	1	2
618.064	1	-1
618.404	1	-4
618.743	1	5
619.082	1	14
619.422	1	13
619.761	1	-1
620.100	1	11
620.440	1	4
620.779	1	5
621.118	1	12
621.458	1	5
621.797	1	7
622.136	1	3
622.476	1	12
622.815	1	2
623.154	1	-6
623.494	1	-11
623.833	1	5
624.172	1	-2
624.511	1	3
624.851	1	11
625.190	1	5
625.529	1	14
625.869	1	15
626.208	1	-5
626.547	1	4
626.886	1	-2
627.226	1	1
627.565	1	13
627.904	1	7
628.243	1	14
628.583	1	12
628.922	1	7
629.261	1	4
629.600	1	-4
629.940	1	5
630.279	1	15
630.618	1	0
630.957	1	5
631.297	1	1
631.636	1	3
631.975	1	4
632.314	1	9
632.653	1	2
632.993	1	4
633.332	1	2
633.671	1	16
634.010	1	-6
634.349	1	8
634.689	1	-4
635.028	1	3
635.367	1	8
635.706	1	8
636.045	1	0
636.384	1	15
636.724	1	0
637.063	1	2
637.402	1	8
637.741	1	11
638.080	1	14
638.419	1	-2
638.759	1	3
639.098	1	3
639.437	1	10
639.776	1	11
640.115	1	1
640.454	1	-8
640.793	1	4
641.132	1	3
641.472	1	8
641.811	1	0
642.150	1	1
642.489	1	0
642.828	1	20
643.167	1	5
643.506	1	6
643.845	1	9
644.184	1	10
644.524	1	4
644.863	1	9
645.202	1	2
645.541	1	9
645.880	1	10
646.219	1	6
646.558	1	-9
646.897	1	7
647.236	1	-3
647.575	1	5
647.914	1	13
648.253	1	8
648.592	1	12
648.931	1	11
649.270	1	18
649.610	1	2
649.949	1	0
650.288	1	12
650.627	1	3
650.966	1	6
651.305	1	6
651.644	1	14
651.983	1	-6
652.322	1	4
652.661	1	3
653.000	1	13
653.339	1	4
653.678	1	15
654.017	1	6
654.356	1	7
654.695	1	20
655.034	1	2
655.373	1	11
655.712	1	4
656.051	1	-7
656.390	1	3
656.729	1	13
657.068	1	5
657.406	1	9
657.745	1	18
658.084	1	8
658.423	1	10
658.762	1	0
659.101	1	-5
659.440	1	8
659.779	1	11
660.118	1	5
660.457	1	7
660.796	1	13
661.135	1	11
661.474	1	4
661.813	1	6
662.152	1	1
662.491	1	7
662.829	1	10
663.168	1	-2
663.507	1	3
663.846	1	2
664.185	1	7
664.524	1	9
664.863	1	-9
665.202	1	4
665.541	1	6
665.879	1	7
666.218	1	1
666.557	1	-5
666.896	1	7
667.235	1	-5
667.574	1	-4
667.913	1	9
668.251	1	-3
668.590	1	6
668.929	1	4
669.268	1	8
669.607	1	-4
669.946	1	1
670.285	1	-7
670.623	1	5
670.962	1	-5
671.301	1	12
671.640	1	0
671.979	1	3
672.317	1	10
672.656	1	9
672.995	1	1
673.334	1	3
673.673	1	11
674.011	1	9
674.350	1	10
674.689	1	-9
675.028	1	7
675.367	1	9
675.705	1	6
676.044	1	2
676.383	1	9
676.722	1	4
677.060	1	12
677.399	1	15
677.738	1	5
678.077	1	4
678.416	1	4
678.754	1	5
679.093	1	12
679.432	1	3
679.771	1	8
680.109	1	4
680.448	1	-2
680.787	1	-3
681.125	1	5
681.464	1	-10
681.803	1	-2
682.142	1	-1
682.480	1	-5
682.819	1	-1
683.158	1	-3
683.496	1	-1
683.835	1	2
684.174	1	7
684.512	1	7
684.851	1	-7
685.190	1	2
685.529	1	-4
685.867	1	5
686.206	1	4
686.545	1	-5
686.883	1	7
687.222	1	1
687.561	1	2
687.899	1	-3
688.238	1	20
688.577	1	-4
688.746	1	5