File: Data/GaN_150K_450ms/GaN_sample D_spot15_UVVIS_150 K_200um_450 ms 2x2mm1_234.txt
340.368	1	1
340.710	1	1
341.052	1	-10
341.394	1	-3
341.737	1	11
342.079	1	8
342.421	1	-8
342.763	1	-2
343.105	1	3
343.447	1	3
343.789	1	9
344.131	1	3
344.473	1	-5
344.815	1	-1
345.157	1	7
345.499	1	4
345.841	1	2
346.183	1	2
346.526	1	6
346.868	1	-2
347.210	1	1
347.552	1	8
347.894	1	9
348.236	1	10
348.578	1	6
348.920	1	5
349.262	1	5
349.604	1	-12
349.946	1	-4
350.288	1	-6
350.630	1	0
350.972	1	12
351.314	1	-1
351.656	1	3
351.998	1	2
352.340	1	13
352.682	1	-6
353.024	1	18
353.366	1	3
353.708	1	-5
354.050	1	-9
354.392	1	2
354.734	1	9
355.076	1	11
355.418	1	4
355.760	1	7
356.102	1	-2
356.444	1	11
356.785	1	13
357.127	1	11
357.469	1	6
357.811	1	5
358.153	1	-4
358.495	1	3
358.837	1	16
359.179	1	0
359.521	1	17
359.863	1	-8
360.205	1	11
360.547	1	8
360.889	1	5
361.231	1	6
361.572	1	10
361.914	1	5
362.256	1	15
362.598	1	12
362.940	1	9
363.282	1	1
363.624	1	11
363.966	1	17
364.308	1	11
364.649	1	5
364.991	1	19
365.333	1	12
365.675	1	17
366.017	1	11
366.359	1	3
366.701	1	6
367.042	1	25
367.384	1	11
367.726	1	5
368.068	1	23
368.410	1	11
368.752	1	40
369.093	1	19
369.435	1	28
369.777	1	21
370.119	1	16
370.461	1	11
370.803	1	7
371.144	1	16
371.486	1	19
371.828	1	10
372.170	1	9
372.512	1	0
372.853	1	22
373.195	1	11
373.537	1	-2
373.879	1	12
374.220	1	9
374.562	1	15
374.904	1	9
375.246	1	11
375.588	1	0
375.929	1	15
376.271	1	5
376.613	1	14
376.955	1	1
377.296	1	5
377.638	1	1
377.980	1	6
378.321	1	16
378.663	1	9
379.005	1	8
379.347	1	2
379.688	1	23
380.030	1	10
380.372	1	9
380.714	1	0
381.055	1	1
381.397	1	7
381.739	1	-12
382.080	1	3
382.422	1	2
382.764	1	5
383.105	1	-1
383.447	1	5
383.789	1	-6
384.130	1	3
384.472	1	11
384.814	1	1
385.156	1	9
385.497	1	7
385.839	1	10
386.180	1	3
386.522	1	8
386.864	1	-1
387.205	1	4
387.547	1	7
387.889	1	3
388.230	1	2
388.572	1	-7
388.914	1	3
389.255	1	1
389.597	1	7
389.939	1	17
390.280	1	4
390.622	1	-15
390.963	1	1
391.305	1	0
391.647	1	7
391.988	1	7
392.330	1	0
392.671	1	0
393.013	1	10
393.355	1	10
393.696	1	8
394.038	1	10
394.379	1	8
394.721	1	-4
395.062	1	2
395.404	1	14
395.746	1	-1
396.087	1	18
396.429	1	1
396.770	1	2
397.112	1	1
397.453	1	3
397.795	1	9
398.136	1	0
398.478	1	7
398.819	1	7
399.161	1	6
399.503	1	6
399.844	1	-4
400.186	1	4
400.527	1	11
400.869	1	1
401.210	1	2
401.552	1	4
401.893	1	5
402.235	1	13
402.576	1	4
402.918	1	-5
403.259	1	4
403.601	1	13
403.942	1	6
404.284	1	3
404.625	1	3
404.967	1	1
405.308	1	-8
405.649	1	-4
405.991	1	4
406.332	1	8
406.674	1	3
407.015	1	9
407.357	1	13
407.698	1	9
408.040	1	19
408.381	1	-1
408.722	1	9
409.064	1	0
409.405	1	7
409.747	1	-1
410.088	1	7
410.430	1	4
410.771	1	9
411.112	1	-6
411.454	1	2
411.795	1	10
412.137	1	2
412.478	1	5
412.819	1	13
413.161	1	11
413.502	1	10
413.844	1	7
414.185	1	1
414.526	1	-1
414.868	1	-1
415.209	1	-9
415.550	1	2
415.892	1	13
416.233	1	1
416.575	1	-4
416.916	1	-4
417.257	1	-6
417.599	1	12
417.940	1	-14
418.281	1	7
418.623	1	4
418.964	1	13
419.305	1	7
419.647	1	6
419.988	1	14
420.329	1	4
420.671	1	8
421.012	1	6
421.353	1	8
421.695	1	-1
422.036	1	10
422.377	1	8
422.718	1	7
423.060	1	9
423.401	1	-3
423.742	1	19
424.084	1	2
424.425	1	11
424.766	1	2
425.107	1	10
425.449	1	-3
425.790	1	6
426.131	1	1
426.472	1	11
426.814	1	5
427.155	1	3
427.496	1	8
427.837	1	5
428.179	1	11
428.520	1	3
428.861	1	3
429.202	1	-3
429.544	1	6
429.885	1	7
430.226	1	-6
430.567	1	-5
430.909	1	3
431.250	1	5
431.591	1	3
431.932	1	0
432.273	1	6
432.615	1	2
432.956	1	4
433.297	1	3
433.638	1	7
433.979	1	5
434.320	1	6
434.662	1	6
435.003	1	12
435.344	1	-5
435.685	1	-4
436.026	1	-6
436.368	1	5
436.709	1	0
437.050	1	2
437.391	1	-5
437.732	1	4
438.073	1	4
438.414	1	5
438.756	1	-2
439.097	1	-4
439.438	1	2
439.779	1	5
440.120	1	14
440.461	1	0
440.802	1	8
441.143	1	-4
441.485	1	1
441.826	1	7
442.167	1	-3
442.508	1	-2
442.849	1	3
443.190	1	-1
443.531	1	9
443.872	1	-2
444.213	1	0
444.554	1	8
444.895	1	-6
445.237	1	14
445.578	1	-9
445.919	1	-2
446.260	1	7
446.601	1	1
446.942	1	-11
447.283	1	11
447.624	1	-7
447.965	1	3
448.306	1	-4
448.647	1	6
448.988	1	7
449.329	1	16
449.670	1	-3
450.011	1	9
450.352	1	6
450.693	1	-1
451.034	1	3
451.375	1	-2
451.716	1	1
452.057	1	1
452.398	1	8
452.739	1	-2
453.080	1	11
453.421	1	1
453.762	1	9
454.103	1	7
454.444	1	-2
454.785	1	0
455.126	1	-1
455.467	1	0
455.808	1	9
456.149	1	-1
456.490	1	-5
456.831	1	-5
457.172	1	11
457.513	1	1
457.854	1	3
458.195	1	12
458.536	1	9
458.877	1	-2
459.218	1	10
459.559	1	4
459.899	1	-1
460.240	1	5
460.581	1	-5
460.922	1	6
461.263	1	9
461.604	1	1
461.945	1	6
462.286	1	0
462.627	1	-7
462.968	1	6
463.309	1	5
463.649	1	-8
463.990	1	-1
464.331	1	-2
464.672	1	3
465.013	1	4
465.354	1	9
465.695	1	6
466.036	1	10
466.376	1	5
466.717	1	-5
467.058	1	-9
467.399	1	-4
467.740	1	14
468.081	1	6
468.422	1	2
468.762	1	-3
469.103	1	-2
469.444	1	10
469.785	1	-3
470.126	1	10
470.467	1	1
470.807	1	1
471.148	1	-5
471.489	1	9
471.830	1	3
472.171	1	6
472.511	1	9
472.852	1	9
473.193	1	1
473.534	1	-4
473.875	1	2
474.215	1	-1
474.556	1	-6
474.897	1	0
475.238	1	10
475.578	1	2
475.919	1	-7
476.260	1	-5
476.601	1	0
476.942	1	0
477.282	1	-1
477.623	1	4
477.964	1	6
478.305	1	4
478.645	1	5
478.986	1	11
479.327	1	4
479.667	1	-2
480.008	1	6
480.349	1	-5
480.690	1	7
481.030	1	0
481.371	1	1
481.712	1	1
482.053	1	4
482.393	1	3
482.734	1	1
483.075	1	11
483.415	1	-2
483.756	1	8
484.097	1	10
484.437	1	7
484.778	1	-4
485.119	1	6
485.459	1	-4
485.800	1	3
486.141	1	-1
486.481	1	-7
486.822	1	6
487.163	1	4
487.503	1	-2
487.844	1	-11
488.185	1	0
488.525	1	-6
488.866	1	-4
489.207	1	11
489.547	1	5
489.888	1	4
490.228	1	1
490.569	1	6
490.910	1	11
491.250	1	3
491.591	1	-2
491.932	1	6
492.272	1	-1
492.613	1	-6
492.953	1	1
493.294	1	-11
493.635	1	13
493.975	1	10
494.316	1	-7
494.656	1	5
494.997	1	-1
495.337	1	3
495.678	1	-9
496.019	1	0
496.359	1	-4
496.700	1	7
497.040	1	2
497.381	1	8
497.721	1	5
498.062	1	5
498.403	1	13
498.743	1	7
499.084	1	9
499.424	1	-2
499.765	1	1
500.105	1	11
500.446	1	-1
500.786	1	-8
501.127	1	-2
501.467	1	7
501.808	1	1
502.148	1	-4
502.489	1	4
502.829	1	-5
503.170	1	9
503.510	1	1
503.851	1	4
504.191	1	-1
504.532	1	8
504.872	1	0
505.213	1	5
505.553	1	2
505.894	1	8
506.234	1	3
506.575	1	18
506.915	1	3
507.256	1	10
507.596	1	13
507.936	1	18
508.277	1	15
508.617	1	7
508.958	1	13
509.298	1	-5
509.639	1	2
509.979	1	6
510.319	1	5
510.660	1	0
511.000	1	11
511.341	1	13
511.681	1	0
512.022	1	2
512.362	1	9
512.702	1	0
513.043	1	8
513.383	1	7
513.724	1	7
514.064	1	7
514.404	1	14
514.745	1	2
515.085	1	6
515.425	1	4
515.766	1	7
516.106	1	1
516.447	1	10
516.787	1	3
517.127	1	15
517.468	1	12
517.808	1	-4
518.148	1	11
518.489	1	2
518.829	1	5
519.169	1	-2
519.510	1	-6
519.850	1	1
520.190	1	-1
520.531	1	6
520.871	1	8
521.211	1	7
521.552	1	-3
521.892	1	2
522.232	1	6
522.573	1	0
522.913	1	11
523.253	1	19
523.593	1	7
523.934	1	5
524.274	1	6
524.614	1	5
524.955	1	-1
525.295	1	12
525.635	1	6
525.975	1	-11
526.316	1	-5
526.656	1	10
526.996	1	-2
527.337	1	7
527.677	1	18
528.017	1	-4
528.357	1	6
528.698	1	10
529.038	1	4
529.378	1	6
529.718	1	4
530.058	1	4
530.399	1	4
530.739	1	12
531.079	1	7
531.419	1	-4
531.760	1	11
532.100	1	5
532.440	1	8
532.780	1	7
533.120	1	6
533.461	1	-3
533.801	1	1
534.141	1	4
534.481	1	23
534.821	1	5
535.162	1	4
535.502	1	5
535.842	1	-2
536.182	1	-5
536.522	1	8
536.862	1	7
537.203	1	1
537.543	1	11
537.883	1	4
538.223	1	18
538.563	1	-5
538.903	1	-2
539.243	1	12
539.584	1	-1
539.924	1	6
540.264	1	17
540.604	1	6
540.944	1	0
541.284	1	6
541.624	1	4
541.964	1	10
542.305	1	7
542.645	1	5
542.985	1	1
543.325	1	8
543.665	1	7
544.005	1	1
544.345	1	7
544.685	1	3
545.025	1	4
545.365	1	8
545.705	1	-7
546.045	1	9
546.386	1	1
546.726	1	2
547.066	1	1
547.406	1	-4
547.746	1	3
548.086	1	9
548.426	1	6
548.766	1	4
549.106	1	-4
549.446	1	7
549.786	1	13
550.126	1	-3
550.466	1	1
550.806	1	9
551.146	1	6
551.486	1	6
551.826	1	1
552.166	1	3
552.506	1	-10
552.846	1	16
553.186	1	8
553.526	1	13
553.866	1	0
554.206	1	5
554.546	1	10
554.886	1	2
555.226	1	9
555.566	1	10
555.906	1	5
556.246	1	5
556.586	1	12
556.926	1	3
557.266	1	5
557.606	1	-4
557.946	1	16
558.286	1	-3
558.626	1	6
558.966	1	0
559.306	1	7
559.646	1	8
559.986	1	9
560.325	1	-2
560.665	1	5
561.005	1	7
561.345	1	-1
561.685	1	7
562.025	1	12
562.365	1	2
562.705	1	11
563.045	1	3
563.385	1	9
563.725	1	6
564.064	1	-3
564.404	1	3
564.744	1	10
565.084	1	7
565.424	1	-6
565.764	1	-1
566.104	1	13
566.444	1	6
566.783	1	9
567.123	1	2
567.463	1	2
567.803	1	8
568.143	1	-6
568.483	1	9
568.823	1	-3
569.162	1	-10
569.502	1	9
569.842	1	-2
570.182	1	7
570.522	1	-2
570.862	1	-8
571.201	1	16
571.541	1	5
571.881	1	5
572.221	1	2
572.561	1	4
572.900	1	11
573.240	1	6
573.580	1	4
573.920	1	12
574.260	1	4
574.599	1	3
574.939	1	4
575.279	1	-7
575.619	1	0
575.959	1	-2
576.298	1	-7
576.638	1	12
576.978	1	6
577.318	1	4
577.657	1	-5
577.997	1	6
578.337	1	8
578.677	1	-2
579.016	1	7
579.356	1	2
579.696	1	0
580.036	1	6
580.375	1	1
580.715	1	1
581.055	1	0
581.394	1	0
581.734	1	3
582.074	1	-6
582.414	1	4
582.753	1	2
583.093	1	4
583.433	1	6
583.772	1	10
584.112	1	-4
584.452	1	3
584.791	1	10
585.131	1	11
585.471	1	10
585.811	1	-3
586.150	1	4
586.490	1	0
586.830	1	-2
587.169	1	-1
587.509	1	4
587.849	1	7
588.188	1	3
588.528	1	-9
588.867	1	12
589.207	1	9
589.547	1	7
589.886	1	0
590.226	1	-5
590.566	1	2
590.905	1	-2
591.245	1	-5
591.585	1	-6
591.924	1	-9
592.264	1	5
592.603	1	-9
592.943	1	10
593.283	1	5
593.622	1	0
593.962	1	0
594.301	1	2
594.641	1	5
594.981	1	0
595.320	1	18
595.660	1	-5
595.999	1	1
596.339	1	5
596.678	1	-5
597.018	1	-2
597.358	1	0
597.697	1	-9
598.037	1	2
598.376	1	2
598.716	1	7
599.055	1	5
599.395	1	-3
599.734	1	6
600.074	1	4
600.413	1	-5
600.753	1	3
601.092	1	-6
601.432	1	1
601.771	1	-8
602.111	1	8
602.451	1	-10
602.790	1	6
603.130	1	10
603.469	1	-3
603.809	1	1
604.148	1	-2
604.487	1	4
604.827	1	6
605.166	1	8
605.506	1	-7
605.845	1	7
606.185	1	0
606.524	1	0
606.864	1	12
607.203	1	8
607.543	1	3
607.882	1	3
608.222	1	0
608.561	1	3
608.901	1	4
609.240	1	8
609.579	1	-4
609.919	1	-10
610.258	1	9
610.598	1	-1
610.937	1	-4
611.277	1	5
611.616	1	12
611.955	1	5
612.295	1	-2
612.634	1	7
612.974	1	0
613.313	1	13
613.652	1	-1
613.992	1	-3
614.331	1	14
614.671	1	5
615.010	1	9
615.349	1	8
615.689	1	5
616.028	1	13
616.368	1	5
616.707	1	-6
617.046	1	3
617.386	1	10
617.725	1	-13
618.064	1	-8
618.404	1	0
618.743	1	14
619.082	1	15
619.422	1	17
619.761	1	2
620.100	1	4
620.440	1	6
620.779	1	4
621.118	1	16
621.458	1	-2
621.797	1	-2
622.136	1	1
622.476	1	0
622.815	1	3
623.154	1	-5
623.494	1	-7
623.833	1	5
624.172	1	1
624.511	1	-5
624.851	1	0
625.190	1	2
625.529	1	-9
625.869	1	10
626.208	1	1
626.547	1	-2
626.886	1	0
627.226	1	3
627.565	1	7
627.904	1	-5
628.243	1	11
628.583	1	11
628.922	1	3
629.261	1	-2
629.600	1	-2
629.940	1	2
630.279	1	1
630.618	1	4
630.957	1	0
631.297	1	5
631.636	1	0
631.975	1	-1
632.314	1	-2
632.653	1	0
632.993	1	7
633.332	1	6
633.671	1	7
634.010	1	-2
634.349	1	3
634.689	1	1
635.028	1	-6
635.367	1	0
635.706	1	-6
636.045	1	-5
636.384	1	8
636.724	1	12
637.063	1	2
637.402	1	6
637.741	1	5
638.080	1	6
638.419	1	-5
638.759	1	10
639.098	1	5
639.437	1	4
639.776	1	-4
640.115	1	-2
640.454	1	-10
640.793	1	-1
641.132	1	9
641.472	1	10
641.811	1	-1
642.150	1	-4
642.489	1	3
642.828	1	20
643.167	1	3
643.506	1	7
643.845	1	9
644.184	1	11
644.524	1	-3
644.863	1	2
645.202	1	1
645.541	1	-1
645.880	1	9
646.219	1	5
646.558	1	2
646.897	1	-6
647.236	1	-7
647.575	1	9
647.914	1	4
648.253	1	8
648.592	1	11
648.931	1	5
649.270	1	8
649.610	1	6
649.949	1	-5
650.288	1	6
650.627	1	-9
650.966	1	2
651.305	1	1
651.644	1	10
651.983	1	-3
652.322	1	3
652.661	1	6
653.000	1	6
653.339	1	1
653.678	1	10
654.017	1	2
654.356	1	10
654.695	1	15
655.034	1	-7
655.373	1	5
655.712	1	11
656.051	1	-3
656.390	1	2
656.729	1	9
657.068	1	2
657.406	1	7
657.745	1	16
658.084	1	3
658.423	1	-8
658.762	1	8
659.101	1	-1
659.440	1	6
659.779	1	12
660.118	1	2
660.457	1	13
660.796	1	6
661.135	1	6
661.474	1	16
661.813	1	9
662.152	1	-1
662.491	1	0
662.829	1	4
663.168	1	1
663.507	1	-6
663.846	1	8
664.185	1	7
664.524	1	6
664.863	1	-6
665.202	1	7
665.541	1	5
665.879	1	6
666.218	1	12
666.557	1	4
666.896	1	3
667.235	1	4
667.574	1	0
667.913	1	12
668.251	1	-7
668.590	1	5
668.929	1	-2
669.268	1	2
669.607	1	2
669.946	1	10
670.285	1	-2
670.623	1	6
670.962	1	-4
671.301	1	1
671.640	1	10
671.979	1	8
672.317	1	2
672.656	1	-1
672.995	1	-3
673.334	1	-1
673.673	1	8
674.011	1	2
674.350	1	2
674.689	1	-6
675.028	1	6
675.367	1	1
675.705	1	2
676.044	1	-1
676.383	1	5
676.722	1	1
677.060	1	5
677.399	1	12
677.738	1	7
678.077	1	-5
678.416	1	-1
678.754	1	-5
679.093	1	7
679.432	1	0
679.771	1	5
680.109	1	0
680.448	1	4
680.787	1	-14
681.125	1	-4
681.464	1	5
681.803	1	1
682.142	1	1
682.480	1	4
682.819	1	2
683.158	1	2
683.496	1	-2
683.835	1	7
684.174	1	3
684.512	1	-2
684.851	1	-2
685.190	1	4
685.529	1	-3
685.867	1	-5
686.206	1	-3
686.545	1	-4
686.883	1	7
687.222	1	0
687.561	1	-5
687.899	1	2
688.238	1	3
688.577	1	4
688.746	1	-5