File: Data/GaN_150K_450ms/GaN_sample D_spot15_UVVIS_150 K_200um_450 ms 2x2mm1_177.txt
340.368	1	5
340.710	1	7
341.052	1	-4
341.394	1	-5
341.737	1	6
342.079	1	-4
342.421	1	4
342.763	1	-1
343.105	1	7
343.447	1	4
343.789	1	2
344.131	1	-8
344.473	1	-1
344.815	1	12
345.157	1	3
345.499	1	5
345.841	1	4
346.183	1	2
346.526	1	12
346.868	1	-3
347.210	1	-6
347.552	1	14
347.894	1	-2
348.236	1	9
348.578	1	3
348.920	1	5
349.262	1	13
349.604	1	2
349.946	1	-1
350.288	1	-6
350.630	1	0
350.972	1	10
351.314	1	1
351.656	1	11
351.998	1	2
352.340	1	9
352.682	1	-12
353.024	1	16
353.366	1	8
353.708	1	3
354.050	1	-5
354.392	1	-1
354.734	1	5
355.076	1	10
355.418	1	2
355.760	1	2
356.102	1	1
356.444	1	12
356.785	1	5
357.127	1	17
357.469	1	7
357.811	1	-1
358.153	1	9
358.495	1	2
358.837	1	14
359.179	1	8
359.521	1	17
359.863	1	3
360.205	1	15
360.547	1	14
360.889	1	9
361.231	1	7
361.572	1	18
361.914	1	12
362.256	1	14
362.598	1	9
362.940	1	20
363.282	1	8
363.624	1	8
363.966	1	9
364.308	1	18
364.649	1	19
364.991	1	24
365.333	1	7
365.675	1	31
366.017	1	20
366.359	1	28
366.701	1	13
367.042	1	25
367.384	1	16
367.726	1	34
368.068	1	28
368.410	1	23
368.752	1	46
369.093	1	28
369.435	1	28
369.777	1	34
370.119	1	32
370.461	1	24
370.803	1	19
371.144	1	21
371.486	1	33
371.828	1	20
372.170	1	18
372.512	1	16
372.853	1	26
373.195	1	21
373.537	1	2
373.879	1	9
374.220	1	20
374.562	1	22
374.904	1	20
375.246	1	10
375.588	1	9
375.929	1	23
376.271	1	4
376.613	1	17
376.955	1	8
377.296	1	13
377.638	1	17
377.980	1	6
378.321	1	9
378.663	1	15
379.005	1	5
379.347	1	5
379.688	1	25
380.030	1	12
380.372	1	8
380.714	1	11
381.055	1	1
381.397	1	8
381.739	1	-6
382.080	1	14
382.422	1	5
382.764	1	8
383.105	1	7
383.447	1	12
383.789	1	-3
384.130	1	1
384.472	1	3
384.814	1	11
385.156	1	11
385.497	1	16
385.839	1	9
386.180	1	9
386.522	1	7
386.864	1	-7
387.205	1	11
387.547	1	15
387.889	1	6
388.230	1	6
388.572	1	-5
388.914	1	14
389.255	1	11
389.597	1	5
389.939	1	17
390.280	1	-6
390.622	1	3
390.963	1	1
391.305	1	-2
391.647	1	12
391.988	1	-2
392.330	1	1
392.671	1	6
393.013	1	13
393.355	1	16
393.696	1	7
394.038	1	6
394.379	1	15
394.721	1	9
395.062	1	-6
395.404	1	12
395.746	1	-2
396.087	1	10
396.429	1	9
396.770	1	14
397.112	1	2
397.453	1	0
397.795	1	-5
398.136	1	17
398.478	1	8
398.819	1	5
399.161	1	3
399.503	1	15
399.844	1	3
400.186	1	6
400.527	1	15
400.869	1	5
401.210	1	0
401.552	1	2
401.893	1	13
402.235	1	16
402.576	1	1
402.918	1	0
403.259	1	3
403.601	1	11
403.942	1	8
404.284	1	14
404.625	1	1
404.967	1	5
405.308	1	-12
405.649	1	-1
405.991	1	11
406.332	1	-1
406.674	1	-1
407.015	1	7
407.357	1	3
407.698	1	9
408.040	1	15
408.381	1	0
408.722	1	10
409.064	1	13
409.405	1	12
409.747	1	6
410.088	1	7
410.430	1	7
410.771	1	8
411.112	1	6
411.454	1	-1
411.795	1	10
412.137	1	10
412.478	1	1
412.819	1	12
413.161	1	7
413.502	1	14
413.844	1	17
414.185	1	6
414.526	1	1
414.868	1	6
415.209	1	5
415.550	1	-2
415.892	1	10
416.233	1	8
416.575	1	1
416.916	1	3
417.257	1	7
417.599	1	7
417.940	1	2
418.281	1	13
418.623	1	7
418.964	1	22
419.305	1	7
419.647	1	6
419.988	1	16
420.329	1	9
420.671	1	16
421.012	1	5
421.353	1	16
421.695	1	19
422.036	1	9
422.377	1	7
422.718	1	10
423.060	1	14
423.401	1	5
423.742	1	9
424.084	1	12
424.425	1	16
424.766	1	9
425.107	1	7
425.449	1	13
425.790	1	6
426.131	1	3
426.472	1	19
426.814	1	9
427.155	1	11
427.496	1	6
427.837	1	5
428.179	1	20
428.520	1	12
428.861	1	10
429.202	1	8
429.544	1	8
429.885	1	3
430.226	1	-7
430.567	1	-3
430.909	1	4
431.250	1	13
431.591	1	6
431.932	1	7
432.273	1	12
432.615	1	-1
432.956	1	5
433.297	1	7
433.638	1	-1
433.979	1	7
434.320	1	6
434.662	1	8
435.003	1	10
435.344	1	2
435.685	1	0
436.026	1	9
436.368	1	-1
436.709	1	-2
437.050	1	6
437.391	1	4
437.732	1	7
438.073	1	-1
438.414	1	8
438.756	1	5
439.097	1	11
439.438	1	12
439.779	1	3
440.120	1	5
440.461	1	7
440.802	1	7
441.143	1	9
441.485	1	10
441.826	1	7
442.167	1	4
442.508	1	16
442.849	1	13
443.190	1	14
443.531	1	7
443.872	1	0
444.213	1	9
444.554	1	9
444.895	1	4
445.237	1	14
445.578	1	1
445.919	1	5
446.260	1	13
446.601	1	18
446.942	1	5
447.283	1	15
447.624	1	1
447.965	1	8
448.306	1	6
448.647	1	8
448.988	1	5
449.329	1	15
449.670	1	-1
450.011	1	1
450.352	1	12
450.693	1	5
451.034	1	8
451.375	1	-1
451.716	1	1
452.057	1	3
452.398	1	16
452.739	1	8
453.080	1	11
453.421	1	-2
453.762	1	4
454.103	1	-2
454.444	1	-4
454.785	1	11
455.126	1	3
455.467	1	3
455.808	1	10
456.149	1	-6
456.490	1	0
456.831	1	2
457.172	1	6
457.513	1	4
457.854	1	4
458.195	1	8
458.536	1	10
458.877	1	10
459.218	1	12
459.559	1	3
459.899	1	3
460.240	1	-3
460.581	1	2
460.922	1	9
461.263	1	7
461.604	1	10
461.945	1	-1
462.286	1	-4
462.627	1	10
462.968	1	7
463.309	1	5
463.649	1	-2
463.990	1	3
464.331	1	7
464.672	1	2
465.013	1	6
465.354	1	18
465.695	1	12
466.036	1	15
466.376	1	6
466.717	1	-5
467.058	1	5
467.399	1	0
467.740	1	13
468.081	1	7
468.422	1	7
468.762	1	8
469.103	1	-2
469.444	1	-1
469.785	1	-2
470.126	1	11
470.467	1	7
470.807	1	2
471.148	1	0
471.489	1	10
471.830	1	5
472.171	1	10
472.511	1	11
472.852	1	7
473.193	1	8
473.534	1	-4
473.875	1	0
474.215	1	7
474.556	1	-4
474.897	1	-5
475.238	1	4
475.578	1	-8
475.919	1	0
476.260	1	2
476.601	1	8
476.942	1	1
477.282	1	-5
477.623	1	-4
477.964	1	0
478.305	1	1
478.645	1	6
478.986	1	15
479.327	1	7
479.667	1	0
480.008	1	3
480.349	1	0
480.690	1	11
481.030	1	-3
481.371	1	-2
481.712	1	19
482.053	1	9
482.393	1	5
482.734	1	0
483.075	1	8
483.415	1	-7
483.756	1	-2
484.097	1	8
484.437	1	4
484.778	1	-10
485.119	1	-6
485.459	1	-7
485.800	1	-8
486.141	1	10
486.481	1	-6
486.822	1	10
487.163	1	-6
487.503	1	4
487.844	1	-8
488.185	1	12
488.525	1	-4
488.866	1	0
489.207	1	10
489.547	1	4
489.888	1	4
490.228	1	11
490.569	1	5
490.910	1	6
491.250	1	7
491.591	1	7
491.932	1	8
492.272	1	-3
492.613	1	-1
492.953	1	-2
493.294	1	-3
493.635	1	4
493.975	1	10
494.316	1	4
494.656	1	9
494.997	1	-2
495.337	1	-2
495.678	1	-4
496.019	1	0
496.359	1	2
496.700	1	1
497.040	1	-2
497.381	1	6
497.721	1	-1
498.062	1	1
498.403	1	13
498.743	1	3
499.084	1	7
499.424	1	5
499.765	1	7
500.105	1	10
500.446	1	-6
500.786	1	4
501.127	1	9
501.467	1	13
501.808	1	6
502.148	1	3
502.489	1	5
502.829	1	11
503.170	1	10
503.510	1	6
503.851	1	12
504.191	1	3
504.532	1	18
504.872	1	-5
505.213	1	-3
505.553	1	3
505.894	1	9
506.234	1	13
506.575	1	25
506.915	1	7
507.256	1	6
507.596	1	11
507.936	1	8
508.277	1	9
508.617	1	8
508.958	1	16
509.298	1	-3
509.639	1	7
509.979	1	6
510.319	1	14
510.660	1	4
511.000	1	8
511.341	1	9
511.681	1	13
512.022	1	0
512.362	1	17
512.702	1	-6
513.043	1	17
513.383	1	7
513.724	1	10
514.064	1	13
514.404	1	19
514.745	1	5
515.085	1	15
515.425	1	25
515.766	1	6
516.106	1	2
516.447	1	8
516.787	1	9
517.127	1	17
517.468	1	15
517.808	1	1
518.148	1	13
518.489	1	16
518.829	1	8
519.169	1	2
519.510	1	-11
519.850	1	8
520.190	1	-3
520.531	1	8
520.871	1	2
521.211	1	11
521.552	1	18
521.892	1	12
522.232	1	18
522.573	1	-2
522.913	1	17
523.253	1	11
523.593	1	7
523.934	1	4
524.274	1	6
524.614	1	10
524.955	1	6
525.295	1	20
525.635	1	5
525.975	1	1
526.316	1	2
526.656	1	5
526.996	1	3
527.337	1	9
527.677	1	19
528.017	1	4
528.357	1	8
528.698	1	17
529.038	1	12
529.378	1	10
529.718	1	9
530.058	1	17
530.399	1	9
530.739	1	15
531.079	1	1
531.419	1	0
531.760	1	14
532.100	1	19
532.440	1	7
532.780	1	6
533.120	1	1
533.461	1	7
533.801	1	4
534.141	1	9
534.481	1	20
534.821	1	4
535.162	1	16
535.502	1	13
535.842	1	12
536.182	1	6
536.522	1	-2
536.862	1	8
537.203	1	9
537.543	1	12
537.883	1	6
538.223	1	16
538.563	1	6
538.903	1	6
539.243	1	15
539.584	1	7
539.924	1	7
540.264	1	14
540.604	1	20
540.944	1	9
541.284	1	8
541.624	1	5
541.964	1	9
542.305	1	16
542.645	1	4
542.985	1	-1
543.325	1	7
543.665	1	3
544.005	1	5
544.345	1	13
544.685	1	9
545.025	1	11
545.365	1	13
545.705	1	4
546.045	1	22
546.386	1	6
546.726	1	13
547.066	1	6
547.406	1	-6
547.746	1	10
548.086	1	11
548.426	1	0
548.766	1	13
549.106	1	-1
549.446	1	7
549.786	1	16
550.126	1	3
550.466	1	2
550.806	1	18
551.146	1	3
551.486	1	8
551.826	1	1
552.166	1	6
552.506	1	5
552.846	1	11
553.186	1	-4
553.526	1	6
553.866	1	1
554.206	1	-2
554.546	1	9
554.886	1	6
555.226	1	11
555.566	1	7
555.906	1	0
556.246	1	15
556.586	1	2
556.926	1	5
557.266	1	13
557.606	1	-1
557.946	1	4
558.286	1	-5
558.626	1	14
558.966	1	3
559.306	1	6
559.646	1	17
559.986	1	7
560.325	1	8
560.665	1	3
561.005	1	8
561.345	1	-1
561.685	1	5
562.025	1	12
562.365	1	8
562.705	1	9
563.045	1	4
563.385	1	9
563.725	1	1
564.064	1	9
564.404	1	-9
564.744	1	16
565.084	1	14
565.424	1	-8
565.764	1	9
566.104	1	3
566.444	1	15
566.783	1	17
567.123	1	-1
567.463	1	5
567.803	1	8
568.143	1	8
568.483	1	9
568.823	1	9
569.162	1	-3
569.502	1	5
569.842	1	6
570.182	1	8
570.522	1	-1
570.862	1	-8
571.201	1	9
571.541	1	3
571.881	1	1
572.221	1	7
572.561	1	8
572.900	1	8
573.240	1	2
573.580	1	8
573.920	1	20
574.260	1	5
574.599	1	15
574.939	1	7
575.279	1	-3
575.619	1	-5
575.959	1	-6
576.298	1	-6
576.638	1	14
576.978	1	8
577.318	1	6
577.657	1	0
577.997	1	9
578.337	1	4
578.677	1	10
579.016	1	3
579.356	1	2
579.696	1	6
580.036	1	-2
580.375	1	0
580.715	1	8
581.055	1	3
581.394	1	8
581.734	1	1
582.074	1	2
582.414	1	1
582.753	1	2
583.093	1	11
583.433	1	14
583.772	1	9
584.112	1	6
584.452	1	10
584.791	1	10
585.131	1	6
585.471	1	4
585.811	1	6
586.150	1	2
586.490	1	4
586.830	1	7
587.169	1	2
587.509	1	7
587.849	1	17
588.188	1	6
588.528	1	1
588.867	1	5
589.207	1	7
589.547	1	14
589.886	1	9
590.226	1	3
590.566	1	6
590.905	1	6
591.245	1	0
591.585	1	3
591.924	1	0
592.264	1	0
592.603	1	-10
592.943	1	12
593.283	1	6
593.622	1	7
593.962	1	1
594.301	1	-2
594.641	1	1
594.981	1	6
595.320	1	4
595.660	1	5
595.999	1	-5
596.339	1	9
596.678	1	7
597.018	1	3
597.358	1	-4
597.697	1	-3
598.037	1	-2
598.376	1	0
598.716	1	12
599.055	1	8
599.395	1	-3
599.734	1	2
600.074	1	-5
600.413	1	5
600.753	1	2
601.092	1	-3
601.432	1	-7
601.771	1	4
602.111	1	1
602.451	1	1
602.790	1	9
603.130	1	-1
603.469	1	7
603.809	1	1
604.148	1	-1
604.487	1	3
604.827	1	1
605.166	1	7
605.506	1	-3
605.845	1	3
606.185	1	0
606.524	1	-1
606.864	1	9
607.203	1	8
607.543	1	-1
607.882	1	12
608.222	1	5
608.561	1	4
608.901	1	6
609.240	1	5
609.579	1	1
609.919	1	-7
610.258	1	10
610.598	1	0
610.937	1	4
611.277	1	7
611.616	1	22
611.955	1	-3
612.295	1	10
612.634	1	4
612.974	1	-10
613.313	1	13
613.652	1	11
613.992	1	6
614.331	1	16
614.671	1	-2
615.010	1	3
615.349	1	11
615.689	1	2
616.028	1	12
616.368	1	9
616.707	1	5
617.046	1	10
617.386	1	9
617.725	1	0
618.064	1	-9
618.404	1	4
618.743	1	6
619.082	1	14
619.422	1	16
619.761	1	-2
620.100	1	2
620.440	1	8
620.779	1	7
621.118	1	8
621.458	1	-1
621.797	1	-3
622.136	1	-1
622.476	1	13
622.815	1	12
623.154	1	-9
623.494	1	2
623.833	1	2
624.172	1	8
624.511	1	-8
624.851	1	7
625.190	1	-4
625.529	1	1
625.869	1	11
626.208	1	-13
626.547	1	-3
626.886	1	1
627.226	1	15
627.565	1	3
627.904	1	-2
628.243	1	4
628.583	1	5
628.922	1	16
629.261	1	7
629.600	1	-3
629.940	1	7
630.279	1	10
630.618	1	15
630.957	1	14
631.297	1	-6
631.636	1	-1
631.975	1	4
632.314	1	10
632.653	1	6
632.993	1	1
633.332	1	11
633.671	1	8
634.010	1	2
634.349	1	10
634.689	1	-3
635.028	1	-7
635.367	1	11
635.706	1	2
636.045	1	-4
636.384	1	2
636.724	1	2
637.063	1	-2
637.402	1	14
637.741	1	1
638.080	1	8
638.419	1	-4
638.759	1	1
639.098	1	8
639.437	1	5
639.776	1	9
640.115	1	-3
640.454	1	-2
640.793	1	-1
641.132	1	8
641.472	1	18
641.811	1	-7
642.150	1	-2
642.489	1	3
642.828	1	14
643.167	1	4
643.506	1	-3
643.845	1	12
644.184	1	13
644.524	1	-2
644.863	1	2
645.202	1	0
645.541	1	11
645.880	1	7
646.219	1	2
646.558	1	3
646.897	1	-10
647.236	1	-6
647.575	1	13
647.914	1	9
648.253	1	10
648.592	1	-3
648.931	1	9
649.270	1	4
649.610	1	6
649.949	1	1
650.288	1	8
650.627	1	4
650.966	1	13
651.305	1	2
651.644	1	16
651.983	1	0
652.322	1	2
652.661	1	5
653.000	1	5
653.339	1	3
653.678	1	2
654.017	1	6
654.356	1	7
654.695	1	13
655.034	1	-6
655.373	1	4
655.712	1	10
656.051	1	-5
656.390	1	8
656.729	1	14
657.068	1	1
657.406	1	-3
657.745	1	9
658.084	1	11
658.423	1	4
658.762	1	-3
659.101	1	4
659.440	1	3
659.779	1	7
660.118	1	0
660.457	1	1
660.796	1	7
661.135	1	9
661.474	1	13
661.813	1	6
662.152	1	3
662.491	1	-6
662.829	1	-3
663.168	1	6
663.507	1	6
663.846	1	5
664.185	1	-3
664.524	1	13
664.863	1	1
665.202	1	15
665.541	1	2
665.879	1	1
666.218	1	1
666.557	1	-6
666.896	1	4
667.235	1	4
667.574	1	2
667.913	1	8
668.251	1	0
668.590	1	3
668.929	1	0
669.268	1	-6
669.607	1	-1
669.946	1	-5
670.285	1	3
670.623	1	2
670.962	1	-1
671.301	1	0
671.640	1	7
671.979	1	4
672.317	1	7
672.656	1	12
672.995	1	0
673.334	1	7
673.673	1	9
674.011	1	5
674.350	1	3
674.689	1	-3
675.028	1	3
675.367	1	0
675.705	1	-1
676.044	1	-1
676.383	1	7
676.722	1	0
677.060	1	4
677.399	1	15
677.738	1	-6
678.077	1	-10
678.416	1	-1
678.754	1	3
679.093	1	13
679.432	1	-3
679.771	1	1
680.109	1	-4
680.448	1	-1
680.787	1	-7
681.125	1	-6
681.464	1	6
681.803	1	-1
682.142	1	6
682.480	1	0
682.819	1	0
683.158	1	1
683.496	1	0
683.835	1	11
684.174	1	9
684.512	1	1
684.851	1	3
685.190	1	5
685.529	1	0
685.867	1	3
686.206	1	-3
686.545	1	13
686.883	1	4
687.222	1	0
687.561	1	-6
687.899	1	2
688.238	1	10
688.577	1	2
688.746	1	2