File: Data/GaN_150K_450ms/GaN_sample D_spot15_UVVIS_150 K_200um_450 ms 2x2mm1_201.txt
340.368	1	7
340.710	1	2
341.052	1	1
341.394	1	-5
341.737	1	2
342.079	1	4
342.421	1	7
342.763	1	11
343.105	1	7
343.447	1	8
343.789	1	13
344.131	1	-13
344.473	1	4
344.815	1	-1
345.157	1	13
345.499	1	8
345.841	1	4
346.183	1	1
346.526	1	7
346.868	1	1
347.210	1	2
347.552	1	14
347.894	1	-1
348.236	1	-1
348.578	1	9
348.920	1	-1
349.262	1	3
349.604	1	-5
349.946	1	6
350.288	1	7
350.630	1	-2
350.972	1	10
351.314	1	-3
351.656	1	13
351.998	1	6
352.340	1	7
352.682	1	-8
353.024	1	13
353.366	1	2
353.708	1	1
354.050	1	-4
354.392	1	-7
354.734	1	5
355.076	1	14
355.418	1	7
355.760	1	-1
356.102	1	0
356.444	1	13
356.785	1	9
357.127	1	16
357.469	1	10
357.811	1	2
358.153	1	-5
358.495	1	-1
358.837	1	17
359.179	1	-1
359.521	1	9
359.863	1	0
360.205	1	13
360.547	1	15
360.889	1	-1
361.231	1	10
361.572	1	14
361.914	1	12
362.256	1	14
362.598	1	14
362.940	1	15
363.282	1	9
363.624	1	13
363.966	1	5
364.308	1	18
364.649	1	10
364.991	1	13
365.333	1	11
365.675	1	24
366.017	1	22
366.359	1	19
366.701	1	17
367.042	1	23
367.384	1	17
367.726	1	20
368.068	1	43
368.410	1	24
368.752	1	34
369.093	1	15
369.435	1	25
369.777	1	28
370.119	1	29
370.461	1	24
370.803	1	23
371.144	1	20
371.486	1	24
371.828	1	10
372.170	1	18
372.512	1	2
372.853	1	24
373.195	1	12
373.537	1	2
373.879	1	12
374.220	1	15
374.562	1	26
374.904	1	17
375.246	1	8
375.588	1	12
375.929	1	16
376.271	1	2
376.613	1	15
376.955	1	11
377.296	1	20
377.638	1	9
377.980	1	9
378.321	1	18
378.663	1	4
379.005	1	5
379.347	1	8
379.688	1	15
380.030	1	7
380.372	1	8
380.714	1	2
381.055	1	5
381.397	1	1
381.739	1	-2
382.080	1	11
382.422	1	2
382.764	1	-1
383.105	1	-3
383.447	1	11
383.789	1	0
384.130	1	5
384.472	1	5
384.814	1	9
385.156	1	9
385.497	1	5
385.839	1	10
386.180	1	11
386.522	1	7
386.864	1	0
387.205	1	4
387.547	1	2
387.889	1	1
388.230	1	7
388.572	1	-11
388.914	1	9
389.255	1	-3
389.597	1	1
389.939	1	20
390.280	1	0
390.622	1	-5
390.963	1	-7
391.305	1	0
391.647	1	-2
391.988	1	-2
392.330	1	-4
392.671	1	8
393.013	1	10
393.355	1	3
393.696	1	1
394.038	1	-1
394.379	1	6
394.721	1	3
395.062	1	0
395.404	1	5
395.746	1	-5
396.087	1	7
396.429	1	12
396.770	1	-4
397.112	1	-1
397.453	1	0
397.795	1	8
398.136	1	9
398.478	1	0
398.819	1	7
399.161	1	14
399.503	1	7
399.844	1	-3
400.186	1	10
400.527	1	7
400.869	1	8
401.210	1	0
401.552	1	5
401.893	1	4
402.235	1	5
402.576	1	5
402.918	1	-5
403.259	1	-3
403.601	1	11
403.942	1	-4
404.284	1	16
404.625	1	-5
404.967	1	6
405.308	1	-3
405.649	1	3
405.991	1	7
406.332	1	4
406.674	1	-3
407.015	1	13
407.357	1	2
407.698	1	5
408.040	1	7
408.381	1	8
408.722	1	11
409.064	1	15
409.405	1	-2
409.747	1	5
410.088	1	4
410.430	1	15
410.771	1	8
411.112	1	9
411.454	1	2
411.795	1	6
412.137	1	5
412.478	1	-4
412.819	1	14
413.161	1	-1
413.502	1	10
413.844	1	12
414.185	1	10
414.526	1	2
414.868	1	0
415.209	1	7
415.550	1	6
415.892	1	14
416.233	1	15
416.575	1	4
416.916	1	1
417.257	1	-3
417.599	1	11
417.940	1	1
418.281	1	16
418.623	1	7
418.964	1	15
419.305	1	12
419.647	1	4
419.988	1	17
420.329	1	10
420.671	1	22
421.012	1	-2
421.353	1	19
421.695	1	15
422.036	1	15
422.377	1	8
422.718	1	12
423.060	1	12
423.401	1	6
423.742	1	5
424.084	1	9
424.425	1	10
424.766	1	11
425.107	1	4
425.449	1	-4
425.790	1	8
426.131	1	2
426.472	1	7
426.814	1	12
427.155	1	8
427.496	1	8
427.837	1	6
428.179	1	20
428.520	1	6
428.861	1	14
429.202	1	-10
429.544	1	7
429.885	1	8
430.226	1	-12
430.567	1	0
430.909	1	6
431.250	1	5
431.591	1	5
431.932	1	0
432.273	1	13
432.615	1	-2
432.956	1	13
433.297	1	14
433.638	1	5
433.979	1	4
434.320	1	0
434.662	1	6
435.003	1	14
435.344	1	6
435.685	1	0
436.026	1	10
436.368	1	-10
436.709	1	1
437.050	1	-2
437.391	1	3
437.732	1	2
438.073	1	-1
438.414	1	14
438.756	1	3
439.097	1	7
439.438	1	6
439.779	1	5
440.120	1	-1
440.461	1	-1
440.802	1	14
441.143	1	2
441.485	1	4
441.826	1	3
442.167	1	8
442.508	1	10
442.849	1	1
443.190	1	8
443.531	1	0
443.872	1	-8
444.213	1	-3
444.554	1	3
444.895	1	5
445.237	1	13
445.578	1	3
445.919	1	5
446.260	1	10
446.601	1	-3
446.942	1	-6
447.283	1	10
447.624	1	0
447.965	1	6
448.306	1	-2
448.647	1	5
448.988	1	2
449.329	1	3
449.670	1	5
450.011	1	7
450.352	1	4
450.693	1	10
451.034	1	4
451.375	1	1
451.716	1	2
452.057	1	6
452.398	1	-1
452.739	1	4
453.080	1	4
453.421	1	7
453.762	1	6
454.103	1	6
454.444	1	13
454.785	1	3
455.126	1	0
455.467	1	-1
455.808	1	8
456.149	1	-4
456.490	1	9
456.831	1	6
457.172	1	8
457.513	1	3
457.854	1	7
458.195	1	3
458.536	1	0
458.877	1	5
459.218	1	11
459.559	1	-2
459.899	1	-4
460.240	1	0
460.581	1	-2
460.922	1	-1
461.263	1	12
461.604	1	-2
461.945	1	15
462.286	1	4
462.627	1	5
462.968	1	10
463.309	1	7
463.649	1	1
463.990	1	1
464.331	1	17
464.672	1	8
465.013	1	2
465.354	1	16
465.695	1	10
466.036	1	5
466.376	1	14
466.717	1	-10
467.058	1	1
467.399	1	-18
467.740	1	10
468.081	1	8
468.422	1	5
468.762	1	4
469.103	1	6
469.444	1	5
469.785	1	-5
470.126	1	8
470.467	1	8
470.807	1	3
471.148	1	2
471.489	1	3
471.830	1	9
472.171	1	5
472.511	1	0
472.852	1	8
473.193	1	3
473.534	1	6
473.875	1	4
474.215	1	-1
474.556	1	-3
474.897	1	-4
475.238	1	9
475.578	1	-10
475.919	1	3
476.260	1	-5
476.601	1	-3
476.942	1	4
477.282	1	-5
477.623	1	0
477.964	1	8
478.305	1	9
478.645	1	4
478.986	1	8
479.327	1	9
479.667	1	2
480.008	1	7
480.349	1	2
480.690	1	8
481.030	1	4
481.371	1	-1
481.712	1	15
482.053	1	10
482.393	1	5
482.734	1	10
483.075	1	3
483.415	1	7
483.756	1	9
484.097	1	3
484.437	1	9
484.778	1	-3
485.119	1	12
485.459	1	5
485.800	1	1
486.141	1	5
486.481	1	-6
486.822	1	13
487.163	1	-3
487.503	1	4
487.844	1	-16
488.185	1	5
488.525	1	-2
488.866	1	0
489.207	1	5
489.547	1	2
489.888	1	0
490.228	1	3
490.569	1	-9
490.910	1	2
491.250	1	9
491.591	1	2
491.932	1	11
492.272	1	-11
492.613	1	0
492.953	1	6
493.294	1	-7
493.635	1	3
493.975	1	8
494.316	1	4
494.656	1	10
494.997	1	2
495.337	1	10
495.678	1	0
496.019	1	2
496.359	1	6
496.700	1	0
497.040	1	0
497.381	1	3
497.721	1	-7
498.062	1	7
498.403	1	15
498.743	1	5
499.084	1	14
499.424	1	6
499.765	1	1
500.105	1	6
500.446	1	-5
500.786	1	5
501.127	1	8
501.467	1	13
501.808	1	3
502.148	1	2
502.489	1	1
502.829	1	9
503.170	1	7
503.510	1	2
503.851	1	5
504.191	1	-3
504.532	1	17
504.872	1	-1
505.213	1	6
505.553	1	1
505.894	1	9
506.234	1	13
506.575	1	17
506.915	1	3
507.256	1	14
507.596	1	10
507.936	1	17
508.277	1	12
508.617	1	9
508.958	1	5
509.298	1	-2
509.639	1	5
509.979	1	3
510.319	1	3
510.660	1	-1
511.000	1	2
511.341	1	13
511.681	1	-2
512.022	1	-7
512.362	1	13
512.702	1	1
513.043	1	-1
513.383	1	10
513.724	1	9
514.064	1	6
514.404	1	16
514.745	1	-2
515.085	1	11
515.425	1	5
515.766	1	-5
516.106	1	2
516.447	1	11
516.787	1	7
517.127	1	17
517.468	1	16
517.808	1	-3
518.148	1	12
518.489	1	1
518.829	1	7
519.169	1	-1
519.510	1	1
519.850	1	6
520.190	1	3
520.531	1	8
520.871	1	5
521.211	1	9
521.552	1	8
521.892	1	0
522.232	1	7
522.573	1	0
522.913	1	9
523.253	1	4
523.593	1	7
523.934	1	-2
524.274	1	2
524.614	1	6
524.955	1	7
525.295	1	3
525.635	1	5
525.975	1	-1
526.316	1	-2
526.656	1	12
526.996	1	0
527.337	1	10
527.677	1	13
528.017	1	10
528.357	1	11
528.698	1	13
529.038	1	4
529.378	1	0
529.718	1	9
530.058	1	7
530.399	1	1
530.739	1	8
531.079	1	3
531.419	1	0
531.760	1	10
532.100	1	9
532.440	1	12
532.780	1	19
533.120	1	10
533.461	1	-1
533.801	1	9
534.141	1	7
534.481	1	16
534.821	1	6
535.162	1	6
535.502	1	2
535.842	1	1
536.182	1	3
536.522	1	5
536.862	1	9
537.203	1	4
537.543	1	7
537.883	1	12
538.223	1	19
538.563	1	8
538.903	1	2
539.243	1	4
539.584	1	16
539.924	1	11
540.264	1	15
540.604	1	5
540.944	1	4
541.284	1	7
541.624	1	5
541.964	1	4
542.305	1	16
542.645	1	4
542.985	1	6
543.325	1	9
543.665	1	5
544.005	1	1
544.345	1	11
544.685	1	0
545.025	1	8
545.365	1	10
545.705	1	8
546.045	1	6
546.386	1	7
546.726	1	4
547.066	1	7
547.406	1	5
547.746	1	5
548.086	1	8
548.426	1	9
548.766	1	6
549.106	1	6
549.446	1	16
549.786	1	10
550.126	1	8
550.466	1	10
550.806	1	19
551.146	1	12
551.486	1	-2
551.826	1	8
552.166	1	8
552.506	1	7
552.846	1	6
553.186	1	-3
553.526	1	4
553.866	1	7
554.206	1	16
554.546	1	8
554.886	1	10
555.226	1	12
555.566	1	9
555.906	1	-5
556.246	1	8
556.586	1	7
556.926	1	12
557.266	1	8
557.606	1	1
557.946	1	11
558.286	1	-3
558.626	1	10
558.966	1	3
559.306	1	12
559.646	1	9
559.986	1	15
560.325	1	9
560.665	1	-2
561.005	1	7
561.345	1	-3
561.685	1	9
562.025	1	8
562.365	1	3
562.705	1	3
563.045	1	10
563.385	1	8
563.725	1	4
564.064	1	-3
564.404	1	-2
564.744	1	11
565.084	1	7
565.424	1	8
565.764	1	-6
566.104	1	6
566.444	1	9
566.783	1	8
567.123	1	0
567.463	1	7
567.803	1	8
568.143	1	3
568.483	1	15
568.823	1	-3
569.162	1	0
569.502	1	2
569.842	1	8
570.182	1	0
570.522	1	0
570.862	1	-14
571.201	1	11
571.541	1	4
571.881	1	-4
572.221	1	-2
572.561	1	13
572.900	1	11
573.240	1	-2
573.580	1	9
573.920	1	9
574.260	1	3
574.599	1	6
574.939	1	4
575.279	1	1
575.619	1	10
575.959	1	-8
576.298	1	-4
576.638	1	7
576.978	1	2
577.318	1	5
577.657	1	1
577.997	1	5
578.337	1	7
578.677	1	2
579.016	1	2
579.356	1	-3
579.696	1	3
580.036	1	7
580.375	1	4
580.715	1	7
581.055	1	7
581.394	1	7
581.734	1	1
582.074	1	8
582.414	1	4
582.753	1	-4
583.093	1	4
583.433	1	5
583.772	1	17
584.112	1	2
584.452	1	12
584.791	1	8
585.131	1	-2
585.471	1	6
585.811	1	8
586.150	1	1
586.490	1	1
586.830	1	3
587.169	1	-3
587.509	1	1
587.849	1	10
588.188	1	5
588.528	1	-1
588.867	1	3
589.207	1	10
589.547	1	7
589.886	1	14
590.226	1	-4
590.566	1	0
590.905	1	-1
591.245	1	-4
591.585	1	-2
591.924	1	6
592.264	1	1
592.603	1	-7
592.943	1	3
593.283	1	2
593.622	1	-6
593.962	1	2
594.301	1	5
594.641	1	-2
594.981	1	-1
595.320	1	10
595.660	1	-2
595.999	1	5
596.339	1	-1
596.678	1	-8
597.018	1	-2
597.358	1	9
597.697	1	3
598.037	1	-3
598.376	1	2
598.716	1	1
599.055	1	5
599.395	1	-6
599.734	1	5
600.074	1	2
600.413	1	0
600.753	1	1
601.092	1	-4
601.432	1	4
601.771	1	19
602.111	1	4
602.451	1	-4
602.790	1	3
603.130	1	4
603.469	1	6
603.809	1	13
604.148	1	4
604.487	1	9
604.827	1	6
605.166	1	7
605.506	1	1
605.845	1	6
606.185	1	9
606.524	1	-4
606.864	1	14
607.203	1	4
607.543	1	1
607.882	1	9
608.222	1	3
608.561	1	5
608.901	1	7
609.240	1	5
609.579	1	-1
609.919	1	-11
610.258	1	13
610.598	1	0
610.937	1	-8
611.277	1	13
611.616	1	18
611.955	1	-1
612.295	1	-2
612.634	1	7
612.974	1	8
613.313	1	1
613.652	1	11
613.992	1	1
614.331	1	14
614.671	1	3
615.010	1	-1
615.349	1	7
615.689	1	-1
616.028	1	10
616.368	1	8
616.707	1	-5
617.046	1	8
617.386	1	-4
617.725	1	-7
618.064	1	-4
618.404	1	4
618.743	1	0
619.082	1	10
619.422	1	12
619.761	1	2
620.100	1	5
620.440	1	11
620.779	1	9
621.118	1	17
621.458	1	0
621.797	1	5
622.136	1	4
622.476	1	-5
622.815	1	10
623.154	1	-4
623.494	1	-6
623.833	1	6
624.172	1	2
624.511	1	-6
624.851	1	5
625.190	1	0
625.529	1	-5
625.869	1	12
626.208	1	-3
626.547	1	-5
626.886	1	-2
627.226	1	14
627.565	1	8
627.904	1	6
628.243	1	6
628.583	1	11
628.922	1	10
629.261	1	5
629.600	1	0
629.940	1	2
630.279	1	10
630.618	1	9
630.957	1	2
631.297	1	7
631.636	1	-3
631.975	1	2
632.314	1	3
632.653	1	-1
632.993	1	2
633.332	1	4
633.671	1	13
634.010	1	13
634.349	1	15
634.689	1	-2
635.028	1	-3
635.367	1	8
635.706	1	3
636.045	1	-5
636.384	1	11
636.724	1	0
637.063	1	1
637.402	1	6
637.741	1	2
638.080	1	8
638.419	1	-7
638.759	1	-3
639.098	1	-4
639.437	1	0
639.776	1	11
640.115	1	-2
640.454	1	-2
640.793	1	6
641.132	1	14
641.472	1	14
641.811	1	0
642.150	1	3
642.489	1	7
642.828	1	21
643.167	1	3
643.506	1	-1
643.845	1	14
644.184	1	10
644.524	1	5
644.863	1	0
645.202	1	2
645.541	1	2
645.880	1	13
646.219	1	-1
646.558	1	-3
646.897	1	-9
647.236	1	-11
647.575	1	9
647.914	1	-1
648.253	1	13
648.592	1	4
648.931	1	3
649.270	1	8
649.610	1	12
649.949	1	-3
650.288	1	10
650.627	1	-3
650.966	1	5
651.305	1	1
651.644	1	10
651.983	1	-12
652.322	1	10
652.661	1	3
653.000	1	7
653.339	1	-3
653.678	1	6
654.017	1	10
654.356	1	14
654.695	1	16
655.034	1	-8
655.373	1	3
655.712	1	13
656.051	1	0
656.390	1	7
656.729	1	15
657.068	1	4
657.406	1	-2
657.745	1	9
658.084	1	8
658.423	1	7
658.762	1	-6
659.101	1	0
659.440	1	5
659.779	1	6
660.118	1	6
660.457	1	2
660.796	1	8
661.135	1	12
661.474	1	1
661.813	1	-2
662.152	1	-1
662.491	1	-7
662.829	1	11
663.168	1	1
663.507	1	10
663.846	1	2
664.185	1	7
664.524	1	7
664.863	1	-4
665.202	1	9
665.541	1	-3
665.879	1	8
666.218	1	8
666.557	1	-4
666.896	1	9
667.235	1	-1
667.574	1	2
667.913	1	2
668.251	1	-7
668.590	1	6
668.929	1	7
669.268	1	-2
669.607	1	0
669.946	1	-1
670.285	1	8
670.623	1	2
670.962	1	-7
671.301	1	2
671.640	1	5
671.979	1	0
672.317	1	13
672.656	1	9
672.995	1	-2
673.334	1	-1
673.673	1	7
674.011	1	2
674.350	1	3
674.689	1	-7
675.028	1	6
675.367	1	2
675.705	1	-10
676.044	1	3
676.383	1	5
676.722	1	4
677.060	1	4
677.399	1	11
677.738	1	1
678.077	1	-5
678.416	1	3
678.754	1	3
679.093	1	6
679.432	1	-5
679.771	1	6
680.109	1	3
680.448	1	4
680.787	1	-3
681.125	1	3
681.464	1	0
681.803	1	7
682.142	1	2
682.480	1	-1
682.819	1	-6
683.158	1	-1
683.496	1	-5
683.835	1	5
684.174	1	5
684.512	1	5
684.851	1	-2
685.190	1	4
685.529	1	-3
685.867	1	2
686.206	1	-9
686.545	1	0
686.883	1	12
687.222	1	2
687.561	1	2
687.899	1	5
688.238	1	0
688.577	1	1
688.746	1	3