File: Data/GaN_150K_450ms/GaN_sample D_spot15_UVVIS_150 K_200um_450 ms 2x2mm1_280.txt
340.368	1	4
340.710	1	-3
341.052	1	6
341.394	1	-5
341.737	1	3
342.079	1	7
342.421	1	-2
342.763	1	-1
343.105	1	5
343.447	1	2
343.789	1	8
344.131	1	-10
344.473	1	2
344.815	1	4
345.157	1	14
345.499	1	0
345.841	1	0
346.183	1	0
346.526	1	6
346.868	1	4
347.210	1	-8
347.552	1	17
347.894	1	-2
348.236	1	8
348.578	1	7
348.920	1	6
349.262	1	15
349.604	1	-2
349.946	1	2
350.288	1	-6
350.630	1	-3
350.972	1	11
351.314	1	-1
351.656	1	19
351.998	1	2
352.340	1	5
352.682	1	-10
353.024	1	19
353.366	1	15
353.708	1	6
354.050	1	-5
354.392	1	-7
354.734	1	6
355.076	1	11
355.418	1	2
355.760	1	9
356.102	1	7
356.444	1	10
356.785	1	12
357.127	1	12
357.469	1	5
357.811	1	4
358.153	1	-2
358.495	1	-3
358.837	1	0
359.179	1	5
359.521	1	16
359.863	1	-1
360.205	1	14
360.547	1	4
360.889	1	6
361.231	1	1
361.572	1	10
361.914	1	12
362.256	1	10
362.598	1	12
362.940	1	8
363.282	1	4
363.624	1	2
363.966	1	6
364.308	1	7
364.649	1	5
364.991	1	6
365.333	1	12
365.675	1	15
366.017	1	9
366.359	1	15
366.701	1	10
367.042	1	12
367.384	1	14
367.726	1	9
368.068	1	19
368.410	1	15
368.752	1	22
369.093	1	12
369.435	1	17
369.777	1	13
370.119	1	18
370.461	1	21
370.803	1	16
371.144	1	12
371.486	1	11
371.828	1	10
372.170	1	3
372.512	1	10
372.853	1	26
373.195	1	15
373.537	1	1
373.879	1	12
374.220	1	10
374.562	1	20
374.904	1	12
375.246	1	3
375.588	1	-1
375.929	1	7
376.271	1	-1
376.613	1	6
376.955	1	3
377.296	1	8
377.638	1	-2
377.980	1	1
378.321	1	14
378.663	1	7
379.005	1	5
379.347	1	3
379.688	1	10
380.030	1	13
380.372	1	6
380.714	1	8
381.055	1	-6
381.397	1	12
381.739	1	0
382.080	1	10
382.422	1	5
382.764	1	9
383.105	1	3
383.447	1	4
383.789	1	-10
384.130	1	2
384.472	1	0
384.814	1	6
385.156	1	2
385.497	1	9
385.839	1	5
386.180	1	6
386.522	1	4
386.864	1	2
387.205	1	7
387.547	1	8
387.889	1	-3
388.230	1	7
388.572	1	-4
388.914	1	10
389.255	1	5
389.597	1	4
389.939	1	17
390.280	1	2
390.622	1	1
390.963	1	-6
391.305	1	-2
391.647	1	5
391.988	1	2
392.330	1	6
392.671	1	4
393.013	1	8
393.355	1	10
393.696	1	6
394.038	1	0
394.379	1	7
394.721	1	-3
395.062	1	-2
395.404	1	4
395.746	1	-5
396.087	1	8
396.429	1	8
396.770	1	6
397.112	1	5
397.453	1	-8
397.795	1	2
398.136	1	-1
398.478	1	-5
398.819	1	6
399.161	1	8
399.503	1	10
399.844	1	-5
400.186	1	7
400.527	1	3
400.869	1	3
401.210	1	2
401.552	1	-1
401.893	1	4
402.235	1	9
402.576	1	0
402.918	1	-2
403.259	1	4
403.601	1	7
403.942	1	2
404.284	1	11
404.625	1	-2
404.967	1	3
405.308	1	-10
405.649	1	4
405.991	1	8
406.332	1	2
406.674	1	0
407.015	1	6
407.357	1	3
407.698	1	3
408.040	1	15
408.381	1	-4
408.722	1	9
409.064	1	8
409.405	1	12
409.747	1	-4
410.088	1	5
410.430	1	14
410.771	1	9
411.112	1	12
411.454	1	-1
411.795	1	-6
412.137	1	-4
412.478	1	6
412.819	1	3
413.161	1	-3
413.502	1	3
413.844	1	12
414.185	1	2
414.526	1	-4
414.868	1	0
415.209	1	5
415.550	1	11
415.892	1	1
416.233	1	3
416.575	1	-12
416.916	1	2
417.257	1	-2
417.599	1	-3
417.940	1	1
418.281	1	7
418.623	1	-3
418.964	1	16
419.305	1	6
419.647	1	3
419.988	1	14
420.329	1	0
420.671	1	9
421.012	1	2
421.353	1	11
421.695	1	11
422.036	1	2
422.377	1	5
422.718	1	7
423.060	1	6
423.401	1	-4
423.742	1	10
424.084	1	3
424.425	1	11
424.766	1	-1
425.107	1	8
425.449	1	3
425.790	1	9
426.131	1	3
426.472	1	5
426.814	1	5
427.155	1	5
427.496	1	-2
427.837	1	4
428.179	1	10
428.520	1	-2
428.861	1	1
429.202	1	-4
429.544	1	7
429.885	1	6
430.226	1	-3
430.567	1	-4
430.909	1	-11
431.250	1	-1
431.591	1	8
431.932	1	6
432.273	1	7
432.615	1	-1
432.956	1	12
433.297	1	4
433.638	1	11
433.979	1	2
434.320	1	8
434.662	1	10
435.003	1	11
435.344	1	6
435.685	1	-3
436.026	1	-7
436.368	1	2
436.709	1	-1
437.050	1	-1
437.391	1	-7
437.732	1	7
438.073	1	-6
438.414	1	10
438.756	1	-3
439.097	1	4
439.438	1	3
439.779	1	6
440.120	1	10
440.461	1	4
440.802	1	4
441.143	1	4
441.485	1	-3
441.826	1	4
442.167	1	-1
442.508	1	-1
442.849	1	5
443.190	1	7
443.531	1	7
443.872	1	0
444.213	1	-9
444.554	1	8
444.895	1	2
445.237	1	13
445.578	1	-10
445.919	1	4
446.260	1	0
446.601	1	5
446.942	1	0
447.283	1	12
447.624	1	-8
447.965	1	2
448.306	1	7
448.647	1	0
448.988	1	6
449.329	1	2
449.670	1	8
450.011	1	0
450.352	1	-5
450.693	1	11
451.034	1	4
451.375	1	7
451.716	1	9
452.057	1	1
452.398	1	10
452.739	1	8
453.080	1	5
453.421	1	3
453.762	1	5
454.103	1	5
454.444	1	5
454.785	1	3
455.126	1	2
455.467	1	0
455.808	1	7
456.149	1	-5
456.490	1	-7
456.831	1	0
457.172	1	13
457.513	1	-5
457.854	1	-1
458.195	1	-1
458.536	1	5
458.877	1	7
459.218	1	2
459.559	1	-4
459.899	1	4
460.240	1	-1
460.581	1	-6
460.922	1	13
461.263	1	12
461.604	1	-3
461.945	1	7
462.286	1	2
462.627	1	4
462.968	1	7
463.309	1	0
463.649	1	-2
463.990	1	1
464.331	1	3
464.672	1	1
465.013	1	6
465.354	1	15
465.695	1	-7
466.036	1	16
466.376	1	4
466.717	1	0
467.058	1	5
467.399	1	-9
467.740	1	10
468.081	1	-7
468.422	1	-1
468.762	1	6
469.103	1	3
469.444	1	1
469.785	1	-7
470.126	1	4
470.467	1	3
470.807	1	9
471.148	1	0
471.489	1	2
471.830	1	1
472.171	1	8
472.511	1	5
472.852	1	8
473.193	1	0
473.534	1	4
473.875	1	5
474.215	1	1
474.556	1	-2
474.897	1	-1
475.238	1	4
475.578	1	-5
475.919	1	0
476.260	1	-9
476.601	1	5
476.942	1	0
477.282	1	-8
477.623	1	0
477.964	1	3
478.305	1	-2
478.645	1	11
478.986	1	7
479.327	1	3
479.667	1	-5
480.008	1	3
480.349	1	10
480.690	1	14
481.030	1	2
481.371	1	-7
481.712	1	4
482.053	1	6
482.393	1	7
482.734	1	13
483.075	1	1
483.415	1	1
483.756	1	10
484.097	1	4
484.437	1	12
484.778	1	-8
485.119	1	0
485.459	1	-8
485.800	1	-9
486.141	1	8
486.481	1	-6
486.822	1	9
487.163	1	1
487.503	1	3
487.844	1	1
488.185	1	15
488.525	1	0
488.866	1	-4
489.207	1	-8
489.547	1	8
489.888	1	3
490.228	1	6
490.569	1	-13
490.910	1	4
491.250	1	4
491.591	1	4
491.932	1	7
492.272	1	-6
492.613	1	-10
492.953	1	5
493.294	1	-6
493.635	1	4
493.975	1	14
494.316	1	3
494.656	1	11
494.997	1	-4
495.337	1	-3
495.678	1	-5
496.019	1	4
496.359	1	-7
496.700	1	2
497.040	1	-14
497.381	1	1
497.721	1	-16
498.062	1	0
498.403	1	12
498.743	1	8
499.084	1	6
499.424	1	-5
499.765	1	2
500.105	1	13
500.446	1	-3
500.786	1	4
501.127	1	3
501.467	1	19
501.808	1	0
502.148	1	1
502.489	1	0
502.829	1	-5
503.170	1	8
503.510	1	-3
503.851	1	10
504.191	1	-4
504.532	1	10
504.872	1	-5
505.213	1	-7
505.553	1	-1
505.894	1	5
506.234	1	11
506.575	1	10
506.915	1	5
507.256	1	8
507.596	1	10
507.936	1	8
508.277	1	5
508.617	1	1
508.958	1	10
509.298	1	-6
509.639	1	-13
509.979	1	-14
510.319	1	5
510.660	1	-5
511.000	1	1
511.341	1	5
511.681	1	0
512.022	1	-15
512.362	1	3
512.702	1	-4
513.043	1	10
513.383	1	-2
513.724	1	3
514.064	1	-2
514.404	1	9
514.745	1	-1
515.085	1	12
515.425	1	2
515.766	1	7
516.106	1	4
516.447	1	16
516.787	1	5
517.127	1	9
517.468	1	5
517.808	1	-9
518.148	1	11
518.489	1	0
518.829	1	5
519.169	1	-10
519.510	1	-4
519.850	1	10
520.190	1	1
520.531	1	1
520.871	1	5
521.211	1	13
521.552	1	2
521.892	1	8
522.232	1	-6
522.573	1	3
522.913	1	15
523.253	1	10
523.593	1	13
523.934	1	6
524.274	1	-2
524.614	1	3
524.955	1	6
525.295	1	12
525.635	1	2
525.975	1	0
526.316	1	-7
526.656	1	9
526.996	1	-8
527.337	1	15
527.677	1	13
528.017	1	0
528.357	1	3
528.698	1	5
529.038	1	5
529.378	1	1
529.718	1	5
530.058	1	7
530.399	1	-2
530.739	1	3
531.079	1	-3
531.419	1	6
531.760	1	8
532.100	1	10
532.440	1	12
532.780	1	4
533.120	1	5
533.461	1	-3
533.801	1	1
534.141	1	-4
534.481	1	15
534.821	1	7
535.162	1	4
535.502	1	7
535.842	1	-5
536.182	1	6
536.522	1	-2
536.862	1	8
537.203	1	2
537.543	1	8
537.883	1	0
538.223	1	19
538.563	1	-1
538.903	1	3
539.243	1	4
539.584	1	3
539.924	1	1
540.264	1	11
540.604	1	13
540.944	1	2
541.284	1	3
541.624	1	1
541.964	1	1
542.305	1	13
542.645	1	-5
542.985	1	-6
543.325	1	2
543.665	1	1
544.005	1	-4
544.345	1	11
544.685	1	-2
545.025	1	10
545.365	1	0
545.705	1	4
546.045	1	6
546.386	1	3
546.726	1	-7
547.066	1	-2
547.406	1	-6
547.746	1	-1
548.086	1	4
548.426	1	2
548.766	1	6
549.106	1	4
549.446	1	6
549.786	1	7
550.126	1	2
550.466	1	0
550.806	1	11
551.146	1	1
551.486	1	-3
551.826	1	-3
552.166	1	3
552.506	1	3
552.846	1	6
553.186	1	-5
553.526	1	2
553.866	1	-1
554.206	1	7
554.546	1	16
554.886	1	-5
555.226	1	6
555.566	1	9
555.906	1	0
556.246	1	6
556.586	1	5
556.926	1	4
557.266	1	-3
557.606	1	-9
557.946	1	6
558.286	1	-6
558.626	1	6
558.966	1	2
559.306	1	12
559.646	1	9
559.986	1	13
560.325	1	3
560.665	1	8
561.005	1	4
561.345	1	4
561.685	1	10
562.025	1	9
562.365	1	-2
562.705	1	7
563.045	1	-1
563.385	1	7
563.725	1	0
564.064	1	-4
564.404	1	-5
564.744	1	2
565.084	1	2
565.424	1	6
565.764	1	4
566.104	1	11
566.444	1	11
566.783	1	6
567.123	1	1
567.463	1	3
567.803	1	6
568.143	1	0
568.483	1	7
568.823	1	-6
569.162	1	-4
569.502	1	7
569.842	1	-3
570.182	1	-5
570.522	1	-7
570.862	1	-10
571.201	1	14
571.541	1	-1
571.881	1	-4
572.221	1	3
572.561	1	12
572.900	1	6
573.240	1	-3
573.580	1	7
573.920	1	11
574.260	1	-1
574.599	1	-2
574.939	1	1
575.279	1	-4
575.619	1	-2
575.959	1	-3
576.298	1	-10
576.638	1	14
576.978	1	1
577.318	1	-6
577.657	1	-11
577.997	1	7
578.337	1	0
578.677	1	3
579.016	1	-3
579.356	1	0
579.696	1	4
580.036	1	7
580.375	1	9
580.715	1	1
581.055	1	1
581.394	1	2
581.734	1	4
582.074	1	4
582.414	1	0
582.753	1	-4
583.093	1	6
583.433	1	8
583.772	1	16
584.112	1	5
584.452	1	4
584.791	1	-1
585.131	1	5
585.471	1	8
585.811	1	1
586.150	1	-1
586.490	1	0
586.830	1	-1
587.169	1	17
587.509	1	-4
587.849	1	0
588.188	1	0
588.528	1	-2
588.867	1	1
589.207	1	4
589.547	1	6
589.886	1	6
590.226	1	-2
590.566	1	-4
590.905	1	-4
591.245	1	-7
591.585	1	1
591.924	1	2
592.264	1	6
592.603	1	-6
592.943	1	-4
593.283	1	6
593.622	1	0
593.962	1	1
594.301	1	-2
594.641	1	-1
594.981	1	5
595.320	1	14
595.660	1	3
595.999	1	4
596.339	1	3
596.678	1	-12
597.018	1	-2
597.358	1	6
597.697	1	1
598.037	1	4
598.376	1	-13
598.716	1	8
599.055	1	9
599.395	1	-4
599.734	1	-2
600.074	1	-1
600.413	1	4
600.753	1	14
601.092	1	-10
601.432	1	-6
601.771	1	2
602.111	1	2
602.451	1	-3
602.790	1	7
603.130	1	6
603.469	1	7
603.809	1	4
604.148	1	-5
604.487	1	6
604.827	1	1
605.166	1	-3
605.506	1	-11
605.845	1	11
606.185	1	3
606.524	1	1
606.864	1	8
607.203	1	1
607.543	1	9
607.882	1	6
608.222	1	-2
608.561	1	-1
608.901	1	2
609.240	1	5
609.579	1	-7
609.919	1	0
610.258	1	13
610.598	1	-6
610.937	1	-7
611.277	1	0
611.616	1	12
611.955	1	-1
612.295	1	10
612.634	1	2
612.974	1	-6
613.313	1	4
613.652	1	8
613.992	1	-8
614.331	1	8
614.671	1	-2
615.010	1	-2
615.349	1	3
615.689	1	1
616.028	1	12
616.368	1	2
616.707	1	-1
617.046	1	-11
617.386	1	10
617.725	1	-5
618.064	1	-6
618.404	1	-3
618.743	1	9
619.082	1	19
619.422	1	17
619.761	1	-9
620.100	1	4
620.440	1	3
620.779	1	10
621.118	1	5
621.458	1	1
621.797	1	6
622.136	1	-10
622.476	1	-6
622.815	1	0
623.154	1	-6
623.494	1	-8
623.833	1	-3
624.172	1	7
624.511	1	0
624.851	1	-5
625.190	1	-8
625.529	1	-10
625.869	1	5
626.208	1	-5
626.547	1	-1
626.886	1	-4
627.226	1	8
627.565	1	8
627.904	1	2
628.243	1	11
628.583	1	4
628.922	1	16
629.261	1	-4
629.600	1	7
629.940	1	8
630.279	1	9
630.618	1	6
630.957	1	15
631.297	1	10
631.636	1	0
631.975	1	-1
632.314	1	0
632.653	1	2
632.993	1	6
633.332	1	3
633.671	1	8
634.010	1	-6
634.349	1	6
634.689	1	-3
635.028	1	-7
635.367	1	8
635.706	1	12
636.045	1	0
636.384	1	10
636.724	1	-4
637.063	1	0
637.402	1	5
637.741	1	2
638.080	1	2
638.419	1	-6
638.759	1	3
639.098	1	-4
639.437	1	11
639.776	1	1
640.115	1	-2
640.454	1	2
640.793	1	-5
641.132	1	-1
641.472	1	6
641.811	1	1
642.150	1	3
642.489	1	8
642.828	1	11
643.167	1	-4
643.506	1	2
643.845	1	-1
644.184	1	10
644.524	1	2
644.863	1	2
645.202	1	2
645.541	1	4
645.880	1	0
646.219	1	0
646.558	1	-3
646.897	1	-1
647.236	1	-9
647.575	1	12
647.914	1	3
648.253	1	3
648.592	1	6
648.931	1	12
649.270	1	6
649.610	1	7
649.949	1	-3
650.288	1	17
650.627	1	-1
650.966	1	8
651.305	1	3
651.644	1	12
651.983	1	-4
652.322	1	9
652.661	1	4
653.000	1	-1
653.339	1	2
653.678	1	-1
654.017	1	5
654.356	1	7
654.695	1	12
655.034	1	-4
655.373	1	-1
655.712	1	10
656.051	1	-3
656.390	1	2
656.729	1	1
657.068	1	-3
657.406	1	-4
657.745	1	3
658.084	1	4
658.423	1	13
658.762	1	4
659.101	1	0
659.440	1	8
659.779	1	6
660.118	1	0
660.457	1	3
660.796	1	13
661.135	1	7
661.474	1	2
661.813	1	-4
662.152	1	-4
662.491	1	-2
662.829	1	2
663.168	1	4
663.507	1	7
663.846	1	4
664.185	1	0
664.524	1	5
664.863	1	-10
665.202	1	2
665.541	1	4
665.879	1	7
666.218	1	5
666.557	1	3
666.896	1	11
667.235	1	-9
667.574	1	4
667.913	1	0
668.251	1	-7
668.590	1	-3
668.929	1	3
669.268	1	-3
669.607	1	-4
669.946	1	7
670.285	1	-2
670.623	1	6
670.962	1	-9
671.301	1	5
671.640	1	1
671.979	1	-2
672.317	1	-7
672.656	1	1
672.995	1	2
673.334	1	1
673.673	1	8
674.011	1	2
674.350	1	7
674.689	1	-2
675.028	1	8
675.367	1	6
675.705	1	0
676.044	1	-5
676.383	1	-1
676.722	1	0
677.060	1	3
677.399	1	9
677.738	1	-1
678.077	1	0
678.416	1	1
678.754	1	-1
679.093	1	7
679.432	1	5
679.771	1	1
680.109	1	2
680.448	1	-4
680.787	1	-8
681.125	1	3
681.464	1	6
681.803	1	-4
682.142	1	0
682.480	1	-11
682.819	1	-5
683.158	1	-2
683.496	1	-11
683.835	1	2
684.174	1	12
684.512	1	-8
684.851	1	2
685.190	1	-3
685.529	1	-8
685.867	1	2
686.206	1	-2
686.545	1	-7
686.883	1	5
687.222	1	1
687.561	1	-11
687.899	1	8
688.238	1	8
688.577	1	6
688.746	1	1