File: Data/GaN_150K_450ms/GaN_sample D_spot15_UVVIS_150 K_200um_450 ms 2x2mm1_80.txt
340.368	1	7
340.710	1	4
341.052	1	2
341.394	1	-4
341.737	1	14
342.079	1	12
342.421	1	5
342.763	1	8
343.105	1	12
343.447	1	5
343.789	1	8
344.131	1	-10
344.473	1	14
344.815	1	7
345.157	1	10
345.499	1	-2
345.841	1	12
346.183	1	6
346.526	1	14
346.868	1	-9
347.210	1	0
347.552	1	21
347.894	1	2
348.236	1	13
348.578	1	8
348.920	1	10
349.262	1	5
349.604	1	5
349.946	1	2
350.288	1	2
350.630	1	-3
350.972	1	14
351.314	1	-1
351.656	1	15
351.998	1	5
352.340	1	11
352.682	1	-2
353.024	1	22
353.366	1	8
353.708	1	15
354.050	1	9
354.392	1	3
354.734	1	16
355.076	1	19
355.418	1	9
355.760	1	6
356.102	1	10
356.444	1	24
356.785	1	21
357.127	1	25
357.469	1	17
357.811	1	9
358.153	1	5
358.495	1	12
358.837	1	31
359.179	1	23
359.521	1	33
359.863	1	24
360.205	1	30
360.547	1	25
360.889	1	34
361.231	1	37
361.572	1	41
361.914	1	52
362.256	1	55
362.598	1	60
362.940	1	57
363.282	1	62
363.624	1	67
363.966	1	65
364.308	1	92
364.649	1	92
364.991	1	91
365.333	1	104
365.675	1	135
366.017	1	135
366.359	1	130
366.701	1	150
367.042	1	161
367.384	1	152
367.726	1	170
368.068	1	170
368.410	1	176
368.752	1	174
369.093	1	177
369.435	1	162
369.777	1	172
370.119	1	149
370.461	1	134
370.803	1	127
371.144	1	124
371.486	1	112
371.828	1	106
372.170	1	111
372.512	1	92
372.853	1	108
373.195	1	91
373.537	1	79
373.879	1	80
374.220	1	96
374.562	1	87
374.904	1	68
375.246	1	71
375.588	1	66
375.929	1	66
376.271	1	70
376.613	1	62
376.955	1	56
377.296	1	62
377.638	1	57
377.980	1	43
378.321	1	64
378.663	1	45
379.005	1	38
379.347	1	38
379.688	1	49
380.030	1	48
380.372	1	48
380.714	1	34
381.055	1	34
381.397	1	33
381.739	1	27
382.080	1	36
382.422	1	37
382.764	1	25
383.105	1	31
383.447	1	29
383.789	1	25
384.130	1	36
384.472	1	21
384.814	1	21
385.156	1	33
385.497	1	32
385.839	1	21
386.180	1	33
386.522	1	27
386.864	1	19
387.205	1	31
387.547	1	33
387.889	1	24
388.230	1	22
388.572	1	12
388.914	1	29
389.255	1	27
389.597	1	20
389.939	1	34
390.280	1	18
390.622	1	10
390.963	1	7
391.305	1	12
391.647	1	13
391.988	1	20
392.330	1	21
392.671	1	18
393.013	1	22
393.355	1	34
393.696	1	17
394.038	1	15
394.379	1	18
394.721	1	13
395.062	1	12
395.404	1	16
395.746	1	2
396.087	1	21
396.429	1	14
396.770	1	16
397.112	1	16
397.453	1	12
397.795	1	9
398.136	1	15
398.478	1	10
398.819	1	24
399.161	1	19
399.503	1	21
399.844	1	12
400.186	1	12
400.527	1	14
400.869	1	13
401.210	1	14
401.552	1	21
401.893	1	17
402.235	1	27
402.576	1	20
402.918	1	4
403.259	1	10
403.601	1	27
403.942	1	15
404.284	1	25
404.625	1	6
404.967	1	18
405.308	1	4
405.649	1	23
405.991	1	21
406.332	1	8
406.674	1	12
407.015	1	26
407.357	1	20
407.698	1	31
408.040	1	18
408.381	1	19
408.722	1	14
409.064	1	21
409.405	1	17
409.747	1	19
410.088	1	19
410.430	1	23
410.771	1	18
411.112	1	16
411.454	1	23
411.795	1	13
412.137	1	17
412.478	1	19
412.819	1	21
413.161	1	10
413.502	1	20
413.844	1	21
414.185	1	11
414.526	1	7
414.868	1	15
415.209	1	12
415.550	1	22
415.892	1	30
416.233	1	19
416.575	1	5
416.916	1	7
417.257	1	14
417.599	1	8
417.940	1	20
418.281	1	21
418.623	1	20
418.964	1	35
419.305	1	17
419.647	1	22
419.988	1	34
420.329	1	27
420.671	1	27
421.012	1	15
421.353	1	15
421.695	1	18
422.036	1	27
422.377	1	18
422.718	1	17
423.060	1	19
423.401	1	21
423.742	1	27
424.084	1	20
424.425	1	18
424.766	1	13
425.107	1	20
425.449	1	16
425.790	1	21
426.131	1	14
426.472	1	21
426.814	1	13
427.155	1	9
427.496	1	21
427.837	1	21
428.179	1	32
428.520	1	12
428.861	1	23
429.202	1	8
429.544	1	18
429.885	1	21
430.226	1	5
430.567	1	7
430.909	1	12
431.250	1	23
431.591	1	18
431.932	1	10
432.273	1	19
432.615	1	17
432.956	1	12
433.297	1	16
433.638	1	14
433.979	1	12
434.320	1	12
434.662	1	23
435.003	1	24
435.344	1	15
435.685	1	11
436.026	1	12
436.368	1	11
436.709	1	20
437.050	1	8
437.391	1	9
437.732	1	21
438.073	1	6
438.414	1	25
438.756	1	18
439.097	1	19
439.438	1	12
439.779	1	4
440.120	1	14
440.461	1	14
440.802	1	17
441.143	1	19
441.485	1	17
441.826	1	10
442.167	1	23
442.508	1	12
442.849	1	12
443.190	1	16
443.531	1	15
443.872	1	11
444.213	1	8
444.554	1	10
444.895	1	14
445.237	1	19
445.578	1	7
445.919	1	11
446.260	1	16
446.601	1	13
446.942	1	3
447.283	1	21
447.624	1	-2
447.965	1	13
448.306	1	15
448.647	1	15
448.988	1	18
449.329	1	11
449.670	1	17
450.011	1	11
450.352	1	13
450.693	1	22
451.034	1	8
451.375	1	12
451.716	1	8
452.057	1	17
452.398	1	19
452.739	1	13
453.080	1	14
453.421	1	33
453.762	1	23
454.103	1	11
454.444	1	14
454.785	1	13
455.126	1	18
455.467	1	11
455.808	1	21
456.149	1	-2
456.490	1	11
456.831	1	7
457.172	1	17
457.513	1	9
457.854	1	11
458.195	1	4
458.536	1	12
458.877	1	9
459.218	1	11
459.559	1	13
459.899	1	8
460.240	1	12
460.581	1	9
460.922	1	9
461.263	1	15
461.604	1	12
461.945	1	11
462.286	1	2
462.627	1	6
462.968	1	18
463.309	1	7
463.649	1	3
463.990	1	12
464.331	1	19
464.672	1	2
465.013	1	11
465.354	1	12
465.695	1	15
466.036	1	13
466.376	1	19
466.717	1	-8
467.058	1	16
467.399	1	12
467.740	1	23
468.081	1	16
468.422	1	14
468.762	1	13
469.103	1	16
469.444	1	18
469.785	1	13
470.126	1	14
470.467	1	6
470.807	1	14
471.148	1	1
471.489	1	15
471.830	1	11
472.171	1	13
472.511	1	3
472.852	1	29
473.193	1	9
473.534	1	7
473.875	1	8
474.215	1	13
474.556	1	4
474.897	1	7
475.238	1	23
475.578	1	1
475.919	1	6
476.260	1	3
476.601	1	5
476.942	1	2
477.282	1	8
477.623	1	5
477.964	1	13
478.305	1	22
478.645	1	15
478.986	1	12
479.327	1	14
479.667	1	6
480.008	1	18
480.349	1	4
480.690	1	19
481.030	1	13
481.371	1	-1
481.712	1	24
482.053	1	12
482.393	1	14
482.734	1	14
483.075	1	11
483.415	1	10
483.756	1	12
484.097	1	19
484.437	1	19
484.778	1	6
485.119	1	10
485.459	1	4
485.800	1	8
486.141	1	14
486.481	1	-7
486.822	1	26
487.163	1	4
487.503	1	10
487.844	1	4
488.185	1	19
488.525	1	9
488.866	1	9
489.207	1	18
489.547	1	21
489.888	1	8
490.228	1	15
490.569	1	6
490.910	1	22
491.250	1	27
491.591	1	13
491.932	1	23
492.272	1	6
492.613	1	11
492.953	1	19
493.294	1	11
493.635	1	14
493.975	1	26
494.316	1	16
494.656	1	26
494.997	1	15
495.337	1	7
495.678	1	26
496.019	1	20
496.359	1	19
496.700	1	17
497.040	1	16
497.381	1	14
497.721	1	14
498.062	1	24
498.403	1	26
498.743	1	20
499.084	1	17
499.424	1	16
499.765	1	18
500.105	1	42
500.446	1	11
500.786	1	16
501.127	1	32
501.467	1	25
501.808	1	34
502.148	1	23
502.489	1	22
502.829	1	27
503.170	1	33
503.510	1	28
503.851	1	32
504.191	1	25
504.532	1	36
504.872	1	27
505.213	1	25
505.553	1	35
505.894	1	25
506.234	1	32
506.575	1	46
506.915	1	38
507.256	1	33
507.596	1	42
507.936	1	37
508.277	1	36
508.617	1	40
508.958	1	40
509.298	1	31
509.639	1	33
509.979	1	27
510.319	1	26
510.660	1	30
511.000	1	42
511.341	1	49
511.681	1	41
512.022	1	25
512.362	1	40
512.702	1	25
513.043	1	33
513.383	1	36
513.724	1	40
514.064	1	33
514.404	1	34
514.745	1	47
515.085	1	41
515.425	1	36
515.766	1	30
516.106	1	32
516.447	1	41
516.787	1	40
517.127	1	39
517.468	1	46
517.808	1	43
518.148	1	43
518.489	1	38
518.829	1	41
519.169	1	38
519.510	1	38
519.850	1	34
520.190	1	39
520.531	1	42
520.871	1	45
521.211	1	41
521.552	1	37
521.892	1	46
522.232	1	44
522.573	1	54
522.913	1	45
523.253	1	53
523.593	1	53
523.934	1	50
524.274	1	38
524.614	1	47
524.955	1	42
525.295	1	45
525.635	1	44
525.975	1	52
526.316	1	32
526.656	1	54
526.996	1	45
527.337	1	50
527.677	1	56
528.017	1	35
528.357	1	48
528.698	1	47
529.038	1	39
529.378	1	38
529.718	1	41
530.058	1	47
530.399	1	40
530.739	1	45
531.079	1	44
531.419	1	42
531.760	1	54
532.100	1	49
532.440	1	48
532.780	1	42
533.120	1	44
533.461	1	45
533.801	1	38
534.141	1	47
534.481	1	57
534.821	1	48
535.162	1	49
535.502	1	45
535.842	1	37
536.182	1	32
536.522	1	33
536.862	1	39
537.203	1	38
537.543	1	50
537.883	1	51
538.223	1	47
538.563	1	43
538.903	1	28
539.243	1	40
539.584	1	41
539.924	1	38
540.264	1	49
540.604	1	51
540.944	1	38
541.284	1	36
541.624	1	42
541.964	1	35
542.305	1	48
542.645	1	33
542.985	1	43
543.325	1	48
543.665	1	40
544.005	1	29
544.345	1	34
544.685	1	30
545.025	1	47
545.365	1	35
545.705	1	40
546.045	1	41
546.386	1	34
546.726	1	33
547.066	1	38
547.406	1	41
547.746	1	37
548.086	1	42
548.426	1	43
548.766	1	52
549.106	1	45
549.446	1	47
549.786	1	37
550.126	1	44
550.466	1	35
550.806	1	45
551.146	1	35
551.486	1	37
551.826	1	33
552.166	1	39
552.506	1	35
552.846	1	39
553.186	1	33
553.526	1	42
553.866	1	30
554.206	1	42
554.546	1	38
554.886	1	32
555.226	1	38
555.566	1	41
555.906	1	33
556.246	1	30
556.586	1	30
556.926	1	25
557.266	1	31
557.606	1	28
557.946	1	35
558.286	1	25
558.626	1	23
558.966	1	27
559.306	1	35
559.646	1	25
559.986	1	36
560.325	1	30
560.665	1	26
561.005	1	27
561.345	1	25
561.685	1	26
562.025	1	26
562.365	1	34
562.705	1	33
563.045	1	26
563.385	1	32
563.725	1	27
564.064	1	27
564.404	1	11
564.744	1	33
565.084	1	34
565.424	1	24
565.764	1	29
566.104	1	35
566.444	1	25
566.783	1	17
567.123	1	22
567.463	1	37
567.803	1	25
568.143	1	22
568.483	1	42
568.823	1	16
569.162	1	24
569.502	1	30
569.842	1	20
570.182	1	22
570.522	1	17
570.862	1	11
571.201	1	27
571.541	1	22
571.881	1	12
572.221	1	24
572.561	1	22
572.900	1	20
573.240	1	17
573.580	1	26
573.920	1	26
574.260	1	24
574.599	1	22
574.939	1	15
575.279	1	14
575.619	1	10
575.959	1	15
576.298	1	9
576.638	1	26
576.978	1	20
577.318	1	28
577.657	1	12
577.997	1	8
578.337	1	19
578.677	1	16
579.016	1	20
579.356	1	17
579.696	1	23
580.036	1	20
580.375	1	12
580.715	1	17
581.055	1	14
581.394	1	12
581.734	1	20
582.074	1	19
582.414	1	8
582.753	1	20
583.093	1	18
583.433	1	13
583.772	1	27
584.112	1	24
584.452	1	20
584.791	1	19
585.131	1	15
585.471	1	9
585.811	1	16
586.150	1	15
586.490	1	3
586.830	1	12
587.169	1	14
587.509	1	15
587.849	1	19
588.188	1	18
588.528	1	9
588.867	1	12
589.207	1	18
589.547	1	20
589.886	1	14
590.226	1	11
590.566	1	15
590.905	1	10
591.245	1	5
591.585	1	8
591.924	1	15
592.264	1	7
592.603	1	-1
592.943	1	13
593.283	1	9
593.622	1	13
593.962	1	25
594.301	1	8
594.641	1	17
594.981	1	16
595.320	1	16
595.660	1	4
595.999	1	10
596.339	1	11
596.678	1	7
597.018	1	7
597.358	1	17
597.697	1	3
598.037	1	11
598.376	1	8
598.716	1	15
599.055	1	11
599.395	1	2
599.734	1	1
600.074	1	9
600.413	1	16
600.753	1	22
601.092	1	6
601.432	1	-5
601.771	1	14
602.111	1	13
602.451	1	1
602.790	1	8
603.130	1	11
603.469	1	5
603.809	1	6
604.148	1	6
604.487	1	17
604.827	1	7
605.166	1	20
605.506	1	-2
605.845	1	20
606.185	1	6
606.524	1	20
606.864	1	10
607.203	1	18
607.543	1	9
607.882	1	21
608.222	1	12
608.561	1	13
608.901	1	17
609.240	1	9
609.579	1	7
609.919	1	-3
610.258	1	22
610.598	1	2
610.937	1	13
611.277	1	17
611.616	1	20
611.955	1	11
612.295	1	6
612.634	1	5
612.974	1	9
613.313	1	10
613.652	1	24
613.992	1	3
614.331	1	19
614.671	1	17
615.010	1	7
615.349	1	11
615.689	1	8
616.028	1	16
616.368	1	21
616.707	1	14
617.046	1	12
617.386	1	16
617.725	1	3
618.064	1	4
618.404	1	4
618.743	1	18
619.082	1	16
619.422	1	25
619.761	1	6
620.100	1	13
620.440	1	21
620.779	1	13
621.118	1	12
621.458	1	1
621.797	1	6
622.136	1	-2
622.476	1	6
622.815	1	14
623.154	1	8
623.494	1	3
623.833	1	-2
624.172	1	7
624.511	1	4
624.851	1	8
625.190	1	1
625.529	1	8
625.869	1	11
626.208	1	3
626.547	1	9
626.886	1	5
627.226	1	7
627.565	1	16
627.904	1	4
628.243	1	13
628.583	1	13
628.922	1	14
629.261	1	9
629.600	1	9
629.940	1	17
630.279	1	20
630.618	1	13
630.957	1	14
631.297	1	9
631.636	1	6
631.975	1	11
632.314	1	7
632.653	1	13
632.993	1	3
633.332	1	10
633.671	1	10
634.010	1	12
634.349	1	20
634.689	1	-2
635.028	1	4
635.367	1	13
635.706	1	5
636.045	1	-9
636.384	1	11
636.724	1	4
637.063	1	7
637.402	1	15
637.741	1	5
638.080	1	11
638.419	1	8
638.759	1	15
639.098	1	1
639.437	1	-2
639.776	1	10
640.115	1	1
640.454	1	1
640.793	1	9
641.132	1	9
641.472	1	17
641.811	1	8
642.150	1	-3
642.489	1	11
642.828	1	23
643.167	1	6
643.506	1	5
643.845	1	21
644.184	1	12
644.524	1	13
644.863	1	20
645.202	1	9
645.541	1	3
645.880	1	7
646.219	1	9
646.558	1	-1
646.897	1	-4
647.236	1	-2
647.575	1	6
647.914	1	14
648.253	1	21
648.592	1	17
648.931	1	6
649.270	1	10
649.610	1	7
649.949	1	2
650.288	1	10
650.627	1	1
650.966	1	13
651.305	1	16
651.644	1	12
651.983	1	-2
652.322	1	4
652.661	1	13
653.000	1	8
653.339	1	6
653.678	1	11
654.017	1	16
654.356	1	11
654.695	1	21
655.034	1	7
655.373	1	7
655.712	1	15
656.051	1	-3
656.390	1	5
656.729	1	19
657.068	1	14
657.406	1	-6
657.745	1	10
658.084	1	12
658.423	1	8
658.762	1	-2
659.101	1	4
659.440	1	2
659.779	1	8
660.118	1	6
660.457	1	7
660.796	1	2
661.135	1	10
661.474	1	5
661.813	1	3
662.152	1	5
662.491	1	3
662.829	1	9
663.168	1	12
663.507	1	15
663.846	1	8
664.185	1	4
664.524	1	11
664.863	1	-2
665.202	1	4
665.541	1	5
665.879	1	10
666.218	1	6
666.557	1	-2
666.896	1	12
667.235	1	-3
667.574	1	-6
667.913	1	8
668.251	1	-5
668.590	1	12
668.929	1	6
669.268	1	3
669.607	1	2
669.946	1	9
670.285	1	2
670.623	1	6
670.962	1	-3
671.301	1	5
671.640	1	11
671.979	1	-2
672.317	1	6
672.656	1	14
672.995	1	1
673.334	1	0
673.673	1	24
674.011	1	14
674.350	1	6
674.689	1	-2
675.028	1	10
675.367	1	8
675.705	1	6
676.044	1	-5
676.383	1	4
676.722	1	3
677.060	1	12
677.399	1	14
677.738	1	1
678.077	1	3
678.416	1	7
678.754	1	6
679.093	1	8
679.432	1	3
679.771	1	8
680.109	1	14
680.448	1	4
680.787	1	-3
681.125	1	-2
681.464	1	16
681.803	1	2
682.142	1	6
682.480	1	3
682.819	1	10
683.158	1	2
683.496	1	6
683.835	1	9
684.174	1	12
684.512	1	8
684.851	1	-1
685.190	1	9
685.529	1	10
685.867	1	7
686.206	1	-2
686.545	1	10
686.883	1	15
687.222	1	0
687.561	1	9
687.899	1	10
688.238	1	17
688.577	1	5
688.746	1	13