File: Data/GaN_150K_450ms/GaN_sample D_spot15_UVVIS_150 K_200um_450 ms 2x2mm1_105.txt
340.368	1	8
340.710	1	3
341.052	1	8
341.394	1	-13
341.737	1	3
342.079	1	9
342.421	1	5
342.763	1	5
343.105	1	7
343.447	1	5
343.789	1	15
344.131	1	-5
344.473	1	3
344.815	1	9
345.157	1	14
345.499	1	6
345.841	1	11
346.183	1	0
346.526	1	4
346.868	1	2
347.210	1	-1
347.552	1	14
347.894	1	-1
348.236	1	6
348.578	1	-2
348.920	1	4
349.262	1	18
349.604	1	7
349.946	1	10
350.288	1	1
350.630	1	7
350.972	1	19
351.314	1	9
351.656	1	17
351.998	1	2
352.340	1	2
352.682	1	-1
353.024	1	16
353.366	1	9
353.708	1	10
354.050	1	-7
354.392	1	-6
354.734	1	12
355.076	1	20
355.418	1	5
355.760	1	13
356.102	1	4
356.444	1	16
356.785	1	20
357.127	1	14
357.469	1	13
357.811	1	14
358.153	1	0
358.495	1	9
358.837	1	16
359.179	1	17
359.521	1	23
359.863	1	16
360.205	1	19
360.547	1	26
360.889	1	20
361.231	1	21
361.572	1	26
361.914	1	27
362.256	1	33
362.598	1	54
362.940	1	20
363.282	1	35
363.624	1	38
363.966	1	44
364.308	1	45
364.649	1	44
364.991	1	62
365.333	1	49
365.675	1	76
366.017	1	70
366.359	1	69
366.701	1	70
367.042	1	77
367.384	1	72
367.726	1	79
368.068	1	89
368.410	1	87
368.752	1	90
369.093	1	76
369.435	1	91
369.777	1	97
370.119	1	77
370.461	1	74
370.803	1	64
371.144	1	56
371.486	1	71
371.828	1	65
372.170	1	63
372.512	1	44
372.853	1	62
373.195	1	46
373.537	1	40
373.879	1	45
374.220	1	44
374.562	1	53
374.904	1	44
375.246	1	37
375.588	1	30
375.929	1	35
376.271	1	38
376.613	1	37
376.955	1	31
377.296	1	32
377.638	1	27
377.980	1	22
378.321	1	27
378.663	1	39
379.005	1	17
379.347	1	25
379.688	1	31
380.030	1	32
380.372	1	26
380.714	1	21
381.055	1	15
381.397	1	14
381.739	1	21
382.080	1	23
382.422	1	25
382.764	1	21
383.105	1	23
383.447	1	15
383.789	1	7
384.130	1	17
384.472	1	11
384.814	1	12
385.156	1	4
385.497	1	22
385.839	1	23
386.180	1	9
386.522	1	25
386.864	1	12
387.205	1	15
387.547	1	10
387.889	1	6
388.230	1	16
388.572	1	1
388.914	1	14
389.255	1	13
389.597	1	11
389.939	1	20
390.280	1	13
390.622	1	8
390.963	1	11
391.305	1	9
391.647	1	10
391.988	1	11
392.330	1	16
392.671	1	18
393.013	1	10
393.355	1	26
393.696	1	15
394.038	1	21
394.379	1	6
394.721	1	4
395.062	1	2
395.404	1	11
395.746	1	-2
396.087	1	13
396.429	1	11
396.770	1	18
397.112	1	10
397.453	1	8
397.795	1	7
398.136	1	8
398.478	1	14
398.819	1	15
399.161	1	8
399.503	1	22
399.844	1	2
400.186	1	7
400.527	1	15
400.869	1	14
401.210	1	10
401.552	1	11
401.893	1	9
402.235	1	21
402.576	1	2
402.918	1	5
403.259	1	15
403.601	1	15
403.942	1	12
404.284	1	14
404.625	1	4
404.967	1	18
405.308	1	3
405.649	1	8
405.991	1	14
406.332	1	16
406.674	1	13
407.015	1	16
407.357	1	14
407.698	1	9
408.040	1	17
408.381	1	1
408.722	1	13
409.064	1	20
409.405	1	3
409.747	1	5
410.088	1	21
410.430	1	21
410.771	1	9
411.112	1	18
411.454	1	11
411.795	1	20
412.137	1	8
412.478	1	19
412.819	1	17
413.161	1	28
413.502	1	16
413.844	1	14
414.185	1	12
414.526	1	6
414.868	1	11
415.209	1	15
415.550	1	23
415.892	1	21
416.233	1	22
416.575	1	5
416.916	1	10
417.257	1	10
417.599	1	21
417.940	1	1
418.281	1	19
418.623	1	26
418.964	1	33
419.305	1	21
419.647	1	14
419.988	1	21
420.329	1	21
420.671	1	22
421.012	1	15
421.353	1	19
421.695	1	15
422.036	1	15
422.377	1	6
422.718	1	17
423.060	1	23
423.401	1	8
423.742	1	27
424.084	1	10
424.425	1	20
424.766	1	9
425.107	1	19
425.449	1	10
425.790	1	9
426.131	1	15
426.472	1	23
426.814	1	6
427.155	1	21
427.496	1	12
427.837	1	11
428.179	1	22
428.520	1	12
428.861	1	20
429.202	1	-2
429.544	1	19
429.885	1	25
430.226	1	1
430.567	1	1
430.909	1	3
431.250	1	19
431.591	1	12
431.932	1	9
432.273	1	23
432.615	1	3
432.956	1	13
433.297	1	20
433.638	1	16
433.979	1	12
434.320	1	15
434.662	1	13
435.003	1	13
435.344	1	11
435.685	1	-4
436.026	1	10
436.368	1	9
436.709	1	11
437.050	1	15
437.391	1	17
437.732	1	3
438.073	1	9
438.414	1	17
438.756	1	15
439.097	1	10
439.438	1	13
439.779	1	5
440.120	1	9
440.461	1	7
440.802	1	13
441.143	1	20
441.485	1	4
441.826	1	14
442.167	1	19
442.508	1	22
442.849	1	14
443.190	1	18
443.531	1	7
443.872	1	0
444.213	1	-1
444.554	1	19
444.895	1	0
445.237	1	18
445.578	1	2
445.919	1	12
446.260	1	16
446.601	1	11
446.942	1	5
447.283	1	8
447.624	1	-2
447.965	1	4
448.306	1	6
448.647	1	7
448.988	1	4
449.329	1	16
449.670	1	10
450.011	1	4
450.352	1	-4
450.693	1	17
451.034	1	3
451.375	1	6
451.716	1	13
452.057	1	5
452.398	1	20
452.739	1	7
453.080	1	10
453.421	1	20
453.762	1	20
454.103	1	9
454.444	1	2
454.785	1	14
455.126	1	4
455.467	1	4
455.808	1	20
456.149	1	1
456.490	1	5
456.831	1	8
457.172	1	10
457.513	1	2
457.854	1	5
458.195	1	6
458.536	1	8
458.877	1	4
459.218	1	8
459.559	1	12
459.899	1	4
460.240	1	0
460.581	1	-4
460.922	1	8
461.263	1	13
461.604	1	11
461.945	1	13
462.286	1	7
462.627	1	8
462.968	1	14
463.309	1	10
463.649	1	3
463.990	1	3
464.331	1	14
464.672	1	13
465.013	1	-2
465.354	1	14
465.695	1	10
466.036	1	12
466.376	1	7
466.717	1	-2
467.058	1	16
467.399	1	4
467.740	1	16
468.081	1	4
468.422	1	13
468.762	1	13
469.103	1	11
469.444	1	10
469.785	1	0
470.126	1	13
470.467	1	1
470.807	1	3
471.148	1	2
471.489	1	0
471.830	1	8
472.171	1	9
472.511	1	12
472.852	1	10
473.193	1	10
473.534	1	10
473.875	1	4
474.215	1	16
474.556	1	-5
474.897	1	2
475.238	1	7
475.578	1	3
475.919	1	1
476.260	1	3
476.601	1	0
476.942	1	11
477.282	1	3
477.623	1	7
477.964	1	8
478.305	1	12
478.645	1	15
478.986	1	17
479.327	1	5
479.667	1	3
480.008	1	15
480.349	1	0
480.690	1	13
481.030	1	6
481.371	1	-8
481.712	1	10
482.053	1	8
482.393	1	9
482.734	1	12
483.075	1	14
483.415	1	0
483.756	1	16
484.097	1	15
484.437	1	14
484.778	1	5
485.119	1	4
485.459	1	-2
485.800	1	4
486.141	1	14
486.481	1	-1
486.822	1	19
487.163	1	-6
487.503	1	3
487.844	1	-2
488.185	1	17
488.525	1	0
488.866	1	3
489.207	1	11
489.547	1	11
489.888	1	17
490.228	1	11
490.569	1	2
490.910	1	21
491.250	1	5
491.591	1	14
491.932	1	21
492.272	1	1
492.613	1	10
492.953	1	7
493.294	1	-5
493.635	1	13
493.975	1	27
494.316	1	18
494.656	1	14
494.997	1	9
495.337	1	12
495.678	1	10
496.019	1	9
496.359	1	10
496.700	1	8
497.040	1	10
497.381	1	16
497.721	1	-1
498.062	1	5
498.403	1	12
498.743	1	13
499.084	1	8
499.424	1	11
499.765	1	15
500.105	1	20
500.446	1	0
500.786	1	8
501.127	1	13
501.467	1	19
501.808	1	12
502.148	1	6
502.489	1	11
502.829	1	7
503.170	1	16
503.510	1	19
503.851	1	20
504.191	1	15
504.532	1	31
504.872	1	17
505.213	1	6
505.553	1	9
505.894	1	19
506.234	1	16
506.575	1	27
506.915	1	17
507.256	1	26
507.596	1	18
507.936	1	30
508.277	1	22
508.617	1	15
508.958	1	18
509.298	1	11
509.639	1	14
509.979	1	17
510.319	1	21
510.660	1	17
511.000	1	17
511.341	1	34
511.681	1	20
512.022	1	8
512.362	1	21
512.702	1	12
513.043	1	23
513.383	1	17
513.724	1	20
514.064	1	16
514.404	1	30
514.745	1	10
515.085	1	17
515.425	1	16
515.766	1	21
516.106	1	16
516.447	1	32
516.787	1	13
517.127	1	26
517.468	1	30
517.808	1	22
518.148	1	25
518.489	1	18
518.829	1	18
519.169	1	21
519.510	1	3
519.850	1	26
520.190	1	20
520.531	1	23
520.871	1	12
521.211	1	27
521.552	1	9
521.892	1	27
522.232	1	21
522.573	1	31
522.913	1	21
523.253	1	22
523.593	1	27
523.934	1	25
524.274	1	21
524.614	1	20
524.955	1	25
525.295	1	17
525.635	1	20
525.975	1	14
526.316	1	16
526.656	1	19
526.996	1	24
527.337	1	33
527.677	1	29
528.017	1	25
528.357	1	33
528.698	1	25
529.038	1	23
529.378	1	31
529.718	1	23
530.058	1	22
530.399	1	30
530.739	1	27
531.079	1	15
531.419	1	18
531.760	1	19
532.100	1	25
532.440	1	35
532.780	1	20
533.120	1	28
533.461	1	13
533.801	1	22
534.141	1	27
534.481	1	27
534.821	1	19
535.162	1	24
535.502	1	19
535.842	1	19
536.182	1	14
536.522	1	20
536.862	1	21
537.203	1	15
537.543	1	22
537.883	1	18
538.223	1	33
538.563	1	14
538.903	1	21
539.243	1	29
539.584	1	11
539.924	1	22
540.264	1	28
540.604	1	24
540.944	1	28
541.284	1	22
541.624	1	20
541.964	1	22
542.305	1	20
542.645	1	16
542.985	1	21
543.325	1	24
543.665	1	17
544.005	1	20
544.345	1	20
544.685	1	9
545.025	1	17
545.365	1	16
545.705	1	21
546.045	1	25
546.386	1	10
546.726	1	10
547.066	1	21
547.406	1	11
547.746	1	16
548.086	1	22
548.426	1	12
548.766	1	16
549.106	1	19
549.446	1	21
549.786	1	20
550.126	1	20
550.466	1	16
550.806	1	25
551.146	1	21
551.486	1	12
551.826	1	14
552.166	1	12
552.506	1	18
552.846	1	24
553.186	1	8
553.526	1	14
553.866	1	18
554.206	1	19
554.546	1	12
554.886	1	19
555.226	1	16
555.566	1	16
555.906	1	17
556.246	1	21
556.586	1	9
556.926	1	19
557.266	1	23
557.606	1	7
557.946	1	22
558.286	1	6
558.626	1	21
558.966	1	5
559.306	1	12
559.646	1	17
559.986	1	13
560.325	1	17
560.665	1	12
561.005	1	10
561.345	1	13
561.685	1	20
562.025	1	7
562.365	1	8
562.705	1	7
563.045	1	17
563.385	1	20
563.725	1	11
564.064	1	8
564.404	1	11
564.744	1	11
565.084	1	19
565.424	1	15
565.764	1	9
566.104	1	20
566.444	1	26
566.783	1	19
567.123	1	7
567.463	1	19
567.803	1	20
568.143	1	11
568.483	1	19
568.823	1	24
569.162	1	7
569.502	1	11
569.842	1	10
570.182	1	6
570.522	1	1
570.862	1	-2
571.201	1	13
571.541	1	12
571.881	1	11
572.221	1	14
572.561	1	15
572.900	1	24
573.240	1	6
573.580	1	21
573.920	1	17
574.260	1	10
574.599	1	16
574.939	1	7
575.279	1	1
575.619	1	2
575.959	1	12
576.298	1	0
576.638	1	10
576.978	1	19
577.318	1	12
577.657	1	7
577.997	1	18
578.337	1	7
578.677	1	7
579.016	1	7
579.356	1	22
579.696	1	11
580.036	1	17
580.375	1	11
580.715	1	12
581.055	1	9
581.394	1	11
581.734	1	10
582.074	1	6
582.414	1	10
582.753	1	6
583.093	1	7
583.433	1	18
583.772	1	17
584.112	1	9
584.452	1	16
584.791	1	17
585.131	1	12
585.471	1	8
585.811	1	13
586.150	1	16
586.490	1	13
586.830	1	7
587.169	1	10
587.509	1	3
587.849	1	25
588.188	1	22
588.528	1	2
588.867	1	10
589.207	1	18
589.547	1	14
589.886	1	8
590.226	1	2
590.566	1	11
590.905	1	8
591.245	1	0
591.585	1	-1
591.924	1	5
592.264	1	3
592.603	1	-5
592.943	1	4
593.283	1	12
593.622	1	-1
593.962	1	15
594.301	1	6
594.641	1	17
594.981	1	10
595.320	1	12
595.660	1	13
595.999	1	14
596.339	1	8
596.678	1	-7
597.018	1	-1
597.358	1	6
597.697	1	0
598.037	1	6
598.376	1	4
598.716	1	13
599.055	1	19
599.395	1	-3
599.734	1	9
600.074	1	1
600.413	1	12
600.753	1	12
601.092	1	-9
601.432	1	5
601.771	1	12
602.111	1	4
602.451	1	7
602.790	1	7
603.130	1	6
603.469	1	7
603.809	1	7
604.148	1	10
604.487	1	-2
604.827	1	12
605.166	1	7
605.506	1	2
605.845	1	20
606.185	1	2
606.524	1	2
606.864	1	9
607.203	1	12
607.543	1	12
607.882	1	6
608.222	1	9
608.561	1	9
608.901	1	12
609.240	1	12
609.579	1	-3
609.919	1	2
610.258	1	16
610.598	1	6
610.937	1	-1
611.277	1	9
611.616	1	15
611.955	1	-1
612.295	1	7
612.634	1	6
612.974	1	6
613.313	1	15
613.652	1	4
613.992	1	6
614.331	1	13
614.671	1	13
615.010	1	13
615.349	1	7
615.689	1	10
616.028	1	22
616.368	1	19
616.707	1	8
617.046	1	3
617.386	1	6
617.725	1	2
618.064	1	2
618.404	1	3
618.743	1	11
619.082	1	18
619.422	1	22
619.761	1	1
620.100	1	0
620.440	1	8
620.779	1	7
621.118	1	18
621.458	1	7
621.797	1	15
622.136	1	8
622.476	1	-2
622.815	1	11
623.154	1	9
623.494	1	-4
623.833	1	9
624.172	1	4
624.511	1	6
624.851	1	0
625.190	1	0
625.529	1	0
625.869	1	9
626.208	1	1
626.547	1	0
626.886	1	8
627.226	1	7
627.565	1	10
627.904	1	0
628.243	1	6
628.583	1	11
628.922	1	24
629.261	1	2
629.600	1	1
629.940	1	11
630.279	1	14
630.618	1	7
630.957	1	14
631.297	1	2
631.636	1	6
631.975	1	7
632.314	1	11
632.653	1	0
632.993	1	6
633.332	1	5
633.671	1	15
634.010	1	5
634.349	1	10
634.689	1	-5
635.028	1	-1
635.367	1	3
635.706	1	-4
636.045	1	-9
636.384	1	11
636.724	1	10
637.063	1	-1
637.402	1	11
637.741	1	4
638.080	1	4
638.419	1	3
638.759	1	8
639.098	1	-2
639.437	1	0
639.776	1	11
640.115	1	-9
640.454	1	0
640.793	1	2
641.132	1	5
641.472	1	18
641.811	1	3
642.150	1	2
642.489	1	6
642.828	1	11
643.167	1	11
643.506	1	-3
643.845	1	5
644.184	1	21
644.524	1	12
644.863	1	5
645.202	1	5
645.541	1	9
645.880	1	4
646.219	1	-1
646.558	1	1
646.897	1	-4
647.236	1	-7
647.575	1	9
647.914	1	4
648.253	1	19
648.592	1	17
648.931	1	9
649.270	1	14
649.610	1	13
649.949	1	6
650.288	1	8
650.627	1	2
650.966	1	6
651.305	1	6
651.644	1	13
651.983	1	-5
652.322	1	-1
652.661	1	15
653.000	1	14
653.339	1	2
653.678	1	1
654.017	1	6
654.356	1	13
654.695	1	9
655.034	1	-1
655.373	1	8
655.712	1	13
656.051	1	4
656.390	1	4
656.729	1	13
657.068	1	2
657.406	1	5
657.745	1	15
658.084	1	6
658.423	1	9
658.762	1	2
659.101	1	3
659.440	1	17
659.779	1	6
660.118	1	4
660.457	1	4
660.796	1	11
661.135	1	16
661.474	1	9
661.813	1	-1
662.152	1	4
662.491	1	7
662.829	1	14
663.168	1	0
663.507	1	11
663.846	1	5
664.185	1	-4
664.524	1	15
664.863	1	3
665.202	1	6
665.541	1	3
665.879	1	1
666.218	1	14
666.557	1	3
666.896	1	5
667.235	1	-1
667.574	1	-3
667.913	1	10
668.251	1	-10
668.590	1	8
668.929	1	1
669.268	1	-2
669.607	1	0
669.946	1	-1
670.285	1	8
670.623	1	8
670.962	1	7
671.301	1	5
671.640	1	6
671.979	1	1
672.317	1	12
672.656	1	11
672.995	1	4
673.334	1	4
673.673	1	18
674.011	1	7
674.350	1	4
674.689	1	4
675.028	1	3
675.367	1	0
675.705	1	5
676.044	1	3
676.383	1	1
676.722	1	4
677.060	1	14
677.399	1	19
677.738	1	-1
678.077	1	4
678.416	1	0
678.754	1	6
679.093	1	14
679.432	1	-4
679.771	1	10
680.109	1	-1
680.448	1	8
680.787	1	-1
681.125	1	-3
681.464	1	6
681.803	1	3
682.142	1	2
682.480	1	3
682.819	1	0
683.158	1	2
683.496	1	0
683.835	1	7
684.174	1	0
684.512	1	1
684.851	1	2
685.190	1	5
685.529	1	12
685.867	1	5
686.206	1	0
686.545	1	2
686.883	1	2
687.222	1	1
687.561	1	4
687.899	1	4
688.238	1	8
688.577	1	-1
688.746	1	9