File: Data/GaN_150K_450ms/GaN_sample D_spot15_UVVIS_150 K_200um_450 ms 2x2mm1_136.txt
340.368	1	-1
340.710	1	11
341.052	1	5
341.394	1	5
341.737	1	6
342.079	1	0
342.421	1	1
342.763	1	9
343.105	1	15
343.447	1	1
343.789	1	5
344.131	1	-14
344.473	1	6
344.815	1	4
345.157	1	18
345.499	1	12
345.841	1	13
346.183	1	-4
346.526	1	-3
346.868	1	-6
347.210	1	-2
347.552	1	16
347.894	1	-1
348.236	1	12
348.578	1	4
348.920	1	6
349.262	1	17
349.604	1	3
349.946	1	8
350.288	1	1
350.630	1	1
350.972	1	9
351.314	1	-1
351.656	1	9
351.998	1	0
352.340	1	10
352.682	1	0
353.024	1	15
353.366	1	4
353.708	1	4
354.050	1	-6
354.392	1	1
354.734	1	7
355.076	1	19
355.418	1	5
355.760	1	4
356.102	1	5
356.444	1	13
356.785	1	-1
357.127	1	15
357.469	1	6
357.811	1	6
358.153	1	-10
358.495	1	6
358.837	1	20
359.179	1	9
359.521	1	27
359.863	1	4
360.205	1	21
360.547	1	29
360.889	1	5
361.231	1	17
361.572	1	20
361.914	1	12
362.256	1	19
362.598	1	25
362.940	1	33
363.282	1	17
363.624	1	22
363.966	1	23
364.308	1	30
364.649	1	29
364.991	1	40
365.333	1	33
365.675	1	52
366.017	1	44
366.359	1	26
366.701	1	39
367.042	1	47
367.384	1	42
367.726	1	35
368.068	1	55
368.410	1	54
368.752	1	56
369.093	1	42
369.435	1	53
369.777	1	55
370.119	1	48
370.461	1	43
370.803	1	43
371.144	1	36
371.486	1	46
371.828	1	30
372.170	1	29
372.512	1	32
372.853	1	42
373.195	1	26
373.537	1	17
373.879	1	27
374.220	1	37
374.562	1	35
374.904	1	26
375.246	1	14
375.588	1	4
375.929	1	25
376.271	1	18
376.613	1	18
376.955	1	21
377.296	1	18
377.638	1	11
377.980	1	12
378.321	1	23
378.663	1	16
379.005	1	13
379.347	1	20
379.688	1	18
380.030	1	18
380.372	1	21
380.714	1	18
381.055	1	13
381.397	1	2
381.739	1	6
382.080	1	13
382.422	1	17
382.764	1	15
383.105	1	11
383.447	1	9
383.789	1	10
384.130	1	5
384.472	1	11
384.814	1	10
385.156	1	20
385.497	1	21
385.839	1	12
386.180	1	6
386.522	1	17
386.864	1	-1
387.205	1	7
387.547	1	18
387.889	1	10
388.230	1	8
388.572	1	6
388.914	1	22
389.255	1	15
389.597	1	7
389.939	1	16
390.280	1	2
390.622	1	1
390.963	1	-1
391.305	1	8
391.647	1	15
391.988	1	6
392.330	1	9
392.671	1	13
393.013	1	3
393.355	1	10
393.696	1	13
394.038	1	7
394.379	1	13
394.721	1	11
395.062	1	0
395.404	1	8
395.746	1	1
396.087	1	3
396.429	1	11
396.770	1	9
397.112	1	11
397.453	1	-1
397.795	1	4
398.136	1	15
398.478	1	12
398.819	1	10
399.161	1	21
399.503	1	18
399.844	1	7
400.186	1	8
400.527	1	20
400.869	1	6
401.210	1	1
401.552	1	5
401.893	1	12
402.235	1	19
402.576	1	10
402.918	1	9
403.259	1	8
403.601	1	20
403.942	1	6
404.284	1	22
404.625	1	2
404.967	1	8
405.308	1	-5
405.649	1	5
405.991	1	11
406.332	1	2
406.674	1	4
407.015	1	13
407.357	1	21
407.698	1	2
408.040	1	15
408.381	1	9
408.722	1	15
409.064	1	5
409.405	1	3
409.747	1	6
410.088	1	12
410.430	1	8
410.771	1	10
411.112	1	8
411.454	1	3
411.795	1	17
412.137	1	11
412.478	1	13
412.819	1	13
413.161	1	11
413.502	1	16
413.844	1	27
414.185	1	14
414.526	1	9
414.868	1	8
415.209	1	4
415.550	1	10
415.892	1	12
416.233	1	10
416.575	1	2
416.916	1	6
417.257	1	7
417.599	1	6
417.940	1	1
418.281	1	23
418.623	1	7
418.964	1	27
419.305	1	17
419.647	1	16
419.988	1	19
420.329	1	12
420.671	1	26
421.012	1	10
421.353	1	22
421.695	1	18
422.036	1	17
422.377	1	6
422.718	1	11
423.060	1	11
423.401	1	19
423.742	1	22
424.084	1	13
424.425	1	15
424.766	1	13
425.107	1	8
425.449	1	6
425.790	1	6
426.131	1	3
426.472	1	20
426.814	1	17
427.155	1	5
427.496	1	12
427.837	1	3
428.179	1	21
428.520	1	8
428.861	1	16
429.202	1	4
429.544	1	13
429.885	1	12
430.226	1	-1
430.567	1	-3
430.909	1	4
431.250	1	13
431.591	1	10
431.932	1	14
432.273	1	13
432.615	1	7
432.956	1	17
433.297	1	13
433.638	1	4
433.979	1	7
434.320	1	10
434.662	1	20
435.003	1	14
435.344	1	4
435.685	1	0
436.026	1	10
436.368	1	7
436.709	1	5
437.050	1	3
437.391	1	6
437.732	1	12
438.073	1	5
438.414	1	14
438.756	1	5
439.097	1	11
439.438	1	16
439.779	1	5
440.120	1	1
440.461	1	10
440.802	1	7
441.143	1	13
441.485	1	1
441.826	1	9
442.167	1	9
442.508	1	14
442.849	1	16
443.190	1	16
443.531	1	-3
443.872	1	6
444.213	1	2
444.554	1	10
444.895	1	12
445.237	1	10
445.578	1	-1
445.919	1	13
446.260	1	17
446.601	1	9
446.942	1	9
447.283	1	7
447.624	1	-8
447.965	1	8
448.306	1	10
448.647	1	7
448.988	1	7
449.329	1	16
449.670	1	6
450.011	1	5
450.352	1	2
450.693	1	17
451.034	1	5
451.375	1	8
451.716	1	6
452.057	1	6
452.398	1	13
452.739	1	12
453.080	1	14
453.421	1	9
453.762	1	8
454.103	1	10
454.444	1	8
454.785	1	12
455.126	1	7
455.467	1	3
455.808	1	16
456.149	1	1
456.490	1	4
456.831	1	8
457.172	1	11
457.513	1	8
457.854	1	13
458.195	1	9
458.536	1	11
458.877	1	3
459.218	1	11
459.559	1	9
459.899	1	7
460.240	1	5
460.581	1	3
460.922	1	9
461.263	1	19
461.604	1	8
461.945	1	6
462.286	1	4
462.627	1	7
462.968	1	19
463.309	1	7
463.649	1	3
463.990	1	10
464.331	1	11
464.672	1	9
465.013	1	0
465.354	1	18
465.695	1	7
466.036	1	14
466.376	1	11
466.717	1	-1
467.058	1	13
467.399	1	1
467.740	1	15
468.081	1	13
468.422	1	13
468.762	1	7
469.103	1	4
469.444	1	8
469.785	1	6
470.126	1	11
470.467	1	7
470.807	1	15
471.148	1	1
471.489	1	6
471.830	1	11
472.171	1	5
472.511	1	7
472.852	1	10
473.193	1	6
473.534	1	3
473.875	1	7
474.215	1	0
474.556	1	1
474.897	1	2
475.238	1	13
475.578	1	4
475.919	1	6
476.260	1	-1
476.601	1	11
476.942	1	-2
477.282	1	4
477.623	1	0
477.964	1	17
478.305	1	11
478.645	1	3
478.986	1	6
479.327	1	10
479.667	1	7
480.008	1	3
480.349	1	8
480.690	1	11
481.030	1	-2
481.371	1	-6
481.712	1	13
482.053	1	9
482.393	1	2
482.734	1	4
483.075	1	13
483.415	1	12
483.756	1	17
484.097	1	13
484.437	1	9
484.778	1	-1
485.119	1	4
485.459	1	2
485.800	1	-2
486.141	1	1
486.481	1	-1
486.822	1	20
487.163	1	10
487.503	1	8
487.844	1	-6
488.185	1	10
488.525	1	13
488.866	1	-2
489.207	1	9
489.547	1	7
489.888	1	1
490.228	1	4
490.569	1	4
490.910	1	1
491.250	1	18
491.591	1	-1
491.932	1	13
492.272	1	6
492.613	1	14
492.953	1	10
493.294	1	-5
493.635	1	7
493.975	1	20
494.316	1	-4
494.656	1	11
494.997	1	-1
495.337	1	9
495.678	1	6
496.019	1	5
496.359	1	1
496.700	1	3
497.040	1	9
497.381	1	4
497.721	1	-4
498.062	1	-4
498.403	1	16
498.743	1	8
499.084	1	9
499.424	1	4
499.765	1	9
500.105	1	8
500.446	1	7
500.786	1	3
501.127	1	17
501.467	1	1
501.808	1	15
502.148	1	-2
502.489	1	0
502.829	1	2
503.170	1	9
503.510	1	3
503.851	1	15
504.191	1	2
504.532	1	11
504.872	1	6
505.213	1	2
505.553	1	2
505.894	1	13
506.234	1	16
506.575	1	18
506.915	1	14
507.256	1	17
507.596	1	14
507.936	1	20
508.277	1	23
508.617	1	15
508.958	1	9
509.298	1	7
509.639	1	-4
509.979	1	14
510.319	1	8
510.660	1	9
511.000	1	7
511.341	1	18
511.681	1	13
512.022	1	-3
512.362	1	15
512.702	1	5
513.043	1	9
513.383	1	4
513.724	1	13
514.064	1	12
514.404	1	22
514.745	1	6
515.085	1	15
515.425	1	13
515.766	1	14
516.106	1	14
516.447	1	23
516.787	1	11
517.127	1	12
517.468	1	20
517.808	1	6
518.148	1	17
518.489	1	9
518.829	1	22
519.169	1	9
519.510	1	2
519.850	1	9
520.190	1	10
520.531	1	14
520.871	1	12
521.211	1	5
521.552	1	8
521.892	1	13
522.232	1	7
522.573	1	14
522.913	1	21
523.253	1	15
523.593	1	20
523.934	1	8
524.274	1	17
524.614	1	22
524.955	1	13
525.295	1	25
525.635	1	20
525.975	1	12
526.316	1	1
526.656	1	23
526.996	1	11
527.337	1	18
527.677	1	16
528.017	1	9
528.357	1	16
528.698	1	22
529.038	1	13
529.378	1	11
529.718	1	15
530.058	1	13
530.399	1	13
530.739	1	20
531.079	1	11
531.419	1	7
531.760	1	18
532.100	1	16
532.440	1	16
532.780	1	14
533.120	1	16
533.461	1	8
533.801	1	16
534.141	1	20
534.481	1	24
534.821	1	12
535.162	1	17
535.502	1	14
535.842	1	12
536.182	1	4
536.522	1	5
536.862	1	3
537.203	1	12
537.543	1	23
537.883	1	2
538.223	1	19
538.563	1	9
538.903	1	10
539.243	1	16
539.584	1	7
539.924	1	8
540.264	1	19
540.604	1	17
540.944	1	13
541.284	1	1
541.624	1	3
541.964	1	9
542.305	1	28
542.645	1	15
542.985	1	10
543.325	1	6
543.665	1	12
544.005	1	14
544.345	1	17
544.685	1	9
545.025	1	11
545.365	1	11
545.705	1	14
546.045	1	10
546.386	1	1
546.726	1	4
547.066	1	3
547.406	1	5
547.746	1	10
548.086	1	10
548.426	1	6
548.766	1	8
549.106	1	6
549.446	1	18
549.786	1	15
550.126	1	18
550.466	1	5
550.806	1	16
551.146	1	14
551.486	1	17
551.826	1	3
552.166	1	14
552.506	1	5
552.846	1	13
553.186	1	-1
553.526	1	2
553.866	1	5
554.206	1	5
554.546	1	15
554.886	1	3
555.226	1	7
555.566	1	12
555.906	1	15
556.246	1	18
556.586	1	5
556.926	1	12
557.266	1	10
557.606	1	2
557.946	1	11
558.286	1	-3
558.626	1	2
558.966	1	11
559.306	1	12
559.646	1	12
559.986	1	9
560.325	1	4
560.665	1	2
561.005	1	14
561.345	1	11
561.685	1	8
562.025	1	7
562.365	1	10
562.705	1	8
563.045	1	16
563.385	1	11
563.725	1	8
564.064	1	2
564.404	1	-3
564.744	1	10
565.084	1	9
565.424	1	6
565.764	1	14
566.104	1	19
566.444	1	14
566.783	1	11
567.123	1	1
567.463	1	0
567.803	1	9
568.143	1	5
568.483	1	17
568.823	1	7
569.162	1	-4
569.502	1	11
569.842	1	5
570.182	1	9
570.522	1	-3
570.862	1	4
571.201	1	8
571.541	1	9
571.881	1	5
572.221	1	3
572.561	1	7
572.900	1	14
573.240	1	1
573.580	1	7
573.920	1	6
574.260	1	8
574.599	1	6
574.939	1	20
575.279	1	2
575.619	1	10
575.959	1	0
576.298	1	-9
576.638	1	8
576.978	1	21
577.318	1	2
577.657	1	2
577.997	1	17
578.337	1	5
578.677	1	9
579.016	1	-1
579.356	1	1
579.696	1	-5
580.036	1	14
580.375	1	1
580.715	1	4
581.055	1	6
581.394	1	4
581.734	1	12
582.074	1	13
582.414	1	5
582.753	1	5
583.093	1	14
583.433	1	19
583.772	1	13
584.112	1	5
584.452	1	13
584.791	1	9
585.131	1	7
585.471	1	7
585.811	1	14
586.150	1	8
586.490	1	12
586.830	1	7
587.169	1	8
587.509	1	6
587.849	1	5
588.188	1	15
588.528	1	0
588.867	1	9
589.207	1	14
589.547	1	12
589.886	1	5
590.226	1	2
590.566	1	-1
590.905	1	7
591.245	1	-1
591.585	1	2
591.924	1	-4
592.264	1	7
592.603	1	-3
592.943	1	12
593.283	1	3
593.622	1	-1
593.962	1	12
594.301	1	2
594.641	1	5
594.981	1	6
595.320	1	11
595.660	1	8
595.999	1	7
596.339	1	3
596.678	1	-7
597.018	1	4
597.358	1	5
597.697	1	3
598.037	1	-1
598.376	1	-1
598.716	1	4
599.055	1	8
599.395	1	-1
599.734	1	7
600.074	1	-4
600.413	1	10
600.753	1	11
601.092	1	5
601.432	1	-2
601.771	1	4
602.111	1	7
602.451	1	-3
602.790	1	3
603.130	1	6
603.469	1	3
603.809	1	9
604.148	1	-4
604.487	1	7
604.827	1	1
605.166	1	11
605.506	1	0
605.845	1	6
606.185	1	8
606.524	1	2
606.864	1	19
607.203	1	7
607.543	1	9
607.882	1	10
608.222	1	5
608.561	1	9
608.901	1	2
609.240	1	9
609.579	1	-7
609.919	1	-4
610.258	1	19
610.598	1	-7
610.937	1	7
611.277	1	5
611.616	1	16
611.955	1	1
612.295	1	15
612.634	1	3
612.974	1	-2
613.313	1	11
613.652	1	10
613.992	1	5
614.331	1	9
614.671	1	3
615.010	1	10
615.349	1	8
615.689	1	-1
616.028	1	22
616.368	1	4
616.707	1	4
617.046	1	8
617.386	1	13
617.725	1	-6
618.064	1	0
618.404	1	2
618.743	1	5
619.082	1	23
619.422	1	22
619.761	1	-6
620.100	1	12
620.440	1	6
620.779	1	8
621.118	1	10
621.458	1	-10
621.797	1	6
622.136	1	-2
622.476	1	6
622.815	1	5
623.154	1	-1
623.494	1	-4
623.833	1	5
624.172	1	11
624.511	1	0
624.851	1	6
625.190	1	2
625.529	1	5
625.869	1	18
626.208	1	4
626.547	1	6
626.886	1	1
627.226	1	10
627.565	1	6
627.904	1	3
628.243	1	17
628.583	1	9
628.922	1	3
629.261	1	11
629.600	1	1
629.940	1	1
630.279	1	17
630.618	1	10
630.957	1	9
631.297	1	2
631.636	1	1
631.975	1	8
632.314	1	2
632.653	1	3
632.993	1	-2
633.332	1	-1
633.671	1	15
634.010	1	5
634.349	1	18
634.689	1	-4
635.028	1	2
635.367	1	12
635.706	1	1
636.045	1	2
636.384	1	6
636.724	1	9
637.063	1	-11
637.402	1	13
637.741	1	4
638.080	1	-1
638.419	1	-6
638.759	1	6
639.098	1	4
639.437	1	5
639.776	1	6
640.115	1	4
640.454	1	-10
640.793	1	-2
641.132	1	2
641.472	1	12
641.811	1	-7
642.150	1	12
642.489	1	4
642.828	1	13
643.167	1	7
643.506	1	3
643.845	1	13
644.184	1	9
644.524	1	3
644.863	1	3
645.202	1	0
645.541	1	5
645.880	1	10
646.219	1	8
646.558	1	-2
646.897	1	-4
647.236	1	-5
647.575	1	9
647.914	1	5
648.253	1	21
648.592	1	3
648.931	1	0
649.270	1	15
649.610	1	13
649.949	1	-8
650.288	1	9
650.627	1	1
650.966	1	9
651.305	1	14
651.644	1	12
651.983	1	1
652.322	1	8
652.661	1	5
653.000	1	16
653.339	1	8
653.678	1	13
654.017	1	2
654.356	1	6
654.695	1	11
655.034	1	5
655.373	1	3
655.712	1	10
656.051	1	-2
656.390	1	9
656.729	1	6
657.068	1	6
657.406	1	8
657.745	1	10
658.084	1	6
658.423	1	12
658.762	1	-1
659.101	1	0
659.440	1	13
659.779	1	10
660.118	1	7
660.457	1	7
660.796	1	6
661.135	1	4
661.474	1	8
661.813	1	1
662.152	1	7
662.491	1	4
662.829	1	6
663.168	1	1
663.507	1	6
663.846	1	5
664.185	1	0
664.524	1	2
664.863	1	5
665.202	1	9
665.541	1	6
665.879	1	-1
666.218	1	10
666.557	1	4
666.896	1	11
667.235	1	-1
667.574	1	-4
667.913	1	6
668.251	1	-4
668.590	1	1
668.929	1	-3
669.268	1	5
669.607	1	-7
669.946	1	-11
670.285	1	3
670.623	1	7
670.962	1	0
671.301	1	9
671.640	1	8
671.979	1	0
672.317	1	5
672.656	1	9
672.995	1	5
673.334	1	-5
673.673	1	17
674.011	1	12
674.350	1	0
674.689	1	0
675.028	1	7
675.367	1	1
675.705	1	-3
676.044	1	5
676.383	1	-6
676.722	1	6
677.060	1	4
677.399	1	12
677.738	1	-1
678.077	1	-3
678.416	1	9
678.754	1	3
679.093	1	11
679.432	1	-4
679.771	1	11
680.109	1	8
680.448	1	-4
680.787	1	-7
681.125	1	3
681.464	1	10
681.803	1	-2
682.142	1	3
682.480	1	-1
682.819	1	-3
683.158	1	12
683.496	1	-2
683.835	1	10
684.174	1	4
684.512	1	0
684.851	1	-1
685.190	1	6
685.529	1	1
685.867	1	3
686.206	1	-1
686.545	1	5
686.883	1	11
687.222	1	11
687.561	1	-4
687.899	1	7
688.238	1	8
688.577	1	3
688.746	1	2