File: Data/GaN_150K_450ms/GaN_sample D_spot15_UVVIS_150 K_200um_450 ms 2x2mm1_153.txt
340.368	1	-6
340.710	1	0
341.052	1	4
341.394	1	1
341.737	1	5
342.079	1	5
342.421	1	-1
342.763	1	-6
343.105	1	2
343.447	1	8
343.789	1	7
344.131	1	-14
344.473	1	-5
344.815	1	6
345.157	1	20
345.499	1	3
345.841	1	14
346.183	1	6
346.526	1	7
346.868	1	6
347.210	1	4
347.552	1	12
347.894	1	4
348.236	1	0
348.578	1	18
348.920	1	3
349.262	1	7
349.604	1	0
349.946	1	9
350.288	1	-1
350.630	1	2
350.972	1	1
351.314	1	-6
351.656	1	8
351.998	1	0
352.340	1	8
352.682	1	-6
353.024	1	17
353.366	1	6
353.708	1	8
354.050	1	-7
354.392	1	-5
354.734	1	-4
355.076	1	14
355.418	1	3
355.760	1	12
356.102	1	13
356.444	1	12
356.785	1	6
357.127	1	6
357.469	1	14
357.811	1	8
358.153	1	-4
358.495	1	11
358.837	1	21
359.179	1	11
359.521	1	21
359.863	1	7
360.205	1	25
360.547	1	18
360.889	1	14
361.231	1	19
361.572	1	26
361.914	1	18
362.256	1	12
362.598	1	17
362.940	1	26
363.282	1	11
363.624	1	10
363.966	1	10
364.308	1	27
364.649	1	25
364.991	1	29
365.333	1	18
365.675	1	40
366.017	1	33
366.359	1	34
366.701	1	30
367.042	1	43
367.384	1	32
367.726	1	35
368.068	1	47
368.410	1	45
368.752	1	41
369.093	1	29
369.435	1	55
369.777	1	44
370.119	1	52
370.461	1	29
370.803	1	36
371.144	1	29
371.486	1	32
371.828	1	32
372.170	1	31
372.512	1	29
372.853	1	22
373.195	1	24
373.537	1	23
373.879	1	27
374.220	1	19
374.562	1	24
374.904	1	23
375.246	1	15
375.588	1	12
375.929	1	20
376.271	1	9
376.613	1	17
376.955	1	20
377.296	1	20
377.638	1	8
377.980	1	10
378.321	1	12
378.663	1	20
379.005	1	11
379.347	1	8
379.688	1	20
380.030	1	19
380.372	1	9
380.714	1	17
381.055	1	11
381.397	1	15
381.739	1	9
382.080	1	13
382.422	1	9
382.764	1	14
383.105	1	12
383.447	1	10
383.789	1	-2
384.130	1	12
384.472	1	13
384.814	1	14
385.156	1	12
385.497	1	19
385.839	1	5
386.180	1	3
386.522	1	8
386.864	1	5
387.205	1	17
387.547	1	21
387.889	1	11
388.230	1	0
388.572	1	1
388.914	1	18
389.255	1	6
389.597	1	7
389.939	1	11
390.280	1	-7
390.622	1	-3
390.963	1	7
391.305	1	5
391.647	1	8
391.988	1	6
392.330	1	12
392.671	1	16
393.013	1	14
393.355	1	20
393.696	1	8
394.038	1	10
394.379	1	12
394.721	1	9
395.062	1	2
395.404	1	18
395.746	1	7
396.087	1	8
396.429	1	7
396.770	1	8
397.112	1	6
397.453	1	-1
397.795	1	12
398.136	1	14
398.478	1	7
398.819	1	19
399.161	1	14
399.503	1	18
399.844	1	4
400.186	1	15
400.527	1	7
400.869	1	0
401.210	1	10
401.552	1	10
401.893	1	13
402.235	1	6
402.576	1	4
402.918	1	12
403.259	1	0
403.601	1	12
403.942	1	8
404.284	1	14
404.625	1	2
404.967	1	13
405.308	1	-2
405.649	1	6
405.991	1	9
406.332	1	11
406.674	1	6
407.015	1	21
407.357	1	11
407.698	1	17
408.040	1	19
408.381	1	2
408.722	1	15
409.064	1	9
409.405	1	4
409.747	1	11
410.088	1	12
410.430	1	15
410.771	1	6
411.112	1	12
411.454	1	-2
411.795	1	-2
412.137	1	7
412.478	1	12
412.819	1	11
413.161	1	6
413.502	1	13
413.844	1	17
414.185	1	8
414.526	1	0
414.868	1	6
415.209	1	10
415.550	1	8
415.892	1	17
416.233	1	12
416.575	1	7
416.916	1	12
417.257	1	4
417.599	1	10
417.940	1	7
418.281	1	6
418.623	1	9
418.964	1	24
419.305	1	9
419.647	1	9
419.988	1	21
420.329	1	8
420.671	1	6
421.012	1	4
421.353	1	23
421.695	1	13
422.036	1	14
422.377	1	5
422.718	1	21
423.060	1	12
423.401	1	3
423.742	1	10
424.084	1	8
424.425	1	15
424.766	1	7
425.107	1	15
425.449	1	12
425.790	1	12
426.131	1	2
426.472	1	18
426.814	1	12
427.155	1	8
427.496	1	9
427.837	1	11
428.179	1	28
428.520	1	8
428.861	1	13
429.202	1	11
429.544	1	11
429.885	1	15
430.226	1	-8
430.567	1	-3
430.909	1	16
431.250	1	11
431.591	1	5
431.932	1	11
432.273	1	18
432.615	1	3
432.956	1	4
433.297	1	6
433.638	1	8
433.979	1	9
434.320	1	12
434.662	1	16
435.003	1	17
435.344	1	0
435.685	1	-3
436.026	1	-2
436.368	1	-9
436.709	1	-2
437.050	1	3
437.391	1	2
437.732	1	3
438.073	1	2
438.414	1	15
438.756	1	10
439.097	1	10
439.438	1	15
439.779	1	12
440.120	1	10
440.461	1	8
440.802	1	12
441.143	1	13
441.485	1	8
441.826	1	11
442.167	1	12
442.508	1	6
442.849	1	11
443.190	1	4
443.531	1	12
443.872	1	5
444.213	1	-1
444.554	1	9
444.895	1	5
445.237	1	14
445.578	1	0
445.919	1	7
446.260	1	11
446.601	1	9
446.942	1	1
447.283	1	15
447.624	1	-1
447.965	1	5
448.306	1	3
448.647	1	2
448.988	1	10
449.329	1	11
449.670	1	8
450.011	1	3
450.352	1	-1
450.693	1	9
451.034	1	10
451.375	1	3
451.716	1	7
452.057	1	-1
452.398	1	13
452.739	1	6
453.080	1	10
453.421	1	4
453.762	1	8
454.103	1	7
454.444	1	14
454.785	1	9
455.126	1	-2
455.467	1	17
455.808	1	11
456.149	1	8
456.490	1	-9
456.831	1	-5
457.172	1	12
457.513	1	8
457.854	1	15
458.195	1	10
458.536	1	7
458.877	1	19
459.218	1	9
459.559	1	9
459.899	1	-4
460.240	1	6
460.581	1	2
460.922	1	1
461.263	1	17
461.604	1	5
461.945	1	7
462.286	1	5
462.627	1	5
462.968	1	9
463.309	1	12
463.649	1	-2
463.990	1	6
464.331	1	3
464.672	1	8
465.013	1	4
465.354	1	11
465.695	1	-1
466.036	1	1
466.376	1	13
466.717	1	-7
467.058	1	5
467.399	1	-6
467.740	1	28
468.081	1	3
468.422	1	3
468.762	1	14
469.103	1	6
469.444	1	2
469.785	1	0
470.126	1	9
470.467	1	-2
470.807	1	11
471.148	1	5
471.489	1	15
471.830	1	0
472.171	1	13
472.511	1	6
472.852	1	14
473.193	1	2
473.534	1	6
473.875	1	9
474.215	1	15
474.556	1	-7
474.897	1	-9
475.238	1	6
475.578	1	8
475.919	1	7
476.260	1	-7
476.601	1	3
476.942	1	0
477.282	1	2
477.623	1	0
477.964	1	2
478.305	1	2
478.645	1	0
478.986	1	6
479.327	1	11
479.667	1	1
480.008	1	12
480.349	1	-3
480.690	1	15
481.030	1	0
481.371	1	-2
481.712	1	17
482.053	1	8
482.393	1	11
482.734	1	7
483.075	1	10
483.415	1	1
483.756	1	9
484.097	1	10
484.437	1	11
484.778	1	7
485.119	1	10
485.459	1	-1
485.800	1	3
486.141	1	7
486.481	1	-3
486.822	1	10
487.163	1	-8
487.503	1	4
487.844	1	1
488.185	1	9
488.525	1	9
488.866	1	-1
489.207	1	7
489.547	1	12
489.888	1	8
490.228	1	-7
490.569	1	0
490.910	1	12
491.250	1	13
491.591	1	7
491.932	1	18
492.272	1	-8
492.613	1	-4
492.953	1	4
493.294	1	2
493.635	1	18
493.975	1	9
494.316	1	-5
494.656	1	10
494.997	1	-1
495.337	1	4
495.678	1	8
496.019	1	5
496.359	1	7
496.700	1	6
497.040	1	2
497.381	1	7
497.721	1	-2
498.062	1	1
498.403	1	10
498.743	1	7
499.084	1	4
499.424	1	-2
499.765	1	6
500.105	1	17
500.446	1	9
500.786	1	12
501.127	1	9
501.467	1	16
501.808	1	8
502.148	1	-2
502.489	1	1
502.829	1	7
503.170	1	13
503.510	1	-3
503.851	1	11
504.191	1	-3
504.532	1	20
504.872	1	2
505.213	1	-2
505.553	1	12
505.894	1	8
506.234	1	21
506.575	1	13
506.915	1	3
507.256	1	11
507.596	1	17
507.936	1	16
508.277	1	18
508.617	1	0
508.958	1	14
509.298	1	3
509.639	1	1
509.979	1	7
510.319	1	16
510.660	1	-2
511.000	1	0
511.341	1	10
511.681	1	12
512.022	1	-2
512.362	1	10
512.702	1	-4
513.043	1	8
513.383	1	9
513.724	1	2
514.064	1	25
514.404	1	9
514.745	1	8
515.085	1	12
515.425	1	12
515.766	1	6
516.106	1	13
516.447	1	14
516.787	1	7
517.127	1	6
517.468	1	14
517.808	1	6
518.148	1	16
518.489	1	11
518.829	1	11
519.169	1	-5
519.510	1	6
519.850	1	13
520.190	1	9
520.531	1	3
520.871	1	4
521.211	1	16
521.552	1	9
521.892	1	12
522.232	1	13
522.573	1	10
522.913	1	23
523.253	1	19
523.593	1	10
523.934	1	8
524.274	1	10
524.614	1	20
524.955	1	15
525.295	1	9
525.635	1	17
525.975	1	9
526.316	1	2
526.656	1	9
526.996	1	5
527.337	1	15
527.677	1	24
528.017	1	3
528.357	1	14
528.698	1	15
529.038	1	6
529.378	1	5
529.718	1	11
530.058	1	12
530.399	1	12
530.739	1	8
531.079	1	8
531.419	1	9
531.760	1	18
532.100	1	19
532.440	1	10
532.780	1	13
533.120	1	9
533.461	1	14
533.801	1	12
534.141	1	15
534.481	1	27
534.821	1	6
535.162	1	10
535.502	1	15
535.842	1	7
536.182	1	-1
536.522	1	10
536.862	1	12
537.203	1	13
537.543	1	4
537.883	1	11
538.223	1	22
538.563	1	11
538.903	1	7
539.243	1	6
539.584	1	11
539.924	1	6
540.264	1	21
540.604	1	19
540.944	1	10
541.284	1	7
541.624	1	4
541.964	1	15
542.305	1	15
542.645	1	5
542.985	1	-4
543.325	1	20
543.665	1	8
544.005	1	13
544.345	1	12
544.685	1	0
545.025	1	16
545.365	1	8
545.705	1	11
546.045	1	20
546.386	1	1
546.726	1	5
547.066	1	10
547.406	1	2
547.746	1	4
548.086	1	14
548.426	1	10
548.766	1	11
549.106	1	9
549.446	1	11
549.786	1	8
550.126	1	-3
550.466	1	4
550.806	1	13
551.146	1	4
551.486	1	4
551.826	1	3
552.166	1	6
552.506	1	5
552.846	1	5
553.186	1	2
553.526	1	18
553.866	1	10
554.206	1	11
554.546	1	18
554.886	1	13
555.226	1	-3
555.566	1	11
555.906	1	5
556.246	1	8
556.586	1	5
556.926	1	5
557.266	1	13
557.606	1	1
557.946	1	5
558.286	1	-2
558.626	1	10
558.966	1	12
559.306	1	12
559.646	1	1
559.986	1	3
560.325	1	9
560.665	1	7
561.005	1	1
561.345	1	9
561.685	1	9
562.025	1	8
562.365	1	10
562.705	1	9
563.045	1	-2
563.385	1	13
563.725	1	-3
564.064	1	-6
564.404	1	2
564.744	1	10
565.084	1	7
565.424	1	-3
565.764	1	13
566.104	1	4
566.444	1	11
566.783	1	11
567.123	1	-1
567.463	1	1
567.803	1	10
568.143	1	7
568.483	1	14
568.823	1	8
569.162	1	-5
569.502	1	11
569.842	1	7
570.182	1	2
570.522	1	4
570.862	1	-9
571.201	1	14
571.541	1	9
571.881	1	14
572.221	1	16
572.561	1	13
572.900	1	17
573.240	1	-3
573.580	1	13
573.920	1	8
574.260	1	0
574.599	1	5
574.939	1	0
575.279	1	6
575.619	1	-3
575.959	1	2
576.298	1	-16
576.638	1	15
576.978	1	11
577.318	1	2
577.657	1	3
577.997	1	0
578.337	1	5
578.677	1	4
579.016	1	12
579.356	1	4
579.696	1	8
580.036	1	0
580.375	1	12
580.715	1	7
581.055	1	3
581.394	1	-2
581.734	1	-3
582.074	1	-2
582.414	1	2
582.753	1	2
583.093	1	8
583.433	1	15
583.772	1	8
584.112	1	7
584.452	1	1
584.791	1	12
585.131	1	13
585.471	1	6
585.811	1	6
586.150	1	7
586.490	1	6
586.830	1	2
587.169	1	11
587.509	1	10
587.849	1	18
588.188	1	10
588.528	1	4
588.867	1	8
589.207	1	13
589.547	1	9
589.886	1	0
590.226	1	-5
590.566	1	2
590.905	1	3
591.245	1	-3
591.585	1	3
591.924	1	-2
592.264	1	-1
592.603	1	-4
592.943	1	2
593.283	1	12
593.622	1	0
593.962	1	13
594.301	1	6
594.641	1	10
594.981	1	2
595.320	1	10
595.660	1	0
595.999	1	5
596.339	1	5
596.678	1	-2
597.018	1	3
597.358	1	3
597.697	1	2
598.037	1	-1
598.376	1	1
598.716	1	3
599.055	1	5
599.395	1	-7
599.734	1	7
600.074	1	3
600.413	1	8
600.753	1	4
601.092	1	-5
601.432	1	-10
601.771	1	9
602.111	1	2
602.451	1	3
602.790	1	8
603.130	1	3
603.469	1	12
603.809	1	3
604.148	1	-4
604.487	1	5
604.827	1	5
605.166	1	5
605.506	1	-3
605.845	1	6
606.185	1	5
606.524	1	-1
606.864	1	7
607.203	1	5
607.543	1	-1
607.882	1	8
608.222	1	3
608.561	1	-6
608.901	1	10
609.240	1	4
609.579	1	-5
609.919	1	-3
610.258	1	15
610.598	1	3
610.937	1	1
611.277	1	12
611.616	1	11
611.955	1	5
612.295	1	10
612.634	1	4
612.974	1	0
613.313	1	8
613.652	1	14
613.992	1	-6
614.331	1	20
614.671	1	4
615.010	1	5
615.349	1	8
615.689	1	1
616.028	1	16
616.368	1	13
616.707	1	4
617.046	1	-2
617.386	1	7
617.725	1	0
618.064	1	2
618.404	1	-1
618.743	1	3
619.082	1	16
619.422	1	20
619.761	1	4
620.100	1	4
620.440	1	11
620.779	1	5
621.118	1	9
621.458	1	2
621.797	1	7
622.136	1	10
622.476	1	3
622.815	1	10
623.154	1	-5
623.494	1	-4
623.833	1	6
624.172	1	5
624.511	1	1
624.851	1	-3
625.190	1	3
625.529	1	3
625.869	1	7
626.208	1	-1
626.547	1	-8
626.886	1	8
627.226	1	1
627.565	1	10
627.904	1	-5
628.243	1	8
628.583	1	15
628.922	1	11
629.261	1	10
629.600	1	-2
629.940	1	7
630.279	1	13
630.618	1	13
630.957	1	9
631.297	1	6
631.636	1	10
631.975	1	4
632.314	1	4
632.653	1	2
632.993	1	7
633.332	1	13
633.671	1	7
634.010	1	7
634.349	1	8
634.689	1	3
635.028	1	2
635.367	1	6
635.706	1	0
636.045	1	-9
636.384	1	8
636.724	1	5
637.063	1	-3
637.402	1	1
637.741	1	-1
638.080	1	-3
638.419	1	0
638.759	1	11
639.098	1	12
639.437	1	2
639.776	1	4
640.115	1	-3
640.454	1	2
640.793	1	1
641.132	1	1
641.472	1	8
641.811	1	0
642.150	1	7
642.489	1	7
642.828	1	6
643.167	1	6
643.506	1	8
643.845	1	5
644.184	1	13
644.524	1	-6
644.863	1	7
645.202	1	5
645.541	1	4
645.880	1	11
646.219	1	9
646.558	1	-9
646.897	1	-6
647.236	1	-3
647.575	1	11
647.914	1	4
648.253	1	12
648.592	1	13
648.931	1	17
649.270	1	10
649.610	1	2
649.949	1	-5
650.288	1	9
650.627	1	9
650.966	1	2
651.305	1	0
651.644	1	9
651.983	1	-4
652.322	1	-1
652.661	1	8
653.000	1	7
653.339	1	4
653.678	1	12
654.017	1	12
654.356	1	7
654.695	1	18
655.034	1	-6
655.373	1	6
655.712	1	5
656.051	1	-5
656.390	1	2
656.729	1	5
657.068	1	1
657.406	1	4
657.745	1	20
658.084	1	6
658.423	1	7
658.762	1	-9
659.101	1	0
659.440	1	6
659.779	1	5
660.118	1	3
660.457	1	5
660.796	1	17
661.135	1	1
661.474	1	-1
661.813	1	-1
662.152	1	7
662.491	1	-9
662.829	1	12
663.168	1	0
663.507	1	7
663.846	1	4
664.185	1	-1
664.524	1	7
664.863	1	-4
665.202	1	8
665.541	1	1
665.879	1	0
666.218	1	11
666.557	1	-2
666.896	1	-3
667.235	1	3
667.574	1	4
667.913	1	26
668.251	1	-4
668.590	1	11
668.929	1	-1
669.268	1	7
669.607	1	-8
669.946	1	0
670.285	1	-6
670.623	1	5
670.962	1	-2
671.301	1	0
671.640	1	15
671.979	1	4
672.317	1	5
672.656	1	12
672.995	1	-3
673.334	1	5
673.673	1	20
674.011	1	6
674.350	1	6
674.689	1	-3
675.028	1	0
675.367	1	9
675.705	1	5
676.044	1	6
676.383	1	-4
676.722	1	4
677.060	1	-5
677.399	1	12
677.738	1	-2
678.077	1	4
678.416	1	5
678.754	1	11
679.093	1	9
679.432	1	1
679.771	1	2
680.109	1	6
680.448	1	-8
680.787	1	-4
681.125	1	-5
681.464	1	8
681.803	1	-6
682.142	1	15
682.480	1	-5
682.819	1	0
683.158	1	-2
683.496	1	3
683.835	1	16
684.174	1	0
684.512	1	6
684.851	1	-2
685.190	1	7
685.529	1	-6
685.867	1	5
686.206	1	-12
686.545	1	-6
686.883	1	9
687.222	1	3
687.561	1	7
687.899	1	9
688.238	1	8
688.577	1	-1
688.746	1	3