File: Data/GaN_150K_450ms/GaN_sample D_spot15_UVVIS_150 K_200um_450 ms 2x2mm1_151.txt
340.368	1	10
340.710	1	6
341.052	1	6
341.394	1	-9
341.737	1	15
342.079	1	1
342.421	1	7
342.763	1	2
343.105	1	8
343.447	1	13
343.789	1	17
344.131	1	2
344.473	1	1
344.815	1	6
345.157	1	12
345.499	1	5
345.841	1	9
346.183	1	4
346.526	1	12
346.868	1	9
347.210	1	-6
347.552	1	24
347.894	1	5
348.236	1	-4
348.578	1	10
348.920	1	-1
349.262	1	13
349.604	1	-6
349.946	1	-7
350.288	1	4
350.630	1	1
350.972	1	6
351.314	1	1
351.656	1	7
351.998	1	2
352.340	1	12
352.682	1	-4
353.024	1	18
353.366	1	13
353.708	1	6
354.050	1	-9
354.392	1	4
354.734	1	15
355.076	1	19
355.418	1	0
355.760	1	8
356.102	1	4
356.444	1	15
356.785	1	5
357.127	1	8
357.469	1	14
357.811	1	10
358.153	1	1
358.495	1	8
358.837	1	15
359.179	1	11
359.521	1	15
359.863	1	9
360.205	1	22
360.547	1	9
360.889	1	0
361.231	1	22
361.572	1	19
361.914	1	18
362.256	1	16
362.598	1	22
362.940	1	20
363.282	1	11
363.624	1	15
363.966	1	7
364.308	1	26
364.649	1	24
364.991	1	27
365.333	1	21
365.675	1	43
366.017	1	39
366.359	1	24
366.701	1	38
367.042	1	38
367.384	1	35
367.726	1	41
368.068	1	48
368.410	1	43
368.752	1	45
369.093	1	44
369.435	1	45
369.777	1	50
370.119	1	44
370.461	1	32
370.803	1	21
371.144	1	36
371.486	1	41
371.828	1	30
372.170	1	27
372.512	1	22
372.853	1	35
373.195	1	28
373.537	1	16
373.879	1	20
374.220	1	24
374.562	1	26
374.904	1	14
375.246	1	15
375.588	1	14
375.929	1	25
376.271	1	23
376.613	1	14
376.955	1	14
377.296	1	20
377.638	1	6
377.980	1	19
378.321	1	24
378.663	1	6
379.005	1	19
379.347	1	15
379.688	1	19
380.030	1	13
380.372	1	13
380.714	1	11
381.055	1	12
381.397	1	6
381.739	1	-1
382.080	1	11
382.422	1	12
382.764	1	14
383.105	1	4
383.447	1	2
383.789	1	1
384.130	1	9
384.472	1	6
384.814	1	5
385.156	1	7
385.497	1	15
385.839	1	15
386.180	1	6
386.522	1	7
386.864	1	2
387.205	1	7
387.547	1	13
387.889	1	4
388.230	1	13
388.572	1	3
388.914	1	18
389.255	1	12
389.597	1	2
389.939	1	6
390.280	1	4
390.622	1	9
390.963	1	1
391.305	1	-2
391.647	1	2
391.988	1	8
392.330	1	12
392.671	1	13
393.013	1	11
393.355	1	15
393.696	1	5
394.038	1	6
394.379	1	11
394.721	1	-1
395.062	1	-7
395.404	1	23
395.746	1	1
396.087	1	16
396.429	1	11
396.770	1	8
397.112	1	-1
397.453	1	6
397.795	1	4
398.136	1	13
398.478	1	3
398.819	1	16
399.161	1	10
399.503	1	14
399.844	1	1
400.186	1	1
400.527	1	-1
400.869	1	7
401.210	1	12
401.552	1	5
401.893	1	4
402.235	1	8
402.576	1	10
402.918	1	-4
403.259	1	13
403.601	1	12
403.942	1	3
404.284	1	10
404.625	1	10
404.967	1	3
405.308	1	-9
405.649	1	-2
405.991	1	7
406.332	1	8
406.674	1	-1
407.015	1	10
407.357	1	20
407.698	1	15
408.040	1	8
408.381	1	10
408.722	1	3
409.064	1	12
409.405	1	11
409.747	1	12
410.088	1	22
410.430	1	12
410.771	1	9
411.112	1	11
411.454	1	5
411.795	1	5
412.137	1	9
412.478	1	1
412.819	1	8
413.161	1	19
413.502	1	9
413.844	1	16
414.185	1	11
414.526	1	2
414.868	1	7
415.209	1	1
415.550	1	7
415.892	1	4
416.233	1	14
416.575	1	1
416.916	1	8
417.257	1	11
417.599	1	5
417.940	1	5
418.281	1	7
418.623	1	6
418.964	1	15
419.305	1	8
419.647	1	10
419.988	1	18
420.329	1	11
420.671	1	12
421.012	1	0
421.353	1	17
421.695	1	11
422.036	1	18
422.377	1	11
422.718	1	16
423.060	1	14
423.401	1	5
423.742	1	18
424.084	1	14
424.425	1	15
424.766	1	16
425.107	1	19
425.449	1	3
425.790	1	18
426.131	1	-2
426.472	1	15
426.814	1	11
427.155	1	11
427.496	1	8
427.837	1	8
428.179	1	21
428.520	1	12
428.861	1	6
429.202	1	-9
429.544	1	9
429.885	1	9
430.226	1	2
430.567	1	-1
430.909	1	4
431.250	1	21
431.591	1	9
431.932	1	6
432.273	1	9
432.615	1	14
432.956	1	6
433.297	1	9
433.638	1	23
433.979	1	9
434.320	1	7
434.662	1	19
435.003	1	6
435.344	1	8
435.685	1	-2
436.026	1	2
436.368	1	5
436.709	1	3
437.050	1	8
437.391	1	4
437.732	1	5
438.073	1	9
438.414	1	9
438.756	1	4
439.097	1	13
439.438	1	7
439.779	1	5
440.120	1	15
440.461	1	5
440.802	1	8
441.143	1	9
441.485	1	5
441.826	1	4
442.167	1	2
442.508	1	-3
442.849	1	17
443.190	1	8
443.531	1	9
443.872	1	-2
444.213	1	0
444.554	1	13
444.895	1	-5
445.237	1	12
445.578	1	-3
445.919	1	17
446.260	1	16
446.601	1	0
446.942	1	-4
447.283	1	16
447.624	1	-5
447.965	1	13
448.306	1	1
448.647	1	0
448.988	1	3
449.329	1	5
449.670	1	4
450.011	1	7
450.352	1	0
450.693	1	14
451.034	1	5
451.375	1	8
451.716	1	11
452.057	1	10
452.398	1	14
452.739	1	9
453.080	1	8
453.421	1	10
453.762	1	17
454.103	1	2
454.444	1	5
454.785	1	4
455.126	1	10
455.467	1	6
455.808	1	14
456.149	1	3
456.490	1	3
456.831	1	8
457.172	1	1
457.513	1	4
457.854	1	6
458.195	1	2
458.536	1	17
458.877	1	16
459.218	1	11
459.559	1	9
459.899	1	1
460.240	1	0
460.581	1	-11
460.922	1	1
461.263	1	9
461.604	1	9
461.945	1	2
462.286	1	4
462.627	1	1
462.968	1	16
463.309	1	9
463.649	1	-2
463.990	1	6
464.331	1	8
464.672	1	8
465.013	1	15
465.354	1	12
465.695	1	5
466.036	1	15
466.376	1	16
466.717	1	-9
467.058	1	4
467.399	1	-1
467.740	1	9
468.081	1	10
468.422	1	9
468.762	1	10
469.103	1	4
469.444	1	8
469.785	1	-3
470.126	1	8
470.467	1	4
470.807	1	10
471.148	1	-2
471.489	1	16
471.830	1	10
472.171	1	13
472.511	1	9
472.852	1	17
473.193	1	10
473.534	1	-1
473.875	1	6
474.215	1	6
474.556	1	3
474.897	1	0
475.238	1	7
475.578	1	-1
475.919	1	3
476.260	1	-4
476.601	1	5
476.942	1	-2
477.282	1	-4
477.623	1	-4
477.964	1	5
478.305	1	10
478.645	1	7
478.986	1	12
479.327	1	14
479.667	1	1
480.008	1	8
480.349	1	4
480.690	1	17
481.030	1	1
481.371	1	-5
481.712	1	14
482.053	1	17
482.393	1	-1
482.734	1	1
483.075	1	11
483.415	1	2
483.756	1	8
484.097	1	19
484.437	1	7
484.778	1	-1
485.119	1	6
485.459	1	0
485.800	1	-2
486.141	1	10
486.481	1	-4
486.822	1	13
487.163	1	0
487.503	1	7
487.844	1	-6
488.185	1	13
488.525	1	1
488.866	1	-5
489.207	1	11
489.547	1	8
489.888	1	9
490.228	1	-1
490.569	1	0
490.910	1	5
491.250	1	11
491.591	1	7
491.932	1	12
492.272	1	-3
492.613	1	2
492.953	1	7
493.294	1	0
493.635	1	-5
493.975	1	10
494.316	1	-2
494.656	1	4
494.997	1	5
495.337	1	10
495.678	1	13
496.019	1	0
496.359	1	5
496.700	1	6
497.040	1	5
497.381	1	8
497.721	1	2
498.062	1	11
498.403	1	7
498.743	1	5
499.084	1	6
499.424	1	1
499.765	1	11
500.105	1	13
500.446	1	-2
500.786	1	4
501.127	1	4
501.467	1	21
501.808	1	9
502.148	1	-1
502.489	1	4
502.829	1	0
503.170	1	9
503.510	1	2
503.851	1	12
504.191	1	9
504.532	1	16
504.872	1	0
505.213	1	9
505.553	1	13
505.894	1	10
506.234	1	14
506.575	1	15
506.915	1	12
507.256	1	11
507.596	1	8
507.936	1	11
508.277	1	19
508.617	1	9
508.958	1	13
509.298	1	-4
509.639	1	0
509.979	1	8
510.319	1	16
510.660	1	4
511.000	1	9
511.341	1	25
511.681	1	14
512.022	1	8
512.362	1	15
512.702	1	2
513.043	1	7
513.383	1	18
513.724	1	15
514.064	1	12
514.404	1	18
514.745	1	9
515.085	1	16
515.425	1	15
515.766	1	7
516.106	1	9
516.447	1	7
516.787	1	5
517.127	1	9
517.468	1	14
517.808	1	0
518.148	1	17
518.489	1	7
518.829	1	11
519.169	1	-5
519.510	1	5
519.850	1	6
520.190	1	5
520.531	1	12
520.871	1	4
521.211	1	14
521.552	1	3
521.892	1	12
522.232	1	6
522.573	1	20
522.913	1	14
523.253	1	22
523.593	1	10
523.934	1	8
524.274	1	14
524.614	1	13
524.955	1	-1
525.295	1	14
525.635	1	11
525.975	1	8
526.316	1	-2
526.656	1	9
526.996	1	8
527.337	1	12
527.677	1	18
528.017	1	1
528.357	1	10
528.698	1	16
529.038	1	4
529.378	1	12
529.718	1	13
530.058	1	1
530.399	1	11
530.739	1	9
531.079	1	8
531.419	1	8
531.760	1	13
532.100	1	18
532.440	1	15
532.780	1	15
533.120	1	10
533.461	1	9
533.801	1	10
534.141	1	12
534.481	1	25
534.821	1	14
535.162	1	13
535.502	1	17
535.842	1	2
536.182	1	9
536.522	1	-2
536.862	1	0
537.203	1	1
537.543	1	9
537.883	1	8
538.223	1	20
538.563	1	3
538.903	1	4
539.243	1	3
539.584	1	3
539.924	1	9
540.264	1	11
540.604	1	17
540.944	1	17
541.284	1	6
541.624	1	11
541.964	1	8
542.305	1	13
542.645	1	15
542.985	1	4
543.325	1	12
543.665	1	5
544.005	1	5
544.345	1	7
544.685	1	6
545.025	1	21
545.365	1	13
545.705	1	12
546.045	1	7
546.386	1	7
546.726	1	9
547.066	1	13
547.406	1	-1
547.746	1	0
548.086	1	7
548.426	1	6
548.766	1	11
549.106	1	11
549.446	1	15
549.786	1	10
550.126	1	13
550.466	1	11
550.806	1	21
551.146	1	4
551.486	1	3
551.826	1	12
552.166	1	10
552.506	1	4
552.846	1	6
553.186	1	3
553.526	1	6
553.866	1	7
554.206	1	11
554.546	1	18
554.886	1	6
555.226	1	7
555.566	1	10
555.906	1	12
556.246	1	9
556.586	1	4
556.926	1	8
557.266	1	11
557.606	1	2
557.946	1	13
558.286	1	0
558.626	1	11
558.966	1	7
559.306	1	12
559.646	1	14
559.986	1	14
560.325	1	8
560.665	1	11
561.005	1	14
561.345	1	4
561.685	1	8
562.025	1	11
562.365	1	-1
562.705	1	20
563.045	1	14
563.385	1	12
563.725	1	6
564.064	1	1
564.404	1	5
564.744	1	14
565.084	1	11
565.424	1	6
565.764	1	5
566.104	1	12
566.444	1	9
566.783	1	13
567.123	1	7
567.463	1	12
567.803	1	6
568.143	1	10
568.483	1	4
568.823	1	2
569.162	1	2
569.502	1	8
569.842	1	4
570.182	1	10
570.522	1	0
570.862	1	-3
571.201	1	7
571.541	1	2
571.881	1	2
572.221	1	7
572.561	1	13
572.900	1	19
573.240	1	3
573.580	1	12
573.920	1	12
574.260	1	12
574.599	1	8
574.939	1	5
575.279	1	7
575.619	1	0
575.959	1	5
576.298	1	-7
576.638	1	10
576.978	1	14
577.318	1	6
577.657	1	-1
577.997	1	8
578.337	1	-4
578.677	1	11
579.016	1	2
579.356	1	-3
579.696	1	7
580.036	1	5
580.375	1	4
580.715	1	5
581.055	1	9
581.394	1	11
581.734	1	15
582.074	1	15
582.414	1	2
582.753	1	2
583.093	1	7
583.433	1	12
583.772	1	2
584.112	1	5
584.452	1	8
584.791	1	6
585.131	1	8
585.471	1	8
585.811	1	8
586.150	1	2
586.490	1	6
586.830	1	-1
587.169	1	7
587.509	1	1
587.849	1	15
588.188	1	10
588.528	1	7
588.867	1	7
589.207	1	2
589.547	1	17
589.886	1	14
590.226	1	3
590.566	1	7
590.905	1	1
591.245	1	-3
591.585	1	-2
591.924	1	5
592.264	1	1
592.603	1	1
592.943	1	8
593.283	1	5
593.622	1	4
593.962	1	4
594.301	1	1
594.641	1	0
594.981	1	3
595.320	1	8
595.660	1	8
595.999	1	8
596.339	1	9
596.678	1	3
597.018	1	2
597.358	1	3
597.697	1	-3
598.037	1	4
598.376	1	-6
598.716	1	9
599.055	1	13
599.395	1	1
599.734	1	5
600.074	1	0
600.413	1	9
600.753	1	10
601.092	1	-2
601.432	1	-3
601.771	1	5
602.111	1	7
602.451	1	2
602.790	1	4
603.130	1	10
603.469	1	7
603.809	1	2
604.148	1	-2
604.487	1	5
604.827	1	6
605.166	1	9
605.506	1	6
605.845	1	7
606.185	1	2
606.524	1	-5
606.864	1	15
607.203	1	1
607.543	1	15
607.882	1	11
608.222	1	2
608.561	1	7
608.901	1	7
609.240	1	0
609.579	1	1
609.919	1	-1
610.258	1	16
610.598	1	-2
610.937	1	-1
611.277	1	12
611.616	1	13
611.955	1	5
612.295	1	18
612.634	1	17
612.974	1	-2
613.313	1	9
613.652	1	12
613.992	1	12
614.331	1	16
614.671	1	13
615.010	1	10
615.349	1	6
615.689	1	0
616.028	1	17
616.368	1	14
616.707	1	5
617.046	1	-5
617.386	1	15
617.725	1	0
618.064	1	3
618.404	1	2
618.743	1	14
619.082	1	19
619.422	1	7
619.761	1	-3
620.100	1	9
620.440	1	13
620.779	1	11
621.118	1	17
621.458	1	4
621.797	1	3
622.136	1	5
622.476	1	0
622.815	1	11
623.154	1	-8
623.494	1	-2
623.833	1	0
624.172	1	5
624.511	1	1
624.851	1	11
625.190	1	0
625.529	1	-3
625.869	1	11
626.208	1	-4
626.547	1	-6
626.886	1	4
627.226	1	4
627.565	1	9
627.904	1	6
628.243	1	3
628.583	1	10
628.922	1	7
629.261	1	11
629.600	1	4
629.940	1	11
630.279	1	5
630.618	1	13
630.957	1	6
631.297	1	12
631.636	1	2
631.975	1	3
632.314	1	3
632.653	1	4
632.993	1	0
633.332	1	13
633.671	1	8
634.010	1	5
634.349	1	15
634.689	1	5
635.028	1	-2
635.367	1	14
635.706	1	1
636.045	1	-3
636.384	1	2
636.724	1	7
637.063	1	1
637.402	1	2
637.741	1	1
638.080	1	-4
638.419	1	-4
638.759	1	9
639.098	1	-2
639.437	1	2
639.776	1	13
640.115	1	2
640.454	1	1
640.793	1	1
641.132	1	8
641.472	1	17
641.811	1	4
642.150	1	-2
642.489	1	8
642.828	1	10
643.167	1	7
643.506	1	4
643.845	1	21
644.184	1	7
644.524	1	6
644.863	1	4
645.202	1	6
645.541	1	4
645.880	1	16
646.219	1	6
646.558	1	-5
646.897	1	-9
647.236	1	-13
647.575	1	12
647.914	1	2
648.253	1	15
648.592	1	-2
648.931	1	18
649.270	1	12
649.610	1	6
649.949	1	3
650.288	1	9
650.627	1	-1
650.966	1	5
651.305	1	13
651.644	1	7
651.983	1	-4
652.322	1	4
652.661	1	7
653.000	1	2
653.339	1	3
653.678	1	11
654.017	1	7
654.356	1	10
654.695	1	14
655.034	1	4
655.373	1	4
655.712	1	9
656.051	1	-11
656.390	1	-1
656.729	1	4
657.068	1	-5
657.406	1	6
657.745	1	10
658.084	1	6
658.423	1	9
658.762	1	3
659.101	1	1
659.440	1	-3
659.779	1	14
660.118	1	3
660.457	1	8
660.796	1	6
661.135	1	5
661.474	1	7
661.813	1	7
662.152	1	3
662.491	1	5
662.829	1	5
663.168	1	3
663.507	1	12
663.846	1	11
664.185	1	3
664.524	1	12
664.863	1	1
665.202	1	8
665.541	1	2
665.879	1	6
666.218	1	11
666.557	1	-3
666.896	1	4
667.235	1	-5
667.574	1	0
667.913	1	5
668.251	1	-5
668.590	1	-2
668.929	1	5
669.268	1	3
669.607	1	-2
669.946	1	-1
670.285	1	1
670.623	1	7
670.962	1	-13
671.301	1	1
671.640	1	13
671.979	1	5
672.317	1	3
672.656	1	7
672.995	1	6
673.334	1	11
673.673	1	4
674.011	1	9
674.350	1	6
674.689	1	6
675.028	1	11
675.367	1	6
675.705	1	-2
676.044	1	7
676.383	1	3
676.722	1	9
677.060	1	4
677.399	1	14
677.738	1	5
678.077	1	-1
678.416	1	2
678.754	1	-1
679.093	1	8
679.432	1	-8
679.771	1	4
680.109	1	0
680.448	1	8
680.787	1	-2
681.125	1	-5
681.464	1	9
681.803	1	-2
682.142	1	-1
682.480	1	4
682.819	1	-2
683.158	1	2
683.496	1	0
683.835	1	12
684.174	1	8
684.512	1	8
684.851	1	9
685.190	1	6
685.529	1	4
685.867	1	3
686.206	1	-2
686.545	1	-5
686.883	1	12
687.222	1	-1
687.561	1	-1
687.899	1	0
688.238	1	5
688.577	1	9
688.746	1	8