File: Data/GaN_150K_450ms/GaN_sample D_spot15_UVVIS_150 K_200um_450 ms 2x2mm1_246.txt
340.368	1	17
340.710	1	1
341.052	1	3
341.394	1	-2
341.737	1	6
342.079	1	6
342.421	1	-2
342.763	1	-5
343.105	1	5
343.447	1	7
343.789	1	3
344.131	1	-7
344.473	1	2
344.815	1	3
345.157	1	11
345.499	1	7
345.841	1	8
346.183	1	-5
346.526	1	0
346.868	1	3
347.210	1	-12
347.552	1	19
347.894	1	-6
348.236	1	10
348.578	1	11
348.920	1	2
349.262	1	-5
349.604	1	-6
349.946	1	-1
350.288	1	-2
350.630	1	-3
350.972	1	3
351.314	1	-3
351.656	1	11
351.998	1	6
352.340	1	5
352.682	1	-4
353.024	1	19
353.366	1	-5
353.708	1	-2
354.050	1	-15
354.392	1	-14
354.734	1	1
355.076	1	13
355.418	1	-3
355.760	1	-6
356.102	1	8
356.444	1	13
356.785	1	7
357.127	1	10
357.469	1	7
357.811	1	7
358.153	1	-2
358.495	1	5
358.837	1	16
359.179	1	5
359.521	1	9
359.863	1	2
360.205	1	1
360.547	1	3
360.889	1	2
361.231	1	10
361.572	1	2
361.914	1	11
362.256	1	14
362.598	1	8
362.940	1	13
363.282	1	-2
363.624	1	9
363.966	1	1
364.308	1	16
364.649	1	10
364.991	1	9
365.333	1	7
365.675	1	17
366.017	1	19
366.359	1	14
366.701	1	8
367.042	1	20
367.384	1	0
367.726	1	16
368.068	1	28
368.410	1	15
368.752	1	26
369.093	1	21
369.435	1	20
369.777	1	25
370.119	1	24
370.461	1	18
370.803	1	17
371.144	1	17
371.486	1	22
371.828	1	8
372.170	1	8
372.512	1	10
372.853	1	21
373.195	1	10
373.537	1	2
373.879	1	6
374.220	1	11
374.562	1	8
374.904	1	6
375.246	1	11
375.588	1	5
375.929	1	14
376.271	1	1
376.613	1	7
376.955	1	9
377.296	1	11
377.638	1	9
377.980	1	0
378.321	1	5
378.663	1	3
379.005	1	11
379.347	1	8
379.688	1	8
380.030	1	4
380.372	1	8
380.714	1	2
381.055	1	3
381.397	1	-1
381.739	1	-5
382.080	1	7
382.422	1	5
382.764	1	5
383.105	1	-2
383.447	1	2
383.789	1	-7
384.130	1	-1
384.472	1	-6
384.814	1	3
385.156	1	3
385.497	1	9
385.839	1	3
386.180	1	5
386.522	1	4
386.864	1	-8
387.205	1	3
387.547	1	13
387.889	1	-1
388.230	1	6
388.572	1	-7
388.914	1	4
389.255	1	1
389.597	1	0
389.939	1	9
390.280	1	7
390.622	1	-7
390.963	1	8
391.305	1	-8
391.647	1	6
391.988	1	0
392.330	1	-1
392.671	1	13
393.013	1	0
393.355	1	2
393.696	1	9
394.038	1	-2
394.379	1	14
394.721	1	3
395.062	1	-5
395.404	1	8
395.746	1	-2
396.087	1	8
396.429	1	14
396.770	1	-1
397.112	1	6
397.453	1	-8
397.795	1	5
398.136	1	11
398.478	1	0
398.819	1	4
399.161	1	9
399.503	1	5
399.844	1	1
400.186	1	-2
400.527	1	7
400.869	1	2
401.210	1	-1
401.552	1	5
401.893	1	6
402.235	1	1
402.576	1	7
402.918	1	-4
403.259	1	5
403.601	1	9
403.942	1	5
404.284	1	14
404.625	1	-2
404.967	1	10
405.308	1	-8
405.649	1	6
405.991	1	0
406.332	1	0
406.674	1	4
407.015	1	0
407.357	1	12
407.698	1	13
408.040	1	9
408.381	1	0
408.722	1	14
409.064	1	8
409.405	1	-3
409.747	1	6
410.088	1	4
410.430	1	15
410.771	1	7
411.112	1	5
411.454	1	3
411.795	1	6
412.137	1	3
412.478	1	2
412.819	1	5
413.161	1	4
413.502	1	14
413.844	1	9
414.185	1	1
414.526	1	-6
414.868	1	-2
415.209	1	4
415.550	1	0
415.892	1	3
416.233	1	-3
416.575	1	-2
416.916	1	-1
417.257	1	-7
417.599	1	7
417.940	1	-8
418.281	1	5
418.623	1	11
418.964	1	15
419.305	1	-3
419.647	1	9
419.988	1	13
420.329	1	5
420.671	1	12
421.012	1	3
421.353	1	17
421.695	1	9
422.036	1	9
422.377	1	2
422.718	1	13
423.060	1	8
423.401	1	-5
423.742	1	4
424.084	1	2
424.425	1	8
424.766	1	-4
425.107	1	8
425.449	1	-1
425.790	1	-1
426.131	1	-3
426.472	1	11
426.814	1	1
427.155	1	5
427.496	1	-2
427.837	1	3
428.179	1	18
428.520	1	6
428.861	1	5
429.202	1	-6
429.544	1	5
429.885	1	12
430.226	1	-5
430.567	1	-5
430.909	1	0
431.250	1	8
431.591	1	8
431.932	1	-3
432.273	1	7
432.615	1	-5
432.956	1	6
433.297	1	2
433.638	1	4
433.979	1	10
434.320	1	4
434.662	1	8
435.003	1	5
435.344	1	-3
435.685	1	4
436.026	1	-4
436.368	1	0
436.709	1	2
437.050	1	0
437.391	1	0
437.732	1	9
438.073	1	3
438.414	1	3
438.756	1	-2
439.097	1	3
439.438	1	8
439.779	1	0
440.120	1	4
440.461	1	5
440.802	1	1
441.143	1	4
441.485	1	1
441.826	1	-3
442.167	1	10
442.508	1	-4
442.849	1	-1
443.190	1	5
443.531	1	5
443.872	1	-6
444.213	1	-10
444.554	1	3
444.895	1	1
445.237	1	0
445.578	1	-8
445.919	1	7
446.260	1	15
446.601	1	0
446.942	1	-2
447.283	1	8
447.624	1	-3
447.965	1	7
448.306	1	7
448.647	1	-2
448.988	1	6
449.329	1	-1
449.670	1	4
450.011	1	-5
450.352	1	-6
450.693	1	5
451.034	1	10
451.375	1	12
451.716	1	-2
452.057	1	2
452.398	1	10
452.739	1	4
453.080	1	13
453.421	1	5
453.762	1	8
454.103	1	-6
454.444	1	-1
454.785	1	-1
455.126	1	1
455.467	1	1
455.808	1	15
456.149	1	3
456.490	1	-1
456.831	1	-4
457.172	1	9
457.513	1	-4
457.854	1	-4
458.195	1	-1
458.536	1	9
458.877	1	-4
459.218	1	6
459.559	1	1
459.899	1	7
460.240	1	-2
460.581	1	-7
460.922	1	6
461.263	1	7
461.604	1	9
461.945	1	8
462.286	1	4
462.627	1	3
462.968	1	6
463.309	1	11
463.649	1	-5
463.990	1	4
464.331	1	5
464.672	1	0
465.013	1	9
465.354	1	3
465.695	1	1
466.036	1	11
466.376	1	14
466.717	1	-18
467.058	1	-3
467.399	1	-1
467.740	1	13
468.081	1	-3
468.422	1	6
468.762	1	3
469.103	1	0
469.444	1	5
469.785	1	-1
470.126	1	11
470.467	1	6
470.807	1	3
471.148	1	-13
471.489	1	6
471.830	1	10
472.171	1	5
472.511	1	3
472.852	1	11
473.193	1	6
473.534	1	8
473.875	1	9
474.215	1	-8
474.556	1	-5
474.897	1	-8
475.238	1	6
475.578	1	-11
475.919	1	0
476.260	1	-6
476.601	1	-3
476.942	1	-1
477.282	1	-3
477.623	1	-1
477.964	1	3
478.305	1	4
478.645	1	-2
478.986	1	4
479.327	1	4
479.667	1	-3
480.008	1	1
480.349	1	1
480.690	1	12
481.030	1	9
481.371	1	-10
481.712	1	13
482.053	1	2
482.393	1	6
482.734	1	5
483.075	1	1
483.415	1	6
483.756	1	-4
484.097	1	10
484.437	1	7
484.778	1	2
485.119	1	7
485.459	1	-6
485.800	1	-2
486.141	1	6
486.481	1	-4
486.822	1	5
487.163	1	2
487.503	1	-7
487.844	1	-3
488.185	1	7
488.525	1	-7
488.866	1	-3
489.207	1	8
489.547	1	3
489.888	1	4
490.228	1	6
490.569	1	-1
490.910	1	12
491.250	1	9
491.591	1	-2
491.932	1	6
492.272	1	-4
492.613	1	2
492.953	1	-3
493.294	1	-7
493.635	1	-2
493.975	1	13
494.316	1	2
494.656	1	15
494.997	1	-7
495.337	1	-3
495.678	1	2
496.019	1	0
496.359	1	-1
496.700	1	1
497.040	1	-4
497.381	1	-4
497.721	1	0
498.062	1	3
498.403	1	0
498.743	1	5
499.084	1	11
499.424	1	5
499.765	1	7
500.105	1	3
500.446	1	-6
500.786	1	-5
501.127	1	-1
501.467	1	8
501.808	1	4
502.148	1	2
502.489	1	-6
502.829	1	-4
503.170	1	6
503.510	1	1
503.851	1	5
504.191	1	-3
504.532	1	5
504.872	1	-1
505.213	1	6
505.553	1	-2
505.894	1	-5
506.234	1	9
506.575	1	18
506.915	1	6
507.256	1	-2
507.596	1	-1
507.936	1	9
508.277	1	2
508.617	1	11
508.958	1	6
509.298	1	-11
509.639	1	-10
509.979	1	-4
510.319	1	3
510.660	1	4
511.000	1	1
511.341	1	11
511.681	1	2
512.022	1	-6
512.362	1	2
512.702	1	-1
513.043	1	7
513.383	1	4
513.724	1	8
514.064	1	12
514.404	1	13
514.745	1	-3
515.085	1	5
515.425	1	5
515.766	1	-2
516.106	1	0
516.447	1	7
516.787	1	7
517.127	1	9
517.468	1	12
517.808	1	-4
518.148	1	13
518.489	1	5
518.829	1	2
519.169	1	-7
519.510	1	-4
519.850	1	0
520.190	1	2
520.531	1	6
520.871	1	8
521.211	1	3
521.552	1	8
521.892	1	2
522.232	1	3
522.573	1	-1
522.913	1	1
523.253	1	11
523.593	1	7
523.934	1	6
524.274	1	7
524.614	1	13
524.955	1	0
525.295	1	15
525.635	1	6
525.975	1	6
526.316	1	-2
526.656	1	6
526.996	1	0
527.337	1	10
527.677	1	10
528.017	1	-1
528.357	1	4
528.698	1	11
529.038	1	9
529.378	1	3
529.718	1	8
530.058	1	5
530.399	1	8
530.739	1	6
531.079	1	4
531.419	1	4
531.760	1	12
532.100	1	14
532.440	1	5
532.780	1	8
533.120	1	0
533.461	1	3
533.801	1	-2
534.141	1	4
534.481	1	15
534.821	1	8
535.162	1	10
535.502	1	-1
535.842	1	-1
536.182	1	-4
536.522	1	1
536.862	1	8
537.203	1	-3
537.543	1	-5
537.883	1	11
538.223	1	15
538.563	1	1
538.903	1	0
539.243	1	4
539.584	1	2
539.924	1	7
540.264	1	11
540.604	1	8
540.944	1	-2
541.284	1	-8
541.624	1	4
541.964	1	4
542.305	1	16
542.645	1	2
542.985	1	3
543.325	1	13
543.665	1	4
544.005	1	3
544.345	1	5
544.685	1	-5
545.025	1	6
545.365	1	15
545.705	1	2
546.045	1	9
546.386	1	-6
546.726	1	10
547.066	1	9
547.406	1	-5
547.746	1	2
548.086	1	0
548.426	1	0
548.766	1	0
549.106	1	7
549.446	1	7
549.786	1	-6
550.126	1	10
550.466	1	8
550.806	1	5
551.146	1	4
551.486	1	4
551.826	1	5
552.166	1	5
552.506	1	5
552.846	1	9
553.186	1	-12
553.526	1	-1
553.866	1	5
554.206	1	3
554.546	1	-7
554.886	1	4
555.226	1	2
555.566	1	4
555.906	1	1
556.246	1	11
556.586	1	4
556.926	1	1
557.266	1	7
557.606	1	-6
557.946	1	9
558.286	1	-13
558.626	1	9
558.966	1	-4
559.306	1	-5
559.646	1	4
559.986	1	5
560.325	1	5
560.665	1	2
561.005	1	4
561.345	1	1
561.685	1	-1
562.025	1	0
562.365	1	5
562.705	1	11
563.045	1	3
563.385	1	-2
563.725	1	-1
564.064	1	3
564.404	1	1
564.744	1	9
565.084	1	7
565.424	1	-8
565.764	1	2
566.104	1	5
566.444	1	9
566.783	1	3
567.123	1	-8
567.463	1	4
567.803	1	5
568.143	1	4
568.483	1	16
568.823	1	-1
569.162	1	-1
569.502	1	6
569.842	1	-2
570.182	1	0
570.522	1	-3
570.862	1	-7
571.201	1	14
571.541	1	-3
571.881	1	2
572.221	1	4
572.561	1	8
572.900	1	12
573.240	1	-6
573.580	1	2
573.920	1	11
574.260	1	1
574.599	1	3
574.939	1	4
575.279	1	2
575.619	1	-4
575.959	1	-1
576.298	1	-3
576.638	1	9
576.978	1	12
577.318	1	-1
577.657	1	3
577.997	1	2
578.337	1	6
578.677	1	-2
579.016	1	5
579.356	1	2
579.696	1	2
580.036	1	9
580.375	1	-2
580.715	1	-2
581.055	1	1
581.394	1	2
581.734	1	2
582.074	1	3
582.414	1	-3
582.753	1	-3
583.093	1	13
583.433	1	3
583.772	1	10
584.112	1	1
584.452	1	10
584.791	1	9
585.131	1	8
585.471	1	4
585.811	1	0
586.150	1	9
586.490	1	3
586.830	1	3
587.169	1	2
587.509	1	7
587.849	1	18
588.188	1	15
588.528	1	-3
588.867	1	5
589.207	1	11
589.547	1	3
589.886	1	7
590.226	1	-3
590.566	1	-6
590.905	1	-2
591.245	1	0
591.585	1	-4
591.924	1	-5
592.264	1	-4
592.603	1	-3
592.943	1	-5
593.283	1	6
593.622	1	-3
593.962	1	10
594.301	1	-2
594.641	1	4
594.981	1	3
595.320	1	6
595.660	1	4
595.999	1	12
596.339	1	-6
596.678	1	-9
597.018	1	-5
597.358	1	0
597.697	1	-6
598.037	1	-3
598.376	1	-2
598.716	1	9
599.055	1	10
599.395	1	-2
599.734	1	9
600.074	1	-3
600.413	1	1
600.753	1	1
601.092	1	-7
601.432	1	1
601.771	1	5
602.111	1	-3
602.451	1	-2
602.790	1	12
603.130	1	5
603.469	1	9
603.809	1	5
604.148	1	-1
604.487	1	4
604.827	1	2
605.166	1	7
605.506	1	9
605.845	1	13
606.185	1	-7
606.524	1	0
606.864	1	7
607.203	1	10
607.543	1	4
607.882	1	10
608.222	1	2
608.561	1	-2
608.901	1	5
609.240	1	2
609.579	1	6
609.919	1	-15
610.258	1	11
610.598	1	-2
610.937	1	2
611.277	1	2
611.616	1	14
611.955	1	-5
612.295	1	6
612.634	1	1
612.974	1	-4
613.313	1	3
613.652	1	17
613.992	1	-1
614.331	1	10
614.671	1	6
615.010	1	3
615.349	1	5
615.689	1	1
616.028	1	10
616.368	1	6
616.707	1	9
617.046	1	-3
617.386	1	15
617.725	1	9
618.064	1	3
618.404	1	7
618.743	1	8
619.082	1	11
619.422	1	16
619.761	1	-11
620.100	1	6
620.440	1	15
620.779	1	3
621.118	1	6
621.458	1	0
621.797	1	2
622.136	1	-2
622.476	1	-6
622.815	1	2
623.154	1	-9
623.494	1	-8
623.833	1	-1
624.172	1	9
624.511	1	1
624.851	1	-11
625.190	1	-1
625.529	1	4
625.869	1	11
626.208	1	-3
626.547	1	-9
626.886	1	-6
627.226	1	11
627.565	1	12
627.904	1	3
628.243	1	11
628.583	1	4
628.922	1	5
629.261	1	8
629.600	1	2
629.940	1	-1
630.279	1	11
630.618	1	9
630.957	1	5
631.297	1	6
631.636	1	-5
631.975	1	8
632.314	1	11
632.653	1	1
632.993	1	1
633.332	1	4
633.671	1	4
634.010	1	7
634.349	1	11
634.689	1	-6
635.028	1	-4
635.367	1	11
635.706	1	-8
636.045	1	4
636.384	1	9
636.724	1	8
637.063	1	-10
637.402	1	-3
637.741	1	4
638.080	1	3
638.419	1	0
638.759	1	0
639.098	1	1
639.437	1	5
639.776	1	10
640.115	1	-8
640.454	1	1
640.793	1	6
641.132	1	3
641.472	1	17
641.811	1	-13
642.150	1	2
642.489	1	2
642.828	1	18
643.167	1	5
643.506	1	-3
643.845	1	12
644.184	1	7
644.524	1	5
644.863	1	1
645.202	1	1
645.541	1	11
645.880	1	5
646.219	1	1
646.558	1	-5
646.897	1	-2
647.236	1	0
647.575	1	6
647.914	1	-8
648.253	1	16
648.592	1	1
648.931	1	6
649.270	1	14
649.610	1	7
649.949	1	5
650.288	1	0
650.627	1	-5
650.966	1	2
651.305	1	12
651.644	1	2
651.983	1	-4
652.322	1	4
652.661	1	0
653.000	1	0
653.339	1	6
653.678	1	-1
654.017	1	0
654.356	1	4
654.695	1	7
655.034	1	-3
655.373	1	1
655.712	1	14
656.051	1	1
656.390	1	0
656.729	1	7
657.068	1	6
657.406	1	-3
657.745	1	15
658.084	1	4
658.423	1	6
658.762	1	2
659.101	1	3
659.440	1	-1
659.779	1	-2
660.118	1	2
660.457	1	0
660.796	1	10
661.135	1	12
661.474	1	7
661.813	1	3
662.152	1	-2
662.491	1	-2
662.829	1	6
663.168	1	1
663.507	1	4
663.846	1	-5
664.185	1	-1
664.524	1	8
664.863	1	-16
665.202	1	8
665.541	1	4
665.879	1	-2
666.218	1	9
666.557	1	-6
666.896	1	0
667.235	1	-3
667.574	1	3
667.913	1	-3
668.251	1	-4
668.590	1	-7
668.929	1	3
669.268	1	2
669.607	1	-9
669.946	1	9
670.285	1	-2
670.623	1	4
670.962	1	-4
671.301	1	-1
671.640	1	3
671.979	1	-13
672.317	1	1
672.656	1	0
672.995	1	-2
673.334	1	-8
673.673	1	7
674.011	1	5
674.350	1	3
674.689	1	-4
675.028	1	1
675.367	1	0
675.705	1	-9
676.044	1	-1
676.383	1	1
676.722	1	0
677.060	1	1
677.399	1	15
677.738	1	-6
678.077	1	-15
678.416	1	-2
678.754	1	1
679.093	1	8
679.432	1	-3
679.771	1	-1
680.109	1	-4
680.448	1	-3
680.787	1	-11
681.125	1	-8
681.464	1	4
681.803	1	-4
682.142	1	-4
682.480	1	7
682.819	1	-5
683.158	1	3
683.496	1	-5
683.835	1	14
684.174	1	-1
684.512	1	6
684.851	1	2
685.190	1	6
685.529	1	-6
685.867	1	7
686.206	1	-3
686.545	1	-4
686.883	1	14
687.222	1	-12
687.561	1	7
687.899	1	-6
688.238	1	6
688.577	1	3
688.746	1	6