File: Data/GaN_150K_450ms/GaN_sample D_spot15_UVVIS_150 K_200um_450 ms 2x2mm1_104.txt
340.368	1	5
340.710	1	1
341.052	1	12
341.394	1	-1
341.737	1	11
342.079	1	7
342.421	1	9
342.763	1	11
343.105	1	14
343.447	1	5
343.789	1	-2
344.131	1	-9
344.473	1	-1
344.815	1	8
345.157	1	13
345.499	1	-4
345.841	1	6
346.183	1	9
346.526	1	1
346.868	1	2
347.210	1	9
347.552	1	20
347.894	1	-2
348.236	1	0
348.578	1	10
348.920	1	6
349.262	1	8
349.604	1	8
349.946	1	12
350.288	1	4
350.630	1	8
350.972	1	-1
351.314	1	4
351.656	1	11
351.998	1	5
352.340	1	10
352.682	1	-2
353.024	1	24
353.366	1	8
353.708	1	12
354.050	1	1
354.392	1	0
354.734	1	12
355.076	1	16
355.418	1	6
355.760	1	11
356.102	1	11
356.444	1	15
356.785	1	16
357.127	1	15
357.469	1	14
357.811	1	14
358.153	1	4
358.495	1	16
358.837	1	27
359.179	1	19
359.521	1	27
359.863	1	22
360.205	1	21
360.547	1	27
360.889	1	37
361.231	1	30
361.572	1	17
361.914	1	27
362.256	1	35
362.598	1	30
362.940	1	44
363.282	1	39
363.624	1	44
363.966	1	40
364.308	1	56
364.649	1	61
364.991	1	66
365.333	1	61
365.675	1	83
366.017	1	74
366.359	1	72
366.701	1	81
367.042	1	85
367.384	1	82
367.726	1	92
368.068	1	96
368.410	1	89
368.752	1	93
369.093	1	97
369.435	1	90
369.777	1	90
370.119	1	85
370.461	1	82
370.803	1	75
371.144	1	71
371.486	1	75
371.828	1	62
372.170	1	55
372.512	1	53
372.853	1	65
373.195	1	56
373.537	1	50
373.879	1	48
374.220	1	59
374.562	1	54
374.904	1	58
375.246	1	40
375.588	1	34
375.929	1	33
376.271	1	49
376.613	1	41
376.955	1	30
377.296	1	44
377.638	1	30
377.980	1	36
378.321	1	36
378.663	1	26
379.005	1	30
379.347	1	23
379.688	1	37
380.030	1	33
380.372	1	26
380.714	1	19
381.055	1	19
381.397	1	27
381.739	1	9
382.080	1	16
382.422	1	31
382.764	1	7
383.105	1	16
383.447	1	20
383.789	1	5
384.130	1	14
384.472	1	10
384.814	1	18
385.156	1	18
385.497	1	26
385.839	1	19
386.180	1	12
386.522	1	9
386.864	1	8
387.205	1	8
387.547	1	13
387.889	1	9
388.230	1	15
388.572	1	10
388.914	1	21
389.255	1	11
389.597	1	0
389.939	1	18
390.280	1	8
390.622	1	10
390.963	1	4
391.305	1	12
391.647	1	12
391.988	1	8
392.330	1	17
392.671	1	11
393.013	1	20
393.355	1	19
393.696	1	17
394.038	1	15
394.379	1	12
394.721	1	7
395.062	1	4
395.404	1	9
395.746	1	3
396.087	1	20
396.429	1	17
396.770	1	19
397.112	1	7
397.453	1	-1
397.795	1	11
398.136	1	12
398.478	1	4
398.819	1	7
399.161	1	24
399.503	1	23
399.844	1	7
400.186	1	8
400.527	1	13
400.869	1	7
401.210	1	19
401.552	1	18
401.893	1	13
402.235	1	12
402.576	1	18
402.918	1	-1
403.259	1	16
403.601	1	21
403.942	1	4
404.284	1	20
404.625	1	8
404.967	1	16
405.308	1	9
405.649	1	4
405.991	1	15
406.332	1	9
406.674	1	12
407.015	1	20
407.357	1	23
407.698	1	14
408.040	1	22
408.381	1	8
408.722	1	17
409.064	1	20
409.405	1	13
409.747	1	8
410.088	1	15
410.430	1	17
410.771	1	15
411.112	1	8
411.454	1	17
411.795	1	11
412.137	1	15
412.478	1	16
412.819	1	16
413.161	1	6
413.502	1	12
413.844	1	23
414.185	1	10
414.526	1	11
414.868	1	8
415.209	1	11
415.550	1	13
415.892	1	18
416.233	1	15
416.575	1	0
416.916	1	10
417.257	1	9
417.599	1	13
417.940	1	4
418.281	1	20
418.623	1	12
418.964	1	24
419.305	1	24
419.647	1	9
419.988	1	23
420.329	1	14
420.671	1	29
421.012	1	14
421.353	1	30
421.695	1	24
422.036	1	32
422.377	1	11
422.718	1	16
423.060	1	18
423.401	1	8
423.742	1	21
424.084	1	17
424.425	1	19
424.766	1	20
425.107	1	16
425.449	1	16
425.790	1	13
426.131	1	-2
426.472	1	15
426.814	1	8
427.155	1	19
427.496	1	9
427.837	1	15
428.179	1	26
428.520	1	15
428.861	1	19
429.202	1	-5
429.544	1	20
429.885	1	17
430.226	1	-4
430.567	1	3
430.909	1	0
431.250	1	12
431.591	1	17
431.932	1	3
432.273	1	26
432.615	1	16
432.956	1	17
433.297	1	24
433.638	1	23
433.979	1	14
434.320	1	13
434.662	1	11
435.003	1	23
435.344	1	10
435.685	1	14
436.026	1	4
436.368	1	5
436.709	1	4
437.050	1	8
437.391	1	9
437.732	1	15
438.073	1	11
438.414	1	14
438.756	1	9
439.097	1	9
439.438	1	15
439.779	1	10
440.120	1	14
440.461	1	13
440.802	1	6
441.143	1	7
441.485	1	8
441.826	1	12
442.167	1	6
442.508	1	10
442.849	1	11
443.190	1	7
443.531	1	12
443.872	1	4
444.213	1	-2
444.554	1	13
444.895	1	-3
445.237	1	21
445.578	1	-4
445.919	1	3
446.260	1	22
446.601	1	11
446.942	1	2
447.283	1	14
447.624	1	7
447.965	1	13
448.306	1	8
448.647	1	7
448.988	1	15
449.329	1	18
449.670	1	16
450.011	1	9
450.352	1	9
450.693	1	15
451.034	1	11
451.375	1	7
451.716	1	15
452.057	1	11
452.398	1	15
452.739	1	13
453.080	1	4
453.421	1	13
453.762	1	13
454.103	1	14
454.444	1	10
454.785	1	14
455.126	1	8
455.467	1	12
455.808	1	15
456.149	1	5
456.490	1	-3
456.831	1	10
457.172	1	18
457.513	1	7
457.854	1	10
458.195	1	7
458.536	1	10
458.877	1	13
459.218	1	12
459.559	1	12
459.899	1	6
460.240	1	0
460.581	1	2
460.922	1	7
461.263	1	16
461.604	1	6
461.945	1	17
462.286	1	5
462.627	1	9
462.968	1	15
463.309	1	12
463.649	1	6
463.990	1	4
464.331	1	10
464.672	1	7
465.013	1	5
465.354	1	18
465.695	1	13
466.036	1	7
466.376	1	20
466.717	1	-4
467.058	1	10
467.399	1	3
467.740	1	19
468.081	1	14
468.422	1	4
468.762	1	9
469.103	1	2
469.444	1	12
469.785	1	8
470.126	1	15
470.467	1	8
470.807	1	5
471.148	1	11
471.489	1	9
471.830	1	5
472.171	1	9
472.511	1	13
472.852	1	5
473.193	1	7
473.534	1	7
473.875	1	1
474.215	1	15
474.556	1	0
474.897	1	6
475.238	1	13
475.578	1	4
475.919	1	12
476.260	1	7
476.601	1	5
476.942	1	2
477.282	1	-4
477.623	1	2
477.964	1	16
478.305	1	8
478.645	1	-1
478.986	1	8
479.327	1	9
479.667	1	7
480.008	1	11
480.349	1	-2
480.690	1	7
481.030	1	6
481.371	1	-3
481.712	1	20
482.053	1	10
482.393	1	7
482.734	1	16
483.075	1	15
483.415	1	11
483.756	1	5
484.097	1	5
484.437	1	14
484.778	1	-1
485.119	1	12
485.459	1	7
485.800	1	-8
486.141	1	16
486.481	1	-9
486.822	1	20
487.163	1	4
487.503	1	2
487.844	1	-1
488.185	1	11
488.525	1	0
488.866	1	-1
489.207	1	9
489.547	1	2
489.888	1	18
490.228	1	11
490.569	1	4
490.910	1	17
491.250	1	4
491.591	1	12
491.932	1	16
492.272	1	1
492.613	1	7
492.953	1	13
493.294	1	7
493.635	1	11
493.975	1	22
494.316	1	11
494.656	1	13
494.997	1	3
495.337	1	5
495.678	1	1
496.019	1	8
496.359	1	12
496.700	1	13
497.040	1	10
497.381	1	15
497.721	1	8
498.062	1	4
498.403	1	23
498.743	1	17
499.084	1	9
499.424	1	11
499.765	1	13
500.105	1	28
500.446	1	7
500.786	1	8
501.127	1	12
501.467	1	18
501.808	1	7
502.148	1	5
502.489	1	15
502.829	1	16
503.170	1	13
503.510	1	10
503.851	1	12
504.191	1	7
504.532	1	16
504.872	1	9
505.213	1	9
505.553	1	20
505.894	1	15
506.234	1	23
506.575	1	23
506.915	1	16
507.256	1	14
507.596	1	24
507.936	1	16
508.277	1	33
508.617	1	20
508.958	1	27
509.298	1	17
509.639	1	11
509.979	1	10
510.319	1	20
510.660	1	12
511.000	1	15
511.341	1	30
511.681	1	13
512.022	1	0
512.362	1	22
512.702	1	19
513.043	1	13
513.383	1	22
513.724	1	24
514.064	1	22
514.404	1	30
514.745	1	16
515.085	1	28
515.425	1	30
515.766	1	16
516.106	1	20
516.447	1	37
516.787	1	25
517.127	1	26
517.468	1	27
517.808	1	9
518.148	1	22
518.489	1	19
518.829	1	23
519.169	1	11
519.510	1	14
519.850	1	22
520.190	1	20
520.531	1	26
520.871	1	23
521.211	1	24
521.552	1	17
521.892	1	20
522.232	1	23
522.573	1	23
522.913	1	22
523.253	1	18
523.593	1	30
523.934	1	18
524.274	1	23
524.614	1	19
524.955	1	27
525.295	1	31
525.635	1	22
525.975	1	16
526.316	1	13
526.656	1	30
526.996	1	18
527.337	1	33
527.677	1	23
528.017	1	16
528.357	1	27
528.698	1	43
529.038	1	36
529.378	1	29
529.718	1	24
530.058	1	21
530.399	1	25
530.739	1	26
531.079	1	26
531.419	1	37
531.760	1	25
532.100	1	41
532.440	1	28
532.780	1	23
533.120	1	16
533.461	1	16
533.801	1	19
534.141	1	34
534.481	1	38
534.821	1	22
535.162	1	20
535.502	1	25
535.842	1	19
536.182	1	11
536.522	1	28
536.862	1	22
537.203	1	18
537.543	1	28
537.883	1	22
538.223	1	36
538.563	1	18
538.903	1	23
539.243	1	23
539.584	1	13
539.924	1	24
540.264	1	27
540.604	1	27
540.944	1	15
541.284	1	18
541.624	1	13
541.964	1	17
542.305	1	25
542.645	1	15
542.985	1	12
543.325	1	21
543.665	1	17
544.005	1	22
544.345	1	16
544.685	1	18
545.025	1	24
545.365	1	21
545.705	1	21
546.045	1	25
546.386	1	18
546.726	1	24
547.066	1	18
547.406	1	17
547.746	1	10
548.086	1	25
548.426	1	16
548.766	1	25
549.106	1	15
549.446	1	28
549.786	1	25
550.126	1	24
550.466	1	14
550.806	1	28
551.146	1	18
551.486	1	25
551.826	1	17
552.166	1	17
552.506	1	22
552.846	1	27
553.186	1	11
553.526	1	19
553.866	1	12
554.206	1	25
554.546	1	26
554.886	1	17
555.226	1	14
555.566	1	14
555.906	1	13
556.246	1	7
556.586	1	23
556.926	1	23
557.266	1	31
557.606	1	9
557.946	1	16
558.286	1	4
558.626	1	14
558.966	1	12
559.306	1	23
559.646	1	16
559.986	1	8
560.325	1	20
560.665	1	16
561.005	1	6
561.345	1	19
561.685	1	19
562.025	1	15
562.365	1	13
562.705	1	20
563.045	1	13
563.385	1	11
563.725	1	13
564.064	1	9
564.404	1	7
564.744	1	20
565.084	1	17
565.424	1	16
565.764	1	8
566.104	1	19
566.444	1	18
566.783	1	17
567.123	1	12
567.463	1	20
567.803	1	18
568.143	1	25
568.483	1	25
568.823	1	9
569.162	1	10
569.502	1	20
569.842	1	9
570.182	1	18
570.522	1	7
570.862	1	3
571.201	1	17
571.541	1	13
571.881	1	10
572.221	1	15
572.561	1	22
572.900	1	19
573.240	1	4
573.580	1	11
573.920	1	21
574.260	1	7
574.599	1	21
574.939	1	9
575.279	1	5
575.619	1	14
575.959	1	11
576.298	1	7
576.638	1	22
576.978	1	16
577.318	1	19
577.657	1	8
577.997	1	13
578.337	1	14
578.677	1	13
579.016	1	11
579.356	1	14
579.696	1	15
580.036	1	11
580.375	1	12
580.715	1	8
581.055	1	10
581.394	1	8
581.734	1	11
582.074	1	16
582.414	1	7
582.753	1	11
583.093	1	14
583.433	1	17
583.772	1	11
584.112	1	13
584.452	1	9
584.791	1	10
585.131	1	22
585.471	1	6
585.811	1	12
586.150	1	9
586.490	1	4
586.830	1	6
587.169	1	4
587.509	1	5
587.849	1	6
588.188	1	16
588.528	1	6
588.867	1	13
589.207	1	10
589.547	1	12
589.886	1	15
590.226	1	3
590.566	1	3
590.905	1	5
591.245	1	1
591.585	1	6
591.924	1	9
592.264	1	3
592.603	1	2
592.943	1	3
593.283	1	7
593.622	1	1
593.962	1	6
594.301	1	1
594.641	1	12
594.981	1	2
595.320	1	16
595.660	1	11
595.999	1	-1
596.339	1	16
596.678	1	0
597.018	1	8
597.358	1	11
597.697	1	3
598.037	1	4
598.376	1	4
598.716	1	10
599.055	1	12
599.395	1	4
599.734	1	11
600.074	1	6
600.413	1	6
600.753	1	11
601.092	1	6
601.432	1	2
601.771	1	11
602.111	1	13
602.451	1	5
602.790	1	14
603.130	1	6
603.469	1	8
603.809	1	16
604.148	1	9
604.487	1	-8
604.827	1	11
605.166	1	4
605.506	1	7
605.845	1	10
606.185	1	0
606.524	1	0
606.864	1	14
607.203	1	8
607.543	1	14
607.882	1	6
608.222	1	-4
608.561	1	2
608.901	1	15
609.240	1	7
609.579	1	11
609.919	1	-3
610.258	1	18
610.598	1	0
610.937	1	2
611.277	1	16
611.616	1	8
611.955	1	5
612.295	1	6
612.634	1	8
612.974	1	3
613.313	1	13
613.652	1	14
613.992	1	-1
614.331	1	5
614.671	1	3
615.010	1	14
615.349	1	4
615.689	1	5
616.028	1	19
616.368	1	12
616.707	1	9
617.046	1	0
617.386	1	15
617.725	1	1
618.064	1	3
618.404	1	0
618.743	1	6
619.082	1	10
619.422	1	15
619.761	1	2
620.100	1	6
620.440	1	6
620.779	1	17
621.118	1	16
621.458	1	8
621.797	1	8
622.136	1	4
622.476	1	8
622.815	1	10
623.154	1	1
623.494	1	-7
623.833	1	3
624.172	1	1
624.511	1	-13
624.851	1	-1
625.190	1	5
625.529	1	8
625.869	1	7
626.208	1	2
626.547	1	5
626.886	1	4
627.226	1	6
627.565	1	10
627.904	1	5
628.243	1	18
628.583	1	13
628.922	1	7
629.261	1	11
629.600	1	5
629.940	1	13
630.279	1	4
630.618	1	12
630.957	1	16
631.297	1	1
631.636	1	-1
631.975	1	7
632.314	1	8
632.653	1	9
632.993	1	0
633.332	1	14
633.671	1	18
634.010	1	0
634.349	1	7
634.689	1	3
635.028	1	-3
635.367	1	10
635.706	1	3
636.045	1	6
636.384	1	17
636.724	1	14
637.063	1	3
637.402	1	12
637.741	1	9
638.080	1	6
638.419	1	0
638.759	1	9
639.098	1	9
639.437	1	6
639.776	1	5
640.115	1	3
640.454	1	2
640.793	1	1
641.132	1	2
641.472	1	20
641.811	1	-2
642.150	1	-2
642.489	1	16
642.828	1	11
643.167	1	10
643.506	1	1
643.845	1	7
644.184	1	16
644.524	1	1
644.863	1	5
645.202	1	6
645.541	1	3
645.880	1	7
646.219	1	0
646.558	1	-2
646.897	1	-14
647.236	1	4
647.575	1	12
647.914	1	7
648.253	1	7
648.592	1	5
648.931	1	10
649.270	1	17
649.610	1	6
649.949	1	1
650.288	1	5
650.627	1	4
650.966	1	-3
651.305	1	9
651.644	1	12
651.983	1	2
652.322	1	7
652.661	1	13
653.000	1	8
653.339	1	3
653.678	1	14
654.017	1	18
654.356	1	14
654.695	1	15
655.034	1	2
655.373	1	18
655.712	1	11
656.051	1	-10
656.390	1	8
656.729	1	8
657.068	1	8
657.406	1	8
657.745	1	7
658.084	1	2
658.423	1	9
658.762	1	6
659.101	1	2
659.440	1	2
659.779	1	2
660.118	1	0
660.457	1	12
660.796	1	8
661.135	1	14
661.474	1	4
661.813	1	6
662.152	1	1
662.491	1	-4
662.829	1	3
663.168	1	3
663.507	1	13
663.846	1	6
664.185	1	2
664.524	1	13
664.863	1	0
665.202	1	10
665.541	1	-1
665.879	1	7
666.218	1	10
666.557	1	0
666.896	1	10
667.235	1	-7
667.574	1	3
667.913	1	13
668.251	1	-3
668.590	1	-2
668.929	1	3
669.268	1	-4
669.607	1	-2
669.946	1	8
670.285	1	-3
670.623	1	3
670.962	1	6
671.301	1	3
671.640	1	9
671.979	1	6
672.317	1	5
672.656	1	11
672.995	1	5
673.334	1	3
673.673	1	8
674.011	1	9
674.350	1	12
674.689	1	2
675.028	1	4
675.367	1	6
675.705	1	0
676.044	1	5
676.383	1	-1
676.722	1	8
677.060	1	-2
677.399	1	11
677.738	1	3
678.077	1	-3
678.416	1	1
678.754	1	8
679.093	1	8
679.432	1	1
679.771	1	6
680.109	1	8
680.448	1	-1
680.787	1	-4
681.125	1	9
681.464	1	7
681.803	1	-1
682.142	1	4
682.480	1	-5
682.819	1	-6
683.158	1	4
683.496	1	4
683.835	1	8
684.174	1	7
684.512	1	-3
684.851	1	6
685.190	1	2
685.529	1	-3
685.867	1	2
686.206	1	-2
686.545	1	7
686.883	1	12
687.222	1	7
687.561	1	11
687.899	1	5
688.238	1	10
688.577	1	4
688.746	1	7