File: Data/GaN_150K_450ms/GaN_sample D_spot15_UVVIS_150 K_200um_450 ms 2x2mm1_168.txt
340.368	1	7
340.710	1	3
341.052	1	1
341.394	1	-3
341.737	1	4
342.079	1	6
342.421	1	2
342.763	1	-2
343.105	1	10
343.447	1	3
343.789	1	6
344.131	1	-9
344.473	1	1
344.815	1	6
345.157	1	14
345.499	1	2
345.841	1	7
346.183	1	4
346.526	1	12
346.868	1	10
347.210	1	-6
347.552	1	17
347.894	1	-2
348.236	1	4
348.578	1	9
348.920	1	1
349.262	1	0
349.604	1	5
349.946	1	2
350.288	1	-3
350.630	1	3
350.972	1	13
351.314	1	0
351.656	1	9
351.998	1	7
352.340	1	13
352.682	1	-13
353.024	1	15
353.366	1	11
353.708	1	0
354.050	1	-5
354.392	1	-3
354.734	1	1
355.076	1	24
355.418	1	3
355.760	1	4
356.102	1	6
356.444	1	14
356.785	1	8
357.127	1	11
357.469	1	4
357.811	1	4
358.153	1	-6
358.495	1	9
358.837	1	16
359.179	1	17
359.521	1	16
359.863	1	7
360.205	1	17
360.547	1	17
360.889	1	5
361.231	1	15
361.572	1	13
361.914	1	11
362.256	1	14
362.598	1	19
362.940	1	5
363.282	1	11
363.624	1	15
363.966	1	13
364.308	1	20
364.649	1	20
364.991	1	20
365.333	1	18
365.675	1	28
366.017	1	45
366.359	1	25
366.701	1	29
367.042	1	26
367.384	1	28
367.726	1	29
368.068	1	35
368.410	1	38
368.752	1	44
369.093	1	28
369.435	1	39
369.777	1	41
370.119	1	32
370.461	1	38
370.803	1	29
371.144	1	33
371.486	1	34
371.828	1	29
372.170	1	22
372.512	1	10
372.853	1	30
373.195	1	24
373.537	1	15
373.879	1	15
374.220	1	29
374.562	1	29
374.904	1	16
375.246	1	13
375.588	1	13
375.929	1	18
376.271	1	7
376.613	1	21
376.955	1	14
377.296	1	3
377.638	1	5
377.980	1	8
378.321	1	12
378.663	1	14
379.005	1	9
379.347	1	7
379.688	1	16
380.030	1	15
380.372	1	15
380.714	1	12
381.055	1	5
381.397	1	10
381.739	1	-12
382.080	1	10
382.422	1	8
382.764	1	11
383.105	1	2
383.447	1	12
383.789	1	-6
384.130	1	13
384.472	1	11
384.814	1	3
385.156	1	11
385.497	1	12
385.839	1	8
386.180	1	7
386.522	1	9
386.864	1	1
387.205	1	0
387.547	1	8
387.889	1	14
388.230	1	7
388.572	1	1
388.914	1	16
389.255	1	4
389.597	1	6
389.939	1	13
390.280	1	2
390.622	1	-5
390.963	1	-3
391.305	1	4
391.647	1	4
391.988	1	7
392.330	1	4
392.671	1	10
393.013	1	16
393.355	1	20
393.696	1	4
394.038	1	7
394.379	1	9
394.721	1	4
395.062	1	-4
395.404	1	10
395.746	1	2
396.087	1	14
396.429	1	11
396.770	1	10
397.112	1	3
397.453	1	-3
397.795	1	10
398.136	1	3
398.478	1	5
398.819	1	8
399.161	1	12
399.503	1	22
399.844	1	-6
400.186	1	11
400.527	1	6
400.869	1	3
401.210	1	5
401.552	1	0
401.893	1	7
402.235	1	9
402.576	1	3
402.918	1	-5
403.259	1	6
403.601	1	19
403.942	1	6
404.284	1	19
404.625	1	-3
404.967	1	-3
405.308	1	-6
405.649	1	6
405.991	1	13
406.332	1	6
406.674	1	11
407.015	1	14
407.357	1	10
407.698	1	7
408.040	1	17
408.381	1	-5
408.722	1	10
409.064	1	14
409.405	1	10
409.747	1	13
410.088	1	21
410.430	1	9
410.771	1	12
411.112	1	12
411.454	1	9
411.795	1	6
412.137	1	6
412.478	1	9
412.819	1	6
413.161	1	12
413.502	1	11
413.844	1	21
414.185	1	10
414.526	1	8
414.868	1	-5
415.209	1	2
415.550	1	1
415.892	1	11
416.233	1	3
416.575	1	5
416.916	1	5
417.257	1	4
417.599	1	7
417.940	1	3
418.281	1	13
418.623	1	8
418.964	1	18
419.305	1	13
419.647	1	13
419.988	1	17
420.329	1	20
420.671	1	11
421.012	1	6
421.353	1	10
421.695	1	12
422.036	1	13
422.377	1	7
422.718	1	11
423.060	1	17
423.401	1	9
423.742	1	12
424.084	1	16
424.425	1	18
424.766	1	1
425.107	1	12
425.449	1	8
425.790	1	12
426.131	1	0
426.472	1	13
426.814	1	10
427.155	1	5
427.496	1	9
427.837	1	2
428.179	1	21
428.520	1	4
428.861	1	10
429.202	1	-14
429.544	1	3
429.885	1	9
430.226	1	5
430.567	1	-6
430.909	1	-6
431.250	1	11
431.591	1	6
431.932	1	10
432.273	1	17
432.615	1	5
432.956	1	11
433.297	1	1
433.638	1	21
433.979	1	11
434.320	1	4
434.662	1	9
435.003	1	14
435.344	1	15
435.685	1	5
436.026	1	-1
436.368	1	-1
436.709	1	0
437.050	1	12
437.391	1	7
437.732	1	2
438.073	1	7
438.414	1	15
438.756	1	10
439.097	1	13
439.438	1	6
439.779	1	12
440.120	1	1
440.461	1	9
440.802	1	6
441.143	1	7
441.485	1	-3
441.826	1	3
442.167	1	16
442.508	1	6
442.849	1	16
443.190	1	4
443.531	1	11
443.872	1	7
444.213	1	-4
444.554	1	16
444.895	1	2
445.237	1	11
445.578	1	4
445.919	1	4
446.260	1	13
446.601	1	0
446.942	1	-2
447.283	1	13
447.624	1	-5
447.965	1	4
448.306	1	0
448.647	1	-2
448.988	1	4
449.329	1	8
449.670	1	5
450.011	1	4
450.352	1	3
450.693	1	6
451.034	1	3
451.375	1	0
451.716	1	5
452.057	1	5
452.398	1	11
452.739	1	16
453.080	1	9
453.421	1	14
453.762	1	13
454.103	1	3
454.444	1	4
454.785	1	12
455.126	1	5
455.467	1	5
455.808	1	17
456.149	1	-7
456.490	1	0
456.831	1	0
457.172	1	12
457.513	1	8
457.854	1	3
458.195	1	4
458.536	1	6
458.877	1	6
459.218	1	8
459.559	1	4
459.899	1	5
460.240	1	-4
460.581	1	3
460.922	1	3
461.263	1	13
461.604	1	2
461.945	1	6
462.286	1	-3
462.627	1	4
462.968	1	18
463.309	1	5
463.649	1	2
463.990	1	6
464.331	1	9
464.672	1	5
465.013	1	5
465.354	1	5
465.695	1	2
466.036	1	7
466.376	1	13
466.717	1	-8
467.058	1	12
467.399	1	-4
467.740	1	9
468.081	1	7
468.422	1	7
468.762	1	8
469.103	1	1
469.444	1	0
469.785	1	6
470.126	1	9
470.467	1	6
470.807	1	8
471.148	1	0
471.489	1	8
471.830	1	2
472.171	1	11
472.511	1	6
472.852	1	12
473.193	1	10
473.534	1	5
473.875	1	6
474.215	1	5
474.556	1	-2
474.897	1	-4
475.238	1	3
475.578	1	9
475.919	1	-6
476.260	1	2
476.601	1	5
476.942	1	5
477.282	1	-3
477.623	1	-1
477.964	1	14
478.305	1	6
478.645	1	3
478.986	1	16
479.327	1	9
479.667	1	7
480.008	1	13
480.349	1	7
480.690	1	6
481.030	1	-2
481.371	1	-4
481.712	1	21
482.053	1	5
482.393	1	-1
482.734	1	1
483.075	1	13
483.415	1	11
483.756	1	8
484.097	1	13
484.437	1	12
484.778	1	1
485.119	1	-1
485.459	1	-7
485.800	1	2
486.141	1	9
486.481	1	-4
486.822	1	6
487.163	1	-1
487.503	1	1
487.844	1	-6
488.185	1	8
488.525	1	4
488.866	1	-2
489.207	1	0
489.547	1	1
489.888	1	9
490.228	1	7
490.569	1	4
490.910	1	7
491.250	1	15
491.591	1	7
491.932	1	9
492.272	1	1
492.613	1	7
492.953	1	5
493.294	1	-4
493.635	1	8
493.975	1	16
494.316	1	1
494.656	1	8
494.997	1	3
495.337	1	-1
495.678	1	-3
496.019	1	3
496.359	1	-7
496.700	1	0
497.040	1	5
497.381	1	1
497.721	1	-3
498.062	1	-1
498.403	1	7
498.743	1	9
499.084	1	6
499.424	1	8
499.765	1	8
500.105	1	17
500.446	1	-3
500.786	1	3
501.127	1	14
501.467	1	16
501.808	1	7
502.148	1	3
502.489	1	1
502.829	1	6
503.170	1	2
503.510	1	2
503.851	1	9
504.191	1	2
504.532	1	21
504.872	1	7
505.213	1	0
505.553	1	4
505.894	1	6
506.234	1	10
506.575	1	18
506.915	1	0
507.256	1	3
507.596	1	10
507.936	1	16
508.277	1	11
508.617	1	16
508.958	1	12
509.298	1	-1
509.639	1	5
509.979	1	4
510.319	1	4
510.660	1	-9
511.000	1	7
511.341	1	13
511.681	1	12
512.022	1	0
512.362	1	8
512.702	1	3
513.043	1	8
513.383	1	5
513.724	1	7
514.064	1	14
514.404	1	7
514.745	1	7
515.085	1	14
515.425	1	8
515.766	1	13
516.106	1	-2
516.447	1	15
516.787	1	10
517.127	1	13
517.468	1	21
517.808	1	-3
518.148	1	14
518.489	1	-1
518.829	1	9
519.169	1	3
519.510	1	3
519.850	1	0
520.190	1	6
520.531	1	6
520.871	1	7
521.211	1	6
521.552	1	0
521.892	1	5
522.232	1	11
522.573	1	10
522.913	1	5
523.253	1	14
523.593	1	19
523.934	1	12
524.274	1	9
524.614	1	15
524.955	1	8
525.295	1	12
525.635	1	12
525.975	1	6
526.316	1	1
526.656	1	10
526.996	1	1
527.337	1	9
527.677	1	21
528.017	1	2
528.357	1	12
528.698	1	9
529.038	1	8
529.378	1	4
529.718	1	10
530.058	1	7
530.399	1	1
530.739	1	13
531.079	1	10
531.419	1	6
531.760	1	19
532.100	1	18
532.440	1	16
532.780	1	7
533.120	1	8
533.461	1	7
533.801	1	13
534.141	1	3
534.481	1	30
534.821	1	7
535.162	1	13
535.502	1	5
535.842	1	19
536.182	1	17
536.522	1	6
536.862	1	10
537.203	1	8
537.543	1	18
537.883	1	0
538.223	1	20
538.563	1	3
538.903	1	7
539.243	1	14
539.584	1	4
539.924	1	4
540.264	1	11
540.604	1	19
540.944	1	10
541.284	1	5
541.624	1	4
541.964	1	1
542.305	1	18
542.645	1	9
542.985	1	11
543.325	1	5
543.665	1	9
544.005	1	6
544.345	1	15
544.685	1	9
545.025	1	14
545.365	1	11
545.705	1	12
546.045	1	13
546.386	1	5
546.726	1	7
547.066	1	-1
547.406	1	6
547.746	1	6
548.086	1	8
548.426	1	7
548.766	1	12
549.106	1	3
549.446	1	9
549.786	1	8
550.126	1	11
550.466	1	11
550.806	1	24
551.146	1	15
551.486	1	-3
551.826	1	-3
552.166	1	14
552.506	1	6
552.846	1	14
553.186	1	-4
553.526	1	9
553.866	1	-8
554.206	1	4
554.546	1	3
554.886	1	7
555.226	1	6
555.566	1	12
555.906	1	6
556.246	1	12
556.586	1	9
556.926	1	9
557.266	1	14
557.606	1	-10
557.946	1	14
558.286	1	-5
558.626	1	5
558.966	1	7
559.306	1	10
559.646	1	16
559.986	1	9
560.325	1	8
560.665	1	2
561.005	1	1
561.345	1	6
561.685	1	10
562.025	1	7
562.365	1	6
562.705	1	7
563.045	1	15
563.385	1	10
563.725	1	0
564.064	1	5
564.404	1	-3
564.744	1	16
565.084	1	15
565.424	1	3
565.764	1	8
566.104	1	15
566.444	1	16
566.783	1	9
567.123	1	7
567.463	1	5
567.803	1	9
568.143	1	9
568.483	1	14
568.823	1	1
569.162	1	-4
569.502	1	11
569.842	1	2
570.182	1	2
570.522	1	5
570.862	1	-3
571.201	1	7
571.541	1	8
571.881	1	4
572.221	1	2
572.561	1	10
572.900	1	9
573.240	1	6
573.580	1	0
573.920	1	15
574.260	1	8
574.599	1	10
574.939	1	13
575.279	1	10
575.619	1	3
575.959	1	4
576.298	1	-1
576.638	1	19
576.978	1	15
577.318	1	0
577.657	1	0
577.997	1	6
578.337	1	6
578.677	1	4
579.016	1	4
579.356	1	10
579.696	1	7
580.036	1	8
580.375	1	11
580.715	1	6
581.055	1	-2
581.394	1	4
581.734	1	-2
582.074	1	1
582.414	1	5
582.753	1	5
583.093	1	7
583.433	1	6
583.772	1	2
584.112	1	2
584.452	1	9
584.791	1	21
585.131	1	5
585.471	1	0
585.811	1	2
586.150	1	8
586.490	1	10
586.830	1	5
587.169	1	7
587.509	1	5
587.849	1	13
588.188	1	5
588.528	1	-7
588.867	1	-2
589.207	1	5
589.547	1	8
589.886	1	5
590.226	1	-2
590.566	1	6
590.905	1	-7
591.245	1	2
591.585	1	-1
591.924	1	-5
592.264	1	14
592.603	1	-11
592.943	1	9
593.283	1	17
593.622	1	8
593.962	1	-4
594.301	1	-1
594.641	1	11
594.981	1	-2
595.320	1	15
595.660	1	5
595.999	1	9
596.339	1	7
596.678	1	-4
597.018	1	3
597.358	1	9
597.697	1	1
598.037	1	1
598.376	1	-5
598.716	1	1
599.055	1	14
599.395	1	4
599.734	1	6
600.074	1	-1
600.413	1	6
600.753	1	11
601.092	1	4
601.432	1	-1
601.771	1	2
602.111	1	2
602.451	1	-2
602.790	1	10
603.130	1	-1
603.469	1	-2
603.809	1	8
604.148	1	-7
604.487	1	2
604.827	1	9
605.166	1	2
605.506	1	4
605.845	1	9
606.185	1	4
606.524	1	1
606.864	1	20
607.203	1	5
607.543	1	-4
607.882	1	18
608.222	1	0
608.561	1	5
608.901	1	9
609.240	1	8
609.579	1	3
609.919	1	-9
610.258	1	19
610.598	1	-4
610.937	1	3
611.277	1	5
611.616	1	6
611.955	1	-3
612.295	1	8
612.634	1	5
612.974	1	6
613.313	1	5
613.652	1	14
613.992	1	-6
614.331	1	9
614.671	1	1
615.010	1	13
615.349	1	8
615.689	1	-1
616.028	1	7
616.368	1	9
616.707	1	4
617.046	1	0
617.386	1	9
617.725	1	-5
618.064	1	1
618.404	1	-4
618.743	1	1
619.082	1	18
619.422	1	15
619.761	1	2
620.100	1	6
620.440	1	12
620.779	1	10
621.118	1	12
621.458	1	-3
621.797	1	-1
622.136	1	0
622.476	1	7
622.815	1	11
623.154	1	0
623.494	1	3
623.833	1	0
624.172	1	2
624.511	1	-3
624.851	1	0
625.190	1	0
625.529	1	3
625.869	1	6
626.208	1	-7
626.547	1	-4
626.886	1	5
627.226	1	8
627.565	1	9
627.904	1	3
628.243	1	18
628.583	1	14
628.922	1	18
629.261	1	6
629.600	1	5
629.940	1	9
630.279	1	7
630.618	1	6
630.957	1	7
631.297	1	7
631.636	1	5
631.975	1	4
632.314	1	0
632.653	1	1
632.993	1	5
633.332	1	5
633.671	1	12
634.010	1	4
634.349	1	15
634.689	1	4
635.028	1	2
635.367	1	4
635.706	1	3
636.045	1	-6
636.384	1	10
636.724	1	3
637.063	1	-3
637.402	1	10
637.741	1	7
638.080	1	6
638.419	1	0
638.759	1	7
639.098	1	1
639.437	1	13
639.776	1	8
640.115	1	-8
640.454	1	-4
640.793	1	5
641.132	1	9
641.472	1	10
641.811	1	-11
642.150	1	1
642.489	1	14
642.828	1	22
643.167	1	5
643.506	1	7
643.845	1	7
644.184	1	11
644.524	1	0
644.863	1	4
645.202	1	-2
645.541	1	6
645.880	1	13
646.219	1	12
646.558	1	-6
646.897	1	-12
647.236	1	-9
647.575	1	11
647.914	1	4
648.253	1	11
648.592	1	0
648.931	1	7
649.270	1	10
649.610	1	-5
649.949	1	1
650.288	1	1
650.627	1	-5
650.966	1	12
651.305	1	2
651.644	1	17
651.983	1	-3
652.322	1	-1
652.661	1	-2
653.000	1	8
653.339	1	-2
653.678	1	12
654.017	1	5
654.356	1	9
654.695	1	9
655.034	1	1
655.373	1	-2
655.712	1	13
656.051	1	-5
656.390	1	4
656.729	1	4
657.068	1	-6
657.406	1	-2
657.745	1	14
658.084	1	7
658.423	1	19
658.762	1	-3
659.101	1	2
659.440	1	8
659.779	1	13
660.118	1	-1
660.457	1	3
660.796	1	3
661.135	1	7
661.474	1	3
661.813	1	7
662.152	1	6
662.491	1	1
662.829	1	6
663.168	1	-5
663.507	1	13
663.846	1	4
664.185	1	-3
664.524	1	11
664.863	1	-8
665.202	1	7
665.541	1	3
665.879	1	10
666.218	1	0
666.557	1	-8
666.896	1	1
667.235	1	-3
667.574	1	0
667.913	1	4
668.251	1	-6
668.590	1	2
668.929	1	-1
669.268	1	3
669.607	1	-1
669.946	1	4
670.285	1	7
670.623	1	6
670.962	1	-5
671.301	1	-4
671.640	1	8
671.979	1	1
672.317	1	5
672.656	1	3
672.995	1	11
673.334	1	0
673.673	1	6
674.011	1	6
674.350	1	1
674.689	1	-3
675.028	1	1
675.367	1	0
675.705	1	-10
676.044	1	5
676.383	1	4
676.722	1	8
677.060	1	14
677.399	1	7
677.738	1	7
678.077	1	-7
678.416	1	3
678.754	1	10
679.093	1	14
679.432	1	-4
679.771	1	-10
680.109	1	4
680.448	1	-6
680.787	1	-11
681.125	1	12
681.464	1	4
681.803	1	-5
682.142	1	6
682.480	1	-7
682.819	1	-9
683.158	1	3
683.496	1	-8
683.835	1	7
684.174	1	6
684.512	1	5
684.851	1	0
685.190	1	5
685.529	1	5
685.867	1	1
686.206	1	-3
686.545	1	1
686.883	1	10
687.222	1	-6
687.561	1	-4
687.899	1	-2
688.238	1	16
688.577	1	3
688.746	1	4