File: Data/GaN_150K_450ms/GaN_sample D_spot15_UVVIS_150 K_200um_450 ms 2x2mm1_63.txt
340.368	1	2
340.710	1	1
341.052	1	2
341.394	1	-5
341.737	1	16
342.079	1	2
342.421	1	2
342.763	1	6
343.105	1	2
343.447	1	-1
343.789	1	11
344.131	1	-9
344.473	1	3
344.815	1	12
345.157	1	18
345.499	1	9
345.841	1	7
346.183	1	-2
346.526	1	8
346.868	1	5
347.210	1	5
347.552	1	26
347.894	1	0
348.236	1	10
348.578	1	8
348.920	1	4
349.262	1	9
349.604	1	5
349.946	1	12
350.288	1	-2
350.630	1	-3
350.972	1	15
351.314	1	11
351.656	1	9
351.998	1	4
352.340	1	12
352.682	1	6
353.024	1	20
353.366	1	12
353.708	1	8
354.050	1	-1
354.392	1	6
354.734	1	16
355.076	1	28
355.418	1	19
355.760	1	17
356.102	1	15
356.444	1	25
356.785	1	21
357.127	1	29
357.469	1	32
357.811	1	26
358.153	1	6
358.495	1	37
358.837	1	34
359.179	1	34
359.521	1	51
359.863	1	42
360.205	1	57
360.547	1	55
360.889	1	49
361.231	1	61
361.572	1	76
361.914	1	85
362.256	1	96
362.598	1	104
362.940	1	111
363.282	1	115
363.624	1	134
363.966	1	147
364.308	1	187
364.649	1	200
364.991	1	215
365.333	1	230
365.675	1	271
366.017	1	308
366.359	1	310
366.701	1	349
367.042	1	372
367.384	1	383
367.726	1	383
368.068	1	399
368.410	1	396
368.752	1	384
369.093	1	369
369.435	1	368
369.777	1	352
370.119	1	337
370.461	1	321
370.803	1	297
371.144	1	282
371.486	1	265
371.828	1	237
372.170	1	221
372.512	1	197
372.853	1	218
373.195	1	198
373.537	1	185
373.879	1	163
374.220	1	151
374.562	1	163
374.904	1	144
375.246	1	137
375.588	1	126
375.929	1	108
376.271	1	103
376.613	1	114
376.955	1	107
377.296	1	105
377.638	1	92
377.980	1	77
378.321	1	92
378.663	1	91
379.005	1	79
379.347	1	80
379.688	1	78
380.030	1	78
380.372	1	72
380.714	1	75
381.055	1	68
381.397	1	56
381.739	1	54
382.080	1	54
382.422	1	57
382.764	1	46
383.105	1	50
383.447	1	50
383.789	1	46
384.130	1	51
384.472	1	55
384.814	1	54
385.156	1	50
385.497	1	60
385.839	1	46
386.180	1	47
386.522	1	48
386.864	1	47
387.205	1	37
387.547	1	42
387.889	1	31
388.230	1	45
388.572	1	31
388.914	1	53
389.255	1	33
389.597	1	36
389.939	1	48
390.280	1	42
390.622	1	39
390.963	1	34
391.305	1	34
391.647	1	35
391.988	1	31
392.330	1	31
392.671	1	31
393.013	1	32
393.355	1	37
393.696	1	34
394.038	1	27
394.379	1	37
394.721	1	44
395.062	1	24
395.404	1	30
395.746	1	20
396.087	1	31
396.429	1	35
396.770	1	24
397.112	1	30
397.453	1	27
397.795	1	30
398.136	1	28
398.478	1	29
398.819	1	36
399.161	1	28
399.503	1	33
399.844	1	27
400.186	1	27
400.527	1	29
400.869	1	17
401.210	1	24
401.552	1	21
401.893	1	20
402.235	1	20
402.576	1	15
402.918	1	5
403.259	1	27
403.601	1	27
403.942	1	27
404.284	1	25
404.625	1	20
404.967	1	22
405.308	1	10
405.649	1	12
405.991	1	16
406.332	1	23
406.674	1	17
407.015	1	28
407.357	1	21
407.698	1	23
408.040	1	32
408.381	1	8
408.722	1	24
409.064	1	24
409.405	1	20
409.747	1	14
410.088	1	28
410.430	1	23
410.771	1	26
411.112	1	25
411.454	1	17
411.795	1	15
412.137	1	10
412.478	1	13
412.819	1	24
413.161	1	25
413.502	1	16
413.844	1	26
414.185	1	15
414.526	1	6
414.868	1	15
415.209	1	14
415.550	1	12
415.892	1	26
416.233	1	22
416.575	1	14
416.916	1	21
417.257	1	13
417.599	1	26
417.940	1	11
418.281	1	14
418.623	1	9
418.964	1	32
419.305	1	15
419.647	1	15
419.988	1	24
420.329	1	13
420.671	1	27
421.012	1	0
421.353	1	20
421.695	1	20
422.036	1	23
422.377	1	24
422.718	1	27
423.060	1	23
423.401	1	11
423.742	1	20
424.084	1	21
424.425	1	31
424.766	1	19
425.107	1	20
425.449	1	13
425.790	1	27
426.131	1	6
426.472	1	19
426.814	1	9
427.155	1	12
427.496	1	10
427.837	1	9
428.179	1	29
428.520	1	15
428.861	1	24
429.202	1	13
429.544	1	22
429.885	1	25
430.226	1	5
430.567	1	5
430.909	1	9
431.250	1	22
431.591	1	31
431.932	1	13
432.273	1	16
432.615	1	17
432.956	1	26
433.297	1	15
433.638	1	12
433.979	1	13
434.320	1	15
434.662	1	15
435.003	1	27
435.344	1	10
435.685	1	15
436.026	1	7
436.368	1	11
436.709	1	9
437.050	1	15
437.391	1	15
437.732	1	19
438.073	1	16
438.414	1	22
438.756	1	17
439.097	1	16
439.438	1	16
439.779	1	21
440.120	1	12
440.461	1	11
440.802	1	17
441.143	1	8
441.485	1	16
441.826	1	12
442.167	1	20
442.508	1	15
442.849	1	18
443.190	1	12
443.531	1	9
443.872	1	5
444.213	1	12
444.554	1	19
444.895	1	12
445.237	1	16
445.578	1	12
445.919	1	13
446.260	1	19
446.601	1	24
446.942	1	11
447.283	1	17
447.624	1	4
447.965	1	11
448.306	1	12
448.647	1	3
448.988	1	19
449.329	1	24
449.670	1	16
450.011	1	16
450.352	1	0
450.693	1	16
451.034	1	5
451.375	1	2
451.716	1	9
452.057	1	11
452.398	1	17
452.739	1	11
453.080	1	15
453.421	1	27
453.762	1	15
454.103	1	17
454.444	1	23
454.785	1	3
455.126	1	7
455.467	1	9
455.808	1	17
456.149	1	15
456.490	1	1
456.831	1	4
457.172	1	15
457.513	1	16
457.854	1	17
458.195	1	16
458.536	1	18
458.877	1	15
459.218	1	13
459.559	1	13
459.899	1	9
460.240	1	3
460.581	1	4
460.922	1	3
461.263	1	23
461.604	1	3
461.945	1	18
462.286	1	12
462.627	1	9
462.968	1	17
463.309	1	14
463.649	1	15
463.990	1	-1
464.331	1	19
464.672	1	18
465.013	1	16
465.354	1	17
465.695	1	20
466.036	1	27
466.376	1	17
466.717	1	-2
467.058	1	15
467.399	1	3
467.740	1	25
468.081	1	21
468.422	1	23
468.762	1	21
469.103	1	10
469.444	1	18
469.785	1	5
470.126	1	18
470.467	1	9
470.807	1	16
471.148	1	14
471.489	1	12
471.830	1	20
472.171	1	21
472.511	1	13
472.852	1	12
473.193	1	14
473.534	1	13
473.875	1	20
474.215	1	9
474.556	1	9
474.897	1	13
475.238	1	17
475.578	1	9
475.919	1	12
476.260	1	10
476.601	1	19
476.942	1	12
477.282	1	4
477.623	1	12
477.964	1	17
478.305	1	16
478.645	1	16
478.986	1	19
479.327	1	11
479.667	1	14
480.008	1	23
480.349	1	21
480.690	1	22
481.030	1	16
481.371	1	9
481.712	1	27
482.053	1	20
482.393	1	17
482.734	1	13
483.075	1	12
483.415	1	13
483.756	1	22
484.097	1	24
484.437	1	19
484.778	1	20
485.119	1	20
485.459	1	18
485.800	1	21
486.141	1	29
486.481	1	12
486.822	1	31
487.163	1	19
487.503	1	30
487.844	1	15
488.185	1	28
488.525	1	19
488.866	1	18
489.207	1	25
489.547	1	30
489.888	1	36
490.228	1	24
490.569	1	16
490.910	1	41
491.250	1	30
491.591	1	36
491.932	1	32
492.272	1	25
492.613	1	31
492.953	1	37
493.294	1	18
493.635	1	46
493.975	1	45
494.316	1	35
494.656	1	40
494.997	1	31
495.337	1	40
495.678	1	34
496.019	1	38
496.359	1	28
496.700	1	37
497.040	1	35
497.381	1	40
497.721	1	38
498.062	1	41
498.403	1	51
498.743	1	44
499.084	1	39
499.424	1	41
499.765	1	49
500.105	1	55
500.446	1	49
500.786	1	39
501.127	1	45
501.467	1	58
501.808	1	61
502.148	1	55
502.489	1	48
502.829	1	47
503.170	1	59
503.510	1	49
503.851	1	54
504.191	1	51
504.532	1	68
504.872	1	42
505.213	1	65
505.553	1	55
505.894	1	54
506.234	1	60
506.575	1	67
506.915	1	57
507.256	1	61
507.596	1	69
507.936	1	77
508.277	1	73
508.617	1	72
508.958	1	58
509.298	1	59
509.639	1	54
509.979	1	66
510.319	1	65
510.660	1	56
511.000	1	62
511.341	1	65
511.681	1	69
512.022	1	53
512.362	1	66
512.702	1	57
513.043	1	75
513.383	1	75
513.724	1	72
514.064	1	75
514.404	1	74
514.745	1	67
515.085	1	70
515.425	1	76
515.766	1	75
516.106	1	77
516.447	1	83
516.787	1	74
517.127	1	89
517.468	1	85
517.808	1	74
518.148	1	89
518.489	1	71
518.829	1	79
519.169	1	73
519.510	1	74
519.850	1	87
520.190	1	82
520.531	1	78
520.871	1	83
521.211	1	88
521.552	1	83
521.892	1	76
522.232	1	83
522.573	1	84
522.913	1	89
523.253	1	83
523.593	1	92
523.934	1	86
524.274	1	77
524.614	1	85
524.955	1	79
525.295	1	92
525.635	1	87
525.975	1	74
526.316	1	75
526.656	1	88
526.996	1	86
527.337	1	100
527.677	1	103
528.017	1	85
528.357	1	85
528.698	1	95
529.038	1	79
529.378	1	97
529.718	1	92
530.058	1	94
530.399	1	90
530.739	1	95
531.079	1	92
531.419	1	88
531.760	1	101
532.100	1	99
532.440	1	97
532.780	1	88
533.120	1	95
533.461	1	86
533.801	1	91
534.141	1	92
534.481	1	94
534.821	1	80
535.162	1	89
535.502	1	92
535.842	1	80
536.182	1	75
536.522	1	78
536.862	1	71
537.203	1	77
537.543	1	79
537.883	1	78
538.223	1	87
538.563	1	59
538.903	1	78
539.243	1	80
539.584	1	79
539.924	1	73
540.264	1	85
540.604	1	94
540.944	1	83
541.284	1	79
541.624	1	81
541.964	1	82
542.305	1	89
542.645	1	73
542.985	1	73
543.325	1	77
543.665	1	77
544.005	1	70
544.345	1	75
544.685	1	70
545.025	1	79
545.365	1	74
545.705	1	73
546.045	1	80
546.386	1	72
546.726	1	66
547.066	1	70
547.406	1	75
547.746	1	83
548.086	1	77
548.426	1	80
548.766	1	77
549.106	1	75
549.446	1	79
549.786	1	76
550.126	1	82
550.466	1	74
550.806	1	91
551.146	1	70
551.486	1	75
551.826	1	72
552.166	1	76
552.506	1	59
552.846	1	66
553.186	1	63
553.526	1	68
553.866	1	54
554.206	1	70
554.546	1	82
554.886	1	66
555.226	1	80
555.566	1	58
555.906	1	64
556.246	1	65
556.586	1	67
556.926	1	64
557.266	1	71
557.606	1	49
557.946	1	58
558.286	1	59
558.626	1	57
558.966	1	67
559.306	1	73
559.646	1	65
559.986	1	63
560.325	1	58
560.665	1	53
561.005	1	64
561.345	1	53
561.685	1	65
562.025	1	61
562.365	1	56
562.705	1	58
563.045	1	54
563.385	1	51
563.725	1	57
564.064	1	46
564.404	1	40
564.744	1	61
565.084	1	57
565.424	1	53
565.764	1	45
566.104	1	60
566.444	1	60
566.783	1	52
567.123	1	46
567.463	1	51
567.803	1	63
568.143	1	47
568.483	1	48
568.823	1	44
569.162	1	57
569.502	1	45
569.842	1	40
570.182	1	43
570.522	1	45
570.862	1	35
571.201	1	55
571.541	1	48
571.881	1	39
572.221	1	41
572.561	1	54
572.900	1	55
573.240	1	46
573.580	1	43
573.920	1	49
574.260	1	43
574.599	1	37
574.939	1	37
575.279	1	43
575.619	1	36
575.959	1	39
576.298	1	36
576.638	1	56
576.978	1	55
577.318	1	43
577.657	1	32
577.997	1	52
578.337	1	36
578.677	1	32
579.016	1	36
579.356	1	40
579.696	1	41
580.036	1	46
580.375	1	39
580.715	1	49
581.055	1	38
581.394	1	31
581.734	1	35
582.074	1	38
582.414	1	36
582.753	1	39
583.093	1	39
583.433	1	37
583.772	1	41
584.112	1	42
584.452	1	39
584.791	1	41
585.131	1	38
585.471	1	40
585.811	1	33
586.150	1	35
586.490	1	32
586.830	1	36
587.169	1	27
587.509	1	34
587.849	1	38
588.188	1	33
588.528	1	35
588.867	1	34
589.207	1	37
589.547	1	38
589.886	1	33
590.226	1	24
590.566	1	27
590.905	1	30
591.245	1	32
591.585	1	19
591.924	1	26
592.264	1	20
592.603	1	22
592.943	1	18
593.283	1	27
593.622	1	23
593.962	1	31
594.301	1	17
594.641	1	35
594.981	1	27
595.320	1	31
595.660	1	28
595.999	1	21
596.339	1	21
596.678	1	17
597.018	1	20
597.358	1	29
597.697	1	11
598.037	1	16
598.376	1	15
598.716	1	21
599.055	1	23
599.395	1	18
599.734	1	26
600.074	1	14
600.413	1	22
600.753	1	24
601.092	1	22
601.432	1	4
601.771	1	24
602.111	1	27
602.451	1	25
602.790	1	36
603.130	1	12
603.469	1	20
603.809	1	21
604.148	1	10
604.487	1	19
604.827	1	10
605.166	1	29
605.506	1	10
605.845	1	31
606.185	1	21
606.524	1	23
606.864	1	36
607.203	1	26
607.543	1	21
607.882	1	23
608.222	1	15
608.561	1	22
608.901	1	31
609.240	1	27
609.579	1	10
609.919	1	14
610.258	1	17
610.598	1	18
610.937	1	19
611.277	1	19
611.616	1	21
611.955	1	22
612.295	1	25
612.634	1	22
612.974	1	18
613.313	1	16
613.652	1	25
613.992	1	14
614.331	1	30
614.671	1	20
615.010	1	16
615.349	1	21
615.689	1	17
616.028	1	26
616.368	1	20
616.707	1	23
617.046	1	14
617.386	1	25
617.725	1	7
618.064	1	12
618.404	1	9
618.743	1	19
619.082	1	34
619.422	1	26
619.761	1	18
620.100	1	10
620.440	1	25
620.779	1	25
621.118	1	26
621.458	1	13
621.797	1	17
622.136	1	19
622.476	1	10
622.815	1	17
623.154	1	7
623.494	1	8
623.833	1	6
624.172	1	23
624.511	1	11
624.851	1	11
625.190	1	9
625.529	1	10
625.869	1	15
626.208	1	3
626.547	1	11
626.886	1	14
627.226	1	25
627.565	1	19
627.904	1	15
628.243	1	27
628.583	1	16
628.922	1	17
629.261	1	16
629.600	1	9
629.940	1	21
630.279	1	19
630.618	1	25
630.957	1	24
631.297	1	24
631.636	1	14
631.975	1	19
632.314	1	16
632.653	1	-3
632.993	1	11
633.332	1	16
633.671	1	16
634.010	1	16
634.349	1	15
634.689	1	13
635.028	1	10
635.367	1	23
635.706	1	11
636.045	1	6
636.384	1	12
636.724	1	18
637.063	1	11
637.402	1	9
637.741	1	13
638.080	1	15
638.419	1	11
638.759	1	8
639.098	1	15
639.437	1	10
639.776	1	14
640.115	1	3
640.454	1	3
640.793	1	6
641.132	1	21
641.472	1	28
641.811	1	10
642.150	1	6
642.489	1	18
642.828	1	24
643.167	1	20
643.506	1	10
643.845	1	16
644.184	1	20
644.524	1	7
644.863	1	18
645.202	1	13
645.541	1	15
645.880	1	15
646.219	1	25
646.558	1	6
646.897	1	5
647.236	1	-1
647.575	1	20
647.914	1	3
648.253	1	23
648.592	1	20
648.931	1	14
649.270	1	17
649.610	1	15
649.949	1	10
650.288	1	19
650.627	1	2
650.966	1	18
651.305	1	13
651.644	1	15
651.983	1	8
652.322	1	14
652.661	1	20
653.000	1	14
653.339	1	16
653.678	1	20
654.017	1	13
654.356	1	18
654.695	1	25
655.034	1	7
655.373	1	2
655.712	1	10
656.051	1	1
656.390	1	14
656.729	1	22
657.068	1	10
657.406	1	7
657.745	1	22
658.084	1	16
658.423	1	18
658.762	1	6
659.101	1	9
659.440	1	18
659.779	1	19
660.118	1	7
660.457	1	12
660.796	1	22
661.135	1	15
661.474	1	15
661.813	1	5
662.152	1	13
662.491	1	9
662.829	1	14
663.168	1	14
663.507	1	9
663.846	1	6
664.185	1	22
664.524	1	11
664.863	1	7
665.202	1	7
665.541	1	13
665.879	1	11
666.218	1	12
666.557	1	14
666.896	1	15
667.235	1	13
667.574	1	-8
667.913	1	17
668.251	1	-1
668.590	1	8
668.929	1	10
669.268	1	10
669.607	1	2
669.946	1	11
670.285	1	9
670.623	1	19
670.962	1	1
671.301	1	13
671.640	1	16
671.979	1	0
672.317	1	11
672.656	1	24
672.995	1	8
673.334	1	16
673.673	1	24
674.011	1	11
674.350	1	5
674.689	1	1
675.028	1	16
675.367	1	13
675.705	1	11
676.044	1	3
676.383	1	8
676.722	1	13
677.060	1	16
677.399	1	16
677.738	1	12
678.077	1	5
678.416	1	9
678.754	1	14
679.093	1	9
679.432	1	7
679.771	1	11
680.109	1	6
680.448	1	7
680.787	1	5
681.125	1	6
681.464	1	15
681.803	1	7
682.142	1	8
682.480	1	6
682.819	1	12
683.158	1	10
683.496	1	12
683.835	1	10
684.174	1	13
684.512	1	2
684.851	1	15
685.190	1	8
685.529	1	8
685.867	1	8
686.206	1	6
686.545	1	6
686.883	1	18
687.222	1	13
687.561	1	13
687.899	1	13
688.238	1	16
688.577	1	10
688.746	1	8