File: Data/GaN_150K_450ms/GaN_sample D_spot15_UVVIS_150 K_200um_450 ms 2x2mm1_28.txt
340.368	1	-1
340.710	1	-3
341.052	1	-2
341.394	1	-9
341.737	1	1
342.079	1	1
342.421	1	1
342.763	1	7
343.105	1	4
343.447	1	-1
343.789	1	3
344.131	1	-3
344.473	1	-2
344.815	1	1
345.157	1	12
345.499	1	1
345.841	1	0
346.183	1	6
346.526	1	5
346.868	1	-2
347.210	1	-7
347.552	1	15
347.894	1	-3
348.236	1	6
348.578	1	1
348.920	1	0
349.262	1	7
349.604	1	-3
349.946	1	3
350.288	1	-7
350.630	1	-4
350.972	1	12
351.314	1	-14
351.656	1	2
351.998	1	5
352.340	1	4
352.682	1	-11
353.024	1	11
353.366	1	-6
353.708	1	5
354.050	1	-3
354.392	1	-6
354.734	1	3
355.076	1	6
355.418	1	-4
355.760	1	2
356.102	1	6
356.444	1	4
356.785	1	-1
357.127	1	4
357.469	1	5
357.811	1	2
358.153	1	-6
358.495	1	4
358.837	1	11
359.179	1	5
359.521	1	9
359.863	1	-4
360.205	1	6
360.547	1	4
360.889	1	1
361.231	1	4
361.572	1	7
361.914	1	6
362.256	1	9
362.598	1	14
362.940	1	1
363.282	1	-6
363.624	1	2
363.966	1	-13
364.308	1	-1
364.649	1	-4
364.991	1	2
365.333	1	1
365.675	1	8
366.017	1	3
366.359	1	0
366.701	1	0
367.042	1	0
367.384	1	-10
367.726	1	1
368.068	1	7
368.410	1	11
368.752	1	15
369.093	1	-6
369.435	1	8
369.777	1	9
370.119	1	3
370.461	1	2
370.803	1	3
371.144	1	5
371.486	1	6
371.828	1	-6
372.170	1	5
372.512	1	-7
372.853	1	19
373.195	1	-11
373.537	1	-14
373.879	1	-1
374.220	1	-2
374.562	1	11
374.904	1	4
375.246	1	-2
375.588	1	-1
375.929	1	6
376.271	1	-6
376.613	1	2
376.955	1	3
377.296	1	4
377.638	1	-1
377.980	1	-3
378.321	1	2
378.663	1	5
379.005	1	2
379.347	1	-6
379.688	1	5
380.030	1	7
380.372	1	8
380.714	1	3
381.055	1	-7
381.397	1	-3
381.739	1	-9
382.080	1	2
382.422	1	9
382.764	1	2
383.105	1	3
383.447	1	-4
383.789	1	-12
384.130	1	8
384.472	1	-3
384.814	1	4
385.156	1	-3
385.497	1	11
385.839	1	5
386.180	1	-1
386.522	1	4
386.864	1	3
387.205	1	3
387.547	1	7
387.889	1	-3
388.230	1	0
388.572	1	-4
388.914	1	8
389.255	1	0
389.597	1	-1
389.939	1	6
390.280	1	4
390.622	1	-6
390.963	1	-9
391.305	1	-1
391.647	1	7
391.988	1	4
392.330	1	2
392.671	1	6
393.013	1	8
393.355	1	16
393.696	1	8
394.038	1	4
394.379	1	1
394.721	1	8
395.062	1	-2
395.404	1	2
395.746	1	-3
396.087	1	3
396.429	1	5
396.770	1	5
397.112	1	-4
397.453	1	3
397.795	1	-3
398.136	1	1
398.478	1	2
398.819	1	9
399.161	1	12
399.503	1	3
399.844	1	-6
400.186	1	-11
400.527	1	5
400.869	1	-3
401.210	1	7
401.552	1	8
401.893	1	3
402.235	1	2
402.576	1	7
402.918	1	-3
403.259	1	-7
403.601	1	-1
403.942	1	1
404.284	1	12
404.625	1	-12
404.967	1	10
405.308	1	-9
405.649	1	1
405.991	1	1
406.332	1	-4
406.674	1	-6
407.015	1	5
407.357	1	7
407.698	1	1
408.040	1	5
408.381	1	-5
408.722	1	7
409.064	1	8
409.405	1	-3
409.747	1	-2
410.088	1	-2
410.430	1	4
410.771	1	-3
411.112	1	-6
411.454	1	-1
411.795	1	5
412.137	1	-1
412.478	1	6
412.819	1	5
413.161	1	-5
413.502	1	7
413.844	1	-1
414.185	1	3
414.526	1	-10
414.868	1	-10
415.209	1	0
415.550	1	0
415.892	1	3
416.233	1	6
416.575	1	-9
416.916	1	-9
417.257	1	3
417.599	1	3
417.940	1	-15
418.281	1	10
418.623	1	-3
418.964	1	17
419.305	1	6
419.647	1	9
419.988	1	17
420.329	1	17
420.671	1	6
421.012	1	-1
421.353	1	4
421.695	1	4
422.036	1	8
422.377	1	3
422.718	1	5
423.060	1	0
423.401	1	-4
423.742	1	4
424.084	1	5
424.425	1	11
424.766	1	-3
425.107	1	1
425.449	1	-3
425.790	1	1
426.131	1	8
426.472	1	1
426.814	1	-3
427.155	1	0
427.496	1	0
427.837	1	-5
428.179	1	10
428.520	1	1
428.861	1	1
429.202	1	-15
429.544	1	3
429.885	1	4
430.226	1	-14
430.567	1	-14
430.909	1	3
431.250	1	1
431.591	1	7
431.932	1	6
432.273	1	6
432.615	1	-2
432.956	1	-2
433.297	1	4
433.638	1	3
433.979	1	7
434.320	1	0
434.662	1	1
435.003	1	8
435.344	1	3
435.685	1	-1
436.026	1	-9
436.368	1	-5
436.709	1	-2
437.050	1	-9
437.391	1	7
437.732	1	7
438.073	1	-1
438.414	1	5
438.756	1	-1
439.097	1	9
439.438	1	-2
439.779	1	3
440.120	1	-1
440.461	1	-3
440.802	1	5
441.143	1	1
441.485	1	-2
441.826	1	1
442.167	1	-1
442.508	1	-3
442.849	1	9
443.190	1	9
443.531	1	-1
443.872	1	-20
444.213	1	-5
444.554	1	9
444.895	1	-1
445.237	1	-1
445.578	1	-3
445.919	1	11
446.260	1	6
446.601	1	10
446.942	1	-4
447.283	1	5
447.624	1	-7
447.965	1	-4
448.306	1	6
448.647	1	-3
448.988	1	7
449.329	1	-3
449.670	1	-1
450.011	1	1
450.352	1	5
450.693	1	11
451.034	1	-2
451.375	1	6
451.716	1	1
452.057	1	3
452.398	1	8
452.739	1	1
453.080	1	-2
453.421	1	9
453.762	1	6
454.103	1	5
454.444	1	0
454.785	1	1
455.126	1	4
455.467	1	5
455.808	1	8
456.149	1	-6
456.490	1	-7
456.831	1	10
457.172	1	9
457.513	1	2
457.854	1	3
458.195	1	5
458.536	1	8
458.877	1	5
459.218	1	8
459.559	1	5
459.899	1	3
460.240	1	-7
460.581	1	-11
460.922	1	0
461.263	1	13
461.604	1	9
461.945	1	11
462.286	1	-1
462.627	1	-2
462.968	1	7
463.309	1	4
463.649	1	-4
463.990	1	-1
464.331	1	5
464.672	1	3
465.013	1	1
465.354	1	25
465.695	1	10
466.036	1	11
466.376	1	5
466.717	1	-12
467.058	1	2
467.399	1	-4
467.740	1	16
468.081	1	2
468.422	1	1
468.762	1	9
469.103	1	4
469.444	1	2
469.785	1	-5
470.126	1	4
470.467	1	4
470.807	1	-2
471.148	1	-14
471.489	1	7
471.830	1	1
472.171	1	16
472.511	1	11
472.852	1	5
473.193	1	7
473.534	1	2
473.875	1	1
474.215	1	7
474.556	1	1
474.897	1	-6
475.238	1	3
475.578	1	-1
475.919	1	-1
476.260	1	-3
476.601	1	1
476.942	1	3
477.282	1	-10
477.623	1	-5
477.964	1	10
478.305	1	8
478.645	1	10
478.986	1	6
479.327	1	11
479.667	1	-4
480.008	1	9
480.349	1	-1
480.690	1	1
481.030	1	-5
481.371	1	-2
481.712	1	12
482.053	1	7
482.393	1	9
482.734	1	0
483.075	1	12
483.415	1	0
483.756	1	9
484.097	1	15
484.437	1	3
484.778	1	-3
485.119	1	7
485.459	1	-9
485.800	1	0
486.141	1	0
486.481	1	-13
486.822	1	11
487.163	1	-3
487.503	1	3
487.844	1	-3
488.185	1	1
488.525	1	-6
488.866	1	-13
489.207	1	2
489.547	1	2
489.888	1	3
490.228	1	3
490.569	1	-4
490.910	1	5
491.250	1	11
491.591	1	2
491.932	1	3
492.272	1	-17
492.613	1	2
492.953	1	-1
493.294	1	-5
493.635	1	3
493.975	1	8
494.316	1	-7
494.656	1	5
494.997	1	-3
495.337	1	-4
495.678	1	-7
496.019	1	-3
496.359	1	5
496.700	1	3
497.040	1	3
497.381	1	6
497.721	1	-8
498.062	1	-1
498.403	1	10
498.743	1	3
499.084	1	0
499.424	1	7
499.765	1	3
500.105	1	8
500.446	1	-4
500.786	1	5
501.127	1	12
501.467	1	7
501.808	1	4
502.148	1	-7
502.489	1	-3
502.829	1	-7
503.170	1	1
503.510	1	5
503.851	1	9
504.191	1	2
504.532	1	11
504.872	1	-5
505.213	1	-8
505.553	1	2
505.894	1	1
506.234	1	12
506.575	1	4
506.915	1	6
507.256	1	2
507.596	1	9
507.936	1	9
508.277	1	9
508.617	1	7
508.958	1	17
509.298	1	-8
509.639	1	-1
509.979	1	1
510.319	1	-1
510.660	1	-8
511.000	1	5
511.341	1	9
511.681	1	10
512.022	1	-9
512.362	1	8
512.702	1	-13
513.043	1	-3
513.383	1	-5
513.724	1	11
514.064	1	5
514.404	1	2
514.745	1	8
515.085	1	1
515.425	1	11
515.766	1	-9
516.106	1	-4
516.447	1	11
516.787	1	-5
517.127	1	7
517.468	1	11
517.808	1	-2
518.148	1	6
518.489	1	-7
518.829	1	4
519.169	1	-2
519.510	1	1
519.850	1	7
520.190	1	2
520.531	1	-2
520.871	1	-5
521.211	1	2
521.552	1	-12
521.892	1	1
522.232	1	8
522.573	1	5
522.913	1	6
523.253	1	2
523.593	1	12
523.934	1	-7
524.274	1	6
524.614	1	10
524.955	1	-2
525.295	1	12
525.635	1	1
525.975	1	4
526.316	1	-12
526.656	1	3
526.996	1	1
527.337	1	4
527.677	1	6
528.017	1	2
528.357	1	-5
528.698	1	7
529.038	1	0
529.378	1	1
529.718	1	-5
530.058	1	5
530.399	1	2
530.739	1	7
531.079	1	2
531.419	1	7
531.760	1	6
532.100	1	2
532.440	1	4
532.780	1	1
533.120	1	-1
533.461	1	-1
533.801	1	0
534.141	1	-7
534.481	1	10
534.821	1	-5
535.162	1	2
535.502	1	-2
535.842	1	5
536.182	1	-2
536.522	1	-4
536.862	1	3
537.203	1	-11
537.543	1	4
537.883	1	6
538.223	1	15
538.563	1	2
538.903	1	4
539.243	1	6
539.584	1	2
539.924	1	1
540.264	1	12
540.604	1	8
540.944	1	-2
541.284	1	-4
541.624	1	-2
541.964	1	-5
542.305	1	13
542.645	1	-3
542.985	1	-4
543.325	1	7
543.665	1	-10
544.005	1	-5
544.345	1	8
544.685	1	-6
545.025	1	9
545.365	1	3
545.705	1	7
546.045	1	8
546.386	1	4
546.726	1	3
547.066	1	-1
547.406	1	-1
547.746	1	1
548.086	1	8
548.426	1	9
548.766	1	1
549.106	1	2
549.446	1	6
549.786	1	6
550.126	1	2
550.466	1	-6
550.806	1	13
551.146	1	-3
551.486	1	1
551.826	1	-6
552.166	1	2
552.506	1	3
552.846	1	4
553.186	1	1
553.526	1	0
553.866	1	2
554.206	1	-3
554.546	1	5
554.886	1	1
555.226	1	5
555.566	1	9
555.906	1	-6
556.246	1	-3
556.586	1	3
556.926	1	0
557.266	1	6
557.606	1	-9
557.946	1	11
558.286	1	-10
558.626	1	8
558.966	1	1
559.306	1	3
559.646	1	11
559.986	1	-4
560.325	1	-3
560.665	1	4
561.005	1	4
561.345	1	6
561.685	1	0
562.025	1	0
562.365	1	0
562.705	1	10
563.045	1	4
563.385	1	13
563.725	1	-6
564.064	1	-6
564.404	1	-10
564.744	1	10
565.084	1	-1
565.424	1	-10
565.764	1	9
566.104	1	9
566.444	1	8
566.783	1	5
567.123	1	1
567.463	1	6
567.803	1	-2
568.143	1	9
568.483	1	16
568.823	1	-3
569.162	1	-1
569.502	1	-3
569.842	1	-9
570.182	1	-1
570.522	1	-4
570.862	1	-3
571.201	1	9
571.541	1	-2
571.881	1	-6
572.221	1	3
572.561	1	8
572.900	1	6
573.240	1	-2
573.580	1	8
573.920	1	10
574.260	1	6
574.599	1	-2
574.939	1	1
575.279	1	-1
575.619	1	-5
575.959	1	-5
576.298	1	-9
576.638	1	0
576.978	1	6
577.318	1	6
577.657	1	5
577.997	1	-4
578.337	1	1
578.677	1	2
579.016	1	12
579.356	1	3
579.696	1	6
580.036	1	-1
580.375	1	-7
580.715	1	0
581.055	1	4
581.394	1	1
581.734	1	8
582.074	1	7
582.414	1	-3
582.753	1	2
583.093	1	2
583.433	1	12
583.772	1	-7
584.112	1	1
584.452	1	9
584.791	1	10
585.131	1	4
585.471	1	4
585.811	1	10
586.150	1	-3
586.490	1	-3
586.830	1	0
587.169	1	6
587.509	1	0
587.849	1	6
588.188	1	8
588.528	1	-7
588.867	1	9
589.207	1	5
589.547	1	6
589.886	1	2
590.226	1	1
590.566	1	-3
590.905	1	-5
591.245	1	-2
591.585	1	-10
591.924	1	-1
592.264	1	-10
592.603	1	-13
592.943	1	-3
593.283	1	12
593.622	1	-3
593.962	1	16
594.301	1	3
594.641	1	-1
594.981	1	1
595.320	1	6
595.660	1	10
595.999	1	-2
596.339	1	-3
596.678	1	-6
597.018	1	6
597.358	1	4
597.697	1	-3
598.037	1	-1
598.376	1	-6
598.716	1	2
599.055	1	7
599.395	1	-2
599.734	1	5
600.074	1	-6
600.413	1	1
600.753	1	9
601.092	1	-1
601.432	1	-6
601.771	1	10
602.111	1	6
602.451	1	0
602.790	1	6
603.130	1	1
603.469	1	4
603.809	1	3
604.148	1	-5
604.487	1	2
604.827	1	5
605.166	1	0
605.506	1	-2
605.845	1	8
606.185	1	-3
606.524	1	-6
606.864	1	15
607.203	1	10
607.543	1	4
607.882	1	6
608.222	1	5
608.561	1	-2
608.901	1	5
609.240	1	6
609.579	1	-4
609.919	1	-6
610.258	1	6
610.598	1	1
610.937	1	2
611.277	1	-3
611.616	1	3
611.955	1	-2
612.295	1	1
612.634	1	7
612.974	1	-7
613.313	1	3
613.652	1	17
613.992	1	1
614.331	1	4
614.671	1	-3
615.010	1	8
615.349	1	2
615.689	1	-3
616.028	1	10
616.368	1	0
616.707	1	-3
617.046	1	-6
617.386	1	5
617.725	1	-7
618.064	1	-8
618.404	1	-2
618.743	1	2
619.082	1	14
619.422	1	6
619.761	1	2
620.100	1	0
620.440	1	1
620.779	1	5
621.118	1	11
621.458	1	4
621.797	1	-4
622.136	1	-1
622.476	1	4
622.815	1	2
623.154	1	-8
623.494	1	-6
623.833	1	-5
624.172	1	-2
624.511	1	-3
624.851	1	-3
625.190	1	-2
625.529	1	-1
625.869	1	6
626.208	1	0
626.547	1	-6
626.886	1	0
627.226	1	4
627.565	1	9
627.904	1	-1
628.243	1	8
628.583	1	3
628.922	1	6
629.261	1	9
629.600	1	0
629.940	1	-2
630.279	1	0
630.618	1	3
630.957	1	1
631.297	1	-2
631.636	1	9
631.975	1	-4
632.314	1	6
632.653	1	-4
632.993	1	0
633.332	1	3
633.671	1	3
634.010	1	5
634.349	1	11
634.689	1	-8
635.028	1	-8
635.367	1	0
635.706	1	-7
636.045	1	-5
636.384	1	3
636.724	1	-1
637.063	1	-3
637.402	1	4
637.741	1	0
638.080	1	-4
638.419	1	-1
638.759	1	-5
639.098	1	-5
639.437	1	0
639.776	1	6
640.115	1	-6
640.454	1	-2
640.793	1	1
641.132	1	4
641.472	1	7
641.811	1	-8
642.150	1	-4
642.489	1	7
642.828	1	5
643.167	1	6
643.506	1	4
643.845	1	-2
644.184	1	1
644.524	1	1
644.863	1	-3
645.202	1	3
645.541	1	-5
645.880	1	7
646.219	1	2
646.558	1	-5
646.897	1	-15
647.236	1	-12
647.575	1	0
647.914	1	9
648.253	1	1
648.592	1	4
648.931	1	-2
649.270	1	13
649.610	1	6
649.949	1	-6
650.288	1	5
650.627	1	-8
650.966	1	3
651.305	1	2
651.644	1	10
651.983	1	-5
652.322	1	-5
652.661	1	6
653.000	1	-4
653.339	1	-1
653.678	1	12
654.017	1	8
654.356	1	4
654.695	1	15
655.034	1	-5
655.373	1	2
655.712	1	16
656.051	1	-5
656.390	1	0
656.729	1	3
657.068	1	-4
657.406	1	-6
657.745	1	4
658.084	1	1
658.423	1	5
658.762	1	-7
659.101	1	6
659.440	1	5
659.779	1	2
660.118	1	4
660.457	1	1
660.796	1	4
661.135	1	1
661.474	1	2
661.813	1	0
662.152	1	5
662.491	1	-4
662.829	1	5
663.168	1	-5
663.507	1	1
663.846	1	1
664.185	1	-3
664.524	1	4
664.863	1	-1
665.202	1	-2
665.541	1	-1
665.879	1	0
666.218	1	3
666.557	1	-4
666.896	1	10
667.235	1	-7
667.574	1	-7
667.913	1	4
668.251	1	-13
668.590	1	-6
668.929	1	-3
669.268	1	-4
669.607	1	-7
669.946	1	3
670.285	1	-5
670.623	1	2
670.962	1	4
671.301	1	-1
671.640	1	5
671.979	1	1
672.317	1	0
672.656	1	14
672.995	1	-3
673.334	1	5
673.673	1	3
674.011	1	-2
674.350	1	7
674.689	1	-1
675.028	1	3
675.367	1	5
675.705	1	-3
676.044	1	-1
676.383	1	-4
676.722	1	-7
677.060	1	-1
677.399	1	14
677.738	1	0
678.077	1	-2
678.416	1	-4
678.754	1	-4
679.093	1	8
679.432	1	-13
679.771	1	-6
680.109	1	5
680.448	1	-8
680.787	1	-14
681.125	1	-5
681.464	1	-3
681.803	1	4
682.142	1	4
682.480	1	-4
682.819	1	-3
683.158	1	-1
683.496	1	-1
683.835	1	2
684.174	1	-1
684.512	1	0
684.851	1	-3
685.190	1	-1
685.529	1	-4
685.867	1	-3
686.206	1	-9
686.545	1	-1
686.883	1	4
687.222	1	-4
687.561	1	-3
687.899	1	4
688.238	1	6
688.577	1	5
688.746	1	-7