File: Data/GaN_150K_450ms/GaN_sample D_spot15_UVVIS_150 K_200um_450 ms 2x2mm1_216.txt
340.368	1	5
340.710	1	-3
341.052	1	9
341.394	1	-12
341.737	1	1
342.079	1	2
342.421	1	3
342.763	1	-8
343.105	1	8
343.447	1	-1
343.789	1	7
344.131	1	-8
344.473	1	-1
344.815	1	1
345.157	1	11
345.499	1	6
345.841	1	8
346.183	1	-1
346.526	1	8
346.868	1	3
347.210	1	-6
347.552	1	12
347.894	1	-6
348.236	1	4
348.578	1	5
348.920	1	0
349.262	1	6
349.604	1	-8
349.946	1	5
350.288	1	-6
350.630	1	-7
350.972	1	16
351.314	1	1
351.656	1	7
351.998	1	0
352.340	1	13
352.682	1	-10
353.024	1	16
353.366	1	1
353.708	1	-3
354.050	1	-2
354.392	1	-8
354.734	1	0
355.076	1	13
355.418	1	10
355.760	1	-1
356.102	1	-3
356.444	1	13
356.785	1	12
357.127	1	7
357.469	1	-1
357.811	1	-2
358.153	1	-2
358.495	1	10
358.837	1	10
359.179	1	6
359.521	1	6
359.863	1	2
360.205	1	17
360.547	1	17
360.889	1	2
361.231	1	7
361.572	1	10
361.914	1	8
362.256	1	19
362.598	1	8
362.940	1	17
363.282	1	2
363.624	1	8
363.966	1	7
364.308	1	12
364.649	1	13
364.991	1	20
365.333	1	8
365.675	1	25
366.017	1	11
366.359	1	13
366.701	1	10
367.042	1	27
367.384	1	7
367.726	1	14
368.068	1	23
368.410	1	15
368.752	1	35
369.093	1	25
369.435	1	18
369.777	1	33
370.119	1	15
370.461	1	24
370.803	1	9
371.144	1	21
371.486	1	28
371.828	1	6
372.170	1	13
372.512	1	16
372.853	1	19
373.195	1	8
373.537	1	9
373.879	1	9
374.220	1	11
374.562	1	19
374.904	1	16
375.246	1	17
375.588	1	2
375.929	1	14
376.271	1	2
376.613	1	13
376.955	1	12
377.296	1	3
377.638	1	9
377.980	1	7
378.321	1	10
378.663	1	11
379.005	1	10
379.347	1	6
379.688	1	12
380.030	1	10
380.372	1	2
380.714	1	7
381.055	1	-3
381.397	1	9
381.739	1	-2
382.080	1	5
382.422	1	3
382.764	1	8
383.105	1	3
383.447	1	7
383.789	1	-3
384.130	1	5
384.472	1	-1
384.814	1	14
385.156	1	-1
385.497	1	14
385.839	1	10
386.180	1	2
386.522	1	3
386.864	1	-1
387.205	1	5
387.547	1	2
387.889	1	-4
388.230	1	-1
388.572	1	0
388.914	1	7
389.255	1	3
389.597	1	7
389.939	1	3
390.280	1	6
390.622	1	-5
390.963	1	-6
391.305	1	12
391.647	1	14
391.988	1	8
392.330	1	4
392.671	1	10
393.013	1	-2
393.355	1	9
393.696	1	8
394.038	1	2
394.379	1	15
394.721	1	5
395.062	1	-2
395.404	1	3
395.746	1	-5
396.087	1	5
396.429	1	9
396.770	1	7
397.112	1	4
397.453	1	-2
397.795	1	3
398.136	1	12
398.478	1	4
398.819	1	7
399.161	1	5
399.503	1	8
399.844	1	7
400.186	1	6
400.527	1	2
400.869	1	-1
401.210	1	-4
401.552	1	2
401.893	1	13
402.235	1	6
402.576	1	14
402.918	1	0
403.259	1	1
403.601	1	12
403.942	1	-4
404.284	1	5
404.625	1	-4
404.967	1	12
405.308	1	-2
405.649	1	3
405.991	1	-3
406.332	1	8
406.674	1	9
407.015	1	2
407.357	1	6
407.698	1	-2
408.040	1	7
408.381	1	-6
408.722	1	7
409.064	1	7
409.405	1	5
409.747	1	11
410.088	1	7
410.430	1	9
410.771	1	6
411.112	1	9
411.454	1	5
411.795	1	1
412.137	1	7
412.478	1	8
412.819	1	15
413.161	1	2
413.502	1	7
413.844	1	12
414.185	1	16
414.526	1	-3
414.868	1	6
415.209	1	0
415.550	1	8
415.892	1	3
416.233	1	4
416.575	1	1
416.916	1	-7
417.257	1	0
417.599	1	4
417.940	1	-3
418.281	1	9
418.623	1	-1
418.964	1	16
419.305	1	8
419.647	1	4
419.988	1	15
420.329	1	7
420.671	1	8
421.012	1	3
421.353	1	15
421.695	1	15
422.036	1	18
422.377	1	2
422.718	1	8
423.060	1	10
423.401	1	1
423.742	1	14
424.084	1	1
424.425	1	15
424.766	1	-1
425.107	1	10
425.449	1	6
425.790	1	5
426.131	1	5
426.472	1	11
426.814	1	6
427.155	1	3
427.496	1	4
427.837	1	2
428.179	1	10
428.520	1	3
428.861	1	14
429.202	1	1
429.544	1	7
429.885	1	7
430.226	1	-7
430.567	1	-9
430.909	1	5
431.250	1	8
431.591	1	5
431.932	1	5
432.273	1	8
432.615	1	-4
432.956	1	6
433.297	1	6
433.638	1	1
433.979	1	8
434.320	1	4
434.662	1	13
435.003	1	5
435.344	1	1
435.685	1	-3
436.026	1	3
436.368	1	6
436.709	1	-7
437.050	1	5
437.391	1	3
437.732	1	6
438.073	1	-7
438.414	1	6
438.756	1	-5
439.097	1	5
439.438	1	-1
439.779	1	3
440.120	1	8
440.461	1	0
440.802	1	13
441.143	1	13
441.485	1	1
441.826	1	0
442.167	1	8
442.508	1	4
442.849	1	5
443.190	1	6
443.531	1	2
443.872	1	-8
444.213	1	-6
444.554	1	3
444.895	1	-2
445.237	1	10
445.578	1	-6
445.919	1	-11
446.260	1	13
446.601	1	-1
446.942	1	0
447.283	1	1
447.624	1	-4
447.965	1	7
448.306	1	11
448.647	1	-1
448.988	1	3
449.329	1	-2
449.670	1	7
450.011	1	-1
450.352	1	-5
450.693	1	3
451.034	1	0
451.375	1	-5
451.716	1	-2
452.057	1	7
452.398	1	6
452.739	1	10
453.080	1	12
453.421	1	10
453.762	1	16
454.103	1	2
454.444	1	0
454.785	1	1
455.126	1	0
455.467	1	0
455.808	1	7
456.149	1	-3
456.490	1	1
456.831	1	-7
457.172	1	4
457.513	1	3
457.854	1	2
458.195	1	9
458.536	1	2
458.877	1	1
459.218	1	2
459.559	1	-3
459.899	1	5
460.240	1	6
460.581	1	7
460.922	1	-3
461.263	1	4
461.604	1	9
461.945	1	13
462.286	1	2
462.627	1	-1
462.968	1	1
463.309	1	5
463.649	1	3
463.990	1	-3
464.331	1	8
464.672	1	8
465.013	1	6
465.354	1	15
465.695	1	3
466.036	1	11
466.376	1	10
466.717	1	-4
467.058	1	-2
467.399	1	-6
467.740	1	4
468.081	1	11
468.422	1	2
468.762	1	11
469.103	1	-5
469.444	1	10
469.785	1	-10
470.126	1	9
470.467	1	5
470.807	1	9
471.148	1	0
471.489	1	9
471.830	1	8
472.171	1	12
472.511	1	3
472.852	1	10
473.193	1	-2
473.534	1	-3
473.875	1	4
474.215	1	3
474.556	1	10
474.897	1	0
475.238	1	7
475.578	1	-2
475.919	1	-5
476.260	1	-5
476.601	1	7
476.942	1	5
477.282	1	-1
477.623	1	-6
477.964	1	8
478.305	1	4
478.645	1	9
478.986	1	4
479.327	1	4
479.667	1	8
480.008	1	9
480.349	1	8
480.690	1	9
481.030	1	1
481.371	1	-5
481.712	1	14
482.053	1	8
482.393	1	0
482.734	1	-1
483.075	1	9
483.415	1	7
483.756	1	10
484.097	1	5
484.437	1	-4
484.778	1	0
485.119	1	1
485.459	1	0
485.800	1	0
486.141	1	3
486.481	1	-9
486.822	1	6
487.163	1	2
487.503	1	11
487.844	1	-4
488.185	1	0
488.525	1	-6
488.866	1	-5
489.207	1	8
489.547	1	6
489.888	1	16
490.228	1	0
490.569	1	3
490.910	1	5
491.250	1	13
491.591	1	2
491.932	1	14
492.272	1	-6
492.613	1	2
492.953	1	7
493.294	1	0
493.635	1	4
493.975	1	17
494.316	1	-1
494.656	1	-1
494.997	1	-6
495.337	1	1
495.678	1	0
496.019	1	1
496.359	1	7
496.700	1	1
497.040	1	-8
497.381	1	5
497.721	1	-3
498.062	1	-7
498.403	1	4
498.743	1	17
499.084	1	10
499.424	1	2
499.765	1	9
500.105	1	3
500.446	1	1
500.786	1	1
501.127	1	9
501.467	1	14
501.808	1	10
502.148	1	4
502.489	1	-3
502.829	1	-3
503.170	1	4
503.510	1	6
503.851	1	13
504.191	1	-2
504.532	1	10
504.872	1	-6
505.213	1	0
505.553	1	0
505.894	1	2
506.234	1	7
506.575	1	15
506.915	1	-1
507.256	1	2
507.596	1	5
507.936	1	11
508.277	1	12
508.617	1	6
508.958	1	15
509.298	1	3
509.639	1	-1
509.979	1	1
510.319	1	2
510.660	1	1
511.000	1	6
511.341	1	14
511.681	1	3
512.022	1	-3
512.362	1	9
512.702	1	-2
513.043	1	15
513.383	1	4
513.724	1	9
514.064	1	-3
514.404	1	-1
514.745	1	4
515.085	1	5
515.425	1	11
515.766	1	-1
516.106	1	6
516.447	1	12
516.787	1	3
517.127	1	7
517.468	1	12
517.808	1	-5
518.148	1	14
518.489	1	-1
518.829	1	8
519.169	1	0
519.510	1	1
519.850	1	6
520.190	1	7
520.531	1	5
520.871	1	9
521.211	1	11
521.552	1	-2
521.892	1	11
522.232	1	10
522.573	1	9
522.913	1	13
523.253	1	7
523.593	1	9
523.934	1	3
524.274	1	10
524.614	1	4
524.955	1	-1
525.295	1	14
525.635	1	16
525.975	1	2
526.316	1	2
526.656	1	12
526.996	1	3
527.337	1	13
527.677	1	15
528.017	1	5
528.357	1	4
528.698	1	10
529.038	1	0
529.378	1	8
529.718	1	8
530.058	1	6
530.399	1	-3
530.739	1	5
531.079	1	2
531.419	1	5
531.760	1	8
532.100	1	13
532.440	1	7
532.780	1	3
533.120	1	0
533.461	1	2
533.801	1	6
534.141	1	2
534.481	1	21
534.821	1	7
535.162	1	11
535.502	1	9
535.842	1	-3
536.182	1	14
536.522	1	3
536.862	1	2
537.203	1	5
537.543	1	14
537.883	1	5
538.223	1	15
538.563	1	5
538.903	1	4
539.243	1	10
539.584	1	4
539.924	1	1
540.264	1	11
540.604	1	8
540.944	1	7
541.284	1	3
541.624	1	4
541.964	1	-1
542.305	1	17
542.645	1	5
542.985	1	3
543.325	1	9
543.665	1	5
544.005	1	0
544.345	1	11
544.685	1	1
545.025	1	15
545.365	1	3
545.705	1	8
546.045	1	11
546.386	1	-4
546.726	1	7
547.066	1	-1
547.406	1	-1
547.746	1	0
548.086	1	6
548.426	1	3
548.766	1	5
549.106	1	-6
549.446	1	1
549.786	1	8
550.126	1	-1
550.466	1	3
550.806	1	22
551.146	1	7
551.486	1	6
551.826	1	-2
552.166	1	12
552.506	1	2
552.846	1	3
553.186	1	-6
553.526	1	3
553.866	1	3
554.206	1	5
554.546	1	5
554.886	1	3
555.226	1	9
555.566	1	0
555.906	1	5
556.246	1	9
556.586	1	10
556.926	1	5
557.266	1	7
557.606	1	-6
557.946	1	7
558.286	1	-2
558.626	1	12
558.966	1	2
559.306	1	7
559.646	1	8
559.986	1	-1
560.325	1	3
560.665	1	5
561.005	1	-3
561.345	1	-1
561.685	1	5
562.025	1	13
562.365	1	0
562.705	1	12
563.045	1	1
563.385	1	10
563.725	1	8
564.064	1	-10
564.404	1	-6
564.744	1	11
565.084	1	9
565.424	1	-3
565.764	1	-1
566.104	1	3
566.444	1	13
566.783	1	3
567.123	1	-5
567.463	1	11
567.803	1	3
568.143	1	1
568.483	1	10
568.823	1	-4
569.162	1	-3
569.502	1	10
569.842	1	-4
570.182	1	2
570.522	1	-1
570.862	1	-4
571.201	1	10
571.541	1	-1
571.881	1	3
572.221	1	1
572.561	1	9
572.900	1	8
573.240	1	4
573.580	1	11
573.920	1	13
574.260	1	7
574.599	1	2
574.939	1	10
575.279	1	2
575.619	1	-6
575.959	1	0
576.298	1	-5
576.638	1	15
576.978	1	8
577.318	1	2
577.657	1	-1
577.997	1	3
578.337	1	1
578.677	1	7
579.016	1	5
579.356	1	6
579.696	1	5
580.036	1	2
580.375	1	11
580.715	1	8
581.055	1	4
581.394	1	5
581.734	1	0
582.074	1	5
582.414	1	1
582.753	1	-2
583.093	1	8
583.433	1	-1
583.772	1	12
584.112	1	9
584.452	1	5
584.791	1	9
585.131	1	1
585.471	1	-4
585.811	1	8
586.150	1	-1
586.490	1	-5
586.830	1	-3
587.169	1	3
587.509	1	7
587.849	1	19
588.188	1	7
588.528	1	-9
588.867	1	5
589.207	1	6
589.547	1	2
589.886	1	4
590.226	1	7
590.566	1	4
590.905	1	-3
591.245	1	-1
591.585	1	0
591.924	1	5
592.264	1	6
592.603	1	-3
592.943	1	-4
593.283	1	4
593.622	1	-1
593.962	1	8
594.301	1	0
594.641	1	3
594.981	1	1
595.320	1	10
595.660	1	11
595.999	1	8
596.339	1	2
596.678	1	-1
597.018	1	-12
597.358	1	1
597.697	1	-10
598.037	1	3
598.376	1	-1
598.716	1	1
599.055	1	13
599.395	1	-5
599.734	1	7
600.074	1	2
600.413	1	-11
600.753	1	11
601.092	1	1
601.432	1	-11
601.771	1	6
602.111	1	4
602.451	1	2
602.790	1	8
603.130	1	-9
603.469	1	5
603.809	1	10
604.148	1	-5
604.487	1	0
604.827	1	14
605.166	1	7
605.506	1	-1
605.845	1	5
606.185	1	-2
606.524	1	0
606.864	1	6
607.203	1	2
607.543	1	6
607.882	1	3
608.222	1	8
608.561	1	9
608.901	1	9
609.240	1	5
609.579	1	3
609.919	1	-8
610.258	1	10
610.598	1	-7
610.937	1	-2
611.277	1	3
611.616	1	14
611.955	1	-3
612.295	1	8
612.634	1	2
612.974	1	-4
613.313	1	8
613.652	1	11
613.992	1	4
614.331	1	11
614.671	1	-3
615.010	1	5
615.349	1	-2
615.689	1	-3
616.028	1	21
616.368	1	11
616.707	1	2
617.046	1	-6
617.386	1	13
617.725	1	-4
618.064	1	6
618.404	1	-11
618.743	1	1
619.082	1	15
619.422	1	16
619.761	1	-2
620.100	1	11
620.440	1	0
620.779	1	4
621.118	1	15
621.458	1	-1
621.797	1	-3
622.136	1	-1
622.476	1	1
622.815	1	3
623.154	1	-7
623.494	1	-11
623.833	1	-2
624.172	1	-1
624.511	1	0
624.851	1	-4
625.190	1	5
625.529	1	5
625.869	1	8
626.208	1	-4
626.547	1	-3
626.886	1	-8
627.226	1	3
627.565	1	2
627.904	1	-6
628.243	1	7
628.583	1	8
628.922	1	-1
629.261	1	2
629.600	1	0
629.940	1	4
630.279	1	10
630.618	1	4
630.957	1	11
631.297	1	3
631.636	1	11
631.975	1	2
632.314	1	6
632.653	1	0
632.993	1	-3
633.332	1	5
633.671	1	12
634.010	1	0
634.349	1	9
634.689	1	-9
635.028	1	-3
635.367	1	12
635.706	1	-3
636.045	1	0
636.384	1	9
636.724	1	6
637.063	1	0
637.402	1	5
637.741	1	2
638.080	1	2
638.419	1	-6
638.759	1	7
639.098	1	5
639.437	1	-2
639.776	1	8
640.115	1	-1
640.454	1	-8
640.793	1	3
641.132	1	-3
641.472	1	10
641.811	1	-1
642.150	1	8
642.489	1	0
642.828	1	21
643.167	1	5
643.506	1	-2
643.845	1	15
644.184	1	13
644.524	1	1
644.863	1	-2
645.202	1	-3
645.541	1	7
645.880	1	13
646.219	1	8
646.558	1	-4
646.897	1	-8
647.236	1	-3
647.575	1	5
647.914	1	-1
648.253	1	12
648.592	1	1
648.931	1	6
649.270	1	8
649.610	1	9
649.949	1	4
650.288	1	4
650.627	1	3
650.966	1	-4
651.305	1	2
651.644	1	7
651.983	1	-4
652.322	1	0
652.661	1	4
653.000	1	-5
653.339	1	3
653.678	1	11
654.017	1	6
654.356	1	3
654.695	1	19
655.034	1	-1
655.373	1	5
655.712	1	1
656.051	1	4
656.390	1	2
656.729	1	3
657.068	1	-1
657.406	1	1
657.745	1	6
658.084	1	7
658.423	1	6
658.762	1	5
659.101	1	-1
659.440	1	-1
659.779	1	9
660.118	1	1
660.457	1	11
660.796	1	10
661.135	1	11
661.474	1	8
661.813	1	1
662.152	1	4
662.491	1	-5
662.829	1	4
663.168	1	5
663.507	1	4
663.846	1	-2
664.185	1	-3
664.524	1	10
664.863	1	-5
665.202	1	8
665.541	1	10
665.879	1	6
666.218	1	9
666.557	1	-5
666.896	1	3
667.235	1	-10
667.574	1	-3
667.913	1	3
668.251	1	-5
668.590	1	-6
668.929	1	-1
669.268	1	-4
669.607	1	-5
669.946	1	-1
670.285	1	3
670.623	1	-1
670.962	1	-8
671.301	1	-9
671.640	1	6
671.979	1	-5
672.317	1	9
672.656	1	13
672.995	1	0
673.334	1	-13
673.673	1	14
674.011	1	5
674.350	1	2
674.689	1	-7
675.028	1	6
675.367	1	5
675.705	1	-5
676.044	1	0
676.383	1	-6
676.722	1	-3
677.060	1	-1
677.399	1	18
677.738	1	1
678.077	1	0
678.416	1	-4
678.754	1	1
679.093	1	8
679.432	1	-5
679.771	1	-4
680.109	1	-13
680.448	1	-1
680.787	1	-11
681.125	1	-3
681.464	1	-2
681.803	1	-4
682.142	1	-3
682.480	1	-1
682.819	1	3
683.158	1	-1
683.496	1	5
683.835	1	5
684.174	1	-3
684.512	1	3
684.851	1	-6
685.190	1	0
685.529	1	4
685.867	1	-5
686.206	1	1
686.545	1	8
686.883	1	3
687.222	1	-1
687.561	1	7
687.899	1	-5
688.238	1	14
688.577	1	1
688.746	1	-5