File: Data/GaN_150K_450ms/GaN_sample D_spot15_UVVIS_150 K_200um_450 ms 2x2mm1_271.txt
340.368	1	3
340.710	1	2
341.052	1	0
341.394	1	2
341.737	1	6
342.079	1	4
342.421	1	-5
342.763	1	-4
343.105	1	8
343.447	1	7
343.789	1	3
344.131	1	-13
344.473	1	-4
344.815	1	2
345.157	1	8
345.499	1	-6
345.841	1	11
346.183	1	5
346.526	1	4
346.868	1	2
347.210	1	6
347.552	1	16
347.894	1	2
348.236	1	6
348.578	1	6
348.920	1	10
349.262	1	12
349.604	1	-13
349.946	1	-4
350.288	1	-5
350.630	1	1
350.972	1	5
351.314	1	-6
351.656	1	6
351.998	1	6
352.340	1	7
352.682	1	-7
353.024	1	14
353.366	1	9
353.708	1	6
354.050	1	-4
354.392	1	0
354.734	1	0
355.076	1	8
355.418	1	5
355.760	1	5
356.102	1	3
356.444	1	19
356.785	1	4
357.127	1	11
357.469	1	2
357.811	1	-3
358.153	1	-10
358.495	1	3
358.837	1	9
359.179	1	1
359.521	1	8
359.863	1	-5
360.205	1	11
360.547	1	6
360.889	1	1
361.231	1	7
361.572	1	7
361.914	1	9
362.256	1	6
362.598	1	11
362.940	1	3
363.282	1	-2
363.624	1	-6
363.966	1	3
364.308	1	19
364.649	1	12
364.991	1	7
365.333	1	6
365.675	1	2
366.017	1	10
366.359	1	13
366.701	1	-3
367.042	1	19
367.384	1	4
367.726	1	6
368.068	1	16
368.410	1	17
368.752	1	24
369.093	1	13
369.435	1	13
369.777	1	14
370.119	1	10
370.461	1	18
370.803	1	6
371.144	1	19
371.486	1	11
371.828	1	7
372.170	1	5
372.512	1	5
372.853	1	15
373.195	1	2
373.537	1	-4
373.879	1	2
374.220	1	16
374.562	1	20
374.904	1	8
375.246	1	6
375.588	1	-2
375.929	1	11
376.271	1	2
376.613	1	10
376.955	1	4
377.296	1	5
377.638	1	0
377.980	1	0
378.321	1	5
378.663	1	7
379.005	1	7
379.347	1	5
379.688	1	13
380.030	1	12
380.372	1	4
380.714	1	-3
381.055	1	-10
381.397	1	4
381.739	1	-5
382.080	1	10
382.422	1	8
382.764	1	4
383.105	1	5
383.447	1	-2
383.789	1	-1
384.130	1	12
384.472	1	-6
384.814	1	9
385.156	1	1
385.497	1	15
385.839	1	10
386.180	1	-1
386.522	1	4
386.864	1	-3
387.205	1	-5
387.547	1	-1
387.889	1	-2
388.230	1	9
388.572	1	-6
388.914	1	4
389.255	1	-3
389.597	1	1
389.939	1	11
390.280	1	-7
390.622	1	4
390.963	1	-12
391.305	1	1
391.647	1	7
391.988	1	-7
392.330	1	3
392.671	1	6
393.013	1	5
393.355	1	6
393.696	1	3
394.038	1	8
394.379	1	0
394.721	1	3
395.062	1	-8
395.404	1	5
395.746	1	-8
396.087	1	9
396.429	1	2
396.770	1	2
397.112	1	3
397.453	1	-7
397.795	1	-9
398.136	1	-2
398.478	1	-2
398.819	1	4
399.161	1	7
399.503	1	12
399.844	1	-9
400.186	1	9
400.527	1	5
400.869	1	0
401.210	1	-1
401.552	1	6
401.893	1	2
402.235	1	5
402.576	1	-2
402.918	1	-8
403.259	1	2
403.601	1	14
403.942	1	9
404.284	1	13
404.625	1	1
404.967	1	-1
405.308	1	-8
405.649	1	0
405.991	1	-5
406.332	1	-3
406.674	1	3
407.015	1	3
407.357	1	8
407.698	1	1
408.040	1	16
408.381	1	-5
408.722	1	14
409.064	1	3
409.405	1	-2
409.747	1	-1
410.088	1	16
410.430	1	9
410.771	1	12
411.112	1	4
411.454	1	-2
411.795	1	-3
412.137	1	2
412.478	1	4
412.819	1	3
413.161	1	12
413.502	1	-5
413.844	1	12
414.185	1	3
414.526	1	-4
414.868	1	2
415.209	1	1
415.550	1	1
415.892	1	0
416.233	1	5
416.575	1	-14
416.916	1	8
417.257	1	-1
417.599	1	6
417.940	1	4
418.281	1	22
418.623	1	4
418.964	1	7
419.305	1	-1
419.647	1	4
419.988	1	1
420.329	1	3
420.671	1	8
421.012	1	-8
421.353	1	3
421.695	1	4
422.036	1	11
422.377	1	-3
422.718	1	9
423.060	1	9
423.401	1	4
423.742	1	18
424.084	1	8
424.425	1	10
424.766	1	1
425.107	1	-3
425.449	1	0
425.790	1	7
426.131	1	-2
426.472	1	7
426.814	1	6
427.155	1	2
427.496	1	12
427.837	1	7
428.179	1	12
428.520	1	10
428.861	1	9
429.202	1	-10
429.544	1	-3
429.885	1	-1
430.226	1	-4
430.567	1	-4
430.909	1	3
431.250	1	8
431.591	1	-2
431.932	1	5
432.273	1	11
432.615	1	-3
432.956	1	7
433.297	1	2
433.638	1	8
433.979	1	3
434.320	1	7
434.662	1	4
435.003	1	12
435.344	1	1
435.685	1	0
436.026	1	1
436.368	1	-6
436.709	1	-1
437.050	1	-4
437.391	1	6
437.732	1	8
438.073	1	-3
438.414	1	8
438.756	1	2
439.097	1	0
439.438	1	4
439.779	1	2
440.120	1	-4
440.461	1	-2
440.802	1	6
441.143	1	9
441.485	1	7
441.826	1	2
442.167	1	2
442.508	1	5
442.849	1	0
443.190	1	14
443.531	1	6
443.872	1	-3
444.213	1	-12
444.554	1	4
444.895	1	0
445.237	1	14
445.578	1	-9
445.919	1	5
446.260	1	8
446.601	1	4
446.942	1	-6
447.283	1	2
447.624	1	-13
447.965	1	8
448.306	1	0
448.647	1	1
448.988	1	4
449.329	1	7
449.670	1	5
450.011	1	1
450.352	1	-10
450.693	1	9
451.034	1	-3
451.375	1	4
451.716	1	0
452.057	1	4
452.398	1	17
452.739	1	-5
453.080	1	8
453.421	1	8
453.762	1	7
454.103	1	1
454.444	1	-1
454.785	1	9
455.126	1	10
455.467	1	8
455.808	1	10
456.149	1	0
456.490	1	-8
456.831	1	3
457.172	1	1
457.513	1	0
457.854	1	3
458.195	1	7
458.536	1	8
458.877	1	1
459.218	1	3
459.559	1	7
459.899	1	-3
460.240	1	4
460.581	1	-6
460.922	1	5
461.263	1	9
461.604	1	6
461.945	1	10
462.286	1	-5
462.627	1	1
462.968	1	11
463.309	1	7
463.649	1	6
463.990	1	3
464.331	1	2
464.672	1	7
465.013	1	15
465.354	1	8
465.695	1	0
466.036	1	10
466.376	1	7
466.717	1	-3
467.058	1	3
467.399	1	-5
467.740	1	10
468.081	1	2
468.422	1	5
468.762	1	-1
469.103	1	4
469.444	1	8
469.785	1	-5
470.126	1	4
470.467	1	2
470.807	1	5
471.148	1	-7
471.489	1	7
471.830	1	8
472.171	1	3
472.511	1	10
472.852	1	1
473.193	1	8
473.534	1	1
473.875	1	4
474.215	1	-7
474.556	1	-1
474.897	1	-3
475.238	1	6
475.578	1	-1
475.919	1	-12
476.260	1	-2
476.601	1	1
476.942	1	1
477.282	1	-3
477.623	1	-4
477.964	1	3
478.305	1	5
478.645	1	1
478.986	1	5
479.327	1	3
479.667	1	1
480.008	1	4
480.349	1	-1
480.690	1	10
481.030	1	-5
481.371	1	1
481.712	1	15
482.053	1	12
482.393	1	12
482.734	1	5
483.075	1	0
483.415	1	-5
483.756	1	3
484.097	1	6
484.437	1	10
484.778	1	-8
485.119	1	-1
485.459	1	-6
485.800	1	0
486.141	1	6
486.481	1	-13
486.822	1	9
487.163	1	-10
487.503	1	6
487.844	1	-13
488.185	1	7
488.525	1	-2
488.866	1	-5
489.207	1	6
489.547	1	-1
489.888	1	5
490.228	1	-1
490.569	1	-8
490.910	1	8
491.250	1	13
491.591	1	4
491.932	1	9
492.272	1	-17
492.613	1	7
492.953	1	1
493.294	1	-2
493.635	1	2
493.975	1	11
494.316	1	-5
494.656	1	12
494.997	1	-8
495.337	1	-1
495.678	1	6
496.019	1	-10
496.359	1	-7
496.700	1	0
497.040	1	-5
497.381	1	-2
497.721	1	-1
498.062	1	-2
498.403	1	11
498.743	1	-2
499.084	1	13
499.424	1	-2
499.765	1	4
500.105	1	5
500.446	1	3
500.786	1	-6
501.127	1	9
501.467	1	9
501.808	1	2
502.148	1	-3
502.489	1	-2
502.829	1	-11
503.170	1	8
503.510	1	2
503.851	1	7
504.191	1	-2
504.532	1	13
504.872	1	2
505.213	1	0
505.553	1	1
505.894	1	-3
506.234	1	7
506.575	1	7
506.915	1	3
507.256	1	5
507.596	1	15
507.936	1	13
508.277	1	12
508.617	1	12
508.958	1	7
509.298	1	-2
509.639	1	-9
509.979	1	-6
510.319	1	2
510.660	1	-8
511.000	1	3
511.341	1	17
511.681	1	2
512.022	1	1
512.362	1	-3
512.702	1	-1
513.043	1	6
513.383	1	-1
513.724	1	-3
514.064	1	3
514.404	1	9
514.745	1	-2
515.085	1	3
515.425	1	1
515.766	1	5
516.106	1	-2
516.447	1	13
516.787	1	3
517.127	1	6
517.468	1	13
517.808	1	1
518.148	1	12
518.489	1	-5
518.829	1	3
519.169	1	-6
519.510	1	-3
519.850	1	4
520.190	1	0
520.531	1	6
520.871	1	-7
521.211	1	10
521.552	1	0
521.892	1	4
522.232	1	4
522.573	1	4
522.913	1	13
523.253	1	7
523.593	1	19
523.934	1	0
524.274	1	7
524.614	1	5
524.955	1	1
525.295	1	2
525.635	1	5
525.975	1	-1
526.316	1	1
526.656	1	5
526.996	1	-1
527.337	1	8
527.677	1	17
528.017	1	-8
528.357	1	1
528.698	1	-4
529.038	1	0
529.378	1	1
529.718	1	5
530.058	1	9
530.399	1	5
530.739	1	7
531.079	1	1
531.419	1	-1
531.760	1	10
532.100	1	8
532.440	1	7
532.780	1	-1
533.120	1	4
533.461	1	1
533.801	1	13
534.141	1	8
534.481	1	17
534.821	1	1
535.162	1	3
535.502	1	10
535.842	1	-2
536.182	1	4
536.522	1	0
536.862	1	-2
537.203	1	6
537.543	1	2
537.883	1	1
538.223	1	9
538.563	1	7
538.903	1	2
539.243	1	8
539.584	1	0
539.924	1	0
540.264	1	19
540.604	1	22
540.944	1	5
541.284	1	10
541.624	1	3
541.964	1	-2
542.305	1	11
542.645	1	6
542.985	1	-2
543.325	1	4
543.665	1	11
544.005	1	5
544.345	1	8
544.685	1	9
545.025	1	10
545.365	1	3
545.705	1	3
546.045	1	5
546.386	1	0
546.726	1	2
547.066	1	-3
547.406	1	-9
547.746	1	8
548.086	1	7
548.426	1	-3
548.766	1	9
549.106	1	6
549.446	1	10
549.786	1	0
550.126	1	6
550.466	1	1
550.806	1	9
551.146	1	4
551.486	1	4
551.826	1	0
552.166	1	4
552.506	1	-4
552.846	1	9
553.186	1	-7
553.526	1	1
553.866	1	0
554.206	1	10
554.546	1	11
554.886	1	-1
555.226	1	9
555.566	1	5
555.906	1	1
556.246	1	6
556.586	1	1
556.926	1	1
557.266	1	9
557.606	1	-1
557.946	1	4
558.286	1	-7
558.626	1	15
558.966	1	7
559.306	1	0
559.646	1	8
559.986	1	9
560.325	1	-3
560.665	1	7
561.005	1	0
561.345	1	-11
561.685	1	3
562.025	1	5
562.365	1	2
562.705	1	5
563.045	1	6
563.385	1	8
563.725	1	3
564.064	1	-4
564.404	1	-2
564.744	1	12
565.084	1	4
565.424	1	-5
565.764	1	-2
566.104	1	4
566.444	1	7
566.783	1	11
567.123	1	8
567.463	1	2
567.803	1	3
568.143	1	-3
568.483	1	15
568.823	1	5
569.162	1	5
569.502	1	3
569.842	1	-10
570.182	1	0
570.522	1	-4
570.862	1	-7
571.201	1	12
571.541	1	-3
571.881	1	0
572.221	1	3
572.561	1	12
572.900	1	2
573.240	1	1
573.580	1	1
573.920	1	13
574.260	1	7
574.599	1	12
574.939	1	9
575.279	1	-1
575.619	1	-10
575.959	1	-5
576.298	1	-5
576.638	1	1
576.978	1	8
577.318	1	-4
577.657	1	-1
577.997	1	8
578.337	1	0
578.677	1	1
579.016	1	-4
579.356	1	5
579.696	1	6
580.036	1	6
580.375	1	2
580.715	1	1
581.055	1	5
581.394	1	4
581.734	1	3
582.074	1	7
582.414	1	1
582.753	1	1
583.093	1	9
583.433	1	3
583.772	1	6
584.112	1	-3
584.452	1	2
584.791	1	10
585.131	1	10
585.471	1	5
585.811	1	12
586.150	1	5
586.490	1	3
586.830	1	6
587.169	1	-3
587.509	1	0
587.849	1	7
588.188	1	10
588.528	1	6
588.867	1	10
589.207	1	7
589.547	1	9
589.886	1	3
590.226	1	-1
590.566	1	2
590.905	1	-5
591.245	1	-7
591.585	1	-7
591.924	1	11
592.264	1	-3
592.603	1	-17
592.943	1	1
593.283	1	10
593.622	1	-1
593.962	1	9
594.301	1	-5
594.641	1	-1
594.981	1	3
595.320	1	5
595.660	1	4
595.999	1	3
596.339	1	-3
596.678	1	1
597.018	1	-7
597.358	1	2
597.697	1	6
598.037	1	5
598.376	1	-2
598.716	1	-4
599.055	1	12
599.395	1	-5
599.734	1	6
600.074	1	-9
600.413	1	-4
600.753	1	9
601.092	1	-8
601.432	1	-11
601.771	1	-5
602.111	1	10
602.451	1	-7
602.790	1	-2
603.130	1	-4
603.469	1	-2
603.809	1	1
604.148	1	-16
604.487	1	-4
604.827	1	9
605.166	1	5
605.506	1	1
605.845	1	4
606.185	1	-3
606.524	1	0
606.864	1	2
607.203	1	1
607.543	1	13
607.882	1	14
608.222	1	2
608.561	1	-1
608.901	1	9
609.240	1	3
609.579	1	1
609.919	1	-3
610.258	1	8
610.598	1	-4
610.937	1	-5
611.277	1	8
611.616	1	10
611.955	1	-8
612.295	1	6
612.634	1	2
612.974	1	-5
613.313	1	13
613.652	1	4
613.992	1	4
614.331	1	4
614.671	1	7
615.010	1	2
615.349	1	10
615.689	1	3
616.028	1	14
616.368	1	14
616.707	1	9
617.046	1	-2
617.386	1	8
617.725	1	-2
618.064	1	-4
618.404	1	-7
618.743	1	5
619.082	1	12
619.422	1	15
619.761	1	5
620.100	1	-4
620.440	1	7
620.779	1	3
621.118	1	15
621.458	1	1
621.797	1	-3
622.136	1	-4
622.476	1	3
622.815	1	1
623.154	1	-3
623.494	1	-6
623.833	1	3
624.172	1	-3
624.511	1	-7
624.851	1	-9
625.190	1	-4
625.529	1	4
625.869	1	9
626.208	1	1
626.547	1	-7
626.886	1	4
627.226	1	6
627.565	1	8
627.904	1	-4
628.243	1	13
628.583	1	0
628.922	1	-1
629.261	1	0
629.600	1	-7
629.940	1	10
630.279	1	12
630.618	1	-1
630.957	1	3
631.297	1	-5
631.636	1	1
631.975	1	3
632.314	1	5
632.653	1	-11
632.993	1	-6
633.332	1	0
633.671	1	5
634.010	1	-3
634.349	1	9
634.689	1	-6
635.028	1	-8
635.367	1	-2
635.706	1	-8
636.045	1	-2
636.384	1	8
636.724	1	5
637.063	1	-7
637.402	1	3
637.741	1	0
638.080	1	0
638.419	1	-1
638.759	1	15
639.098	1	-5
639.437	1	4
639.776	1	0
640.115	1	-13
640.454	1	-2
640.793	1	0
641.132	1	0
641.472	1	16
641.811	1	-1
642.150	1	0
642.489	1	5
642.828	1	14
643.167	1	0
643.506	1	5
643.845	1	2
644.184	1	16
644.524	1	-7
644.863	1	-1
645.202	1	-2
645.541	1	5
645.880	1	10
646.219	1	-3
646.558	1	-9
646.897	1	-9
647.236	1	2
647.575	1	8
647.914	1	0
648.253	1	6
648.592	1	9
648.931	1	1
649.270	1	2
649.610	1	4
649.949	1	2
650.288	1	-2
650.627	1	1
650.966	1	1
651.305	1	-1
651.644	1	11
651.983	1	-11
652.322	1	-5
652.661	1	15
653.000	1	3
653.339	1	2
653.678	1	9
654.017	1	5
654.356	1	3
654.695	1	18
655.034	1	0
655.373	1	2
655.712	1	9
656.051	1	-6
656.390	1	-3
656.729	1	2
657.068	1	1
657.406	1	1
657.745	1	14
658.084	1	0
658.423	1	10
658.762	1	-6
659.101	1	-1
659.440	1	2
659.779	1	10
660.118	1	3
660.457	1	3
660.796	1	13
661.135	1	2
661.474	1	6
661.813	1	-4
662.152	1	2
662.491	1	-6
662.829	1	11
663.168	1	7
663.507	1	10
663.846	1	5
664.185	1	7
664.524	1	7
664.863	1	-6
665.202	1	3
665.541	1	-3
665.879	1	9
666.218	1	4
666.557	1	6
666.896	1	8
667.235	1	-12
667.574	1	-4
667.913	1	0
668.251	1	-8
668.590	1	-1
668.929	1	2
669.268	1	3
669.607	1	-7
669.946	1	-1
670.285	1	6
670.623	1	0
670.962	1	-6
671.301	1	2
671.640	1	10
671.979	1	2
672.317	1	0
672.656	1	11
672.995	1	3
673.334	1	-2
673.673	1	8
674.011	1	6
674.350	1	-3
674.689	1	2
675.028	1	11
675.367	1	0
675.705	1	-1
676.044	1	0
676.383	1	5
676.722	1	2
677.060	1	5
677.399	1	13
677.738	1	-3
678.077	1	-7
678.416	1	-2
678.754	1	2
679.093	1	10
679.432	1	-3
679.771	1	2
680.109	1	0
680.448	1	4
680.787	1	-2
681.125	1	-2
681.464	1	0
681.803	1	1
682.142	1	1
682.480	1	3
682.819	1	-4
683.158	1	4
683.496	1	-6
683.835	1	6
684.174	1	-5
684.512	1	2
684.851	1	-14
685.190	1	-3
685.529	1	-1
685.867	1	3
686.206	1	-14
686.545	1	-1
686.883	1	8
687.222	1	-2
687.561	1	-3
687.899	1	2
688.238	1	8
688.577	1	12
688.746	1	-1