File: Data/GaN_150K_450ms/GaN_sample D_spot15_UVVIS_150 K_200um_450 ms 2x2mm1_87.txt
340.368	1	6
340.710	1	13
341.052	1	-2
341.394	1	0
341.737	1	5
342.079	1	7
342.421	1	0
342.763	1	3
343.105	1	9
343.447	1	7
343.789	1	8
344.131	1	-3
344.473	1	4
344.815	1	-4
345.157	1	13
345.499	1	4
345.841	1	8
346.183	1	8
346.526	1	10
346.868	1	5
347.210	1	1
347.552	1	20
347.894	1	5
348.236	1	5
348.578	1	10
348.920	1	14
349.262	1	15
349.604	1	-1
349.946	1	7
350.288	1	0
350.630	1	3
350.972	1	19
351.314	1	4
351.656	1	15
351.998	1	2
352.340	1	12
352.682	1	-4
353.024	1	25
353.366	1	20
353.708	1	4
354.050	1	-5
354.392	1	10
354.734	1	11
355.076	1	27
355.418	1	11
355.760	1	17
356.102	1	16
356.444	1	24
356.785	1	16
357.127	1	23
357.469	1	16
357.811	1	19
358.153	1	13
358.495	1	15
358.837	1	36
359.179	1	22
359.521	1	28
359.863	1	26
360.205	1	28
360.547	1	35
360.889	1	35
361.231	1	42
361.572	1	35
361.914	1	47
362.256	1	38
362.598	1	51
362.940	1	55
363.282	1	47
363.624	1	56
363.966	1	52
364.308	1	71
364.649	1	75
364.991	1	82
365.333	1	74
365.675	1	107
366.017	1	109
366.359	1	111
366.701	1	121
367.042	1	124
367.384	1	124
367.726	1	128
368.068	1	139
368.410	1	139
368.752	1	125
369.093	1	135
369.435	1	129
369.777	1	138
370.119	1	114
370.461	1	106
370.803	1	101
371.144	1	102
371.486	1	103
371.828	1	90
372.170	1	91
372.512	1	72
372.853	1	83
373.195	1	67
373.537	1	57
373.879	1	66
374.220	1	63
374.562	1	70
374.904	1	60
375.246	1	63
375.588	1	51
375.929	1	50
376.271	1	47
376.613	1	51
376.955	1	46
377.296	1	41
377.638	1	35
377.980	1	49
378.321	1	42
378.663	1	43
379.005	1	35
379.347	1	38
379.688	1	40
380.030	1	44
380.372	1	28
380.714	1	30
381.055	1	30
381.397	1	24
381.739	1	18
382.080	1	37
382.422	1	26
382.764	1	34
383.105	1	18
383.447	1	20
383.789	1	20
384.130	1	26
384.472	1	18
384.814	1	31
385.156	1	23
385.497	1	33
385.839	1	22
386.180	1	18
386.522	1	22
386.864	1	12
387.205	1	17
387.547	1	21
387.889	1	10
388.230	1	16
388.572	1	11
388.914	1	17
389.255	1	17
389.597	1	7
389.939	1	25
390.280	1	16
390.622	1	11
390.963	1	16
391.305	1	12
391.647	1	14
391.988	1	17
392.330	1	22
392.671	1	18
393.013	1	17
393.355	1	20
393.696	1	19
394.038	1	12
394.379	1	26
394.721	1	16
395.062	1	14
395.404	1	15
395.746	1	3
396.087	1	21
396.429	1	24
396.770	1	19
397.112	1	11
397.453	1	7
397.795	1	11
398.136	1	17
398.478	1	14
398.819	1	17
399.161	1	20
399.503	1	17
399.844	1	6
400.186	1	6
400.527	1	19
400.869	1	7
401.210	1	16
401.552	1	12
401.893	1	8
402.235	1	14
402.576	1	19
402.918	1	9
403.259	1	8
403.601	1	20
403.942	1	10
404.284	1	21
404.625	1	15
404.967	1	13
405.308	1	7
405.649	1	16
405.991	1	16
406.332	1	20
406.674	1	17
407.015	1	20
407.357	1	19
407.698	1	16
408.040	1	22
408.381	1	8
408.722	1	23
409.064	1	24
409.405	1	8
409.747	1	15
410.088	1	28
410.430	1	23
410.771	1	20
411.112	1	22
411.454	1	20
411.795	1	7
412.137	1	11
412.478	1	9
412.819	1	19
413.161	1	12
413.502	1	15
413.844	1	21
414.185	1	4
414.526	1	0
414.868	1	12
415.209	1	18
415.550	1	22
415.892	1	20
416.233	1	7
416.575	1	3
416.916	1	10
417.257	1	14
417.599	1	9
417.940	1	11
418.281	1	24
418.623	1	10
418.964	1	25
419.305	1	26
419.647	1	9
419.988	1	29
420.329	1	18
420.671	1	21
421.012	1	12
421.353	1	25
421.695	1	23
422.036	1	19
422.377	1	13
422.718	1	17
423.060	1	17
423.401	1	13
423.742	1	20
424.084	1	22
424.425	1	28
424.766	1	24
425.107	1	18
425.449	1	14
425.790	1	20
426.131	1	10
426.472	1	26
426.814	1	18
427.155	1	15
427.496	1	4
427.837	1	10
428.179	1	23
428.520	1	17
428.861	1	15
429.202	1	11
429.544	1	21
429.885	1	15
430.226	1	6
430.567	1	6
430.909	1	4
431.250	1	17
431.591	1	5
431.932	1	9
432.273	1	21
432.615	1	3
432.956	1	13
433.297	1	14
433.638	1	23
433.979	1	21
434.320	1	14
434.662	1	18
435.003	1	23
435.344	1	12
435.685	1	10
436.026	1	9
436.368	1	5
436.709	1	6
437.050	1	12
437.391	1	10
437.732	1	20
438.073	1	13
438.414	1	11
438.756	1	7
439.097	1	17
439.438	1	13
439.779	1	14
440.120	1	8
440.461	1	14
440.802	1	18
441.143	1	15
441.485	1	18
441.826	1	10
442.167	1	19
442.508	1	16
442.849	1	20
443.190	1	24
443.531	1	13
443.872	1	8
444.213	1	6
444.554	1	21
444.895	1	16
445.237	1	16
445.578	1	15
445.919	1	21
446.260	1	19
446.601	1	19
446.942	1	10
447.283	1	10
447.624	1	5
447.965	1	14
448.306	1	18
448.647	1	4
448.988	1	15
449.329	1	14
449.670	1	10
450.011	1	9
450.352	1	0
450.693	1	15
451.034	1	8
451.375	1	9
451.716	1	2
452.057	1	16
452.398	1	18
452.739	1	11
453.080	1	15
453.421	1	11
453.762	1	12
454.103	1	23
454.444	1	7
454.785	1	16
455.126	1	25
455.467	1	12
455.808	1	17
456.149	1	9
456.490	1	10
456.831	1	16
457.172	1	6
457.513	1	2
457.854	1	8
458.195	1	15
458.536	1	7
458.877	1	13
459.218	1	11
459.559	1	17
459.899	1	11
460.240	1	1
460.581	1	5
460.922	1	8
461.263	1	14
461.604	1	7
461.945	1	6
462.286	1	5
462.627	1	3
462.968	1	12
463.309	1	20
463.649	1	12
463.990	1	12
464.331	1	16
464.672	1	13
465.013	1	10
465.354	1	11
465.695	1	6
466.036	1	4
466.376	1	18
466.717	1	-7
467.058	1	9
467.399	1	7
467.740	1	12
468.081	1	10
468.422	1	8
468.762	1	17
469.103	1	15
469.444	1	11
469.785	1	8
470.126	1	1
470.467	1	8
470.807	1	8
471.148	1	8
471.489	1	5
471.830	1	10
472.171	1	10
472.511	1	13
472.852	1	11
473.193	1	11
473.534	1	14
473.875	1	7
474.215	1	8
474.556	1	-1
474.897	1	15
475.238	1	11
475.578	1	2
475.919	1	5
476.260	1	-1
476.601	1	6
476.942	1	4
477.282	1	9
477.623	1	1
477.964	1	15
478.305	1	11
478.645	1	8
478.986	1	9
479.327	1	7
479.667	1	8
480.008	1	9
480.349	1	8
480.690	1	12
481.030	1	2
481.371	1	3
481.712	1	14
482.053	1	12
482.393	1	16
482.734	1	13
483.075	1	5
483.415	1	13
483.756	1	10
484.097	1	12
484.437	1	14
484.778	1	11
485.119	1	11
485.459	1	7
485.800	1	6
486.141	1	10
486.481	1	1
486.822	1	18
487.163	1	5
487.503	1	9
487.844	1	3
488.185	1	7
488.525	1	5
488.866	1	3
489.207	1	14
489.547	1	19
489.888	1	17
490.228	1	17
490.569	1	7
490.910	1	23
491.250	1	10
491.591	1	19
491.932	1	24
492.272	1	2
492.613	1	7
492.953	1	18
493.294	1	11
493.635	1	27
493.975	1	18
494.316	1	11
494.656	1	18
494.997	1	8
495.337	1	12
495.678	1	15
496.019	1	12
496.359	1	15
496.700	1	13
497.040	1	10
497.381	1	10
497.721	1	13
498.062	1	10
498.403	1	25
498.743	1	18
499.084	1	17
499.424	1	12
499.765	1	23
500.105	1	25
500.446	1	21
500.786	1	15
501.127	1	19
501.467	1	30
501.808	1	31
502.148	1	19
502.489	1	23
502.829	1	15
503.170	1	19
503.510	1	33
503.851	1	25
504.191	1	19
504.532	1	25
504.872	1	7
505.213	1	18
505.553	1	25
505.894	1	33
506.234	1	27
506.575	1	44
506.915	1	15
507.256	1	31
507.596	1	31
507.936	1	25
508.277	1	32
508.617	1	28
508.958	1	23
509.298	1	27
509.639	1	15
509.979	1	27
510.319	1	30
510.660	1	17
511.000	1	31
511.341	1	26
511.681	1	31
512.022	1	12
512.362	1	43
512.702	1	22
513.043	1	29
513.383	1	32
513.724	1	27
514.064	1	36
514.404	1	31
514.745	1	21
515.085	1	43
515.425	1	43
515.766	1	21
516.106	1	32
516.447	1	40
516.787	1	21
517.127	1	41
517.468	1	43
517.808	1	29
518.148	1	38
518.489	1	30
518.829	1	29
519.169	1	30
519.510	1	32
519.850	1	33
520.190	1	36
520.531	1	33
520.871	1	51
521.211	1	37
521.552	1	30
521.892	1	31
522.232	1	34
522.573	1	35
522.913	1	41
523.253	1	41
523.593	1	40
523.934	1	33
524.274	1	35
524.614	1	40
524.955	1	33
525.295	1	43
525.635	1	38
525.975	1	31
526.316	1	25
526.656	1	31
526.996	1	38
527.337	1	41
527.677	1	44
528.017	1	36
528.357	1	43
528.698	1	44
529.038	1	40
529.378	1	45
529.718	1	36
530.058	1	31
530.399	1	35
530.739	1	44
531.079	1	35
531.419	1	39
531.760	1	40
532.100	1	49
532.440	1	51
532.780	1	42
533.120	1	32
533.461	1	31
533.801	1	44
534.141	1	41
534.481	1	45
534.821	1	30
535.162	1	41
535.502	1	40
535.842	1	39
536.182	1	32
536.522	1	34
536.862	1	25
537.203	1	37
537.543	1	42
537.883	1	26
538.223	1	43
538.563	1	27
538.903	1	35
539.243	1	23
539.584	1	33
539.924	1	29
540.264	1	40
540.604	1	39
540.944	1	20
541.284	1	34
541.624	1	33
541.964	1	24
542.305	1	41
542.645	1	26
542.985	1	25
543.325	1	37
543.665	1	29
544.005	1	35
544.345	1	44
544.685	1	33
545.025	1	35
545.365	1	33
545.705	1	30
546.045	1	33
546.386	1	28
546.726	1	28
547.066	1	43
547.406	1	31
547.746	1	27
548.086	1	23
548.426	1	29
548.766	1	29
549.106	1	23
549.446	1	29
549.786	1	31
550.126	1	30
550.466	1	24
550.806	1	49
551.146	1	32
551.486	1	24
551.826	1	16
552.166	1	25
552.506	1	29
552.846	1	29
553.186	1	24
553.526	1	31
553.866	1	24
554.206	1	28
554.546	1	28
554.886	1	21
555.226	1	34
555.566	1	31
555.906	1	18
556.246	1	17
556.586	1	31
556.926	1	21
557.266	1	25
557.606	1	19
557.946	1	26
558.286	1	5
558.626	1	28
558.966	1	17
559.306	1	30
559.646	1	29
559.986	1	33
560.325	1	31
560.665	1	20
561.005	1	16
561.345	1	18
561.685	1	33
562.025	1	17
562.365	1	26
562.705	1	32
563.045	1	31
563.385	1	26
563.725	1	22
564.064	1	17
564.404	1	14
564.744	1	23
565.084	1	29
565.424	1	11
565.764	1	25
566.104	1	34
566.444	1	19
566.783	1	20
567.123	1	7
567.463	1	11
567.803	1	18
568.143	1	17
568.483	1	19
568.823	1	13
569.162	1	8
569.502	1	25
569.842	1	20
570.182	1	11
570.522	1	13
570.862	1	-1
571.201	1	29
571.541	1	11
571.881	1	13
572.221	1	15
572.561	1	25
572.900	1	22
573.240	1	7
573.580	1	21
573.920	1	31
574.260	1	21
574.599	1	16
574.939	1	18
575.279	1	18
575.619	1	21
575.959	1	21
576.298	1	14
576.638	1	16
576.978	1	19
577.318	1	12
577.657	1	9
577.997	1	20
578.337	1	9
578.677	1	14
579.016	1	9
579.356	1	17
579.696	1	11
580.036	1	22
580.375	1	19
580.715	1	14
581.055	1	9
581.394	1	11
581.734	1	19
582.074	1	20
582.414	1	9
582.753	1	10
583.093	1	14
583.433	1	22
583.772	1	13
584.112	1	15
584.452	1	19
584.791	1	18
585.131	1	13
585.471	1	8
585.811	1	20
586.150	1	13
586.490	1	10
586.830	1	18
587.169	1	13
587.509	1	12
587.849	1	13
588.188	1	16
588.528	1	7
588.867	1	8
589.207	1	14
589.547	1	13
589.886	1	17
590.226	1	9
590.566	1	14
590.905	1	9
591.245	1	3
591.585	1	7
591.924	1	8
592.264	1	6
592.603	1	1
592.943	1	3
593.283	1	12
593.622	1	12
593.962	1	17
594.301	1	8
594.641	1	17
594.981	1	12
595.320	1	18
595.660	1	13
595.999	1	12
596.339	1	13
596.678	1	5
597.018	1	7
597.358	1	8
597.697	1	8
598.037	1	12
598.376	1	4
598.716	1	14
599.055	1	16
599.395	1	9
599.734	1	3
600.074	1	1
600.413	1	12
600.753	1	20
601.092	1	1
601.432	1	-4
601.771	1	9
602.111	1	6
602.451	1	8
602.790	1	19
603.130	1	8
603.469	1	12
603.809	1	11
604.148	1	4
604.487	1	9
604.827	1	22
605.166	1	10
605.506	1	13
605.845	1	12
606.185	1	7
606.524	1	3
606.864	1	18
607.203	1	16
607.543	1	8
607.882	1	16
608.222	1	-1
608.561	1	12
608.901	1	14
609.240	1	20
609.579	1	11
609.919	1	-4
610.258	1	3
610.598	1	4
610.937	1	9
611.277	1	12
611.616	1	24
611.955	1	1
612.295	1	19
612.634	1	14
612.974	1	4
613.313	1	4
613.652	1	10
613.992	1	10
614.331	1	13
614.671	1	6
615.010	1	8
615.349	1	12
615.689	1	2
616.028	1	16
616.368	1	9
616.707	1	7
617.046	1	7
617.386	1	12
617.725	1	-5
618.064	1	0
618.404	1	10
618.743	1	2
619.082	1	17
619.422	1	19
619.761	1	-3
620.100	1	12
620.440	1	6
620.779	1	8
621.118	1	18
621.458	1	12
621.797	1	12
622.136	1	9
622.476	1	12
622.815	1	11
623.154	1	-5
623.494	1	-10
623.833	1	8
624.172	1	7
624.511	1	4
624.851	1	6
625.190	1	10
625.529	1	12
625.869	1	10
626.208	1	1
626.547	1	-4
626.886	1	6
627.226	1	9
627.565	1	15
627.904	1	6
628.243	1	9
628.583	1	14
628.922	1	7
629.261	1	13
629.600	1	3
629.940	1	15
630.279	1	9
630.618	1	13
630.957	1	20
631.297	1	8
631.636	1	7
631.975	1	5
632.314	1	8
632.653	1	5
632.993	1	16
633.332	1	12
633.671	1	5
634.010	1	10
634.349	1	8
634.689	1	5
635.028	1	2
635.367	1	18
635.706	1	11
636.045	1	1
636.384	1	19
636.724	1	9
637.063	1	-4
637.402	1	3
637.741	1	7
638.080	1	6
638.419	1	5
638.759	1	10
639.098	1	8
639.437	1	10
639.776	1	-2
640.115	1	-1
640.454	1	4
640.793	1	13
641.132	1	9
641.472	1	14
641.811	1	0
642.150	1	3
642.489	1	9
642.828	1	22
643.167	1	10
643.506	1	-3
643.845	1	11
644.184	1	9
644.524	1	9
644.863	1	-2
645.202	1	7
645.541	1	4
645.880	1	14
646.219	1	2
646.558	1	1
646.897	1	-10
647.236	1	5
647.575	1	15
647.914	1	5
648.253	1	8
648.592	1	7
648.931	1	8
649.270	1	12
649.610	1	19
649.949	1	-1
650.288	1	7
650.627	1	7
650.966	1	16
651.305	1	4
651.644	1	17
651.983	1	-3
652.322	1	10
652.661	1	12
653.000	1	1
653.339	1	6
653.678	1	5
654.017	1	9
654.356	1	9
654.695	1	15
655.034	1	1
655.373	1	2
655.712	1	12
656.051	1	4
656.390	1	9
656.729	1	14
657.068	1	11
657.406	1	-3
657.745	1	20
658.084	1	9
658.423	1	5
658.762	1	-7
659.101	1	9
659.440	1	13
659.779	1	16
660.118	1	0
660.457	1	11
660.796	1	16
661.135	1	23
661.474	1	5
661.813	1	4
662.152	1	9
662.491	1	-4
662.829	1	8
663.168	1	4
663.507	1	2
663.846	1	3
664.185	1	18
664.524	1	6
664.863	1	-4
665.202	1	8
665.541	1	9
665.879	1	15
666.218	1	8
666.557	1	-1
666.896	1	6
667.235	1	-2
667.574	1	6
667.913	1	8
668.251	1	0
668.590	1	11
668.929	1	1
669.268	1	0
669.607	1	-6
669.946	1	3
670.285	1	5
670.623	1	8
670.962	1	0
671.301	1	17
671.640	1	14
671.979	1	3
672.317	1	3
672.656	1	14
672.995	1	10
673.334	1	-2
673.673	1	17
674.011	1	11
674.350	1	4
674.689	1	-3
675.028	1	9
675.367	1	8
675.705	1	7
676.044	1	-1
676.383	1	5
676.722	1	4
677.060	1	12
677.399	1	15
677.738	1	4
678.077	1	5
678.416	1	10
678.754	1	5
679.093	1	11
679.432	1	2
679.771	1	6
680.109	1	3
680.448	1	-3
680.787	1	-3
681.125	1	11
681.464	1	17
681.803	1	3
682.142	1	2
682.480	1	3
682.819	1	18
683.158	1	14
683.496	1	6
683.835	1	15
684.174	1	8
684.512	1	8
684.851	1	2
685.190	1	1
685.529	1	1
685.867	1	1
686.206	1	2
686.545	1	10
686.883	1	17
687.222	1	5
687.561	1	8
687.899	1	6
688.238	1	14
688.577	1	4
688.746	1	1