File: Data/GaN_150K_450ms/GaN_sample D_spot15_UVVIS_150 K_200um_450 ms 2x2mm1_78.txt
340.368	1	9
340.710	1	10
341.052	1	10
341.394	1	-8
341.737	1	7
342.079	1	1
342.421	1	0
342.763	1	5
343.105	1	6
343.447	1	5
343.789	1	1
344.131	1	-7
344.473	1	3
344.815	1	1
345.157	1	20
345.499	1	-1
345.841	1	3
346.183	1	-2
346.526	1	9
346.868	1	3
347.210	1	8
347.552	1	16
347.894	1	5
348.236	1	5
348.578	1	4
348.920	1	0
349.262	1	15
349.604	1	3
349.946	1	5
350.288	1	-1
350.630	1	-2
350.972	1	14
351.314	1	6
351.656	1	2
351.998	1	5
352.340	1	18
352.682	1	0
353.024	1	24
353.366	1	10
353.708	1	12
354.050	1	2
354.392	1	-1
354.734	1	16
355.076	1	24
355.418	1	1
355.760	1	24
356.102	1	8
356.444	1	16
356.785	1	11
357.127	1	20
357.469	1	22
357.811	1	21
358.153	1	12
358.495	1	19
358.837	1	32
359.179	1	19
359.521	1	30
359.863	1	16
360.205	1	38
360.547	1	33
360.889	1	34
361.231	1	49
361.572	1	44
361.914	1	55
362.256	1	59
362.598	1	66
362.940	1	63
363.282	1	63
363.624	1	81
363.966	1	86
364.308	1	90
364.649	1	93
364.991	1	120
365.333	1	111
365.675	1	143
366.017	1	148
366.359	1	136
366.701	1	168
367.042	1	188
367.384	1	168
367.726	1	179
368.068	1	207
368.410	1	187
368.752	1	197
369.093	1	183
369.435	1	181
369.777	1	182
370.119	1	157
370.461	1	148
370.803	1	139
371.144	1	133
371.486	1	128
371.828	1	129
372.170	1	122
372.512	1	109
372.853	1	120
373.195	1	104
373.537	1	84
373.879	1	81
374.220	1	91
374.562	1	96
374.904	1	72
375.246	1	75
375.588	1	67
375.929	1	73
376.271	1	67
376.613	1	58
376.955	1	64
377.296	1	62
377.638	1	53
377.980	1	52
378.321	1	50
378.663	1	53
379.005	1	45
379.347	1	40
379.688	1	49
380.030	1	48
380.372	1	49
380.714	1	44
381.055	1	34
381.397	1	23
381.739	1	27
382.080	1	43
382.422	1	41
382.764	1	35
383.105	1	36
383.447	1	30
383.789	1	25
384.130	1	38
384.472	1	34
384.814	1	31
385.156	1	35
385.497	1	48
385.839	1	33
386.180	1	32
386.522	1	23
386.864	1	19
387.205	1	29
387.547	1	23
387.889	1	16
388.230	1	13
388.572	1	17
388.914	1	22
389.255	1	17
389.597	1	15
389.939	1	34
390.280	1	24
390.622	1	20
390.963	1	20
391.305	1	16
391.647	1	11
391.988	1	20
392.330	1	17
392.671	1	16
393.013	1	22
393.355	1	24
393.696	1	14
394.038	1	9
394.379	1	16
394.721	1	16
395.062	1	11
395.404	1	17
395.746	1	14
396.087	1	20
396.429	1	20
396.770	1	25
397.112	1	30
397.453	1	13
397.795	1	13
398.136	1	23
398.478	1	19
398.819	1	20
399.161	1	24
399.503	1	18
399.844	1	13
400.186	1	24
400.527	1	28
400.869	1	18
401.210	1	13
401.552	1	12
401.893	1	22
402.235	1	30
402.576	1	25
402.918	1	-1
403.259	1	17
403.601	1	30
403.942	1	13
404.284	1	27
404.625	1	6
404.967	1	26
405.308	1	8
405.649	1	15
405.991	1	14
406.332	1	18
406.674	1	14
407.015	1	28
407.357	1	13
407.698	1	16
408.040	1	34
408.381	1	11
408.722	1	24
409.064	1	21
409.405	1	12
409.747	1	18
410.088	1	21
410.430	1	27
410.771	1	16
411.112	1	13
411.454	1	15
411.795	1	12
412.137	1	22
412.478	1	19
412.819	1	23
413.161	1	18
413.502	1	15
413.844	1	25
414.185	1	5
414.526	1	3
414.868	1	19
415.209	1	14
415.550	1	13
415.892	1	24
416.233	1	14
416.575	1	8
416.916	1	17
417.257	1	14
417.599	1	9
417.940	1	4
418.281	1	26
418.623	1	14
418.964	1	22
419.305	1	14
419.647	1	7
419.988	1	23
420.329	1	17
420.671	1	21
421.012	1	7
421.353	1	26
421.695	1	21
422.036	1	18
422.377	1	15
422.718	1	25
423.060	1	26
423.401	1	14
423.742	1	20
424.084	1	14
424.425	1	16
424.766	1	11
425.107	1	10
425.449	1	15
425.790	1	25
426.131	1	6
426.472	1	23
426.814	1	16
427.155	1	22
427.496	1	21
427.837	1	11
428.179	1	29
428.520	1	15
428.861	1	13
429.202	1	5
429.544	1	20
429.885	1	31
430.226	1	-3
430.567	1	8
430.909	1	13
431.250	1	10
431.591	1	18
431.932	1	11
432.273	1	18
432.615	1	14
432.956	1	15
433.297	1	23
433.638	1	20
433.979	1	24
434.320	1	19
434.662	1	17
435.003	1	21
435.344	1	2
435.685	1	6
436.026	1	18
436.368	1	8
436.709	1	10
437.050	1	7
437.391	1	14
437.732	1	16
438.073	1	7
438.414	1	15
438.756	1	13
439.097	1	12
439.438	1	14
439.779	1	16
440.120	1	19
440.461	1	20
440.802	1	5
441.143	1	12
441.485	1	15
441.826	1	15
442.167	1	8
442.508	1	17
442.849	1	15
443.190	1	8
443.531	1	17
443.872	1	7
444.213	1	-5
444.554	1	20
444.895	1	6
445.237	1	20
445.578	1	4
445.919	1	4
446.260	1	22
446.601	1	9
446.942	1	7
447.283	1	16
447.624	1	9
447.965	1	13
448.306	1	14
448.647	1	5
448.988	1	24
449.329	1	17
449.670	1	14
450.011	1	11
450.352	1	3
450.693	1	16
451.034	1	3
451.375	1	14
451.716	1	13
452.057	1	12
452.398	1	15
452.739	1	21
453.080	1	10
453.421	1	19
453.762	1	16
454.103	1	16
454.444	1	11
454.785	1	8
455.126	1	9
455.467	1	16
455.808	1	21
456.149	1	5
456.490	1	3
456.831	1	9
457.172	1	17
457.513	1	6
457.854	1	7
458.195	1	1
458.536	1	18
458.877	1	8
459.218	1	11
459.559	1	8
459.899	1	9
460.240	1	3
460.581	1	8
460.922	1	7
461.263	1	17
461.604	1	9
461.945	1	16
462.286	1	6
462.627	1	15
462.968	1	9
463.309	1	11
463.649	1	1
463.990	1	13
464.331	1	13
464.672	1	13
465.013	1	12
465.354	1	15
465.695	1	6
466.036	1	17
466.376	1	16
466.717	1	0
467.058	1	9
467.399	1	7
467.740	1	28
468.081	1	7
468.422	1	6
468.762	1	14
469.103	1	10
469.444	1	19
469.785	1	-4
470.126	1	16
470.467	1	3
470.807	1	19
471.148	1	6
471.489	1	14
471.830	1	5
472.171	1	17
472.511	1	16
472.852	1	17
473.193	1	12
473.534	1	7
473.875	1	11
474.215	1	9
474.556	1	8
474.897	1	4
475.238	1	5
475.578	1	5
475.919	1	11
476.260	1	2
476.601	1	19
476.942	1	13
477.282	1	2
477.623	1	12
477.964	1	11
478.305	1	14
478.645	1	16
478.986	1	21
479.327	1	8
479.667	1	15
480.008	1	21
480.349	1	8
480.690	1	12
481.030	1	7
481.371	1	7
481.712	1	19
482.053	1	18
482.393	1	13
482.734	1	17
483.075	1	14
483.415	1	10
483.756	1	8
484.097	1	16
484.437	1	12
484.778	1	11
485.119	1	5
485.459	1	4
485.800	1	5
486.141	1	19
486.481	1	9
486.822	1	16
487.163	1	3
487.503	1	13
487.844	1	12
488.185	1	22
488.525	1	12
488.866	1	13
489.207	1	23
489.547	1	23
489.888	1	16
490.228	1	9
490.569	1	2
490.910	1	20
491.250	1	27
491.591	1	18
491.932	1	24
492.272	1	8
492.613	1	23
492.953	1	8
493.294	1	10
493.635	1	22
493.975	1	20
494.316	1	11
494.656	1	19
494.997	1	12
495.337	1	17
495.678	1	19
496.019	1	22
496.359	1	12
496.700	1	18
497.040	1	17
497.381	1	31
497.721	1	14
498.062	1	16
498.403	1	33
498.743	1	29
499.084	1	32
499.424	1	23
499.765	1	40
500.105	1	28
500.446	1	34
500.786	1	16
501.127	1	30
501.467	1	40
501.808	1	25
502.148	1	28
502.489	1	32
502.829	1	19
503.170	1	35
503.510	1	26
503.851	1	34
504.191	1	25
504.532	1	34
504.872	1	27
505.213	1	35
505.553	1	33
505.894	1	32
506.234	1	51
506.575	1	40
506.915	1	38
507.256	1	31
507.596	1	41
507.936	1	36
508.277	1	35
508.617	1	33
508.958	1	37
509.298	1	31
509.639	1	43
509.979	1	34
510.319	1	44
510.660	1	33
511.000	1	28
511.341	1	39
511.681	1	43
512.022	1	29
512.362	1	32
512.702	1	32
513.043	1	40
513.383	1	32
513.724	1	44
514.064	1	41
514.404	1	52
514.745	1	47
515.085	1	48
515.425	1	43
515.766	1	37
516.106	1	35
516.447	1	51
516.787	1	37
517.127	1	52
517.468	1	48
517.808	1	45
518.148	1	55
518.489	1	37
518.829	1	41
519.169	1	45
519.510	1	35
519.850	1	39
520.190	1	50
520.531	1	45
520.871	1	53
521.211	1	45
521.552	1	36
521.892	1	42
522.232	1	49
522.573	1	46
522.913	1	47
523.253	1	51
523.593	1	57
523.934	1	46
524.274	1	45
524.614	1	52
524.955	1	44
525.295	1	46
525.635	1	52
525.975	1	41
526.316	1	31
526.656	1	41
526.996	1	50
527.337	1	46
527.677	1	61
528.017	1	41
528.357	1	48
528.698	1	50
529.038	1	52
529.378	1	39
529.718	1	44
530.058	1	47
530.399	1	49
530.739	1	52
531.079	1	45
531.419	1	55
531.760	1	55
532.100	1	55
532.440	1	49
532.780	1	51
533.120	1	44
533.461	1	54
533.801	1	53
534.141	1	45
534.481	1	57
534.821	1	41
535.162	1	55
535.502	1	45
535.842	1	40
536.182	1	44
536.522	1	39
536.862	1	42
537.203	1	45
537.543	1	47
537.883	1	43
538.223	1	56
538.563	1	41
538.903	1	39
539.243	1	43
539.584	1	35
539.924	1	48
540.264	1	45
540.604	1	46
540.944	1	39
541.284	1	40
541.624	1	48
541.964	1	49
542.305	1	48
542.645	1	34
542.985	1	45
543.325	1	53
543.665	1	42
544.005	1	38
544.345	1	45
544.685	1	49
545.025	1	47
545.365	1	44
545.705	1	44
546.045	1	55
546.386	1	42
546.726	1	48
547.066	1	43
547.406	1	43
547.746	1	40
548.086	1	41
548.426	1	41
548.766	1	42
549.106	1	37
549.446	1	44
549.786	1	41
550.126	1	47
550.466	1	42
550.806	1	46
551.146	1	45
551.486	1	35
551.826	1	33
552.166	1	36
552.506	1	33
552.846	1	52
553.186	1	29
553.526	1	39
553.866	1	39
554.206	1	44
554.546	1	42
554.886	1	34
555.226	1	56
555.566	1	35
555.906	1	33
556.246	1	30
556.586	1	41
556.926	1	30
557.266	1	44
557.606	1	32
557.946	1	37
558.286	1	23
558.626	1	39
558.966	1	24
559.306	1	36
559.646	1	38
559.986	1	36
560.325	1	27
560.665	1	33
561.005	1	38
561.345	1	31
561.685	1	42
562.025	1	25
562.365	1	22
562.705	1	38
563.045	1	28
563.385	1	28
563.725	1	36
564.064	1	26
564.404	1	24
564.744	1	30
565.084	1	33
565.424	1	28
565.764	1	23
566.104	1	34
566.444	1	33
566.783	1	22
567.123	1	28
567.463	1	31
567.803	1	36
568.143	1	15
568.483	1	30
568.823	1	26
569.162	1	16
569.502	1	24
569.842	1	27
570.182	1	13
570.522	1	20
570.862	1	7
571.201	1	32
571.541	1	4
571.881	1	21
572.221	1	15
572.561	1	32
572.900	1	33
573.240	1	16
573.580	1	17
573.920	1	28
574.260	1	20
574.599	1	23
574.939	1	19
575.279	1	22
575.619	1	17
575.959	1	6
576.298	1	9
576.638	1	18
576.978	1	26
577.318	1	23
577.657	1	18
577.997	1	27
578.337	1	13
578.677	1	18
579.016	1	16
579.356	1	22
579.696	1	20
580.036	1	13
580.375	1	23
580.715	1	27
581.055	1	14
581.394	1	20
581.734	1	26
582.074	1	20
582.414	1	15
582.753	1	19
583.093	1	20
583.433	1	26
583.772	1	17
584.112	1	16
584.452	1	23
584.791	1	18
585.131	1	25
585.471	1	20
585.811	1	18
586.150	1	20
586.490	1	13
586.830	1	4
587.169	1	16
587.509	1	21
587.849	1	18
588.188	1	20
588.528	1	13
588.867	1	18
589.207	1	12
589.547	1	13
589.886	1	17
590.226	1	5
590.566	1	10
590.905	1	13
591.245	1	12
591.585	1	7
591.924	1	16
592.264	1	15
592.603	1	-2
592.943	1	12
593.283	1	23
593.622	1	9
593.962	1	20
594.301	1	1
594.641	1	19
594.981	1	17
595.320	1	22
595.660	1	19
595.999	1	14
596.339	1	5
596.678	1	1
597.018	1	8
597.358	1	7
597.697	1	4
598.037	1	12
598.376	1	1
598.716	1	12
599.055	1	23
599.395	1	4
599.734	1	21
600.074	1	6
600.413	1	25
600.753	1	18
601.092	1	5
601.432	1	-3
601.771	1	15
602.111	1	13
602.451	1	9
602.790	1	14
603.130	1	10
603.469	1	17
603.809	1	11
604.148	1	4
604.487	1	10
604.827	1	14
605.166	1	17
605.506	1	12
605.845	1	18
606.185	1	13
606.524	1	9
606.864	1	15
607.203	1	11
607.543	1	13
607.882	1	27
608.222	1	11
608.561	1	7
608.901	1	19
609.240	1	8
609.579	1	11
609.919	1	0
610.258	1	19
610.598	1	2
610.937	1	5
611.277	1	23
611.616	1	17
611.955	1	18
612.295	1	11
612.634	1	14
612.974	1	9
613.313	1	18
613.652	1	16
613.992	1	7
614.331	1	22
614.671	1	14
615.010	1	19
615.349	1	16
615.689	1	17
616.028	1	20
616.368	1	15
616.707	1	9
617.046	1	5
617.386	1	5
617.725	1	-2
618.064	1	2
618.404	1	12
618.743	1	7
619.082	1	26
619.422	1	22
619.761	1	3
620.100	1	13
620.440	1	9
620.779	1	13
621.118	1	18
621.458	1	10
621.797	1	13
622.136	1	7
622.476	1	21
622.815	1	13
623.154	1	0
623.494	1	4
623.833	1	9
624.172	1	7
624.511	1	14
624.851	1	13
625.190	1	9
625.529	1	7
625.869	1	20
626.208	1	-3
626.547	1	-4
626.886	1	1
627.226	1	15
627.565	1	19
627.904	1	4
628.243	1	24
628.583	1	10
628.922	1	4
629.261	1	14
629.600	1	13
629.940	1	7
630.279	1	6
630.618	1	15
630.957	1	11
631.297	1	11
631.636	1	5
631.975	1	8
632.314	1	10
632.653	1	4
632.993	1	17
633.332	1	11
633.671	1	9
634.010	1	6
634.349	1	12
634.689	1	7
635.028	1	11
635.367	1	22
635.706	1	9
636.045	1	5
636.384	1	18
636.724	1	10
637.063	1	-3
637.402	1	13
637.741	1	5
638.080	1	15
638.419	1	7
638.759	1	14
639.098	1	3
639.437	1	10
639.776	1	7
640.115	1	6
640.454	1	4
640.793	1	10
641.132	1	17
641.472	1	18
641.811	1	6
642.150	1	2
642.489	1	12
642.828	1	17
643.167	1	8
643.506	1	13
643.845	1	9
644.184	1	5
644.524	1	7
644.863	1	5
645.202	1	0
645.541	1	9
645.880	1	16
646.219	1	14
646.558	1	1
646.897	1	-9
647.236	1	4
647.575	1	7
647.914	1	-1
648.253	1	10
648.592	1	5
648.931	1	12
649.270	1	12
649.610	1	13
649.949	1	3
650.288	1	13
650.627	1	0
650.966	1	5
651.305	1	10
651.644	1	10
651.983	1	-1
652.322	1	1
652.661	1	15
653.000	1	11
653.339	1	11
653.678	1	11
654.017	1	13
654.356	1	13
654.695	1	11
655.034	1	1
655.373	1	5
655.712	1	18
656.051	1	2
656.390	1	3
656.729	1	14
657.068	1	7
657.406	1	1
657.745	1	18
658.084	1	16
658.423	1	19
658.762	1	1
659.101	1	2
659.440	1	10
659.779	1	17
660.118	1	4
660.457	1	4
660.796	1	9
661.135	1	15
661.474	1	14
661.813	1	3
662.152	1	5
662.491	1	2
662.829	1	17
663.168	1	8
663.507	1	12
663.846	1	6
664.185	1	6
664.524	1	8
664.863	1	3
665.202	1	4
665.541	1	6
665.879	1	10
666.218	1	11
666.557	1	4
666.896	1	4
667.235	1	0
667.574	1	-6
667.913	1	9
668.251	1	3
668.590	1	3
668.929	1	1
669.268	1	0
669.607	1	-3
669.946	1	11
670.285	1	11
670.623	1	6
670.962	1	4
671.301	1	8
671.640	1	14
671.979	1	5
672.317	1	10
672.656	1	8
672.995	1	12
673.334	1	3
673.673	1	14
674.011	1	18
674.350	1	10
674.689	1	-5
675.028	1	17
675.367	1	11
675.705	1	0
676.044	1	12
676.383	1	2
676.722	1	12
677.060	1	10
677.399	1	22
677.738	1	12
678.077	1	12
678.416	1	3
678.754	1	4
679.093	1	15
679.432	1	-2
679.771	1	3
680.109	1	4
680.448	1	11
680.787	1	2
681.125	1	2
681.464	1	12
681.803	1	2
682.142	1	13
682.480	1	1
682.819	1	0
683.158	1	3
683.496	1	5
683.835	1	11
684.174	1	13
684.512	1	-1
684.851	1	6
685.190	1	6
685.529	1	9
685.867	1	4
686.206	1	4
686.545	1	3
686.883	1	11
687.222	1	3
687.561	1	7
687.899	1	7
688.238	1	16
688.577	1	15
688.746	1	12