File: Data/GaN_150K_450ms/GaN_sample D_spot15_UVVIS_150 K_200um_450 ms 2x2mm1_203.txt
340.368	1	-1
340.710	1	4
341.052	1	1
341.394	1	-9
341.737	1	3
342.079	1	2
342.421	1	0
342.763	1	1
343.105	1	2
343.447	1	4
343.789	1	0
344.131	1	-9
344.473	1	3
344.815	1	5
345.157	1	10
345.499	1	8
345.841	1	3
346.183	1	-5
346.526	1	3
346.868	1	-3
347.210	1	-1
347.552	1	13
347.894	1	-7
348.236	1	1
348.578	1	13
348.920	1	3
349.262	1	9
349.604	1	6
349.946	1	0
350.288	1	3
350.630	1	-4
350.972	1	7
351.314	1	2
351.656	1	4
351.998	1	2
352.340	1	6
352.682	1	-12
353.024	1	9
353.366	1	-1
353.708	1	6
354.050	1	-5
354.392	1	2
354.734	1	5
355.076	1	12
355.418	1	-1
355.760	1	8
356.102	1	3
356.444	1	10
356.785	1	13
357.127	1	10
357.469	1	2
357.811	1	-1
358.153	1	-4
358.495	1	-2
358.837	1	16
359.179	1	7
359.521	1	10
359.863	1	3
360.205	1	12
360.547	1	15
360.889	1	6
361.231	1	4
361.572	1	18
361.914	1	11
362.256	1	23
362.598	1	11
362.940	1	12
363.282	1	7
363.624	1	9
363.966	1	8
364.308	1	19
364.649	1	15
364.991	1	9
365.333	1	15
365.675	1	28
366.017	1	25
366.359	1	5
366.701	1	17
367.042	1	18
367.384	1	27
367.726	1	18
368.068	1	20
368.410	1	29
368.752	1	28
369.093	1	31
369.435	1	26
369.777	1	21
370.119	1	26
370.461	1	20
370.803	1	12
371.144	1	18
371.486	1	20
371.828	1	15
372.170	1	21
372.512	1	8
372.853	1	8
373.195	1	17
373.537	1	5
373.879	1	20
374.220	1	17
374.562	1	21
374.904	1	11
375.246	1	16
375.588	1	10
375.929	1	13
376.271	1	10
376.613	1	20
376.955	1	23
377.296	1	10
377.638	1	8
377.980	1	8
378.321	1	14
378.663	1	4
379.005	1	9
379.347	1	5
379.688	1	16
380.030	1	8
380.372	1	16
380.714	1	4
381.055	1	8
381.397	1	10
381.739	1	6
382.080	1	4
382.422	1	7
382.764	1	8
383.105	1	1
383.447	1	6
383.789	1	7
384.130	1	2
384.472	1	1
384.814	1	11
385.156	1	8
385.497	1	14
385.839	1	7
386.180	1	8
386.522	1	13
386.864	1	-7
387.205	1	14
387.547	1	17
387.889	1	14
388.230	1	2
388.572	1	-3
388.914	1	8
389.255	1	5
389.597	1	3
389.939	1	10
390.280	1	-6
390.622	1	-9
390.963	1	2
391.305	1	-2
391.647	1	6
391.988	1	6
392.330	1	2
392.671	1	6
393.013	1	12
393.355	1	11
393.696	1	14
394.038	1	8
394.379	1	12
394.721	1	0
395.062	1	4
395.404	1	6
395.746	1	5
396.087	1	4
396.429	1	10
396.770	1	9
397.112	1	2
397.453	1	5
397.795	1	0
398.136	1	1
398.478	1	2
398.819	1	10
399.161	1	14
399.503	1	16
399.844	1	-3
400.186	1	1
400.527	1	12
400.869	1	8
401.210	1	5
401.552	1	1
401.893	1	11
402.235	1	6
402.576	1	8
402.918	1	1
403.259	1	6
403.601	1	6
403.942	1	1
404.284	1	17
404.625	1	-2
404.967	1	8
405.308	1	-8
405.649	1	0
405.991	1	2
406.332	1	8
406.674	1	6
407.015	1	13
407.357	1	2
407.698	1	8
408.040	1	13
408.381	1	3
408.722	1	11
409.064	1	13
409.405	1	3
409.747	1	-1
410.088	1	17
410.430	1	14
410.771	1	9
411.112	1	3
411.454	1	2
411.795	1	4
412.137	1	7
412.478	1	8
412.819	1	6
413.161	1	0
413.502	1	6
413.844	1	9
414.185	1	6
414.526	1	-1
414.868	1	6
415.209	1	2
415.550	1	1
415.892	1	12
416.233	1	11
416.575	1	8
416.916	1	-6
417.257	1	-1
417.599	1	4
417.940	1	-5
418.281	1	13
418.623	1	-5
418.964	1	26
419.305	1	7
419.647	1	13
419.988	1	9
420.329	1	15
420.671	1	23
421.012	1	10
421.353	1	15
421.695	1	-1
422.036	1	18
422.377	1	10
422.718	1	8
423.060	1	10
423.401	1	7
423.742	1	16
424.084	1	11
424.425	1	14
424.766	1	4
425.107	1	5
425.449	1	7
425.790	1	4
426.131	1	2
426.472	1	13
426.814	1	2
427.155	1	4
427.496	1	12
427.837	1	2
428.179	1	21
428.520	1	9
428.861	1	6
429.202	1	1
429.544	1	3
429.885	1	14
430.226	1	-11
430.567	1	-6
430.909	1	2
431.250	1	12
431.591	1	12
431.932	1	10
432.273	1	12
432.615	1	-7
432.956	1	6
433.297	1	9
433.638	1	13
433.979	1	7
434.320	1	6
434.662	1	15
435.003	1	5
435.344	1	6
435.685	1	-6
436.026	1	4
436.368	1	1
436.709	1	6
437.050	1	-5
437.391	1	6
437.732	1	13
438.073	1	-1
438.414	1	0
438.756	1	4
439.097	1	6
439.438	1	2
439.779	1	2
440.120	1	-3
440.461	1	12
440.802	1	7
441.143	1	3
441.485	1	9
441.826	1	10
442.167	1	7
442.508	1	6
442.849	1	14
443.190	1	10
443.531	1	2
443.872	1	-1
444.213	1	-6
444.554	1	12
444.895	1	0
445.237	1	9
445.578	1	5
445.919	1	8
446.260	1	8
446.601	1	4
446.942	1	0
447.283	1	1
447.624	1	-4
447.965	1	7
448.306	1	5
448.647	1	2
448.988	1	7
449.329	1	7
449.670	1	8
450.011	1	4
450.352	1	1
450.693	1	11
451.034	1	5
451.375	1	0
451.716	1	5
452.057	1	7
452.398	1	11
452.739	1	10
453.080	1	5
453.421	1	9
453.762	1	6
454.103	1	2
454.444	1	11
454.785	1	5
455.126	1	1
455.467	1	10
455.808	1	14
456.149	1	-2
456.490	1	4
456.831	1	4
457.172	1	7
457.513	1	5
457.854	1	0
458.195	1	1
458.536	1	2
458.877	1	1
459.218	1	13
459.559	1	3
459.899	1	3
460.240	1	2
460.581	1	-5
460.922	1	-2
461.263	1	9
461.604	1	2
461.945	1	9
462.286	1	0
462.627	1	-2
462.968	1	8
463.309	1	1
463.649	1	3
463.990	1	-1
464.331	1	3
464.672	1	2
465.013	1	7
465.354	1	12
465.695	1	1
466.036	1	9
466.376	1	18
466.717	1	-6
467.058	1	8
467.399	1	3
467.740	1	10
468.081	1	2
468.422	1	6
468.762	1	4
469.103	1	-3
469.444	1	2
469.785	1	-1
470.126	1	7
470.467	1	3
470.807	1	8
471.148	1	4
471.489	1	11
471.830	1	5
472.171	1	15
472.511	1	8
472.852	1	14
473.193	1	8
473.534	1	11
473.875	1	7
474.215	1	2
474.556	1	-4
474.897	1	-3
475.238	1	9
475.578	1	6
475.919	1	-1
476.260	1	-3
476.601	1	3
476.942	1	-1
477.282	1	-7
477.623	1	4
477.964	1	7
478.305	1	3
478.645	1	11
478.986	1	5
479.327	1	4
479.667	1	0
480.008	1	5
480.349	1	5
480.690	1	6
481.030	1	6
481.371	1	-11
481.712	1	18
482.053	1	14
482.393	1	2
482.734	1	2
483.075	1	-3
483.415	1	2
483.756	1	5
484.097	1	9
484.437	1	0
484.778	1	-4
485.119	1	7
485.459	1	10
485.800	1	6
486.141	1	2
486.481	1	-16
486.822	1	4
487.163	1	4
487.503	1	6
487.844	1	-2
488.185	1	7
488.525	1	-5
488.866	1	-1
489.207	1	-2
489.547	1	7
489.888	1	6
490.228	1	7
490.569	1	0
490.910	1	16
491.250	1	1
491.591	1	4
491.932	1	12
492.272	1	0
492.613	1	-5
492.953	1	6
493.294	1	-8
493.635	1	11
493.975	1	12
494.316	1	-3
494.656	1	1
494.997	1	-5
495.337	1	5
495.678	1	1
496.019	1	5
496.359	1	-2
496.700	1	-2
497.040	1	-2
497.381	1	5
497.721	1	1
498.062	1	-1
498.403	1	7
498.743	1	5
499.084	1	3
499.424	1	6
499.765	1	6
500.105	1	6
500.446	1	-7
500.786	1	-1
501.127	1	8
501.467	1	14
501.808	1	6
502.148	1	-3
502.489	1	-3
502.829	1	4
503.170	1	7
503.510	1	1
503.851	1	16
504.191	1	-1
504.532	1	3
504.872	1	-4
505.213	1	3
505.553	1	3
505.894	1	7
506.234	1	8
506.575	1	6
506.915	1	5
507.256	1	3
507.596	1	12
507.936	1	16
508.277	1	0
508.617	1	7
508.958	1	16
509.298	1	-2
509.639	1	-8
509.979	1	6
510.319	1	6
510.660	1	-4
511.000	1	12
511.341	1	11
511.681	1	10
512.022	1	0
512.362	1	12
512.702	1	-7
513.043	1	2
513.383	1	3
513.724	1	9
514.064	1	18
514.404	1	11
514.745	1	5
515.085	1	5
515.425	1	5
515.766	1	3
516.106	1	1
516.447	1	7
516.787	1	8
517.127	1	8
517.468	1	16
517.808	1	-3
518.148	1	11
518.489	1	8
518.829	1	8
519.169	1	-11
519.510	1	0
519.850	1	12
520.190	1	4
520.531	1	10
520.871	1	18
521.211	1	13
521.552	1	9
521.892	1	9
522.232	1	8
522.573	1	10
522.913	1	6
523.253	1	7
523.593	1	8
523.934	1	4
524.274	1	4
524.614	1	8
524.955	1	-2
525.295	1	10
525.635	1	4
525.975	1	-9
526.316	1	-3
526.656	1	4
526.996	1	7
527.337	1	1
527.677	1	22
528.017	1	-5
528.357	1	6
528.698	1	19
529.038	1	9
529.378	1	1
529.718	1	8
530.058	1	9
530.399	1	6
530.739	1	6
531.079	1	3
531.419	1	2
531.760	1	11
532.100	1	13
532.440	1	5
532.780	1	14
533.120	1	6
533.461	1	7
533.801	1	5
534.141	1	8
534.481	1	17
534.821	1	5
535.162	1	13
535.502	1	3
535.842	1	0
536.182	1	10
536.522	1	2
536.862	1	2
537.203	1	2
537.543	1	4
537.883	1	5
538.223	1	12
538.563	1	5
538.903	1	0
539.243	1	3
539.584	1	6
539.924	1	4
540.264	1	27
540.604	1	11
540.944	1	7
541.284	1	2
541.624	1	0
541.964	1	7
542.305	1	20
542.645	1	2
542.985	1	1
543.325	1	6
543.665	1	0
544.005	1	3
544.345	1	16
544.685	1	9
545.025	1	10
545.365	1	13
545.705	1	12
546.045	1	4
546.386	1	9
546.726	1	2
547.066	1	2
547.406	1	-6
547.746	1	6
548.086	1	2
548.426	1	3
548.766	1	8
549.106	1	-3
549.446	1	16
549.786	1	2
550.126	1	14
550.466	1	5
550.806	1	14
551.146	1	11
551.486	1	1
551.826	1	-2
552.166	1	2
552.506	1	-5
552.846	1	5
553.186	1	5
553.526	1	8
553.866	1	5
554.206	1	10
554.546	1	12
554.886	1	3
555.226	1	5
555.566	1	5
555.906	1	3
556.246	1	18
556.586	1	14
556.926	1	6
557.266	1	12
557.606	1	-4
557.946	1	7
558.286	1	-8
558.626	1	3
558.966	1	13
559.306	1	7
559.646	1	7
559.986	1	10
560.325	1	0
560.665	1	0
561.005	1	4
561.345	1	2
561.685	1	9
562.025	1	6
562.365	1	6
562.705	1	13
563.045	1	8
563.385	1	7
563.725	1	3
564.064	1	4
564.404	1	-3
564.744	1	15
565.084	1	1
565.424	1	-6
565.764	1	8
566.104	1	14
566.444	1	17
566.783	1	10
567.123	1	5
567.463	1	8
567.803	1	4
568.143	1	4
568.483	1	6
568.823	1	-1
569.162	1	-4
569.502	1	4
569.842	1	14
570.182	1	-4
570.522	1	4
570.862	1	-6
571.201	1	10
571.541	1	2
571.881	1	-4
572.221	1	10
572.561	1	10
572.900	1	12
573.240	1	-1
573.580	1	12
573.920	1	11
574.260	1	7
574.599	1	2
574.939	1	-7
575.279	1	-6
575.619	1	-2
575.959	1	-5
576.298	1	2
576.638	1	7
576.978	1	5
577.318	1	4
577.657	1	3
577.997	1	9
578.337	1	3
578.677	1	1
579.016	1	-1
579.356	1	4
579.696	1	2
580.036	1	1
580.375	1	8
580.715	1	3
581.055	1	3
581.394	1	3
581.734	1	0
582.074	1	3
582.414	1	2
582.753	1	5
583.093	1	6
583.433	1	11
583.772	1	9
584.112	1	8
584.452	1	-2
584.791	1	11
585.131	1	8
585.471	1	11
585.811	1	7
586.150	1	3
586.490	1	7
586.830	1	1
587.169	1	6
587.509	1	3
587.849	1	9
588.188	1	8
588.528	1	-6
588.867	1	10
589.207	1	11
589.547	1	8
589.886	1	7
590.226	1	8
590.566	1	8
590.905	1	0
591.245	1	-11
591.585	1	8
591.924	1	6
592.264	1	3
592.603	1	-12
592.943	1	2
593.283	1	6
593.622	1	0
593.962	1	11
594.301	1	0
594.641	1	0
594.981	1	8
595.320	1	7
595.660	1	7
595.999	1	3
596.339	1	13
596.678	1	-1
597.018	1	-1
597.358	1	0
597.697	1	-9
598.037	1	-2
598.376	1	-12
598.716	1	11
599.055	1	10
599.395	1	2
599.734	1	5
600.074	1	2
600.413	1	5
600.753	1	10
601.092	1	-11
601.432	1	-8
601.771	1	9
602.111	1	9
602.451	1	3
602.790	1	2
603.130	1	5
603.469	1	-3
603.809	1	7
604.148	1	-6
604.487	1	-1
604.827	1	7
605.166	1	12
605.506	1	-4
605.845	1	9
606.185	1	-1
606.524	1	-1
606.864	1	11
607.203	1	-4
607.543	1	7
607.882	1	4
608.222	1	-2
608.561	1	-1
608.901	1	10
609.240	1	5
609.579	1	-4
609.919	1	-5
610.258	1	18
610.598	1	2
610.937	1	-3
611.277	1	3
611.616	1	9
611.955	1	0
612.295	1	5
612.634	1	-1
612.974	1	1
613.313	1	4
613.652	1	13
613.992	1	-8
614.331	1	10
614.671	1	-1
615.010	1	0
615.349	1	9
615.689	1	-8
616.028	1	16
616.368	1	10
616.707	1	10
617.046	1	6
617.386	1	15
617.725	1	-3
618.064	1	6
618.404	1	-4
618.743	1	11
619.082	1	7
619.422	1	21
619.761	1	-3
620.100	1	1
620.440	1	12
620.779	1	6
621.118	1	14
621.458	1	8
621.797	1	7
622.136	1	13
622.476	1	9
622.815	1	5
623.154	1	-3
623.494	1	-4
623.833	1	12
624.172	1	-1
624.511	1	3
624.851	1	2
625.190	1	1
625.529	1	-3
625.869	1	16
626.208	1	-6
626.547	1	-5
626.886	1	-6
627.226	1	3
627.565	1	1
627.904	1	0
628.243	1	6
628.583	1	7
628.922	1	14
629.261	1	4
629.600	1	5
629.940	1	-4
630.279	1	4
630.618	1	13
630.957	1	7
631.297	1	0
631.636	1	-2
631.975	1	-2
632.314	1	6
632.653	1	4
632.993	1	7
633.332	1	9
633.671	1	3
634.010	1	6
634.349	1	11
634.689	1	2
635.028	1	-3
635.367	1	5
635.706	1	-1
636.045	1	0
636.384	1	16
636.724	1	5
637.063	1	-6
637.402	1	6
637.741	1	-5
638.080	1	5
638.419	1	-12
638.759	1	5
639.098	1	4
639.437	1	6
639.776	1	7
640.115	1	4
640.454	1	-4
640.793	1	3
641.132	1	7
641.472	1	11
641.811	1	-3
642.150	1	-2
642.489	1	8
642.828	1	15
643.167	1	3
643.506	1	-13
643.845	1	12
644.184	1	3
644.524	1	0
644.863	1	8
645.202	1	7
645.541	1	1
645.880	1	-1
646.219	1	2
646.558	1	-9
646.897	1	-7
647.236	1	-9
647.575	1	1
647.914	1	1
648.253	1	21
648.592	1	9
648.931	1	1
649.270	1	7
649.610	1	4
649.949	1	4
650.288	1	7
650.627	1	3
650.966	1	4
651.305	1	-1
651.644	1	8
651.983	1	-3
652.322	1	1
652.661	1	7
653.000	1	-4
653.339	1	0
653.678	1	12
654.017	1	13
654.356	1	8
654.695	1	20
655.034	1	-3
655.373	1	13
655.712	1	12
656.051	1	-4
656.390	1	2
656.729	1	7
657.068	1	5
657.406	1	-3
657.745	1	13
658.084	1	12
658.423	1	14
658.762	1	-14
659.101	1	4
659.440	1	0
659.779	1	8
660.118	1	-7
660.457	1	7
660.796	1	3
661.135	1	3
661.474	1	4
661.813	1	-1
662.152	1	-8
662.491	1	-6
662.829	1	2
663.168	1	9
663.507	1	1
663.846	1	-3
664.185	1	2
664.524	1	14
664.863	1	-10
665.202	1	3
665.541	1	-1
665.879	1	-2
666.218	1	9
666.557	1	-2
666.896	1	16
667.235	1	-1
667.574	1	3
667.913	1	10
668.251	1	-6
668.590	1	15
668.929	1	0
669.268	1	-4
669.607	1	-4
669.946	1	3
670.285	1	-3
670.623	1	8
670.962	1	-13
671.301	1	3
671.640	1	-1
671.979	1	2
672.317	1	4
672.656	1	11
672.995	1	6
673.334	1	2
673.673	1	16
674.011	1	5
674.350	1	4
674.689	1	-13
675.028	1	3
675.367	1	6
675.705	1	-1
676.044	1	4
676.383	1	-8
676.722	1	-6
677.060	1	16
677.399	1	17
677.738	1	6
678.077	1	-6
678.416	1	-3
678.754	1	4
679.093	1	13
679.432	1	-12
679.771	1	4
680.109	1	1
680.448	1	-1
680.787	1	-7
681.125	1	-1
681.464	1	8
681.803	1	2
682.142	1	4
682.480	1	-6
682.819	1	-3
683.158	1	0
683.496	1	6
683.835	1	13
684.174	1	3
684.512	1	-7
684.851	1	5
685.190	1	4
685.529	1	5
685.867	1	-3
686.206	1	-7
686.545	1	2
686.883	1	2
687.222	1	-7
687.561	1	-1
687.899	1	9
688.238	1	9
688.577	1	-3
688.746	1	-7