File: Data/GaN_150K_450ms/GaN_sample D_spot15_UVVIS_150 K_200um_450 ms 2x2mm1_50.txt
340.368	1	5
340.710	1	7
341.052	1	19
341.394	1	-6
341.737	1	13
342.079	1	3
342.421	1	-6
342.763	1	2
343.105	1	9
343.447	1	-2
343.789	1	7
344.131	1	-5
344.473	1	-1
344.815	1	7
345.157	1	10
345.499	1	9
345.841	1	17
346.183	1	8
346.526	1	13
346.868	1	2
347.210	1	7
347.552	1	26
347.894	1	5
348.236	1	13
348.578	1	14
348.920	1	11
349.262	1	5
349.604	1	3
349.946	1	9
350.288	1	4
350.630	1	11
350.972	1	18
351.314	1	17
351.656	1	21
351.998	1	13
352.340	1	24
352.682	1	8
353.024	1	31
353.366	1	20
353.708	1	17
354.050	1	16
354.392	1	15
354.734	1	34
355.076	1	45
355.418	1	33
355.760	1	32
356.102	1	33
356.444	1	45
356.785	1	46
357.127	1	53
357.469	1	42
357.811	1	46
358.153	1	49
358.495	1	56
358.837	1	71
359.179	1	71
359.521	1	80
359.863	1	72
360.205	1	99
360.547	1	105
360.889	1	108
361.231	1	143
361.572	1	168
361.914	1	177
362.256	1	222
362.598	1	242
362.940	1	287
363.282	1	317
363.624	1	400
363.966	1	439
364.308	1	538
364.649	1	630
364.991	1	726
365.333	1	829
365.675	1	971
366.017	1	1131
366.359	1	1296
366.701	1	1410
367.042	1	1542
367.384	1	1636
367.726	1	1723
368.068	1	1767
368.410	1	1768
368.752	1	1732
369.093	1	1683
369.435	1	1610
369.777	1	1512
370.119	1	1386
370.461	1	1261
370.803	1	1159
371.144	1	1053
371.486	1	1000
371.828	1	894
372.170	1	834
372.512	1	754
372.853	1	742
373.195	1	696
373.537	1	653
373.879	1	614
374.220	1	575
374.562	1	565
374.904	1	520
375.246	1	477
375.588	1	452
375.929	1	430
376.271	1	399
376.613	1	376
376.955	1	349
377.296	1	347
377.638	1	309
377.980	1	321
378.321	1	289
378.663	1	276
379.005	1	258
379.347	1	257
379.688	1	265
380.030	1	257
380.372	1	246
380.714	1	238
381.055	1	254
381.397	1	250
381.739	1	228
382.080	1	242
382.422	1	264
382.764	1	285
383.105	1	275
383.447	1	286
383.789	1	319
384.130	1	324
384.472	1	335
384.814	1	345
385.156	1	353
385.497	1	368
385.839	1	361
386.180	1	357
386.522	1	350
386.864	1	332
387.205	1	321
387.547	1	324
387.889	1	311
388.230	1	299
388.572	1	307
388.914	1	302
389.255	1	299
389.597	1	303
389.939	1	300
390.280	1	300
390.622	1	291
390.963	1	285
391.305	1	292
391.647	1	281
391.988	1	284
392.330	1	257
392.671	1	261
393.013	1	254
393.355	1	248
393.696	1	242
394.038	1	224
394.379	1	251
394.721	1	241
395.062	1	250
395.404	1	249
395.746	1	248
396.087	1	281
396.429	1	270
396.770	1	265
397.112	1	280
397.453	1	254
397.795	1	262
398.136	1	270
398.478	1	255
398.819	1	264
399.161	1	257
399.503	1	236
399.844	1	217
400.186	1	216
400.527	1	219
400.869	1	203
401.210	1	214
401.552	1	209
401.893	1	179
402.235	1	182
402.576	1	176
402.918	1	173
403.259	1	183
403.601	1	173
403.942	1	171
404.284	1	193
404.625	1	165
404.967	1	161
405.308	1	162
405.649	1	174
405.991	1	164
406.332	1	177
406.674	1	169
407.015	1	156
407.357	1	156
407.698	1	163
408.040	1	168
408.381	1	142
408.722	1	163
409.064	1	150
409.405	1	138
409.747	1	132
410.088	1	151
410.430	1	144
410.771	1	143
411.112	1	127
411.454	1	134
411.795	1	134
412.137	1	125
412.478	1	128
412.819	1	122
413.161	1	108
413.502	1	110
413.844	1	111
414.185	1	112
414.526	1	99
414.868	1	105
415.209	1	103
415.550	1	111
415.892	1	111
416.233	1	107
416.575	1	106
416.916	1	104
417.257	1	119
417.599	1	107
417.940	1	104
418.281	1	111
418.623	1	103
418.964	1	116
419.305	1	112
419.647	1	89
419.988	1	113
420.329	1	103
420.671	1	96
421.012	1	88
421.353	1	99
421.695	1	78
422.036	1	75
422.377	1	78
422.718	1	83
423.060	1	88
423.401	1	78
423.742	1	86
424.084	1	78
424.425	1	78
424.766	1	71
425.107	1	79
425.449	1	76
425.790	1	72
426.131	1	71
426.472	1	78
426.814	1	71
427.155	1	67
427.496	1	71
427.837	1	66
428.179	1	89
428.520	1	68
428.861	1	72
429.202	1	59
429.544	1	68
429.885	1	73
430.226	1	54
430.567	1	64
430.909	1	59
431.250	1	70
431.591	1	67
431.932	1	57
432.273	1	68
432.615	1	56
432.956	1	54
433.297	1	55
433.638	1	69
433.979	1	68
434.320	1	71
434.662	1	52
435.003	1	61
435.344	1	50
435.685	1	55
436.026	1	56
436.368	1	56
436.709	1	50
437.050	1	47
437.391	1	54
437.732	1	58
438.073	1	54
438.414	1	50
438.756	1	48
439.097	1	50
439.438	1	48
439.779	1	45
440.120	1	41
440.461	1	54
440.802	1	50
441.143	1	60
441.485	1	47
441.826	1	53
442.167	1	53
442.508	1	45
442.849	1	45
443.190	1	59
443.531	1	39
443.872	1	40
444.213	1	39
444.554	1	37
444.895	1	40
445.237	1	43
445.578	1	47
445.919	1	51
446.260	1	56
446.601	1	55
446.942	1	44
447.283	1	52
447.624	1	39
447.965	1	50
448.306	1	49
448.647	1	39
448.988	1	46
449.329	1	58
449.670	1	40
450.011	1	44
450.352	1	40
450.693	1	50
451.034	1	44
451.375	1	39
451.716	1	38
452.057	1	40
452.398	1	49
452.739	1	43
453.080	1	49
453.421	1	45
453.762	1	44
454.103	1	48
454.444	1	49
454.785	1	40
455.126	1	40
455.467	1	47
455.808	1	47
456.149	1	49
456.490	1	41
456.831	1	42
457.172	1	44
457.513	1	34
457.854	1	41
458.195	1	40
458.536	1	42
458.877	1	47
459.218	1	48
459.559	1	36
459.899	1	29
460.240	1	34
460.581	1	36
460.922	1	34
461.263	1	50
461.604	1	39
461.945	1	39
462.286	1	34
462.627	1	35
462.968	1	40
463.309	1	41
463.649	1	31
463.990	1	41
464.331	1	49
464.672	1	46
465.013	1	50
465.354	1	47
465.695	1	41
466.036	1	48
466.376	1	50
466.717	1	25
467.058	1	35
467.399	1	33
467.740	1	45
468.081	1	41
468.422	1	37
468.762	1	49
469.103	1	35
469.444	1	44
469.785	1	32
470.126	1	38
470.467	1	43
470.807	1	45
471.148	1	41
471.489	1	42
471.830	1	47
472.171	1	51
472.511	1	45
472.852	1	45
473.193	1	41
473.534	1	52
473.875	1	36
474.215	1	40
474.556	1	29
474.897	1	42
475.238	1	51
475.578	1	43
475.919	1	44
476.260	1	36
476.601	1	45
476.942	1	44
477.282	1	40
477.623	1	40
477.964	1	52
478.305	1	50
478.645	1	46
478.986	1	50
479.327	1	44
479.667	1	41
480.008	1	54
480.349	1	50
480.690	1	47
481.030	1	43
481.371	1	45
481.712	1	52
482.053	1	56
482.393	1	50
482.734	1	59
483.075	1	65
483.415	1	54
483.756	1	54
484.097	1	49
484.437	1	62
484.778	1	59
485.119	1	57
485.459	1	56
485.800	1	64
486.141	1	65
486.481	1	42
486.822	1	76
487.163	1	68
487.503	1	60
487.844	1	63
488.185	1	75
488.525	1	76
488.866	1	65
489.207	1	90
489.547	1	87
489.888	1	82
490.228	1	79
490.569	1	79
490.910	1	77
491.250	1	85
491.591	1	87
491.932	1	88
492.272	1	79
492.613	1	98
492.953	1	87
493.294	1	92
493.635	1	99
493.975	1	117
494.316	1	93
494.656	1	111
494.997	1	94
495.337	1	103
495.678	1	100
496.019	1	92
496.359	1	92
496.700	1	106
497.040	1	105
497.381	1	108
497.721	1	105
498.062	1	109
498.403	1	114
498.743	1	122
499.084	1	122
499.424	1	125
499.765	1	120
500.105	1	136
500.446	1	134
500.786	1	125
501.127	1	138
501.467	1	150
501.808	1	147
502.148	1	138
502.489	1	160
502.829	1	148
503.170	1	169
503.510	1	161
503.851	1	177
504.191	1	165
504.532	1	191
504.872	1	168
505.213	1	186
505.553	1	160
505.894	1	184
506.234	1	183
506.575	1	190
506.915	1	183
507.256	1	197
507.596	1	193
507.936	1	208
508.277	1	187
508.617	1	196
508.958	1	210
509.298	1	194
509.639	1	193
509.979	1	184
510.319	1	199
510.660	1	195
511.000	1	203
511.341	1	214
511.681	1	201
512.022	1	195
512.362	1	211
512.702	1	202
513.043	1	211
513.383	1	228
513.724	1	214
514.064	1	206
514.404	1	229
514.745	1	217
515.085	1	242
515.425	1	240
515.766	1	243
516.106	1	241
516.447	1	238
516.787	1	235
517.127	1	236
517.468	1	255
517.808	1	251
518.148	1	257
518.489	1	245
518.829	1	266
519.169	1	251
519.510	1	260
519.850	1	261
520.190	1	260
520.531	1	267
520.871	1	264
521.211	1	255
521.552	1	270
521.892	1	264
522.232	1	268
522.573	1	271
522.913	1	277
523.253	1	266
523.593	1	272
523.934	1	272
524.274	1	278
524.614	1	283
524.955	1	277
525.295	1	266
525.635	1	274
525.975	1	266
526.316	1	281
526.656	1	280
526.996	1	288
527.337	1	313
527.677	1	310
528.017	1	291
528.357	1	306
528.698	1	308
529.038	1	300
529.378	1	307
529.718	1	315
530.058	1	320
530.399	1	302
530.739	1	314
531.079	1	328
531.419	1	340
531.760	1	331
532.100	1	330
532.440	1	329
532.780	1	342
533.120	1	321
533.461	1	311
533.801	1	316
534.141	1	308
534.481	1	330
534.821	1	306
535.162	1	306
535.502	1	314
535.842	1	309
536.182	1	299
536.522	1	295
536.862	1	301
537.203	1	309
537.543	1	300
537.883	1	299
538.223	1	298
538.563	1	291
538.903	1	294
539.243	1	293
539.584	1	282
539.924	1	287
540.264	1	290
540.604	1	304
540.944	1	290
541.284	1	279
541.624	1	292
541.964	1	291
542.305	1	305
542.645	1	283
542.985	1	289
543.325	1	301
543.665	1	290
544.005	1	290
544.345	1	304
544.685	1	304
545.025	1	307
545.365	1	307
545.705	1	302
546.045	1	311
546.386	1	296
546.726	1	315
547.066	1	320
547.406	1	311
547.746	1	312
548.086	1	312
548.426	1	309
548.766	1	316
549.106	1	323
549.446	1	319
549.786	1	318
550.126	1	340
550.466	1	318
550.806	1	343
551.146	1	319
551.486	1	340
551.826	1	307
552.166	1	326
552.506	1	307
552.846	1	310
553.186	1	307
553.526	1	307
553.866	1	298
554.206	1	298
554.546	1	306
554.886	1	294
555.226	1	291
555.566	1	300
555.906	1	293
556.246	1	273
556.586	1	282
556.926	1	294
557.266	1	286
557.606	1	278
557.946	1	287
558.286	1	262
558.626	1	284
558.966	1	276
559.306	1	268
559.646	1	293
559.986	1	277
560.325	1	281
560.665	1	283
561.005	1	268
561.345	1	267
561.685	1	263
562.025	1	278
562.365	1	260
562.705	1	285
563.045	1	287
563.385	1	273
563.725	1	256
564.064	1	261
564.404	1	264
564.744	1	286
565.084	1	272
565.424	1	278
565.764	1	264
566.104	1	274
566.444	1	265
566.783	1	251
567.123	1	263
567.463	1	253
567.803	1	272
568.143	1	268
568.483	1	266
568.823	1	254
569.162	1	251
569.502	1	248
569.842	1	265
570.182	1	261
570.522	1	236
570.862	1	250
571.201	1	273
571.541	1	247
571.881	1	244
572.221	1	255
572.561	1	259
572.900	1	239
573.240	1	235
573.580	1	235
573.920	1	247
574.260	1	249
574.599	1	232
574.939	1	236
575.279	1	235
575.619	1	242
575.959	1	250
576.298	1	234
576.638	1	251
576.978	1	239
577.318	1	248
577.657	1	231
577.997	1	242
578.337	1	240
578.677	1	235
579.016	1	236
579.356	1	251
579.696	1	235
580.036	1	229
580.375	1	245
580.715	1	248
581.055	1	222
581.394	1	245
581.734	1	244
582.074	1	245
582.414	1	239
582.753	1	243
583.093	1	239
583.433	1	232
583.772	1	237
584.112	1	238
584.452	1	247
584.791	1	222
585.131	1	240
585.471	1	238
585.811	1	216
586.150	1	217
586.490	1	232
586.830	1	217
587.169	1	220
587.509	1	214
587.849	1	231
588.188	1	220
588.528	1	209
588.867	1	212
589.207	1	227
589.547	1	198
589.886	1	209
590.226	1	203
590.566	1	195
590.905	1	187
591.245	1	193
591.585	1	191
591.924	1	193
592.264	1	200
592.603	1	184
592.943	1	203
593.283	1	188
593.622	1	182
593.962	1	184
594.301	1	180
594.641	1	187
594.981	1	186
595.320	1	205
595.660	1	199
595.999	1	171
596.339	1	190
596.678	1	165
597.018	1	171
597.358	1	190
597.697	1	175
598.037	1	190
598.376	1	180
598.716	1	185
599.055	1	196
599.395	1	180
599.734	1	183
600.074	1	183
600.413	1	183
600.753	1	200
601.092	1	179
601.432	1	181
601.771	1	205
602.111	1	197
602.451	1	191
602.790	1	184
603.130	1	192
603.469	1	192
603.809	1	189
604.148	1	170
604.487	1	191
604.827	1	183
605.166	1	193
605.506	1	176
605.845	1	191
606.185	1	182
606.524	1	192
606.864	1	186
607.203	1	198
607.543	1	190
607.882	1	199
608.222	1	190
608.561	1	186
608.901	1	190
609.240	1	187
609.579	1	179
609.919	1	178
610.258	1	188
610.598	1	164
610.937	1	174
611.277	1	165
611.616	1	184
611.955	1	171
612.295	1	168
612.634	1	169
612.974	1	162
613.313	1	177
613.652	1	171
613.992	1	158
614.331	1	169
614.671	1	171
615.010	1	151
615.349	1	151
615.689	1	144
616.028	1	154
616.368	1	164
616.707	1	144
617.046	1	150
617.386	1	152
617.725	1	153
618.064	1	142
618.404	1	145
618.743	1	140
619.082	1	154
619.422	1	146
619.761	1	157
620.100	1	131
620.440	1	154
620.779	1	146
621.118	1	150
621.458	1	145
621.797	1	144
622.136	1	137
622.476	1	134
622.815	1	139
623.154	1	133
623.494	1	134
623.833	1	141
624.172	1	131
624.511	1	118
624.851	1	135
625.190	1	134
625.529	1	136
625.869	1	147
626.208	1	136
626.547	1	138
626.886	1	123
627.226	1	138
627.565	1	143
627.904	1	137
628.243	1	150
628.583	1	137
628.922	1	142
629.261	1	142
629.600	1	128
629.940	1	138
630.279	1	139
630.618	1	137
630.957	1	122
631.297	1	131
631.636	1	120
631.975	1	122
632.314	1	132
632.653	1	123
632.993	1	126
633.332	1	132
633.671	1	133
634.010	1	123
634.349	1	141
634.689	1	116
635.028	1	115
635.367	1	124
635.706	1	115
636.045	1	114
636.384	1	124
636.724	1	124
637.063	1	113
637.402	1	134
637.741	1	128
638.080	1	120
638.419	1	105
638.759	1	118
639.098	1	116
639.437	1	117
639.776	1	131
640.115	1	108
640.454	1	118
640.793	1	116
641.132	1	107
641.472	1	129
641.811	1	120
642.150	1	116
642.489	1	119
642.828	1	127
643.167	1	109
643.506	1	117
643.845	1	118
644.184	1	114
644.524	1	119
644.863	1	106
645.202	1	110
645.541	1	105
645.880	1	111
646.219	1	107
646.558	1	106
646.897	1	107
647.236	1	102
647.575	1	113
647.914	1	108
648.253	1	116
648.592	1	107
648.931	1	114
649.270	1	122
649.610	1	119
649.949	1	106
650.288	1	119
650.627	1	110
650.966	1	111
651.305	1	101
651.644	1	109
651.983	1	100
652.322	1	104
652.661	1	112
653.000	1	108
653.339	1	104
653.678	1	112
654.017	1	97
654.356	1	101
654.695	1	106
655.034	1	100
655.373	1	95
655.712	1	108
656.051	1	99
656.390	1	96
656.729	1	103
657.068	1	89
657.406	1	97
657.745	1	108
658.084	1	94
658.423	1	91
658.762	1	93
659.101	1	97
659.440	1	87
659.779	1	99
660.118	1	98
660.457	1	79
660.796	1	91
661.135	1	102
661.474	1	90
661.813	1	83
662.152	1	87
662.491	1	76
662.829	1	91
663.168	1	92
663.507	1	94
663.846	1	88
664.185	1	88
664.524	1	83
664.863	1	76
665.202	1	90
665.541	1	90
665.879	1	86
666.218	1	86
666.557	1	79
666.896	1	79
667.235	1	69
667.574	1	81
667.913	1	95
668.251	1	70
668.590	1	88
668.929	1	84
669.268	1	79
669.607	1	70
669.946	1	84
670.285	1	81
670.623	1	78
670.962	1	81
671.301	1	81
671.640	1	100
671.979	1	87
672.317	1	92
672.656	1	86
672.995	1	85
673.334	1	70
673.673	1	88
674.011	1	85
674.350	1	87
674.689	1	82
675.028	1	92
675.367	1	86
675.705	1	83
676.044	1	85
676.383	1	80
676.722	1	94
677.060	1	86
677.399	1	91
677.738	1	84
678.077	1	83
678.416	1	84
678.754	1	87
679.093	1	91
679.432	1	85
679.771	1	81
680.109	1	78
680.448	1	73
680.787	1	70
681.125	1	74
681.464	1	77
681.803	1	80
682.142	1	80
682.480	1	70
682.819	1	72
683.158	1	72
683.496	1	70
683.835	1	78
684.174	1	87
684.512	1	87
684.851	1	77
685.190	1	86
685.529	1	69
685.867	1	76
686.206	1	73
686.545	1	73
686.883	1	81
687.222	1	68
687.561	1	87
687.899	1	82
688.238	1	86
688.577	1	88
688.746	1	78