File: Data/GaN_150K_450ms/GaN_sample D_spot15_UVVIS_150 K_200um_450 ms 2x2mm1_59.txt
340.368	1	8
340.710	1	7
341.052	1	11
341.394	1	-11
341.737	1	20
342.079	1	6
342.421	1	-6
342.763	1	7
343.105	1	6
343.447	1	7
343.789	1	8
344.131	1	-7
344.473	1	3
344.815	1	-2
345.157	1	13
345.499	1	2
345.841	1	9
346.183	1	10
346.526	1	6
346.868	1	8
347.210	1	8
347.552	1	15
347.894	1	-1
348.236	1	11
348.578	1	10
348.920	1	10
349.262	1	11
349.604	1	0
349.946	1	6
350.288	1	2
350.630	1	1
350.972	1	18
351.314	1	0
351.656	1	12
351.998	1	10
352.340	1	15
352.682	1	-5
353.024	1	24
353.366	1	21
353.708	1	11
354.050	1	9
354.392	1	2
354.734	1	28
355.076	1	31
355.418	1	15
355.760	1	26
356.102	1	17
356.444	1	23
356.785	1	21
357.127	1	32
357.469	1	25
357.811	1	29
358.153	1	17
358.495	1	28
358.837	1	47
359.179	1	44
359.521	1	53
359.863	1	42
360.205	1	54
360.547	1	60
360.889	1	65
361.231	1	77
361.572	1	81
361.914	1	89
362.256	1	117
362.598	1	130
362.940	1	126
363.282	1	130
363.624	1	166
363.966	1	185
364.308	1	218
364.649	1	238
364.991	1	277
365.333	1	306
365.675	1	346
366.017	1	376
366.359	1	409
366.701	1	441
367.042	1	461
367.384	1	474
367.726	1	504
368.068	1	516
368.410	1	512
368.752	1	513
369.093	1	486
369.435	1	481
369.777	1	466
370.119	1	437
370.461	1	408
370.803	1	364
371.144	1	344
371.486	1	331
371.828	1	303
372.170	1	282
372.512	1	265
372.853	1	248
373.195	1	252
373.537	1	216
373.879	1	210
374.220	1	206
374.562	1	205
374.904	1	187
375.246	1	162
375.588	1	152
375.929	1	148
376.271	1	148
376.613	1	132
376.955	1	137
377.296	1	132
377.638	1	114
377.980	1	112
378.321	1	102
378.663	1	106
379.005	1	97
379.347	1	94
379.688	1	90
380.030	1	99
380.372	1	66
380.714	1	71
381.055	1	81
381.397	1	68
381.739	1	66
382.080	1	62
382.422	1	65
382.764	1	69
383.105	1	68
383.447	1	57
383.789	1	57
384.130	1	64
384.472	1	64
384.814	1	65
385.156	1	62
385.497	1	78
385.839	1	62
386.180	1	60
386.522	1	55
386.864	1	49
387.205	1	64
387.547	1	46
387.889	1	45
388.230	1	46
388.572	1	43
388.914	1	43
389.255	1	44
389.597	1	45
389.939	1	40
390.280	1	38
390.622	1	44
390.963	1	31
391.305	1	43
391.647	1	44
391.988	1	43
392.330	1	41
392.671	1	44
393.013	1	47
393.355	1	46
393.696	1	40
394.038	1	29
394.379	1	38
394.721	1	31
395.062	1	30
395.404	1	42
395.746	1	33
396.087	1	36
396.429	1	40
396.770	1	38
397.112	1	33
397.453	1	39
397.795	1	39
398.136	1	48
398.478	1	35
398.819	1	38
399.161	1	40
399.503	1	42
399.844	1	31
400.186	1	30
400.527	1	31
400.869	1	23
401.210	1	33
401.552	1	31
401.893	1	33
402.235	1	32
402.576	1	32
402.918	1	19
403.259	1	28
403.601	1	38
403.942	1	25
404.284	1	31
404.625	1	15
404.967	1	33
405.308	1	15
405.649	1	21
405.991	1	33
406.332	1	15
406.674	1	25
407.015	1	30
407.357	1	23
407.698	1	17
408.040	1	34
408.381	1	13
408.722	1	25
409.064	1	34
409.405	1	23
409.747	1	18
410.088	1	23
410.430	1	21
410.771	1	17
411.112	1	17
411.454	1	19
411.795	1	17
412.137	1	16
412.478	1	16
412.819	1	17
413.161	1	14
413.502	1	25
413.844	1	34
414.185	1	14
414.526	1	14
414.868	1	22
415.209	1	15
415.550	1	23
415.892	1	25
416.233	1	22
416.575	1	10
416.916	1	11
417.257	1	10
417.599	1	26
417.940	1	11
418.281	1	35
418.623	1	20
418.964	1	32
419.305	1	29
419.647	1	20
419.988	1	34
420.329	1	30
420.671	1	18
421.012	1	13
421.353	1	15
421.695	1	22
422.036	1	26
422.377	1	15
422.718	1	24
423.060	1	27
423.401	1	10
423.742	1	26
424.084	1	22
424.425	1	27
424.766	1	18
425.107	1	19
425.449	1	16
425.790	1	25
426.131	1	17
426.472	1	32
426.814	1	18
427.155	1	18
427.496	1	24
427.837	1	9
428.179	1	33
428.520	1	19
428.861	1	25
429.202	1	9
429.544	1	16
429.885	1	16
430.226	1	3
430.567	1	6
430.909	1	8
431.250	1	24
431.591	1	22
431.932	1	13
432.273	1	28
432.615	1	13
432.956	1	22
433.297	1	21
433.638	1	23
433.979	1	17
434.320	1	20
434.662	1	22
435.003	1	24
435.344	1	9
435.685	1	9
436.026	1	13
436.368	1	6
436.709	1	11
437.050	1	21
437.391	1	13
437.732	1	18
438.073	1	11
438.414	1	21
438.756	1	13
439.097	1	19
439.438	1	28
439.779	1	20
440.120	1	18
440.461	1	13
440.802	1	15
441.143	1	12
441.485	1	12
441.826	1	22
442.167	1	19
442.508	1	19
442.849	1	17
443.190	1	17
443.531	1	19
443.872	1	12
444.213	1	6
444.554	1	14
444.895	1	11
445.237	1	12
445.578	1	14
445.919	1	14
446.260	1	27
446.601	1	19
446.942	1	10
447.283	1	22
447.624	1	4
447.965	1	10
448.306	1	18
448.647	1	12
448.988	1	25
449.329	1	18
449.670	1	13
450.011	1	28
450.352	1	19
450.693	1	22
451.034	1	20
451.375	1	13
451.716	1	9
452.057	1	19
452.398	1	27
452.739	1	12
453.080	1	14
453.421	1	10
453.762	1	20
454.103	1	14
454.444	1	10
454.785	1	7
455.126	1	12
455.467	1	16
455.808	1	21
456.149	1	9
456.490	1	1
456.831	1	11
457.172	1	17
457.513	1	19
457.854	1	13
458.195	1	20
458.536	1	16
458.877	1	19
459.218	1	18
459.559	1	18
459.899	1	11
460.240	1	12
460.581	1	16
460.922	1	11
461.263	1	12
461.604	1	22
461.945	1	19
462.286	1	8
462.627	1	17
462.968	1	11
463.309	1	10
463.649	1	12
463.990	1	12
464.331	1	22
464.672	1	29
465.013	1	11
465.354	1	24
465.695	1	8
466.036	1	20
466.376	1	15
466.717	1	9
467.058	1	14
467.399	1	9
467.740	1	27
468.081	1	12
468.422	1	23
468.762	1	10
469.103	1	17
469.444	1	13
469.785	1	5
470.126	1	23
470.467	1	12
470.807	1	14
471.148	1	2
471.489	1	18
471.830	1	23
472.171	1	29
472.511	1	17
472.852	1	29
473.193	1	11
473.534	1	12
473.875	1	24
474.215	1	17
474.556	1	12
474.897	1	8
475.238	1	16
475.578	1	9
475.919	1	13
476.260	1	13
476.601	1	18
476.942	1	16
477.282	1	13
477.623	1	13
477.964	1	19
478.305	1	22
478.645	1	14
478.986	1	16
479.327	1	13
479.667	1	10
480.008	1	21
480.349	1	14
480.690	1	21
481.030	1	13
481.371	1	8
481.712	1	23
482.053	1	17
482.393	1	22
482.734	1	13
483.075	1	28
483.415	1	16
483.756	1	28
484.097	1	19
484.437	1	32
484.778	1	20
485.119	1	26
485.459	1	27
485.800	1	25
486.141	1	27
486.481	1	21
486.822	1	32
487.163	1	16
487.503	1	34
487.844	1	24
488.185	1	22
488.525	1	26
488.866	1	24
489.207	1	35
489.547	1	37
489.888	1	38
490.228	1	31
490.569	1	38
490.910	1	43
491.250	1	43
491.591	1	40
491.932	1	48
492.272	1	34
492.613	1	39
492.953	1	41
493.294	1	38
493.635	1	53
493.975	1	49
494.316	1	35
494.656	1	52
494.997	1	34
495.337	1	33
495.678	1	54
496.019	1	33
496.359	1	47
496.700	1	46
497.040	1	38
497.381	1	53
497.721	1	46
498.062	1	50
498.403	1	50
498.743	1	53
499.084	1	52
499.424	1	53
499.765	1	61
500.105	1	65
500.446	1	59
500.786	1	52
501.127	1	62
501.467	1	66
501.808	1	65
502.148	1	57
502.489	1	57
502.829	1	68
503.170	1	75
503.510	1	71
503.851	1	67
504.191	1	73
504.532	1	65
504.872	1	58
505.213	1	61
505.553	1	78
505.894	1	69
506.234	1	71
506.575	1	91
506.915	1	74
507.256	1	78
507.596	1	77
507.936	1	85
508.277	1	90
508.617	1	77
508.958	1	80
509.298	1	72
509.639	1	69
509.979	1	73
510.319	1	83
510.660	1	79
511.000	1	81
511.341	1	95
511.681	1	84
512.022	1	79
512.362	1	92
512.702	1	83
513.043	1	82
513.383	1	82
513.724	1	92
514.064	1	95
514.404	1	91
514.745	1	83
515.085	1	91
515.425	1	96
515.766	1	90
516.106	1	84
516.447	1	101
516.787	1	97
517.127	1	111
517.468	1	107
517.808	1	91
518.148	1	102
518.489	1	94
518.829	1	106
519.169	1	92
519.510	1	85
519.850	1	101
520.190	1	102
520.531	1	102
520.871	1	112
521.211	1	103
521.552	1	99
521.892	1	104
522.232	1	115
522.573	1	106
522.913	1	110
523.253	1	112
523.593	1	110
523.934	1	109
524.274	1	105
524.614	1	99
524.955	1	99
525.295	1	107
525.635	1	96
525.975	1	100
526.316	1	96
526.656	1	101
526.996	1	97
527.337	1	107
527.677	1	118
528.017	1	116
528.357	1	114
528.698	1	117
529.038	1	109
529.378	1	115
529.718	1	126
530.058	1	119
530.399	1	116
530.739	1	118
531.079	1	117
531.419	1	119
531.760	1	114
532.100	1	108
532.440	1	116
532.780	1	117
533.120	1	108
533.461	1	116
533.801	1	118
534.141	1	115
534.481	1	126
534.821	1	108
535.162	1	106
535.502	1	106
535.842	1	114
536.182	1	102
536.522	1	98
536.862	1	97
537.203	1	108
537.543	1	107
537.883	1	104
538.223	1	120
538.563	1	105
538.903	1	88
539.243	1	99
539.584	1	93
539.924	1	103
540.264	1	109
540.604	1	106
540.944	1	102
541.284	1	87
541.624	1	102
541.964	1	91
542.305	1	102
542.645	1	102
542.985	1	94
543.325	1	101
543.665	1	99
544.005	1	96
544.345	1	95
544.685	1	99
545.025	1	99
545.365	1	98
545.705	1	96
546.045	1	99
546.386	1	103
546.726	1	89
547.066	1	98
547.406	1	95
547.746	1	96
548.086	1	92
548.426	1	101
548.766	1	101
549.106	1	98
549.446	1	112
549.786	1	102
550.126	1	91
550.466	1	97
550.806	1	97
551.146	1	96
551.486	1	97
551.826	1	85
552.166	1	86
552.506	1	92
552.846	1	96
553.186	1	93
553.526	1	85
553.866	1	91
554.206	1	88
554.546	1	88
554.886	1	77
555.226	1	94
555.566	1	83
555.906	1	76
556.246	1	78
556.586	1	78
556.926	1	85
557.266	1	77
557.606	1	71
557.946	1	77
558.286	1	64
558.626	1	75
558.966	1	74
559.306	1	83
559.646	1	72
559.986	1	70
560.325	1	64
560.665	1	67
561.005	1	64
561.345	1	71
561.685	1	72
562.025	1	67
562.365	1	76
562.705	1	75
563.045	1	70
563.385	1	72
563.725	1	71
564.064	1	62
564.404	1	69
564.744	1	74
565.084	1	73
565.424	1	54
565.764	1	69
566.104	1	69
566.444	1	66
566.783	1	58
567.123	1	53
567.463	1	65
567.803	1	68
568.143	1	69
568.483	1	79
568.823	1	59
569.162	1	63
569.502	1	67
569.842	1	60
570.182	1	59
570.522	1	51
570.862	1	50
571.201	1	64
571.541	1	59
571.881	1	57
572.221	1	60
572.561	1	56
572.900	1	60
573.240	1	53
573.580	1	62
573.920	1	59
574.260	1	58
574.599	1	60
574.939	1	51
575.279	1	47
575.619	1	48
575.959	1	37
576.298	1	41
576.638	1	54
576.978	1	60
577.318	1	54
577.657	1	44
577.997	1	48
578.337	1	49
578.677	1	54
579.016	1	43
579.356	1	52
579.696	1	49
580.036	1	61
580.375	1	40
580.715	1	50
581.055	1	48
581.394	1	58
581.734	1	45
582.074	1	47
582.414	1	40
582.753	1	39
583.093	1	46
583.433	1	52
583.772	1	52
584.112	1	44
584.452	1	43
584.791	1	49
585.131	1	46
585.471	1	44
585.811	1	47
586.150	1	40
586.490	1	48
586.830	1	40
587.169	1	42
587.509	1	45
587.849	1	45
588.188	1	45
588.528	1	39
588.867	1	44
589.207	1	45
589.547	1	44
589.886	1	35
590.226	1	24
590.566	1	39
590.905	1	26
591.245	1	38
591.585	1	34
591.924	1	37
592.264	1	29
592.603	1	20
592.943	1	28
593.283	1	30
593.622	1	33
593.962	1	36
594.301	1	26
594.641	1	35
594.981	1	36
595.320	1	42
595.660	1	31
595.999	1	42
596.339	1	34
596.678	1	23
597.018	1	39
597.358	1	29
597.697	1	20
598.037	1	36
598.376	1	35
598.716	1	35
599.055	1	32
599.395	1	36
599.734	1	29
600.074	1	28
600.413	1	31
600.753	1	30
601.092	1	26
601.432	1	25
601.771	1	44
602.111	1	31
602.451	1	25
602.790	1	30
603.130	1	29
603.469	1	38
603.809	1	40
604.148	1	31
604.487	1	28
604.827	1	42
605.166	1	34
605.506	1	24
605.845	1	32
606.185	1	26
606.524	1	21
606.864	1	39
607.203	1	38
607.543	1	35
607.882	1	38
608.222	1	21
608.561	1	26
608.901	1	32
609.240	1	30
609.579	1	27
609.919	1	16
610.258	1	45
610.598	1	16
610.937	1	23
611.277	1	41
611.616	1	37
611.955	1	17
612.295	1	33
612.634	1	40
612.974	1	26
613.313	1	26
613.652	1	33
613.992	1	33
614.331	1	25
614.671	1	23
615.010	1	30
615.349	1	16
615.689	1	14
616.028	1	43
616.368	1	36
616.707	1	22
617.046	1	30
617.386	1	28
617.725	1	15
618.064	1	16
618.404	1	23
618.743	1	23
619.082	1	33
619.422	1	27
619.761	1	23
620.100	1	27
620.440	1	17
620.779	1	27
621.118	1	29
621.458	1	23
621.797	1	33
622.136	1	17
622.476	1	24
622.815	1	17
623.154	1	12
623.494	1	20
623.833	1	20
624.172	1	25
624.511	1	22
624.851	1	22
625.190	1	16
625.529	1	18
625.869	1	21
626.208	1	13
626.547	1	18
626.886	1	18
627.226	1	22
627.565	1	17
627.904	1	11
628.243	1	19
628.583	1	20
628.922	1	32
629.261	1	21
629.600	1	14
629.940	1	25
630.279	1	34
630.618	1	23
630.957	1	17
631.297	1	13
631.636	1	11
631.975	1	16
632.314	1	21
632.653	1	14
632.993	1	19
633.332	1	20
633.671	1	24
634.010	1	19
634.349	1	24
634.689	1	13
635.028	1	8
635.367	1	29
635.706	1	16
636.045	1	13
636.384	1	18
636.724	1	16
637.063	1	8
637.402	1	16
637.741	1	18
638.080	1	15
638.419	1	16
638.759	1	24
639.098	1	20
639.437	1	22
639.776	1	24
640.115	1	3
640.454	1	11
640.793	1	10
641.132	1	19
641.472	1	27
641.811	1	15
642.150	1	9
642.489	1	19
642.828	1	28
643.167	1	21
643.506	1	11
643.845	1	22
644.184	1	34
644.524	1	3
644.863	1	14
645.202	1	13
645.541	1	6
645.880	1	15
646.219	1	16
646.558	1	10
646.897	1	-1
647.236	1	10
647.575	1	23
647.914	1	19
648.253	1	19
648.592	1	23
648.931	1	18
649.270	1	35
649.610	1	18
649.949	1	7
650.288	1	16
650.627	1	5
650.966	1	23
651.305	1	13
651.644	1	19
651.983	1	8
652.322	1	8
652.661	1	19
653.000	1	23
653.339	1	14
653.678	1	22
654.017	1	15
654.356	1	19
654.695	1	26
655.034	1	14
655.373	1	17
655.712	1	18
656.051	1	13
656.390	1	16
656.729	1	23
657.068	1	6
657.406	1	6
657.745	1	24
658.084	1	15
658.423	1	20
658.762	1	2
659.101	1	3
659.440	1	17
659.779	1	17
660.118	1	16
660.457	1	11
660.796	1	22
661.135	1	24
661.474	1	11
661.813	1	6
662.152	1	14
662.491	1	17
662.829	1	18
663.168	1	17
663.507	1	25
663.846	1	14
664.185	1	13
664.524	1	24
664.863	1	-2
665.202	1	11
665.541	1	16
665.879	1	13
666.218	1	15
666.557	1	15
666.896	1	5
667.235	1	7
667.574	1	6
667.913	1	18
668.251	1	5
668.590	1	12
668.929	1	9
669.268	1	8
669.607	1	9
669.946	1	13
670.285	1	8
670.623	1	12
670.962	1	2
671.301	1	15
671.640	1	18
671.979	1	15
672.317	1	12
672.656	1	17
672.995	1	11
673.334	1	16
673.673	1	24
674.011	1	19
674.350	1	13
674.689	1	15
675.028	1	13
675.367	1	19
675.705	1	11
676.044	1	8
676.383	1	12
676.722	1	10
677.060	1	18
677.399	1	26
677.738	1	11
678.077	1	6
678.416	1	3
678.754	1	21
679.093	1	21
679.432	1	14
679.771	1	12
680.109	1	18
680.448	1	12
680.787	1	6
681.125	1	7
681.464	1	18
681.803	1	10
682.142	1	19
682.480	1	6
682.819	1	8
683.158	1	5
683.496	1	18
683.835	1	17
684.174	1	16
684.512	1	20
684.851	1	12
685.190	1	15
685.529	1	9
685.867	1	7
686.206	1	5
686.545	1	19
686.883	1	24
687.222	1	12
687.561	1	14
687.899	1	22
688.238	1	17
688.577	1	28
688.746	1	27