File: Data/GaN_150K_450ms/GaN_sample D_spot15_UVVIS_150 K_200um_450 ms 2x2mm1_130.txt
340.368	1	10
340.710	1	7
341.052	1	-2
341.394	1	-4
341.737	1	1
342.079	1	1
342.421	1	11
342.763	1	7
343.105	1	8
343.447	1	9
343.789	1	6
344.131	1	-5
344.473	1	7
344.815	1	7
345.157	1	12
345.499	1	1
345.841	1	6
346.183	1	2
346.526	1	7
346.868	1	5
347.210	1	-6
347.552	1	17
347.894	1	0
348.236	1	8
348.578	1	4
348.920	1	2
349.262	1	7
349.604	1	0
349.946	1	2
350.288	1	-4
350.630	1	-5
350.972	1	12
351.314	1	-1
351.656	1	12
351.998	1	5
352.340	1	10
352.682	1	-8
353.024	1	19
353.366	1	10
353.708	1	4
354.050	1	-1
354.392	1	-4
354.734	1	8
355.076	1	23
355.418	1	3
355.760	1	11
356.102	1	5
356.444	1	14
356.785	1	13
357.127	1	15
357.469	1	9
357.811	1	10
358.153	1	6
358.495	1	10
358.837	1	18
359.179	1	16
359.521	1	21
359.863	1	4
360.205	1	13
360.547	1	23
360.889	1	15
361.231	1	18
361.572	1	13
361.914	1	23
362.256	1	23
362.598	1	30
362.940	1	26
363.282	1	21
363.624	1	24
363.966	1	25
364.308	1	41
364.649	1	28
364.991	1	38
365.333	1	40
365.675	1	42
366.017	1	43
366.359	1	39
366.701	1	53
367.042	1	52
367.384	1	47
367.726	1	49
368.068	1	59
368.410	1	43
368.752	1	66
369.093	1	57
369.435	1	55
369.777	1	49
370.119	1	48
370.461	1	47
370.803	1	39
371.144	1	45
371.486	1	45
371.828	1	31
372.170	1	44
372.512	1	28
372.853	1	47
373.195	1	44
373.537	1	23
373.879	1	31
374.220	1	33
374.562	1	50
374.904	1	29
375.246	1	25
375.588	1	34
375.929	1	26
376.271	1	29
376.613	1	21
376.955	1	17
377.296	1	28
377.638	1	21
377.980	1	13
378.321	1	28
378.663	1	21
379.005	1	9
379.347	1	18
379.688	1	18
380.030	1	23
380.372	1	19
380.714	1	19
381.055	1	19
381.397	1	6
381.739	1	1
382.080	1	9
382.422	1	16
382.764	1	12
383.105	1	18
383.447	1	16
383.789	1	0
384.130	1	19
384.472	1	8
384.814	1	16
385.156	1	13
385.497	1	26
385.839	1	16
386.180	1	6
386.522	1	12
386.864	1	1
387.205	1	9
387.547	1	6
387.889	1	5
388.230	1	7
388.572	1	3
388.914	1	16
389.255	1	6
389.597	1	2
389.939	1	16
390.280	1	10
390.622	1	6
390.963	1	-1
391.305	1	1
391.647	1	13
391.988	1	12
392.330	1	9
392.671	1	10
393.013	1	18
393.355	1	5
393.696	1	13
394.038	1	12
394.379	1	10
394.721	1	6
395.062	1	9
395.404	1	7
395.746	1	5
396.087	1	10
396.429	1	12
396.770	1	12
397.112	1	-2
397.453	1	1
397.795	1	14
398.136	1	14
398.478	1	3
398.819	1	9
399.161	1	12
399.503	1	15
399.844	1	1
400.186	1	13
400.527	1	15
400.869	1	11
401.210	1	11
401.552	1	5
401.893	1	9
402.235	1	14
402.576	1	19
402.918	1	0
403.259	1	6
403.601	1	12
403.942	1	12
404.284	1	17
404.625	1	12
404.967	1	14
405.308	1	12
405.649	1	10
405.991	1	11
406.332	1	12
406.674	1	5
407.015	1	7
407.357	1	15
407.698	1	9
408.040	1	26
408.381	1	0
408.722	1	11
409.064	1	14
409.405	1	9
409.747	1	7
410.088	1	14
410.430	1	18
410.771	1	5
411.112	1	13
411.454	1	13
411.795	1	8
412.137	1	2
412.478	1	9
412.819	1	21
413.161	1	8
413.502	1	11
413.844	1	18
414.185	1	17
414.526	1	-2
414.868	1	12
415.209	1	1
415.550	1	2
415.892	1	16
416.233	1	13
416.575	1	6
416.916	1	0
417.257	1	6
417.599	1	18
417.940	1	2
418.281	1	15
418.623	1	11
418.964	1	18
419.305	1	9
419.647	1	15
419.988	1	24
420.329	1	19
420.671	1	15
421.012	1	7
421.353	1	17
421.695	1	12
422.036	1	10
422.377	1	9
422.718	1	16
423.060	1	20
423.401	1	5
423.742	1	11
424.084	1	12
424.425	1	23
424.766	1	4
425.107	1	15
425.449	1	7
425.790	1	15
426.131	1	6
426.472	1	22
426.814	1	12
427.155	1	16
427.496	1	0
427.837	1	9
428.179	1	15
428.520	1	14
428.861	1	14
429.202	1	-1
429.544	1	3
429.885	1	17
430.226	1	-4
430.567	1	0
430.909	1	4
431.250	1	6
431.591	1	14
431.932	1	11
432.273	1	14
432.615	1	13
432.956	1	3
433.297	1	9
433.638	1	11
433.979	1	12
434.320	1	2
434.662	1	15
435.003	1	25
435.344	1	10
435.685	1	1
436.026	1	4
436.368	1	10
436.709	1	-1
437.050	1	10
437.391	1	-2
437.732	1	11
438.073	1	5
438.414	1	15
438.756	1	8
439.097	1	15
439.438	1	16
439.779	1	2
440.120	1	3
440.461	1	15
440.802	1	9
441.143	1	12
441.485	1	6
441.826	1	6
442.167	1	16
442.508	1	8
442.849	1	10
443.190	1	8
443.531	1	7
443.872	1	0
444.213	1	2
444.554	1	10
444.895	1	-4
445.237	1	10
445.578	1	5
445.919	1	4
446.260	1	14
446.601	1	12
446.942	1	10
447.283	1	14
447.624	1	0
447.965	1	13
448.306	1	10
448.647	1	11
448.988	1	10
449.329	1	15
449.670	1	13
450.011	1	5
450.352	1	7
450.693	1	15
451.034	1	10
451.375	1	5
451.716	1	13
452.057	1	5
452.398	1	17
452.739	1	3
453.080	1	8
453.421	1	11
453.762	1	7
454.103	1	9
454.444	1	4
454.785	1	12
455.126	1	5
455.467	1	7
455.808	1	23
456.149	1	1
456.490	1	2
456.831	1	5
457.172	1	13
457.513	1	-1
457.854	1	6
458.195	1	1
458.536	1	12
458.877	1	2
459.218	1	15
459.559	1	7
459.899	1	3
460.240	1	4
460.581	1	-3
460.922	1	3
461.263	1	13
461.604	1	-5
461.945	1	11
462.286	1	0
462.627	1	3
462.968	1	6
463.309	1	17
463.649	1	-4
463.990	1	3
464.331	1	11
464.672	1	5
465.013	1	14
465.354	1	6
465.695	1	10
466.036	1	4
466.376	1	12
466.717	1	-6
467.058	1	6
467.399	1	4
467.740	1	15
468.081	1	1
468.422	1	11
468.762	1	9
469.103	1	9
469.444	1	17
469.785	1	6
470.126	1	10
470.467	1	4
470.807	1	8
471.148	1	5
471.489	1	11
471.830	1	5
472.171	1	9
472.511	1	6
472.852	1	13
473.193	1	5
473.534	1	10
473.875	1	5
474.215	1	3
474.556	1	-7
474.897	1	4
475.238	1	7
475.578	1	-4
475.919	1	1
476.260	1	3
476.601	1	8
476.942	1	0
477.282	1	2
477.623	1	1
477.964	1	11
478.305	1	4
478.645	1	5
478.986	1	6
479.327	1	8
479.667	1	5
480.008	1	12
480.349	1	-2
480.690	1	12
481.030	1	4
481.371	1	-3
481.712	1	17
482.053	1	15
482.393	1	10
482.734	1	7
483.075	1	8
483.415	1	-3
483.756	1	15
484.097	1	14
484.437	1	13
484.778	1	2
485.119	1	8
485.459	1	8
485.800	1	3
486.141	1	2
486.481	1	-8
486.822	1	20
487.163	1	-2
487.503	1	7
487.844	1	1
488.185	1	10
488.525	1	0
488.866	1	0
489.207	1	7
489.547	1	-2
489.888	1	16
490.228	1	-2
490.569	1	-1
490.910	1	14
491.250	1	6
491.591	1	7
491.932	1	11
492.272	1	1
492.613	1	5
492.953	1	2
493.294	1	-10
493.635	1	3
493.975	1	14
494.316	1	4
494.656	1	16
494.997	1	3
495.337	1	3
495.678	1	10
496.019	1	6
496.359	1	9
496.700	1	16
497.040	1	3
497.381	1	12
497.721	1	-2
498.062	1	10
498.403	1	7
498.743	1	14
499.084	1	12
499.424	1	2
499.765	1	13
500.105	1	19
500.446	1	1
500.786	1	-4
501.127	1	5
501.467	1	17
501.808	1	17
502.148	1	5
502.489	1	8
502.829	1	1
503.170	1	12
503.510	1	5
503.851	1	20
504.191	1	7
504.532	1	19
504.872	1	12
505.213	1	18
505.553	1	16
505.894	1	13
506.234	1	25
506.575	1	20
506.915	1	21
507.256	1	10
507.596	1	17
507.936	1	19
508.277	1	18
508.617	1	19
508.958	1	10
509.298	1	-2
509.639	1	3
509.979	1	8
510.319	1	9
510.660	1	4
511.000	1	6
511.341	1	21
511.681	1	9
512.022	1	4
512.362	1	19
512.702	1	6
513.043	1	17
513.383	1	15
513.724	1	6
514.064	1	15
514.404	1	18
514.745	1	11
515.085	1	17
515.425	1	19
515.766	1	9
516.106	1	9
516.447	1	11
516.787	1	14
517.127	1	13
517.468	1	14
517.808	1	17
518.148	1	24
518.489	1	8
518.829	1	21
519.169	1	4
519.510	1	4
519.850	1	9
520.190	1	11
520.531	1	15
520.871	1	16
521.211	1	15
521.552	1	1
521.892	1	22
522.232	1	14
522.573	1	16
522.913	1	15
523.253	1	23
523.593	1	23
523.934	1	17
524.274	1	21
524.614	1	21
524.955	1	26
525.295	1	26
525.635	1	12
525.975	1	16
526.316	1	2
526.656	1	15
526.996	1	11
527.337	1	9
527.677	1	18
528.017	1	2
528.357	1	16
528.698	1	25
529.038	1	18
529.378	1	5
529.718	1	9
530.058	1	17
530.399	1	15
530.739	1	15
531.079	1	16
531.419	1	13
531.760	1	19
532.100	1	22
532.440	1	18
532.780	1	11
533.120	1	4
533.461	1	13
533.801	1	20
534.141	1	15
534.481	1	24
534.821	1	3
535.162	1	12
535.502	1	7
535.842	1	6
536.182	1	4
536.522	1	8
536.862	1	10
537.203	1	14
537.543	1	13
537.883	1	4
538.223	1	24
538.563	1	3
538.903	1	3
539.243	1	20
539.584	1	14
539.924	1	18
540.264	1	19
540.604	1	24
540.944	1	19
541.284	1	16
541.624	1	11
541.964	1	12
542.305	1	15
542.645	1	10
542.985	1	12
543.325	1	14
543.665	1	8
544.005	1	15
544.345	1	13
544.685	1	5
545.025	1	22
545.365	1	16
545.705	1	10
546.045	1	17
546.386	1	6
546.726	1	7
547.066	1	10
547.406	1	16
547.746	1	8
548.086	1	15
548.426	1	2
548.766	1	23
549.106	1	7
549.446	1	8
549.786	1	21
550.126	1	10
550.466	1	5
550.806	1	22
551.146	1	18
551.486	1	3
551.826	1	2
552.166	1	9
552.506	1	8
552.846	1	18
553.186	1	6
553.526	1	12
553.866	1	12
554.206	1	25
554.546	1	17
554.886	1	13
555.226	1	11
555.566	1	12
555.906	1	12
556.246	1	14
556.586	1	12
556.926	1	7
557.266	1	14
557.606	1	-1
557.946	1	18
558.286	1	-8
558.626	1	11
558.966	1	9
559.306	1	2
559.646	1	13
559.986	1	9
560.325	1	9
560.665	1	10
561.005	1	12
561.345	1	10
561.685	1	15
562.025	1	13
562.365	1	9
562.705	1	19
563.045	1	10
563.385	1	16
563.725	1	8
564.064	1	10
564.404	1	3
564.744	1	12
565.084	1	13
565.424	1	13
565.764	1	12
566.104	1	11
566.444	1	16
566.783	1	17
567.123	1	10
567.463	1	3
567.803	1	15
568.143	1	14
568.483	1	22
568.823	1	1
569.162	1	0
569.502	1	14
569.842	1	9
570.182	1	9
570.522	1	-4
570.862	1	-8
571.201	1	26
571.541	1	7
571.881	1	6
572.221	1	9
572.561	1	13
572.900	1	16
573.240	1	6
573.580	1	7
573.920	1	16
574.260	1	10
574.599	1	3
574.939	1	13
575.279	1	2
575.619	1	-3
575.959	1	13
576.298	1	-1
576.638	1	9
576.978	1	10
577.318	1	11
577.657	1	9
577.997	1	16
578.337	1	7
578.677	1	3
579.016	1	12
579.356	1	5
579.696	1	8
580.036	1	12
580.375	1	7
580.715	1	11
581.055	1	11
581.394	1	6
581.734	1	10
582.074	1	10
582.414	1	-3
582.753	1	1
583.093	1	10
583.433	1	9
583.772	1	5
584.112	1	6
584.452	1	13
584.791	1	1
585.131	1	8
585.471	1	2
585.811	1	13
586.150	1	7
586.490	1	4
586.830	1	10
587.169	1	6
587.509	1	12
587.849	1	15
588.188	1	13
588.528	1	4
588.867	1	7
589.207	1	9
589.547	1	13
589.886	1	2
590.226	1	3
590.566	1	0
590.905	1	4
591.245	1	3
591.585	1	5
591.924	1	3
592.264	1	3
592.603	1	1
592.943	1	6
593.283	1	14
593.622	1	5
593.962	1	9
594.301	1	6
594.641	1	9
594.981	1	12
595.320	1	19
595.660	1	1
595.999	1	10
596.339	1	8
596.678	1	-6
597.018	1	-1
597.358	1	6
597.697	1	-1
598.037	1	3
598.376	1	2
598.716	1	10
599.055	1	7
599.395	1	8
599.734	1	4
600.074	1	2
600.413	1	8
600.753	1	7
601.092	1	0
601.432	1	-3
601.771	1	-1
602.111	1	4
602.451	1	-10
602.790	1	9
603.130	1	1
603.469	1	3
603.809	1	5
604.148	1	-2
604.487	1	6
604.827	1	5
605.166	1	3
605.506	1	7
605.845	1	13
606.185	1	-3
606.524	1	3
606.864	1	3
607.203	1	11
607.543	1	2
607.882	1	5
608.222	1	3
608.561	1	5
608.901	1	4
609.240	1	12
609.579	1	4
609.919	1	-2
610.258	1	11
610.598	1	2
610.937	1	4
611.277	1	11
611.616	1	10
611.955	1	-2
612.295	1	8
612.634	1	4
612.974	1	13
613.313	1	16
613.652	1	17
613.992	1	7
614.331	1	19
614.671	1	-2
615.010	1	3
615.349	1	5
615.689	1	-2
616.028	1	18
616.368	1	6
616.707	1	9
617.046	1	11
617.386	1	13
617.725	1	5
618.064	1	3
618.404	1	4
618.743	1	7
619.082	1	12
619.422	1	20
619.761	1	5
620.100	1	9
620.440	1	14
620.779	1	14
621.118	1	12
621.458	1	0
621.797	1	2
622.136	1	4
622.476	1	2
622.815	1	7
623.154	1	-2
623.494	1	0
623.833	1	-7
624.172	1	6
624.511	1	4
624.851	1	4
625.190	1	2
625.529	1	4
625.869	1	9
626.208	1	-3
626.547	1	-1
626.886	1	-9
627.226	1	10
627.565	1	15
627.904	1	3
628.243	1	9
628.583	1	10
628.922	1	14
629.261	1	6
629.600	1	10
629.940	1	12
630.279	1	7
630.618	1	17
630.957	1	6
631.297	1	8
631.636	1	0
631.975	1	4
632.314	1	9
632.653	1	4
632.993	1	11
633.332	1	6
633.671	1	12
634.010	1	-1
634.349	1	13
634.689	1	9
635.028	1	-1
635.367	1	6
635.706	1	3
636.045	1	-6
636.384	1	8
636.724	1	8
637.063	1	-9
637.402	1	6
637.741	1	7
638.080	1	4
638.419	1	1
638.759	1	1
639.098	1	11
639.437	1	8
639.776	1	8
640.115	1	-8
640.454	1	0
640.793	1	13
641.132	1	8
641.472	1	12
641.811	1	-4
642.150	1	0
642.489	1	4
642.828	1	12
643.167	1	10
643.506	1	2
643.845	1	19
644.184	1	5
644.524	1	1
644.863	1	0
645.202	1	-4
645.541	1	7
645.880	1	12
646.219	1	4
646.558	1	-6
646.897	1	-4
647.236	1	-6
647.575	1	6
647.914	1	-1
648.253	1	15
648.592	1	5
648.931	1	9
649.270	1	10
649.610	1	12
649.949	1	-7
650.288	1	6
650.627	1	3
650.966	1	4
651.305	1	3
651.644	1	10
651.983	1	0
652.322	1	6
652.661	1	9
653.000	1	0
653.339	1	0
653.678	1	5
654.017	1	12
654.356	1	5
654.695	1	21
655.034	1	4
655.373	1	7
655.712	1	7
656.051	1	-1
656.390	1	-4
656.729	1	19
657.068	1	1
657.406	1	-3
657.745	1	15
658.084	1	11
658.423	1	8
658.762	1	7
659.101	1	6
659.440	1	8
659.779	1	6
660.118	1	6
660.457	1	9
660.796	1	15
661.135	1	12
661.474	1	5
661.813	1	2
662.152	1	1
662.491	1	-9
662.829	1	7
663.168	1	8
663.507	1	2
663.846	1	1
664.185	1	1
664.524	1	17
664.863	1	1
665.202	1	-3
665.541	1	6
665.879	1	5
666.218	1	5
666.557	1	-2
666.896	1	3
667.235	1	4
667.574	1	4
667.913	1	1
668.251	1	-9
668.590	1	0
668.929	1	1
669.268	1	-3
669.607	1	0
669.946	1	8
670.285	1	7
670.623	1	14
670.962	1	0
671.301	1	-2
671.640	1	7
671.979	1	-7
672.317	1	0
672.656	1	5
672.995	1	4
673.334	1	2
673.673	1	10
674.011	1	3
674.350	1	16
674.689	1	0
675.028	1	7
675.367	1	7
675.705	1	-7
676.044	1	5
676.383	1	7
676.722	1	11
677.060	1	5
677.399	1	16
677.738	1	-1
678.077	1	-9
678.416	1	5
678.754	1	4
679.093	1	15
679.432	1	3
679.771	1	1
680.109	1	0
680.448	1	-3
680.787	1	-2
681.125	1	-1
681.464	1	3
681.803	1	-5
682.142	1	8
682.480	1	-8
682.819	1	11
683.158	1	0
683.496	1	2
683.835	1	11
684.174	1	10
684.512	1	6
684.851	1	8
685.190	1	15
685.529	1	-2
685.867	1	1
686.206	1	5
686.545	1	7
686.883	1	14
687.222	1	0
687.561	1	3
687.899	1	2
688.238	1	12
688.577	1	3
688.746	1	-3