File: Data/GaN_150K_450ms/GaN_sample D_spot15_UVVIS_150 K_200um_450 ms 2x2mm1_143.txt
340.368	1	4
340.710	1	0
341.052	1	9
341.394	1	-9
341.737	1	3
342.079	1	0
342.421	1	6
342.763	1	6
343.105	1	4
343.447	1	5
343.789	1	6
344.131	1	-6
344.473	1	1
344.815	1	8
345.157	1	8
345.499	1	8
345.841	1	14
346.183	1	7
346.526	1	3
346.868	1	-8
347.210	1	-1
347.552	1	21
347.894	1	1
348.236	1	11
348.578	1	13
348.920	1	3
349.262	1	10
349.604	1	0
349.946	1	-4
350.288	1	-7
350.630	1	-7
350.972	1	19
351.314	1	-2
351.656	1	14
351.998	1	11
352.340	1	15
352.682	1	-20
353.024	1	21
353.366	1	13
353.708	1	6
354.050	1	-6
354.392	1	-1
354.734	1	6
355.076	1	15
355.418	1	3
355.760	1	8
356.102	1	3
356.444	1	12
356.785	1	9
357.127	1	15
357.469	1	10
357.811	1	7
358.153	1	-5
358.495	1	12
358.837	1	18
359.179	1	14
359.521	1	11
359.863	1	10
360.205	1	17
360.547	1	19
360.889	1	6
361.231	1	18
361.572	1	9
361.914	1	21
362.256	1	19
362.598	1	24
362.940	1	18
363.282	1	14
363.624	1	23
363.966	1	20
364.308	1	31
364.649	1	21
364.991	1	30
365.333	1	28
365.675	1	44
366.017	1	42
366.359	1	32
366.701	1	39
367.042	1	50
367.384	1	38
367.726	1	40
368.068	1	52
368.410	1	56
368.752	1	57
369.093	1	41
369.435	1	48
369.777	1	45
370.119	1	49
370.461	1	28
370.803	1	34
371.144	1	33
371.486	1	41
371.828	1	35
372.170	1	37
372.512	1	24
372.853	1	38
373.195	1	29
373.537	1	24
373.879	1	29
374.220	1	30
374.562	1	34
374.904	1	20
375.246	1	24
375.588	1	10
375.929	1	31
376.271	1	19
376.613	1	21
376.955	1	11
377.296	1	27
377.638	1	11
377.980	1	13
378.321	1	26
378.663	1	12
379.005	1	15
379.347	1	21
379.688	1	18
380.030	1	18
380.372	1	13
380.714	1	16
381.055	1	9
381.397	1	13
381.739	1	-8
382.080	1	6
382.422	1	16
382.764	1	18
383.105	1	7
383.447	1	7
383.789	1	3
384.130	1	4
384.472	1	13
384.814	1	16
385.156	1	9
385.497	1	14
385.839	1	19
386.180	1	6
386.522	1	13
386.864	1	3
387.205	1	9
387.547	1	5
387.889	1	4
388.230	1	12
388.572	1	-3
388.914	1	6
389.255	1	9
389.597	1	11
389.939	1	12
390.280	1	2
390.622	1	4
390.963	1	-2
391.305	1	8
391.647	1	7
391.988	1	13
392.330	1	6
392.671	1	12
393.013	1	17
393.355	1	13
393.696	1	8
394.038	1	13
394.379	1	10
394.721	1	2
395.062	1	-3
395.404	1	-1
395.746	1	-4
396.087	1	12
396.429	1	5
396.770	1	19
397.112	1	3
397.453	1	7
397.795	1	6
398.136	1	1
398.478	1	6
398.819	1	7
399.161	1	11
399.503	1	12
399.844	1	5
400.186	1	12
400.527	1	13
400.869	1	1
401.210	1	4
401.552	1	7
401.893	1	10
402.235	1	6
402.576	1	7
402.918	1	3
403.259	1	10
403.601	1	15
403.942	1	5
404.284	1	12
404.625	1	1
404.967	1	7
405.308	1	-7
405.649	1	-3
405.991	1	8
406.332	1	2
406.674	1	0
407.015	1	13
407.357	1	15
407.698	1	7
408.040	1	22
408.381	1	2
408.722	1	14
409.064	1	13
409.405	1	0
409.747	1	7
410.088	1	13
410.430	1	9
410.771	1	9
411.112	1	8
411.454	1	14
411.795	1	7
412.137	1	12
412.478	1	7
412.819	1	7
413.161	1	9
413.502	1	14
413.844	1	26
414.185	1	6
414.526	1	1
414.868	1	7
415.209	1	6
415.550	1	9
415.892	1	7
416.233	1	8
416.575	1	6
416.916	1	8
417.257	1	2
417.599	1	11
417.940	1	2
418.281	1	12
418.623	1	9
418.964	1	17
419.305	1	17
419.647	1	7
419.988	1	21
420.329	1	18
420.671	1	17
421.012	1	0
421.353	1	16
421.695	1	13
422.036	1	20
422.377	1	4
422.718	1	7
423.060	1	18
423.401	1	9
423.742	1	17
424.084	1	12
424.425	1	18
424.766	1	6
425.107	1	14
425.449	1	7
425.790	1	7
426.131	1	10
426.472	1	21
426.814	1	4
427.155	1	16
427.496	1	7
427.837	1	12
428.179	1	16
428.520	1	16
428.861	1	16
429.202	1	0
429.544	1	5
429.885	1	8
430.226	1	-3
430.567	1	-1
430.909	1	3
431.250	1	6
431.591	1	13
431.932	1	4
432.273	1	10
432.615	1	9
432.956	1	6
433.297	1	2
433.638	1	11
433.979	1	10
434.320	1	12
434.662	1	7
435.003	1	11
435.344	1	12
435.685	1	7
436.026	1	6
436.368	1	4
436.709	1	0
437.050	1	1
437.391	1	7
437.732	1	13
438.073	1	10
438.414	1	10
438.756	1	6
439.097	1	8
439.438	1	6
439.779	1	4
440.120	1	8
440.461	1	5
440.802	1	6
441.143	1	11
441.485	1	9
441.826	1	-2
442.167	1	10
442.508	1	10
442.849	1	12
443.190	1	15
443.531	1	7
443.872	1	2
444.213	1	-10
444.554	1	13
444.895	1	-2
445.237	1	10
445.578	1	7
445.919	1	6
446.260	1	11
446.601	1	4
446.942	1	7
447.283	1	17
447.624	1	-2
447.965	1	3
448.306	1	3
448.647	1	3
448.988	1	11
449.329	1	14
449.670	1	6
450.011	1	1
450.352	1	7
450.693	1	10
451.034	1	10
451.375	1	0
451.716	1	4
452.057	1	4
452.398	1	10
452.739	1	6
453.080	1	6
453.421	1	13
453.762	1	11
454.103	1	8
454.444	1	5
454.785	1	6
455.126	1	3
455.467	1	7
455.808	1	12
456.149	1	3
456.490	1	4
456.831	1	5
457.172	1	2
457.513	1	10
457.854	1	8
458.195	1	8
458.536	1	9
458.877	1	11
459.218	1	11
459.559	1	5
459.899	1	-1
460.240	1	0
460.581	1	1
460.922	1	-1
461.263	1	10
461.604	1	-2
461.945	1	8
462.286	1	-3
462.627	1	7
462.968	1	15
463.309	1	6
463.649	1	2
463.990	1	12
464.331	1	10
464.672	1	11
465.013	1	4
465.354	1	10
465.695	1	5
466.036	1	13
466.376	1	25
466.717	1	3
467.058	1	7
467.399	1	4
467.740	1	20
468.081	1	6
468.422	1	2
468.762	1	14
469.103	1	-1
469.444	1	-4
469.785	1	2
470.126	1	2
470.467	1	7
470.807	1	6
471.148	1	4
471.489	1	6
471.830	1	15
472.171	1	15
472.511	1	2
472.852	1	11
473.193	1	7
473.534	1	8
473.875	1	10
474.215	1	9
474.556	1	1
474.897	1	-3
475.238	1	2
475.578	1	5
475.919	1	6
476.260	1	0
476.601	1	8
476.942	1	7
477.282	1	-6
477.623	1	1
477.964	1	9
478.305	1	9
478.645	1	6
478.986	1	8
479.327	1	-2
479.667	1	1
480.008	1	1
480.349	1	8
480.690	1	13
481.030	1	-3
481.371	1	0
481.712	1	15
482.053	1	17
482.393	1	12
482.734	1	12
483.075	1	14
483.415	1	11
483.756	1	-4
484.097	1	3
484.437	1	3
484.778	1	-3
485.119	1	3
485.459	1	-1
485.800	1	5
486.141	1	17
486.481	1	0
486.822	1	19
487.163	1	-1
487.503	1	3
487.844	1	-1
488.185	1	13
488.525	1	2
488.866	1	-2
489.207	1	12
489.547	1	2
489.888	1	10
490.228	1	3
490.569	1	2
490.910	1	8
491.250	1	11
491.591	1	13
491.932	1	16
492.272	1	-1
492.613	1	2
492.953	1	9
493.294	1	-9
493.635	1	10
493.975	1	17
494.316	1	-3
494.656	1	15
494.997	1	-5
495.337	1	5
495.678	1	-2
496.019	1	1
496.359	1	3
496.700	1	5
497.040	1	-1
497.381	1	5
497.721	1	-11
498.062	1	4
498.403	1	11
498.743	1	11
499.084	1	7
499.424	1	-3
499.765	1	4
500.105	1	9
500.446	1	3
500.786	1	3
501.127	1	7
501.467	1	10
501.808	1	8
502.148	1	3
502.489	1	-2
502.829	1	-2
503.170	1	13
503.510	1	6
503.851	1	11
504.191	1	7
504.532	1	9
504.872	1	-2
505.213	1	2
505.553	1	10
505.894	1	18
506.234	1	18
506.575	1	23
506.915	1	8
507.256	1	17
507.596	1	20
507.936	1	11
508.277	1	16
508.617	1	5
508.958	1	16
509.298	1	7
509.639	1	6
509.979	1	-1
510.319	1	12
510.660	1	11
511.000	1	7
511.341	1	17
511.681	1	14
512.022	1	-4
512.362	1	14
512.702	1	7
513.043	1	10
513.383	1	10
513.724	1	15
514.064	1	13
514.404	1	18
514.745	1	3
515.085	1	8
515.425	1	15
515.766	1	15
516.106	1	10
516.447	1	14
516.787	1	12
517.127	1	18
517.468	1	16
517.808	1	-1
518.148	1	20
518.489	1	14
518.829	1	11
519.169	1	1
519.510	1	9
519.850	1	5
520.190	1	4
520.531	1	11
520.871	1	15
521.211	1	10
521.552	1	6
521.892	1	10
522.232	1	20
522.573	1	13
522.913	1	10
523.253	1	11
523.593	1	13
523.934	1	9
524.274	1	13
524.614	1	19
524.955	1	8
525.295	1	15
525.635	1	10
525.975	1	15
526.316	1	6
526.656	1	12
526.996	1	10
527.337	1	13
527.677	1	12
528.017	1	8
528.357	1	10
528.698	1	16
529.038	1	9
529.378	1	11
529.718	1	11
530.058	1	12
530.399	1	9
530.739	1	9
531.079	1	9
531.419	1	12
531.760	1	14
532.100	1	22
532.440	1	10
532.780	1	14
533.120	1	9
533.461	1	13
533.801	1	9
534.141	1	19
534.481	1	30
534.821	1	21
535.162	1	15
535.502	1	20
535.842	1	5
536.182	1	19
536.522	1	4
536.862	1	7
537.203	1	13
537.543	1	16
537.883	1	10
538.223	1	24
538.563	1	2
538.903	1	0
539.243	1	19
539.584	1	2
539.924	1	5
540.264	1	11
540.604	1	19
540.944	1	9
541.284	1	10
541.624	1	13
541.964	1	8
542.305	1	18
542.645	1	8
542.985	1	7
543.325	1	15
543.665	1	13
544.005	1	11
544.345	1	7
544.685	1	5
545.025	1	18
545.365	1	12
545.705	1	13
546.045	1	15
546.386	1	5
546.726	1	12
547.066	1	8
547.406	1	5
547.746	1	8
548.086	1	10
548.426	1	6
548.766	1	14
549.106	1	-1
549.446	1	16
549.786	1	12
550.126	1	13
550.466	1	5
550.806	1	17
551.146	1	12
551.486	1	13
551.826	1	1
552.166	1	16
552.506	1	3
552.846	1	12
553.186	1	-3
553.526	1	16
553.866	1	11
554.206	1	15
554.546	1	13
554.886	1	11
555.226	1	7
555.566	1	11
555.906	1	-3
556.246	1	5
556.586	1	9
556.926	1	4
557.266	1	15
557.606	1	-2
557.946	1	14
558.286	1	4
558.626	1	5
558.966	1	13
559.306	1	12
559.646	1	17
559.986	1	8
560.325	1	12
560.665	1	10
561.005	1	-2
561.345	1	9
561.685	1	6
562.025	1	7
562.365	1	6
562.705	1	13
563.045	1	19
563.385	1	5
563.725	1	10
564.064	1	11
564.404	1	-1
564.744	1	26
565.084	1	7
565.424	1	1
565.764	1	7
566.104	1	17
566.444	1	11
566.783	1	2
567.123	1	11
567.463	1	6
567.803	1	12
568.143	1	-4
568.483	1	16
568.823	1	0
569.162	1	2
569.502	1	8
569.842	1	0
570.182	1	3
570.522	1	16
570.862	1	-1
571.201	1	4
571.541	1	12
571.881	1	7
572.221	1	18
572.561	1	12
572.900	1	25
573.240	1	-2
573.580	1	10
573.920	1	9
574.260	1	14
574.599	1	7
574.939	1	10
575.279	1	-3
575.619	1	4
575.959	1	4
576.298	1	-1
576.638	1	7
576.978	1	5
577.318	1	14
577.657	1	3
577.997	1	11
578.337	1	1
578.677	1	12
579.016	1	1
579.356	1	8
579.696	1	7
580.036	1	19
580.375	1	12
580.715	1	13
581.055	1	9
581.394	1	11
581.734	1	7
582.074	1	2
582.414	1	0
582.753	1	4
583.093	1	18
583.433	1	19
583.772	1	6
584.112	1	12
584.452	1	3
584.791	1	12
585.131	1	9
585.471	1	-1
585.811	1	5
586.150	1	7
586.490	1	5
586.830	1	9
587.169	1	8
587.509	1	7
587.849	1	9
588.188	1	2
588.528	1	1
588.867	1	13
589.207	1	13
589.547	1	5
589.886	1	-3
590.226	1	-3
590.566	1	6
590.905	1	4
591.245	1	-2
591.585	1	11
591.924	1	3
592.264	1	0
592.603	1	-10
592.943	1	-4
593.283	1	11
593.622	1	3
593.962	1	12
594.301	1	5
594.641	1	9
594.981	1	8
595.320	1	11
595.660	1	12
595.999	1	2
596.339	1	7
596.678	1	-6
597.018	1	-1
597.358	1	9
597.697	1	-6
598.037	1	-2
598.376	1	2
598.716	1	4
599.055	1	7
599.395	1	7
599.734	1	8
600.074	1	2
600.413	1	7
600.753	1	11
601.092	1	8
601.432	1	-1
601.771	1	6
602.111	1	6
602.451	1	3
602.790	1	7
603.130	1	15
603.469	1	1
603.809	1	9
604.148	1	-5
604.487	1	7
604.827	1	15
605.166	1	1
605.506	1	3
605.845	1	13
606.185	1	5
606.524	1	-3
606.864	1	9
607.203	1	6
607.543	1	6
607.882	1	12
608.222	1	2
608.561	1	11
608.901	1	10
609.240	1	6
609.579	1	-2
609.919	1	-1
610.258	1	4
610.598	1	2
610.937	1	9
611.277	1	8
611.616	1	16
611.955	1	-2
612.295	1	12
612.634	1	7
612.974	1	1
613.313	1	25
613.652	1	15
613.992	1	3
614.331	1	11
614.671	1	10
615.010	1	-2
615.349	1	2
615.689	1	4
616.028	1	18
616.368	1	14
616.707	1	-1
617.046	1	3
617.386	1	9
617.725	1	10
618.064	1	-2
618.404	1	10
618.743	1	4
619.082	1	18
619.422	1	19
619.761	1	-2
620.100	1	13
620.440	1	9
620.779	1	10
621.118	1	13
621.458	1	3
621.797	1	5
622.136	1	0
622.476	1	5
622.815	1	8
623.154	1	-6
623.494	1	-5
623.833	1	-2
624.172	1	11
624.511	1	5
624.851	1	3
625.190	1	-2
625.529	1	-2
625.869	1	10
626.208	1	-4
626.547	1	7
626.886	1	-1
627.226	1	12
627.565	1	10
627.904	1	-2
628.243	1	2
628.583	1	13
628.922	1	8
629.261	1	5
629.600	1	3
629.940	1	8
630.279	1	6
630.618	1	11
630.957	1	13
631.297	1	7
631.636	1	11
631.975	1	4
632.314	1	14
632.653	1	2
632.993	1	5
633.332	1	10
633.671	1	9
634.010	1	-3
634.349	1	17
634.689	1	9
635.028	1	-1
635.367	1	11
635.706	1	-4
636.045	1	-1
636.384	1	9
636.724	1	6
637.063	1	-1
637.402	1	1
637.741	1	-4
638.080	1	9
638.419	1	4
638.759	1	16
639.098	1	6
639.437	1	5
639.776	1	-3
640.115	1	-5
640.454	1	-3
640.793	1	-3
641.132	1	2
641.472	1	16
641.811	1	-4
642.150	1	-7
642.489	1	5
642.828	1	12
643.167	1	9
643.506	1	8
643.845	1	14
644.184	1	8
644.524	1	4
644.863	1	-2
645.202	1	9
645.541	1	3
645.880	1	8
646.219	1	7
646.558	1	-3
646.897	1	-3
647.236	1	-8
647.575	1	14
647.914	1	-3
648.253	1	8
648.592	1	9
648.931	1	-4
649.270	1	5
649.610	1	6
649.949	1	-2
650.288	1	3
650.627	1	-1
650.966	1	7
651.305	1	5
651.644	1	8
651.983	1	-2
652.322	1	-1
652.661	1	13
653.000	1	-2
653.339	1	-4
653.678	1	15
654.017	1	15
654.356	1	7
654.695	1	15
655.034	1	-8
655.373	1	6
655.712	1	6
656.051	1	-8
656.390	1	4
656.729	1	8
657.068	1	6
657.406	1	-6
657.745	1	15
658.084	1	0
658.423	1	11
658.762	1	-3
659.101	1	5
659.440	1	6
659.779	1	14
660.118	1	1
660.457	1	-1
660.796	1	22
661.135	1	14
661.474	1	14
661.813	1	5
662.152	1	7
662.491	1	3
662.829	1	16
663.168	1	-1
663.507	1	7
663.846	1	0
664.185	1	-3
664.524	1	10
664.863	1	-5
665.202	1	7
665.541	1	7
665.879	1	10
666.218	1	13
666.557	1	-3
666.896	1	2
667.235	1	-8
667.574	1	3
667.913	1	11
668.251	1	-6
668.590	1	-2
668.929	1	-2
669.268	1	6
669.607	1	-11
669.946	1	1
670.285	1	2
670.623	1	9
670.962	1	-2
671.301	1	4
671.640	1	6
671.979	1	-7
672.317	1	2
672.656	1	7
672.995	1	7
673.334	1	7
673.673	1	11
674.011	1	5
674.350	1	2
674.689	1	-5
675.028	1	8
675.367	1	4
675.705	1	-15
676.044	1	0
676.383	1	-4
676.722	1	5
677.060	1	4
677.399	1	12
677.738	1	2
678.077	1	6
678.416	1	5
678.754	1	2
679.093	1	11
679.432	1	3
679.771	1	8
680.109	1	2
680.448	1	-1
680.787	1	-7
681.125	1	12
681.464	1	-2
681.803	1	0
682.142	1	-1
682.480	1	-5
682.819	1	1
683.158	1	-2
683.496	1	-8
683.835	1	7
684.174	1	8
684.512	1	4
684.851	1	6
685.190	1	2
685.529	1	-11
685.867	1	2
686.206	1	0
686.545	1	-3
686.883	1	12
687.222	1	0
687.561	1	5
687.899	1	3
688.238	1	9
688.577	1	6
688.746	1	3