File: Data/GaN_150K_450ms/GaN_sample D_spot15_UVVIS_150 K_200um_450 ms 2x2mm1_60.txt
340.368	1	-3
340.710	1	3
341.052	1	11
341.394	1	-8
341.737	1	12
342.079	1	-1
342.421	1	-2
342.763	1	3
343.105	1	5
343.447	1	7
343.789	1	14
344.131	1	-1
344.473	1	7
344.815	1	5
345.157	1	20
345.499	1	8
345.841	1	12
346.183	1	7
346.526	1	9
346.868	1	6
347.210	1	2
347.552	1	18
347.894	1	-4
348.236	1	8
348.578	1	16
348.920	1	9
349.262	1	14
349.604	1	-4
349.946	1	8
350.288	1	9
350.630	1	12
350.972	1	16
351.314	1	12
351.656	1	14
351.998	1	10
352.340	1	5
352.682	1	0
353.024	1	21
353.366	1	15
353.708	1	6
354.050	1	2
354.392	1	8
354.734	1	23
355.076	1	25
355.418	1	18
355.760	1	18
356.102	1	22
356.444	1	21
356.785	1	16
357.127	1	34
357.469	1	29
357.811	1	23
358.153	1	34
358.495	1	32
358.837	1	45
359.179	1	34
359.521	1	48
359.863	1	45
360.205	1	59
360.547	1	61
360.889	1	69
361.231	1	81
361.572	1	86
361.914	1	88
362.256	1	110
362.598	1	121
362.940	1	126
363.282	1	135
363.624	1	159
363.966	1	182
364.308	1	216
364.649	1	227
364.991	1	251
365.333	1	300
365.675	1	341
366.017	1	351
366.359	1	368
366.701	1	403
367.042	1	432
367.384	1	466
367.726	1	460
368.068	1	472
368.410	1	503
368.752	1	485
369.093	1	467
369.435	1	440
369.777	1	415
370.119	1	402
370.461	1	352
370.803	1	337
371.144	1	324
371.486	1	307
371.828	1	281
372.170	1	270
372.512	1	240
372.853	1	237
373.195	1	228
373.537	1	197
373.879	1	203
374.220	1	203
374.562	1	192
374.904	1	165
375.246	1	154
375.588	1	144
375.929	1	144
376.271	1	138
376.613	1	120
376.955	1	121
377.296	1	129
377.638	1	119
377.980	1	113
378.321	1	103
378.663	1	99
379.005	1	83
379.347	1	76
379.688	1	84
380.030	1	85
380.372	1	82
380.714	1	75
381.055	1	72
381.397	1	62
381.739	1	59
382.080	1	65
382.422	1	75
382.764	1	59
383.105	1	67
383.447	1	58
383.789	1	55
384.130	1	62
384.472	1	53
384.814	1	65
385.156	1	58
385.497	1	56
385.839	1	51
386.180	1	56
386.522	1	59
386.864	1	56
387.205	1	50
387.547	1	54
387.889	1	51
388.230	1	52
388.572	1	31
388.914	1	44
389.255	1	41
389.597	1	41
389.939	1	52
390.280	1	46
390.622	1	43
390.963	1	44
391.305	1	41
391.647	1	29
391.988	1	41
392.330	1	29
392.671	1	47
393.013	1	38
393.355	1	45
393.696	1	41
394.038	1	34
394.379	1	36
394.721	1	30
395.062	1	30
395.404	1	35
395.746	1	27
396.087	1	35
396.429	1	31
396.770	1	35
397.112	1	38
397.453	1	28
397.795	1	30
398.136	1	42
398.478	1	27
398.819	1	34
399.161	1	31
399.503	1	32
399.844	1	30
400.186	1	30
400.527	1	25
400.869	1	12
401.210	1	26
401.552	1	35
401.893	1	30
402.235	1	36
402.576	1	26
402.918	1	17
403.259	1	28
403.601	1	30
403.942	1	20
404.284	1	38
404.625	1	34
404.967	1	20
405.308	1	9
405.649	1	29
405.991	1	16
406.332	1	25
406.674	1	28
407.015	1	32
407.357	1	22
407.698	1	34
408.040	1	37
408.381	1	20
408.722	1	25
409.064	1	27
409.405	1	23
409.747	1	22
410.088	1	24
410.430	1	29
410.771	1	27
411.112	1	19
411.454	1	21
411.795	1	20
412.137	1	15
412.478	1	29
412.819	1	27
413.161	1	16
413.502	1	20
413.844	1	30
414.185	1	15
414.526	1	3
414.868	1	17
415.209	1	13
415.550	1	26
415.892	1	24
416.233	1	12
416.575	1	15
416.916	1	18
417.257	1	21
417.599	1	31
417.940	1	19
418.281	1	28
418.623	1	22
418.964	1	35
419.305	1	28
419.647	1	18
419.988	1	22
420.329	1	17
420.671	1	31
421.012	1	12
421.353	1	22
421.695	1	25
422.036	1	30
422.377	1	19
422.718	1	24
423.060	1	27
423.401	1	12
423.742	1	21
424.084	1	18
424.425	1	26
424.766	1	17
425.107	1	17
425.449	1	17
425.790	1	23
426.131	1	10
426.472	1	30
426.814	1	14
427.155	1	25
427.496	1	19
427.837	1	14
428.179	1	30
428.520	1	26
428.861	1	22
429.202	1	9
429.544	1	26
429.885	1	21
430.226	1	2
430.567	1	9
430.909	1	13
431.250	1	26
431.591	1	22
431.932	1	16
432.273	1	26
432.615	1	21
432.956	1	22
433.297	1	12
433.638	1	19
433.979	1	12
434.320	1	14
434.662	1	22
435.003	1	24
435.344	1	16
435.685	1	21
436.026	1	16
436.368	1	6
436.709	1	4
437.050	1	11
437.391	1	10
437.732	1	16
438.073	1	1
438.414	1	18
438.756	1	17
439.097	1	17
439.438	1	14
439.779	1	18
440.120	1	13
440.461	1	15
440.802	1	14
441.143	1	22
441.485	1	11
441.826	1	13
442.167	1	24
442.508	1	6
442.849	1	18
443.190	1	15
443.531	1	27
443.872	1	5
444.213	1	13
444.554	1	16
444.895	1	14
445.237	1	21
445.578	1	14
445.919	1	12
446.260	1	22
446.601	1	12
446.942	1	11
447.283	1	24
447.624	1	10
447.965	1	18
448.306	1	11
448.647	1	5
448.988	1	19
449.329	1	23
449.670	1	15
450.011	1	11
450.352	1	9
450.693	1	21
451.034	1	18
451.375	1	10
451.716	1	17
452.057	1	11
452.398	1	22
452.739	1	21
453.080	1	16
453.421	1	19
453.762	1	21
454.103	1	14
454.444	1	21
454.785	1	2
455.126	1	17
455.467	1	13
455.808	1	27
456.149	1	4
456.490	1	6
456.831	1	8
457.172	1	21
457.513	1	16
457.854	1	13
458.195	1	23
458.536	1	20
458.877	1	21
459.218	1	11
459.559	1	13
459.899	1	11
460.240	1	8
460.581	1	5
460.922	1	11
461.263	1	29
461.604	1	-1
461.945	1	16
462.286	1	15
462.627	1	20
462.968	1	17
463.309	1	10
463.649	1	0
463.990	1	15
464.331	1	24
464.672	1	14
465.013	1	9
465.354	1	27
465.695	1	8
466.036	1	20
466.376	1	25
466.717	1	11
467.058	1	22
467.399	1	-3
467.740	1	17
468.081	1	10
468.422	1	9
468.762	1	10
469.103	1	17
469.444	1	13
469.785	1	10
470.126	1	16
470.467	1	4
470.807	1	8
471.148	1	9
471.489	1	19
471.830	1	20
472.171	1	22
472.511	1	14
472.852	1	27
473.193	1	15
473.534	1	18
473.875	1	14
474.215	1	14
474.556	1	5
474.897	1	14
475.238	1	13
475.578	1	9
475.919	1	12
476.260	1	11
476.601	1	14
476.942	1	18
477.282	1	10
477.623	1	10
477.964	1	18
478.305	1	23
478.645	1	14
478.986	1	20
479.327	1	19
479.667	1	11
480.008	1	27
480.349	1	25
480.690	1	30
481.030	1	5
481.371	1	12
481.712	1	25
482.053	1	39
482.393	1	23
482.734	1	20
483.075	1	37
483.415	1	25
483.756	1	25
484.097	1	20
484.437	1	21
484.778	1	17
485.119	1	21
485.459	1	18
485.800	1	21
486.141	1	28
486.481	1	26
486.822	1	22
487.163	1	21
487.503	1	25
487.844	1	21
488.185	1	20
488.525	1	20
488.866	1	29
489.207	1	31
489.547	1	26
489.888	1	46
490.228	1	27
490.569	1	32
490.910	1	41
491.250	1	44
491.591	1	42
491.932	1	41
492.272	1	25
492.613	1	34
492.953	1	42
493.294	1	31
493.635	1	38
493.975	1	57
494.316	1	38
494.656	1	41
494.997	1	33
495.337	1	40
495.678	1	41
496.019	1	32
496.359	1	43
496.700	1	42
497.040	1	36
497.381	1	45
497.721	1	35
498.062	1	38
498.403	1	49
498.743	1	44
499.084	1	59
499.424	1	54
499.765	1	57
500.105	1	60
500.446	1	49
500.786	1	44
501.127	1	66
501.467	1	65
501.808	1	55
502.148	1	74
502.489	1	53
502.829	1	55
503.170	1	58
503.510	1	56
503.851	1	75
504.191	1	58
504.532	1	71
504.872	1	63
505.213	1	55
505.553	1	69
505.894	1	66
506.234	1	71
506.575	1	86
506.915	1	63
507.256	1	76
507.596	1	79
507.936	1	80
508.277	1	73
508.617	1	75
508.958	1	79
509.298	1	77
509.639	1	69
509.979	1	70
510.319	1	78
510.660	1	72
511.000	1	74
511.341	1	84
511.681	1	72
512.022	1	70
512.362	1	85
512.702	1	75
513.043	1	82
513.383	1	77
513.724	1	88
514.064	1	87
514.404	1	89
514.745	1	78
515.085	1	96
515.425	1	86
515.766	1	87
516.106	1	83
516.447	1	103
516.787	1	91
517.127	1	92
517.468	1	98
517.808	1	88
518.148	1	106
518.489	1	86
518.829	1	90
519.169	1	86
519.510	1	93
519.850	1	89
520.190	1	93
520.531	1	102
520.871	1	96
521.211	1	95
521.552	1	96
521.892	1	94
522.232	1	98
522.573	1	91
522.913	1	106
523.253	1	105
523.593	1	109
523.934	1	101
524.274	1	99
524.614	1	108
524.955	1	97
525.295	1	104
525.635	1	102
525.975	1	96
526.316	1	105
526.656	1	101
526.996	1	95
527.337	1	113
527.677	1	115
528.017	1	96
528.357	1	110
528.698	1	103
529.038	1	105
529.378	1	103
529.718	1	100
530.058	1	103
530.399	1	111
530.739	1	120
531.079	1	102
531.419	1	107
531.760	1	117
532.100	1	121
532.440	1	109
532.780	1	104
533.120	1	106
533.461	1	105
533.801	1	102
534.141	1	95
534.481	1	127
534.821	1	91
535.162	1	105
535.502	1	103
535.842	1	93
536.182	1	95
536.522	1	90
536.862	1	86
537.203	1	88
537.543	1	96
537.883	1	101
538.223	1	102
538.563	1	92
538.903	1	86
539.243	1	95
539.584	1	90
539.924	1	88
540.264	1	105
540.604	1	97
540.944	1	97
541.284	1	86
541.624	1	88
541.964	1	86
542.305	1	92
542.645	1	73
542.985	1	83
543.325	1	94
543.665	1	93
544.005	1	84
544.345	1	98
544.685	1	83
545.025	1	98
545.365	1	89
545.705	1	94
546.045	1	95
546.386	1	93
546.726	1	86
547.066	1	88
547.406	1	87
547.746	1	84
548.086	1	92
548.426	1	98
548.766	1	91
549.106	1	89
549.446	1	96
549.786	1	95
550.126	1	94
550.466	1	82
550.806	1	98
551.146	1	89
551.486	1	79
551.826	1	76
552.166	1	89
552.506	1	93
552.846	1	82
553.186	1	80
553.526	1	76
553.866	1	75
554.206	1	82
554.546	1	72
554.886	1	72
555.226	1	64
555.566	1	71
555.906	1	77
556.246	1	76
556.586	1	76
556.926	1	69
557.266	1	79
557.606	1	55
557.946	1	75
558.286	1	62
558.626	1	68
558.966	1	70
559.306	1	74
559.646	1	72
559.986	1	71
560.325	1	65
560.665	1	76
561.005	1	71
561.345	1	62
561.685	1	70
562.025	1	74
562.365	1	69
562.705	1	79
563.045	1	72
563.385	1	67
563.725	1	63
564.064	1	60
564.404	1	55
564.744	1	67
565.084	1	56
565.424	1	53
565.764	1	60
566.104	1	56
566.444	1	72
566.783	1	63
567.123	1	55
567.463	1	54
567.803	1	68
568.143	1	49
568.483	1	61
568.823	1	55
569.162	1	52
569.502	1	57
569.842	1	51
570.182	1	49
570.522	1	48
570.862	1	43
571.201	1	61
571.541	1	59
571.881	1	59
572.221	1	55
572.561	1	54
572.900	1	52
573.240	1	45
573.580	1	53
573.920	1	47
574.260	1	40
574.599	1	56
574.939	1	46
575.279	1	48
575.619	1	46
575.959	1	60
576.298	1	34
576.638	1	53
576.978	1	54
577.318	1	49
577.657	1	37
577.997	1	41
578.337	1	52
578.677	1	47
579.016	1	44
579.356	1	44
579.696	1	42
580.036	1	48
580.375	1	45
580.715	1	58
581.055	1	55
581.394	1	50
581.734	1	50
582.074	1	46
582.414	1	40
582.753	1	49
583.093	1	39
583.433	1	50
583.772	1	49
584.112	1	53
584.452	1	41
584.791	1	42
585.131	1	53
585.471	1	41
585.811	1	39
586.150	1	46
586.490	1	44
586.830	1	42
587.169	1	41
587.509	1	42
587.849	1	58
588.188	1	36
588.528	1	30
588.867	1	40
589.207	1	30
589.547	1	47
589.886	1	37
590.226	1	39
590.566	1	25
590.905	1	30
591.245	1	35
591.585	1	24
591.924	1	25
592.264	1	31
592.603	1	19
592.943	1	27
593.283	1	30
593.622	1	25
593.962	1	43
594.301	1	26
594.641	1	29
594.981	1	37
595.320	1	36
595.660	1	39
595.999	1	32
596.339	1	30
596.678	1	23
597.018	1	26
597.358	1	26
597.697	1	27
598.037	1	35
598.376	1	25
598.716	1	35
599.055	1	21
599.395	1	36
599.734	1	36
600.074	1	22
600.413	1	25
600.753	1	31
601.092	1	25
601.432	1	25
601.771	1	36
602.111	1	36
602.451	1	23
602.790	1	22
603.130	1	26
603.469	1	35
603.809	1	30
604.148	1	31
604.487	1	24
604.827	1	33
605.166	1	26
605.506	1	15
605.845	1	35
606.185	1	16
606.524	1	22
606.864	1	39
607.203	1	33
607.543	1	26
607.882	1	25
608.222	1	27
608.561	1	28
608.901	1	32
609.240	1	29
609.579	1	17
609.919	1	18
610.258	1	33
610.598	1	20
610.937	1	23
611.277	1	27
611.616	1	31
611.955	1	18
612.295	1	19
612.634	1	30
612.974	1	17
613.313	1	23
613.652	1	36
613.992	1	15
614.331	1	30
614.671	1	17
615.010	1	28
615.349	1	22
615.689	1	20
616.028	1	21
616.368	1	27
616.707	1	23
617.046	1	6
617.386	1	28
617.725	1	27
618.064	1	14
618.404	1	6
618.743	1	24
619.082	1	27
619.422	1	30
619.761	1	16
620.100	1	18
620.440	1	30
620.779	1	22
621.118	1	32
621.458	1	16
621.797	1	16
622.136	1	20
622.476	1	20
622.815	1	20
623.154	1	14
623.494	1	4
623.833	1	16
624.172	1	21
624.511	1	14
624.851	1	13
625.190	1	11
625.529	1	15
625.869	1	18
626.208	1	0
626.547	1	14
626.886	1	19
627.226	1	24
627.565	1	24
627.904	1	19
628.243	1	22
628.583	1	22
628.922	1	21
629.261	1	18
629.600	1	16
629.940	1	22
630.279	1	25
630.618	1	24
630.957	1	11
631.297	1	20
631.636	1	22
631.975	1	23
632.314	1	7
632.653	1	17
632.993	1	16
633.332	1	19
633.671	1	28
634.010	1	14
634.349	1	22
634.689	1	16
635.028	1	11
635.367	1	24
635.706	1	21
636.045	1	3
636.384	1	21
636.724	1	14
637.063	1	11
637.402	1	21
637.741	1	15
638.080	1	19
638.419	1	11
638.759	1	21
639.098	1	12
639.437	1	17
639.776	1	22
640.115	1	15
640.454	1	7
640.793	1	15
641.132	1	13
641.472	1	22
641.811	1	12
642.150	1	11
642.489	1	12
642.828	1	27
643.167	1	22
643.506	1	15
643.845	1	19
644.184	1	25
644.524	1	10
644.863	1	14
645.202	1	18
645.541	1	6
645.880	1	22
646.219	1	19
646.558	1	10
646.897	1	9
647.236	1	9
647.575	1	25
647.914	1	15
648.253	1	18
648.592	1	18
648.931	1	23
649.270	1	20
649.610	1	24
649.949	1	11
650.288	1	17
650.627	1	11
650.966	1	16
651.305	1	18
651.644	1	30
651.983	1	8
652.322	1	15
652.661	1	11
653.000	1	9
653.339	1	10
653.678	1	26
654.017	1	19
654.356	1	19
654.695	1	25
655.034	1	14
655.373	1	6
655.712	1	15
656.051	1	8
656.390	1	8
656.729	1	14
657.068	1	12
657.406	1	11
657.745	1	31
658.084	1	17
658.423	1	16
658.762	1	7
659.101	1	10
659.440	1	12
659.779	1	7
660.118	1	13
660.457	1	18
660.796	1	22
661.135	1	8
661.474	1	17
661.813	1	14
662.152	1	3
662.491	1	16
662.829	1	20
663.168	1	17
663.507	1	16
663.846	1	8
664.185	1	15
664.524	1	24
664.863	1	3
665.202	1	13
665.541	1	10
665.879	1	20
666.218	1	18
666.557	1	-1
666.896	1	15
667.235	1	10
667.574	1	12
667.913	1	16
668.251	1	6
668.590	1	20
668.929	1	7
669.268	1	18
669.607	1	9
669.946	1	11
670.285	1	14
670.623	1	18
670.962	1	6
671.301	1	13
671.640	1	20
671.979	1	16
672.317	1	20
672.656	1	14
672.995	1	17
673.334	1	12
673.673	1	19
674.011	1	15
674.350	1	11
674.689	1	6
675.028	1	20
675.367	1	13
675.705	1	5
676.044	1	17
676.383	1	12
676.722	1	12
677.060	1	18
677.399	1	17
677.738	1	10
678.077	1	15
678.416	1	15
678.754	1	11
679.093	1	17
679.432	1	10
679.771	1	7
680.109	1	15
680.448	1	9
680.787	1	4
681.125	1	11
681.464	1	15
681.803	1	4
682.142	1	13
682.480	1	6
682.819	1	11
683.158	1	15
683.496	1	14
683.835	1	19
684.174	1	18
684.512	1	15
684.851	1	16
685.190	1	15
685.529	1	16
685.867	1	14
686.206	1	2
686.545	1	14
686.883	1	21
687.222	1	19
687.561	1	21
687.899	1	17
688.238	1	17
688.577	1	10
688.746	1	12