File: Data/GaN_150K_450ms/GaN_sample D_spot15_UVVIS_150 K_200um_450 ms 2x2mm1_154.txt
340.368	1	5
340.710	1	0
341.052	1	3
341.394	1	-11
341.737	1	2
342.079	1	5
342.421	1	7
342.763	1	-6
343.105	1	8
343.447	1	2
343.789	1	4
344.131	1	-12
344.473	1	-2
344.815	1	6
345.157	1	7
345.499	1	8
345.841	1	5
346.183	1	8
346.526	1	10
346.868	1	0
347.210	1	-4
347.552	1	9
347.894	1	-3
348.236	1	-5
348.578	1	14
348.920	1	1
349.262	1	11
349.604	1	0
349.946	1	6
350.288	1	3
350.630	1	0
350.972	1	17
351.314	1	2
351.656	1	2
351.998	1	3
352.340	1	13
352.682	1	-8
353.024	1	17
353.366	1	13
353.708	1	6
354.050	1	-9
354.392	1	9
354.734	1	10
355.076	1	17
355.418	1	0
355.760	1	5
356.102	1	7
356.444	1	11
356.785	1	11
357.127	1	18
357.469	1	15
357.811	1	3
358.153	1	3
358.495	1	-2
358.837	1	17
359.179	1	15
359.521	1	16
359.863	1	4
360.205	1	11
360.547	1	12
360.889	1	10
361.231	1	15
361.572	1	11
361.914	1	24
362.256	1	17
362.598	1	22
362.940	1	16
363.282	1	9
363.624	1	15
363.966	1	6
364.308	1	30
364.649	1	9
364.991	1	25
365.333	1	31
365.675	1	36
366.017	1	32
366.359	1	28
366.701	1	34
367.042	1	42
367.384	1	32
367.726	1	40
368.068	1	44
368.410	1	26
368.752	1	49
369.093	1	35
369.435	1	45
369.777	1	43
370.119	1	44
370.461	1	31
370.803	1	25
371.144	1	31
371.486	1	39
371.828	1	25
372.170	1	14
372.512	1	20
372.853	1	31
373.195	1	21
373.537	1	13
373.879	1	20
374.220	1	24
374.562	1	25
374.904	1	35
375.246	1	24
375.588	1	17
375.929	1	22
376.271	1	9
376.613	1	22
376.955	1	19
377.296	1	19
377.638	1	10
377.980	1	7
378.321	1	13
378.663	1	19
379.005	1	11
379.347	1	8
379.688	1	16
380.030	1	19
380.372	1	15
380.714	1	6
381.055	1	8
381.397	1	7
381.739	1	4
382.080	1	13
382.422	1	14
382.764	1	2
383.105	1	11
383.447	1	12
383.789	1	7
384.130	1	15
384.472	1	6
384.814	1	11
385.156	1	12
385.497	1	25
385.839	1	18
386.180	1	8
386.522	1	14
386.864	1	5
387.205	1	11
387.547	1	13
387.889	1	9
388.230	1	7
388.572	1	-1
388.914	1	8
389.255	1	-1
389.597	1	11
389.939	1	17
390.280	1	7
390.622	1	1
390.963	1	-3
391.305	1	5
391.647	1	7
391.988	1	4
392.330	1	-2
392.671	1	11
393.013	1	19
393.355	1	23
393.696	1	10
394.038	1	0
394.379	1	8
394.721	1	8
395.062	1	0
395.404	1	8
395.746	1	5
396.087	1	6
396.429	1	5
396.770	1	0
397.112	1	10
397.453	1	-2
397.795	1	4
398.136	1	10
398.478	1	-1
398.819	1	11
399.161	1	1
399.503	1	16
399.844	1	-2
400.186	1	0
400.527	1	13
400.869	1	8
401.210	1	3
401.552	1	11
401.893	1	7
402.235	1	14
402.576	1	7
402.918	1	-4
403.259	1	-3
403.601	1	14
403.942	1	8
404.284	1	19
404.625	1	3
404.967	1	13
405.308	1	-8
405.649	1	5
405.991	1	7
406.332	1	1
406.674	1	1
407.015	1	20
407.357	1	12
407.698	1	4
408.040	1	19
408.381	1	-3
408.722	1	11
409.064	1	10
409.405	1	8
409.747	1	0
410.088	1	8
410.430	1	12
410.771	1	14
411.112	1	9
411.454	1	5
411.795	1	4
412.137	1	8
412.478	1	8
412.819	1	15
413.161	1	10
413.502	1	19
413.844	1	7
414.185	1	9
414.526	1	11
414.868	1	4
415.209	1	9
415.550	1	1
415.892	1	13
416.233	1	5
416.575	1	-6
416.916	1	4
417.257	1	-2
417.599	1	14
417.940	1	2
418.281	1	17
418.623	1	13
418.964	1	22
419.305	1	14
419.647	1	5
419.988	1	18
420.329	1	12
420.671	1	20
421.012	1	7
421.353	1	20
421.695	1	7
422.036	1	15
422.377	1	0
422.718	1	13
423.060	1	14
423.401	1	10
423.742	1	18
424.084	1	9
424.425	1	21
424.766	1	6
425.107	1	4
425.449	1	11
425.790	1	14
426.131	1	5
426.472	1	9
426.814	1	9
427.155	1	21
427.496	1	15
427.837	1	-3
428.179	1	20
428.520	1	12
428.861	1	12
429.202	1	0
429.544	1	8
429.885	1	11
430.226	1	-4
430.567	1	-8
430.909	1	0
431.250	1	13
431.591	1	16
431.932	1	8
432.273	1	2
432.615	1	-4
432.956	1	16
433.297	1	6
433.638	1	11
433.979	1	1
434.320	1	7
434.662	1	17
435.003	1	14
435.344	1	3
435.685	1	7
436.026	1	4
436.368	1	4
436.709	1	5
437.050	1	2
437.391	1	7
437.732	1	15
438.073	1	5
438.414	1	17
438.756	1	4
439.097	1	10
439.438	1	9
439.779	1	15
440.120	1	9
440.461	1	15
440.802	1	6
441.143	1	8
441.485	1	5
441.826	1	9
442.167	1	10
442.508	1	6
442.849	1	6
443.190	1	12
443.531	1	8
443.872	1	3
444.213	1	0
444.554	1	19
444.895	1	-4
445.237	1	15
445.578	1	-4
445.919	1	8
446.260	1	17
446.601	1	17
446.942	1	6
447.283	1	18
447.624	1	8
447.965	1	9
448.306	1	9
448.647	1	4
448.988	1	8
449.329	1	6
449.670	1	8
450.011	1	7
450.352	1	-7
450.693	1	14
451.034	1	6
451.375	1	4
451.716	1	11
452.057	1	6
452.398	1	13
452.739	1	7
453.080	1	12
453.421	1	5
453.762	1	4
454.103	1	11
454.444	1	-2
454.785	1	11
455.126	1	1
455.467	1	6
455.808	1	10
456.149	1	-5
456.490	1	-5
456.831	1	1
457.172	1	7
457.513	1	3
457.854	1	11
458.195	1	14
458.536	1	7
458.877	1	5
459.218	1	2
459.559	1	3
459.899	1	14
460.240	1	-6
460.581	1	-3
460.922	1	1
461.263	1	14
461.604	1	10
461.945	1	7
462.286	1	-3
462.627	1	1
462.968	1	12
463.309	1	7
463.649	1	-2
463.990	1	-3
464.331	1	13
464.672	1	13
465.013	1	1
465.354	1	10
465.695	1	4
466.036	1	6
466.376	1	14
466.717	1	-10
467.058	1	4
467.399	1	9
467.740	1	25
468.081	1	13
468.422	1	4
468.762	1	3
469.103	1	10
469.444	1	4
469.785	1	1
470.126	1	6
470.467	1	2
470.807	1	11
471.148	1	-10
471.489	1	11
471.830	1	2
472.171	1	5
472.511	1	10
472.852	1	3
473.193	1	-3
473.534	1	5
473.875	1	6
474.215	1	8
474.556	1	-6
474.897	1	-8
475.238	1	11
475.578	1	-7
475.919	1	3
476.260	1	1
476.601	1	3
476.942	1	7
477.282	1	3
477.623	1	-1
477.964	1	2
478.305	1	4
478.645	1	4
478.986	1	10
479.327	1	4
479.667	1	8
480.008	1	12
480.349	1	7
480.690	1	17
481.030	1	9
481.371	1	-11
481.712	1	3
482.053	1	14
482.393	1	3
482.734	1	8
483.075	1	9
483.415	1	0
483.756	1	11
484.097	1	7
484.437	1	12
484.778	1	6
485.119	1	0
485.459	1	3
485.800	1	-1
486.141	1	4
486.481	1	-3
486.822	1	8
487.163	1	-6
487.503	1	2
487.844	1	0
488.185	1	4
488.525	1	3
488.866	1	5
489.207	1	9
489.547	1	8
489.888	1	17
490.228	1	0
490.569	1	8
490.910	1	13
491.250	1	14
491.591	1	9
491.932	1	8
492.272	1	0
492.613	1	-1
492.953	1	6
493.294	1	-3
493.635	1	-6
493.975	1	9
494.316	1	0
494.656	1	5
494.997	1	1
495.337	1	6
495.678	1	-3
496.019	1	8
496.359	1	2
496.700	1	9
497.040	1	1
497.381	1	3
497.721	1	1
498.062	1	3
498.403	1	16
498.743	1	8
499.084	1	11
499.424	1	6
499.765	1	4
500.105	1	19
500.446	1	1
500.786	1	2
501.127	1	9
501.467	1	7
501.808	1	4
502.148	1	2
502.489	1	-2
502.829	1	5
503.170	1	12
503.510	1	4
503.851	1	12
504.191	1	2
504.532	1	16
504.872	1	1
505.213	1	5
505.553	1	5
505.894	1	12
506.234	1	11
506.575	1	21
506.915	1	6
507.256	1	14
507.596	1	12
507.936	1	22
508.277	1	13
508.617	1	12
508.958	1	13
509.298	1	-4
509.639	1	-4
509.979	1	-1
510.319	1	17
510.660	1	0
511.000	1	6
511.341	1	22
511.681	1	9
512.022	1	1
512.362	1	4
512.702	1	2
513.043	1	14
513.383	1	1
513.724	1	2
514.064	1	10
514.404	1	8
514.745	1	14
515.085	1	13
515.425	1	18
515.766	1	6
516.106	1	5
516.447	1	22
516.787	1	18
517.127	1	19
517.468	1	15
517.808	1	2
518.148	1	14
518.489	1	11
518.829	1	12
519.169	1	5
519.510	1	-4
519.850	1	5
520.190	1	2
520.531	1	15
520.871	1	7
521.211	1	10
521.552	1	1
521.892	1	8
522.232	1	11
522.573	1	6
522.913	1	7
523.253	1	13
523.593	1	10
523.934	1	14
524.274	1	9
524.614	1	14
524.955	1	-1
525.295	1	11
525.635	1	14
525.975	1	9
526.316	1	-3
526.656	1	10
526.996	1	7
527.337	1	13
527.677	1	23
528.017	1	0
528.357	1	19
528.698	1	13
529.038	1	5
529.378	1	6
529.718	1	0
530.058	1	18
530.399	1	1
530.739	1	9
531.079	1	3
531.419	1	9
531.760	1	13
532.100	1	21
532.440	1	18
532.780	1	15
533.120	1	12
533.461	1	6
533.801	1	13
534.141	1	5
534.481	1	27
534.821	1	10
535.162	1	17
535.502	1	12
535.842	1	5
536.182	1	6
536.522	1	-3
536.862	1	-1
537.203	1	3
537.543	1	13
537.883	1	11
538.223	1	17
538.563	1	7
538.903	1	4
539.243	1	12
539.584	1	1
539.924	1	9
540.264	1	24
540.604	1	17
540.944	1	2
541.284	1	11
541.624	1	10
541.964	1	3
542.305	1	20
542.645	1	5
542.985	1	4
543.325	1	13
543.665	1	8
544.005	1	10
544.345	1	15
544.685	1	-1
545.025	1	20
545.365	1	10
545.705	1	14
546.045	1	14
546.386	1	2
546.726	1	4
547.066	1	6
547.406	1	8
547.746	1	4
548.086	1	3
548.426	1	12
548.766	1	12
549.106	1	11
549.446	1	23
549.786	1	12
550.126	1	15
550.466	1	7
550.806	1	22
551.146	1	11
551.486	1	14
551.826	1	0
552.166	1	1
552.506	1	5
552.846	1	4
553.186	1	0
553.526	1	14
553.866	1	8
554.206	1	16
554.546	1	9
554.886	1	8
555.226	1	5
555.566	1	13
555.906	1	4
556.246	1	0
556.586	1	10
556.926	1	7
557.266	1	17
557.606	1	-13
557.946	1	16
558.286	1	-5
558.626	1	15
558.966	1	6
559.306	1	9
559.646	1	11
559.986	1	6
560.325	1	9
560.665	1	4
561.005	1	9
561.345	1	-1
561.685	1	9
562.025	1	8
562.365	1	7
562.705	1	15
563.045	1	12
563.385	1	19
563.725	1	3
564.064	1	-2
564.404	1	-5
564.744	1	16
565.084	1	7
565.424	1	-1
565.764	1	17
566.104	1	8
566.444	1	19
566.783	1	12
567.123	1	-1
567.463	1	4
567.803	1	17
568.143	1	13
568.483	1	10
568.823	1	11
569.162	1	5
569.502	1	6
569.842	1	1
570.182	1	9
570.522	1	6
570.862	1	-2
571.201	1	14
571.541	1	13
571.881	1	-1
572.221	1	12
572.561	1	11
572.900	1	11
573.240	1	6
573.580	1	8
573.920	1	8
574.260	1	3
574.599	1	5
574.939	1	10
575.279	1	3
575.619	1	2
575.959	1	7
576.298	1	-5
576.638	1	12
576.978	1	3
577.318	1	8
577.657	1	3
577.997	1	15
578.337	1	3
578.677	1	1
579.016	1	5
579.356	1	5
579.696	1	7
580.036	1	12
580.375	1	4
580.715	1	7
581.055	1	13
581.394	1	6
581.734	1	14
582.074	1	4
582.414	1	-4
582.753	1	4
583.093	1	8
583.433	1	9
583.772	1	11
584.112	1	10
584.452	1	8
584.791	1	16
585.131	1	14
585.471	1	7
585.811	1	14
586.150	1	20
586.490	1	8
586.830	1	-2
587.169	1	2
587.509	1	4
587.849	1	15
588.188	1	7
588.528	1	-1
588.867	1	9
589.207	1	11
589.547	1	18
589.886	1	12
590.226	1	-1
590.566	1	9
590.905	1	6
591.245	1	-6
591.585	1	1
591.924	1	0
592.264	1	8
592.603	1	-11
592.943	1	9
593.283	1	12
593.622	1	-3
593.962	1	6
594.301	1	8
594.641	1	6
594.981	1	-1
595.320	1	4
595.660	1	1
595.999	1	3
596.339	1	3
596.678	1	4
597.018	1	-6
597.358	1	15
597.697	1	-8
598.037	1	10
598.376	1	-2
598.716	1	3
599.055	1	10
599.395	1	6
599.734	1	4
600.074	1	-1
600.413	1	-1
600.753	1	9
601.092	1	-3
601.432	1	-1
601.771	1	5
602.111	1	6
602.451	1	6
602.790	1	10
603.130	1	3
603.469	1	7
603.809	1	5
604.148	1	-4
604.487	1	3
604.827	1	-1
605.166	1	9
605.506	1	8
605.845	1	13
606.185	1	4
606.524	1	6
606.864	1	16
607.203	1	8
607.543	1	3
607.882	1	10
608.222	1	8
608.561	1	-1
608.901	1	9
609.240	1	6
609.579	1	4
609.919	1	-9
610.258	1	13
610.598	1	-5
610.937	1	-2
611.277	1	8
611.616	1	7
611.955	1	0
612.295	1	4
612.634	1	7
612.974	1	5
613.313	1	8
613.652	1	11
613.992	1	5
614.331	1	12
614.671	1	13
615.010	1	6
615.349	1	4
615.689	1	-3
616.028	1	16
616.368	1	8
616.707	1	11
617.046	1	2
617.386	1	14
617.725	1	5
618.064	1	-2
618.404	1	-6
618.743	1	8
619.082	1	24
619.422	1	11
619.761	1	1
620.100	1	12
620.440	1	7
620.779	1	15
621.118	1	16
621.458	1	1
621.797	1	-3
622.136	1	-2
622.476	1	-6
622.815	1	16
623.154	1	-4
623.494	1	-8
623.833	1	3
624.172	1	2
624.511	1	1
624.851	1	0
625.190	1	1
625.529	1	1
625.869	1	11
626.208	1	2
626.547	1	1
626.886	1	13
627.226	1	7
627.565	1	21
627.904	1	-1
628.243	1	8
628.583	1	8
628.922	1	14
629.261	1	-1
629.600	1	2
629.940	1	10
630.279	1	8
630.618	1	8
630.957	1	-4
631.297	1	6
631.636	1	5
631.975	1	2
632.314	1	6
632.653	1	0
632.993	1	1
633.332	1	9
633.671	1	11
634.010	1	-4
634.349	1	20
634.689	1	-7
635.028	1	0
635.367	1	8
635.706	1	3
636.045	1	3
636.384	1	13
636.724	1	12
637.063	1	-2
637.402	1	8
637.741	1	-6
638.080	1	9
638.419	1	-1
638.759	1	7
639.098	1	6
639.437	1	5
639.776	1	2
640.115	1	-4
640.454	1	-2
640.793	1	-1
641.132	1	5
641.472	1	12
641.811	1	-5
642.150	1	3
642.489	1	10
642.828	1	15
643.167	1	12
643.506	1	4
643.845	1	11
644.184	1	17
644.524	1	1
644.863	1	-2
645.202	1	9
645.541	1	-5
645.880	1	11
646.219	1	5
646.558	1	-1
646.897	1	1
647.236	1	-7
647.575	1	5
647.914	1	5
648.253	1	8
648.592	1	5
648.931	1	11
649.270	1	15
649.610	1	-5
649.949	1	-2
650.288	1	2
650.627	1	3
650.966	1	10
651.305	1	13
651.644	1	13
651.983	1	-2
652.322	1	4
652.661	1	5
653.000	1	11
653.339	1	-2
653.678	1	4
654.017	1	9
654.356	1	9
654.695	1	14
655.034	1	1
655.373	1	2
655.712	1	8
656.051	1	-10
656.390	1	7
656.729	1	2
657.068	1	3
657.406	1	1
657.745	1	21
658.084	1	0
658.423	1	7
658.762	1	-2
659.101	1	5
659.440	1	0
659.779	1	14
660.118	1	0
660.457	1	-1
660.796	1	7
661.135	1	7
661.474	1	7
661.813	1	0
662.152	1	0
662.491	1	3
662.829	1	9
663.168	1	3
663.507	1	8
663.846	1	-4
664.185	1	7
664.524	1	11
664.863	1	-9
665.202	1	8
665.541	1	3
665.879	1	11
666.218	1	0
666.557	1	7
666.896	1	13
667.235	1	6
667.574	1	5
667.913	1	2
668.251	1	-7
668.590	1	-7
668.929	1	6
669.268	1	-6
669.607	1	-3
669.946	1	-1
670.285	1	-3
670.623	1	5
670.962	1	-10
671.301	1	4
671.640	1	9
671.979	1	-6
672.317	1	6
672.656	1	12
672.995	1	4
673.334	1	-3
673.673	1	19
674.011	1	8
674.350	1	4
674.689	1	-10
675.028	1	0
675.367	1	7
675.705	1	-10
676.044	1	-2
676.383	1	-5
676.722	1	-3
677.060	1	15
677.399	1	16
677.738	1	-6
678.077	1	-9
678.416	1	-3
678.754	1	3
679.093	1	10
679.432	1	-8
679.771	1	0
680.109	1	-3
680.448	1	7
680.787	1	-2
681.125	1	-2
681.464	1	3
681.803	1	1
682.142	1	6
682.480	1	2
682.819	1	1
683.158	1	1
683.496	1	1
683.835	1	5
684.174	1	3
684.512	1	6
684.851	1	2
685.190	1	6
685.529	1	-2
685.867	1	-1
686.206	1	-5
686.545	1	3
686.883	1	6
687.222	1	3
687.561	1	1
687.899	1	6
688.238	1	4
688.577	1	-3
688.746	1	8