File: Data/GaN_150K_450ms/GaN_sample D_spot15_UVVIS_150 K_200um_450 ms 2x2mm1_72.txt
340.368	1	5
340.710	1	5
341.052	1	17
341.394	1	-12
341.737	1	6
342.079	1	7
342.421	1	3
342.763	1	3
343.105	1	10
343.447	1	7
343.789	1	4
344.131	1	1
344.473	1	1
344.815	1	12
345.157	1	19
345.499	1	4
345.841	1	6
346.183	1	-1
346.526	1	15
346.868	1	-3
347.210	1	3
347.552	1	23
347.894	1	11
348.236	1	10
348.578	1	10
348.920	1	7
349.262	1	5
349.604	1	-2
349.946	1	5
350.288	1	3
350.630	1	-1
350.972	1	17
351.314	1	7
351.656	1	9
351.998	1	8
352.340	1	16
352.682	1	4
353.024	1	22
353.366	1	6
353.708	1	6
354.050	1	4
354.392	1	3
354.734	1	13
355.076	1	21
355.418	1	12
355.760	1	11
356.102	1	15
356.444	1	22
356.785	1	23
357.127	1	25
357.469	1	23
357.811	1	15
358.153	1	8
358.495	1	13
358.837	1	24
359.179	1	16
359.521	1	40
359.863	1	34
360.205	1	47
360.547	1	48
360.889	1	41
361.231	1	57
361.572	1	52
361.914	1	50
362.256	1	68
362.598	1	77
362.940	1	71
363.282	1	80
363.624	1	90
363.966	1	103
364.308	1	107
364.649	1	117
364.991	1	141
365.333	1	151
365.675	1	174
366.017	1	183
366.359	1	197
366.701	1	209
367.042	1	234
367.384	1	213
367.726	1	228
368.068	1	250
368.410	1	249
368.752	1	259
369.093	1	227
369.435	1	227
369.777	1	219
370.119	1	205
370.461	1	192
370.803	1	187
371.144	1	171
371.486	1	168
371.828	1	151
372.170	1	145
372.512	1	126
372.853	1	134
373.195	1	111
373.537	1	103
373.879	1	111
374.220	1	120
374.562	1	105
374.904	1	100
375.246	1	89
375.588	1	82
375.929	1	76
376.271	1	84
376.613	1	78
376.955	1	70
377.296	1	76
377.638	1	59
377.980	1	46
378.321	1	64
378.663	1	42
379.005	1	57
379.347	1	55
379.688	1	50
380.030	1	54
380.372	1	53
380.714	1	47
381.055	1	37
381.397	1	41
381.739	1	31
382.080	1	41
382.422	1	41
382.764	1	43
383.105	1	41
383.447	1	37
383.789	1	24
384.130	1	49
384.472	1	33
384.814	1	42
385.156	1	31
385.497	1	44
385.839	1	39
386.180	1	30
386.522	1	37
386.864	1	31
387.205	1	31
387.547	1	31
387.889	1	25
388.230	1	26
388.572	1	27
388.914	1	28
389.255	1	25
389.597	1	35
389.939	1	31
390.280	1	19
390.622	1	22
390.963	1	18
391.305	1	9
391.647	1	29
391.988	1	17
392.330	1	13
392.671	1	27
393.013	1	22
393.355	1	33
393.696	1	18
394.038	1	15
394.379	1	21
394.721	1	7
395.062	1	14
395.404	1	24
395.746	1	13
396.087	1	16
396.429	1	34
396.770	1	17
397.112	1	23
397.453	1	7
397.795	1	13
398.136	1	17
398.478	1	24
398.819	1	22
399.161	1	22
399.503	1	26
399.844	1	19
400.186	1	11
400.527	1	21
400.869	1	12
401.210	1	20
401.552	1	17
401.893	1	20
402.235	1	16
402.576	1	18
402.918	1	7
403.259	1	11
403.601	1	24
403.942	1	17
404.284	1	21
404.625	1	9
404.967	1	16
405.308	1	6
405.649	1	18
405.991	1	18
406.332	1	19
406.674	1	18
407.015	1	19
407.357	1	27
407.698	1	25
408.040	1	22
408.381	1	5
408.722	1	19
409.064	1	19
409.405	1	10
409.747	1	13
410.088	1	20
410.430	1	17
410.771	1	14
411.112	1	23
411.454	1	15
411.795	1	20
412.137	1	18
412.478	1	6
412.819	1	18
413.161	1	15
413.502	1	13
413.844	1	28
414.185	1	11
414.526	1	13
414.868	1	23
415.209	1	20
415.550	1	17
415.892	1	18
416.233	1	16
416.575	1	15
416.916	1	13
417.257	1	20
417.599	1	15
417.940	1	4
418.281	1	23
418.623	1	15
418.964	1	27
419.305	1	23
419.647	1	10
419.988	1	33
420.329	1	18
420.671	1	22
421.012	1	13
421.353	1	31
421.695	1	19
422.036	1	18
422.377	1	14
422.718	1	8
423.060	1	22
423.401	1	14
423.742	1	17
424.084	1	13
424.425	1	23
424.766	1	29
425.107	1	20
425.449	1	14
425.790	1	11
426.131	1	16
426.472	1	27
426.814	1	12
427.155	1	15
427.496	1	14
427.837	1	10
428.179	1	22
428.520	1	23
428.861	1	25
429.202	1	13
429.544	1	20
429.885	1	26
430.226	1	4
430.567	1	7
430.909	1	10
431.250	1	22
431.591	1	9
431.932	1	16
432.273	1	14
432.615	1	10
432.956	1	6
433.297	1	17
433.638	1	21
433.979	1	26
434.320	1	14
434.662	1	13
435.003	1	22
435.344	1	15
435.685	1	6
436.026	1	7
436.368	1	2
436.709	1	8
437.050	1	5
437.391	1	9
437.732	1	18
438.073	1	7
438.414	1	16
438.756	1	14
439.097	1	21
439.438	1	21
439.779	1	18
440.120	1	17
440.461	1	12
440.802	1	14
441.143	1	12
441.485	1	8
441.826	1	13
442.167	1	11
442.508	1	19
442.849	1	17
443.190	1	19
443.531	1	22
443.872	1	15
444.213	1	9
444.554	1	16
444.895	1	14
445.237	1	5
445.578	1	5
445.919	1	14
446.260	1	18
446.601	1	18
446.942	1	6
447.283	1	18
447.624	1	5
447.965	1	14
448.306	1	6
448.647	1	15
448.988	1	4
449.329	1	15
449.670	1	13
450.011	1	13
450.352	1	7
450.693	1	17
451.034	1	10
451.375	1	16
451.716	1	21
452.057	1	20
452.398	1	22
452.739	1	14
453.080	1	10
453.421	1	19
453.762	1	27
454.103	1	14
454.444	1	11
454.785	1	20
455.126	1	15
455.467	1	21
455.808	1	25
456.149	1	8
456.490	1	11
456.831	1	10
457.172	1	15
457.513	1	7
457.854	1	9
458.195	1	14
458.536	1	21
458.877	1	20
459.218	1	20
459.559	1	4
459.899	1	4
460.240	1	10
460.581	1	6
460.922	1	21
461.263	1	18
461.604	1	7
461.945	1	9
462.286	1	13
462.627	1	12
462.968	1	18
463.309	1	18
463.649	1	8
463.990	1	11
464.331	1	13
464.672	1	11
465.013	1	12
465.354	1	22
465.695	1	8
466.036	1	20
466.376	1	13
466.717	1	7
467.058	1	18
467.399	1	7
467.740	1	16
468.081	1	10
468.422	1	14
468.762	1	11
469.103	1	16
469.444	1	17
469.785	1	12
470.126	1	15
470.467	1	10
470.807	1	10
471.148	1	5
471.489	1	12
471.830	1	13
472.171	1	18
472.511	1	15
472.852	1	15
473.193	1	5
473.534	1	19
473.875	1	17
474.215	1	14
474.556	1	5
474.897	1	6
475.238	1	13
475.578	1	0
475.919	1	4
476.260	1	3
476.601	1	19
476.942	1	13
477.282	1	8
477.623	1	13
477.964	1	21
478.305	1	14
478.645	1	18
478.986	1	24
479.327	1	16
479.667	1	9
480.008	1	17
480.349	1	7
480.690	1	17
481.030	1	16
481.371	1	3
481.712	1	24
482.053	1	20
482.393	1	8
482.734	1	17
483.075	1	13
483.415	1	11
483.756	1	12
484.097	1	24
484.437	1	18
484.778	1	10
485.119	1	12
485.459	1	3
485.800	1	9
486.141	1	18
486.481	1	10
486.822	1	20
487.163	1	10
487.503	1	14
487.844	1	11
488.185	1	19
488.525	1	3
488.866	1	17
489.207	1	20
489.547	1	18
489.888	1	25
490.228	1	26
490.569	1	16
490.910	1	13
491.250	1	31
491.591	1	19
491.932	1	31
492.272	1	11
492.613	1	12
492.953	1	34
493.294	1	27
493.635	1	25
493.975	1	39
494.316	1	17
494.656	1	21
494.997	1	10
495.337	1	15
495.678	1	21
496.019	1	21
496.359	1	20
496.700	1	29
497.040	1	20
497.381	1	19
497.721	1	18
498.062	1	24
498.403	1	28
498.743	1	26
499.084	1	50
499.424	1	18
499.765	1	37
500.105	1	47
500.446	1	28
500.786	1	34
501.127	1	35
501.467	1	47
501.808	1	32
502.148	1	23
502.489	1	30
502.829	1	32
503.170	1	49
503.510	1	35
503.851	1	43
504.191	1	38
504.532	1	49
504.872	1	38
505.213	1	28
505.553	1	46
505.894	1	41
506.234	1	51
506.575	1	59
506.915	1	40
507.256	1	43
507.596	1	48
507.936	1	48
508.277	1	43
508.617	1	51
508.958	1	42
509.298	1	43
509.639	1	36
509.979	1	45
510.319	1	44
510.660	1	47
511.000	1	37
511.341	1	54
511.681	1	54
512.022	1	35
512.362	1	48
512.702	1	32
513.043	1	51
513.383	1	43
513.724	1	55
514.064	1	47
514.404	1	53
514.745	1	41
515.085	1	56
515.425	1	50
515.766	1	51
516.106	1	48
516.447	1	54
516.787	1	45
517.127	1	62
517.468	1	57
517.808	1	42
518.148	1	54
518.489	1	52
518.829	1	57
519.169	1	56
519.510	1	50
519.850	1	56
520.190	1	62
520.531	1	50
520.871	1	48
521.211	1	57
521.552	1	49
521.892	1	52
522.232	1	55
522.573	1	56
522.913	1	54
523.253	1	56
523.593	1	67
523.934	1	53
524.274	1	53
524.614	1	64
524.955	1	57
525.295	1	58
525.635	1	56
525.975	1	55
526.316	1	47
526.656	1	54
526.996	1	56
527.337	1	57
527.677	1	70
528.017	1	58
528.357	1	63
528.698	1	61
529.038	1	60
529.378	1	65
529.718	1	52
530.058	1	58
530.399	1	50
530.739	1	61
531.079	1	56
531.419	1	55
531.760	1	75
532.100	1	71
532.440	1	59
532.780	1	71
533.120	1	56
533.461	1	59
533.801	1	50
534.141	1	53
534.481	1	63
534.821	1	61
535.162	1	57
535.502	1	61
535.842	1	51
536.182	1	46
536.522	1	65
536.862	1	50
537.203	1	53
537.543	1	59
537.883	1	51
538.223	1	61
538.563	1	38
538.903	1	48
539.243	1	53
539.584	1	53
539.924	1	52
540.264	1	54
540.604	1	68
540.944	1	51
541.284	1	46
541.624	1	41
541.964	1	49
542.305	1	57
542.645	1	44
542.985	1	44
543.325	1	50
543.665	1	51
544.005	1	48
544.345	1	58
544.685	1	42
545.025	1	60
545.365	1	49
545.705	1	42
546.045	1	54
546.386	1	48
546.726	1	57
547.066	1	44
547.406	1	42
547.746	1	54
548.086	1	49
548.426	1	49
548.766	1	54
549.106	1	47
549.446	1	52
549.786	1	52
550.126	1	58
550.466	1	42
550.806	1	55
551.146	1	48
551.486	1	57
551.826	1	37
552.166	1	50
552.506	1	42
552.846	1	43
553.186	1	44
553.526	1	43
553.866	1	52
554.206	1	55
554.546	1	54
554.886	1	40
555.226	1	42
555.566	1	55
555.906	1	40
556.246	1	41
556.586	1	42
556.926	1	39
557.266	1	48
557.606	1	29
557.946	1	51
558.286	1	25
558.626	1	37
558.966	1	36
559.306	1	50
559.646	1	34
559.986	1	35
560.325	1	33
560.665	1	43
561.005	1	27
561.345	1	32
561.685	1	44
562.025	1	37
562.365	1	43
562.705	1	42
563.045	1	41
563.385	1	39
563.725	1	34
564.064	1	27
564.404	1	32
564.744	1	44
565.084	1	37
565.424	1	31
565.764	1	41
566.104	1	40
566.444	1	46
566.783	1	42
567.123	1	36
567.463	1	37
567.803	1	42
568.143	1	35
568.483	1	44
568.823	1	29
569.162	1	22
569.502	1	34
569.842	1	26
570.182	1	18
570.522	1	30
570.862	1	23
571.201	1	46
571.541	1	27
571.881	1	28
572.221	1	32
572.561	1	32
572.900	1	44
573.240	1	17
573.580	1	18
573.920	1	41
574.260	1	24
574.599	1	32
574.939	1	33
575.279	1	18
575.619	1	27
575.959	1	33
576.298	1	19
576.638	1	32
576.978	1	25
577.318	1	30
577.657	1	13
577.997	1	23
578.337	1	25
578.677	1	33
579.016	1	26
579.356	1	24
579.696	1	23
580.036	1	27
580.375	1	29
580.715	1	30
581.055	1	23
581.394	1	26
581.734	1	26
582.074	1	16
582.414	1	22
582.753	1	18
583.093	1	32
583.433	1	25
583.772	1	18
584.112	1	28
584.452	1	22
584.791	1	29
585.131	1	29
585.471	1	20
585.811	1	16
586.150	1	19
586.490	1	18
586.830	1	21
587.169	1	15
587.509	1	20
587.849	1	24
588.188	1	18
588.528	1	17
588.867	1	21
589.207	1	24
589.547	1	18
589.886	1	19
590.226	1	15
590.566	1	16
590.905	1	16
591.245	1	2
591.585	1	13
591.924	1	15
592.264	1	13
592.603	1	6
592.943	1	9
593.283	1	17
593.622	1	10
593.962	1	13
594.301	1	15
594.641	1	19
594.981	1	20
595.320	1	16
595.660	1	19
595.999	1	19
596.339	1	15
596.678	1	15
597.018	1	13
597.358	1	14
597.697	1	11
598.037	1	9
598.376	1	11
598.716	1	22
599.055	1	14
599.395	1	14
599.734	1	4
600.074	1	16
600.413	1	7
600.753	1	20
601.092	1	3
601.432	1	10
601.771	1	7
602.111	1	19
602.451	1	14
602.790	1	13
603.130	1	8
603.469	1	4
603.809	1	18
604.148	1	13
604.487	1	18
604.827	1	19
605.166	1	19
605.506	1	11
605.845	1	24
606.185	1	18
606.524	1	-1
606.864	1	25
607.203	1	20
607.543	1	20
607.882	1	23
608.222	1	8
608.561	1	2
608.901	1	22
609.240	1	12
609.579	1	12
609.919	1	15
610.258	1	25
610.598	1	7
610.937	1	10
611.277	1	6
611.616	1	9
611.955	1	6
612.295	1	13
612.634	1	17
612.974	1	5
613.313	1	7
613.652	1	18
613.992	1	10
614.331	1	17
614.671	1	8
615.010	1	5
615.349	1	11
615.689	1	13
616.028	1	24
616.368	1	17
616.707	1	14
617.046	1	7
617.386	1	16
617.725	1	7
618.064	1	1
618.404	1	10
618.743	1	24
619.082	1	26
619.422	1	25
619.761	1	12
620.100	1	11
620.440	1	14
620.779	1	13
621.118	1	22
621.458	1	8
621.797	1	19
622.136	1	5
622.476	1	10
622.815	1	11
623.154	1	-1
623.494	1	8
623.833	1	14
624.172	1	13
624.511	1	5
624.851	1	15
625.190	1	9
625.529	1	3
625.869	1	24
626.208	1	-2
626.547	1	14
626.886	1	6
627.226	1	20
627.565	1	21
627.904	1	12
628.243	1	17
628.583	1	10
628.922	1	14
629.261	1	15
629.600	1	3
629.940	1	11
630.279	1	18
630.618	1	15
630.957	1	8
631.297	1	12
631.636	1	10
631.975	1	14
632.314	1	5
632.653	1	3
632.993	1	4
633.332	1	10
633.671	1	16
634.010	1	13
634.349	1	12
634.689	1	8
635.028	1	-2
635.367	1	13
635.706	1	18
636.045	1	2
636.384	1	18
636.724	1	3
637.063	1	-1
637.402	1	3
637.741	1	5
638.080	1	3
638.419	1	5
638.759	1	9
639.098	1	11
639.437	1	14
639.776	1	9
640.115	1	6
640.454	1	-2
640.793	1	7
641.132	1	9
641.472	1	17
641.811	1	0
642.150	1	7
642.489	1	15
642.828	1	25
643.167	1	11
643.506	1	7
643.845	1	15
644.184	1	16
644.524	1	14
644.863	1	12
645.202	1	4
645.541	1	4
645.880	1	10
646.219	1	7
646.558	1	2
646.897	1	4
647.236	1	5
647.575	1	21
647.914	1	10
648.253	1	19
648.592	1	20
648.931	1	10
649.270	1	11
649.610	1	15
649.949	1	8
650.288	1	0
650.627	1	5
650.966	1	10
651.305	1	12
651.644	1	9
651.983	1	-5
652.322	1	11
652.661	1	19
653.000	1	9
653.339	1	8
653.678	1	7
654.017	1	4
654.356	1	9
654.695	1	18
655.034	1	5
655.373	1	4
655.712	1	16
656.051	1	3
656.390	1	9
656.729	1	11
657.068	1	12
657.406	1	0
657.745	1	19
658.084	1	7
658.423	1	14
658.762	1	1
659.101	1	-1
659.440	1	11
659.779	1	12
660.118	1	7
660.457	1	14
660.796	1	21
661.135	1	13
661.474	1	6
661.813	1	5
662.152	1	5
662.491	1	4
662.829	1	7
663.168	1	3
663.507	1	10
663.846	1	7
664.185	1	5
664.524	1	19
664.863	1	2
665.202	1	10
665.541	1	14
665.879	1	7
666.218	1	7
666.557	1	2
666.896	1	11
667.235	1	3
667.574	1	3
667.913	1	8
668.251	1	1
668.590	1	-3
668.929	1	4
669.268	1	2
669.607	1	2
669.946	1	11
670.285	1	2
670.623	1	10
670.962	1	2
671.301	1	12
671.640	1	13
671.979	1	2
672.317	1	5
672.656	1	18
672.995	1	5
673.334	1	0
673.673	1	13
674.011	1	6
674.350	1	6
674.689	1	9
675.028	1	15
675.367	1	12
675.705	1	3
676.044	1	8
676.383	1	-1
676.722	1	8
677.060	1	13
677.399	1	22
677.738	1	3
678.077	1	11
678.416	1	2
678.754	1	13
679.093	1	11
679.432	1	-3
679.771	1	12
680.109	1	8
680.448	1	-3
680.787	1	5
681.125	1	9
681.464	1	7
681.803	1	2
682.142	1	7
682.480	1	3
682.819	1	6
683.158	1	6
683.496	1	0
683.835	1	19
684.174	1	2
684.512	1	12
684.851	1	9
685.190	1	1
685.529	1	5
685.867	1	4
686.206	1	7
686.545	1	3
686.883	1	10
687.222	1	7
687.561	1	12
687.899	1	11
688.238	1	21
688.577	1	20
688.746	1	7