File: Data/GaN_150K_450ms/GaN_sample D_spot15_UVVIS_150 K_200um_450 ms 2x2mm1_288.txt
340.368	1	3
340.710	1	5
341.052	1	13
341.394	1	-5
341.737	1	7
342.079	1	5
342.421	1	-1
342.763	1	2
343.105	1	4
343.447	1	-1
343.789	1	7
344.131	1	-4
344.473	1	-10
344.815	1	5
345.157	1	9
345.499	1	4
345.841	1	11
346.183	1	-6
346.526	1	6
346.868	1	3
347.210	1	-4
347.552	1	18
347.894	1	-8
348.236	1	4
348.578	1	4
348.920	1	9
349.262	1	-2
349.604	1	-3
349.946	1	5
350.288	1	-5
350.630	1	-2
350.972	1	7
351.314	1	-3
351.656	1	10
351.998	1	6
352.340	1	2
352.682	1	-12
353.024	1	10
353.366	1	7
353.708	1	4
354.050	1	-2
354.392	1	1
354.734	1	3
355.076	1	7
355.418	1	-3
355.760	1	4
356.102	1	-2
356.444	1	10
356.785	1	11
357.127	1	11
357.469	1	5
357.811	1	0
358.153	1	-10
358.495	1	0
358.837	1	13
359.179	1	11
359.521	1	1
359.863	1	-2
360.205	1	3
360.547	1	9
360.889	1	5
361.231	1	4
361.572	1	0
361.914	1	13
362.256	1	14
362.598	1	16
362.940	1	5
363.282	1	5
363.624	1	6
363.966	1	7
364.308	1	7
364.649	1	5
364.991	1	17
365.333	1	11
365.675	1	16
366.017	1	16
366.359	1	16
366.701	1	4
367.042	1	11
367.384	1	0
367.726	1	14
368.068	1	19
368.410	1	15
368.752	1	20
369.093	1	13
369.435	1	15
369.777	1	16
370.119	1	15
370.461	1	0
370.803	1	6
371.144	1	7
371.486	1	14
371.828	1	11
372.170	1	13
372.512	1	-1
372.853	1	19
373.195	1	13
373.537	1	3
373.879	1	8
374.220	1	8
374.562	1	21
374.904	1	3
375.246	1	2
375.588	1	6
375.929	1	8
376.271	1	10
376.613	1	3
376.955	1	3
377.296	1	5
377.638	1	1
377.980	1	0
378.321	1	9
378.663	1	6
379.005	1	8
379.347	1	11
379.688	1	16
380.030	1	11
380.372	1	17
380.714	1	3
381.055	1	2
381.397	1	5
381.739	1	-7
382.080	1	9
382.422	1	-2
382.764	1	3
383.105	1	-1
383.447	1	9
383.789	1	-3
384.130	1	4
384.472	1	3
384.814	1	2
385.156	1	-2
385.497	1	11
385.839	1	3
386.180	1	-2
386.522	1	-2
386.864	1	-5
387.205	1	12
387.547	1	6
387.889	1	-5
388.230	1	4
388.572	1	-5
388.914	1	14
389.255	1	2
389.597	1	2
389.939	1	9
390.280	1	-1
390.622	1	0
390.963	1	-4
391.305	1	0
391.647	1	0
391.988	1	7
392.330	1	2
392.671	1	4
393.013	1	-5
393.355	1	10
393.696	1	11
394.038	1	10
394.379	1	6
394.721	1	1
395.062	1	-7
395.404	1	0
395.746	1	-4
396.087	1	8
396.429	1	13
396.770	1	6
397.112	1	-8
397.453	1	-7
397.795	1	-9
398.136	1	2
398.478	1	7
398.819	1	15
399.161	1	5
399.503	1	8
399.844	1	3
400.186	1	1
400.527	1	6
400.869	1	-6
401.210	1	1
401.552	1	5
401.893	1	5
402.235	1	11
402.576	1	8
402.918	1	-1
403.259	1	3
403.601	1	11
403.942	1	-7
404.284	1	10
404.625	1	-8
404.967	1	5
405.308	1	-5
405.649	1	1
405.991	1	6
406.332	1	7
406.674	1	2
407.015	1	9
407.357	1	9
407.698	1	1
408.040	1	4
408.381	1	4
408.722	1	4
409.064	1	14
409.405	1	9
409.747	1	-2
410.088	1	7
410.430	1	11
410.771	1	-1
411.112	1	2
411.454	1	-2
411.795	1	-6
412.137	1	-3
412.478	1	1
412.819	1	1
413.161	1	0
413.502	1	-1
413.844	1	11
414.185	1	4
414.526	1	0
414.868	1	8
415.209	1	3
415.550	1	-5
415.892	1	7
416.233	1	9
416.575	1	-6
416.916	1	-3
417.257	1	3
417.599	1	7
417.940	1	0
418.281	1	6
418.623	1	-1
418.964	1	8
419.305	1	7
419.647	1	-2
419.988	1	3
420.329	1	5
420.671	1	5
421.012	1	-11
421.353	1	7
421.695	1	12
422.036	1	2
422.377	1	-5
422.718	1	2
423.060	1	4
423.401	1	3
423.742	1	7
424.084	1	7
424.425	1	14
424.766	1	1
425.107	1	1
425.449	1	4
425.790	1	-1
426.131	1	-5
426.472	1	-1
426.814	1	-2
427.155	1	7
427.496	1	0
427.837	1	-2
428.179	1	8
428.520	1	3
428.861	1	7
429.202	1	-15
429.544	1	2
429.885	1	-1
430.226	1	-4
430.567	1	-11
430.909	1	-4
431.250	1	4
431.591	1	3
431.932	1	-3
432.273	1	13
432.615	1	-2
432.956	1	4
433.297	1	4
433.638	1	5
433.979	1	4
434.320	1	-3
434.662	1	5
435.003	1	17
435.344	1	-3
435.685	1	0
436.026	1	2
436.368	1	-8
436.709	1	-7
437.050	1	-2
437.391	1	0
437.732	1	5
438.073	1	-9
438.414	1	5
438.756	1	1
439.097	1	2
439.438	1	3
439.779	1	1
440.120	1	0
440.461	1	2
440.802	1	2
441.143	1	11
441.485	1	-9
441.826	1	-3
442.167	1	0
442.508	1	2
442.849	1	13
443.190	1	-1
443.531	1	2
443.872	1	-12
444.213	1	-9
444.554	1	10
444.895	1	-5
445.237	1	5
445.578	1	-7
445.919	1	0
446.260	1	7
446.601	1	1
446.942	1	-10
447.283	1	9
447.624	1	-9
447.965	1	1
448.306	1	4
448.647	1	-3
448.988	1	8
449.329	1	8
449.670	1	5
450.011	1	4
450.352	1	5
450.693	1	-5
451.034	1	2
451.375	1	4
451.716	1	-5
452.057	1	0
452.398	1	8
452.739	1	1
453.080	1	4
453.421	1	-1
453.762	1	7
454.103	1	4
454.444	1	-2
454.785	1	3
455.126	1	-5
455.467	1	-6
455.808	1	8
456.149	1	-2
456.490	1	-14
456.831	1	1
457.172	1	-2
457.513	1	-3
457.854	1	0
458.195	1	4
458.536	1	-1
458.877	1	12
459.218	1	2
459.559	1	6
459.899	1	-1
460.240	1	-7
460.581	1	-3
460.922	1	3
461.263	1	2
461.604	1	2
461.945	1	11
462.286	1	2
462.627	1	5
462.968	1	2
463.309	1	3
463.649	1	-2
463.990	1	9
464.331	1	-1
464.672	1	-1
465.013	1	3
465.354	1	9
465.695	1	3
466.036	1	4
466.376	1	7
466.717	1	-8
467.058	1	6
467.399	1	-10
467.740	1	9
468.081	1	2
468.422	1	5
468.762	1	4
469.103	1	3
469.444	1	8
469.785	1	-6
470.126	1	5
470.467	1	1
470.807	1	12
471.148	1	-1
471.489	1	14
471.830	1	9
472.171	1	11
472.511	1	12
472.852	1	10
473.193	1	1
473.534	1	4
473.875	1	3
474.215	1	0
474.556	1	-4
474.897	1	-2
475.238	1	0
475.578	1	5
475.919	1	0
476.260	1	-4
476.601	1	4
476.942	1	6
477.282	1	-10
477.623	1	-7
477.964	1	1
478.305	1	3
478.645	1	5
478.986	1	4
479.327	1	-4
479.667	1	0
480.008	1	5
480.349	1	4
480.690	1	10
481.030	1	-10
481.371	1	-3
481.712	1	13
482.053	1	13
482.393	1	3
482.734	1	5
483.075	1	12
483.415	1	-1
483.756	1	4
484.097	1	7
484.437	1	7
484.778	1	-1
485.119	1	-3
485.459	1	-2
485.800	1	0
486.141	1	2
486.481	1	-12
486.822	1	11
487.163	1	-7
487.503	1	6
487.844	1	-7
488.185	1	-3
488.525	1	-5
488.866	1	-4
489.207	1	1
489.547	1	1
489.888	1	7
490.228	1	0
490.569	1	-3
490.910	1	6
491.250	1	2
491.591	1	2
491.932	1	9
492.272	1	-4
492.613	1	-10
492.953	1	-1
493.294	1	-8
493.635	1	1
493.975	1	5
494.316	1	-1
494.656	1	9
494.997	1	-5
495.337	1	4
495.678	1	-2
496.019	1	2
496.359	1	2
496.700	1	-4
497.040	1	-7
497.381	1	0
497.721	1	-8
498.062	1	-5
498.403	1	-3
498.743	1	3
499.084	1	3
499.424	1	-3
499.765	1	4
500.105	1	-2
500.446	1	-1
500.786	1	2
501.127	1	10
501.467	1	8
501.808	1	5
502.148	1	-2
502.489	1	4
502.829	1	-2
503.170	1	3
503.510	1	-6
503.851	1	7
504.191	1	-5
504.532	1	4
504.872	1	-5
505.213	1	-4
505.553	1	-2
505.894	1	6
506.234	1	5
506.575	1	5
506.915	1	8
507.256	1	1
507.596	1	4
507.936	1	4
508.277	1	11
508.617	1	4
508.958	1	3
509.298	1	-6
509.639	1	-1
509.979	1	1
510.319	1	1
510.660	1	-3
511.000	1	3
511.341	1	18
511.681	1	5
512.022	1	-5
512.362	1	12
512.702	1	0
513.043	1	7
513.383	1	-6
513.724	1	3
514.064	1	4
514.404	1	7
514.745	1	2
515.085	1	3
515.425	1	8
515.766	1	-6
516.106	1	2
516.447	1	5
516.787	1	-2
517.127	1	9
517.468	1	18
517.808	1	1
518.148	1	14
518.489	1	-5
518.829	1	9
519.169	1	-10
519.510	1	-4
519.850	1	6
520.190	1	-1
520.531	1	3
520.871	1	-1
521.211	1	1
521.552	1	0
521.892	1	-6
522.232	1	8
522.573	1	2
522.913	1	11
523.253	1	4
523.593	1	7
523.934	1	6
524.274	1	-8
524.614	1	11
524.955	1	2
525.295	1	4
525.635	1	6
525.975	1	-1
526.316	1	3
526.656	1	6
526.996	1	-1
527.337	1	9
527.677	1	12
528.017	1	-4
528.357	1	9
528.698	1	5
529.038	1	3
529.378	1	7
529.718	1	-3
530.058	1	4
530.399	1	9
530.739	1	6
531.079	1	-3
531.419	1	4
531.760	1	5
532.100	1	7
532.440	1	7
532.780	1	7
533.120	1	5
533.461	1	-6
533.801	1	-3
534.141	1	-4
534.481	1	21
534.821	1	9
535.162	1	3
535.502	1	6
535.842	1	1
536.182	1	-2
536.522	1	3
536.862	1	0
537.203	1	5
537.543	1	-3
537.883	1	7
538.223	1	15
538.563	1	-2
538.903	1	3
539.243	1	1
539.584	1	4
539.924	1	5
540.264	1	21
540.604	1	0
540.944	1	1
541.284	1	5
541.624	1	5
541.964	1	7
542.305	1	7
542.645	1	-6
542.985	1	-2
543.325	1	10
543.665	1	2
544.005	1	2
544.345	1	7
544.685	1	-8
545.025	1	11
545.365	1	9
545.705	1	8
546.045	1	6
546.386	1	-4
546.726	1	2
547.066	1	2
547.406	1	-15
547.746	1	-2
548.086	1	21
548.426	1	7
548.766	1	6
549.106	1	-3
549.446	1	-3
549.786	1	1
550.126	1	-3
550.466	1	-1
550.806	1	10
551.146	1	4
551.486	1	4
551.826	1	-5
552.166	1	2
552.506	1	6
552.846	1	6
553.186	1	-8
553.526	1	5
553.866	1	0
554.206	1	8
554.546	1	2
554.886	1	-1
555.226	1	5
555.566	1	5
555.906	1	-1
556.246	1	4
556.586	1	14
556.926	1	0
557.266	1	10
557.606	1	1
557.946	1	4
558.286	1	-14
558.626	1	5
558.966	1	5
559.306	1	14
559.646	1	9
559.986	1	0
560.325	1	12
560.665	1	3
561.005	1	2
561.345	1	1
561.685	1	1
562.025	1	0
562.365	1	-1
562.705	1	8
563.045	1	3
563.385	1	0
563.725	1	4
564.064	1	-3
564.404	1	-1
564.744	1	9
565.084	1	5
565.424	1	-6
565.764	1	-6
566.104	1	8
566.444	1	4
566.783	1	7
567.123	1	-4
567.463	1	7
567.803	1	1
568.143	1	-6
568.483	1	6
568.823	1	1
569.162	1	2
569.502	1	10
569.842	1	-2
570.182	1	0
570.522	1	0
570.862	1	-7
571.201	1	12
571.541	1	1
571.881	1	2
572.221	1	10
572.561	1	12
572.900	1	10
573.240	1	-4
573.580	1	6
573.920	1	9
574.260	1	1
574.599	1	1
574.939	1	5
575.279	1	6
575.619	1	6
575.959	1	-2
576.298	1	-6
576.638	1	9
576.978	1	7
577.318	1	-1
577.657	1	-9
577.997	1	11
578.337	1	3
578.677	1	-2
579.016	1	-7
579.356	1	5
579.696	1	-2
580.036	1	2
580.375	1	11
580.715	1	6
581.055	1	2
581.394	1	5
581.734	1	2
582.074	1	10
582.414	1	-13
582.753	1	4
583.093	1	0
583.433	1	8
583.772	1	2
584.112	1	4
584.452	1	8
584.791	1	6
585.131	1	0
585.471	1	1
585.811	1	6
586.150	1	9
586.490	1	-2
586.830	1	8
587.169	1	0
587.509	1	5
587.849	1	5
588.188	1	4
588.528	1	-4
588.867	1	11
589.207	1	3
589.547	1	9
589.886	1	0
590.226	1	0
590.566	1	1
590.905	1	7
591.245	1	-1
591.585	1	-5
591.924	1	0
592.264	1	0
592.603	1	-3
592.943	1	-5
593.283	1	3
593.622	1	0
593.962	1	10
594.301	1	-11
594.641	1	3
594.981	1	11
595.320	1	-1
595.660	1	6
595.999	1	-3
596.339	1	5
596.678	1	-4
597.018	1	-7
597.358	1	3
597.697	1	-1
598.037	1	-8
598.376	1	-1
598.716	1	9
599.055	1	1
599.395	1	2
599.734	1	5
600.074	1	-5
600.413	1	5
600.753	1	3
601.092	1	-11
601.432	1	-9
601.771	1	10
602.111	1	0
602.451	1	-7
602.790	1	2
603.130	1	-3
603.469	1	-2
603.809	1	0
604.148	1	-5
604.487	1	-1
604.827	1	6
605.166	1	-3
605.506	1	-3
605.845	1	2
606.185	1	-5
606.524	1	-8
606.864	1	12
607.203	1	4
607.543	1	1
607.882	1	7
608.222	1	9
608.561	1	4
608.901	1	8
609.240	1	6
609.579	1	0
609.919	1	-3
610.258	1	5
610.598	1	-2
610.937	1	8
611.277	1	3
611.616	1	16
611.955	1	-4
612.295	1	7
612.634	1	-1
612.974	1	1
613.313	1	9
613.652	1	9
613.992	1	-4
614.331	1	17
614.671	1	2
615.010	1	4
615.349	1	7
615.689	1	-2
616.028	1	17
616.368	1	3
616.707	1	7
617.046	1	2
617.386	1	15
617.725	1	1
618.064	1	-7
618.404	1	-1
618.743	1	-4
619.082	1	19
619.422	1	16
619.761	1	-1
620.100	1	5
620.440	1	4
620.779	1	2
621.118	1	7
621.458	1	-6
621.797	1	-1
622.136	1	-3
622.476	1	8
622.815	1	-1
623.154	1	-5
623.494	1	-12
623.833	1	-6
624.172	1	0
624.511	1	-7
624.851	1	-8
625.190	1	5
625.529	1	7
625.869	1	0
626.208	1	-9
626.547	1	-5
626.886	1	-3
627.226	1	10
627.565	1	8
627.904	1	-3
628.243	1	8
628.583	1	6
628.922	1	2
629.261	1	6
629.600	1	4
629.940	1	8
630.279	1	13
630.618	1	0
630.957	1	10
631.297	1	2
631.636	1	3
631.975	1	7
632.314	1	-1
632.653	1	-8
632.993	1	1
633.332	1	2
633.671	1	7
634.010	1	-4
634.349	1	8
634.689	1	-4
635.028	1	-7
635.367	1	0
635.706	1	-7
636.045	1	-4
636.384	1	6
636.724	1	10
637.063	1	1
637.402	1	1
637.741	1	-7
638.080	1	5
638.419	1	-1
638.759	1	5
639.098	1	5
639.437	1	3
639.776	1	11
640.115	1	-2
640.454	1	-4
640.793	1	2
641.132	1	-2
641.472	1	15
641.811	1	-2
642.150	1	4
642.489	1	3
642.828	1	19
643.167	1	-1
643.506	1	1
643.845	1	7
644.184	1	6
644.524	1	-8
644.863	1	2
645.202	1	9
645.541	1	6
645.880	1	11
646.219	1	6
646.558	1	-4
646.897	1	-8
647.236	1	-9
647.575	1	7
647.914	1	5
648.253	1	7
648.592	1	6
648.931	1	9
649.270	1	12
649.610	1	6
649.949	1	-8
650.288	1	1
650.627	1	3
650.966	1	1
651.305	1	8
651.644	1	8
651.983	1	-14
652.322	1	5
652.661	1	5
653.000	1	1
653.339	1	-1
653.678	1	6
654.017	1	11
654.356	1	5
654.695	1	12
655.034	1	-5
655.373	1	5
655.712	1	7
656.051	1	-1
656.390	1	4
656.729	1	-1
657.068	1	-5
657.406	1	0
657.745	1	15
658.084	1	4
658.423	1	10
658.762	1	-4
659.101	1	-1
659.440	1	-2
659.779	1	1
660.118	1	6
660.457	1	4
660.796	1	8
661.135	1	5
661.474	1	0
661.813	1	0
662.152	1	-1
662.491	1	5
662.829	1	6
663.168	1	-4
663.507	1	9
663.846	1	-2
664.185	1	-3
664.524	1	1
664.863	1	-9
665.202	1	-1
665.541	1	-6
665.879	1	6
666.218	1	3
666.557	1	-1
666.896	1	4
667.235	1	2
667.574	1	5
667.913	1	5
668.251	1	-7
668.590	1	-3
668.929	1	-10
669.268	1	-10
669.607	1	-8
669.946	1	-8
670.285	1	-1
670.623	1	-6
670.962	1	-4
671.301	1	5
671.640	1	7
671.979	1	-4
672.317	1	-1
672.656	1	4
672.995	1	2
673.334	1	-7
673.673	1	13
674.011	1	2
674.350	1	3
674.689	1	-12
675.028	1	2
675.367	1	3
675.705	1	-11
676.044	1	-8
676.383	1	3
676.722	1	0
677.060	1	0
677.399	1	9
677.738	1	-3
678.077	1	-2
678.416	1	5
678.754	1	-4
679.093	1	11
679.432	1	-3
679.771	1	-1
680.109	1	-4
680.448	1	-5
680.787	1	-3
681.125	1	-2
681.464	1	-4
681.803	1	-2
682.142	1	9
682.480	1	-4
682.819	1	-3
683.158	1	-6
683.496	1	-1
683.835	1	9
684.174	1	5
684.512	1	3
684.851	1	-7
685.190	1	-2
685.529	1	-3
685.867	1	-8
686.206	1	0
686.545	1	6
686.883	1	12
687.222	1	0
687.561	1	3
687.899	1	-5
688.238	1	8
688.577	1	2
688.746	1	-2