File: Data/GaN_150K_450ms/GaN_sample D_spot15_UVVIS_150 K_200um_450 ms 2x2mm1_166.txt
340.368	1	6
340.710	1	3
341.052	1	3
341.394	1	0
341.737	1	13
342.079	1	7
342.421	1	7
342.763	1	7
343.105	1	17
343.447	1	10
343.789	1	0
344.131	1	-10
344.473	1	1
344.815	1	6
345.157	1	15
345.499	1	11
345.841	1	4
346.183	1	4
346.526	1	12
346.868	1	7
347.210	1	-4
347.552	1	16
347.894	1	4
348.236	1	10
348.578	1	3
348.920	1	-2
349.262	1	5
349.604	1	-5
349.946	1	2
350.288	1	-7
350.630	1	-3
350.972	1	3
351.314	1	1
351.656	1	20
351.998	1	1
352.340	1	4
352.682	1	-5
353.024	1	8
353.366	1	8
353.708	1	3
354.050	1	-4
354.392	1	-6
354.734	1	12
355.076	1	17
355.418	1	2
355.760	1	13
356.102	1	3
356.444	1	9
356.785	1	13
357.127	1	18
357.469	1	15
357.811	1	3
358.153	1	-3
358.495	1	10
358.837	1	19
359.179	1	8
359.521	1	18
359.863	1	4
360.205	1	19
360.547	1	18
360.889	1	5
361.231	1	11
361.572	1	16
361.914	1	5
362.256	1	10
362.598	1	18
362.940	1	19
363.282	1	0
363.624	1	11
363.966	1	13
364.308	1	24
364.649	1	17
364.991	1	17
365.333	1	19
365.675	1	28
366.017	1	23
366.359	1	18
366.701	1	35
367.042	1	25
367.384	1	29
367.726	1	29
368.068	1	28
368.410	1	37
368.752	1	45
369.093	1	29
369.435	1	29
369.777	1	42
370.119	1	42
370.461	1	27
370.803	1	22
371.144	1	20
371.486	1	27
371.828	1	10
372.170	1	26
372.512	1	14
372.853	1	26
373.195	1	21
373.537	1	3
373.879	1	15
374.220	1	21
374.562	1	17
374.904	1	12
375.246	1	11
375.588	1	12
375.929	1	8
376.271	1	9
376.613	1	16
376.955	1	16
377.296	1	22
377.638	1	17
377.980	1	3
378.321	1	24
378.663	1	13
379.005	1	14
379.347	1	6
379.688	1	16
380.030	1	18
380.372	1	12
380.714	1	8
381.055	1	12
381.397	1	3
381.739	1	2
382.080	1	15
382.422	1	14
382.764	1	15
383.105	1	14
383.447	1	1
383.789	1	11
384.130	1	6
384.472	1	8
384.814	1	19
385.156	1	9
385.497	1	15
385.839	1	6
386.180	1	3
386.522	1	10
386.864	1	1
387.205	1	8
387.547	1	6
387.889	1	4
388.230	1	2
388.572	1	7
388.914	1	7
389.255	1	5
389.597	1	2
389.939	1	14
390.280	1	6
390.622	1	-4
390.963	1	0
391.305	1	-4
391.647	1	8
391.988	1	10
392.330	1	2
392.671	1	6
393.013	1	5
393.355	1	3
393.696	1	8
394.038	1	11
394.379	1	12
394.721	1	1
395.062	1	6
395.404	1	8
395.746	1	2
396.087	1	21
396.429	1	10
396.770	1	8
397.112	1	8
397.453	1	-2
397.795	1	6
398.136	1	5
398.478	1	12
398.819	1	9
399.161	1	6
399.503	1	11
399.844	1	0
400.186	1	13
400.527	1	12
400.869	1	-1
401.210	1	4
401.552	1	6
401.893	1	12
402.235	1	8
402.576	1	6
402.918	1	3
403.259	1	3
403.601	1	13
403.942	1	2
404.284	1	16
404.625	1	-4
404.967	1	9
405.308	1	-4
405.649	1	10
405.991	1	14
406.332	1	14
406.674	1	9
407.015	1	5
407.357	1	12
407.698	1	9
408.040	1	16
408.381	1	-1
408.722	1	8
409.064	1	3
409.405	1	15
409.747	1	5
410.088	1	8
410.430	1	10
410.771	1	9
411.112	1	5
411.454	1	8
411.795	1	6
412.137	1	3
412.478	1	5
412.819	1	8
413.161	1	7
413.502	1	4
413.844	1	18
414.185	1	9
414.526	1	5
414.868	1	2
415.209	1	-4
415.550	1	4
415.892	1	12
416.233	1	9
416.575	1	-4
416.916	1	0
417.257	1	2
417.599	1	15
417.940	1	-6
418.281	1	14
418.623	1	2
418.964	1	25
419.305	1	5
419.647	1	13
419.988	1	14
420.329	1	14
420.671	1	11
421.012	1	3
421.353	1	25
421.695	1	16
422.036	1	7
422.377	1	12
422.718	1	11
423.060	1	15
423.401	1	3
423.742	1	11
424.084	1	7
424.425	1	10
424.766	1	14
425.107	1	10
425.449	1	7
425.790	1	5
426.131	1	0
426.472	1	16
426.814	1	8
427.155	1	-1
427.496	1	10
427.837	1	6
428.179	1	20
428.520	1	6
428.861	1	9
429.202	1	6
429.544	1	2
429.885	1	8
430.226	1	-8
430.567	1	-4
430.909	1	1
431.250	1	12
431.591	1	5
431.932	1	10
432.273	1	13
432.615	1	4
432.956	1	4
433.297	1	11
433.638	1	10
433.979	1	3
434.320	1	11
434.662	1	15
435.003	1	14
435.344	1	3
435.685	1	-1
436.026	1	-7
436.368	1	6
436.709	1	-2
437.050	1	0
437.391	1	8
437.732	1	13
438.073	1	1
438.414	1	14
438.756	1	14
439.097	1	8
439.438	1	3
439.779	1	8
440.120	1	10
440.461	1	4
440.802	1	6
441.143	1	3
441.485	1	4
441.826	1	13
442.167	1	12
442.508	1	9
442.849	1	9
443.190	1	2
443.531	1	10
443.872	1	-4
444.213	1	3
444.554	1	9
444.895	1	-2
445.237	1	8
445.578	1	-3
445.919	1	3
446.260	1	8
446.601	1	7
446.942	1	6
447.283	1	14
447.624	1	-9
447.965	1	2
448.306	1	4
448.647	1	-1
448.988	1	9
449.329	1	7
449.670	1	9
450.011	1	8
450.352	1	2
450.693	1	11
451.034	1	3
451.375	1	4
451.716	1	3
452.057	1	9
452.398	1	10
452.739	1	-2
453.080	1	8
453.421	1	14
453.762	1	11
454.103	1	5
454.444	1	7
454.785	1	9
455.126	1	12
455.467	1	2
455.808	1	14
456.149	1	2
456.490	1	-1
456.831	1	-1
457.172	1	13
457.513	1	1
457.854	1	1
458.195	1	11
458.536	1	2
458.877	1	1
459.218	1	1
459.559	1	4
459.899	1	-1
460.240	1	-6
460.581	1	-3
460.922	1	0
461.263	1	14
461.604	1	3
461.945	1	8
462.286	1	1
462.627	1	4
462.968	1	16
463.309	1	7
463.649	1	-3
463.990	1	5
464.331	1	10
464.672	1	-1
465.013	1	15
465.354	1	9
465.695	1	6
466.036	1	13
466.376	1	3
466.717	1	-2
467.058	1	6
467.399	1	-7
467.740	1	16
468.081	1	5
468.422	1	6
468.762	1	8
469.103	1	6
469.444	1	10
469.785	1	-2
470.126	1	7
470.467	1	4
470.807	1	15
471.148	1	-2
471.489	1	12
471.830	1	6
472.171	1	1
472.511	1	14
472.852	1	8
473.193	1	-3
473.534	1	0
473.875	1	4
474.215	1	0
474.556	1	0
474.897	1	5
475.238	1	1
475.578	1	4
475.919	1	1
476.260	1	-4
476.601	1	3
476.942	1	7
477.282	1	-4
477.623	1	6
477.964	1	7
478.305	1	9
478.645	1	2
478.986	1	17
479.327	1	4
479.667	1	-2
480.008	1	2
480.349	1	-3
480.690	1	7
481.030	1	2
481.371	1	-8
481.712	1	16
482.053	1	14
482.393	1	3
482.734	1	10
483.075	1	8
483.415	1	4
483.756	1	-3
484.097	1	-9
484.437	1	9
484.778	1	-3
485.119	1	5
485.459	1	3
485.800	1	5
486.141	1	6
486.481	1	-10
486.822	1	6
487.163	1	-7
487.503	1	0
487.844	1	-2
488.185	1	5
488.525	1	-3
488.866	1	-5
489.207	1	3
489.547	1	4
489.888	1	9
490.228	1	-1
490.569	1	-3
490.910	1	13
491.250	1	11
491.591	1	10
491.932	1	16
492.272	1	-3
492.613	1	8
492.953	1	6
493.294	1	-1
493.635	1	8
493.975	1	15
494.316	1	-5
494.656	1	-2
494.997	1	-1
495.337	1	2
495.678	1	-2
496.019	1	-2
496.359	1	5
496.700	1	-3
497.040	1	-1
497.381	1	6
497.721	1	-8
498.062	1	1
498.403	1	8
498.743	1	12
499.084	1	-3
499.424	1	5
499.765	1	6
500.105	1	13
500.446	1	5
500.786	1	-3
501.127	1	5
501.467	1	9
501.808	1	5
502.148	1	-3
502.489	1	-1
502.829	1	6
503.170	1	10
503.510	1	0
503.851	1	11
504.191	1	4
504.532	1	13
504.872	1	-1
505.213	1	-1
505.553	1	4
505.894	1	15
506.234	1	12
506.575	1	24
506.915	1	6
507.256	1	11
507.596	1	17
507.936	1	18
508.277	1	13
508.617	1	11
508.958	1	11
509.298	1	5
509.639	1	2
509.979	1	8
510.319	1	11
510.660	1	-5
511.000	1	5
511.341	1	21
511.681	1	2
512.022	1	-7
512.362	1	11
512.702	1	-6
513.043	1	10
513.383	1	10
513.724	1	7
514.064	1	6
514.404	1	14
514.745	1	7
515.085	1	8
515.425	1	11
515.766	1	6
516.106	1	13
516.447	1	13
516.787	1	2
517.127	1	16
517.468	1	13
517.808	1	9
518.148	1	11
518.489	1	11
518.829	1	7
519.169	1	4
519.510	1	1
519.850	1	11
520.190	1	2
520.531	1	14
520.871	1	13
521.211	1	5
521.552	1	2
521.892	1	10
522.232	1	13
522.573	1	15
522.913	1	6
523.253	1	23
523.593	1	11
523.934	1	6
524.274	1	10
524.614	1	6
524.955	1	9
525.295	1	12
525.635	1	10
525.975	1	0
526.316	1	5
526.656	1	8
526.996	1	3
527.337	1	16
527.677	1	19
528.017	1	4
528.357	1	12
528.698	1	19
529.038	1	8
529.378	1	10
529.718	1	3
530.058	1	4
530.399	1	9
530.739	1	21
531.079	1	7
531.419	1	14
531.760	1	12
532.100	1	22
532.440	1	10
532.780	1	9
533.120	1	2
533.461	1	13
533.801	1	8
534.141	1	14
534.481	1	10
534.821	1	-1
535.162	1	10
535.502	1	5
535.842	1	5
536.182	1	1
536.522	1	10
536.862	1	6
537.203	1	17
537.543	1	10
537.883	1	11
538.223	1	22
538.563	1	6
538.903	1	8
539.243	1	6
539.584	1	6
539.924	1	3
540.264	1	19
540.604	1	16
540.944	1	1
541.284	1	8
541.624	1	10
541.964	1	13
542.305	1	13
542.645	1	6
542.985	1	1
543.325	1	10
543.665	1	4
544.005	1	9
544.345	1	15
544.685	1	1
545.025	1	12
545.365	1	10
545.705	1	9
546.045	1	10
546.386	1	4
546.726	1	0
547.066	1	7
547.406	1	5
547.746	1	7
548.086	1	5
548.426	1	3
548.766	1	2
549.106	1	8
549.446	1	9
549.786	1	14
550.126	1	11
550.466	1	0
550.806	1	13
551.146	1	7
551.486	1	13
551.826	1	4
552.166	1	4
552.506	1	7
552.846	1	11
553.186	1	-3
553.526	1	8
553.866	1	6
554.206	1	9
554.546	1	7
554.886	1	11
555.226	1	2
555.566	1	9
555.906	1	10
556.246	1	12
556.586	1	1
556.926	1	4
557.266	1	7
557.606	1	2
557.946	1	7
558.286	1	-3
558.626	1	6
558.966	1	2
559.306	1	13
559.646	1	13
559.986	1	10
560.325	1	1
560.665	1	5
561.005	1	4
561.345	1	5
561.685	1	7
562.025	1	5
562.365	1	7
562.705	1	19
563.045	1	6
563.385	1	2
563.725	1	7
564.064	1	0
564.404	1	2
564.744	1	20
565.084	1	13
565.424	1	-2
565.764	1	8
566.104	1	13
566.444	1	11
566.783	1	15
567.123	1	9
567.463	1	15
567.803	1	14
568.143	1	10
568.483	1	17
568.823	1	4
569.162	1	4
569.502	1	12
569.842	1	12
570.182	1	-4
570.522	1	-6
570.862	1	-8
571.201	1	12
571.541	1	1
571.881	1	0
572.221	1	12
572.561	1	7
572.900	1	9
573.240	1	0
573.580	1	16
573.920	1	18
574.260	1	9
574.599	1	13
574.939	1	19
575.279	1	1
575.619	1	2
575.959	1	1
576.298	1	-4
576.638	1	10
576.978	1	6
577.318	1	3
577.657	1	-1
577.997	1	8
578.337	1	15
578.677	1	7
579.016	1	9
579.356	1	0
579.696	1	2
580.036	1	2
580.375	1	8
580.715	1	1
581.055	1	8
581.394	1	4
581.734	1	0
582.074	1	-3
582.414	1	1
582.753	1	13
583.093	1	5
583.433	1	11
583.772	1	2
584.112	1	8
584.452	1	9
584.791	1	9
585.131	1	11
585.471	1	7
585.811	1	6
586.150	1	14
586.490	1	6
586.830	1	-1
587.169	1	5
587.509	1	0
587.849	1	19
588.188	1	16
588.528	1	-4
588.867	1	6
589.207	1	4
589.547	1	7
589.886	1	7
590.226	1	-7
590.566	1	0
590.905	1	5
591.245	1	-3
591.585	1	11
591.924	1	0
592.264	1	2
592.603	1	-4
592.943	1	-3
593.283	1	3
593.622	1	5
593.962	1	3
594.301	1	4
594.641	1	0
594.981	1	7
595.320	1	0
595.660	1	6
595.999	1	2
596.339	1	5
596.678	1	2
597.018	1	-10
597.358	1	-1
597.697	1	-5
598.037	1	9
598.376	1	2
598.716	1	1
599.055	1	7
599.395	1	5
599.734	1	2
600.074	1	1
600.413	1	6
600.753	1	7
601.092	1	-5
601.432	1	4
601.771	1	-1
602.111	1	9
602.451	1	-3
602.790	1	16
603.130	1	2
603.469	1	7
603.809	1	5
604.148	1	-6
604.487	1	4
604.827	1	4
605.166	1	6
605.506	1	11
605.845	1	13
606.185	1	2
606.524	1	6
606.864	1	11
607.203	1	18
607.543	1	3
607.882	1	6
608.222	1	0
608.561	1	-3
608.901	1	9
609.240	1	9
609.579	1	3
609.919	1	-4
610.258	1	8
610.598	1	-5
610.937	1	5
611.277	1	12
611.616	1	16
611.955	1	1
612.295	1	8
612.634	1	11
612.974	1	9
613.313	1	12
613.652	1	14
613.992	1	6
614.331	1	11
614.671	1	8
615.010	1	2
615.349	1	6
615.689	1	6
616.028	1	14
616.368	1	16
616.707	1	-3
617.046	1	3
617.386	1	11
617.725	1	2
618.064	1	-1
618.404	1	-1
618.743	1	5
619.082	1	18
619.422	1	15
619.761	1	4
620.100	1	5
620.440	1	10
620.779	1	-2
621.118	1	10
621.458	1	4
621.797	1	-5
622.136	1	-3
622.476	1	4
622.815	1	9
623.154	1	-10
623.494	1	1
623.833	1	-8
624.172	1	-7
624.511	1	-2
624.851	1	10
625.190	1	1
625.529	1	1
625.869	1	13
626.208	1	-5
626.547	1	-1
626.886	1	-1
627.226	1	7
627.565	1	0
627.904	1	6
628.243	1	4
628.583	1	8
628.922	1	5
629.261	1	14
629.600	1	2
629.940	1	1
630.279	1	10
630.618	1	8
630.957	1	8
631.297	1	14
631.636	1	5
631.975	1	4
632.314	1	6
632.653	1	10
632.993	1	6
633.332	1	6
633.671	1	5
634.010	1	9
634.349	1	9
634.689	1	0
635.028	1	-9
635.367	1	16
635.706	1	-4
636.045	1	-2
636.384	1	10
636.724	1	5
637.063	1	-9
637.402	1	5
637.741	1	3
638.080	1	-1
638.419	1	7
638.759	1	3
639.098	1	-1
639.437	1	2
639.776	1	5
640.115	1	-9
640.454	1	-7
640.793	1	-1
641.132	1	-1
641.472	1	19
641.811	1	2
642.150	1	9
642.489	1	13
642.828	1	1
643.167	1	7
643.506	1	-5
643.845	1	15
644.184	1	6
644.524	1	1
644.863	1	-3
645.202	1	10
645.541	1	2
645.880	1	9
646.219	1	3
646.558	1	3
646.897	1	-6
647.236	1	-10
647.575	1	5
647.914	1	7
648.253	1	4
648.592	1	6
648.931	1	9
649.270	1	9
649.610	1	3
649.949	1	-5
650.288	1	15
650.627	1	0
650.966	1	14
651.305	1	7
651.644	1	13
651.983	1	-3
652.322	1	-4
652.661	1	0
653.000	1	4
653.339	1	4
653.678	1	9
654.017	1	8
654.356	1	10
654.695	1	11
655.034	1	6
655.373	1	5
655.712	1	8
656.051	1	1
656.390	1	4
656.729	1	0
657.068	1	5
657.406	1	-4
657.745	1	15
658.084	1	9
658.423	1	8
658.762	1	-8
659.101	1	1
659.440	1	11
659.779	1	4
660.118	1	3
660.457	1	-4
660.796	1	11
661.135	1	7
661.474	1	3
661.813	1	2
662.152	1	4
662.491	1	-2
662.829	1	5
663.168	1	2
663.507	1	5
663.846	1	-4
664.185	1	5
664.524	1	5
664.863	1	-1
665.202	1	7
665.541	1	3
665.879	1	17
666.218	1	3
666.557	1	-4
666.896	1	1
667.235	1	-7
667.574	1	-6
667.913	1	15
668.251	1	-14
668.590	1	-4
668.929	1	-4
669.268	1	-11
669.607	1	0
669.946	1	-6
670.285	1	3
670.623	1	0
670.962	1	-10
671.301	1	9
671.640	1	2
671.979	1	-3
672.317	1	10
672.656	1	7
672.995	1	-3
673.334	1	2
673.673	1	13
674.011	1	12
674.350	1	3
674.689	1	-1
675.028	1	0
675.367	1	7
675.705	1	-3
676.044	1	0
676.383	1	5
676.722	1	-4
677.060	1	8
677.399	1	16
677.738	1	-4
678.077	1	-3
678.416	1	1
678.754	1	2
679.093	1	9
679.432	1	-5
679.771	1	4
680.109	1	1
680.448	1	1
680.787	1	-10
681.125	1	5
681.464	1	5
681.803	1	-2
682.142	1	6
682.480	1	-2
682.819	1	5
683.158	1	4
683.496	1	-2
683.835	1	4
684.174	1	6
684.512	1	-11
684.851	1	7
685.190	1	5
685.529	1	0
685.867	1	0
686.206	1	-11
686.545	1	4
686.883	1	10
687.222	1	-7
687.561	1	9
687.899	1	-7
688.238	1	1
688.577	1	-2
688.746	1	4