File: Data/GaN_150K_450ms/GaN_sample D_spot15_UVVIS_150 K_200um_450 ms 2x2mm1_54.txt
340.368	1	7
340.710	1	10
341.052	1	4
341.394	1	2
341.737	1	10
342.079	1	6
342.421	1	4
342.763	1	3
343.105	1	7
343.447	1	7
343.789	1	7
344.131	1	-4
344.473	1	4
344.815	1	8
345.157	1	11
345.499	1	5
345.841	1	6
346.183	1	13
346.526	1	4
346.868	1	-2
347.210	1	2
347.552	1	22
347.894	1	13
348.236	1	13
348.578	1	13
348.920	1	6
349.262	1	15
349.604	1	5
349.946	1	7
350.288	1	-1
350.630	1	2
350.972	1	13
351.314	1	3
351.656	1	10
351.998	1	20
352.340	1	17
352.682	1	7
353.024	1	23
353.366	1	23
353.708	1	12
354.050	1	10
354.392	1	5
354.734	1	25
355.076	1	32
355.418	1	23
355.760	1	22
356.102	1	24
356.444	1	31
356.785	1	34
357.127	1	37
357.469	1	40
357.811	1	34
358.153	1	34
358.495	1	48
358.837	1	54
359.179	1	55
359.521	1	56
359.863	1	49
360.205	1	70
360.547	1	84
360.889	1	84
361.231	1	108
361.572	1	120
361.914	1	127
362.256	1	145
362.598	1	172
362.940	1	197
363.282	1	202
363.624	1	251
363.966	1	280
364.308	1	330
364.649	1	363
364.991	1	436
365.333	1	473
365.675	1	552
366.017	1	606
366.359	1	653
366.701	1	707
367.042	1	797
367.384	1	814
367.726	1	854
368.068	1	886
368.410	1	863
368.752	1	857
369.093	1	801
369.435	1	808
369.777	1	764
370.119	1	695
370.461	1	640
370.803	1	607
371.144	1	560
371.486	1	519
371.828	1	473
372.170	1	439
372.512	1	410
372.853	1	388
373.195	1	373
373.537	1	346
373.879	1	324
374.220	1	323
374.562	1	303
374.904	1	284
375.246	1	261
375.588	1	233
375.929	1	225
376.271	1	224
376.613	1	206
376.955	1	197
377.296	1	182
377.638	1	167
377.980	1	159
378.321	1	147
378.663	1	142
379.005	1	149
379.347	1	128
379.688	1	137
380.030	1	119
380.372	1	113
380.714	1	115
381.055	1	115
381.397	1	112
381.739	1	110
382.080	1	114
382.422	1	105
382.764	1	106
383.105	1	112
383.447	1	101
383.789	1	105
384.130	1	103
384.472	1	105
384.814	1	117
385.156	1	101
385.497	1	124
385.839	1	95
386.180	1	106
386.522	1	110
386.864	1	97
387.205	1	94
387.547	1	101
387.889	1	92
388.230	1	100
388.572	1	85
388.914	1	89
389.255	1	83
389.597	1	80
389.939	1	86
390.280	1	78
390.622	1	70
390.963	1	64
391.305	1	78
391.647	1	77
391.988	1	69
392.330	1	71
392.671	1	68
393.013	1	65
393.355	1	80
393.696	1	60
394.038	1	77
394.379	1	75
394.721	1	57
395.062	1	63
395.404	1	67
395.746	1	69
396.087	1	58
396.429	1	78
396.770	1	76
397.112	1	57
397.453	1	67
397.795	1	62
398.136	1	66
398.478	1	66
398.819	1	67
399.161	1	63
399.503	1	68
399.844	1	52
400.186	1	61
400.527	1	57
400.869	1	49
401.210	1	49
401.552	1	58
401.893	1	54
402.235	1	56
402.576	1	55
402.918	1	41
403.259	1	54
403.601	1	49
403.942	1	45
404.284	1	57
404.625	1	49
404.967	1	50
405.308	1	36
405.649	1	41
405.991	1	48
406.332	1	47
406.674	1	52
407.015	1	45
407.357	1	48
407.698	1	46
408.040	1	46
408.381	1	33
408.722	1	51
409.064	1	46
409.405	1	44
409.747	1	40
410.088	1	51
410.430	1	41
410.771	1	35
411.112	1	40
411.454	1	40
411.795	1	43
412.137	1	33
412.478	1	39
412.819	1	48
413.161	1	34
413.502	1	34
413.844	1	46
414.185	1	31
414.526	1	10
414.868	1	39
415.209	1	23
415.550	1	27
415.892	1	30
416.233	1	31
416.575	1	24
416.916	1	37
417.257	1	28
417.599	1	38
417.940	1	20
418.281	1	35
418.623	1	39
418.964	1	39
419.305	1	38
419.647	1	21
419.988	1	40
420.329	1	39
420.671	1	34
421.012	1	32
421.353	1	45
421.695	1	33
422.036	1	34
422.377	1	31
422.718	1	29
423.060	1	37
423.401	1	23
423.742	1	38
424.084	1	37
424.425	1	35
424.766	1	28
425.107	1	26
425.449	1	29
425.790	1	22
426.131	1	21
426.472	1	41
426.814	1	31
427.155	1	29
427.496	1	27
427.837	1	29
428.179	1	27
428.520	1	34
428.861	1	36
429.202	1	20
429.544	1	30
429.885	1	32
430.226	1	12
430.567	1	16
430.909	1	25
431.250	1	27
431.591	1	30
431.932	1	27
432.273	1	32
432.615	1	22
432.956	1	22
433.297	1	33
433.638	1	32
433.979	1	20
434.320	1	18
434.662	1	31
435.003	1	29
435.344	1	20
435.685	1	28
436.026	1	18
436.368	1	13
436.709	1	17
437.050	1	26
437.391	1	13
437.732	1	17
438.073	1	20
438.414	1	23
438.756	1	32
439.097	1	21
439.438	1	17
439.779	1	22
440.120	1	23
440.461	1	30
440.802	1	18
441.143	1	25
441.485	1	12
441.826	1	27
442.167	1	21
442.508	1	19
442.849	1	18
443.190	1	25
443.531	1	19
443.872	1	14
444.213	1	11
444.554	1	29
444.895	1	22
445.237	1	23
445.578	1	21
445.919	1	27
446.260	1	26
446.601	1	16
446.942	1	13
447.283	1	23
447.624	1	13
447.965	1	18
448.306	1	24
448.647	1	19
448.988	1	29
449.329	1	28
449.670	1	16
450.011	1	24
450.352	1	16
450.693	1	28
451.034	1	18
451.375	1	18
451.716	1	27
452.057	1	21
452.398	1	28
452.739	1	27
453.080	1	18
453.421	1	24
453.762	1	35
454.103	1	18
454.444	1	20
454.785	1	17
455.126	1	24
455.467	1	28
455.808	1	28
456.149	1	3
456.490	1	12
456.831	1	21
457.172	1	23
457.513	1	21
457.854	1	10
458.195	1	16
458.536	1	25
458.877	1	31
459.218	1	28
459.559	1	17
459.899	1	18
460.240	1	7
460.581	1	10
460.922	1	28
461.263	1	22
461.604	1	19
461.945	1	22
462.286	1	15
462.627	1	24
462.968	1	19
463.309	1	22
463.649	1	13
463.990	1	17
464.331	1	15
464.672	1	22
465.013	1	11
465.354	1	27
465.695	1	29
466.036	1	29
466.376	1	25
466.717	1	4
467.058	1	16
467.399	1	12
467.740	1	28
468.081	1	17
468.422	1	25
468.762	1	30
469.103	1	15
469.444	1	16
469.785	1	12
470.126	1	24
470.467	1	23
470.807	1	18
471.148	1	18
471.489	1	32
471.830	1	29
472.171	1	25
472.511	1	27
472.852	1	27
473.193	1	24
473.534	1	27
473.875	1	24
474.215	1	23
474.556	1	18
474.897	1	16
475.238	1	34
475.578	1	27
475.919	1	16
476.260	1	26
476.601	1	22
476.942	1	17
477.282	1	12
477.623	1	12
477.964	1	40
478.305	1	23
478.645	1	26
478.986	1	31
479.327	1	28
479.667	1	35
480.008	1	37
480.349	1	34
480.690	1	38
481.030	1	24
481.371	1	26
481.712	1	38
482.053	1	41
482.393	1	28
482.734	1	39
483.075	1	32
483.415	1	37
483.756	1	39
484.097	1	36
484.437	1	41
484.778	1	33
485.119	1	40
485.459	1	27
485.800	1	31
486.141	1	38
486.481	1	29
486.822	1	46
487.163	1	37
487.503	1	43
487.844	1	33
488.185	1	51
488.525	1	43
488.866	1	45
489.207	1	54
489.547	1	48
489.888	1	56
490.228	1	51
490.569	1	50
490.910	1	55
491.250	1	56
491.591	1	53
491.932	1	69
492.272	1	46
492.613	1	56
492.953	1	57
493.294	1	52
493.635	1	72
493.975	1	66
494.316	1	57
494.656	1	67
494.997	1	59
495.337	1	70
495.678	1	59
496.019	1	58
496.359	1	59
496.700	1	67
497.040	1	62
497.381	1	63
497.721	1	67
498.062	1	74
498.403	1	73
498.743	1	70
499.084	1	79
499.424	1	80
499.765	1	89
500.105	1	96
500.446	1	83
500.786	1	82
501.127	1	87
501.467	1	97
501.808	1	87
502.148	1	96
502.489	1	98
502.829	1	81
503.170	1	116
503.510	1	107
503.851	1	115
504.191	1	98
504.532	1	105
504.872	1	107
505.213	1	103
505.553	1	110
505.894	1	112
506.234	1	122
506.575	1	126
506.915	1	107
507.256	1	109
507.596	1	126
507.936	1	131
508.277	1	104
508.617	1	117
508.958	1	130
509.298	1	112
509.639	1	104
509.979	1	113
510.319	1	114
510.660	1	113
511.000	1	126
511.341	1	131
511.681	1	121
512.022	1	119
512.362	1	139
512.702	1	115
513.043	1	134
513.383	1	129
513.724	1	130
514.064	1	125
514.404	1	137
514.745	1	134
515.085	1	145
515.425	1	137
515.766	1	130
516.106	1	132
516.447	1	147
516.787	1	140
517.127	1	146
517.468	1	146
517.808	1	150
518.148	1	148
518.489	1	151
518.829	1	153
519.169	1	142
519.510	1	139
519.850	1	159
520.190	1	154
520.531	1	166
520.871	1	150
521.211	1	154
521.552	1	151
521.892	1	168
522.232	1	166
522.573	1	156
522.913	1	165
523.253	1	163
523.593	1	167
523.934	1	153
524.274	1	154
524.614	1	155
524.955	1	148
525.295	1	166
525.635	1	167
525.975	1	155
526.316	1	156
526.656	1	166
526.996	1	168
527.337	1	175
527.677	1	177
528.017	1	150
528.357	1	168
528.698	1	169
529.038	1	173
529.378	1	172
529.718	1	164
530.058	1	165
530.399	1	178
530.739	1	189
531.079	1	170
531.419	1	186
531.760	1	183
532.100	1	190
532.440	1	180
532.780	1	170
533.120	1	174
533.461	1	183
533.801	1	178
534.141	1	168
534.481	1	191
534.821	1	158
535.162	1	162
535.502	1	158
535.842	1	166
536.182	1	155
536.522	1	153
536.862	1	155
537.203	1	159
537.543	1	167
537.883	1	145
538.223	1	155
538.563	1	137
538.903	1	143
539.243	1	137
539.584	1	150
539.924	1	151
540.264	1	158
540.604	1	156
540.944	1	150
541.284	1	146
541.624	1	143
541.964	1	143
542.305	1	152
542.645	1	141
542.985	1	140
543.325	1	152
543.665	1	156
544.005	1	144
544.345	1	151
544.685	1	143
545.025	1	150
545.365	1	155
545.705	1	148
546.045	1	158
546.386	1	157
546.726	1	153
547.066	1	156
547.406	1	144
547.746	1	151
548.086	1	150
548.426	1	157
548.766	1	143
549.106	1	149
549.446	1	137
549.786	1	143
550.126	1	159
550.466	1	151
550.806	1	165
551.146	1	150
551.486	1	137
551.826	1	129
552.166	1	142
552.506	1	139
552.846	1	149
553.186	1	120
553.526	1	125
553.866	1	129
554.206	1	134
554.546	1	141
554.886	1	132
555.226	1	127
555.566	1	134
555.906	1	123
556.246	1	134
556.586	1	123
556.926	1	134
557.266	1	124
557.606	1	117
557.946	1	124
558.286	1	106
558.626	1	124
558.966	1	120
559.306	1	118
559.646	1	115
559.986	1	122
560.325	1	117
560.665	1	114
561.005	1	129
561.345	1	110
561.685	1	110
562.025	1	131
562.365	1	122
562.705	1	121
563.045	1	109
563.385	1	116
563.725	1	117
564.064	1	120
564.404	1	108
564.744	1	115
565.084	1	123
565.424	1	111
565.764	1	107
566.104	1	109
566.444	1	115
566.783	1	98
567.123	1	100
567.463	1	105
567.803	1	111
568.143	1	97
568.483	1	115
568.823	1	92
569.162	1	104
569.502	1	105
569.842	1	96
570.182	1	102
570.522	1	101
570.862	1	83
571.201	1	93
571.541	1	92
571.881	1	90
572.221	1	97
572.561	1	98
572.900	1	97
573.240	1	82
573.580	1	93
573.920	1	94
574.260	1	92
574.599	1	80
574.939	1	84
575.279	1	75
575.619	1	84
575.959	1	80
576.298	1	82
576.638	1	88
576.978	1	95
577.318	1	80
577.657	1	79
577.997	1	87
578.337	1	76
578.677	1	96
579.016	1	80
579.356	1	86
579.696	1	74
580.036	1	92
580.375	1	75
580.715	1	83
581.055	1	76
581.394	1	78
581.734	1	77
582.074	1	78
582.414	1	67
582.753	1	72
583.093	1	83
583.433	1	95
583.772	1	82
584.112	1	69
584.452	1	82
584.791	1	86
585.131	1	88
585.471	1	72
585.811	1	86
586.150	1	84
586.490	1	86
586.830	1	82
587.169	1	69
587.509	1	76
587.849	1	75
588.188	1	68
588.528	1	71
588.867	1	70
589.207	1	65
589.547	1	68
589.886	1	71
590.226	1	53
590.566	1	69
590.905	1	55
591.245	1	53
591.585	1	49
591.924	1	63
592.264	1	54
592.603	1	48
592.943	1	57
593.283	1	60
593.622	1	59
593.962	1	73
594.301	1	59
594.641	1	63
594.981	1	61
595.320	1	65
595.660	1	63
595.999	1	73
596.339	1	52
596.678	1	56
597.018	1	52
597.358	1	56
597.697	1	48
598.037	1	63
598.376	1	46
598.716	1	64
599.055	1	58
599.395	1	65
599.734	1	59
600.074	1	50
600.413	1	52
600.753	1	60
601.092	1	52
601.432	1	46
601.771	1	59
602.111	1	59
602.451	1	54
602.790	1	66
603.130	1	65
603.469	1	48
603.809	1	57
604.148	1	52
604.487	1	61
604.827	1	59
605.166	1	64
605.506	1	55
605.845	1	66
606.185	1	60
606.524	1	54
606.864	1	60
607.203	1	55
607.543	1	63
607.882	1	51
608.222	1	58
608.561	1	44
608.901	1	54
609.240	1	52
609.579	1	45
609.919	1	36
610.258	1	63
610.598	1	39
610.937	1	52
611.277	1	55
611.616	1	49
611.955	1	46
612.295	1	54
612.634	1	52
612.974	1	39
613.313	1	61
613.652	1	64
613.992	1	41
614.331	1	53
614.671	1	42
615.010	1	42
615.349	1	39
615.689	1	44
616.028	1	54
616.368	1	47
616.707	1	44
617.046	1	37
617.386	1	49
617.725	1	45
618.064	1	41
618.404	1	37
618.743	1	45
619.082	1	52
619.422	1	51
619.761	1	45
620.100	1	37
620.440	1	53
620.779	1	41
621.118	1	47
621.458	1	45
621.797	1	48
622.136	1	38
622.476	1	39
622.815	1	47
623.154	1	30
623.494	1	32
623.833	1	42
624.172	1	39
624.511	1	40
624.851	1	34
625.190	1	51
625.529	1	31
625.869	1	51
626.208	1	47
626.547	1	40
626.886	1	42
627.226	1	35
627.565	1	55
627.904	1	36
628.243	1	51
628.583	1	34
628.922	1	42
629.261	1	42
629.600	1	40
629.940	1	47
630.279	1	45
630.618	1	42
630.957	1	40
631.297	1	47
631.636	1	33
631.975	1	33
632.314	1	34
632.653	1	34
632.993	1	34
633.332	1	35
633.671	1	42
634.010	1	41
634.349	1	51
634.689	1	31
635.028	1	29
635.367	1	45
635.706	1	36
636.045	1	25
636.384	1	43
636.724	1	39
637.063	1	25
637.402	1	42
637.741	1	34
638.080	1	36
638.419	1	37
638.759	1	43
639.098	1	36
639.437	1	34
639.776	1	25
640.115	1	30
640.454	1	39
640.793	1	27
641.132	1	35
641.472	1	43
641.811	1	31
642.150	1	32
642.489	1	35
642.828	1	37
643.167	1	42
643.506	1	41
643.845	1	39
644.184	1	43
644.524	1	30
644.863	1	40
645.202	1	29
645.541	1	29
645.880	1	34
646.219	1	35
646.558	1	27
646.897	1	24
647.236	1	29
647.575	1	31
647.914	1	32
648.253	1	45
648.592	1	37
648.931	1	46
649.270	1	42
649.610	1	41
649.949	1	24
650.288	1	40
650.627	1	23
650.966	1	37
651.305	1	37
651.644	1	42
651.983	1	24
652.322	1	39
652.661	1	39
653.000	1	36
653.339	1	36
653.678	1	42
654.017	1	29
654.356	1	39
654.695	1	36
655.034	1	18
655.373	1	36
655.712	1	38
656.051	1	23
656.390	1	40
656.729	1	33
657.068	1	29
657.406	1	30
657.745	1	39
658.084	1	23
658.423	1	33
658.762	1	31
659.101	1	16
659.440	1	36
659.779	1	30
660.118	1	20
660.457	1	27
660.796	1	29
661.135	1	34
661.474	1	28
661.813	1	29
662.152	1	23
662.491	1	26
662.829	1	25
663.168	1	19
663.507	1	26
663.846	1	17
664.185	1	24
664.524	1	24
664.863	1	19
665.202	1	24
665.541	1	22
665.879	1	33
666.218	1	36
666.557	1	17
666.896	1	28
667.235	1	25
667.574	1	16
667.913	1	30
668.251	1	18
668.590	1	22
668.929	1	30
669.268	1	28
669.607	1	19
669.946	1	28
670.285	1	29
670.623	1	16
670.962	1	27
671.301	1	38
671.640	1	38
671.979	1	20
672.317	1	22
672.656	1	39
672.995	1	28
673.334	1	14
673.673	1	33
674.011	1	33
674.350	1	32
674.689	1	17
675.028	1	40
675.367	1	29
675.705	1	14
676.044	1	18
676.383	1	28
676.722	1	16
677.060	1	28
677.399	1	31
677.738	1	21
678.077	1	24
678.416	1	21
678.754	1	32
679.093	1	29
679.432	1	30
679.771	1	34
680.109	1	26
680.448	1	12
680.787	1	15
681.125	1	30
681.464	1	24
681.803	1	19
682.142	1	31
682.480	1	7
682.819	1	20
683.158	1	27
683.496	1	29
683.835	1	31
684.174	1	28
684.512	1	16
684.851	1	25
685.190	1	25
685.529	1	22
685.867	1	31
686.206	1	19
686.545	1	19
686.883	1	34
687.222	1	25
687.561	1	34
687.899	1	23
688.238	1	48
688.577	1	41
688.746	1	38