File: Data/GaN_150K_450ms/GaN_sample D_spot15_UVVIS_150 K_200um_450 ms 2x2mm1_145.txt
340.368	1	0
340.710	1	-2
341.052	1	12
341.394	1	-11
341.737	1	7
342.079	1	5
342.421	1	5
342.763	1	6
343.105	1	3
343.447	1	7
343.789	1	6
344.131	1	-2
344.473	1	-1
344.815	1	-1
345.157	1	12
345.499	1	9
345.841	1	12
346.183	1	4
346.526	1	9
346.868	1	-6
347.210	1	-1
347.552	1	16
347.894	1	-2
348.236	1	14
348.578	1	7
348.920	1	5
349.262	1	6
349.604	1	-6
349.946	1	-1
350.288	1	4
350.630	1	8
350.972	1	10
351.314	1	-5
351.656	1	11
351.998	1	5
352.340	1	16
352.682	1	-2
353.024	1	18
353.366	1	7
353.708	1	7
354.050	1	-6
354.392	1	0
354.734	1	5
355.076	1	18
355.418	1	5
355.760	1	10
356.102	1	6
356.444	1	7
356.785	1	14
357.127	1	14
357.469	1	7
357.811	1	10
358.153	1	-9
358.495	1	8
358.837	1	11
359.179	1	5
359.521	1	23
359.863	1	5
360.205	1	19
360.547	1	10
360.889	1	14
361.231	1	14
361.572	1	23
361.914	1	10
362.256	1	21
362.598	1	22
362.940	1	25
363.282	1	6
363.624	1	11
363.966	1	14
364.308	1	25
364.649	1	32
364.991	1	32
365.333	1	33
365.675	1	40
366.017	1	37
366.359	1	28
366.701	1	37
367.042	1	40
367.384	1	35
367.726	1	39
368.068	1	61
368.410	1	50
368.752	1	53
369.093	1	44
369.435	1	55
369.777	1	48
370.119	1	36
370.461	1	37
370.803	1	38
371.144	1	34
371.486	1	48
371.828	1	33
372.170	1	29
372.512	1	32
372.853	1	39
373.195	1	27
373.537	1	18
373.879	1	22
374.220	1	34
374.562	1	30
374.904	1	22
375.246	1	19
375.588	1	12
375.929	1	10
376.271	1	15
376.613	1	9
376.955	1	17
377.296	1	29
377.638	1	9
377.980	1	15
378.321	1	19
378.663	1	18
379.005	1	11
379.347	1	14
379.688	1	21
380.030	1	20
380.372	1	20
380.714	1	12
381.055	1	15
381.397	1	16
381.739	1	4
382.080	1	11
382.422	1	13
382.764	1	9
383.105	1	0
383.447	1	3
383.789	1	4
384.130	1	5
384.472	1	7
384.814	1	5
385.156	1	12
385.497	1	14
385.839	1	7
386.180	1	8
386.522	1	12
386.864	1	-6
387.205	1	8
387.547	1	10
387.889	1	7
388.230	1	11
388.572	1	5
388.914	1	18
389.255	1	9
389.597	1	11
389.939	1	12
390.280	1	5
390.622	1	6
390.963	1	-6
391.305	1	7
391.647	1	6
391.988	1	8
392.330	1	-1
392.671	1	10
393.013	1	12
393.355	1	13
393.696	1	8
394.038	1	10
394.379	1	18
394.721	1	1
395.062	1	1
395.404	1	16
395.746	1	-2
396.087	1	11
396.429	1	18
396.770	1	6
397.112	1	11
397.453	1	4
397.795	1	11
398.136	1	10
398.478	1	6
398.819	1	14
399.161	1	12
399.503	1	11
399.844	1	2
400.186	1	7
400.527	1	12
400.869	1	3
401.210	1	7
401.552	1	9
401.893	1	8
402.235	1	17
402.576	1	7
402.918	1	-5
403.259	1	-1
403.601	1	10
403.942	1	14
404.284	1	16
404.625	1	-3
404.967	1	14
405.308	1	-3
405.649	1	14
405.991	1	16
406.332	1	8
406.674	1	8
407.015	1	10
407.357	1	18
407.698	1	14
408.040	1	18
408.381	1	5
408.722	1	17
409.064	1	16
409.405	1	3
409.747	1	2
410.088	1	7
410.430	1	14
410.771	1	10
411.112	1	10
411.454	1	6
411.795	1	7
412.137	1	5
412.478	1	14
412.819	1	15
413.161	1	9
413.502	1	17
413.844	1	8
414.185	1	12
414.526	1	7
414.868	1	3
415.209	1	9
415.550	1	6
415.892	1	16
416.233	1	14
416.575	1	4
416.916	1	6
417.257	1	7
417.599	1	3
417.940	1	-2
418.281	1	11
418.623	1	14
418.964	1	23
419.305	1	5
419.647	1	7
419.988	1	17
420.329	1	21
420.671	1	5
421.012	1	5
421.353	1	18
421.695	1	4
422.036	1	20
422.377	1	5
422.718	1	12
423.060	1	11
423.401	1	5
423.742	1	19
424.084	1	14
424.425	1	19
424.766	1	12
425.107	1	14
425.449	1	0
425.790	1	6
426.131	1	-1
426.472	1	15
426.814	1	16
427.155	1	3
427.496	1	9
427.837	1	3
428.179	1	19
428.520	1	13
428.861	1	8
429.202	1	-3
429.544	1	0
429.885	1	10
430.226	1	1
430.567	1	0
430.909	1	-6
431.250	1	16
431.591	1	17
431.932	1	4
432.273	1	11
432.615	1	9
432.956	1	8
433.297	1	7
433.638	1	16
433.979	1	2
434.320	1	11
434.662	1	11
435.003	1	17
435.344	1	5
435.685	1	-1
436.026	1	0
436.368	1	6
436.709	1	-2
437.050	1	5
437.391	1	0
437.732	1	11
438.073	1	6
438.414	1	19
438.756	1	13
439.097	1	10
439.438	1	6
439.779	1	7
440.120	1	6
440.461	1	12
440.802	1	11
441.143	1	7
441.485	1	5
441.826	1	13
442.167	1	13
442.508	1	11
442.849	1	10
443.190	1	7
443.531	1	2
443.872	1	8
444.213	1	4
444.554	1	4
444.895	1	10
445.237	1	12
445.578	1	7
445.919	1	8
446.260	1	15
446.601	1	16
446.942	1	2
447.283	1	9
447.624	1	4
447.965	1	0
448.306	1	4
448.647	1	11
448.988	1	3
449.329	1	12
449.670	1	10
450.011	1	7
450.352	1	1
450.693	1	15
451.034	1	1
451.375	1	4
451.716	1	7
452.057	1	6
452.398	1	7
452.739	1	10
453.080	1	9
453.421	1	11
453.762	1	14
454.103	1	3
454.444	1	-2
454.785	1	7
455.126	1	5
455.467	1	3
455.808	1	10
456.149	1	4
456.490	1	-5
456.831	1	12
457.172	1	11
457.513	1	6
457.854	1	8
458.195	1	8
458.536	1	8
458.877	1	16
459.218	1	15
459.559	1	9
459.899	1	4
460.240	1	13
460.581	1	-1
460.922	1	6
461.263	1	13
461.604	1	11
461.945	1	5
462.286	1	4
462.627	1	6
462.968	1	5
463.309	1	8
463.649	1	-13
463.990	1	8
464.331	1	6
464.672	1	6
465.013	1	2
465.354	1	13
465.695	1	2
466.036	1	8
466.376	1	15
466.717	1	2
467.058	1	11
467.399	1	-6
467.740	1	13
468.081	1	15
468.422	1	12
468.762	1	2
469.103	1	5
469.444	1	8
469.785	1	9
470.126	1	9
470.467	1	7
470.807	1	2
471.148	1	-1
471.489	1	1
471.830	1	11
472.171	1	10
472.511	1	14
472.852	1	18
473.193	1	0
473.534	1	0
473.875	1	2
474.215	1	6
474.556	1	6
474.897	1	-7
475.238	1	12
475.578	1	-15
475.919	1	9
476.260	1	3
476.601	1	7
476.942	1	6
477.282	1	-3
477.623	1	1
477.964	1	13
478.305	1	11
478.645	1	7
478.986	1	8
479.327	1	7
479.667	1	6
480.008	1	11
480.349	1	-3
480.690	1	8
481.030	1	-7
481.371	1	-10
481.712	1	11
482.053	1	13
482.393	1	12
482.734	1	5
483.075	1	9
483.415	1	1
483.756	1	11
484.097	1	8
484.437	1	21
484.778	1	-4
485.119	1	4
485.459	1	8
485.800	1	4
486.141	1	9
486.481	1	-8
486.822	1	6
487.163	1	4
487.503	1	-4
487.844	1	-8
488.185	1	10
488.525	1	1
488.866	1	-4
489.207	1	11
489.547	1	9
489.888	1	7
490.228	1	10
490.569	1	1
490.910	1	6
491.250	1	4
491.591	1	2
491.932	1	16
492.272	1	-1
492.613	1	6
492.953	1	5
493.294	1	-3
493.635	1	10
493.975	1	13
494.316	1	1
494.656	1	7
494.997	1	1
495.337	1	2
495.678	1	2
496.019	1	8
496.359	1	6
496.700	1	8
497.040	1	-3
497.381	1	3
497.721	1	-3
498.062	1	12
498.403	1	16
498.743	1	11
499.084	1	8
499.424	1	6
499.765	1	11
500.105	1	19
500.446	1	2
500.786	1	-3
501.127	1	14
501.467	1	17
501.808	1	16
502.148	1	1
502.489	1	7
502.829	1	3
503.170	1	7
503.510	1	10
503.851	1	5
504.191	1	7
504.532	1	7
504.872	1	14
505.213	1	7
505.553	1	10
505.894	1	12
506.234	1	19
506.575	1	21
506.915	1	4
507.256	1	7
507.596	1	14
507.936	1	18
508.277	1	15
508.617	1	13
508.958	1	17
509.298	1	6
509.639	1	6
509.979	1	16
510.319	1	16
510.660	1	4
511.000	1	5
511.341	1	16
511.681	1	7
512.022	1	1
512.362	1	15
512.702	1	8
513.043	1	20
513.383	1	-4
513.724	1	6
514.064	1	16
514.404	1	15
514.745	1	10
515.085	1	19
515.425	1	7
515.766	1	9
516.106	1	8
516.447	1	25
516.787	1	14
517.127	1	17
517.468	1	23
517.808	1	-2
518.148	1	20
518.489	1	6
518.829	1	9
519.169	1	4
519.510	1	-2
519.850	1	7
520.190	1	12
520.531	1	8
520.871	1	9
521.211	1	14
521.552	1	9
521.892	1	9
522.232	1	9
522.573	1	16
522.913	1	15
523.253	1	14
523.593	1	19
523.934	1	8
524.274	1	10
524.614	1	21
524.955	1	12
525.295	1	14
525.635	1	12
525.975	1	3
526.316	1	1
526.656	1	11
526.996	1	8
527.337	1	12
527.677	1	18
528.017	1	4
528.357	1	16
528.698	1	21
529.038	1	12
529.378	1	15
529.718	1	11
530.058	1	13
530.399	1	7
530.739	1	16
531.079	1	6
531.419	1	13
531.760	1	18
532.100	1	16
532.440	1	9
532.780	1	14
533.120	1	10
533.461	1	14
533.801	1	7
534.141	1	11
534.481	1	18
534.821	1	11
535.162	1	20
535.502	1	12
535.842	1	1
536.182	1	9
536.522	1	8
536.862	1	8
537.203	1	4
537.543	1	1
537.883	1	10
538.223	1	19
538.563	1	2
538.903	1	4
539.243	1	9
539.584	1	11
539.924	1	1
540.264	1	22
540.604	1	27
540.944	1	9
541.284	1	8
541.624	1	14
541.964	1	12
542.305	1	19
542.645	1	5
542.985	1	10
543.325	1	16
543.665	1	14
544.005	1	14
544.345	1	17
544.685	1	0
545.025	1	17
545.365	1	19
545.705	1	0
546.045	1	17
546.386	1	6
546.726	1	10
547.066	1	11
547.406	1	9
547.746	1	8
548.086	1	11
548.426	1	8
548.766	1	6
549.106	1	4
549.446	1	18
549.786	1	14
550.126	1	12
550.466	1	4
550.806	1	21
551.146	1	18
551.486	1	7
551.826	1	1
552.166	1	11
552.506	1	-2
552.846	1	13
553.186	1	4
553.526	1	12
553.866	1	-1
554.206	1	5
554.546	1	9
554.886	1	4
555.226	1	13
555.566	1	15
555.906	1	-2
556.246	1	10
556.586	1	15
556.926	1	9
557.266	1	19
557.606	1	-3
557.946	1	4
558.286	1	0
558.626	1	9
558.966	1	1
559.306	1	18
559.646	1	18
559.986	1	11
560.325	1	10
560.665	1	16
561.005	1	3
561.345	1	4
561.685	1	13
562.025	1	5
562.365	1	3
562.705	1	12
563.045	1	2
563.385	1	6
563.725	1	7
564.064	1	4
564.404	1	-3
564.744	1	19
565.084	1	9
565.424	1	5
565.764	1	8
566.104	1	12
566.444	1	12
566.783	1	8
567.123	1	9
567.463	1	8
567.803	1	18
568.143	1	3
568.483	1	8
568.823	1	4
569.162	1	8
569.502	1	9
569.842	1	-6
570.182	1	2
570.522	1	7
570.862	1	-9
571.201	1	14
571.541	1	10
571.881	1	9
572.221	1	8
572.561	1	14
572.900	1	11
573.240	1	8
573.580	1	7
573.920	1	22
574.260	1	0
574.599	1	14
574.939	1	6
575.279	1	9
575.619	1	5
575.959	1	7
576.298	1	0
576.638	1	14
576.978	1	8
577.318	1	10
577.657	1	5
577.997	1	9
578.337	1	11
578.677	1	9
579.016	1	6
579.356	1	7
579.696	1	5
580.036	1	-2
580.375	1	6
580.715	1	12
581.055	1	0
581.394	1	7
581.734	1	10
582.074	1	5
582.414	1	9
582.753	1	3
583.093	1	14
583.433	1	8
583.772	1	9
584.112	1	6
584.452	1	12
584.791	1	10
585.131	1	12
585.471	1	7
585.811	1	4
586.150	1	6
586.490	1	8
586.830	1	8
587.169	1	2
587.509	1	10
587.849	1	5
588.188	1	10
588.528	1	5
588.867	1	2
589.207	1	9
589.547	1	8
589.886	1	8
590.226	1	-5
590.566	1	3
590.905	1	4
591.245	1	-2
591.585	1	-1
591.924	1	-2
592.264	1	7
592.603	1	-7
592.943	1	-4
593.283	1	10
593.622	1	2
593.962	1	-1
594.301	1	-3
594.641	1	2
594.981	1	10
595.320	1	2
595.660	1	17
595.999	1	-1
596.339	1	4
596.678	1	-6
597.018	1	0
597.358	1	2
597.697	1	2
598.037	1	-9
598.376	1	2
598.716	1	3
599.055	1	-2
599.395	1	8
599.734	1	1
600.074	1	-2
600.413	1	7
600.753	1	15
601.092	1	1
601.432	1	-5
601.771	1	6
602.111	1	12
602.451	1	2
602.790	1	19
603.130	1	8
603.469	1	10
603.809	1	6
604.148	1	4
604.487	1	9
604.827	1	8
605.166	1	-6
605.506	1	-1
605.845	1	6
606.185	1	11
606.524	1	-2
606.864	1	11
607.203	1	11
607.543	1	9
607.882	1	15
608.222	1	3
608.561	1	8
608.901	1	12
609.240	1	8
609.579	1	-2
609.919	1	-10
610.258	1	15
610.598	1	-1
610.937	1	6
611.277	1	-2
611.616	1	19
611.955	1	-5
612.295	1	12
612.634	1	5
612.974	1	-1
613.313	1	13
613.652	1	17
613.992	1	-6
614.331	1	13
614.671	1	5
615.010	1	6
615.349	1	-6
615.689	1	2
616.028	1	14
616.368	1	11
616.707	1	4
617.046	1	7
617.386	1	17
617.725	1	6
618.064	1	3
618.404	1	3
618.743	1	9
619.082	1	19
619.422	1	15
619.761	1	2
620.100	1	9
620.440	1	3
620.779	1	7
621.118	1	11
621.458	1	-2
621.797	1	13
622.136	1	-7
622.476	1	1
622.815	1	16
623.154	1	-7
623.494	1	-1
623.833	1	2
624.172	1	5
624.511	1	3
624.851	1	9
625.190	1	2
625.529	1	5
625.869	1	16
626.208	1	3
626.547	1	6
626.886	1	3
627.226	1	10
627.565	1	10
627.904	1	-6
628.243	1	14
628.583	1	12
628.922	1	16
629.261	1	10
629.600	1	7
629.940	1	9
630.279	1	12
630.618	1	7
630.957	1	6
631.297	1	3
631.636	1	-3
631.975	1	7
632.314	1	9
632.653	1	0
632.993	1	3
633.332	1	7
633.671	1	-1
634.010	1	2
634.349	1	6
634.689	1	-2
635.028	1	-2
635.367	1	9
635.706	1	3
636.045	1	7
636.384	1	17
636.724	1	3
637.063	1	-8
637.402	1	8
637.741	1	10
638.080	1	8
638.419	1	6
638.759	1	1
639.098	1	5
639.437	1	5
639.776	1	0
640.115	1	-2
640.454	1	-1
640.793	1	8
641.132	1	11
641.472	1	22
641.811	1	4
642.150	1	2
642.489	1	1
642.828	1	22
643.167	1	4
643.506	1	5
643.845	1	13
644.184	1	17
644.524	1	1
644.863	1	5
645.202	1	-2
645.541	1	-2
645.880	1	17
646.219	1	2
646.558	1	-1
646.897	1	-7
647.236	1	-10
647.575	1	7
647.914	1	1
648.253	1	8
648.592	1	18
648.931	1	10
649.270	1	14
649.610	1	8
649.949	1	2
650.288	1	12
650.627	1	-5
650.966	1	3
651.305	1	4
651.644	1	11
651.983	1	-1
652.322	1	-1
652.661	1	4
653.000	1	10
653.339	1	-2
653.678	1	6
654.017	1	8
654.356	1	9
654.695	1	20
655.034	1	4
655.373	1	-1
655.712	1	6
656.051	1	-6
656.390	1	6
656.729	1	10
657.068	1	3
657.406	1	-6
657.745	1	7
658.084	1	5
658.423	1	8
658.762	1	-6
659.101	1	-5
659.440	1	5
659.779	1	4
660.118	1	2
660.457	1	9
660.796	1	9
661.135	1	11
661.474	1	0
661.813	1	-1
662.152	1	3
662.491	1	3
662.829	1	4
663.168	1	8
663.507	1	4
663.846	1	5
664.185	1	8
664.524	1	13
664.863	1	-7
665.202	1	4
665.541	1	4
665.879	1	6
666.218	1	10
666.557	1	-1
666.896	1	7
667.235	1	-6
667.574	1	-2
667.913	1	8
668.251	1	-7
668.590	1	4
668.929	1	-5
669.268	1	4
669.607	1	-9
669.946	1	5
670.285	1	-5
670.623	1	3
670.962	1	2
671.301	1	-2
671.640	1	7
671.979	1	-3
672.317	1	2
672.656	1	8
672.995	1	-3
673.334	1	-2
673.673	1	16
674.011	1	8
674.350	1	0
674.689	1	-7
675.028	1	10
675.367	1	3
675.705	1	2
676.044	1	2
676.383	1	5
676.722	1	4
677.060	1	0
677.399	1	10
677.738	1	7
678.077	1	1
678.416	1	-2
678.754	1	3
679.093	1	5
679.432	1	-1
679.771	1	7
680.109	1	8
680.448	1	-4
680.787	1	-2
681.125	1	-1
681.464	1	12
681.803	1	-4
682.142	1	2
682.480	1	-3
682.819	1	-4
683.158	1	2
683.496	1	7
683.835	1	8
684.174	1	3
684.512	1	-1
684.851	1	-2
685.190	1	6
685.529	1	0
685.867	1	6
686.206	1	-4
686.545	1	7
686.883	1	4
687.222	1	0
687.561	1	3
687.899	1	-6
688.238	1	7
688.577	1	1
688.746	1	3