File: Data/GaN_150K_450ms/GaN_sample D_spot15_UVVIS_150 K_200um_450 ms 2x2mm1_76.txt
340.368	1	3
340.710	1	4
341.052	1	10
341.394	1	-3
341.737	1	13
342.079	1	5
342.421	1	3
342.763	1	9
343.105	1	5
343.447	1	11
343.789	1	10
344.131	1	-3
344.473	1	11
344.815	1	4
345.157	1	17
345.499	1	-1
345.841	1	13
346.183	1	-1
346.526	1	-3
346.868	1	2
347.210	1	2
347.552	1	19
347.894	1	4
348.236	1	6
348.578	1	10
348.920	1	11
349.262	1	15
349.604	1	-1
349.946	1	2
350.288	1	2
350.630	1	-2
350.972	1	13
351.314	1	7
351.656	1	8
351.998	1	6
352.340	1	5
352.682	1	-5
353.024	1	21
353.366	1	6
353.708	1	7
354.050	1	6
354.392	1	-4
354.734	1	9
355.076	1	19
355.418	1	7
355.760	1	18
356.102	1	10
356.444	1	16
356.785	1	14
357.127	1	21
357.469	1	20
357.811	1	12
358.153	1	7
358.495	1	20
358.837	1	31
359.179	1	26
359.521	1	45
359.863	1	22
360.205	1	42
360.547	1	41
360.889	1	37
361.231	1	47
361.572	1	56
361.914	1	43
362.256	1	60
362.598	1	69
362.940	1	74
363.282	1	70
363.624	1	76
363.966	1	86
364.308	1	97
364.649	1	100
364.991	1	124
365.333	1	124
365.675	1	136
366.017	1	156
366.359	1	154
366.701	1	171
367.042	1	194
367.384	1	173
367.726	1	197
368.068	1	199
368.410	1	192
368.752	1	196
369.093	1	176
369.435	1	190
369.777	1	189
370.119	1	166
370.461	1	146
370.803	1	148
371.144	1	146
371.486	1	139
371.828	1	129
372.170	1	117
372.512	1	99
372.853	1	114
373.195	1	111
373.537	1	88
373.879	1	93
374.220	1	90
374.562	1	94
374.904	1	79
375.246	1	86
375.588	1	63
375.929	1	67
376.271	1	71
376.613	1	70
376.955	1	70
377.296	1	60
377.638	1	52
377.980	1	58
378.321	1	69
378.663	1	50
379.005	1	50
379.347	1	50
379.688	1	47
380.030	1	46
380.372	1	47
380.714	1	49
381.055	1	43
381.397	1	39
381.739	1	37
382.080	1	50
382.422	1	42
382.764	1	30
383.105	1	34
383.447	1	40
383.789	1	26
384.130	1	24
384.472	1	22
384.814	1	44
385.156	1	34
385.497	1	37
385.839	1	37
386.180	1	25
386.522	1	32
386.864	1	15
387.205	1	34
387.547	1	24
387.889	1	21
388.230	1	27
388.572	1	16
388.914	1	21
389.255	1	13
389.597	1	21
389.939	1	34
390.280	1	13
390.622	1	12
390.963	1	10
391.305	1	14
391.647	1	17
391.988	1	13
392.330	1	15
392.671	1	25
393.013	1	16
393.355	1	24
393.696	1	14
394.038	1	24
394.379	1	17
394.721	1	15
395.062	1	16
395.404	1	28
395.746	1	8
396.087	1	13
396.429	1	16
396.770	1	27
397.112	1	21
397.453	1	17
397.795	1	11
398.136	1	20
398.478	1	21
398.819	1	20
399.161	1	24
399.503	1	20
399.844	1	13
400.186	1	13
400.527	1	21
400.869	1	12
401.210	1	15
401.552	1	11
401.893	1	13
402.235	1	17
402.576	1	12
402.918	1	6
403.259	1	11
403.601	1	27
403.942	1	13
404.284	1	21
404.625	1	12
404.967	1	23
405.308	1	14
405.649	1	15
405.991	1	14
406.332	1	18
406.674	1	18
407.015	1	17
407.357	1	12
407.698	1	19
408.040	1	35
408.381	1	6
408.722	1	10
409.064	1	28
409.405	1	19
409.747	1	14
410.088	1	22
410.430	1	26
410.771	1	20
411.112	1	4
411.454	1	14
411.795	1	20
412.137	1	14
412.478	1	18
412.819	1	17
413.161	1	13
413.502	1	18
413.844	1	24
414.185	1	14
414.526	1	13
414.868	1	14
415.209	1	8
415.550	1	11
415.892	1	20
416.233	1	11
416.575	1	5
416.916	1	16
417.257	1	8
417.599	1	22
417.940	1	9
418.281	1	23
418.623	1	19
418.964	1	36
419.305	1	22
419.647	1	22
419.988	1	19
420.329	1	9
420.671	1	19
421.012	1	7
421.353	1	19
421.695	1	22
422.036	1	17
422.377	1	21
422.718	1	22
423.060	1	19
423.401	1	18
423.742	1	20
424.084	1	18
424.425	1	23
424.766	1	27
425.107	1	20
425.449	1	16
425.790	1	13
426.131	1	10
426.472	1	23
426.814	1	24
427.155	1	12
427.496	1	13
427.837	1	11
428.179	1	19
428.520	1	16
428.861	1	10
429.202	1	9
429.544	1	16
429.885	1	29
430.226	1	2
430.567	1	6
430.909	1	5
431.250	1	21
431.591	1	10
431.932	1	6
432.273	1	28
432.615	1	9
432.956	1	19
433.297	1	24
433.638	1	16
433.979	1	15
434.320	1	15
434.662	1	23
435.003	1	21
435.344	1	18
435.685	1	8
436.026	1	4
436.368	1	17
436.709	1	9
437.050	1	15
437.391	1	14
437.732	1	15
438.073	1	8
438.414	1	17
438.756	1	7
439.097	1	21
439.438	1	15
439.779	1	10
440.120	1	13
440.461	1	11
440.802	1	6
441.143	1	12
441.485	1	11
441.826	1	9
442.167	1	15
442.508	1	18
442.849	1	10
443.190	1	7
443.531	1	10
443.872	1	6
444.213	1	3
444.554	1	6
444.895	1	7
445.237	1	16
445.578	1	15
445.919	1	9
446.260	1	21
446.601	1	16
446.942	1	8
447.283	1	15
447.624	1	9
447.965	1	14
448.306	1	15
448.647	1	12
448.988	1	19
449.329	1	15
449.670	1	16
450.011	1	7
450.352	1	12
450.693	1	17
451.034	1	15
451.375	1	7
451.716	1	7
452.057	1	11
452.398	1	23
452.739	1	4
453.080	1	17
453.421	1	16
453.762	1	19
454.103	1	17
454.444	1	11
454.785	1	7
455.126	1	8
455.467	1	13
455.808	1	13
456.149	1	4
456.490	1	-2
456.831	1	5
457.172	1	11
457.513	1	11
457.854	1	11
458.195	1	8
458.536	1	14
458.877	1	16
459.218	1	13
459.559	1	10
459.899	1	5
460.240	1	8
460.581	1	9
460.922	1	7
461.263	1	12
461.604	1	11
461.945	1	11
462.286	1	4
462.627	1	0
462.968	1	5
463.309	1	9
463.649	1	9
463.990	1	20
464.331	1	18
464.672	1	9
465.013	1	13
465.354	1	21
465.695	1	9
466.036	1	18
466.376	1	19
466.717	1	-2
467.058	1	11
467.399	1	9
467.740	1	24
468.081	1	16
468.422	1	13
468.762	1	18
469.103	1	5
469.444	1	9
469.785	1	4
470.126	1	20
470.467	1	11
470.807	1	13
471.148	1	5
471.489	1	20
471.830	1	13
472.171	1	14
472.511	1	17
472.852	1	11
473.193	1	11
473.534	1	7
473.875	1	10
474.215	1	12
474.556	1	4
474.897	1	7
475.238	1	15
475.578	1	-1
475.919	1	4
476.260	1	6
476.601	1	11
476.942	1	10
477.282	1	-3
477.623	1	8
477.964	1	8
478.305	1	1
478.645	1	15
478.986	1	11
479.327	1	10
479.667	1	19
480.008	1	20
480.349	1	5
480.690	1	13
481.030	1	13
481.371	1	10
481.712	1	32
482.053	1	18
482.393	1	22
482.734	1	14
483.075	1	17
483.415	1	15
483.756	1	6
484.097	1	20
484.437	1	16
484.778	1	9
485.119	1	9
485.459	1	11
485.800	1	12
486.141	1	8
486.481	1	7
486.822	1	19
487.163	1	5
487.503	1	14
487.844	1	2
488.185	1	21
488.525	1	13
488.866	1	13
489.207	1	21
489.547	1	16
489.888	1	20
490.228	1	19
490.569	1	14
490.910	1	21
491.250	1	24
491.591	1	15
491.932	1	22
492.272	1	13
492.613	1	20
492.953	1	20
493.294	1	6
493.635	1	26
493.975	1	39
494.316	1	18
494.656	1	21
494.997	1	20
495.337	1	21
495.678	1	23
496.019	1	15
496.359	1	24
496.700	1	24
497.040	1	15
497.381	1	23
497.721	1	20
498.062	1	28
498.403	1	24
498.743	1	28
499.084	1	26
499.424	1	22
499.765	1	34
500.105	1	36
500.446	1	18
500.786	1	23
501.127	1	32
501.467	1	32
501.808	1	33
502.148	1	33
502.489	1	35
502.829	1	33
503.170	1	43
503.510	1	37
503.851	1	35
504.191	1	33
504.532	1	45
504.872	1	35
505.213	1	33
505.553	1	30
505.894	1	23
506.234	1	40
506.575	1	47
506.915	1	47
507.256	1	31
507.596	1	37
507.936	1	41
508.277	1	42
508.617	1	37
508.958	1	37
509.298	1	37
509.639	1	35
509.979	1	36
510.319	1	49
510.660	1	32
511.000	1	38
511.341	1	56
511.681	1	42
512.022	1	33
512.362	1	52
512.702	1	29
513.043	1	42
513.383	1	37
513.724	1	41
514.064	1	44
514.404	1	47
514.745	1	40
515.085	1	45
515.425	1	51
515.766	1	47
516.106	1	44
516.447	1	61
516.787	1	45
517.127	1	59
517.468	1	60
517.808	1	42
518.148	1	49
518.489	1	43
518.829	1	45
519.169	1	34
519.510	1	52
519.850	1	44
520.190	1	44
520.531	1	44
520.871	1	59
521.211	1	41
521.552	1	44
521.892	1	53
522.232	1	48
522.573	1	49
522.913	1	51
523.253	1	49
523.593	1	53
523.934	1	45
524.274	1	45
524.614	1	46
524.955	1	56
525.295	1	56
525.635	1	58
525.975	1	47
526.316	1	47
526.656	1	50
526.996	1	44
527.337	1	51
527.677	1	65
528.017	1	53
528.357	1	49
528.698	1	57
529.038	1	48
529.378	1	58
529.718	1	43
530.058	1	55
530.399	1	52
530.739	1	51
531.079	1	51
531.419	1	52
531.760	1	52
532.100	1	61
532.440	1	56
532.780	1	40
533.120	1	49
533.461	1	55
533.801	1	47
534.141	1	51
534.481	1	54
534.821	1	53
535.162	1	57
535.502	1	43
535.842	1	47
536.182	1	45
536.522	1	49
536.862	1	41
537.203	1	43
537.543	1	36
537.883	1	44
538.223	1	58
538.563	1	41
538.903	1	42
539.243	1	45
539.584	1	45
539.924	1	45
540.264	1	58
540.604	1	46
540.944	1	45
541.284	1	41
541.624	1	43
541.964	1	40
542.305	1	49
542.645	1	49
542.985	1	38
543.325	1	48
543.665	1	47
544.005	1	39
544.345	1	49
544.685	1	41
545.025	1	57
545.365	1	45
545.705	1	36
546.045	1	47
546.386	1	32
546.726	1	49
547.066	1	44
547.406	1	32
547.746	1	44
548.086	1	43
548.426	1	48
548.766	1	52
549.106	1	30
549.446	1	42
549.786	1	43
550.126	1	55
550.466	1	45
550.806	1	59
551.146	1	47
551.486	1	30
551.826	1	39
552.166	1	39
552.506	1	42
552.846	1	41
553.186	1	26
553.526	1	39
553.866	1	41
554.206	1	38
554.546	1	40
554.886	1	45
555.226	1	39
555.566	1	43
555.906	1	28
556.246	1	30
556.586	1	35
556.926	1	33
557.266	1	39
557.606	1	25
557.946	1	45
558.286	1	30
558.626	1	38
558.966	1	39
559.306	1	43
559.646	1	35
559.986	1	41
560.325	1	40
560.665	1	32
561.005	1	39
561.345	1	31
561.685	1	39
562.025	1	26
562.365	1	38
562.705	1	46
563.045	1	39
563.385	1	27
563.725	1	33
564.064	1	18
564.404	1	13
564.744	1	39
565.084	1	41
565.424	1	26
565.764	1	29
566.104	1	35
566.444	1	26
566.783	1	37
567.123	1	30
567.463	1	26
567.803	1	34
568.143	1	27
568.483	1	38
568.823	1	23
569.162	1	24
569.502	1	28
569.842	1	16
570.182	1	27
570.522	1	21
570.862	1	9
571.201	1	27
571.541	1	26
571.881	1	24
572.221	1	20
572.561	1	31
572.900	1	32
573.240	1	19
573.580	1	22
573.920	1	23
574.260	1	24
574.599	1	23
574.939	1	15
575.279	1	22
575.619	1	21
575.959	1	24
576.298	1	13
576.638	1	22
576.978	1	20
577.318	1	27
577.657	1	23
577.997	1	21
578.337	1	17
578.677	1	21
579.016	1	8
579.356	1	20
579.696	1	22
580.036	1	24
580.375	1	15
580.715	1	20
581.055	1	23
581.394	1	26
581.734	1	20
582.074	1	17
582.414	1	12
582.753	1	14
583.093	1	27
583.433	1	23
583.772	1	25
584.112	1	21
584.452	1	24
584.791	1	24
585.131	1	19
585.471	1	19
585.811	1	14
586.150	1	17
586.490	1	13
586.830	1	24
587.169	1	22
587.509	1	6
587.849	1	25
588.188	1	16
588.528	1	17
588.867	1	21
589.207	1	12
589.547	1	30
589.886	1	16
590.226	1	9
590.566	1	14
590.905	1	9
591.245	1	17
591.585	1	11
591.924	1	9
592.264	1	15
592.603	1	1
592.943	1	2
593.283	1	19
593.622	1	11
593.962	1	20
594.301	1	-3
594.641	1	15
594.981	1	13
595.320	1	17
595.660	1	17
595.999	1	20
596.339	1	15
596.678	1	-1
597.018	1	7
597.358	1	10
597.697	1	7
598.037	1	17
598.376	1	-4
598.716	1	17
599.055	1	26
599.395	1	1
599.734	1	17
600.074	1	12
600.413	1	18
600.753	1	18
601.092	1	10
601.432	1	0
601.771	1	10
602.111	1	13
602.451	1	2
602.790	1	18
603.130	1	10
603.469	1	21
603.809	1	9
604.148	1	4
604.487	1	11
604.827	1	4
605.166	1	16
605.506	1	7
605.845	1	19
606.185	1	7
606.524	1	14
606.864	1	12
607.203	1	20
607.543	1	16
607.882	1	16
608.222	1	10
608.561	1	13
608.901	1	22
609.240	1	6
609.579	1	11
609.919	1	9
610.258	1	27
610.598	1	4
610.937	1	6
611.277	1	11
611.616	1	18
611.955	1	8
612.295	1	16
612.634	1	6
612.974	1	7
613.313	1	20
613.652	1	24
613.992	1	12
614.331	1	22
614.671	1	10
615.010	1	5
615.349	1	19
615.689	1	7
616.028	1	23
616.368	1	20
616.707	1	9
617.046	1	10
617.386	1	12
617.725	1	13
618.064	1	2
618.404	1	2
618.743	1	12
619.082	1	25
619.422	1	22
619.761	1	1
620.100	1	8
620.440	1	14
620.779	1	21
621.118	1	20
621.458	1	9
621.797	1	2
622.136	1	0
622.476	1	6
622.815	1	8
623.154	1	-3
623.494	1	2
623.833	1	9
624.172	1	13
624.511	1	1
624.851	1	6
625.190	1	14
625.529	1	11
625.869	1	17
626.208	1	9
626.547	1	10
626.886	1	8
627.226	1	11
627.565	1	7
627.904	1	8
628.243	1	15
628.583	1	10
628.922	1	14
629.261	1	11
629.600	1	2
629.940	1	16
630.279	1	16
630.618	1	9
630.957	1	15
631.297	1	14
631.636	1	10
631.975	1	4
632.314	1	11
632.653	1	-3
632.993	1	16
633.332	1	11
633.671	1	18
634.010	1	15
634.349	1	16
634.689	1	7
635.028	1	12
635.367	1	10
635.706	1	-1
636.045	1	4
636.384	1	15
636.724	1	20
637.063	1	5
637.402	1	8
637.741	1	1
638.080	1	12
638.419	1	8
638.759	1	7
639.098	1	13
639.437	1	4
639.776	1	17
640.115	1	13
640.454	1	4
640.793	1	13
641.132	1	6
641.472	1	20
641.811	1	8
642.150	1	0
642.489	1	5
642.828	1	24
643.167	1	11
643.506	1	4
643.845	1	19
644.184	1	11
644.524	1	-2
644.863	1	5
645.202	1	7
645.541	1	0
645.880	1	10
646.219	1	2
646.558	1	-5
646.897	1	1
647.236	1	1
647.575	1	16
647.914	1	6
648.253	1	10
648.592	1	10
648.931	1	16
649.270	1	12
649.610	1	2
649.949	1	4
650.288	1	14
650.627	1	10
650.966	1	10
651.305	1	8
651.644	1	17
651.983	1	6
652.322	1	4
652.661	1	14
653.000	1	11
653.339	1	6
653.678	1	5
654.017	1	11
654.356	1	15
654.695	1	20
655.034	1	4
655.373	1	7
655.712	1	11
656.051	1	6
656.390	1	15
656.729	1	18
657.068	1	10
657.406	1	9
657.745	1	17
658.084	1	2
658.423	1	15
658.762	1	7
659.101	1	7
659.440	1	8
659.779	1	17
660.118	1	1
660.457	1	8
660.796	1	8
661.135	1	14
661.474	1	10
661.813	1	0
662.152	1	2
662.491	1	5
662.829	1	7
663.168	1	11
663.507	1	1
663.846	1	3
664.185	1	6
664.524	1	19
664.863	1	1
665.202	1	7
665.541	1	-1
665.879	1	13
666.218	1	16
666.557	1	8
666.896	1	7
667.235	1	10
667.574	1	10
667.913	1	6
668.251	1	-2
668.590	1	-1
668.929	1	8
669.268	1	0
669.607	1	6
669.946	1	15
670.285	1	6
670.623	1	13
670.962	1	6
671.301	1	5
671.640	1	12
671.979	1	0
672.317	1	11
672.656	1	13
672.995	1	6
673.334	1	7
673.673	1	9
674.011	1	11
674.350	1	15
674.689	1	6
675.028	1	4
675.367	1	3
675.705	1	1
676.044	1	6
676.383	1	8
676.722	1	14
677.060	1	2
677.399	1	12
677.738	1	11
678.077	1	3
678.416	1	6
678.754	1	14
679.093	1	12
679.432	1	2
679.771	1	7
680.109	1	9
680.448	1	1
680.787	1	-6
681.125	1	9
681.464	1	15
681.803	1	4
682.142	1	14
682.480	1	5
682.819	1	0
683.158	1	9
683.496	1	4
683.835	1	8
684.174	1	10
684.512	1	6
684.851	1	2
685.190	1	0
685.529	1	0
685.867	1	6
686.206	1	7
686.545	1	7
686.883	1	7
687.222	1	7
687.561	1	4
687.899	1	9
688.238	1	11
688.577	1	8
688.746	1	0