File: Data/GaN_150K_450ms/GaN_sample D_spot15_UVVIS_150 K_200um_450 ms 2x2mm1_183.txt
340.368	1	-1
340.710	1	12
341.052	1	0
341.394	1	-2
341.737	1	11
342.079	1	4
342.421	1	0
342.763	1	9
343.105	1	3
343.447	1	1
343.789	1	2
344.131	1	-17
344.473	1	1
344.815	1	6
345.157	1	12
345.499	1	-2
345.841	1	1
346.183	1	1
346.526	1	10
346.868	1	4
347.210	1	3
347.552	1	9
347.894	1	2
348.236	1	2
348.578	1	8
348.920	1	2
349.262	1	10
349.604	1	-1
349.946	1	-2
350.288	1	-6
350.630	1	1
350.972	1	10
351.314	1	6
351.656	1	5
351.998	1	2
352.340	1	11
352.682	1	-8
353.024	1	14
353.366	1	10
353.708	1	12
354.050	1	-8
354.392	1	-8
354.734	1	5
355.076	1	17
355.418	1	3
355.760	1	10
356.102	1	7
356.444	1	6
356.785	1	6
357.127	1	18
357.469	1	5
357.811	1	7
358.153	1	-1
358.495	1	8
358.837	1	15
359.179	1	2
359.521	1	16
359.863	1	4
360.205	1	18
360.547	1	14
360.889	1	10
361.231	1	8
361.572	1	17
361.914	1	14
362.256	1	11
362.598	1	12
362.940	1	8
363.282	1	9
363.624	1	7
363.966	1	7
364.308	1	11
364.649	1	20
364.991	1	28
365.333	1	16
365.675	1	28
366.017	1	12
366.359	1	21
366.701	1	19
367.042	1	21
367.384	1	27
367.726	1	33
368.068	1	25
368.410	1	22
368.752	1	48
369.093	1	26
369.435	1	39
369.777	1	23
370.119	1	26
370.461	1	20
370.803	1	19
371.144	1	17
371.486	1	27
371.828	1	15
372.170	1	14
372.512	1	7
372.853	1	21
373.195	1	19
373.537	1	-2
373.879	1	11
374.220	1	9
374.562	1	20
374.904	1	20
375.246	1	8
375.588	1	10
375.929	1	17
376.271	1	12
376.613	1	10
376.955	1	13
377.296	1	16
377.638	1	3
377.980	1	7
378.321	1	18
378.663	1	11
379.005	1	13
379.347	1	4
379.688	1	19
380.030	1	13
380.372	1	17
380.714	1	5
381.055	1	4
381.397	1	6
381.739	1	-7
382.080	1	10
382.422	1	3
382.764	1	12
383.105	1	4
383.447	1	11
383.789	1	-2
384.130	1	17
384.472	1	4
384.814	1	5
385.156	1	4
385.497	1	16
385.839	1	10
386.180	1	3
386.522	1	6
386.864	1	-1
387.205	1	0
387.547	1	8
387.889	1	-5
388.230	1	9
388.572	1	0
388.914	1	3
389.255	1	1
389.597	1	-1
389.939	1	16
390.280	1	-2
390.622	1	0
390.963	1	-3
391.305	1	-3
391.647	1	3
391.988	1	1
392.330	1	2
392.671	1	12
393.013	1	-1
393.355	1	8
393.696	1	-5
394.038	1	1
394.379	1	16
394.721	1	5
395.062	1	5
395.404	1	8
395.746	1	2
396.087	1	3
396.429	1	4
396.770	1	9
397.112	1	14
397.453	1	-1
397.795	1	6
398.136	1	11
398.478	1	2
398.819	1	12
399.161	1	13
399.503	1	17
399.844	1	3
400.186	1	6
400.527	1	7
400.869	1	2
401.210	1	5
401.552	1	9
401.893	1	3
402.235	1	7
402.576	1	0
402.918	1	7
403.259	1	10
403.601	1	17
403.942	1	-3
404.284	1	17
404.625	1	2
404.967	1	10
405.308	1	-2
405.649	1	14
405.991	1	3
406.332	1	-2
406.674	1	-4
407.015	1	8
407.357	1	13
407.698	1	5
408.040	1	19
408.381	1	-1
408.722	1	2
409.064	1	7
409.405	1	8
409.747	1	2
410.088	1	16
410.430	1	12
410.771	1	6
411.112	1	1
411.454	1	6
411.795	1	12
412.137	1	15
412.478	1	11
412.819	1	7
413.161	1	1
413.502	1	8
413.844	1	6
414.185	1	9
414.526	1	2
414.868	1	3
415.209	1	0
415.550	1	2
415.892	1	11
416.233	1	14
416.575	1	-2
416.916	1	-2
417.257	1	-1
417.599	1	4
417.940	1	2
418.281	1	7
418.623	1	8
418.964	1	17
419.305	1	12
419.647	1	6
419.988	1	28
420.329	1	9
420.671	1	14
421.012	1	2
421.353	1	17
421.695	1	7
422.036	1	11
422.377	1	0
422.718	1	15
423.060	1	15
423.401	1	4
423.742	1	12
424.084	1	12
424.425	1	16
424.766	1	-2
425.107	1	7
425.449	1	9
425.790	1	9
426.131	1	1
426.472	1	13
426.814	1	2
427.155	1	9
427.496	1	7
427.837	1	4
428.179	1	16
428.520	1	8
428.861	1	8
429.202	1	-6
429.544	1	7
429.885	1	8
430.226	1	-5
430.567	1	0
430.909	1	10
431.250	1	7
431.591	1	7
431.932	1	10
432.273	1	13
432.615	1	-4
432.956	1	4
433.297	1	-3
433.638	1	21
433.979	1	6
434.320	1	7
434.662	1	14
435.003	1	9
435.344	1	4
435.685	1	-3
436.026	1	-1
436.368	1	0
436.709	1	4
437.050	1	5
437.391	1	10
437.732	1	9
438.073	1	8
438.414	1	7
438.756	1	0
439.097	1	4
439.438	1	13
439.779	1	0
440.120	1	4
440.461	1	6
440.802	1	12
441.143	1	11
441.485	1	3
441.826	1	4
442.167	1	4
442.508	1	9
442.849	1	10
443.190	1	8
443.531	1	4
443.872	1	-3
444.213	1	2
444.554	1	10
444.895	1	9
445.237	1	18
445.578	1	-9
445.919	1	3
446.260	1	14
446.601	1	3
446.942	1	10
447.283	1	13
447.624	1	-4
447.965	1	0
448.306	1	9
448.647	1	3
448.988	1	4
449.329	1	8
449.670	1	-2
450.011	1	6
450.352	1	3
450.693	1	11
451.034	1	9
451.375	1	5
451.716	1	8
452.057	1	8
452.398	1	13
452.739	1	3
453.080	1	13
453.421	1	8
453.762	1	9
454.103	1	8
454.444	1	7
454.785	1	4
455.126	1	12
455.467	1	4
455.808	1	13
456.149	1	5
456.490	1	-6
456.831	1	4
457.172	1	3
457.513	1	0
457.854	1	-5
458.195	1	-7
458.536	1	6
458.877	1	10
459.218	1	8
459.559	1	13
459.899	1	2
460.240	1	6
460.581	1	-8
460.922	1	7
461.263	1	7
461.604	1	1
461.945	1	10
462.286	1	-3
462.627	1	5
462.968	1	6
463.309	1	10
463.649	1	5
463.990	1	1
464.331	1	10
464.672	1	3
465.013	1	11
465.354	1	19
465.695	1	6
466.036	1	21
466.376	1	7
466.717	1	-7
467.058	1	7
467.399	1	-6
467.740	1	14
468.081	1	0
468.422	1	-3
468.762	1	9
469.103	1	6
469.444	1	9
469.785	1	0
470.126	1	11
470.467	1	7
470.807	1	13
471.148	1	3
471.489	1	0
471.830	1	3
472.171	1	17
472.511	1	6
472.852	1	8
473.193	1	5
473.534	1	10
473.875	1	-1
474.215	1	6
474.556	1	-4
474.897	1	-10
475.238	1	12
475.578	1	1
475.919	1	0
476.260	1	-2
476.601	1	-2
476.942	1	-3
477.282	1	1
477.623	1	1
477.964	1	7
478.305	1	8
478.645	1	7
478.986	1	10
479.327	1	10
479.667	1	4
480.008	1	7
480.349	1	-1
480.690	1	4
481.030	1	-2
481.371	1	-4
481.712	1	13
482.053	1	10
482.393	1	3
482.734	1	7
483.075	1	2
483.415	1	-1
483.756	1	9
484.097	1	12
484.437	1	10
484.778	1	-5
485.119	1	9
485.459	1	-7
485.800	1	-6
486.141	1	9
486.481	1	-2
486.822	1	8
487.163	1	8
487.503	1	11
487.844	1	-8
488.185	1	2
488.525	1	-3
488.866	1	-2
489.207	1	6
489.547	1	8
489.888	1	7
490.228	1	8
490.569	1	2
490.910	1	4
491.250	1	8
491.591	1	0
491.932	1	13
492.272	1	0
492.613	1	-3
492.953	1	4
493.294	1	-13
493.635	1	0
493.975	1	20
494.316	1	-1
494.656	1	10
494.997	1	-11
495.337	1	1
495.678	1	1
496.019	1	6
496.359	1	4
496.700	1	11
497.040	1	-3
497.381	1	5
497.721	1	5
498.062	1	0
498.403	1	14
498.743	1	13
499.084	1	4
499.424	1	1
499.765	1	6
500.105	1	11
500.446	1	3
500.786	1	-7
501.127	1	4
501.467	1	12
501.808	1	-1
502.148	1	1
502.489	1	-3
502.829	1	-1
503.170	1	7
503.510	1	1
503.851	1	12
504.191	1	-3
504.532	1	15
504.872	1	-1
505.213	1	3
505.553	1	1
505.894	1	-1
506.234	1	11
506.575	1	13
506.915	1	9
507.256	1	9
507.596	1	16
507.936	1	15
508.277	1	15
508.617	1	6
508.958	1	18
509.298	1	-5
509.639	1	-6
509.979	1	0
510.319	1	8
510.660	1	5
511.000	1	4
511.341	1	18
511.681	1	10
512.022	1	-6
512.362	1	4
512.702	1	-6
513.043	1	8
513.383	1	5
513.724	1	4
514.064	1	8
514.404	1	10
514.745	1	-4
515.085	1	14
515.425	1	10
515.766	1	12
516.106	1	2
516.447	1	10
516.787	1	12
517.127	1	13
517.468	1	15
517.808	1	0
518.148	1	14
518.489	1	7
518.829	1	3
519.169	1	5
519.510	1	-1
519.850	1	3
520.190	1	10
520.531	1	6
520.871	1	11
521.211	1	6
521.552	1	5
521.892	1	8
522.232	1	8
522.573	1	4
522.913	1	15
523.253	1	19
523.593	1	18
523.934	1	15
524.274	1	13
524.614	1	20
524.955	1	5
525.295	1	16
525.635	1	6
525.975	1	0
526.316	1	-3
526.656	1	20
526.996	1	7
527.337	1	16
527.677	1	10
528.017	1	2
528.357	1	12
528.698	1	10
529.038	1	3
529.378	1	3
529.718	1	3
530.058	1	9
530.399	1	3
530.739	1	12
531.079	1	3
531.419	1	5
531.760	1	17
532.100	1	21
532.440	1	8
532.780	1	5
533.120	1	6
533.461	1	8
533.801	1	12
534.141	1	3
534.481	1	21
534.821	1	10
535.162	1	21
535.502	1	8
535.842	1	6
536.182	1	-5
536.522	1	6
536.862	1	3
537.203	1	6
537.543	1	-2
537.883	1	4
538.223	1	18
538.563	1	8
538.903	1	4
539.243	1	1
539.584	1	-2
539.924	1	6
540.264	1	18
540.604	1	20
540.944	1	5
541.284	1	16
541.624	1	11
541.964	1	7
542.305	1	17
542.645	1	3
542.985	1	2
543.325	1	15
543.665	1	8
544.005	1	0
544.345	1	12
544.685	1	8
545.025	1	6
545.365	1	5
545.705	1	4
546.045	1	9
546.386	1	0
546.726	1	0
547.066	1	7
547.406	1	0
547.746	1	5
548.086	1	6
548.426	1	2
548.766	1	12
549.106	1	-1
549.446	1	4
549.786	1	13
550.126	1	6
550.466	1	4
550.806	1	13
551.146	1	13
551.486	1	3
551.826	1	0
552.166	1	-2
552.506	1	-5
552.846	1	3
553.186	1	-6
553.526	1	4
553.866	1	-3
554.206	1	13
554.546	1	12
554.886	1	1
555.226	1	4
555.566	1	5
555.906	1	9
556.246	1	1
556.586	1	-1
556.926	1	7
557.266	1	15
557.606	1	-9
557.946	1	13
558.286	1	-4
558.626	1	9
558.966	1	6
559.306	1	6
559.646	1	1
559.986	1	10
560.325	1	3
560.665	1	4
561.005	1	9
561.345	1	6
561.685	1	2
562.025	1	4
562.365	1	2
562.705	1	5
563.045	1	4
563.385	1	14
563.725	1	-5
564.064	1	1
564.404	1	0
564.744	1	18
565.084	1	4
565.424	1	-3
565.764	1	1
566.104	1	1
566.444	1	14
566.783	1	4
567.123	1	10
567.463	1	-1
567.803	1	2
568.143	1	4
568.483	1	16
568.823	1	6
569.162	1	-2
569.502	1	4
569.842	1	2
570.182	1	2
570.522	1	-9
570.862	1	-7
571.201	1	9
571.541	1	-2
571.881	1	2
572.221	1	4
572.561	1	11
572.900	1	11
573.240	1	-1
573.580	1	14
573.920	1	9
574.260	1	2
574.599	1	15
574.939	1	2
575.279	1	4
575.619	1	-1
575.959	1	7
576.298	1	1
576.638	1	18
576.978	1	8
577.318	1	-1
577.657	1	0
577.997	1	3
578.337	1	10
578.677	1	0
579.016	1	9
579.356	1	7
579.696	1	1
580.036	1	10
580.375	1	3
580.715	1	8
581.055	1	2
581.394	1	4
581.734	1	7
582.074	1	0
582.414	1	1
582.753	1	2
583.093	1	20
583.433	1	3
583.772	1	3
584.112	1	2
584.452	1	2
584.791	1	6
585.131	1	11
585.471	1	9
585.811	1	8
586.150	1	-4
586.490	1	2
586.830	1	15
587.169	1	1
587.509	1	1
587.849	1	10
588.188	1	9
588.528	1	1
588.867	1	0
589.207	1	7
589.547	1	14
589.886	1	6
590.226	1	-2
590.566	1	4
590.905	1	2
591.245	1	-3
591.585	1	-6
591.924	1	1
592.264	1	1
592.603	1	-7
592.943	1	5
593.283	1	3
593.622	1	7
593.962	1	15
594.301	1	0
594.641	1	-1
594.981	1	-1
595.320	1	10
595.660	1	9
595.999	1	1
596.339	1	5
596.678	1	-2
597.018	1	-3
597.358	1	2
597.697	1	4
598.037	1	-1
598.376	1	-8
598.716	1	9
599.055	1	5
599.395	1	7
599.734	1	4
600.074	1	-1
600.413	1	-5
600.753	1	13
601.092	1	-1
601.432	1	-10
601.771	1	7
602.111	1	-4
602.451	1	5
602.790	1	7
603.130	1	-3
603.469	1	4
603.809	1	7
604.148	1	-8
604.487	1	1
604.827	1	8
605.166	1	5
605.506	1	4
605.845	1	10
606.185	1	-2
606.524	1	-5
606.864	1	23
607.203	1	7
607.543	1	10
607.882	1	4
608.222	1	4
608.561	1	3
608.901	1	6
609.240	1	7
609.579	1	-6
609.919	1	-10
610.258	1	3
610.598	1	-7
610.937	1	3
611.277	1	4
611.616	1	8
611.955	1	1
612.295	1	8
612.634	1	2
612.974	1	4
613.313	1	9
613.652	1	10
613.992	1	-1
614.331	1	16
614.671	1	3
615.010	1	2
615.349	1	3
615.689	1	4
616.028	1	15
616.368	1	11
616.707	1	6
617.046	1	2
617.386	1	-3
617.725	1	2
618.064	1	0
618.404	1	-1
618.743	1	3
619.082	1	18
619.422	1	18
619.761	1	8
620.100	1	7
620.440	1	12
620.779	1	8
621.118	1	12
621.458	1	12
621.797	1	11
622.136	1	-1
622.476	1	2
622.815	1	10
623.154	1	2
623.494	1	-11
623.833	1	10
624.172	1	6
624.511	1	-4
624.851	1	-1
625.190	1	-5
625.529	1	3
625.869	1	11
626.208	1	-4
626.547	1	-4
626.886	1	-2
627.226	1	5
627.565	1	7
627.904	1	1
628.243	1	12
628.583	1	12
628.922	1	7
629.261	1	3
629.600	1	1
629.940	1	11
630.279	1	12
630.618	1	10
630.957	1	10
631.297	1	7
631.636	1	6
631.975	1	2
632.314	1	3
632.653	1	5
632.993	1	-3
633.332	1	-2
633.671	1	2
634.010	1	1
634.349	1	7
634.689	1	-3
635.028	1	-3
635.367	1	10
635.706	1	7
636.045	1	-4
636.384	1	6
636.724	1	6
637.063	1	-5
637.402	1	8
637.741	1	-1
638.080	1	11
638.419	1	-6
638.759	1	6
639.098	1	-4
639.437	1	4
639.776	1	9
640.115	1	2
640.454	1	2
640.793	1	0
641.132	1	9
641.472	1	21
641.811	1	6
642.150	1	0
642.489	1	6
642.828	1	15
643.167	1	6
643.506	1	0
643.845	1	14
644.184	1	18
644.524	1	4
644.863	1	11
645.202	1	3
645.541	1	0
645.880	1	15
646.219	1	6
646.558	1	-1
646.897	1	-13
647.236	1	-5
647.575	1	2
647.914	1	-4
648.253	1	10
648.592	1	14
648.931	1	17
649.270	1	7
649.610	1	12
649.949	1	7
650.288	1	0
650.627	1	0
650.966	1	9
651.305	1	7
651.644	1	12
651.983	1	-3
652.322	1	9
652.661	1	11
653.000	1	5
653.339	1	9
653.678	1	14
654.017	1	8
654.356	1	5
654.695	1	7
655.034	1	4
655.373	1	3
655.712	1	9
656.051	1	3
656.390	1	1
656.729	1	6
657.068	1	1
657.406	1	1
657.745	1	16
658.084	1	6
658.423	1	9
658.762	1	-10
659.101	1	-1
659.440	1	11
659.779	1	8
660.118	1	-3
660.457	1	1
660.796	1	16
661.135	1	3
661.474	1	6
661.813	1	-4
662.152	1	-2
662.491	1	-4
662.829	1	1
663.168	1	3
663.507	1	8
663.846	1	1
664.185	1	3
664.524	1	2
664.863	1	-9
665.202	1	3
665.541	1	-2
665.879	1	12
666.218	1	9
666.557	1	-1
666.896	1	4
667.235	1	2
667.574	1	1
667.913	1	6
668.251	1	-14
668.590	1	-2
668.929	1	-3
669.268	1	-1
669.607	1	-6
669.946	1	-3
670.285	1	-1
670.623	1	7
670.962	1	-4
671.301	1	1
671.640	1	7
671.979	1	-4
672.317	1	6
672.656	1	5
672.995	1	2
673.334	1	2
673.673	1	7
674.011	1	8
674.350	1	1
674.689	1	-5
675.028	1	13
675.367	1	5
675.705	1	-5
676.044	1	-6
676.383	1	-1
676.722	1	7
677.060	1	8
677.399	1	22
677.738	1	4
678.077	1	-1
678.416	1	-2
678.754	1	5
679.093	1	14
679.432	1	-1
679.771	1	3
680.109	1	8
680.448	1	-4
680.787	1	-12
681.125	1	2
681.464	1	-3
681.803	1	4
682.142	1	2
682.480	1	-7
682.819	1	2
683.158	1	2
683.496	1	10
683.835	1	13
684.174	1	6
684.512	1	0
684.851	1	-10
685.190	1	1
685.529	1	-2
685.867	1	1
686.206	1	-7
686.545	1	2
686.883	1	8
687.222	1	-9
687.561	1	-8
687.899	1	-5
688.238	1	7
688.577	1	3
688.746	1	-2