File: Data/GaN_150K_450ms/GaN_sample D_spot15_UVVIS_150 K_200um_450 ms 2x2mm1_157.txt
340.368	1	14
340.710	1	3
341.052	1	8
341.394	1	-4
341.737	1	11
342.079	1	5
342.421	1	8
342.763	1	0
343.105	1	5
343.447	1	7
343.789	1	3
344.131	1	1
344.473	1	4
344.815	1	2
345.157	1	7
345.499	1	3
345.841	1	7
346.183	1	3
346.526	1	3
346.868	1	4
347.210	1	3
347.552	1	14
347.894	1	-8
348.236	1	10
348.578	1	10
348.920	1	10
349.262	1	11
349.604	1	-2
349.946	1	1
350.288	1	8
350.630	1	4
350.972	1	9
351.314	1	1
351.656	1	5
351.998	1	7
352.340	1	11
352.682	1	0
353.024	1	6
353.366	1	6
353.708	1	5
354.050	1	0
354.392	1	-5
354.734	1	8
355.076	1	12
355.418	1	4
355.760	1	3
356.102	1	5
356.444	1	17
356.785	1	16
357.127	1	7
357.469	1	12
357.811	1	10
358.153	1	-8
358.495	1	9
358.837	1	8
359.179	1	4
359.521	1	12
359.863	1	9
360.205	1	22
360.547	1	17
360.889	1	6
361.231	1	16
361.572	1	13
361.914	1	18
362.256	1	18
362.598	1	16
362.940	1	14
363.282	1	2
363.624	1	16
363.966	1	17
364.308	1	23
364.649	1	13
364.991	1	36
365.333	1	21
365.675	1	36
366.017	1	42
366.359	1	31
366.701	1	26
367.042	1	34
367.384	1	29
367.726	1	40
368.068	1	45
368.410	1	33
368.752	1	41
369.093	1	40
369.435	1	45
369.777	1	50
370.119	1	46
370.461	1	34
370.803	1	24
371.144	1	36
371.486	1	38
371.828	1	26
372.170	1	35
372.512	1	24
372.853	1	33
373.195	1	25
373.537	1	13
373.879	1	14
374.220	1	24
374.562	1	22
374.904	1	16
375.246	1	11
375.588	1	13
375.929	1	23
376.271	1	15
376.613	1	12
376.955	1	15
377.296	1	15
377.638	1	12
377.980	1	13
378.321	1	16
378.663	1	15
379.005	1	7
379.347	1	17
379.688	1	24
380.030	1	17
380.372	1	18
380.714	1	15
381.055	1	9
381.397	1	9
381.739	1	-5
382.080	1	1
382.422	1	11
382.764	1	14
383.105	1	7
383.447	1	4
383.789	1	-4
384.130	1	10
384.472	1	6
384.814	1	13
385.156	1	10
385.497	1	18
385.839	1	5
386.180	1	4
386.522	1	6
386.864	1	5
387.205	1	8
387.547	1	16
387.889	1	5
388.230	1	4
388.572	1	3
388.914	1	9
389.255	1	15
389.597	1	10
389.939	1	17
390.280	1	-2
390.622	1	3
390.963	1	-3
391.305	1	9
391.647	1	-1
391.988	1	15
392.330	1	10
392.671	1	3
393.013	1	9
393.355	1	7
393.696	1	13
394.038	1	11
394.379	1	13
394.721	1	-3
395.062	1	1
395.404	1	16
395.746	1	-6
396.087	1	3
396.429	1	15
396.770	1	15
397.112	1	5
397.453	1	5
397.795	1	6
398.136	1	12
398.478	1	-2
398.819	1	3
399.161	1	13
399.503	1	14
399.844	1	6
400.186	1	9
400.527	1	17
400.869	1	-2
401.210	1	6
401.552	1	7
401.893	1	6
402.235	1	5
402.576	1	0
402.918	1	3
403.259	1	8
403.601	1	15
403.942	1	0
404.284	1	16
404.625	1	-3
404.967	1	14
405.308	1	0
405.649	1	4
405.991	1	-1
406.332	1	12
406.674	1	-3
407.015	1	12
407.357	1	10
407.698	1	3
408.040	1	17
408.381	1	-1
408.722	1	11
409.064	1	16
409.405	1	4
409.747	1	7
410.088	1	14
410.430	1	17
410.771	1	8
411.112	1	10
411.454	1	2
411.795	1	6
412.137	1	9
412.478	1	8
412.819	1	15
413.161	1	8
413.502	1	7
413.844	1	12
414.185	1	9
414.526	1	-4
414.868	1	11
415.209	1	16
415.550	1	4
415.892	1	13
416.233	1	12
416.575	1	-3
416.916	1	7
417.257	1	11
417.599	1	7
417.940	1	-2
418.281	1	10
418.623	1	7
418.964	1	25
419.305	1	18
419.647	1	12
419.988	1	6
420.329	1	9
420.671	1	16
421.012	1	4
421.353	1	21
421.695	1	11
422.036	1	21
422.377	1	5
422.718	1	8
423.060	1	24
423.401	1	3
423.742	1	17
424.084	1	16
424.425	1	13
424.766	1	10
425.107	1	12
425.449	1	10
425.790	1	10
426.131	1	0
426.472	1	14
426.814	1	9
427.155	1	15
427.496	1	-1
427.837	1	4
428.179	1	20
428.520	1	6
428.861	1	19
429.202	1	1
429.544	1	9
429.885	1	10
430.226	1	-1
430.567	1	-4
430.909	1	-2
431.250	1	9
431.591	1	10
431.932	1	10
432.273	1	18
432.615	1	7
432.956	1	10
433.297	1	6
433.638	1	19
433.979	1	5
434.320	1	19
434.662	1	4
435.003	1	16
435.344	1	12
435.685	1	7
436.026	1	-4
436.368	1	2
436.709	1	13
437.050	1	1
437.391	1	11
437.732	1	15
438.073	1	7
438.414	1	17
438.756	1	9
439.097	1	17
439.438	1	2
439.779	1	8
440.120	1	9
440.461	1	18
440.802	1	5
441.143	1	2
441.485	1	9
441.826	1	8
442.167	1	13
442.508	1	15
442.849	1	13
443.190	1	7
443.531	1	2
443.872	1	10
444.213	1	-8
444.554	1	10
444.895	1	1
445.237	1	8
445.578	1	8
445.919	1	6
446.260	1	15
446.601	1	10
446.942	1	9
447.283	1	12
447.624	1	-1
447.965	1	6
448.306	1	7
448.647	1	2
448.988	1	11
449.329	1	18
449.670	1	8
450.011	1	1
450.352	1	0
450.693	1	8
451.034	1	5
451.375	1	1
451.716	1	-7
452.057	1	6
452.398	1	14
452.739	1	9
453.080	1	9
453.421	1	6
453.762	1	12
454.103	1	9
454.444	1	8
454.785	1	8
455.126	1	7
455.467	1	14
455.808	1	18
456.149	1	-2
456.490	1	2
456.831	1	7
457.172	1	1
457.513	1	4
457.854	1	13
458.195	1	5
458.536	1	10
458.877	1	8
459.218	1	6
459.559	1	10
459.899	1	4
460.240	1	1
460.581	1	6
460.922	1	14
461.263	1	13
461.604	1	10
461.945	1	11
462.286	1	8
462.627	1	3
462.968	1	12
463.309	1	8
463.649	1	5
463.990	1	5
464.331	1	9
464.672	1	5
465.013	1	4
465.354	1	9
465.695	1	8
466.036	1	16
466.376	1	15
466.717	1	-6
467.058	1	10
467.399	1	-10
467.740	1	18
468.081	1	15
468.422	1	11
468.762	1	15
469.103	1	4
469.444	1	3
469.785	1	1
470.126	1	22
470.467	1	8
470.807	1	3
471.148	1	5
471.489	1	14
471.830	1	4
472.171	1	8
472.511	1	7
472.852	1	11
473.193	1	6
473.534	1	9
473.875	1	6
474.215	1	6
474.556	1	0
474.897	1	-4
475.238	1	10
475.578	1	-6
475.919	1	5
476.260	1	-5
476.601	1	3
476.942	1	4
477.282	1	-1
477.623	1	12
477.964	1	9
478.305	1	7
478.645	1	8
478.986	1	11
479.327	1	1
479.667	1	10
480.008	1	0
480.349	1	0
480.690	1	7
481.030	1	3
481.371	1	7
481.712	1	13
482.053	1	8
482.393	1	3
482.734	1	9
483.075	1	5
483.415	1	3
483.756	1	1
484.097	1	13
484.437	1	12
484.778	1	1
485.119	1	7
485.459	1	4
485.800	1	-1
486.141	1	8
486.481	1	-12
486.822	1	14
487.163	1	5
487.503	1	3
487.844	1	4
488.185	1	8
488.525	1	3
488.866	1	-4
489.207	1	9
489.547	1	3
489.888	1	11
490.228	1	-2
490.569	1	-3
490.910	1	7
491.250	1	8
491.591	1	11
491.932	1	13
492.272	1	-7
492.613	1	4
492.953	1	8
493.294	1	-5
493.635	1	6
493.975	1	20
494.316	1	1
494.656	1	4
494.997	1	-2
495.337	1	-1
495.678	1	-8
496.019	1	-5
496.359	1	0
496.700	1	-1
497.040	1	6
497.381	1	2
497.721	1	-4
498.062	1	18
498.403	1	8
498.743	1	0
499.084	1	10
499.424	1	7
499.765	1	7
500.105	1	14
500.446	1	-1
500.786	1	1
501.127	1	17
501.467	1	12
501.808	1	7
502.148	1	5
502.489	1	1
502.829	1	3
503.170	1	14
503.510	1	10
503.851	1	16
504.191	1	-1
504.532	1	16
504.872	1	0
505.213	1	9
505.553	1	10
505.894	1	8
506.234	1	15
506.575	1	25
506.915	1	3
507.256	1	11
507.596	1	22
507.936	1	16
508.277	1	16
508.617	1	10
508.958	1	18
509.298	1	-6
509.639	1	-1
509.979	1	2
510.319	1	14
510.660	1	13
511.000	1	9
511.341	1	14
511.681	1	8
512.022	1	-4
512.362	1	17
512.702	1	5
513.043	1	13
513.383	1	5
513.724	1	9
514.064	1	12
514.404	1	14
514.745	1	-1
515.085	1	9
515.425	1	10
515.766	1	5
516.106	1	2
516.447	1	16
516.787	1	10
517.127	1	12
517.468	1	17
517.808	1	0
518.148	1	18
518.489	1	0
518.829	1	15
519.169	1	0
519.510	1	-3
519.850	1	5
520.190	1	10
520.531	1	10
520.871	1	8
521.211	1	14
521.552	1	-2
521.892	1	14
522.232	1	5
522.573	1	15
522.913	1	10
523.253	1	15
523.593	1	16
523.934	1	13
524.274	1	12
524.614	1	5
524.955	1	14
525.295	1	14
525.635	1	12
525.975	1	8
526.316	1	-2
526.656	1	12
526.996	1	5
527.337	1	12
527.677	1	25
528.017	1	0
528.357	1	22
528.698	1	8
529.038	1	12
529.378	1	6
529.718	1	14
530.058	1	17
530.399	1	9
530.739	1	10
531.079	1	9
531.419	1	6
531.760	1	9
532.100	1	24
532.440	1	21
532.780	1	12
533.120	1	6
533.461	1	12
533.801	1	16
534.141	1	16
534.481	1	21
534.821	1	13
535.162	1	8
535.502	1	-1
535.842	1	0
536.182	1	4
536.522	1	3
536.862	1	6
537.203	1	17
537.543	1	16
537.883	1	7
538.223	1	23
538.563	1	6
538.903	1	7
539.243	1	14
539.584	1	1
539.924	1	9
540.264	1	18
540.604	1	13
540.944	1	10
541.284	1	8
541.624	1	12
541.964	1	12
542.305	1	14
542.645	1	7
542.985	1	6
543.325	1	16
543.665	1	8
544.005	1	12
544.345	1	10
544.685	1	7
545.025	1	15
545.365	1	13
545.705	1	9
546.045	1	18
546.386	1	5
546.726	1	6
547.066	1	11
547.406	1	5
547.746	1	7
548.086	1	8
548.426	1	10
548.766	1	7
549.106	1	3
549.446	1	7
549.786	1	7
550.126	1	11
550.466	1	6
550.806	1	20
551.146	1	12
551.486	1	6
551.826	1	0
552.166	1	14
552.506	1	5
552.846	1	10
553.186	1	3
553.526	1	10
553.866	1	5
554.206	1	4
554.546	1	16
554.886	1	4
555.226	1	7
555.566	1	7
555.906	1	4
556.246	1	1
556.586	1	2
556.926	1	6
557.266	1	11
557.606	1	3
557.946	1	7
558.286	1	1
558.626	1	11
558.966	1	16
559.306	1	9
559.646	1	7
559.986	1	14
560.325	1	10
560.665	1	1
561.005	1	12
561.345	1	1
561.685	1	12
562.025	1	13
562.365	1	2
562.705	1	11
563.045	1	11
563.385	1	2
563.725	1	10
564.064	1	-7
564.404	1	-1
564.744	1	12
565.084	1	7
565.424	1	-5
565.764	1	8
566.104	1	14
566.444	1	13
566.783	1	11
567.123	1	5
567.463	1	4
567.803	1	15
568.143	1	3
568.483	1	10
568.823	1	11
569.162	1	-1
569.502	1	13
569.842	1	4
570.182	1	6
570.522	1	-5
570.862	1	-6
571.201	1	7
571.541	1	7
571.881	1	4
572.221	1	4
572.561	1	8
572.900	1	13
573.240	1	-3
573.580	1	11
573.920	1	18
574.260	1	5
574.599	1	4
574.939	1	5
575.279	1	9
575.619	1	6
575.959	1	1
576.298	1	-7
576.638	1	8
576.978	1	13
577.318	1	15
577.657	1	3
577.997	1	10
578.337	1	8
578.677	1	3
579.016	1	4
579.356	1	13
579.696	1	4
580.036	1	-2
580.375	1	3
580.715	1	8
581.055	1	15
581.394	1	4
581.734	1	6
582.074	1	6
582.414	1	1
582.753	1	4
583.093	1	7
583.433	1	14
583.772	1	16
584.112	1	7
584.452	1	12
584.791	1	13
585.131	1	9
585.471	1	-2
585.811	1	11
586.150	1	3
586.490	1	11
586.830	1	1
587.169	1	5
587.509	1	10
587.849	1	14
588.188	1	8
588.528	1	-5
588.867	1	14
589.207	1	13
589.547	1	14
589.886	1	7
590.226	1	4
590.566	1	11
590.905	1	3
591.245	1	-5
591.585	1	1
591.924	1	-4
592.264	1	0
592.603	1	0
592.943	1	0
593.283	1	11
593.622	1	-5
593.962	1	13
594.301	1	2
594.641	1	9
594.981	1	3
595.320	1	7
595.660	1	14
595.999	1	14
596.339	1	-2
596.678	1	-8
597.018	1	-8
597.358	1	5
597.697	1	-1
598.037	1	4
598.376	1	-8
598.716	1	2
599.055	1	5
599.395	1	2
599.734	1	-1
600.074	1	1
600.413	1	3
600.753	1	10
601.092	1	0
601.432	1	-3
601.771	1	-1
602.111	1	6
602.451	1	2
602.790	1	15
603.130	1	11
603.469	1	11
603.809	1	7
604.148	1	-7
604.487	1	7
604.827	1	11
605.166	1	4
605.506	1	-3
605.845	1	10
606.185	1	0
606.524	1	-9
606.864	1	11
607.203	1	8
607.543	1	13
607.882	1	20
608.222	1	4
608.561	1	1
608.901	1	5
609.240	1	-2
609.579	1	0
609.919	1	-7
610.258	1	10
610.598	1	-2
610.937	1	6
611.277	1	5
611.616	1	8
611.955	1	-3
612.295	1	15
612.634	1	2
612.974	1	-1
613.313	1	5
613.652	1	15
613.992	1	-2
614.331	1	11
614.671	1	7
615.010	1	2
615.349	1	8
615.689	1	-1
616.028	1	20
616.368	1	7
616.707	1	5
617.046	1	-2
617.386	1	15
617.725	1	-2
618.064	1	-11
618.404	1	3
618.743	1	6
619.082	1	18
619.422	1	21
619.761	1	7
620.100	1	10
620.440	1	19
620.779	1	13
621.118	1	11
621.458	1	7
621.797	1	2
622.136	1	-3
622.476	1	5
622.815	1	0
623.154	1	2
623.494	1	1
623.833	1	9
624.172	1	11
624.511	1	4
624.851	1	4
625.190	1	-3
625.529	1	6
625.869	1	13
626.208	1	2
626.547	1	4
626.886	1	6
627.226	1	16
627.565	1	10
627.904	1	-2
628.243	1	8
628.583	1	4
628.922	1	10
629.261	1	-1
629.600	1	-9
629.940	1	8
630.279	1	8
630.618	1	11
630.957	1	0
631.297	1	3
631.636	1	3
631.975	1	7
632.314	1	-3
632.653	1	-2
632.993	1	1
633.332	1	9
633.671	1	12
634.010	1	-2
634.349	1	11
634.689	1	6
635.028	1	6
635.367	1	10
635.706	1	2
636.045	1	1
636.384	1	9
636.724	1	-5
637.063	1	0
637.402	1	1
637.741	1	-3
638.080	1	-1
638.419	1	1
638.759	1	4
639.098	1	0
639.437	1	8
639.776	1	3
640.115	1	-1
640.454	1	2
640.793	1	-2
641.132	1	6
641.472	1	14
641.811	1	-2
642.150	1	3
642.489	1	14
642.828	1	13
643.167	1	1
643.506	1	5
643.845	1	17
644.184	1	11
644.524	1	3
644.863	1	-2
645.202	1	7
645.541	1	2
645.880	1	8
646.219	1	9
646.558	1	-5
646.897	1	-12
647.236	1	-7
647.575	1	6
647.914	1	5
648.253	1	16
648.592	1	12
648.931	1	9
649.270	1	18
649.610	1	5
649.949	1	-3
650.288	1	6
650.627	1	-4
650.966	1	5
651.305	1	6
651.644	1	1
651.983	1	-6
652.322	1	2
652.661	1	12
653.000	1	5
653.339	1	2
653.678	1	2
654.017	1	13
654.356	1	5
654.695	1	17
655.034	1	-3
655.373	1	-1
655.712	1	5
656.051	1	-6
656.390	1	0
656.729	1	8
657.068	1	4
657.406	1	1
657.745	1	16
658.084	1	5
658.423	1	8
658.762	1	1
659.101	1	0
659.440	1	3
659.779	1	1
660.118	1	1
660.457	1	1
660.796	1	13
661.135	1	9
661.474	1	5
661.813	1	7
662.152	1	8
662.491	1	-8
662.829	1	9
663.168	1	4
663.507	1	9
663.846	1	5
664.185	1	6
664.524	1	15
664.863	1	-7
665.202	1	14
665.541	1	7
665.879	1	8
666.218	1	-1
666.557	1	10
666.896	1	8
667.235	1	0
667.574	1	1
667.913	1	12
668.251	1	-9
668.590	1	8
668.929	1	-1
669.268	1	2
669.607	1	6
669.946	1	5
670.285	1	2
670.623	1	10
670.962	1	-3
671.301	1	6
671.640	1	11
671.979	1	-3
672.317	1	6
672.656	1	5
672.995	1	7
673.334	1	0
673.673	1	10
674.011	1	12
674.350	1	9
674.689	1	-3
675.028	1	1
675.367	1	3
675.705	1	-3
676.044	1	-4
676.383	1	3
676.722	1	-4
677.060	1	4
677.399	1	22
677.738	1	7
678.077	1	6
678.416	1	-2
678.754	1	3
679.093	1	4
679.432	1	2
679.771	1	-3
680.109	1	0
680.448	1	-4
680.787	1	-4
681.125	1	-9
681.464	1	-1
681.803	1	0
682.142	1	-3
682.480	1	0
682.819	1	6
683.158	1	-3
683.496	1	-2
683.835	1	6
684.174	1	0
684.512	1	-1
684.851	1	-3
685.190	1	5
685.529	1	9
685.867	1	1
686.206	1	-6
686.545	1	1
686.883	1	7
687.222	1	-6
687.561	1	-3
687.899	1	-6
688.238	1	5
688.577	1	7
688.746	1	2