File: Data/GaN_150K_450ms/GaN_sample D_spot15_UVVIS_150 K_200um_450 ms 2x2mm1_62.txt
340.368	1	3
340.710	1	7
341.052	1	7
341.394	1	-2
341.737	1	12
342.079	1	6
342.421	1	9
342.763	1	4
343.105	1	8
343.447	1	-2
343.789	1	11
344.131	1	-2
344.473	1	8
344.815	1	6
345.157	1	3
345.499	1	13
345.841	1	2
346.183	1	7
346.526	1	11
346.868	1	11
347.210	1	-1
347.552	1	17
347.894	1	-5
348.236	1	3
348.578	1	13
348.920	1	4
349.262	1	11
349.604	1	3
349.946	1	5
350.288	1	-5
350.630	1	6
350.972	1	16
351.314	1	7
351.656	1	13
351.998	1	7
352.340	1	19
352.682	1	-10
353.024	1	15
353.366	1	13
353.708	1	13
354.050	1	-1
354.392	1	-4
354.734	1	9
355.076	1	35
355.418	1	12
355.760	1	19
356.102	1	19
356.444	1	26
356.785	1	29
357.127	1	21
357.469	1	19
357.811	1	33
358.153	1	19
358.495	1	33
358.837	1	55
359.179	1	47
359.521	1	48
359.863	1	48
360.205	1	48
360.547	1	66
360.889	1	55
361.231	1	69
361.572	1	79
361.914	1	81
362.256	1	88
362.598	1	105
362.940	1	120
363.282	1	120
363.624	1	140
363.966	1	151
364.308	1	190
364.649	1	199
364.991	1	223
365.333	1	240
365.675	1	288
366.017	1	304
366.359	1	335
366.701	1	355
367.042	1	380
367.384	1	386
367.726	1	391
368.068	1	407
368.410	1	411
368.752	1	409
369.093	1	402
369.435	1	380
369.777	1	371
370.119	1	348
370.461	1	323
370.803	1	302
371.144	1	300
371.486	1	275
371.828	1	258
372.170	1	236
372.512	1	205
372.853	1	220
373.195	1	202
373.537	1	180
373.879	1	181
374.220	1	171
374.562	1	183
374.904	1	152
375.246	1	143
375.588	1	128
375.929	1	118
376.271	1	124
376.613	1	124
376.955	1	111
377.296	1	111
377.638	1	95
377.980	1	98
378.321	1	92
378.663	1	91
379.005	1	81
379.347	1	83
379.688	1	89
380.030	1	79
380.372	1	71
380.714	1	82
381.055	1	57
381.397	1	63
381.739	1	51
382.080	1	66
382.422	1	60
382.764	1	68
383.105	1	61
383.447	1	53
383.789	1	42
384.130	1	55
384.472	1	44
384.814	1	59
385.156	1	53
385.497	1	57
385.839	1	54
386.180	1	47
386.522	1	53
386.864	1	48
387.205	1	49
387.547	1	47
387.889	1	37
388.230	1	35
388.572	1	34
388.914	1	51
389.255	1	40
389.597	1	35
389.939	1	44
390.280	1	38
390.622	1	26
390.963	1	31
391.305	1	32
391.647	1	36
391.988	1	40
392.330	1	31
392.671	1	41
393.013	1	37
393.355	1	35
393.696	1	29
394.038	1	18
394.379	1	35
394.721	1	27
395.062	1	13
395.404	1	31
395.746	1	26
396.087	1	34
396.429	1	36
396.770	1	26
397.112	1	30
397.453	1	23
397.795	1	30
398.136	1	36
398.478	1	32
398.819	1	28
399.161	1	32
399.503	1	27
399.844	1	24
400.186	1	21
400.527	1	24
400.869	1	18
401.210	1	20
401.552	1	17
401.893	1	17
402.235	1	24
402.576	1	21
402.918	1	14
403.259	1	22
403.601	1	24
403.942	1	25
404.284	1	29
404.625	1	11
404.967	1	17
405.308	1	12
405.649	1	13
405.991	1	20
406.332	1	25
406.674	1	26
407.015	1	25
407.357	1	19
407.698	1	11
408.040	1	34
408.381	1	10
408.722	1	20
409.064	1	16
409.405	1	14
409.747	1	20
410.088	1	26
410.430	1	26
410.771	1	26
411.112	1	19
411.454	1	38
411.795	1	20
412.137	1	13
412.478	1	20
412.819	1	26
413.161	1	14
413.502	1	28
413.844	1	27
414.185	1	15
414.526	1	12
414.868	1	14
415.209	1	16
415.550	1	8
415.892	1	22
416.233	1	30
416.575	1	12
416.916	1	17
417.257	1	9
417.599	1	17
417.940	1	8
418.281	1	17
418.623	1	18
418.964	1	33
419.305	1	28
419.647	1	23
419.988	1	30
420.329	1	31
420.671	1	23
421.012	1	13
421.353	1	26
421.695	1	19
422.036	1	22
422.377	1	22
422.718	1	18
423.060	1	19
423.401	1	15
423.742	1	27
424.084	1	19
424.425	1	28
424.766	1	17
425.107	1	13
425.449	1	14
425.790	1	13
426.131	1	8
426.472	1	18
426.814	1	18
427.155	1	16
427.496	1	20
427.837	1	6
428.179	1	25
428.520	1	12
428.861	1	22
429.202	1	7
429.544	1	14
429.885	1	14
430.226	1	11
430.567	1	16
430.909	1	8
431.250	1	21
431.591	1	21
431.932	1	9
432.273	1	20
432.615	1	0
432.956	1	25
433.297	1	23
433.638	1	20
433.979	1	12
434.320	1	25
434.662	1	12
435.003	1	25
435.344	1	7
435.685	1	15
436.026	1	1
436.368	1	8
436.709	1	17
437.050	1	11
437.391	1	4
437.732	1	8
438.073	1	17
438.414	1	19
438.756	1	16
439.097	1	13
439.438	1	18
439.779	1	14
440.120	1	8
440.461	1	16
440.802	1	12
441.143	1	15
441.485	1	5
441.826	1	12
442.167	1	14
442.508	1	13
442.849	1	22
443.190	1	17
443.531	1	12
443.872	1	17
444.213	1	0
444.554	1	17
444.895	1	13
445.237	1	27
445.578	1	7
445.919	1	7
446.260	1	22
446.601	1	18
446.942	1	18
447.283	1	26
447.624	1	7
447.965	1	12
448.306	1	20
448.647	1	13
448.988	1	18
449.329	1	14
449.670	1	9
450.011	1	20
450.352	1	5
450.693	1	22
451.034	1	9
451.375	1	10
451.716	1	14
452.057	1	19
452.398	1	20
452.739	1	14
453.080	1	15
453.421	1	22
453.762	1	21
454.103	1	14
454.444	1	5
454.785	1	11
455.126	1	9
455.467	1	15
455.808	1	23
456.149	1	8
456.490	1	3
456.831	1	18
457.172	1	14
457.513	1	10
457.854	1	15
458.195	1	13
458.536	1	16
458.877	1	19
459.218	1	26
459.559	1	12
459.899	1	7
460.240	1	3
460.581	1	6
460.922	1	8
461.263	1	30
461.604	1	9
461.945	1	8
462.286	1	8
462.627	1	11
462.968	1	13
463.309	1	14
463.649	1	10
463.990	1	13
464.331	1	19
464.672	1	15
465.013	1	20
465.354	1	31
465.695	1	25
466.036	1	20
466.376	1	21
466.717	1	4
467.058	1	10
467.399	1	6
467.740	1	18
468.081	1	11
468.422	1	14
468.762	1	22
469.103	1	10
469.444	1	11
469.785	1	5
470.126	1	12
470.467	1	15
470.807	1	17
471.148	1	1
471.489	1	15
471.830	1	10
472.171	1	22
472.511	1	17
472.852	1	16
473.193	1	16
473.534	1	14
473.875	1	10
474.215	1	18
474.556	1	9
474.897	1	8
475.238	1	15
475.578	1	5
475.919	1	14
476.260	1	10
476.601	1	18
476.942	1	21
477.282	1	14
477.623	1	21
477.964	1	10
478.305	1	22
478.645	1	15
478.986	1	11
479.327	1	25
479.667	1	17
480.008	1	18
480.349	1	16
480.690	1	19
481.030	1	8
481.371	1	8
481.712	1	24
482.053	1	20
482.393	1	27
482.734	1	15
483.075	1	16
483.415	1	10
483.756	1	28
484.097	1	20
484.437	1	22
484.778	1	15
485.119	1	26
485.459	1	17
485.800	1	17
486.141	1	34
486.481	1	17
486.822	1	21
487.163	1	23
487.503	1	20
487.844	1	12
488.185	1	29
488.525	1	29
488.866	1	19
489.207	1	24
489.547	1	27
489.888	1	34
490.228	1	20
490.569	1	30
490.910	1	33
491.250	1	37
491.591	1	36
491.932	1	41
492.272	1	27
492.613	1	34
492.953	1	23
493.294	1	29
493.635	1	33
493.975	1	46
494.316	1	29
494.656	1	39
494.997	1	39
495.337	1	37
495.678	1	34
496.019	1	31
496.359	1	42
496.700	1	52
497.040	1	27
497.381	1	42
497.721	1	35
498.062	1	38
498.403	1	46
498.743	1	50
499.084	1	53
499.424	1	45
499.765	1	46
500.105	1	57
500.446	1	40
500.786	1	50
501.127	1	55
501.467	1	57
501.808	1	58
502.148	1	51
502.489	1	51
502.829	1	48
503.170	1	65
503.510	1	43
503.851	1	65
504.191	1	58
504.532	1	72
504.872	1	60
505.213	1	63
505.553	1	62
505.894	1	65
506.234	1	76
506.575	1	68
506.915	1	63
507.256	1	65
507.596	1	76
507.936	1	65
508.277	1	70
508.617	1	72
508.958	1	82
509.298	1	53
509.639	1	56
509.979	1	65
510.319	1	66
510.660	1	62
511.000	1	58
511.341	1	77
511.681	1	64
512.022	1	54
512.362	1	77
512.702	1	70
513.043	1	66
513.383	1	80
513.724	1	64
514.064	1	81
514.404	1	73
514.745	1	75
515.085	1	83
515.425	1	92
515.766	1	83
516.106	1	78
516.447	1	82
516.787	1	77
517.127	1	84
517.468	1	87
517.808	1	75
518.148	1	83
518.489	1	89
518.829	1	87
519.169	1	79
519.510	1	71
519.850	1	86
520.190	1	94
520.531	1	86
520.871	1	84
521.211	1	96
521.552	1	87
521.892	1	89
522.232	1	87
522.573	1	88
522.913	1	93
523.253	1	89
523.593	1	91
523.934	1	91
524.274	1	74
524.614	1	90
524.955	1	87
525.295	1	99
525.635	1	91
525.975	1	87
526.316	1	81
526.656	1	84
526.996	1	88
527.337	1	104
527.677	1	105
528.017	1	93
528.357	1	92
528.698	1	102
529.038	1	96
529.378	1	92
529.718	1	92
530.058	1	94
530.399	1	94
530.739	1	106
531.079	1	96
531.419	1	103
531.760	1	101
532.100	1	108
532.440	1	95
532.780	1	103
533.120	1	89
533.461	1	95
533.801	1	99
534.141	1	90
534.481	1	103
534.821	1	89
535.162	1	101
535.502	1	81
535.842	1	90
536.182	1	80
536.522	1	80
536.862	1	77
537.203	1	91
537.543	1	87
537.883	1	76
538.223	1	93
538.563	1	79
538.903	1	70
539.243	1	95
539.584	1	83
539.924	1	73
540.264	1	97
540.604	1	83
540.944	1	88
541.284	1	86
541.624	1	82
541.964	1	75
542.305	1	92
542.645	1	75
542.985	1	79
543.325	1	79
543.665	1	80
544.005	1	75
544.345	1	87
544.685	1	79
545.025	1	77
545.365	1	79
545.705	1	70
546.045	1	87
546.386	1	79
546.726	1	77
547.066	1	83
547.406	1	83
547.746	1	68
548.086	1	91
548.426	1	75
548.766	1	83
549.106	1	75
549.446	1	73
549.786	1	88
550.126	1	79
550.466	1	72
550.806	1	88
551.146	1	81
551.486	1	76
551.826	1	64
552.166	1	82
552.506	1	70
552.846	1	79
553.186	1	64
553.526	1	85
553.866	1	64
554.206	1	73
554.546	1	74
554.886	1	59
555.226	1	67
555.566	1	74
555.906	1	69
556.246	1	70
556.586	1	57
556.926	1	61
557.266	1	76
557.606	1	52
557.946	1	66
558.286	1	58
558.626	1	70
558.966	1	58
559.306	1	62
559.646	1	71
559.986	1	64
560.325	1	55
560.665	1	54
561.005	1	56
561.345	1	68
561.685	1	64
562.025	1	54
562.365	1	53
562.705	1	62
563.045	1	71
563.385	1	60
563.725	1	56
564.064	1	47
564.404	1	61
564.744	1	60
565.084	1	57
565.424	1	47
565.764	1	56
566.104	1	59
566.444	1	58
566.783	1	55
567.123	1	45
567.463	1	52
567.803	1	59
568.143	1	55
568.483	1	59
568.823	1	40
569.162	1	45
569.502	1	53
569.842	1	49
570.182	1	48
570.522	1	42
570.862	1	35
571.201	1	54
571.541	1	39
571.881	1	47
572.221	1	41
572.561	1	55
572.900	1	50
573.240	1	48
573.580	1	30
573.920	1	57
574.260	1	51
574.599	1	52
574.939	1	48
575.279	1	44
575.619	1	42
575.959	1	44
576.298	1	24
576.638	1	51
576.978	1	39
577.318	1	38
577.657	1	41
577.997	1	43
578.337	1	46
578.677	1	41
579.016	1	42
579.356	1	33
579.696	1	39
580.036	1	35
580.375	1	41
580.715	1	47
581.055	1	31
581.394	1	39
581.734	1	41
582.074	1	33
582.414	1	37
582.753	1	45
583.093	1	48
583.433	1	48
583.772	1	44
584.112	1	37
584.452	1	36
584.791	1	38
585.131	1	39
585.471	1	32
585.811	1	46
586.150	1	33
586.490	1	34
586.830	1	36
587.169	1	36
587.509	1	33
587.849	1	40
588.188	1	34
588.528	1	26
588.867	1	42
589.207	1	35
589.547	1	38
589.886	1	37
590.226	1	29
590.566	1	32
590.905	1	29
591.245	1	13
591.585	1	28
591.924	1	27
592.264	1	18
592.603	1	24
592.943	1	27
593.283	1	31
593.622	1	22
593.962	1	26
594.301	1	14
594.641	1	19
594.981	1	35
595.320	1	31
595.660	1	23
595.999	1	25
596.339	1	31
596.678	1	17
597.018	1	13
597.358	1	35
597.697	1	14
598.037	1	23
598.376	1	9
598.716	1	39
599.055	1	34
599.395	1	21
599.734	1	23
600.074	1	23
600.413	1	24
600.753	1	27
601.092	1	19
601.432	1	9
601.771	1	23
602.111	1	27
602.451	1	11
602.790	1	24
603.130	1	20
603.469	1	23
603.809	1	20
604.148	1	14
604.487	1	26
604.827	1	29
605.166	1	28
605.506	1	13
605.845	1	32
606.185	1	14
606.524	1	17
606.864	1	23
607.203	1	27
607.543	1	30
607.882	1	34
608.222	1	14
608.561	1	12
608.901	1	35
609.240	1	22
609.579	1	21
609.919	1	25
610.258	1	30
610.598	1	8
610.937	1	23
611.277	1	18
611.616	1	25
611.955	1	2
612.295	1	20
612.634	1	25
612.974	1	21
613.313	1	15
613.652	1	27
613.992	1	25
614.331	1	30
614.671	1	21
615.010	1	16
615.349	1	20
615.689	1	19
616.028	1	25
616.368	1	17
616.707	1	20
617.046	1	15
617.386	1	18
617.725	1	12
618.064	1	17
618.404	1	19
618.743	1	15
619.082	1	28
619.422	1	30
619.761	1	21
620.100	1	13
620.440	1	25
620.779	1	25
621.118	1	24
621.458	1	17
621.797	1	22
622.136	1	13
622.476	1	14
622.815	1	15
623.154	1	11
623.494	1	6
623.833	1	21
624.172	1	10
624.511	1	9
624.851	1	10
625.190	1	7
625.529	1	14
625.869	1	19
626.208	1	15
626.547	1	8
626.886	1	15
627.226	1	22
627.565	1	17
627.904	1	16
628.243	1	27
628.583	1	17
628.922	1	25
629.261	1	24
629.600	1	9
629.940	1	16
630.279	1	12
630.618	1	17
630.957	1	28
631.297	1	15
631.636	1	12
631.975	1	6
632.314	1	22
632.653	1	10
632.993	1	17
633.332	1	14
633.671	1	17
634.010	1	16
634.349	1	27
634.689	1	11
635.028	1	11
635.367	1	19
635.706	1	11
636.045	1	-6
636.384	1	20
636.724	1	18
637.063	1	5
637.402	1	16
637.741	1	6
638.080	1	9
638.419	1	13
638.759	1	13
639.098	1	9
639.437	1	10
639.776	1	18
640.115	1	4
640.454	1	10
640.793	1	6
641.132	1	17
641.472	1	18
641.811	1	8
642.150	1	7
642.489	1	17
642.828	1	30
643.167	1	13
643.506	1	9
643.845	1	27
644.184	1	23
644.524	1	4
644.863	1	15
645.202	1	5
645.541	1	13
645.880	1	16
646.219	1	17
646.558	1	5
646.897	1	5
647.236	1	17
647.575	1	19
647.914	1	13
648.253	1	10
648.592	1	17
648.931	1	18
649.270	1	23
649.610	1	12
649.949	1	5
650.288	1	22
650.627	1	13
650.966	1	9
651.305	1	14
651.644	1	19
651.983	1	9
652.322	1	11
652.661	1	13
653.000	1	12
653.339	1	5
653.678	1	19
654.017	1	18
654.356	1	15
654.695	1	18
655.034	1	12
655.373	1	14
655.712	1	23
656.051	1	6
656.390	1	14
656.729	1	21
657.068	1	-3
657.406	1	12
657.745	1	21
658.084	1	14
658.423	1	18
658.762	1	7
659.101	1	5
659.440	1	13
659.779	1	16
660.118	1	13
660.457	1	9
660.796	1	15
661.135	1	27
661.474	1	17
661.813	1	10
662.152	1	10
662.491	1	9
662.829	1	19
663.168	1	14
663.507	1	14
663.846	1	4
664.185	1	9
664.524	1	23
664.863	1	0
665.202	1	14
665.541	1	11
665.879	1	17
666.218	1	12
666.557	1	8
666.896	1	9
667.235	1	2
667.574	1	10
667.913	1	14
668.251	1	7
668.590	1	13
668.929	1	4
669.268	1	10
669.607	1	8
669.946	1	10
670.285	1	17
670.623	1	16
670.962	1	5
671.301	1	2
671.640	1	23
671.979	1	6
672.317	1	15
672.656	1	23
672.995	1	7
673.334	1	12
673.673	1	21
674.011	1	12
674.350	1	14
674.689	1	4
675.028	1	17
675.367	1	12
675.705	1	8
676.044	1	18
676.383	1	15
676.722	1	16
677.060	1	16
677.399	1	23
677.738	1	3
678.077	1	7
678.416	1	11
678.754	1	20
679.093	1	18
679.432	1	6
679.771	1	11
680.109	1	7
680.448	1	7
680.787	1	4
681.125	1	5
681.464	1	13
681.803	1	9
682.142	1	16
682.480	1	3
682.819	1	12
683.158	1	11
683.496	1	5
683.835	1	15
684.174	1	4
684.512	1	10
684.851	1	11
685.190	1	13
685.529	1	6
685.867	1	19
686.206	1	0
686.545	1	5
686.883	1	23
687.222	1	13
687.561	1	15
687.899	1	9
688.238	1	29
688.577	1	16
688.746	1	7