File: Data/GaN_150K_450ms/GaN_sample D_spot15_UVVIS_150 K_200um_450 ms 2x2mm1_107.txt
340.368	1	4
340.710	1	0
341.052	1	14
341.394	1	1
341.737	1	8
342.079	1	1
342.421	1	5
342.763	1	5
343.105	1	4
343.447	1	2
343.789	1	9
344.131	1	-5
344.473	1	3
344.815	1	3
345.157	1	18
345.499	1	5
345.841	1	11
346.183	1	2
346.526	1	2
346.868	1	-9
347.210	1	0
347.552	1	19
347.894	1	2
348.236	1	9
348.578	1	10
348.920	1	3
349.262	1	13
349.604	1	1
349.946	1	1
350.288	1	2
350.630	1	3
350.972	1	7
351.314	1	-8
351.656	1	6
351.998	1	10
352.340	1	7
352.682	1	-3
353.024	1	20
353.366	1	10
353.708	1	-2
354.050	1	-2
354.392	1	0
354.734	1	5
355.076	1	22
355.418	1	4
355.760	1	17
356.102	1	4
356.444	1	21
356.785	1	17
357.127	1	18
357.469	1	14
357.811	1	10
358.153	1	-2
358.495	1	17
358.837	1	17
359.179	1	9
359.521	1	35
359.863	1	20
360.205	1	23
360.547	1	21
360.889	1	15
361.231	1	22
361.572	1	30
361.914	1	25
362.256	1	26
362.598	1	36
362.940	1	31
363.282	1	25
363.624	1	31
363.966	1	39
364.308	1	49
364.649	1	50
364.991	1	51
365.333	1	48
365.675	1	71
366.017	1	75
366.359	1	62
366.701	1	68
367.042	1	82
367.384	1	72
367.726	1	82
368.068	1	92
368.410	1	82
368.752	1	94
369.093	1	83
369.435	1	81
369.777	1	81
370.119	1	68
370.461	1	63
370.803	1	67
371.144	1	67
371.486	1	68
371.828	1	58
372.170	1	57
372.512	1	47
372.853	1	60
373.195	1	55
373.537	1	42
373.879	1	41
374.220	1	53
374.562	1	46
374.904	1	40
375.246	1	33
375.588	1	29
375.929	1	42
376.271	1	35
376.613	1	45
376.955	1	32
377.296	1	33
377.638	1	29
377.980	1	29
378.321	1	25
378.663	1	36
379.005	1	23
379.347	1	33
379.688	1	34
380.030	1	23
380.372	1	23
380.714	1	29
381.055	1	21
381.397	1	21
381.739	1	7
382.080	1	22
382.422	1	17
382.764	1	19
383.105	1	15
383.447	1	14
383.789	1	10
384.130	1	19
384.472	1	16
384.814	1	21
385.156	1	17
385.497	1	27
385.839	1	12
386.180	1	17
386.522	1	13
386.864	1	1
387.205	1	14
387.547	1	20
387.889	1	8
388.230	1	17
388.572	1	10
388.914	1	23
389.255	1	10
389.597	1	8
389.939	1	18
390.280	1	12
390.622	1	8
390.963	1	3
391.305	1	7
391.647	1	5
391.988	1	13
392.330	1	11
392.671	1	22
393.013	1	23
393.355	1	20
393.696	1	8
394.038	1	7
394.379	1	20
394.721	1	12
395.062	1	10
395.404	1	8
395.746	1	5
396.087	1	17
396.429	1	13
396.770	1	14
397.112	1	10
397.453	1	3
397.795	1	6
398.136	1	10
398.478	1	5
398.819	1	15
399.161	1	13
399.503	1	11
399.844	1	7
400.186	1	6
400.527	1	22
400.869	1	15
401.210	1	10
401.552	1	-1
401.893	1	17
402.235	1	18
402.576	1	7
402.918	1	0
403.259	1	5
403.601	1	14
403.942	1	9
404.284	1	21
404.625	1	6
404.967	1	5
405.308	1	-7
405.649	1	3
405.991	1	11
406.332	1	13
406.674	1	19
407.015	1	20
407.357	1	14
407.698	1	12
408.040	1	25
408.381	1	5
408.722	1	12
409.064	1	13
409.405	1	14
409.747	1	6
410.088	1	24
410.430	1	18
410.771	1	10
411.112	1	10
411.454	1	10
411.795	1	14
412.137	1	13
412.478	1	15
412.819	1	13
413.161	1	8
413.502	1	10
413.844	1	20
414.185	1	16
414.526	1	2
414.868	1	9
415.209	1	19
415.550	1	11
415.892	1	12
416.233	1	12
416.575	1	11
416.916	1	17
417.257	1	15
417.599	1	19
417.940	1	5
418.281	1	19
418.623	1	14
418.964	1	20
419.305	1	21
419.647	1	11
419.988	1	21
420.329	1	10
420.671	1	10
421.012	1	-5
421.353	1	21
421.695	1	23
422.036	1	21
422.377	1	15
422.718	1	18
423.060	1	23
423.401	1	8
423.742	1	25
424.084	1	12
424.425	1	21
424.766	1	12
425.107	1	12
425.449	1	15
425.790	1	15
426.131	1	5
426.472	1	24
426.814	1	13
427.155	1	14
427.496	1	14
427.837	1	14
428.179	1	14
428.520	1	8
428.861	1	19
429.202	1	6
429.544	1	14
429.885	1	19
430.226	1	2
430.567	1	5
430.909	1	5
431.250	1	18
431.591	1	21
431.932	1	20
432.273	1	25
432.615	1	14
432.956	1	12
433.297	1	13
433.638	1	20
433.979	1	18
434.320	1	13
434.662	1	18
435.003	1	22
435.344	1	21
435.685	1	0
436.026	1	6
436.368	1	8
436.709	1	9
437.050	1	13
437.391	1	4
437.732	1	16
438.073	1	8
438.414	1	8
438.756	1	3
439.097	1	18
439.438	1	7
439.779	1	15
440.120	1	8
440.461	1	14
440.802	1	9
441.143	1	13
441.485	1	9
441.826	1	16
442.167	1	6
442.508	1	15
442.849	1	10
443.190	1	19
443.531	1	8
443.872	1	4
444.213	1	7
444.554	1	11
444.895	1	2
445.237	1	15
445.578	1	1
445.919	1	6
446.260	1	25
446.601	1	21
446.942	1	3
447.283	1	12
447.624	1	1
447.965	1	6
448.306	1	15
448.647	1	4
448.988	1	15
449.329	1	17
449.670	1	5
450.011	1	5
450.352	1	12
450.693	1	10
451.034	1	8
451.375	1	-1
451.716	1	11
452.057	1	10
452.398	1	18
452.739	1	10
453.080	1	12
453.421	1	17
453.762	1	7
454.103	1	1
454.444	1	5
454.785	1	14
455.126	1	4
455.467	1	9
455.808	1	13
456.149	1	7
456.490	1	-5
456.831	1	13
457.172	1	15
457.513	1	10
457.854	1	14
458.195	1	11
458.536	1	20
458.877	1	8
459.218	1	12
459.559	1	19
459.899	1	10
460.240	1	2
460.581	1	0
460.922	1	15
461.263	1	6
461.604	1	5
461.945	1	16
462.286	1	4
462.627	1	7
462.968	1	14
463.309	1	15
463.649	1	7
463.990	1	14
464.331	1	10
464.672	1	1
465.013	1	11
465.354	1	13
465.695	1	1
466.036	1	11
466.376	1	12
466.717	1	-5
467.058	1	9
467.399	1	1
467.740	1	16
468.081	1	4
468.422	1	12
468.762	1	11
469.103	1	12
469.444	1	9
469.785	1	-6
470.126	1	10
470.467	1	6
470.807	1	14
471.148	1	7
471.489	1	25
471.830	1	7
472.171	1	12
472.511	1	13
472.852	1	10
473.193	1	4
473.534	1	13
473.875	1	4
474.215	1	12
474.556	1	-1
474.897	1	-5
475.238	1	5
475.578	1	1
475.919	1	7
476.260	1	3
476.601	1	-2
476.942	1	5
477.282	1	2
477.623	1	-1
477.964	1	11
478.305	1	8
478.645	1	4
478.986	1	14
479.327	1	11
479.667	1	-3
480.008	1	11
480.349	1	12
480.690	1	14
481.030	1	5
481.371	1	-4
481.712	1	15
482.053	1	7
482.393	1	4
482.734	1	8
483.075	1	6
483.415	1	7
483.756	1	10
484.097	1	16
484.437	1	8
484.778	1	-6
485.119	1	7
485.459	1	4
485.800	1	1
486.141	1	4
486.481	1	-4
486.822	1	12
487.163	1	4
487.503	1	5
487.844	1	0
488.185	1	9
488.525	1	1
488.866	1	7
489.207	1	8
489.547	1	15
489.888	1	5
490.228	1	7
490.569	1	9
490.910	1	14
491.250	1	12
491.591	1	9
491.932	1	14
492.272	1	3
492.613	1	9
492.953	1	6
493.294	1	-3
493.635	1	9
493.975	1	21
494.316	1	3
494.656	1	10
494.997	1	6
495.337	1	2
495.678	1	6
496.019	1	12
496.359	1	6
496.700	1	13
497.040	1	-2
497.381	1	4
497.721	1	5
498.062	1	10
498.403	1	16
498.743	1	12
499.084	1	20
499.424	1	15
499.765	1	15
500.105	1	20
500.446	1	-4
500.786	1	16
501.127	1	11
501.467	1	17
501.808	1	13
502.148	1	8
502.489	1	10
502.829	1	5
503.170	1	15
503.510	1	14
503.851	1	13
504.191	1	10
504.532	1	27
504.872	1	5
505.213	1	10
505.553	1	6
505.894	1	16
506.234	1	22
506.575	1	25
506.915	1	24
507.256	1	24
507.596	1	20
507.936	1	23
508.277	1	21
508.617	1	18
508.958	1	24
509.298	1	7
509.639	1	7
509.979	1	13
510.319	1	16
510.660	1	18
511.000	1	16
511.341	1	24
511.681	1	24
512.022	1	9
512.362	1	27
512.702	1	6
513.043	1	18
513.383	1	14
513.724	1	16
514.064	1	26
514.404	1	18
514.745	1	14
515.085	1	19
515.425	1	25
515.766	1	11
516.106	1	17
516.447	1	19
516.787	1	16
517.127	1	23
517.468	1	35
517.808	1	12
518.148	1	27
518.489	1	19
518.829	1	21
519.169	1	12
519.510	1	13
519.850	1	24
520.190	1	21
520.531	1	8
520.871	1	17
521.211	1	29
521.552	1	10
521.892	1	24
522.232	1	16
522.573	1	24
522.913	1	29
523.253	1	24
523.593	1	17
523.934	1	26
524.274	1	24
524.614	1	23
524.955	1	10
525.295	1	33
525.635	1	30
525.975	1	15
526.316	1	8
526.656	1	36
526.996	1	8
527.337	1	17
527.677	1	23
528.017	1	21
528.357	1	16
528.698	1	23
529.038	1	20
529.378	1	23
529.718	1	25
530.058	1	20
530.399	1	18
530.739	1	27
531.079	1	13
531.419	1	31
531.760	1	23
532.100	1	36
532.440	1	23
532.780	1	13
533.120	1	29
533.461	1	23
533.801	1	25
534.141	1	19
534.481	1	31
534.821	1	22
535.162	1	24
535.502	1	11
535.842	1	19
536.182	1	17
536.522	1	27
536.862	1	8
537.203	1	20
537.543	1	22
537.883	1	29
538.223	1	32
538.563	1	23
538.903	1	20
539.243	1	20
539.584	1	30
539.924	1	18
540.264	1	23
540.604	1	25
540.944	1	15
541.284	1	16
541.624	1	21
541.964	1	23
542.305	1	32
542.645	1	15
542.985	1	17
543.325	1	18
543.665	1	14
544.005	1	20
544.345	1	15
544.685	1	18
545.025	1	16
545.365	1	14
545.705	1	19
546.045	1	33
546.386	1	16
546.726	1	25
547.066	1	11
547.406	1	13
547.746	1	17
548.086	1	26
548.426	1	19
548.766	1	31
549.106	1	15
549.446	1	24
549.786	1	23
550.126	1	21
550.466	1	18
550.806	1	31
551.146	1	17
551.486	1	11
551.826	1	14
552.166	1	14
552.506	1	12
552.846	1	21
553.186	1	7
553.526	1	32
553.866	1	10
554.206	1	20
554.546	1	11
554.886	1	14
555.226	1	9
555.566	1	21
555.906	1	16
556.246	1	26
556.586	1	7
556.926	1	19
557.266	1	12
557.606	1	7
557.946	1	19
558.286	1	9
558.626	1	17
558.966	1	18
559.306	1	19
559.646	1	16
559.986	1	14
560.325	1	15
560.665	1	15
561.005	1	14
561.345	1	6
561.685	1	14
562.025	1	15
562.365	1	15
562.705	1	17
563.045	1	18
563.385	1	16
563.725	1	12
564.064	1	10
564.404	1	7
564.744	1	13
565.084	1	19
565.424	1	16
565.764	1	20
566.104	1	16
566.444	1	17
566.783	1	16
567.123	1	5
567.463	1	10
567.803	1	12
568.143	1	8
568.483	1	21
568.823	1	3
569.162	1	12
569.502	1	11
569.842	1	13
570.182	1	12
570.522	1	8
570.862	1	6
571.201	1	20
571.541	1	8
571.881	1	8
572.221	1	19
572.561	1	17
572.900	1	21
573.240	1	1
573.580	1	4
573.920	1	18
574.260	1	9
574.599	1	12
574.939	1	9
575.279	1	6
575.619	1	9
575.959	1	12
576.298	1	-3
576.638	1	10
576.978	1	2
577.318	1	15
577.657	1	1
577.997	1	12
578.337	1	6
578.677	1	11
579.016	1	18
579.356	1	5
579.696	1	12
580.036	1	11
580.375	1	13
580.715	1	12
581.055	1	20
581.394	1	18
581.734	1	12
582.074	1	5
582.414	1	4
582.753	1	12
583.093	1	14
583.433	1	17
583.772	1	11
584.112	1	6
584.452	1	12
584.791	1	16
585.131	1	12
585.471	1	13
585.811	1	17
586.150	1	13
586.490	1	11
586.830	1	15
587.169	1	6
587.509	1	13
587.849	1	13
588.188	1	10
588.528	1	22
588.867	1	13
589.207	1	11
589.547	1	10
589.886	1	9
590.226	1	8
590.566	1	5
590.905	1	7
591.245	1	6
591.585	1	8
591.924	1	9
592.264	1	1
592.603	1	-8
592.943	1	2
593.283	1	11
593.622	1	17
593.962	1	17
594.301	1	15
594.641	1	4
594.981	1	9
595.320	1	9
595.660	1	7
595.999	1	13
596.339	1	1
596.678	1	0
597.018	1	6
597.358	1	15
597.697	1	-5
598.037	1	4
598.376	1	1
598.716	1	10
599.055	1	21
599.395	1	2
599.734	1	3
600.074	1	2
600.413	1	4
600.753	1	7
601.092	1	6
601.432	1	-2
601.771	1	6
602.111	1	6
602.451	1	3
602.790	1	14
603.130	1	10
603.469	1	9
603.809	1	2
604.148	1	1
604.487	1	3
604.827	1	7
605.166	1	8
605.506	1	8
605.845	1	15
606.185	1	1
606.524	1	0
606.864	1	16
607.203	1	10
607.543	1	8
607.882	1	16
608.222	1	7
608.561	1	4
608.901	1	16
609.240	1	17
609.579	1	5
609.919	1	1
610.258	1	13
610.598	1	6
610.937	1	1
611.277	1	13
611.616	1	21
611.955	1	7
612.295	1	10
612.634	1	8
612.974	1	2
613.313	1	15
613.652	1	9
613.992	1	-5
614.331	1	10
614.671	1	12
615.010	1	11
615.349	1	2
615.689	1	-10
616.028	1	9
616.368	1	15
616.707	1	6
617.046	1	10
617.386	1	13
617.725	1	0
618.064	1	-4
618.404	1	9
618.743	1	7
619.082	1	22
619.422	1	13
619.761	1	3
620.100	1	14
620.440	1	6
620.779	1	8
621.118	1	16
621.458	1	3
621.797	1	3
622.136	1	-3
622.476	1	2
622.815	1	12
623.154	1	-13
623.494	1	-3
623.833	1	4
624.172	1	3
624.511	1	-2
624.851	1	10
625.190	1	-3
625.529	1	11
625.869	1	1
626.208	1	-7
626.547	1	-9
626.886	1	5
627.226	1	10
627.565	1	14
627.904	1	6
628.243	1	5
628.583	1	8
628.922	1	10
629.261	1	6
629.600	1	6
629.940	1	10
630.279	1	12
630.618	1	10
630.957	1	4
631.297	1	8
631.636	1	5
631.975	1	6
632.314	1	6
632.653	1	8
632.993	1	13
633.332	1	9
633.671	1	7
634.010	1	11
634.349	1	20
634.689	1	8
635.028	1	2
635.367	1	7
635.706	1	2
636.045	1	-3
636.384	1	3
636.724	1	10
637.063	1	-8
637.402	1	11
637.741	1	6
638.080	1	12
638.419	1	-6
638.759	1	14
639.098	1	-7
639.437	1	12
639.776	1	7
640.115	1	-5
640.454	1	-3
640.793	1	6
641.132	1	18
641.472	1	10
641.811	1	0
642.150	1	-11
642.489	1	9
642.828	1	11
643.167	1	10
643.506	1	10
643.845	1	11
644.184	1	10
644.524	1	4
644.863	1	-1
645.202	1	21
645.541	1	4
645.880	1	14
646.219	1	11
646.558	1	7
646.897	1	-1
647.236	1	-4
647.575	1	14
647.914	1	2
648.253	1	13
648.592	1	6
648.931	1	11
649.270	1	17
649.610	1	6
649.949	1	-1
650.288	1	21
650.627	1	0
650.966	1	12
651.305	1	9
651.644	1	6
651.983	1	-2
652.322	1	6
652.661	1	2
653.000	1	4
653.339	1	14
653.678	1	13
654.017	1	16
654.356	1	7
654.695	1	19
655.034	1	-1
655.373	1	8
655.712	1	4
656.051	1	-4
656.390	1	9
656.729	1	11
657.068	1	0
657.406	1	1
657.745	1	15
658.084	1	14
658.423	1	4
658.762	1	2
659.101	1	-2
659.440	1	1
659.779	1	12
660.118	1	11
660.457	1	8
660.796	1	5
661.135	1	7
661.474	1	16
661.813	1	-4
662.152	1	7
662.491	1	1
662.829	1	8
663.168	1	3
663.507	1	7
663.846	1	2
664.185	1	5
664.524	1	13
664.863	1	-3
665.202	1	-3
665.541	1	-2
665.879	1	1
666.218	1	12
666.557	1	6
666.896	1	8
667.235	1	1
667.574	1	4
667.913	1	9
668.251	1	-5
668.590	1	-4
668.929	1	-2
669.268	1	-1
669.607	1	1
669.946	1	0
670.285	1	1
670.623	1	8
670.962	1	-3
671.301	1	-4
671.640	1	8
671.979	1	-3
672.317	1	10
672.656	1	13
672.995	1	3
673.334	1	4
673.673	1	9
674.011	1	11
674.350	1	7
674.689	1	-3
675.028	1	0
675.367	1	4
675.705	1	2
676.044	1	4
676.383	1	-1
676.722	1	5
677.060	1	6
677.399	1	21
677.738	1	-3
678.077	1	-1
678.416	1	6
678.754	1	2
679.093	1	9
679.432	1	-2
679.771	1	3
680.109	1	5
680.448	1	-6
680.787	1	1
681.125	1	-1
681.464	1	8
681.803	1	-4
682.142	1	11
682.480	1	-7
682.819	1	2
683.158	1	7
683.496	1	4
683.835	1	4
684.174	1	11
684.512	1	6
684.851	1	-1
685.190	1	2
685.529	1	5
685.867	1	7
686.206	1	-9
686.545	1	1
686.883	1	16
687.222	1	3
687.561	1	-2
687.899	1	7
688.238	1	10
688.577	1	1
688.746	1	2