File: Data/GaN_150K_450ms/GaN_sample D_spot15_UVVIS_150 K_200um_450 ms 2x2mm1_187.txt
340.368	1	-4
340.710	1	5
341.052	1	3
341.394	1	-2
341.737	1	-4
342.079	1	8
342.421	1	1
342.763	1	9
343.105	1	12
343.447	1	-4
343.789	1	13
344.131	1	0
344.473	1	-5
344.815	1	7
345.157	1	9
345.499	1	6
345.841	1	0
346.183	1	0
346.526	1	2
346.868	1	9
347.210	1	-4
347.552	1	19
347.894	1	-5
348.236	1	7
348.578	1	-4
348.920	1	1
349.262	1	4
349.604	1	-2
349.946	1	-1
350.288	1	-8
350.630	1	-5
350.972	1	-1
351.314	1	-2
351.656	1	10
351.998	1	2
352.340	1	11
352.682	1	-9
353.024	1	10
353.366	1	12
353.708	1	4
354.050	1	-1
354.392	1	-9
354.734	1	5
355.076	1	17
355.418	1	5
355.760	1	11
356.102	1	-3
356.444	1	8
356.785	1	2
357.127	1	13
357.469	1	5
357.811	1	4
358.153	1	-2
358.495	1	-1
358.837	1	6
359.179	1	3
359.521	1	9
359.863	1	12
360.205	1	9
360.547	1	8
360.889	1	10
361.231	1	2
361.572	1	6
361.914	1	7
362.256	1	15
362.598	1	20
362.940	1	10
363.282	1	3
363.624	1	19
363.966	1	3
364.308	1	25
364.649	1	15
364.991	1	17
365.333	1	18
365.675	1	22
366.017	1	20
366.359	1	16
366.701	1	18
367.042	1	28
367.384	1	19
367.726	1	19
368.068	1	29
368.410	1	36
368.752	1	37
369.093	1	18
369.435	1	32
369.777	1	50
370.119	1	24
370.461	1	21
370.803	1	14
371.144	1	19
371.486	1	34
371.828	1	14
372.170	1	14
372.512	1	10
372.853	1	24
373.195	1	16
373.537	1	12
373.879	1	12
374.220	1	23
374.562	1	19
374.904	1	20
375.246	1	13
375.588	1	12
375.929	1	8
376.271	1	11
376.613	1	18
376.955	1	18
377.296	1	13
377.638	1	5
377.980	1	3
378.321	1	6
378.663	1	8
379.005	1	5
379.347	1	4
379.688	1	17
380.030	1	17
380.372	1	9
380.714	1	4
381.055	1	5
381.397	1	-6
381.739	1	-2
382.080	1	9
382.422	1	9
382.764	1	7
383.105	1	7
383.447	1	7
383.789	1	-3
384.130	1	3
384.472	1	3
384.814	1	12
385.156	1	3
385.497	1	22
385.839	1	1
386.180	1	2
386.522	1	13
386.864	1	1
387.205	1	13
387.547	1	14
387.889	1	4
388.230	1	8
388.572	1	3
388.914	1	8
389.255	1	2
389.597	1	0
389.939	1	5
390.280	1	-1
390.622	1	0
390.963	1	0
391.305	1	7
391.647	1	0
391.988	1	0
392.330	1	0
392.671	1	15
393.013	1	11
393.355	1	11
393.696	1	1
394.038	1	9
394.379	1	10
394.721	1	2
395.062	1	-8
395.404	1	12
395.746	1	-7
396.087	1	10
396.429	1	14
396.770	1	5
397.112	1	-1
397.453	1	-2
397.795	1	2
398.136	1	2
398.478	1	-1
398.819	1	14
399.161	1	8
399.503	1	20
399.844	1	-1
400.186	1	4
400.527	1	3
400.869	1	-3
401.210	1	11
401.552	1	14
401.893	1	5
402.235	1	11
402.576	1	8
402.918	1	5
403.259	1	-1
403.601	1	9
403.942	1	8
404.284	1	11
404.625	1	-8
404.967	1	13
405.308	1	-1
405.649	1	7
405.991	1	11
406.332	1	1
406.674	1	3
407.015	1	11
407.357	1	15
407.698	1	1
408.040	1	8
408.381	1	7
408.722	1	10
409.064	1	16
409.405	1	7
409.747	1	-2
410.088	1	8
410.430	1	15
410.771	1	14
411.112	1	3
411.454	1	9
411.795	1	-1
412.137	1	16
412.478	1	7
412.819	1	13
413.161	1	-3
413.502	1	5
413.844	1	8
414.185	1	12
414.526	1	-1
414.868	1	3
415.209	1	1
415.550	1	9
415.892	1	4
416.233	1	8
416.575	1	-4
416.916	1	6
417.257	1	-2
417.599	1	19
417.940	1	2
418.281	1	19
418.623	1	9
418.964	1	14
419.305	1	14
419.647	1	13
419.988	1	16
420.329	1	12
420.671	1	12
421.012	1	6
421.353	1	10
421.695	1	7
422.036	1	6
422.377	1	2
422.718	1	4
423.060	1	9
423.401	1	0
423.742	1	12
424.084	1	4
424.425	1	17
424.766	1	9
425.107	1	1
425.449	1	8
425.790	1	9
426.131	1	1
426.472	1	18
426.814	1	8
427.155	1	6
427.496	1	6
427.837	1	-1
428.179	1	19
428.520	1	3
428.861	1	6
429.202	1	0
429.544	1	11
429.885	1	21
430.226	1	1
430.567	1	3
430.909	1	3
431.250	1	19
431.591	1	13
431.932	1	2
432.273	1	9
432.615	1	0
432.956	1	2
433.297	1	10
433.638	1	10
433.979	1	13
434.320	1	7
434.662	1	13
435.003	1	7
435.344	1	11
435.685	1	0
436.026	1	11
436.368	1	-8
436.709	1	4
437.050	1	8
437.391	1	12
437.732	1	15
438.073	1	2
438.414	1	-2
438.756	1	4
439.097	1	8
439.438	1	0
439.779	1	7
440.120	1	0
440.461	1	12
440.802	1	7
441.143	1	12
441.485	1	3
441.826	1	5
442.167	1	11
442.508	1	9
442.849	1	9
443.190	1	10
443.531	1	11
443.872	1	-2
444.213	1	6
444.554	1	4
444.895	1	-1
445.237	1	17
445.578	1	5
445.919	1	18
446.260	1	6
446.601	1	4
446.942	1	4
447.283	1	16
447.624	1	-2
447.965	1	-4
448.306	1	2
448.647	1	7
448.988	1	6
449.329	1	8
449.670	1	0
450.011	1	9
450.352	1	1
450.693	1	12
451.034	1	2
451.375	1	7
451.716	1	7
452.057	1	-5
452.398	1	18
452.739	1	-1
453.080	1	6
453.421	1	11
453.762	1	14
454.103	1	8
454.444	1	-5
454.785	1	6
455.126	1	2
455.467	1	0
455.808	1	-5
456.149	1	-8
456.490	1	5
456.831	1	8
457.172	1	8
457.513	1	3
457.854	1	6
458.195	1	9
458.536	1	11
458.877	1	1
459.218	1	15
459.559	1	-4
459.899	1	-2
460.240	1	1
460.581	1	10
460.922	1	-2
461.263	1	3
461.604	1	4
461.945	1	4
462.286	1	1
462.627	1	-3
462.968	1	6
463.309	1	2
463.649	1	0
463.990	1	5
464.331	1	8
464.672	1	9
465.013	1	0
465.354	1	14
465.695	1	9
466.036	1	9
466.376	1	11
466.717	1	-6
467.058	1	6
467.399	1	-8
467.740	1	15
468.081	1	4
468.422	1	7
468.762	1	9
469.103	1	2
469.444	1	6
469.785	1	2
470.126	1	7
470.467	1	-1
470.807	1	1
471.148	1	-4
471.489	1	1
471.830	1	2
472.171	1	16
472.511	1	-5
472.852	1	8
473.193	1	3
473.534	1	3
473.875	1	4
474.215	1	5
474.556	1	5
474.897	1	-3
475.238	1	4
475.578	1	2
475.919	1	4
476.260	1	-4
476.601	1	-3
476.942	1	6
477.282	1	-10
477.623	1	4
477.964	1	9
478.305	1	5
478.645	1	5
478.986	1	9
479.327	1	8
479.667	1	-3
480.008	1	6
480.349	1	-2
480.690	1	10
481.030	1	2
481.371	1	-3
481.712	1	15
482.053	1	7
482.393	1	9
482.734	1	11
483.075	1	10
483.415	1	6
483.756	1	5
484.097	1	11
484.437	1	0
484.778	1	-5
485.119	1	0
485.459	1	-4
485.800	1	6
486.141	1	-4
486.481	1	-8
486.822	1	8
487.163	1	-6
487.503	1	7
487.844	1	-1
488.185	1	6
488.525	1	-8
488.866	1	-1
489.207	1	10
489.547	1	3
489.888	1	5
490.228	1	-1
490.569	1	-3
490.910	1	6
491.250	1	10
491.591	1	-1
491.932	1	9
492.272	1	-13
492.613	1	5
492.953	1	-2
493.294	1	2
493.635	1	3
493.975	1	12
494.316	1	-2
494.656	1	5
494.997	1	-1
495.337	1	4
495.678	1	4
496.019	1	10
496.359	1	0
496.700	1	4
497.040	1	1
497.381	1	7
497.721	1	-4
498.062	1	-1
498.403	1	5
498.743	1	1
499.084	1	2
499.424	1	8
499.765	1	6
500.105	1	9
500.446	1	10
500.786	1	-2
501.127	1	15
501.467	1	11
501.808	1	9
502.148	1	1
502.489	1	-6
502.829	1	0
503.170	1	9
503.510	1	-3
503.851	1	9
504.191	1	1
504.532	1	12
504.872	1	-3
505.213	1	-4
505.553	1	5
505.894	1	13
506.234	1	13
506.575	1	18
506.915	1	5
507.256	1	5
507.596	1	14
507.936	1	11
508.277	1	16
508.617	1	9
508.958	1	13
509.298	1	0
509.639	1	7
509.979	1	2
510.319	1	8
510.660	1	-10
511.000	1	1
511.341	1	10
511.681	1	7
512.022	1	-5
512.362	1	9
512.702	1	-2
513.043	1	7
513.383	1	7
513.724	1	-3
514.064	1	6
514.404	1	9
514.745	1	5
515.085	1	12
515.425	1	9
515.766	1	5
516.106	1	8
516.447	1	8
516.787	1	1
517.127	1	13
517.468	1	12
517.808	1	3
518.148	1	17
518.489	1	17
518.829	1	3
519.169	1	-10
519.510	1	5
519.850	1	7
520.190	1	6
520.531	1	4
520.871	1	11
521.211	1	20
521.552	1	5
521.892	1	9
522.232	1	10
522.573	1	11
522.913	1	13
523.253	1	8
523.593	1	10
523.934	1	11
524.274	1	12
524.614	1	6
524.955	1	9
525.295	1	10
525.635	1	12
525.975	1	2
526.316	1	-4
526.656	1	10
526.996	1	-3
527.337	1	9
527.677	1	20
528.017	1	-4
528.357	1	12
528.698	1	11
529.038	1	6
529.378	1	6
529.718	1	10
530.058	1	17
530.399	1	10
530.739	1	7
531.079	1	3
531.419	1	9
531.760	1	6
532.100	1	13
532.440	1	9
532.780	1	10
533.120	1	9
533.461	1	-1
533.801	1	7
534.141	1	3
534.481	1	21
534.821	1	0
535.162	1	12
535.502	1	3
535.842	1	-2
536.182	1	3
536.522	1	-1
536.862	1	7
537.203	1	18
537.543	1	13
537.883	1	-4
538.223	1	17
538.563	1	-1
538.903	1	-3
539.243	1	10
539.584	1	-2
539.924	1	12
540.264	1	17
540.604	1	17
540.944	1	-1
541.284	1	5
541.624	1	5
541.964	1	12
542.305	1	12
542.645	1	-3
542.985	1	-3
543.325	1	19
543.665	1	0
544.005	1	6
544.345	1	6
544.685	1	0
545.025	1	11
545.365	1	13
545.705	1	5
546.045	1	8
546.386	1	13
546.726	1	2
547.066	1	4
547.406	1	0
547.746	1	2
548.086	1	2
548.426	1	6
548.766	1	10
549.106	1	4
549.446	1	17
549.786	1	15
550.126	1	6
550.466	1	0
550.806	1	17
551.146	1	0
551.486	1	4
551.826	1	-8
552.166	1	2
552.506	1	2
552.846	1	5
553.186	1	-5
553.526	1	1
553.866	1	12
554.206	1	8
554.546	1	3
554.886	1	1
555.226	1	8
555.566	1	10
555.906	1	4
556.246	1	14
556.586	1	6
556.926	1	5
557.266	1	12
557.606	1	2
557.946	1	6
558.286	1	-4
558.626	1	3
558.966	1	9
559.306	1	9
559.646	1	7
559.986	1	10
560.325	1	1
560.665	1	5
561.005	1	14
561.345	1	-1
561.685	1	5
562.025	1	6
562.365	1	4
562.705	1	4
563.045	1	7
563.385	1	3
563.725	1	0
564.064	1	-3
564.404	1	4
564.744	1	13
565.084	1	10
565.424	1	-5
565.764	1	10
566.104	1	15
566.444	1	18
566.783	1	8
567.123	1	-1
567.463	1	10
567.803	1	10
568.143	1	2
568.483	1	11
568.823	1	4
569.162	1	2
569.502	1	2
569.842	1	2
570.182	1	-5
570.522	1	-3
570.862	1	-10
571.201	1	18
571.541	1	-8
571.881	1	3
572.221	1	4
572.561	1	16
572.900	1	14
573.240	1	2
573.580	1	0
573.920	1	9
574.260	1	13
574.599	1	8
574.939	1	6
575.279	1	2
575.619	1	-6
575.959	1	-2
576.298	1	-4
576.638	1	16
576.978	1	6
577.318	1	7
577.657	1	-6
577.997	1	9
578.337	1	9
578.677	1	-2
579.016	1	4
579.356	1	1
579.696	1	7
580.036	1	3
580.375	1	8
580.715	1	5
581.055	1	-1
581.394	1	9
581.734	1	1
582.074	1	1
582.414	1	3
582.753	1	7
583.093	1	8
583.433	1	12
583.772	1	8
584.112	1	4
584.452	1	8
584.791	1	12
585.131	1	8
585.471	1	3
585.811	1	6
586.150	1	3
586.490	1	7
586.830	1	5
587.169	1	1
587.509	1	0
587.849	1	2
588.188	1	2
588.528	1	6
588.867	1	5
589.207	1	7
589.547	1	5
589.886	1	7
590.226	1	2
590.566	1	-1
590.905	1	-1
591.245	1	-3
591.585	1	-2
591.924	1	-1
592.264	1	5
592.603	1	-6
592.943	1	0
593.283	1	1
593.622	1	1
593.962	1	10
594.301	1	1
594.641	1	7
594.981	1	0
595.320	1	6
595.660	1	9
595.999	1	9
596.339	1	3
596.678	1	-7
597.018	1	-6
597.358	1	-3
597.697	1	2
598.037	1	0
598.376	1	-4
598.716	1	11
599.055	1	11
599.395	1	-1
599.734	1	6
600.074	1	4
600.413	1	4
600.753	1	6
601.092	1	-7
601.432	1	-2
601.771	1	7
602.111	1	2
602.451	1	-4
602.790	1	6
603.130	1	6
603.469	1	-2
603.809	1	2
604.148	1	-5
604.487	1	-3
604.827	1	7
605.166	1	11
605.506	1	0
605.845	1	11
606.185	1	-3
606.524	1	-5
606.864	1	20
607.203	1	17
607.543	1	8
607.882	1	14
608.222	1	2
608.561	1	2
608.901	1	7
609.240	1	-1
609.579	1	-1
609.919	1	-8
610.258	1	15
610.598	1	-5
610.937	1	2
611.277	1	12
611.616	1	10
611.955	1	-1
612.295	1	8
612.634	1	8
612.974	1	-5
613.313	1	6
613.652	1	3
613.992	1	-2
614.331	1	11
614.671	1	6
615.010	1	8
615.349	1	3
615.689	1	-9
616.028	1	9
616.368	1	6
616.707	1	7
617.046	1	-3
617.386	1	5
617.725	1	-7
618.064	1	-7
618.404	1	4
618.743	1	9
619.082	1	13
619.422	1	8
619.761	1	1
620.100	1	7
620.440	1	10
620.779	1	8
621.118	1	10
621.458	1	1
621.797	1	6
622.136	1	2
622.476	1	-4
622.815	1	9
623.154	1	-6
623.494	1	-3
623.833	1	2
624.172	1	6
624.511	1	-4
624.851	1	-4
625.190	1	-6
625.529	1	10
625.869	1	16
626.208	1	-2
626.547	1	-7
626.886	1	-5
627.226	1	2
627.565	1	10
627.904	1	3
628.243	1	12
628.583	1	11
628.922	1	6
629.261	1	1
629.600	1	7
629.940	1	4
630.279	1	5
630.618	1	6
630.957	1	14
631.297	1	7
631.636	1	6
631.975	1	-4
632.314	1	6
632.653	1	4
632.993	1	8
633.332	1	2
633.671	1	10
634.010	1	3
634.349	1	5
634.689	1	5
635.028	1	-2
635.367	1	8
635.706	1	-1
636.045	1	-5
636.384	1	13
636.724	1	7
637.063	1	-3
637.402	1	-3
637.741	1	3
638.080	1	4
638.419	1	3
638.759	1	9
639.098	1	-2
639.437	1	5
639.776	1	6
640.115	1	-2
640.454	1	-8
640.793	1	12
641.132	1	5
641.472	1	10
641.811	1	-8
642.150	1	-1
642.489	1	6
642.828	1	19
643.167	1	9
643.506	1	4
643.845	1	11
644.184	1	8
644.524	1	-1
644.863	1	1
645.202	1	-3
645.541	1	5
645.880	1	0
646.219	1	1
646.558	1	-4
646.897	1	-1
647.236	1	-1
647.575	1	3
647.914	1	6
648.253	1	12
648.592	1	5
648.931	1	11
649.270	1	13
649.610	1	4
649.949	1	2
650.288	1	10
650.627	1	-1
650.966	1	8
651.305	1	-5
651.644	1	11
651.983	1	-2
652.322	1	5
652.661	1	6
653.000	1	9
653.339	1	0
653.678	1	20
654.017	1	7
654.356	1	13
654.695	1	14
655.034	1	-3
655.373	1	6
655.712	1	6
656.051	1	-2
656.390	1	5
656.729	1	8
657.068	1	2
657.406	1	-3
657.745	1	8
658.084	1	1
658.423	1	9
658.762	1	-2
659.101	1	7
659.440	1	3
659.779	1	5
660.118	1	-3
660.457	1	2
660.796	1	14
661.135	1	11
661.474	1	14
661.813	1	8
662.152	1	9
662.491	1	-7
662.829	1	5
663.168	1	3
663.507	1	8
663.846	1	5
664.185	1	2
664.524	1	7
664.863	1	-1
665.202	1	10
665.541	1	8
665.879	1	0
666.218	1	11
666.557	1	-7
666.896	1	-3
667.235	1	-4
667.574	1	-2
667.913	1	13
668.251	1	-6
668.590	1	4
668.929	1	-5
669.268	1	6
669.607	1	1
669.946	1	3
670.285	1	0
670.623	1	2
670.962	1	-3
671.301	1	8
671.640	1	3
671.979	1	0
672.317	1	3
672.656	1	4
672.995	1	2
673.334	1	-2
673.673	1	17
674.011	1	12
674.350	1	3
674.689	1	-9
675.028	1	8
675.367	1	12
675.705	1	-6
676.044	1	3
676.383	1	-4
676.722	1	7
677.060	1	0
677.399	1	12
677.738	1	-5
678.077	1	-4
678.416	1	1
678.754	1	6
679.093	1	17
679.432	1	-8
679.771	1	5
680.109	1	2
680.448	1	-2
680.787	1	-5
681.125	1	3
681.464	1	7
681.803	1	-5
682.142	1	11
682.480	1	-4
682.819	1	-2
683.158	1	-5
683.496	1	-2
683.835	1	2
684.174	1	0
684.512	1	5
684.851	1	0
685.190	1	5
685.529	1	-3
685.867	1	10
686.206	1	-1
686.545	1	-5
686.883	1	8
687.222	1	1
687.561	1	-8
687.899	1	4
688.238	1	5
688.577	1	4
688.746	1	-1