File: Data/GaN_150K_450ms/GaN_sample D_spot15_UVVIS_150 K_200um_450 ms 2x2mm1_103.txt
340.368	1	5
340.710	1	10
341.052	1	1
341.394	1	0
341.737	1	4
342.079	1	3
342.421	1	5
342.763	1	6
343.105	1	8
343.447	1	0
343.789	1	12
344.131	1	-2
344.473	1	14
344.815	1	7
345.157	1	12
345.499	1	4
345.841	1	8
346.183	1	7
346.526	1	5
346.868	1	0
347.210	1	5
347.552	1	16
347.894	1	4
348.236	1	13
348.578	1	12
348.920	1	-5
349.262	1	9
349.604	1	0
349.946	1	6
350.288	1	6
350.630	1	-8
350.972	1	11
351.314	1	7
351.656	1	11
351.998	1	-1
352.340	1	6
352.682	1	-1
353.024	1	17
353.366	1	6
353.708	1	14
354.050	1	8
354.392	1	-10
354.734	1	14
355.076	1	18
355.418	1	6
355.760	1	12
356.102	1	9
356.444	1	19
356.785	1	18
357.127	1	11
357.469	1	21
357.811	1	10
358.153	1	-1
358.495	1	18
358.837	1	21
359.179	1	26
359.521	1	22
359.863	1	8
360.205	1	20
360.547	1	28
360.889	1	24
361.231	1	25
361.572	1	28
361.914	1	40
362.256	1	32
362.598	1	34
362.940	1	38
363.282	1	25
363.624	1	45
363.966	1	45
364.308	1	55
364.649	1	51
364.991	1	66
365.333	1	58
365.675	1	67
366.017	1	82
366.359	1	61
366.701	1	70
367.042	1	84
367.384	1	80
367.726	1	77
368.068	1	86
368.410	1	82
368.752	1	94
369.093	1	83
369.435	1	95
369.777	1	88
370.119	1	78
370.461	1	74
370.803	1	73
371.144	1	66
371.486	1	61
371.828	1	72
372.170	1	64
372.512	1	51
372.853	1	62
373.195	1	47
373.537	1	41
373.879	1	39
374.220	1	52
374.562	1	58
374.904	1	52
375.246	1	37
375.588	1	31
375.929	1	37
376.271	1	29
376.613	1	32
376.955	1	35
377.296	1	31
377.638	1	27
377.980	1	40
378.321	1	37
378.663	1	30
379.005	1	32
379.347	1	20
379.688	1	28
380.030	1	23
380.372	1	19
380.714	1	15
381.055	1	10
381.397	1	16
381.739	1	11
382.080	1	20
382.422	1	21
382.764	1	19
383.105	1	15
383.447	1	8
383.789	1	12
384.130	1	13
384.472	1	13
384.814	1	21
385.156	1	21
385.497	1	23
385.839	1	12
386.180	1	8
386.522	1	19
386.864	1	4
387.205	1	17
387.547	1	17
387.889	1	15
388.230	1	14
388.572	1	13
388.914	1	19
389.255	1	11
389.597	1	11
389.939	1	21
390.280	1	10
390.622	1	5
390.963	1	2
391.305	1	12
391.647	1	16
391.988	1	7
392.330	1	17
392.671	1	19
393.013	1	11
393.355	1	17
393.696	1	8
394.038	1	17
394.379	1	20
394.721	1	10
395.062	1	5
395.404	1	17
395.746	1	9
396.087	1	19
396.429	1	12
396.770	1	10
397.112	1	9
397.453	1	10
397.795	1	11
398.136	1	15
398.478	1	10
398.819	1	11
399.161	1	14
399.503	1	20
399.844	1	11
400.186	1	14
400.527	1	13
400.869	1	21
401.210	1	11
401.552	1	23
401.893	1	11
402.235	1	7
402.576	1	12
402.918	1	18
403.259	1	3
403.601	1	11
403.942	1	8
404.284	1	28
404.625	1	11
404.967	1	14
405.308	1	-3
405.649	1	12
405.991	1	12
406.332	1	19
406.674	1	11
407.015	1	16
407.357	1	18
407.698	1	15
408.040	1	26
408.381	1	-1
408.722	1	13
409.064	1	19
409.405	1	14
409.747	1	16
410.088	1	12
410.430	1	18
410.771	1	23
411.112	1	10
411.454	1	17
411.795	1	18
412.137	1	17
412.478	1	15
412.819	1	15
413.161	1	21
413.502	1	20
413.844	1	24
414.185	1	10
414.526	1	10
414.868	1	5
415.209	1	7
415.550	1	12
415.892	1	12
416.233	1	13
416.575	1	2
416.916	1	11
417.257	1	10
417.599	1	6
417.940	1	14
418.281	1	20
418.623	1	15
418.964	1	22
419.305	1	19
419.647	1	13
419.988	1	19
420.329	1	17
420.671	1	20
421.012	1	10
421.353	1	22
421.695	1	28
422.036	1	29
422.377	1	14
422.718	1	11
423.060	1	20
423.401	1	12
423.742	1	17
424.084	1	13
424.425	1	21
424.766	1	10
425.107	1	17
425.449	1	17
425.790	1	17
426.131	1	3
426.472	1	21
426.814	1	12
427.155	1	21
427.496	1	20
427.837	1	7
428.179	1	25
428.520	1	16
428.861	1	17
429.202	1	2
429.544	1	12
429.885	1	19
430.226	1	4
430.567	1	6
430.909	1	12
431.250	1	22
431.591	1	19
431.932	1	9
432.273	1	15
432.615	1	8
432.956	1	15
433.297	1	19
433.638	1	20
433.979	1	12
434.320	1	18
434.662	1	21
435.003	1	24
435.344	1	11
435.685	1	3
436.026	1	15
436.368	1	14
436.709	1	6
437.050	1	4
437.391	1	17
437.732	1	19
438.073	1	16
438.414	1	8
438.756	1	9
439.097	1	13
439.438	1	6
439.779	1	13
440.120	1	16
440.461	1	9
440.802	1	15
441.143	1	8
441.485	1	2
441.826	1	17
442.167	1	13
442.508	1	4
442.849	1	15
443.190	1	8
443.531	1	4
443.872	1	-4
444.213	1	-5
444.554	1	14
444.895	1	10
445.237	1	14
445.578	1	11
445.919	1	10
446.260	1	26
446.601	1	4
446.942	1	5
447.283	1	16
447.624	1	3
447.965	1	11
448.306	1	15
448.647	1	7
448.988	1	12
449.329	1	11
449.670	1	12
450.011	1	6
450.352	1	0
450.693	1	5
451.034	1	7
451.375	1	11
451.716	1	12
452.057	1	12
452.398	1	20
452.739	1	7
453.080	1	7
453.421	1	18
453.762	1	24
454.103	1	4
454.444	1	2
454.785	1	19
455.126	1	13
455.467	1	5
455.808	1	10
456.149	1	1
456.490	1	10
456.831	1	6
457.172	1	4
457.513	1	1
457.854	1	9
458.195	1	12
458.536	1	16
458.877	1	14
459.218	1	16
459.559	1	12
459.899	1	8
460.240	1	7
460.581	1	4
460.922	1	6
461.263	1	19
461.604	1	12
461.945	1	10
462.286	1	7
462.627	1	3
462.968	1	23
463.309	1	12
463.649	1	13
463.990	1	15
464.331	1	5
464.672	1	5
465.013	1	11
465.354	1	18
465.695	1	7
466.036	1	11
466.376	1	11
466.717	1	-2
467.058	1	8
467.399	1	3
467.740	1	20
468.081	1	11
468.422	1	7
468.762	1	14
469.103	1	5
469.444	1	-4
469.785	1	0
470.126	1	10
470.467	1	10
470.807	1	10
471.148	1	3
471.489	1	7
471.830	1	6
472.171	1	12
472.511	1	9
472.852	1	10
473.193	1	2
473.534	1	8
473.875	1	13
474.215	1	6
474.556	1	4
474.897	1	10
475.238	1	10
475.578	1	-2
475.919	1	8
476.260	1	-8
476.601	1	13
476.942	1	1
477.282	1	-1
477.623	1	7
477.964	1	13
478.305	1	9
478.645	1	10
478.986	1	16
479.327	1	13
479.667	1	10
480.008	1	14
480.349	1	1
480.690	1	12
481.030	1	0
481.371	1	0
481.712	1	24
482.053	1	17
482.393	1	10
482.734	1	10
483.075	1	15
483.415	1	5
483.756	1	8
484.097	1	13
484.437	1	17
484.778	1	7
485.119	1	5
485.459	1	1
485.800	1	0
486.141	1	15
486.481	1	-1
486.822	1	14
487.163	1	8
487.503	1	8
487.844	1	1
488.185	1	18
488.525	1	10
488.866	1	4
489.207	1	10
489.547	1	9
489.888	1	11
490.228	1	0
490.569	1	1
490.910	1	9
491.250	1	17
491.591	1	7
491.932	1	10
492.272	1	6
492.613	1	11
492.953	1	10
493.294	1	1
493.635	1	13
493.975	1	16
494.316	1	12
494.656	1	18
494.997	1	5
495.337	1	19
495.678	1	8
496.019	1	3
496.359	1	0
496.700	1	12
497.040	1	19
497.381	1	13
497.721	1	8
498.062	1	3
498.403	1	17
498.743	1	13
499.084	1	15
499.424	1	4
499.765	1	16
500.105	1	21
500.446	1	6
500.786	1	16
501.127	1	20
501.467	1	23
501.808	1	1
502.148	1	3
502.489	1	0
502.829	1	19
503.170	1	13
503.510	1	20
503.851	1	20
504.191	1	11
504.532	1	25
504.872	1	17
505.213	1	16
505.553	1	19
505.894	1	21
506.234	1	17
506.575	1	35
506.915	1	21
507.256	1	18
507.596	1	31
507.936	1	24
508.277	1	23
508.617	1	11
508.958	1	28
509.298	1	9
509.639	1	4
509.979	1	22
510.319	1	16
510.660	1	6
511.000	1	14
511.341	1	17
511.681	1	24
512.022	1	12
512.362	1	26
512.702	1	7
513.043	1	12
513.383	1	20
513.724	1	15
514.064	1	20
514.404	1	23
514.745	1	18
515.085	1	28
515.425	1	26
515.766	1	11
516.106	1	21
516.447	1	23
516.787	1	24
517.127	1	26
517.468	1	18
517.808	1	19
518.148	1	24
518.489	1	16
518.829	1	26
519.169	1	13
519.510	1	18
519.850	1	23
520.190	1	23
520.531	1	21
520.871	1	18
521.211	1	26
521.552	1	3
521.892	1	21
522.232	1	27
522.573	1	19
522.913	1	22
523.253	1	31
523.593	1	33
523.934	1	17
524.274	1	18
524.614	1	33
524.955	1	16
525.295	1	23
525.635	1	29
525.975	1	17
526.316	1	8
526.656	1	42
526.996	1	13
527.337	1	28
527.677	1	40
528.017	1	9
528.357	1	17
528.698	1	23
529.038	1	26
529.378	1	23
529.718	1	13
530.058	1	23
530.399	1	22
530.739	1	19
531.079	1	23
531.419	1	31
531.760	1	17
532.100	1	24
532.440	1	36
532.780	1	37
533.120	1	15
533.461	1	13
533.801	1	18
534.141	1	24
534.481	1	34
534.821	1	17
535.162	1	26
535.502	1	26
535.842	1	26
536.182	1	15
536.522	1	12
536.862	1	26
537.203	1	18
537.543	1	18
537.883	1	23
538.223	1	27
538.563	1	18
538.903	1	11
539.243	1	23
539.584	1	12
539.924	1	13
540.264	1	25
540.604	1	22
540.944	1	24
541.284	1	17
541.624	1	17
541.964	1	21
542.305	1	24
542.645	1	12
542.985	1	13
543.325	1	31
543.665	1	7
544.005	1	16
544.345	1	17
544.685	1	18
545.025	1	23
545.365	1	16
545.705	1	31
546.045	1	18
546.386	1	17
546.726	1	21
547.066	1	17
547.406	1	6
547.746	1	13
548.086	1	19
548.426	1	18
548.766	1	22
549.106	1	21
549.446	1	27
549.786	1	16
550.126	1	14
550.466	1	14
550.806	1	26
551.146	1	16
551.486	1	18
551.826	1	9
552.166	1	17
552.506	1	15
552.846	1	23
553.186	1	12
553.526	1	17
553.866	1	23
554.206	1	20
554.546	1	26
554.886	1	14
555.226	1	26
555.566	1	14
555.906	1	16
556.246	1	22
556.586	1	14
556.926	1	15
557.266	1	25
557.606	1	6
557.946	1	16
558.286	1	4
558.626	1	21
558.966	1	14
559.306	1	13
559.646	1	20
559.986	1	19
560.325	1	14
560.665	1	15
561.005	1	18
561.345	1	11
561.685	1	22
562.025	1	20
562.365	1	22
562.705	1	18
563.045	1	20
563.385	1	10
563.725	1	12
564.064	1	6
564.404	1	0
564.744	1	21
565.084	1	14
565.424	1	14
565.764	1	16
566.104	1	15
566.444	1	27
566.783	1	17
567.123	1	10
567.463	1	13
567.803	1	15
568.143	1	11
568.483	1	17
568.823	1	8
569.162	1	12
569.502	1	11
569.842	1	7
570.182	1	12
570.522	1	5
570.862	1	-7
571.201	1	20
571.541	1	12
571.881	1	13
572.221	1	21
572.561	1	17
572.900	1	22
573.240	1	6
573.580	1	13
573.920	1	17
574.260	1	9
574.599	1	1
574.939	1	11
575.279	1	11
575.619	1	12
575.959	1	6
576.298	1	1
576.638	1	23
576.978	1	3
577.318	1	11
577.657	1	3
577.997	1	17
578.337	1	13
578.677	1	10
579.016	1	11
579.356	1	10
579.696	1	13
580.036	1	19
580.375	1	9
580.715	1	15
581.055	1	11
581.394	1	7
581.734	1	12
582.074	1	15
582.414	1	1
582.753	1	13
583.093	1	8
583.433	1	14
583.772	1	6
584.112	1	13
584.452	1	12
584.791	1	17
585.131	1	8
585.471	1	16
585.811	1	7
586.150	1	19
586.490	1	8
586.830	1	9
587.169	1	7
587.509	1	14
587.849	1	23
588.188	1	13
588.528	1	2
588.867	1	13
589.207	1	12
589.547	1	11
589.886	1	12
590.226	1	-3
590.566	1	11
590.905	1	10
591.245	1	2
591.585	1	-8
591.924	1	-2
592.264	1	-1
592.603	1	-13
592.943	1	11
593.283	1	5
593.622	1	3
593.962	1	15
594.301	1	5
594.641	1	15
594.981	1	10
595.320	1	10
595.660	1	11
595.999	1	12
596.339	1	10
596.678	1	0
597.018	1	6
597.358	1	4
597.697	1	-11
598.037	1	3
598.376	1	6
598.716	1	13
599.055	1	11
599.395	1	-2
599.734	1	15
600.074	1	2
600.413	1	14
600.753	1	8
601.092	1	7
601.432	1	4
601.771	1	14
602.111	1	12
602.451	1	1
602.790	1	20
603.130	1	10
603.469	1	0
603.809	1	7
604.148	1	2
604.487	1	11
604.827	1	13
605.166	1	5
605.506	1	1
605.845	1	13
606.185	1	4
606.524	1	1
606.864	1	24
607.203	1	8
607.543	1	-5
607.882	1	19
608.222	1	0
608.561	1	10
608.901	1	15
609.240	1	13
609.579	1	9
609.919	1	1
610.258	1	16
610.598	1	1
610.937	1	15
611.277	1	13
611.616	1	14
611.955	1	0
612.295	1	5
612.634	1	10
612.974	1	3
613.313	1	9
613.652	1	22
613.992	1	1
614.331	1	14
614.671	1	-1
615.010	1	9
615.349	1	14
615.689	1	1
616.028	1	20
616.368	1	15
616.707	1	13
617.046	1	2
617.386	1	16
617.725	1	2
618.064	1	6
618.404	1	11
618.743	1	10
619.082	1	20
619.422	1	13
619.761	1	10
620.100	1	6
620.440	1	8
620.779	1	23
621.118	1	15
621.458	1	7
621.797	1	10
622.136	1	4
622.476	1	11
622.815	1	15
623.154	1	0
623.494	1	-10
623.833	1	8
624.172	1	9
624.511	1	-2
624.851	1	-5
625.190	1	7
625.529	1	-8
625.869	1	17
626.208	1	-3
626.547	1	0
626.886	1	1
627.226	1	12
627.565	1	12
627.904	1	4
628.243	1	11
628.583	1	9
628.922	1	14
629.261	1	7
629.600	1	2
629.940	1	1
630.279	1	10
630.618	1	13
630.957	1	12
631.297	1	9
631.636	1	9
631.975	1	8
632.314	1	9
632.653	1	8
632.993	1	3
633.332	1	6
633.671	1	15
634.010	1	-2
634.349	1	21
634.689	1	-5
635.028	1	-5
635.367	1	16
635.706	1	-1
636.045	1	1
636.384	1	10
636.724	1	9
637.063	1	5
637.402	1	3
637.741	1	8
638.080	1	4
638.419	1	-4
638.759	1	16
639.098	1	6
639.437	1	4
639.776	1	5
640.115	1	-4
640.454	1	3
640.793	1	5
641.132	1	4
641.472	1	10
641.811	1	-3
642.150	1	8
642.489	1	4
642.828	1	14
643.167	1	12
643.506	1	9
643.845	1	17
644.184	1	15
644.524	1	6
644.863	1	12
645.202	1	3
645.541	1	6
645.880	1	4
646.219	1	17
646.558	1	-1
646.897	1	-10
647.236	1	0
647.575	1	2
647.914	1	3
648.253	1	15
648.592	1	7
648.931	1	11
649.270	1	9
649.610	1	7
649.949	1	0
650.288	1	1
650.627	1	3
650.966	1	21
651.305	1	6
651.644	1	10
651.983	1	-2
652.322	1	9
652.661	1	15
653.000	1	3
653.339	1	-4
653.678	1	8
654.017	1	6
654.356	1	7
654.695	1	13
655.034	1	5
655.373	1	1
655.712	1	5
656.051	1	2
656.390	1	7
656.729	1	7
657.068	1	5
657.406	1	2
657.745	1	14
658.084	1	3
658.423	1	18
658.762	1	1
659.101	1	3
659.440	1	9
659.779	1	4
660.118	1	5
660.457	1	-1
660.796	1	8
661.135	1	7
661.474	1	16
661.813	1	1
662.152	1	3
662.491	1	-2
662.829	1	11
663.168	1	-4
663.507	1	8
663.846	1	0
664.185	1	-2
664.524	1	15
664.863	1	1
665.202	1	3
665.541	1	10
665.879	1	0
666.218	1	8
666.557	1	1
666.896	1	-5
667.235	1	2
667.574	1	8
667.913	1	3
668.251	1	0
668.590	1	3
668.929	1	-1
669.268	1	4
669.607	1	1
669.946	1	-6
670.285	1	-1
670.623	1	0
670.962	1	-4
671.301	1	5
671.640	1	12
671.979	1	6
672.317	1	10
672.656	1	10
672.995	1	0
673.334	1	-5
673.673	1	14
674.011	1	12
674.350	1	1
674.689	1	-2
675.028	1	11
675.367	1	9
675.705	1	5
676.044	1	3
676.383	1	12
676.722	1	11
677.060	1	2
677.399	1	20
677.738	1	5
678.077	1	1
678.416	1	-1
678.754	1	1
679.093	1	5
679.432	1	-2
679.771	1	15
680.109	1	2
680.448	1	5
680.787	1	-3
681.125	1	2
681.464	1	10
681.803	1	1
682.142	1	2
682.480	1	-4
682.819	1	-3
683.158	1	4
683.496	1	7
683.835	1	11
684.174	1	14
684.512	1	7
684.851	1	-3
685.190	1	1
685.529	1	-1
685.867	1	14
686.206	1	-9
686.545	1	-1
686.883	1	9
687.222	1	1
687.561	1	8
687.899	1	7
688.238	1	28
688.577	1	5
688.746	1	0