File: Data/GaN_150K_450ms/GaN_sample D_spot15_UVVIS_150 K_200um_450 ms 2x2mm1_46.txt
340.368	1	1
340.710	1	7
341.052	1	11
341.394	1	-2
341.737	1	-2
342.079	1	-1
342.421	1	2
342.763	1	1
343.105	1	-4
343.447	1	1
343.789	1	8
344.131	1	-15
344.473	1	-5
344.815	1	-1
345.157	1	8
345.499	1	-1
345.841	1	6
346.183	1	1
346.526	1	5
346.868	1	-8
347.210	1	-2
347.552	1	7
347.894	1	-1
348.236	1	8
348.578	1	5
348.920	1	-4
349.262	1	6
349.604	1	5
349.946	1	6
350.288	1	-15
350.630	1	-1
350.972	1	9
351.314	1	-3
351.656	1	-1
351.998	1	-1
352.340	1	1
352.682	1	-6
353.024	1	12
353.366	1	14
353.708	1	0
354.050	1	-2
354.392	1	-10
354.734	1	5
355.076	1	4
355.418	1	-2
355.760	1	1
356.102	1	1
356.444	1	7
356.785	1	3
357.127	1	8
357.469	1	2
357.811	1	1
358.153	1	-15
358.495	1	-1
358.837	1	16
359.179	1	1
359.521	1	3
359.863	1	-2
360.205	1	16
360.547	1	9
360.889	1	-4
361.231	1	12
361.572	1	-2
361.914	1	-2
362.256	1	7
362.598	1	8
362.940	1	-2
363.282	1	-2
363.624	1	-1
363.966	1	4
364.308	1	1
364.649	1	0
364.991	1	-1
365.333	1	-4
365.675	1	12
366.017	1	2
366.359	1	-2
366.701	1	-2
367.042	1	7
367.384	1	-9
367.726	1	4
368.068	1	11
368.410	1	2
368.752	1	18
369.093	1	4
369.435	1	5
369.777	1	9
370.119	1	6
370.461	1	4
370.803	1	-4
371.144	1	-4
371.486	1	5
371.828	1	-1
372.170	1	-2
372.512	1	-13
372.853	1	7
373.195	1	-5
373.537	1	-3
373.879	1	1
374.220	1	6
374.562	1	8
374.904	1	-2
375.246	1	2
375.588	1	4
375.929	1	-2
376.271	1	1
376.613	1	1
376.955	1	-2
377.296	1	-3
377.638	1	-1
377.980	1	1
378.321	1	2
378.663	1	3
379.005	1	1
379.347	1	4
379.688	1	7
380.030	1	8
380.372	1	8
380.714	1	4
381.055	1	-11
381.397	1	0
381.739	1	-14
382.080	1	11
382.422	1	3
382.764	1	0
383.105	1	-7
383.447	1	0
383.789	1	3
384.130	1	7
384.472	1	-7
384.814	1	5
385.156	1	-5
385.497	1	3
385.839	1	3
386.180	1	2
386.522	1	3
386.864	1	-5
387.205	1	3
387.547	1	8
387.889	1	-2
388.230	1	-2
388.572	1	-3
388.914	1	2
389.255	1	-3
389.597	1	1
389.939	1	8
390.280	1	5
390.622	1	-3
390.963	1	-10
391.305	1	6
391.647	1	1
391.988	1	6
392.330	1	5
392.671	1	6
393.013	1	3
393.355	1	18
393.696	1	-1
394.038	1	3
394.379	1	9
394.721	1	5
395.062	1	-3
395.404	1	11
395.746	1	-3
396.087	1	6
396.429	1	0
396.770	1	0
397.112	1	2
397.453	1	-4
397.795	1	-2
398.136	1	1
398.478	1	-4
398.819	1	3
399.161	1	4
399.503	1	7
399.844	1	2
400.186	1	-1
400.527	1	8
400.869	1	4
401.210	1	5
401.552	1	5
401.893	1	9
402.235	1	0
402.576	1	-3
402.918	1	0
403.259	1	-2
403.601	1	7
403.942	1	3
404.284	1	7
404.625	1	-3
404.967	1	3
405.308	1	-9
405.649	1	2
405.991	1	4
406.332	1	7
406.674	1	-3
407.015	1	6
407.357	1	-2
407.698	1	-3
408.040	1	6
408.381	1	-1
408.722	1	-1
409.064	1	9
409.405	1	-10
409.747	1	-1
410.088	1	4
410.430	1	2
410.771	1	13
411.112	1	3
411.454	1	-1
411.795	1	3
412.137	1	-2
412.478	1	8
412.819	1	4
413.161	1	4
413.502	1	0
413.844	1	11
414.185	1	5
414.526	1	-15
414.868	1	-7
415.209	1	-1
415.550	1	1
415.892	1	4
416.233	1	-3
416.575	1	0
416.916	1	2
417.257	1	-4
417.599	1	-2
417.940	1	-9
418.281	1	8
418.623	1	-1
418.964	1	19
419.305	1	1
419.647	1	4
419.988	1	6
420.329	1	8
420.671	1	3
421.012	1	-9
421.353	1	5
421.695	1	17
422.036	1	7
422.377	1	-6
422.718	1	10
423.060	1	12
423.401	1	1
423.742	1	4
424.084	1	3
424.425	1	5
424.766	1	3
425.107	1	-5
425.449	1	1
425.790	1	9
426.131	1	-3
426.472	1	-1
426.814	1	-8
427.155	1	-2
427.496	1	-6
427.837	1	-6
428.179	1	12
428.520	1	1
428.861	1	-2
429.202	1	-9
429.544	1	0
429.885	1	-1
430.226	1	-1
430.567	1	-6
430.909	1	1
431.250	1	7
431.591	1	1
431.932	1	1
432.273	1	15
432.615	1	3
432.956	1	8
433.297	1	3
433.638	1	4
433.979	1	10
434.320	1	4
434.662	1	8
435.003	1	12
435.344	1	4
435.685	1	-13
436.026	1	0
436.368	1	-3
436.709	1	-4
437.050	1	-1
437.391	1	0
437.732	1	1
438.073	1	-6
438.414	1	4
438.756	1	3
439.097	1	-1
439.438	1	7
439.779	1	-1
440.120	1	6
440.461	1	7
440.802	1	9
441.143	1	-1
441.485	1	4
441.826	1	-3
442.167	1	0
442.508	1	-4
442.849	1	4
443.190	1	1
443.531	1	3
443.872	1	-12
444.213	1	-11
444.554	1	3
444.895	1	-8
445.237	1	11
445.578	1	-3
445.919	1	-5
446.260	1	8
446.601	1	0
446.942	1	2
447.283	1	12
447.624	1	-5
447.965	1	0
448.306	1	0
448.647	1	4
448.988	1	3
449.329	1	6
449.670	1	1
450.011	1	1
450.352	1	0
450.693	1	-2
451.034	1	-6
451.375	1	1
451.716	1	10
452.057	1	-2
452.398	1	7
452.739	1	-1
453.080	1	10
453.421	1	9
453.762	1	7
454.103	1	0
454.444	1	4
454.785	1	2
455.126	1	6
455.467	1	4
455.808	1	5
456.149	1	-10
456.490	1	-5
456.831	1	7
457.172	1	16
457.513	1	-2
457.854	1	0
458.195	1	6
458.536	1	8
458.877	1	8
459.218	1	3
459.559	1	0
459.899	1	-8
460.240	1	-5
460.581	1	-6
460.922	1	0
461.263	1	15
461.604	1	-1
461.945	1	5
462.286	1	-6
462.627	1	8
462.968	1	12
463.309	1	3
463.649	1	-2
463.990	1	-1
464.331	1	10
464.672	1	9
465.013	1	-1
465.354	1	8
465.695	1	5
466.036	1	12
466.376	1	8
466.717	1	-20
467.058	1	8
467.399	1	0
467.740	1	20
468.081	1	2
468.422	1	-2
468.762	1	-1
469.103	1	-1
469.444	1	7
469.785	1	-5
470.126	1	2
470.467	1	-7
470.807	1	-1
471.148	1	-6
471.489	1	7
471.830	1	3
472.171	1	5
472.511	1	7
472.852	1	7
473.193	1	-1
473.534	1	-2
473.875	1	6
474.215	1	-8
474.556	1	2
474.897	1	5
475.238	1	19
475.578	1	2
475.919	1	0
476.260	1	-4
476.601	1	7
476.942	1	6
477.282	1	-8
477.623	1	-10
477.964	1	1
478.305	1	10
478.645	1	3
478.986	1	8
479.327	1	4
479.667	1	-5
480.008	1	1
480.349	1	3
480.690	1	4
481.030	1	-1
481.371	1	-7
481.712	1	7
482.053	1	15
482.393	1	3
482.734	1	0
483.075	1	7
483.415	1	5
483.756	1	5
484.097	1	4
484.437	1	2
484.778	1	-12
485.119	1	4
485.459	1	-1
485.800	1	2
486.141	1	4
486.481	1	-9
486.822	1	3
487.163	1	-3
487.503	1	3
487.844	1	-2
488.185	1	5
488.525	1	-12
488.866	1	2
489.207	1	8
489.547	1	1
489.888	1	3
490.228	1	5
490.569	1	-8
490.910	1	-1
491.250	1	9
491.591	1	9
491.932	1	10
492.272	1	-6
492.613	1	-5
492.953	1	2
493.294	1	-11
493.635	1	10
493.975	1	9
494.316	1	-3
494.656	1	11
494.997	1	-5
495.337	1	6
495.678	1	-1
496.019	1	1
496.359	1	4
496.700	1	-3
497.040	1	0
497.381	1	5
497.721	1	-5
498.062	1	0
498.403	1	5
498.743	1	2
499.084	1	6
499.424	1	5
499.765	1	1
500.105	1	6
500.446	1	-1
500.786	1	-6
501.127	1	-1
501.467	1	13
501.808	1	2
502.148	1	-6
502.489	1	-7
502.829	1	-5
503.170	1	9
503.510	1	0
503.851	1	0
504.191	1	-3
504.532	1	3
504.872	1	-7
505.213	1	-4
505.553	1	3
505.894	1	0
506.234	1	1
506.575	1	7
506.915	1	6
507.256	1	6
507.596	1	1
507.936	1	7
508.277	1	7
508.617	1	9
508.958	1	13
509.298	1	0
509.639	1	1
509.979	1	-8
510.319	1	5
510.660	1	-1
511.000	1	1
511.341	1	14
511.681	1	8
512.022	1	-8
512.362	1	2
512.702	1	7
513.043	1	-1
513.383	1	1
513.724	1	-1
514.064	1	14
514.404	1	9
514.745	1	-1
515.085	1	-5
515.425	1	7
515.766	1	-6
516.106	1	-2
516.447	1	10
516.787	1	0
517.127	1	6
517.468	1	12
517.808	1	-9
518.148	1	20
518.489	1	0
518.829	1	5
519.169	1	-7
519.510	1	-1
519.850	1	4
520.190	1	-3
520.531	1	2
520.871	1	3
521.211	1	11
521.552	1	-11
521.892	1	-5
522.232	1	7
522.573	1	0
522.913	1	-1
523.253	1	14
523.593	1	3
523.934	1	0
524.274	1	2
524.614	1	6
524.955	1	-1
525.295	1	-1
525.635	1	0
525.975	1	-4
526.316	1	-15
526.656	1	6
526.996	1	0
527.337	1	7
527.677	1	15
528.017	1	-4
528.357	1	-1
528.698	1	9
529.038	1	-3
529.378	1	1
529.718	1	-2
530.058	1	-5
530.399	1	-5
530.739	1	6
531.079	1	-6
531.419	1	2
531.760	1	7
532.100	1	10
532.440	1	-2
532.780	1	10
533.120	1	3
533.461	1	-4
533.801	1	-1
534.141	1	2
534.481	1	18
534.821	1	3
535.162	1	7
535.502	1	-2
535.842	1	-8
536.182	1	-2
536.522	1	-4
536.862	1	0
537.203	1	0
537.543	1	0
537.883	1	7
538.223	1	14
538.563	1	-12
538.903	1	-6
539.243	1	-2
539.584	1	-2
539.924	1	-1
540.264	1	3
540.604	1	9
540.944	1	5
541.284	1	3
541.624	1	-1
541.964	1	-2
542.305	1	9
542.645	1	1
542.985	1	-4
543.325	1	5
543.665	1	-10
544.005	1	2
544.345	1	2
544.685	1	-5
545.025	1	8
545.365	1	7
545.705	1	4
546.045	1	2
546.386	1	-6
546.726	1	3
547.066	1	-1
547.406	1	2
547.746	1	4
548.086	1	-1
548.426	1	2
548.766	1	3
549.106	1	-2
549.446	1	0
549.786	1	5
550.126	1	6
550.466	1	0
550.806	1	6
551.146	1	9
551.486	1	6
551.826	1	-5
552.166	1	3
552.506	1	-5
552.846	1	4
553.186	1	3
553.526	1	-1
553.866	1	1
554.206	1	6
554.546	1	2
554.886	1	-4
555.226	1	0
555.566	1	10
555.906	1	1
556.246	1	7
556.586	1	-1
556.926	1	1
557.266	1	11
557.606	1	-7
557.946	1	0
558.286	1	-18
558.626	1	-2
558.966	1	-1
559.306	1	2
559.646	1	8
559.986	1	2
560.325	1	-4
560.665	1	-3
561.005	1	2
561.345	1	-3
561.685	1	6
562.025	1	8
562.365	1	0
562.705	1	2
563.045	1	2
563.385	1	6
563.725	1	-7
564.064	1	-1
564.404	1	-6
564.744	1	15
565.084	1	4
565.424	1	-3
565.764	1	5
566.104	1	9
566.444	1	4
566.783	1	-1
567.123	1	-1
567.463	1	0
567.803	1	5
568.143	1	2
568.483	1	9
568.823	1	-1
569.162	1	0
569.502	1	3
569.842	1	5
570.182	1	-3
570.522	1	-2
570.862	1	-19
571.201	1	4
571.541	1	2
571.881	1	2
572.221	1	11
572.561	1	10
572.900	1	13
573.240	1	-4
573.580	1	-1
573.920	1	8
574.260	1	-1
574.599	1	12
574.939	1	6
575.279	1	1
575.619	1	0
575.959	1	-2
576.298	1	-10
576.638	1	2
576.978	1	12
577.318	1	4
577.657	1	9
577.997	1	2
578.337	1	-3
578.677	1	2
579.016	1	1
579.356	1	3
579.696	1	3
580.036	1	2
580.375	1	2
580.715	1	2
581.055	1	1
581.394	1	8
581.734	1	-1
582.074	1	4
582.414	1	-3
582.753	1	2
583.093	1	2
583.433	1	8
583.772	1	11
584.112	1	6
584.452	1	6
584.791	1	8
585.131	1	-1
585.471	1	7
585.811	1	7
586.150	1	5
586.490	1	5
586.830	1	2
587.169	1	8
587.509	1	5
587.849	1	4
588.188	1	10
588.528	1	1
588.867	1	9
589.207	1	8
589.547	1	15
589.886	1	4
590.226	1	-4
590.566	1	-9
590.905	1	0
591.245	1	-10
591.585	1	-3
591.924	1	-2
592.264	1	-4
592.603	1	-18
592.943	1	2
593.283	1	-5
593.622	1	6
593.962	1	7
594.301	1	2
594.641	1	0
594.981	1	1
595.320	1	1
595.660	1	7
595.999	1	-1
596.339	1	2
596.678	1	-16
597.018	1	-2
597.358	1	5
597.697	1	-9
598.037	1	1
598.376	1	-8
598.716	1	2
599.055	1	8
599.395	1	-4
599.734	1	8
600.074	1	-3
600.413	1	6
600.753	1	9
601.092	1	-3
601.432	1	-6
601.771	1	11
602.111	1	4
602.451	1	-8
602.790	1	5
603.130	1	3
603.469	1	-6
603.809	1	6
604.148	1	-3
604.487	1	-2
604.827	1	4
605.166	1	-4
605.506	1	-4
605.845	1	11
606.185	1	-3
606.524	1	-1
606.864	1	14
607.203	1	4
607.543	1	4
607.882	1	12
608.222	1	-3
608.561	1	-7
608.901	1	8
609.240	1	5
609.579	1	-1
609.919	1	-9
610.258	1	7
610.598	1	-2
610.937	1	0
611.277	1	7
611.616	1	6
611.955	1	-10
612.295	1	-5
612.634	1	6
612.974	1	7
613.313	1	3
613.652	1	8
613.992	1	-1
614.331	1	18
614.671	1	8
615.010	1	7
615.349	1	6
615.689	1	4
616.028	1	14
616.368	1	10
616.707	1	0
617.046	1	3
617.386	1	6
617.725	1	1
618.064	1	-7
618.404	1	-4
618.743	1	7
619.082	1	8
619.422	1	12
619.761	1	-4
620.100	1	3
620.440	1	14
620.779	1	7
621.118	1	7
621.458	1	-5
621.797	1	4
622.136	1	-2
622.476	1	2
622.815	1	3
623.154	1	-6
623.494	1	-4
623.833	1	-2
624.172	1	-4
624.511	1	-10
624.851	1	0
625.190	1	1
625.529	1	-4
625.869	1	0
626.208	1	2
626.547	1	-6
626.886	1	-6
627.226	1	4
627.565	1	3
627.904	1	2
628.243	1	9
628.583	1	3
628.922	1	0
629.261	1	0
629.600	1	6
629.940	1	6
630.279	1	4
630.618	1	5
630.957	1	8
631.297	1	-2
631.636	1	5
631.975	1	6
632.314	1	-9
632.653	1	-4
632.993	1	0
633.332	1	6
633.671	1	4
634.010	1	2
634.349	1	8
634.689	1	-1
635.028	1	2
635.367	1	9
635.706	1	0
636.045	1	-1
636.384	1	9
636.724	1	5
637.063	1	-6
637.402	1	-4
637.741	1	5
638.080	1	-3
638.419	1	-4
638.759	1	0
639.098	1	4
639.437	1	-3
639.776	1	-1
640.115	1	-7
640.454	1	-4
640.793	1	5
641.132	1	8
641.472	1	3
641.811	1	-7
642.150	1	2
642.489	1	4
642.828	1	18
643.167	1	6
643.506	1	-3
643.845	1	6
644.184	1	6
644.524	1	-2
644.863	1	-3
645.202	1	-9
645.541	1	7
645.880	1	5
646.219	1	-4
646.558	1	-5
646.897	1	-6
647.236	1	-7
647.575	1	3
647.914	1	7
648.253	1	13
648.592	1	2
648.931	1	9
649.270	1	5
649.610	1	3
649.949	1	0
650.288	1	8
650.627	1	-8
650.966	1	1
651.305	1	1
651.644	1	1
651.983	1	-9
652.322	1	-5
652.661	1	0
653.000	1	9
653.339	1	-1
653.678	1	5
654.017	1	7
654.356	1	2
654.695	1	17
655.034	1	2
655.373	1	2
655.712	1	1
656.051	1	-10
656.390	1	10
656.729	1	6
657.068	1	-1
657.406	1	-9
657.745	1	3
658.084	1	-2
658.423	1	7
658.762	1	-3
659.101	1	-1
659.440	1	2
659.779	1	-4
660.118	1	3
660.457	1	13
660.796	1	1
661.135	1	8
661.474	1	1
661.813	1	-1
662.152	1	3
662.491	1	-12
662.829	1	8
663.168	1	-9
663.507	1	6
663.846	1	1
664.185	1	2
664.524	1	9
664.863	1	-1
665.202	1	9
665.541	1	2
665.879	1	3
666.218	1	5
666.557	1	0
666.896	1	-1
667.235	1	-10
667.574	1	-8
667.913	1	-2
668.251	1	-11
668.590	1	1
668.929	1	-10
669.268	1	-9
669.607	1	-3
669.946	1	-5
670.285	1	-5
670.623	1	2
670.962	1	-9
671.301	1	-3
671.640	1	6
671.979	1	-1
672.317	1	2
672.656	1	10
672.995	1	-3
673.334	1	-2
673.673	1	10
674.011	1	-2
674.350	1	2
674.689	1	-2
675.028	1	2
675.367	1	2
675.705	1	-3
676.044	1	-6
676.383	1	5
676.722	1	0
677.060	1	4
677.399	1	6
677.738	1	-5
678.077	1	5
678.416	1	0
678.754	1	6
679.093	1	3
679.432	1	-1
679.771	1	-2
680.109	1	-8
680.448	1	4
680.787	1	-10
681.125	1	-5
681.464	1	4
681.803	1	-4
682.142	1	4
682.480	1	-7
682.819	1	1
683.158	1	1
683.496	1	2
683.835	1	6
684.174	1	4
684.512	1	1
684.851	1	1
685.190	1	3
685.529	1	-4
685.867	1	-3
686.206	1	-4
686.545	1	2
686.883	1	16
687.222	1	1
687.561	1	3
687.899	1	-4
688.238	1	6
688.577	1	-2
688.746	1	-1