File: Data/GaN_150K_450ms/GaN_sample D_spot15_UVVIS_150 K_200um_450 ms 2x2mm1_117.txt
340.368	1	7
340.710	1	5
341.052	1	1
341.394	1	-3
341.737	1	0
342.079	1	8
342.421	1	-2
342.763	1	3
343.105	1	-5
343.447	1	4
343.789	1	5
344.131	1	-1
344.473	1	7
344.815	1	6
345.157	1	12
345.499	1	6
345.841	1	12
346.183	1	9
346.526	1	5
346.868	1	5
347.210	1	5
347.552	1	19
347.894	1	-8
348.236	1	2
348.578	1	12
348.920	1	11
349.262	1	10
349.604	1	6
349.946	1	1
350.288	1	1
350.630	1	3
350.972	1	12
351.314	1	5
351.656	1	11
351.998	1	6
352.340	1	15
352.682	1	-4
353.024	1	25
353.366	1	9
353.708	1	12
354.050	1	-4
354.392	1	-2
354.734	1	-1
355.076	1	17
355.418	1	1
355.760	1	18
356.102	1	11
356.444	1	14
356.785	1	11
357.127	1	12
357.469	1	15
357.811	1	16
358.153	1	6
358.495	1	13
358.837	1	23
359.179	1	22
359.521	1	18
359.863	1	5
360.205	1	24
360.547	1	17
360.889	1	9
361.231	1	15
361.572	1	10
361.914	1	23
362.256	1	29
362.598	1	39
362.940	1	19
363.282	1	23
363.624	1	34
363.966	1	35
364.308	1	44
364.649	1	48
364.991	1	50
365.333	1	50
365.675	1	57
366.017	1	61
366.359	1	45
366.701	1	54
367.042	1	65
367.384	1	60
367.726	1	73
368.068	1	70
368.410	1	75
368.752	1	63
369.093	1	69
369.435	1	71
369.777	1	70
370.119	1	58
370.461	1	53
370.803	1	48
371.144	1	58
371.486	1	59
371.828	1	43
372.170	1	48
372.512	1	43
372.853	1	52
373.195	1	42
373.537	1	26
373.879	1	39
374.220	1	37
374.562	1	42
374.904	1	35
375.246	1	32
375.588	1	28
375.929	1	33
376.271	1	27
376.613	1	27
376.955	1	34
377.296	1	32
377.638	1	15
377.980	1	19
378.321	1	28
378.663	1	26
379.005	1	22
379.347	1	15
379.688	1	20
380.030	1	25
380.372	1	7
380.714	1	29
381.055	1	23
381.397	1	12
381.739	1	6
382.080	1	10
382.422	1	19
382.764	1	13
383.105	1	9
383.447	1	14
383.789	1	3
384.130	1	20
384.472	1	13
384.814	1	16
385.156	1	12
385.497	1	23
385.839	1	14
386.180	1	16
386.522	1	24
386.864	1	6
387.205	1	17
387.547	1	19
387.889	1	4
388.230	1	16
388.572	1	1
388.914	1	9
389.255	1	3
389.597	1	7
389.939	1	14
390.280	1	18
390.622	1	11
390.963	1	3
391.305	1	13
391.647	1	5
391.988	1	11
392.330	1	10
392.671	1	6
393.013	1	16
393.355	1	19
393.696	1	15
394.038	1	7
394.379	1	13
394.721	1	5
395.062	1	7
395.404	1	17
395.746	1	12
396.087	1	18
396.429	1	12
396.770	1	14
397.112	1	12
397.453	1	11
397.795	1	14
398.136	1	16
398.478	1	9
398.819	1	13
399.161	1	10
399.503	1	17
399.844	1	4
400.186	1	10
400.527	1	24
400.869	1	20
401.210	1	9
401.552	1	4
401.893	1	16
402.235	1	13
402.576	1	13
402.918	1	8
403.259	1	9
403.601	1	20
403.942	1	10
404.284	1	16
404.625	1	11
404.967	1	18
405.308	1	-7
405.649	1	10
405.991	1	21
406.332	1	13
406.674	1	13
407.015	1	18
407.357	1	11
407.698	1	22
408.040	1	33
408.381	1	-3
408.722	1	14
409.064	1	13
409.405	1	15
409.747	1	5
410.088	1	9
410.430	1	17
410.771	1	16
411.112	1	17
411.454	1	6
411.795	1	16
412.137	1	13
412.478	1	8
412.819	1	9
413.161	1	12
413.502	1	9
413.844	1	14
414.185	1	12
414.526	1	9
414.868	1	12
415.209	1	6
415.550	1	7
415.892	1	9
416.233	1	26
416.575	1	-3
416.916	1	-3
417.257	1	9
417.599	1	12
417.940	1	6
418.281	1	16
418.623	1	7
418.964	1	23
419.305	1	16
419.647	1	8
419.988	1	14
420.329	1	16
420.671	1	25
421.012	1	7
421.353	1	17
421.695	1	10
422.036	1	14
422.377	1	22
422.718	1	17
423.060	1	16
423.401	1	9
423.742	1	19
424.084	1	5
424.425	1	26
424.766	1	16
425.107	1	16
425.449	1	15
425.790	1	13
426.131	1	8
426.472	1	19
426.814	1	14
427.155	1	11
427.496	1	10
427.837	1	8
428.179	1	22
428.520	1	14
428.861	1	22
429.202	1	4
429.544	1	18
429.885	1	19
430.226	1	-4
430.567	1	6
430.909	1	14
431.250	1	17
431.591	1	9
431.932	1	10
432.273	1	12
432.615	1	7
432.956	1	3
433.297	1	6
433.638	1	11
433.979	1	13
434.320	1	16
434.662	1	14
435.003	1	18
435.344	1	6
435.685	1	1
436.026	1	4
436.368	1	15
436.709	1	9
437.050	1	13
437.391	1	8
437.732	1	12
438.073	1	5
438.414	1	12
438.756	1	3
439.097	1	11
439.438	1	2
439.779	1	6
440.120	1	11
440.461	1	12
440.802	1	15
441.143	1	22
441.485	1	10
441.826	1	10
442.167	1	15
442.508	1	11
442.849	1	13
443.190	1	10
443.531	1	8
443.872	1	4
444.213	1	6
444.554	1	14
444.895	1	7
445.237	1	19
445.578	1	0
445.919	1	4
446.260	1	17
446.601	1	7
446.942	1	1
447.283	1	14
447.624	1	6
447.965	1	6
448.306	1	9
448.647	1	9
448.988	1	13
449.329	1	13
449.670	1	5
450.011	1	4
450.352	1	7
450.693	1	14
451.034	1	7
451.375	1	8
451.716	1	8
452.057	1	18
452.398	1	7
452.739	1	14
453.080	1	6
453.421	1	10
453.762	1	17
454.103	1	12
454.444	1	7
454.785	1	13
455.126	1	14
455.467	1	1
455.808	1	17
456.149	1	0
456.490	1	-4
456.831	1	-1
457.172	1	6
457.513	1	3
457.854	1	7
458.195	1	5
458.536	1	15
458.877	1	12
459.218	1	14
459.559	1	10
459.899	1	8
460.240	1	8
460.581	1	5
460.922	1	5
461.263	1	17
461.604	1	4
461.945	1	13
462.286	1	1
462.627	1	1
462.968	1	12
463.309	1	8
463.649	1	1
463.990	1	7
464.331	1	4
464.672	1	3
465.013	1	11
465.354	1	13
465.695	1	6
466.036	1	9
466.376	1	21
466.717	1	-7
467.058	1	7
467.399	1	8
467.740	1	12
468.081	1	6
468.422	1	9
468.762	1	10
469.103	1	3
469.444	1	4
469.785	1	0
470.126	1	8
470.467	1	4
470.807	1	6
471.148	1	-3
471.489	1	18
471.830	1	8
472.171	1	14
472.511	1	5
472.852	1	6
473.193	1	4
473.534	1	6
473.875	1	4
474.215	1	4
474.556	1	6
474.897	1	3
475.238	1	-4
475.578	1	-3
475.919	1	7
476.260	1	4
476.601	1	3
476.942	1	9
477.282	1	0
477.623	1	6
477.964	1	10
478.305	1	13
478.645	1	-1
478.986	1	1
479.327	1	8
479.667	1	2
480.008	1	8
480.349	1	4
480.690	1	17
481.030	1	3
481.371	1	1
481.712	1	12
482.053	1	13
482.393	1	9
482.734	1	12
483.075	1	15
483.415	1	10
483.756	1	6
484.097	1	12
484.437	1	15
484.778	1	5
485.119	1	10
485.459	1	5
485.800	1	7
486.141	1	8
486.481	1	-7
486.822	1	4
487.163	1	0
487.503	1	5
487.844	1	3
488.185	1	12
488.525	1	1
488.866	1	4
489.207	1	11
489.547	1	6
489.888	1	9
490.228	1	2
490.569	1	6
490.910	1	19
491.250	1	14
491.591	1	4
491.932	1	18
492.272	1	-5
492.613	1	4
492.953	1	11
493.294	1	-1
493.635	1	3
493.975	1	14
494.316	1	12
494.656	1	16
494.997	1	-4
495.337	1	4
495.678	1	9
496.019	1	8
496.359	1	10
496.700	1	10
497.040	1	3
497.381	1	12
497.721	1	-5
498.062	1	9
498.403	1	16
498.743	1	15
499.084	1	10
499.424	1	7
499.765	1	12
500.105	1	20
500.446	1	3
500.786	1	9
501.127	1	22
501.467	1	4
501.808	1	16
502.148	1	7
502.489	1	13
502.829	1	8
503.170	1	14
503.510	1	14
503.851	1	25
504.191	1	6
504.532	1	13
504.872	1	2
505.213	1	4
505.553	1	17
505.894	1	22
506.234	1	23
506.575	1	23
506.915	1	13
507.256	1	16
507.596	1	16
507.936	1	24
508.277	1	14
508.617	1	17
508.958	1	20
509.298	1	6
509.639	1	10
509.979	1	4
510.319	1	13
510.660	1	8
511.000	1	9
511.341	1	23
511.681	1	22
512.022	1	2
512.362	1	12
512.702	1	1
513.043	1	17
513.383	1	22
513.724	1	16
514.064	1	9
514.404	1	16
514.745	1	11
515.085	1	15
515.425	1	20
515.766	1	14
516.106	1	13
516.447	1	18
516.787	1	12
517.127	1	25
517.468	1	24
517.808	1	4
518.148	1	19
518.489	1	14
518.829	1	22
519.169	1	5
519.510	1	13
519.850	1	18
520.190	1	14
520.531	1	12
520.871	1	11
521.211	1	18
521.552	1	23
521.892	1	21
522.232	1	14
522.573	1	17
522.913	1	16
523.253	1	29
523.593	1	32
523.934	1	21
524.274	1	12
524.614	1	14
524.955	1	13
525.295	1	21
525.635	1	19
525.975	1	-2
526.316	1	4
526.656	1	10
526.996	1	12
527.337	1	31
527.677	1	34
528.017	1	3
528.357	1	15
528.698	1	15
529.038	1	13
529.378	1	12
529.718	1	10
530.058	1	15
530.399	1	25
530.739	1	21
531.079	1	10
531.419	1	22
531.760	1	21
532.100	1	21
532.440	1	22
532.780	1	24
533.120	1	14
533.461	1	22
533.801	1	14
534.141	1	23
534.481	1	34
534.821	1	19
535.162	1	18
535.502	1	21
535.842	1	11
536.182	1	5
536.522	1	4
536.862	1	15
537.203	1	15
537.543	1	16
537.883	1	17
538.223	1	30
538.563	1	22
538.903	1	18
539.243	1	19
539.584	1	21
539.924	1	14
540.264	1	18
540.604	1	22
540.944	1	15
541.284	1	7
541.624	1	10
541.964	1	23
542.305	1	15
542.645	1	15
542.985	1	6
543.325	1	24
543.665	1	14
544.005	1	8
544.345	1	19
544.685	1	8
545.025	1	16
545.365	1	21
545.705	1	18
546.045	1	22
546.386	1	8
546.726	1	9
547.066	1	11
547.406	1	12
547.746	1	12
548.086	1	20
548.426	1	16
548.766	1	25
549.106	1	14
549.446	1	18
549.786	1	24
550.126	1	22
550.466	1	14
550.806	1	26
551.146	1	12
551.486	1	8
551.826	1	7
552.166	1	13
552.506	1	19
552.846	1	17
553.186	1	2
553.526	1	8
553.866	1	15
554.206	1	11
554.546	1	21
554.886	1	12
555.226	1	9
555.566	1	13
555.906	1	9
556.246	1	18
556.586	1	8
556.926	1	2
557.266	1	10
557.606	1	9
557.946	1	18
558.286	1	1
558.626	1	14
558.966	1	20
559.306	1	14
559.646	1	16
559.986	1	9
560.325	1	6
560.665	1	5
561.005	1	12
561.345	1	9
561.685	1	25
562.025	1	9
562.365	1	8
562.705	1	15
563.045	1	11
563.385	1	14
563.725	1	2
564.064	1	6
564.404	1	1
564.744	1	18
565.084	1	10
565.424	1	3
565.764	1	15
566.104	1	11
566.444	1	14
566.783	1	7
567.123	1	11
567.463	1	17
567.803	1	10
568.143	1	2
568.483	1	19
568.823	1	10
569.162	1	5
569.502	1	10
569.842	1	6
570.182	1	14
570.522	1	10
570.862	1	1
571.201	1	13
571.541	1	13
571.881	1	6
572.221	1	13
572.561	1	20
572.900	1	11
573.240	1	1
573.580	1	7
573.920	1	13
574.260	1	15
574.599	1	3
574.939	1	12
575.279	1	11
575.619	1	0
575.959	1	5
576.298	1	-1
576.638	1	13
576.978	1	4
577.318	1	12
577.657	1	4
577.997	1	12
578.337	1	10
578.677	1	6
579.016	1	11
579.356	1	13
579.696	1	-1
580.036	1	17
580.375	1	3
580.715	1	19
581.055	1	6
581.394	1	7
581.734	1	6
582.074	1	4
582.414	1	6
582.753	1	8
583.093	1	13
583.433	1	17
583.772	1	10
584.112	1	3
584.452	1	10
584.791	1	18
585.131	1	15
585.471	1	2
585.811	1	10
586.150	1	16
586.490	1	5
586.830	1	16
587.169	1	10
587.509	1	10
587.849	1	14
588.188	1	12
588.528	1	-3
588.867	1	15
589.207	1	5
589.547	1	7
589.886	1	7
590.226	1	-1
590.566	1	-1
590.905	1	6
591.245	1	5
591.585	1	-4
591.924	1	3
592.264	1	3
592.603	1	-5
592.943	1	0
593.283	1	14
593.622	1	-1
593.962	1	13
594.301	1	6
594.641	1	9
594.981	1	14
595.320	1	11
595.660	1	12
595.999	1	13
596.339	1	7
596.678	1	-11
597.018	1	1
597.358	1	10
597.697	1	-7
598.037	1	11
598.376	1	-2
598.716	1	5
599.055	1	12
599.395	1	6
599.734	1	12
600.074	1	7
600.413	1	8
600.753	1	3
601.092	1	-6
601.432	1	-13
601.771	1	12
602.111	1	2
602.451	1	8
602.790	1	15
603.130	1	0
603.469	1	1
603.809	1	11
604.148	1	4
604.487	1	14
604.827	1	14
605.166	1	6
605.506	1	3
605.845	1	-1
606.185	1	2
606.524	1	-2
606.864	1	19
607.203	1	9
607.543	1	4
607.882	1	21
608.222	1	11
608.561	1	7
608.901	1	8
609.240	1	0
609.579	1	-6
609.919	1	-3
610.258	1	12
610.598	1	-17
610.937	1	13
611.277	1	12
611.616	1	11
611.955	1	-2
612.295	1	12
612.634	1	3
612.974	1	2
613.313	1	6
613.652	1	14
613.992	1	5
614.331	1	19
614.671	1	15
615.010	1	8
615.349	1	5
615.689	1	6
616.028	1	16
616.368	1	11
616.707	1	10
617.046	1	-4
617.386	1	11
617.725	1	5
618.064	1	-7
618.404	1	-1
618.743	1	-5
619.082	1	14
619.422	1	21
619.761	1	-4
620.100	1	12
620.440	1	9
620.779	1	12
621.118	1	16
621.458	1	5
621.797	1	8
622.136	1	-1
622.476	1	1
622.815	1	10
623.154	1	-7
623.494	1	-3
623.833	1	5
624.172	1	13
624.511	1	0
624.851	1	-4
625.190	1	8
625.529	1	3
625.869	1	5
626.208	1	2
626.547	1	4
626.886	1	1
627.226	1	13
627.565	1	7
627.904	1	3
628.243	1	8
628.583	1	11
628.922	1	-5
629.261	1	14
629.600	1	8
629.940	1	13
630.279	1	16
630.618	1	11
630.957	1	7
631.297	1	16
631.636	1	3
631.975	1	2
632.314	1	10
632.653	1	4
632.993	1	8
633.332	1	9
633.671	1	16
634.010	1	-5
634.349	1	16
634.689	1	0
635.028	1	-8
635.367	1	-2
635.706	1	5
636.045	1	3
636.384	1	16
636.724	1	16
637.063	1	-5
637.402	1	7
637.741	1	11
638.080	1	8
638.419	1	1
638.759	1	10
639.098	1	9
639.437	1	5
639.776	1	5
640.115	1	3
640.454	1	-11
640.793	1	10
641.132	1	-1
641.472	1	16
641.811	1	7
642.150	1	-5
642.489	1	9
642.828	1	11
643.167	1	10
643.506	1	9
643.845	1	5
644.184	1	14
644.524	1	1
644.863	1	0
645.202	1	5
645.541	1	2
645.880	1	5
646.219	1	10
646.558	1	-4
646.897	1	-2
647.236	1	-7
647.575	1	13
647.914	1	2
648.253	1	9
648.592	1	5
648.931	1	13
649.270	1	17
649.610	1	9
649.949	1	7
650.288	1	0
650.627	1	-5
650.966	1	4
651.305	1	4
651.644	1	11
651.983	1	-5
652.322	1	6
652.661	1	7
653.000	1	5
653.339	1	4
653.678	1	13
654.017	1	13
654.356	1	17
654.695	1	17
655.034	1	1
655.373	1	8
655.712	1	13
656.051	1	0
656.390	1	7
656.729	1	11
657.068	1	9
657.406	1	1
657.745	1	20
658.084	1	3
658.423	1	7
658.762	1	1
659.101	1	8
659.440	1	8
659.779	1	9
660.118	1	3
660.457	1	4
660.796	1	13
661.135	1	13
661.474	1	8
661.813	1	9
662.152	1	6
662.491	1	-1
662.829	1	1
663.168	1	-1
663.507	1	3
663.846	1	5
664.185	1	-3
664.524	1	8
664.863	1	-10
665.202	1	12
665.541	1	6
665.879	1	17
666.218	1	8
666.557	1	3
666.896	1	1
667.235	1	1
667.574	1	11
667.913	1	15
668.251	1	-8
668.590	1	2
668.929	1	-2
669.268	1	0
669.607	1	4
669.946	1	2
670.285	1	6
670.623	1	0
670.962	1	-8
671.301	1	8
671.640	1	14
671.979	1	6
672.317	1	2
672.656	1	10
672.995	1	5
673.334	1	6
673.673	1	21
674.011	1	4
674.350	1	1
674.689	1	-2
675.028	1	19
675.367	1	8
675.705	1	0
676.044	1	7
676.383	1	3
676.722	1	4
677.060	1	9
677.399	1	14
677.738	1	-1
678.077	1	-1
678.416	1	4
678.754	1	4
679.093	1	14
679.432	1	-3
679.771	1	6
680.109	1	5
680.448	1	-1
680.787	1	-3
681.125	1	3
681.464	1	5
681.803	1	8
682.142	1	7
682.480	1	0
682.819	1	12
683.158	1	4
683.496	1	-1
683.835	1	5
684.174	1	-3
684.512	1	4
684.851	1	9
685.190	1	1
685.529	1	5
685.867	1	0
686.206	1	0
686.545	1	7
686.883	1	15
687.222	1	-2
687.561	1	3
687.899	1	12
688.238	1	12
688.577	1	0
688.746	1	-1