File: Data/GaN_150K_450ms/GaN_sample D_spot15_UVVIS_150 K_200um_450 ms 2x2mm1_88.txt
340.368	1	7
340.710	1	11
341.052	1	16
341.394	1	-5
341.737	1	6
342.079	1	8
342.421	1	8
342.763	1	-6
343.105	1	11
343.447	1	2
343.789	1	10
344.131	1	-11
344.473	1	10
344.815	1	6
345.157	1	18
345.499	1	5
345.841	1	9
346.183	1	9
346.526	1	11
346.868	1	5
347.210	1	-1
347.552	1	19
347.894	1	-6
348.236	1	11
348.578	1	8
348.920	1	9
349.262	1	9
349.604	1	1
349.946	1	3
350.288	1	9
350.630	1	0
350.972	1	23
351.314	1	8
351.656	1	6
351.998	1	12
352.340	1	16
352.682	1	-15
353.024	1	14
353.366	1	23
353.708	1	15
354.050	1	5
354.392	1	1
354.734	1	17
355.076	1	18
355.418	1	11
355.760	1	4
356.102	1	9
356.444	1	16
356.785	1	17
357.127	1	14
357.469	1	10
357.811	1	13
358.153	1	3
358.495	1	12
358.837	1	20
359.179	1	18
359.521	1	22
359.863	1	18
360.205	1	33
360.547	1	28
360.889	1	22
361.231	1	36
361.572	1	35
361.914	1	33
362.256	1	41
362.598	1	52
362.940	1	52
363.282	1	44
363.624	1	56
363.966	1	53
364.308	1	78
364.649	1	62
364.991	1	83
365.333	1	85
365.675	1	109
366.017	1	104
366.359	1	97
366.701	1	103
367.042	1	122
367.384	1	120
367.726	1	122
368.068	1	136
368.410	1	134
368.752	1	128
369.093	1	128
369.435	1	138
369.777	1	123
370.119	1	122
370.461	1	123
370.803	1	99
371.144	1	89
371.486	1	95
371.828	1	86
372.170	1	85
372.512	1	70
372.853	1	79
373.195	1	68
373.537	1	60
373.879	1	71
374.220	1	72
374.562	1	65
374.904	1	60
375.246	1	47
375.588	1	46
375.929	1	56
376.271	1	48
376.613	1	49
376.955	1	50
377.296	1	50
377.638	1	40
377.980	1	44
378.321	1	46
378.663	1	31
379.005	1	35
379.347	1	35
379.688	1	37
380.030	1	40
380.372	1	32
380.714	1	30
381.055	1	29
381.397	1	36
381.739	1	19
382.080	1	29
382.422	1	24
382.764	1	27
383.105	1	24
383.447	1	23
383.789	1	19
384.130	1	34
384.472	1	23
384.814	1	33
385.156	1	17
385.497	1	33
385.839	1	19
386.180	1	13
386.522	1	19
386.864	1	11
387.205	1	27
387.547	1	24
387.889	1	6
388.230	1	14
388.572	1	11
388.914	1	23
389.255	1	14
389.597	1	19
389.939	1	17
390.280	1	18
390.622	1	10
390.963	1	-1
391.305	1	10
391.647	1	8
391.988	1	10
392.330	1	22
392.671	1	14
393.013	1	10
393.355	1	22
393.696	1	15
394.038	1	17
394.379	1	17
394.721	1	11
395.062	1	10
395.404	1	21
395.746	1	7
396.087	1	13
396.429	1	20
396.770	1	21
397.112	1	17
397.453	1	12
397.795	1	12
398.136	1	19
398.478	1	14
398.819	1	11
399.161	1	17
399.503	1	28
399.844	1	4
400.186	1	14
400.527	1	13
400.869	1	13
401.210	1	15
401.552	1	12
401.893	1	17
402.235	1	12
402.576	1	17
402.918	1	4
403.259	1	12
403.601	1	15
403.942	1	8
404.284	1	13
404.625	1	10
404.967	1	13
405.308	1	3
405.649	1	4
405.991	1	12
406.332	1	12
406.674	1	18
407.015	1	18
407.357	1	17
407.698	1	7
408.040	1	23
408.381	1	6
408.722	1	23
409.064	1	15
409.405	1	16
409.747	1	14
410.088	1	13
410.430	1	18
410.771	1	17
411.112	1	18
411.454	1	11
411.795	1	15
412.137	1	6
412.478	1	9
412.819	1	13
413.161	1	13
413.502	1	17
413.844	1	20
414.185	1	17
414.526	1	6
414.868	1	7
415.209	1	1
415.550	1	16
415.892	1	18
416.233	1	18
416.575	1	12
416.916	1	19
417.257	1	13
417.599	1	20
417.940	1	17
418.281	1	21
418.623	1	15
418.964	1	28
419.305	1	21
419.647	1	13
419.988	1	28
420.329	1	19
420.671	1	23
421.012	1	18
421.353	1	18
421.695	1	22
422.036	1	24
422.377	1	14
422.718	1	12
423.060	1	18
423.401	1	8
423.742	1	14
424.084	1	20
424.425	1	21
424.766	1	13
425.107	1	20
425.449	1	18
425.790	1	13
426.131	1	11
426.472	1	16
426.814	1	6
427.155	1	17
427.496	1	26
427.837	1	10
428.179	1	22
428.520	1	17
428.861	1	17
429.202	1	6
429.544	1	18
429.885	1	13
430.226	1	-1
430.567	1	8
430.909	1	12
431.250	1	16
431.591	1	20
431.932	1	12
432.273	1	26
432.615	1	8
432.956	1	13
433.297	1	15
433.638	1	19
433.979	1	25
434.320	1	17
434.662	1	21
435.003	1	18
435.344	1	21
435.685	1	7
436.026	1	9
436.368	1	13
436.709	1	7
437.050	1	3
437.391	1	11
437.732	1	11
438.073	1	8
438.414	1	21
438.756	1	9
439.097	1	15
439.438	1	6
439.779	1	4
440.120	1	15
440.461	1	16
440.802	1	16
441.143	1	15
441.485	1	4
441.826	1	19
442.167	1	12
442.508	1	13
442.849	1	13
443.190	1	15
443.531	1	16
443.872	1	-4
444.213	1	5
444.554	1	20
444.895	1	14
445.237	1	14
445.578	1	3
445.919	1	7
446.260	1	23
446.601	1	8
446.942	1	6
447.283	1	22
447.624	1	-7
447.965	1	14
448.306	1	4
448.647	1	12
448.988	1	13
449.329	1	21
449.670	1	15
450.011	1	9
450.352	1	9
450.693	1	12
451.034	1	10
451.375	1	16
451.716	1	6
452.057	1	16
452.398	1	15
452.739	1	4
453.080	1	12
453.421	1	19
453.762	1	6
454.103	1	10
454.444	1	15
454.785	1	7
455.126	1	6
455.467	1	12
455.808	1	18
456.149	1	14
456.490	1	10
456.831	1	16
457.172	1	15
457.513	1	12
457.854	1	8
458.195	1	11
458.536	1	18
458.877	1	16
459.218	1	12
459.559	1	13
459.899	1	11
460.240	1	-5
460.581	1	5
460.922	1	8
461.263	1	15
461.604	1	10
461.945	1	15
462.286	1	8
462.627	1	8
462.968	1	16
463.309	1	9
463.649	1	12
463.990	1	11
464.331	1	14
464.672	1	15
465.013	1	11
465.354	1	20
465.695	1	1
466.036	1	10
466.376	1	20
466.717	1	3
467.058	1	20
467.399	1	1
467.740	1	22
468.081	1	11
468.422	1	11
468.762	1	17
469.103	1	-1
469.444	1	10
469.785	1	-3
470.126	1	14
470.467	1	4
470.807	1	13
471.148	1	17
471.489	1	15
471.830	1	12
472.171	1	13
472.511	1	11
472.852	1	7
473.193	1	9
473.534	1	12
473.875	1	3
474.215	1	8
474.556	1	-2
474.897	1	8
475.238	1	12
475.578	1	-1
475.919	1	5
476.260	1	5
476.601	1	18
476.942	1	8
477.282	1	7
477.623	1	9
477.964	1	11
478.305	1	14
478.645	1	7
478.986	1	12
479.327	1	14
479.667	1	1
480.008	1	17
480.349	1	2
480.690	1	16
481.030	1	9
481.371	1	1
481.712	1	23
482.053	1	16
482.393	1	12
482.734	1	16
483.075	1	16
483.415	1	9
483.756	1	8
484.097	1	21
484.437	1	12
484.778	1	10
485.119	1	12
485.459	1	12
485.800	1	6
486.141	1	4
486.481	1	3
486.822	1	16
487.163	1	12
487.503	1	11
487.844	1	-1
488.185	1	10
488.525	1	8
488.866	1	8
489.207	1	18
489.547	1	18
489.888	1	18
490.228	1	9
490.569	1	3
490.910	1	19
491.250	1	23
491.591	1	17
491.932	1	14
492.272	1	7
492.613	1	8
492.953	1	17
493.294	1	3
493.635	1	19
493.975	1	25
494.316	1	11
494.656	1	18
494.997	1	6
495.337	1	7
495.678	1	12
496.019	1	9
496.359	1	12
496.700	1	12
497.040	1	7
497.381	1	13
497.721	1	13
498.062	1	9
498.403	1	15
498.743	1	16
499.084	1	23
499.424	1	10
499.765	1	21
500.105	1	29
500.446	1	13
500.786	1	10
501.127	1	21
501.467	1	31
501.808	1	16
502.148	1	16
502.489	1	17
502.829	1	9
503.170	1	25
503.510	1	15
503.851	1	24
504.191	1	20
504.532	1	33
504.872	1	11
505.213	1	12
505.553	1	33
505.894	1	24
506.234	1	28
506.575	1	36
506.915	1	28
507.256	1	20
507.596	1	33
507.936	1	32
508.277	1	30
508.617	1	29
508.958	1	31
509.298	1	10
509.639	1	17
509.979	1	18
510.319	1	37
510.660	1	22
511.000	1	13
511.341	1	32
511.681	1	36
512.022	1	14
512.362	1	29
512.702	1	9
513.043	1	34
513.383	1	30
513.724	1	30
514.064	1	32
514.404	1	27
514.745	1	34
515.085	1	39
515.425	1	48
515.766	1	25
516.106	1	22
516.447	1	35
516.787	1	32
517.127	1	38
517.468	1	41
517.808	1	25
518.148	1	34
518.489	1	37
518.829	1	34
519.169	1	28
519.510	1	28
519.850	1	30
520.190	1	31
520.531	1	30
520.871	1	36
521.211	1	31
521.552	1	23
521.892	1	29
522.232	1	31
522.573	1	40
522.913	1	41
523.253	1	42
523.593	1	47
523.934	1	28
524.274	1	38
524.614	1	43
524.955	1	29
525.295	1	42
525.635	1	37
525.975	1	26
526.316	1	18
526.656	1	44
526.996	1	27
527.337	1	38
527.677	1	41
528.017	1	33
528.357	1	39
528.698	1	39
529.038	1	45
529.378	1	42
529.718	1	38
530.058	1	30
530.399	1	35
530.739	1	36
531.079	1	39
531.419	1	35
531.760	1	36
532.100	1	46
532.440	1	41
532.780	1	40
533.120	1	38
533.461	1	38
533.801	1	26
534.141	1	35
534.481	1	47
534.821	1	40
535.162	1	38
535.502	1	36
535.842	1	33
536.182	1	32
536.522	1	28
536.862	1	21
537.203	1	38
537.543	1	40
537.883	1	30
538.223	1	50
538.563	1	31
538.903	1	25
539.243	1	26
539.584	1	27
539.924	1	31
540.264	1	43
540.604	1	33
540.944	1	37
541.284	1	25
541.624	1	34
541.964	1	36
542.305	1	46
542.645	1	24
542.985	1	40
543.325	1	39
543.665	1	24
544.005	1	29
544.345	1	36
544.685	1	30
545.025	1	39
545.365	1	34
545.705	1	36
546.045	1	42
546.386	1	29
546.726	1	35
547.066	1	24
547.406	1	35
547.746	1	25
548.086	1	31
548.426	1	37
548.766	1	36
549.106	1	26
549.446	1	33
549.786	1	25
550.126	1	34
550.466	1	30
550.806	1	49
551.146	1	27
551.486	1	38
551.826	1	31
552.166	1	15
552.506	1	28
552.846	1	38
553.186	1	10
553.526	1	32
553.866	1	33
554.206	1	40
554.546	1	33
554.886	1	27
555.226	1	27
555.566	1	22
555.906	1	14
556.246	1	29
556.586	1	26
556.926	1	20
557.266	1	27
557.606	1	19
557.946	1	32
558.286	1	7
558.626	1	20
558.966	1	30
559.306	1	35
559.646	1	30
559.986	1	28
560.325	1	19
560.665	1	12
561.005	1	18
561.345	1	13
561.685	1	28
562.025	1	32
562.365	1	24
562.705	1	30
563.045	1	24
563.385	1	36
563.725	1	13
564.064	1	14
564.404	1	6
564.744	1	25
565.084	1	17
565.424	1	10
565.764	1	25
566.104	1	24
566.444	1	29
566.783	1	13
567.123	1	19
567.463	1	21
567.803	1	15
568.143	1	21
568.483	1	23
568.823	1	23
569.162	1	15
569.502	1	26
569.842	1	14
570.182	1	20
570.522	1	3
570.862	1	13
571.201	1	19
571.541	1	17
571.881	1	20
572.221	1	17
572.561	1	17
572.900	1	19
573.240	1	10
573.580	1	16
573.920	1	16
574.260	1	10
574.599	1	23
574.939	1	24
575.279	1	17
575.619	1	6
575.959	1	15
576.298	1	6
576.638	1	25
576.978	1	17
577.318	1	12
577.657	1	7
577.997	1	19
578.337	1	12
578.677	1	22
579.016	1	14
579.356	1	17
579.696	1	12
580.036	1	20
580.375	1	12
580.715	1	9
581.055	1	12
581.394	1	18
581.734	1	17
582.074	1	15
582.414	1	10
582.753	1	13
583.093	1	23
583.433	1	15
583.772	1	12
584.112	1	10
584.452	1	17
584.791	1	17
585.131	1	23
585.471	1	14
585.811	1	17
586.150	1	22
586.490	1	15
586.830	1	15
587.169	1	13
587.509	1	12
587.849	1	15
588.188	1	10
588.528	1	4
588.867	1	16
589.207	1	20
589.547	1	14
589.886	1	17
590.226	1	6
590.566	1	12
590.905	1	13
591.245	1	1
591.585	1	1
591.924	1	14
592.264	1	12
592.603	1	-5
592.943	1	12
593.283	1	16
593.622	1	10
593.962	1	12
594.301	1	7
594.641	1	13
594.981	1	15
595.320	1	13
595.660	1	14
595.999	1	9
596.339	1	8
596.678	1	2
597.018	1	-2
597.358	1	12
597.697	1	8
598.037	1	13
598.376	1	-2
598.716	1	19
599.055	1	12
599.395	1	9
599.734	1	6
600.074	1	6
600.413	1	18
600.753	1	16
601.092	1	2
601.432	1	9
601.771	1	5
602.111	1	12
602.451	1	2
602.790	1	6
603.130	1	4
603.469	1	20
603.809	1	12
604.148	1	4
604.487	1	12
604.827	1	5
605.166	1	4
605.506	1	3
605.845	1	17
606.185	1	8
606.524	1	-1
606.864	1	25
607.203	1	18
607.543	1	18
607.882	1	14
608.222	1	0
608.561	1	1
608.901	1	7
609.240	1	7
609.579	1	5
609.919	1	1
610.258	1	15
610.598	1	3
610.937	1	4
611.277	1	11
611.616	1	12
611.955	1	7
612.295	1	14
612.634	1	9
612.974	1	-1
613.313	1	12
613.652	1	14
613.992	1	9
614.331	1	20
614.671	1	5
615.010	1	11
615.349	1	1
615.689	1	2
616.028	1	17
616.368	1	19
616.707	1	8
617.046	1	3
617.386	1	23
617.725	1	4
618.064	1	6
618.404	1	4
618.743	1	14
619.082	1	15
619.422	1	17
619.761	1	5
620.100	1	10
620.440	1	1
620.779	1	7
621.118	1	19
621.458	1	10
621.797	1	9
622.136	1	11
622.476	1	4
622.815	1	15
623.154	1	-4
623.494	1	5
623.833	1	14
624.172	1	13
624.511	1	-2
624.851	1	-2
625.190	1	3
625.529	1	4
625.869	1	20
626.208	1	-1
626.547	1	6
626.886	1	7
627.226	1	15
627.565	1	16
627.904	1	10
628.243	1	15
628.583	1	11
628.922	1	16
629.261	1	7
629.600	1	1
629.940	1	10
630.279	1	16
630.618	1	16
630.957	1	22
631.297	1	3
631.636	1	7
631.975	1	8
632.314	1	11
632.653	1	1
632.993	1	1
633.332	1	12
633.671	1	7
634.010	1	13
634.349	1	13
634.689	1	3
635.028	1	0
635.367	1	16
635.706	1	4
636.045	1	1
636.384	1	4
636.724	1	16
637.063	1	-1
637.402	1	3
637.741	1	5
638.080	1	9
638.419	1	6
638.759	1	10
639.098	1	6
639.437	1	10
639.776	1	10
640.115	1	-4
640.454	1	4
640.793	1	2
641.132	1	7
641.472	1	15
641.811	1	11
642.150	1	5
642.489	1	7
642.828	1	19
643.167	1	12
643.506	1	7
643.845	1	11
644.184	1	12
644.524	1	6
644.863	1	2
645.202	1	11
645.541	1	3
645.880	1	14
646.219	1	9
646.558	1	1
646.897	1	2
647.236	1	-7
647.575	1	15
647.914	1	3
648.253	1	7
648.592	1	3
648.931	1	9
649.270	1	12
649.610	1	10
649.949	1	3
650.288	1	9
650.627	1	12
650.966	1	10
651.305	1	3
651.644	1	5
651.983	1	-2
652.322	1	10
652.661	1	2
653.000	1	12
653.339	1	5
653.678	1	15
654.017	1	14
654.356	1	12
654.695	1	26
655.034	1	6
655.373	1	8
655.712	1	12
656.051	1	0
656.390	1	7
656.729	1	6
657.068	1	-1
657.406	1	-2
657.745	1	18
658.084	1	9
658.423	1	12
658.762	1	10
659.101	1	7
659.440	1	7
659.779	1	12
660.118	1	4
660.457	1	5
660.796	1	6
661.135	1	22
661.474	1	14
661.813	1	6
662.152	1	6
662.491	1	0
662.829	1	11
663.168	1	9
663.507	1	16
663.846	1	10
664.185	1	4
664.524	1	15
664.863	1	-1
665.202	1	12
665.541	1	12
665.879	1	8
666.218	1	12
666.557	1	2
666.896	1	5
667.235	1	7
667.574	1	1
667.913	1	13
668.251	1	-3
668.590	1	4
668.929	1	-2
669.268	1	3
669.607	1	-3
669.946	1	0
670.285	1	2
670.623	1	12
670.962	1	-3
671.301	1	2
671.640	1	12
671.979	1	8
672.317	1	10
672.656	1	15
672.995	1	7
673.334	1	2
673.673	1	12
674.011	1	9
674.350	1	9
674.689	1	-2
675.028	1	8
675.367	1	14
675.705	1	-1
676.044	1	13
676.383	1	11
676.722	1	5
677.060	1	9
677.399	1	15
677.738	1	2
678.077	1	1
678.416	1	0
678.754	1	9
679.093	1	8
679.432	1	-2
679.771	1	7
680.109	1	6
680.448	1	3
680.787	1	-7
681.125	1	3
681.464	1	12
681.803	1	5
682.142	1	10
682.480	1	3
682.819	1	2
683.158	1	0
683.496	1	5
683.835	1	7
684.174	1	4
684.512	1	-3
684.851	1	0
685.190	1	4
685.529	1	-8
685.867	1	0
686.206	1	-4
686.545	1	10
686.883	1	11
687.222	1	8
687.561	1	12
687.899	1	10
688.238	1	16
688.577	1	7
688.746	1	9