File: Data/GaN_150K_450ms/GaN_sample D_spot15_UVVIS_150 K_200um_450 ms 2x2mm1_170.txt
340.368	1	1
340.710	1	0
341.052	1	0
341.394	1	3
341.737	1	4
342.079	1	7
342.421	1	-7
342.763	1	5
343.105	1	-3
343.447	1	7
343.789	1	-6
344.131	1	-5
344.473	1	-1
344.815	1	4
345.157	1	12
345.499	1	10
345.841	1	8
346.183	1	6
346.526	1	14
346.868	1	-6
347.210	1	6
347.552	1	20
347.894	1	-7
348.236	1	11
348.578	1	8
348.920	1	6
349.262	1	2
349.604	1	3
349.946	1	-9
350.288	1	3
350.630	1	5
350.972	1	15
351.314	1	-2
351.656	1	13
351.998	1	7
352.340	1	10
352.682	1	-4
353.024	1	15
353.366	1	8
353.708	1	9
354.050	1	2
354.392	1	-8
354.734	1	-1
355.076	1	15
355.418	1	0
355.760	1	8
356.102	1	1
356.444	1	7
356.785	1	9
357.127	1	13
357.469	1	8
357.811	1	2
358.153	1	2
358.495	1	8
358.837	1	13
359.179	1	9
359.521	1	14
359.863	1	7
360.205	1	15
360.547	1	17
360.889	1	5
361.231	1	3
361.572	1	13
361.914	1	8
362.256	1	18
362.598	1	14
362.940	1	3
363.282	1	9
363.624	1	17
363.966	1	23
364.308	1	17
364.649	1	15
364.991	1	21
365.333	1	21
365.675	1	32
366.017	1	24
366.359	1	31
366.701	1	18
367.042	1	32
367.384	1	24
367.726	1	31
368.068	1	37
368.410	1	30
368.752	1	36
369.093	1	38
369.435	1	33
369.777	1	36
370.119	1	30
370.461	1	32
370.803	1	28
371.144	1	26
371.486	1	28
371.828	1	27
372.170	1	25
372.512	1	13
372.853	1	36
373.195	1	22
373.537	1	9
373.879	1	25
374.220	1	23
374.562	1	29
374.904	1	21
375.246	1	18
375.588	1	8
375.929	1	15
376.271	1	10
376.613	1	10
376.955	1	16
377.296	1	15
377.638	1	6
377.980	1	11
378.321	1	22
378.663	1	13
379.005	1	16
379.347	1	6
379.688	1	19
380.030	1	13
380.372	1	11
380.714	1	16
381.055	1	-1
381.397	1	9
381.739	1	-3
382.080	1	11
382.422	1	16
382.764	1	12
383.105	1	4
383.447	1	4
383.789	1	-4
384.130	1	5
384.472	1	9
384.814	1	11
385.156	1	7
385.497	1	23
385.839	1	13
386.180	1	4
386.522	1	7
386.864	1	2
387.205	1	10
387.547	1	11
387.889	1	5
388.230	1	6
388.572	1	6
388.914	1	4
389.255	1	8
389.597	1	6
389.939	1	10
390.280	1	1
390.622	1	-3
390.963	1	-5
391.305	1	3
391.647	1	11
391.988	1	-3
392.330	1	6
392.671	1	10
393.013	1	3
393.355	1	16
393.696	1	12
394.038	1	7
394.379	1	14
394.721	1	-2
395.062	1	-3
395.404	1	1
395.746	1	7
396.087	1	12
396.429	1	9
396.770	1	14
397.112	1	9
397.453	1	6
397.795	1	4
398.136	1	0
398.478	1	-1
398.819	1	10
399.161	1	13
399.503	1	12
399.844	1	-1
400.186	1	4
400.527	1	9
400.869	1	6
401.210	1	13
401.552	1	8
401.893	1	8
402.235	1	19
402.576	1	2
402.918	1	2
403.259	1	10
403.601	1	15
403.942	1	1
404.284	1	14
404.625	1	-7
404.967	1	9
405.308	1	-9
405.649	1	7
405.991	1	12
406.332	1	8
406.674	1	0
407.015	1	16
407.357	1	15
407.698	1	11
408.040	1	23
408.381	1	5
408.722	1	10
409.064	1	1
409.405	1	7
409.747	1	0
410.088	1	9
410.430	1	13
410.771	1	4
411.112	1	2
411.454	1	4
411.795	1	10
412.137	1	7
412.478	1	8
412.819	1	11
413.161	1	7
413.502	1	8
413.844	1	10
414.185	1	16
414.526	1	1
414.868	1	2
415.209	1	0
415.550	1	8
415.892	1	17
416.233	1	10
416.575	1	0
416.916	1	11
417.257	1	11
417.599	1	8
417.940	1	-5
418.281	1	17
418.623	1	8
418.964	1	13
419.305	1	15
419.647	1	12
419.988	1	20
420.329	1	9
420.671	1	17
421.012	1	9
421.353	1	10
421.695	1	17
422.036	1	11
422.377	1	7
422.718	1	12
423.060	1	14
423.401	1	8
423.742	1	12
424.084	1	10
424.425	1	15
424.766	1	18
425.107	1	7
425.449	1	4
425.790	1	17
426.131	1	-1
426.472	1	12
426.814	1	17
427.155	1	0
427.496	1	5
427.837	1	7
428.179	1	13
428.520	1	-2
428.861	1	17
429.202	1	0
429.544	1	6
429.885	1	14
430.226	1	-2
430.567	1	-11
430.909	1	4
431.250	1	15
431.591	1	7
431.932	1	7
432.273	1	15
432.615	1	5
432.956	1	18
433.297	1	8
433.638	1	13
433.979	1	5
434.320	1	7
434.662	1	15
435.003	1	2
435.344	1	8
435.685	1	0
436.026	1	5
436.368	1	5
436.709	1	1
437.050	1	6
437.391	1	7
437.732	1	15
438.073	1	-1
438.414	1	3
438.756	1	1
439.097	1	7
439.438	1	15
439.779	1	10
440.120	1	8
440.461	1	3
440.802	1	1
441.143	1	-2
441.485	1	7
441.826	1	3
442.167	1	1
442.508	1	7
442.849	1	5
443.190	1	16
443.531	1	7
443.872	1	-4
444.213	1	-6
444.554	1	4
444.895	1	-2
445.237	1	8
445.578	1	0
445.919	1	-4
446.260	1	17
446.601	1	6
446.942	1	5
447.283	1	10
447.624	1	1
447.965	1	7
448.306	1	5
448.647	1	4
448.988	1	6
449.329	1	5
449.670	1	5
450.011	1	5
450.352	1	0
450.693	1	15
451.034	1	0
451.375	1	12
451.716	1	5
452.057	1	9
452.398	1	19
452.739	1	1
453.080	1	8
453.421	1	5
453.762	1	7
454.103	1	10
454.444	1	-3
454.785	1	9
455.126	1	1
455.467	1	8
455.808	1	13
456.149	1	0
456.490	1	3
456.831	1	-2
457.172	1	10
457.513	1	0
457.854	1	3
458.195	1	-1
458.536	1	14
458.877	1	3
459.218	1	4
459.559	1	-3
459.899	1	4
460.240	1	-1
460.581	1	-7
460.922	1	-2
461.263	1	16
461.604	1	3
461.945	1	3
462.286	1	-1
462.627	1	-7
462.968	1	12
463.309	1	7
463.649	1	5
463.990	1	2
464.331	1	8
464.672	1	8
465.013	1	14
465.354	1	9
465.695	1	7
466.036	1	12
466.376	1	10
466.717	1	2
467.058	1	9
467.399	1	-4
467.740	1	17
468.081	1	12
468.422	1	4
468.762	1	2
469.103	1	3
469.444	1	2
469.785	1	1
470.126	1	11
470.467	1	3
470.807	1	13
471.148	1	-1
471.489	1	11
471.830	1	-3
472.171	1	9
472.511	1	2
472.852	1	10
473.193	1	0
473.534	1	3
473.875	1	4
474.215	1	10
474.556	1	-2
474.897	1	-2
475.238	1	6
475.578	1	-1
475.919	1	1
476.260	1	-2
476.601	1	-1
476.942	1	3
477.282	1	-2
477.623	1	3
477.964	1	6
478.305	1	7
478.645	1	6
478.986	1	11
479.327	1	7
479.667	1	5
480.008	1	7
480.349	1	1
480.690	1	4
481.030	1	-1
481.371	1	-4
481.712	1	11
482.053	1	11
482.393	1	10
482.734	1	7
483.075	1	17
483.415	1	2
483.756	1	11
484.097	1	6
484.437	1	8
484.778	1	1
485.119	1	13
485.459	1	-2
485.800	1	-3
486.141	1	8
486.481	1	-5
486.822	1	12
487.163	1	2
487.503	1	-6
487.844	1	-6
488.185	1	11
488.525	1	-1
488.866	1	2
489.207	1	10
489.547	1	12
489.888	1	6
490.228	1	7
490.569	1	-4
490.910	1	10
491.250	1	8
491.591	1	2
491.932	1	4
492.272	1	-5
492.613	1	-3
492.953	1	2
493.294	1	-1
493.635	1	13
493.975	1	15
494.316	1	-3
494.656	1	18
494.997	1	3
495.337	1	11
495.678	1	9
496.019	1	8
496.359	1	-2
496.700	1	4
497.040	1	-5
497.381	1	12
497.721	1	-8
498.062	1	0
498.403	1	4
498.743	1	16
499.084	1	2
499.424	1	3
499.765	1	12
500.105	1	11
500.446	1	1
500.786	1	-4
501.127	1	2
501.467	1	15
501.808	1	4
502.148	1	-2
502.489	1	2
502.829	1	-2
503.170	1	11
503.510	1	3
503.851	1	8
504.191	1	7
504.532	1	5
504.872	1	5
505.213	1	0
505.553	1	14
505.894	1	14
506.234	1	13
506.575	1	14
506.915	1	12
507.256	1	11
507.596	1	15
507.936	1	11
508.277	1	5
508.617	1	12
508.958	1	17
509.298	1	5
509.639	1	-5
509.979	1	4
510.319	1	5
510.660	1	3
511.000	1	9
511.341	1	14
511.681	1	15
512.022	1	-4
512.362	1	9
512.702	1	0
513.043	1	4
513.383	1	6
513.724	1	8
514.064	1	6
514.404	1	14
514.745	1	5
515.085	1	22
515.425	1	13
515.766	1	10
516.106	1	11
516.447	1	9
516.787	1	8
517.127	1	19
517.468	1	13
517.808	1	-2
518.148	1	10
518.489	1	18
518.829	1	14
519.169	1	-3
519.510	1	-3
519.850	1	1
520.190	1	6
520.531	1	11
520.871	1	9
521.211	1	10
521.552	1	9
521.892	1	3
522.232	1	10
522.573	1	8
522.913	1	20
523.253	1	12
523.593	1	22
523.934	1	4
524.274	1	10
524.614	1	20
524.955	1	7
525.295	1	9
525.635	1	14
525.975	1	8
526.316	1	-4
526.656	1	13
526.996	1	-1
527.337	1	6
527.677	1	11
528.017	1	7
528.357	1	12
528.698	1	17
529.038	1	3
529.378	1	8
529.718	1	15
530.058	1	3
530.399	1	9
530.739	1	11
531.079	1	2
531.419	1	7
531.760	1	15
532.100	1	23
532.440	1	8
532.780	1	19
533.120	1	8
533.461	1	13
533.801	1	7
534.141	1	7
534.481	1	14
534.821	1	4
535.162	1	2
535.502	1	4
535.842	1	-2
536.182	1	8
536.522	1	1
536.862	1	6
537.203	1	4
537.543	1	8
537.883	1	6
538.223	1	20
538.563	1	0
538.903	1	15
539.243	1	13
539.584	1	2
539.924	1	9
540.264	1	18
540.604	1	19
540.944	1	12
541.284	1	5
541.624	1	8
541.964	1	4
542.305	1	22
542.645	1	3
542.985	1	3
543.325	1	7
543.665	1	5
544.005	1	11
544.345	1	6
544.685	1	4
545.025	1	11
545.365	1	18
545.705	1	3
546.045	1	16
546.386	1	5
546.726	1	11
547.066	1	3
547.406	1	6
547.746	1	-1
548.086	1	7
548.426	1	16
548.766	1	5
549.106	1	-1
549.446	1	8
549.786	1	11
550.126	1	10
550.466	1	10
550.806	1	26
551.146	1	20
551.486	1	0
551.826	1	-7
552.166	1	16
552.506	1	8
552.846	1	12
553.186	1	-5
553.526	1	8
553.866	1	-3
554.206	1	10
554.546	1	10
554.886	1	4
555.226	1	7
555.566	1	6
555.906	1	8
556.246	1	6
556.586	1	11
556.926	1	-1
557.266	1	8
557.606	1	-6
557.946	1	16
558.286	1	-9
558.626	1	8
558.966	1	2
559.306	1	6
559.646	1	9
559.986	1	5
560.325	1	0
560.665	1	5
561.005	1	6
561.345	1	8
561.685	1	10
562.025	1	14
562.365	1	6
562.705	1	14
563.045	1	4
563.385	1	15
563.725	1	3
564.064	1	0
564.404	1	3
564.744	1	15
565.084	1	9
565.424	1	0
565.764	1	3
566.104	1	12
566.444	1	13
566.783	1	6
567.123	1	-1
567.463	1	15
567.803	1	13
568.143	1	2
568.483	1	12
568.823	1	3
569.162	1	3
569.502	1	12
569.842	1	3
570.182	1	3
570.522	1	1
570.862	1	-14
571.201	1	11
571.541	1	2
571.881	1	2
572.221	1	5
572.561	1	11
572.900	1	18
573.240	1	7
573.580	1	1
573.920	1	19
574.260	1	14
574.599	1	2
574.939	1	1
575.279	1	11
575.619	1	1
575.959	1	-1
576.298	1	-14
576.638	1	10
576.978	1	12
577.318	1	9
577.657	1	7
577.997	1	9
578.337	1	2
578.677	1	2
579.016	1	3
579.356	1	11
579.696	1	4
580.036	1	3
580.375	1	8
580.715	1	1
581.055	1	3
581.394	1	3
581.734	1	6
582.074	1	4
582.414	1	6
582.753	1	1
583.093	1	4
583.433	1	8
583.772	1	15
584.112	1	2
584.452	1	5
584.791	1	10
585.131	1	6
585.471	1	6
585.811	1	6
586.150	1	6
586.490	1	-1
586.830	1	4
587.169	1	8
587.509	1	11
587.849	1	16
588.188	1	7
588.528	1	6
588.867	1	9
589.207	1	3
589.547	1	7
589.886	1	1
590.226	1	0
590.566	1	12
590.905	1	-1
591.245	1	-3
591.585	1	5
591.924	1	-1
592.264	1	13
592.603	1	-7
592.943	1	-4
593.283	1	4
593.622	1	4
593.962	1	7
594.301	1	2
594.641	1	13
594.981	1	17
595.320	1	9
595.660	1	7
595.999	1	6
596.339	1	6
596.678	1	-1
597.018	1	1
597.358	1	9
597.697	1	-3
598.037	1	-3
598.376	1	-2
598.716	1	9
599.055	1	-1
599.395	1	-1
599.734	1	6
600.074	1	6
600.413	1	6
600.753	1	12
601.092	1	0
601.432	1	4
601.771	1	14
602.111	1	-1
602.451	1	-4
602.790	1	-2
603.130	1	1
603.469	1	1
603.809	1	4
604.148	1	-8
604.487	1	2
604.827	1	10
605.166	1	4
605.506	1	0
605.845	1	7
606.185	1	10
606.524	1	-3
606.864	1	6
607.203	1	8
607.543	1	5
607.882	1	7
608.222	1	-4
608.561	1	-1
608.901	1	7
609.240	1	11
609.579	1	3
609.919	1	-2
610.258	1	18
610.598	1	1
610.937	1	-2
611.277	1	9
611.616	1	14
611.955	1	1
612.295	1	12
612.634	1	10
612.974	1	6
613.313	1	3
613.652	1	1
613.992	1	-7
614.331	1	9
614.671	1	6
615.010	1	9
615.349	1	10
615.689	1	-4
616.028	1	12
616.368	1	8
616.707	1	6
617.046	1	5
617.386	1	7
617.725	1	-1
618.064	1	-5
618.404	1	-1
618.743	1	4
619.082	1	13
619.422	1	10
619.761	1	1
620.100	1	2
620.440	1	11
620.779	1	1
621.118	1	17
621.458	1	4
621.797	1	5
622.136	1	-3
622.476	1	12
622.815	1	12
623.154	1	-10
623.494	1	-10
623.833	1	8
624.172	1	5
624.511	1	-2
624.851	1	-1
625.190	1	-1
625.529	1	2
625.869	1	10
626.208	1	-6
626.547	1	5
626.886	1	-3
627.226	1	10
627.565	1	4
627.904	1	3
628.243	1	7
628.583	1	12
628.922	1	5
629.261	1	2
629.600	1	-4
629.940	1	11
630.279	1	14
630.618	1	14
630.957	1	17
631.297	1	5
631.636	1	6
631.975	1	11
632.314	1	5
632.653	1	-5
632.993	1	-1
633.332	1	2
633.671	1	3
634.010	1	3
634.349	1	18
634.689	1	0
635.028	1	-7
635.367	1	15
635.706	1	6
636.045	1	-1
636.384	1	13
636.724	1	3
637.063	1	1
637.402	1	8
637.741	1	8
638.080	1	8
638.419	1	3
638.759	1	4
639.098	1	-1
639.437	1	7
639.776	1	5
640.115	1	1
640.454	1	-7
640.793	1	7
641.132	1	2
641.472	1	12
641.811	1	-1
642.150	1	-6
642.489	1	4
642.828	1	3
643.167	1	3
643.506	1	8
643.845	1	10
644.184	1	3
644.524	1	-3
644.863	1	2
645.202	1	7
645.541	1	9
645.880	1	12
646.219	1	3
646.558	1	-1
646.897	1	-17
647.236	1	-6
647.575	1	14
647.914	1	9
648.253	1	12
648.592	1	-2
648.931	1	12
649.270	1	7
649.610	1	11
649.949	1	-1
650.288	1	9
650.627	1	-10
650.966	1	0
651.305	1	12
651.644	1	16
651.983	1	-6
652.322	1	1
652.661	1	10
653.000	1	6
653.339	1	3
653.678	1	13
654.017	1	12
654.356	1	12
654.695	1	18
655.034	1	-5
655.373	1	0
655.712	1	12
656.051	1	-2
656.390	1	7
656.729	1	2
657.068	1	-3
657.406	1	-2
657.745	1	8
658.084	1	1
658.423	1	12
658.762	1	3
659.101	1	0
659.440	1	8
659.779	1	21
660.118	1	3
660.457	1	10
660.796	1	1
661.135	1	6
661.474	1	5
661.813	1	3
662.152	1	-1
662.491	1	4
662.829	1	2
663.168	1	2
663.507	1	5
663.846	1	0
664.185	1	3
664.524	1	9
664.863	1	-5
665.202	1	6
665.541	1	5
665.879	1	3
666.218	1	13
666.557	1	2
666.896	1	12
667.235	1	2
667.574	1	-10
667.913	1	5
668.251	1	-8
668.590	1	2
668.929	1	-2
669.268	1	0
669.607	1	-4
669.946	1	2
670.285	1	2
670.623	1	-2
670.962	1	3
671.301	1	6
671.640	1	11
671.979	1	1
672.317	1	12
672.656	1	9
672.995	1	2
673.334	1	1
673.673	1	13
674.011	1	11
674.350	1	0
674.689	1	3
675.028	1	1
675.367	1	0
675.705	1	-3
676.044	1	0
676.383	1	6
676.722	1	-6
677.060	1	-3
677.399	1	10
677.738	1	-2
678.077	1	-4
678.416	1	2
678.754	1	6
679.093	1	12
679.432	1	-3
679.771	1	4
680.109	1	2
680.448	1	-2
680.787	1	-14
681.125	1	-3
681.464	1	9
681.803	1	-7
682.142	1	-6
682.480	1	-3
682.819	1	-2
683.158	1	-5
683.496	1	1
683.835	1	11
684.174	1	3
684.512	1	1
684.851	1	-1
685.190	1	0
685.529	1	-5
685.867	1	6
686.206	1	-7
686.545	1	4
686.883	1	8
687.222	1	11
687.561	1	6
687.899	1	0
688.238	1	7
688.577	1	1
688.746	1	-10