File: Data/GaN_150K_450ms/GaN_sample D_spot15_UVVIS_150 K_200um_450 ms 2x2mm1_204.txt
340.368	1	3
340.710	1	9
341.052	1	8
341.394	1	-3
341.737	1	3
342.079	1	5
342.421	1	2
342.763	1	6
343.105	1	5
343.447	1	13
343.789	1	1
344.131	1	1
344.473	1	-4
344.815	1	5
345.157	1	16
345.499	1	7
345.841	1	5
346.183	1	1
346.526	1	11
346.868	1	-4
347.210	1	-5
347.552	1	9
347.894	1	-2
348.236	1	-1
348.578	1	12
348.920	1	-4
349.262	1	9
349.604	1	6
349.946	1	5
350.288	1	-5
350.630	1	2
350.972	1	7
351.314	1	1
351.656	1	13
351.998	1	-1
352.340	1	12
352.682	1	-14
353.024	1	7
353.366	1	-1
353.708	1	6
354.050	1	-8
354.392	1	-11
354.734	1	-5
355.076	1	5
355.418	1	5
355.760	1	20
356.102	1	2
356.444	1	8
356.785	1	7
357.127	1	6
357.469	1	-4
357.811	1	-4
358.153	1	-17
358.495	1	10
358.837	1	11
359.179	1	6
359.521	1	12
359.863	1	4
360.205	1	5
360.547	1	12
360.889	1	7
361.231	1	8
361.572	1	6
361.914	1	5
362.256	1	14
362.598	1	18
362.940	1	16
363.282	1	3
363.624	1	12
363.966	1	2
364.308	1	20
364.649	1	21
364.991	1	21
365.333	1	13
365.675	1	27
366.017	1	24
366.359	1	25
366.701	1	11
367.042	1	24
367.384	1	25
367.726	1	22
368.068	1	36
368.410	1	27
368.752	1	32
369.093	1	26
369.435	1	23
369.777	1	24
370.119	1	22
370.461	1	16
370.803	1	17
371.144	1	15
371.486	1	20
371.828	1	12
372.170	1	13
372.512	1	3
372.853	1	26
373.195	1	14
373.537	1	3
373.879	1	18
374.220	1	15
374.562	1	21
374.904	1	13
375.246	1	2
375.588	1	4
375.929	1	7
376.271	1	7
376.613	1	14
376.955	1	8
377.296	1	8
377.638	1	6
377.980	1	9
378.321	1	8
378.663	1	5
379.005	1	6
379.347	1	8
379.688	1	19
380.030	1	8
380.372	1	12
380.714	1	6
381.055	1	6
381.397	1	5
381.739	1	5
382.080	1	16
382.422	1	6
382.764	1	7
383.105	1	7
383.447	1	6
383.789	1	-6
384.130	1	1
384.472	1	9
384.814	1	14
385.156	1	12
385.497	1	14
385.839	1	1
386.180	1	5
386.522	1	12
386.864	1	-2
387.205	1	11
387.547	1	10
387.889	1	4
388.230	1	5
388.572	1	4
388.914	1	11
389.255	1	6
389.597	1	6
389.939	1	8
390.280	1	-1
390.622	1	-10
390.963	1	-8
391.305	1	4
391.647	1	-7
391.988	1	8
392.330	1	2
392.671	1	9
393.013	1	8
393.355	1	11
393.696	1	4
394.038	1	10
394.379	1	4
394.721	1	11
395.062	1	-3
395.404	1	2
395.746	1	1
396.087	1	8
396.429	1	7
396.770	1	5
397.112	1	-5
397.453	1	-4
397.795	1	1
398.136	1	3
398.478	1	10
398.819	1	3
399.161	1	10
399.503	1	14
399.844	1	-6
400.186	1	6
400.527	1	7
400.869	1	0
401.210	1	8
401.552	1	7
401.893	1	10
402.235	1	4
402.576	1	15
402.918	1	-12
403.259	1	8
403.601	1	8
403.942	1	0
404.284	1	9
404.625	1	0
404.967	1	1
405.308	1	-8
405.649	1	1
405.991	1	12
406.332	1	3
406.674	1	-6
407.015	1	4
407.357	1	6
407.698	1	7
408.040	1	15
408.381	1	7
408.722	1	7
409.064	1	10
409.405	1	3
409.747	1	2
410.088	1	1
410.430	1	12
410.771	1	13
411.112	1	5
411.454	1	8
411.795	1	3
412.137	1	5
412.478	1	8
412.819	1	1
413.161	1	8
413.502	1	8
413.844	1	21
414.185	1	12
414.526	1	-3
414.868	1	1
415.209	1	1
415.550	1	1
415.892	1	12
416.233	1	4
416.575	1	9
416.916	1	2
417.257	1	5
417.599	1	9
417.940	1	-5
418.281	1	0
418.623	1	11
418.964	1	15
419.305	1	12
419.647	1	9
419.988	1	9
420.329	1	16
420.671	1	8
421.012	1	5
421.353	1	11
421.695	1	14
422.036	1	9
422.377	1	-2
422.718	1	15
423.060	1	9
423.401	1	2
423.742	1	11
424.084	1	-3
424.425	1	10
424.766	1	4
425.107	1	11
425.449	1	3
425.790	1	7
426.131	1	-5
426.472	1	15
426.814	1	5
427.155	1	3
427.496	1	10
427.837	1	6
428.179	1	18
428.520	1	19
428.861	1	14
429.202	1	2
429.544	1	2
429.885	1	19
430.226	1	-6
430.567	1	0
430.909	1	2
431.250	1	14
431.591	1	2
431.932	1	-5
432.273	1	10
432.615	1	4
432.956	1	7
433.297	1	10
433.638	1	16
433.979	1	10
434.320	1	13
434.662	1	11
435.003	1	15
435.344	1	5
435.685	1	1
436.026	1	1
436.368	1	3
436.709	1	1
437.050	1	2
437.391	1	4
437.732	1	3
438.073	1	-3
438.414	1	16
438.756	1	-2
439.097	1	7
439.438	1	1
439.779	1	10
440.120	1	6
440.461	1	11
440.802	1	6
441.143	1	5
441.485	1	4
441.826	1	4
442.167	1	7
442.508	1	2
442.849	1	6
443.190	1	1
443.531	1	10
443.872	1	-18
444.213	1	-2
444.554	1	-4
444.895	1	3
445.237	1	8
445.578	1	-1
445.919	1	1
446.260	1	15
446.601	1	6
446.942	1	-5
447.283	1	7
447.624	1	-6
447.965	1	11
448.306	1	5
448.647	1	5
448.988	1	4
449.329	1	5
449.670	1	11
450.011	1	-4
450.352	1	2
450.693	1	2
451.034	1	2
451.375	1	11
451.716	1	5
452.057	1	6
452.398	1	12
452.739	1	14
453.080	1	10
453.421	1	9
453.762	1	10
454.103	1	3
454.444	1	3
454.785	1	1
455.126	1	6
455.467	1	0
455.808	1	12
456.149	1	-2
456.490	1	-8
456.831	1	1
457.172	1	1
457.513	1	9
457.854	1	5
458.195	1	10
458.536	1	12
458.877	1	10
459.218	1	11
459.559	1	4
459.899	1	1
460.240	1	-4
460.581	1	-1
460.922	1	6
461.263	1	13
461.604	1	6
461.945	1	10
462.286	1	-3
462.627	1	3
462.968	1	17
463.309	1	-2
463.649	1	-2
463.990	1	1
464.331	1	7
464.672	1	8
465.013	1	8
465.354	1	12
465.695	1	2
466.036	1	13
466.376	1	11
466.717	1	-13
467.058	1	6
467.399	1	-7
467.740	1	13
468.081	1	8
468.422	1	2
468.762	1	5
469.103	1	6
469.444	1	7
469.785	1	1
470.126	1	5
470.467	1	8
470.807	1	1
471.148	1	-5
471.489	1	6
471.830	1	9
472.171	1	10
472.511	1	9
472.852	1	11
473.193	1	9
473.534	1	10
473.875	1	0
474.215	1	2
474.556	1	3
474.897	1	4
475.238	1	10
475.578	1	-4
475.919	1	-3
476.260	1	-12
476.601	1	4
476.942	1	0
477.282	1	-14
477.623	1	4
477.964	1	8
478.305	1	3
478.645	1	-3
478.986	1	2
479.327	1	-1
479.667	1	3
480.008	1	16
480.349	1	-3
480.690	1	6
481.030	1	6
481.371	1	1
481.712	1	13
482.053	1	13
482.393	1	3
482.734	1	1
483.075	1	5
483.415	1	7
483.756	1	11
484.097	1	13
484.437	1	8
484.778	1	-12
485.119	1	2
485.459	1	2
485.800	1	0
486.141	1	3
486.481	1	-15
486.822	1	10
487.163	1	4
487.503	1	2
487.844	1	-5
488.185	1	1
488.525	1	-5
488.866	1	7
489.207	1	7
489.547	1	1
489.888	1	8
490.228	1	5
490.569	1	3
490.910	1	-2
491.250	1	7
491.591	1	1
491.932	1	19
492.272	1	1
492.613	1	-4
492.953	1	-4
493.294	1	-9
493.635	1	4
493.975	1	13
494.316	1	6
494.656	1	2
494.997	1	0
495.337	1	2
495.678	1	5
496.019	1	-1
496.359	1	3
496.700	1	-2
497.040	1	2
497.381	1	4
497.721	1	-3
498.062	1	1
498.403	1	12
498.743	1	7
499.084	1	7
499.424	1	-2
499.765	1	6
500.105	1	11
500.446	1	-2
500.786	1	-4
501.127	1	14
501.467	1	8
501.808	1	4
502.148	1	1
502.489	1	7
502.829	1	-3
503.170	1	13
503.510	1	3
503.851	1	5
504.191	1	1
504.532	1	7
504.872	1	4
505.213	1	2
505.553	1	-1
505.894	1	7
506.234	1	14
506.575	1	16
506.915	1	10
507.256	1	4
507.596	1	13
507.936	1	17
508.277	1	14
508.617	1	8
508.958	1	14
509.298	1	-1
509.639	1	-3
509.979	1	2
510.319	1	10
510.660	1	5
511.000	1	6
511.341	1	14
511.681	1	11
512.022	1	1
512.362	1	9
512.702	1	-2
513.043	1	8
513.383	1	7
513.724	1	11
514.064	1	6
514.404	1	8
514.745	1	3
515.085	1	4
515.425	1	8
515.766	1	0
516.106	1	0
516.447	1	11
516.787	1	9
517.127	1	8
517.468	1	15
517.808	1	-2
518.148	1	9
518.489	1	4
518.829	1	5
519.169	1	-1
519.510	1	7
519.850	1	10
520.190	1	-1
520.531	1	7
520.871	1	2
521.211	1	5
521.552	1	-4
521.892	1	11
522.232	1	9
522.573	1	-5
522.913	1	14
523.253	1	25
523.593	1	11
523.934	1	8
524.274	1	7
524.614	1	11
524.955	1	11
525.295	1	12
525.635	1	2
525.975	1	4
526.316	1	-3
526.656	1	10
526.996	1	4
527.337	1	23
527.677	1	18
528.017	1	8
528.357	1	9
528.698	1	12
529.038	1	7
529.378	1	10
529.718	1	9
530.058	1	11
530.399	1	6
530.739	1	10
531.079	1	3
531.419	1	12
531.760	1	9
532.100	1	18
532.440	1	10
532.780	1	5
533.120	1	-2
533.461	1	-5
533.801	1	5
534.141	1	6
534.481	1	20
534.821	1	2
535.162	1	6
535.502	1	9
535.842	1	9
536.182	1	7
536.522	1	5
536.862	1	9
537.203	1	10
537.543	1	2
537.883	1	12
538.223	1	19
538.563	1	1
538.903	1	6
539.243	1	4
539.584	1	11
539.924	1	1
540.264	1	21
540.604	1	14
540.944	1	10
541.284	1	-6
541.624	1	3
541.964	1	-4
542.305	1	12
542.645	1	1
542.985	1	-2
543.325	1	17
543.665	1	-3
544.005	1	4
544.345	1	6
544.685	1	-7
545.025	1	10
545.365	1	7
545.705	1	5
546.045	1	15
546.386	1	3
546.726	1	8
547.066	1	2
547.406	1	8
547.746	1	5
548.086	1	16
548.426	1	0
548.766	1	12
549.106	1	-5
549.446	1	7
549.786	1	13
550.126	1	11
550.466	1	2
550.806	1	15
551.146	1	1
551.486	1	4
551.826	1	2
552.166	1	0
552.506	1	-2
552.846	1	10
553.186	1	-5
553.526	1	14
553.866	1	9
554.206	1	14
554.546	1	9
554.886	1	4
555.226	1	-5
555.566	1	4
555.906	1	4
556.246	1	6
556.586	1	2
556.926	1	1
557.266	1	7
557.606	1	-12
557.946	1	13
558.286	1	-4
558.626	1	4
558.966	1	10
559.306	1	8
559.646	1	14
559.986	1	3
560.325	1	7
560.665	1	3
561.005	1	11
561.345	1	7
561.685	1	10
562.025	1	8
562.365	1	3
562.705	1	7
563.045	1	4
563.385	1	1
563.725	1	14
564.064	1	-3
564.404	1	0
564.744	1	9
565.084	1	6
565.424	1	-3
565.764	1	10
566.104	1	13
566.444	1	12
566.783	1	10
567.123	1	9
567.463	1	4
567.803	1	10
568.143	1	4
568.483	1	8
568.823	1	1
569.162	1	3
569.502	1	8
569.842	1	2
570.182	1	9
570.522	1	6
570.862	1	1
571.201	1	13
571.541	1	2
571.881	1	3
572.221	1	5
572.561	1	8
572.900	1	3
573.240	1	-1
573.580	1	12
573.920	1	18
574.260	1	12
574.599	1	0
574.939	1	-5
575.279	1	-1
575.619	1	-1
575.959	1	11
576.298	1	-7
576.638	1	12
576.978	1	2
577.318	1	4
577.657	1	-2
577.997	1	11
578.337	1	12
578.677	1	9
579.016	1	5
579.356	1	3
579.696	1	2
580.036	1	3
580.375	1	8
580.715	1	-5
581.055	1	3
581.394	1	8
581.734	1	4
582.074	1	1
582.414	1	-5
582.753	1	4
583.093	1	8
583.433	1	9
583.772	1	7
584.112	1	8
584.452	1	8
584.791	1	9
585.131	1	8
585.471	1	2
585.811	1	7
586.150	1	7
586.490	1	13
586.830	1	3
587.169	1	4
587.509	1	4
587.849	1	13
588.188	1	18
588.528	1	-11
588.867	1	4
589.207	1	11
589.547	1	12
589.886	1	6
590.226	1	-4
590.566	1	-1
590.905	1	-3
591.245	1	-8
591.585	1	-5
591.924	1	-2
592.264	1	3
592.603	1	-7
592.943	1	1
593.283	1	6
593.622	1	-1
593.962	1	11
594.301	1	11
594.641	1	5
594.981	1	1
595.320	1	4
595.660	1	1
595.999	1	0
596.339	1	1
596.678	1	-7
597.018	1	1
597.358	1	3
597.697	1	-4
598.037	1	-1
598.376	1	-6
598.716	1	5
599.055	1	10
599.395	1	-1
599.734	1	6
600.074	1	-4
600.413	1	7
600.753	1	8
601.092	1	-7
601.432	1	-5
601.771	1	4
602.111	1	4
602.451	1	-2
602.790	1	8
603.130	1	0
603.469	1	6
603.809	1	3
604.148	1	-3
604.487	1	1
604.827	1	2
605.166	1	8
605.506	1	-6
605.845	1	3
606.185	1	-4
606.524	1	3
606.864	1	6
607.203	1	6
607.543	1	8
607.882	1	10
608.222	1	2
608.561	1	8
608.901	1	9
609.240	1	5
609.579	1	2
609.919	1	-3
610.258	1	9
610.598	1	-2
610.937	1	3
611.277	1	6
611.616	1	11
611.955	1	1
612.295	1	1
612.634	1	6
612.974	1	-6
613.313	1	-6
613.652	1	17
613.992	1	4
614.331	1	3
614.671	1	3
615.010	1	11
615.349	1	4
615.689	1	5
616.028	1	10
616.368	1	10
616.707	1	9
617.046	1	-2
617.386	1	4
617.725	1	5
618.064	1	-4
618.404	1	0
618.743	1	-2
619.082	1	16
619.422	1	18
619.761	1	-2
620.100	1	4
620.440	1	8
620.779	1	5
621.118	1	16
621.458	1	2
621.797	1	9
622.136	1	2
622.476	1	5
622.815	1	4
623.154	1	1
623.494	1	-9
623.833	1	4
624.172	1	3
624.511	1	-3
624.851	1	0
625.190	1	-2
625.529	1	-4
625.869	1	10
626.208	1	-1
626.547	1	-4
626.886	1	-4
627.226	1	6
627.565	1	1
627.904	1	-5
628.243	1	10
628.583	1	7
628.922	1	11
629.261	1	8
629.600	1	-5
629.940	1	6
630.279	1	9
630.618	1	10
630.957	1	7
631.297	1	14
631.636	1	3
631.975	1	8
632.314	1	5
632.653	1	-1
632.993	1	2
633.332	1	-3
633.671	1	9
634.010	1	1
634.349	1	17
634.689	1	-3
635.028	1	-5
635.367	1	11
635.706	1	-2
636.045	1	-1
636.384	1	5
636.724	1	2
637.063	1	-1
637.402	1	-4
637.741	1	-1
638.080	1	6
638.419	1	2
638.759	1	4
639.098	1	-1
639.437	1	2
639.776	1	2
640.115	1	-10
640.454	1	1
640.793	1	2
641.132	1	5
641.472	1	11
641.811	1	3
642.150	1	9
642.489	1	8
642.828	1	13
643.167	1	5
643.506	1	4
643.845	1	10
644.184	1	5
644.524	1	1
644.863	1	-2
645.202	1	2
645.541	1	2
645.880	1	9
646.219	1	9
646.558	1	-2
646.897	1	-1
647.236	1	-8
647.575	1	14
647.914	1	10
648.253	1	13
648.592	1	5
648.931	1	7
649.270	1	12
649.610	1	8
649.949	1	-4
650.288	1	5
650.627	1	-4
650.966	1	2
651.305	1	1
651.644	1	1
651.983	1	-3
652.322	1	10
652.661	1	13
653.000	1	0
653.339	1	1
653.678	1	13
654.017	1	7
654.356	1	6
654.695	1	18
655.034	1	-1
655.373	1	5
655.712	1	12
656.051	1	-3
656.390	1	-5
656.729	1	0
657.068	1	-3
657.406	1	-3
657.745	1	13
658.084	1	10
658.423	1	13
658.762	1	-3
659.101	1	10
659.440	1	11
659.779	1	14
660.118	1	-2
660.457	1	3
660.796	1	2
661.135	1	14
661.474	1	10
661.813	1	2
662.152	1	4
662.491	1	-1
662.829	1	1
663.168	1	6
663.507	1	9
663.846	1	6
664.185	1	-5
664.524	1	9
664.863	1	-2
665.202	1	13
665.541	1	3
665.879	1	6
666.218	1	4
666.557	1	-2
666.896	1	10
667.235	1	-6
667.574	1	-6
667.913	1	1
668.251	1	-1
668.590	1	-2
668.929	1	1
669.268	1	0
669.607	1	-6
669.946	1	6
670.285	1	0
670.623	1	8
670.962	1	-8
671.301	1	3
671.640	1	16
671.979	1	1
672.317	1	0
672.656	1	-1
672.995	1	-5
673.334	1	0
673.673	1	15
674.011	1	4
674.350	1	5
674.689	1	-9
675.028	1	3
675.367	1	13
675.705	1	6
676.044	1	-4
676.383	1	7
676.722	1	6
677.060	1	6
677.399	1	11
677.738	1	-2
678.077	1	-3
678.416	1	2
678.754	1	-2
679.093	1	6
679.432	1	-1
679.771	1	3
680.109	1	2
680.448	1	-2
680.787	1	-14
681.125	1	1
681.464	1	12
681.803	1	-6
682.142	1	1
682.480	1	-11
682.819	1	4
683.158	1	-2
683.496	1	2
683.835	1	2
684.174	1	9
684.512	1	9
684.851	1	0
685.190	1	-5
685.529	1	0
685.867	1	2
686.206	1	-4
686.545	1	-4
686.883	1	14
687.222	1	0
687.561	1	2
687.899	1	-6
688.238	1	8
688.577	1	0
688.746	1	6