File: Data/GaN_150K_450ms/GaN_sample D_spot15_UVVIS_150 K_200um_450 ms 2x2mm1_152.txt
340.368	1	-1
340.710	1	-2
341.052	1	3
341.394	1	-2
341.737	1	5
342.079	1	2
342.421	1	-4
342.763	1	9
343.105	1	1
343.447	1	5
343.789	1	8
344.131	1	3
344.473	1	3
344.815	1	8
345.157	1	13
345.499	1	4
345.841	1	1
346.183	1	-4
346.526	1	5
346.868	1	1
347.210	1	1
347.552	1	11
347.894	1	3
348.236	1	2
348.578	1	6
348.920	1	7
349.262	1	13
349.604	1	1
349.946	1	3
350.288	1	-4
350.630	1	-1
350.972	1	6
351.314	1	-1
351.656	1	6
351.998	1	7
352.340	1	12
352.682	1	0
353.024	1	15
353.366	1	12
353.708	1	5
354.050	1	-1
354.392	1	1
354.734	1	12
355.076	1	10
355.418	1	0
355.760	1	12
356.102	1	13
356.444	1	11
356.785	1	10
357.127	1	10
357.469	1	6
357.811	1	9
358.153	1	-6
358.495	1	8
358.837	1	15
359.179	1	6
359.521	1	20
359.863	1	-1
360.205	1	12
360.547	1	12
360.889	1	15
361.231	1	16
361.572	1	13
361.914	1	13
362.256	1	11
362.598	1	18
362.940	1	20
363.282	1	8
363.624	1	17
363.966	1	14
364.308	1	12
364.649	1	33
364.991	1	25
365.333	1	37
365.675	1	34
366.017	1	38
366.359	1	27
366.701	1	39
367.042	1	44
367.384	1	32
367.726	1	34
368.068	1	48
368.410	1	42
368.752	1	44
369.093	1	36
369.435	1	39
369.777	1	38
370.119	1	36
370.461	1	32
370.803	1	41
371.144	1	32
371.486	1	38
371.828	1	37
372.170	1	27
372.512	1	17
372.853	1	47
373.195	1	26
373.537	1	1
373.879	1	24
374.220	1	19
374.562	1	28
374.904	1	36
375.246	1	7
375.588	1	14
375.929	1	28
376.271	1	21
376.613	1	10
376.955	1	12
377.296	1	13
377.638	1	9
377.980	1	13
378.321	1	17
378.663	1	14
379.005	1	9
379.347	1	19
379.688	1	18
380.030	1	16
380.372	1	9
380.714	1	14
381.055	1	3
381.397	1	16
381.739	1	-1
382.080	1	14
382.422	1	17
382.764	1	13
383.105	1	9
383.447	1	-1
383.789	1	-6
384.130	1	4
384.472	1	7
384.814	1	12
385.156	1	17
385.497	1	22
385.839	1	10
386.180	1	9
386.522	1	15
386.864	1	2
387.205	1	15
387.547	1	17
387.889	1	0
388.230	1	8
388.572	1	6
388.914	1	12
389.255	1	9
389.597	1	5
389.939	1	16
390.280	1	-2
390.622	1	2
390.963	1	0
391.305	1	5
391.647	1	1
391.988	1	12
392.330	1	-2
392.671	1	13
393.013	1	10
393.355	1	9
393.696	1	10
394.038	1	-2
394.379	1	12
394.721	1	8
395.062	1	-1
395.404	1	11
395.746	1	5
396.087	1	15
396.429	1	3
396.770	1	15
397.112	1	5
397.453	1	12
397.795	1	2
398.136	1	6
398.478	1	8
398.819	1	1
399.161	1	14
399.503	1	16
399.844	1	6
400.186	1	13
400.527	1	6
400.869	1	6
401.210	1	12
401.552	1	15
401.893	1	8
402.235	1	5
402.576	1	1
402.918	1	-3
403.259	1	0
403.601	1	5
403.942	1	3
404.284	1	13
404.625	1	4
404.967	1	8
405.308	1	-3
405.649	1	-1
405.991	1	11
406.332	1	6
406.674	1	14
407.015	1	8
407.357	1	11
407.698	1	9
408.040	1	19
408.381	1	0
408.722	1	4
409.064	1	11
409.405	1	7
409.747	1	2
410.088	1	19
410.430	1	10
410.771	1	13
411.112	1	8
411.454	1	8
411.795	1	-1
412.137	1	0
412.478	1	12
412.819	1	19
413.161	1	18
413.502	1	0
413.844	1	16
414.185	1	13
414.526	1	-2
414.868	1	4
415.209	1	7
415.550	1	6
415.892	1	12
416.233	1	10
416.575	1	6
416.916	1	4
417.257	1	5
417.599	1	14
417.940	1	16
418.281	1	3
418.623	1	5
418.964	1	23
419.305	1	3
419.647	1	2
419.988	1	17
420.329	1	7
420.671	1	18
421.012	1	11
421.353	1	14
421.695	1	20
422.036	1	16
422.377	1	11
422.718	1	21
423.060	1	12
423.401	1	11
423.742	1	13
424.084	1	5
424.425	1	13
424.766	1	7
425.107	1	12
425.449	1	6
425.790	1	7
426.131	1	-3
426.472	1	7
426.814	1	8
427.155	1	12
427.496	1	6
427.837	1	3
428.179	1	21
428.520	1	14
428.861	1	19
429.202	1	0
429.544	1	6
429.885	1	18
430.226	1	3
430.567	1	-2
430.909	1	1
431.250	1	11
431.591	1	10
431.932	1	9
432.273	1	19
432.615	1	4
432.956	1	11
433.297	1	13
433.638	1	14
433.979	1	14
434.320	1	14
434.662	1	12
435.003	1	17
435.344	1	6
435.685	1	4
436.026	1	6
436.368	1	2
436.709	1	6
437.050	1	5
437.391	1	16
437.732	1	3
438.073	1	4
438.414	1	21
438.756	1	7
439.097	1	15
439.438	1	10
439.779	1	3
440.120	1	4
440.461	1	9
440.802	1	8
441.143	1	12
441.485	1	10
441.826	1	-2
442.167	1	11
442.508	1	18
442.849	1	10
443.190	1	12
443.531	1	9
443.872	1	-1
444.213	1	-8
444.554	1	6
444.895	1	1
445.237	1	18
445.578	1	-1
445.919	1	3
446.260	1	14
446.601	1	14
446.942	1	2
447.283	1	8
447.624	1	-6
447.965	1	-1
448.306	1	14
448.647	1	6
448.988	1	12
449.329	1	9
449.670	1	5
450.011	1	10
450.352	1	4
450.693	1	10
451.034	1	-3
451.375	1	9
451.716	1	10
452.057	1	8
452.398	1	16
452.739	1	1
453.080	1	7
453.421	1	7
453.762	1	11
454.103	1	11
454.444	1	10
454.785	1	2
455.126	1	6
455.467	1	4
455.808	1	17
456.149	1	-6
456.490	1	6
456.831	1	3
457.172	1	15
457.513	1	7
457.854	1	1
458.195	1	2
458.536	1	1
458.877	1	6
459.218	1	7
459.559	1	13
459.899	1	-3
460.240	1	7
460.581	1	-1
460.922	1	5
461.263	1	18
461.604	1	2
461.945	1	4
462.286	1	8
462.627	1	3
462.968	1	9
463.309	1	13
463.649	1	2
463.990	1	6
464.331	1	14
464.672	1	-2
465.013	1	8
465.354	1	21
465.695	1	-4
466.036	1	10
466.376	1	8
466.717	1	-1
467.058	1	2
467.399	1	-9
467.740	1	19
468.081	1	4
468.422	1	6
468.762	1	12
469.103	1	2
469.444	1	3
469.785	1	-7
470.126	1	16
470.467	1	-1
470.807	1	4
471.148	1	-5
471.489	1	8
471.830	1	3
472.171	1	20
472.511	1	9
472.852	1	13
473.193	1	1
473.534	1	18
473.875	1	12
474.215	1	7
474.556	1	-1
474.897	1	-4
475.238	1	7
475.578	1	-2
475.919	1	9
476.260	1	-5
476.601	1	12
476.942	1	2
477.282	1	1
477.623	1	8
477.964	1	2
478.305	1	10
478.645	1	4
478.986	1	5
479.327	1	2
479.667	1	2
480.008	1	13
480.349	1	5
480.690	1	9
481.030	1	-9
481.371	1	5
481.712	1	6
482.053	1	12
482.393	1	8
482.734	1	6
483.075	1	-3
483.415	1	2
483.756	1	10
484.097	1	11
484.437	1	0
484.778	1	2
485.119	1	7
485.459	1	5
485.800	1	-3
486.141	1	13
486.481	1	-9
486.822	1	4
487.163	1	-5
487.503	1	8
487.844	1	-4
488.185	1	12
488.525	1	-1
488.866	1	7
489.207	1	12
489.547	1	6
489.888	1	6
490.228	1	5
490.569	1	-3
490.910	1	9
491.250	1	8
491.591	1	13
491.932	1	14
492.272	1	-3
492.613	1	2
492.953	1	5
493.294	1	-3
493.635	1	12
493.975	1	21
494.316	1	3
494.656	1	16
494.997	1	-4
495.337	1	-3
495.678	1	3
496.019	1	3
496.359	1	1
496.700	1	9
497.040	1	2
497.381	1	7
497.721	1	-2
498.062	1	12
498.403	1	9
498.743	1	13
499.084	1	11
499.424	1	6
499.765	1	3
500.105	1	11
500.446	1	-2
500.786	1	6
501.127	1	3
501.467	1	16
501.808	1	6
502.148	1	0
502.489	1	-5
502.829	1	4
503.170	1	13
503.510	1	0
503.851	1	4
504.191	1	4
504.532	1	14
504.872	1	-3
505.213	1	6
505.553	1	14
505.894	1	10
506.234	1	15
506.575	1	11
506.915	1	4
507.256	1	18
507.596	1	17
507.936	1	16
508.277	1	12
508.617	1	12
508.958	1	8
509.298	1	-2
509.639	1	-5
509.979	1	2
510.319	1	4
510.660	1	2
511.000	1	0
511.341	1	19
511.681	1	6
512.022	1	0
512.362	1	11
512.702	1	9
513.043	1	9
513.383	1	12
513.724	1	6
514.064	1	10
514.404	1	21
514.745	1	7
515.085	1	9
515.425	1	18
515.766	1	7
516.106	1	11
516.447	1	18
516.787	1	9
517.127	1	20
517.468	1	20
517.808	1	0
518.148	1	19
518.489	1	2
518.829	1	10
519.169	1	4
519.510	1	-1
519.850	1	12
520.190	1	6
520.531	1	8
520.871	1	12
521.211	1	15
521.552	1	6
521.892	1	7
522.232	1	3
522.573	1	7
522.913	1	20
523.253	1	22
523.593	1	23
523.934	1	7
524.274	1	6
524.614	1	9
524.955	1	1
525.295	1	16
525.635	1	21
525.975	1	-1
526.316	1	-4
526.656	1	7
526.996	1	8
527.337	1	10
527.677	1	16
528.017	1	11
528.357	1	8
528.698	1	18
529.038	1	14
529.378	1	10
529.718	1	-2
530.058	1	20
530.399	1	10
530.739	1	9
531.079	1	6
531.419	1	5
531.760	1	18
532.100	1	16
532.440	1	22
532.780	1	11
533.120	1	3
533.461	1	6
533.801	1	11
534.141	1	12
534.481	1	26
534.821	1	7
535.162	1	11
535.502	1	17
535.842	1	7
536.182	1	11
536.522	1	11
536.862	1	1
537.203	1	20
537.543	1	19
537.883	1	9
538.223	1	27
538.563	1	0
538.903	1	2
539.243	1	5
539.584	1	4
539.924	1	10
540.264	1	21
540.604	1	19
540.944	1	14
541.284	1	10
541.624	1	4
541.964	1	15
542.305	1	19
542.645	1	-1
542.985	1	1
543.325	1	13
543.665	1	6
544.005	1	13
544.345	1	10
544.685	1	3
545.025	1	15
545.365	1	10
545.705	1	12
546.045	1	11
546.386	1	8
546.726	1	5
547.066	1	5
547.406	1	4
547.746	1	5
548.086	1	12
548.426	1	7
548.766	1	9
549.106	1	0
549.446	1	12
549.786	1	13
550.126	1	9
550.466	1	0
550.806	1	19
551.146	1	16
551.486	1	9
551.826	1	-4
552.166	1	7
552.506	1	8
552.846	1	5
553.186	1	-2
553.526	1	5
553.866	1	0
554.206	1	14
554.546	1	9
554.886	1	1
555.226	1	-3
555.566	1	11
555.906	1	4
556.246	1	10
556.586	1	9
556.926	1	12
557.266	1	12
557.606	1	-6
557.946	1	9
558.286	1	-6
558.626	1	9
558.966	1	14
559.306	1	5
559.646	1	11
559.986	1	3
560.325	1	7
560.665	1	5
561.005	1	8
561.345	1	5
561.685	1	12
562.025	1	12
562.365	1	7
562.705	1	6
563.045	1	15
563.385	1	9
563.725	1	7
564.064	1	3
564.404	1	0
564.744	1	18
565.084	1	11
565.424	1	4
565.764	1	8
566.104	1	11
566.444	1	15
566.783	1	3
567.123	1	7
567.463	1	11
567.803	1	9
568.143	1	9
568.483	1	18
568.823	1	-1
569.162	1	4
569.502	1	0
569.842	1	9
570.182	1	3
570.522	1	-4
570.862	1	-8
571.201	1	14
571.541	1	1
571.881	1	-2
572.221	1	4
572.561	1	15
572.900	1	7
573.240	1	2
573.580	1	5
573.920	1	23
574.260	1	6
574.599	1	10
574.939	1	8
575.279	1	9
575.619	1	6
575.959	1	-1
576.298	1	-13
576.638	1	19
576.978	1	10
577.318	1	12
577.657	1	-7
577.997	1	2
578.337	1	6
578.677	1	9
579.016	1	11
579.356	1	5
579.696	1	5
580.036	1	2
580.375	1	7
580.715	1	5
581.055	1	5
581.394	1	-3
581.734	1	7
582.074	1	5
582.414	1	5
582.753	1	5
583.093	1	5
583.433	1	12
583.772	1	12
584.112	1	7
584.452	1	5
584.791	1	12
585.131	1	3
585.471	1	3
585.811	1	7
586.150	1	3
586.490	1	-1
586.830	1	1
587.169	1	7
587.509	1	10
587.849	1	7
588.188	1	6
588.528	1	4
588.867	1	10
589.207	1	11
589.547	1	6
589.886	1	6
590.226	1	-3
590.566	1	6
590.905	1	-1
591.245	1	-3
591.585	1	4
591.924	1	1
592.264	1	2
592.603	1	-13
592.943	1	2
593.283	1	6
593.622	1	6
593.962	1	4
594.301	1	3
594.641	1	11
594.981	1	2
595.320	1	11
595.660	1	8
595.999	1	3
596.339	1	4
596.678	1	-12
597.018	1	-7
597.358	1	5
597.697	1	3
598.037	1	2
598.376	1	-1
598.716	1	6
599.055	1	6
599.395	1	7
599.734	1	0
600.074	1	2
600.413	1	9
600.753	1	12
601.092	1	-9
601.432	1	-2
601.771	1	12
602.111	1	7
602.451	1	0
602.790	1	3
603.130	1	2
603.469	1	2
603.809	1	2
604.148	1	-2
604.487	1	3
604.827	1	11
605.166	1	10
605.506	1	-9
605.845	1	5
606.185	1	4
606.524	1	7
606.864	1	18
607.203	1	0
607.543	1	11
607.882	1	10
608.222	1	7
608.561	1	11
608.901	1	13
609.240	1	9
609.579	1	-2
609.919	1	-10
610.258	1	10
610.598	1	-7
610.937	1	7
611.277	1	2
611.616	1	8
611.955	1	5
612.295	1	12
612.634	1	16
612.974	1	-3
613.313	1	10
613.652	1	22
613.992	1	10
614.331	1	17
614.671	1	4
615.010	1	5
615.349	1	11
615.689	1	-1
616.028	1	27
616.368	1	16
616.707	1	3
617.046	1	-2
617.386	1	15
617.725	1	-2
618.064	1	-4
618.404	1	7
618.743	1	3
619.082	1	19
619.422	1	18
619.761	1	2
620.100	1	2
620.440	1	9
620.779	1	6
621.118	1	15
621.458	1	3
621.797	1	4
622.136	1	1
622.476	1	10
622.815	1	9
623.154	1	-6
623.494	1	-6
623.833	1	4
624.172	1	7
624.511	1	-5
624.851	1	-7
625.190	1	9
625.529	1	-1
625.869	1	9
626.208	1	4
626.547	1	-8
626.886	1	0
627.226	1	4
627.565	1	7
627.904	1	-1
628.243	1	6
628.583	1	9
628.922	1	7
629.261	1	5
629.600	1	6
629.940	1	7
630.279	1	8
630.618	1	10
630.957	1	14
631.297	1	7
631.636	1	2
631.975	1	-1
632.314	1	2
632.653	1	-3
632.993	1	5
633.332	1	9
633.671	1	11
634.010	1	7
634.349	1	20
634.689	1	8
635.028	1	-1
635.367	1	7
635.706	1	-5
636.045	1	-7
636.384	1	14
636.724	1	12
637.063	1	-8
637.402	1	8
637.741	1	0
638.080	1	2
638.419	1	-2
638.759	1	5
639.098	1	2
639.437	1	12
639.776	1	8
640.115	1	0
640.454	1	0
640.793	1	-10
641.132	1	3
641.472	1	9
641.811	1	-4
642.150	1	3
642.489	1	7
642.828	1	12
643.167	1	8
643.506	1	6
643.845	1	6
644.184	1	9
644.524	1	5
644.863	1	13
645.202	1	0
645.541	1	9
645.880	1	14
646.219	1	3
646.558	1	-6
646.897	1	-2
647.236	1	-5
647.575	1	14
647.914	1	4
648.253	1	17
648.592	1	12
648.931	1	4
649.270	1	9
649.610	1	-2
649.949	1	-8
650.288	1	5
650.627	1	-6
650.966	1	7
651.305	1	11
651.644	1	8
651.983	1	1
652.322	1	4
652.661	1	10
653.000	1	6
653.339	1	5
653.678	1	10
654.017	1	14
654.356	1	6
654.695	1	18
655.034	1	-3
655.373	1	11
655.712	1	16
656.051	1	5
656.390	1	9
656.729	1	16
657.068	1	3
657.406	1	-2
657.745	1	27
658.084	1	-2
658.423	1	8
658.762	1	-5
659.101	1	1
659.440	1	5
659.779	1	13
660.118	1	1
660.457	1	0
660.796	1	16
661.135	1	10
661.474	1	3
661.813	1	-6
662.152	1	0
662.491	1	-2
662.829	1	4
663.168	1	6
663.507	1	-2
663.846	1	3
664.185	1	3
664.524	1	11
664.863	1	-14
665.202	1	-1
665.541	1	0
665.879	1	3
666.218	1	8
666.557	1	8
666.896	1	7
667.235	1	-2
667.574	1	1
667.913	1	17
668.251	1	-4
668.590	1	4
668.929	1	-4
669.268	1	2
669.607	1	-3
669.946	1	10
670.285	1	2
670.623	1	6
670.962	1	-6
671.301	1	-2
671.640	1	6
671.979	1	-6
672.317	1	5
672.656	1	4
672.995	1	8
673.334	1	-6
673.673	1	17
674.011	1	8
674.350	1	6
674.689	1	-3
675.028	1	5
675.367	1	5
675.705	1	-6
676.044	1	2
676.383	1	5
676.722	1	-8
677.060	1	7
677.399	1	15
677.738	1	-1
678.077	1	-8
678.416	1	9
678.754	1	5
679.093	1	14
679.432	1	-4
679.771	1	1
680.109	1	4
680.448	1	2
680.787	1	-7
681.125	1	-9
681.464	1	3
681.803	1	-3
682.142	1	3
682.480	1	-11
682.819	1	-3
683.158	1	-2
683.496	1	-2
683.835	1	0
684.174	1	8
684.512	1	4
684.851	1	-1
685.190	1	2
685.529	1	-1
685.867	1	-5
686.206	1	-4
686.545	1	1
686.883	1	10
687.222	1	1
687.561	1	5
687.899	1	3
688.238	1	2
688.577	1	10
688.746	1	-1