File: Data/GaN_150K_450ms/GaN_sample D_spot15_UVVIS_150 K_200um_450 ms 2x2mm1_113.txt
340.368	1	8
340.710	1	7
341.052	1	5
341.394	1	-5
341.737	1	11
342.079	1	5
342.421	1	3
342.763	1	1
343.105	1	1
343.447	1	10
343.789	1	7
344.131	1	2
344.473	1	1
344.815	1	13
345.157	1	12
345.499	1	5
345.841	1	4
346.183	1	7
346.526	1	9
346.868	1	1
347.210	1	-3
347.552	1	17
347.894	1	-7
348.236	1	3
348.578	1	3
348.920	1	6
349.262	1	8
349.604	1	3
349.946	1	2
350.288	1	-6
350.630	1	-6
350.972	1	16
351.314	1	10
351.656	1	11
351.998	1	13
352.340	1	14
352.682	1	-2
353.024	1	21
353.366	1	3
353.708	1	9
354.050	1	-7
354.392	1	0
354.734	1	8
355.076	1	18
355.418	1	2
355.760	1	19
356.102	1	15
356.444	1	9
356.785	1	9
357.127	1	8
357.469	1	13
357.811	1	13
358.153	1	8
358.495	1	14
358.837	1	16
359.179	1	19
359.521	1	28
359.863	1	15
360.205	1	24
360.547	1	28
360.889	1	17
361.231	1	25
361.572	1	23
361.914	1	33
362.256	1	35
362.598	1	34
362.940	1	46
363.282	1	28
363.624	1	47
363.966	1	37
364.308	1	42
364.649	1	41
364.991	1	47
365.333	1	48
365.675	1	61
366.017	1	62
366.359	1	59
366.701	1	78
367.042	1	70
367.384	1	67
367.726	1	75
368.068	1	83
368.410	1	70
368.752	1	93
369.093	1	84
369.435	1	82
369.777	1	79
370.119	1	76
370.461	1	64
370.803	1	58
371.144	1	55
371.486	1	54
371.828	1	50
372.170	1	54
372.512	1	44
372.853	1	44
373.195	1	46
373.537	1	36
373.879	1	37
374.220	1	51
374.562	1	51
374.904	1	44
375.246	1	26
375.588	1	27
375.929	1	33
376.271	1	36
376.613	1	38
376.955	1	30
377.296	1	34
377.638	1	21
377.980	1	32
378.321	1	28
378.663	1	31
379.005	1	18
379.347	1	19
379.688	1	28
380.030	1	37
380.372	1	27
380.714	1	29
381.055	1	16
381.397	1	17
381.739	1	10
382.080	1	14
382.422	1	20
382.764	1	14
383.105	1	12
383.447	1	13
383.789	1	7
384.130	1	12
384.472	1	8
384.814	1	18
385.156	1	19
385.497	1	29
385.839	1	17
386.180	1	9
386.522	1	15
386.864	1	1
387.205	1	22
387.547	1	19
387.889	1	4
388.230	1	10
388.572	1	14
388.914	1	21
389.255	1	12
389.597	1	10
389.939	1	15
390.280	1	2
390.622	1	9
390.963	1	14
391.305	1	7
391.647	1	10
391.988	1	5
392.330	1	8
392.671	1	9
393.013	1	18
393.355	1	27
393.696	1	10
394.038	1	13
394.379	1	11
394.721	1	9
395.062	1	4
395.404	1	10
395.746	1	6
396.087	1	13
396.429	1	10
396.770	1	16
397.112	1	10
397.453	1	8
397.795	1	11
398.136	1	18
398.478	1	12
398.819	1	11
399.161	1	17
399.503	1	24
399.844	1	7
400.186	1	16
400.527	1	20
400.869	1	6
401.210	1	8
401.552	1	18
401.893	1	10
402.235	1	15
402.576	1	19
402.918	1	12
403.259	1	6
403.601	1	19
403.942	1	16
404.284	1	22
404.625	1	13
404.967	1	11
405.308	1	4
405.649	1	5
405.991	1	8
406.332	1	11
406.674	1	12
407.015	1	13
407.357	1	18
407.698	1	15
408.040	1	26
408.381	1	-2
408.722	1	20
409.064	1	19
409.405	1	8
409.747	1	14
410.088	1	13
410.430	1	24
410.771	1	12
411.112	1	8
411.454	1	11
411.795	1	13
412.137	1	8
412.478	1	10
412.819	1	19
413.161	1	14
413.502	1	16
413.844	1	12
414.185	1	17
414.526	1	6
414.868	1	12
415.209	1	10
415.550	1	10
415.892	1	19
416.233	1	10
416.575	1	12
416.916	1	12
417.257	1	11
417.599	1	7
417.940	1	0
418.281	1	15
418.623	1	11
418.964	1	22
419.305	1	16
419.647	1	5
419.988	1	26
420.329	1	13
420.671	1	13
421.012	1	7
421.353	1	19
421.695	1	15
422.036	1	24
422.377	1	13
422.718	1	21
423.060	1	18
423.401	1	17
423.742	1	21
424.084	1	8
424.425	1	18
424.766	1	4
425.107	1	15
425.449	1	15
425.790	1	10
426.131	1	7
426.472	1	24
426.814	1	15
427.155	1	17
427.496	1	17
427.837	1	-1
428.179	1	22
428.520	1	10
428.861	1	15
429.202	1	1
429.544	1	13
429.885	1	7
430.226	1	3
430.567	1	3
430.909	1	5
431.250	1	25
431.591	1	15
431.932	1	8
432.273	1	24
432.615	1	7
432.956	1	15
433.297	1	10
433.638	1	11
433.979	1	14
434.320	1	20
434.662	1	20
435.003	1	20
435.344	1	11
435.685	1	7
436.026	1	9
436.368	1	9
436.709	1	-3
437.050	1	7
437.391	1	12
437.732	1	16
438.073	1	7
438.414	1	16
438.756	1	1
439.097	1	7
439.438	1	10
439.779	1	16
440.120	1	4
440.461	1	6
440.802	1	6
441.143	1	11
441.485	1	6
441.826	1	10
442.167	1	17
442.508	1	9
442.849	1	6
443.190	1	11
443.531	1	5
443.872	1	7
444.213	1	3
444.554	1	13
444.895	1	11
445.237	1	5
445.578	1	2
445.919	1	11
446.260	1	10
446.601	1	13
446.942	1	11
447.283	1	15
447.624	1	5
447.965	1	9
448.306	1	5
448.647	1	3
448.988	1	9
449.329	1	14
449.670	1	10
450.011	1	8
450.352	1	-2
450.693	1	21
451.034	1	9
451.375	1	8
451.716	1	6
452.057	1	9
452.398	1	19
452.739	1	14
453.080	1	4
453.421	1	11
453.762	1	17
454.103	1	9
454.444	1	10
454.785	1	9
455.126	1	3
455.467	1	10
455.808	1	12
456.149	1	1
456.490	1	-6
456.831	1	10
457.172	1	14
457.513	1	5
457.854	1	9
458.195	1	10
458.536	1	16
458.877	1	5
459.218	1	19
459.559	1	11
459.899	1	7
460.240	1	4
460.581	1	2
460.922	1	12
461.263	1	13
461.604	1	3
461.945	1	12
462.286	1	2
462.627	1	7
462.968	1	11
463.309	1	16
463.649	1	0
463.990	1	8
464.331	1	3
464.672	1	3
465.013	1	12
465.354	1	20
465.695	1	2
466.036	1	20
466.376	1	16
466.717	1	-5
467.058	1	12
467.399	1	2
467.740	1	13
468.081	1	9
468.422	1	11
468.762	1	12
469.103	1	12
469.444	1	7
469.785	1	7
470.126	1	14
470.467	1	8
470.807	1	11
471.148	1	-1
471.489	1	9
471.830	1	0
472.171	1	14
472.511	1	2
472.852	1	11
473.193	1	7
473.534	1	11
473.875	1	6
474.215	1	21
474.556	1	2
474.897	1	0
475.238	1	5
475.578	1	0
475.919	1	10
476.260	1	4
476.601	1	13
476.942	1	6
477.282	1	-3
477.623	1	0
477.964	1	4
478.305	1	9
478.645	1	7
478.986	1	11
479.327	1	17
479.667	1	1
480.008	1	6
480.349	1	2
480.690	1	10
481.030	1	-4
481.371	1	3
481.712	1	13
482.053	1	9
482.393	1	6
482.734	1	8
483.075	1	11
483.415	1	9
483.756	1	18
484.097	1	26
484.437	1	13
484.778	1	-2
485.119	1	11
485.459	1	-12
485.800	1	6
486.141	1	4
486.481	1	-2
486.822	1	25
487.163	1	2
487.503	1	3
487.844	1	6
488.185	1	13
488.525	1	6
488.866	1	4
489.207	1	11
489.547	1	16
489.888	1	20
490.228	1	9
490.569	1	6
490.910	1	17
491.250	1	13
491.591	1	4
491.932	1	15
492.272	1	-3
492.613	1	14
492.953	1	15
493.294	1	-7
493.635	1	7
493.975	1	23
494.316	1	-7
494.656	1	14
494.997	1	-2
495.337	1	3
495.678	1	3
496.019	1	10
496.359	1	9
496.700	1	6
497.040	1	0
497.381	1	13
497.721	1	7
498.062	1	0
498.403	1	9
498.743	1	16
499.084	1	9
499.424	1	11
499.765	1	11
500.105	1	20
500.446	1	4
500.786	1	18
501.127	1	17
501.467	1	12
501.808	1	10
502.148	1	16
502.489	1	15
502.829	1	4
503.170	1	14
503.510	1	2
503.851	1	16
504.191	1	14
504.532	1	18
504.872	1	12
505.213	1	15
505.553	1	17
505.894	1	15
506.234	1	22
506.575	1	25
506.915	1	12
507.256	1	25
507.596	1	18
507.936	1	27
508.277	1	23
508.617	1	11
508.958	1	22
509.298	1	11
509.639	1	16
509.979	1	21
510.319	1	27
510.660	1	6
511.000	1	20
511.341	1	21
511.681	1	17
512.022	1	-3
512.362	1	15
512.702	1	-1
513.043	1	16
513.383	1	17
513.724	1	10
514.064	1	19
514.404	1	27
514.745	1	19
515.085	1	21
515.425	1	17
515.766	1	12
516.106	1	10
516.447	1	32
516.787	1	14
517.127	1	26
517.468	1	22
517.808	1	10
518.148	1	30
518.489	1	23
518.829	1	20
519.169	1	19
519.510	1	4
519.850	1	23
520.190	1	9
520.531	1	14
520.871	1	15
521.211	1	19
521.552	1	18
521.892	1	16
522.232	1	18
522.573	1	23
522.913	1	37
523.253	1	21
523.593	1	21
523.934	1	8
524.274	1	12
524.614	1	26
524.955	1	5
525.295	1	20
525.635	1	24
525.975	1	6
526.316	1	3
526.656	1	19
526.996	1	18
527.337	1	21
527.677	1	30
528.017	1	10
528.357	1	21
528.698	1	24
529.038	1	20
529.378	1	19
529.718	1	24
530.058	1	16
530.399	1	21
530.739	1	25
531.079	1	10
531.419	1	23
531.760	1	25
532.100	1	26
532.440	1	26
532.780	1	24
533.120	1	17
533.461	1	15
533.801	1	24
534.141	1	24
534.481	1	31
534.821	1	16
535.162	1	22
535.502	1	22
535.842	1	11
536.182	1	19
536.522	1	16
536.862	1	12
537.203	1	14
537.543	1	20
537.883	1	20
538.223	1	28
538.563	1	16
538.903	1	7
539.243	1	20
539.584	1	9
539.924	1	14
540.264	1	23
540.604	1	27
540.944	1	16
541.284	1	21
541.624	1	11
541.964	1	14
542.305	1	20
542.645	1	17
542.985	1	13
543.325	1	24
543.665	1	16
544.005	1	12
544.345	1	33
544.685	1	20
545.025	1	9
545.365	1	18
545.705	1	19
546.045	1	19
546.386	1	15
546.726	1	11
547.066	1	15
547.406	1	11
547.746	1	5
548.086	1	18
548.426	1	20
548.766	1	14
549.106	1	13
549.446	1	22
549.786	1	18
550.126	1	24
550.466	1	18
550.806	1	26
551.146	1	24
551.486	1	15
551.826	1	10
552.166	1	14
552.506	1	24
552.846	1	16
553.186	1	2
553.526	1	11
553.866	1	7
554.206	1	25
554.546	1	16
554.886	1	13
555.226	1	15
555.566	1	20
555.906	1	7
556.246	1	19
556.586	1	7
556.926	1	14
557.266	1	26
557.606	1	5
557.946	1	20
558.286	1	1
558.626	1	13
558.966	1	12
559.306	1	16
559.646	1	15
559.986	1	18
560.325	1	10
560.665	1	10
561.005	1	16
561.345	1	9
561.685	1	14
562.025	1	10
562.365	1	6
562.705	1	10
563.045	1	10
563.385	1	16
563.725	1	9
564.064	1	8
564.404	1	13
564.744	1	18
565.084	1	18
565.424	1	6
565.764	1	12
566.104	1	18
566.444	1	15
566.783	1	14
567.123	1	7
567.463	1	13
567.803	1	16
568.143	1	18
568.483	1	19
568.823	1	10
569.162	1	5
569.502	1	6
569.842	1	6
570.182	1	7
570.522	1	11
570.862	1	7
571.201	1	25
571.541	1	10
571.881	1	15
572.221	1	8
572.561	1	12
572.900	1	20
573.240	1	2
573.580	1	11
573.920	1	20
574.260	1	8
574.599	1	18
574.939	1	11
575.279	1	5
575.619	1	4
575.959	1	8
576.298	1	3
576.638	1	7
576.978	1	9
577.318	1	6
577.657	1	6
577.997	1	12
578.337	1	14
578.677	1	13
579.016	1	3
579.356	1	8
579.696	1	8
580.036	1	11
580.375	1	11
580.715	1	11
581.055	1	6
581.394	1	10
581.734	1	7
582.074	1	5
582.414	1	9
582.753	1	5
583.093	1	6
583.433	1	13
583.772	1	15
584.112	1	5
584.452	1	9
584.791	1	13
585.131	1	10
585.471	1	14
585.811	1	8
586.150	1	11
586.490	1	5
586.830	1	12
587.169	1	3
587.509	1	5
587.849	1	13
588.188	1	14
588.528	1	4
588.867	1	12
589.207	1	12
589.547	1	16
589.886	1	12
590.226	1	4
590.566	1	15
590.905	1	-1
591.245	1	5
591.585	1	7
591.924	1	-6
592.264	1	7
592.603	1	-7
592.943	1	-5
593.283	1	12
593.622	1	5
593.962	1	7
594.301	1	8
594.641	1	17
594.981	1	9
595.320	1	12
595.660	1	7
595.999	1	12
596.339	1	11
596.678	1	-2
597.018	1	4
597.358	1	5
597.697	1	4
598.037	1	5
598.376	1	11
598.716	1	8
599.055	1	13
599.395	1	-1
599.734	1	5
600.074	1	6
600.413	1	8
600.753	1	18
601.092	1	4
601.432	1	2
601.771	1	7
602.111	1	13
602.451	1	8
602.790	1	1
603.130	1	8
603.469	1	12
603.809	1	12
604.148	1	3
604.487	1	7
604.827	1	3
605.166	1	7
605.506	1	-1
605.845	1	15
606.185	1	7
606.524	1	1
606.864	1	19
607.203	1	4
607.543	1	9
607.882	1	10
608.222	1	-3
608.561	1	4
608.901	1	14
609.240	1	8
609.579	1	4
609.919	1	-1
610.258	1	19
610.598	1	-1
610.937	1	7
611.277	1	5
611.616	1	14
611.955	1	3
612.295	1	7
612.634	1	8
612.974	1	9
613.313	1	1
613.652	1	15
613.992	1	2
614.331	1	6
614.671	1	18
615.010	1	4
615.349	1	5
615.689	1	5
616.028	1	17
616.368	1	14
616.707	1	6
617.046	1	-2
617.386	1	16
617.725	1	6
618.064	1	2
618.404	1	8
618.743	1	9
619.082	1	15
619.422	1	15
619.761	1	0
620.100	1	4
620.440	1	1
620.779	1	9
621.118	1	8
621.458	1	-1
621.797	1	10
622.136	1	-4
622.476	1	10
622.815	1	6
623.154	1	-2
623.494	1	-14
623.833	1	3
624.172	1	6
624.511	1	-1
624.851	1	5
625.190	1	8
625.529	1	6
625.869	1	21
626.208	1	-1
626.547	1	2
626.886	1	-5
627.226	1	3
627.565	1	5
627.904	1	5
628.243	1	11
628.583	1	11
628.922	1	12
629.261	1	11
629.600	1	-1
629.940	1	6
630.279	1	4
630.618	1	1
630.957	1	13
631.297	1	8
631.636	1	2
631.975	1	3
632.314	1	1
632.653	1	4
632.993	1	5
633.332	1	5
633.671	1	11
634.010	1	7
634.349	1	15
634.689	1	5
635.028	1	6
635.367	1	9
635.706	1	-2
636.045	1	-3
636.384	1	8
636.724	1	5
637.063	1	-4
637.402	1	11
637.741	1	3
638.080	1	5
638.419	1	-1
638.759	1	9
639.098	1	12
639.437	1	17
639.776	1	6
640.115	1	-6
640.454	1	-1
640.793	1	7
641.132	1	10
641.472	1	13
641.811	1	-1
642.150	1	-3
642.489	1	9
642.828	1	22
643.167	1	4
643.506	1	4
643.845	1	11
644.184	1	11
644.524	1	1
644.863	1	5
645.202	1	4
645.541	1	4
645.880	1	5
646.219	1	6
646.558	1	-5
646.897	1	4
647.236	1	-5
647.575	1	12
647.914	1	8
648.253	1	7
648.592	1	13
648.931	1	6
649.270	1	12
649.610	1	10
649.949	1	5
650.288	1	10
650.627	1	7
650.966	1	0
651.305	1	9
651.644	1	10
651.983	1	3
652.322	1	6
652.661	1	2
653.000	1	11
653.339	1	4
653.678	1	20
654.017	1	7
654.356	1	17
654.695	1	18
655.034	1	10
655.373	1	1
655.712	1	9
656.051	1	2
656.390	1	1
656.729	1	18
657.068	1	-5
657.406	1	9
657.745	1	15
658.084	1	7
658.423	1	9
658.762	1	-6
659.101	1	0
659.440	1	3
659.779	1	10
660.118	1	3
660.457	1	2
660.796	1	7
661.135	1	5
661.474	1	8
661.813	1	5
662.152	1	-1
662.491	1	1
662.829	1	11
663.168	1	6
663.507	1	11
663.846	1	-1
664.185	1	3
664.524	1	15
664.863	1	0
665.202	1	11
665.541	1	7
665.879	1	8
666.218	1	8
666.557	1	1
666.896	1	7
667.235	1	1
667.574	1	1
667.913	1	10
668.251	1	-7
668.590	1	4
668.929	1	3
669.268	1	4
669.607	1	4
669.946	1	6
670.285	1	9
670.623	1	2
670.962	1	-2
671.301	1	-3
671.640	1	17
671.979	1	-2
672.317	1	9
672.656	1	8
672.995	1	2
673.334	1	2
673.673	1	12
674.011	1	11
674.350	1	2
674.689	1	-2
675.028	1	16
675.367	1	1
675.705	1	7
676.044	1	2
676.383	1	1
676.722	1	1
677.060	1	12
677.399	1	11
677.738	1	-3
678.077	1	-6
678.416	1	-4
678.754	1	6
679.093	1	6
679.432	1	8
679.771	1	5
680.109	1	12
680.448	1	-3
680.787	1	-3
681.125	1	-4
681.464	1	11
681.803	1	0
682.142	1	6
682.480	1	2
682.819	1	8
683.158	1	5
683.496	1	3
683.835	1	13
684.174	1	5
684.512	1	4
684.851	1	2
685.190	1	7
685.529	1	6
685.867	1	7
686.206	1	-2
686.545	1	7
686.883	1	17
687.222	1	-2
687.561	1	5
687.899	1	13
688.238	1	10
688.577	1	6
688.746	1	4