File: Data/GaN_150K_450ms/GaN_sample D_spot15_UVVIS_150 K_200um_450 ms 2x2mm1_326.txt
340.368	1	10
340.710	1	1
341.052	1	9
341.394	1	-2
341.737	1	4
342.079	1	0
342.421	1	2
342.763	1	10
343.105	1	4
343.447	1	9
343.789	1	8
344.131	1	-9
344.473	1	-3
344.815	1	4
345.157	1	19
345.499	1	9
345.841	1	2
346.183	1	1
346.526	1	5
346.868	1	-1
347.210	1	-6
347.552	1	12
347.894	1	-9
348.236	1	5
348.578	1	6
348.920	1	2
349.262	1	0
349.604	1	0
349.946	1	-8
350.288	1	1
350.630	1	2
350.972	1	6
351.314	1	-7
351.656	1	9
351.998	1	2
352.340	1	12
352.682	1	-10
353.024	1	15
353.366	1	4
353.708	1	-1
354.050	1	-7
354.392	1	-5
354.734	1	-1
355.076	1	14
355.418	1	-4
355.760	1	0
356.102	1	1
356.444	1	15
356.785	1	5
357.127	1	17
357.469	1	11
357.811	1	1
358.153	1	-11
358.495	1	4
358.837	1	6
359.179	1	1
359.521	1	2
359.863	1	2
360.205	1	7
360.547	1	8
360.889	1	-5
361.231	1	-2
361.572	1	15
361.914	1	1
362.256	1	-2
362.598	1	11
362.940	1	11
363.282	1	1
363.624	1	4
363.966	1	3
364.308	1	10
364.649	1	9
364.991	1	12
365.333	1	4
365.675	1	13
366.017	1	18
366.359	1	9
366.701	1	7
367.042	1	17
367.384	1	2
367.726	1	14
368.068	1	14
368.410	1	10
368.752	1	14
369.093	1	12
369.435	1	14
369.777	1	11
370.119	1	19
370.461	1	5
370.803	1	2
371.144	1	14
371.486	1	6
371.828	1	6
372.170	1	10
372.512	1	-1
372.853	1	19
373.195	1	7
373.537	1	1
373.879	1	0
374.220	1	8
374.562	1	11
374.904	1	1
375.246	1	5
375.588	1	0
375.929	1	13
376.271	1	11
376.613	1	7
376.955	1	7
377.296	1	11
377.638	1	1
377.980	1	4
378.321	1	8
378.663	1	11
379.005	1	3
379.347	1	-1
379.688	1	12
380.030	1	5
380.372	1	4
380.714	1	7
381.055	1	-2
381.397	1	1
381.739	1	-8
382.080	1	5
382.422	1	2
382.764	1	-2
383.105	1	3
383.447	1	3
383.789	1	-9
384.130	1	4
384.472	1	3
384.814	1	5
385.156	1	6
385.497	1	9
385.839	1	3
386.180	1	2
386.522	1	0
386.864	1	-8
387.205	1	5
387.547	1	7
387.889	1	4
388.230	1	1
388.572	1	-2
388.914	1	11
389.255	1	-1
389.597	1	-1
389.939	1	13
390.280	1	-1
390.622	1	-6
390.963	1	-4
391.305	1	-6
391.647	1	10
391.988	1	2
392.330	1	-1
392.671	1	3
393.013	1	-3
393.355	1	9
393.696	1	4
394.038	1	4
394.379	1	4
394.721	1	1
395.062	1	-3
395.404	1	1
395.746	1	-4
396.087	1	12
396.429	1	-4
396.770	1	5
397.112	1	7
397.453	1	-4
397.795	1	-3
398.136	1	2
398.478	1	0
398.819	1	5
399.161	1	15
399.503	1	12
399.844	1	9
400.186	1	2
400.527	1	8
400.869	1	3
401.210	1	-3
401.552	1	1
401.893	1	1
402.235	1	2
402.576	1	6
402.918	1	-8
403.259	1	6
403.601	1	9
403.942	1	0
404.284	1	10
404.625	1	-4
404.967	1	7
405.308	1	-7
405.649	1	6
405.991	1	0
406.332	1	-2
406.674	1	1
407.015	1	-2
407.357	1	1
407.698	1	-1
408.040	1	2
408.381	1	-2
408.722	1	4
409.064	1	9
409.405	1	4
409.747	1	0
410.088	1	11
410.430	1	12
410.771	1	4
411.112	1	5
411.454	1	5
411.795	1	8
412.137	1	2
412.478	1	6
412.819	1	2
413.161	1	6
413.502	1	10
413.844	1	11
414.185	1	-6
414.526	1	-3
414.868	1	-3
415.209	1	-3
415.550	1	0
415.892	1	6
416.233	1	4
416.575	1	-2
416.916	1	-4
417.257	1	-5
417.599	1	8
417.940	1	-4
418.281	1	7
418.623	1	-4
418.964	1	15
419.305	1	3
419.647	1	0
419.988	1	17
420.329	1	9
420.671	1	10
421.012	1	-3
421.353	1	14
421.695	1	8
422.036	1	10
422.377	1	2
422.718	1	8
423.060	1	8
423.401	1	-9
423.742	1	4
424.084	1	-1
424.425	1	7
424.766	1	1
425.107	1	4
425.449	1	10
425.790	1	7
426.131	1	0
426.472	1	15
426.814	1	-5
427.155	1	8
427.496	1	-4
427.837	1	1
428.179	1	10
428.520	1	-1
428.861	1	12
429.202	1	-7
429.544	1	-4
429.885	1	9
430.226	1	-9
430.567	1	-2
430.909	1	0
431.250	1	9
431.591	1	4
431.932	1	2
432.273	1	7
432.615	1	3
432.956	1	1
433.297	1	8
433.638	1	8
433.979	1	-2
434.320	1	2
434.662	1	10
435.003	1	13
435.344	1	2
435.685	1	-5
436.026	1	-2
436.368	1	-1
436.709	1	4
437.050	1	3
437.391	1	3
437.732	1	0
438.073	1	0
438.414	1	1
438.756	1	10
439.097	1	-5
439.438	1	3
439.779	1	3
440.120	1	6
440.461	1	9
440.802	1	3
441.143	1	2
441.485	1	-3
441.826	1	0
442.167	1	-2
442.508	1	11
442.849	1	6
443.190	1	4
443.531	1	1
443.872	1	-5
444.213	1	-7
444.554	1	-1
444.895	1	-7
445.237	1	5
445.578	1	-12
445.919	1	0
446.260	1	7
446.601	1	7
446.942	1	1
447.283	1	4
447.624	1	-9
447.965	1	8
448.306	1	3
448.647	1	7
448.988	1	6
449.329	1	7
449.670	1	4
450.011	1	2
450.352	1	4
450.693	1	9
451.034	1	1
451.375	1	-2
451.716	1	2
452.057	1	6
452.398	1	15
452.739	1	4
453.080	1	11
453.421	1	7
453.762	1	3
454.103	1	-1
454.444	1	0
454.785	1	-8
455.126	1	-2
455.467	1	-11
455.808	1	10
456.149	1	1
456.490	1	4
456.831	1	5
457.172	1	11
457.513	1	2
457.854	1	1
458.195	1	-1
458.536	1	6
458.877	1	-2
459.218	1	9
459.559	1	-4
459.899	1	3
460.240	1	-3
460.581	1	-6
460.922	1	-1
461.263	1	4
461.604	1	6
461.945	1	7
462.286	1	-4
462.627	1	-1
462.968	1	13
463.309	1	8
463.649	1	-2
463.990	1	3
464.331	1	9
464.672	1	-2
465.013	1	-1
465.354	1	12
465.695	1	1
466.036	1	9
466.376	1	17
466.717	1	-7
467.058	1	-3
467.399	1	-2
467.740	1	16
468.081	1	-1
468.422	1	-1
468.762	1	5
469.103	1	7
469.444	1	1
469.785	1	-7
470.126	1	-1
470.467	1	-6
470.807	1	-5
471.148	1	-3
471.489	1	8
471.830	1	-2
472.171	1	10
472.511	1	8
472.852	1	16
473.193	1	5
473.534	1	4
473.875	1	-5
474.215	1	1
474.556	1	-2
474.897	1	-1
475.238	1	10
475.578	1	-4
475.919	1	10
476.260	1	-7
476.601	1	-1
476.942	1	0
477.282	1	-9
477.623	1	-12
477.964	1	-1
478.305	1	9
478.645	1	10
478.986	1	3
479.327	1	1
479.667	1	-5
480.008	1	8
480.349	1	-2
480.690	1	4
481.030	1	-1
481.371	1	-4
481.712	1	7
482.053	1	19
482.393	1	0
482.734	1	6
483.075	1	1
483.415	1	-3
483.756	1	7
484.097	1	9
484.437	1	4
484.778	1	-8
485.119	1	2
485.459	1	-18
485.800	1	-1
486.141	1	7
486.481	1	-9
486.822	1	5
487.163	1	-2
487.503	1	-2
487.844	1	-9
488.185	1	5
488.525	1	-7
488.866	1	-5
489.207	1	10
489.547	1	6
489.888	1	8
490.228	1	3
490.569	1	-3
490.910	1	5
491.250	1	5
491.591	1	1
491.932	1	15
492.272	1	-8
492.613	1	-3
492.953	1	-3
493.294	1	-2
493.635	1	8
493.975	1	14
494.316	1	1
494.656	1	11
494.997	1	1
495.337	1	-1
495.678	1	-2
496.019	1	3
496.359	1	-5
496.700	1	-3
497.040	1	-8
497.381	1	3
497.721	1	-7
498.062	1	-8
498.403	1	6
498.743	1	-1
499.084	1	1
499.424	1	-6
499.765	1	-1
500.105	1	7
500.446	1	-7
500.786	1	-3
501.127	1	12
501.467	1	6
501.808	1	-4
502.148	1	-4
502.489	1	0
502.829	1	-2
503.170	1	0
503.510	1	-3
503.851	1	10
504.191	1	-2
504.532	1	13
504.872	1	-8
505.213	1	-2
505.553	1	-2
505.894	1	5
506.234	1	12
506.575	1	7
506.915	1	12
507.256	1	7
507.596	1	5
507.936	1	10
508.277	1	13
508.617	1	7
508.958	1	0
509.298	1	6
509.639	1	-9
509.979	1	-2
510.319	1	2
510.660	1	-1
511.000	1	6
511.341	1	15
511.681	1	14
512.022	1	-5
512.362	1	11
512.702	1	-4
513.043	1	1
513.383	1	-1
513.724	1	9
514.064	1	8
514.404	1	6
514.745	1	8
515.085	1	3
515.425	1	9
515.766	1	3
516.106	1	2
516.447	1	10
516.787	1	-1
517.127	1	15
517.468	1	10
517.808	1	0
518.148	1	8
518.489	1	0
518.829	1	3
519.169	1	-7
519.510	1	-10
519.850	1	0
520.190	1	-4
520.531	1	2
520.871	1	-3
521.211	1	4
521.552	1	5
521.892	1	9
522.232	1	7
522.573	1	4
522.913	1	0
523.253	1	4
523.593	1	11
523.934	1	5
524.274	1	8
524.614	1	1
524.955	1	5
525.295	1	6
525.635	1	4
525.975	1	3
526.316	1	-9
526.656	1	4
526.996	1	10
527.337	1	8
527.677	1	11
528.017	1	-4
528.357	1	-3
528.698	1	4
529.038	1	-2
529.378	1	7
529.718	1	-9
530.058	1	4
530.399	1	-1
530.739	1	8
531.079	1	-2
531.419	1	8
531.760	1	13
532.100	1	11
532.440	1	7
532.780	1	0
533.120	1	-8
533.461	1	0
533.801	1	4
534.141	1	7
534.481	1	14
534.821	1	-3
535.162	1	0
535.502	1	-4
535.842	1	-5
536.182	1	1
536.522	1	0
536.862	1	-5
537.203	1	1
537.543	1	4
537.883	1	2
538.223	1	9
538.563	1	-6
538.903	1	8
539.243	1	2
539.584	1	5
539.924	1	5
540.264	1	19
540.604	1	9
540.944	1	0
541.284	1	0
541.624	1	-5
541.964	1	1
542.305	1	12
542.645	1	-1
542.985	1	1
543.325	1	7
543.665	1	4
544.005	1	-3
544.345	1	3
544.685	1	0
545.025	1	5
545.365	1	4
545.705	1	1
546.045	1	14
546.386	1	-8
546.726	1	6
547.066	1	-2
547.406	1	-4
547.746	1	1
548.086	1	3
548.426	1	5
548.766	1	7
549.106	1	-1
549.446	1	4
549.786	1	0
550.126	1	5
550.466	1	1
550.806	1	11
551.146	1	-2
551.486	1	-2
551.826	1	-6
552.166	1	0
552.506	1	-2
552.846	1	3
553.186	1	-3
553.526	1	8
553.866	1	-4
554.206	1	7
554.546	1	5
554.886	1	1
555.226	1	0
555.566	1	2
555.906	1	2
556.246	1	4
556.586	1	2
556.926	1	-2
557.266	1	7
557.606	1	-6
557.946	1	10
558.286	1	-2
558.626	1	9
558.966	1	0
559.306	1	7
559.646	1	4
559.986	1	-1
560.325	1	-3
560.665	1	3
561.005	1	-1
561.345	1	1
561.685	1	8
562.025	1	4
562.365	1	-2
562.705	1	1
563.045	1	1
563.385	1	3
563.725	1	7
564.064	1	-9
564.404	1	-6
564.744	1	6
565.084	1	1
565.424	1	-2
565.764	1	0
566.104	1	7
566.444	1	15
566.783	1	5
567.123	1	-4
567.463	1	8
567.803	1	6
568.143	1	-3
568.483	1	12
568.823	1	-3
569.162	1	-3
569.502	1	5
569.842	1	2
570.182	1	-4
570.522	1	2
570.862	1	-9
571.201	1	3
571.541	1	1
571.881	1	1
572.221	1	6
572.561	1	5
572.900	1	7
573.240	1	-3
573.580	1	6
573.920	1	12
574.260	1	2
574.599	1	-4
574.939	1	0
575.279	1	1
575.619	1	4
575.959	1	7
576.298	1	-5
576.638	1	9
576.978	1	12
577.318	1	5
577.657	1	-1
577.997	1	4
578.337	1	3
578.677	1	1
579.016	1	-1
579.356	1	5
579.696	1	-1
580.036	1	9
580.375	1	-3
580.715	1	9
581.055	1	-7
581.394	1	6
581.734	1	-5
582.074	1	-2
582.414	1	-5
582.753	1	-4
583.093	1	0
583.433	1	-1
583.772	1	4
584.112	1	-3
584.452	1	9
584.791	1	6
585.131	1	-1
585.471	1	-2
585.811	1	-3
586.150	1	8
586.490	1	6
586.830	1	4
587.169	1	7
587.509	1	3
587.849	1	9
588.188	1	5
588.528	1	-4
588.867	1	-1
589.207	1	2
589.547	1	11
589.886	1	-1
590.226	1	3
590.566	1	1
590.905	1	1
591.245	1	-10
591.585	1	1
591.924	1	6
592.264	1	2
592.603	1	-7
592.943	1	-4
593.283	1	12
593.622	1	-2
593.962	1	9
594.301	1	-3
594.641	1	2
594.981	1	9
595.320	1	10
595.660	1	8
595.999	1	6
596.339	1	0
596.678	1	-8
597.018	1	-5
597.358	1	5
597.697	1	-11
598.037	1	7
598.376	1	-1
598.716	1	-4
599.055	1	9
599.395	1	-1
599.734	1	3
600.074	1	-5
600.413	1	0
600.753	1	10
601.092	1	-6
601.432	1	0
601.771	1	-5
602.111	1	5
602.451	1	-7
602.790	1	0
603.130	1	2
603.469	1	0
603.809	1	2
604.148	1	-4
604.487	1	6
604.827	1	1
605.166	1	9
605.506	1	-8
605.845	1	7
606.185	1	-3
606.524	1	-6
606.864	1	11
607.203	1	7
607.543	1	5
607.882	1	5
608.222	1	3
608.561	1	3
608.901	1	4
609.240	1	6
609.579	1	-1
609.919	1	-8
610.258	1	17
610.598	1	0
610.937	1	2
611.277	1	0
611.616	1	8
611.955	1	-2
612.295	1	0
612.634	1	0
612.974	1	1
613.313	1	2
613.652	1	9
613.992	1	0
614.331	1	4
614.671	1	-2
615.010	1	3
615.349	1	3
615.689	1	0
616.028	1	12
616.368	1	7
616.707	1	6
617.046	1	1
617.386	1	5
617.725	1	-7
618.064	1	-5
618.404	1	-7
618.743	1	3
619.082	1	14
619.422	1	14
619.761	1	3
620.100	1	-4
620.440	1	1
620.779	1	7
621.118	1	7
621.458	1	-4
621.797	1	0
622.136	1	-1
622.476	1	3
622.815	1	-1
623.154	1	-6
623.494	1	-2
623.833	1	-2
624.172	1	-6
624.511	1	-2
624.851	1	-12
625.190	1	2
625.529	1	-9
625.869	1	11
626.208	1	2
626.547	1	-4
626.886	1	-5
627.226	1	3
627.565	1	5
627.904	1	-1
628.243	1	15
628.583	1	7
628.922	1	3
629.261	1	0
629.600	1	3
629.940	1	-3
630.279	1	5
630.618	1	6
630.957	1	4
631.297	1	1
631.636	1	2
631.975	1	-7
632.314	1	1
632.653	1	-5
632.993	1	31
633.332	1	-5
633.671	1	9
634.010	1	-6
634.349	1	9
634.689	1	2
635.028	1	-7
635.367	1	1
635.706	1	8
636.045	1	-3
636.384	1	4
636.724	1	10
637.063	1	0
637.402	1	4
637.741	1	-4
638.080	1	-2
638.419	1	-8
638.759	1	8
639.098	1	-8
639.437	1	4
639.776	1	8
640.115	1	-2
640.454	1	-10
640.793	1	6
641.132	1	7
641.472	1	12
641.811	1	-11
642.150	1	-5
642.489	1	6
642.828	1	15
643.167	1	1
643.506	1	-7
643.845	1	6
644.184	1	3
644.524	1	2
644.863	1	1
645.202	1	-1
645.541	1	-2
645.880	1	3
646.219	1	5
646.558	1	-8
646.897	1	-6
647.236	1	-8
647.575	1	-3
647.914	1	-1
648.253	1	12
648.592	1	9
648.931	1	6
649.270	1	5
649.610	1	-1
649.949	1	-4
650.288	1	1
650.627	1	-2
650.966	1	1
651.305	1	1
651.644	1	5
651.983	1	-4
652.322	1	-1
652.661	1	3
653.000	1	2
653.339	1	0
653.678	1	7
654.017	1	11
654.356	1	5
654.695	1	20
655.034	1	-7
655.373	1	3
655.712	1	3
656.051	1	-1
656.390	1	6
656.729	1	8
657.068	1	-1
657.406	1	-2
657.745	1	14
658.084	1	4
658.423	1	2
658.762	1	-3
659.101	1	-2
659.440	1	10
659.779	1	12
660.118	1	0
660.457	1	-10
660.796	1	8
661.135	1	4
661.474	1	-3
661.813	1	0
662.152	1	4
662.491	1	-2
662.829	1	0
663.168	1	-2
663.507	1	-4
663.846	1	-3
664.185	1	5
664.524	1	6
664.863	1	-3
665.202	1	3
665.541	1	-3
665.879	1	5
666.218	1	1
666.557	1	5
666.896	1	8
667.235	1	-4
667.574	1	-8
667.913	1	1
668.251	1	-11
668.590	1	3
668.929	1	-10
669.268	1	-8
669.607	1	-11
669.946	1	1
670.285	1	7
670.623	1	2
670.962	1	3
671.301	1	-6
671.640	1	11
671.979	1	4
672.317	1	6
672.656	1	9
672.995	1	0
673.334	1	-7
673.673	1	17
674.011	1	8
674.350	1	6
674.689	1	-2
675.028	1	-2
675.367	1	1
675.705	1	1
676.044	1	4
676.383	1	1
676.722	1	0
677.060	1	6
677.399	1	11
677.738	1	-2
678.077	1	-9
678.416	1	-9
678.754	1	-1
679.093	1	7
679.432	1	3
679.771	1	-4
680.109	1	-1
680.448	1	3
680.787	1	-2
681.125	1	-1
681.464	1	2
681.803	1	-5
682.142	1	-4
682.480	1	-2
682.819	1	-4
683.158	1	-2
683.496	1	-3
683.835	1	4
684.174	1	3
684.512	1	1
684.851	1	1
685.190	1	-4
685.529	1	2
685.867	1	5
686.206	1	-7
686.545	1	-7
686.883	1	6
687.222	1	-10
687.561	1	-7
687.899	1	-5
688.238	1	7
688.577	1	0
688.746	1	-4