File: Data/GaN_150K_450ms/GaN_sample D_spot15_UVVIS_150 K_200um_450 ms 2x2mm1_208.txt
340.368	1	4
340.710	1	2
341.052	1	10
341.394	1	-6
341.737	1	7
342.079	1	-1
342.421	1	-9
342.763	1	2
343.105	1	3
343.447	1	1
343.789	1	13
344.131	1	-6
344.473	1	-2
344.815	1	10
345.157	1	19
345.499	1	3
345.841	1	5
346.183	1	-6
346.526	1	14
346.868	1	3
347.210	1	-2
347.552	1	15
347.894	1	0
348.236	1	12
348.578	1	2
348.920	1	13
349.262	1	1
349.604	1	2
349.946	1	-1
350.288	1	2
350.630	1	-5
350.972	1	4
351.314	1	-3
351.656	1	13
351.998	1	-4
352.340	1	9
352.682	1	-5
353.024	1	16
353.366	1	12
353.708	1	5
354.050	1	8
354.392	1	1
354.734	1	-2
355.076	1	13
355.418	1	-3
355.760	1	7
356.102	1	12
356.444	1	10
356.785	1	2
357.127	1	5
357.469	1	-2
357.811	1	-2
358.153	1	-3
358.495	1	2
358.837	1	3
359.179	1	0
359.521	1	8
359.863	1	-2
360.205	1	14
360.547	1	9
360.889	1	4
361.231	1	12
361.572	1	3
361.914	1	15
362.256	1	15
362.598	1	20
362.940	1	16
363.282	1	7
363.624	1	2
363.966	1	10
364.308	1	10
364.649	1	18
364.991	1	20
365.333	1	8
365.675	1	12
366.017	1	16
366.359	1	13
366.701	1	18
367.042	1	30
367.384	1	15
367.726	1	17
368.068	1	32
368.410	1	35
368.752	1	25
369.093	1	25
369.435	1	26
369.777	1	30
370.119	1	20
370.461	1	17
370.803	1	10
371.144	1	20
371.486	1	29
371.828	1	11
372.170	1	8
372.512	1	8
372.853	1	25
373.195	1	20
373.537	1	-1
373.879	1	17
374.220	1	15
374.562	1	22
374.904	1	14
375.246	1	11
375.588	1	6
375.929	1	5
376.271	1	13
376.613	1	11
376.955	1	14
377.296	1	11
377.638	1	9
377.980	1	10
378.321	1	13
378.663	1	13
379.005	1	13
379.347	1	8
379.688	1	14
380.030	1	15
380.372	1	6
380.714	1	11
381.055	1	-3
381.397	1	5
381.739	1	-6
382.080	1	3
382.422	1	11
382.764	1	4
383.105	1	-6
383.447	1	8
383.789	1	1
384.130	1	11
384.472	1	4
384.814	1	7
385.156	1	6
385.497	1	13
385.839	1	4
386.180	1	9
386.522	1	7
386.864	1	8
387.205	1	8
387.547	1	3
387.889	1	0
388.230	1	3
388.572	1	0
388.914	1	10
389.255	1	4
389.597	1	-4
389.939	1	15
390.280	1	7
390.622	1	-7
390.963	1	1
391.305	1	0
391.647	1	2
391.988	1	-10
392.330	1	-4
392.671	1	8
393.013	1	3
393.355	1	12
393.696	1	14
394.038	1	9
394.379	1	-3
394.721	1	3
395.062	1	-6
395.404	1	7
395.746	1	1
396.087	1	10
396.429	1	3
396.770	1	0
397.112	1	2
397.453	1	-1
397.795	1	2
398.136	1	12
398.478	1	-6
398.819	1	-1
399.161	1	9
399.503	1	16
399.844	1	3
400.186	1	11
400.527	1	12
400.869	1	1
401.210	1	2
401.552	1	-2
401.893	1	8
402.235	1	9
402.576	1	8
402.918	1	-6
403.259	1	9
403.601	1	8
403.942	1	6
404.284	1	11
404.625	1	12
404.967	1	4
405.308	1	-8
405.649	1	8
405.991	1	7
406.332	1	6
406.674	1	6
407.015	1	21
407.357	1	7
407.698	1	5
408.040	1	9
408.381	1	-6
408.722	1	3
409.064	1	14
409.405	1	7
409.747	1	-2
410.088	1	6
410.430	1	17
410.771	1	10
411.112	1	0
411.454	1	7
411.795	1	7
412.137	1	0
412.478	1	3
412.819	1	8
413.161	1	8
413.502	1	12
413.844	1	17
414.185	1	2
414.526	1	-15
414.868	1	6
415.209	1	-1
415.550	1	2
415.892	1	20
416.233	1	4
416.575	1	-8
416.916	1	2
417.257	1	6
417.599	1	7
417.940	1	-6
418.281	1	14
418.623	1	-1
418.964	1	11
419.305	1	8
419.647	1	6
419.988	1	14
420.329	1	4
420.671	1	13
421.012	1	-3
421.353	1	6
421.695	1	-3
422.036	1	14
422.377	1	6
422.718	1	17
423.060	1	12
423.401	1	3
423.742	1	10
424.084	1	6
424.425	1	11
424.766	1	2
425.107	1	6
425.449	1	8
425.790	1	7
426.131	1	4
426.472	1	21
426.814	1	1
427.155	1	8
427.496	1	0
427.837	1	-3
428.179	1	15
428.520	1	2
428.861	1	11
429.202	1	4
429.544	1	4
429.885	1	6
430.226	1	1
430.567	1	3
430.909	1	4
431.250	1	8
431.591	1	-2
431.932	1	2
432.273	1	7
432.615	1	2
432.956	1	6
433.297	1	7
433.638	1	13
433.979	1	15
434.320	1	9
434.662	1	6
435.003	1	16
435.344	1	10
435.685	1	8
436.026	1	-4
436.368	1	-2
436.709	1	-1
437.050	1	2
437.391	1	9
437.732	1	8
438.073	1	-8
438.414	1	6
438.756	1	4
439.097	1	-5
439.438	1	10
439.779	1	2
440.120	1	-1
440.461	1	6
440.802	1	7
441.143	1	2
441.485	1	4
441.826	1	-2
442.167	1	10
442.508	1	6
442.849	1	13
443.190	1	8
443.531	1	5
443.872	1	-5
444.213	1	-12
444.554	1	3
444.895	1	1
445.237	1	6
445.578	1	-7
445.919	1	2
446.260	1	13
446.601	1	11
446.942	1	-3
447.283	1	4
447.624	1	-9
447.965	1	7
448.306	1	10
448.647	1	0
448.988	1	3
449.329	1	3
449.670	1	1
450.011	1	3
450.352	1	-2
450.693	1	7
451.034	1	9
451.375	1	5
451.716	1	1
452.057	1	7
452.398	1	9
452.739	1	9
453.080	1	8
453.421	1	-1
453.762	1	11
454.103	1	-3
454.444	1	10
454.785	1	5
455.126	1	8
455.467	1	1
455.808	1	9
456.149	1	6
456.490	1	-6
456.831	1	-4
457.172	1	10
457.513	1	2
457.854	1	-1
458.195	1	5
458.536	1	2
458.877	1	3
459.218	1	6
459.559	1	6
459.899	1	1
460.240	1	-6
460.581	1	-2
460.922	1	2
461.263	1	13
461.604	1	-5
461.945	1	11
462.286	1	-2
462.627	1	1
462.968	1	11
463.309	1	12
463.649	1	1
463.990	1	2
464.331	1	-1
464.672	1	8
465.013	1	2
465.354	1	10
465.695	1	6
466.036	1	11
466.376	1	12
466.717	1	-5
467.058	1	2
467.399	1	4
467.740	1	16
468.081	1	-1
468.422	1	8
468.762	1	15
469.103	1	3
469.444	1	2
469.785	1	1
470.126	1	5
470.467	1	1
470.807	1	9
471.148	1	4
471.489	1	11
471.830	1	3
472.171	1	11
472.511	1	8
472.852	1	3
473.193	1	7
473.534	1	10
473.875	1	7
474.215	1	0
474.556	1	4
474.897	1	-7
475.238	1	11
475.578	1	-6
475.919	1	-1
476.260	1	-2
476.601	1	8
476.942	1	3
477.282	1	2
477.623	1	6
477.964	1	1
478.305	1	7
478.645	1	7
478.986	1	13
479.327	1	6
479.667	1	9
480.008	1	8
480.349	1	0
480.690	1	0
481.030	1	-2
481.371	1	1
481.712	1	18
482.053	1	19
482.393	1	2
482.734	1	10
483.075	1	0
483.415	1	8
483.756	1	7
484.097	1	9
484.437	1	7
484.778	1	-4
485.119	1	3
485.459	1	5
485.800	1	-4
486.141	1	15
486.481	1	-11
486.822	1	10
487.163	1	-4
487.503	1	0
487.844	1	1
488.185	1	8
488.525	1	-1
488.866	1	-2
489.207	1	9
489.547	1	7
489.888	1	8
490.228	1	7
490.569	1	0
490.910	1	8
491.250	1	12
491.591	1	-2
491.932	1	5
492.272	1	-10
492.613	1	0
492.953	1	0
493.294	1	4
493.635	1	2
493.975	1	6
494.316	1	8
494.656	1	8
494.997	1	-5
495.337	1	3
495.678	1	-8
496.019	1	7
496.359	1	-1
496.700	1	0
497.040	1	-1
497.381	1	8
497.721	1	-8
498.062	1	5
498.403	1	12
498.743	1	11
499.084	1	7
499.424	1	8
499.765	1	8
500.105	1	17
500.446	1	0
500.786	1	-8
501.127	1	8
501.467	1	9
501.808	1	6
502.148	1	-1
502.489	1	1
502.829	1	3
503.170	1	6
503.510	1	-2
503.851	1	7
504.191	1	-4
504.532	1	10
504.872	1	4
505.213	1	-4
505.553	1	4
505.894	1	5
506.234	1	7
506.575	1	9
506.915	1	7
507.256	1	12
507.596	1	3
507.936	1	13
508.277	1	11
508.617	1	8
508.958	1	11
509.298	1	-1
509.639	1	-1
509.979	1	7
510.319	1	13
510.660	1	3
511.000	1	5
511.341	1	1
511.681	1	6
512.022	1	-1
512.362	1	10
512.702	1	6
513.043	1	4
513.383	1	3
513.724	1	7
514.064	1	4
514.404	1	6
514.745	1	2
515.085	1	16
515.425	1	11
515.766	1	8
516.106	1	-4
516.447	1	10
516.787	1	5
517.127	1	18
517.468	1	7
517.808	1	-4
518.148	1	10
518.489	1	2
518.829	1	9
519.169	1	-1
519.510	1	1
519.850	1	10
520.190	1	7
520.531	1	1
520.871	1	4
521.211	1	7
521.552	1	3
521.892	1	10
522.232	1	5
522.573	1	1
522.913	1	9
523.253	1	3
523.593	1	14
523.934	1	1
524.274	1	11
524.614	1	10
524.955	1	-3
525.295	1	4
525.635	1	7
525.975	1	5
526.316	1	3
526.656	1	10
526.996	1	4
527.337	1	12
527.677	1	15
528.017	1	-3
528.357	1	13
528.698	1	11
529.038	1	7
529.378	1	7
529.718	1	0
530.058	1	7
530.399	1	6
530.739	1	15
531.079	1	6
531.419	1	0
531.760	1	20
532.100	1	17
532.440	1	14
532.780	1	6
533.120	1	-1
533.461	1	0
533.801	1	2
534.141	1	9
534.481	1	22
534.821	1	12
535.162	1	8
535.502	1	6
535.842	1	2
536.182	1	5
536.522	1	0
536.862	1	-3
537.203	1	6
537.543	1	15
537.883	1	5
538.223	1	12
538.563	1	-2
538.903	1	4
539.243	1	11
539.584	1	5
539.924	1	6
540.264	1	7
540.604	1	20
540.944	1	8
541.284	1	13
541.624	1	3
541.964	1	3
542.305	1	10
542.645	1	-1
542.985	1	4
543.325	1	10
543.665	1	-3
544.005	1	4
544.345	1	17
544.685	1	1
545.025	1	15
545.365	1	1
545.705	1	10
546.045	1	12
546.386	1	6
546.726	1	1
547.066	1	0
547.406	1	4
547.746	1	6
548.086	1	7
548.426	1	8
548.766	1	8
549.106	1	4
549.446	1	10
549.786	1	10
550.126	1	9
550.466	1	5
550.806	1	9
551.146	1	14
551.486	1	10
551.826	1	0
552.166	1	0
552.506	1	1
552.846	1	15
553.186	1	-11
553.526	1	0
553.866	1	-6
554.206	1	4
554.546	1	8
554.886	1	5
555.226	1	10
555.566	1	7
555.906	1	5
556.246	1	13
556.586	1	2
556.926	1	8
557.266	1	10
557.606	1	1
557.946	1	9
558.286	1	-4
558.626	1	5
558.966	1	9
559.306	1	3
559.646	1	6
559.986	1	15
560.325	1	7
560.665	1	10
561.005	1	8
561.345	1	-3
561.685	1	7
562.025	1	6
562.365	1	1
562.705	1	6
563.045	1	13
563.385	1	5
563.725	1	-2
564.064	1	4
564.404	1	5
564.744	1	17
565.084	1	0
565.424	1	1
565.764	1	-4
566.104	1	7
566.444	1	7
566.783	1	13
567.123	1	6
567.463	1	13
567.803	1	3
568.143	1	2
568.483	1	13
568.823	1	5
569.162	1	-2
569.502	1	10
569.842	1	1
570.182	1	2
570.522	1	-8
570.862	1	-7
571.201	1	9
571.541	1	4
571.881	1	2
572.221	1	0
572.561	1	8
572.900	1	11
573.240	1	-9
573.580	1	7
573.920	1	4
574.260	1	4
574.599	1	11
574.939	1	2
575.279	1	3
575.619	1	-5
575.959	1	9
576.298	1	-2
576.638	1	10
576.978	1	6
577.318	1	-6
577.657	1	5
577.997	1	-5
578.337	1	3
578.677	1	8
579.016	1	-1
579.356	1	6
579.696	1	2
580.036	1	6
580.375	1	9
580.715	1	6
581.055	1	7
581.394	1	2
581.734	1	0
582.074	1	3
582.414	1	0
582.753	1	1
583.093	1	1
583.433	1	6
583.772	1	10
584.112	1	0
584.452	1	6
584.791	1	1
585.131	1	5
585.471	1	-3
585.811	1	5
586.150	1	6
586.490	1	7
586.830	1	11
587.169	1	-1
587.509	1	-2
587.849	1	13
588.188	1	5
588.528	1	-5
588.867	1	12
589.207	1	1
589.547	1	15
589.886	1	-2
590.226	1	-5
590.566	1	3
590.905	1	-8
591.245	1	-3
591.585	1	-10
591.924	1	-4
592.264	1	-1
592.603	1	-4
592.943	1	4
593.283	1	6
593.622	1	-3
593.962	1	2
594.301	1	1
594.641	1	5
594.981	1	1
595.320	1	11
595.660	1	10
595.999	1	-2
596.339	1	8
596.678	1	-8
597.018	1	8
597.358	1	3
597.697	1	3
598.037	1	-4
598.376	1	1
598.716	1	8
599.055	1	6
599.395	1	-3
599.734	1	-4
600.074	1	-2
600.413	1	4
600.753	1	7
601.092	1	2
601.432	1	-3
601.771	1	4
602.111	1	6
602.451	1	-8
602.790	1	7
603.130	1	3
603.469	1	-1
603.809	1	1
604.148	1	-9
604.487	1	5
604.827	1	3
605.166	1	4
605.506	1	-11
605.845	1	7
606.185	1	3
606.524	1	0
606.864	1	8
607.203	1	9
607.543	1	2
607.882	1	5
608.222	1	4
608.561	1	-3
608.901	1	9
609.240	1	2
609.579	1	6
609.919	1	-9
610.258	1	18
610.598	1	-10
610.937	1	3
611.277	1	12
611.616	1	9
611.955	1	2
612.295	1	14
612.634	1	12
612.974	1	-5
613.313	1	5
613.652	1	15
613.992	1	-5
614.331	1	9
614.671	1	8
615.010	1	15
615.349	1	1
615.689	1	0
616.028	1	19
616.368	1	7
616.707	1	4
617.046	1	-1
617.386	1	9
617.725	1	2
618.064	1	5
618.404	1	5
618.743	1	9
619.082	1	14
619.422	1	8
619.761	1	-2
620.100	1	6
620.440	1	9
620.779	1	-1
621.118	1	7
621.458	1	2
621.797	1	3
622.136	1	1
622.476	1	-5
622.815	1	5
623.154	1	-4
623.494	1	-7
623.833	1	4
624.172	1	1
624.511	1	0
624.851	1	2
625.190	1	-2
625.529	1	-5
625.869	1	9
626.208	1	0
626.547	1	0
626.886	1	-3
627.226	1	14
627.565	1	2
627.904	1	-3
628.243	1	14
628.583	1	12
628.922	1	11
629.261	1	1
629.600	1	3
629.940	1	8
630.279	1	10
630.618	1	6
630.957	1	4
631.297	1	5
631.636	1	2
631.975	1	2
632.314	1	-1
632.653	1	5
632.993	1	-2
633.332	1	0
633.671	1	6
634.010	1	-3
634.349	1	10
634.689	1	0
635.028	1	-2
635.367	1	6
635.706	1	-1
636.045	1	-1
636.384	1	11
636.724	1	5
637.063	1	-2
637.402	1	6
637.741	1	2
638.080	1	4
638.419	1	-1
638.759	1	-3
639.098	1	0
639.437	1	7
639.776	1	1
640.115	1	-1
640.454	1	2
640.793	1	2
641.132	1	0
641.472	1	15
641.811	1	0
642.150	1	10
642.489	1	11
642.828	1	12
643.167	1	4
643.506	1	-7
643.845	1	8
644.184	1	8
644.524	1	1
644.863	1	3
645.202	1	-3
645.541	1	-5
645.880	1	8
646.219	1	2
646.558	1	-3
646.897	1	-8
647.236	1	-3
647.575	1	5
647.914	1	8
648.253	1	6
648.592	1	8
648.931	1	6
649.270	1	7
649.610	1	10
649.949	1	0
650.288	1	10
650.627	1	0
650.966	1	2
651.305	1	6
651.644	1	19
651.983	1	-1
652.322	1	3
652.661	1	11
653.000	1	-6
653.339	1	-4
653.678	1	11
654.017	1	8
654.356	1	12
654.695	1	20
655.034	1	-2
655.373	1	8
655.712	1	7
656.051	1	-8
656.390	1	8
656.729	1	6
657.068	1	2
657.406	1	4
657.745	1	9
658.084	1	2
658.423	1	7
658.762	1	-1
659.101	1	-2
659.440	1	-3
659.779	1	10
660.118	1	5
660.457	1	0
660.796	1	12
661.135	1	10
661.474	1	11
661.813	1	1
662.152	1	3
662.491	1	-6
662.829	1	13
663.168	1	-1
663.507	1	2
663.846	1	3
664.185	1	0
664.524	1	15
664.863	1	0
665.202	1	8
665.541	1	-4
665.879	1	10
666.218	1	10
666.557	1	-1
666.896	1	9
667.235	1	-2
667.574	1	-3
667.913	1	13
668.251	1	-4
668.590	1	-8
668.929	1	3
669.268	1	-2
669.607	1	-4
669.946	1	3
670.285	1	-2
670.623	1	7
670.962	1	4
671.301	1	5
671.640	1	4
671.979	1	0
672.317	1	11
672.656	1	10
672.995	1	9
673.334	1	2
673.673	1	6
674.011	1	8
674.350	1	5
674.689	1	-2
675.028	1	4
675.367	1	1
675.705	1	-4
676.044	1	-2
676.383	1	-1
676.722	1	1
677.060	1	-5
677.399	1	10
677.738	1	2
678.077	1	-8
678.416	1	1
678.754	1	5
679.093	1	11
679.432	1	-8
679.771	1	6
680.109	1	1
680.448	1	1
680.787	1	-4
681.125	1	-1
681.464	1	8
681.803	1	2
682.142	1	-10
682.480	1	1
682.819	1	0
683.158	1	-4
683.496	1	8
683.835	1	-1
684.174	1	3
684.512	1	-6
684.851	1	3
685.190	1	4
685.529	1	-5
685.867	1	-2
686.206	1	-11
686.545	1	-7
686.883	1	10
687.222	1	-1
687.561	1	1
687.899	1	-1
688.238	1	11
688.577	1	-1
688.746	1	-4