File: Data/GaN_150K_450ms/GaN_sample D_spot15_UVVIS_150 K_200um_450 ms 2x2mm1_276.txt
340.368	1	4
340.710	1	1
341.052	1	11
341.394	1	1
341.737	1	12
342.079	1	8
342.421	1	-5
342.763	1	2
343.105	1	9
343.447	1	1
343.789	1	10
344.131	1	-8
344.473	1	3
344.815	1	-2
345.157	1	8
345.499	1	1
345.841	1	5
346.183	1	2
346.526	1	7
346.868	1	4
347.210	1	-4
347.552	1	8
347.894	1	-3
348.236	1	11
348.578	1	6
348.920	1	6
349.262	1	10
349.604	1	-3
349.946	1	4
350.288	1	-6
350.630	1	-5
350.972	1	4
351.314	1	6
351.656	1	2
351.998	1	-9
352.340	1	12
352.682	1	-9
353.024	1	8
353.366	1	5
353.708	1	13
354.050	1	-1
354.392	1	-11
354.734	1	9
355.076	1	13
355.418	1	4
355.760	1	0
356.102	1	2
356.444	1	9
356.785	1	8
357.127	1	5
357.469	1	6
357.811	1	0
358.153	1	-10
358.495	1	1
358.837	1	12
359.179	1	8
359.521	1	-1
359.863	1	1
360.205	1	9
360.547	1	7
360.889	1	-4
361.231	1	-2
361.572	1	8
361.914	1	7
362.256	1	18
362.598	1	6
362.940	1	-3
363.282	1	-1
363.624	1	13
363.966	1	5
364.308	1	12
364.649	1	7
364.991	1	10
365.333	1	11
365.675	1	15
366.017	1	12
366.359	1	10
366.701	1	10
367.042	1	19
367.384	1	5
367.726	1	11
368.068	1	20
368.410	1	10
368.752	1	23
369.093	1	7
369.435	1	17
369.777	1	19
370.119	1	14
370.461	1	9
370.803	1	9
371.144	1	11
371.486	1	6
371.828	1	1
372.170	1	3
372.512	1	8
372.853	1	19
373.195	1	7
373.537	1	-5
373.879	1	5
374.220	1	15
374.562	1	15
374.904	1	13
375.246	1	5
375.588	1	4
375.929	1	6
376.271	1	9
376.613	1	8
376.955	1	6
377.296	1	6
377.638	1	-2
377.980	1	8
378.321	1	6
378.663	1	0
379.005	1	6
379.347	1	6
379.688	1	10
380.030	1	12
380.372	1	6
380.714	1	15
381.055	1	6
381.397	1	-4
381.739	1	-5
382.080	1	10
382.422	1	8
382.764	1	-6
383.105	1	4
383.447	1	6
383.789	1	1
384.130	1	5
384.472	1	2
384.814	1	16
385.156	1	4
385.497	1	11
385.839	1	1
386.180	1	-5
386.522	1	1
386.864	1	0
387.205	1	2
387.547	1	1
387.889	1	4
388.230	1	8
388.572	1	-2
388.914	1	0
389.255	1	-1
389.597	1	3
389.939	1	14
390.280	1	9
390.622	1	-11
390.963	1	-3
391.305	1	1
391.647	1	3
391.988	1	0
392.330	1	-6
392.671	1	6
393.013	1	8
393.355	1	8
393.696	1	1
394.038	1	6
394.379	1	3
394.721	1	6
395.062	1	-10
395.404	1	10
395.746	1	0
396.087	1	11
396.429	1	6
396.770	1	5
397.112	1	6
397.453	1	-3
397.795	1	-8
398.136	1	0
398.478	1	1
398.819	1	2
399.161	1	3
399.503	1	5
399.844	1	9
400.186	1	8
400.527	1	11
400.869	1	5
401.210	1	8
401.552	1	3
401.893	1	4
402.235	1	6
402.576	1	0
402.918	1	-7
403.259	1	1
403.601	1	16
403.942	1	-2
404.284	1	17
404.625	1	-7
404.967	1	0
405.308	1	-6
405.649	1	3
405.991	1	4
406.332	1	4
406.674	1	2
407.015	1	2
407.357	1	6
407.698	1	6
408.040	1	17
408.381	1	-4
408.722	1	7
409.064	1	8
409.405	1	12
409.747	1	3
410.088	1	3
410.430	1	10
410.771	1	5
411.112	1	5
411.454	1	7
411.795	1	7
412.137	1	-5
412.478	1	4
412.819	1	3
413.161	1	-1
413.502	1	9
413.844	1	13
414.185	1	-3
414.526	1	-2
414.868	1	-5
415.209	1	6
415.550	1	1
415.892	1	9
416.233	1	-1
416.575	1	-6
416.916	1	-9
417.257	1	-1
417.599	1	6
417.940	1	0
418.281	1	16
418.623	1	10
418.964	1	7
419.305	1	2
419.647	1	0
419.988	1	11
420.329	1	-1
420.671	1	5
421.012	1	0
421.353	1	10
421.695	1	7
422.036	1	14
422.377	1	-3
422.718	1	12
423.060	1	13
423.401	1	-5
423.742	1	4
424.084	1	-1
424.425	1	10
424.766	1	7
425.107	1	7
425.449	1	3
425.790	1	6
426.131	1	-1
426.472	1	7
426.814	1	0
427.155	1	7
427.496	1	-6
427.837	1	-2
428.179	1	11
428.520	1	3
428.861	1	17
429.202	1	0
429.544	1	-3
429.885	1	6
430.226	1	-7
430.567	1	-3
430.909	1	1
431.250	1	3
431.591	1	7
431.932	1	2
432.273	1	10
432.615	1	-3
432.956	1	3
433.297	1	-5
433.638	1	13
433.979	1	-9
434.320	1	6
434.662	1	9
435.003	1	12
435.344	1	4
435.685	1	2
436.026	1	-3
436.368	1	-3
436.709	1	5
437.050	1	9
437.391	1	4
437.732	1	6
438.073	1	-4
438.414	1	10
438.756	1	1
439.097	1	9
439.438	1	-6
439.779	1	5
440.120	1	-4
440.461	1	14
440.802	1	8
441.143	1	2
441.485	1	2
441.826	1	2
442.167	1	9
442.508	1	9
442.849	1	-1
443.190	1	8
443.531	1	0
443.872	1	-6
444.213	1	-4
444.554	1	10
444.895	1	8
445.237	1	12
445.578	1	-6
445.919	1	-4
446.260	1	10
446.601	1	3
446.942	1	-7
447.283	1	10
447.624	1	-1
447.965	1	-3
448.306	1	3
448.647	1	2
448.988	1	4
449.329	1	7
449.670	1	-9
450.011	1	-1
450.352	1	-5
450.693	1	18
451.034	1	1
451.375	1	2
451.716	1	-1
452.057	1	-4
452.398	1	6
452.739	1	-4
453.080	1	5
453.421	1	5
453.762	1	5
454.103	1	-2
454.444	1	0
454.785	1	3
455.126	1	0
455.467	1	-7
455.808	1	0
456.149	1	2
456.490	1	-7
456.831	1	4
457.172	1	5
457.513	1	9
457.854	1	2
458.195	1	7
458.536	1	4
458.877	1	9
459.218	1	7
459.559	1	0
459.899	1	0
460.240	1	-4
460.581	1	-6
460.922	1	-7
461.263	1	11
461.604	1	2
461.945	1	-2
462.286	1	-3
462.627	1	6
462.968	1	14
463.309	1	6
463.649	1	-6
463.990	1	-8
464.331	1	6
464.672	1	5
465.013	1	-4
465.354	1	9
465.695	1	3
466.036	1	11
466.376	1	14
466.717	1	-4
467.058	1	3
467.399	1	-4
467.740	1	11
468.081	1	3
468.422	1	2
468.762	1	8
469.103	1	-3
469.444	1	-1
469.785	1	-13
470.126	1	4
470.467	1	8
470.807	1	-3
471.148	1	-6
471.489	1	1
471.830	1	-5
472.171	1	1
472.511	1	2
472.852	1	-2
473.193	1	6
473.534	1	-2
473.875	1	2
474.215	1	-4
474.556	1	-6
474.897	1	-3
475.238	1	6
475.578	1	-2
475.919	1	-6
476.260	1	-8
476.601	1	-4
476.942	1	-2
477.282	1	-9
477.623	1	0
477.964	1	15
478.305	1	1
478.645	1	0
478.986	1	9
479.327	1	13
479.667	1	-4
480.008	1	5
480.349	1	-7
480.690	1	6
481.030	1	4
481.371	1	-6
481.712	1	15
482.053	1	6
482.393	1	4
482.734	1	7
483.075	1	7
483.415	1	3
483.756	1	-2
484.097	1	7
484.437	1	7
484.778	1	7
485.119	1	-5
485.459	1	4
485.800	1	-4
486.141	1	9
486.481	1	-11
486.822	1	12
487.163	1	-2
487.503	1	1
487.844	1	-5
488.185	1	1
488.525	1	-10
488.866	1	-4
489.207	1	5
489.547	1	-4
489.888	1	-1
490.228	1	7
490.569	1	-2
490.910	1	-3
491.250	1	4
491.591	1	-2
491.932	1	6
492.272	1	-6
492.613	1	0
492.953	1	-4
493.294	1	4
493.635	1	7
493.975	1	4
494.316	1	4
494.656	1	-4
494.997	1	1
495.337	1	-5
495.678	1	4
496.019	1	0
496.359	1	1
496.700	1	6
497.040	1	5
497.381	1	1
497.721	1	-13
498.062	1	1
498.403	1	5
498.743	1	2
499.084	1	3
499.424	1	-8
499.765	1	11
500.105	1	8
500.446	1	4
500.786	1	-4
501.127	1	11
501.467	1	3
501.808	1	7
502.148	1	1
502.489	1	-4
502.829	1	0
503.170	1	11
503.510	1	1
503.851	1	3
504.191	1	2
504.532	1	7
504.872	1	-2
505.213	1	2
505.553	1	2
505.894	1	2
506.234	1	12
506.575	1	18
506.915	1	8
507.256	1	2
507.596	1	10
507.936	1	5
508.277	1	7
508.617	1	6
508.958	1	12
509.298	1	7
509.639	1	-7
509.979	1	6
510.319	1	8
510.660	1	2
511.000	1	-3
511.341	1	13
511.681	1	2
512.022	1	-15
512.362	1	5
512.702	1	-8
513.043	1	4
513.383	1	-4
513.724	1	0
514.064	1	8
514.404	1	13
514.745	1	4
515.085	1	0
515.425	1	5
515.766	1	5
516.106	1	1
516.447	1	8
516.787	1	-1
517.127	1	9
517.468	1	5
517.808	1	-3
518.148	1	4
518.489	1	3
518.829	1	5
519.169	1	0
519.510	1	-11
519.850	1	-1
520.190	1	3
520.531	1	1
520.871	1	7
521.211	1	3
521.552	1	-2
521.892	1	9
522.232	1	3
522.573	1	3
522.913	1	8
523.253	1	11
523.593	1	3
523.934	1	7
524.274	1	1
524.614	1	6
524.955	1	-1
525.295	1	22
525.635	1	8
525.975	1	-4
526.316	1	-10
526.656	1	7
526.996	1	-7
527.337	1	12
527.677	1	5
528.017	1	1
528.357	1	7
528.698	1	7
529.038	1	3
529.378	1	2
529.718	1	0
530.058	1	6
530.399	1	3
530.739	1	10
531.079	1	5
531.419	1	6
531.760	1	12
532.100	1	9
532.440	1	-1
532.780	1	4
533.120	1	-2
533.461	1	-3
533.801	1	12
534.141	1	-2
534.481	1	17
534.821	1	8
535.162	1	6
535.502	1	11
535.842	1	4
536.182	1	-2
536.522	1	-1
536.862	1	1
537.203	1	-6
537.543	1	13
537.883	1	1
538.223	1	9
538.563	1	2
538.903	1	-4
539.243	1	0
539.584	1	-4
539.924	1	0
540.264	1	19
540.604	1	10
540.944	1	-1
541.284	1	-3
541.624	1	1
541.964	1	2
542.305	1	7
542.645	1	2
542.985	1	-1
543.325	1	16
543.665	1	2
544.005	1	1
544.345	1	13
544.685	1	-3
545.025	1	7
545.365	1	0
545.705	1	5
546.045	1	11
546.386	1	10
546.726	1	5
547.066	1	-4
547.406	1	-6
547.746	1	-2
548.086	1	2
548.426	1	3
548.766	1	5
549.106	1	7
549.446	1	1
549.786	1	11
550.126	1	-1
550.466	1	1
550.806	1	8
551.146	1	7
551.486	1	4
551.826	1	4
552.166	1	5
552.506	1	-13
552.846	1	0
553.186	1	-3
553.526	1	4
553.866	1	4
554.206	1	14
554.546	1	-4
554.886	1	6
555.226	1	3
555.566	1	9
555.906	1	5
556.246	1	2
556.586	1	7
556.926	1	2
557.266	1	0
557.606	1	-2
557.946	1	10
558.286	1	-14
558.626	1	0
558.966	1	1
559.306	1	10
559.646	1	9
559.986	1	4
560.325	1	3
560.665	1	-8
561.005	1	0
561.345	1	-2
561.685	1	5
562.025	1	2
562.365	1	-2
562.705	1	9
563.045	1	-1
563.385	1	0
563.725	1	0
564.064	1	-3
564.404	1	-4
564.744	1	2
565.084	1	2
565.424	1	-11
565.764	1	0
566.104	1	11
566.444	1	12
566.783	1	7
567.123	1	-3
567.463	1	5
567.803	1	10
568.143	1	8
568.483	1	9
568.823	1	-1
569.162	1	3
569.502	1	5
569.842	1	-2
570.182	1	-8
570.522	1	-3
570.862	1	-14
571.201	1	6
571.541	1	3
571.881	1	-4
572.221	1	4
572.561	1	8
572.900	1	14
573.240	1	0
573.580	1	6
573.920	1	4
574.260	1	1
574.599	1	12
574.939	1	5
575.279	1	0
575.619	1	-7
575.959	1	-3
576.298	1	0
576.638	1	16
576.978	1	6
577.318	1	0
577.657	1	-5
577.997	1	7
578.337	1	8
578.677	1	7
579.016	1	0
579.356	1	-2
579.696	1	2
580.036	1	-3
580.375	1	7
580.715	1	2
581.055	1	-10
581.394	1	7
581.734	1	2
582.074	1	5
582.414	1	5
582.753	1	1
583.093	1	6
583.433	1	9
583.772	1	8
584.112	1	8
584.452	1	6
584.791	1	3
585.131	1	8
585.471	1	0
585.811	1	5
586.150	1	8
586.490	1	-7
586.830	1	8
587.169	1	6
587.509	1	5
587.849	1	11
588.188	1	10
588.528	1	-1
588.867	1	-3
589.207	1	-1
589.547	1	2
589.886	1	-5
590.226	1	-2
590.566	1	6
590.905	1	-3
591.245	1	0
591.585	1	-5
591.924	1	-3
592.264	1	5
592.603	1	-10
592.943	1	6
593.283	1	7
593.622	1	2
593.962	1	11
594.301	1	0
594.641	1	5
594.981	1	13
595.320	1	12
595.660	1	5
595.999	1	9
596.339	1	1
596.678	1	-5
597.018	1	-5
597.358	1	11
597.697	1	-4
598.037	1	8
598.376	1	0
598.716	1	4
599.055	1	4
599.395	1	-1
599.734	1	0
600.074	1	-8
600.413	1	-4
600.753	1	-1
601.092	1	-10
601.432	1	-8
601.771	1	18
602.111	1	5
602.451	1	0
602.790	1	3
603.130	1	-4
603.469	1	2
603.809	1	1
604.148	1	-6
604.487	1	7
604.827	1	2
605.166	1	-5
605.506	1	-7
605.845	1	10
606.185	1	3
606.524	1	-7
606.864	1	12
607.203	1	0
607.543	1	0
607.882	1	7
608.222	1	-2
608.561	1	7
608.901	1	12
609.240	1	10
609.579	1	-4
609.919	1	-12
610.258	1	12
610.598	1	-7
610.937	1	2
611.277	1	3
611.616	1	17
611.955	1	-1
612.295	1	9
612.634	1	1
612.974	1	-6
613.313	1	1
613.652	1	12
613.992	1	-1
614.331	1	13
614.671	1	8
615.010	1	-1
615.349	1	5
615.689	1	2
616.028	1	15
616.368	1	4
616.707	1	2
617.046	1	5
617.386	1	14
617.725	1	2
618.064	1	1
618.404	1	2
618.743	1	6
619.082	1	13
619.422	1	8
619.761	1	2
620.100	1	1
620.440	1	11
620.779	1	2
621.118	1	20
621.458	1	-5
621.797	1	7
622.136	1	-4
622.476	1	5
622.815	1	10
623.154	1	-5
623.494	1	-12
623.833	1	2
624.172	1	3
624.511	1	-9
624.851	1	-1
625.190	1	-2
625.529	1	-2
625.869	1	10
626.208	1	0
626.547	1	-4
626.886	1	-2
627.226	1	5
627.565	1	12
627.904	1	-2
628.243	1	5
628.583	1	4
628.922	1	11
629.261	1	9
629.600	1	3
629.940	1	6
630.279	1	2
630.618	1	3
630.957	1	10
631.297	1	3
631.636	1	-3
631.975	1	6
632.314	1	5
632.653	1	-6
632.993	1	1
633.332	1	1
633.671	1	12
634.010	1	8
634.349	1	6
634.689	1	5
635.028	1	-4
635.367	1	4
635.706	1	-3
636.045	1	-4
636.384	1	3
636.724	1	9
637.063	1	-7
637.402	1	1
637.741	1	-1
638.080	1	2
638.419	1	0
638.759	1	7
639.098	1	-1
639.437	1	4
639.776	1	0
640.115	1	-4
640.454	1	-4
640.793	1	4
641.132	1	9
641.472	1	11
641.811	1	2
642.150	1	-1
642.489	1	-2
642.828	1	7
643.167	1	5
643.506	1	-2
643.845	1	5
644.184	1	10
644.524	1	6
644.863	1	0
645.202	1	5
645.541	1	7
645.880	1	8
646.219	1	2
646.558	1	-5
646.897	1	-12
647.236	1	-6
647.575	1	12
647.914	1	3
648.253	1	-1
648.592	1	6
648.931	1	7
649.270	1	17
649.610	1	4
649.949	1	-7
650.288	1	1
650.627	1	-3
650.966	1	7
651.305	1	1
651.644	1	11
651.983	1	-4
652.322	1	8
652.661	1	8
653.000	1	8
653.339	1	4
653.678	1	14
654.017	1	5
654.356	1	12
654.695	1	15
655.034	1	3
655.373	1	1
655.712	1	4
656.051	1	2
656.390	1	1
656.729	1	10
657.068	1	5
657.406	1	6
657.745	1	9
658.084	1	1
658.423	1	9
658.762	1	-4
659.101	1	1
659.440	1	3
659.779	1	11
660.118	1	0
660.457	1	3
660.796	1	19
661.135	1	17
661.474	1	-5
661.813	1	-2
662.152	1	-3
662.491	1	-6
662.829	1	-4
663.168	1	3
663.507	1	-3
663.846	1	2
664.185	1	5
664.524	1	7
664.863	1	-6
665.202	1	4
665.541	1	4
665.879	1	4
666.218	1	3
666.557	1	-5
666.896	1	4
667.235	1	-9
667.574	1	-4
667.913	1	11
668.251	1	-9
668.590	1	-9
668.929	1	4
669.268	1	-2
669.607	1	-9
669.946	1	5
670.285	1	-2
670.623	1	-5
670.962	1	-3
671.301	1	-3
671.640	1	5
671.979	1	5
672.317	1	4
672.656	1	8
672.995	1	2
673.334	1	2
673.673	1	13
674.011	1	9
674.350	1	1
674.689	1	-4
675.028	1	11
675.367	1	14
675.705	1	-1
676.044	1	4
676.383	1	-4
676.722	1	-4
677.060	1	9
677.399	1	12
677.738	1	3
678.077	1	-8
678.416	1	-3
678.754	1	4
679.093	1	14
679.432	1	-4
679.771	1	2
680.109	1	-4
680.448	1	1
680.787	1	-15
681.125	1	-1
681.464	1	3
681.803	1	-3
682.142	1	4
682.480	1	6
682.819	1	5
683.158	1	0
683.496	1	8
683.835	1	-2
684.174	1	-7
684.512	1	6
684.851	1	1
685.190	1	2
685.529	1	2
685.867	1	-1
686.206	1	-6
686.545	1	-1
686.883	1	5
687.222	1	0
687.561	1	2
687.899	1	1
688.238	1	11
688.577	1	2
688.746	1	-2