File: Data/GaN_150K_450ms/GaN_sample D_spot15_UVVIS_150 K_200um_450 ms 2x2mm1_69.txt
340.368	1	-1
340.710	1	8
341.052	1	1
341.394	1	-1
341.737	1	11
342.079	1	2
342.421	1	12
342.763	1	4
343.105	1	-1
343.447	1	13
343.789	1	10
344.131	1	-2
344.473	1	4
344.815	1	8
345.157	1	10
345.499	1	9
345.841	1	5
346.183	1	4
346.526	1	10
346.868	1	2
347.210	1	1
347.552	1	21
347.894	1	4
348.236	1	12
348.578	1	7
348.920	1	7
349.262	1	10
349.604	1	-3
349.946	1	9
350.288	1	-2
350.630	1	0
350.972	1	14
351.314	1	5
351.656	1	9
351.998	1	8
352.340	1	16
352.682	1	-4
353.024	1	20
353.366	1	15
353.708	1	13
354.050	1	1
354.392	1	4
354.734	1	2
355.076	1	20
355.418	1	13
355.760	1	16
356.102	1	12
356.444	1	23
356.785	1	14
357.127	1	29
357.469	1	24
357.811	1	16
358.153	1	13
358.495	1	15
358.837	1	33
359.179	1	39
359.521	1	41
359.863	1	31
360.205	1	44
360.547	1	50
360.889	1	38
361.231	1	58
361.572	1	63
361.914	1	65
362.256	1	67
362.598	1	83
362.940	1	86
363.282	1	87
363.624	1	102
363.966	1	104
364.308	1	128
364.649	1	140
364.991	1	163
365.333	1	157
365.675	1	198
366.017	1	210
366.359	1	213
366.701	1	247
367.042	1	256
367.384	1	264
367.726	1	268
368.068	1	280
368.410	1	260
368.752	1	281
369.093	1	264
369.435	1	259
369.777	1	254
370.119	1	238
370.461	1	219
370.803	1	200
371.144	1	209
371.486	1	181
371.828	1	177
372.170	1	161
372.512	1	140
372.853	1	152
373.195	1	146
373.537	1	123
373.879	1	117
374.220	1	129
374.562	1	116
374.904	1	108
375.246	1	100
375.588	1	84
375.929	1	94
376.271	1	83
376.613	1	85
376.955	1	89
377.296	1	74
377.638	1	73
377.980	1	67
378.321	1	70
378.663	1	68
379.005	1	60
379.347	1	60
379.688	1	62
380.030	1	62
380.372	1	51
380.714	1	61
381.055	1	44
381.397	1	37
381.739	1	34
382.080	1	43
382.422	1	54
382.764	1	55
383.105	1	35
383.447	1	36
383.789	1	32
384.130	1	41
384.472	1	45
384.814	1	47
385.156	1	45
385.497	1	50
385.839	1	44
386.180	1	39
386.522	1	42
386.864	1	33
387.205	1	40
387.547	1	44
387.889	1	36
388.230	1	35
388.572	1	17
388.914	1	35
389.255	1	34
389.597	1	26
389.939	1	34
390.280	1	20
390.622	1	17
390.963	1	24
391.305	1	15
391.647	1	26
391.988	1	21
392.330	1	27
392.671	1	18
393.013	1	27
393.355	1	28
393.696	1	24
394.038	1	20
394.379	1	29
394.721	1	23
395.062	1	11
395.404	1	22
395.746	1	14
396.087	1	18
396.429	1	22
396.770	1	18
397.112	1	22
397.453	1	8
397.795	1	15
398.136	1	24
398.478	1	20
398.819	1	25
399.161	1	32
399.503	1	29
399.844	1	9
400.186	1	19
400.527	1	20
400.869	1	12
401.210	1	17
401.552	1	16
401.893	1	21
402.235	1	8
402.576	1	13
402.918	1	12
403.259	1	16
403.601	1	12
403.942	1	18
404.284	1	24
404.625	1	20
404.967	1	21
405.308	1	6
405.649	1	16
405.991	1	19
406.332	1	15
406.674	1	15
407.015	1	21
407.357	1	19
407.698	1	22
408.040	1	26
408.381	1	8
408.722	1	18
409.064	1	30
409.405	1	19
409.747	1	2
410.088	1	24
410.430	1	28
410.771	1	19
411.112	1	15
411.454	1	19
411.795	1	17
412.137	1	13
412.478	1	19
412.819	1	21
413.161	1	17
413.502	1	23
413.844	1	27
414.185	1	12
414.526	1	7
414.868	1	14
415.209	1	13
415.550	1	23
415.892	1	26
416.233	1	19
416.575	1	10
416.916	1	14
417.257	1	10
417.599	1	19
417.940	1	7
418.281	1	22
418.623	1	12
418.964	1	31
419.305	1	13
419.647	1	12
419.988	1	20
420.329	1	20
420.671	1	28
421.012	1	15
421.353	1	24
421.695	1	24
422.036	1	22
422.377	1	10
422.718	1	25
423.060	1	22
423.401	1	12
423.742	1	25
424.084	1	18
424.425	1	13
424.766	1	22
425.107	1	18
425.449	1	18
425.790	1	8
426.131	1	12
426.472	1	24
426.814	1	15
427.155	1	10
427.496	1	15
427.837	1	17
428.179	1	30
428.520	1	20
428.861	1	26
429.202	1	0
429.544	1	21
429.885	1	15
430.226	1	9
430.567	1	11
430.909	1	14
431.250	1	15
431.591	1	24
431.932	1	7
432.273	1	32
432.615	1	14
432.956	1	14
433.297	1	12
433.638	1	19
433.979	1	17
434.320	1	15
434.662	1	9
435.003	1	22
435.344	1	21
435.685	1	5
436.026	1	8
436.368	1	14
436.709	1	3
437.050	1	10
437.391	1	17
437.732	1	20
438.073	1	8
438.414	1	15
438.756	1	11
439.097	1	8
439.438	1	11
439.779	1	13
440.120	1	10
440.461	1	21
440.802	1	7
441.143	1	16
441.485	1	15
441.826	1	25
442.167	1	14
442.508	1	19
442.849	1	10
443.190	1	17
443.531	1	19
443.872	1	7
444.213	1	6
444.554	1	19
444.895	1	14
445.237	1	19
445.578	1	15
445.919	1	16
446.260	1	21
446.601	1	15
446.942	1	10
447.283	1	20
447.624	1	5
447.965	1	17
448.306	1	14
448.647	1	16
448.988	1	16
449.329	1	17
449.670	1	9
450.011	1	14
450.352	1	7
450.693	1	15
451.034	1	11
451.375	1	11
451.716	1	11
452.057	1	9
452.398	1	17
452.739	1	16
453.080	1	13
453.421	1	20
453.762	1	17
454.103	1	13
454.444	1	12
454.785	1	13
455.126	1	14
455.467	1	7
455.808	1	19
456.149	1	8
456.490	1	0
456.831	1	4
457.172	1	12
457.513	1	6
457.854	1	13
458.195	1	2
458.536	1	22
458.877	1	8
459.218	1	12
459.559	1	11
459.899	1	5
460.240	1	2
460.581	1	8
460.922	1	9
461.263	1	13
461.604	1	6
461.945	1	6
462.286	1	10
462.627	1	7
462.968	1	12
463.309	1	14
463.649	1	8
463.990	1	2
464.331	1	14
464.672	1	6
465.013	1	17
465.354	1	23
465.695	1	11
466.036	1	19
466.376	1	20
466.717	1	3
467.058	1	10
467.399	1	3
467.740	1	25
468.081	1	6
468.422	1	13
468.762	1	9
469.103	1	16
469.444	1	11
469.785	1	5
470.126	1	14
470.467	1	7
470.807	1	13
471.148	1	1
471.489	1	29
471.830	1	15
472.171	1	18
472.511	1	15
472.852	1	9
473.193	1	11
473.534	1	13
473.875	1	8
474.215	1	6
474.556	1	5
474.897	1	12
475.238	1	15
475.578	1	1
475.919	1	11
476.260	1	8
476.601	1	17
476.942	1	11
477.282	1	2
477.623	1	11
477.964	1	11
478.305	1	11
478.645	1	24
478.986	1	20
479.327	1	17
479.667	1	9
480.008	1	14
480.349	1	11
480.690	1	16
481.030	1	4
481.371	1	1
481.712	1	22
482.053	1	21
482.393	1	16
482.734	1	13
483.075	1	12
483.415	1	16
483.756	1	13
484.097	1	21
484.437	1	20
484.778	1	13
485.119	1	9
485.459	1	4
485.800	1	10
486.141	1	21
486.481	1	18
486.822	1	17
487.163	1	17
487.503	1	18
487.844	1	20
488.185	1	21
488.525	1	14
488.866	1	14
489.207	1	16
489.547	1	24
489.888	1	35
490.228	1	15
490.569	1	11
490.910	1	25
491.250	1	16
491.591	1	22
491.932	1	30
492.272	1	14
492.613	1	12
492.953	1	17
493.294	1	19
493.635	1	31
493.975	1	37
494.316	1	29
494.656	1	31
494.997	1	26
495.337	1	28
495.678	1	25
496.019	1	18
496.359	1	23
496.700	1	37
497.040	1	25
497.381	1	28
497.721	1	14
498.062	1	32
498.403	1	35
498.743	1	45
499.084	1	30
499.424	1	32
499.765	1	34
500.105	1	48
500.446	1	34
500.786	1	24
501.127	1	43
501.467	1	43
501.808	1	45
502.148	1	33
502.489	1	41
502.829	1	37
503.170	1	45
503.510	1	33
503.851	1	46
504.191	1	41
504.532	1	47
504.872	1	35
505.213	1	43
505.553	1	55
505.894	1	47
506.234	1	47
506.575	1	53
506.915	1	50
507.256	1	49
507.596	1	54
507.936	1	58
508.277	1	57
508.617	1	53
508.958	1	62
509.298	1	47
509.639	1	43
509.979	1	44
510.319	1	53
510.660	1	45
511.000	1	51
511.341	1	61
511.681	1	56
512.022	1	46
512.362	1	55
512.702	1	37
513.043	1	47
513.383	1	46
513.724	1	52
514.064	1	57
514.404	1	55
514.745	1	57
515.085	1	56
515.425	1	59
515.766	1	58
516.106	1	56
516.447	1	57
516.787	1	62
517.127	1	61
517.468	1	65
517.808	1	49
518.148	1	64
518.489	1	66
518.829	1	68
519.169	1	51
519.510	1	51
519.850	1	67
520.190	1	57
520.531	1	66
520.871	1	63
521.211	1	69
521.552	1	60
521.892	1	66
522.232	1	67
522.573	1	68
522.913	1	65
523.253	1	74
523.593	1	76
523.934	1	65
524.274	1	66
524.614	1	67
524.955	1	60
525.295	1	67
525.635	1	61
525.975	1	60
526.316	1	65
526.656	1	72
526.996	1	50
527.337	1	64
527.677	1	74
528.017	1	67
528.357	1	77
528.698	1	71
529.038	1	56
529.378	1	68
529.718	1	69
530.058	1	73
530.399	1	62
530.739	1	80
531.079	1	70
531.419	1	65
531.760	1	67
532.100	1	84
532.440	1	78
532.780	1	71
533.120	1	60
533.461	1	65
533.801	1	62
534.141	1	68
534.481	1	81
534.821	1	65
535.162	1	60
535.502	1	61
535.842	1	66
536.182	1	69
536.522	1	62
536.862	1	70
537.203	1	58
537.543	1	69
537.883	1	60
538.223	1	67
538.563	1	50
538.903	1	53
539.243	1	66
539.584	1	60
539.924	1	50
540.264	1	66
540.604	1	70
540.944	1	58
541.284	1	51
541.624	1	61
541.964	1	53
542.305	1	63
542.645	1	51
542.985	1	52
543.325	1	64
543.665	1	51
544.005	1	61
544.345	1	61
544.685	1	54
545.025	1	63
545.365	1	60
545.705	1	54
546.045	1	67
546.386	1	55
546.726	1	59
547.066	1	59
547.406	1	59
547.746	1	55
548.086	1	64
548.426	1	60
548.766	1	63
549.106	1	59
549.446	1	66
549.786	1	54
550.126	1	60
550.466	1	56
550.806	1	72
551.146	1	57
551.486	1	52
551.826	1	48
552.166	1	52
552.506	1	50
552.846	1	55
553.186	1	37
553.526	1	44
553.866	1	43
554.206	1	56
554.546	1	54
554.886	1	40
555.226	1	54
555.566	1	49
555.906	1	52
556.246	1	47
556.586	1	46
556.926	1	50
557.266	1	53
557.606	1	35
557.946	1	59
558.286	1	33
558.626	1	45
558.966	1	48
559.306	1	40
559.646	1	44
559.986	1	45
560.325	1	44
560.665	1	40
561.005	1	34
561.345	1	47
561.685	1	45
562.025	1	38
562.365	1	38
562.705	1	32
563.045	1	45
563.385	1	40
563.725	1	25
564.064	1	43
564.404	1	37
564.744	1	47
565.084	1	43
565.424	1	34
565.764	1	42
566.104	1	46
566.444	1	48
566.783	1	36
567.123	1	30
567.463	1	48
567.803	1	45
568.143	1	36
568.483	1	48
568.823	1	27
569.162	1	28
569.502	1	36
569.842	1	41
570.182	1	38
570.522	1	36
570.862	1	31
571.201	1	44
571.541	1	26
571.881	1	24
572.221	1	31
572.561	1	36
572.900	1	34
573.240	1	33
573.580	1	35
573.920	1	41
574.260	1	36
574.599	1	33
574.939	1	32
575.279	1	33
575.619	1	21
575.959	1	33
576.298	1	30
576.638	1	34
576.978	1	33
577.318	1	28
577.657	1	25
577.997	1	31
578.337	1	31
578.677	1	34
579.016	1	32
579.356	1	24
579.696	1	34
580.036	1	35
580.375	1	29
580.715	1	34
581.055	1	25
581.394	1	28
581.734	1	44
582.074	1	29
582.414	1	21
582.753	1	27
583.093	1	36
583.433	1	26
583.772	1	29
584.112	1	28
584.452	1	31
584.791	1	29
585.131	1	17
585.471	1	27
585.811	1	26
586.150	1	22
586.490	1	29
586.830	1	29
587.169	1	23
587.509	1	16
587.849	1	40
588.188	1	25
588.528	1	15
588.867	1	30
589.207	1	15
589.547	1	15
589.886	1	13
590.226	1	11
590.566	1	21
590.905	1	26
591.245	1	10
591.585	1	12
591.924	1	13
592.264	1	16
592.603	1	10
592.943	1	9
593.283	1	16
593.622	1	8
593.962	1	24
594.301	1	11
594.641	1	19
594.981	1	15
595.320	1	27
595.660	1	15
595.999	1	18
596.339	1	17
596.678	1	8
597.018	1	7
597.358	1	12
597.697	1	15
598.037	1	15
598.376	1	4
598.716	1	15
599.055	1	22
599.395	1	12
599.734	1	16
600.074	1	15
600.413	1	24
600.753	1	19
601.092	1	13
601.432	1	6
601.771	1	23
602.111	1	16
602.451	1	12
602.790	1	13
603.130	1	21
603.469	1	16
603.809	1	16
604.148	1	7
604.487	1	18
604.827	1	26
605.166	1	15
605.506	1	7
605.845	1	19
606.185	1	20
606.524	1	4
606.864	1	26
607.203	1	23
607.543	1	20
607.882	1	18
608.222	1	18
608.561	1	13
608.901	1	18
609.240	1	20
609.579	1	10
609.919	1	6
610.258	1	27
610.598	1	9
610.937	1	18
611.277	1	20
611.616	1	13
611.955	1	7
612.295	1	6
612.634	1	23
612.974	1	14
613.313	1	27
613.652	1	31
613.992	1	16
614.331	1	19
614.671	1	6
615.010	1	12
615.349	1	5
615.689	1	6
616.028	1	23
616.368	1	23
616.707	1	3
617.046	1	13
617.386	1	22
617.725	1	10
618.064	1	15
618.404	1	13
618.743	1	12
619.082	1	20
619.422	1	28
619.761	1	2
620.100	1	17
620.440	1	15
620.779	1	12
621.118	1	23
621.458	1	13
621.797	1	9
622.136	1	7
622.476	1	9
622.815	1	15
623.154	1	3
623.494	1	0
623.833	1	14
624.172	1	16
624.511	1	2
624.851	1	14
625.190	1	6
625.529	1	11
625.869	1	17
626.208	1	3
626.547	1	9
626.886	1	8
627.226	1	22
627.565	1	17
627.904	1	5
628.243	1	22
628.583	1	17
628.922	1	17
629.261	1	21
629.600	1	18
629.940	1	17
630.279	1	17
630.618	1	9
630.957	1	15
631.297	1	14
631.636	1	15
631.975	1	16
632.314	1	14
632.653	1	0
632.993	1	9
633.332	1	14
633.671	1	15
634.010	1	6
634.349	1	17
634.689	1	8
635.028	1	6
635.367	1	12
635.706	1	4
636.045	1	5
636.384	1	14
636.724	1	7
637.063	1	0
637.402	1	19
637.741	1	0
638.080	1	16
638.419	1	12
638.759	1	5
639.098	1	8
639.437	1	13
639.776	1	7
640.115	1	2
640.454	1	13
640.793	1	5
641.132	1	15
641.472	1	26
641.811	1	12
642.150	1	6
642.489	1	17
642.828	1	17
643.167	1	7
643.506	1	8
643.845	1	17
644.184	1	14
644.524	1	11
644.863	1	11
645.202	1	13
645.541	1	13
645.880	1	11
646.219	1	13
646.558	1	0
646.897	1	4
647.236	1	0
647.575	1	18
647.914	1	3
648.253	1	22
648.592	1	13
648.931	1	14
649.270	1	14
649.610	1	7
649.949	1	2
650.288	1	11
650.627	1	9
650.966	1	12
651.305	1	10
651.644	1	19
651.983	1	-1
652.322	1	10
652.661	1	7
653.000	1	8
653.339	1	1
653.678	1	17
654.017	1	21
654.356	1	18
654.695	1	18
655.034	1	8
655.373	1	13
655.712	1	17
656.051	1	3
656.390	1	14
656.729	1	12
657.068	1	5
657.406	1	6
657.745	1	25
658.084	1	11
658.423	1	10
658.762	1	10
659.101	1	4
659.440	1	19
659.779	1	18
660.118	1	8
660.457	1	9
660.796	1	11
661.135	1	19
661.474	1	8
661.813	1	10
662.152	1	10
662.491	1	4
662.829	1	16
663.168	1	5
663.507	1	3
663.846	1	8
664.185	1	12
664.524	1	10
664.863	1	5
665.202	1	11
665.541	1	3
665.879	1	10
666.218	1	14
666.557	1	12
666.896	1	6
667.235	1	3
667.574	1	7
667.913	1	13
668.251	1	-4
668.590	1	9
668.929	1	3
669.268	1	11
669.607	1	-1
669.946	1	16
670.285	1	9
670.623	1	2
670.962	1	5
671.301	1	8
671.640	1	14
671.979	1	5
672.317	1	11
672.656	1	16
672.995	1	6
673.334	1	0
673.673	1	13
674.011	1	4
674.350	1	15
674.689	1	1
675.028	1	14
675.367	1	9
675.705	1	11
676.044	1	11
676.383	1	11
676.722	1	6
677.060	1	9
677.399	1	25
677.738	1	2
678.077	1	3
678.416	1	5
678.754	1	7
679.093	1	20
679.432	1	13
679.771	1	11
680.109	1	0
680.448	1	6
680.787	1	4
681.125	1	13
681.464	1	15
681.803	1	10
682.142	1	11
682.480	1	1
682.819	1	15
683.158	1	8
683.496	1	2
683.835	1	20
684.174	1	7
684.512	1	11
684.851	1	9
685.190	1	14
685.529	1	5
685.867	1	10
686.206	1	5
686.545	1	7
686.883	1	25
687.222	1	5
687.561	1	12
687.899	1	13
688.238	1	22
688.577	1	3
688.746	1	8