File: Data/GaN_150K_450ms/GaN_sample D_spot15_UVVIS_150 K_200um_450 ms 2x2mm1_269.txt
340.368	1	1
340.710	1	0
341.052	1	10
341.394	1	-4
341.737	1	5
342.079	1	-3
342.421	1	9
342.763	1	2
343.105	1	7
343.447	1	3
343.789	1	3
344.131	1	-9
344.473	1	3
344.815	1	0
345.157	1	9
345.499	1	2
345.841	1	6
346.183	1	6
346.526	1	9
346.868	1	-5
347.210	1	-2
347.552	1	23
347.894	1	-9
348.236	1	9
348.578	1	-3
348.920	1	5
349.262	1	10
349.604	1	1
349.946	1	-4
350.288	1	-5
350.630	1	-1
350.972	1	12
351.314	1	3
351.656	1	8
351.998	1	6
352.340	1	1
352.682	1	-2
353.024	1	11
353.366	1	2
353.708	1	6
354.050	1	-3
354.392	1	-5
354.734	1	5
355.076	1	5
355.418	1	2
355.760	1	10
356.102	1	6
356.444	1	5
356.785	1	4
357.127	1	-4
357.469	1	-2
357.811	1	0
358.153	1	-10
358.495	1	3
358.837	1	12
359.179	1	11
359.521	1	11
359.863	1	6
360.205	1	14
360.547	1	11
360.889	1	2
361.231	1	4
361.572	1	5
361.914	1	5
362.256	1	21
362.598	1	12
362.940	1	7
363.282	1	10
363.624	1	6
363.966	1	3
364.308	1	13
364.649	1	14
364.991	1	5
365.333	1	18
365.675	1	17
366.017	1	14
366.359	1	5
366.701	1	15
367.042	1	23
367.384	1	5
367.726	1	12
368.068	1	16
368.410	1	21
368.752	1	27
369.093	1	25
369.435	1	21
369.777	1	20
370.119	1	11
370.461	1	10
370.803	1	16
371.144	1	1
371.486	1	19
371.828	1	8
372.170	1	9
372.512	1	12
372.853	1	19
373.195	1	9
373.537	1	-4
373.879	1	-1
374.220	1	12
374.562	1	19
374.904	1	9
375.246	1	5
375.588	1	13
375.929	1	12
376.271	1	6
376.613	1	4
376.955	1	6
377.296	1	9
377.638	1	2
377.980	1	-3
378.321	1	3
378.663	1	5
379.005	1	11
379.347	1	10
379.688	1	16
380.030	1	12
380.372	1	19
380.714	1	1
381.055	1	3
381.397	1	0
381.739	1	-5
382.080	1	1
382.422	1	5
382.764	1	9
383.105	1	2
383.447	1	2
383.789	1	-2
384.130	1	10
384.472	1	0
384.814	1	10
385.156	1	2
385.497	1	11
385.839	1	2
386.180	1	2
386.522	1	8
386.864	1	-6
387.205	1	8
387.547	1	11
387.889	1	-8
388.230	1	7
388.572	1	-5
388.914	1	15
389.255	1	5
389.597	1	3
389.939	1	4
390.280	1	3
390.622	1	-3
390.963	1	-16
391.305	1	-7
391.647	1	-6
391.988	1	6
392.330	1	-3
392.671	1	4
393.013	1	1
393.355	1	12
393.696	1	4
394.038	1	3
394.379	1	10
394.721	1	6
395.062	1	2
395.404	1	8
395.746	1	-4
396.087	1	1
396.429	1	2
396.770	1	6
397.112	1	-3
397.453	1	-5
397.795	1	-2
398.136	1	8
398.478	1	6
398.819	1	-1
399.161	1	5
399.503	1	4
399.844	1	-1
400.186	1	-1
400.527	1	-3
400.869	1	1
401.210	1	5
401.552	1	3
401.893	1	10
402.235	1	6
402.576	1	3
402.918	1	3
403.259	1	-4
403.601	1	14
403.942	1	2
404.284	1	12
404.625	1	1
404.967	1	-2
405.308	1	-8
405.649	1	3
405.991	1	6
406.332	1	3
406.674	1	3
407.015	1	10
407.357	1	0
407.698	1	1
408.040	1	13
408.381	1	-5
408.722	1	6
409.064	1	1
409.405	1	-3
409.747	1	0
410.088	1	10
410.430	1	4
410.771	1	6
411.112	1	-5
411.454	1	7
411.795	1	15
412.137	1	-5
412.478	1	3
412.819	1	-1
413.161	1	10
413.502	1	-1
413.844	1	13
414.185	1	7
414.526	1	-6
414.868	1	-2
415.209	1	5
415.550	1	2
415.892	1	7
416.233	1	1
416.575	1	-6
416.916	1	0
417.257	1	-4
417.599	1	5
417.940	1	-2
418.281	1	1
418.623	1	1
418.964	1	13
419.305	1	12
419.647	1	4
419.988	1	14
420.329	1	2
420.671	1	17
421.012	1	3
421.353	1	11
421.695	1	9
422.036	1	4
422.377	1	-6
422.718	1	5
423.060	1	12
423.401	1	-5
423.742	1	19
424.084	1	3
424.425	1	11
424.766	1	2
425.107	1	7
425.449	1	-2
425.790	1	-2
426.131	1	-3
426.472	1	10
426.814	1	1
427.155	1	1
427.496	1	-1
427.837	1	0
428.179	1	18
428.520	1	7
428.861	1	10
429.202	1	-7
429.544	1	8
429.885	1	8
430.226	1	-9
430.567	1	-18
430.909	1	-4
431.250	1	11
431.591	1	4
431.932	1	11
432.273	1	11
432.615	1	-3
432.956	1	4
433.297	1	6
433.638	1	6
433.979	1	8
434.320	1	-2
434.662	1	7
435.003	1	26
435.344	1	5
435.685	1	2
436.026	1	1
436.368	1	4
436.709	1	-6
437.050	1	0
437.391	1	1
437.732	1	-5
438.073	1	-4
438.414	1	4
438.756	1	-12
439.097	1	6
439.438	1	4
439.779	1	2
440.120	1	1
440.461	1	9
440.802	1	4
441.143	1	-2
441.485	1	-6
441.826	1	-2
442.167	1	5
442.508	1	2
442.849	1	0
443.190	1	2
443.531	1	-2
443.872	1	-5
444.213	1	0
444.554	1	7
444.895	1	-9
445.237	1	6
445.578	1	-2
445.919	1	-4
446.260	1	7
446.601	1	-1
446.942	1	-4
447.283	1	7
447.624	1	-8
447.965	1	3
448.306	1	7
448.647	1	0
448.988	1	4
449.329	1	8
449.670	1	-6
450.011	1	4
450.352	1	-3
450.693	1	5
451.034	1	0
451.375	1	-5
451.716	1	-2
452.057	1	1
452.398	1	8
452.739	1	-2
453.080	1	1
453.421	1	9
453.762	1	6
454.103	1	5
454.444	1	-3
454.785	1	-1
455.126	1	5
455.467	1	6
455.808	1	13
456.149	1	-2
456.490	1	-2
456.831	1	-4
457.172	1	3
457.513	1	1
457.854	1	-4
458.195	1	7
458.536	1	0
458.877	1	-1
459.218	1	4
459.559	1	5
459.899	1	4
460.240	1	-3
460.581	1	1
460.922	1	3
461.263	1	5
461.604	1	4
461.945	1	4
462.286	1	-5
462.627	1	5
462.968	1	3
463.309	1	8
463.649	1	-9
463.990	1	6
464.331	1	5
464.672	1	9
465.013	1	5
465.354	1	16
465.695	1	12
466.036	1	12
466.376	1	5
466.717	1	-13
467.058	1	1
467.399	1	-4
467.740	1	9
468.081	1	-4
468.422	1	2
468.762	1	3
469.103	1	-6
469.444	1	2
469.785	1	0
470.126	1	4
470.467	1	1
470.807	1	10
471.148	1	-8
471.489	1	2
471.830	1	3
472.171	1	6
472.511	1	5
472.852	1	6
473.193	1	11
473.534	1	1
473.875	1	0
474.215	1	4
474.556	1	-12
474.897	1	3
475.238	1	10
475.578	1	-1
475.919	1	-4
476.260	1	-2
476.601	1	10
476.942	1	1
477.282	1	0
477.623	1	4
477.964	1	6
478.305	1	0
478.645	1	-2
478.986	1	1
479.327	1	7
479.667	1	-4
480.008	1	2
480.349	1	2
480.690	1	9
481.030	1	3
481.371	1	-5
481.712	1	15
482.053	1	10
482.393	1	1
482.734	1	5
483.075	1	14
483.415	1	-1
483.756	1	4
484.097	1	23
484.437	1	0
484.778	1	-7
485.119	1	-3
485.459	1	-4
485.800	1	-4
486.141	1	13
486.481	1	-11
486.822	1	5
487.163	1	-7
487.503	1	-3
487.844	1	-4
488.185	1	8
488.525	1	-5
488.866	1	-7
489.207	1	4
489.547	1	-4
489.888	1	7
490.228	1	1
490.569	1	-3
490.910	1	5
491.250	1	1
491.591	1	0
491.932	1	7
492.272	1	-11
492.613	1	-10
492.953	1	6
493.294	1	-8
493.635	1	4
493.975	1	11
494.316	1	0
494.656	1	1
494.997	1	-13
495.337	1	3
495.678	1	2
496.019	1	-4
496.359	1	-5
496.700	1	-3
497.040	1	-2
497.381	1	0
497.721	1	-2
498.062	1	-3
498.403	1	10
498.743	1	5
499.084	1	9
499.424	1	3
499.765	1	-2
500.105	1	-2
500.446	1	-5
500.786	1	-6
501.127	1	19
501.467	1	12
501.808	1	8
502.148	1	-7
502.489	1	0
502.829	1	-8
503.170	1	6
503.510	1	0
503.851	1	4
504.191	1	-1
504.532	1	9
504.872	1	-4
505.213	1	1
505.553	1	2
505.894	1	8
506.234	1	12
506.575	1	19
506.915	1	5
507.256	1	6
507.596	1	-2
507.936	1	14
508.277	1	16
508.617	1	-10
508.958	1	13
509.298	1	-2
509.639	1	-6
509.979	1	5
510.319	1	-2
510.660	1	1
511.000	1	4
511.341	1	7
511.681	1	11
512.022	1	-2
512.362	1	1
512.702	1	-4
513.043	1	4
513.383	1	8
513.724	1	8
514.064	1	11
514.404	1	6
514.745	1	3
515.085	1	10
515.425	1	8
515.766	1	-1
516.106	1	5
516.447	1	14
516.787	1	-2
517.127	1	17
517.468	1	-3
517.808	1	-1
518.148	1	13
518.489	1	5
518.829	1	4
519.169	1	-6
519.510	1	-5
519.850	1	15
520.190	1	3
520.531	1	-3
520.871	1	5
521.211	1	2
521.552	1	-9
521.892	1	7
522.232	1	5
522.573	1	-10
522.913	1	2
523.253	1	9
523.593	1	19
523.934	1	9
524.274	1	7
524.614	1	6
524.955	1	6
525.295	1	7
525.635	1	11
525.975	1	-6
526.316	1	-7
526.656	1	6
526.996	1	0
527.337	1	6
527.677	1	21
528.017	1	-2
528.357	1	7
528.698	1	6
529.038	1	-2
529.378	1	5
529.718	1	0
530.058	1	3
530.399	1	1
530.739	1	2
531.079	1	-7
531.419	1	-2
531.760	1	8
532.100	1	8
532.440	1	2
532.780	1	4
533.120	1	1
533.461	1	3
533.801	1	9
534.141	1	3
534.481	1	10
534.821	1	8
535.162	1	2
535.502	1	-2
535.842	1	-4
536.182	1	-7
536.522	1	-5
536.862	1	-3
537.203	1	10
537.543	1	3
537.883	1	9
538.223	1	17
538.563	1	4
538.903	1	4
539.243	1	-3
539.584	1	4
539.924	1	7
540.264	1	14
540.604	1	11
540.944	1	7
541.284	1	10
541.624	1	1
541.964	1	7
542.305	1	4
542.645	1	6
542.985	1	0
543.325	1	15
543.665	1	-1
544.005	1	1
544.345	1	0
544.685	1	-5
545.025	1	4
545.365	1	9
545.705	1	7
546.045	1	2
546.386	1	1
546.726	1	5
547.066	1	-4
547.406	1	2
547.746	1	1
548.086	1	4
548.426	1	0
548.766	1	-2
549.106	1	8
549.446	1	5
549.786	1	7
550.126	1	-1
550.466	1	-3
550.806	1	18
551.146	1	3
551.486	1	-3
551.826	1	-8
552.166	1	0
552.506	1	-6
552.846	1	10
553.186	1	-2
553.526	1	3
553.866	1	-7
554.206	1	11
554.546	1	10
554.886	1	2
555.226	1	8
555.566	1	-2
555.906	1	4
556.246	1	0
556.586	1	4
556.926	1	-2
557.266	1	4
557.606	1	0
557.946	1	10
558.286	1	-12
558.626	1	5
558.966	1	13
559.306	1	20
559.646	1	4
559.986	1	2
560.325	1	3
560.665	1	0
561.005	1	6
561.345	1	-1
561.685	1	9
562.025	1	0
562.365	1	6
562.705	1	17
563.045	1	5
563.385	1	5
563.725	1	-7
564.064	1	-1
564.404	1	-4
564.744	1	16
565.084	1	4
565.424	1	-6
565.764	1	1
566.104	1	4
566.444	1	11
566.783	1	9
567.123	1	7
567.463	1	2
567.803	1	6
568.143	1	6
568.483	1	8
568.823	1	-1
569.162	1	-8
569.502	1	12
569.842	1	7
570.182	1	3
570.522	1	1
570.862	1	-12
571.201	1	13
571.541	1	0
571.881	1	-2
572.221	1	6
572.561	1	9
572.900	1	5
573.240	1	2
573.580	1	5
573.920	1	6
574.260	1	0
574.599	1	0
574.939	1	1
575.279	1	1
575.619	1	-1
575.959	1	2
576.298	1	-16
576.638	1	7
576.978	1	3
577.318	1	-1
577.657	1	-8
577.997	1	4
578.337	1	-4
578.677	1	-2
579.016	1	7
579.356	1	3
579.696	1	2
580.036	1	-1
580.375	1	6
580.715	1	2
581.055	1	-1
581.394	1	1
581.734	1	-3
582.074	1	-4
582.414	1	-3
582.753	1	5
583.093	1	-3
583.433	1	2
583.772	1	7
584.112	1	5
584.452	1	4
584.791	1	3
585.131	1	10
585.471	1	3
585.811	1	-2
586.150	1	0
586.490	1	7
586.830	1	-2
587.169	1	2
587.509	1	-2
587.849	1	-1
588.188	1	11
588.528	1	2
588.867	1	-5
589.207	1	7
589.547	1	7
589.886	1	12
590.226	1	-2
590.566	1	0
590.905	1	-1
591.245	1	6
591.585	1	-4
591.924	1	1
592.264	1	1
592.603	1	-17
592.943	1	-4
593.283	1	-1
593.622	1	0
593.962	1	10
594.301	1	10
594.641	1	4
594.981	1	-1
595.320	1	5
595.660	1	3
595.999	1	-6
596.339	1	-4
596.678	1	-8
597.018	1	-4
597.358	1	4
597.697	1	-2
598.037	1	-7
598.376	1	1
598.716	1	12
599.055	1	11
599.395	1	-10
599.734	1	1
600.074	1	0
600.413	1	8
600.753	1	3
601.092	1	0
601.432	1	2
601.771	1	9
602.111	1	7
602.451	1	-8
602.790	1	7
603.130	1	-4
603.469	1	-1
603.809	1	9
604.148	1	-4
604.487	1	-3
604.827	1	12
605.166	1	2
605.506	1	3
605.845	1	4
606.185	1	7
606.524	1	-4
606.864	1	2
607.203	1	8
607.543	1	1
607.882	1	8
608.222	1	0
608.561	1	-2
608.901	1	6
609.240	1	0
609.579	1	-3
609.919	1	-14
610.258	1	8
610.598	1	-6
610.937	1	0
611.277	1	-1
611.616	1	5
611.955	1	-11
612.295	1	-3
612.634	1	13
612.974	1	-6
613.313	1	5
613.652	1	4
613.992	1	-2
614.331	1	14
614.671	1	8
615.010	1	1
615.349	1	3
615.689	1	-2
616.028	1	15
616.368	1	9
616.707	1	-2
617.046	1	-7
617.386	1	8
617.725	1	-4
618.064	1	-4
618.404	1	6
618.743	1	1
619.082	1	12
619.422	1	11
619.761	1	2
620.100	1	8
620.440	1	5
620.779	1	13
621.118	1	11
621.458	1	-3
621.797	1	0
622.136	1	-8
622.476	1	-5
622.815	1	10
623.154	1	-5
623.494	1	-13
623.833	1	1
624.172	1	0
624.511	1	0
624.851	1	-6
625.190	1	3
625.529	1	-2
625.869	1	10
626.208	1	-4
626.547	1	-3
626.886	1	-4
627.226	1	0
627.565	1	1
627.904	1	-2
628.243	1	15
628.583	1	6
628.922	1	8
629.261	1	3
629.600	1	0
629.940	1	8
630.279	1	6
630.618	1	8
630.957	1	4
631.297	1	2
631.636	1	-5
631.975	1	1
632.314	1	0
632.653	1	-4
632.993	1	-4
633.332	1	4
633.671	1	5
634.010	1	-5
634.349	1	11
634.689	1	-3
635.028	1	0
635.367	1	9
635.706	1	2
636.045	1	-12
636.384	1	11
636.724	1	-2
637.063	1	-2
637.402	1	0
637.741	1	3
638.080	1	0
638.419	1	-7
638.759	1	0
639.098	1	0
639.437	1	7
639.776	1	-4
640.115	1	-3
640.454	1	-7
640.793	1	3
641.132	1	0
641.472	1	14
641.811	1	-10
642.150	1	4
642.489	1	1
642.828	1	14
643.167	1	2
643.506	1	-7
643.845	1	14
644.184	1	16
644.524	1	11
644.863	1	0
645.202	1	-3
645.541	1	6
645.880	1	9
646.219	1	2
646.558	1	-5
646.897	1	-5
647.236	1	-7
647.575	1	10
647.914	1	2
648.253	1	8
648.592	1	4
648.931	1	11
649.270	1	8
649.610	1	3
649.949	1	-2
650.288	1	-3
650.627	1	6
650.966	1	4
651.305	1	6
651.644	1	9
651.983	1	-5
652.322	1	4
652.661	1	0
653.000	1	9
653.339	1	-2
653.678	1	8
654.017	1	3
654.356	1	9
654.695	1	17
655.034	1	-5
655.373	1	4
655.712	1	7
656.051	1	-5
656.390	1	6
656.729	1	9
657.068	1	-1
657.406	1	2
657.745	1	18
658.084	1	-3
658.423	1	6
658.762	1	-5
659.101	1	-4
659.440	1	3
659.779	1	5
660.118	1	-4
660.457	1	8
660.796	1	10
661.135	1	5
661.474	1	11
661.813	1	-3
662.152	1	0
662.491	1	-3
662.829	1	2
663.168	1	1
663.507	1	3
663.846	1	3
664.185	1	4
664.524	1	5
664.863	1	-4
665.202	1	7
665.541	1	-1
665.879	1	14
666.218	1	2
666.557	1	-2
666.896	1	2
667.235	1	-4
667.574	1	-3
667.913	1	8
668.251	1	-13
668.590	1	1
668.929	1	-2
669.268	1	2
669.607	1	-7
669.946	1	-1
670.285	1	-5
670.623	1	-1
670.962	1	0
671.301	1	-12
671.640	1	7
671.979	1	-5
672.317	1	0
672.656	1	4
672.995	1	-2
673.334	1	-9
673.673	1	13
674.011	1	-2
674.350	1	3
674.689	1	-5
675.028	1	-1
675.367	1	0
675.705	1	-6
676.044	1	1
676.383	1	-1
676.722	1	3
677.060	1	4
677.399	1	13
677.738	1	0
678.077	1	4
678.416	1	-2
678.754	1	-4
679.093	1	7
679.432	1	-4
679.771	1	1
680.109	1	2
680.448	1	2
680.787	1	-7
681.125	1	-2
681.464	1	1
681.803	1	-11
682.142	1	7
682.480	1	-1
682.819	1	9
683.158	1	-2
683.496	1	-1
683.835	1	-2
684.174	1	0
684.512	1	-1
684.851	1	4
685.190	1	4
685.529	1	-3
685.867	1	4
686.206	1	-2
686.545	1	5
686.883	1	2
687.222	1	-3
687.561	1	-4
687.899	1	0
688.238	1	9
688.577	1	-2
688.746	1	-7