File: Data/GaN_150K_450ms/GaN_sample D_spot15_UVVIS_150 K_200um_450 ms 2x2mm1_286.txt
340.368	1	1
340.710	1	-2
341.052	1	13
341.394	1	-2
341.737	1	13
342.079	1	0
342.421	1	2
342.763	1	-2
343.105	1	-3
343.447	1	3
343.789	1	8
344.131	1	-6
344.473	1	5
344.815	1	9
345.157	1	9
345.499	1	5
345.841	1	8
346.183	1	3
346.526	1	6
346.868	1	-1
347.210	1	-1
347.552	1	12
347.894	1	0
348.236	1	5
348.578	1	1
348.920	1	3
349.262	1	3
349.604	1	-8
349.946	1	4
350.288	1	-6
350.630	1	0
350.972	1	4
351.314	1	2
351.656	1	-9
351.998	1	0
352.340	1	3
352.682	1	-4
353.024	1	6
353.366	1	10
353.708	1	1
354.050	1	-6
354.392	1	-9
354.734	1	6
355.076	1	7
355.418	1	-4
355.760	1	4
356.102	1	-2
356.444	1	2
356.785	1	0
357.127	1	3
357.469	1	8
357.811	1	-4
358.153	1	-16
358.495	1	-4
358.837	1	8
359.179	1	3
359.521	1	11
359.863	1	-5
360.205	1	11
360.547	1	8
360.889	1	2
361.231	1	17
361.572	1	6
361.914	1	12
362.256	1	10
362.598	1	14
362.940	1	3
363.282	1	5
363.624	1	10
363.966	1	-3
364.308	1	1
364.649	1	7
364.991	1	10
365.333	1	1
365.675	1	13
366.017	1	18
366.359	1	3
366.701	1	3
367.042	1	5
367.384	1	2
367.726	1	4
368.068	1	11
368.410	1	11
368.752	1	21
369.093	1	5
369.435	1	23
369.777	1	21
370.119	1	15
370.461	1	12
370.803	1	14
371.144	1	9
371.486	1	20
371.828	1	5
372.170	1	14
372.512	1	-7
372.853	1	10
373.195	1	6
373.537	1	3
373.879	1	9
374.220	1	4
374.562	1	14
374.904	1	8
375.246	1	7
375.588	1	4
375.929	1	4
376.271	1	7
376.613	1	12
376.955	1	8
377.296	1	13
377.638	1	-3
377.980	1	-7
378.321	1	2
378.663	1	7
379.005	1	3
379.347	1	-2
379.688	1	13
380.030	1	12
380.372	1	3
380.714	1	7
381.055	1	-1
381.397	1	2
381.739	1	-8
382.080	1	0
382.422	1	3
382.764	1	4
383.105	1	4
383.447	1	-5
383.789	1	0
384.130	1	-4
384.472	1	-1
384.814	1	4
385.156	1	1
385.497	1	13
385.839	1	1
386.180	1	-3
386.522	1	0
386.864	1	1
387.205	1	0
387.547	1	4
387.889	1	-4
388.230	1	2
388.572	1	0
388.914	1	3
389.255	1	5
389.597	1	6
389.939	1	16
390.280	1	5
390.622	1	-7
390.963	1	-7
391.305	1	-9
391.647	1	7
391.988	1	4
392.330	1	6
392.671	1	13
393.013	1	-1
393.355	1	12
393.696	1	9
394.038	1	4
394.379	1	12
394.721	1	2
395.062	1	-7
395.404	1	9
395.746	1	-9
396.087	1	17
396.429	1	13
396.770	1	3
397.112	1	3
397.453	1	0
397.795	1	6
398.136	1	-3
398.478	1	4
398.819	1	8
399.161	1	8
399.503	1	-1
399.844	1	-11
400.186	1	5
400.527	1	5
400.869	1	0
401.210	1	-3
401.552	1	3
401.893	1	5
402.235	1	7
402.576	1	6
402.918	1	-1
403.259	1	3
403.601	1	12
403.942	1	1
404.284	1	7
404.625	1	0
404.967	1	0
405.308	1	-5
405.649	1	4
405.991	1	7
406.332	1	-1
406.674	1	7
407.015	1	1
407.357	1	2
407.698	1	5
408.040	1	11
408.381	1	-2
408.722	1	10
409.064	1	11
409.405	1	7
409.747	1	-1
410.088	1	1
410.430	1	10
410.771	1	3
411.112	1	0
411.454	1	3
411.795	1	5
412.137	1	4
412.478	1	2
412.819	1	4
413.161	1	-2
413.502	1	3
413.844	1	5
414.185	1	-2
414.526	1	-4
414.868	1	-8
415.209	1	-1
415.550	1	10
415.892	1	10
416.233	1	7
416.575	1	2
416.916	1	-2
417.257	1	11
417.599	1	-2
417.940	1	-7
418.281	1	3
418.623	1	8
418.964	1	11
419.305	1	4
419.647	1	-3
419.988	1	18
420.329	1	1
420.671	1	3
421.012	1	-5
421.353	1	3
421.695	1	9
422.036	1	7
422.377	1	9
422.718	1	5
423.060	1	5
423.401	1	-2
423.742	1	7
424.084	1	3
424.425	1	11
424.766	1	-3
425.107	1	4
425.449	1	-1
425.790	1	7
426.131	1	-4
426.472	1	7
426.814	1	2
427.155	1	0
427.496	1	2
427.837	1	5
428.179	1	12
428.520	1	3
428.861	1	5
429.202	1	-8
429.544	1	2
429.885	1	4
430.226	1	-10
430.567	1	-15
430.909	1	-4
431.250	1	6
431.591	1	3
431.932	1	0
432.273	1	16
432.615	1	-10
432.956	1	3
433.297	1	2
433.638	1	3
433.979	1	6
434.320	1	10
434.662	1	12
435.003	1	10
435.344	1	-1
435.685	1	0
436.026	1	4
436.368	1	-3
436.709	1	-5
437.050	1	-7
437.391	1	-1
437.732	1	10
438.073	1	-5
438.414	1	6
438.756	1	-2
439.097	1	2
439.438	1	2
439.779	1	6
440.120	1	0
440.461	1	8
440.802	1	0
441.143	1	-3
441.485	1	-5
441.826	1	4
442.167	1	5
442.508	1	4
442.849	1	8
443.190	1	7
443.531	1	-4
443.872	1	-4
444.213	1	-6
444.554	1	7
444.895	1	-1
445.237	1	2
445.578	1	-10
445.919	1	10
446.260	1	3
446.601	1	12
446.942	1	-6
447.283	1	4
447.624	1	-10
447.965	1	10
448.306	1	2
448.647	1	5
448.988	1	-2
449.329	1	4
449.670	1	6
450.011	1	-3
450.352	1	-5
450.693	1	9
451.034	1	2
451.375	1	3
451.716	1	4
452.057	1	-5
452.398	1	13
452.739	1	8
453.080	1	7
453.421	1	16
453.762	1	-4
454.103	1	5
454.444	1	0
454.785	1	9
455.126	1	-1
455.467	1	-2
455.808	1	9
456.149	1	-9
456.490	1	-12
456.831	1	-3
457.172	1	-4
457.513	1	6
457.854	1	-7
458.195	1	4
458.536	1	6
458.877	1	8
459.218	1	8
459.559	1	1
459.899	1	6
460.240	1	-4
460.581	1	-5
460.922	1	4
461.263	1	10
461.604	1	8
461.945	1	5
462.286	1	-4
462.627	1	3
462.968	1	5
463.309	1	9
463.649	1	-2
463.990	1	0
464.331	1	4
464.672	1	2
465.013	1	11
465.354	1	4
465.695	1	-3
466.036	1	8
466.376	1	8
466.717	1	-2
467.058	1	7
467.399	1	-7
467.740	1	8
468.081	1	1
468.422	1	5
468.762	1	13
469.103	1	2
469.444	1	8
469.785	1	-1
470.126	1	3
470.467	1	11
470.807	1	-3
471.148	1	0
471.489	1	14
471.830	1	1
472.171	1	3
472.511	1	0
472.852	1	4
473.193	1	1
473.534	1	5
473.875	1	-4
474.215	1	-5
474.556	1	1
474.897	1	-9
475.238	1	7
475.578	1	-1
475.919	1	-4
476.260	1	-7
476.601	1	-6
476.942	1	1
477.282	1	0
477.623	1	6
477.964	1	-2
478.305	1	2
478.645	1	5
478.986	1	13
479.327	1	6
479.667	1	-1
480.008	1	2
480.349	1	-1
480.690	1	7
481.030	1	0
481.371	1	-7
481.712	1	8
482.053	1	12
482.393	1	1
482.734	1	4
483.075	1	7
483.415	1	0
483.756	1	0
484.097	1	11
484.437	1	13
484.778	1	-2
485.119	1	4
485.459	1	-11
485.800	1	0
486.141	1	-6
486.481	1	-6
486.822	1	5
487.163	1	-4
487.503	1	3
487.844	1	-6
488.185	1	1
488.525	1	-5
488.866	1	2
489.207	1	6
489.547	1	0
489.888	1	6
490.228	1	4
490.569	1	5
490.910	1	7
491.250	1	10
491.591	1	-2
491.932	1	4
492.272	1	-3
492.613	1	-5
492.953	1	11
493.294	1	-13
493.635	1	8
493.975	1	17
494.316	1	0
494.656	1	8
494.997	1	-6
495.337	1	-3
495.678	1	-1
496.019	1	1
496.359	1	2
496.700	1	7
497.040	1	-4
497.381	1	3
497.721	1	-3
498.062	1	0
498.403	1	8
498.743	1	-4
499.084	1	5
499.424	1	-3
499.765	1	-3
500.105	1	9
500.446	1	1
500.786	1	-1
501.127	1	9
501.467	1	6
501.808	1	0
502.148	1	-3
502.489	1	4
502.829	1	-4
503.170	1	6
503.510	1	9
503.851	1	11
504.191	1	1
504.532	1	9
504.872	1	-8
505.213	1	1
505.553	1	3
505.894	1	-6
506.234	1	3
506.575	1	17
506.915	1	3
507.256	1	10
507.596	1	5
507.936	1	10
508.277	1	12
508.617	1	9
508.958	1	12
509.298	1	-8
509.639	1	-3
509.979	1	-4
510.319	1	4
510.660	1	4
511.000	1	0
511.341	1	3
511.681	1	7
512.022	1	-4
512.362	1	10
512.702	1	-6
513.043	1	2
513.383	1	7
513.724	1	5
514.064	1	6
514.404	1	13
514.745	1	-6
515.085	1	1
515.425	1	6
515.766	1	-2
516.106	1	0
516.447	1	10
516.787	1	-3
517.127	1	7
517.468	1	8
517.808	1	5
518.148	1	9
518.489	1	4
518.829	1	3
519.169	1	-2
519.510	1	-3
519.850	1	5
520.190	1	-1
520.531	1	5
520.871	1	1
521.211	1	8
521.552	1	-5
521.892	1	7
522.232	1	2
522.573	1	9
522.913	1	4
523.253	1	11
523.593	1	10
523.934	1	11
524.274	1	10
524.614	1	2
524.955	1	4
525.295	1	5
525.635	1	9
525.975	1	-5
526.316	1	-8
526.656	1	5
526.996	1	-1
527.337	1	10
527.677	1	16
528.017	1	-3
528.357	1	7
528.698	1	6
529.038	1	2
529.378	1	2
529.718	1	0
530.058	1	-2
530.399	1	3
530.739	1	6
531.079	1	0
531.419	1	3
531.760	1	2
532.100	1	10
532.440	1	6
532.780	1	9
533.120	1	-14
533.461	1	2
533.801	1	5
534.141	1	5
534.481	1	16
534.821	1	0
535.162	1	2
535.502	1	12
535.842	1	9
536.182	1	6
536.522	1	-3
536.862	1	0
537.203	1	0
537.543	1	11
537.883	1	4
538.223	1	11
538.563	1	-2
538.903	1	4
539.243	1	3
539.584	1	4
539.924	1	3
540.264	1	10
540.604	1	15
540.944	1	-1
541.284	1	-1
541.624	1	0
541.964	1	8
542.305	1	4
542.645	1	-7
542.985	1	-4
543.325	1	3
543.665	1	9
544.005	1	3
544.345	1	6
544.685	1	0
545.025	1	12
545.365	1	0
545.705	1	5
546.045	1	13
546.386	1	0
546.726	1	3
547.066	1	5
547.406	1	-5
547.746	1	4
548.086	1	9
548.426	1	-5
548.766	1	4
549.106	1	-1
549.446	1	6
549.786	1	-4
550.126	1	6
550.466	1	-5
550.806	1	7
551.146	1	8
551.486	1	4
551.826	1	1
552.166	1	14
552.506	1	-4
552.846	1	-2
553.186	1	-6
553.526	1	0
553.866	1	-2
554.206	1	12
554.546	1	1
554.886	1	6
555.226	1	6
555.566	1	7
555.906	1	-1
556.246	1	-4
556.586	1	3
556.926	1	-3
557.266	1	0
557.606	1	-13
557.946	1	11
558.286	1	-7
558.626	1	3
558.966	1	6
559.306	1	-3
559.646	1	13
559.986	1	11
560.325	1	1
560.665	1	6
561.005	1	4
561.345	1	-1
561.685	1	3
562.025	1	-1
562.365	1	-5
562.705	1	1
563.045	1	5
563.385	1	7
563.725	1	0
564.064	1	3
564.404	1	4
564.744	1	15
565.084	1	7
565.424	1	-5
565.764	1	-3
566.104	1	11
566.444	1	13
566.783	1	4
567.123	1	-1
567.463	1	1
567.803	1	9
568.143	1	-5
568.483	1	3
568.823	1	2
569.162	1	-6
569.502	1	-1
569.842	1	4
570.182	1	-8
570.522	1	-2
570.862	1	-6
571.201	1	11
571.541	1	-1
571.881	1	-1
572.221	1	5
572.561	1	8
572.900	1	6
573.240	1	2
573.580	1	-2
573.920	1	10
574.260	1	7
574.599	1	1
574.939	1	-4
575.279	1	1
575.619	1	-4
575.959	1	-3
576.298	1	-6
576.638	1	4
576.978	1	-1
577.318	1	-2
577.657	1	6
577.997	1	1
578.337	1	11
578.677	1	-8
579.016	1	-1
579.356	1	2
579.696	1	1
580.036	1	-1
580.375	1	-3
580.715	1	6
581.055	1	4
581.394	1	-8
581.734	1	-1
582.074	1	16
582.414	1	-2
582.753	1	-12
583.093	1	-1
583.433	1	9
583.772	1	7
584.112	1	-4
584.452	1	2
584.791	1	5
585.131	1	3
585.471	1	9
585.811	1	2
586.150	1	5
586.490	1	3
586.830	1	1
587.169	1	7
587.509	1	0
587.849	1	11
588.188	1	11
588.528	1	12
588.867	1	5
589.207	1	6
589.547	1	-4
589.886	1	3
590.226	1	0
590.566	1	-4
590.905	1	-1
591.245	1	-7
591.585	1	0
591.924	1	-8
592.264	1	-3
592.603	1	-7
592.943	1	4
593.283	1	3
593.622	1	-1
593.962	1	10
594.301	1	1
594.641	1	5
594.981	1	8
595.320	1	8
595.660	1	-1
595.999	1	-1
596.339	1	-4
596.678	1	-10
597.018	1	1
597.358	1	3
597.697	1	-3
598.037	1	5
598.376	1	-2
598.716	1	3
599.055	1	5
599.395	1	0
599.734	1	2
600.074	1	-3
600.413	1	3
600.753	1	8
601.092	1	-5
601.432	1	-5
601.771	1	1
602.111	1	-2
602.451	1	-7
602.790	1	9
603.130	1	1
603.469	1	2
603.809	1	5
604.148	1	-2
604.487	1	-3
604.827	1	2
605.166	1	4
605.506	1	-3
605.845	1	12
606.185	1	-1
606.524	1	-4
606.864	1	14
607.203	1	0
607.543	1	6
607.882	1	10
608.222	1	3
608.561	1	0
608.901	1	1
609.240	1	11
609.579	1	-8
609.919	1	-7
610.258	1	13
610.598	1	-1
610.937	1	-2
611.277	1	6
611.616	1	8
611.955	1	1
612.295	1	5
612.634	1	5
612.974	1	3
613.313	1	8
613.652	1	2
613.992	1	6
614.331	1	12
614.671	1	13
615.010	1	2
615.349	1	2
615.689	1	2
616.028	1	18
616.368	1	11
616.707	1	-4
617.046	1	2
617.386	1	7
617.725	1	-1
618.064	1	-4
618.404	1	-2
618.743	1	5
619.082	1	14
619.422	1	27
619.761	1	-3
620.100	1	4
620.440	1	1
620.779	1	6
621.118	1	5
621.458	1	-5
621.797	1	0
622.136	1	-2
622.476	1	7
622.815	1	7
623.154	1	-9
623.494	1	-13
623.833	1	1
624.172	1	5
624.511	1	-8
624.851	1	-1
625.190	1	0
625.529	1	6
625.869	1	15
626.208	1	-5
626.547	1	2
626.886	1	-3
627.226	1	9
627.565	1	13
627.904	1	-3
628.243	1	7
628.583	1	10
628.922	1	7
629.261	1	8
629.600	1	-6
629.940	1	0
630.279	1	3
630.618	1	6
630.957	1	12
631.297	1	5
631.636	1	4
631.975	1	-2
632.314	1	4
632.653	1	-4
632.993	1	7
633.332	1	5
633.671	1	7
634.010	1	-8
634.349	1	18
634.689	1	-4
635.028	1	-2
635.367	1	14
635.706	1	-5
636.045	1	-8
636.384	1	1
636.724	1	6
637.063	1	-12
637.402	1	5
637.741	1	-4
638.080	1	0
638.419	1	-1
638.759	1	6
639.098	1	1
639.437	1	-3
639.776	1	-6
640.115	1	-10
640.454	1	-3
640.793	1	-2
641.132	1	-4
641.472	1	12
641.811	1	-3
642.150	1	1
642.489	1	5
642.828	1	8
643.167	1	-4
643.506	1	1
643.845	1	11
644.184	1	16
644.524	1	-3
644.863	1	2
645.202	1	4
645.541	1	-2
645.880	1	-6
646.219	1	3
646.558	1	-10
646.897	1	-6
647.236	1	-8
647.575	1	5
647.914	1	-1
648.253	1	5
648.592	1	2
648.931	1	6
649.270	1	9
649.610	1	3
649.949	1	-3
650.288	1	4
650.627	1	-1
650.966	1	-2
651.305	1	4
651.644	1	4
651.983	1	-8
652.322	1	-2
652.661	1	7
653.000	1	-3
653.339	1	3
653.678	1	13
654.017	1	9
654.356	1	10
654.695	1	8
655.034	1	-1
655.373	1	3
655.712	1	10
656.051	1	-5
656.390	1	8
656.729	1	8
657.068	1	3
657.406	1	-3
657.745	1	7
658.084	1	-1
658.423	1	9
658.762	1	-6
659.101	1	2
659.440	1	5
659.779	1	5
660.118	1	-3
660.457	1	-2
660.796	1	12
661.135	1	8
661.474	1	1
661.813	1	-8
662.152	1	-3
662.491	1	-4
662.829	1	-1
663.168	1	1
663.507	1	4
663.846	1	0
664.185	1	-1
664.524	1	15
664.863	1	-8
665.202	1	2
665.541	1	0
665.879	1	0
666.218	1	-3
666.557	1	-3
666.896	1	0
667.235	1	-11
667.574	1	-4
667.913	1	2
668.251	1	-17
668.590	1	7
668.929	1	1
669.268	1	5
669.607	1	-3
669.946	1	-1
670.285	1	2
670.623	1	0
670.962	1	-6
671.301	1	7
671.640	1	9
671.979	1	2
672.317	1	-2
672.656	1	6
672.995	1	-9
673.334	1	2
673.673	1	18
674.011	1	3
674.350	1	5
674.689	1	3
675.028	1	2
675.367	1	8
675.705	1	-7
676.044	1	-8
676.383	1	3
676.722	1	-3
677.060	1	5
677.399	1	6
677.738	1	0
678.077	1	1
678.416	1	-2
678.754	1	-3
679.093	1	5
679.432	1	1
679.771	1	2
680.109	1	-2
680.448	1	-2
680.787	1	-6
681.125	1	1
681.464	1	3
681.803	1	2
682.142	1	2
682.480	1	-4
682.819	1	-10
683.158	1	4
683.496	1	2
683.835	1	1
684.174	1	4
684.512	1	-2
684.851	1	-6
685.190	1	0
685.529	1	-8
685.867	1	9
686.206	1	-11
686.545	1	2
686.883	1	3
687.222	1	4
687.561	1	-3
687.899	1	-5
688.238	1	5
688.577	1	-2
688.746	1	-6