File: Data/GaN_150K_450ms/GaN_sample D_spot15_UVVIS_150 K_200um_450 ms 2x2mm1_178.txt
340.368	1	7
340.710	1	9
341.052	1	9
341.394	1	-9
341.737	1	8
342.079	1	4
342.421	1	0
342.763	1	3
343.105	1	5
343.447	1	1
343.789	1	11
344.131	1	-5
344.473	1	-3
344.815	1	10
345.157	1	12
345.499	1	3
345.841	1	5
346.183	1	7
346.526	1	12
346.868	1	1
347.210	1	3
347.552	1	17
347.894	1	1
348.236	1	9
348.578	1	5
348.920	1	3
349.262	1	8
349.604	1	-1
349.946	1	-1
350.288	1	-9
350.630	1	-2
350.972	1	9
351.314	1	10
351.656	1	8
351.998	1	3
352.340	1	10
352.682	1	-4
353.024	1	12
353.366	1	10
353.708	1	2
354.050	1	-8
354.392	1	-5
354.734	1	11
355.076	1	14
355.418	1	4
355.760	1	7
356.102	1	9
356.444	1	4
356.785	1	11
357.127	1	12
357.469	1	6
357.811	1	12
358.153	1	3
358.495	1	5
358.837	1	14
359.179	1	12
359.521	1	22
359.863	1	1
360.205	1	17
360.547	1	11
360.889	1	5
361.231	1	6
361.572	1	17
361.914	1	17
362.256	1	15
362.598	1	25
362.940	1	16
363.282	1	8
363.624	1	16
363.966	1	14
364.308	1	22
364.649	1	19
364.991	1	22
365.333	1	20
365.675	1	27
366.017	1	24
366.359	1	9
366.701	1	30
367.042	1	28
367.384	1	20
367.726	1	22
368.068	1	35
368.410	1	39
368.752	1	31
369.093	1	36
369.435	1	43
369.777	1	31
370.119	1	25
370.461	1	22
370.803	1	20
371.144	1	24
371.486	1	30
371.828	1	17
372.170	1	23
372.512	1	10
372.853	1	29
373.195	1	17
373.537	1	15
373.879	1	16
374.220	1	14
374.562	1	16
374.904	1	15
375.246	1	10
375.588	1	5
375.929	1	17
376.271	1	12
376.613	1	14
376.955	1	6
377.296	1	16
377.638	1	9
377.980	1	2
378.321	1	13
378.663	1	11
379.005	1	13
379.347	1	5
379.688	1	11
380.030	1	17
380.372	1	10
380.714	1	14
381.055	1	2
381.397	1	7
381.739	1	-2
382.080	1	14
382.422	1	15
382.764	1	3
383.105	1	4
383.447	1	-1
383.789	1	-11
384.130	1	10
384.472	1	1
384.814	1	17
385.156	1	2
385.497	1	15
385.839	1	10
386.180	1	2
386.522	1	9
386.864	1	-1
387.205	1	11
387.547	1	8
387.889	1	-9
388.230	1	2
388.572	1	-6
388.914	1	14
389.255	1	4
389.597	1	8
389.939	1	9
390.280	1	2
390.622	1	0
390.963	1	-6
391.305	1	1
391.647	1	5
391.988	1	5
392.330	1	-5
392.671	1	11
393.013	1	3
393.355	1	14
393.696	1	12
394.038	1	9
394.379	1	15
394.721	1	-1
395.062	1	0
395.404	1	5
395.746	1	1
396.087	1	7
396.429	1	9
396.770	1	10
397.112	1	3
397.453	1	0
397.795	1	7
398.136	1	9
398.478	1	6
398.819	1	11
399.161	1	13
399.503	1	10
399.844	1	0
400.186	1	7
400.527	1	8
400.869	1	3
401.210	1	3
401.552	1	9
401.893	1	8
402.235	1	16
402.576	1	12
402.918	1	0
403.259	1	-7
403.601	1	10
403.942	1	-9
404.284	1	12
404.625	1	4
404.967	1	13
405.308	1	-11
405.649	1	5
405.991	1	6
406.332	1	0
406.674	1	-1
407.015	1	5
407.357	1	-2
407.698	1	10
408.040	1	15
408.381	1	0
408.722	1	15
409.064	1	14
409.405	1	2
409.747	1	5
410.088	1	6
410.430	1	13
410.771	1	9
411.112	1	7
411.454	1	1
411.795	1	6
412.137	1	11
412.478	1	-2
412.819	1	16
413.161	1	11
413.502	1	13
413.844	1	14
414.185	1	10
414.526	1	3
414.868	1	8
415.209	1	6
415.550	1	0
415.892	1	13
416.233	1	13
416.575	1	0
416.916	1	3
417.257	1	4
417.599	1	9
417.940	1	6
418.281	1	16
418.623	1	5
418.964	1	17
419.305	1	12
419.647	1	9
419.988	1	13
420.329	1	9
420.671	1	22
421.012	1	2
421.353	1	10
421.695	1	11
422.036	1	9
422.377	1	9
422.718	1	15
423.060	1	11
423.401	1	4
423.742	1	16
424.084	1	1
424.425	1	14
424.766	1	7
425.107	1	10
425.449	1	-3
425.790	1	7
426.131	1	2
426.472	1	16
426.814	1	6
427.155	1	6
427.496	1	11
427.837	1	10
428.179	1	18
428.520	1	18
428.861	1	4
429.202	1	-5
429.544	1	1
429.885	1	13
430.226	1	-7
430.567	1	-7
430.909	1	4
431.250	1	8
431.591	1	12
431.932	1	-2
432.273	1	14
432.615	1	-4
432.956	1	6
433.297	1	2
433.638	1	11
433.979	1	12
434.320	1	12
434.662	1	8
435.003	1	19
435.344	1	6
435.685	1	-4
436.026	1	9
436.368	1	-3
436.709	1	-1
437.050	1	3
437.391	1	11
437.732	1	11
438.073	1	4
438.414	1	4
438.756	1	-2
439.097	1	13
439.438	1	10
439.779	1	14
440.120	1	0
440.461	1	3
440.802	1	5
441.143	1	10
441.485	1	0
441.826	1	3
442.167	1	5
442.508	1	1
442.849	1	12
443.190	1	9
443.531	1	2
443.872	1	-7
444.213	1	-2
444.554	1	8
444.895	1	2
445.237	1	15
445.578	1	0
445.919	1	7
446.260	1	8
446.601	1	8
446.942	1	5
447.283	1	12
447.624	1	-5
447.965	1	9
448.306	1	5
448.647	1	10
448.988	1	12
449.329	1	10
449.670	1	6
450.011	1	4
450.352	1	7
450.693	1	5
451.034	1	-3
451.375	1	-2
451.716	1	10
452.057	1	3
452.398	1	10
452.739	1	6
453.080	1	10
453.421	1	11
453.762	1	9
454.103	1	6
454.444	1	-2
454.785	1	10
455.126	1	5
455.467	1	10
455.808	1	15
456.149	1	2
456.490	1	1
456.831	1	9
457.172	1	8
457.513	1	1
457.854	1	9
458.195	1	-1
458.536	1	12
458.877	1	8
459.218	1	15
459.559	1	1
459.899	1	-5
460.240	1	5
460.581	1	8
460.922	1	15
461.263	1	7
461.604	1	4
461.945	1	5
462.286	1	3
462.627	1	13
462.968	1	14
463.309	1	2
463.649	1	-6
463.990	1	4
464.331	1	11
464.672	1	11
465.013	1	2
465.354	1	18
465.695	1	-1
466.036	1	8
466.376	1	12
466.717	1	-6
467.058	1	0
467.399	1	-7
467.740	1	17
468.081	1	3
468.422	1	6
468.762	1	12
469.103	1	5
469.444	1	6
469.785	1	-11
470.126	1	10
470.467	1	7
470.807	1	8
471.148	1	3
471.489	1	9
471.830	1	8
472.171	1	6
472.511	1	1
472.852	1	9
473.193	1	4
473.534	1	3
473.875	1	1
474.215	1	8
474.556	1	-1
474.897	1	-6
475.238	1	8
475.578	1	-5
475.919	1	-1
476.260	1	5
476.601	1	1
476.942	1	3
477.282	1	-5
477.623	1	10
477.964	1	7
478.305	1	10
478.645	1	0
478.986	1	8
479.327	1	9
479.667	1	-1
480.008	1	-6
480.349	1	5
480.690	1	7
481.030	1	7
481.371	1	-3
481.712	1	10
482.053	1	13
482.393	1	6
482.734	1	6
483.075	1	9
483.415	1	9
483.756	1	9
484.097	1	14
484.437	1	12
484.778	1	-6
485.119	1	3
485.459	1	0
485.800	1	0
486.141	1	4
486.481	1	-6
486.822	1	11
487.163	1	-1
487.503	1	6
487.844	1	-4
488.185	1	5
488.525	1	-5
488.866	1	6
489.207	1	9
489.547	1	9
489.888	1	2
490.228	1	6
490.569	1	-1
490.910	1	11
491.250	1	2
491.591	1	4
491.932	1	8
492.272	1	-1
492.613	1	4
492.953	1	10
493.294	1	-9
493.635	1	7
493.975	1	3
494.316	1	-2
494.656	1	5
494.997	1	4
495.337	1	-3
495.678	1	5
496.019	1	4
496.359	1	4
496.700	1	-1
497.040	1	0
497.381	1	5
497.721	1	4
498.062	1	7
498.403	1	9
498.743	1	10
499.084	1	-6
499.424	1	1
499.765	1	4
500.105	1	13
500.446	1	-4
500.786	1	0
501.127	1	4
501.467	1	15
501.808	1	4
502.148	1	-5
502.489	1	4
502.829	1	10
503.170	1	6
503.510	1	0
503.851	1	6
504.191	1	0
504.532	1	12
504.872	1	1
505.213	1	2
505.553	1	7
505.894	1	3
506.234	1	4
506.575	1	16
506.915	1	0
507.256	1	7
507.596	1	3
507.936	1	11
508.277	1	16
508.617	1	8
508.958	1	13
509.298	1	-1
509.639	1	4
509.979	1	4
510.319	1	10
510.660	1	6
511.000	1	-2
511.341	1	20
511.681	1	13
512.022	1	-11
512.362	1	10
512.702	1	3
513.043	1	19
513.383	1	6
513.724	1	7
514.064	1	8
514.404	1	16
514.745	1	1
515.085	1	9
515.425	1	11
515.766	1	5
516.106	1	0
516.447	1	16
516.787	1	9
517.127	1	15
517.468	1	13
517.808	1	6
518.148	1	19
518.489	1	5
518.829	1	10
519.169	1	2
519.510	1	-2
519.850	1	10
520.190	1	7
520.531	1	3
520.871	1	3
521.211	1	10
521.552	1	3
521.892	1	2
522.232	1	11
522.573	1	5
522.913	1	14
523.253	1	6
523.593	1	5
523.934	1	10
524.274	1	13
524.614	1	11
524.955	1	2
525.295	1	13
525.635	1	6
525.975	1	-5
526.316	1	-2
526.656	1	15
526.996	1	12
527.337	1	13
527.677	1	24
528.017	1	2
528.357	1	12
528.698	1	11
529.038	1	8
529.378	1	9
529.718	1	7
530.058	1	12
530.399	1	4
530.739	1	11
531.079	1	10
531.419	1	12
531.760	1	9
532.100	1	15
532.440	1	6
532.780	1	14
533.120	1	16
533.461	1	6
533.801	1	1
534.141	1	14
534.481	1	25
534.821	1	6
535.162	1	8
535.502	1	3
535.842	1	6
536.182	1	0
536.522	1	8
536.862	1	6
537.203	1	6
537.543	1	9
537.883	1	2
538.223	1	17
538.563	1	3
538.903	1	6
539.243	1	16
539.584	1	6
539.924	1	3
540.264	1	8
540.604	1	15
540.944	1	9
541.284	1	4
541.624	1	2
541.964	1	13
542.305	1	13
542.645	1	7
542.985	1	4
543.325	1	2
543.665	1	8
544.005	1	6
544.345	1	4
544.685	1	4
545.025	1	0
545.365	1	5
545.705	1	8
546.045	1	13
546.386	1	-1
546.726	1	-3
547.066	1	1
547.406	1	2
547.746	1	2
548.086	1	9
548.426	1	8
548.766	1	2
549.106	1	8
549.446	1	7
549.786	1	8
550.126	1	6
550.466	1	4
550.806	1	20
551.146	1	7
551.486	1	16
551.826	1	0
552.166	1	2
552.506	1	4
552.846	1	18
553.186	1	9
553.526	1	9
553.866	1	-3
554.206	1	13
554.546	1	10
554.886	1	5
555.226	1	9
555.566	1	5
555.906	1	8
556.246	1	8
556.586	1	2
556.926	1	7
557.266	1	11
557.606	1	-8
557.946	1	8
558.286	1	-7
558.626	1	13
558.966	1	3
559.306	1	7
559.646	1	6
559.986	1	10
560.325	1	1
560.665	1	-2
561.005	1	2
561.345	1	0
561.685	1	5
562.025	1	11
562.365	1	14
562.705	1	5
563.045	1	4
563.385	1	12
563.725	1	7
564.064	1	-2
564.404	1	8
564.744	1	10
565.084	1	14
565.424	1	1
565.764	1	2
566.104	1	7
566.444	1	12
566.783	1	7
567.123	1	2
567.463	1	6
567.803	1	5
568.143	1	4
568.483	1	18
568.823	1	5
569.162	1	8
569.502	1	8
569.842	1	1
570.182	1	4
570.522	1	-3
570.862	1	-2
571.201	1	6
571.541	1	9
571.881	1	1
572.221	1	4
572.561	1	8
572.900	1	15
573.240	1	-3
573.580	1	10
573.920	1	17
574.260	1	4
574.599	1	10
574.939	1	5
575.279	1	-4
575.619	1	1
575.959	1	2
576.298	1	-1
576.638	1	15
576.978	1	10
577.318	1	6
577.657	1	6
577.997	1	7
578.337	1	-1
578.677	1	9
579.016	1	-1
579.356	1	14
579.696	1	2
580.036	1	5
580.375	1	2
580.715	1	10
581.055	1	5
581.394	1	6
581.734	1	0
582.074	1	3
582.414	1	6
582.753	1	-10
583.093	1	10
583.433	1	12
583.772	1	10
584.112	1	5
584.452	1	3
584.791	1	8
585.131	1	8
585.471	1	0
585.811	1	1
586.150	1	8
586.490	1	4
586.830	1	8
587.169	1	-2
587.509	1	6
587.849	1	2
588.188	1	8
588.528	1	-9
588.867	1	12
589.207	1	8
589.547	1	8
589.886	1	8
590.226	1	3
590.566	1	3
590.905	1	6
591.245	1	-5
591.585	1	4
591.924	1	-1
592.264	1	11
592.603	1	-10
592.943	1	7
593.283	1	5
593.622	1	4
593.962	1	8
594.301	1	8
594.641	1	-1
594.981	1	9
595.320	1	6
595.660	1	10
595.999	1	3
596.339	1	6
596.678	1	-8
597.018	1	-6
597.358	1	5
597.697	1	6
598.037	1	6
598.376	1	7
598.716	1	9
599.055	1	10
599.395	1	0
599.734	1	8
600.074	1	2
600.413	1	-2
600.753	1	5
601.092	1	-4
601.432	1	3
601.771	1	9
602.111	1	11
602.451	1	-3
602.790	1	5
603.130	1	11
603.469	1	10
603.809	1	4
604.148	1	-3
604.487	1	2
604.827	1	1
605.166	1	-3
605.506	1	2
605.845	1	8
606.185	1	-5
606.524	1	-5
606.864	1	17
607.203	1	5
607.543	1	4
607.882	1	4
608.222	1	1
608.561	1	0
608.901	1	2
609.240	1	5
609.579	1	2
609.919	1	-8
610.258	1	10
610.598	1	7
610.937	1	4
611.277	1	12
611.616	1	7
611.955	1	7
612.295	1	1
612.634	1	1
612.974	1	-3
613.313	1	7
613.652	1	11
613.992	1	-1
614.331	1	10
614.671	1	7
615.010	1	9
615.349	1	12
615.689	1	0
616.028	1	19
616.368	1	14
616.707	1	0
617.046	1	0
617.386	1	14
617.725	1	0
618.064	1	-5
618.404	1	9
618.743	1	3
619.082	1	9
619.422	1	19
619.761	1	-3
620.100	1	9
620.440	1	6
620.779	1	6
621.118	1	21
621.458	1	0
621.797	1	-2
622.136	1	2
622.476	1	8
622.815	1	2
623.154	1	-7
623.494	1	-5
623.833	1	5
624.172	1	3
624.511	1	-6
624.851	1	11
625.190	1	6
625.529	1	-1
625.869	1	22
626.208	1	2
626.547	1	-3
626.886	1	-3
627.226	1	14
627.565	1	10
627.904	1	-3
628.243	1	8
628.583	1	3
628.922	1	5
629.261	1	0
629.600	1	-9
629.940	1	10
630.279	1	8
630.618	1	8
630.957	1	17
631.297	1	7
631.636	1	3
631.975	1	2
632.314	1	6
632.653	1	4
632.993	1	5
633.332	1	7
633.671	1	4
634.010	1	14
634.349	1	10
634.689	1	-4
635.028	1	-3
635.367	1	11
635.706	1	4
636.045	1	-2
636.384	1	5
636.724	1	3
637.063	1	-1
637.402	1	10
637.741	1	10
638.080	1	15
638.419	1	5
638.759	1	4
639.098	1	-7
639.437	1	7
639.776	1	-4
640.115	1	3
640.454	1	0
640.793	1	-1
641.132	1	11
641.472	1	9
641.811	1	-6
642.150	1	-1
642.489	1	1
642.828	1	8
643.167	1	8
643.506	1	-2
643.845	1	16
644.184	1	7
644.524	1	-4
644.863	1	9
645.202	1	5
645.541	1	3
645.880	1	10
646.219	1	6
646.558	1	-5
646.897	1	5
647.236	1	-6
647.575	1	6
647.914	1	1
648.253	1	8
648.592	1	10
648.931	1	11
649.270	1	5
649.610	1	5
649.949	1	2
650.288	1	7
650.627	1	0
650.966	1	4
651.305	1	10
651.644	1	10
651.983	1	-5
652.322	1	5
652.661	1	5
653.000	1	6
653.339	1	5
653.678	1	13
654.017	1	11
654.356	1	2
654.695	1	12
655.034	1	-1
655.373	1	9
655.712	1	2
656.051	1	1
656.390	1	-1
656.729	1	11
657.068	1	2
657.406	1	-6
657.745	1	14
658.084	1	5
658.423	1	12
658.762	1	1
659.101	1	9
659.440	1	5
659.779	1	2
660.118	1	4
660.457	1	4
660.796	1	2
661.135	1	5
661.474	1	4
661.813	1	0
662.152	1	9
662.491	1	-2
662.829	1	0
663.168	1	1
663.507	1	2
663.846	1	-4
664.185	1	10
664.524	1	10
664.863	1	-5
665.202	1	8
665.541	1	6
665.879	1	10
666.218	1	5
666.557	1	3
666.896	1	8
667.235	1	-2
667.574	1	-2
667.913	1	11
668.251	1	-15
668.590	1	-5
668.929	1	0
669.268	1	-9
669.607	1	4
669.946	1	7
670.285	1	-2
670.623	1	-3
670.962	1	-6
671.301	1	6
671.640	1	8
671.979	1	0
672.317	1	8
672.656	1	0
672.995	1	5
673.334	1	-3
673.673	1	10
674.011	1	5
674.350	1	8
674.689	1	0
675.028	1	5
675.367	1	4
675.705	1	-4
676.044	1	-2
676.383	1	1
676.722	1	3
677.060	1	4
677.399	1	7
677.738	1	-5
678.077	1	-1
678.416	1	0
678.754	1	6
679.093	1	15
679.432	1	-2
679.771	1	0
680.109	1	0
680.448	1	-7
680.787	1	-12
681.125	1	4
681.464	1	-4
681.803	1	2
682.142	1	6
682.480	1	-4
682.819	1	-2
683.158	1	-5
683.496	1	-1
683.835	1	-1
684.174	1	3
684.512	1	3
684.851	1	-5
685.190	1	0
685.529	1	-1
685.867	1	1
686.206	1	4
686.545	1	3
686.883	1	12
687.222	1	-6
687.561	1	-9
687.899	1	-6
688.238	1	7
688.577	1	2
688.746	1	-1