File: Data/GaN_150K_450ms/GaN_sample D_spot15_UVVIS_150 K_200um_450 ms 2x2mm1_319.txt
340.368	1	-4
340.710	1	0
341.052	1	1
341.394	1	-9
341.737	1	7
342.079	1	3
342.421	1	-1
342.763	1	-4
343.105	1	0
343.447	1	5
343.789	1	-2
344.131	1	-8
344.473	1	2
344.815	1	4
345.157	1	5
345.499	1	3
345.841	1	9
346.183	1	4
346.526	1	3
346.868	1	-1
347.210	1	-8
347.552	1	16
347.894	1	-2
348.236	1	5
348.578	1	-4
348.920	1	3
349.262	1	3
349.604	1	2
349.946	1	-3
350.288	1	-10
350.630	1	-5
350.972	1	10
351.314	1	2
351.656	1	6
351.998	1	-2
352.340	1	8
352.682	1	-10
353.024	1	5
353.366	1	0
353.708	1	5
354.050	1	-12
354.392	1	-3
354.734	1	-3
355.076	1	11
355.418	1	-6
355.760	1	1
356.102	1	-3
356.444	1	14
356.785	1	2
357.127	1	8
357.469	1	2
357.811	1	-2
358.153	1	-8
358.495	1	10
358.837	1	6
359.179	1	1
359.521	1	11
359.863	1	-2
360.205	1	15
360.547	1	0
360.889	1	1
361.231	1	2
361.572	1	7
361.914	1	-2
362.256	1	9
362.598	1	12
362.940	1	6
363.282	1	-7
363.624	1	5
363.966	1	-3
364.308	1	1
364.649	1	14
364.991	1	14
365.333	1	1
365.675	1	12
366.017	1	15
366.359	1	9
366.701	1	2
367.042	1	8
367.384	1	1
367.726	1	4
368.068	1	14
368.410	1	12
368.752	1	20
369.093	1	6
369.435	1	21
369.777	1	17
370.119	1	13
370.461	1	2
370.803	1	8
371.144	1	5
371.486	1	15
371.828	1	1
372.170	1	8
372.512	1	1
372.853	1	12
373.195	1	5
373.537	1	-4
373.879	1	8
374.220	1	17
374.562	1	6
374.904	1	8
375.246	1	5
375.588	1	-13
375.929	1	3
376.271	1	-9
376.613	1	15
376.955	1	2
377.296	1	6
377.638	1	-6
377.980	1	-2
378.321	1	-1
378.663	1	5
379.005	1	0
379.347	1	2
379.688	1	10
380.030	1	6
380.372	1	2
380.714	1	7
381.055	1	0
381.397	1	3
381.739	1	-6
382.080	1	-1
382.422	1	3
382.764	1	4
383.105	1	-5
383.447	1	4
383.789	1	-3
384.130	1	-1
384.472	1	-1
384.814	1	2
385.156	1	7
385.497	1	13
385.839	1	5
386.180	1	1
386.522	1	12
386.864	1	-6
387.205	1	3
387.547	1	9
387.889	1	4
388.230	1	3
388.572	1	-8
388.914	1	8
389.255	1	0
389.597	1	7
389.939	1	7
390.280	1	2
390.622	1	-2
390.963	1	-5
391.305	1	2
391.647	1	3
391.988	1	4
392.330	1	-3
392.671	1	14
393.013	1	8
393.355	1	13
393.696	1	4
394.038	1	-6
394.379	1	1
394.721	1	-9
395.062	1	-7
395.404	1	5
395.746	1	-3
396.087	1	5
396.429	1	7
396.770	1	0
397.112	1	3
397.453	1	2
397.795	1	3
398.136	1	5
398.478	1	0
398.819	1	-3
399.161	1	7
399.503	1	1
399.844	1	2
400.186	1	6
400.527	1	9
400.869	1	-3
401.210	1	1
401.552	1	9
401.893	1	-6
402.235	1	4
402.576	1	0
402.918	1	4
403.259	1	-4
403.601	1	-1
403.942	1	5
404.284	1	12
404.625	1	-6
404.967	1	7
405.308	1	-4
405.649	1	8
405.991	1	2
406.332	1	7
406.674	1	-8
407.015	1	0
407.357	1	7
407.698	1	11
408.040	1	11
408.381	1	2
408.722	1	5
409.064	1	-2
409.405	1	7
409.747	1	3
410.088	1	6
410.430	1	12
410.771	1	2
411.112	1	-1
411.454	1	1
411.795	1	6
412.137	1	-5
412.478	1	-1
412.819	1	13
413.161	1	-2
413.502	1	2
413.844	1	6
414.185	1	-4
414.526	1	-8
414.868	1	-6
415.209	1	0
415.550	1	-2
415.892	1	7
416.233	1	2
416.575	1	-11
416.916	1	-6
417.257	1	7
417.599	1	-4
417.940	1	-5
418.281	1	2
418.623	1	-1
418.964	1	16
419.305	1	1
419.647	1	0
419.988	1	7
420.329	1	-2
420.671	1	6
421.012	1	-1
421.353	1	11
421.695	1	5
422.036	1	10
422.377	1	4
422.718	1	9
423.060	1	7
423.401	1	-6
423.742	1	9
424.084	1	8
424.425	1	2
424.766	1	1
425.107	1	5
425.449	1	2
425.790	1	2
426.131	1	-5
426.472	1	10
426.814	1	2
427.155	1	0
427.496	1	1
427.837	1	5
428.179	1	9
428.520	1	5
428.861	1	-1
429.202	1	-6
429.544	1	-3
429.885	1	-5
430.226	1	-7
430.567	1	-16
430.909	1	-9
431.250	1	8
431.591	1	5
431.932	1	-1
432.273	1	11
432.615	1	0
432.956	1	9
433.297	1	4
433.638	1	13
433.979	1	4
434.320	1	6
434.662	1	2
435.003	1	8
435.344	1	9
435.685	1	-4
436.026	1	-3
436.368	1	0
436.709	1	1
437.050	1	0
437.391	1	11
437.732	1	-1
438.073	1	-8
438.414	1	10
438.756	1	-1
439.097	1	1
439.438	1	-2
439.779	1	-9
440.120	1	0
440.461	1	1
440.802	1	-1
441.143	1	3
441.485	1	-2
441.826	1	-8
442.167	1	3
442.508	1	11
442.849	1	-1
443.190	1	3
443.531	1	0
443.872	1	1
444.213	1	-19
444.554	1	6
444.895	1	-6
445.237	1	6
445.578	1	-2
445.919	1	8
446.260	1	8
446.601	1	4
446.942	1	3
447.283	1	5
447.624	1	-7
447.965	1	2
448.306	1	-3
448.647	1	-1
448.988	1	7
449.329	1	6
449.670	1	-4
450.011	1	4
450.352	1	-1
450.693	1	3
451.034	1	-4
451.375	1	4
451.716	1	4
452.057	1	-2
452.398	1	5
452.739	1	3
453.080	1	5
453.421	1	10
453.762	1	-4
454.103	1	2
454.444	1	2
454.785	1	5
455.126	1	2
455.467	1	-4
455.808	1	6
456.149	1	-3
456.490	1	-11
456.831	1	1
457.172	1	6
457.513	1	-3
457.854	1	6
458.195	1	0
458.536	1	-3
458.877	1	1
459.218	1	4
459.559	1	6
459.899	1	-3
460.240	1	-2
460.581	1	-5
460.922	1	7
461.263	1	5
461.604	1	5
461.945	1	2
462.286	1	-5
462.627	1	-1
462.968	1	8
463.309	1	0
463.649	1	-4
463.990	1	3
464.331	1	5
464.672	1	-1
465.013	1	0
465.354	1	8
465.695	1	9
466.036	1	16
466.376	1	13
466.717	1	-9
467.058	1	4
467.399	1	0
467.740	1	12
468.081	1	-2
468.422	1	-7
468.762	1	4
469.103	1	6
469.444	1	4
469.785	1	-3
470.126	1	12
470.467	1	1
470.807	1	-2
471.148	1	-1
471.489	1	9
471.830	1	-7
472.171	1	5
472.511	1	5
472.852	1	6
473.193	1	0
473.534	1	1
473.875	1	2
474.215	1	2
474.556	1	-11
474.897	1	-5
475.238	1	10
475.578	1	-6
475.919	1	-3
476.260	1	-2
476.601	1	4
476.942	1	0
477.282	1	-9
477.623	1	1
477.964	1	5
478.305	1	3
478.645	1	5
478.986	1	8
479.327	1	8
479.667	1	2
480.008	1	12
480.349	1	7
480.690	1	13
481.030	1	-4
481.371	1	-18
481.712	1	17
482.053	1	13
482.393	1	10
482.734	1	7
483.075	1	12
483.415	1	6
483.756	1	12
484.097	1	1
484.437	1	14
484.778	1	-12
485.119	1	6
485.459	1	2
485.800	1	5
486.141	1	17
486.481	1	-12
486.822	1	9
487.163	1	-2
487.503	1	-6
487.844	1	-5
488.185	1	4
488.525	1	-4
488.866	1	-10
489.207	1	0
489.547	1	1
489.888	1	12
490.228	1	5
490.569	1	-8
490.910	1	14
491.250	1	-2
491.591	1	4
491.932	1	12
492.272	1	-16
492.613	1	-9
492.953	1	8
493.294	1	-8
493.635	1	4
493.975	1	11
494.316	1	2
494.656	1	8
494.997	1	-2
495.337	1	-1
495.678	1	4
496.019	1	3
496.359	1	5
496.700	1	3
497.040	1	-9
497.381	1	1
497.721	1	-5
498.062	1	3
498.403	1	2
498.743	1	-2
499.084	1	11
499.424	1	5
499.765	1	0
500.105	1	8
500.446	1	-6
500.786	1	-4
501.127	1	4
501.467	1	5
501.808	1	4
502.148	1	-6
502.489	1	2
502.829	1	-8
503.170	1	0
503.510	1	-1
503.851	1	5
504.191	1	-11
504.532	1	8
504.872	1	1
505.213	1	1
505.553	1	1
505.894	1	4
506.234	1	6
506.575	1	18
506.915	1	1
507.256	1	9
507.596	1	5
507.936	1	14
508.277	1	5
508.617	1	2
508.958	1	4
509.298	1	2
509.639	1	-9
509.979	1	9
510.319	1	0
510.660	1	-1
511.000	1	-5
511.341	1	11
511.681	1	9
512.022	1	-18
512.362	1	7
512.702	1	-3
513.043	1	-10
513.383	1	2
513.724	1	0
514.064	1	7
514.404	1	9
514.745	1	2
515.085	1	4
515.425	1	6
515.766	1	-2
516.106	1	-4
516.447	1	11
516.787	1	7
517.127	1	8
517.468	1	5
517.808	1	4
518.148	1	11
518.489	1	5
518.829	1	-1
519.169	1	3
519.510	1	-4
519.850	1	-2
520.190	1	-2
520.531	1	-1
520.871	1	6
521.211	1	-2
521.552	1	3
521.892	1	2
522.232	1	6
522.573	1	7
522.913	1	0
523.253	1	9
523.593	1	11
523.934	1	11
524.274	1	2
524.614	1	-2
524.955	1	-3
525.295	1	7
525.635	1	8
525.975	1	0
526.316	1	-12
526.656	1	2
526.996	1	-2
527.337	1	7
527.677	1	12
528.017	1	1
528.357	1	-1
528.698	1	5
529.038	1	-1
529.378	1	-8
529.718	1	5
530.058	1	14
530.399	1	3
530.739	1	8
531.079	1	-5
531.419	1	5
531.760	1	2
532.100	1	10
532.440	1	12
532.780	1	-4
533.120	1	7
533.461	1	8
533.801	1	5
534.141	1	-3
534.481	1	12
534.821	1	0
535.162	1	2
535.502	1	3
535.842	1	-5
536.182	1	-6
536.522	1	-5
536.862	1	6
537.203	1	0
537.543	1	4
537.883	1	9
538.223	1	20
538.563	1	-9
538.903	1	-4
539.243	1	3
539.584	1	-1
539.924	1	0
540.264	1	11
540.604	1	13
540.944	1	7
541.284	1	0
541.624	1	7
541.964	1	-3
542.305	1	6
542.645	1	-10
542.985	1	1
543.325	1	13
543.665	1	8
544.005	1	-2
544.345	1	-1
544.685	1	-3
545.025	1	4
545.365	1	4
545.705	1	7
546.045	1	4
546.386	1	-1
546.726	1	2
547.066	1	1
547.406	1	-2
547.746	1	-2
548.086	1	-5
548.426	1	8
548.766	1	3
549.106	1	-3
549.446	1	5
549.786	1	6
550.126	1	10
550.466	1	-2
550.806	1	7
551.146	1	3
551.486	1	1
551.826	1	-2
552.166	1	3
552.506	1	-1
552.846	1	5
553.186	1	-4
553.526	1	2
553.866	1	-2
554.206	1	8
554.546	1	7
554.886	1	6
555.226	1	-1
555.566	1	7
555.906	1	-1
556.246	1	-1
556.586	1	5
556.926	1	3
557.266	1	6
557.606	1	-6
557.946	1	2
558.286	1	-6
558.626	1	-3
558.966	1	2
559.306	1	-1
559.646	1	3
559.986	1	4
560.325	1	7
560.665	1	0
561.005	1	-1
561.345	1	4
561.685	1	11
562.025	1	4
562.365	1	-9
562.705	1	18
563.045	1	1
563.385	1	14
563.725	1	1
564.064	1	-9
564.404	1	-1
564.744	1	11
565.084	1	0
565.424	1	3
565.764	1	-2
566.104	1	5
566.444	1	7
566.783	1	6
567.123	1	-5
567.463	1	1
567.803	1	0
568.143	1	8
568.483	1	0
568.823	1	7
569.162	1	-2
569.502	1	12
569.842	1	1
570.182	1	2
570.522	1	-2
570.862	1	-12
571.201	1	13
571.541	1	-3
571.881	1	6
572.221	1	-3
572.561	1	7
572.900	1	6
573.240	1	-4
573.580	1	6
573.920	1	9
574.260	1	-1
574.599	1	-3
574.939	1	-1
575.279	1	1
575.619	1	-7
575.959	1	-9
576.298	1	-4
576.638	1	-1
576.978	1	2
577.318	1	0
577.657	1	-7
577.997	1	1
578.337	1	-1
578.677	1	-1
579.016	1	2
579.356	1	-3
579.696	1	-3
580.036	1	5
580.375	1	5
580.715	1	7
581.055	1	-4
581.394	1	-9
581.734	1	4
582.074	1	4
582.414	1	1
582.753	1	-4
583.093	1	3
583.433	1	8
583.772	1	12
584.112	1	7
584.452	1	2
584.791	1	2
585.131	1	12
585.471	1	0
585.811	1	-6
586.150	1	4
586.490	1	6
586.830	1	8
587.169	1	2
587.509	1	5
587.849	1	6
588.188	1	6
588.528	1	4
588.867	1	4
589.207	1	5
589.547	1	5
589.886	1	10
590.226	1	-5
590.566	1	2
590.905	1	7
591.245	1	-2
591.585	1	-4
591.924	1	-3
592.264	1	5
592.603	1	-14
592.943	1	-2
593.283	1	-1
593.622	1	-9
593.962	1	11
594.301	1	-1
594.641	1	3
594.981	1	2
595.320	1	4
595.660	1	4
595.999	1	1
596.339	1	5
596.678	1	-12
597.018	1	-3
597.358	1	2
597.697	1	-9
598.037	1	0
598.376	1	-2
598.716	1	1
599.055	1	4
599.395	1	-4
599.734	1	6
600.074	1	3
600.413	1	9
600.753	1	7
601.092	1	-10
601.432	1	-11
601.771	1	-1
602.111	1	1
602.451	1	-9
602.790	1	2
603.130	1	-2
603.469	1	5
603.809	1	-3
604.148	1	-6
604.487	1	1
604.827	1	9
605.166	1	2
605.506	1	0
605.845	1	8
606.185	1	3
606.524	1	0
606.864	1	10
607.203	1	2
607.543	1	9
607.882	1	14
608.222	1	4
608.561	1	-2
608.901	1	7
609.240	1	3
609.579	1	4
609.919	1	-2
610.258	1	6
610.598	1	-7
610.937	1	1
611.277	1	3
611.616	1	15
611.955	1	-7
612.295	1	11
612.634	1	10
612.974	1	7
613.313	1	-1
613.652	1	7
613.992	1	-7
614.331	1	12
614.671	1	10
615.010	1	2
615.349	1	5
615.689	1	1
616.028	1	14
616.368	1	5
616.707	1	6
617.046	1	1
617.386	1	4
617.725	1	4
618.064	1	-6
618.404	1	3
618.743	1	0
619.082	1	9
619.422	1	1
619.761	1	-10
620.100	1	0
620.440	1	2
620.779	1	13
621.118	1	14
621.458	1	-7
621.797	1	0
622.136	1	-5
622.476	1	6
622.815	1	1
623.154	1	-8
623.494	1	-13
623.833	1	-2
624.172	1	3
624.511	1	-4
624.851	1	3
625.190	1	-3
625.529	1	2
625.869	1	4
626.208	1	-9
626.547	1	-8
626.886	1	-7
627.226	1	0
627.565	1	3
627.904	1	0
628.243	1	7
628.583	1	2
628.922	1	1
629.261	1	8
629.600	1	2
629.940	1	1
630.279	1	2
630.618	1	15
630.957	1	10
631.297	1	9
631.636	1	-4
631.975	1	-6
632.314	1	6
632.653	1	-3
632.993	1	8
633.332	1	5
633.671	1	12
634.010	1	3
634.349	1	6
634.689	1	0
635.028	1	-5
635.367	1	10
635.706	1	-7
636.045	1	-8
636.384	1	3
636.724	1	-4
637.063	1	-3
637.402	1	2
637.741	1	-6
638.080	1	4
638.419	1	0
638.759	1	9
639.098	1	-9
639.437	1	3
639.776	1	5
640.115	1	-13
640.454	1	-4
640.793	1	5
641.132	1	1
641.472	1	4
641.811	1	0
642.150	1	4
642.489	1	6
642.828	1	13
643.167	1	-4
643.506	1	6
643.845	1	6
644.184	1	8
644.524	1	-9
644.863	1	-6
645.202	1	-4
645.541	1	-2
645.880	1	6
646.219	1	1
646.558	1	-5
646.897	1	-8
647.236	1	-13
647.575	1	4
647.914	1	-6
648.253	1	11
648.592	1	3
648.931	1	3
649.270	1	1
649.610	1	5
649.949	1	3
650.288	1	10
650.627	1	-3
650.966	1	4
651.305	1	4
651.644	1	9
651.983	1	-5
652.322	1	-1
652.661	1	7
653.000	1	4
653.339	1	6
653.678	1	15
654.017	1	6
654.356	1	2
654.695	1	14
655.034	1	3
655.373	1	3
655.712	1	-4
656.051	1	1
656.390	1	-3
656.729	1	7
657.068	1	2
657.406	1	-3
657.745	1	6
658.084	1	-6
658.423	1	8
658.762	1	3
659.101	1	5
659.440	1	2
659.779	1	2
660.118	1	0
660.457	1	-1
660.796	1	3
661.135	1	5
661.474	1	1
661.813	1	-1
662.152	1	-6
662.491	1	-5
662.829	1	2
663.168	1	8
663.507	1	15
663.846	1	-3
664.185	1	-5
664.524	1	8
664.863	1	-11
665.202	1	0
665.541	1	3
665.879	1	7
666.218	1	8
666.557	1	-10
666.896	1	-2
667.235	1	-6
667.574	1	-2
667.913	1	16
668.251	1	-4
668.590	1	-5
668.929	1	0
669.268	1	-1
669.607	1	-1
669.946	1	-3
670.285	1	-6
670.623	1	4
670.962	1	-9
671.301	1	0
671.640	1	5
671.979	1	-2
672.317	1	0
672.656	1	5
672.995	1	-2
673.334	1	-5
673.673	1	4
674.011	1	-1
674.350	1	5
674.689	1	-2
675.028	1	2
675.367	1	-5
675.705	1	-7
676.044	1	4
676.383	1	-8
676.722	1	1
677.060	1	4
677.399	1	12
677.738	1	1
678.077	1	-4
678.416	1	-4
678.754	1	-4
679.093	1	0
679.432	1	-4
679.771	1	-1
680.109	1	-2
680.448	1	0
680.787	1	-16
681.125	1	-2
681.464	1	3
681.803	1	-3
682.142	1	-3
682.480	1	-1
682.819	1	-9
683.158	1	-1
683.496	1	5
683.835	1	2
684.174	1	5
684.512	1	3
684.851	1	-6
685.190	1	4
685.529	1	-6
685.867	1	-4
686.206	1	-9
686.545	1	0
686.883	1	-3
687.222	1	4
687.561	1	2
687.899	1	3
688.238	1	7
688.577	1	-7
688.746	1	-5