File: Data/GaN_150K_450ms/GaN_sample D_spot15_UVVIS_150 K_200um_450 ms 2x2mm1_102.txt
340.368	1	1
340.710	1	4
341.052	1	2
341.394	1	-13
341.737	1	11
342.079	1	6
342.421	1	12
342.763	1	7
343.105	1	9
343.447	1	6
343.789	1	3
344.131	1	-5
344.473	1	5
344.815	1	7
345.157	1	11
345.499	1	7
345.841	1	8
346.183	1	2
346.526	1	7
346.868	1	5
347.210	1	0
347.552	1	23
347.894	1	1
348.236	1	12
348.578	1	5
348.920	1	3
349.262	1	5
349.604	1	2
349.946	1	5
350.288	1	7
350.630	1	-3
350.972	1	11
351.314	1	-2
351.656	1	12
351.998	1	15
352.340	1	4
352.682	1	-2
353.024	1	19
353.366	1	9
353.708	1	4
354.050	1	-3
354.392	1	-1
354.734	1	10
355.076	1	20
355.418	1	-1
355.760	1	13
356.102	1	6
356.444	1	21
356.785	1	12
357.127	1	18
357.469	1	15
357.811	1	9
358.153	1	-4
358.495	1	11
358.837	1	26
359.179	1	12
359.521	1	32
359.863	1	6
360.205	1	30
360.547	1	33
360.889	1	21
361.231	1	26
361.572	1	31
361.914	1	38
362.256	1	33
362.598	1	42
362.940	1	37
363.282	1	41
363.624	1	49
363.966	1	48
364.308	1	57
364.649	1	61
364.991	1	63
365.333	1	57
365.675	1	70
366.017	1	73
366.359	1	63
366.701	1	73
367.042	1	91
367.384	1	87
367.726	1	94
368.068	1	90
368.410	1	98
368.752	1	99
369.093	1	89
369.435	1	96
369.777	1	94
370.119	1	94
370.461	1	81
370.803	1	78
371.144	1	75
371.486	1	71
371.828	1	66
372.170	1	58
372.512	1	48
372.853	1	71
373.195	1	61
373.537	1	46
373.879	1	47
374.220	1	51
374.562	1	58
374.904	1	39
375.246	1	43
375.588	1	40
375.929	1	48
376.271	1	30
376.613	1	42
376.955	1	34
377.296	1	43
377.638	1	24
377.980	1	36
378.321	1	37
378.663	1	27
379.005	1	30
379.347	1	30
379.688	1	23
380.030	1	32
380.372	1	34
380.714	1	18
381.055	1	19
381.397	1	19
381.739	1	13
382.080	1	28
382.422	1	24
382.764	1	17
383.105	1	25
383.447	1	11
383.789	1	7
384.130	1	19
384.472	1	17
384.814	1	29
385.156	1	24
385.497	1	33
385.839	1	15
386.180	1	9
386.522	1	27
386.864	1	11
387.205	1	9
387.547	1	19
387.889	1	13
388.230	1	13
388.572	1	6
388.914	1	19
389.255	1	10
389.597	1	8
389.939	1	27
390.280	1	17
390.622	1	12
390.963	1	3
391.305	1	0
391.647	1	13
391.988	1	12
392.330	1	15
392.671	1	12
393.013	1	21
393.355	1	19
393.696	1	13
394.038	1	12
394.379	1	20
394.721	1	10
395.062	1	7
395.404	1	11
395.746	1	5
396.087	1	13
396.429	1	11
396.770	1	15
397.112	1	7
397.453	1	6
397.795	1	8
398.136	1	13
398.478	1	7
398.819	1	15
399.161	1	21
399.503	1	13
399.844	1	7
400.186	1	13
400.527	1	7
400.869	1	9
401.210	1	5
401.552	1	9
401.893	1	10
402.235	1	22
402.576	1	14
402.918	1	8
403.259	1	15
403.601	1	19
403.942	1	8
404.284	1	16
404.625	1	8
404.967	1	13
405.308	1	7
405.649	1	14
405.991	1	13
406.332	1	2
406.674	1	16
407.015	1	11
407.357	1	18
407.698	1	9
408.040	1	18
408.381	1	2
408.722	1	21
409.064	1	17
409.405	1	11
409.747	1	3
410.088	1	24
410.430	1	15
410.771	1	23
411.112	1	14
411.454	1	7
411.795	1	24
412.137	1	12
412.478	1	14
412.819	1	10
413.161	1	12
413.502	1	17
413.844	1	22
414.185	1	19
414.526	1	5
414.868	1	5
415.209	1	12
415.550	1	14
415.892	1	11
416.233	1	9
416.575	1	4
416.916	1	4
417.257	1	18
417.599	1	11
417.940	1	9
418.281	1	13
418.623	1	13
418.964	1	14
419.305	1	14
419.647	1	10
419.988	1	22
420.329	1	22
420.671	1	26
421.012	1	15
421.353	1	23
421.695	1	16
422.036	1	16
422.377	1	21
422.718	1	13
423.060	1	20
423.401	1	15
423.742	1	23
424.084	1	8
424.425	1	22
424.766	1	23
425.107	1	19
425.449	1	18
425.790	1	16
426.131	1	3
426.472	1	29
426.814	1	13
427.155	1	16
427.496	1	16
427.837	1	9
428.179	1	23
428.520	1	17
428.861	1	23
429.202	1	-2
429.544	1	14
429.885	1	20
430.226	1	6
430.567	1	13
430.909	1	13
431.250	1	22
431.591	1	6
431.932	1	12
432.273	1	31
432.615	1	9
432.956	1	5
433.297	1	9
433.638	1	8
433.979	1	14
434.320	1	10
434.662	1	14
435.003	1	15
435.344	1	14
435.685	1	3
436.026	1	9
436.368	1	4
436.709	1	13
437.050	1	4
437.391	1	7
437.732	1	16
438.073	1	0
438.414	1	14
438.756	1	6
439.097	1	10
439.438	1	13
439.779	1	5
440.120	1	11
440.461	1	15
440.802	1	12
441.143	1	4
441.485	1	14
441.826	1	13
442.167	1	15
442.508	1	13
442.849	1	7
443.190	1	11
443.531	1	10
443.872	1	3
444.213	1	-2
444.554	1	13
444.895	1	8
445.237	1	19
445.578	1	6
445.919	1	13
446.260	1	17
446.601	1	8
446.942	1	4
447.283	1	13
447.624	1	12
447.965	1	17
448.306	1	12
448.647	1	8
448.988	1	15
449.329	1	16
449.670	1	11
450.011	1	6
450.352	1	1
450.693	1	16
451.034	1	4
451.375	1	12
451.716	1	5
452.057	1	11
452.398	1	16
452.739	1	8
453.080	1	15
453.421	1	19
453.762	1	18
454.103	1	-1
454.444	1	6
454.785	1	9
455.126	1	10
455.467	1	5
455.808	1	19
456.149	1	1
456.490	1	4
456.831	1	6
457.172	1	11
457.513	1	6
457.854	1	8
458.195	1	2
458.536	1	17
458.877	1	15
459.218	1	15
459.559	1	-3
459.899	1	9
460.240	1	-1
460.581	1	-6
460.922	1	5
461.263	1	16
461.604	1	8
461.945	1	12
462.286	1	5
462.627	1	9
462.968	1	13
463.309	1	7
463.649	1	6
463.990	1	-1
464.331	1	11
464.672	1	4
465.013	1	6
465.354	1	17
465.695	1	7
466.036	1	20
466.376	1	18
466.717	1	3
467.058	1	5
467.399	1	3
467.740	1	9
468.081	1	12
468.422	1	9
468.762	1	9
469.103	1	4
469.444	1	10
469.785	1	1
470.126	1	18
470.467	1	9
470.807	1	23
471.148	1	13
471.489	1	16
471.830	1	11
472.171	1	15
472.511	1	12
472.852	1	10
473.193	1	8
473.534	1	16
473.875	1	7
474.215	1	12
474.556	1	7
474.897	1	-1
475.238	1	12
475.578	1	-5
475.919	1	-4
476.260	1	1
476.601	1	6
476.942	1	5
477.282	1	4
477.623	1	3
477.964	1	14
478.305	1	5
478.645	1	11
478.986	1	11
479.327	1	11
479.667	1	3
480.008	1	12
480.349	1	11
480.690	1	18
481.030	1	-5
481.371	1	-3
481.712	1	16
482.053	1	11
482.393	1	7
482.734	1	13
483.075	1	14
483.415	1	11
483.756	1	5
484.097	1	10
484.437	1	12
484.778	1	7
485.119	1	10
485.459	1	7
485.800	1	-6
486.141	1	9
486.481	1	-1
486.822	1	15
487.163	1	7
487.503	1	14
487.844	1	-1
488.185	1	9
488.525	1	9
488.866	1	-2
489.207	1	4
489.547	1	1
489.888	1	11
490.228	1	8
490.569	1	8
490.910	1	7
491.250	1	6
491.591	1	7
491.932	1	17
492.272	1	5
492.613	1	13
492.953	1	2
493.294	1	-2
493.635	1	5
493.975	1	24
494.316	1	1
494.656	1	18
494.997	1	3
495.337	1	15
495.678	1	15
496.019	1	5
496.359	1	11
496.700	1	14
497.040	1	6
497.381	1	8
497.721	1	9
498.062	1	11
498.403	1	11
498.743	1	15
499.084	1	17
499.424	1	12
499.765	1	18
500.105	1	22
500.446	1	6
500.786	1	16
501.127	1	17
501.467	1	13
501.808	1	16
502.148	1	13
502.489	1	9
502.829	1	12
503.170	1	15
503.510	1	10
503.851	1	12
504.191	1	24
504.532	1	23
504.872	1	9
505.213	1	3
505.553	1	17
505.894	1	19
506.234	1	27
506.575	1	20
506.915	1	17
507.256	1	25
507.596	1	32
507.936	1	30
508.277	1	21
508.617	1	22
508.958	1	24
509.298	1	9
509.639	1	14
509.979	1	16
510.319	1	23
510.660	1	16
511.000	1	13
511.341	1	33
511.681	1	17
512.022	1	10
512.362	1	28
512.702	1	10
513.043	1	17
513.383	1	18
513.724	1	18
514.064	1	25
514.404	1	28
514.745	1	25
515.085	1	27
515.425	1	15
515.766	1	12
516.106	1	21
516.447	1	25
516.787	1	17
517.127	1	27
517.468	1	25
517.808	1	14
518.148	1	33
518.489	1	13
518.829	1	9
519.169	1	22
519.510	1	20
519.850	1	16
520.190	1	21
520.531	1	26
520.871	1	29
521.211	1	21
521.552	1	22
521.892	1	20
522.232	1	31
522.573	1	26
522.913	1	23
523.253	1	33
523.593	1	29
523.934	1	29
524.274	1	13
524.614	1	32
524.955	1	20
525.295	1	27
525.635	1	30
525.975	1	16
526.316	1	16
526.656	1	27
526.996	1	24
527.337	1	26
527.677	1	45
528.017	1	27
528.357	1	29
528.698	1	28
529.038	1	25
529.378	1	27
529.718	1	28
530.058	1	27
530.399	1	25
530.739	1	26
531.079	1	21
531.419	1	33
531.760	1	33
532.100	1	28
532.440	1	34
532.780	1	24
533.120	1	19
533.461	1	22
533.801	1	24
534.141	1	27
534.481	1	42
534.821	1	29
535.162	1	26
535.502	1	34
535.842	1	17
536.182	1	22
536.522	1	20
536.862	1	28
537.203	1	23
537.543	1	23
537.883	1	23
538.223	1	36
538.563	1	19
538.903	1	12
539.243	1	19
539.584	1	22
539.924	1	22
540.264	1	28
540.604	1	21
540.944	1	14
541.284	1	15
541.624	1	20
541.964	1	19
542.305	1	21
542.645	1	20
542.985	1	21
543.325	1	25
543.665	1	15
544.005	1	21
544.345	1	20
544.685	1	15
545.025	1	25
545.365	1	19
545.705	1	21
546.045	1	22
546.386	1	21
546.726	1	25
547.066	1	28
547.406	1	3
547.746	1	17
548.086	1	24
548.426	1	19
548.766	1	22
549.106	1	16
549.446	1	23
549.786	1	17
550.126	1	31
550.466	1	31
550.806	1	25
551.146	1	22
551.486	1	16
551.826	1	15
552.166	1	12
552.506	1	19
552.846	1	19
553.186	1	12
553.526	1	26
553.866	1	19
554.206	1	29
554.546	1	12
554.886	1	21
555.226	1	27
555.566	1	17
555.906	1	19
556.246	1	15
556.586	1	16
556.926	1	16
557.266	1	25
557.606	1	10
557.946	1	24
558.286	1	10
558.626	1	17
558.966	1	23
559.306	1	22
559.646	1	15
559.986	1	15
560.325	1	13
560.665	1	15
561.005	1	14
561.345	1	9
561.685	1	11
562.025	1	18
562.365	1	11
562.705	1	20
563.045	1	9
563.385	1	17
563.725	1	12
564.064	1	15
564.404	1	9
564.744	1	18
565.084	1	14
565.424	1	7
565.764	1	15
566.104	1	27
566.444	1	14
566.783	1	15
567.123	1	7
567.463	1	15
567.803	1	17
568.143	1	15
568.483	1	26
568.823	1	11
569.162	1	-1
569.502	1	16
569.842	1	6
570.182	1	10
570.522	1	8
570.862	1	-2
571.201	1	20
571.541	1	19
571.881	1	10
572.221	1	9
572.561	1	20
572.900	1	22
573.240	1	17
573.580	1	10
573.920	1	12
574.260	1	11
574.599	1	16
574.939	1	11
575.279	1	11
575.619	1	2
575.959	1	9
576.298	1	9
576.638	1	14
576.978	1	9
577.318	1	13
577.657	1	9
577.997	1	7
578.337	1	8
578.677	1	5
579.016	1	15
579.356	1	15
579.696	1	9
580.036	1	9
580.375	1	11
580.715	1	12
581.055	1	10
581.394	1	11
581.734	1	19
582.074	1	5
582.414	1	6
582.753	1	11
583.093	1	24
583.433	1	9
583.772	1	3
584.112	1	11
584.452	1	15
584.791	1	7
585.131	1	11
585.471	1	12
585.811	1	5
586.150	1	5
586.490	1	13
586.830	1	5
587.169	1	5
587.509	1	10
587.849	1	23
588.188	1	19
588.528	1	7
588.867	1	8
589.207	1	12
589.547	1	10
589.886	1	14
590.226	1	9
590.566	1	6
590.905	1	10
591.245	1	4
591.585	1	-1
591.924	1	7
592.264	1	10
592.603	1	8
592.943	1	1
593.283	1	7
593.622	1	5
593.962	1	8
594.301	1	4
594.641	1	12
594.981	1	10
595.320	1	11
595.660	1	6
595.999	1	7
596.339	1	13
596.678	1	-4
597.018	1	-3
597.358	1	12
597.697	1	2
598.037	1	9
598.376	1	6
598.716	1	12
599.055	1	14
599.395	1	-3
599.734	1	5
600.074	1	1
600.413	1	15
600.753	1	14
601.092	1	1
601.432	1	-7
601.771	1	8
602.111	1	13
602.451	1	0
602.790	1	7
603.130	1	6
603.469	1	9
603.809	1	13
604.148	1	-3
604.487	1	8
604.827	1	13
605.166	1	18
605.506	1	6
605.845	1	11
606.185	1	-4
606.524	1	-6
606.864	1	17
607.203	1	7
607.543	1	5
607.882	1	11
608.222	1	9
608.561	1	5
608.901	1	8
609.240	1	15
609.579	1	8
609.919	1	5
610.258	1	20
610.598	1	0
610.937	1	13
611.277	1	15
611.616	1	20
611.955	1	5
612.295	1	8
612.634	1	4
612.974	1	4
613.313	1	8
613.652	1	16
613.992	1	-4
614.331	1	14
614.671	1	7
615.010	1	9
615.349	1	8
615.689	1	3
616.028	1	11
616.368	1	13
616.707	1	5
617.046	1	7
617.386	1	18
617.725	1	6
618.064	1	2
618.404	1	7
618.743	1	7
619.082	1	23
619.422	1	12
619.761	1	4
620.100	1	5
620.440	1	7
620.779	1	10
621.118	1	14
621.458	1	-1
621.797	1	5
622.136	1	2
622.476	1	6
622.815	1	12
623.154	1	5
623.494	1	4
623.833	1	11
624.172	1	17
624.511	1	2
624.851	1	0
625.190	1	4
625.529	1	10
625.869	1	13
626.208	1	-9
626.547	1	1
626.886	1	-9
627.226	1	17
627.565	1	12
627.904	1	-4
628.243	1	11
628.583	1	1
628.922	1	15
629.261	1	13
629.600	1	4
629.940	1	12
630.279	1	11
630.618	1	11
630.957	1	12
631.297	1	6
631.636	1	15
631.975	1	3
632.314	1	16
632.653	1	2
632.993	1	4
633.332	1	2
633.671	1	8
634.010	1	0
634.349	1	12
634.689	1	1
635.028	1	-1
635.367	1	18
635.706	1	5
636.045	1	5
636.384	1	14
636.724	1	2
637.063	1	-5
637.402	1	6
637.741	1	3
638.080	1	15
638.419	1	9
638.759	1	5
639.098	1	3
639.437	1	13
639.776	1	6
640.115	1	4
640.454	1	-1
640.793	1	1
641.132	1	10
641.472	1	15
641.811	1	0
642.150	1	0
642.489	1	9
642.828	1	17
643.167	1	6
643.506	1	3
643.845	1	14
644.184	1	18
644.524	1	18
644.863	1	6
645.202	1	4
645.541	1	1
645.880	1	8
646.219	1	15
646.558	1	4
646.897	1	-4
647.236	1	-7
647.575	1	13
647.914	1	-6
648.253	1	15
648.592	1	5
648.931	1	11
649.270	1	13
649.610	1	18
649.949	1	4
650.288	1	4
650.627	1	5
650.966	1	-2
651.305	1	16
651.644	1	14
651.983	1	3
652.322	1	4
652.661	1	4
653.000	1	7
653.339	1	8
653.678	1	18
654.017	1	13
654.356	1	8
654.695	1	14
655.034	1	-3
655.373	1	2
655.712	1	15
656.051	1	-2
656.390	1	12
656.729	1	5
657.068	1	11
657.406	1	10
657.745	1	14
658.084	1	2
658.423	1	14
658.762	1	-1
659.101	1	6
659.440	1	8
659.779	1	5
660.118	1	-2
660.457	1	-6
660.796	1	0
661.135	1	9
661.474	1	4
661.813	1	5
662.152	1	5
662.491	1	-8
662.829	1	5
663.168	1	10
663.507	1	3
663.846	1	5
664.185	1	5
664.524	1	11
664.863	1	0
665.202	1	7
665.541	1	2
665.879	1	9
666.218	1	13
666.557	1	6
666.896	1	4
667.235	1	-6
667.574	1	3
667.913	1	17
668.251	1	-10
668.590	1	2
668.929	1	0
669.268	1	5
669.607	1	-2
669.946	1	6
670.285	1	-3
670.623	1	10
670.962	1	-1
671.301	1	2
671.640	1	9
671.979	1	-1
672.317	1	10
672.656	1	18
672.995	1	17
673.334	1	-2
673.673	1	16
674.011	1	2
674.350	1	2
674.689	1	0
675.028	1	4
675.367	1	4
675.705	1	0
676.044	1	0
676.383	1	-4
676.722	1	4
677.060	1	11
677.399	1	18
677.738	1	-3
678.077	1	7
678.416	1	3
678.754	1	11
679.093	1	20
679.432	1	-11
679.771	1	6
680.109	1	1
680.448	1	2
680.787	1	-4
681.125	1	-1
681.464	1	7
681.803	1	-6
682.142	1	12
682.480	1	2
682.819	1	7
683.158	1	2
683.496	1	6
683.835	1	3
684.174	1	12
684.512	1	7
684.851	1	10
685.190	1	1
685.529	1	-5
685.867	1	8
686.206	1	-4
686.545	1	5
686.883	1	5
687.222	1	-2
687.561	1	8
687.899	1	7
688.238	1	9
688.577	1	9
688.746	1	-3