File: Data/GaN_150K_450ms/GaN_sample D_spot15_UVVIS_150 K_200um_450 ms 2x2mm1_167.txt
340.368	1	3
340.710	1	0
341.052	1	6
341.394	1	0
341.737	1	9
342.079	1	8
342.421	1	4
342.763	1	15
343.105	1	1
343.447	1	7
343.789	1	6
344.131	1	-3
344.473	1	3
344.815	1	10
345.157	1	8
345.499	1	1
345.841	1	6
346.183	1	6
346.526	1	1
346.868	1	-6
347.210	1	4
347.552	1	10
347.894	1	-6
348.236	1	9
348.578	1	14
348.920	1	9
349.262	1	1
349.604	1	-2
349.946	1	-1
350.288	1	3
350.630	1	-3
350.972	1	4
351.314	1	3
351.656	1	3
351.998	1	-2
352.340	1	9
352.682	1	-8
353.024	1	9
353.366	1	9
353.708	1	4
354.050	1	4
354.392	1	0
354.734	1	7
355.076	1	8
355.418	1	7
355.760	1	5
356.102	1	5
356.444	1	12
356.785	1	5
357.127	1	11
357.469	1	13
357.811	1	11
358.153	1	3
358.495	1	8
358.837	1	12
359.179	1	10
359.521	1	16
359.863	1	2
360.205	1	15
360.547	1	17
360.889	1	-4
361.231	1	14
361.572	1	14
361.914	1	5
362.256	1	22
362.598	1	12
362.940	1	17
363.282	1	8
363.624	1	18
363.966	1	10
364.308	1	19
364.649	1	24
364.991	1	18
365.333	1	35
365.675	1	27
366.017	1	26
366.359	1	29
366.701	1	32
367.042	1	33
367.384	1	11
367.726	1	26
368.068	1	32
368.410	1	20
368.752	1	46
369.093	1	35
369.435	1	28
369.777	1	45
370.119	1	38
370.461	1	28
370.803	1	20
371.144	1	23
371.486	1	29
371.828	1	22
372.170	1	15
372.512	1	19
372.853	1	32
373.195	1	14
373.537	1	4
373.879	1	13
374.220	1	18
374.562	1	24
374.904	1	27
375.246	1	13
375.588	1	10
375.929	1	12
376.271	1	14
376.613	1	21
376.955	1	11
377.296	1	11
377.638	1	12
377.980	1	5
378.321	1	13
378.663	1	15
379.005	1	12
379.347	1	12
379.688	1	16
380.030	1	13
380.372	1	11
380.714	1	14
381.055	1	6
381.397	1	9
381.739	1	-7
382.080	1	10
382.422	1	11
382.764	1	8
383.105	1	0
383.447	1	6
383.789	1	3
384.130	1	11
384.472	1	1
384.814	1	18
385.156	1	18
385.497	1	12
385.839	1	14
386.180	1	11
386.522	1	8
386.864	1	3
387.205	1	5
387.547	1	12
387.889	1	4
388.230	1	5
388.572	1	-3
388.914	1	16
389.255	1	-1
389.597	1	1
389.939	1	16
390.280	1	1
390.622	1	-2
390.963	1	-10
391.305	1	5
391.647	1	-6
391.988	1	6
392.330	1	6
392.671	1	8
393.013	1	6
393.355	1	8
393.696	1	13
394.038	1	8
394.379	1	14
394.721	1	7
395.062	1	-6
395.404	1	2
395.746	1	3
396.087	1	12
396.429	1	13
396.770	1	9
397.112	1	5
397.453	1	3
397.795	1	11
398.136	1	9
398.478	1	9
398.819	1	12
399.161	1	10
399.503	1	10
399.844	1	8
400.186	1	11
400.527	1	0
400.869	1	3
401.210	1	13
401.552	1	7
401.893	1	2
402.235	1	2
402.576	1	13
402.918	1	-4
403.259	1	5
403.601	1	12
403.942	1	9
404.284	1	7
404.625	1	9
404.967	1	8
405.308	1	-3
405.649	1	0
405.991	1	12
406.332	1	5
406.674	1	1
407.015	1	10
407.357	1	14
407.698	1	17
408.040	1	13
408.381	1	6
408.722	1	6
409.064	1	2
409.405	1	6
409.747	1	7
410.088	1	18
410.430	1	12
410.771	1	14
411.112	1	5
411.454	1	13
411.795	1	1
412.137	1	8
412.478	1	11
412.819	1	20
413.161	1	14
413.502	1	12
413.844	1	19
414.185	1	0
414.526	1	0
414.868	1	9
415.209	1	3
415.550	1	6
415.892	1	6
416.233	1	4
416.575	1	1
416.916	1	7
417.257	1	13
417.599	1	14
417.940	1	8
418.281	1	4
418.623	1	7
418.964	1	20
419.305	1	14
419.647	1	8
419.988	1	25
420.329	1	13
420.671	1	19
421.012	1	5
421.353	1	16
421.695	1	7
422.036	1	13
422.377	1	4
422.718	1	7
423.060	1	13
423.401	1	6
423.742	1	21
424.084	1	7
424.425	1	15
424.766	1	14
425.107	1	-7
425.449	1	6
425.790	1	11
426.131	1	8
426.472	1	14
426.814	1	10
427.155	1	-1
427.496	1	23
427.837	1	1
428.179	1	25
428.520	1	8
428.861	1	20
429.202	1	3
429.544	1	1
429.885	1	6
430.226	1	-5
430.567	1	11
430.909	1	7
431.250	1	20
431.591	1	10
431.932	1	8
432.273	1	6
432.615	1	-6
432.956	1	15
433.297	1	14
433.638	1	13
433.979	1	8
434.320	1	17
434.662	1	13
435.003	1	21
435.344	1	0
435.685	1	0
436.026	1	2
436.368	1	4
436.709	1	10
437.050	1	4
437.391	1	5
437.732	1	11
438.073	1	-1
438.414	1	8
438.756	1	10
439.097	1	2
439.438	1	2
439.779	1	3
440.120	1	2
440.461	1	7
440.802	1	3
441.143	1	-6
441.485	1	7
441.826	1	7
442.167	1	5
442.508	1	9
442.849	1	11
443.190	1	-2
443.531	1	2
443.872	1	1
444.213	1	-5
444.554	1	12
444.895	1	3
445.237	1	14
445.578	1	-5
445.919	1	7
446.260	1	13
446.601	1	11
446.942	1	4
447.283	1	14
447.624	1	5
447.965	1	-7
448.306	1	4
448.647	1	6
448.988	1	17
449.329	1	16
449.670	1	3
450.011	1	5
450.352	1	9
450.693	1	13
451.034	1	2
451.375	1	8
451.716	1	7
452.057	1	7
452.398	1	14
452.739	1	2
453.080	1	17
453.421	1	7
453.762	1	12
454.103	1	1
454.444	1	7
454.785	1	5
455.126	1	1
455.467	1	4
455.808	1	12
456.149	1	5
456.490	1	-9
456.831	1	10
457.172	1	13
457.513	1	-1
457.854	1	10
458.195	1	8
458.536	1	18
458.877	1	14
459.218	1	6
459.559	1	5
459.899	1	14
460.240	1	4
460.581	1	0
460.922	1	12
461.263	1	8
461.604	1	6
461.945	1	17
462.286	1	4
462.627	1	2
462.968	1	11
463.309	1	9
463.649	1	0
463.990	1	2
464.331	1	7
464.672	1	0
465.013	1	-4
465.354	1	3
465.695	1	2
466.036	1	14
466.376	1	16
466.717	1	-1
467.058	1	6
467.399	1	3
467.740	1	15
468.081	1	3
468.422	1	7
468.762	1	13
469.103	1	3
469.444	1	6
469.785	1	6
470.126	1	6
470.467	1	2
470.807	1	8
471.148	1	-4
471.489	1	5
471.830	1	2
472.171	1	10
472.511	1	6
472.852	1	11
473.193	1	6
473.534	1	5
473.875	1	6
474.215	1	8
474.556	1	-4
474.897	1	-1
475.238	1	4
475.578	1	1
475.919	1	-8
476.260	1	-1
476.601	1	4
476.942	1	4
477.282	1	9
477.623	1	0
477.964	1	13
478.305	1	9
478.645	1	7
478.986	1	9
479.327	1	13
479.667	1	11
480.008	1	2
480.349	1	7
480.690	1	1
481.030	1	-1
481.371	1	-1
481.712	1	10
482.053	1	7
482.393	1	8
482.734	1	12
483.075	1	7
483.415	1	4
483.756	1	3
484.097	1	16
484.437	1	4
484.778	1	4
485.119	1	2
485.459	1	7
485.800	1	0
486.141	1	12
486.481	1	-6
486.822	1	14
487.163	1	-5
487.503	1	0
487.844	1	-3
488.185	1	3
488.525	1	-5
488.866	1	0
489.207	1	1
489.547	1	7
489.888	1	6
490.228	1	4
490.569	1	-5
490.910	1	17
491.250	1	12
491.591	1	4
491.932	1	15
492.272	1	-10
492.613	1	5
492.953	1	-3
493.294	1	-8
493.635	1	0
493.975	1	14
494.316	1	4
494.656	1	16
494.997	1	-1
495.337	1	3
495.678	1	-8
496.019	1	1
496.359	1	1
496.700	1	1
497.040	1	-4
497.381	1	6
497.721	1	0
498.062	1	5
498.403	1	16
498.743	1	10
499.084	1	8
499.424	1	0
499.765	1	1
500.105	1	11
500.446	1	2
500.786	1	3
501.127	1	8
501.467	1	18
501.808	1	-2
502.148	1	-3
502.489	1	-3
502.829	1	5
503.170	1	8
503.510	1	-2
503.851	1	16
504.191	1	7
504.532	1	27
504.872	1	-1
505.213	1	-1
505.553	1	3
505.894	1	5
506.234	1	10
506.575	1	16
506.915	1	6
507.256	1	1
507.596	1	7
507.936	1	17
508.277	1	20
508.617	1	11
508.958	1	9
509.298	1	3
509.639	1	-4
509.979	1	2
510.319	1	7
510.660	1	5
511.000	1	6
511.341	1	16
511.681	1	10
512.022	1	1
512.362	1	13
512.702	1	-2
513.043	1	9
513.383	1	7
513.724	1	11
514.064	1	10
514.404	1	15
514.745	1	2
515.085	1	13
515.425	1	6
515.766	1	7
516.106	1	4
516.447	1	13
516.787	1	6
517.127	1	20
517.468	1	9
517.808	1	2
518.148	1	10
518.489	1	7
518.829	1	9
519.169	1	7
519.510	1	4
519.850	1	12
520.190	1	7
520.531	1	8
520.871	1	0
521.211	1	12
521.552	1	8
521.892	1	14
522.232	1	18
522.573	1	4
522.913	1	15
523.253	1	6
523.593	1	11
523.934	1	13
524.274	1	5
524.614	1	14
524.955	1	9
525.295	1	14
525.635	1	5
525.975	1	0
526.316	1	-3
526.656	1	10
526.996	1	9
527.337	1	13
527.677	1	16
528.017	1	5
528.357	1	6
528.698	1	18
529.038	1	13
529.378	1	0
529.718	1	12
530.058	1	7
530.399	1	9
530.739	1	11
531.079	1	9
531.419	1	8
531.760	1	12
532.100	1	11
532.440	1	14
532.780	1	6
533.120	1	4
533.461	1	0
533.801	1	13
534.141	1	10
534.481	1	20
534.821	1	9
535.162	1	7
535.502	1	12
535.842	1	6
536.182	1	11
536.522	1	6
536.862	1	-3
537.203	1	6
537.543	1	5
537.883	1	6
538.223	1	21
538.563	1	1
538.903	1	6
539.243	1	11
539.584	1	8
539.924	1	-2
540.264	1	19
540.604	1	9
540.944	1	9
541.284	1	6
541.624	1	7
541.964	1	10
542.305	1	9
542.645	1	11
542.985	1	4
543.325	1	13
543.665	1	-3
544.005	1	11
544.345	1	12
544.685	1	-1
545.025	1	12
545.365	1	22
545.705	1	1
546.045	1	4
546.386	1	1
546.726	1	6
547.066	1	6
547.406	1	-4
547.746	1	-5
548.086	1	7
548.426	1	9
548.766	1	9
549.106	1	5
549.446	1	4
549.786	1	12
550.126	1	8
550.466	1	8
550.806	1	13
551.146	1	15
551.486	1	5
551.826	1	4
552.166	1	10
552.506	1	10
552.846	1	10
553.186	1	6
553.526	1	3
553.866	1	-5
554.206	1	8
554.546	1	12
554.886	1	14
555.226	1	5
555.566	1	19
555.906	1	7
556.246	1	-1
556.586	1	6
556.926	1	6
557.266	1	19
557.606	1	-6
557.946	1	18
558.286	1	-2
558.626	1	8
558.966	1	1
559.306	1	0
559.646	1	9
559.986	1	11
560.325	1	4
560.665	1	12
561.005	1	5
561.345	1	9
561.685	1	14
562.025	1	14
562.365	1	2
562.705	1	4
563.045	1	7
563.385	1	8
563.725	1	3
564.064	1	-2
564.404	1	7
564.744	1	17
565.084	1	5
565.424	1	2
565.764	1	4
566.104	1	13
566.444	1	15
566.783	1	11
567.123	1	2
567.463	1	5
567.803	1	11
568.143	1	1
568.483	1	13
568.823	1	12
569.162	1	-2
569.502	1	5
569.842	1	2
570.182	1	2
570.522	1	-4
570.862	1	-8
571.201	1	15
571.541	1	8
571.881	1	-7
572.221	1	10
572.561	1	15
572.900	1	15
573.240	1	3
573.580	1	12
573.920	1	6
574.260	1	10
574.599	1	6
574.939	1	7
575.279	1	3
575.619	1	3
575.959	1	7
576.298	1	1
576.638	1	11
576.978	1	2
577.318	1	5
577.657	1	2
577.997	1	10
578.337	1	8
578.677	1	1
579.016	1	5
579.356	1	9
579.696	1	7
580.036	1	2
580.375	1	4
580.715	1	6
581.055	1	6
581.394	1	5
581.734	1	2
582.074	1	-12
582.414	1	13
582.753	1	4
583.093	1	20
583.433	1	7
583.772	1	11
584.112	1	5
584.452	1	14
584.791	1	5
585.131	1	11
585.471	1	7
585.811	1	8
586.150	1	4
586.490	1	11
586.830	1	6
587.169	1	9
587.509	1	7
587.849	1	24
588.188	1	14
588.528	1	4
588.867	1	3
589.207	1	5
589.547	1	8
589.886	1	2
590.226	1	6
590.566	1	6
590.905	1	-1
591.245	1	-2
591.585	1	3
591.924	1	-6
592.264	1	-11
592.603	1	-15
592.943	1	3
593.283	1	8
593.622	1	-1
593.962	1	3
594.301	1	2
594.641	1	3
594.981	1	7
595.320	1	6
595.660	1	16
595.999	1	4
596.339	1	7
596.678	1	4
597.018	1	8
597.358	1	6
597.697	1	-4
598.037	1	8
598.376	1	-4
598.716	1	6
599.055	1	3
599.395	1	-8
599.734	1	2
600.074	1	-7
600.413	1	8
600.753	1	10
601.092	1	-1
601.432	1	-3
601.771	1	10
602.111	1	2
602.451	1	-3
602.790	1	-4
603.130	1	6
603.469	1	7
603.809	1	2
604.148	1	2
604.487	1	-2
604.827	1	13
605.166	1	10
605.506	1	-3
605.845	1	10
606.185	1	2
606.524	1	-3
606.864	1	20
607.203	1	7
607.543	1	4
607.882	1	2
608.222	1	-3
608.561	1	8
608.901	1	11
609.240	1	16
609.579	1	2
609.919	1	-6
610.258	1	16
610.598	1	-5
610.937	1	7
611.277	1	13
611.616	1	13
611.955	1	-3
612.295	1	8
612.634	1	4
612.974	1	0
613.313	1	8
613.652	1	7
613.992	1	-1
614.331	1	13
614.671	1	7
615.010	1	1
615.349	1	7
615.689	1	0
616.028	1	26
616.368	1	10
616.707	1	11
617.046	1	-2
617.386	1	17
617.725	1	0
618.064	1	2
618.404	1	-8
618.743	1	10
619.082	1	20
619.422	1	8
619.761	1	9
620.100	1	2
620.440	1	4
620.779	1	14
621.118	1	21
621.458	1	-4
621.797	1	7
622.136	1	5
622.476	1	11
622.815	1	6
623.154	1	-11
623.494	1	-3
623.833	1	-1
624.172	1	-1
624.511	1	-1
624.851	1	4
625.190	1	0
625.529	1	-3
625.869	1	6
626.208	1	-3
626.547	1	-2
626.886	1	-4
627.226	1	7
627.565	1	4
627.904	1	-1
628.243	1	5
628.583	1	9
628.922	1	5
629.261	1	5
629.600	1	-4
629.940	1	12
630.279	1	5
630.618	1	2
630.957	1	6
631.297	1	0
631.636	1	4
631.975	1	4
632.314	1	4
632.653	1	4
632.993	1	2
633.332	1	3
633.671	1	13
634.010	1	-1
634.349	1	13
634.689	1	-6
635.028	1	-7
635.367	1	15
635.706	1	3
636.045	1	1
636.384	1	8
636.724	1	4
637.063	1	-6
637.402	1	8
637.741	1	3
638.080	1	3
638.419	1	2
638.759	1	2
639.098	1	9
639.437	1	4
639.776	1	11
640.115	1	-2
640.454	1	-4
640.793	1	11
641.132	1	1
641.472	1	11
641.811	1	-1
642.150	1	2
642.489	1	17
642.828	1	18
643.167	1	0
643.506	1	1
643.845	1	10
644.184	1	17
644.524	1	2
644.863	1	-3
645.202	1	2
645.541	1	-2
645.880	1	14
646.219	1	1
646.558	1	-2
646.897	1	-4
647.236	1	2
647.575	1	13
647.914	1	1
648.253	1	8
648.592	1	4
648.931	1	10
649.270	1	11
649.610	1	5
649.949	1	0
650.288	1	7
650.627	1	3
650.966	1	6
651.305	1	11
651.644	1	17
651.983	1	-5
652.322	1	3
652.661	1	9
653.000	1	7
653.339	1	11
653.678	1	13
654.017	1	3
654.356	1	8
654.695	1	11
655.034	1	2
655.373	1	10
655.712	1	4
656.051	1	-6
656.390	1	-1
656.729	1	14
657.068	1	7
657.406	1	-2
657.745	1	4
658.084	1	4
658.423	1	10
658.762	1	0
659.101	1	1
659.440	1	2
659.779	1	-2
660.118	1	0
660.457	1	0
660.796	1	7
661.135	1	8
661.474	1	-4
661.813	1	3
662.152	1	2
662.491	1	3
662.829	1	5
663.168	1	7
663.507	1	4
663.846	1	4
664.185	1	-4
664.524	1	19
664.863	1	-5
665.202	1	4
665.541	1	-2
665.879	1	0
666.218	1	17
666.557	1	4
666.896	1	10
667.235	1	-9
667.574	1	-1
667.913	1	9
668.251	1	-3
668.590	1	2
668.929	1	5
669.268	1	-1
669.607	1	-7
669.946	1	8
670.285	1	-5
670.623	1	3
670.962	1	0
671.301	1	4
671.640	1	-2
671.979	1	-3
672.317	1	6
672.656	1	15
672.995	1	4
673.334	1	2
673.673	1	10
674.011	1	6
674.350	1	10
674.689	1	-5
675.028	1	5
675.367	1	4
675.705	1	1
676.044	1	0
676.383	1	2
676.722	1	9
677.060	1	1
677.399	1	14
677.738	1	0
678.077	1	-1
678.416	1	5
678.754	1	5
679.093	1	4
679.432	1	-11
679.771	1	-2
680.109	1	6
680.448	1	8
680.787	1	-6
681.125	1	9
681.464	1	-2
681.803	1	-8
682.142	1	-3
682.480	1	-5
682.819	1	1
683.158	1	10
683.496	1	4
683.835	1	7
684.174	1	6
684.512	1	-6
684.851	1	-2
685.190	1	1
685.529	1	0
685.867	1	8
686.206	1	0
686.545	1	4
686.883	1	8
687.222	1	-6
687.561	1	5
687.899	1	7
688.238	1	10
688.577	1	-2
688.746	1	-2