File: Data/GaN_150K_450ms/GaN_sample D_spot15_UVVIS_150 K_200um_450 ms 2x2mm1_6.txt
340.368	1	4
340.710	1	0
341.052	1	1
341.394	1	-3
341.737	1	10
342.079	1	-1
342.421	1	-5
342.763	1	0
343.105	1	4
343.447	1	5
343.789	1	-4
344.131	1	-6
344.473	1	2
344.815	1	0
345.157	1	8
345.499	1	-7
345.841	1	6
346.183	1	-3
346.526	1	5
346.868	1	-7
347.210	1	1
347.552	1	13
347.894	1	-10
348.236	1	4
348.578	1	2
348.920	1	-1
349.262	1	-1
349.604	1	1
349.946	1	-1
350.288	1	-10
350.630	1	-3
350.972	1	1
351.314	1	7
351.656	1	-3
351.998	1	-1
352.340	1	2
352.682	1	-12
353.024	1	14
353.366	1	-1
353.708	1	-3
354.050	1	-9
354.392	1	-7
354.734	1	7
355.076	1	16
355.418	1	5
355.760	1	4
356.102	1	1
356.444	1	6
356.785	1	4
357.127	1	4
357.469	1	1
357.811	1	-4
358.153	1	-15
358.495	1	3
358.837	1	7
359.179	1	0
359.521	1	1
359.863	1	-5
360.205	1	6
360.547	1	2
360.889	1	-1
361.231	1	6
361.572	1	-3
361.914	1	4
362.256	1	8
362.598	1	6
362.940	1	3
363.282	1	-6
363.624	1	-5
363.966	1	-10
364.308	1	-2
364.649	1	3
364.991	1	-1
365.333	1	4
365.675	1	12
366.017	1	2
366.359	1	-4
366.701	1	-4
367.042	1	3
367.384	1	-7
367.726	1	0
368.068	1	13
368.410	1	6
368.752	1	10
369.093	1	0
369.435	1	11
369.777	1	12
370.119	1	-2
370.461	1	-4
370.803	1	-4
371.144	1	2
371.486	1	10
371.828	1	-1
372.170	1	-1
372.512	1	-2
372.853	1	2
373.195	1	2
373.537	1	-9
373.879	1	-9
374.220	1	2
374.562	1	9
374.904	1	3
375.246	1	6
375.588	1	-8
375.929	1	4
376.271	1	-6
376.613	1	-2
376.955	1	-6
377.296	1	0
377.638	1	-7
377.980	1	-5
378.321	1	6
378.663	1	5
379.005	1	1
379.347	1	-7
379.688	1	12
380.030	1	5
380.372	1	7
380.714	1	0
381.055	1	-7
381.397	1	1
381.739	1	-7
382.080	1	-2
382.422	1	1
382.764	1	2
383.105	1	2
383.447	1	3
383.789	1	-6
384.130	1	12
384.472	1	-4
384.814	1	13
385.156	1	0
385.497	1	16
385.839	1	-1
386.180	1	0
386.522	1	10
386.864	1	-3
387.205	1	6
387.547	1	8
387.889	1	-7
388.230	1	-1
388.572	1	-5
388.914	1	9
389.255	1	-3
389.597	1	-2
389.939	1	7
390.280	1	-6
390.622	1	-3
390.963	1	-4
391.305	1	3
391.647	1	0
391.988	1	1
392.330	1	-2
392.671	1	3
393.013	1	4
393.355	1	8
393.696	1	3
394.038	1	2
394.379	1	-1
394.721	1	1
395.062	1	0
395.404	1	-1
395.746	1	-4
396.087	1	-7
396.429	1	3
396.770	1	-1
397.112	1	-6
397.453	1	-3
397.795	1	-3
398.136	1	1
398.478	1	-5
398.819	1	3
399.161	1	14
399.503	1	2
399.844	1	-2
400.186	1	-3
400.527	1	4
400.869	1	-6
401.210	1	1
401.552	1	2
401.893	1	-3
402.235	1	-5
402.576	1	2
402.918	1	1
403.259	1	5
403.601	1	8
403.942	1	1
404.284	1	7
404.625	1	-6
404.967	1	0
405.308	1	-5
405.649	1	-6
405.991	1	0
406.332	1	8
406.674	1	-3
407.015	1	3
407.357	1	1
407.698	1	3
408.040	1	12
408.381	1	-4
408.722	1	1
409.064	1	1
409.405	1	-9
409.747	1	-6
410.088	1	2
410.430	1	6
410.771	1	2
411.112	1	-1
411.454	1	-4
411.795	1	4
412.137	1	-1
412.478	1	2
412.819	1	6
413.161	1	3
413.502	1	0
413.844	1	10
414.185	1	-3
414.526	1	-6
414.868	1	1
415.209	1	-2
415.550	1	0
415.892	1	3
416.233	1	2
416.575	1	-2
416.916	1	-1
417.257	1	-5
417.599	1	2
417.940	1	-12
418.281	1	4
418.623	1	-2
418.964	1	9
419.305	1	10
419.647	1	2
419.988	1	8
420.329	1	-1
420.671	1	9
421.012	1	-3
421.353	1	5
421.695	1	4
422.036	1	11
422.377	1	0
422.718	1	10
423.060	1	0
423.401	1	3
423.742	1	3
424.084	1	4
424.425	1	12
424.766	1	2
425.107	1	1
425.449	1	-4
425.790	1	0
426.131	1	-10
426.472	1	9
426.814	1	-3
427.155	1	-1
427.496	1	-3
427.837	1	-6
428.179	1	3
428.520	1	2
428.861	1	1
429.202	1	-6
429.544	1	-1
429.885	1	4
430.226	1	-10
430.567	1	-4
430.909	1	3
431.250	1	6
431.591	1	2
431.932	1	0
432.273	1	7
432.615	1	-3
432.956	1	2
433.297	1	-1
433.638	1	4
433.979	1	2
434.320	1	5
434.662	1	5
435.003	1	19
435.344	1	-5
435.685	1	-2
436.026	1	-11
436.368	1	-6
436.709	1	0
437.050	1	-3
437.391	1	2
437.732	1	5
438.073	1	-4
438.414	1	5
438.756	1	8
439.097	1	-4
439.438	1	-5
439.779	1	-5
440.120	1	3
440.461	1	4
440.802	1	4
441.143	1	2
441.485	1	-4
441.826	1	0
442.167	1	-6
442.508	1	-4
442.849	1	-2
443.190	1	6
443.531	1	1
443.872	1	-5
444.213	1	-8
444.554	1	4
444.895	1	2
445.237	1	4
445.578	1	-7
445.919	1	3
446.260	1	7
446.601	1	7
446.942	1	-2
447.283	1	2
447.624	1	-10
447.965	1	-7
448.306	1	0
448.647	1	-2
448.988	1	3
449.329	1	2
449.670	1	2
450.011	1	0
450.352	1	-5
450.693	1	-1
451.034	1	-5
451.375	1	-8
451.716	1	-9
452.057	1	-2
452.398	1	14
452.739	1	1
453.080	1	0
453.421	1	11
453.762	1	1
454.103	1	0
454.444	1	3
454.785	1	-6
455.126	1	0
455.467	1	15
455.808	1	2
456.149	1	-1
456.490	1	-9
456.831	1	-1
457.172	1	4
457.513	1	-6
457.854	1	-1
458.195	1	-4
458.536	1	6
458.877	1	1
459.218	1	1
459.559	1	-6
459.899	1	3
460.240	1	-6
460.581	1	-3
460.922	1	4
461.263	1	7
461.604	1	6
461.945	1	3
462.286	1	4
462.627	1	-4
462.968	1	-3
463.309	1	13
463.649	1	-6
463.990	1	6
464.331	1	2
464.672	1	-2
465.013	1	4
465.354	1	10
465.695	1	4
466.036	1	7
466.376	1	8
466.717	1	-4
467.058	1	5
467.399	1	-7
467.740	1	8
468.081	1	3
468.422	1	2
468.762	1	14
469.103	1	-2
469.444	1	3
469.785	1	1
470.126	1	11
470.467	1	3
470.807	1	6
471.148	1	-3
471.489	1	7
471.830	1	3
472.171	1	8
472.511	1	7
472.852	1	8
473.193	1	-1
473.534	1	5
473.875	1	7
474.215	1	-7
474.556	1	-3
474.897	1	1
475.238	1	8
475.578	1	-3
475.919	1	-4
476.260	1	1
476.601	1	3
476.942	1	3
477.282	1	-2
477.623	1	1
477.964	1	7
478.305	1	0
478.645	1	0
478.986	1	5
479.327	1	-6
479.667	1	-3
480.008	1	8
480.349	1	-6
480.690	1	4
481.030	1	-8
481.371	1	-10
481.712	1	9
482.053	1	3
482.393	1	-1
482.734	1	7
483.075	1	9
483.415	1	8
483.756	1	-5
484.097	1	8
484.437	1	6
484.778	1	4
485.119	1	6
485.459	1	-10
485.800	1	6
486.141	1	3
486.481	1	-9
486.822	1	7
487.163	1	-4
487.503	1	5
487.844	1	-7
488.185	1	0
488.525	1	5
488.866	1	-8
489.207	1	3
489.547	1	-3
489.888	1	6
490.228	1	12
490.569	1	-5
490.910	1	5
491.250	1	2
491.591	1	-6
491.932	1	2
492.272	1	-6
492.613	1	0
492.953	1	-3
493.294	1	-12
493.635	1	8
493.975	1	11
494.316	1	-5
494.656	1	4
494.997	1	0
495.337	1	-2
495.678	1	-7
496.019	1	-4
496.359	1	-7
496.700	1	3
497.040	1	-1
497.381	1	2
497.721	1	-7
498.062	1	-3
498.403	1	14
498.743	1	3
499.084	1	10
499.424	1	4
499.765	1	-2
500.105	1	13
500.446	1	-2
500.786	1	3
501.127	1	6
501.467	1	10
501.808	1	-7
502.148	1	-1
502.489	1	-3
502.829	1	-3
503.170	1	0
503.510	1	-2
503.851	1	2
504.191	1	-1
504.532	1	15
504.872	1	-9
505.213	1	-3
505.553	1	-7
505.894	1	6
506.234	1	12
506.575	1	9
506.915	1	7
507.256	1	-1
507.596	1	9
507.936	1	11
508.277	1	5
508.617	1	8
508.958	1	9
509.298	1	-10
509.639	1	-8
509.979	1	3
510.319	1	1
510.660	1	-4
511.000	1	0
511.341	1	9
511.681	1	14
512.022	1	-11
512.362	1	10
512.702	1	-6
513.043	1	2
513.383	1	4
513.724	1	1
514.064	1	-4
514.404	1	4
514.745	1	0
515.085	1	1
515.425	1	3
515.766	1	2
516.106	1	6
516.447	1	11
516.787	1	0
517.127	1	3
517.468	1	5
517.808	1	-3
518.148	1	11
518.489	1	-1
518.829	1	7
519.169	1	-6
519.510	1	-3
519.850	1	-4
520.190	1	2
520.531	1	-5
520.871	1	-3
521.211	1	2
521.552	1	-8
521.892	1	-4
522.232	1	-3
522.573	1	10
522.913	1	0
523.253	1	5
523.593	1	7
523.934	1	6
524.274	1	6
524.614	1	3
524.955	1	-5
525.295	1	9
525.635	1	8
525.975	1	-3
526.316	1	-11
526.656	1	9
526.996	1	-7
527.337	1	3
527.677	1	12
528.017	1	-4
528.357	1	-3
528.698	1	-2
529.038	1	2
529.378	1	1
529.718	1	-2
530.058	1	-2
530.399	1	5
530.739	1	-1
531.079	1	-7
531.419	1	2
531.760	1	5
532.100	1	0
532.440	1	0
532.780	1	2
533.120	1	-10
533.461	1	-8
533.801	1	5
534.141	1	-3
534.481	1	10
534.821	1	-1
535.162	1	0
535.502	1	-1
535.842	1	-4
536.182	1	-4
536.522	1	-6
536.862	1	-1
537.203	1	3
537.543	1	6
537.883	1	-3
538.223	1	19
538.563	1	-6
538.903	1	-2
539.243	1	6
539.584	1	2
539.924	1	-1
540.264	1	5
540.604	1	6
540.944	1	-1
541.284	1	-5
541.624	1	-1
541.964	1	9
542.305	1	-1
542.645	1	-3
542.985	1	0
543.325	1	2
543.665	1	3
544.005	1	0
544.345	1	6
544.685	1	-3
545.025	1	6
545.365	1	1
545.705	1	4
546.045	1	5
546.386	1	-8
546.726	1	5
547.066	1	-4
547.406	1	-6
547.746	1	2
548.086	1	-3
548.426	1	-2
548.766	1	1
549.106	1	-10
549.446	1	4
549.786	1	-4
550.126	1	-11
550.466	1	-8
550.806	1	4
551.146	1	1
551.486	1	0
551.826	1	-5
552.166	1	2
552.506	1	-14
552.846	1	4
553.186	1	-12
553.526	1	0
553.866	1	-8
554.206	1	8
554.546	1	0
554.886	1	-4
555.226	1	-6
555.566	1	-1
555.906	1	2
556.246	1	2
556.586	1	1
556.926	1	-5
557.266	1	8
557.606	1	-13
557.946	1	2
558.286	1	-15
558.626	1	9
558.966	1	8
559.306	1	9
559.646	1	4
559.986	1	2
560.325	1	-1
560.665	1	0
561.005	1	-4
561.345	1	4
561.685	1	8
562.025	1	-2
562.365	1	0
562.705	1	-1
563.045	1	0
563.385	1	6
563.725	1	1
564.064	1	-6
564.404	1	0
564.744	1	0
565.084	1	-3
565.424	1	-13
565.764	1	6
566.104	1	3
566.444	1	10
566.783	1	0
567.123	1	-9
567.463	1	-2
567.803	1	2
568.143	1	-2
568.483	1	2
568.823	1	-1
569.162	1	-4
569.502	1	9
569.842	1	3
570.182	1	-7
570.522	1	-9
570.862	1	-17
571.201	1	15
571.541	1	-6
571.881	1	-5
572.221	1	2
572.561	1	8
572.900	1	11
573.240	1	0
573.580	1	6
573.920	1	7
574.260	1	5
574.599	1	-3
574.939	1	-1
575.279	1	-6
575.619	1	7
575.959	1	-8
576.298	1	-12
576.638	1	9
576.978	1	3
577.318	1	-6
577.657	1	0
577.997	1	7
578.337	1	-8
578.677	1	0
579.016	1	8
579.356	1	8
579.696	1	-4
580.036	1	1
580.375	1	-7
580.715	1	-3
581.055	1	2
581.394	1	-4
581.734	1	1
582.074	1	0
582.414	1	-6
582.753	1	-6
583.093	1	0
583.433	1	-7
583.772	1	4
584.112	1	0
584.452	1	6
584.791	1	4
585.131	1	-4
585.471	1	0
585.811	1	8
586.150	1	7
586.490	1	-3
586.830	1	-7
587.169	1	6
587.509	1	7
587.849	1	9
588.188	1	13
588.528	1	-7
588.867	1	4
589.207	1	4
589.547	1	10
589.886	1	4
590.226	1	-5
590.566	1	-7
590.905	1	-3
591.245	1	-6
591.585	1	-9
591.924	1	-3
592.264	1	5
592.603	1	-19
592.943	1	-7
593.283	1	6
593.622	1	-1
593.962	1	-2
594.301	1	-3
594.641	1	1
594.981	1	7
595.320	1	7
595.660	1	1
595.999	1	-3
596.339	1	-3
596.678	1	-4
597.018	1	-5
597.358	1	4
597.697	1	-1
598.037	1	0
598.376	1	-4
598.716	1	-3
599.055	1	3
599.395	1	-5
599.734	1	2
600.074	1	-7
600.413	1	-5
600.753	1	2
601.092	1	-4
601.432	1	-10
601.771	1	4
602.111	1	-6
602.451	1	0
602.790	1	4
603.130	1	-2
603.469	1	7
603.809	1	0
604.148	1	-4
604.487	1	-1
604.827	1	6
605.166	1	-8
605.506	1	-7
605.845	1	5
606.185	1	-4
606.524	1	0
606.864	1	12
607.203	1	6
607.543	1	1
607.882	1	9
608.222	1	0
608.561	1	-11
608.901	1	5
609.240	1	3
609.579	1	-6
609.919	1	-12
610.258	1	7
610.598	1	-9
610.937	1	2
611.277	1	-7
611.616	1	11
611.955	1	0
612.295	1	6
612.634	1	-3
612.974	1	-7
613.313	1	2
613.652	1	7
613.992	1	-3
614.331	1	7
614.671	1	1
615.010	1	2
615.349	1	0
615.689	1	1
616.028	1	4
616.368	1	6
616.707	1	0
617.046	1	-3
617.386	1	5
617.725	1	-10
618.064	1	-4
618.404	1	-1
618.743	1	1
619.082	1	6
619.422	1	5
619.761	1	-6
620.100	1	-4
620.440	1	2
620.779	1	0
621.118	1	8
621.458	1	5
621.797	1	-4
622.136	1	-4
622.476	1	5
622.815	1	-4
623.154	1	-9
623.494	1	-10
623.833	1	-8
624.172	1	4
624.511	1	-4
624.851	1	-5
625.190	1	-4
625.529	1	-17
625.869	1	0
626.208	1	-5
626.547	1	1
626.886	1	-6
627.226	1	3
627.565	1	8
627.904	1	-5
628.243	1	0
628.583	1	-5
628.922	1	7
629.261	1	0
629.600	1	-3
629.940	1	2
630.279	1	13
630.618	1	3
630.957	1	-2
631.297	1	2
631.636	1	2
631.975	1	-6
632.314	1	-1
632.653	1	0
632.993	1	0
633.332	1	2
633.671	1	9
634.010	1	6
634.349	1	6
634.689	1	-15
635.028	1	-12
635.367	1	0
635.706	1	3
636.045	1	-4
636.384	1	1
636.724	1	-2
637.063	1	-8
637.402	1	6
637.741	1	-6
638.080	1	3
638.419	1	-2
638.759	1	5
639.098	1	-2
639.437	1	-5
639.776	1	1
640.115	1	-4
640.454	1	-2
640.793	1	0
641.132	1	1
641.472	1	16
641.811	1	-7
642.150	1	-2
642.489	1	5
642.828	1	14
643.167	1	-9
643.506	1	-5
643.845	1	8
644.184	1	10
644.524	1	-9
644.863	1	-8
645.202	1	-10
645.541	1	-4
645.880	1	7
646.219	1	5
646.558	1	-17
646.897	1	-18
647.236	1	-11
647.575	1	8
647.914	1	12
648.253	1	5
648.592	1	8
648.931	1	1
649.270	1	10
649.610	1	-2
649.949	1	-14
650.288	1	-3
650.627	1	-8
650.966	1	-2
651.305	1	-8
651.644	1	-2
651.983	1	-7
652.322	1	-2
652.661	1	5
653.000	1	-3
653.339	1	-7
653.678	1	3
654.017	1	9
654.356	1	2
654.695	1	13
655.034	1	-1
655.373	1	-6
655.712	1	5
656.051	1	-7
656.390	1	5
656.729	1	0
657.068	1	3
657.406	1	0
657.745	1	8
658.084	1	0
658.423	1	8
658.762	1	-9
659.101	1	-6
659.440	1	4
659.779	1	-7
660.118	1	-2
660.457	1	1
660.796	1	13
661.135	1	4
661.474	1	4
661.813	1	-10
662.152	1	-4
662.491	1	-3
662.829	1	3
663.168	1	-1
663.507	1	-1
663.846	1	3
664.185	1	-2
664.524	1	6
664.863	1	-6
665.202	1	0
665.541	1	0
665.879	1	0
666.218	1	2
666.557	1	2
666.896	1	4
667.235	1	-10
667.574	1	-3
667.913	1	9
668.251	1	-9
668.590	1	-8
668.929	1	-6
669.268	1	-1
669.607	1	-17
669.946	1	2
670.285	1	2
670.623	1	2
670.962	1	-6
671.301	1	-3
671.640	1	6
671.979	1	0
672.317	1	-1
672.656	1	6
672.995	1	5
673.334	1	-5
673.673	1	14
674.011	1	6
674.350	1	3
674.689	1	0
675.028	1	2
675.367	1	10
675.705	1	-1
676.044	1	7
676.383	1	5
676.722	1	4
677.060	1	-1
677.399	1	12
677.738	1	-2
678.077	1	-7
678.416	1	-5
678.754	1	5
679.093	1	-3
679.432	1	-1
679.771	1	-2
680.109	1	1
680.448	1	-4
680.787	1	-11
681.125	1	-3
681.464	1	3
681.803	1	-9
682.142	1	-2
682.480	1	-11
682.819	1	3
683.158	1	1
683.496	1	-6
683.835	1	3
684.174	1	3
684.512	1	-8
684.851	1	-2
685.190	1	1
685.529	1	-1
685.867	1	5
686.206	1	2
686.545	1	-2
686.883	1	3
687.222	1	-2
687.561	1	-6
687.899	1	-3
688.238	1	5
688.577	1	9
688.746	1	1