File: Data/GaN_150K_450ms/GaN_sample D_spot15_UVVIS_150 K_200um_450 ms 2x2mm1_215.txt
340.368	1	0
340.710	1	4
341.052	1	-2
341.394	1	-10
341.737	1	5
342.079	1	-12
342.421	1	-2
342.763	1	1
343.105	1	10
343.447	1	9
343.789	1	4
344.131	1	-4
344.473	1	-4
344.815	1	9
345.157	1	8
345.499	1	12
345.841	1	10
346.183	1	-3
346.526	1	7
346.868	1	-3
347.210	1	3
347.552	1	19
347.894	1	-11
348.236	1	9
348.578	1	11
348.920	1	4
349.262	1	7
349.604	1	3
349.946	1	4
350.288	1	-2
350.630	1	-6
350.972	1	0
351.314	1	-1
351.656	1	3
351.998	1	-3
352.340	1	11
352.682	1	-4
353.024	1	19
353.366	1	4
353.708	1	2
354.050	1	-1
354.392	1	-3
354.734	1	12
355.076	1	15
355.418	1	1
355.760	1	7
356.102	1	4
356.444	1	4
356.785	1	10
357.127	1	9
357.469	1	10
357.811	1	3
358.153	1	-8
358.495	1	4
358.837	1	15
359.179	1	10
359.521	1	10
359.863	1	2
360.205	1	22
360.547	1	9
360.889	1	8
361.231	1	10
361.572	1	12
361.914	1	8
362.256	1	4
362.598	1	13
362.940	1	16
363.282	1	1
363.624	1	9
363.966	1	2
364.308	1	6
364.649	1	15
364.991	1	18
365.333	1	10
365.675	1	30
366.017	1	20
366.359	1	17
366.701	1	12
367.042	1	26
367.384	1	9
367.726	1	26
368.068	1	28
368.410	1	21
368.752	1	33
369.093	1	30
369.435	1	20
369.777	1	27
370.119	1	21
370.461	1	8
370.803	1	13
371.144	1	10
371.486	1	22
371.828	1	7
372.170	1	13
372.512	1	8
372.853	1	23
373.195	1	14
373.537	1	2
373.879	1	3
374.220	1	22
374.562	1	10
374.904	1	13
375.246	1	6
375.588	1	7
375.929	1	13
376.271	1	3
376.613	1	5
376.955	1	3
377.296	1	26
377.638	1	2
377.980	1	8
378.321	1	11
378.663	1	3
379.005	1	7
379.347	1	2
379.688	1	17
380.030	1	16
380.372	1	5
380.714	1	16
381.055	1	3
381.397	1	-2
381.739	1	2
382.080	1	8
382.422	1	16
382.764	1	7
383.105	1	-4
383.447	1	5
383.789	1	1
384.130	1	10
384.472	1	7
384.814	1	10
385.156	1	9
385.497	1	15
385.839	1	-1
386.180	1	1
386.522	1	5
386.864	1	-9
387.205	1	6
387.547	1	8
387.889	1	-4
388.230	1	5
388.572	1	-5
388.914	1	4
389.255	1	5
389.597	1	2
389.939	1	22
390.280	1	-5
390.622	1	-4
390.963	1	-12
391.305	1	-2
391.647	1	3
391.988	1	3
392.330	1	-2
392.671	1	4
393.013	1	2
393.355	1	13
393.696	1	7
394.038	1	7
394.379	1	9
394.721	1	-7
395.062	1	-6
395.404	1	12
395.746	1	-2
396.087	1	-3
396.429	1	9
396.770	1	7
397.112	1	7
397.453	1	-2
397.795	1	3
398.136	1	8
398.478	1	-2
398.819	1	4
399.161	1	8
399.503	1	4
399.844	1	6
400.186	1	6
400.527	1	14
400.869	1	2
401.210	1	0
401.552	1	7
401.893	1	0
402.235	1	5
402.576	1	12
402.918	1	-5
403.259	1	6
403.601	1	12
403.942	1	-5
404.284	1	9
404.625	1	-1
404.967	1	1
405.308	1	-9
405.649	1	3
405.991	1	6
406.332	1	12
406.674	1	6
407.015	1	16
407.357	1	7
407.698	1	5
408.040	1	17
408.381	1	-2
408.722	1	8
409.064	1	4
409.405	1	2
409.747	1	9
410.088	1	11
410.430	1	18
410.771	1	15
411.112	1	0
411.454	1	5
411.795	1	5
412.137	1	4
412.478	1	6
412.819	1	13
413.161	1	3
413.502	1	1
413.844	1	14
414.185	1	1
414.526	1	4
414.868	1	2
415.209	1	-8
415.550	1	5
415.892	1	6
416.233	1	2
416.575	1	-3
416.916	1	1
417.257	1	7
417.599	1	4
417.940	1	-8
418.281	1	11
418.623	1	-4
418.964	1	18
419.305	1	11
419.647	1	7
419.988	1	19
420.329	1	1
420.671	1	9
421.012	1	-2
421.353	1	15
421.695	1	6
422.036	1	15
422.377	1	-6
422.718	1	11
423.060	1	12
423.401	1	4
423.742	1	13
424.084	1	-1
424.425	1	12
424.766	1	3
425.107	1	4
425.449	1	5
425.790	1	-1
426.131	1	-2
426.472	1	11
426.814	1	5
427.155	1	-2
427.496	1	8
427.837	1	-8
428.179	1	14
428.520	1	8
428.861	1	10
429.202	1	2
429.544	1	6
429.885	1	8
430.226	1	-8
430.567	1	-7
430.909	1	-5
431.250	1	7
431.591	1	8
431.932	1	9
432.273	1	10
432.615	1	-4
432.956	1	9
433.297	1	3
433.638	1	13
433.979	1	-2
434.320	1	8
434.662	1	3
435.003	1	15
435.344	1	13
435.685	1	1
436.026	1	0
436.368	1	-3
436.709	1	4
437.050	1	-5
437.391	1	3
437.732	1	7
438.073	1	1
438.414	1	7
438.756	1	0
439.097	1	9
439.438	1	5
439.779	1	0
440.120	1	2
440.461	1	5
440.802	1	8
441.143	1	3
441.485	1	1
441.826	1	5
442.167	1	5
442.508	1	1
442.849	1	8
443.190	1	14
443.531	1	6
443.872	1	-2
444.213	1	-6
444.554	1	10
444.895	1	9
445.237	1	13
445.578	1	3
445.919	1	2
446.260	1	18
446.601	1	4
446.942	1	0
447.283	1	1
447.624	1	-5
447.965	1	1
448.306	1	-3
448.647	1	4
448.988	1	9
449.329	1	11
449.670	1	4
450.011	1	0
450.352	1	-2
450.693	1	13
451.034	1	8
451.375	1	-5
451.716	1	8
452.057	1	-8
452.398	1	17
452.739	1	5
453.080	1	9
453.421	1	18
453.762	1	11
454.103	1	8
454.444	1	2
454.785	1	3
455.126	1	5
455.467	1	-1
455.808	1	11
456.149	1	-1
456.490	1	-5
456.831	1	3
457.172	1	8
457.513	1	-8
457.854	1	-6
458.195	1	6
458.536	1	14
458.877	1	7
459.218	1	6
459.559	1	4
459.899	1	-3
460.240	1	6
460.581	1	1
460.922	1	9
461.263	1	0
461.604	1	6
461.945	1	10
462.286	1	-2
462.627	1	7
462.968	1	6
463.309	1	10
463.649	1	-4
463.990	1	14
464.331	1	3
464.672	1	0
465.013	1	5
465.354	1	6
465.695	1	6
466.036	1	4
466.376	1	10
466.717	1	-18
467.058	1	2
467.399	1	-6
467.740	1	16
468.081	1	5
468.422	1	-1
468.762	1	0
469.103	1	9
469.444	1	1
469.785	1	-2
470.126	1	3
470.467	1	1
470.807	1	3
471.148	1	5
471.489	1	3
471.830	1	5
472.171	1	8
472.511	1	11
472.852	1	7
473.193	1	8
473.534	1	3
473.875	1	5
474.215	1	6
474.556	1	-6
474.897	1	3
475.238	1	-1
475.578	1	-2
475.919	1	2
476.260	1	0
476.601	1	10
476.942	1	0
477.282	1	-1
477.623	1	10
477.964	1	7
478.305	1	7
478.645	1	2
478.986	1	6
479.327	1	7
479.667	1	3
480.008	1	8
480.349	1	4
480.690	1	7
481.030	1	0
481.371	1	-2
481.712	1	6
482.053	1	12
482.393	1	3
482.734	1	9
483.075	1	5
483.415	1	-1
483.756	1	2
484.097	1	4
484.437	1	3
484.778	1	-7
485.119	1	4
485.459	1	1
485.800	1	-1
486.141	1	4
486.481	1	-8
486.822	1	4
487.163	1	3
487.503	1	8
487.844	1	0
488.185	1	5
488.525	1	-12
488.866	1	4
489.207	1	3
489.547	1	8
489.888	1	13
490.228	1	-2
490.569	1	-2
490.910	1	8
491.250	1	-2
491.591	1	1
491.932	1	11
492.272	1	-14
492.613	1	-2
492.953	1	-2
493.294	1	-2
493.635	1	6
493.975	1	7
494.316	1	5
494.656	1	8
494.997	1	-1
495.337	1	-1
495.678	1	-1
496.019	1	-4
496.359	1	4
496.700	1	3
497.040	1	-1
497.381	1	4
497.721	1	-1
498.062	1	-1
498.403	1	17
498.743	1	10
499.084	1	5
499.424	1	2
499.765	1	10
500.105	1	14
500.446	1	-5
500.786	1	-6
501.127	1	2
501.467	1	10
501.808	1	-2
502.148	1	-7
502.489	1	-5
502.829	1	-7
503.170	1	8
503.510	1	0
503.851	1	2
504.191	1	-2
504.532	1	12
504.872	1	-3
505.213	1	8
505.553	1	-6
505.894	1	3
506.234	1	9
506.575	1	11
506.915	1	11
507.256	1	6
507.596	1	14
507.936	1	14
508.277	1	12
508.617	1	9
508.958	1	8
509.298	1	-4
509.639	1	-1
509.979	1	-1
510.319	1	-1
510.660	1	-2
511.000	1	2
511.341	1	3
511.681	1	5
512.022	1	-13
512.362	1	9
512.702	1	0
513.043	1	5
513.383	1	1
513.724	1	3
514.064	1	12
514.404	1	5
514.745	1	8
515.085	1	4
515.425	1	9
515.766	1	4
516.106	1	-5
516.447	1	11
516.787	1	7
517.127	1	-1
517.468	1	22
517.808	1	-3
518.148	1	14
518.489	1	-6
518.829	1	-3
519.169	1	0
519.510	1	4
519.850	1	3
520.190	1	4
520.531	1	6
520.871	1	13
521.211	1	13
521.552	1	1
521.892	1	7
522.232	1	1
522.573	1	9
522.913	1	17
523.253	1	13
523.593	1	12
523.934	1	1
524.274	1	0
524.614	1	4
524.955	1	5
525.295	1	13
525.635	1	1
525.975	1	-2
526.316	1	-1
526.656	1	2
526.996	1	2
527.337	1	6
527.677	1	14
528.017	1	-8
528.357	1	12
528.698	1	14
529.038	1	7
529.378	1	6
529.718	1	13
530.058	1	7
530.399	1	11
530.739	1	14
531.079	1	4
531.419	1	12
531.760	1	3
532.100	1	15
532.440	1	6
532.780	1	10
533.120	1	-2
533.461	1	1
533.801	1	0
534.141	1	0
534.481	1	22
534.821	1	8
535.162	1	11
535.502	1	1
535.842	1	-4
536.182	1	7
536.522	1	1
536.862	1	2
537.203	1	1
537.543	1	0
537.883	1	0
538.223	1	14
538.563	1	-4
538.903	1	-7
539.243	1	10
539.584	1	9
539.924	1	10
540.264	1	19
540.604	1	12
540.944	1	8
541.284	1	4
541.624	1	5
541.964	1	4
542.305	1	15
542.645	1	-3
542.985	1	4
543.325	1	7
543.665	1	4
544.005	1	1
544.345	1	10
544.685	1	1
545.025	1	8
545.365	1	9
545.705	1	0
546.045	1	14
546.386	1	7
546.726	1	1
547.066	1	0
547.406	1	4
547.746	1	1
548.086	1	-4
548.426	1	7
548.766	1	3
549.106	1	6
549.446	1	3
549.786	1	6
550.126	1	6
550.466	1	3
550.806	1	12
551.146	1	5
551.486	1	-6
551.826	1	-7
552.166	1	-1
552.506	1	0
552.846	1	5
553.186	1	-8
553.526	1	4
553.866	1	-5
554.206	1	8
554.546	1	12
554.886	1	3
555.226	1	7
555.566	1	2
555.906	1	-2
556.246	1	2
556.586	1	10
556.926	1	-3
557.266	1	9
557.606	1	-5
557.946	1	6
558.286	1	-3
558.626	1	4
558.966	1	0
559.306	1	6
559.646	1	7
559.986	1	10
560.325	1	7
560.665	1	-3
561.005	1	-2
561.345	1	-1
561.685	1	3
562.025	1	5
562.365	1	0
562.705	1	11
563.045	1	7
563.385	1	4
563.725	1	2
564.064	1	-7
564.404	1	4
564.744	1	6
565.084	1	5
565.424	1	-13
565.764	1	2
566.104	1	9
566.444	1	11
566.783	1	11
567.123	1	1
567.463	1	1
567.803	1	9
568.143	1	5
568.483	1	9
568.823	1	-4
569.162	1	0
569.502	1	0
569.842	1	-2
570.182	1	-2
570.522	1	-1
570.862	1	-1
571.201	1	6
571.541	1	-2
571.881	1	6
572.221	1	2
572.561	1	9
572.900	1	11
573.240	1	-6
573.580	1	5
573.920	1	4
574.260	1	4
574.599	1	1
574.939	1	6
575.279	1	-2
575.619	1	-4
575.959	1	6
576.298	1	-12
576.638	1	16
576.978	1	8
577.318	1	-7
577.657	1	2
577.997	1	9
578.337	1	-2
578.677	1	10
579.016	1	-1
579.356	1	1
579.696	1	2
580.036	1	0
580.375	1	3
580.715	1	3
581.055	1	-6
581.394	1	8
581.734	1	2
582.074	1	-1
582.414	1	6
582.753	1	-2
583.093	1	12
583.433	1	6
583.772	1	10
584.112	1	5
584.452	1	6
584.791	1	15
585.131	1	8
585.471	1	10
585.811	1	6
586.150	1	10
586.490	1	3
586.830	1	5
587.169	1	10
587.509	1	-1
587.849	1	20
588.188	1	6
588.528	1	2
588.867	1	-3
589.207	1	4
589.547	1	3
589.886	1	12
590.226	1	-5
590.566	1	-1
590.905	1	-10
591.245	1	-5
591.585	1	-1
591.924	1	-5
592.264	1	4
592.603	1	-12
592.943	1	3
593.283	1	3
593.622	1	5
593.962	1	7
594.301	1	7
594.641	1	6
594.981	1	8
595.320	1	10
595.660	1	10
595.999	1	6
596.339	1	-1
596.678	1	-6
597.018	1	-2
597.358	1	8
597.697	1	-4
598.037	1	5
598.376	1	1
598.716	1	1
599.055	1	10
599.395	1	-2
599.734	1	2
600.074	1	5
600.413	1	1
600.753	1	2
601.092	1	-4
601.432	1	-2
601.771	1	5
602.111	1	0
602.451	1	0
602.790	1	8
603.130	1	11
603.469	1	6
603.809	1	-1
604.148	1	-3
604.487	1	-4
604.827	1	12
605.166	1	7
605.506	1	-10
605.845	1	8
606.185	1	0
606.524	1	-1
606.864	1	13
607.203	1	9
607.543	1	11
607.882	1	2
608.222	1	1
608.561	1	0
608.901	1	9
609.240	1	7
609.579	1	-9
609.919	1	-7
610.258	1	18
610.598	1	0
610.937	1	10
611.277	1	13
611.616	1	8
611.955	1	-2
612.295	1	15
612.634	1	4
612.974	1	2
613.313	1	7
613.652	1	11
613.992	1	5
614.331	1	6
614.671	1	3
615.010	1	2
615.349	1	4
615.689	1	6
616.028	1	10
616.368	1	7
616.707	1	4
617.046	1	2
617.386	1	14
617.725	1	-4
618.064	1	-3
618.404	1	-4
618.743	1	4
619.082	1	14
619.422	1	5
619.761	1	6
620.100	1	8
620.440	1	13
620.779	1	8
621.118	1	15
621.458	1	1
621.797	1	9
622.136	1	8
622.476	1	0
622.815	1	6
623.154	1	-8
623.494	1	-5
623.833	1	-6
624.172	1	6
624.511	1	-1
624.851	1	0
625.190	1	9
625.529	1	3
625.869	1	-1
626.208	1	-7
626.547	1	1
626.886	1	-1
627.226	1	-1
627.565	1	9
627.904	1	-3
628.243	1	0
628.583	1	6
628.922	1	5
629.261	1	6
629.600	1	-1
629.940	1	3
630.279	1	9
630.618	1	5
630.957	1	10
631.297	1	6
631.636	1	0
631.975	1	2
632.314	1	6
632.653	1	3
632.993	1	5
633.332	1	4
633.671	1	13
634.010	1	5
634.349	1	9
634.689	1	0
635.028	1	-5
635.367	1	4
635.706	1	-5
636.045	1	-8
636.384	1	9
636.724	1	6
637.063	1	0
637.402	1	10
637.741	1	3
638.080	1	4
638.419	1	-2
638.759	1	3
639.098	1	1
639.437	1	1
639.776	1	4
640.115	1	-2
640.454	1	1
640.793	1	0
641.132	1	7
641.472	1	16
641.811	1	-5
642.150	1	-1
642.489	1	13
642.828	1	14
643.167	1	10
643.506	1	5
643.845	1	11
644.184	1	6
644.524	1	1
644.863	1	2
645.202	1	-7
645.541	1	6
645.880	1	0
646.219	1	6
646.558	1	-8
646.897	1	-8
647.236	1	-7
647.575	1	16
647.914	1	3
648.253	1	12
648.592	1	5
648.931	1	8
649.270	1	11
649.610	1	3
649.949	1	1
650.288	1	5
650.627	1	-5
650.966	1	0
651.305	1	10
651.644	1	8
651.983	1	-5
652.322	1	-1
652.661	1	9
653.000	1	0
653.339	1	-1
653.678	1	9
654.017	1	13
654.356	1	10
654.695	1	13
655.034	1	-10
655.373	1	10
655.712	1	8
656.051	1	6
656.390	1	6
656.729	1	7
657.068	1	-2
657.406	1	4
657.745	1	17
658.084	1	5
658.423	1	5
658.762	1	-3
659.101	1	4
659.440	1	12
659.779	1	1
660.118	1	11
660.457	1	12
660.796	1	4
661.135	1	9
661.474	1	9
661.813	1	-4
662.152	1	5
662.491	1	-1
662.829	1	5
663.168	1	3
663.507	1	2
663.846	1	3
664.185	1	14
664.524	1	9
664.863	1	-7
665.202	1	1
665.541	1	5
665.879	1	9
666.218	1	1
666.557	1	-1
666.896	1	-2
667.235	1	-7
667.574	1	3
667.913	1	5
668.251	1	-7
668.590	1	-6
668.929	1	0
669.268	1	-1
669.607	1	-6
669.946	1	2
670.285	1	2
670.623	1	3
670.962	1	-5
671.301	1	-1
671.640	1	6
671.979	1	-6
672.317	1	6
672.656	1	13
672.995	1	0
673.334	1	4
673.673	1	16
674.011	1	9
674.350	1	0
674.689	1	-8
675.028	1	-3
675.367	1	8
675.705	1	-6
676.044	1	-4
676.383	1	-4
676.722	1	-2
677.060	1	7
677.399	1	12
677.738	1	-2
678.077	1	7
678.416	1	-5
678.754	1	-1
679.093	1	9
679.432	1	-4
679.771	1	2
680.109	1	3
680.448	1	1
680.787	1	-12
681.125	1	2
681.464	1	2
681.803	1	-5
682.142	1	-2
682.480	1	-7
682.819	1	0
683.158	1	1
683.496	1	1
683.835	1	3
684.174	1	3
684.512	1	0
684.851	1	-9
685.190	1	7
685.529	1	2
685.867	1	7
686.206	1	-8
686.545	1	1
686.883	1	9
687.222	1	0
687.561	1	3
687.899	1	8
688.238	1	3
688.577	1	3
688.746	1	-2