File: Data/GaN_150K_450ms/GaN_sample D_spot15_UVVIS_150 K_200um_450 ms 2x2mm1_24.txt
340.368	1	5
340.710	1	7
341.052	1	3
341.394	1	-10
341.737	1	-1
342.079	1	-3
342.421	1	-4
342.763	1	-2
343.105	1	0
343.447	1	4
343.789	1	3
344.131	1	-11
344.473	1	-10
344.815	1	-4
345.157	1	8
345.499	1	4
345.841	1	3
346.183	1	0
346.526	1	1
346.868	1	4
347.210	1	-5
347.552	1	5
347.894	1	-6
348.236	1	4
348.578	1	6
348.920	1	2
349.262	1	6
349.604	1	-4
349.946	1	-1
350.288	1	-8
350.630	1	-6
350.972	1	2
351.314	1	-1
351.656	1	1
351.998	1	1
352.340	1	7
352.682	1	-10
353.024	1	15
353.366	1	3
353.708	1	6
354.050	1	-6
354.392	1	-5
354.734	1	-1
355.076	1	10
355.418	1	-3
355.760	1	5
356.102	1	-2
356.444	1	3
356.785	1	6
357.127	1	8
357.469	1	6
357.811	1	-2
358.153	1	-13
358.495	1	-1
358.837	1	15
359.179	1	4
359.521	1	10
359.863	1	-4
360.205	1	10
360.547	1	6
360.889	1	-1
361.231	1	6
361.572	1	4
361.914	1	4
362.256	1	-2
362.598	1	6
362.940	1	5
363.282	1	-1
363.624	1	6
363.966	1	-2
364.308	1	-5
364.649	1	-2
364.991	1	8
365.333	1	-8
365.675	1	4
366.017	1	-5
366.359	1	-7
366.701	1	-5
367.042	1	2
367.384	1	-4
367.726	1	-3
368.068	1	11
368.410	1	-1
368.752	1	6
369.093	1	1
369.435	1	4
369.777	1	9
370.119	1	8
370.461	1	0
370.803	1	3
371.144	1	5
371.486	1	11
371.828	1	-1
372.170	1	6
372.512	1	1
372.853	1	11
373.195	1	-6
373.537	1	-13
373.879	1	2
374.220	1	6
374.562	1	0
374.904	1	4
375.246	1	-1
375.588	1	-3
375.929	1	1
376.271	1	-4
376.613	1	1
376.955	1	0
377.296	1	3
377.638	1	-2
377.980	1	-6
378.321	1	4
378.663	1	4
379.005	1	8
379.347	1	-1
379.688	1	5
380.030	1	0
380.372	1	1
380.714	1	-1
381.055	1	1
381.397	1	-3
381.739	1	-8
382.080	1	7
382.422	1	7
382.764	1	2
383.105	1	1
383.447	1	-2
383.789	1	-12
384.130	1	4
384.472	1	-5
384.814	1	11
385.156	1	-8
385.497	1	6
385.839	1	0
386.180	1	-3
386.522	1	3
386.864	1	0
387.205	1	6
387.547	1	-9
387.889	1	4
388.230	1	0
388.572	1	2
388.914	1	6
389.255	1	-3
389.597	1	5
389.939	1	13
390.280	1	-2
390.622	1	-7
390.963	1	-9
391.305	1	-1
391.647	1	0
391.988	1	-4
392.330	1	-1
392.671	1	-2
393.013	1	10
393.355	1	8
393.696	1	3
394.038	1	8
394.379	1	6
394.721	1	2
395.062	1	-5
395.404	1	2
395.746	1	0
396.087	1	5
396.429	1	0
396.770	1	8
397.112	1	-4
397.453	1	-6
397.795	1	1
398.136	1	6
398.478	1	-2
398.819	1	6
399.161	1	9
399.503	1	10
399.844	1	-3
400.186	1	0
400.527	1	4
400.869	1	-10
401.210	1	-2
401.552	1	-4
401.893	1	11
402.235	1	1
402.576	1	-2
402.918	1	1
403.259	1	-7
403.601	1	9
403.942	1	-1
404.284	1	7
404.625	1	-1
404.967	1	-4
405.308	1	-9
405.649	1	-4
405.991	1	3
406.332	1	4
406.674	1	0
407.015	1	9
407.357	1	4
407.698	1	-4
408.040	1	5
408.381	1	-13
408.722	1	4
409.064	1	6
409.405	1	4
409.747	1	4
410.088	1	-1
410.430	1	8
410.771	1	0
411.112	1	9
411.454	1	-2
411.795	1	1
412.137	1	-5
412.478	1	3
412.819	1	6
413.161	1	-2
413.502	1	-7
413.844	1	13
414.185	1	-4
414.526	1	-4
414.868	1	-2
415.209	1	-4
415.550	1	-6
415.892	1	-2
416.233	1	-8
416.575	1	-8
416.916	1	-3
417.257	1	-2
417.599	1	6
417.940	1	-6
418.281	1	4
418.623	1	-4
418.964	1	20
419.305	1	5
419.647	1	-1
419.988	1	3
420.329	1	0
420.671	1	12
421.012	1	-8
421.353	1	10
421.695	1	5
422.036	1	2
422.377	1	-2
422.718	1	10
423.060	1	-5
423.401	1	-4
423.742	1	6
424.084	1	0
424.425	1	-1
424.766	1	1
425.107	1	1
425.449	1	2
425.790	1	-2
426.131	1	-10
426.472	1	6
426.814	1	-5
427.155	1	-1
427.496	1	0
427.837	1	-8
428.179	1	10
428.520	1	0
428.861	1	12
429.202	1	2
429.544	1	0
429.885	1	3
430.226	1	-19
430.567	1	-11
430.909	1	-5
431.250	1	5
431.591	1	5
431.932	1	2
432.273	1	12
432.615	1	-6
432.956	1	-3
433.297	1	-2
433.638	1	8
433.979	1	1
434.320	1	-1
434.662	1	3
435.003	1	13
435.344	1	6
435.685	1	-1
436.026	1	-3
436.368	1	-3
436.709	1	5
437.050	1	-1
437.391	1	-9
437.732	1	-1
438.073	1	-10
438.414	1	9
438.756	1	-3
439.097	1	3
439.438	1	0
439.779	1	1
440.120	1	0
440.461	1	2
440.802	1	4
441.143	1	2
441.485	1	-1
441.826	1	-3
442.167	1	-1
442.508	1	2
442.849	1	7
443.190	1	3
443.531	1	-5
443.872	1	-10
444.213	1	-12
444.554	1	3
444.895	1	-7
445.237	1	-1
445.578	1	-9
445.919	1	5
446.260	1	10
446.601	1	4
446.942	1	-4
447.283	1	8
447.624	1	-9
447.965	1	0
448.306	1	-3
448.647	1	2
448.988	1	12
449.329	1	7
449.670	1	5
450.011	1	2
450.352	1	-4
450.693	1	4
451.034	1	1
451.375	1	3
451.716	1	2
452.057	1	-5
452.398	1	14
452.739	1	-2
453.080	1	-4
453.421	1	5
453.762	1	9
454.103	1	0
454.444	1	8
454.785	1	-10
455.126	1	-2
455.467	1	-6
455.808	1	9
456.149	1	-12
456.490	1	-2
456.831	1	-1
457.172	1	4
457.513	1	3
457.854	1	10
458.195	1	3
458.536	1	3
458.877	1	1
459.218	1	3
459.559	1	-1
459.899	1	-1
460.240	1	-7
460.581	1	-1
460.922	1	-7
461.263	1	15
461.604	1	0
461.945	1	0
462.286	1	1
462.627	1	6
462.968	1	12
463.309	1	6
463.649	1	-6
463.990	1	3
464.331	1	5
464.672	1	8
465.013	1	-1
465.354	1	9
465.695	1	6
466.036	1	11
466.376	1	10
466.717	1	-14
467.058	1	2
467.399	1	-10
467.740	1	15
468.081	1	2
468.422	1	8
468.762	1	13
469.103	1	2
469.444	1	3
469.785	1	-9
470.126	1	6
470.467	1	6
470.807	1	0
471.148	1	-6
471.489	1	4
471.830	1	-4
472.171	1	5
472.511	1	6
472.852	1	4
473.193	1	3
473.534	1	2
473.875	1	-1
474.215	1	-4
474.556	1	-5
474.897	1	-4
475.238	1	-1
475.578	1	-2
475.919	1	1
476.260	1	-2
476.601	1	-5
476.942	1	-2
477.282	1	-3
477.623	1	2
477.964	1	8
478.305	1	0
478.645	1	6
478.986	1	3
479.327	1	4
479.667	1	3
480.008	1	3
480.349	1	1
480.690	1	0
481.030	1	-3
481.371	1	-12
481.712	1	15
482.053	1	13
482.393	1	6
482.734	1	0
483.075	1	8
483.415	1	3
483.756	1	-2
484.097	1	6
484.437	1	11
484.778	1	-4
485.119	1	3
485.459	1	-9
485.800	1	1
486.141	1	8
486.481	1	-5
486.822	1	10
487.163	1	-5
487.503	1	-4
487.844	1	-7
488.185	1	15
488.525	1	-6
488.866	1	0
489.207	1	-2
489.547	1	1
489.888	1	11
490.228	1	-2
490.569	1	-6
490.910	1	2
491.250	1	1
491.591	1	3
491.932	1	12
492.272	1	-10
492.613	1	-3
492.953	1	-1
493.294	1	-10
493.635	1	3
493.975	1	7
494.316	1	2
494.656	1	3
494.997	1	-4
495.337	1	2
495.678	1	4
496.019	1	3
496.359	1	4
496.700	1	12
497.040	1	-5
497.381	1	4
497.721	1	-3
498.062	1	-5
498.403	1	4
498.743	1	-1
499.084	1	7
499.424	1	-5
499.765	1	8
500.105	1	7
500.446	1	-6
500.786	1	-1
501.127	1	1
501.467	1	9
501.808	1	3
502.148	1	2
502.489	1	-5
502.829	1	-5
503.170	1	5
503.510	1	-4
503.851	1	-1
504.191	1	5
504.532	1	10
504.872	1	-5
505.213	1	-2
505.553	1	-6
505.894	1	3
506.234	1	4
506.575	1	11
506.915	1	3
507.256	1	1
507.596	1	7
507.936	1	9
508.277	1	7
508.617	1	6
508.958	1	9
509.298	1	-6
509.639	1	-3
509.979	1	0
510.319	1	11
510.660	1	-10
511.000	1	1
511.341	1	-2
511.681	1	10
512.022	1	-8
512.362	1	10
512.702	1	-11
513.043	1	1
513.383	1	9
513.724	1	2
514.064	1	-1
514.404	1	5
514.745	1	-2
515.085	1	1
515.425	1	0
515.766	1	-2
516.106	1	1
516.447	1	8
516.787	1	2
517.127	1	5
517.468	1	16
517.808	1	-13
518.148	1	9
518.489	1	11
518.829	1	-4
519.169	1	-4
519.510	1	2
519.850	1	10
520.190	1	-6
520.531	1	2
520.871	1	0
521.211	1	5
521.552	1	-1
521.892	1	-2
522.232	1	7
522.573	1	9
522.913	1	-4
523.253	1	11
523.593	1	-2
523.934	1	2
524.274	1	0
524.614	1	8
524.955	1	-8
525.295	1	3
525.635	1	7
525.975	1	-2
526.316	1	-3
526.656	1	6
526.996	1	-3
527.337	1	11
527.677	1	11
528.017	1	-7
528.357	1	-3
528.698	1	7
529.038	1	-5
529.378	1	-4
529.718	1	-4
530.058	1	7
530.399	1	-2
530.739	1	-7
531.079	1	-5
531.419	1	5
531.760	1	6
532.100	1	0
532.440	1	-1
532.780	1	2
533.120	1	-10
533.461	1	1
533.801	1	2
534.141	1	7
534.481	1	8
534.821	1	-1
535.162	1	1
535.502	1	1
535.842	1	0
536.182	1	2
536.522	1	-4
536.862	1	0
537.203	1	-2
537.543	1	4
537.883	1	2
538.223	1	13
538.563	1	-7
538.903	1	-5
539.243	1	6
539.584	1	-1
539.924	1	3
540.264	1	3
540.604	1	8
540.944	1	0
541.284	1	1
541.624	1	-1
541.964	1	1
542.305	1	12
542.645	1	-2
542.985	1	-2
543.325	1	-2
543.665	1	-1
544.005	1	1
544.345	1	3
544.685	1	1
545.025	1	7
545.365	1	-1
545.705	1	-1
546.045	1	7
546.386	1	-4
546.726	1	-11
547.066	1	-3
547.406	1	-4
547.746	1	-4
548.086	1	2
548.426	1	-3
548.766	1	-2
549.106	1	-4
549.446	1	7
549.786	1	4
550.126	1	0
550.466	1	-6
550.806	1	12
551.146	1	-2
551.486	1	-1
551.826	1	-3
552.166	1	3
552.506	1	-3
552.846	1	8
553.186	1	-10
553.526	1	6
553.866	1	0
554.206	1	7
554.546	1	6
554.886	1	1
555.226	1	3
555.566	1	0
555.906	1	1
556.246	1	2
556.586	1	0
556.926	1	-2
557.266	1	6
557.606	1	-4
557.946	1	-1
558.286	1	-16
558.626	1	4
558.966	1	5
559.306	1	5
559.646	1	7
559.986	1	5
560.325	1	-2
560.665	1	-1
561.005	1	0
561.345	1	4
561.685	1	3
562.025	1	0
562.365	1	5
562.705	1	10
563.045	1	8
563.385	1	-4
563.725	1	2
564.064	1	-7
564.404	1	4
564.744	1	8
565.084	1	-1
565.424	1	-6
565.764	1	6
566.104	1	10
566.444	1	3
566.783	1	5
567.123	1	2
567.463	1	-3
567.803	1	2
568.143	1	-1
568.483	1	7
568.823	1	-1
569.162	1	-3
569.502	1	2
569.842	1	-1
570.182	1	-5
570.522	1	-4
570.862	1	0
571.201	1	3
571.541	1	4
571.881	1	-3
572.221	1	6
572.561	1	8
572.900	1	17
573.240	1	2
573.580	1	3
573.920	1	9
574.260	1	12
574.599	1	3
574.939	1	15
575.279	1	-7
575.619	1	5
575.959	1	-3
576.298	1	-13
576.638	1	7
576.978	1	0
577.318	1	4
577.657	1	-3
577.997	1	2
578.337	1	-3
578.677	1	7
579.016	1	4
579.356	1	2
579.696	1	-2
580.036	1	7
580.375	1	4
580.715	1	5
581.055	1	4
581.394	1	-1
581.734	1	0
582.074	1	0
582.414	1	-5
582.753	1	-4
583.093	1	4
583.433	1	6
583.772	1	10
584.112	1	-2
584.452	1	9
584.791	1	2
585.131	1	-1
585.471	1	0
585.811	1	0
586.150	1	5
586.490	1	-1
586.830	1	-2
587.169	1	5
587.509	1	5
587.849	1	4
588.188	1	13
588.528	1	-3
588.867	1	8
589.207	1	5
589.547	1	4
589.886	1	-3
590.226	1	0
590.566	1	1
590.905	1	11
591.245	1	-2
591.585	1	-7
591.924	1	-10
592.264	1	-1
592.603	1	-18
592.943	1	6
593.283	1	1
593.622	1	6
593.962	1	-2
594.301	1	-3
594.641	1	12
594.981	1	0
595.320	1	5
595.660	1	-2
595.999	1	-1
596.339	1	-4
596.678	1	-5
597.018	1	-2
597.358	1	1
597.697	1	-9
598.037	1	10
598.376	1	-5
598.716	1	4
599.055	1	5
599.395	1	-11
599.734	1	-5
600.074	1	-7
600.413	1	-5
600.753	1	3
601.092	1	-4
601.432	1	-8
601.771	1	6
602.111	1	1
602.451	1	-11
602.790	1	8
603.130	1	3
603.469	1	3
603.809	1	7
604.148	1	-5
604.487	1	-3
604.827	1	2
605.166	1	14
605.506	1	2
605.845	1	7
606.185	1	-10
606.524	1	-1
606.864	1	9
607.203	1	3
607.543	1	7
607.882	1	4
608.222	1	-1
608.561	1	2
608.901	1	3
609.240	1	9
609.579	1	1
609.919	1	-12
610.258	1	10
610.598	1	-3
610.937	1	0
611.277	1	3
611.616	1	14
611.955	1	-9
612.295	1	7
612.634	1	2
612.974	1	2
613.313	1	6
613.652	1	3
613.992	1	-3
614.331	1	4
614.671	1	0
615.010	1	-3
615.349	1	-4
615.689	1	-2
616.028	1	8
616.368	1	7
616.707	1	-1
617.046	1	2
617.386	1	11
617.725	1	-1
618.064	1	-6
618.404	1	-4
618.743	1	6
619.082	1	17
619.422	1	6
619.761	1	-1
620.100	1	4
620.440	1	-3
620.779	1	7
621.118	1	10
621.458	1	6
621.797	1	0
622.136	1	-9
622.476	1	6
622.815	1	3
623.154	1	-9
623.494	1	-10
623.833	1	0
624.172	1	4
624.511	1	-12
624.851	1	-3
625.190	1	-1
625.529	1	6
625.869	1	3
626.208	1	-3
626.547	1	-7
626.886	1	-5
627.226	1	5
627.565	1	7
627.904	1	0
628.243	1	-1
628.583	1	5
628.922	1	13
629.261	1	4
629.600	1	-3
629.940	1	1
630.279	1	6
630.618	1	0
630.957	1	0
631.297	1	6
631.636	1	3
631.975	1	-3
632.314	1	2
632.653	1	1
632.993	1	0
633.332	1	8
633.671	1	3
634.010	1	3
634.349	1	3
634.689	1	-3
635.028	1	-4
635.367	1	7
635.706	1	2
636.045	1	-11
636.384	1	3
636.724	1	2
637.063	1	-9
637.402	1	-1
637.741	1	6
638.080	1	3
638.419	1	-3
638.759	1	1
639.098	1	-1
639.437	1	6
639.776	1	-5
640.115	1	-2
640.454	1	-8
640.793	1	-8
641.132	1	2
641.472	1	15
641.811	1	1
642.150	1	-3
642.489	1	0
642.828	1	8
643.167	1	-3
643.506	1	-4
643.845	1	2
644.184	1	8
644.524	1	-8
644.863	1	-2
645.202	1	0
645.541	1	-4
645.880	1	13
646.219	1	1
646.558	1	-6
646.897	1	-4
647.236	1	-15
647.575	1	7
647.914	1	-1
648.253	1	2
648.592	1	0
648.931	1	5
649.270	1	2
649.610	1	-3
649.949	1	-5
650.288	1	1
650.627	1	1
650.966	1	0
651.305	1	3
651.644	1	13
651.983	1	-14
652.322	1	-7
652.661	1	13
653.000	1	0
653.339	1	-7
653.678	1	15
654.017	1	2
654.356	1	11
654.695	1	11
655.034	1	-5
655.373	1	3
655.712	1	7
656.051	1	-3
656.390	1	-2
656.729	1	4
657.068	1	-1
657.406	1	-4
657.745	1	10
658.084	1	-3
658.423	1	11
658.762	1	-8
659.101	1	-3
659.440	1	5
659.779	1	-2
660.118	1	-2
660.457	1	1
660.796	1	13
661.135	1	6
661.474	1	4
661.813	1	0
662.152	1	-1
662.491	1	-3
662.829	1	-2
663.168	1	-3
663.507	1	4
663.846	1	-2
664.185	1	-3
664.524	1	10
664.863	1	4
665.202	1	11
665.541	1	3
665.879	1	10
666.218	1	3
666.557	1	-3
666.896	1	2
667.235	1	-17
667.574	1	10
667.913	1	-2
668.251	1	-1
668.590	1	0
668.929	1	-5
669.268	1	-3
669.607	1	-9
669.946	1	1
670.285	1	-9
670.623	1	0
670.962	1	-5
671.301	1	-2
671.640	1	12
671.979	1	-6
672.317	1	-1
672.656	1	7
672.995	1	5
673.334	1	3
673.673	1	11
674.011	1	11
674.350	1	3
674.689	1	-4
675.028	1	1
675.367	1	0
675.705	1	-9
676.044	1	-4
676.383	1	-2
676.722	1	1
677.060	1	6
677.399	1	16
677.738	1	1
678.077	1	-1
678.416	1	4
678.754	1	3
679.093	1	4
679.432	1	-9
679.771	1	2
680.109	1	1
680.448	1	-3
680.787	1	-12
681.125	1	-11
681.464	1	10
681.803	1	-2
682.142	1	0
682.480	1	-4
682.819	1	-5
683.158	1	-2
683.496	1	-9
683.835	1	-1
684.174	1	4
684.512	1	6
684.851	1	4
685.190	1	-5
685.529	1	2
685.867	1	-8
686.206	1	-8
686.545	1	-9
686.883	1	0
687.222	1	-4
687.561	1	3
687.899	1	11
688.238	1	3
688.577	1	5
688.746	1	-5