File: Data/GaN_150K_450ms/GaN_sample D_spot15_UVVIS_150 K_200um_450 ms 2x2mm1_179.txt
340.368	1	-3
340.710	1	11
341.052	1	6
341.394	1	-12
341.737	1	8
342.079	1	14
342.421	1	1
342.763	1	5
343.105	1	3
343.447	1	3
343.789	1	3
344.131	1	-4
344.473	1	7
344.815	1	-1
345.157	1	15
345.499	1	8
345.841	1	12
346.183	1	-1
346.526	1	8
346.868	1	-5
347.210	1	-1
347.552	1	11
347.894	1	0
348.236	1	10
348.578	1	5
348.920	1	7
349.262	1	10
349.604	1	-3
349.946	1	8
350.288	1	-8
350.630	1	-1
350.972	1	7
351.314	1	6
351.656	1	8
351.998	1	0
352.340	1	9
352.682	1	-11
353.024	1	13
353.366	1	14
353.708	1	-6
354.050	1	-4
354.392	1	3
354.734	1	8
355.076	1	10
355.418	1	6
355.760	1	6
356.102	1	1
356.444	1	8
356.785	1	12
357.127	1	13
357.469	1	10
357.811	1	4
358.153	1	-9
358.495	1	8
358.837	1	12
359.179	1	5
359.521	1	12
359.863	1	3
360.205	1	12
360.547	1	11
360.889	1	2
361.231	1	15
361.572	1	13
361.914	1	12
362.256	1	16
362.598	1	15
362.940	1	11
363.282	1	3
363.624	1	13
363.966	1	8
364.308	1	25
364.649	1	13
364.991	1	25
365.333	1	10
365.675	1	26
366.017	1	18
366.359	1	16
366.701	1	9
367.042	1	26
367.384	1	19
367.726	1	34
368.068	1	42
368.410	1	29
368.752	1	45
369.093	1	26
369.435	1	30
369.777	1	30
370.119	1	30
370.461	1	34
370.803	1	22
371.144	1	32
371.486	1	23
371.828	1	28
372.170	1	24
372.512	1	8
372.853	1	25
373.195	1	22
373.537	1	7
373.879	1	12
374.220	1	18
374.562	1	26
374.904	1	17
375.246	1	8
375.588	1	10
375.929	1	13
376.271	1	6
376.613	1	14
376.955	1	23
377.296	1	10
377.638	1	12
377.980	1	4
378.321	1	2
378.663	1	12
379.005	1	12
379.347	1	8
379.688	1	10
380.030	1	11
380.372	1	2
380.714	1	6
381.055	1	7
381.397	1	11
381.739	1	7
382.080	1	7
382.422	1	3
382.764	1	9
383.105	1	3
383.447	1	5
383.789	1	-4
384.130	1	0
384.472	1	-1
384.814	1	13
385.156	1	7
385.497	1	13
385.839	1	4
386.180	1	5
386.522	1	11
386.864	1	0
387.205	1	10
387.547	1	13
387.889	1	5
388.230	1	4
388.572	1	5
388.914	1	15
389.255	1	3
389.597	1	-1
389.939	1	20
390.280	1	1
390.622	1	2
390.963	1	-7
391.305	1	0
391.647	1	1
391.988	1	0
392.330	1	-1
392.671	1	18
393.013	1	8
393.355	1	6
393.696	1	3
394.038	1	1
394.379	1	17
394.721	1	3
395.062	1	-4
395.404	1	12
395.746	1	4
396.087	1	4
396.429	1	13
396.770	1	7
397.112	1	-2
397.453	1	-1
397.795	1	8
398.136	1	9
398.478	1	4
398.819	1	15
399.161	1	23
399.503	1	26
399.844	1	-1
400.186	1	8
400.527	1	4
400.869	1	-1
401.210	1	5
401.552	1	7
401.893	1	11
402.235	1	10
402.576	1	10
402.918	1	2
403.259	1	5
403.601	1	13
403.942	1	10
404.284	1	8
404.625	1	2
404.967	1	5
405.308	1	-3
405.649	1	7
405.991	1	10
406.332	1	6
406.674	1	5
407.015	1	6
407.357	1	7
407.698	1	6
408.040	1	20
408.381	1	1
408.722	1	6
409.064	1	7
409.405	1	7
409.747	1	4
410.088	1	3
410.430	1	2
410.771	1	10
411.112	1	0
411.454	1	12
411.795	1	4
412.137	1	-2
412.478	1	3
412.819	1	8
413.161	1	4
413.502	1	11
413.844	1	17
414.185	1	4
414.526	1	1
414.868	1	4
415.209	1	7
415.550	1	14
415.892	1	10
416.233	1	4
416.575	1	4
416.916	1	0
417.257	1	1
417.599	1	14
417.940	1	-6
418.281	1	16
418.623	1	1
418.964	1	15
419.305	1	9
419.647	1	6
419.988	1	13
420.329	1	11
420.671	1	8
421.012	1	0
421.353	1	18
421.695	1	14
422.036	1	14
422.377	1	3
422.718	1	8
423.060	1	-1
423.401	1	2
423.742	1	24
424.084	1	4
424.425	1	12
424.766	1	0
425.107	1	5
425.449	1	4
425.790	1	15
426.131	1	5
426.472	1	6
426.814	1	5
427.155	1	9
427.496	1	3
427.837	1	6
428.179	1	14
428.520	1	1
428.861	1	13
429.202	1	-2
429.544	1	10
429.885	1	17
430.226	1	2
430.567	1	-3
430.909	1	11
431.250	1	12
431.591	1	10
431.932	1	-3
432.273	1	11
432.615	1	3
432.956	1	13
433.297	1	2
433.638	1	9
433.979	1	7
434.320	1	5
434.662	1	14
435.003	1	13
435.344	1	6
435.685	1	1
436.026	1	3
436.368	1	-3
436.709	1	6
437.050	1	3
437.391	1	11
437.732	1	6
438.073	1	-4
438.414	1	12
438.756	1	-2
439.097	1	11
439.438	1	6
439.779	1	0
440.120	1	2
440.461	1	0
440.802	1	2
441.143	1	6
441.485	1	2
441.826	1	12
442.167	1	11
442.508	1	6
442.849	1	6
443.190	1	10
443.531	1	6
443.872	1	3
444.213	1	0
444.554	1	5
444.895	1	0
445.237	1	12
445.578	1	5
445.919	1	1
446.260	1	7
446.601	1	6
446.942	1	-6
447.283	1	14
447.624	1	-1
447.965	1	4
448.306	1	8
448.647	1	-1
448.988	1	15
449.329	1	14
449.670	1	6
450.011	1	2
450.352	1	-2
450.693	1	11
451.034	1	1
451.375	1	9
451.716	1	14
452.057	1	9
452.398	1	9
452.739	1	6
453.080	1	14
453.421	1	11
453.762	1	4
454.103	1	12
454.444	1	-5
454.785	1	6
455.126	1	-5
455.467	1	11
455.808	1	8
456.149	1	-4
456.490	1	-7
456.831	1	7
457.172	1	5
457.513	1	9
457.854	1	14
458.195	1	4
458.536	1	13
458.877	1	9
459.218	1	14
459.559	1	7
459.899	1	3
460.240	1	-2
460.581	1	-3
460.922	1	14
461.263	1	11
461.604	1	1
461.945	1	5
462.286	1	1
462.627	1	1
462.968	1	5
463.309	1	7
463.649	1	-9
463.990	1	0
464.331	1	7
464.672	1	5
465.013	1	2
465.354	1	12
465.695	1	1
466.036	1	10
466.376	1	6
466.717	1	-9
467.058	1	-1
467.399	1	-6
467.740	1	11
468.081	1	1
468.422	1	9
468.762	1	4
469.103	1	8
469.444	1	5
469.785	1	-5
470.126	1	11
470.467	1	4
470.807	1	9
471.148	1	3
471.489	1	14
471.830	1	6
472.171	1	3
472.511	1	5
472.852	1	-1
473.193	1	0
473.534	1	9
473.875	1	-2
474.215	1	8
474.556	1	-2
474.897	1	-6
475.238	1	9
475.578	1	-10
475.919	1	6
476.260	1	-3
476.601	1	8
476.942	1	5
477.282	1	-2
477.623	1	-2
477.964	1	19
478.305	1	9
478.645	1	7
478.986	1	7
479.327	1	6
479.667	1	13
480.008	1	5
480.349	1	9
480.690	1	13
481.030	1	2
481.371	1	-6
481.712	1	15
482.053	1	0
482.393	1	6
482.734	1	2
483.075	1	5
483.415	1	4
483.756	1	7
484.097	1	8
484.437	1	8
484.778	1	3
485.119	1	9
485.459	1	-2
485.800	1	-4
486.141	1	12
486.481	1	-3
486.822	1	10
487.163	1	1
487.503	1	6
487.844	1	-2
488.185	1	4
488.525	1	-3
488.866	1	-3
489.207	1	8
489.547	1	12
489.888	1	12
490.228	1	5
490.569	1	-7
490.910	1	5
491.250	1	7
491.591	1	4
491.932	1	10
492.272	1	-7
492.613	1	2
492.953	1	-1
493.294	1	-11
493.635	1	1
493.975	1	13
494.316	1	-3
494.656	1	5
494.997	1	-2
495.337	1	-1
495.678	1	5
496.019	1	4
496.359	1	11
496.700	1	-1
497.040	1	7
497.381	1	7
497.721	1	1
498.062	1	5
498.403	1	9
498.743	1	7
499.084	1	7
499.424	1	-1
499.765	1	7
500.105	1	9
500.446	1	0
500.786	1	7
501.127	1	13
501.467	1	6
501.808	1	6
502.148	1	7
502.489	1	-2
502.829	1	12
503.170	1	12
503.510	1	1
503.851	1	12
504.191	1	-6
504.532	1	18
504.872	1	-2
505.213	1	-1
505.553	1	5
505.894	1	6
506.234	1	14
506.575	1	18
506.915	1	7
507.256	1	13
507.596	1	19
507.936	1	8
508.277	1	5
508.617	1	13
508.958	1	7
509.298	1	-1
509.639	1	-1
509.979	1	3
510.319	1	5
510.660	1	6
511.000	1	2
511.341	1	8
511.681	1	8
512.022	1	-9
512.362	1	14
512.702	1	1
513.043	1	7
513.383	1	9
513.724	1	6
514.064	1	-6
514.404	1	10
514.745	1	-2
515.085	1	17
515.425	1	13
515.766	1	8
516.106	1	13
516.447	1	16
516.787	1	3
517.127	1	12
517.468	1	12
517.808	1	5
518.148	1	16
518.489	1	4
518.829	1	8
519.169	1	2
519.510	1	5
519.850	1	10
520.190	1	1
520.531	1	9
520.871	1	2
521.211	1	9
521.552	1	5
521.892	1	11
522.232	1	10
522.573	1	9
522.913	1	14
523.253	1	13
523.593	1	19
523.934	1	15
524.274	1	-1
524.614	1	14
524.955	1	6
525.295	1	12
525.635	1	7
525.975	1	-2
526.316	1	-9
526.656	1	11
526.996	1	0
527.337	1	23
527.677	1	24
528.017	1	5
528.357	1	17
528.698	1	12
529.038	1	13
529.378	1	15
529.718	1	6
530.058	1	12
530.399	1	5
530.739	1	10
531.079	1	14
531.419	1	13
531.760	1	13
532.100	1	14
532.440	1	11
532.780	1	11
533.120	1	6
533.461	1	4
533.801	1	14
534.141	1	17
534.481	1	17
534.821	1	1
535.162	1	18
535.502	1	14
535.842	1	-2
536.182	1	23
536.522	1	-1
536.862	1	5
537.203	1	0
537.543	1	4
537.883	1	5
538.223	1	14
538.563	1	2
538.903	1	3
539.243	1	10
539.584	1	2
539.924	1	11
540.264	1	15
540.604	1	14
540.944	1	13
541.284	1	16
541.624	1	6
541.964	1	-4
542.305	1	12
542.645	1	5
542.985	1	8
543.325	1	17
543.665	1	6
544.005	1	11
544.345	1	10
544.685	1	9
545.025	1	11
545.365	1	8
545.705	1	9
546.045	1	13
546.386	1	-10
546.726	1	2
547.066	1	0
547.406	1	0
547.746	1	1
548.086	1	5
548.426	1	1
548.766	1	3
549.106	1	1
549.446	1	5
549.786	1	5
550.126	1	6
550.466	1	1
550.806	1	17
551.146	1	4
551.486	1	8
551.826	1	-5
552.166	1	0
552.506	1	7
552.846	1	16
553.186	1	-3
553.526	1	2
553.866	1	1
554.206	1	10
554.546	1	1
554.886	1	8
555.226	1	7
555.566	1	11
555.906	1	3
556.246	1	10
556.586	1	7
556.926	1	5
557.266	1	8
557.606	1	-1
557.946	1	17
558.286	1	-8
558.626	1	14
558.966	1	1
559.306	1	6
559.646	1	12
559.986	1	7
560.325	1	11
560.665	1	9
561.005	1	12
561.345	1	1
561.685	1	6
562.025	1	-1
562.365	1	-1
562.705	1	9
563.045	1	10
563.385	1	12
563.725	1	-3
564.064	1	8
564.404	1	4
564.744	1	15
565.084	1	6
565.424	1	-4
565.764	1	9
566.104	1	10
566.444	1	9
566.783	1	10
567.123	1	1
567.463	1	5
567.803	1	14
568.143	1	1
568.483	1	4
568.823	1	1
569.162	1	2
569.502	1	6
569.842	1	10
570.182	1	7
570.522	1	0
570.862	1	-16
571.201	1	20
571.541	1	-3
571.881	1	0
572.221	1	3
572.561	1	10
572.900	1	14
573.240	1	1
573.580	1	3
573.920	1	17
574.260	1	9
574.599	1	6
574.939	1	6
575.279	1	4
575.619	1	0
575.959	1	-1
576.298	1	-3
576.638	1	0
576.978	1	10
577.318	1	4
577.657	1	2
577.997	1	10
578.337	1	1
578.677	1	1
579.016	1	4
579.356	1	5
579.696	1	7
580.036	1	11
580.375	1	3
580.715	1	2
581.055	1	-8
581.394	1	5
581.734	1	6
582.074	1	2
582.414	1	2
582.753	1	6
583.093	1	2
583.433	1	14
583.772	1	11
584.112	1	1
584.452	1	2
584.791	1	1
585.131	1	3
585.471	1	5
585.811	1	2
586.150	1	3
586.490	1	2
586.830	1	6
587.169	1	12
587.509	1	0
587.849	1	11
588.188	1	5
588.528	1	0
588.867	1	8
589.207	1	16
589.547	1	6
589.886	1	6
590.226	1	-2
590.566	1	3
590.905	1	-9
591.245	1	-9
591.585	1	-6
591.924	1	-4
592.264	1	-10
592.603	1	0
592.943	1	0
593.283	1	6
593.622	1	0
593.962	1	2
594.301	1	6
594.641	1	3
594.981	1	2
595.320	1	12
595.660	1	11
595.999	1	-1
596.339	1	-2
596.678	1	-5
597.018	1	-6
597.358	1	-4
597.697	1	-4
598.037	1	-1
598.376	1	1
598.716	1	1
599.055	1	5
599.395	1	-13
599.734	1	7
600.074	1	1
600.413	1	6
600.753	1	7
601.092	1	-6
601.432	1	-14
601.771	1	2
602.111	1	0
602.451	1	2
602.790	1	5
603.130	1	4
603.469	1	6
603.809	1	1
604.148	1	-1
604.487	1	4
604.827	1	8
605.166	1	2
605.506	1	-5
605.845	1	5
606.185	1	2
606.524	1	3
606.864	1	11
607.203	1	16
607.543	1	1
607.882	1	6
608.222	1	-7
608.561	1	1
608.901	1	4
609.240	1	8
609.579	1	4
609.919	1	-7
610.258	1	12
610.598	1	-2
610.937	1	1
611.277	1	5
611.616	1	10
611.955	1	3
612.295	1	8
612.634	1	5
612.974	1	-1
613.313	1	10
613.652	1	18
613.992	1	4
614.331	1	13
614.671	1	5
615.010	1	5
615.349	1	3
615.689	1	-1
616.028	1	16
616.368	1	10
616.707	1	6
617.046	1	-4
617.386	1	5
617.725	1	-4
618.064	1	5
618.404	1	8
618.743	1	6
619.082	1	14
619.422	1	17
619.761	1	-2
620.100	1	3
620.440	1	7
620.779	1	2
621.118	1	14
621.458	1	7
621.797	1	1
622.136	1	4
622.476	1	6
622.815	1	6
623.154	1	-3
623.494	1	-4
623.833	1	2
624.172	1	-1
624.511	1	-5
624.851	1	-1
625.190	1	1
625.529	1	-1
625.869	1	12
626.208	1	-4
626.547	1	-2
626.886	1	-4
627.226	1	11
627.565	1	11
627.904	1	0
628.243	1	8
628.583	1	12
628.922	1	8
629.261	1	6
629.600	1	-4
629.940	1	15
630.279	1	9
630.618	1	3
630.957	1	9
631.297	1	0
631.636	1	1
631.975	1	-1
632.314	1	7
632.653	1	-2
632.993	1	3
633.332	1	7
633.671	1	3
634.010	1	2
634.349	1	15
634.689	1	-1
635.028	1	4
635.367	1	17
635.706	1	-1
636.045	1	-1
636.384	1	11
636.724	1	1
637.063	1	-1
637.402	1	1
637.741	1	3
638.080	1	5
638.419	1	5
638.759	1	9
639.098	1	0
639.437	1	2
639.776	1	1
640.115	1	-4
640.454	1	3
640.793	1	-1
641.132	1	5
641.472	1	12
641.811	1	-3
642.150	1	-4
642.489	1	8
642.828	1	14
643.167	1	1
643.506	1	-2
643.845	1	14
644.184	1	21
644.524	1	3
644.863	1	3
645.202	1	7
645.541	1	-2
645.880	1	4
646.219	1	5
646.558	1	-10
646.897	1	2
647.236	1	-8
647.575	1	11
647.914	1	-1
648.253	1	14
648.592	1	6
648.931	1	8
649.270	1	6
649.610	1	11
649.949	1	13
650.288	1	7
650.627	1	16
650.966	1	2
651.305	1	-1
651.644	1	11
651.983	1	2
652.322	1	5
652.661	1	8
653.000	1	0
653.339	1	2
653.678	1	2
654.017	1	9
654.356	1	6
654.695	1	21
655.034	1	-1
655.373	1	2
655.712	1	13
656.051	1	-3
656.390	1	5
656.729	1	11
657.068	1	10
657.406	1	0
657.745	1	20
658.084	1	7
658.423	1	9
658.762	1	0
659.101	1	5
659.440	1	7
659.779	1	10
660.118	1	-5
660.457	1	4
660.796	1	18
661.135	1	1
661.474	1	5
661.813	1	-3
662.152	1	3
662.491	1	12
662.829	1	4
663.168	1	-2
663.507	1	14
663.846	1	-5
664.185	1	-3
664.524	1	17
664.863	1	-9
665.202	1	1
665.541	1	-3
665.879	1	10
666.218	1	1
666.557	1	2
666.896	1	-1
667.235	1	-4
667.574	1	-6
667.913	1	8
668.251	1	-5
668.590	1	2
668.929	1	5
669.268	1	-4
669.607	1	-8
669.946	1	-1
670.285	1	-5
670.623	1	9
670.962	1	-6
671.301	1	3
671.640	1	4
671.979	1	1
672.317	1	1
672.656	1	6
672.995	1	1
673.334	1	0
673.673	1	17
674.011	1	9
674.350	1	9
674.689	1	-2
675.028	1	6
675.367	1	1
675.705	1	-7
676.044	1	4
676.383	1	6
676.722	1	1
677.060	1	0
677.399	1	15
677.738	1	3
678.077	1	-2
678.416	1	0
678.754	1	1
679.093	1	11
679.432	1	-9
679.771	1	-4
680.109	1	4
680.448	1	3
680.787	1	-10
681.125	1	-3
681.464	1	5
681.803	1	4
682.142	1	7
682.480	1	-3
682.819	1	-5
683.158	1	3
683.496	1	-1
683.835	1	3
684.174	1	1
684.512	1	1
684.851	1	2
685.190	1	3
685.529	1	2
685.867	1	-1
686.206	1	-4
686.545	1	8
686.883	1	5
687.222	1	-6
687.561	1	10
687.899	1	-1
688.238	1	6
688.577	1	-5
688.746	1	-5