File: Data/GaN_150K_450ms/GaN_sample D_spot15_UVVIS_150 K_200um_450 ms 2x2mm1_67.txt
340.368	1	-2
340.710	1	12
341.052	1	8
341.394	1	-7
341.737	1	13
342.079	1	-2
342.421	1	4
342.763	1	4
343.105	1	6
343.447	1	8
343.789	1	10
344.131	1	-4
344.473	1	5
344.815	1	4
345.157	1	16
345.499	1	7
345.841	1	10
346.183	1	2
346.526	1	8
346.868	1	5
347.210	1	0
347.552	1	18
347.894	1	5
348.236	1	5
348.578	1	14
348.920	1	13
349.262	1	10
349.604	1	6
349.946	1	3
350.288	1	-2
350.630	1	2
350.972	1	6
351.314	1	6
351.656	1	19
351.998	1	13
352.340	1	13
352.682	1	-4
353.024	1	16
353.366	1	22
353.708	1	15
354.050	1	4
354.392	1	5
354.734	1	15
355.076	1	28
355.418	1	5
355.760	1	15
356.102	1	17
356.444	1	28
356.785	1	20
357.127	1	27
357.469	1	24
357.811	1	25
358.153	1	19
358.495	1	25
358.837	1	35
359.179	1	27
359.521	1	40
359.863	1	36
360.205	1	54
360.547	1	49
360.889	1	44
361.231	1	53
361.572	1	63
361.914	1	77
362.256	1	76
362.598	1	93
362.940	1	89
363.282	1	100
363.624	1	107
363.966	1	118
364.308	1	149
364.649	1	155
364.991	1	186
365.333	1	194
365.675	1	231
366.017	1	242
366.359	1	241
366.701	1	267
367.042	1	284
367.384	1	279
367.726	1	291
368.068	1	313
368.410	1	309
368.752	1	309
369.093	1	300
369.435	1	296
369.777	1	285
370.119	1	255
370.461	1	237
370.803	1	221
371.144	1	217
371.486	1	200
371.828	1	182
372.170	1	189
372.512	1	155
372.853	1	161
373.195	1	140
373.537	1	125
373.879	1	136
374.220	1	129
374.562	1	131
374.904	1	116
375.246	1	116
375.588	1	105
375.929	1	104
376.271	1	93
376.613	1	90
376.955	1	71
377.296	1	89
377.638	1	69
377.980	1	67
378.321	1	69
378.663	1	66
379.005	1	61
379.347	1	52
379.688	1	68
380.030	1	60
380.372	1	58
380.714	1	54
381.055	1	46
381.397	1	55
381.739	1	45
382.080	1	51
382.422	1	43
382.764	1	50
383.105	1	43
383.447	1	49
383.789	1	41
384.130	1	42
384.472	1	34
384.814	1	44
385.156	1	45
385.497	1	48
385.839	1	43
386.180	1	44
386.522	1	36
386.864	1	33
387.205	1	30
387.547	1	30
387.889	1	36
388.230	1	35
388.572	1	25
388.914	1	33
389.255	1	40
389.597	1	22
389.939	1	38
390.280	1	33
390.622	1	30
390.963	1	15
391.305	1	22
391.647	1	23
391.988	1	22
392.330	1	26
392.671	1	28
393.013	1	21
393.355	1	25
393.696	1	25
394.038	1	21
394.379	1	27
394.721	1	19
395.062	1	6
395.404	1	24
395.746	1	8
396.087	1	27
396.429	1	19
396.770	1	25
397.112	1	19
397.453	1	21
397.795	1	21
398.136	1	27
398.478	1	19
398.819	1	24
399.161	1	29
399.503	1	29
399.844	1	22
400.186	1	22
400.527	1	21
400.869	1	17
401.210	1	20
401.552	1	19
401.893	1	17
402.235	1	14
402.576	1	19
402.918	1	18
403.259	1	17
403.601	1	20
403.942	1	14
404.284	1	19
404.625	1	10
404.967	1	16
405.308	1	9
405.649	1	24
405.991	1	26
406.332	1	15
406.674	1	18
407.015	1	24
407.357	1	26
407.698	1	16
408.040	1	27
408.381	1	7
408.722	1	20
409.064	1	20
409.405	1	15
409.747	1	18
410.088	1	23
410.430	1	12
410.771	1	14
411.112	1	8
411.454	1	16
411.795	1	14
412.137	1	13
412.478	1	15
412.819	1	16
413.161	1	19
413.502	1	17
413.844	1	24
414.185	1	17
414.526	1	17
414.868	1	11
415.209	1	9
415.550	1	18
415.892	1	17
416.233	1	14
416.575	1	7
416.916	1	14
417.257	1	15
417.599	1	19
417.940	1	5
418.281	1	23
418.623	1	22
418.964	1	32
419.305	1	20
419.647	1	22
419.988	1	33
420.329	1	19
420.671	1	29
421.012	1	22
421.353	1	25
421.695	1	20
422.036	1	26
422.377	1	20
422.718	1	11
423.060	1	20
423.401	1	15
423.742	1	19
424.084	1	14
424.425	1	30
424.766	1	11
425.107	1	26
425.449	1	19
425.790	1	13
426.131	1	7
426.472	1	22
426.814	1	17
427.155	1	13
427.496	1	18
427.837	1	15
428.179	1	29
428.520	1	20
428.861	1	18
429.202	1	6
429.544	1	24
429.885	1	24
430.226	1	5
430.567	1	2
430.909	1	11
431.250	1	24
431.591	1	30
431.932	1	12
432.273	1	21
432.615	1	16
432.956	1	12
433.297	1	15
433.638	1	15
433.979	1	17
434.320	1	19
434.662	1	16
435.003	1	24
435.344	1	20
435.685	1	17
436.026	1	13
436.368	1	9
436.709	1	7
437.050	1	7
437.391	1	14
437.732	1	22
438.073	1	15
438.414	1	10
438.756	1	20
439.097	1	9
439.438	1	27
439.779	1	13
440.120	1	8
440.461	1	18
440.802	1	11
441.143	1	26
441.485	1	16
441.826	1	13
442.167	1	20
442.508	1	18
442.849	1	13
443.190	1	21
443.531	1	18
443.872	1	12
444.213	1	3
444.554	1	19
444.895	1	3
445.237	1	16
445.578	1	1
445.919	1	15
446.260	1	25
446.601	1	19
446.942	1	11
447.283	1	18
447.624	1	3
447.965	1	11
448.306	1	18
448.647	1	4
448.988	1	13
449.329	1	30
449.670	1	15
450.011	1	4
450.352	1	9
450.693	1	9
451.034	1	7
451.375	1	20
451.716	1	13
452.057	1	14
452.398	1	24
452.739	1	7
453.080	1	15
453.421	1	14
453.762	1	24
454.103	1	7
454.444	1	11
454.785	1	13
455.126	1	6
455.467	1	21
455.808	1	16
456.149	1	5
456.490	1	2
456.831	1	7
457.172	1	10
457.513	1	16
457.854	1	12
458.195	1	11
458.536	1	7
458.877	1	16
459.218	1	15
459.559	1	9
459.899	1	13
460.240	1	10
460.581	1	-1
460.922	1	12
461.263	1	16
461.604	1	8
461.945	1	11
462.286	1	10
462.627	1	10
462.968	1	11
463.309	1	14
463.649	1	9
463.990	1	9
464.331	1	15
464.672	1	18
465.013	1	1
465.354	1	24
465.695	1	11
466.036	1	20
466.376	1	10
466.717	1	2
467.058	1	11
467.399	1	10
467.740	1	27
468.081	1	18
468.422	1	14
468.762	1	14
469.103	1	11
469.444	1	18
469.785	1	5
470.126	1	17
470.467	1	9
470.807	1	24
471.148	1	16
471.489	1	18
471.830	1	5
472.171	1	17
472.511	1	13
472.852	1	18
473.193	1	17
473.534	1	15
473.875	1	6
474.215	1	11
474.556	1	10
474.897	1	3
475.238	1	27
475.578	1	8
475.919	1	7
476.260	1	7
476.601	1	1
476.942	1	18
477.282	1	2
477.623	1	5
477.964	1	15
478.305	1	16
478.645	1	14
478.986	1	18
479.327	1	20
479.667	1	6
480.008	1	19
480.349	1	5
480.690	1	18
481.030	1	10
481.371	1	9
481.712	1	24
482.053	1	31
482.393	1	21
482.734	1	18
483.075	1	18
483.415	1	12
483.756	1	18
484.097	1	14
484.437	1	24
484.778	1	8
485.119	1	18
485.459	1	16
485.800	1	12
486.141	1	12
486.481	1	13
486.822	1	34
487.163	1	13
487.503	1	19
487.844	1	12
488.185	1	25
488.525	1	16
488.866	1	15
489.207	1	27
489.547	1	22
489.888	1	33
490.228	1	19
490.569	1	13
490.910	1	35
491.250	1	29
491.591	1	20
491.932	1	42
492.272	1	8
492.613	1	25
492.953	1	27
493.294	1	21
493.635	1	35
493.975	1	38
494.316	1	20
494.656	1	39
494.997	1	19
495.337	1	25
495.678	1	48
496.019	1	32
496.359	1	28
496.700	1	35
497.040	1	27
497.381	1	30
497.721	1	30
498.062	1	27
498.403	1	38
498.743	1	37
499.084	1	41
499.424	1	33
499.765	1	46
500.105	1	47
500.446	1	33
500.786	1	42
501.127	1	49
501.467	1	43
501.808	1	40
502.148	1	36
502.489	1	43
502.829	1	37
503.170	1	59
503.510	1	33
503.851	1	53
504.191	1	46
504.532	1	61
504.872	1	49
505.213	1	49
505.553	1	47
505.894	1	48
506.234	1	61
506.575	1	64
506.915	1	50
507.256	1	61
507.596	1	48
507.936	1	59
508.277	1	66
508.617	1	62
508.958	1	57
509.298	1	49
509.639	1	44
509.979	1	54
510.319	1	56
510.660	1	43
511.000	1	50
511.341	1	73
511.681	1	58
512.022	1	47
512.362	1	69
512.702	1	44
513.043	1	64
513.383	1	60
513.724	1	56
514.064	1	57
514.404	1	74
514.745	1	58
515.085	1	65
515.425	1	58
515.766	1	62
516.106	1	64
516.447	1	64
516.787	1	69
517.127	1	73
517.468	1	68
517.808	1	58
518.148	1	79
518.489	1	57
518.829	1	65
519.169	1	56
519.510	1	56
519.850	1	58
520.190	1	63
520.531	1	59
520.871	1	69
521.211	1	69
521.552	1	67
521.892	1	63
522.232	1	72
522.573	1	65
522.913	1	74
523.253	1	67
523.593	1	67
523.934	1	69
524.274	1	70
524.614	1	79
524.955	1	64
525.295	1	72
525.635	1	64
525.975	1	65
526.316	1	65
526.656	1	73
526.996	1	73
527.337	1	70
527.677	1	72
528.017	1	71
528.357	1	76
528.698	1	74
529.038	1	67
529.378	1	69
529.718	1	69
530.058	1	76
530.399	1	73
530.739	1	69
531.079	1	69
531.419	1	65
531.760	1	76
532.100	1	78
532.440	1	83
532.780	1	78
533.120	1	79
533.461	1	74
533.801	1	68
534.141	1	70
534.481	1	84
534.821	1	78
535.162	1	67
535.502	1	66
535.842	1	68
536.182	1	59
536.522	1	66
536.862	1	68
537.203	1	69
537.543	1	65
537.883	1	61
538.223	1	72
538.563	1	67
538.903	1	63
539.243	1	52
539.584	1	62
539.924	1	57
540.264	1	72
540.604	1	73
540.944	1	66
541.284	1	59
541.624	1	67
541.964	1	61
542.305	1	63
542.645	1	65
542.985	1	60
543.325	1	70
543.665	1	59
544.005	1	61
544.345	1	85
544.685	1	67
545.025	1	61
545.365	1	66
545.705	1	66
546.045	1	64
546.386	1	55
546.726	1	61
547.066	1	62
547.406	1	53
547.746	1	62
548.086	1	72
548.426	1	61
548.766	1	58
549.106	1	65
549.446	1	67
549.786	1	65
550.126	1	56
550.466	1	68
550.806	1	73
551.146	1	67
551.486	1	66
551.826	1	46
552.166	1	62
552.506	1	61
552.846	1	57
553.186	1	49
553.526	1	60
553.866	1	61
554.206	1	62
554.546	1	53
554.886	1	46
555.226	1	53
555.566	1	52
555.906	1	51
556.246	1	50
556.586	1	43
556.926	1	40
557.266	1	58
557.606	1	40
557.946	1	55
558.286	1	30
558.626	1	58
558.966	1	49
559.306	1	50
559.646	1	52
559.986	1	57
560.325	1	45
560.665	1	46
561.005	1	48
561.345	1	38
561.685	1	52
562.025	1	53
562.365	1	44
562.705	1	58
563.045	1	41
563.385	1	45
563.725	1	45
564.064	1	45
564.404	1	33
564.744	1	47
565.084	1	46
565.424	1	37
565.764	1	39
566.104	1	54
566.444	1	54
566.783	1	37
567.123	1	35
567.463	1	45
567.803	1	48
568.143	1	44
568.483	1	52
568.823	1	37
569.162	1	34
569.502	1	49
569.842	1	32
570.182	1	43
570.522	1	32
570.862	1	30
571.201	1	46
571.541	1	34
571.881	1	33
572.221	1	39
572.561	1	41
572.900	1	42
573.240	1	43
573.580	1	40
573.920	1	48
574.260	1	32
574.599	1	39
574.939	1	26
575.279	1	36
575.619	1	31
575.959	1	26
576.298	1	24
576.638	1	38
576.978	1	35
577.318	1	30
577.657	1	29
577.997	1	34
578.337	1	34
578.677	1	27
579.016	1	32
579.356	1	34
579.696	1	37
580.036	1	31
580.375	1	39
580.715	1	37
581.055	1	35
581.394	1	21
581.734	1	27
582.074	1	31
582.414	1	30
582.753	1	23
583.093	1	34
583.433	1	39
583.772	1	19
584.112	1	25
584.452	1	35
584.791	1	22
585.131	1	31
585.471	1	14
585.811	1	24
586.150	1	24
586.490	1	32
586.830	1	25
587.169	1	20
587.509	1	21
587.849	1	37
588.188	1	30
588.528	1	26
588.867	1	20
589.207	1	35
589.547	1	29
589.886	1	16
590.226	1	28
590.566	1	16
590.905	1	20
591.245	1	12
591.585	1	20
591.924	1	10
592.264	1	19
592.603	1	4
592.943	1	22
593.283	1	30
593.622	1	11
593.962	1	25
594.301	1	20
594.641	1	27
594.981	1	24
595.320	1	26
595.660	1	27
595.999	1	20
596.339	1	16
596.678	1	7
597.018	1	18
597.358	1	23
597.697	1	8
598.037	1	23
598.376	1	2
598.716	1	22
599.055	1	29
599.395	1	8
599.734	1	17
600.074	1	15
600.413	1	13
600.753	1	21
601.092	1	14
601.432	1	4
601.771	1	12
602.111	1	19
602.451	1	15
602.790	1	31
603.130	1	16
603.469	1	18
603.809	1	27
604.148	1	9
604.487	1	19
604.827	1	19
605.166	1	18
605.506	1	19
605.845	1	21
606.185	1	18
606.524	1	17
606.864	1	20
607.203	1	24
607.543	1	13
607.882	1	28
608.222	1	15
608.561	1	11
608.901	1	20
609.240	1	20
609.579	1	13
609.919	1	8
610.258	1	29
610.598	1	14
610.937	1	27
611.277	1	19
611.616	1	25
611.955	1	13
612.295	1	22
612.634	1	19
612.974	1	16
613.313	1	20
613.652	1	24
613.992	1	5
614.331	1	28
614.671	1	14
615.010	1	26
615.349	1	8
615.689	1	8
616.028	1	21
616.368	1	19
616.707	1	24
617.046	1	9
617.386	1	19
617.725	1	8
618.064	1	12
618.404	1	8
618.743	1	11
619.082	1	31
619.422	1	24
619.761	1	20
620.100	1	18
620.440	1	12
620.779	1	20
621.118	1	17
621.458	1	18
621.797	1	14
622.136	1	10
622.476	1	10
622.815	1	18
623.154	1	-3
623.494	1	5
623.833	1	4
624.172	1	18
624.511	1	-2
624.851	1	10
625.190	1	13
625.529	1	14
625.869	1	14
626.208	1	2
626.547	1	12
626.886	1	12
627.226	1	14
627.565	1	18
627.904	1	7
628.243	1	22
628.583	1	19
628.922	1	20
629.261	1	17
629.600	1	2
629.940	1	15
630.279	1	17
630.618	1	19
630.957	1	25
631.297	1	15
631.636	1	12
631.975	1	12
632.314	1	11
632.653	1	13
632.993	1	7
633.332	1	9
633.671	1	10
634.010	1	9
634.349	1	20
634.689	1	5
635.028	1	5
635.367	1	10
635.706	1	14
636.045	1	7
636.384	1	13
636.724	1	9
637.063	1	2
637.402	1	12
637.741	1	7
638.080	1	12
638.419	1	4
638.759	1	5
639.098	1	10
639.437	1	15
639.776	1	9
640.115	1	2
640.454	1	5
640.793	1	15
641.132	1	17
641.472	1	17
641.811	1	6
642.150	1	9
642.489	1	19
642.828	1	28
643.167	1	10
643.506	1	6
643.845	1	21
644.184	1	16
644.524	1	7
644.863	1	6
645.202	1	14
645.541	1	4
645.880	1	23
646.219	1	20
646.558	1	-2
646.897	1	1
647.236	1	-5
647.575	1	19
647.914	1	7
648.253	1	16
648.592	1	17
648.931	1	4
649.270	1	17
649.610	1	16
649.949	1	2
650.288	1	17
650.627	1	9
650.966	1	13
651.305	1	6
651.644	1	11
651.983	1	3
652.322	1	10
652.661	1	10
653.000	1	5
653.339	1	18
653.678	1	13
654.017	1	20
654.356	1	18
654.695	1	12
655.034	1	11
655.373	1	8
655.712	1	16
656.051	1	4
656.390	1	12
656.729	1	21
657.068	1	12
657.406	1	8
657.745	1	20
658.084	1	11
658.423	1	17
658.762	1	-1
659.101	1	12
659.440	1	11
659.779	1	16
660.118	1	10
660.457	1	8
660.796	1	16
661.135	1	15
661.474	1	13
661.813	1	8
662.152	1	14
662.491	1	1
662.829	1	1
663.168	1	9
663.507	1	17
663.846	1	5
664.185	1	8
664.524	1	19
664.863	1	-2
665.202	1	6
665.541	1	5
665.879	1	9
666.218	1	9
666.557	1	7
666.896	1	14
667.235	1	9
667.574	1	12
667.913	1	10
668.251	1	-6
668.590	1	2
668.929	1	10
669.268	1	6
669.607	1	7
669.946	1	15
670.285	1	13
670.623	1	11
670.962	1	6
671.301	1	6
671.640	1	15
671.979	1	6
672.317	1	19
672.656	1	14
672.995	1	16
673.334	1	1
673.673	1	30
674.011	1	16
674.350	1	8
674.689	1	2
675.028	1	10
675.367	1	6
675.705	1	4
676.044	1	9
676.383	1	16
676.722	1	8
677.060	1	12
677.399	1	18
677.738	1	6
678.077	1	8
678.416	1	9
678.754	1	15
679.093	1	9
679.432	1	2
679.771	1	2
680.109	1	8
680.448	1	2
680.787	1	2
681.125	1	6
681.464	1	14
681.803	1	-1
682.142	1	0
682.480	1	9
682.819	1	9
683.158	1	0
683.496	1	5
683.835	1	10
684.174	1	1
684.512	1	2
684.851	1	2
685.190	1	8
685.529	1	11
685.867	1	10
686.206	1	-4
686.545	1	3
686.883	1	20
687.222	1	7
687.561	1	14
687.899	1	3
688.238	1	23
688.577	1	10
688.746	1	20