File: Data/GaN_150K_450ms/GaN_sample D_spot15_UVVIS_150 K_200um_450 ms 2x2mm1_109.txt
340.368	1	1
340.710	1	6
341.052	1	-1
341.394	1	-4
341.737	1	18
342.079	1	-3
342.421	1	5
342.763	1	6
343.105	1	7
343.447	1	-3
343.789	1	1
344.131	1	-8
344.473	1	14
344.815	1	6
345.157	1	12
345.499	1	9
345.841	1	4
346.183	1	12
346.526	1	5
346.868	1	6
347.210	1	-7
347.552	1	16
347.894	1	5
348.236	1	8
348.578	1	6
348.920	1	2
349.262	1	9
349.604	1	-1
349.946	1	4
350.288	1	-3
350.630	1	1
350.972	1	9
351.314	1	9
351.656	1	14
351.998	1	-1
352.340	1	6
352.682	1	-6
353.024	1	14
353.366	1	12
353.708	1	8
354.050	1	-5
354.392	1	-3
354.734	1	8
355.076	1	21
355.418	1	5
355.760	1	12
356.102	1	5
356.444	1	13
356.785	1	17
357.127	1	21
357.469	1	12
357.811	1	6
358.153	1	0
358.495	1	5
358.837	1	8
359.179	1	10
359.521	1	24
359.863	1	16
360.205	1	19
360.547	1	33
360.889	1	12
361.231	1	26
361.572	1	32
361.914	1	23
362.256	1	20
362.598	1	41
362.940	1	36
363.282	1	31
363.624	1	40
363.966	1	36
364.308	1	45
364.649	1	44
364.991	1	51
365.333	1	51
365.675	1	70
366.017	1	59
366.359	1	54
366.701	1	63
367.042	1	68
367.384	1	65
367.726	1	69
368.068	1	79
368.410	1	79
368.752	1	79
369.093	1	67
369.435	1	92
369.777	1	82
370.119	1	67
370.461	1	54
370.803	1	68
371.144	1	69
371.486	1	62
371.828	1	60
372.170	1	47
372.512	1	44
372.853	1	51
373.195	1	62
373.537	1	27
373.879	1	39
374.220	1	40
374.562	1	41
374.904	1	35
375.246	1	36
375.588	1	34
375.929	1	33
376.271	1	26
376.613	1	36
376.955	1	33
377.296	1	33
377.638	1	19
377.980	1	18
378.321	1	22
378.663	1	25
379.005	1	19
379.347	1	18
379.688	1	29
380.030	1	20
380.372	1	23
380.714	1	14
381.055	1	15
381.397	1	23
381.739	1	8
382.080	1	16
382.422	1	17
382.764	1	18
383.105	1	19
383.447	1	17
383.789	1	4
384.130	1	22
384.472	1	12
384.814	1	25
385.156	1	18
385.497	1	26
385.839	1	15
386.180	1	11
386.522	1	19
386.864	1	2
387.205	1	16
387.547	1	22
387.889	1	9
388.230	1	8
388.572	1	12
388.914	1	21
389.255	1	12
389.597	1	11
389.939	1	20
390.280	1	8
390.622	1	1
390.963	1	7
391.305	1	4
391.647	1	8
391.988	1	8
392.330	1	3
392.671	1	14
393.013	1	21
393.355	1	19
393.696	1	2
394.038	1	1
394.379	1	17
394.721	1	13
395.062	1	7
395.404	1	9
395.746	1	5
396.087	1	20
396.429	1	11
396.770	1	14
397.112	1	10
397.453	1	12
397.795	1	13
398.136	1	5
398.478	1	10
398.819	1	15
399.161	1	15
399.503	1	13
399.844	1	14
400.186	1	16
400.527	1	10
400.869	1	14
401.210	1	7
401.552	1	12
401.893	1	16
402.235	1	17
402.576	1	17
402.918	1	6
403.259	1	8
403.601	1	17
403.942	1	11
404.284	1	16
404.625	1	12
404.967	1	7
405.308	1	8
405.649	1	16
405.991	1	21
406.332	1	13
406.674	1	3
407.015	1	20
407.357	1	8
407.698	1	16
408.040	1	17
408.381	1	-1
408.722	1	14
409.064	1	10
409.405	1	1
409.747	1	18
410.088	1	18
410.430	1	18
410.771	1	18
411.112	1	10
411.454	1	14
411.795	1	10
412.137	1	3
412.478	1	15
412.819	1	18
413.161	1	12
413.502	1	13
413.844	1	24
414.185	1	20
414.526	1	4
414.868	1	15
415.209	1	0
415.550	1	7
415.892	1	21
416.233	1	10
416.575	1	6
416.916	1	11
417.257	1	11
417.599	1	19
417.940	1	5
418.281	1	20
418.623	1	10
418.964	1	13
419.305	1	19
419.647	1	16
419.988	1	23
420.329	1	15
420.671	1	22
421.012	1	15
421.353	1	22
421.695	1	18
422.036	1	17
422.377	1	9
422.718	1	13
423.060	1	19
423.401	1	7
423.742	1	22
424.084	1	4
424.425	1	21
424.766	1	18
425.107	1	13
425.449	1	18
425.790	1	15
426.131	1	4
426.472	1	16
426.814	1	8
427.155	1	15
427.496	1	14
427.837	1	8
428.179	1	24
428.520	1	13
428.861	1	22
429.202	1	-5
429.544	1	15
429.885	1	25
430.226	1	-4
430.567	1	-1
430.909	1	15
431.250	1	24
431.591	1	12
431.932	1	17
432.273	1	15
432.615	1	8
432.956	1	10
433.297	1	8
433.638	1	21
433.979	1	9
434.320	1	16
434.662	1	17
435.003	1	22
435.344	1	9
435.685	1	7
436.026	1	13
436.368	1	10
436.709	1	6
437.050	1	12
437.391	1	6
437.732	1	7
438.073	1	-4
438.414	1	11
438.756	1	7
439.097	1	4
439.438	1	15
439.779	1	9
440.120	1	12
440.461	1	16
440.802	1	8
441.143	1	10
441.485	1	6
441.826	1	13
442.167	1	16
442.508	1	4
442.849	1	14
443.190	1	5
443.531	1	10
443.872	1	-6
444.213	1	-2
444.554	1	20
444.895	1	8
445.237	1	4
445.578	1	11
445.919	1	7
446.260	1	12
446.601	1	9
446.942	1	2
447.283	1	14
447.624	1	-1
447.965	1	11
448.306	1	14
448.647	1	2
448.988	1	11
449.329	1	15
449.670	1	7
450.011	1	12
450.352	1	4
450.693	1	25
451.034	1	14
451.375	1	10
451.716	1	12
452.057	1	7
452.398	1	18
452.739	1	11
453.080	1	10
453.421	1	19
453.762	1	13
454.103	1	9
454.444	1	8
454.785	1	8
455.126	1	5
455.467	1	22
455.808	1	9
456.149	1	2
456.490	1	-1
456.831	1	7
457.172	1	10
457.513	1	8
457.854	1	4
458.195	1	12
458.536	1	19
458.877	1	7
459.218	1	13
459.559	1	4
459.899	1	2
460.240	1	5
460.581	1	4
460.922	1	16
461.263	1	14
461.604	1	1
461.945	1	13
462.286	1	8
462.627	1	7
462.968	1	8
463.309	1	9
463.649	1	3
463.990	1	8
464.331	1	15
464.672	1	3
465.013	1	1
465.354	1	25
465.695	1	17
466.036	1	15
466.376	1	15
466.717	1	-9
467.058	1	3
467.399	1	-2
467.740	1	12
468.081	1	7
468.422	1	10
468.762	1	8
469.103	1	7
469.444	1	10
469.785	1	-1
470.126	1	11
470.467	1	5
470.807	1	5
471.148	1	-4
471.489	1	6
471.830	1	9
472.171	1	10
472.511	1	12
472.852	1	13
473.193	1	6
473.534	1	7
473.875	1	7
474.215	1	6
474.556	1	-4
474.897	1	-4
475.238	1	9
475.578	1	-1
475.919	1	1
476.260	1	11
476.601	1	7
476.942	1	9
477.282	1	7
477.623	1	0
477.964	1	17
478.305	1	12
478.645	1	15
478.986	1	17
479.327	1	2
479.667	1	4
480.008	1	8
480.349	1	9
480.690	1	11
481.030	1	1
481.371	1	-3
481.712	1	14
482.053	1	13
482.393	1	7
482.734	1	10
483.075	1	6
483.415	1	7
483.756	1	9
484.097	1	19
484.437	1	14
484.778	1	5
485.119	1	4
485.459	1	7
485.800	1	4
486.141	1	13
486.481	1	-5
486.822	1	22
487.163	1	9
487.503	1	12
487.844	1	8
488.185	1	15
488.525	1	-2
488.866	1	6
489.207	1	13
489.547	1	8
489.888	1	12
490.228	1	8
490.569	1	6
490.910	1	17
491.250	1	17
491.591	1	15
491.932	1	12
492.272	1	4
492.613	1	13
492.953	1	12
493.294	1	0
493.635	1	9
493.975	1	17
494.316	1	6
494.656	1	11
494.997	1	14
495.337	1	8
495.678	1	8
496.019	1	4
496.359	1	10
496.700	1	8
497.040	1	0
497.381	1	4
497.721	1	-1
498.062	1	7
498.403	1	20
498.743	1	12
499.084	1	10
499.424	1	4
499.765	1	9
500.105	1	26
500.446	1	4
500.786	1	5
501.127	1	22
501.467	1	13
501.808	1	17
502.148	1	10
502.489	1	9
502.829	1	14
503.170	1	18
503.510	1	15
503.851	1	19
504.191	1	3
504.532	1	14
504.872	1	14
505.213	1	7
505.553	1	6
505.894	1	13
506.234	1	20
506.575	1	29
506.915	1	20
507.256	1	22
507.596	1	19
507.936	1	15
508.277	1	21
508.617	1	13
508.958	1	25
509.298	1	11
509.639	1	7
509.979	1	12
510.319	1	12
510.660	1	16
511.000	1	12
511.341	1	21
511.681	1	11
512.022	1	10
512.362	1	22
512.702	1	11
513.043	1	29
513.383	1	18
513.724	1	12
514.064	1	21
514.404	1	24
514.745	1	13
515.085	1	22
515.425	1	22
515.766	1	21
516.106	1	21
516.447	1	23
516.787	1	19
517.127	1	29
517.468	1	30
517.808	1	17
518.148	1	24
518.489	1	20
518.829	1	20
519.169	1	-4
519.510	1	14
519.850	1	15
520.190	1	21
520.531	1	21
520.871	1	21
521.211	1	20
521.552	1	10
521.892	1	15
522.232	1	18
522.573	1	16
522.913	1	27
523.253	1	25
523.593	1	20
523.934	1	24
524.274	1	16
524.614	1	27
524.955	1	16
525.295	1	23
525.635	1	23
525.975	1	18
526.316	1	5
526.656	1	17
526.996	1	12
527.337	1	21
527.677	1	30
528.017	1	20
528.357	1	21
528.698	1	24
529.038	1	13
529.378	1	19
529.718	1	18
530.058	1	29
530.399	1	15
530.739	1	22
531.079	1	13
531.419	1	26
531.760	1	25
532.100	1	36
532.440	1	25
532.780	1	13
533.120	1	20
533.461	1	14
533.801	1	24
534.141	1	21
534.481	1	32
534.821	1	17
535.162	1	27
535.502	1	14
535.842	1	12
536.182	1	21
536.522	1	12
536.862	1	24
537.203	1	15
537.543	1	19
537.883	1	12
538.223	1	30
538.563	1	25
538.903	1	12
539.243	1	30
539.584	1	8
539.924	1	9
540.264	1	30
540.604	1	32
540.944	1	27
541.284	1	16
541.624	1	20
541.964	1	23
542.305	1	35
542.645	1	13
542.985	1	9
543.325	1	27
543.665	1	6
544.005	1	11
544.345	1	24
544.685	1	4
545.025	1	17
545.365	1	19
545.705	1	18
546.045	1	23
546.386	1	8
546.726	1	26
547.066	1	15
547.406	1	15
547.746	1	15
548.086	1	11
548.426	1	16
548.766	1	24
549.106	1	7
549.446	1	29
549.786	1	17
550.126	1	21
550.466	1	10
550.806	1	37
551.146	1	27
551.486	1	12
551.826	1	8
552.166	1	18
552.506	1	22
552.846	1	14
553.186	1	11
553.526	1	22
553.866	1	15
554.206	1	23
554.546	1	22
554.886	1	16
555.226	1	18
555.566	1	19
555.906	1	13
556.246	1	9
556.586	1	15
556.926	1	22
557.266	1	18
557.606	1	14
557.946	1	15
558.286	1	-2
558.626	1	19
558.966	1	11
559.306	1	18
559.646	1	18
559.986	1	15
560.325	1	15
560.665	1	15
561.005	1	16
561.345	1	9
561.685	1	16
562.025	1	15
562.365	1	11
562.705	1	21
563.045	1	13
563.385	1	24
563.725	1	7
564.064	1	13
564.404	1	3
564.744	1	23
565.084	1	13
565.424	1	2
565.764	1	10
566.104	1	22
566.444	1	18
566.783	1	25
567.123	1	4
567.463	1	12
567.803	1	25
568.143	1	7
568.483	1	20
568.823	1	4
569.162	1	14
569.502	1	11
569.842	1	11
570.182	1	2
570.522	1	2
570.862	1	3
571.201	1	15
571.541	1	12
571.881	1	-2
572.221	1	4
572.561	1	19
572.900	1	20
573.240	1	11
573.580	1	9
573.920	1	18
574.260	1	12
574.599	1	16
574.939	1	6
575.279	1	8
575.619	1	6
575.959	1	9
576.298	1	8
576.638	1	19
576.978	1	20
577.318	1	11
577.657	1	3
577.997	1	18
578.337	1	7
578.677	1	9
579.016	1	8
579.356	1	13
579.696	1	13
580.036	1	21
580.375	1	12
580.715	1	9
581.055	1	8
581.394	1	1
581.734	1	11
582.074	1	10
582.414	1	6
582.753	1	6
583.093	1	9
583.433	1	13
583.772	1	12
584.112	1	7
584.452	1	15
584.791	1	10
585.131	1	14
585.471	1	13
585.811	1	15
586.150	1	10
586.490	1	7
586.830	1	13
587.169	1	7
587.509	1	3
587.849	1	23
588.188	1	17
588.528	1	4
588.867	1	5
589.207	1	9
589.547	1	17
589.886	1	6
590.226	1	9
590.566	1	4
590.905	1	14
591.245	1	1
591.585	1	6
591.924	1	1
592.264	1	3
592.603	1	-4
592.943	1	14
593.283	1	11
593.622	1	10
593.962	1	17
594.301	1	-6
594.641	1	8
594.981	1	1
595.320	1	15
595.660	1	7
595.999	1	12
596.339	1	11
596.678	1	-5
597.018	1	0
597.358	1	1
597.697	1	0
598.037	1	8
598.376	1	-4
598.716	1	3
599.055	1	12
599.395	1	0
599.734	1	1
600.074	1	5
600.413	1	6
600.753	1	13
601.092	1	5
601.432	1	5
601.771	1	8
602.111	1	0
602.451	1	1
602.790	1	3
603.130	1	9
603.469	1	11
603.809	1	10
604.148	1	1
604.487	1	9
604.827	1	16
605.166	1	3
605.506	1	0
605.845	1	12
606.185	1	3
606.524	1	-8
606.864	1	19
607.203	1	12
607.543	1	13
607.882	1	15
608.222	1	10
608.561	1	4
608.901	1	0
609.240	1	15
609.579	1	-1
609.919	1	-5
610.258	1	19
610.598	1	1
610.937	1	4
611.277	1	6
611.616	1	24
611.955	1	-5
612.295	1	11
612.634	1	8
612.974	1	-4
613.313	1	17
613.652	1	9
613.992	1	3
614.331	1	23
614.671	1	3
615.010	1	6
615.349	1	10
615.689	1	2
616.028	1	24
616.368	1	27
616.707	1	5
617.046	1	6
617.386	1	10
617.725	1	7
618.064	1	-5
618.404	1	-3
618.743	1	7
619.082	1	17
619.422	1	17
619.761	1	5
620.100	1	11
620.440	1	7
620.779	1	16
621.118	1	8
621.458	1	14
621.797	1	9
622.136	1	2
622.476	1	13
622.815	1	2
623.154	1	-7
623.494	1	-6
623.833	1	-7
624.172	1	8
624.511	1	1
624.851	1	12
625.190	1	3
625.529	1	-1
625.869	1	11
626.208	1	10
626.547	1	-2
626.886	1	3
627.226	1	11
627.565	1	17
627.904	1	0
628.243	1	18
628.583	1	8
628.922	1	9
629.261	1	10
629.600	1	0
629.940	1	10
630.279	1	13
630.618	1	10
630.957	1	6
631.297	1	8
631.636	1	4
631.975	1	8
632.314	1	8
632.653	1	3
632.993	1	4
633.332	1	4
633.671	1	13
634.010	1	2
634.349	1	5
634.689	1	6
635.028	1	0
635.367	1	21
635.706	1	8
636.045	1	1
636.384	1	7
636.724	1	-2
637.063	1	2
637.402	1	3
637.741	1	9
638.080	1	8
638.419	1	-9
638.759	1	7
639.098	1	9
639.437	1	-2
639.776	1	4
640.115	1	-2
640.454	1	1
640.793	1	3
641.132	1	-2
641.472	1	15
641.811	1	8
642.150	1	2
642.489	1	2
642.828	1	16
643.167	1	3
643.506	1	12
643.845	1	9
644.184	1	-3
644.524	1	-5
644.863	1	-3
645.202	1	8
645.541	1	5
645.880	1	17
646.219	1	1
646.558	1	-7
646.897	1	-7
647.236	1	-5
647.575	1	13
647.914	1	1
648.253	1	11
648.592	1	8
648.931	1	6
649.270	1	15
649.610	1	14
649.949	1	1
650.288	1	4
650.627	1	9
650.966	1	7
651.305	1	6
651.644	1	12
651.983	1	0
652.322	1	2
652.661	1	6
653.000	1	0
653.339	1	0
653.678	1	11
654.017	1	11
654.356	1	5
654.695	1	5
655.034	1	-2
655.373	1	4
655.712	1	11
656.051	1	2
656.390	1	10
656.729	1	8
657.068	1	6
657.406	1	1
657.745	1	14
658.084	1	10
658.423	1	4
658.762	1	-6
659.101	1	9
659.440	1	3
659.779	1	17
660.118	1	5
660.457	1	2
660.796	1	2
661.135	1	10
661.474	1	9
661.813	1	-4
662.152	1	3
662.491	1	-7
662.829	1	12
663.168	1	4
663.507	1	7
663.846	1	2
664.185	1	-5
664.524	1	8
664.863	1	-3
665.202	1	5
665.541	1	2
665.879	1	10
666.218	1	6
666.557	1	5
666.896	1	9
667.235	1	1
667.574	1	-5
667.913	1	2
668.251	1	6
668.590	1	1
668.929	1	3
669.268	1	-1
669.607	1	-3
669.946	1	9
670.285	1	0
670.623	1	0
670.962	1	-7
671.301	1	3
671.640	1	12
671.979	1	-7
672.317	1	12
672.656	1	15
672.995	1	6
673.334	1	-4
673.673	1	12
674.011	1	8
674.350	1	7
674.689	1	1
675.028	1	10
675.367	1	6
675.705	1	5
676.044	1	4
676.383	1	1
676.722	1	0
677.060	1	7
677.399	1	14
677.738	1	5
678.077	1	-5
678.416	1	6
678.754	1	6
679.093	1	12
679.432	1	-1
679.771	1	3
680.109	1	3
680.448	1	3
680.787	1	-2
681.125	1	0
681.464	1	0
681.803	1	4
682.142	1	8
682.480	1	6
682.819	1	3
683.158	1	5
683.496	1	-2
683.835	1	5
684.174	1	5
684.512	1	9
684.851	1	4
685.190	1	-1
685.529	1	-1
685.867	1	4
686.206	1	-4
686.545	1	0
686.883	1	16
687.222	1	-3
687.561	1	4
687.899	1	10
688.238	1	9
688.577	1	2
688.746	1	-4