File: Data/GaN_150K_450ms/GaN_sample D_spot15_UVVIS_150 K_200um_450 ms 2x2mm1_66.txt
340.368	1	2
340.710	1	1
341.052	1	4
341.394	1	-1
341.737	1	11
342.079	1	2
342.421	1	0
342.763	1	0
343.105	1	4
343.447	1	7
343.789	1	5
344.131	1	-1
344.473	1	5
344.815	1	10
345.157	1	14
345.499	1	8
345.841	1	6
346.183	1	0
346.526	1	11
346.868	1	8
347.210	1	-4
347.552	1	19
347.894	1	-2
348.236	1	9
348.578	1	14
348.920	1	12
349.262	1	14
349.604	1	3
349.946	1	4
350.288	1	-2
350.630	1	1
350.972	1	14
351.314	1	4
351.656	1	15
351.998	1	10
352.340	1	15
352.682	1	0
353.024	1	26
353.366	1	11
353.708	1	6
354.050	1	9
354.392	1	11
354.734	1	17
355.076	1	24
355.418	1	4
355.760	1	26
356.102	1	18
356.444	1	26
356.785	1	20
357.127	1	32
357.469	1	8
357.811	1	28
358.153	1	18
358.495	1	37
358.837	1	49
359.179	1	33
359.521	1	44
359.863	1	32
360.205	1	56
360.547	1	56
360.889	1	46
361.231	1	54
361.572	1	68
361.914	1	77
362.256	1	87
362.598	1	92
362.940	1	91
363.282	1	102
363.624	1	109
363.966	1	122
364.308	1	153
364.649	1	154
364.991	1	177
365.333	1	208
365.675	1	223
366.017	1	251
366.359	1	247
366.701	1	278
367.042	1	283
367.384	1	297
367.726	1	318
368.068	1	336
368.410	1	318
368.752	1	336
369.093	1	320
369.435	1	307
369.777	1	310
370.119	1	273
370.461	1	245
370.803	1	251
371.144	1	230
371.486	1	212
371.828	1	203
372.170	1	195
372.512	1	173
372.853	1	168
373.195	1	152
373.537	1	137
373.879	1	134
374.220	1	147
374.562	1	132
374.904	1	114
375.246	1	114
375.588	1	108
375.929	1	107
376.271	1	84
376.613	1	106
376.955	1	100
377.296	1	82
377.638	1	77
377.980	1	66
378.321	1	69
378.663	1	71
379.005	1	55
379.347	1	66
379.688	1	75
380.030	1	65
380.372	1	61
380.714	1	61
381.055	1	53
381.397	1	45
381.739	1	46
382.080	1	45
382.422	1	51
382.764	1	47
383.105	1	43
383.447	1	37
383.789	1	31
384.130	1	49
384.472	1	38
384.814	1	42
385.156	1	49
385.497	1	47
385.839	1	37
386.180	1	43
386.522	1	50
386.864	1	37
387.205	1	40
387.547	1	51
387.889	1	38
388.230	1	36
388.572	1	27
388.914	1	43
389.255	1	34
389.597	1	37
389.939	1	39
390.280	1	25
390.622	1	19
390.963	1	23
391.305	1	25
391.647	1	15
391.988	1	33
392.330	1	22
392.671	1	33
393.013	1	28
393.355	1	23
393.696	1	24
394.038	1	22
394.379	1	27
394.721	1	25
395.062	1	10
395.404	1	23
395.746	1	16
396.087	1	33
396.429	1	26
396.770	1	27
397.112	1	17
397.453	1	27
397.795	1	20
398.136	1	35
398.478	1	19
398.819	1	24
399.161	1	32
399.503	1	39
399.844	1	12
400.186	1	29
400.527	1	15
400.869	1	22
401.210	1	21
401.552	1	18
401.893	1	25
402.235	1	25
402.576	1	15
402.918	1	18
403.259	1	20
403.601	1	10
403.942	1	16
404.284	1	31
404.625	1	11
404.967	1	25
405.308	1	9
405.649	1	15
405.991	1	27
406.332	1	19
406.674	1	22
407.015	1	20
407.357	1	24
407.698	1	16
408.040	1	22
408.381	1	-1
408.722	1	16
409.064	1	18
409.405	1	15
409.747	1	14
410.088	1	17
410.430	1	20
410.771	1	25
411.112	1	20
411.454	1	21
411.795	1	16
412.137	1	17
412.478	1	20
412.819	1	23
413.161	1	24
413.502	1	15
413.844	1	26
414.185	1	20
414.526	1	10
414.868	1	9
415.209	1	11
415.550	1	20
415.892	1	24
416.233	1	20
416.575	1	7
416.916	1	17
417.257	1	19
417.599	1	17
417.940	1	13
418.281	1	28
418.623	1	18
418.964	1	31
419.305	1	16
419.647	1	20
419.988	1	29
420.329	1	25
420.671	1	21
421.012	1	13
421.353	1	17
421.695	1	20
422.036	1	25
422.377	1	17
422.718	1	22
423.060	1	29
423.401	1	8
423.742	1	35
424.084	1	9
424.425	1	18
424.766	1	9
425.107	1	15
425.449	1	14
425.790	1	14
426.131	1	12
426.472	1	24
426.814	1	15
427.155	1	15
427.496	1	16
427.837	1	14
428.179	1	24
428.520	1	13
428.861	1	29
429.202	1	7
429.544	1	9
429.885	1	23
430.226	1	-3
430.567	1	10
430.909	1	6
431.250	1	15
431.591	1	20
431.932	1	11
432.273	1	14
432.615	1	12
432.956	1	11
433.297	1	13
433.638	1	22
433.979	1	23
434.320	1	10
434.662	1	15
435.003	1	29
435.344	1	8
435.685	1	17
436.026	1	2
436.368	1	13
436.709	1	8
437.050	1	11
437.391	1	21
437.732	1	15
438.073	1	7
438.414	1	20
438.756	1	10
439.097	1	15
439.438	1	17
439.779	1	16
440.120	1	3
440.461	1	15
440.802	1	13
441.143	1	18
441.485	1	11
441.826	1	22
442.167	1	14
442.508	1	6
442.849	1	20
443.190	1	19
443.531	1	21
443.872	1	3
444.213	1	6
444.554	1	17
444.895	1	7
445.237	1	13
445.578	1	15
445.919	1	8
446.260	1	21
446.601	1	21
446.942	1	7
447.283	1	24
447.624	1	2
447.965	1	13
448.306	1	24
448.647	1	12
448.988	1	19
449.329	1	19
449.670	1	6
450.011	1	11
450.352	1	13
450.693	1	16
451.034	1	9
451.375	1	6
451.716	1	16
452.057	1	13
452.398	1	22
452.739	1	13
453.080	1	14
453.421	1	22
453.762	1	21
454.103	1	10
454.444	1	7
454.785	1	12
455.126	1	11
455.467	1	13
455.808	1	14
456.149	1	13
456.490	1	2
456.831	1	5
457.172	1	17
457.513	1	7
457.854	1	14
458.195	1	12
458.536	1	20
458.877	1	6
459.218	1	15
459.559	1	14
459.899	1	-1
460.240	1	8
460.581	1	4
460.922	1	17
461.263	1	19
461.604	1	15
461.945	1	18
462.286	1	11
462.627	1	8
462.968	1	25
463.309	1	12
463.649	1	9
463.990	1	13
464.331	1	20
464.672	1	15
465.013	1	10
465.354	1	23
465.695	1	13
466.036	1	19
466.376	1	22
466.717	1	2
467.058	1	4
467.399	1	7
467.740	1	20
468.081	1	12
468.422	1	15
468.762	1	13
469.103	1	15
469.444	1	12
469.785	1	7
470.126	1	18
470.467	1	7
470.807	1	14
471.148	1	0
471.489	1	15
471.830	1	17
472.171	1	19
472.511	1	13
472.852	1	9
473.193	1	11
473.534	1	10
473.875	1	9
474.215	1	8
474.556	1	3
474.897	1	18
475.238	1	16
475.578	1	12
475.919	1	6
476.260	1	6
476.601	1	20
476.942	1	14
477.282	1	8
477.623	1	14
477.964	1	21
478.305	1	17
478.645	1	20
478.986	1	15
479.327	1	20
479.667	1	10
480.008	1	14
480.349	1	5
480.690	1	21
481.030	1	10
481.371	1	5
481.712	1	19
482.053	1	20
482.393	1	10
482.734	1	18
483.075	1	18
483.415	1	15
483.756	1	20
484.097	1	23
484.437	1	20
484.778	1	14
485.119	1	17
485.459	1	19
485.800	1	10
486.141	1	26
486.481	1	10
486.822	1	22
487.163	1	14
487.503	1	10
487.844	1	13
488.185	1	28
488.525	1	22
488.866	1	21
489.207	1	31
489.547	1	34
489.888	1	29
490.228	1	20
490.569	1	23
490.910	1	35
491.250	1	33
491.591	1	26
491.932	1	28
492.272	1	22
492.613	1	23
492.953	1	25
493.294	1	18
493.635	1	29
493.975	1	38
494.316	1	35
494.656	1	42
494.997	1	19
495.337	1	33
495.678	1	34
496.019	1	20
496.359	1	29
496.700	1	34
497.040	1	20
497.381	1	41
497.721	1	25
498.062	1	30
498.403	1	43
498.743	1	34
499.084	1	45
499.424	1	37
499.765	1	39
500.105	1	53
500.446	1	42
500.786	1	33
501.127	1	46
501.467	1	51
501.808	1	44
502.148	1	37
502.489	1	34
502.829	1	38
503.170	1	48
503.510	1	41
503.851	1	56
504.191	1	48
504.532	1	65
504.872	1	54
505.213	1	43
505.553	1	57
505.894	1	50
506.234	1	50
506.575	1	67
506.915	1	60
507.256	1	55
507.596	1	61
507.936	1	57
508.277	1	59
508.617	1	51
508.958	1	59
509.298	1	58
509.639	1	47
509.979	1	54
510.319	1	54
510.660	1	57
511.000	1	56
511.341	1	64
511.681	1	75
512.022	1	51
512.362	1	61
512.702	1	53
513.043	1	63
513.383	1	72
513.724	1	61
514.064	1	73
514.404	1	74
514.745	1	55
515.085	1	70
515.425	1	61
515.766	1	59
516.106	1	60
516.447	1	78
516.787	1	72
517.127	1	76
517.468	1	72
517.808	1	63
518.148	1	73
518.489	1	67
518.829	1	71
519.169	1	69
519.510	1	63
519.850	1	68
520.190	1	60
520.531	1	74
520.871	1	70
521.211	1	77
521.552	1	73
521.892	1	79
522.232	1	79
522.573	1	71
522.913	1	75
523.253	1	79
523.593	1	75
523.934	1	75
524.274	1	74
524.614	1	80
524.955	1	83
525.295	1	78
525.635	1	77
525.975	1	73
526.316	1	65
526.656	1	70
526.996	1	68
527.337	1	78
527.677	1	83
528.017	1	71
528.357	1	79
528.698	1	82
529.038	1	82
529.378	1	76
529.718	1	79
530.058	1	86
530.399	1	82
530.739	1	84
531.079	1	76
531.419	1	86
531.760	1	73
532.100	1	79
532.440	1	77
532.780	1	80
533.120	1	70
533.461	1	73
533.801	1	72
534.141	1	75
534.481	1	84
534.821	1	65
535.162	1	81
535.502	1	75
535.842	1	65
536.182	1	65
536.522	1	62
536.862	1	61
537.203	1	77
537.543	1	67
537.883	1	64
538.223	1	80
538.563	1	65
538.903	1	58
539.243	1	77
539.584	1	65
539.924	1	61
540.264	1	80
540.604	1	75
540.944	1	72
541.284	1	57
541.624	1	60
541.964	1	64
542.305	1	77
542.645	1	61
542.985	1	65
543.325	1	77
543.665	1	58
544.005	1	67
544.345	1	70
544.685	1	66
545.025	1	73
545.365	1	68
545.705	1	74
546.045	1	67
546.386	1	58
546.726	1	67
547.066	1	63
547.406	1	63
547.746	1	62
548.086	1	65
548.426	1	57
548.766	1	76
549.106	1	60
549.446	1	62
549.786	1	73
550.126	1	64
550.466	1	66
550.806	1	79
551.146	1	65
551.486	1	62
551.826	1	54
552.166	1	55
552.506	1	63
552.846	1	70
553.186	1	53
553.526	1	67
553.866	1	51
554.206	1	70
554.546	1	69
554.886	1	55
555.226	1	60
555.566	1	59
555.906	1	60
556.246	1	51
556.586	1	50
556.926	1	43
557.266	1	56
557.606	1	39
557.946	1	45
558.286	1	43
558.626	1	57
558.966	1	42
559.306	1	48
559.646	1	51
559.986	1	48
560.325	1	48
560.665	1	50
561.005	1	52
561.345	1	42
561.685	1	49
562.025	1	58
562.365	1	42
562.705	1	59
563.045	1	50
563.385	1	47
563.725	1	42
564.064	1	42
564.404	1	42
564.744	1	48
565.084	1	56
565.424	1	46
565.764	1	42
566.104	1	55
566.444	1	55
566.783	1	43
567.123	1	37
567.463	1	40
567.803	1	49
568.143	1	41
568.483	1	50
568.823	1	46
569.162	1	36
569.502	1	50
569.842	1	43
570.182	1	36
570.522	1	29
570.862	1	30
571.201	1	46
571.541	1	35
571.881	1	29
572.221	1	37
572.561	1	38
572.900	1	44
573.240	1	28
573.580	1	35
573.920	1	50
574.260	1	41
574.599	1	33
574.939	1	33
575.279	1	32
575.619	1	29
575.959	1	38
576.298	1	28
576.638	1	45
576.978	1	40
577.318	1	34
577.657	1	28
577.997	1	37
578.337	1	30
578.677	1	37
579.016	1	30
579.356	1	43
579.696	1	43
580.036	1	34
580.375	1	29
580.715	1	29
581.055	1	33
581.394	1	36
581.734	1	31
582.074	1	32
582.414	1	29
582.753	1	36
583.093	1	35
583.433	1	44
583.772	1	28
584.112	1	35
584.452	1	29
584.791	1	33
585.131	1	28
585.471	1	24
585.811	1	14
586.150	1	37
586.490	1	38
586.830	1	24
587.169	1	26
587.509	1	35
587.849	1	26
588.188	1	25
588.528	1	9
588.867	1	28
589.207	1	24
589.547	1	31
589.886	1	38
590.226	1	19
590.566	1	16
590.905	1	23
591.245	1	26
591.585	1	20
591.924	1	18
592.264	1	29
592.603	1	11
592.943	1	21
593.283	1	18
593.622	1	28
593.962	1	25
594.301	1	23
594.641	1	26
594.981	1	16
595.320	1	23
595.660	1	27
595.999	1	21
596.339	1	17
596.678	1	13
597.018	1	19
597.358	1	22
597.697	1	13
598.037	1	18
598.376	1	9
598.716	1	29
599.055	1	20
599.395	1	11
599.734	1	22
600.074	1	18
600.413	1	16
600.753	1	27
601.092	1	17
601.432	1	3
601.771	1	19
602.111	1	13
602.451	1	15
602.790	1	24
603.130	1	15
603.469	1	17
603.809	1	24
604.148	1	9
604.487	1	13
604.827	1	18
605.166	1	18
605.506	1	13
605.845	1	27
606.185	1	14
606.524	1	13
606.864	1	26
607.203	1	26
607.543	1	29
607.882	1	25
608.222	1	14
608.561	1	19
608.901	1	15
609.240	1	19
609.579	1	10
609.919	1	6
610.258	1	24
610.598	1	6
610.937	1	25
611.277	1	25
611.616	1	19
611.955	1	11
612.295	1	19
612.634	1	19
612.974	1	8
613.313	1	17
613.652	1	20
613.992	1	16
614.331	1	26
614.671	1	13
615.010	1	23
615.349	1	19
615.689	1	15
616.028	1	25
616.368	1	21
616.707	1	18
617.046	1	12
617.386	1	17
617.725	1	14
618.064	1	20
618.404	1	22
618.743	1	18
619.082	1	15
619.422	1	22
619.761	1	9
620.100	1	11
620.440	1	14
620.779	1	6
621.118	1	24
621.458	1	25
621.797	1	9
622.136	1	4
622.476	1	7
622.815	1	14
623.154	1	13
623.494	1	3
623.833	1	25
624.172	1	6
624.511	1	3
624.851	1	12
625.190	1	18
625.529	1	-4
625.869	1	24
626.208	1	10
626.547	1	12
626.886	1	11
627.226	1	16
627.565	1	22
627.904	1	12
628.243	1	21
628.583	1	23
628.922	1	16
629.261	1	12
629.600	1	2
629.940	1	14
630.279	1	19
630.618	1	23
630.957	1	13
631.297	1	16
631.636	1	16
631.975	1	7
632.314	1	13
632.653	1	2
632.993	1	9
633.332	1	14
633.671	1	21
634.010	1	11
634.349	1	26
634.689	1	5
635.028	1	8
635.367	1	15
635.706	1	18
636.045	1	0
636.384	1	17
636.724	1	9
637.063	1	3
637.402	1	21
637.741	1	10
638.080	1	8
638.419	1	6
638.759	1	10
639.098	1	9
639.437	1	9
639.776	1	21
640.115	1	7
640.454	1	15
640.793	1	8
641.132	1	15
641.472	1	29
641.811	1	12
642.150	1	3
642.489	1	19
642.828	1	22
643.167	1	12
643.506	1	14
643.845	1	14
644.184	1	18
644.524	1	5
644.863	1	9
645.202	1	9
645.541	1	14
645.880	1	9
646.219	1	14
646.558	1	2
646.897	1	-2
647.236	1	7
647.575	1	19
647.914	1	10
648.253	1	16
648.592	1	15
648.931	1	18
649.270	1	26
649.610	1	11
649.949	1	8
650.288	1	12
650.627	1	14
650.966	1	18
651.305	1	6
651.644	1	8
651.983	1	8
652.322	1	9
652.661	1	12
653.000	1	10
653.339	1	5
653.678	1	16
654.017	1	9
654.356	1	11
654.695	1	27
655.034	1	7
655.373	1	16
655.712	1	21
656.051	1	5
656.390	1	10
656.729	1	18
657.068	1	7
657.406	1	8
657.745	1	19
658.084	1	6
658.423	1	16
658.762	1	4
659.101	1	5
659.440	1	11
659.779	1	15
660.118	1	8
660.457	1	11
660.796	1	15
661.135	1	24
661.474	1	17
661.813	1	12
662.152	1	15
662.491	1	-2
662.829	1	7
663.168	1	9
663.507	1	13
663.846	1	7
664.185	1	8
664.524	1	20
664.863	1	10
665.202	1	15
665.541	1	9
665.879	1	12
666.218	1	14
666.557	1	8
666.896	1	1
667.235	1	4
667.574	1	4
667.913	1	7
668.251	1	0
668.590	1	7
668.929	1	9
669.268	1	6
669.607	1	-6
669.946	1	10
670.285	1	-3
670.623	1	5
670.962	1	4
671.301	1	3
671.640	1	15
671.979	1	9
672.317	1	11
672.656	1	23
672.995	1	1
673.334	1	4
673.673	1	13
674.011	1	9
674.350	1	4
674.689	1	1
675.028	1	19
675.367	1	15
675.705	1	6
676.044	1	7
676.383	1	3
676.722	1	11
677.060	1	13
677.399	1	15
677.738	1	1
678.077	1	11
678.416	1	8
678.754	1	8
679.093	1	14
679.432	1	0
679.771	1	11
680.109	1	16
680.448	1	8
680.787	1	-2
681.125	1	10
681.464	1	12
681.803	1	10
682.142	1	4
682.480	1	3
682.819	1	10
683.158	1	1
683.496	1	5
683.835	1	9
684.174	1	9
684.512	1	14
684.851	1	6
685.190	1	4
685.529	1	9
685.867	1	15
686.206	1	-1
686.545	1	9
686.883	1	14
687.222	1	11
687.561	1	9
687.899	1	19
688.238	1	24
688.577	1	9
688.746	1	18