File: Data/GaN_150K_450ms/GaN_sample D_spot15_UVVIS_150 K_200um_450 ms 2x2mm1_339.txt
340.368	1	4
340.710	1	2
341.052	1	-2
341.394	1	-3
341.737	1	10
342.079	1	2
342.421	1	-2
342.763	1	-3
343.105	1	-4
343.447	1	5
343.789	1	10
344.131	1	-8
344.473	1	6
344.815	1	-4
345.157	1	20
345.499	1	-11
345.841	1	-1
346.183	1	3
346.526	1	3
346.868	1	-2
347.210	1	8
347.552	1	5
347.894	1	-7
348.236	1	-2
348.578	1	5
348.920	1	-1
349.262	1	7
349.604	1	2
349.946	1	0
350.288	1	-9
350.630	1	-9
350.972	1	2
351.314	1	-3
351.656	1	8
351.998	1	0
352.340	1	7
352.682	1	-11
353.024	1	13
353.366	1	0
353.708	1	8
354.050	1	-14
354.392	1	-7
354.734	1	-3
355.076	1	8
355.418	1	0
355.760	1	3
356.102	1	2
356.444	1	8
356.785	1	2
357.127	1	11
357.469	1	-7
357.811	1	0
358.153	1	-11
358.495	1	1
358.837	1	6
359.179	1	-6
359.521	1	5
359.863	1	-1
360.205	1	5
360.547	1	6
360.889	1	0
361.231	1	1
361.572	1	4
361.914	1	7
362.256	1	12
362.598	1	10
362.940	1	-1
363.282	1	0
363.624	1	11
363.966	1	-2
364.308	1	2
364.649	1	-2
364.991	1	3
365.333	1	4
365.675	1	13
366.017	1	12
366.359	1	-2
366.701	1	-3
367.042	1	6
367.384	1	-6
367.726	1	8
368.068	1	11
368.410	1	9
368.752	1	18
369.093	1	17
369.435	1	18
369.777	1	14
370.119	1	10
370.461	1	3
370.803	1	3
371.144	1	6
371.486	1	7
371.828	1	2
372.170	1	2
372.512	1	6
372.853	1	10
373.195	1	2
373.537	1	-1
373.879	1	11
374.220	1	15
374.562	1	12
374.904	1	4
375.246	1	0
375.588	1	5
375.929	1	4
376.271	1	3
376.613	1	6
376.955	1	5
377.296	1	3
377.638	1	9
377.980	1	-1
378.321	1	5
378.663	1	5
379.005	1	4
379.347	1	0
379.688	1	14
380.030	1	2
380.372	1	11
380.714	1	5
381.055	1	4
381.397	1	-2
381.739	1	1
382.080	1	-3
382.422	1	8
382.764	1	-1
383.105	1	3
383.447	1	5
383.789	1	-4
384.130	1	-7
384.472	1	2
384.814	1	0
385.156	1	9
385.497	1	18
385.839	1	0
386.180	1	6
386.522	1	4
386.864	1	-7
387.205	1	2
387.547	1	6
387.889	1	-3
388.230	1	5
388.572	1	-10
388.914	1	0
389.255	1	-3
389.597	1	1
389.939	1	8
390.280	1	-1
390.622	1	-6
390.963	1	-4
391.305	1	-4
391.647	1	5
391.988	1	1
392.330	1	2
392.671	1	-1
393.013	1	11
393.355	1	9
393.696	1	-3
394.038	1	1
394.379	1	3
394.721	1	1
395.062	1	-13
395.404	1	1
395.746	1	-1
396.087	1	-3
396.429	1	3
396.770	1	1
397.112	1	4
397.453	1	0
397.795	1	-1
398.136	1	4
398.478	1	6
398.819	1	1
399.161	1	6
399.503	1	10
399.844	1	-2
400.186	1	-2
400.527	1	9
400.869	1	-2
401.210	1	-3
401.552	1	0
401.893	1	-1
402.235	1	5
402.576	1	6
402.918	1	-7
403.259	1	-4
403.601	1	-1
403.942	1	-3
404.284	1	8
404.625	1	5
404.967	1	-2
405.308	1	-5
405.649	1	4
405.991	1	2
406.332	1	6
406.674	1	-9
407.015	1	7
407.357	1	4
407.698	1	7
408.040	1	13
408.381	1	-4
408.722	1	2
409.064	1	4
409.405	1	3
409.747	1	1
410.088	1	7
410.430	1	7
410.771	1	3
411.112	1	11
411.454	1	6
411.795	1	5
412.137	1	-6
412.478	1	4
412.819	1	8
413.161	1	-7
413.502	1	3
413.844	1	7
414.185	1	1
414.526	1	-2
414.868	1	-3
415.209	1	-3
415.550	1	-7
415.892	1	0
416.233	1	9
416.575	1	-5
416.916	1	3
417.257	1	2
417.599	1	6
417.940	1	1
418.281	1	2
418.623	1	6
418.964	1	10
419.305	1	9
419.647	1	2
419.988	1	18
420.329	1	0
420.671	1	4
421.012	1	2
421.353	1	4
421.695	1	6
422.036	1	1
422.377	1	4
422.718	1	-5
423.060	1	6
423.401	1	-10
423.742	1	5
424.084	1	-1
424.425	1	7
424.766	1	3
425.107	1	-4
425.449	1	2
425.790	1	2
426.131	1	1
426.472	1	8
426.814	1	2
427.155	1	4
427.496	1	4
427.837	1	-3
428.179	1	18
428.520	1	4
428.861	1	12
429.202	1	-9
429.544	1	1
429.885	1	7
430.226	1	-11
430.567	1	-13
430.909	1	-9
431.250	1	-4
431.591	1	0
431.932	1	0
432.273	1	8
432.615	1	-1
432.956	1	2
433.297	1	5
433.638	1	4
433.979	1	7
434.320	1	1
434.662	1	13
435.003	1	4
435.344	1	-5
435.685	1	-7
436.026	1	-8
436.368	1	-9
436.709	1	2
437.050	1	1
437.391	1	-2
437.732	1	-1
438.073	1	2
438.414	1	8
438.756	1	1
439.097	1	12
439.438	1	-1
439.779	1	0
440.120	1	1
440.461	1	-1
440.802	1	-1
441.143	1	1
441.485	1	-10
441.826	1	3
442.167	1	2
442.508	1	4
442.849	1	1
443.190	1	4
443.531	1	0
443.872	1	-7
444.213	1	-5
444.554	1	5
444.895	1	2
445.237	1	-1
445.578	1	-9
445.919	1	4
446.260	1	14
446.601	1	-2
446.942	1	-1
447.283	1	7
447.624	1	-9
447.965	1	3
448.306	1	-3
448.647	1	11
448.988	1	4
449.329	1	5
449.670	1	4
450.011	1	4
450.352	1	-1
450.693	1	4
451.034	1	3
451.375	1	9
451.716	1	-3
452.057	1	-4
452.398	1	3
452.739	1	6
453.080	1	9
453.421	1	5
453.762	1	6
454.103	1	-7
454.444	1	2
454.785	1	5
455.126	1	3
455.467	1	5
455.808	1	3
456.149	1	-1
456.490	1	-4
456.831	1	2
457.172	1	-3
457.513	1	-10
457.854	1	1
458.195	1	2
458.536	1	6
458.877	1	17
459.218	1	9
459.559	1	9
459.899	1	-7
460.240	1	-1
460.581	1	1
460.922	1	1
461.263	1	2
461.604	1	-4
461.945	1	6
462.286	1	-4
462.627	1	11
462.968	1	7
463.309	1	2
463.649	1	-5
463.990	1	-4
464.331	1	7
464.672	1	6
465.013	1	-2
465.354	1	5
465.695	1	-2
466.036	1	9
466.376	1	11
466.717	1	-8
467.058	1	0
467.399	1	-10
467.740	1	12
468.081	1	-1
468.422	1	3
468.762	1	9
469.103	1	0
469.444	1	-1
469.785	1	-2
470.126	1	3
470.467	1	0
470.807	1	5
471.148	1	-12
471.489	1	1
471.830	1	4
472.171	1	6
472.511	1	4
472.852	1	4
473.193	1	4
473.534	1	-6
473.875	1	5
474.215	1	-7
474.556	1	-5
474.897	1	3
475.238	1	5
475.578	1	-5
475.919	1	-1
476.260	1	-8
476.601	1	0
476.942	1	0
477.282	1	-6
477.623	1	-2
477.964	1	7
478.305	1	4
478.645	1	1
478.986	1	8
479.327	1	3
479.667	1	-7
480.008	1	4
480.349	1	-7
480.690	1	3
481.030	1	-4
481.371	1	-7
481.712	1	18
482.053	1	5
482.393	1	5
482.734	1	1
483.075	1	-1
483.415	1	9
483.756	1	5
484.097	1	5
484.437	1	5
484.778	1	-5
485.119	1	0
485.459	1	-2
485.800	1	-6
486.141	1	2
486.481	1	-1
486.822	1	-2
487.163	1	-6
487.503	1	-4
487.844	1	-8
488.185	1	8
488.525	1	-3
488.866	1	-4
489.207	1	-1
489.547	1	2
489.888	1	2
490.228	1	2
490.569	1	-7
490.910	1	-3
491.250	1	2
491.591	1	9
491.932	1	7
492.272	1	-11
492.613	1	-11
492.953	1	8
493.294	1	-8
493.635	1	-6
493.975	1	11
494.316	1	4
494.656	1	10
494.997	1	-8
495.337	1	-5
495.678	1	-3
496.019	1	3
496.359	1	0
496.700	1	8
497.040	1	-5
497.381	1	2
497.721	1	-4
498.062	1	0
498.403	1	16
498.743	1	3
499.084	1	4
499.424	1	-4
499.765	1	-2
500.105	1	8
500.446	1	-14
500.786	1	-8
501.127	1	13
501.467	1	4
501.808	1	-4
502.148	1	-6
502.489	1	-11
502.829	1	-3
503.170	1	8
503.510	1	0
503.851	1	1
504.191	1	-5
504.532	1	8
504.872	1	-5
505.213	1	0
505.553	1	10
505.894	1	2
506.234	1	8
506.575	1	9
506.915	1	3
507.256	1	5
507.596	1	15
507.936	1	11
508.277	1	8
508.617	1	4
508.958	1	3
509.298	1	7
509.639	1	2
509.979	1	3
510.319	1	-1
510.660	1	-9
511.000	1	2
511.341	1	9
511.681	1	8
512.022	1	-9
512.362	1	5
512.702	1	-3
513.043	1	-2
513.383	1	1
513.724	1	-1
514.064	1	2
514.404	1	4
514.745	1	3
515.085	1	7
515.425	1	6
515.766	1	1
516.106	1	3
516.447	1	9
516.787	1	1
517.127	1	4
517.468	1	9
517.808	1	-2
518.148	1	8
518.489	1	-2
518.829	1	9
519.169	1	-6
519.510	1	-13
519.850	1	-7
520.190	1	-1
520.531	1	2
520.871	1	3
521.211	1	11
521.552	1	-3
521.892	1	-3
522.232	1	8
522.573	1	3
522.913	1	5
523.253	1	9
523.593	1	0
523.934	1	7
524.274	1	4
524.614	1	7
524.955	1	-7
525.295	1	7
525.635	1	3
525.975	1	-8
526.316	1	-12
526.656	1	5
526.996	1	-1
527.337	1	3
527.677	1	12
528.017	1	-5
528.357	1	-2
528.698	1	4
529.038	1	4
529.378	1	-3
529.718	1	-12
530.058	1	1
530.399	1	5
530.739	1	3
531.079	1	3
531.419	1	-5
531.760	1	6
532.100	1	13
532.440	1	8
532.780	1	9
533.120	1	1
533.461	1	3
533.801	1	13
534.141	1	5
534.481	1	11
534.821	1	2
535.162	1	6
535.502	1	0
535.842	1	-2
536.182	1	-1
536.522	1	1
536.862	1	-3
537.203	1	1
537.543	1	7
537.883	1	1
538.223	1	9
538.563	1	-1
538.903	1	-9
539.243	1	9
539.584	1	-1
539.924	1	6
540.264	1	17
540.604	1	11
540.944	1	5
541.284	1	-2
541.624	1	7
541.964	1	-4
542.305	1	14
542.645	1	2
542.985	1	2
543.325	1	5
543.665	1	-2
544.005	1	3
544.345	1	2
544.685	1	-7
545.025	1	3
545.365	1	5
545.705	1	0
546.045	1	7
546.386	1	-6
546.726	1	-2
547.066	1	8
547.406	1	-9
547.746	1	1
548.086	1	-2
548.426	1	1
548.766	1	0
549.106	1	-1
549.446	1	9
549.786	1	-1
550.126	1	3
550.466	1	-1
550.806	1	17
551.146	1	5
551.486	1	-12
551.826	1	-1
552.166	1	-2
552.506	1	-6
552.846	1	8
553.186	1	-7
553.526	1	7
553.866	1	0
554.206	1	2
554.546	1	-3
554.886	1	4
555.226	1	3
555.566	1	7
555.906	1	-5
556.246	1	5
556.586	1	4
556.926	1	2
557.266	1	10
557.606	1	-8
557.946	1	10
558.286	1	-10
558.626	1	3
558.966	1	3
559.306	1	8
559.646	1	5
559.986	1	6
560.325	1	6
560.665	1	-1
561.005	1	5
561.345	1	0
561.685	1	0
562.025	1	-7
562.365	1	0
562.705	1	0
563.045	1	1
563.385	1	11
563.725	1	2
564.064	1	-3
564.404	1	-5
564.744	1	11
565.084	1	2
565.424	1	-4
565.764	1	4
566.104	1	4
566.444	1	4
566.783	1	3
567.123	1	0
567.463	1	4
567.803	1	1
568.143	1	-2
568.483	1	4
568.823	1	-8
569.162	1	-7
569.502	1	6
569.842	1	-2
570.182	1	-9
570.522	1	-1
570.862	1	-5
571.201	1	13
571.541	1	8
571.881	1	-6
572.221	1	-1
572.561	1	12
572.900	1	-2
573.240	1	-6
573.580	1	9
573.920	1	4
574.260	1	-2
574.599	1	6
574.939	1	7
575.279	1	4
575.619	1	1
575.959	1	1
576.298	1	-3
576.638	1	17
576.978	1	6
577.318	1	7
577.657	1	-3
577.997	1	9
578.337	1	10
578.677	1	2
579.016	1	-1
579.356	1	4
579.696	1	5
580.036	1	-3
580.375	1	4
580.715	1	4
581.055	1	2
581.394	1	-2
581.734	1	4
582.074	1	0
582.414	1	1
582.753	1	-2
583.093	1	8
583.433	1	12
583.772	1	8
584.112	1	-3
584.452	1	5
584.791	1	-4
585.131	1	11
585.471	1	0
585.811	1	5
586.150	1	3
586.490	1	6
586.830	1	2
587.169	1	-4
587.509	1	-3
587.849	1	-1
588.188	1	3
588.528	1	-1
588.867	1	5
589.207	1	-4
589.547	1	4
589.886	1	7
590.226	1	-4
590.566	1	-5
590.905	1	-2
591.245	1	-12
591.585	1	-10
591.924	1	0
592.264	1	-1
592.603	1	-10
592.943	1	8
593.283	1	5
593.622	1	-4
593.962	1	9
594.301	1	1
594.641	1	4
594.981	1	12
595.320	1	-1
595.660	1	10
595.999	1	-1
596.339	1	1
596.678	1	-12
597.018	1	-7
597.358	1	7
597.697	1	-6
598.037	1	2
598.376	1	-6
598.716	1	-1
599.055	1	0
599.395	1	-5
599.734	1	3
600.074	1	0
600.413	1	2
600.753	1	0
601.092	1	0
601.432	1	-4
601.771	1	19
602.111	1	-4
602.451	1	1
602.790	1	0
603.130	1	8
603.469	1	6
603.809	1	0
604.148	1	-6
604.487	1	-10
604.827	1	2
605.166	1	-3
605.506	1	-7
605.845	1	6
606.185	1	-10
606.524	1	5
606.864	1	5
607.203	1	5
607.543	1	7
607.882	1	1
608.222	1	0
608.561	1	-2
608.901	1	-4
609.240	1	7
609.579	1	-10
609.919	1	-9
610.258	1	9
610.598	1	-6
610.937	1	-4
611.277	1	5
611.616	1	5
611.955	1	-8
612.295	1	-7
612.634	1	2
612.974	1	-3
613.313	1	1
613.652	1	12
613.992	1	7
614.331	1	17
614.671	1	-4
615.010	1	5
615.349	1	3
615.689	1	-2
616.028	1	10
616.368	1	10
616.707	1	5
617.046	1	-2
617.386	1	4
617.725	1	-9
618.064	1	3
618.404	1	-10
618.743	1	4
619.082	1	9
619.422	1	14
619.761	1	-3
620.100	1	3
620.440	1	7
620.779	1	4
621.118	1	5
621.458	1	0
621.797	1	-7
622.136	1	-4
622.476	1	0
622.815	1	9
623.154	1	-9
623.494	1	-13
623.833	1	-1
624.172	1	10
624.511	1	-5
624.851	1	2
625.190	1	-8
625.529	1	1
625.869	1	10
626.208	1	-2
626.547	1	-2
626.886	1	3
627.226	1	5
627.565	1	11
627.904	1	0
628.243	1	13
628.583	1	1
628.922	1	4
629.261	1	4
629.600	1	2
629.940	1	8
630.279	1	2
630.618	1	6
630.957	1	-5
631.297	1	6
631.636	1	1
631.975	1	7
632.314	1	0
632.653	1	-5
632.993	1	-5
633.332	1	7
633.671	1	7
634.010	1	-10
634.349	1	9
634.689	1	-6
635.028	1	-4
635.367	1	8
635.706	1	-3
636.045	1	-6
636.384	1	-6
636.724	1	8
637.063	1	0
637.402	1	5
637.741	1	0
638.080	1	0
638.419	1	1
638.759	1	1
639.098	1	0
639.437	1	2
639.776	1	6
640.115	1	-4
640.454	1	-3
640.793	1	2
641.132	1	2
641.472	1	5
641.811	1	-7
642.150	1	0
642.489	1	2
642.828	1	11
643.167	1	7
643.506	1	-3
643.845	1	9
644.184	1	3
644.524	1	-2
644.863	1	7
645.202	1	6
645.541	1	4
645.880	1	8
646.219	1	5
646.558	1	-5
646.897	1	-11
647.236	1	-14
647.575	1	5
647.914	1	2
648.253	1	5
648.592	1	10
648.931	1	2
649.270	1	9
649.610	1	12
649.949	1	0
650.288	1	-4
650.627	1	3
650.966	1	0
651.305	1	3
651.644	1	-1
651.983	1	-9
652.322	1	-2
652.661	1	14
653.000	1	7
653.339	1	1
653.678	1	8
654.017	1	7
654.356	1	6
654.695	1	8
655.034	1	-5
655.373	1	-4
655.712	1	2
656.051	1	-1
656.390	1	0
656.729	1	4
657.068	1	2
657.406	1	-4
657.745	1	12
658.084	1	-4
658.423	1	7
658.762	1	6
659.101	1	2
659.440	1	10
659.779	1	3
660.118	1	-1
660.457	1	4
660.796	1	14
661.135	1	13
661.474	1	8
661.813	1	-3
662.152	1	8
662.491	1	-10
662.829	1	7
663.168	1	-2
663.507	1	8
663.846	1	-5
664.185	1	2
664.524	1	2
664.863	1	-9
665.202	1	-4
665.541	1	3
665.879	1	10
666.218	1	3
666.557	1	2
666.896	1	-4
667.235	1	-3
667.574	1	0
667.913	1	5
668.251	1	1
668.590	1	-6
668.929	1	6
669.268	1	4
669.607	1	-4
669.946	1	8
670.285	1	-1
670.623	1	-2
670.962	1	-1
671.301	1	5
671.640	1	-4
671.979	1	-3
672.317	1	7
672.656	1	6
672.995	1	-8
673.334	1	8
673.673	1	14
674.011	1	-2
674.350	1	-4
674.689	1	-15
675.028	1	6
675.367	1	0
675.705	1	1
676.044	1	-4
676.383	1	-7
676.722	1	10
677.060	1	4
677.399	1	5
677.738	1	-4
678.077	1	0
678.416	1	2
678.754	1	2
679.093	1	10
679.432	1	-16
679.771	1	0
680.109	1	-3
680.448	1	-6
680.787	1	-9
681.125	1	-1
681.464	1	-1
681.803	1	1
682.142	1	1
682.480	1	-8
682.819	1	0
683.158	1	0
683.496	1	0
683.835	1	8
684.174	1	1
684.512	1	-4
684.851	1	-1
685.190	1	-4
685.529	1	-4
685.867	1	-1
686.206	1	-14
686.545	1	-3
686.883	1	4
687.222	1	-8
687.561	1	-4
687.899	1	-2
688.238	1	8
688.577	1	-5
688.746	1	5