File: Data/GaN_150K_450ms/GaN_sample D_spot15_UVVIS_150 K_200um_450 ms 2x2mm1_349.txt
340.368	1	-5
340.710	1	-6
341.052	1	5
341.394	1	-13
341.737	1	-5
342.079	1	-3
342.421	1	-3
342.763	1	1
343.105	1	1
343.447	1	-10
343.789	1	-2
344.131	1	-9
344.473	1	-6
344.815	1	8
345.157	1	10
345.499	1	-4
345.841	1	-10
346.183	1	-9
346.526	1	0
346.868	1	-5
347.210	1	-6
347.552	1	3
347.894	1	-6
348.236	1	-1
348.578	1	3
348.920	1	-2
349.262	1	-2
349.604	1	-5
349.946	1	-7
350.288	1	4
350.630	1	-15
350.972	1	1
351.314	1	-9
351.656	1	3
351.998	1	-2
352.340	1	1
352.682	1	-20
353.024	1	2
353.366	1	-3
353.708	1	-11
354.050	1	-12
354.392	1	-8
354.734	1	2
355.076	1	7
355.418	1	-5
355.760	1	2
356.102	1	-2
356.444	1	9
356.785	1	3
357.127	1	5
357.469	1	-1
357.811	1	4
358.153	1	-11
358.495	1	-7
358.837	1	11
359.179	1	0
359.521	1	6
359.863	1	2
360.205	1	-1
360.547	1	9
360.889	1	-3
361.231	1	2
361.572	1	-7
361.914	1	-1
362.256	1	9
362.598	1	5
362.940	1	2
363.282	1	-14
363.624	1	-4
363.966	1	-1
364.308	1	4
364.649	1	-9
364.991	1	-2
365.333	1	-4
365.675	1	9
366.017	1	-2
366.359	1	-6
366.701	1	-9
367.042	1	3
367.384	1	-7
367.726	1	-3
368.068	1	6
368.410	1	5
368.752	1	14
369.093	1	0
369.435	1	4
369.777	1	1
370.119	1	-5
370.461	1	2
370.803	1	-6
371.144	1	5
371.486	1	3
371.828	1	-1
372.170	1	-4
372.512	1	-6
372.853	1	1
373.195	1	0
373.537	1	-2
373.879	1	2
374.220	1	-2
374.562	1	5
374.904	1	-4
375.246	1	-3
375.588	1	-9
375.929	1	0
376.271	1	-1
376.613	1	2
376.955	1	0
377.296	1	7
377.638	1	2
377.980	1	-7
378.321	1	-4
378.663	1	-8
379.005	1	5
379.347	1	-1
379.688	1	5
380.030	1	0
380.372	1	-5
380.714	1	2
381.055	1	-3
381.397	1	-2
381.739	1	-14
382.080	1	5
382.422	1	7
382.764	1	-9
383.105	1	0
383.447	1	2
383.789	1	-5
384.130	1	5
384.472	1	-5
384.814	1	2
385.156	1	-6
385.497	1	15
385.839	1	8
386.180	1	-5
386.522	1	-5
386.864	1	-7
387.205	1	0
387.547	1	0
387.889	1	-4
388.230	1	-3
388.572	1	-14
388.914	1	5
389.255	1	1
389.597	1	-6
389.939	1	5
390.280	1	2
390.622	1	-4
390.963	1	-10
391.305	1	-2
391.647	1	-2
391.988	1	-1
392.330	1	4
392.671	1	4
393.013	1	1
393.355	1	2
393.696	1	5
394.038	1	-1
394.379	1	0
394.721	1	-7
395.062	1	-4
395.404	1	1
395.746	1	-7
396.087	1	2
396.429	1	0
396.770	1	-4
397.112	1	-4
397.453	1	3
397.795	1	1
398.136	1	1
398.478	1	-9
398.819	1	3
399.161	1	2
399.503	1	4
399.844	1	-4
400.186	1	-1
400.527	1	5
400.869	1	1
401.210	1	-6
401.552	1	-2
401.893	1	-3
402.235	1	9
402.576	1	-5
402.918	1	-8
403.259	1	-12
403.601	1	-1
403.942	1	3
404.284	1	8
404.625	1	-13
404.967	1	3
405.308	1	-9
405.649	1	0
405.991	1	-12
406.332	1	-6
406.674	1	-5
407.015	1	7
407.357	1	0
407.698	1	8
408.040	1	12
408.381	1	-13
408.722	1	7
409.064	1	0
409.405	1	5
409.747	1	2
410.088	1	5
410.430	1	3
410.771	1	6
411.112	1	1
411.454	1	-3
411.795	1	-7
412.137	1	-1
412.478	1	6
412.819	1	-7
413.161	1	-3
413.502	1	-5
413.844	1	6
414.185	1	-5
414.526	1	0
414.868	1	-7
415.209	1	-14
415.550	1	-4
415.892	1	6
416.233	1	3
416.575	1	-11
416.916	1	-5
417.257	1	1
417.599	1	0
417.940	1	-10
418.281	1	6
418.623	1	-1
418.964	1	3
419.305	1	4
419.647	1	1
419.988	1	10
420.329	1	3
420.671	1	5
421.012	1	-1
421.353	1	6
421.695	1	1
422.036	1	-3
422.377	1	-1
422.718	1	0
423.060	1	0
423.401	1	-1
423.742	1	3
424.084	1	-4
424.425	1	0
424.766	1	-1
425.107	1	-3
425.449	1	-9
425.790	1	-3
426.131	1	-8
426.472	1	12
426.814	1	-1
427.155	1	1
427.496	1	-10
427.837	1	-8
428.179	1	2
428.520	1	-3
428.861	1	-2
429.202	1	-18
429.544	1	-2
429.885	1	2
430.226	1	-21
430.567	1	-15
430.909	1	0
431.250	1	2
431.591	1	8
431.932	1	-9
432.273	1	-2
432.615	1	-8
432.956	1	-3
433.297	1	-1
433.638	1	-3
433.979	1	-7
434.320	1	3
434.662	1	0
435.003	1	12
435.344	1	-2
435.685	1	-4
436.026	1	-9
436.368	1	-3
436.709	1	-8
437.050	1	0
437.391	1	-8
437.732	1	-1
438.073	1	-13
438.414	1	9
438.756	1	8
439.097	1	-7
439.438	1	-1
439.779	1	-5
440.120	1	-7
440.461	1	5
440.802	1	1
441.143	1	1
441.485	1	-5
441.826	1	-4
442.167	1	0
442.508	1	5
442.849	1	5
443.190	1	5
443.531	1	-1
443.872	1	-14
444.213	1	-14
444.554	1	8
444.895	1	-6
445.237	1	6
445.578	1	-13
445.919	1	2
446.260	1	1
446.601	1	0
446.942	1	-13
447.283	1	4
447.624	1	-9
447.965	1	-2
448.306	1	-8
448.647	1	-4
448.988	1	-2
449.329	1	3
449.670	1	1
450.011	1	-5
450.352	1	-3
450.693	1	4
451.034	1	-11
451.375	1	3
451.716	1	-4
452.057	1	1
452.398	1	5
452.739	1	-1
453.080	1	8
453.421	1	0
453.762	1	11
454.103	1	-5
454.444	1	-5
454.785	1	9
455.126	1	-2
455.467	1	-2
455.808	1	10
456.149	1	-10
456.490	1	-11
456.831	1	1
457.172	1	-2
457.513	1	-6
457.854	1	-10
458.195	1	3
458.536	1	9
458.877	1	7
459.218	1	2
459.559	1	0
459.899	1	0
460.240	1	-11
460.581	1	-8
460.922	1	-6
461.263	1	9
461.604	1	-4
461.945	1	3
462.286	1	-3
462.627	1	-5
462.968	1	10
463.309	1	4
463.649	1	-4
463.990	1	-6
464.331	1	3
464.672	1	-3
465.013	1	-1
465.354	1	-1
465.695	1	2
466.036	1	-1
466.376	1	2
466.717	1	-13
467.058	1	-6
467.399	1	-6
467.740	1	13
468.081	1	-6
468.422	1	7
468.762	1	4
469.103	1	0
469.444	1	2
469.785	1	-5
470.126	1	2
470.467	1	-6
470.807	1	4
471.148	1	-1
471.489	1	11
471.830	1	9
472.171	1	9
472.511	1	2
472.852	1	5
473.193	1	-2
473.534	1	-2
473.875	1	-5
474.215	1	-3
474.556	1	-8
474.897	1	1
475.238	1	8
475.578	1	-8
475.919	1	-1
476.260	1	-11
476.601	1	-7
476.942	1	-3
477.282	1	-5
477.623	1	-7
477.964	1	0
478.305	1	0
478.645	1	2
478.986	1	4
479.327	1	1
479.667	1	-12
480.008	1	-5
480.349	1	-5
480.690	1	6
481.030	1	-15
481.371	1	-16
481.712	1	9
482.053	1	4
482.393	1	3
482.734	1	4
483.075	1	-5
483.415	1	-8
483.756	1	4
484.097	1	2
484.437	1	9
484.778	1	0
485.119	1	-6
485.459	1	-3
485.800	1	-2
486.141	1	-3
486.481	1	-14
486.822	1	3
487.163	1	-5
487.503	1	-5
487.844	1	-14
488.185	1	6
488.525	1	-10
488.866	1	-4
489.207	1	5
489.547	1	6
489.888	1	4
490.228	1	2
490.569	1	-7
490.910	1	6
491.250	1	0
491.591	1	-8
491.932	1	6
492.272	1	-11
492.613	1	-3
492.953	1	3
493.294	1	-13
493.635	1	7
493.975	1	7
494.316	1	-1
494.656	1	3
494.997	1	0
495.337	1	-3
495.678	1	-4
496.019	1	-10
496.359	1	-5
496.700	1	-7
497.040	1	-9
497.381	1	0
497.721	1	-8
498.062	1	-3
498.403	1	2
498.743	1	-1
499.084	1	8
499.424	1	0
499.765	1	-7
500.105	1	5
500.446	1	-1
500.786	1	-5
501.127	1	10
501.467	1	1
501.808	1	4
502.148	1	4
502.489	1	-10
502.829	1	-3
503.170	1	4
503.510	1	3
503.851	1	5
504.191	1	-5
504.532	1	10
504.872	1	-3
505.213	1	-3
505.553	1	-4
505.894	1	2
506.234	1	5
506.575	1	10
506.915	1	9
507.256	1	0
507.596	1	0
507.936	1	13
508.277	1	2
508.617	1	-2
508.958	1	3
509.298	1	-7
509.639	1	-4
509.979	1	-6
510.319	1	-1
510.660	1	-10
511.000	1	0
511.341	1	14
511.681	1	1
512.022	1	-12
512.362	1	-1
512.702	1	-13
513.043	1	6
513.383	1	-7
513.724	1	0
514.064	1	6
514.404	1	10
514.745	1	-6
515.085	1	-1
515.425	1	-1
515.766	1	-4
516.106	1	-1
516.447	1	2
516.787	1	-1
517.127	1	7
517.468	1	4
517.808	1	-4
518.148	1	15
518.489	1	-16
518.829	1	2
519.169	1	0
519.510	1	-4
519.850	1	-12
520.190	1	-13
520.531	1	-7
520.871	1	-5
521.211	1	7
521.552	1	0
521.892	1	-9
522.232	1	1
522.573	1	3
522.913	1	5
523.253	1	5
523.593	1	5
523.934	1	1
524.274	1	-3
524.614	1	1
524.955	1	-6
525.295	1	2
525.635	1	-3
525.975	1	-7
526.316	1	-13
526.656	1	2
526.996	1	-9
527.337	1	-4
527.677	1	15
528.017	1	-1
528.357	1	-8
528.698	1	6
529.038	1	-2
529.378	1	-5
529.718	1	-5
530.058	1	5
530.399	1	-6
530.739	1	-1
531.079	1	-9
531.419	1	2
531.760	1	12
532.100	1	5
532.440	1	5
532.780	1	-4
533.120	1	2
533.461	1	-2
533.801	1	4
534.141	1	1
534.481	1	9
534.821	1	-9
535.162	1	6
535.502	1	0
535.842	1	-4
536.182	1	-13
536.522	1	2
536.862	1	-11
537.203	1	0
537.543	1	6
537.883	1	2
538.223	1	6
538.563	1	-2
538.903	1	-8
539.243	1	-5
539.584	1	-3
539.924	1	-1
540.264	1	14
540.604	1	9
540.944	1	-2
541.284	1	-1
541.624	1	3
541.964	1	0
542.305	1	7
542.645	1	-2
542.985	1	0
543.325	1	5
543.665	1	0
544.005	1	1
544.345	1	10
544.685	1	-2
545.025	1	0
545.365	1	6
545.705	1	-1
546.045	1	9
546.386	1	-9
546.726	1	-3
547.066	1	-8
547.406	1	-5
547.746	1	-1
548.086	1	-5
548.426	1	2
548.766	1	-1
549.106	1	-2
549.446	1	-1
549.786	1	9
550.126	1	11
550.466	1	3
550.806	1	8
551.146	1	-2
551.486	1	-6
551.826	1	-14
552.166	1	2
552.506	1	5
552.846	1	-2
553.186	1	-12
553.526	1	-1
553.866	1	-6
554.206	1	6
554.546	1	1
554.886	1	2
555.226	1	-7
555.566	1	-5
555.906	1	1
556.246	1	-5
556.586	1	-1
556.926	1	-6
557.266	1	8
557.606	1	-6
557.946	1	1
558.286	1	-17
558.626	1	0
558.966	1	5
559.306	1	6
559.646	1	9
559.986	1	10
560.325	1	-3
560.665	1	-2
561.005	1	-4
561.345	1	-2
561.685	1	3
562.025	1	-8
562.365	1	-10
562.705	1	7
563.045	1	3
563.385	1	3
563.725	1	-9
564.064	1	-1
564.404	1	1
564.744	1	8
565.084	1	1
565.424	1	-12
565.764	1	4
566.104	1	5
566.444	1	3
566.783	1	11
567.123	1	0
567.463	1	1
567.803	1	9
568.143	1	4
568.483	1	5
568.823	1	-2
569.162	1	-10
569.502	1	0
569.842	1	-2
570.182	1	0
570.522	1	-5
570.862	1	-10
571.201	1	4
571.541	1	-9
571.881	1	-4
572.221	1	4
572.561	1	-1
572.900	1	5
573.240	1	-2
573.580	1	1
573.920	1	1
574.260	1	6
574.599	1	8
574.939	1	5
575.279	1	-1
575.619	1	5
575.959	1	-4
576.298	1	-11
576.638	1	3
576.978	1	-3
577.318	1	-6
577.657	1	-1
577.997	1	1
578.337	1	1
578.677	1	1
579.016	1	5
579.356	1	2
579.696	1	3
580.036	1	-5
580.375	1	2
580.715	1	-1
581.055	1	0
581.394	1	-2
581.734	1	-9
582.074	1	-3
582.414	1	-6
582.753	1	-2
583.093	1	-4
583.433	1	4
583.772	1	0
584.112	1	4
584.452	1	9
584.791	1	1
585.131	1	0
585.471	1	1
585.811	1	-1
586.150	1	-1
586.490	1	1
586.830	1	3
587.169	1	-6
587.509	1	3
587.849	1	10
588.188	1	-2
588.528	1	-10
588.867	1	5
589.207	1	4
589.547	1	-2
589.886	1	2
590.226	1	-12
590.566	1	-3
590.905	1	-7
591.245	1	-12
591.585	1	-9
591.924	1	1
592.264	1	1
592.603	1	-18
592.943	1	-1
593.283	1	-2
593.622	1	-1
593.962	1	1
594.301	1	-7
594.641	1	-4
594.981	1	4
595.320	1	9
595.660	1	-5
595.999	1	8
596.339	1	0
596.678	1	-2
597.018	1	-11
597.358	1	3
597.697	1	-5
598.037	1	0
598.376	1	-12
598.716	1	7
599.055	1	6
599.395	1	-17
599.734	1	-1
600.074	1	5
600.413	1	-5
600.753	1	0
601.092	1	-6
601.432	1	-2
601.771	1	1
602.111	1	3
602.451	1	-7
602.790	1	3
603.130	1	-1
603.469	1	-3
603.809	1	5
604.148	1	-6
604.487	1	-4
604.827	1	9
605.166	1	2
605.506	1	-10
605.845	1	-2
606.185	1	-3
606.524	1	-9
606.864	1	4
607.203	1	-5
607.543	1	-2
607.882	1	4
608.222	1	-1
608.561	1	-2
608.901	1	2
609.240	1	1
609.579	1	-6
609.919	1	-11
610.258	1	4
610.598	1	-7
610.937	1	3
611.277	1	-1
611.616	1	12
611.955	1	-3
612.295	1	-8
612.634	1	6
612.974	1	2
613.313	1	4
613.652	1	3
613.992	1	-2
614.331	1	7
614.671	1	-5
615.010	1	2
615.349	1	-1
615.689	1	-2
616.028	1	18
616.368	1	9
616.707	1	5
617.046	1	-8
617.386	1	2
617.725	1	-9
618.064	1	-7
618.404	1	-2
618.743	1	8
619.082	1	12
619.422	1	-1
619.761	1	-9
620.100	1	0
620.440	1	-4
620.779	1	8
621.118	1	1
621.458	1	-8
621.797	1	2
622.136	1	-6
622.476	1	4
622.815	1	-1
623.154	1	-9
623.494	1	-3
623.833	1	5
624.172	1	3
624.511	1	-2
624.851	1	-8
625.190	1	-1
625.529	1	0
625.869	1	15
626.208	1	-8
626.547	1	6
626.886	1	-9
627.226	1	2
627.565	1	-3
627.904	1	-2
628.243	1	2
628.583	1	-4
628.922	1	7
629.261	1	1
629.600	1	-3
629.940	1	5
630.279	1	-6
630.618	1	-8
630.957	1	-1
631.297	1	2
631.636	1	-8
631.975	1	-8
632.314	1	4
632.653	1	-11
632.993	1	5
633.332	1	-1
633.671	1	5
634.010	1	-4
634.349	1	14
634.689	1	0
635.028	1	-2
635.367	1	2
635.706	1	-11
636.045	1	-4
636.384	1	2
636.724	1	4
637.063	1	-5
637.402	1	-3
637.741	1	0
638.080	1	-5
638.419	1	-12
638.759	1	-3
639.098	1	1
639.437	1	-1
639.776	1	5
640.115	1	-21
640.454	1	-8
640.793	1	-1
641.132	1	1
641.472	1	14
641.811	1	-14
642.150	1	-2
642.489	1	-4
642.828	1	7
643.167	1	-9
643.506	1	-2
643.845	1	-5
644.184	1	2
644.524	1	2
644.863	1	-2
645.202	1	0
645.541	1	-9
645.880	1	4
646.219	1	5
646.558	1	-2
646.897	1	-10
647.236	1	-19
647.575	1	4
647.914	1	-6
648.253	1	5
648.592	1	5
648.931	1	-3
649.270	1	-2
649.610	1	9
649.949	1	-9
650.288	1	1
650.627	1	-5
650.966	1	3
651.305	1	-4
651.644	1	9
651.983	1	-7
652.322	1	-5
652.661	1	-2
653.000	1	-3
653.339	1	-5
653.678	1	4
654.017	1	6
654.356	1	7
654.695	1	18
655.034	1	-9
655.373	1	6
655.712	1	-6
656.051	1	-8
656.390	1	-3
656.729	1	2
657.068	1	2
657.406	1	-6
657.745	1	10
658.084	1	-9
658.423	1	3
658.762	1	-12
659.101	1	2
659.440	1	4
659.779	1	-2
660.118	1	-7
660.457	1	-6
660.796	1	3
661.135	1	6
661.474	1	1
661.813	1	-5
662.152	1	1
662.491	1	-1
662.829	1	-1
663.168	1	-3
663.507	1	3
663.846	1	-3
664.185	1	1
664.524	1	8
664.863	1	-12
665.202	1	4
665.541	1	2
665.879	1	2
666.218	1	3
666.557	1	-5
666.896	1	9
667.235	1	-1
667.574	1	-4
667.913	1	4
668.251	1	-11
668.590	1	-8
668.929	1	-4
669.268	1	-3
669.607	1	-8
669.946	1	0
670.285	1	-7
670.623	1	11
670.962	1	-8
671.301	1	1
671.640	1	-2
671.979	1	0
672.317	1	-2
672.656	1	3
672.995	1	1
673.334	1	-2
673.673	1	13
674.011	1	8
674.350	1	-3
674.689	1	-4
675.028	1	2
675.367	1	-6
675.705	1	-22
676.044	1	-10
676.383	1	-2
676.722	1	-4
677.060	1	-3
677.399	1	8
677.738	1	-3
678.077	1	-11
678.416	1	4
678.754	1	-4
679.093	1	5
679.432	1	-12
679.771	1	0
680.109	1	-2
680.448	1	-2
680.787	1	-15
681.125	1	-7
681.464	1	4
681.803	1	-8
682.142	1	-9
682.480	1	-13
682.819	1	-2
683.158	1	-3
683.496	1	-15
683.835	1	9
684.174	1	4
684.512	1	0
684.851	1	-3
685.190	1	3
685.529	1	0
685.867	1	-4
686.206	1	-11
686.545	1	-4
686.883	1	4
687.222	1	-8
687.561	1	1
687.899	1	1
688.238	1	3
688.577	1	-1
688.746	1	2