File: Data/GaN_150K_450ms/GaN_sample D_spot15_UVVIS_150 K_200um_450 ms 2x2mm1_51.txt
340.368	1	0
340.710	1	-1
341.052	1	10
341.394	1	-7
341.737	1	8
342.079	1	6
342.421	1	6
342.763	1	1
343.105	1	3
343.447	1	11
343.789	1	5
344.131	1	-1
344.473	1	-3
344.815	1	13
345.157	1	12
345.499	1	10
345.841	1	7
346.183	1	3
346.526	1	8
346.868	1	-4
347.210	1	4
347.552	1	17
347.894	1	4
348.236	1	5
348.578	1	15
348.920	1	4
349.262	1	15
349.604	1	0
349.946	1	4
350.288	1	3
350.630	1	12
350.972	1	23
351.314	1	4
351.656	1	23
351.998	1	9
352.340	1	18
352.682	1	6
353.024	1	18
353.366	1	22
353.708	1	19
354.050	1	19
354.392	1	9
354.734	1	21
355.076	1	32
355.418	1	26
355.760	1	28
356.102	1	39
356.444	1	31
356.785	1	33
357.127	1	49
357.469	1	43
357.811	1	48
358.153	1	38
358.495	1	41
358.837	1	54
359.179	1	60
359.521	1	77
359.863	1	67
360.205	1	86
360.547	1	104
360.889	1	110
361.231	1	127
361.572	1	138
361.914	1	160
362.256	1	184
362.598	1	227
362.940	1	242
363.282	1	278
363.624	1	319
363.966	1	374
364.308	1	456
364.649	1	529
364.991	1	603
365.333	1	711
365.675	1	819
366.017	1	916
366.359	1	1010
366.701	1	1123
367.042	1	1212
367.384	1	1292
367.726	1	1332
368.068	1	1386
368.410	1	1390
368.752	1	1398
369.093	1	1316
369.435	1	1285
369.777	1	1176
370.119	1	1111
370.461	1	989
370.803	1	927
371.144	1	870
371.486	1	799
371.828	1	743
372.170	1	670
372.512	1	641
372.853	1	612
373.195	1	566
373.537	1	517
373.879	1	485
374.220	1	489
374.562	1	450
374.904	1	411
375.246	1	406
375.588	1	366
375.929	1	352
376.271	1	341
376.613	1	313
376.955	1	288
377.296	1	284
377.638	1	256
377.980	1	251
378.321	1	240
378.663	1	211
379.005	1	195
379.347	1	189
379.688	1	195
380.030	1	198
380.372	1	186
380.714	1	198
381.055	1	182
381.397	1	170
381.739	1	179
382.080	1	186
382.422	1	202
382.764	1	200
383.105	1	191
383.447	1	192
383.789	1	201
384.130	1	227
384.472	1	210
384.814	1	212
385.156	1	227
385.497	1	234
385.839	1	228
386.180	1	222
386.522	1	204
386.864	1	193
387.205	1	210
387.547	1	196
387.889	1	182
388.230	1	174
388.572	1	187
388.914	1	184
389.255	1	169
389.597	1	170
389.939	1	188
390.280	1	173
390.622	1	172
390.963	1	157
391.305	1	181
391.647	1	164
391.988	1	153
392.330	1	147
392.671	1	164
393.013	1	150
393.355	1	140
393.696	1	136
394.038	1	145
394.379	1	147
394.721	1	135
395.062	1	149
395.404	1	141
395.746	1	142
396.087	1	148
396.429	1	154
396.770	1	155
397.112	1	167
397.453	1	145
397.795	1	144
398.136	1	157
398.478	1	151
398.819	1	149
399.161	1	143
399.503	1	141
399.844	1	127
400.186	1	133
400.527	1	132
400.869	1	121
401.210	1	120
401.552	1	105
401.893	1	100
402.235	1	117
402.576	1	113
402.918	1	107
403.259	1	101
403.601	1	101
403.942	1	109
404.284	1	111
404.625	1	97
404.967	1	111
405.308	1	85
405.649	1	93
405.991	1	106
406.332	1	99
406.674	1	99
407.015	1	100
407.357	1	104
407.698	1	92
408.040	1	108
408.381	1	85
408.722	1	98
409.064	1	101
409.405	1	82
409.747	1	81
410.088	1	94
410.430	1	94
410.771	1	83
411.112	1	84
411.454	1	81
411.795	1	84
412.137	1	74
412.478	1	77
412.819	1	86
413.161	1	69
413.502	1	71
413.844	1	78
414.185	1	62
414.526	1	56
414.868	1	71
415.209	1	60
415.550	1	63
415.892	1	66
416.233	1	68
416.575	1	55
416.916	1	56
417.257	1	61
417.599	1	66
417.940	1	53
418.281	1	75
418.623	1	73
418.964	1	63
419.305	1	66
419.647	1	65
419.988	1	81
420.329	1	56
420.671	1	71
421.012	1	49
421.353	1	66
421.695	1	66
422.036	1	64
422.377	1	48
422.718	1	55
423.060	1	58
423.401	1	47
423.742	1	60
424.084	1	64
424.425	1	63
424.766	1	49
425.107	1	53
425.449	1	55
425.790	1	52
426.131	1	46
426.472	1	64
426.814	1	43
427.155	1	50
427.496	1	45
427.837	1	53
428.179	1	64
428.520	1	47
428.861	1	56
429.202	1	41
429.544	1	41
429.885	1	47
430.226	1	33
430.567	1	42
430.909	1	45
431.250	1	43
431.591	1	49
431.932	1	46
432.273	1	63
432.615	1	41
432.956	1	46
433.297	1	38
433.638	1	40
433.979	1	40
434.320	1	48
434.662	1	43
435.003	1	49
435.344	1	41
435.685	1	33
436.026	1	32
436.368	1	30
436.709	1	32
437.050	1	53
437.391	1	27
437.732	1	39
438.073	1	37
438.414	1	49
438.756	1	41
439.097	1	38
439.438	1	39
439.779	1	28
440.120	1	33
440.461	1	40
440.802	1	45
441.143	1	41
441.485	1	29
441.826	1	45
442.167	1	45
442.508	1	34
442.849	1	39
443.190	1	41
443.531	1	32
443.872	1	25
444.213	1	26
444.554	1	43
444.895	1	31
445.237	1	43
445.578	1	29
445.919	1	36
446.260	1	45
446.601	1	37
446.942	1	30
447.283	1	40
447.624	1	19
447.965	1	30
448.306	1	28
448.647	1	31
448.988	1	35
449.329	1	35
449.670	1	39
450.011	1	26
450.352	1	26
450.693	1	36
451.034	1	21
451.375	1	31
451.716	1	37
452.057	1	34
452.398	1	47
452.739	1	41
453.080	1	39
453.421	1	35
453.762	1	38
454.103	1	30
454.444	1	37
454.785	1	40
455.126	1	28
455.467	1	36
455.808	1	41
456.149	1	28
456.490	1	34
456.831	1	33
457.172	1	27
457.513	1	33
457.854	1	33
458.195	1	33
458.536	1	41
458.877	1	29
459.218	1	37
459.559	1	38
459.899	1	25
460.240	1	29
460.581	1	27
460.922	1	33
461.263	1	43
461.604	1	22
461.945	1	34
462.286	1	29
462.627	1	36
462.968	1	33
463.309	1	29
463.649	1	28
463.990	1	33
464.331	1	36
464.672	1	31
465.013	1	37
465.354	1	35
465.695	1	35
466.036	1	44
466.376	1	43
466.717	1	29
467.058	1	32
467.399	1	27
467.740	1	45
468.081	1	37
468.422	1	25
468.762	1	28
469.103	1	28
469.444	1	42
469.785	1	25
470.126	1	39
470.467	1	25
470.807	1	40
471.148	1	32
471.489	1	26
471.830	1	31
472.171	1	43
472.511	1	32
472.852	1	41
473.193	1	35
473.534	1	33
473.875	1	22
474.215	1	35
474.556	1	35
474.897	1	36
475.238	1	40
475.578	1	31
475.919	1	36
476.260	1	39
476.601	1	31
476.942	1	43
477.282	1	28
477.623	1	28
477.964	1	48
478.305	1	42
478.645	1	39
478.986	1	38
479.327	1	43
479.667	1	38
480.008	1	44
480.349	1	36
480.690	1	44
481.030	1	35
481.371	1	35
481.712	1	45
482.053	1	54
482.393	1	46
482.734	1	54
483.075	1	53
483.415	1	48
483.756	1	51
484.097	1	47
484.437	1	54
484.778	1	57
485.119	1	53
485.459	1	46
485.800	1	56
486.141	1	53
486.481	1	46
486.822	1	66
487.163	1	53
487.503	1	65
487.844	1	55
488.185	1	65
488.525	1	59
488.866	1	54
489.207	1	70
489.547	1	67
489.888	1	64
490.228	1	69
490.569	1	65
490.910	1	82
491.250	1	77
491.591	1	74
491.932	1	90
492.272	1	68
492.613	1	76
492.953	1	78
493.294	1	74
493.635	1	81
493.975	1	104
494.316	1	75
494.656	1	96
494.997	1	86
495.337	1	75
495.678	1	82
496.019	1	94
496.359	1	88
496.700	1	97
497.040	1	90
497.381	1	97
497.721	1	99
498.062	1	110
498.403	1	104
498.743	1	106
499.084	1	116
499.424	1	102
499.765	1	117
500.105	1	126
500.446	1	114
500.786	1	111
501.127	1	120
501.467	1	132
501.808	1	127
502.148	1	118
502.489	1	140
502.829	1	130
503.170	1	143
503.510	1	136
503.851	1	141
504.191	1	130
504.532	1	154
504.872	1	142
505.213	1	136
505.553	1	150
505.894	1	154
506.234	1	156
506.575	1	163
506.915	1	163
507.256	1	160
507.596	1	172
507.936	1	168
508.277	1	173
508.617	1	160
508.958	1	160
509.298	1	145
509.639	1	164
509.979	1	151
510.319	1	170
510.660	1	168
511.000	1	154
511.341	1	195
511.681	1	173
512.022	1	175
512.362	1	166
512.702	1	175
513.043	1	203
513.383	1	174
513.724	1	190
514.064	1	204
514.404	1	193
514.745	1	187
515.085	1	201
515.425	1	189
515.766	1	214
516.106	1	201
516.447	1	208
516.787	1	206
517.127	1	212
517.468	1	221
517.808	1	206
518.148	1	228
518.489	1	204
518.829	1	224
519.169	1	210
519.510	1	231
519.850	1	211
520.190	1	227
520.531	1	234
520.871	1	208
521.211	1	222
521.552	1	218
521.892	1	223
522.232	1	241
522.573	1	234
522.913	1	225
523.253	1	238
523.593	1	230
523.934	1	234
524.274	1	233
524.614	1	230
524.955	1	228
525.295	1	246
525.635	1	232
525.975	1	234
526.316	1	225
526.656	1	233
526.996	1	235
527.337	1	255
527.677	1	260
528.017	1	236
528.357	1	259
528.698	1	262
529.038	1	265
529.378	1	256
529.718	1	247
530.058	1	251
530.399	1	249
530.739	1	255
531.079	1	276
531.419	1	255
531.760	1	273
532.100	1	264
532.440	1	262
532.780	1	261
533.120	1	257
533.461	1	251
533.801	1	244
534.141	1	257
534.481	1	267
534.821	1	258
535.162	1	244
535.502	1	242
535.842	1	252
536.182	1	251
536.522	1	243
536.862	1	229
537.203	1	237
537.543	1	233
537.883	1	224
538.223	1	240
538.563	1	219
538.903	1	231
539.243	1	231
539.584	1	242
539.924	1	225
540.264	1	225
540.604	1	239
540.944	1	213
541.284	1	225
541.624	1	235
541.964	1	228
542.305	1	226
542.645	1	226
542.985	1	236
543.325	1	233
543.665	1	225
544.005	1	234
544.345	1	237
544.685	1	228
545.025	1	229
545.365	1	241
545.705	1	233
546.045	1	235
546.386	1	225
546.726	1	230
547.066	1	223
547.406	1	231
547.746	1	238
548.086	1	245
548.426	1	246
548.766	1	237
549.106	1	242
549.446	1	247
549.786	1	237
550.126	1	252
550.466	1	236
550.806	1	254
551.146	1	240
551.486	1	238
551.826	1	239
552.166	1	229
552.506	1	234
552.846	1	243
553.186	1	216
553.526	1	238
553.866	1	228
554.206	1	233
554.546	1	230
554.886	1	227
555.226	1	224
555.566	1	223
555.906	1	224
556.246	1	213
556.586	1	200
556.926	1	221
557.266	1	203
557.606	1	202
557.946	1	221
558.286	1	192
558.626	1	210
558.966	1	210
559.306	1	224
559.646	1	201
559.986	1	203
560.325	1	196
560.665	1	202
561.005	1	191
561.345	1	196
561.685	1	198
562.025	1	190
562.365	1	202
562.705	1	203
563.045	1	202
563.385	1	219
563.725	1	197
564.064	1	193
564.404	1	187
564.744	1	203
565.084	1	198
565.424	1	190
565.764	1	203
566.104	1	205
566.444	1	194
566.783	1	191
567.123	1	190
567.463	1	200
567.803	1	164
568.143	1	178
568.483	1	192
568.823	1	191
569.162	1	174
569.502	1	185
569.842	1	171
570.182	1	157
570.522	1	171
570.862	1	167
571.201	1	174
571.541	1	169
571.881	1	180
572.221	1	161
572.561	1	181
572.900	1	172
573.240	1	162
573.580	1	162
573.920	1	176
574.260	1	153
574.599	1	177
574.939	1	169
575.279	1	158
575.619	1	160
575.959	1	156
576.298	1	153
576.638	1	178
576.978	1	157
577.318	1	161
577.657	1	152
577.997	1	161
578.337	1	151
578.677	1	158
579.016	1	158
579.356	1	159
579.696	1	165
580.036	1	160
580.375	1	153
580.715	1	174
581.055	1	176
581.394	1	165
581.734	1	153
582.074	1	146
582.414	1	155
582.753	1	154
583.093	1	158
583.433	1	167
583.772	1	157
584.112	1	158
584.452	1	157
584.791	1	149
585.131	1	139
585.471	1	152
585.811	1	149
586.150	1	152
586.490	1	150
586.830	1	140
587.169	1	138
587.509	1	133
587.849	1	147
588.188	1	156
588.528	1	134
588.867	1	131
589.207	1	142
589.547	1	132
589.886	1	127
590.226	1	114
590.566	1	112
590.905	1	122
591.245	1	118
591.585	1	113
591.924	1	117
592.264	1	121
592.603	1	107
592.943	1	119
593.283	1	119
593.622	1	116
593.962	1	115
594.301	1	113
594.641	1	122
594.981	1	117
595.320	1	128
595.660	1	123
595.999	1	107
596.339	1	120
596.678	1	111
597.018	1	115
597.358	1	125
597.697	1	107
598.037	1	123
598.376	1	107
598.716	1	128
599.055	1	118
599.395	1	111
599.734	1	122
600.074	1	111
600.413	1	126
600.753	1	117
601.092	1	116
601.432	1	107
601.771	1	113
602.111	1	106
602.451	1	107
602.790	1	123
603.130	1	125
603.469	1	110
603.809	1	115
604.148	1	117
604.487	1	112
604.827	1	121
605.166	1	117
605.506	1	115
605.845	1	119
606.185	1	110
606.524	1	124
606.864	1	124
607.203	1	123
607.543	1	118
607.882	1	121
608.222	1	109
608.561	1	97
608.901	1	117
609.240	1	114
609.579	1	116
609.919	1	93
610.258	1	121
610.598	1	102
610.937	1	106
611.277	1	107
611.616	1	131
611.955	1	94
612.295	1	103
612.634	1	97
612.974	1	104
613.313	1	118
613.652	1	118
613.992	1	105
614.331	1	97
614.671	1	102
615.010	1	100
615.349	1	103
615.689	1	93
616.028	1	115
616.368	1	99
616.707	1	97
617.046	1	96
617.386	1	105
617.725	1	85
618.064	1	79
618.404	1	86
618.743	1	90
619.082	1	110
619.422	1	100
619.761	1	83
620.100	1	88
620.440	1	93
620.779	1	98
621.118	1	104
621.458	1	82
621.797	1	93
622.136	1	92
622.476	1	94
622.815	1	91
623.154	1	75
623.494	1	73
623.833	1	97
624.172	1	84
624.511	1	82
624.851	1	79
625.190	1	83
625.529	1	88
625.869	1	81
626.208	1	86
626.547	1	85
626.886	1	88
627.226	1	100
627.565	1	92
627.904	1	82
628.243	1	97
628.583	1	87
628.922	1	90
629.261	1	81
629.600	1	86
629.940	1	81
630.279	1	92
630.618	1	80
630.957	1	82
631.297	1	82
631.636	1	75
631.975	1	88
632.314	1	87
632.653	1	79
632.993	1	81
633.332	1	81
633.671	1	83
634.010	1	82
634.349	1	87
634.689	1	73
635.028	1	73
635.367	1	72
635.706	1	66
636.045	1	73
636.384	1	80
636.724	1	82
637.063	1	66
637.402	1	72
637.741	1	70
638.080	1	72
638.419	1	70
638.759	1	81
639.098	1	71
639.437	1	75
639.776	1	71
640.115	1	67
640.454	1	70
640.793	1	75
641.132	1	74
641.472	1	79
641.811	1	62
642.150	1	75
642.489	1	74
642.828	1	86
643.167	1	77
643.506	1	73
643.845	1	85
644.184	1	72
644.524	1	71
644.863	1	66
645.202	1	75
645.541	1	74
645.880	1	83
646.219	1	77
646.558	1	63
646.897	1	71
647.236	1	60
647.575	1	74
647.914	1	74
648.253	1	78
648.592	1	72
648.931	1	80
649.270	1	79
649.610	1	76
649.949	1	65
650.288	1	69
650.627	1	67
650.966	1	73
651.305	1	79
651.644	1	73
651.983	1	59
652.322	1	64
652.661	1	72
653.000	1	67
653.339	1	61
653.678	1	70
654.017	1	64
654.356	1	69
654.695	1	70
655.034	1	57
655.373	1	58
655.712	1	67
656.051	1	61
656.390	1	60
656.729	1	69
657.068	1	58
657.406	1	57
657.745	1	75
658.084	1	70
658.423	1	59
658.762	1	62
659.101	1	61
659.440	1	59
659.779	1	62
660.118	1	57
660.457	1	63
660.796	1	58
661.135	1	56
661.474	1	57
661.813	1	48
662.152	1	68
662.491	1	47
662.829	1	54
663.168	1	53
663.507	1	61
663.846	1	55
664.185	1	54
664.524	1	62
664.863	1	55
665.202	1	58
665.541	1	60
665.879	1	56
666.218	1	49
666.557	1	56
666.896	1	62
667.235	1	50
667.574	1	53
667.913	1	52
668.251	1	48
668.590	1	61
668.929	1	49
669.268	1	56
669.607	1	52
669.946	1	52
670.285	1	66
670.623	1	58
670.962	1	53
671.301	1	49
671.640	1	51
671.979	1	61
672.317	1	47
672.656	1	56
672.995	1	57
673.334	1	44
673.673	1	64
674.011	1	58
674.350	1	64
674.689	1	57
675.028	1	59
675.367	1	60
675.705	1	47
676.044	1	52
676.383	1	56
676.722	1	65
677.060	1	54
677.399	1	61
677.738	1	46
678.077	1	53
678.416	1	42
678.754	1	57
679.093	1	60
679.432	1	55
679.771	1	55
680.109	1	52
680.448	1	51
680.787	1	57
681.125	1	54
681.464	1	58
681.803	1	54
682.142	1	53
682.480	1	50
682.819	1	47
683.158	1	54
683.496	1	40
683.835	1	57
684.174	1	47
684.512	1	46
684.851	1	46
685.190	1	49
685.529	1	56
685.867	1	54
686.206	1	42
686.545	1	51
686.883	1	65
687.222	1	52
687.561	1	59
687.899	1	52
688.238	1	60
688.577	1	56
688.746	1	58