File: Data/GaN_150K_450ms/GaN_sample D_spot15_UVVIS_150 K_200um_450 ms 2x2mm1_64.txt
340.368	1	-1
340.710	1	12
341.052	1	11
341.394	1	1
341.737	1	9
342.079	1	8
342.421	1	4
342.763	1	9
343.105	1	6
343.447	1	5
343.789	1	5
344.131	1	-1
344.473	1	0
344.815	1	5
345.157	1	7
345.499	1	-1
345.841	1	15
346.183	1	4
346.526	1	9
346.868	1	1
347.210	1	2
347.552	1	12
347.894	1	5
348.236	1	12
348.578	1	9
348.920	1	10
349.262	1	5
349.604	1	-5
349.946	1	2
350.288	1	4
350.630	1	10
350.972	1	13
351.314	1	3
351.656	1	15
351.998	1	7
352.340	1	12
352.682	1	-4
353.024	1	16
353.366	1	21
353.708	1	8
354.050	1	11
354.392	1	4
354.734	1	15
355.076	1	26
355.418	1	17
355.760	1	17
356.102	1	17
356.444	1	28
356.785	1	23
357.127	1	25
357.469	1	19
357.811	1	15
358.153	1	21
358.495	1	27
358.837	1	38
359.179	1	33
359.521	1	42
359.863	1	31
360.205	1	53
360.547	1	49
360.889	1	47
361.231	1	69
361.572	1	68
361.914	1	83
362.256	1	94
362.598	1	109
362.940	1	99
363.282	1	106
363.624	1	113
363.966	1	137
364.308	1	165
364.649	1	184
364.991	1	211
365.333	1	221
365.675	1	247
366.017	1	275
366.359	1	280
366.701	1	291
367.042	1	319
367.384	1	326
367.726	1	359
368.068	1	350
368.410	1	367
368.752	1	374
369.093	1	346
369.435	1	337
369.777	1	328
370.119	1	294
370.461	1	271
370.803	1	272
371.144	1	249
371.486	1	233
371.828	1	220
372.170	1	202
372.512	1	202
372.853	1	198
373.195	1	184
373.537	1	155
373.879	1	149
374.220	1	144
374.562	1	141
374.904	1	139
375.246	1	125
375.588	1	110
375.929	1	114
376.271	1	104
376.613	1	99
376.955	1	98
377.296	1	95
377.638	1	88
377.980	1	81
378.321	1	88
378.663	1	77
379.005	1	81
379.347	1	75
379.688	1	75
380.030	1	66
380.372	1	63
380.714	1	63
381.055	1	60
381.397	1	55
381.739	1	44
382.080	1	50
382.422	1	54
382.764	1	45
383.105	1	48
383.447	1	54
383.789	1	39
384.130	1	51
384.472	1	49
384.814	1	53
385.156	1	54
385.497	1	54
385.839	1	42
386.180	1	50
386.522	1	45
386.864	1	28
387.205	1	42
387.547	1	47
387.889	1	39
388.230	1	32
388.572	1	25
388.914	1	38
389.255	1	42
389.597	1	31
389.939	1	40
390.280	1	35
390.622	1	28
390.963	1	27
391.305	1	22
391.647	1	31
391.988	1	24
392.330	1	31
392.671	1	38
393.013	1	26
393.355	1	31
393.696	1	34
394.038	1	29
394.379	1	34
394.721	1	31
395.062	1	18
395.404	1	34
395.746	1	29
396.087	1	29
396.429	1	34
396.770	1	26
397.112	1	18
397.453	1	26
397.795	1	19
398.136	1	35
398.478	1	27
398.819	1	24
399.161	1	23
399.503	1	33
399.844	1	19
400.186	1	21
400.527	1	39
400.869	1	17
401.210	1	19
401.552	1	19
401.893	1	25
402.235	1	26
402.576	1	22
402.918	1	13
403.259	1	23
403.601	1	18
403.942	1	16
404.284	1	19
404.625	1	26
404.967	1	25
405.308	1	4
405.649	1	30
405.991	1	19
406.332	1	20
406.674	1	22
407.015	1	20
407.357	1	19
407.698	1	23
408.040	1	36
408.381	1	15
408.722	1	19
409.064	1	13
409.405	1	17
409.747	1	15
410.088	1	16
410.430	1	32
410.771	1	21
411.112	1	20
411.454	1	24
411.795	1	14
412.137	1	17
412.478	1	24
412.819	1	24
413.161	1	20
413.502	1	27
413.844	1	20
414.185	1	13
414.526	1	15
414.868	1	14
415.209	1	14
415.550	1	19
415.892	1	21
416.233	1	19
416.575	1	-1
416.916	1	13
417.257	1	11
417.599	1	15
417.940	1	7
418.281	1	23
418.623	1	23
418.964	1	29
419.305	1	24
419.647	1	16
419.988	1	23
420.329	1	24
420.671	1	31
421.012	1	21
421.353	1	22
421.695	1	27
422.036	1	21
422.377	1	15
422.718	1	27
423.060	1	24
423.401	1	11
423.742	1	22
424.084	1	15
424.425	1	23
424.766	1	19
425.107	1	23
425.449	1	19
425.790	1	16
426.131	1	17
426.472	1	26
426.814	1	17
427.155	1	12
427.496	1	10
427.837	1	22
428.179	1	32
428.520	1	8
428.861	1	37
429.202	1	9
429.544	1	19
429.885	1	19
430.226	1	13
430.567	1	4
430.909	1	15
431.250	1	14
431.591	1	27
431.932	1	13
432.273	1	26
432.615	1	18
432.956	1	17
433.297	1	13
433.638	1	22
433.979	1	19
434.320	1	16
434.662	1	22
435.003	1	24
435.344	1	9
435.685	1	4
436.026	1	6
436.368	1	11
436.709	1	11
437.050	1	10
437.391	1	12
437.732	1	25
438.073	1	2
438.414	1	21
438.756	1	14
439.097	1	16
439.438	1	17
439.779	1	15
440.120	1	6
440.461	1	7
440.802	1	16
441.143	1	18
441.485	1	11
441.826	1	10
442.167	1	20
442.508	1	7
442.849	1	19
443.190	1	23
443.531	1	10
443.872	1	7
444.213	1	11
444.554	1	7
444.895	1	11
445.237	1	14
445.578	1	11
445.919	1	14
446.260	1	24
446.601	1	22
446.942	1	2
447.283	1	19
447.624	1	-3
447.965	1	16
448.306	1	8
448.647	1	5
448.988	1	17
449.329	1	8
449.670	1	8
450.011	1	10
450.352	1	14
450.693	1	21
451.034	1	12
451.375	1	8
451.716	1	6
452.057	1	9
452.398	1	17
452.739	1	11
453.080	1	18
453.421	1	23
453.762	1	18
454.103	1	16
454.444	1	16
454.785	1	21
455.126	1	8
455.467	1	12
455.808	1	28
456.149	1	7
456.490	1	7
456.831	1	4
457.172	1	22
457.513	1	10
457.854	1	11
458.195	1	16
458.536	1	8
458.877	1	24
459.218	1	17
459.559	1	14
459.899	1	7
460.240	1	13
460.581	1	-2
460.922	1	15
461.263	1	21
461.604	1	16
461.945	1	19
462.286	1	11
462.627	1	7
462.968	1	18
463.309	1	18
463.649	1	6
463.990	1	6
464.331	1	23
464.672	1	12
465.013	1	10
465.354	1	20
465.695	1	11
466.036	1	11
466.376	1	24
466.717	1	6
467.058	1	9
467.399	1	2
467.740	1	28
468.081	1	16
468.422	1	12
468.762	1	19
469.103	1	8
469.444	1	14
469.785	1	1
470.126	1	18
470.467	1	13
470.807	1	21
471.148	1	4
471.489	1	18
471.830	1	9
472.171	1	18
472.511	1	16
472.852	1	22
473.193	1	13
473.534	1	18
473.875	1	13
474.215	1	12
474.556	1	7
474.897	1	10
475.238	1	18
475.578	1	0
475.919	1	9
476.260	1	8
476.601	1	12
476.942	1	8
477.282	1	9
477.623	1	8
477.964	1	11
478.305	1	16
478.645	1	5
478.986	1	15
479.327	1	13
479.667	1	8
480.008	1	12
480.349	1	14
480.690	1	22
481.030	1	3
481.371	1	4
481.712	1	27
482.053	1	24
482.393	1	14
482.734	1	21
483.075	1	27
483.415	1	21
483.756	1	21
484.097	1	29
484.437	1	19
484.778	1	13
485.119	1	17
485.459	1	12
485.800	1	18
486.141	1	25
486.481	1	14
486.822	1	27
487.163	1	24
487.503	1	22
487.844	1	19
488.185	1	23
488.525	1	19
488.866	1	22
489.207	1	33
489.547	1	34
489.888	1	24
490.228	1	28
490.569	1	24
490.910	1	41
491.250	1	35
491.591	1	34
491.932	1	39
492.272	1	20
492.613	1	25
492.953	1	33
493.294	1	31
493.635	1	32
493.975	1	41
494.316	1	24
494.656	1	50
494.997	1	29
495.337	1	39
495.678	1	31
496.019	1	35
496.359	1	33
496.700	1	28
497.040	1	30
497.381	1	35
497.721	1	31
498.062	1	39
498.403	1	41
498.743	1	35
499.084	1	38
499.424	1	38
499.765	1	41
500.105	1	50
500.446	1	43
500.786	1	34
501.127	1	50
501.467	1	53
501.808	1	50
502.148	1	45
502.489	1	52
502.829	1	45
503.170	1	53
503.510	1	45
503.851	1	58
504.191	1	57
504.532	1	53
504.872	1	53
505.213	1	53
505.553	1	60
505.894	1	54
506.234	1	61
506.575	1	67
506.915	1	56
507.256	1	56
507.596	1	61
507.936	1	68
508.277	1	57
508.617	1	66
508.958	1	67
509.298	1	52
509.639	1	50
509.979	1	64
510.319	1	59
510.660	1	58
511.000	1	66
511.341	1	72
511.681	1	57
512.022	1	50
512.362	1	70
512.702	1	60
513.043	1	61
513.383	1	62
513.724	1	65
514.064	1	63
514.404	1	68
514.745	1	59
515.085	1	73
515.425	1	73
515.766	1	67
516.106	1	64
516.447	1	82
516.787	1	81
517.127	1	74
517.468	1	74
517.808	1	59
518.148	1	89
518.489	1	73
518.829	1	74
519.169	1	67
519.510	1	67
519.850	1	82
520.190	1	82
520.531	1	79
520.871	1	76
521.211	1	79
521.552	1	76
521.892	1	71
522.232	1	75
522.573	1	71
522.913	1	81
523.253	1	72
523.593	1	82
523.934	1	71
524.274	1	85
524.614	1	84
524.955	1	86
525.295	1	90
525.635	1	87
525.975	1	79
526.316	1	61
526.656	1	87
526.996	1	80
527.337	1	81
527.677	1	87
528.017	1	81
528.357	1	68
528.698	1	87
529.038	1	82
529.378	1	87
529.718	1	78
530.058	1	80
530.399	1	95
530.739	1	87
531.079	1	80
531.419	1	86
531.760	1	88
532.100	1	98
532.440	1	77
532.780	1	82
533.120	1	90
533.461	1	81
533.801	1	79
534.141	1	79
534.481	1	103
534.821	1	83
535.162	1	93
535.502	1	81
535.842	1	70
536.182	1	76
536.522	1	70
536.862	1	73
537.203	1	81
537.543	1	75
537.883	1	67
538.223	1	86
538.563	1	75
538.903	1	70
539.243	1	72
539.584	1	81
539.924	1	76
540.264	1	90
540.604	1	68
540.944	1	74
541.284	1	72
541.624	1	75
541.964	1	68
542.305	1	82
542.645	1	71
542.985	1	68
543.325	1	76
543.665	1	73
544.005	1	64
544.345	1	80
544.685	1	63
545.025	1	79
545.365	1	75
545.705	1	72
546.045	1	76
546.386	1	64
546.726	1	64
547.066	1	58
547.406	1	61
547.746	1	59
548.086	1	73
548.426	1	75
548.766	1	78
549.106	1	80
549.446	1	79
549.786	1	67
550.126	1	70
550.466	1	66
550.806	1	76
551.146	1	72
551.486	1	72
551.826	1	58
552.166	1	69
552.506	1	68
552.846	1	63
553.186	1	62
553.526	1	67
553.866	1	54
554.206	1	63
554.546	1	65
554.886	1	68
555.226	1	62
555.566	1	59
555.906	1	64
556.246	1	57
556.586	1	57
556.926	1	67
557.266	1	61
557.606	1	54
557.946	1	64
558.286	1	51
558.626	1	61
558.966	1	49
559.306	1	50
559.646	1	55
559.986	1	55
560.325	1	50
560.665	1	56
561.005	1	59
561.345	1	57
561.685	1	69
562.025	1	52
562.365	1	46
562.705	1	58
563.045	1	53
563.385	1	48
563.725	1	48
564.064	1	34
564.404	1	37
564.744	1	57
565.084	1	50
565.424	1	48
565.764	1	50
566.104	1	55
566.444	1	51
566.783	1	53
567.123	1	40
567.463	1	45
567.803	1	47
568.143	1	42
568.483	1	46
568.823	1	38
569.162	1	40
569.502	1	44
569.842	1	47
570.182	1	40
570.522	1	42
570.862	1	29
571.201	1	47
571.541	1	41
571.881	1	40
572.221	1	46
572.561	1	48
572.900	1	44
573.240	1	35
573.580	1	44
573.920	1	37
574.260	1	36
574.599	1	35
574.939	1	42
575.279	1	37
575.619	1	33
575.959	1	33
576.298	1	28
576.638	1	44
576.978	1	43
577.318	1	42
577.657	1	34
577.997	1	35
578.337	1	35
578.677	1	38
579.016	1	34
579.356	1	42
579.696	1	38
580.036	1	33
580.375	1	35
580.715	1	40
581.055	1	36
581.394	1	40
581.734	1	39
582.074	1	32
582.414	1	35
582.753	1	36
583.093	1	41
583.433	1	50
583.772	1	43
584.112	1	38
584.452	1	34
584.791	1	32
585.131	1	37
585.471	1	31
585.811	1	34
586.150	1	29
586.490	1	32
586.830	1	29
587.169	1	16
587.509	1	35
587.849	1	40
588.188	1	26
588.528	1	25
588.867	1	34
589.207	1	27
589.547	1	27
589.886	1	23
590.226	1	17
590.566	1	20
590.905	1	34
591.245	1	0
591.585	1	8
591.924	1	30
592.264	1	18
592.603	1	11
592.943	1	29
593.283	1	26
593.622	1	26
593.962	1	30
594.301	1	18
594.641	1	31
594.981	1	33
595.320	1	22
595.660	1	17
595.999	1	28
596.339	1	20
596.678	1	8
597.018	1	25
597.358	1	20
597.697	1	14
598.037	1	23
598.376	1	22
598.716	1	23
599.055	1	22
599.395	1	14
599.734	1	17
600.074	1	15
600.413	1	21
600.753	1	28
601.092	1	4
601.432	1	19
601.771	1	15
602.111	1	23
602.451	1	19
602.790	1	18
603.130	1	22
603.469	1	20
603.809	1	16
604.148	1	17
604.487	1	33
604.827	1	28
605.166	1	18
605.506	1	13
605.845	1	23
606.185	1	18
606.524	1	10
606.864	1	33
607.203	1	27
607.543	1	25
607.882	1	26
608.222	1	16
608.561	1	16
608.901	1	19
609.240	1	20
609.579	1	9
609.919	1	10
610.258	1	21
610.598	1	7
610.937	1	18
611.277	1	24
611.616	1	26
611.955	1	11
612.295	1	18
612.634	1	16
612.974	1	17
613.313	1	20
613.652	1	24
613.992	1	8
614.331	1	24
614.671	1	26
615.010	1	26
615.349	1	16
615.689	1	7
616.028	1	21
616.368	1	23
616.707	1	16
617.046	1	8
617.386	1	22
617.725	1	10
618.064	1	16
618.404	1	8
618.743	1	25
619.082	1	24
619.422	1	26
619.761	1	13
620.100	1	19
620.440	1	23
620.779	1	30
621.118	1	25
621.458	1	21
621.797	1	10
622.136	1	12
622.476	1	8
622.815	1	10
623.154	1	14
623.494	1	7
623.833	1	14
624.172	1	16
624.511	1	7
624.851	1	13
625.190	1	19
625.529	1	9
625.869	1	20
626.208	1	10
626.547	1	4
626.886	1	16
627.226	1	18
627.565	1	20
627.904	1	1
628.243	1	37
628.583	1	26
628.922	1	19
629.261	1	10
629.600	1	12
629.940	1	20
630.279	1	20
630.618	1	21
630.957	1	19
631.297	1	18
631.636	1	12
631.975	1	10
632.314	1	6
632.653	1	8
632.993	1	11
633.332	1	15
633.671	1	19
634.010	1	14
634.349	1	17
634.689	1	15
635.028	1	7
635.367	1	22
635.706	1	7
636.045	1	6
636.384	1	15
636.724	1	12
637.063	1	10
637.402	1	8
637.741	1	14
638.080	1	8
638.419	1	16
638.759	1	9
639.098	1	13
639.437	1	15
639.776	1	16
640.115	1	-4
640.454	1	11
640.793	1	22
641.132	1	11
641.472	1	17
641.811	1	7
642.150	1	10
642.489	1	16
642.828	1	24
643.167	1	19
643.506	1	15
643.845	1	19
644.184	1	25
644.524	1	11
644.863	1	17
645.202	1	14
645.541	1	15
645.880	1	10
646.219	1	14
646.558	1	-1
646.897	1	2
647.236	1	1
647.575	1	16
647.914	1	9
648.253	1	10
648.592	1	9
648.931	1	13
649.270	1	17
649.610	1	19
649.949	1	16
650.288	1	25
650.627	1	16
650.966	1	6
651.305	1	14
651.644	1	19
651.983	1	9
652.322	1	6
652.661	1	18
653.000	1	17
653.339	1	15
653.678	1	14
654.017	1	17
654.356	1	20
654.695	1	21
655.034	1	13
655.373	1	16
655.712	1	16
656.051	1	13
656.390	1	14
656.729	1	17
657.068	1	7
657.406	1	1
657.745	1	11
658.084	1	12
658.423	1	6
658.762	1	0
659.101	1	10
659.440	1	9
659.779	1	16
660.118	1	5
660.457	1	9
660.796	1	23
661.135	1	14
661.474	1	15
661.813	1	-1
662.152	1	14
662.491	1	-3
662.829	1	8
663.168	1	5
663.507	1	16
663.846	1	11
664.185	1	13
664.524	1	18
664.863	1	-1
665.202	1	24
665.541	1	19
665.879	1	9
666.218	1	17
666.557	1	1
666.896	1	13
667.235	1	6
667.574	1	10
667.913	1	17
668.251	1	2
668.590	1	5
668.929	1	13
669.268	1	1
669.607	1	-2
669.946	1	11
670.285	1	7
670.623	1	10
670.962	1	5
671.301	1	15
671.640	1	6
671.979	1	0
672.317	1	12
672.656	1	12
672.995	1	7
673.334	1	10
673.673	1	21
674.011	1	15
674.350	1	7
674.689	1	0
675.028	1	10
675.367	1	14
675.705	1	5
676.044	1	8
676.383	1	7
676.722	1	5
677.060	1	16
677.399	1	21
677.738	1	11
678.077	1	7
678.416	1	6
678.754	1	6
679.093	1	19
679.432	1	-1
679.771	1	14
680.109	1	1
680.448	1	12
680.787	1	1
681.125	1	12
681.464	1	5
681.803	1	6
682.142	1	11
682.480	1	-2
682.819	1	0
683.158	1	10
683.496	1	9
683.835	1	13
684.174	1	16
684.512	1	13
684.851	1	11
685.190	1	16
685.529	1	16
685.867	1	16
686.206	1	2
686.545	1	10
686.883	1	14
687.222	1	10
687.561	1	6
687.899	1	16
688.238	1	17
688.577	1	13
688.746	1	19