File: Data/GaN_150K_450ms/GaN_sample D_spot15_UVVIS_150 K_200um_450 ms 2x2mm1_95.txt
340.368	1	4
340.710	1	-3
341.052	1	2
341.394	1	1
341.737	1	5
342.079	1	-2
342.421	1	-3
342.763	1	9
343.105	1	3
343.447	1	6
343.789	1	6
344.131	1	2
344.473	1	3
344.815	1	1
345.157	1	10
345.499	1	7
345.841	1	3
346.183	1	4
346.526	1	11
346.868	1	4
347.210	1	-4
347.552	1	9
347.894	1	-2
348.236	1	6
348.578	1	7
348.920	1	-3
349.262	1	9
349.604	1	-4
349.946	1	3
350.288	1	7
350.630	1	-6
350.972	1	12
351.314	1	6
351.656	1	5
351.998	1	17
352.340	1	17
352.682	1	1
353.024	1	14
353.366	1	9
353.708	1	9
354.050	1	7
354.392	1	3
354.734	1	14
355.076	1	20
355.418	1	7
355.760	1	5
356.102	1	8
356.444	1	17
356.785	1	16
357.127	1	10
357.469	1	16
357.811	1	11
358.153	1	4
358.495	1	12
358.837	1	29
359.179	1	27
359.521	1	24
359.863	1	12
360.205	1	31
360.547	1	26
360.889	1	26
361.231	1	23
361.572	1	40
361.914	1	32
362.256	1	50
362.598	1	42
362.940	1	43
363.282	1	41
363.624	1	46
363.966	1	49
364.308	1	63
364.649	1	67
364.991	1	77
365.333	1	69
365.675	1	94
366.017	1	91
366.359	1	84
366.701	1	86
367.042	1	111
367.384	1	101
367.726	1	117
368.068	1	114
368.410	1	103
368.752	1	110
369.093	1	105
369.435	1	110
369.777	1	104
370.119	1	100
370.461	1	91
370.803	1	76
371.144	1	88
371.486	1	78
371.828	1	66
372.170	1	70
372.512	1	64
372.853	1	71
373.195	1	60
373.537	1	54
373.879	1	70
374.220	1	57
374.562	1	54
374.904	1	51
375.246	1	45
375.588	1	50
375.929	1	47
376.271	1	43
376.613	1	44
376.955	1	34
377.296	1	45
377.638	1	32
377.980	1	33
378.321	1	37
378.663	1	37
379.005	1	32
379.347	1	34
379.688	1	40
380.030	1	33
380.372	1	30
380.714	1	31
381.055	1	33
381.397	1	23
381.739	1	14
382.080	1	28
382.422	1	28
382.764	1	25
383.105	1	22
383.447	1	7
383.789	1	12
384.130	1	15
384.472	1	19
384.814	1	25
385.156	1	21
385.497	1	26
385.839	1	17
386.180	1	14
386.522	1	26
386.864	1	8
387.205	1	18
387.547	1	27
387.889	1	21
388.230	1	11
388.572	1	6
388.914	1	19
389.255	1	9
389.597	1	10
389.939	1	29
390.280	1	8
390.622	1	9
390.963	1	10
391.305	1	16
391.647	1	15
391.988	1	9
392.330	1	9
392.671	1	27
393.013	1	12
393.355	1	16
393.696	1	15
394.038	1	12
394.379	1	21
394.721	1	18
395.062	1	5
395.404	1	14
395.746	1	-1
396.087	1	11
396.429	1	10
396.770	1	14
397.112	1	15
397.453	1	9
397.795	1	4
398.136	1	17
398.478	1	7
398.819	1	19
399.161	1	17
399.503	1	21
399.844	1	3
400.186	1	18
400.527	1	15
400.869	1	17
401.210	1	7
401.552	1	10
401.893	1	12
402.235	1	21
402.576	1	14
402.918	1	11
403.259	1	12
403.601	1	16
403.942	1	8
404.284	1	19
404.625	1	9
404.967	1	16
405.308	1	4
405.649	1	11
405.991	1	10
406.332	1	14
406.674	1	12
407.015	1	9
407.357	1	21
407.698	1	21
408.040	1	22
408.381	1	12
408.722	1	16
409.064	1	23
409.405	1	17
409.747	1	12
410.088	1	17
410.430	1	24
410.771	1	18
411.112	1	15
411.454	1	19
411.795	1	16
412.137	1	9
412.478	1	10
412.819	1	24
413.161	1	21
413.502	1	8
413.844	1	17
414.185	1	7
414.526	1	6
414.868	1	12
415.209	1	4
415.550	1	11
415.892	1	25
416.233	1	8
416.575	1	7
416.916	1	3
417.257	1	6
417.599	1	27
417.940	1	6
418.281	1	18
418.623	1	8
418.964	1	32
419.305	1	15
419.647	1	15
419.988	1	23
420.329	1	12
420.671	1	10
421.012	1	9
421.353	1	23
421.695	1	23
422.036	1	24
422.377	1	7
422.718	1	20
423.060	1	16
423.401	1	8
423.742	1	18
424.084	1	14
424.425	1	14
424.766	1	12
425.107	1	12
425.449	1	7
425.790	1	9
426.131	1	5
426.472	1	16
426.814	1	16
427.155	1	15
427.496	1	9
427.837	1	17
428.179	1	21
428.520	1	9
428.861	1	18
429.202	1	5
429.544	1	15
429.885	1	17
430.226	1	0
430.567	1	6
430.909	1	15
431.250	1	20
431.591	1	12
431.932	1	7
432.273	1	19
432.615	1	8
432.956	1	16
433.297	1	16
433.638	1	17
433.979	1	9
434.320	1	15
434.662	1	19
435.003	1	26
435.344	1	10
435.685	1	19
436.026	1	8
436.368	1	1
436.709	1	9
437.050	1	11
437.391	1	13
437.732	1	17
438.073	1	7
438.414	1	21
438.756	1	13
439.097	1	13
439.438	1	17
439.779	1	16
440.120	1	17
440.461	1	12
440.802	1	17
441.143	1	15
441.485	1	13
441.826	1	23
442.167	1	10
442.508	1	18
442.849	1	14
443.190	1	10
443.531	1	5
443.872	1	1
444.213	1	-9
444.554	1	14
444.895	1	3
445.237	1	17
445.578	1	9
445.919	1	8
446.260	1	17
446.601	1	2
446.942	1	6
447.283	1	18
447.624	1	1
447.965	1	10
448.306	1	8
448.647	1	16
448.988	1	11
449.329	1	16
449.670	1	10
450.011	1	11
450.352	1	1
450.693	1	18
451.034	1	4
451.375	1	4
451.716	1	14
452.057	1	13
452.398	1	14
452.739	1	11
453.080	1	12
453.421	1	15
453.762	1	26
454.103	1	14
454.444	1	6
454.785	1	6
455.126	1	8
455.467	1	14
455.808	1	12
456.149	1	7
456.490	1	5
456.831	1	1
457.172	1	9
457.513	1	9
457.854	1	6
458.195	1	8
458.536	1	12
458.877	1	9
459.218	1	13
459.559	1	14
459.899	1	-2
460.240	1	2
460.581	1	8
460.922	1	14
461.263	1	18
461.604	1	7
461.945	1	9
462.286	1	-3
462.627	1	13
462.968	1	8
463.309	1	15
463.649	1	-7
463.990	1	8
464.331	1	17
464.672	1	7
465.013	1	-6
465.354	1	12
465.695	1	12
466.036	1	20
466.376	1	18
466.717	1	4
467.058	1	9
467.399	1	-5
467.740	1	21
468.081	1	4
468.422	1	6
468.762	1	16
469.103	1	6
469.444	1	8
469.785	1	4
470.126	1	17
470.467	1	7
470.807	1	20
471.148	1	6
471.489	1	14
471.830	1	6
472.171	1	16
472.511	1	15
472.852	1	15
473.193	1	8
473.534	1	10
473.875	1	5
474.215	1	4
474.556	1	5
474.897	1	3
475.238	1	13
475.578	1	0
475.919	1	10
476.260	1	1
476.601	1	4
476.942	1	5
477.282	1	4
477.623	1	1
477.964	1	18
478.305	1	8
478.645	1	11
478.986	1	9
479.327	1	13
479.667	1	6
480.008	1	15
480.349	1	4
480.690	1	9
481.030	1	8
481.371	1	4
481.712	1	11
482.053	1	24
482.393	1	16
482.734	1	7
483.075	1	17
483.415	1	4
483.756	1	10
484.097	1	5
484.437	1	20
484.778	1	5
485.119	1	15
485.459	1	13
485.800	1	9
486.141	1	20
486.481	1	-2
486.822	1	12
487.163	1	7
487.503	1	15
487.844	1	9
488.185	1	12
488.525	1	2
488.866	1	9
489.207	1	14
489.547	1	17
489.888	1	14
490.228	1	14
490.569	1	6
490.910	1	15
491.250	1	6
491.591	1	5
491.932	1	25
492.272	1	3
492.613	1	10
492.953	1	19
493.294	1	4
493.635	1	13
493.975	1	22
494.316	1	7
494.656	1	31
494.997	1	13
495.337	1	-1
495.678	1	3
496.019	1	16
496.359	1	2
496.700	1	13
497.040	1	14
497.381	1	14
497.721	1	11
498.062	1	14
498.403	1	15
498.743	1	9
499.084	1	16
499.424	1	7
499.765	1	29
500.105	1	25
500.446	1	7
500.786	1	11
501.127	1	29
501.467	1	24
501.808	1	11
502.148	1	16
502.489	1	13
502.829	1	16
503.170	1	26
503.510	1	10
503.851	1	15
504.191	1	15
504.532	1	28
504.872	1	17
505.213	1	10
505.553	1	22
505.894	1	18
506.234	1	24
506.575	1	32
506.915	1	21
507.256	1	10
507.596	1	31
507.936	1	30
508.277	1	38
508.617	1	19
508.958	1	21
509.298	1	15
509.639	1	19
509.979	1	13
510.319	1	20
510.660	1	8
511.000	1	8
511.341	1	21
511.681	1	27
512.022	1	11
512.362	1	31
512.702	1	11
513.043	1	25
513.383	1	18
513.724	1	15
514.064	1	24
514.404	1	20
514.745	1	20
515.085	1	26
515.425	1	26
515.766	1	21
516.106	1	25
516.447	1	34
516.787	1	20
517.127	1	30
517.468	1	36
517.808	1	10
518.148	1	24
518.489	1	29
518.829	1	31
519.169	1	20
519.510	1	21
519.850	1	29
520.190	1	29
520.531	1	32
520.871	1	31
521.211	1	26
521.552	1	28
521.892	1	35
522.232	1	26
522.573	1	23
522.913	1	48
523.253	1	37
523.593	1	33
523.934	1	25
524.274	1	19
524.614	1	35
524.955	1	37
525.295	1	44
525.635	1	33
525.975	1	9
526.316	1	14
526.656	1	35
526.996	1	32
527.337	1	24
527.677	1	38
528.017	1	22
528.357	1	23
528.698	1	38
529.038	1	30
529.378	1	32
529.718	1	28
530.058	1	27
530.399	1	32
530.739	1	34
531.079	1	36
531.419	1	24
531.760	1	40
532.100	1	36
532.440	1	29
532.780	1	41
533.120	1	30
533.461	1	23
533.801	1	36
534.141	1	31
534.481	1	43
534.821	1	30
535.162	1	34
535.502	1	30
535.842	1	27
536.182	1	27
536.522	1	25
536.862	1	34
537.203	1	20
537.543	1	24
537.883	1	27
538.223	1	40
538.563	1	20
538.903	1	25
539.243	1	36
539.584	1	12
539.924	1	28
540.264	1	39
540.604	1	31
540.944	1	38
541.284	1	27
541.624	1	26
541.964	1	31
542.305	1	36
542.645	1	18
542.985	1	20
543.325	1	30
543.665	1	19
544.005	1	31
544.345	1	32
544.685	1	17
545.025	1	23
545.365	1	41
545.705	1	24
546.045	1	31
546.386	1	24
546.726	1	22
547.066	1	31
547.406	1	22
547.746	1	31
548.086	1	24
548.426	1	23
548.766	1	28
549.106	1	16
549.446	1	27
549.786	1	33
550.126	1	22
550.466	1	19
550.806	1	42
551.146	1	26
551.486	1	20
551.826	1	26
552.166	1	25
552.506	1	23
552.846	1	27
553.186	1	13
553.526	1	22
553.866	1	17
554.206	1	20
554.546	1	31
554.886	1	27
555.226	1	20
555.566	1	22
555.906	1	11
556.246	1	27
556.586	1	15
556.926	1	11
557.266	1	30
557.606	1	10
557.946	1	23
558.286	1	6
558.626	1	23
558.966	1	21
559.306	1	27
559.646	1	17
559.986	1	26
560.325	1	15
560.665	1	16
561.005	1	20
561.345	1	17
561.685	1	20
562.025	1	14
562.365	1	17
562.705	1	22
563.045	1	16
563.385	1	21
563.725	1	9
564.064	1	23
564.404	1	14
564.744	1	26
565.084	1	11
565.424	1	14
565.764	1	15
566.104	1	24
566.444	1	20
566.783	1	9
567.123	1	12
567.463	1	21
567.803	1	14
568.143	1	16
568.483	1	19
568.823	1	12
569.162	1	5
569.502	1	16
569.842	1	16
570.182	1	13
570.522	1	15
570.862	1	-3
571.201	1	27
571.541	1	9
571.881	1	21
572.221	1	15
572.561	1	12
572.900	1	17
573.240	1	13
573.580	1	9
573.920	1	16
574.260	1	12
574.599	1	10
574.939	1	14
575.279	1	6
575.619	1	15
575.959	1	9
576.298	1	1
576.638	1	16
576.978	1	24
577.318	1	26
577.657	1	12
577.997	1	19
578.337	1	15
578.677	1	16
579.016	1	23
579.356	1	13
579.696	1	16
580.036	1	12
580.375	1	10
580.715	1	15
581.055	1	8
581.394	1	8
581.734	1	11
582.074	1	12
582.414	1	8
582.753	1	14
583.093	1	14
583.433	1	16
583.772	1	22
584.112	1	18
584.452	1	13
584.791	1	10
585.131	1	15
585.471	1	18
585.811	1	9
586.150	1	12
586.490	1	7
586.830	1	11
587.169	1	14
587.509	1	15
587.849	1	18
588.188	1	13
588.528	1	1
588.867	1	10
589.207	1	14
589.547	1	12
589.886	1	14
590.226	1	12
590.566	1	14
590.905	1	3
591.245	1	11
591.585	1	10
591.924	1	7
592.264	1	7
592.603	1	-7
592.943	1	2
593.283	1	16
593.622	1	9
593.962	1	12
594.301	1	10
594.641	1	16
594.981	1	10
595.320	1	13
595.660	1	9
595.999	1	6
596.339	1	5
596.678	1	2
597.018	1	6
597.358	1	9
597.697	1	3
598.037	1	5
598.376	1	-3
598.716	1	16
599.055	1	19
599.395	1	7
599.734	1	10
600.074	1	9
600.413	1	4
600.753	1	12
601.092	1	9
601.432	1	0
601.771	1	15
602.111	1	10
602.451	1	-3
602.790	1	13
603.130	1	4
603.469	1	5
603.809	1	13
604.148	1	1
604.487	1	9
604.827	1	9
605.166	1	6
605.506	1	4
605.845	1	16
606.185	1	9
606.524	1	-1
606.864	1	4
607.203	1	6
607.543	1	10
607.882	1	8
608.222	1	-1
608.561	1	8
608.901	1	14
609.240	1	17
609.579	1	4
609.919	1	-1
610.258	1	10
610.598	1	7
610.937	1	5
611.277	1	14
611.616	1	8
611.955	1	-1
612.295	1	15
612.634	1	17
612.974	1	2
613.313	1	1
613.652	1	19
613.992	1	1
614.331	1	19
614.671	1	3
615.010	1	8
615.349	1	6
615.689	1	4
616.028	1	19
616.368	1	10
616.707	1	6
617.046	1	-5
617.386	1	14
617.725	1	4
618.064	1	7
618.404	1	0
618.743	1	0
619.082	1	15
619.422	1	17
619.761	1	2
620.100	1	2
620.440	1	8
620.779	1	15
621.118	1	11
621.458	1	3
621.797	1	0
622.136	1	1
622.476	1	2
622.815	1	4
623.154	1	-3
623.494	1	-7
623.833	1	0
624.172	1	4
624.511	1	3
624.851	1	3
625.190	1	2
625.529	1	7
625.869	1	3
626.208	1	6
626.547	1	4
626.886	1	-1
627.226	1	23
627.565	1	15
627.904	1	0
628.243	1	19
628.583	1	11
628.922	1	14
629.261	1	6
629.600	1	8
629.940	1	17
630.279	1	12
630.618	1	2
630.957	1	2
631.297	1	5
631.636	1	2
631.975	1	4
632.314	1	4
632.653	1	0
632.993	1	5
633.332	1	7
633.671	1	14
634.010	1	10
634.349	1	12
634.689	1	5
635.028	1	9
635.367	1	8
635.706	1	4
636.045	1	1
636.384	1	13
636.724	1	9
637.063	1	4
637.402	1	4
637.741	1	1
638.080	1	6
638.419	1	7
638.759	1	-2
639.098	1	6
639.437	1	7
639.776	1	2
640.115	1	-7
640.454	1	8
640.793	1	2
641.132	1	8
641.472	1	16
641.811	1	-1
642.150	1	5
642.489	1	12
642.828	1	12
643.167	1	9
643.506	1	9
643.845	1	12
644.184	1	22
644.524	1	6
644.863	1	7
645.202	1	10
645.541	1	6
645.880	1	14
646.219	1	7
646.558	1	0
646.897	1	-5
647.236	1	-3
647.575	1	20
647.914	1	3
648.253	1	19
648.592	1	11
648.931	1	8
649.270	1	11
649.610	1	10
649.949	1	10
650.288	1	10
650.627	1	1
650.966	1	11
651.305	1	12
651.644	1	23
651.983	1	2
652.322	1	0
652.661	1	16
653.000	1	12
653.339	1	-1
653.678	1	11
654.017	1	9
654.356	1	3
654.695	1	12
655.034	1	8
655.373	1	0
655.712	1	13
656.051	1	5
656.390	1	6
656.729	1	11
657.068	1	1
657.406	1	6
657.745	1	9
658.084	1	10
658.423	1	13
658.762	1	3
659.101	1	7
659.440	1	13
659.779	1	14
660.118	1	6
660.457	1	4
660.796	1	8
661.135	1	15
661.474	1	8
661.813	1	1
662.152	1	5
662.491	1	0
662.829	1	8
663.168	1	8
663.507	1	11
663.846	1	-1
664.185	1	6
664.524	1	10
664.863	1	0
665.202	1	13
665.541	1	15
665.879	1	19
666.218	1	1
666.557	1	1
666.896	1	7
667.235	1	2
667.574	1	-5
667.913	1	3
668.251	1	3
668.590	1	9
668.929	1	7
669.268	1	2
669.607	1	-6
669.946	1	9
670.285	1	12
670.623	1	6
670.962	1	-1
671.301	1	11
671.640	1	9
671.979	1	2
672.317	1	9
672.656	1	13
672.995	1	7
673.334	1	0
673.673	1	14
674.011	1	13
674.350	1	8
674.689	1	-6
675.028	1	9
675.367	1	3
675.705	1	-3
676.044	1	1
676.383	1	-2
676.722	1	4
677.060	1	13
677.399	1	20
677.738	1	-7
678.077	1	-3
678.416	1	-2
678.754	1	6
679.093	1	13
679.432	1	3
679.771	1	10
680.109	1	0
680.448	1	3
680.787	1	-2
681.125	1	6
681.464	1	11
681.803	1	10
682.142	1	7
682.480	1	-1
682.819	1	2
683.158	1	2
683.496	1	3
683.835	1	11
684.174	1	4
684.512	1	11
684.851	1	4
685.190	1	7
685.529	1	3
685.867	1	6
686.206	1	-2
686.545	1	13
686.883	1	16
687.222	1	8
687.561	1	9
687.899	1	9
688.238	1	17
688.577	1	14
688.746	1	12