File: Data/GaN_150K_450ms/GaN_sample D_spot15_UVVIS_150 K_200um_450 ms 2x2mm1_306.txt
340.368	1	6
340.710	1	5
341.052	1	6
341.394	1	-3
341.737	1	8
342.079	1	0
342.421	1	-1
342.763	1	0
343.105	1	7
343.447	1	-1
343.789	1	9
344.131	1	-10
344.473	1	3
344.815	1	0
345.157	1	6
345.499	1	-3
345.841	1	11
346.183	1	5
346.526	1	0
346.868	1	2
347.210	1	-6
347.552	1	15
347.894	1	-7
348.236	1	-1
348.578	1	0
348.920	1	4
349.262	1	11
349.604	1	-4
349.946	1	0
350.288	1	-5
350.630	1	-1
350.972	1	5
351.314	1	-4
351.656	1	4
351.998	1	2
352.340	1	10
352.682	1	-8
353.024	1	12
353.366	1	2
353.708	1	3
354.050	1	-12
354.392	1	-8
354.734	1	9
355.076	1	14
355.418	1	0
355.760	1	11
356.102	1	0
356.444	1	12
356.785	1	7
357.127	1	12
357.469	1	-2
357.811	1	6
358.153	1	-12
358.495	1	3
358.837	1	9
359.179	1	1
359.521	1	6
359.863	1	-3
360.205	1	4
360.547	1	9
360.889	1	-5
361.231	1	8
361.572	1	7
361.914	1	5
362.256	1	8
362.598	1	3
362.940	1	14
363.282	1	-2
363.624	1	19
363.966	1	-9
364.308	1	11
364.649	1	-2
364.991	1	10
365.333	1	-4
365.675	1	15
366.017	1	15
366.359	1	9
366.701	1	-5
367.042	1	18
367.384	1	2
367.726	1	6
368.068	1	15
368.410	1	12
368.752	1	23
369.093	1	13
369.435	1	22
369.777	1	17
370.119	1	14
370.461	1	8
370.803	1	6
371.144	1	6
371.486	1	2
371.828	1	1
372.170	1	7
372.512	1	-3
372.853	1	18
373.195	1	3
373.537	1	-5
373.879	1	5
374.220	1	10
374.562	1	12
374.904	1	1
375.246	1	4
375.588	1	7
375.929	1	4
376.271	1	-7
376.613	1	6
376.955	1	2
377.296	1	4
377.638	1	6
377.980	1	4
378.321	1	8
378.663	1	5
379.005	1	9
379.347	1	8
379.688	1	12
380.030	1	4
380.372	1	5
380.714	1	0
381.055	1	-6
381.397	1	9
381.739	1	-10
382.080	1	9
382.422	1	11
382.764	1	5
383.105	1	-3
383.447	1	-2
383.789	1	-7
384.130	1	3
384.472	1	-6
384.814	1	13
385.156	1	3
385.497	1	19
385.839	1	2
386.180	1	1
386.522	1	7
386.864	1	-4
387.205	1	6
387.547	1	10
387.889	1	-6
388.230	1	1
388.572	1	-5
388.914	1	10
389.255	1	-4
389.597	1	-2
389.939	1	10
390.280	1	0
390.622	1	3
390.963	1	-3
391.305	1	-6
391.647	1	0
391.988	1	2
392.330	1	2
392.671	1	2
393.013	1	8
393.355	1	15
393.696	1	3
394.038	1	10
394.379	1	9
394.721	1	-7
395.062	1	-6
395.404	1	0
395.746	1	-1
396.087	1	11
396.429	1	2
396.770	1	-2
397.112	1	4
397.453	1	-4
397.795	1	-3
398.136	1	6
398.478	1	-4
398.819	1	10
399.161	1	3
399.503	1	2
399.844	1	6
400.186	1	-3
400.527	1	11
400.869	1	-6
401.210	1	3
401.552	1	-3
401.893	1	5
402.235	1	8
402.576	1	4
402.918	1	-10
403.259	1	-6
403.601	1	-1
403.942	1	-2
404.284	1	12
404.625	1	-6
404.967	1	4
405.308	1	-7
405.649	1	4
405.991	1	1
406.332	1	8
406.674	1	-1
407.015	1	7
407.357	1	1
407.698	1	10
408.040	1	8
408.381	1	0
408.722	1	9
409.064	1	8
409.405	1	10
409.747	1	-1
410.088	1	2
410.430	1	10
410.771	1	3
411.112	1	8
411.454	1	8
411.795	1	0
412.137	1	-8
412.478	1	7
412.819	1	9
413.161	1	11
413.502	1	-1
413.844	1	7
414.185	1	-1
414.526	1	0
414.868	1	0
415.209	1	-5
415.550	1	5
415.892	1	9
416.233	1	-4
416.575	1	-8
416.916	1	0
417.257	1	5
417.599	1	8
417.940	1	-3
418.281	1	8
418.623	1	6
418.964	1	13
419.305	1	-5
419.647	1	5
419.988	1	7
420.329	1	10
420.671	1	7
421.012	1	2
421.353	1	14
421.695	1	13
422.036	1	9
422.377	1	-2
422.718	1	1
423.060	1	8
423.401	1	0
423.742	1	12
424.084	1	7
424.425	1	8
424.766	1	2
425.107	1	-5
425.449	1	10
425.790	1	2
426.131	1	-8
426.472	1	12
426.814	1	4
427.155	1	-3
427.496	1	1
427.837	1	8
428.179	1	6
428.520	1	6
428.861	1	-5
429.202	1	-1
429.544	1	3
429.885	1	12
430.226	1	-15
430.567	1	-11
430.909	1	-9
431.250	1	3
431.591	1	-2
431.932	1	6
432.273	1	6
432.615	1	9
432.956	1	-4
433.297	1	7
433.638	1	3
433.979	1	4
434.320	1	3
434.662	1	7
435.003	1	13
435.344	1	2
435.685	1	-1
436.026	1	0
436.368	1	-7
436.709	1	-9
437.050	1	5
437.391	1	4
437.732	1	6
438.073	1	0
438.414	1	0
438.756	1	2
439.097	1	9
439.438	1	2
439.779	1	4
440.120	1	3
440.461	1	-3
440.802	1	3
441.143	1	-3
441.485	1	-3
441.826	1	14
442.167	1	-4
442.508	1	10
442.849	1	16
443.190	1	3
443.531	1	1
443.872	1	-9
444.213	1	4
444.554	1	4
444.895	1	2
445.237	1	5
445.578	1	-2
445.919	1	3
446.260	1	6
446.601	1	3
446.942	1	-2
447.283	1	2
447.624	1	-7
447.965	1	2
448.306	1	1
448.647	1	1
448.988	1	5
449.329	1	5
449.670	1	5
450.011	1	3
450.352	1	-4
450.693	1	3
451.034	1	0
451.375	1	6
451.716	1	7
452.057	1	4
452.398	1	5
452.739	1	-1
453.080	1	4
453.421	1	14
453.762	1	2
454.103	1	5
454.444	1	-3
454.785	1	1
455.126	1	-2
455.467	1	2
455.808	1	9
456.149	1	-6
456.490	1	-6
456.831	1	-4
457.172	1	-1
457.513	1	6
457.854	1	-3
458.195	1	4
458.536	1	3
458.877	1	7
459.218	1	4
459.559	1	7
459.899	1	-3
460.240	1	-1
460.581	1	-1
460.922	1	0
461.263	1	12
461.604	1	-4
461.945	1	6
462.286	1	1
462.627	1	2
462.968	1	9
463.309	1	1
463.649	1	11
463.990	1	-5
464.331	1	6
464.672	1	4
465.013	1	5
465.354	1	13
465.695	1	1
466.036	1	9
466.376	1	8
466.717	1	-6
467.058	1	-6
467.399	1	-6
467.740	1	12
468.081	1	11
468.422	1	7
468.762	1	8
469.103	1	8
469.444	1	-1
469.785	1	2
470.126	1	1
470.467	1	5
470.807	1	7
471.148	1	-10
471.489	1	3
471.830	1	-3
472.171	1	8
472.511	1	6
472.852	1	2
473.193	1	2
473.534	1	0
473.875	1	7
474.215	1	4
474.556	1	-6
474.897	1	-2
475.238	1	9
475.578	1	1
475.919	1	5
476.260	1	-3
476.601	1	3
476.942	1	-2
477.282	1	-4
477.623	1	-2
477.964	1	8
478.305	1	1
478.645	1	-2
478.986	1	12
479.327	1	9
479.667	1	0
480.008	1	10
480.349	1	-1
480.690	1	4
481.030	1	-8
481.371	1	-19
481.712	1	4
482.053	1	3
482.393	1	3
482.734	1	-3
483.075	1	-4
483.415	1	3
483.756	1	-3
484.097	1	2
484.437	1	8
484.778	1	-6
485.119	1	-1
485.459	1	-6
485.800	1	-3
486.141	1	10
486.481	1	-12
486.822	1	4
487.163	1	-5
487.503	1	4
487.844	1	0
488.185	1	8
488.525	1	-11
488.866	1	-1
489.207	1	8
489.547	1	0
489.888	1	8
490.228	1	-3
490.569	1	-4
490.910	1	11
491.250	1	4
491.591	1	2
491.932	1	9
492.272	1	-9
492.613	1	-3
492.953	1	-7
493.294	1	-2
493.635	1	2
493.975	1	15
494.316	1	-6
494.656	1	12
494.997	1	-1
495.337	1	-4
495.678	1	-1
496.019	1	-1
496.359	1	-5
496.700	1	1
497.040	1	-3
497.381	1	3
497.721	1	-9
498.062	1	0
498.403	1	3
498.743	1	6
499.084	1	-3
499.424	1	0
499.765	1	5
500.105	1	5
500.446	1	1
500.786	1	-2
501.127	1	-5
501.467	1	9
501.808	1	-3
502.148	1	-3
502.489	1	-5
502.829	1	3
503.170	1	6
503.510	1	0
503.851	1	9
504.191	1	-5
504.532	1	15
504.872	1	0
505.213	1	-1
505.553	1	-4
505.894	1	6
506.234	1	12
506.575	1	15
506.915	1	3
507.256	1	2
507.596	1	7
507.936	1	7
508.277	1	12
508.617	1	-1
508.958	1	7
509.298	1	-3
509.639	1	-4
509.979	1	8
510.319	1	-5
510.660	1	-3
511.000	1	-2
511.341	1	15
511.681	1	8
512.022	1	1
512.362	1	8
512.702	1	-1
513.043	1	9
513.383	1	-1
513.724	1	3
514.064	1	7
514.404	1	2
514.745	1	2
515.085	1	-2
515.425	1	9
515.766	1	3
516.106	1	-2
516.447	1	8
516.787	1	0
517.127	1	9
517.468	1	6
517.808	1	-1
518.148	1	-2
518.489	1	-2
518.829	1	3
519.169	1	-2
519.510	1	-10
519.850	1	-3
520.190	1	2
520.531	1	7
520.871	1	-1
521.211	1	0
521.552	1	-4
521.892	1	-3
522.232	1	-5
522.573	1	6
522.913	1	10
523.253	1	10
523.593	1	12
523.934	1	9
524.274	1	-3
524.614	1	7
524.955	1	-1
525.295	1	4
525.635	1	7
525.975	1	6
526.316	1	-9
526.656	1	1
526.996	1	-4
527.337	1	2
527.677	1	19
528.017	1	2
528.357	1	7
528.698	1	1
529.038	1	8
529.378	1	0
529.718	1	-5
530.058	1	-2
530.399	1	-5
530.739	1	1
531.079	1	2
531.419	1	5
531.760	1	8
532.100	1	4
532.440	1	-2
532.780	1	7
533.120	1	5
533.461	1	0
533.801	1	2
534.141	1	7
534.481	1	12
534.821	1	-3
535.162	1	6
535.502	1	9
535.842	1	7
536.182	1	12
536.522	1	0
536.862	1	1
537.203	1	6
537.543	1	1
537.883	1	-4
538.223	1	17
538.563	1	2
538.903	1	-5
539.243	1	-3
539.584	1	-9
539.924	1	5
540.264	1	17
540.604	1	17
540.944	1	13
541.284	1	0
541.624	1	1
541.964	1	1
542.305	1	9
542.645	1	-4
542.985	1	-6
543.325	1	11
543.665	1	6
544.005	1	9
544.345	1	10
544.685	1	-6
545.025	1	0
545.365	1	-1
545.705	1	0
546.045	1	3
546.386	1	-2
546.726	1	-1
547.066	1	-4
547.406	1	-7
547.746	1	1
548.086	1	9
548.426	1	4
548.766	1	10
549.106	1	-2
549.446	1	-1
549.786	1	1
550.126	1	5
550.466	1	0
550.806	1	19
551.146	1	0
551.486	1	0
551.826	1	-9
552.166	1	12
552.506	1	-7
552.846	1	6
553.186	1	-15
553.526	1	7
553.866	1	-3
554.206	1	2
554.546	1	1
554.886	1	1
555.226	1	-5
555.566	1	6
555.906	1	-13
556.246	1	7
556.586	1	0
556.926	1	3
557.266	1	9
557.606	1	-14
557.946	1	5
558.286	1	-12
558.626	1	4
558.966	1	0
559.306	1	1
559.646	1	3
559.986	1	9
560.325	1	2
560.665	1	-2
561.005	1	4
561.345	1	0
561.685	1	9
562.025	1	9
562.365	1	4
562.705	1	19
563.045	1	6
563.385	1	8
563.725	1	-3
564.064	1	-2
564.404	1	1
564.744	1	10
565.084	1	7
565.424	1	-1
565.764	1	1
566.104	1	11
566.444	1	4
566.783	1	1
567.123	1	-3
567.463	1	-1
567.803	1	6
568.143	1	0
568.483	1	-2
568.823	1	7
569.162	1	4
569.502	1	0
569.842	1	1
570.182	1	-8
570.522	1	2
570.862	1	-12
571.201	1	8
571.541	1	6
571.881	1	-1
572.221	1	-2
572.561	1	8
572.900	1	14
573.240	1	-4
573.580	1	-3
573.920	1	7
574.260	1	4
574.599	1	10
574.939	1	3
575.279	1	1
575.619	1	1
575.959	1	-1
576.298	1	-11
576.638	1	7
576.978	1	3
577.318	1	8
577.657	1	-10
577.997	1	6
578.337	1	1
578.677	1	2
579.016	1	0
579.356	1	4
579.696	1	1
580.036	1	2
580.375	1	4
580.715	1	5
581.055	1	0
581.394	1	-2
581.734	1	9
582.074	1	-4
582.414	1	-2
582.753	1	-7
583.093	1	7
583.433	1	2
583.772	1	3
584.112	1	-5
584.452	1	6
584.791	1	8
585.131	1	14
585.471	1	-3
585.811	1	7
586.150	1	11
586.490	1	3
586.830	1	-9
587.169	1	5
587.509	1	3
587.849	1	3
588.188	1	2
588.528	1	2
588.867	1	-4
589.207	1	7
589.547	1	0
589.886	1	6
590.226	1	0
590.566	1	-2
590.905	1	-9
591.245	1	-4
591.585	1	-3
591.924	1	-7
592.264	1	1
592.603	1	-10
592.943	1	-5
593.283	1	0
593.622	1	-1
593.962	1	10
594.301	1	-5
594.641	1	-2
594.981	1	10
595.320	1	9
595.660	1	12
595.999	1	-6
596.339	1	7
596.678	1	1
597.018	1	-1
597.358	1	5
597.697	1	0
598.037	1	-3
598.376	1	1
598.716	1	-1
599.055	1	5
599.395	1	-2
599.734	1	0
600.074	1	-8
600.413	1	1
600.753	1	3
601.092	1	-11
601.432	1	-4
601.771	1	4
602.111	1	2
602.451	1	-8
602.790	1	9
603.130	1	-2
603.469	1	1
603.809	1	4
604.148	1	-5
604.487	1	4
604.827	1	4
605.166	1	10
605.506	1	-5
605.845	1	5
606.185	1	-5
606.524	1	-4
606.864	1	13
607.203	1	5
607.543	1	10
607.882	1	6
608.222	1	-3
608.561	1	0
608.901	1	7
609.240	1	1
609.579	1	1
609.919	1	-10
610.258	1	4
610.598	1	-3
610.937	1	17
611.277	1	-6
611.616	1	8
611.955	1	7
612.295	1	1
612.634	1	4
612.974	1	1
613.313	1	2
613.652	1	5
613.992	1	-1
614.331	1	14
614.671	1	9
615.010	1	3
615.349	1	6
615.689	1	-5
616.028	1	12
616.368	1	7
616.707	1	-1
617.046	1	1
617.386	1	6
617.725	1	5
618.064	1	5
618.404	1	-3
618.743	1	1
619.082	1	13
619.422	1	6
619.761	1	6
620.100	1	2
620.440	1	13
620.779	1	5
621.118	1	7
621.458	1	1
621.797	1	1
622.136	1	-6
622.476	1	2
622.815	1	9
623.154	1	-12
623.494	1	-8
623.833	1	0
624.172	1	7
624.511	1	4
624.851	1	1
625.190	1	-6
625.529	1	1
625.869	1	6
626.208	1	1
626.547	1	5
626.886	1	-2
627.226	1	4
627.565	1	4
627.904	1	1
628.243	1	2
628.583	1	1
628.922	1	-1
629.261	1	2
629.600	1	-3
629.940	1	5
630.279	1	11
630.618	1	-1
630.957	1	5
631.297	1	-3
631.636	1	2
631.975	1	0
632.314	1	-3
632.653	1	-4
632.993	1	7
633.332	1	3
633.671	1	13
634.010	1	-1
634.349	1	9
634.689	1	-2
635.028	1	-3
635.367	1	6
635.706	1	-8
636.045	1	-3
636.384	1	10
636.724	1	4
637.063	1	-5
637.402	1	5
637.741	1	-12
638.080	1	3
638.419	1	2
638.759	1	5
639.098	1	6
639.437	1	6
639.776	1	2
640.115	1	-3
640.454	1	-3
640.793	1	10
641.132	1	-4
641.472	1	11
641.811	1	-2
642.150	1	1
642.489	1	7
642.828	1	10
643.167	1	0
643.506	1	-7
643.845	1	5
644.184	1	11
644.524	1	-3
644.863	1	2
645.202	1	-5
645.541	1	4
645.880	1	2
646.219	1	7
646.558	1	-4
646.897	1	-5
647.236	1	-16
647.575	1	3
647.914	1	-2
648.253	1	10
648.592	1	2
648.931	1	7
649.270	1	9
649.610	1	13
649.949	1	-7
650.288	1	0
650.627	1	-7
650.966	1	1
651.305	1	9
651.644	1	17
651.983	1	1
652.322	1	-8
652.661	1	2
653.000	1	7
653.339	1	1
653.678	1	12
654.017	1	5
654.356	1	7
654.695	1	14
655.034	1	-9
655.373	1	3
655.712	1	4
656.051	1	-2
656.390	1	6
656.729	1	11
657.068	1	5
657.406	1	-7
657.745	1	11
658.084	1	-10
658.423	1	5
658.762	1	-3
659.101	1	0
659.440	1	-6
659.779	1	5
660.118	1	1
660.457	1	2
660.796	1	5
661.135	1	3
661.474	1	8
661.813	1	-6
662.152	1	-2
662.491	1	-8
662.829	1	5
663.168	1	-7
663.507	1	3
663.846	1	-6
664.185	1	-2
664.524	1	15
664.863	1	-6
665.202	1	7
665.541	1	-1
665.879	1	-5
666.218	1	4
666.557	1	7
666.896	1	0
667.235	1	-3
667.574	1	-5
667.913	1	10
668.251	1	-8
668.590	1	5
668.929	1	-2
669.268	1	-15
669.607	1	-5
669.946	1	1
670.285	1	-4
670.623	1	0
670.962	1	-1
671.301	1	2
671.640	1	8
671.979	1	0
672.317	1	1
672.656	1	10
672.995	1	0
673.334	1	-5
673.673	1	10
674.011	1	3
674.350	1	-1
674.689	1	-7
675.028	1	9
675.367	1	3
675.705	1	-2
676.044	1	-2
676.383	1	3
676.722	1	4
677.060	1	8
677.399	1	3
677.738	1	0
678.077	1	-3
678.416	1	-2
678.754	1	0
679.093	1	0
679.432	1	-12
679.771	1	6
680.109	1	7
680.448	1	5
680.787	1	-11
681.125	1	0
681.464	1	5
681.803	1	-12
682.142	1	1
682.480	1	-3
682.819	1	1
683.158	1	2
683.496	1	10
683.835	1	5
684.174	1	3
684.512	1	3
684.851	1	0
685.190	1	-2
685.529	1	-5
685.867	1	1
686.206	1	-5
686.545	1	4
686.883	1	2
687.222	1	-8
687.561	1	-2
687.899	1	1
688.238	1	10
688.577	1	-1
688.746	1	-1