File: Data/GaN_150K_450ms/GaN_sample D_spot15_UVVIS_150 K_200um_450 ms 2x2mm1_278.txt
340.368	1	5
340.710	1	-5
341.052	1	2
341.394	1	-10
341.737	1	8
342.079	1	3
342.421	1	-4
342.763	1	2
343.105	1	6
343.447	1	8
343.789	1	-4
344.131	1	-7
344.473	1	3
344.815	1	0
345.157	1	10
345.499	1	7
345.841	1	5
346.183	1	4
346.526	1	4
346.868	1	1
347.210	1	-3
347.552	1	16
347.894	1	-1
348.236	1	10
348.578	1	8
348.920	1	5
349.262	1	7
349.604	1	1
349.946	1	2
350.288	1	-9
350.630	1	-5
350.972	1	11
351.314	1	0
351.656	1	8
351.998	1	1
352.340	1	1
352.682	1	-11
353.024	1	17
353.366	1	2
353.708	1	4
354.050	1	0
354.392	1	-5
354.734	1	6
355.076	1	17
355.418	1	-6
355.760	1	7
356.102	1	0
356.444	1	14
356.785	1	5
357.127	1	12
357.469	1	5
357.811	1	3
358.153	1	-6
358.495	1	8
358.837	1	7
359.179	1	1
359.521	1	17
359.863	1	-1
360.205	1	4
360.547	1	8
360.889	1	-11
361.231	1	7
361.572	1	7
361.914	1	10
362.256	1	7
362.598	1	4
362.940	1	7
363.282	1	-3
363.624	1	6
363.966	1	5
364.308	1	7
364.649	1	7
364.991	1	13
365.333	1	0
365.675	1	18
366.017	1	16
366.359	1	7
366.701	1	2
367.042	1	15
367.384	1	5
367.726	1	9
368.068	1	14
368.410	1	14
368.752	1	23
369.093	1	17
369.435	1	7
369.777	1	20
370.119	1	20
370.461	1	5
370.803	1	8
371.144	1	-1
371.486	1	15
371.828	1	-3
372.170	1	9
372.512	1	5
372.853	1	17
373.195	1	-4
373.537	1	-8
373.879	1	11
374.220	1	9
374.562	1	8
374.904	1	9
375.246	1	1
375.588	1	2
375.929	1	3
376.271	1	4
376.613	1	3
376.955	1	12
377.296	1	6
377.638	1	-1
377.980	1	2
378.321	1	9
378.663	1	5
379.005	1	5
379.347	1	5
379.688	1	6
380.030	1	9
380.372	1	3
380.714	1	0
381.055	1	3
381.397	1	3
381.739	1	-4
382.080	1	9
382.422	1	10
382.764	1	4
383.105	1	4
383.447	1	7
383.789	1	-2
384.130	1	3
384.472	1	3
384.814	1	10
385.156	1	7
385.497	1	9
385.839	1	2
386.180	1	-9
386.522	1	9
386.864	1	-2
387.205	1	11
387.547	1	7
387.889	1	-3
388.230	1	8
388.572	1	-1
388.914	1	-2
389.255	1	9
389.597	1	2
389.939	1	14
390.280	1	5
390.622	1	-3
390.963	1	-7
391.305	1	-5
391.647	1	-2
391.988	1	7
392.330	1	2
392.671	1	5
393.013	1	0
393.355	1	6
393.696	1	7
394.038	1	-6
394.379	1	3
394.721	1	-1
395.062	1	4
395.404	1	0
395.746	1	-1
396.087	1	8
396.429	1	8
396.770	1	4
397.112	1	-4
397.453	1	6
397.795	1	-3
398.136	1	5
398.478	1	5
398.819	1	10
399.161	1	10
399.503	1	14
399.844	1	-6
400.186	1	9
400.527	1	12
400.869	1	-2
401.210	1	7
401.552	1	-3
401.893	1	7
402.235	1	4
402.576	1	3
402.918	1	-15
403.259	1	1
403.601	1	12
403.942	1	0
404.284	1	4
404.625	1	-3
404.967	1	1
405.308	1	-11
405.649	1	7
405.991	1	-1
406.332	1	-1
406.674	1	2
407.015	1	-1
407.357	1	5
407.698	1	8
408.040	1	13
408.381	1	-11
408.722	1	8
409.064	1	6
409.405	1	5
409.747	1	-6
410.088	1	3
410.430	1	10
410.771	1	9
411.112	1	8
411.454	1	2
411.795	1	4
412.137	1	-7
412.478	1	4
412.819	1	7
413.161	1	4
413.502	1	2
413.844	1	5
414.185	1	6
414.526	1	-14
414.868	1	-5
415.209	1	7
415.550	1	0
415.892	1	5
416.233	1	0
416.575	1	2
416.916	1	-1
417.257	1	1
417.599	1	7
417.940	1	-9
418.281	1	9
418.623	1	4
418.964	1	16
419.305	1	2
419.647	1	7
419.988	1	9
420.329	1	9
420.671	1	17
421.012	1	-3
421.353	1	12
421.695	1	11
422.036	1	10
422.377	1	-6
422.718	1	11
423.060	1	3
423.401	1	-4
423.742	1	5
424.084	1	11
424.425	1	-1
424.766	1	1
425.107	1	6
425.449	1	5
425.790	1	3
426.131	1	1
426.472	1	9
426.814	1	-1
427.155	1	2
427.496	1	5
427.837	1	-7
428.179	1	6
428.520	1	6
428.861	1	17
429.202	1	-9
429.544	1	-3
429.885	1	8
430.226	1	-4
430.567	1	1
430.909	1	-1
431.250	1	5
431.591	1	-2
431.932	1	-1
432.273	1	-1
432.615	1	-4
432.956	1	3
433.297	1	0
433.638	1	6
433.979	1	-2
434.320	1	0
434.662	1	5
435.003	1	18
435.344	1	4
435.685	1	1
436.026	1	-10
436.368	1	-1
436.709	1	-8
437.050	1	0
437.391	1	-3
437.732	1	5
438.073	1	-5
438.414	1	1
438.756	1	3
439.097	1	6
439.438	1	9
439.779	1	6
440.120	1	0
440.461	1	1
440.802	1	5
441.143	1	0
441.485	1	6
441.826	1	8
442.167	1	3
442.508	1	1
442.849	1	5
443.190	1	0
443.531	1	2
443.872	1	-4
444.213	1	-6
444.554	1	4
444.895	1	-4
445.237	1	9
445.578	1	-6
445.919	1	-2
446.260	1	6
446.601	1	-5
446.942	1	-1
447.283	1	3
447.624	1	-9
447.965	1	-1
448.306	1	1
448.647	1	3
448.988	1	2
449.329	1	6
449.670	1	-2
450.011	1	2
450.352	1	-4
450.693	1	4
451.034	1	1
451.375	1	0
451.716	1	1
452.057	1	2
452.398	1	8
452.739	1	8
453.080	1	0
453.421	1	6
453.762	1	7
454.103	1	5
454.444	1	-4
454.785	1	7
455.126	1	-3
455.467	1	-4
455.808	1	9
456.149	1	-2
456.490	1	-5
456.831	1	0
457.172	1	-3
457.513	1	1
457.854	1	-2
458.195	1	2
458.536	1	5
458.877	1	5
459.218	1	14
459.559	1	-7
459.899	1	2
460.240	1	-4
460.581	1	-6
460.922	1	6
461.263	1	8
461.604	1	0
461.945	1	3
462.286	1	-2
462.627	1	-8
462.968	1	3
463.309	1	10
463.649	1	4
463.990	1	4
464.331	1	7
464.672	1	0
465.013	1	2
465.354	1	13
465.695	1	9
466.036	1	16
466.376	1	13
466.717	1	-7
467.058	1	13
467.399	1	-9
467.740	1	17
468.081	1	5
468.422	1	6
468.762	1	3
469.103	1	2
469.444	1	13
469.785	1	7
470.126	1	4
470.467	1	-4
470.807	1	5
471.148	1	0
471.489	1	4
471.830	1	1
472.171	1	4
472.511	1	-1
472.852	1	10
473.193	1	8
473.534	1	2
473.875	1	0
474.215	1	-1
474.556	1	0
474.897	1	-4
475.238	1	4
475.578	1	-6
475.919	1	6
476.260	1	-4
476.601	1	8
476.942	1	1
477.282	1	-4
477.623	1	0
477.964	1	-3
478.305	1	9
478.645	1	7
478.986	1	15
479.327	1	7
479.667	1	0
480.008	1	6
480.349	1	3
480.690	1	11
481.030	1	-2
481.371	1	3
481.712	1	3
482.053	1	13
482.393	1	3
482.734	1	5
483.075	1	10
483.415	1	-2
483.756	1	10
484.097	1	14
484.437	1	6
484.778	1	7
485.119	1	5
485.459	1	-5
485.800	1	-9
486.141	1	17
486.481	1	-3
486.822	1	2
487.163	1	-1
487.503	1	-5
487.844	1	-2
488.185	1	-5
488.525	1	-6
488.866	1	-1
489.207	1	8
489.547	1	-3
489.888	1	7
490.228	1	2
490.569	1	-5
490.910	1	10
491.250	1	6
491.591	1	-6
491.932	1	6
492.272	1	-11
492.613	1	4
492.953	1	4
493.294	1	-6
493.635	1	4
493.975	1	20
494.316	1	-13
494.656	1	7
494.997	1	-5
495.337	1	-1
495.678	1	0
496.019	1	-2
496.359	1	-6
496.700	1	-8
497.040	1	-3
497.381	1	4
497.721	1	-1
498.062	1	-5
498.403	1	4
498.743	1	14
499.084	1	6
499.424	1	3
499.765	1	2
500.105	1	11
500.446	1	6
500.786	1	-6
501.127	1	6
501.467	1	4
501.808	1	0
502.148	1	-5
502.489	1	-5
502.829	1	2
503.170	1	-4
503.510	1	-5
503.851	1	7
504.191	1	1
504.532	1	2
504.872	1	-5
505.213	1	-1
505.553	1	6
505.894	1	8
506.234	1	6
506.575	1	6
506.915	1	0
507.256	1	7
507.596	1	10
507.936	1	12
508.277	1	1
508.617	1	5
508.958	1	8
509.298	1	2
509.639	1	-7
509.979	1	2
510.319	1	3
510.660	1	-11
511.000	1	1
511.341	1	14
511.681	1	9
512.022	1	-16
512.362	1	11
512.702	1	-2
513.043	1	12
513.383	1	-1
513.724	1	4
514.064	1	-2
514.404	1	7
514.745	1	-4
515.085	1	8
515.425	1	13
515.766	1	-7
516.106	1	0
516.447	1	8
516.787	1	1
517.127	1	6
517.468	1	7
517.808	1	3
518.148	1	11
518.489	1	-1
518.829	1	12
519.169	1	-5
519.510	1	-4
519.850	1	-4
520.190	1	-3
520.531	1	0
520.871	1	5
521.211	1	8
521.552	1	7
521.892	1	-3
522.232	1	3
522.573	1	4
522.913	1	6
523.253	1	8
523.593	1	13
523.934	1	2
524.274	1	7
524.614	1	8
524.955	1	-5
525.295	1	2
525.635	1	-5
525.975	1	-2
526.316	1	-10
526.656	1	11
526.996	1	-3
527.337	1	4
527.677	1	15
528.017	1	-4
528.357	1	6
528.698	1	11
529.038	1	3
529.378	1	-3
529.718	1	-3
530.058	1	4
530.399	1	1
530.739	1	13
531.079	1	0
531.419	1	8
531.760	1	11
532.100	1	9
532.440	1	8
532.780	1	8
533.120	1	4
533.461	1	-6
533.801	1	4
534.141	1	-3
534.481	1	10
534.821	1	3
535.162	1	5
535.502	1	2
535.842	1	2
536.182	1	4
536.522	1	1
536.862	1	0
537.203	1	8
537.543	1	-1
537.883	1	7
538.223	1	15
538.563	1	-5
538.903	1	-3
539.243	1	1
539.584	1	4
539.924	1	1
540.264	1	15
540.604	1	10
540.944	1	2
541.284	1	-1
541.624	1	-2
541.964	1	1
542.305	1	14
542.645	1	-1
542.985	1	-3
543.325	1	10
543.665	1	-4
544.005	1	10
544.345	1	9
544.685	1	-3
545.025	1	3
545.365	1	7
545.705	1	7
546.045	1	3
546.386	1	-3
546.726	1	-1
547.066	1	-6
547.406	1	-7
547.746	1	-2
548.086	1	3
548.426	1	0
548.766	1	4
549.106	1	-8
549.446	1	3
549.786	1	4
550.126	1	2
550.466	1	-2
550.806	1	3
551.146	1	4
551.486	1	7
551.826	1	-4
552.166	1	-8
552.506	1	6
552.846	1	2
553.186	1	-1
553.526	1	0
553.866	1	-1
554.206	1	2
554.546	1	10
554.886	1	1
555.226	1	8
555.566	1	7
555.906	1	0
556.246	1	4
556.586	1	-3
556.926	1	6
557.266	1	-1
557.606	1	2
557.946	1	9
558.286	1	-14
558.626	1	9
558.966	1	6
559.306	1	-5
559.646	1	9
559.986	1	5
560.325	1	-2
560.665	1	1
561.005	1	2
561.345	1	5
561.685	1	-5
562.025	1	-2
562.365	1	0
562.705	1	13
563.045	1	10
563.385	1	2
563.725	1	-7
564.064	1	-6
564.404	1	-6
564.744	1	13
565.084	1	14
565.424	1	-1
565.764	1	-2
566.104	1	7
566.444	1	7
566.783	1	-2
567.123	1	-3
567.463	1	6
567.803	1	3
568.143	1	5
568.483	1	5
568.823	1	1
569.162	1	-8
569.502	1	6
569.842	1	6
570.182	1	2
570.522	1	9
570.862	1	-12
571.201	1	15
571.541	1	-1
571.881	1	-5
572.221	1	2
572.561	1	15
572.900	1	7
573.240	1	-7
573.580	1	5
573.920	1	11
574.260	1	9
574.599	1	5
574.939	1	0
575.279	1	4
575.619	1	-2
575.959	1	0
576.298	1	-7
576.638	1	5
576.978	1	9
577.318	1	-1
577.657	1	-9
577.997	1	5
578.337	1	-4
578.677	1	3
579.016	1	2
579.356	1	1
579.696	1	-5
580.036	1	7
580.375	1	7
580.715	1	7
581.055	1	-6
581.394	1	-6
581.734	1	3
582.074	1	-1
582.414	1	3
582.753	1	0
583.093	1	7
583.433	1	16
583.772	1	7
584.112	1	8
584.452	1	5
584.791	1	10
585.131	1	2
585.471	1	2
585.811	1	9
586.150	1	0
586.490	1	2
586.830	1	3
587.169	1	-5
587.509	1	10
587.849	1	4
588.188	1	8
588.528	1	-2
588.867	1	4
589.207	1	5
589.547	1	2
589.886	1	1
590.226	1	-10
590.566	1	-1
590.905	1	-3
591.245	1	0
591.585	1	-1
591.924	1	-5
592.264	1	3
592.603	1	-11
592.943	1	1
593.283	1	1
593.622	1	-1
593.962	1	2
594.301	1	-4
594.641	1	7
594.981	1	6
595.320	1	4
595.660	1	6
595.999	1	-2
596.339	1	2
596.678	1	-6
597.018	1	-1
597.358	1	-2
597.697	1	-1
598.037	1	2
598.376	1	-1
598.716	1	-1
599.055	1	4
599.395	1	0
599.734	1	-6
600.074	1	-9
600.413	1	-4
600.753	1	2
601.092	1	-5
601.432	1	-9
601.771	1	0
602.111	1	3
602.451	1	8
602.790	1	5
603.130	1	3
603.469	1	2
603.809	1	6
604.148	1	7
604.487	1	-5
604.827	1	5
605.166	1	3
605.506	1	0
605.845	1	4
606.185	1	-6
606.524	1	-8
606.864	1	4
607.203	1	0
607.543	1	2
607.882	1	12
608.222	1	-6
608.561	1	8
608.901	1	14
609.240	1	5
609.579	1	-6
609.919	1	10
610.258	1	10
610.598	1	-2
610.937	1	-2
611.277	1	1
611.616	1	14
611.955	1	6
612.295	1	5
612.634	1	14
612.974	1	-7
613.313	1	3
613.652	1	10
613.992	1	3
614.331	1	10
614.671	1	4
615.010	1	9
615.349	1	4
615.689	1	1
616.028	1	15
616.368	1	9
616.707	1	6
617.046	1	2
617.386	1	6
617.725	1	1
618.064	1	-8
618.404	1	2
618.743	1	-5
619.082	1	10
619.422	1	12
619.761	1	3
620.100	1	-1
620.440	1	15
620.779	1	11
621.118	1	17
621.458	1	6
621.797	1	-1
622.136	1	-5
622.476	1	1
622.815	1	11
623.154	1	-8
623.494	1	-17
623.833	1	-5
624.172	1	8
624.511	1	-7
624.851	1	-2
625.190	1	-1
625.529	1	-2
625.869	1	13
626.208	1	-10
626.547	1	-2
626.886	1	-7
627.226	1	1
627.565	1	6
627.904	1	-6
628.243	1	15
628.583	1	6
628.922	1	9
629.261	1	-9
629.600	1	3
629.940	1	3
630.279	1	6
630.618	1	1
630.957	1	6
631.297	1	4
631.636	1	2
631.975	1	1
632.314	1	-4
632.653	1	-5
632.993	1	-9
633.332	1	5
633.671	1	7
634.010	1	8
634.349	1	5
634.689	1	-5
635.028	1	-9
635.367	1	7
635.706	1	-3
636.045	1	-4
636.384	1	9
636.724	1	11
637.063	1	2
637.402	1	5
637.741	1	8
638.080	1	7
638.419	1	-7
638.759	1	-3
639.098	1	-6
639.437	1	-1
639.776	1	0
640.115	1	-13
640.454	1	-5
640.793	1	-3
641.132	1	13
641.472	1	19
641.811	1	-1
642.150	1	-4
642.489	1	4
642.828	1	13
643.167	1	9
643.506	1	-5
643.845	1	-3
644.184	1	7
644.524	1	-1
644.863	1	2
645.202	1	-1
645.541	1	-3
645.880	1	11
646.219	1	8
646.558	1	-6
646.897	1	0
647.236	1	-8
647.575	1	2
647.914	1	5
648.253	1	7
648.592	1	5
648.931	1	3
649.270	1	10
649.610	1	3
649.949	1	-5
650.288	1	-2
650.627	1	0
650.966	1	5
651.305	1	3
651.644	1	2
651.983	1	-6
652.322	1	4
652.661	1	4
653.000	1	5
653.339	1	1
653.678	1	6
654.017	1	6
654.356	1	7
654.695	1	18
655.034	1	-1
655.373	1	-4
655.712	1	8
656.051	1	-8
656.390	1	2
656.729	1	4
657.068	1	-2
657.406	1	-3
657.745	1	12
658.084	1	-1
658.423	1	10
658.762	1	3
659.101	1	-1
659.440	1	-4
659.779	1	9
660.118	1	-7
660.457	1	0
660.796	1	-2
661.135	1	5
661.474	1	1
661.813	1	-2
662.152	1	0
662.491	1	1
662.829	1	5
663.168	1	-4
663.507	1	5
663.846	1	3
664.185	1	-2
664.524	1	10
664.863	1	-14
665.202	1	-2
665.541	1	-3
665.879	1	9
666.218	1	4
666.557	1	-2
666.896	1	0
667.235	1	1
667.574	1	1
667.913	1	1
668.251	1	-13
668.590	1	-4
668.929	1	5
669.268	1	-1
669.607	1	-3
669.946	1	-5
670.285	1	-7
670.623	1	9
670.962	1	-6
671.301	1	0
671.640	1	6
671.979	1	-8
672.317	1	5
672.656	1	3
672.995	1	2
673.334	1	-5
673.673	1	14
674.011	1	1
674.350	1	6
674.689	1	-8
675.028	1	4
675.367	1	4
675.705	1	-3
676.044	1	-3
676.383	1	-1
676.722	1	1
677.060	1	8
677.399	1	7
677.738	1	-3
678.077	1	-2
678.416	1	-5
678.754	1	4
679.093	1	14
679.432	1	-1
679.771	1	3
680.109	1	5
680.448	1	-6
680.787	1	-10
681.125	1	-6
681.464	1	8
681.803	1	0
682.142	1	0
682.480	1	-8
682.819	1	-1
683.158	1	-2
683.496	1	0
683.835	1	8
684.174	1	8
684.512	1	8
684.851	1	3
685.190	1	5
685.529	1	6
685.867	1	-6
686.206	1	-7
686.545	1	-6
686.883	1	12
687.222	1	-4
687.561	1	-6
687.899	1	-1
688.238	1	8
688.577	1	0
688.746	1	4