File: Data/GaN_150K_450ms/GaN_sample D_spot15_UVVIS_150 K_200um_450 ms 2x2mm1_305.txt
340.368	1	2
340.710	1	-7
341.052	1	2
341.394	1	-12
341.737	1	0
342.079	1	-5
342.421	1	-3
342.763	1	5
343.105	1	2
343.447	1	1
343.789	1	10
344.131	1	-15
344.473	1	1
344.815	1	5
345.157	1	9
345.499	1	-4
345.841	1	6
346.183	1	-3
346.526	1	9
346.868	1	5
347.210	1	-5
347.552	1	9
347.894	1	1
348.236	1	0
348.578	1	7
348.920	1	1
349.262	1	2
349.604	1	-3
349.946	1	-4
350.288	1	-9
350.630	1	-4
350.972	1	6
351.314	1	0
351.656	1	12
351.998	1	-2
352.340	1	11
352.682	1	-9
353.024	1	12
353.366	1	10
353.708	1	4
354.050	1	-2
354.392	1	-8
354.734	1	0
355.076	1	15
355.418	1	-8
355.760	1	5
356.102	1	7
356.444	1	10
356.785	1	4
357.127	1	13
357.469	1	1
357.811	1	0
358.153	1	-12
358.495	1	2
358.837	1	10
359.179	1	-1
359.521	1	8
359.863	1	6
360.205	1	18
360.547	1	16
360.889	1	-2
361.231	1	6
361.572	1	9
361.914	1	13
362.256	1	2
362.598	1	9
362.940	1	0
363.282	1	3
363.624	1	11
363.966	1	0
364.308	1	11
364.649	1	3
364.991	1	10
365.333	1	8
365.675	1	18
366.017	1	16
366.359	1	5
366.701	1	-2
367.042	1	21
367.384	1	-2
367.726	1	13
368.068	1	15
368.410	1	15
368.752	1	18
369.093	1	15
369.435	1	8
369.777	1	15
370.119	1	5
370.461	1	8
370.803	1	6
371.144	1	8
371.486	1	15
371.828	1	2
372.170	1	15
372.512	1	-1
372.853	1	20
373.195	1	-3
373.537	1	1
373.879	1	-4
374.220	1	1
374.562	1	13
374.904	1	9
375.246	1	-1
375.588	1	-1
375.929	1	13
376.271	1	1
376.613	1	10
376.955	1	14
377.296	1	8
377.638	1	-5
377.980	1	-5
378.321	1	8
378.663	1	6
379.005	1	7
379.347	1	2
379.688	1	16
380.030	1	9
380.372	1	12
380.714	1	-2
381.055	1	-4
381.397	1	-5
381.739	1	-5
382.080	1	5
382.422	1	10
382.764	1	4
383.105	1	4
383.447	1	11
383.789	1	-5
384.130	1	-1
384.472	1	5
384.814	1	9
385.156	1	5
385.497	1	7
385.839	1	7
386.180	1	0
386.522	1	10
386.864	1	0
387.205	1	12
387.547	1	11
387.889	1	3
388.230	1	3
388.572	1	4
388.914	1	4
389.255	1	0
389.597	1	-2
389.939	1	18
390.280	1	3
390.622	1	-9
390.963	1	-7
391.305	1	1
391.647	1	4
391.988	1	0
392.330	1	3
392.671	1	12
393.013	1	5
393.355	1	17
393.696	1	10
394.038	1	4
394.379	1	4
394.721	1	-5
395.062	1	-1
395.404	1	2
395.746	1	-6
396.087	1	6
396.429	1	2
396.770	1	-2
397.112	1	3
397.453	1	-2
397.795	1	-2
398.136	1	1
398.478	1	-2
398.819	1	-2
399.161	1	3
399.503	1	8
399.844	1	-2
400.186	1	6
400.527	1	12
400.869	1	-1
401.210	1	3
401.552	1	2
401.893	1	-4
402.235	1	10
402.576	1	0
402.918	1	-1
403.259	1	5
403.601	1	14
403.942	1	4
404.284	1	14
404.625	1	-10
404.967	1	0
405.308	1	-9
405.649	1	0
405.991	1	3
406.332	1	-3
406.674	1	2
407.015	1	3
407.357	1	4
407.698	1	4
408.040	1	12
408.381	1	-11
408.722	1	3
409.064	1	5
409.405	1	-4
409.747	1	4
410.088	1	11
410.430	1	9
410.771	1	1
411.112	1	5
411.454	1	0
411.795	1	3
412.137	1	-4
412.478	1	2
412.819	1	8
413.161	1	4
413.502	1	5
413.844	1	13
414.185	1	-3
414.526	1	-2
414.868	1	6
415.209	1	-8
415.550	1	-1
415.892	1	-2
416.233	1	-2
416.575	1	-5
416.916	1	5
417.257	1	3
417.599	1	3
417.940	1	-10
418.281	1	1
418.623	1	2
418.964	1	8
419.305	1	5
419.647	1	5
419.988	1	8
420.329	1	9
420.671	1	3
421.012	1	-4
421.353	1	4
421.695	1	10
422.036	1	3
422.377	1	0
422.718	1	6
423.060	1	8
423.401	1	-6
423.742	1	3
424.084	1	4
424.425	1	2
424.766	1	0
425.107	1	-6
425.449	1	2
425.790	1	-2
426.131	1	-6
426.472	1	12
426.814	1	-1
427.155	1	-2
427.496	1	4
427.837	1	0
428.179	1	12
428.520	1	13
428.861	1	7
429.202	1	-5
429.544	1	1
429.885	1	9
430.226	1	-12
430.567	1	-9
430.909	1	1
431.250	1	1
431.591	1	9
431.932	1	-1
432.273	1	13
432.615	1	0
432.956	1	1
433.297	1	-4
433.638	1	9
433.979	1	2
434.320	1	-5
434.662	1	8
435.003	1	7
435.344	1	4
435.685	1	-6
436.026	1	4
436.368	1	5
436.709	1	1
437.050	1	-6
437.391	1	-5
437.732	1	7
438.073	1	1
438.414	1	1
438.756	1	2
439.097	1	7
439.438	1	6
439.779	1	3
440.120	1	1
440.461	1	-8
440.802	1	-5
441.143	1	3
441.485	1	-1
441.826	1	3
442.167	1	2
442.508	1	-2
442.849	1	9
443.190	1	7
443.531	1	4
443.872	1	-11
444.213	1	-11
444.554	1	10
444.895	1	-1
445.237	1	7
445.578	1	-8
445.919	1	-3
446.260	1	3
446.601	1	12
446.942	1	-8
447.283	1	9
447.624	1	-6
447.965	1	1
448.306	1	5
448.647	1	1
448.988	1	5
449.329	1	2
449.670	1	7
450.011	1	7
450.352	1	-9
450.693	1	5
451.034	1	-4
451.375	1	4
451.716	1	12
452.057	1	-1
452.398	1	6
452.739	1	7
453.080	1	4
453.421	1	6
453.762	1	5
454.103	1	3
454.444	1	1
454.785	1	4
455.126	1	5
455.467	1	-7
455.808	1	7
456.149	1	-9
456.490	1	-17
456.831	1	-1
457.172	1	4
457.513	1	2
457.854	1	-1
458.195	1	2
458.536	1	2
458.877	1	2
459.218	1	5
459.559	1	8
459.899	1	-1
460.240	1	-6
460.581	1	-7
460.922	1	4
461.263	1	8
461.604	1	7
461.945	1	4
462.286	1	-7
462.627	1	-5
462.968	1	5
463.309	1	10
463.649	1	8
463.990	1	2
464.331	1	10
464.672	1	1
465.013	1	1
465.354	1	5
465.695	1	-6
466.036	1	10
466.376	1	7
466.717	1	-8
467.058	1	-5
467.399	1	-3
467.740	1	5
468.081	1	1
468.422	1	0
468.762	1	6
469.103	1	5
469.444	1	-3
469.785	1	7
470.126	1	2
470.467	1	7
470.807	1	5
471.148	1	-5
471.489	1	12
471.830	1	0
472.171	1	14
472.511	1	11
472.852	1	5
473.193	1	-3
473.534	1	4
473.875	1	-3
474.215	1	5
474.556	1	-2
474.897	1	-8
475.238	1	7
475.578	1	-3
475.919	1	0
476.260	1	-2
476.601	1	-2
476.942	1	3
477.282	1	-8
477.623	1	-4
477.964	1	2
478.305	1	0
478.645	1	6
478.986	1	13
479.327	1	12
479.667	1	-5
480.008	1	4
480.349	1	0
480.690	1	3
481.030	1	-2
481.371	1	-12
481.712	1	16
482.053	1	8
482.393	1	8
482.734	1	7
483.075	1	1
483.415	1	-3
483.756	1	3
484.097	1	5
484.437	1	11
484.778	1	-3
485.119	1	0
485.459	1	-5
485.800	1	-6
486.141	1	5
486.481	1	-11
486.822	1	7
487.163	1	-7
487.503	1	-4
487.844	1	-10
488.185	1	6
488.525	1	-3
488.866	1	-10
489.207	1	0
489.547	1	1
489.888	1	7
490.228	1	-5
490.569	1	-6
490.910	1	5
491.250	1	7
491.591	1	2
491.932	1	9
492.272	1	-21
492.613	1	-5
492.953	1	2
493.294	1	-8
493.635	1	-3
493.975	1	11
494.316	1	-11
494.656	1	3
494.997	1	-6
495.337	1	-6
495.678	1	-7
496.019	1	-4
496.359	1	-3
496.700	1	4
497.040	1	2
497.381	1	-2
497.721	1	-4
498.062	1	1
498.403	1	3
498.743	1	5
499.084	1	3
499.424	1	-13
499.765	1	7
500.105	1	9
500.446	1	0
500.786	1	-8
501.127	1	-1
501.467	1	5
501.808	1	3
502.148	1	-1
502.489	1	2
502.829	1	4
503.170	1	8
503.510	1	1
503.851	1	12
504.191	1	-6
504.532	1	3
504.872	1	-3
505.213	1	2
505.553	1	-2
505.894	1	0
506.234	1	3
506.575	1	12
506.915	1	8
507.256	1	6
507.596	1	13
507.936	1	4
508.277	1	12
508.617	1	6
508.958	1	13
509.298	1	-4
509.639	1	-1
509.979	1	-5
510.319	1	3
510.660	1	-6
511.000	1	-2
511.341	1	7
511.681	1	12
512.022	1	-7
512.362	1	9
512.702	1	-1
513.043	1	4
513.383	1	-1
513.724	1	-4
514.064	1	2
514.404	1	12
514.745	1	7
515.085	1	-3
515.425	1	2
515.766	1	0
516.106	1	-7
516.447	1	9
516.787	1	1
517.127	1	2
517.468	1	6
517.808	1	-6
518.148	1	10
518.489	1	-4
518.829	1	4
519.169	1	2
519.510	1	-3
519.850	1	4
520.190	1	-5
520.531	1	1
520.871	1	6
521.211	1	0
521.552	1	4
521.892	1	-4
522.232	1	8
522.573	1	4
522.913	1	-7
523.253	1	6
523.593	1	9
523.934	1	5
524.274	1	1
524.614	1	9
524.955	1	-4
525.295	1	7
525.635	1	5
525.975	1	-1
526.316	1	-13
526.656	1	0
526.996	1	2
527.337	1	-1
527.677	1	11
528.017	1	6
528.357	1	6
528.698	1	0
529.038	1	3
529.378	1	1
529.718	1	0
530.058	1	7
530.399	1	-1
530.739	1	-5
531.079	1	3
531.419	1	2
531.760	1	16
532.100	1	13
532.440	1	5
532.780	1	9
533.120	1	-4
533.461	1	2
533.801	1	8
534.141	1	-2
534.481	1	14
534.821	1	-7
535.162	1	6
535.502	1	-2
535.842	1	-3
536.182	1	3
536.522	1	2
536.862	1	2
537.203	1	5
537.543	1	2
537.883	1	0
538.223	1	26
538.563	1	1
538.903	1	5
539.243	1	5
539.584	1	4
539.924	1	4
540.264	1	15
540.604	1	13
540.944	1	3
541.284	1	9
541.624	1	-5
541.964	1	0
542.305	1	9
542.645	1	2
542.985	1	2
543.325	1	8
543.665	1	1
544.005	1	1
544.345	1	6
544.685	1	3
545.025	1	12
545.365	1	0
545.705	1	3
546.045	1	7
546.386	1	-4
546.726	1	-2
547.066	1	-1
547.406	1	-4
547.746	1	-5
548.086	1	1
548.426	1	1
548.766	1	4
549.106	1	-6
549.446	1	4
549.786	1	8
550.126	1	5
550.466	1	-3
550.806	1	12
551.146	1	4
551.486	1	2
551.826	1	-7
552.166	1	-1
552.506	1	-2
552.846	1	8
553.186	1	-9
553.526	1	0
553.866	1	-7
554.206	1	0
554.546	1	7
554.886	1	-6
555.226	1	0
555.566	1	1
555.906	1	0
556.246	1	-1
556.586	1	-6
556.926	1	-2
557.266	1	13
557.606	1	-1
557.946	1	6
558.286	1	-14
558.626	1	-3
558.966	1	4
559.306	1	7
559.646	1	7
559.986	1	2
560.325	1	-8
560.665	1	8
561.005	1	1
561.345	1	-4
561.685	1	2
562.025	1	0
562.365	1	-1
562.705	1	9
563.045	1	5
563.385	1	8
563.725	1	3
564.064	1	-4
564.404	1	-1
564.744	1	6
565.084	1	9
565.424	1	-3
565.764	1	4
566.104	1	1
566.444	1	11
566.783	1	-1
567.123	1	16
567.463	1	7
567.803	1	3
568.143	1	1
568.483	1	9
568.823	1	3
569.162	1	1
569.502	1	7
569.842	1	8
570.182	1	8
570.522	1	2
570.862	1	-13
571.201	1	4
571.541	1	5
571.881	1	-3
572.221	1	0
572.561	1	12
572.900	1	7
573.240	1	-3
573.580	1	6
573.920	1	15
574.260	1	-6
574.599	1	3
574.939	1	-2
575.279	1	-3
575.619	1	-3
575.959	1	-1
576.298	1	-13
576.638	1	11
576.978	1	9
577.318	1	-2
577.657	1	2
577.997	1	2
578.337	1	-1
578.677	1	-3
579.016	1	4
579.356	1	3
579.696	1	1
580.036	1	2
580.375	1	9
580.715	1	0
581.055	1	12
581.394	1	1
581.734	1	6
582.074	1	1
582.414	1	0
582.753	1	4
583.093	1	4
583.433	1	6
583.772	1	1
584.112	1	3
584.452	1	-7
584.791	1	2
585.131	1	5
585.471	1	4
585.811	1	-3
586.150	1	-3
586.490	1	8
586.830	1	1
587.169	1	-1
587.509	1	1
587.849	1	8
588.188	1	-4
588.528	1	-4
588.867	1	5
589.207	1	4
589.547	1	4
589.886	1	-2
590.226	1	-7
590.566	1	3
590.905	1	-2
591.245	1	-1
591.585	1	-3
591.924	1	2
592.264	1	2
592.603	1	-9
592.943	1	-7
593.283	1	5
593.622	1	6
593.962	1	7
594.301	1	-6
594.641	1	-4
594.981	1	2
595.320	1	2
595.660	1	9
595.999	1	1
596.339	1	-1
596.678	1	-9
597.018	1	3
597.358	1	13
597.697	1	-8
598.037	1	-3
598.376	1	-12
598.716	1	4
599.055	1	7
599.395	1	0
599.734	1	4
600.074	1	-5
600.413	1	4
600.753	1	4
601.092	1	-6
601.432	1	-6
601.771	1	2
602.111	1	0
602.451	1	-3
602.790	1	-3
603.130	1	-1
603.469	1	1
603.809	1	-4
604.148	1	-4
604.487	1	1
604.827	1	3
605.166	1	4
605.506	1	1
605.845	1	12
606.185	1	-8
606.524	1	-6
606.864	1	-4
607.203	1	4
607.543	1	-7
607.882	1	11
608.222	1	-4
608.561	1	-8
608.901	1	2
609.240	1	9
609.579	1	13
609.919	1	0
610.258	1	13
610.598	1	-12
610.937	1	1
611.277	1	13
611.616	1	13
611.955	1	-6
612.295	1	2
612.634	1	7
612.974	1	6
613.313	1	13
613.652	1	4
613.992	1	-6
614.331	1	11
614.671	1	10
615.010	1	9
615.349	1	3
615.689	1	2
616.028	1	11
616.368	1	8
616.707	1	11
617.046	1	3
617.386	1	15
617.725	1	-1
618.064	1	-2
618.404	1	2
618.743	1	7
619.082	1	14
619.422	1	13
619.761	1	-5
620.100	1	4
620.440	1	9
620.779	1	2
621.118	1	9
621.458	1	0
621.797	1	-2
622.136	1	-4
622.476	1	-3
622.815	1	9
623.154	1	-8
623.494	1	-4
623.833	1	1
624.172	1	0
624.511	1	-2
624.851	1	4
625.190	1	5
625.529	1	8
625.869	1	10
626.208	1	-6
626.547	1	-3
626.886	1	1
627.226	1	7
627.565	1	13
627.904	1	-10
628.243	1	7
628.583	1	8
628.922	1	5
629.261	1	0
629.600	1	3
629.940	1	4
630.279	1	2
630.618	1	10
630.957	1	2
631.297	1	6
631.636	1	1
631.975	1	-5
632.314	1	2
632.653	1	-12
632.993	1	1
633.332	1	1
633.671	1	1
634.010	1	2
634.349	1	6
634.689	1	-6
635.028	1	2
635.367	1	11
635.706	1	2
636.045	1	1
636.384	1	10
636.724	1	6
637.063	1	-6
637.402	1	-3
637.741	1	-4
638.080	1	7
638.419	1	-6
638.759	1	1
639.098	1	8
639.437	1	1
639.776	1	1
640.115	1	-5
640.454	1	-6
640.793	1	0
641.132	1	1
641.472	1	12
641.811	1	2
642.150	1	-2
642.489	1	2
642.828	1	10
643.167	1	10
643.506	1	1
643.845	1	0
644.184	1	5
644.524	1	-3
644.863	1	-2
645.202	1	4
645.541	1	-3
645.880	1	6
646.219	1	1
646.558	1	-7
646.897	1	-7
647.236	1	-6
647.575	1	4
647.914	1	-2
648.253	1	11
648.592	1	7
648.931	1	4
649.270	1	4
649.610	1	11
649.949	1	-9
650.288	1	4
650.627	1	-3
650.966	1	0
651.305	1	2
651.644	1	7
651.983	1	-5
652.322	1	0
652.661	1	10
653.000	1	1
653.339	1	-2
653.678	1	-2
654.017	1	9
654.356	1	3
654.695	1	9
655.034	1	-5
655.373	1	2
655.712	1	7
656.051	1	-3
656.390	1	0
656.729	1	8
657.068	1	1
657.406	1	-3
657.745	1	6
658.084	1	7
658.423	1	4
658.762	1	-10
659.101	1	4
659.440	1	1
659.779	1	10
660.118	1	-3
660.457	1	4
660.796	1	5
661.135	1	-2
661.474	1	12
661.813	1	3
662.152	1	1
662.491	1	-3
662.829	1	3
663.168	1	1
663.507	1	7
663.846	1	-2
664.185	1	-1
664.524	1	12
664.863	1	-7
665.202	1	12
665.541	1	7
665.879	1	11
666.218	1	-3
666.557	1	6
666.896	1	-3
667.235	1	-4
667.574	1	-8
667.913	1	2
668.251	1	-5
668.590	1	-4
668.929	1	5
669.268	1	-8
669.607	1	-5
669.946	1	4
670.285	1	3
670.623	1	0
670.962	1	-2
671.301	1	1
671.640	1	5
671.979	1	3
672.317	1	4
672.656	1	7
672.995	1	-4
673.334	1	1
673.673	1	7
674.011	1	6
674.350	1	-6
674.689	1	-11
675.028	1	-2
675.367	1	-3
675.705	1	-7
676.044	1	1
676.383	1	5
676.722	1	-1
677.060	1	-2
677.399	1	15
677.738	1	4
678.077	1	-5
678.416	1	3
678.754	1	8
679.093	1	13
679.432	1	1
679.771	1	5
680.109	1	-2
680.448	1	1
680.787	1	-8
681.125	1	-1
681.464	1	2
681.803	1	-5
682.142	1	5
682.480	1	-5
682.819	1	1
683.158	1	-10
683.496	1	-4
683.835	1	1
684.174	1	-1
684.512	1	-6
684.851	1	-5
685.190	1	-9
685.529	1	-1
685.867	1	9
686.206	1	-11
686.545	1	-5
686.883	1	5
687.222	1	-1
687.561	1	-2
687.899	1	-5
688.238	1	5
688.577	1	1
688.746	1	1