File: Data/GaN_150K_450ms/GaN_sample D_spot15_UVVIS_150 K_200um_450 ms 2x2mm1_212.txt
340.368	1	7
340.710	1	0
341.052	1	-2
341.394	1	-6
341.737	1	2
342.079	1	11
342.421	1	-4
342.763	1	-2
343.105	1	8
343.447	1	2
343.789	1	6
344.131	1	-12
344.473	1	-4
344.815	1	-4
345.157	1	10
345.499	1	5
345.841	1	-1
346.183	1	9
346.526	1	9
346.868	1	12
347.210	1	-9
347.552	1	5
347.894	1	1
348.236	1	16
348.578	1	12
348.920	1	3
349.262	1	8
349.604	1	-8
349.946	1	9
350.288	1	-2
350.630	1	-7
350.972	1	9
351.314	1	-4
351.656	1	5
351.998	1	0
352.340	1	9
352.682	1	-1
353.024	1	13
353.366	1	10
353.708	1	-2
354.050	1	-5
354.392	1	-11
354.734	1	4
355.076	1	14
355.418	1	-2
355.760	1	5
356.102	1	0
356.444	1	8
356.785	1	5
357.127	1	12
357.469	1	11
357.811	1	-2
358.153	1	-6
358.495	1	3
358.837	1	6
359.179	1	4
359.521	1	11
359.863	1	5
360.205	1	7
360.547	1	12
360.889	1	4
361.231	1	-1
361.572	1	17
361.914	1	12
362.256	1	8
362.598	1	9
362.940	1	10
363.282	1	6
363.624	1	18
363.966	1	7
364.308	1	8
364.649	1	15
364.991	1	20
365.333	1	5
365.675	1	13
366.017	1	22
366.359	1	22
366.701	1	12
367.042	1	21
367.384	1	17
367.726	1	21
368.068	1	30
368.410	1	23
368.752	1	35
369.093	1	25
369.435	1	24
369.777	1	21
370.119	1	21
370.461	1	14
370.803	1	20
371.144	1	20
371.486	1	25
371.828	1	15
372.170	1	8
372.512	1	12
372.853	1	26
373.195	1	10
373.537	1	6
373.879	1	15
374.220	1	21
374.562	1	20
374.904	1	24
375.246	1	9
375.588	1	6
375.929	1	15
376.271	1	14
376.613	1	15
376.955	1	9
377.296	1	7
377.638	1	0
377.980	1	5
378.321	1	10
378.663	1	5
379.005	1	4
379.347	1	2
379.688	1	11
380.030	1	11
380.372	1	11
380.714	1	1
381.055	1	3
381.397	1	3
381.739	1	-2
382.080	1	3
382.422	1	8
382.764	1	12
383.105	1	0
383.447	1	-1
383.789	1	-4
384.130	1	9
384.472	1	5
384.814	1	12
385.156	1	9
385.497	1	6
385.839	1	0
386.180	1	7
386.522	1	5
386.864	1	-2
387.205	1	3
387.547	1	6
387.889	1	12
388.230	1	8
388.572	1	4
388.914	1	8
389.255	1	0
389.597	1	10
389.939	1	20
390.280	1	6
390.622	1	-4
390.963	1	-11
391.305	1	3
391.647	1	7
391.988	1	5
392.330	1	4
392.671	1	10
393.013	1	8
393.355	1	16
393.696	1	10
394.038	1	8
394.379	1	8
394.721	1	2
395.062	1	-4
395.404	1	13
395.746	1	0
396.087	1	11
396.429	1	8
396.770	1	4
397.112	1	-1
397.453	1	4
397.795	1	1
398.136	1	-2
398.478	1	-2
398.819	1	1
399.161	1	13
399.503	1	10
399.844	1	-1
400.186	1	2
400.527	1	9
400.869	1	6
401.210	1	8
401.552	1	7
401.893	1	3
402.235	1	11
402.576	1	0
402.918	1	4
403.259	1	7
403.601	1	6
403.942	1	4
404.284	1	11
404.625	1	4
404.967	1	-2
405.308	1	1
405.649	1	-2
405.991	1	7
406.332	1	11
406.674	1	1
407.015	1	4
407.357	1	12
407.698	1	5
408.040	1	7
408.381	1	3
408.722	1	10
409.064	1	2
409.405	1	4
409.747	1	3
410.088	1	6
410.430	1	9
410.771	1	6
411.112	1	2
411.454	1	-1
411.795	1	11
412.137	1	2
412.478	1	1
412.819	1	5
413.161	1	0
413.502	1	1
413.844	1	7
414.185	1	6
414.526	1	1
414.868	1	4
415.209	1	4
415.550	1	4
415.892	1	10
416.233	1	6
416.575	1	-4
416.916	1	0
417.257	1	1
417.599	1	0
417.940	1	-4
418.281	1	6
418.623	1	-3
418.964	1	12
419.305	1	7
419.647	1	4
419.988	1	16
420.329	1	6
420.671	1	7
421.012	1	1
421.353	1	11
421.695	1	9
422.036	1	12
422.377	1	4
422.718	1	7
423.060	1	11
423.401	1	8
423.742	1	14
424.084	1	12
424.425	1	10
424.766	1	12
425.107	1	9
425.449	1	2
425.790	1	10
426.131	1	1
426.472	1	9
426.814	1	0
427.155	1	1
427.496	1	11
427.837	1	1
428.179	1	9
428.520	1	5
428.861	1	4
429.202	1	0
429.544	1	5
429.885	1	15
430.226	1	-5
430.567	1	0
430.909	1	3
431.250	1	4
431.591	1	3
431.932	1	5
432.273	1	15
432.615	1	-3
432.956	1	6
433.297	1	7
433.638	1	12
433.979	1	6
434.320	1	13
434.662	1	12
435.003	1	16
435.344	1	3
435.685	1	9
436.026	1	0
436.368	1	3
436.709	1	-1
437.050	1	3
437.391	1	7
437.732	1	5
438.073	1	-3
438.414	1	4
438.756	1	10
439.097	1	11
439.438	1	7
439.779	1	16
440.120	1	-1
440.461	1	7
440.802	1	-5
441.143	1	10
441.485	1	4
441.826	1	9
442.167	1	-1
442.508	1	4
442.849	1	11
443.190	1	5
443.531	1	1
443.872	1	-11
444.213	1	-1
444.554	1	2
444.895	1	2
445.237	1	0
445.578	1	-2
445.919	1	-3
446.260	1	13
446.601	1	-3
446.942	1	0
447.283	1	18
447.624	1	-4
447.965	1	7
448.306	1	9
448.647	1	1
448.988	1	3
449.329	1	-2
449.670	1	4
450.011	1	4
450.352	1	-2
450.693	1	5
451.034	1	1
451.375	1	0
451.716	1	6
452.057	1	4
452.398	1	18
452.739	1	9
453.080	1	3
453.421	1	8
453.762	1	1
454.103	1	13
454.444	1	8
454.785	1	5
455.126	1	6
455.467	1	-1
455.808	1	14
456.149	1	-5
456.490	1	-1
456.831	1	2
457.172	1	4
457.513	1	1
457.854	1	11
458.195	1	4
458.536	1	6
458.877	1	7
459.218	1	8
459.559	1	7
459.899	1	-4
460.240	1	10
460.581	1	-2
460.922	1	10
461.263	1	1
461.604	1	5
461.945	1	17
462.286	1	-2
462.627	1	-4
462.968	1	-3
463.309	1	13
463.649	1	9
463.990	1	10
464.331	1	8
464.672	1	4
465.013	1	2
465.354	1	6
465.695	1	8
466.036	1	12
466.376	1	10
466.717	1	-11
467.058	1	14
467.399	1	-5
467.740	1	8
468.081	1	2
468.422	1	-2
468.762	1	12
469.103	1	6
469.444	1	11
469.785	1	-4
470.126	1	9
470.467	1	4
470.807	1	10
471.148	1	4
471.489	1	14
471.830	1	4
472.171	1	16
472.511	1	4
472.852	1	10
473.193	1	6
473.534	1	8
473.875	1	6
474.215	1	-2
474.556	1	-4
474.897	1	-3
475.238	1	7
475.578	1	-6
475.919	1	-3
476.260	1	-2
476.601	1	1
476.942	1	1
477.282	1	-8
477.623	1	-1
477.964	1	10
478.305	1	6
478.645	1	9
478.986	1	10
479.327	1	8
479.667	1	4
480.008	1	3
480.349	1	-2
480.690	1	12
481.030	1	-2
481.371	1	-3
481.712	1	11
482.053	1	18
482.393	1	7
482.734	1	3
483.075	1	9
483.415	1	6
483.756	1	6
484.097	1	12
484.437	1	9
484.778	1	-2
485.119	1	8
485.459	1	-2
485.800	1	0
486.141	1	3
486.481	1	-4
486.822	1	6
487.163	1	-4
487.503	1	-3
487.844	1	0
488.185	1	0
488.525	1	-4
488.866	1	-4
489.207	1	8
489.547	1	8
489.888	1	7
490.228	1	5
490.569	1	0
490.910	1	11
491.250	1	-2
491.591	1	-3
491.932	1	4
492.272	1	-7
492.613	1	7
492.953	1	3
493.294	1	-2
493.635	1	7
493.975	1	8
494.316	1	-2
494.656	1	16
494.997	1	5
495.337	1	-3
495.678	1	2
496.019	1	6
496.359	1	4
496.700	1	2
497.040	1	-5
497.381	1	8
497.721	1	-9
498.062	1	2
498.403	1	13
498.743	1	9
499.084	1	7
499.424	1	0
499.765	1	8
500.105	1	11
500.446	1	-1
500.786	1	-1
501.127	1	7
501.467	1	11
501.808	1	-2
502.148	1	1
502.489	1	-2
502.829	1	-3
503.170	1	8
503.510	1	-9
503.851	1	15
504.191	1	-7
504.532	1	13
504.872	1	-3
505.213	1	-1
505.553	1	6
505.894	1	5
506.234	1	20
506.575	1	11
506.915	1	3
507.256	1	10
507.596	1	8
507.936	1	12
508.277	1	6
508.617	1	2
508.958	1	8
509.298	1	2
509.639	1	9
509.979	1	-3
510.319	1	11
510.660	1	2
511.000	1	9
511.341	1	15
511.681	1	2
512.022	1	-5
512.362	1	16
512.702	1	0
513.043	1	15
513.383	1	-4
513.724	1	8
514.064	1	7
514.404	1	8
514.745	1	-1
515.085	1	5
515.425	1	9
515.766	1	2
516.106	1	4
516.447	1	6
516.787	1	-6
517.127	1	11
517.468	1	-2
517.808	1	2
518.148	1	14
518.489	1	4
518.829	1	4
519.169	1	2
519.510	1	4
519.850	1	3
520.190	1	3
520.531	1	-2
520.871	1	11
521.211	1	7
521.552	1	4
521.892	1	4
522.232	1	8
522.573	1	-2
522.913	1	6
523.253	1	4
523.593	1	9
523.934	1	8
524.274	1	1
524.614	1	6
524.955	1	4
525.295	1	3
525.635	1	8
525.975	1	0
526.316	1	-1
526.656	1	13
526.996	1	-2
527.337	1	6
527.677	1	20
528.017	1	1
528.357	1	8
528.698	1	8
529.038	1	5
529.378	1	1
529.718	1	0
530.058	1	8
530.399	1	7
530.739	1	1
531.079	1	7
531.419	1	7
531.760	1	8
532.100	1	6
532.440	1	6
532.780	1	9
533.120	1	-4
533.461	1	1
533.801	1	9
534.141	1	2
534.481	1	16
534.821	1	8
535.162	1	13
535.502	1	1
535.842	1	8
536.182	1	-1
536.522	1	2
536.862	1	0
537.203	1	10
537.543	1	10
537.883	1	4
538.223	1	16
538.563	1	4
538.903	1	5
539.243	1	0
539.584	1	-2
539.924	1	3
540.264	1	16
540.604	1	16
540.944	1	7
541.284	1	2
541.624	1	2
541.964	1	7
542.305	1	10
542.645	1	0
542.985	1	4
543.325	1	3
543.665	1	-6
544.005	1	5
544.345	1	18
544.685	1	-4
545.025	1	9
545.365	1	3
545.705	1	6
546.045	1	14
546.386	1	2
546.726	1	0
547.066	1	3
547.406	1	4
547.746	1	4
548.086	1	6
548.426	1	6
548.766	1	7
549.106	1	4
549.446	1	13
549.786	1	3
550.126	1	4
550.466	1	3
550.806	1	18
551.146	1	5
551.486	1	8
551.826	1	-5
552.166	1	1
552.506	1	4
552.846	1	11
553.186	1	-4
553.526	1	-7
553.866	1	1
554.206	1	13
554.546	1	13
554.886	1	4
555.226	1	5
555.566	1	2
555.906	1	-3
556.246	1	10
556.586	1	8
556.926	1	4
557.266	1	18
557.606	1	-10
557.946	1	6
558.286	1	-3
558.626	1	6
558.966	1	2
559.306	1	3
559.646	1	15
559.986	1	12
560.325	1	11
560.665	1	6
561.005	1	17
561.345	1	4
561.685	1	10
562.025	1	6
562.365	1	0
562.705	1	8
563.045	1	0
563.385	1	9
563.725	1	-4
564.064	1	2
564.404	1	-3
564.744	1	10
565.084	1	4
565.424	1	1
565.764	1	6
566.104	1	9
566.444	1	16
566.783	1	6
567.123	1	0
567.463	1	-4
567.803	1	9
568.143	1	-1
568.483	1	8
568.823	1	5
569.162	1	-4
569.502	1	12
569.842	1	-3
570.182	1	4
570.522	1	4
570.862	1	-10
571.201	1	16
571.541	1	-2
571.881	1	-1
572.221	1	1
572.561	1	9
572.900	1	16
573.240	1	1
573.580	1	5
573.920	1	9
574.260	1	9
574.599	1	7
574.939	1	7
575.279	1	2
575.619	1	-5
575.959	1	2
576.298	1	-1
576.638	1	6
576.978	1	6
577.318	1	7
577.657	1	0
577.997	1	6
578.337	1	4
578.677	1	1
579.016	1	2
579.356	1	7
579.696	1	2
580.036	1	0
580.375	1	1
580.715	1	8
581.055	1	5
581.394	1	-1
581.734	1	4
582.074	1	0
582.414	1	7
582.753	1	-6
583.093	1	5
583.433	1	8
583.772	1	10
584.112	1	0
584.452	1	9
584.791	1	4
585.131	1	10
585.471	1	6
585.811	1	8
586.150	1	9
586.490	1	1
586.830	1	-4
587.169	1	-3
587.509	1	4
587.849	1	12
588.188	1	12
588.528	1	-1
588.867	1	2
589.207	1	2
589.547	1	10
589.886	1	12
590.226	1	-6
590.566	1	2
590.905	1	0
591.245	1	-3
591.585	1	-6
591.924	1	2
592.264	1	-5
592.603	1	-8
592.943	1	2
593.283	1	8
593.622	1	3
593.962	1	0
594.301	1	0
594.641	1	7
594.981	1	4
595.320	1	3
595.660	1	6
595.999	1	3
596.339	1	1
596.678	1	-10
597.018	1	-5
597.358	1	5
597.697	1	-5
598.037	1	2
598.376	1	-6
598.716	1	6
599.055	1	8
599.395	1	-4
599.734	1	4
600.074	1	-6
600.413	1	3
600.753	1	3
601.092	1	2
601.432	1	-5
601.771	1	7
602.111	1	10
602.451	1	-3
602.790	1	-4
603.130	1	-2
603.469	1	6
603.809	1	3
604.148	1	-1
604.487	1	6
604.827	1	7
605.166	1	-3
605.506	1	4
605.845	1	6
606.185	1	3
606.524	1	-9
606.864	1	9
607.203	1	9
607.543	1	5
607.882	1	17
608.222	1	-4
608.561	1	1
608.901	1	4
609.240	1	5
609.579	1	3
609.919	1	0
610.258	1	12
610.598	1	-6
610.937	1	-6
611.277	1	7
611.616	1	13
611.955	1	-1
612.295	1	3
612.634	1	4
612.974	1	2
613.313	1	10
613.652	1	9
613.992	1	-1
614.331	1	11
614.671	1	3
615.010	1	0
615.349	1	2
615.689	1	3
616.028	1	20
616.368	1	12
616.707	1	9
617.046	1	5
617.386	1	9
617.725	1	5
618.064	1	-7
618.404	1	-1
618.743	1	9
619.082	1	11
619.422	1	16
619.761	1	3
620.100	1	6
620.440	1	2
620.779	1	15
621.118	1	12
621.458	1	4
621.797	1	5
622.136	1	6
622.476	1	2
622.815	1	6
623.154	1	-3
623.494	1	-1
623.833	1	7
624.172	1	4
624.511	1	3
624.851	1	-10
625.190	1	-3
625.529	1	7
625.869	1	15
626.208	1	-4
626.547	1	-8
626.886	1	-9
627.226	1	9
627.565	1	14
627.904	1	-3
628.243	1	3
628.583	1	12
628.922	1	9
629.261	1	10
629.600	1	-7
629.940	1	7
630.279	1	9
630.618	1	2
630.957	1	6
631.297	1	4
631.636	1	-1
631.975	1	-2
632.314	1	11
632.653	1	-8
632.993	1	7
633.332	1	8
633.671	1	9
634.010	1	7
634.349	1	7
634.689	1	-2
635.028	1	0
635.367	1	4
635.706	1	-2
636.045	1	-3
636.384	1	4
636.724	1	1
637.063	1	1
637.402	1	3
637.741	1	1
638.080	1	0
638.419	1	-3
638.759	1	13
639.098	1	6
639.437	1	2
639.776	1	4
640.115	1	-8
640.454	1	0
640.793	1	-4
641.132	1	3
641.472	1	13
641.811	1	5
642.150	1	7
642.489	1	3
642.828	1	7
643.167	1	2
643.506	1	-2
643.845	1	12
644.184	1	12
644.524	1	-4
644.863	1	-3
645.202	1	-2
645.541	1	3
645.880	1	15
646.219	1	5
646.558	1	-8
646.897	1	-2
647.236	1	3
647.575	1	17
647.914	1	4
648.253	1	17
648.592	1	5
648.931	1	0
649.270	1	9
649.610	1	2
649.949	1	-7
650.288	1	1
650.627	1	-8
650.966	1	5
651.305	1	8
651.644	1	17
651.983	1	-1
652.322	1	1
652.661	1	0
653.000	1	9
653.339	1	1
653.678	1	3
654.017	1	1
654.356	1	6
654.695	1	14
655.034	1	2
655.373	1	8
655.712	1	5
656.051	1	7
656.390	1	3
656.729	1	13
657.068	1	1
657.406	1	2
657.745	1	11
658.084	1	2
658.423	1	7
658.762	1	4
659.101	1	10
659.440	1	10
659.779	1	12
660.118	1	-1
660.457	1	-2
660.796	1	5
661.135	1	5
661.474	1	3
661.813	1	13
662.152	1	-6
662.491	1	-4
662.829	1	3
663.168	1	0
663.507	1	6
663.846	1	6
664.185	1	4
664.524	1	5
664.863	1	-12
665.202	1	2
665.541	1	-4
665.879	1	4
666.218	1	8
666.557	1	-3
666.896	1	6
667.235	1	-2
667.574	1	0
667.913	1	1
668.251	1	-8
668.590	1	1
668.929	1	10
669.268	1	4
669.607	1	-9
669.946	1	0
670.285	1	-4
670.623	1	3
670.962	1	-10
671.301	1	9
671.640	1	9
671.979	1	-6
672.317	1	1
672.656	1	8
672.995	1	4
673.334	1	10
673.673	1	5
674.011	1	4
674.350	1	8
674.689	1	6
675.028	1	1
675.367	1	1
675.705	1	-3
676.044	1	8
676.383	1	-3
676.722	1	4
677.060	1	2
677.399	1	15
677.738	1	0
678.077	1	-2
678.416	1	2
678.754	1	5
679.093	1	7
679.432	1	2
679.771	1	11
680.109	1	-2
680.448	1	4
680.787	1	-7
681.125	1	-1
681.464	1	9
681.803	1	-5
682.142	1	1
682.480	1	-3
682.819	1	1
683.158	1	7
683.496	1	3
683.835	1	1
684.174	1	6
684.512	1	-4
684.851	1	2
685.190	1	3
685.529	1	-1
685.867	1	8
686.206	1	-10
686.545	1	5
686.883	1	11
687.222	1	-3
687.561	1	0
687.899	1	6
688.238	1	12
688.577	1	-6
688.746	1	9