File: Data/GaN_150K_450ms/GaN_sample D_spot15_UVVIS_150 K_200um_450 ms 2x2mm1_279.txt
340.368	1	2
340.710	1	3
341.052	1	1
341.394	1	-9
341.737	1	2
342.079	1	-2
342.421	1	-5
342.763	1	4
343.105	1	8
343.447	1	-2
343.789	1	2
344.131	1	-7
344.473	1	3
344.815	1	0
345.157	1	9
345.499	1	7
345.841	1	-1
346.183	1	4
346.526	1	15
346.868	1	4
347.210	1	-5
347.552	1	7
347.894	1	-9
348.236	1	2
348.578	1	-1
348.920	1	5
349.262	1	0
349.604	1	1
349.946	1	10
350.288	1	-2
350.630	1	-5
350.972	1	11
351.314	1	-1
351.656	1	6
351.998	1	9
352.340	1	3
352.682	1	-15
353.024	1	17
353.366	1	14
353.708	1	0
354.050	1	-9
354.392	1	-5
354.734	1	4
355.076	1	2
355.418	1	-6
355.760	1	4
356.102	1	4
356.444	1	6
356.785	1	9
357.127	1	7
357.469	1	-1
357.811	1	0
358.153	1	-7
358.495	1	1
358.837	1	12
359.179	1	1
359.521	1	6
359.863	1	-6
360.205	1	8
360.547	1	9
360.889	1	-2
361.231	1	7
361.572	1	7
361.914	1	11
362.256	1	9
362.598	1	13
362.940	1	6
363.282	1	2
363.624	1	7
363.966	1	4
364.308	1	14
364.649	1	7
364.991	1	10
365.333	1	2
365.675	1	25
366.017	1	18
366.359	1	6
366.701	1	13
367.042	1	21
367.384	1	2
367.726	1	4
368.068	1	13
368.410	1	14
368.752	1	33
369.093	1	15
369.435	1	19
369.777	1	21
370.119	1	12
370.461	1	7
370.803	1	12
371.144	1	12
371.486	1	7
371.828	1	0
372.170	1	2
372.512	1	-1
372.853	1	21
373.195	1	11
373.537	1	-9
373.879	1	1
374.220	1	1
374.562	1	12
374.904	1	3
375.246	1	13
375.588	1	2
375.929	1	7
376.271	1	-2
376.613	1	3
376.955	1	0
377.296	1	0
377.638	1	-9
377.980	1	6
378.321	1	7
378.663	1	9
379.005	1	0
379.347	1	3
379.688	1	18
380.030	1	11
380.372	1	8
380.714	1	3
381.055	1	-4
381.397	1	-1
381.739	1	-9
382.080	1	3
382.422	1	1
382.764	1	3
383.105	1	2
383.447	1	8
383.789	1	-10
384.130	1	-4
384.472	1	-3
384.814	1	14
385.156	1	3
385.497	1	16
385.839	1	8
386.180	1	5
386.522	1	11
386.864	1	-4
387.205	1	7
387.547	1	1
387.889	1	-6
388.230	1	-2
388.572	1	-1
388.914	1	14
389.255	1	2
389.597	1	4
389.939	1	6
390.280	1	5
390.622	1	1
390.963	1	-5
391.305	1	6
391.647	1	-2
391.988	1	7
392.330	1	3
392.671	1	10
393.013	1	8
393.355	1	6
393.696	1	5
394.038	1	11
394.379	1	5
394.721	1	8
395.062	1	-4
395.404	1	14
395.746	1	-2
396.087	1	6
396.429	1	1
396.770	1	5
397.112	1	7
397.453	1	-4
397.795	1	6
398.136	1	15
398.478	1	1
398.819	1	3
399.161	1	7
399.503	1	12
399.844	1	3
400.186	1	-5
400.527	1	7
400.869	1	-1
401.210	1	7
401.552	1	-3
401.893	1	2
402.235	1	-1
402.576	1	7
402.918	1	-2
403.259	1	0
403.601	1	1
403.942	1	0
404.284	1	8
404.625	1	6
404.967	1	-1
405.308	1	-10
405.649	1	-3
405.991	1	3
406.332	1	7
406.674	1	6
407.015	1	14
407.357	1	12
407.698	1	8
408.040	1	16
408.381	1	-5
408.722	1	4
409.064	1	6
409.405	1	1
409.747	1	0
410.088	1	4
410.430	1	5
410.771	1	7
411.112	1	-4
411.454	1	4
411.795	1	2
412.137	1	0
412.478	1	4
412.819	1	11
413.161	1	9
413.502	1	1
413.844	1	7
414.185	1	1
414.526	1	-3
414.868	1	3
415.209	1	4
415.550	1	2
415.892	1	15
416.233	1	1
416.575	1	-7
416.916	1	3
417.257	1	5
417.599	1	6
417.940	1	-1
418.281	1	1
418.623	1	-6
418.964	1	13
419.305	1	14
419.647	1	3
419.988	1	10
420.329	1	5
420.671	1	20
421.012	1	-5
421.353	1	6
421.695	1	10
422.036	1	7
422.377	1	1
422.718	1	14
423.060	1	2
423.401	1	-5
423.742	1	9
424.084	1	5
424.425	1	17
424.766	1	-4
425.107	1	6
425.449	1	3
425.790	1	0
426.131	1	-3
426.472	1	8
426.814	1	3
427.155	1	4
427.496	1	-5
427.837	1	1
428.179	1	1
428.520	1	1
428.861	1	10
429.202	1	-3
429.544	1	6
429.885	1	2
430.226	1	-4
430.567	1	-5
430.909	1	0
431.250	1	-2
431.591	1	9
431.932	1	-3
432.273	1	16
432.615	1	-5
432.956	1	8
433.297	1	6
433.638	1	8
433.979	1	3
434.320	1	7
434.662	1	15
435.003	1	13
435.344	1	2
435.685	1	2
436.026	1	1
436.368	1	4
436.709	1	6
437.050	1	3
437.391	1	0
437.732	1	-1
438.073	1	2
438.414	1	12
438.756	1	2
439.097	1	2
439.438	1	7
439.779	1	1
440.120	1	5
440.461	1	6
440.802	1	3
441.143	1	5
441.485	1	1
441.826	1	6
442.167	1	7
442.508	1	3
442.849	1	3
443.190	1	-2
443.531	1	6
443.872	1	-10
444.213	1	-7
444.554	1	10
444.895	1	-1
445.237	1	5
445.578	1	3
445.919	1	6
446.260	1	5
446.601	1	1
446.942	1	-3
447.283	1	11
447.624	1	-14
447.965	1	1
448.306	1	1
448.647	1	-8
448.988	1	9
449.329	1	-4
449.670	1	12
450.011	1	8
450.352	1	11
450.693	1	-3
451.034	1	4
451.375	1	1
451.716	1	3
452.057	1	0
452.398	1	9
452.739	1	-2
453.080	1	-5
453.421	1	6
453.762	1	3
454.103	1	6
454.444	1	3
454.785	1	3
455.126	1	2
455.467	1	2
455.808	1	14
456.149	1	-2
456.490	1	1
456.831	1	-2
457.172	1	4
457.513	1	-2
457.854	1	7
458.195	1	8
458.536	1	7
458.877	1	3
459.218	1	6
459.559	1	-3
459.899	1	-6
460.240	1	-1
460.581	1	-7
460.922	1	-1
461.263	1	7
461.604	1	3
461.945	1	-4
462.286	1	-3
462.627	1	-4
462.968	1	3
463.309	1	11
463.649	1	-7
463.990	1	5
464.331	1	-4
464.672	1	5
465.013	1	14
465.354	1	12
465.695	1	3
466.036	1	9
466.376	1	10
466.717	1	-7
467.058	1	10
467.399	1	-2
467.740	1	11
468.081	1	3
468.422	1	6
468.762	1	0
469.103	1	9
469.444	1	-2
469.785	1	2
470.126	1	6
470.467	1	6
470.807	1	-1
471.148	1	0
471.489	1	5
471.830	1	4
472.171	1	5
472.511	1	4
472.852	1	-1
473.193	1	0
473.534	1	9
473.875	1	-1
474.215	1	5
474.556	1	0
474.897	1	-1
475.238	1	8
475.578	1	-4
475.919	1	-1
476.260	1	-2
476.601	1	-2
476.942	1	1
477.282	1	-3
477.623	1	-2
477.964	1	12
478.305	1	-3
478.645	1	5
478.986	1	5
479.327	1	2
479.667	1	2
480.008	1	12
480.349	1	-6
480.690	1	2
481.030	1	5
481.371	1	-6
481.712	1	8
482.053	1	8
482.393	1	-2
482.734	1	4
483.075	1	7
483.415	1	1
483.756	1	5
484.097	1	8
484.437	1	8
484.778	1	-3
485.119	1	3
485.459	1	-2
485.800	1	-5
486.141	1	8
486.481	1	-7
486.822	1	2
487.163	1	-5
487.503	1	13
487.844	1	-6
488.185	1	11
488.525	1	-4
488.866	1	-3
489.207	1	8
489.547	1	-1
489.888	1	9
490.228	1	5
490.569	1	-1
490.910	1	-4
491.250	1	7
491.591	1	2
491.932	1	18
492.272	1	-4
492.613	1	10
492.953	1	14
493.294	1	-7
493.635	1	7
493.975	1	15
494.316	1	2
494.656	1	5
494.997	1	2
495.337	1	1
495.678	1	-1
496.019	1	-3
496.359	1	-8
496.700	1	-1
497.040	1	-9
497.381	1	5
497.721	1	4
498.062	1	1
498.403	1	0
498.743	1	6
499.084	1	7
499.424	1	4
499.765	1	8
500.105	1	8
500.446	1	-7
500.786	1	-6
501.127	1	9
501.467	1	2
501.808	1	6
502.148	1	-4
502.489	1	1
502.829	1	9
503.170	1	11
503.510	1	-7
503.851	1	7
504.191	1	-1
504.532	1	14
504.872	1	-6
505.213	1	-4
505.553	1	-2
505.894	1	10
506.234	1	5
506.575	1	7
506.915	1	3
507.256	1	5
507.596	1	4
507.936	1	10
508.277	1	8
508.617	1	3
508.958	1	-1
509.298	1	-1
509.639	1	0
509.979	1	-8
510.319	1	-7
510.660	1	-8
511.000	1	4
511.341	1	9
511.681	1	7
512.022	1	-11
512.362	1	17
512.702	1	-4
513.043	1	12
513.383	1	-5
513.724	1	1
514.064	1	5
514.404	1	11
514.745	1	-1
515.085	1	3
515.425	1	11
515.766	1	5
516.106	1	13
516.447	1	8
516.787	1	2
517.127	1	13
517.468	1	10
517.808	1	-3
518.148	1	11
518.489	1	1
518.829	1	10
519.169	1	-5
519.510	1	-1
519.850	1	4
520.190	1	5
520.531	1	5
520.871	1	-3
521.211	1	9
521.552	1	1
521.892	1	9
522.232	1	9
522.573	1	6
522.913	1	1
523.253	1	17
523.593	1	4
523.934	1	12
524.274	1	8
524.614	1	2
524.955	1	-1
525.295	1	9
525.635	1	15
525.975	1	7
526.316	1	-5
526.656	1	-4
526.996	1	6
527.337	1	3
527.677	1	10
528.017	1	-5
528.357	1	10
528.698	1	2
529.038	1	8
529.378	1	2
529.718	1	2
530.058	1	-3
530.399	1	-3
530.739	1	7
531.079	1	0
531.419	1	-1
531.760	1	-5
532.100	1	17
532.440	1	3
532.780	1	-1
533.120	1	-4
533.461	1	-1
533.801	1	8
534.141	1	5
534.481	1	17
534.821	1	4
535.162	1	3
535.502	1	5
535.842	1	13
536.182	1	7
536.522	1	0
536.862	1	1
537.203	1	0
537.543	1	4
537.883	1	10
538.223	1	9
538.563	1	6
538.903	1	-4
539.243	1	11
539.584	1	7
539.924	1	4
540.264	1	10
540.604	1	15
540.944	1	6
541.284	1	-2
541.624	1	1
541.964	1	2
542.305	1	3
542.645	1	-3
542.985	1	-1
543.325	1	5
543.665	1	7
544.005	1	2
544.345	1	-4
544.685	1	-6
545.025	1	4
545.365	1	12
545.705	1	7
546.045	1	5
546.386	1	-4
546.726	1	3
547.066	1	1
547.406	1	-7
547.746	1	0
548.086	1	10
548.426	1	1
548.766	1	0
549.106	1	4
549.446	1	6
549.786	1	-2
550.126	1	8
550.466	1	1
550.806	1	20
551.146	1	2
551.486	1	-4
551.826	1	2
552.166	1	7
552.506	1	-2
552.846	1	10
553.186	1	-5
553.526	1	-5
553.866	1	3
554.206	1	0
554.546	1	3
554.886	1	1
555.226	1	3
555.566	1	-2
555.906	1	-4
556.246	1	8
556.586	1	-1
556.926	1	7
557.266	1	13
557.606	1	-1
557.946	1	7
558.286	1	-4
558.626	1	9
558.966	1	-2
559.306	1	10
559.646	1	17
559.986	1	3
560.325	1	-3
560.665	1	10
561.005	1	4
561.345	1	1
561.685	1	5
562.025	1	-5
562.365	1	-1
562.705	1	16
563.045	1	1
563.385	1	4
563.725	1	2
564.064	1	-2
564.404	1	-7
564.744	1	13
565.084	1	3
565.424	1	-6
565.764	1	7
566.104	1	14
566.444	1	12
566.783	1	7
567.123	1	-7
567.463	1	9
567.803	1	11
568.143	1	-4
568.483	1	12
568.823	1	-5
569.162	1	-5
569.502	1	10
569.842	1	-3
570.182	1	-6
570.522	1	1
570.862	1	-1
571.201	1	12
571.541	1	-3
571.881	1	-5
572.221	1	-5
572.561	1	3
572.900	1	16
573.240	1	1
573.580	1	8
573.920	1	8
574.260	1	1
574.599	1	15
574.939	1	2
575.279	1	2
575.619	1	0
575.959	1	-5
576.298	1	-6
576.638	1	4
576.978	1	4
577.318	1	5
577.657	1	3
577.997	1	3
578.337	1	-2
578.677	1	10
579.016	1	-1
579.356	1	0
579.696	1	-2
580.036	1	-7
580.375	1	9
580.715	1	8
581.055	1	-1
581.394	1	2
581.734	1	-1
582.074	1	-3
582.414	1	-1
582.753	1	-4
583.093	1	11
583.433	1	5
583.772	1	9
584.112	1	7
584.452	1	1
584.791	1	8
585.131	1	18
585.471	1	0
585.811	1	5
586.150	1	9
586.490	1	1
586.830	1	-2
587.169	1	-2
587.509	1	2
587.849	1	12
588.188	1	15
588.528	1	-9
588.867	1	6
589.207	1	4
589.547	1	16
589.886	1	4
590.226	1	2
590.566	1	2
590.905	1	-5
591.245	1	-1
591.585	1	-4
591.924	1	-6
592.264	1	-7
592.603	1	-5
592.943	1	-3
593.283	1	0
593.622	1	-1
593.962	1	9
594.301	1	-5
594.641	1	3
594.981	1	3
595.320	1	-2
595.660	1	10
595.999	1	14
596.339	1	6
596.678	1	-5
597.018	1	-10
597.358	1	5
597.697	1	-4
598.037	1	-1
598.376	1	-13
598.716	1	-1
599.055	1	6
599.395	1	9
599.734	1	0
600.074	1	-12
600.413	1	-2
600.753	1	10
601.092	1	-7
601.432	1	0
601.771	1	-2
602.111	1	-3
602.451	1	-2
602.790	1	9
603.130	1	-1
603.469	1	3
603.809	1	7
604.148	1	-8
604.487	1	1
604.827	1	4
605.166	1	2
605.506	1	0
605.845	1	3
606.185	1	-7
606.524	1	-6
606.864	1	10
607.203	1	4
607.543	1	8
607.882	1	9
608.222	1	3
608.561	1	2
608.901	1	2
609.240	1	8
609.579	1	3
609.919	1	-9
610.258	1	2
610.598	1	-4
610.937	1	3
611.277	1	8
611.616	1	15
611.955	1	-8
612.295	1	7
612.634	1	-2
612.974	1	-6
613.313	1	6
613.652	1	2
613.992	1	-2
614.331	1	16
614.671	1	9
615.010	1	5
615.349	1	4
615.689	1	-4
616.028	1	11
616.368	1	11
616.707	1	6
617.046	1	-1
617.386	1	5
617.725	1	2
618.064	1	2
618.404	1	4
618.743	1	8
619.082	1	18
619.422	1	15
619.761	1	-10
620.100	1	6
620.440	1	12
620.779	1	2
621.118	1	12
621.458	1	1
621.797	1	4
622.136	1	-1
622.476	1	7
622.815	1	3
623.154	1	-3
623.494	1	-4
623.833	1	-1
624.172	1	10
624.511	1	-5
624.851	1	0
625.190	1	-3
625.529	1	0
625.869	1	11
626.208	1	-6
626.547	1	-7
626.886	1	-4
627.226	1	13
627.565	1	4
627.904	1	0
628.243	1	9
628.583	1	3
628.922	1	9
629.261	1	-4
629.600	1	-5
629.940	1	7
630.279	1	11
630.618	1	9
630.957	1	-4
631.297	1	0
631.636	1	-4
631.975	1	12
632.314	1	-1
632.653	1	4
632.993	1	10
633.332	1	10
633.671	1	5
634.010	1	2
634.349	1	6
634.689	1	-3
635.028	1	0
635.367	1	6
635.706	1	1
636.045	1	-6
636.384	1	12
636.724	1	16
637.063	1	-3
637.402	1	11
637.741	1	-3
638.080	1	4
638.419	1	-8
638.759	1	6
639.098	1	3
639.437	1	4
639.776	1	0
640.115	1	-6
640.454	1	-7
640.793	1	-1
641.132	1	11
641.472	1	10
641.811	1	-2
642.150	1	-3
642.489	1	13
642.828	1	13
643.167	1	6
643.506	1	-1
643.845	1	7
644.184	1	7
644.524	1	-6
644.863	1	2
645.202	1	-2
645.541	1	-9
645.880	1	17
646.219	1	2
646.558	1	-5
646.897	1	-4
647.236	1	-12
647.575	1	17
647.914	1	6
648.253	1	10
648.592	1	12
648.931	1	3
649.270	1	12
649.610	1	7
649.949	1	3
650.288	1	7
650.627	1	-6
650.966	1	-3
651.305	1	10
651.644	1	13
651.983	1	0
652.322	1	2
652.661	1	1
653.000	1	7
653.339	1	3
653.678	1	8
654.017	1	7
654.356	1	14
654.695	1	14
655.034	1	0
655.373	1	-6
655.712	1	6
656.051	1	1
656.390	1	-3
656.729	1	10
657.068	1	-5
657.406	1	-4
657.745	1	8
658.084	1	4
658.423	1	1
658.762	1	2
659.101	1	2
659.440	1	-3
659.779	1	9
660.118	1	-1
660.457	1	-2
660.796	1	8
661.135	1	8
661.474	1	4
661.813	1	3
662.152	1	2
662.491	1	-9
662.829	1	8
663.168	1	3
663.507	1	4
663.846	1	-5
664.185	1	6
664.524	1	13
664.863	1	-5
665.202	1	5
665.541	1	5
665.879	1	6
666.218	1	7
666.557	1	1
666.896	1	0
667.235	1	-8
667.574	1	-4
667.913	1	5
668.251	1	-11
668.590	1	1
668.929	1	1
669.268	1	-12
669.607	1	-5
669.946	1	6
670.285	1	-4
670.623	1	-3
670.962	1	4
671.301	1	-2
671.640	1	4
671.979	1	-3
672.317	1	3
672.656	1	7
672.995	1	-3
673.334	1	-3
673.673	1	11
674.011	1	7
674.350	1	7
674.689	1	-6
675.028	1	2
675.367	1	-2
675.705	1	-6
676.044	1	-7
676.383	1	5
676.722	1	3
677.060	1	-1
677.399	1	17
677.738	1	1
678.077	1	-8
678.416	1	-9
678.754	1	-4
679.093	1	5
679.432	1	-2
679.771	1	8
680.109	1	0
680.448	1	9
680.787	1	-10
681.125	1	0
681.464	1	1
681.803	1	4
682.142	1	-3
682.480	1	-7
682.819	1	8
683.158	1	-9
683.496	1	0
683.835	1	0
684.174	1	-5
684.512	1	4
684.851	1	-1
685.190	1	-5
685.529	1	-5
685.867	1	4
686.206	1	1
686.545	1	-4
686.883	1	6
687.222	1	2
687.561	1	-5
687.899	1	6
688.238	1	10
688.577	1	-3
688.746	1	-6