File: Data/GaN_150K_450ms/GaN_sample D_spot15_UVVIS_150 K_200um_450 ms 2x2mm1_98.txt
340.368	1	6
340.710	1	6
341.052	1	-1
341.394	1	-8
341.737	1	10
342.079	1	1
342.421	1	6
342.763	1	6
343.105	1	13
343.447	1	8
343.789	1	10
344.131	1	4
344.473	1	3
344.815	1	6
345.157	1	17
345.499	1	8
345.841	1	12
346.183	1	-1
346.526	1	12
346.868	1	2
347.210	1	0
347.552	1	16
347.894	1	-2
348.236	1	9
348.578	1	-2
348.920	1	4
349.262	1	18
349.604	1	0
349.946	1	10
350.288	1	0
350.630	1	4
350.972	1	8
351.314	1	6
351.656	1	3
351.998	1	10
352.340	1	19
352.682	1	1
353.024	1	26
353.366	1	12
353.708	1	17
354.050	1	3
354.392	1	0
354.734	1	10
355.076	1	18
355.418	1	10
355.760	1	12
356.102	1	12
356.444	1	20
356.785	1	22
357.127	1	23
357.469	1	13
357.811	1	11
358.153	1	5
358.495	1	15
358.837	1	15
359.179	1	10
359.521	1	18
359.863	1	17
360.205	1	35
360.547	1	22
360.889	1	19
361.231	1	32
361.572	1	41
361.914	1	34
362.256	1	28
362.598	1	44
362.940	1	45
363.282	1	39
363.624	1	49
363.966	1	40
364.308	1	63
364.649	1	59
364.991	1	63
365.333	1	64
365.675	1	90
366.017	1	90
366.359	1	85
366.701	1	91
367.042	1	98
367.384	1	99
367.726	1	92
368.068	1	98
368.410	1	93
368.752	1	114
369.093	1	102
369.435	1	108
369.777	1	104
370.119	1	92
370.461	1	81
370.803	1	82
371.144	1	78
371.486	1	72
371.828	1	66
372.170	1	63
372.512	1	60
372.853	1	76
373.195	1	67
373.537	1	51
373.879	1	53
374.220	1	58
374.562	1	51
374.904	1	45
375.246	1	45
375.588	1	48
375.929	1	40
376.271	1	44
376.613	1	35
376.955	1	38
377.296	1	43
377.638	1	31
377.980	1	33
378.321	1	37
378.663	1	28
379.005	1	20
379.347	1	23
379.688	1	38
380.030	1	19
380.372	1	30
380.714	1	39
381.055	1	19
381.397	1	30
381.739	1	17
382.080	1	25
382.422	1	22
382.764	1	14
383.105	1	15
383.447	1	23
383.789	1	8
384.130	1	32
384.472	1	16
384.814	1	15
385.156	1	9
385.497	1	34
385.839	1	16
386.180	1	13
386.522	1	17
386.864	1	14
387.205	1	15
387.547	1	21
387.889	1	18
388.230	1	12
388.572	1	14
388.914	1	22
389.255	1	4
389.597	1	11
389.939	1	24
390.280	1	7
390.622	1	10
390.963	1	2
391.305	1	10
391.647	1	17
391.988	1	10
392.330	1	9
392.671	1	21
393.013	1	8
393.355	1	13
393.696	1	13
394.038	1	5
394.379	1	15
394.721	1	15
395.062	1	6
395.404	1	17
395.746	1	10
396.087	1	16
396.429	1	14
396.770	1	10
397.112	1	13
397.453	1	16
397.795	1	13
398.136	1	17
398.478	1	10
398.819	1	13
399.161	1	16
399.503	1	12
399.844	1	0
400.186	1	0
400.527	1	25
400.869	1	12
401.210	1	10
401.552	1	14
401.893	1	12
402.235	1	12
402.576	1	17
402.918	1	9
403.259	1	11
403.601	1	8
403.942	1	9
404.284	1	18
404.625	1	13
404.967	1	6
405.308	1	8
405.649	1	6
405.991	1	16
406.332	1	15
406.674	1	13
407.015	1	14
407.357	1	22
407.698	1	20
408.040	1	22
408.381	1	5
408.722	1	16
409.064	1	21
409.405	1	14
409.747	1	13
410.088	1	20
410.430	1	17
410.771	1	13
411.112	1	15
411.454	1	16
411.795	1	8
412.137	1	4
412.478	1	20
412.819	1	21
413.161	1	14
413.502	1	14
413.844	1	15
414.185	1	3
414.526	1	8
414.868	1	9
415.209	1	15
415.550	1	18
415.892	1	20
416.233	1	13
416.575	1	2
416.916	1	17
417.257	1	11
417.599	1	15
417.940	1	-3
418.281	1	11
418.623	1	16
418.964	1	29
419.305	1	10
419.647	1	18
419.988	1	26
420.329	1	6
420.671	1	26
421.012	1	-7
421.353	1	24
421.695	1	26
422.036	1	23
422.377	1	21
422.718	1	13
423.060	1	18
423.401	1	11
423.742	1	18
424.084	1	22
424.425	1	13
424.766	1	14
425.107	1	18
425.449	1	18
425.790	1	20
426.131	1	15
426.472	1	27
426.814	1	10
427.155	1	17
427.496	1	17
427.837	1	10
428.179	1	25
428.520	1	11
428.861	1	24
429.202	1	9
429.544	1	23
429.885	1	16
430.226	1	11
430.567	1	6
430.909	1	12
431.250	1	18
431.591	1	8
431.932	1	9
432.273	1	20
432.615	1	5
432.956	1	15
433.297	1	17
433.638	1	22
433.979	1	6
434.320	1	13
434.662	1	17
435.003	1	23
435.344	1	11
435.685	1	7
436.026	1	21
436.368	1	14
436.709	1	8
437.050	1	11
437.391	1	14
437.732	1	7
438.073	1	11
438.414	1	11
438.756	1	5
439.097	1	8
439.438	1	18
439.779	1	12
440.120	1	10
440.461	1	17
440.802	1	14
441.143	1	16
441.485	1	15
441.826	1	19
442.167	1	17
442.508	1	13
442.849	1	19
443.190	1	11
443.531	1	20
443.872	1	5
444.213	1	1
444.554	1	12
444.895	1	12
445.237	1	11
445.578	1	5
445.919	1	4
446.260	1	20
446.601	1	17
446.942	1	14
447.283	1	21
447.624	1	5
447.965	1	11
448.306	1	13
448.647	1	13
448.988	1	13
449.329	1	8
449.670	1	16
450.011	1	5
450.352	1	8
450.693	1	15
451.034	1	2
451.375	1	2
451.716	1	7
452.057	1	8
452.398	1	13
452.739	1	16
453.080	1	12
453.421	1	17
453.762	1	21
454.103	1	8
454.444	1	11
454.785	1	6
455.126	1	8
455.467	1	8
455.808	1	18
456.149	1	6
456.490	1	5
456.831	1	6
457.172	1	6
457.513	1	10
457.854	1	6
458.195	1	12
458.536	1	6
458.877	1	9
459.218	1	10
459.559	1	11
459.899	1	6
460.240	1	6
460.581	1	4
460.922	1	13
461.263	1	14
461.604	1	-3
461.945	1	15
462.286	1	-2
462.627	1	11
462.968	1	12
463.309	1	5
463.649	1	9
463.990	1	9
464.331	1	7
464.672	1	16
465.013	1	6
465.354	1	10
465.695	1	12
466.036	1	18
466.376	1	13
466.717	1	4
467.058	1	11
467.399	1	1
467.740	1	16
468.081	1	10
468.422	1	15
468.762	1	19
469.103	1	10
469.444	1	9
469.785	1	0
470.126	1	7
470.467	1	7
470.807	1	6
471.148	1	5
471.489	1	7
471.830	1	7
472.171	1	8
472.511	1	9
472.852	1	17
473.193	1	16
473.534	1	12
473.875	1	4
474.215	1	9
474.556	1	-2
474.897	1	-1
475.238	1	11
475.578	1	1
475.919	1	5
476.260	1	5
476.601	1	2
476.942	1	7
477.282	1	-1
477.623	1	7
477.964	1	8
478.305	1	12
478.645	1	7
478.986	1	16
479.327	1	16
479.667	1	7
480.008	1	11
480.349	1	0
480.690	1	8
481.030	1	-2
481.371	1	-4
481.712	1	22
482.053	1	16
482.393	1	0
482.734	1	10
483.075	1	7
483.415	1	10
483.756	1	12
484.097	1	18
484.437	1	12
484.778	1	12
485.119	1	14
485.459	1	1
485.800	1	8
486.141	1	13
486.481	1	-5
486.822	1	19
487.163	1	8
487.503	1	11
487.844	1	7
488.185	1	16
488.525	1	9
488.866	1	8
489.207	1	11
489.547	1	12
489.888	1	21
490.228	1	17
490.569	1	7
490.910	1	18
491.250	1	8
491.591	1	7
491.932	1	22
492.272	1	11
492.613	1	8
492.953	1	15
493.294	1	6
493.635	1	18
493.975	1	25
494.316	1	6
494.656	1	21
494.997	1	-3
495.337	1	7
495.678	1	6
496.019	1	11
496.359	1	17
496.700	1	21
497.040	1	12
497.381	1	10
497.721	1	4
498.062	1	3
498.403	1	12
498.743	1	17
499.084	1	17
499.424	1	11
499.765	1	13
500.105	1	28
500.446	1	9
500.786	1	10
501.127	1	21
501.467	1	20
501.808	1	16
502.148	1	2
502.489	1	14
502.829	1	12
503.170	1	20
503.510	1	17
503.851	1	29
504.191	1	18
504.532	1	33
504.872	1	11
505.213	1	9
505.553	1	11
505.894	1	25
506.234	1	21
506.575	1	29
506.915	1	21
507.256	1	25
507.596	1	20
507.936	1	35
508.277	1	22
508.617	1	12
508.958	1	13
509.298	1	15
509.639	1	13
509.979	1	18
510.319	1	26
510.660	1	13
511.000	1	24
511.341	1	33
511.681	1	19
512.022	1	14
512.362	1	20
512.702	1	25
513.043	1	23
513.383	1	25
513.724	1	25
514.064	1	25
514.404	1	31
514.745	1	24
515.085	1	35
515.425	1	27
515.766	1	24
516.106	1	25
516.447	1	30
516.787	1	17
517.127	1	36
517.468	1	33
517.808	1	20
518.148	1	32
518.489	1	15
518.829	1	30
519.169	1	10
519.510	1	19
519.850	1	19
520.190	1	25
520.531	1	31
520.871	1	13
521.211	1	38
521.552	1	25
521.892	1	26
522.232	1	26
522.573	1	22
522.913	1	27
523.253	1	31
523.593	1	30
523.934	1	25
524.274	1	26
524.614	1	30
524.955	1	23
525.295	1	22
525.635	1	21
525.975	1	16
526.316	1	26
526.656	1	20
526.996	1	17
527.337	1	33
527.677	1	42
528.017	1	20
528.357	1	32
528.698	1	35
529.038	1	23
529.378	1	32
529.718	1	26
530.058	1	21
530.399	1	35
530.739	1	38
531.079	1	22
531.419	1	43
531.760	1	42
532.100	1	25
532.440	1	39
532.780	1	29
533.120	1	29
533.461	1	25
533.801	1	27
534.141	1	30
534.481	1	35
534.821	1	21
535.162	1	39
535.502	1	24
535.842	1	26
536.182	1	20
536.522	1	17
536.862	1	22
537.203	1	33
537.543	1	31
537.883	1	28
538.223	1	32
538.563	1	26
538.903	1	28
539.243	1	21
539.584	1	23
539.924	1	28
540.264	1	41
540.604	1	32
540.944	1	30
541.284	1	14
541.624	1	34
541.964	1	22
542.305	1	28
542.645	1	25
542.985	1	20
543.325	1	27
543.665	1	18
544.005	1	26
544.345	1	25
544.685	1	16
545.025	1	31
545.365	1	20
545.705	1	21
546.045	1	29
546.386	1	21
546.726	1	8
547.066	1	24
547.406	1	12
547.746	1	20
548.086	1	34
548.426	1	22
548.766	1	31
549.106	1	16
549.446	1	20
549.786	1	20
550.126	1	25
550.466	1	19
550.806	1	36
551.146	1	24
551.486	1	5
551.826	1	19
552.166	1	17
552.506	1	14
552.846	1	30
553.186	1	10
553.526	1	20
553.866	1	23
554.206	1	29
554.546	1	26
554.886	1	26
555.226	1	19
555.566	1	21
555.906	1	15
556.246	1	23
556.586	1	24
556.926	1	5
557.266	1	19
557.606	1	7
557.946	1	20
558.286	1	4
558.626	1	13
558.966	1	18
559.306	1	22
559.646	1	20
559.986	1	11
560.325	1	14
560.665	1	22
561.005	1	20
561.345	1	14
561.685	1	28
562.025	1	19
562.365	1	15
562.705	1	23
563.045	1	14
563.385	1	25
563.725	1	16
564.064	1	5
564.404	1	11
564.744	1	23
565.084	1	17
565.424	1	9
565.764	1	10
566.104	1	19
566.444	1	15
566.783	1	16
567.123	1	7
567.463	1	15
567.803	1	16
568.143	1	8
568.483	1	27
568.823	1	10
569.162	1	12
569.502	1	11
569.842	1	15
570.182	1	13
570.522	1	8
570.862	1	4
571.201	1	20
571.541	1	8
571.881	1	13
572.221	1	13
572.561	1	18
572.900	1	23
573.240	1	6
573.580	1	15
573.920	1	26
574.260	1	12
574.599	1	11
574.939	1	13
575.279	1	10
575.619	1	14
575.959	1	14
576.298	1	8
576.638	1	18
576.978	1	12
577.318	1	2
577.657	1	5
577.997	1	12
578.337	1	4
578.677	1	10
579.016	1	8
579.356	1	18
579.696	1	11
580.036	1	19
580.375	1	13
580.715	1	18
581.055	1	10
581.394	1	12
581.734	1	12
582.074	1	8
582.414	1	4
582.753	1	9
583.093	1	16
583.433	1	22
583.772	1	17
584.112	1	11
584.452	1	20
584.791	1	11
585.131	1	16
585.471	1	16
585.811	1	13
586.150	1	14
586.490	1	10
586.830	1	8
587.169	1	6
587.509	1	12
587.849	1	20
588.188	1	5
588.528	1	3
588.867	1	15
589.207	1	17
589.547	1	15
589.886	1	12
590.226	1	2
590.566	1	7
590.905	1	3
591.245	1	3
591.585	1	9
591.924	1	10
592.264	1	5
592.603	1	-7
592.943	1	13
593.283	1	10
593.622	1	9
593.962	1	11
594.301	1	10
594.641	1	9
594.981	1	8
595.320	1	11
595.660	1	11
595.999	1	16
596.339	1	4
596.678	1	-9
597.018	1	-6
597.358	1	4
597.697	1	-1
598.037	1	0
598.376	1	-6
598.716	1	4
599.055	1	16
599.395	1	10
599.734	1	16
600.074	1	9
600.413	1	-3
600.753	1	12
601.092	1	1
601.432	1	8
601.771	1	20
602.111	1	2
602.451	1	4
602.790	1	19
603.130	1	8
603.469	1	12
603.809	1	12
604.148	1	-3
604.487	1	6
604.827	1	2
605.166	1	7
605.506	1	9
605.845	1	9
606.185	1	0
606.524	1	-7
606.864	1	22
607.203	1	8
607.543	1	13
607.882	1	3
608.222	1	4
608.561	1	2
608.901	1	14
609.240	1	9
609.579	1	9
609.919	1	6
610.258	1	16
610.598	1	6
610.937	1	5
611.277	1	4
611.616	1	7
611.955	1	-3
612.295	1	17
612.634	1	12
612.974	1	4
613.313	1	15
613.652	1	14
613.992	1	18
614.331	1	13
614.671	1	14
615.010	1	6
615.349	1	12
615.689	1	3
616.028	1	26
616.368	1	13
616.707	1	10
617.046	1	11
617.386	1	17
617.725	1	0
618.064	1	4
618.404	1	2
618.743	1	15
619.082	1	15
619.422	1	23
619.761	1	-1
620.100	1	7
620.440	1	18
620.779	1	9
621.118	1	17
621.458	1	12
621.797	1	2
622.136	1	2
622.476	1	9
622.815	1	4
623.154	1	0
623.494	1	-5
623.833	1	0
624.172	1	5
624.511	1	1
624.851	1	1
625.190	1	8
625.529	1	10
625.869	1	11
626.208	1	-6
626.547	1	4
626.886	1	1
627.226	1	11
627.565	1	8
627.904	1	1
628.243	1	14
628.583	1	14
628.922	1	14
629.261	1	0
629.600	1	1
629.940	1	15
630.279	1	3
630.618	1	7
630.957	1	21
631.297	1	10
631.636	1	7
631.975	1	-1
632.314	1	4
632.653	1	1
632.993	1	4
633.332	1	-3
633.671	1	8
634.010	1	5
634.349	1	13
634.689	1	2
635.028	1	-5
635.367	1	17
635.706	1	12
636.045	1	-3
636.384	1	11
636.724	1	-3
637.063	1	6
637.402	1	8
637.741	1	11
638.080	1	6
638.419	1	0
638.759	1	8
639.098	1	8
639.437	1	4
639.776	1	11
640.115	1	4
640.454	1	3
640.793	1	8
641.132	1	0
641.472	1	22
641.811	1	10
642.150	1	-2
642.489	1	10
642.828	1	17
643.167	1	15
643.506	1	4
643.845	1	16
644.184	1	12
644.524	1	-3
644.863	1	1
645.202	1	-1
645.541	1	10
645.880	1	13
646.219	1	12
646.558	1	-6
646.897	1	-10
647.236	1	-4
647.575	1	13
647.914	1	13
648.253	1	0
648.592	1	12
648.931	1	6
649.270	1	17
649.610	1	5
649.949	1	3
650.288	1	19
650.627	1	9
650.966	1	11
651.305	1	9
651.644	1	10
651.983	1	0
652.322	1	1
652.661	1	2
653.000	1	9
653.339	1	11
653.678	1	10
654.017	1	4
654.356	1	11
654.695	1	18
655.034	1	-10
655.373	1	10
655.712	1	11
656.051	1	3
656.390	1	2
656.729	1	7
657.068	1	6
657.406	1	-3
657.745	1	16
658.084	1	12
658.423	1	19
658.762	1	7
659.101	1	6
659.440	1	7
659.779	1	7
660.118	1	1
660.457	1	6
660.796	1	11
661.135	1	13
661.474	1	9
661.813	1	11
662.152	1	6
662.491	1	-3
662.829	1	12
663.168	1	6
663.507	1	11
663.846	1	5
664.185	1	7
664.524	1	10
664.863	1	-8
665.202	1	6
665.541	1	2
665.879	1	-4
666.218	1	7
666.557	1	11
666.896	1	7
667.235	1	0
667.574	1	4
667.913	1	1
668.251	1	-4
668.590	1	6
668.929	1	3
669.268	1	6
669.607	1	-7
669.946	1	4
670.285	1	-4
670.623	1	7
670.962	1	2
671.301	1	5
671.640	1	6
671.979	1	1
672.317	1	9
672.656	1	14
672.995	1	11
673.334	1	8
673.673	1	3
674.011	1	3
674.350	1	13
674.689	1	7
675.028	1	5
675.367	1	5
675.705	1	-2
676.044	1	10
676.383	1	8
676.722	1	9
677.060	1	9
677.399	1	23
677.738	1	5
678.077	1	-2
678.416	1	6
678.754	1	4
679.093	1	15
679.432	1	-6
679.771	1	9
680.109	1	2
680.448	1	4
680.787	1	3
681.125	1	0
681.464	1	7
681.803	1	1
682.142	1	6
682.480	1	-6
682.819	1	3
683.158	1	5
683.496	1	-2
683.835	1	14
684.174	1	6
684.512	1	12
684.851	1	6
685.190	1	9
685.529	1	10
685.867	1	6
686.206	1	-2
686.545	1	3
686.883	1	10
687.222	1	10
687.561	1	11
687.899	1	12
688.238	1	14
688.577	1	8
688.746	1	1