File: Data/GaN_150K_450ms/GaN_sample D_spot15_UVVIS_150 K_200um_450 ms 2x2mm1_25.txt
340.368	1	-2
340.710	1	0
341.052	1	6
341.394	1	-9
341.737	1	7
342.079	1	6
342.421	1	-5
342.763	1	-1
343.105	1	3
343.447	1	-3
343.789	1	2
344.131	1	-7
344.473	1	2
344.815	1	2
345.157	1	16
345.499	1	4
345.841	1	6
346.183	1	1
346.526	1	-1
346.868	1	-8
347.210	1	-3
347.552	1	12
347.894	1	-1
348.236	1	-2
348.578	1	0
348.920	1	3
349.262	1	18
349.604	1	-10
349.946	1	-6
350.288	1	-9
350.630	1	5
350.972	1	4
351.314	1	-3
351.656	1	8
351.998	1	-1
352.340	1	5
352.682	1	-7
353.024	1	12
353.366	1	10
353.708	1	-9
354.050	1	-3
354.392	1	-7
354.734	1	5
355.076	1	8
355.418	1	-5
355.760	1	2
356.102	1	7
356.444	1	6
356.785	1	9
357.127	1	12
357.469	1	3
357.811	1	-1
358.153	1	-11
358.495	1	3
358.837	1	-3
359.179	1	3
359.521	1	11
359.863	1	-9
360.205	1	6
360.547	1	5
360.889	1	0
361.231	1	0
361.572	1	6
361.914	1	6
362.256	1	6
362.598	1	7
362.940	1	6
363.282	1	-15
363.624	1	0
363.966	1	-2
364.308	1	5
364.649	1	-1
364.991	1	8
365.333	1	-1
365.675	1	5
366.017	1	3
366.359	1	-4
366.701	1	4
367.042	1	0
367.384	1	-5
367.726	1	-3
368.068	1	7
368.410	1	-2
368.752	1	12
369.093	1	0
369.435	1	-2
369.777	1	11
370.119	1	5
370.461	1	2
370.803	1	-1
371.144	1	-1
371.486	1	6
371.828	1	-1
372.170	1	12
372.512	1	-12
372.853	1	15
373.195	1	3
373.537	1	-7
373.879	1	-5
374.220	1	7
374.562	1	9
374.904	1	12
375.246	1	-3
375.588	1	-9
375.929	1	5
376.271	1	-8
376.613	1	5
376.955	1	-1
377.296	1	6
377.638	1	-5
377.980	1	-1
378.321	1	13
378.663	1	-1
379.005	1	2
379.347	1	-3
379.688	1	5
380.030	1	-1
380.372	1	9
380.714	1	7
381.055	1	5
381.397	1	0
381.739	1	-12
382.080	1	5
382.422	1	1
382.764	1	4
383.105	1	-6
383.447	1	-3
383.789	1	-16
384.130	1	-4
384.472	1	1
384.814	1	2
385.156	1	-4
385.497	1	9
385.839	1	5
386.180	1	5
386.522	1	6
386.864	1	1
387.205	1	3
387.547	1	12
387.889	1	0
388.230	1	2
388.572	1	1
388.914	1	6
389.255	1	-4
389.597	1	-4
389.939	1	10
390.280	1	-2
390.622	1	-8
390.963	1	-6
391.305	1	1
391.647	1	-7
391.988	1	0
392.330	1	-3
392.671	1	1
393.013	1	0
393.355	1	7
393.696	1	8
394.038	1	4
394.379	1	1
394.721	1	1
395.062	1	-12
395.404	1	6
395.746	1	-14
396.087	1	3
396.429	1	4
396.770	1	6
397.112	1	3
397.453	1	-4
397.795	1	-1
398.136	1	1
398.478	1	4
398.819	1	9
399.161	1	8
399.503	1	9
399.844	1	-8
400.186	1	-4
400.527	1	6
400.869	1	-7
401.210	1	-3
401.552	1	0
401.893	1	9
402.235	1	4
402.576	1	-4
402.918	1	-11
403.259	1	1
403.601	1	10
403.942	1	-1
404.284	1	13
404.625	1	-6
404.967	1	1
405.308	1	-14
405.649	1	5
405.991	1	-2
406.332	1	10
406.674	1	-3
407.015	1	0
407.357	1	5
407.698	1	4
408.040	1	20
408.381	1	-4
408.722	1	0
409.064	1	-7
409.405	1	-1
409.747	1	-4
410.088	1	12
410.430	1	11
410.771	1	-1
411.112	1	-2
411.454	1	-5
411.795	1	1
412.137	1	5
412.478	1	0
412.819	1	5
413.161	1	5
413.502	1	2
413.844	1	8
414.185	1	5
414.526	1	-16
414.868	1	-2
415.209	1	-6
415.550	1	-3
415.892	1	2
416.233	1	-8
416.575	1	-1
416.916	1	-4
417.257	1	-5
417.599	1	-3
417.940	1	-6
418.281	1	3
418.623	1	1
418.964	1	12
419.305	1	2
419.647	1	2
419.988	1	5
420.329	1	6
420.671	1	0
421.012	1	-7
421.353	1	11
421.695	1	6
422.036	1	11
422.377	1	5
422.718	1	4
423.060	1	11
423.401	1	-4
423.742	1	12
424.084	1	1
424.425	1	3
424.766	1	0
425.107	1	3
425.449	1	3
425.790	1	-2
426.131	1	-2
426.472	1	1
426.814	1	-7
427.155	1	2
427.496	1	-1
427.837	1	-4
428.179	1	10
428.520	1	3
428.861	1	5
429.202	1	-8
429.544	1	10
429.885	1	2
430.226	1	-9
430.567	1	-16
430.909	1	-2
431.250	1	5
431.591	1	-3
431.932	1	-2
432.273	1	6
432.615	1	-8
432.956	1	9
433.297	1	5
433.638	1	13
433.979	1	6
434.320	1	8
434.662	1	8
435.003	1	0
435.344	1	3
435.685	1	-9
436.026	1	1
436.368	1	-5
436.709	1	-7
437.050	1	-2
437.391	1	-4
437.732	1	-2
438.073	1	-5
438.414	1	4
438.756	1	0
439.097	1	7
439.438	1	0
439.779	1	8
440.120	1	1
440.461	1	0
440.802	1	-1
441.143	1	3
441.485	1	-1
441.826	1	2
442.167	1	-6
442.508	1	6
442.849	1	1
443.190	1	3
443.531	1	0
443.872	1	-3
444.213	1	-9
444.554	1	8
444.895	1	-4
445.237	1	3
445.578	1	-7
445.919	1	3
446.260	1	6
446.601	1	-2
446.942	1	-6
447.283	1	5
447.624	1	-6
447.965	1	1
448.306	1	7
448.647	1	0
448.988	1	-8
449.329	1	9
449.670	1	-6
450.011	1	-4
450.352	1	-1
450.693	1	1
451.034	1	4
451.375	1	-3
451.716	1	6
452.057	1	-4
452.398	1	3
452.739	1	4
453.080	1	8
453.421	1	10
453.762	1	6
454.103	1	-5
454.444	1	2
454.785	1	2
455.126	1	0
455.467	1	3
455.808	1	7
456.149	1	-5
456.490	1	-11
456.831	1	1
457.172	1	5
457.513	1	2
457.854	1	0
458.195	1	0
458.536	1	5
458.877	1	-5
459.218	1	15
459.559	1	0
459.899	1	-2
460.240	1	0
460.581	1	-15
460.922	1	2
461.263	1	9
461.604	1	0
461.945	1	-1
462.286	1	-2
462.627	1	-4
462.968	1	2
463.309	1	1
463.649	1	-2
463.990	1	-3
464.331	1	4
464.672	1	5
465.013	1	8
465.354	1	10
465.695	1	-5
466.036	1	7
466.376	1	12
466.717	1	-3
467.058	1	9
467.399	1	-4
467.740	1	10
468.081	1	7
468.422	1	7
468.762	1	5
469.103	1	-1
469.444	1	2
469.785	1	-2
470.126	1	7
470.467	1	8
470.807	1	3
471.148	1	-7
471.489	1	0
471.830	1	4
472.171	1	12
472.511	1	2
472.852	1	9
473.193	1	3
473.534	1	1
473.875	1	6
474.215	1	-1
474.556	1	-4
474.897	1	-2
475.238	1	2
475.578	1	-5
475.919	1	-5
476.260	1	2
476.601	1	2
476.942	1	2
477.282	1	-2
477.623	1	3
477.964	1	13
478.305	1	5
478.645	1	4
478.986	1	10
479.327	1	5
479.667	1	-3
480.008	1	-2
480.349	1	-1
480.690	1	3
481.030	1	-5
481.371	1	-11
481.712	1	8
482.053	1	6
482.393	1	0
482.734	1	9
483.075	1	9
483.415	1	0
483.756	1	2
484.097	1	2
484.437	1	12
484.778	1	-3
485.119	1	-1
485.459	1	0
485.800	1	-4
486.141	1	7
486.481	1	-5
486.822	1	12
487.163	1	-3
487.503	1	5
487.844	1	1
488.185	1	2
488.525	1	-3
488.866	1	-12
489.207	1	6
489.547	1	5
489.888	1	14
490.228	1	8
490.569	1	-9
490.910	1	-1
491.250	1	-5
491.591	1	-2
491.932	1	5
492.272	1	-9
492.613	1	-4
492.953	1	2
493.294	1	-16
493.635	1	3
493.975	1	9
494.316	1	3
494.656	1	5
494.997	1	-7
495.337	1	4
495.678	1	-5
496.019	1	-3
496.359	1	-7
496.700	1	3
497.040	1	-3
497.381	1	-3
497.721	1	-6
498.062	1	1
498.403	1	11
498.743	1	2
499.084	1	-2
499.424	1	-3
499.765	1	3
500.105	1	13
500.446	1	-9
500.786	1	-3
501.127	1	9
501.467	1	5
501.808	1	7
502.148	1	-6
502.489	1	-4
502.829	1	-2
503.170	1	15
503.510	1	-4
503.851	1	3
504.191	1	-6
504.532	1	16
504.872	1	-4
505.213	1	-2
505.553	1	-1
505.894	1	-3
506.234	1	7
506.575	1	17
506.915	1	1
507.256	1	5
507.596	1	7
507.936	1	10
508.277	1	8
508.617	1	-2
508.958	1	11
509.298	1	-8
509.639	1	-5
509.979	1	-5
510.319	1	0
510.660	1	-3
511.000	1	-1
511.341	1	10
511.681	1	2
512.022	1	-6
512.362	1	3
512.702	1	-6
513.043	1	5
513.383	1	0
513.724	1	1
514.064	1	6
514.404	1	12
514.745	1	2
515.085	1	2
515.425	1	5
515.766	1	6
516.106	1	-5
516.447	1	10
516.787	1	-3
517.127	1	5
517.468	1	6
517.808	1	-4
518.148	1	7
518.489	1	7
518.829	1	5
519.169	1	-9
519.510	1	-3
519.850	1	-6
520.190	1	0
520.531	1	-2
520.871	1	5
521.211	1	9
521.552	1	-4
521.892	1	1
522.232	1	7
522.573	1	-2
522.913	1	5
523.253	1	8
523.593	1	16
523.934	1	2
524.274	1	2
524.614	1	6
524.955	1	0
525.295	1	-1
525.635	1	-1
525.975	1	2
526.316	1	-1
526.656	1	0
526.996	1	-3
527.337	1	4
527.677	1	11
528.017	1	-9
528.357	1	15
528.698	1	5
529.038	1	-3
529.378	1	5
529.718	1	-10
530.058	1	4
530.399	1	2
530.739	1	2
531.079	1	-3
531.419	1	1
531.760	1	1
532.100	1	6
532.440	1	-4
532.780	1	8
533.120	1	-8
533.461	1	-7
533.801	1	1
534.141	1	11
534.481	1	10
534.821	1	2
535.162	1	2
535.502	1	-2
535.842	1	-4
536.182	1	0
536.522	1	-2
536.862	1	-3
537.203	1	5
537.543	1	1
537.883	1	3
538.223	1	4
538.563	1	-2
538.903	1	0
539.243	1	2
539.584	1	-7
539.924	1	6
540.264	1	12
540.604	1	12
540.944	1	5
541.284	1	-2
541.624	1	5
541.964	1	0
542.305	1	15
542.645	1	-9
542.985	1	-7
543.325	1	9
543.665	1	-5
544.005	1	-1
544.345	1	11
544.685	1	-3
545.025	1	6
545.365	1	10
545.705	1	8
546.045	1	1
546.386	1	-6
546.726	1	1
547.066	1	-2
547.406	1	-7
547.746	1	-2
548.086	1	2
548.426	1	-2
548.766	1	-3
549.106	1	-6
549.446	1	4
549.786	1	7
550.126	1	7
550.466	1	-2
550.806	1	12
551.146	1	4
551.486	1	0
551.826	1	-3
552.166	1	1
552.506	1	3
552.846	1	5
553.186	1	-3
553.526	1	-2
553.866	1	-12
554.206	1	5
554.546	1	3
554.886	1	-3
555.226	1	-2
555.566	1	-2
555.906	1	3
556.246	1	-4
556.586	1	3
556.926	1	-7
557.266	1	2
557.606	1	-9
557.946	1	4
558.286	1	-4
558.626	1	-3
558.966	1	0
559.306	1	-2
559.646	1	-1
559.986	1	8
560.325	1	1
560.665	1	4
561.005	1	-4
561.345	1	-4
561.685	1	8
562.025	1	9
562.365	1	-2
562.705	1	5
563.045	1	2
563.385	1	7
563.725	1	1
564.064	1	-3
564.404	1	-13
564.744	1	10
565.084	1	5
565.424	1	-1
565.764	1	-1
566.104	1	10
566.444	1	11
566.783	1	4
567.123	1	2
567.463	1	9
567.803	1	7
568.143	1	-1
568.483	1	1
568.823	1	2
569.162	1	1
569.502	1	3
569.842	1	0
570.182	1	1
570.522	1	4
570.862	1	-13
571.201	1	13
571.541	1	-1
571.881	1	-4
572.221	1	-2
572.561	1	10
572.900	1	8
573.240	1	-9
573.580	1	2
573.920	1	6
574.260	1	4
574.599	1	5
574.939	1	4
575.279	1	-3
575.619	1	-6
575.959	1	1
576.298	1	-4
576.638	1	3
576.978	1	-5
577.318	1	-4
577.657	1	2
577.997	1	2
578.337	1	-2
578.677	1	4
579.016	1	0
579.356	1	-3
579.696	1	1
580.036	1	-1
580.375	1	5
580.715	1	-5
581.055	1	1
581.394	1	1
581.734	1	12
582.074	1	-3
582.414	1	5
582.753	1	-3
583.093	1	4
583.433	1	10
583.772	1	5
584.112	1	-6
584.452	1	1
584.791	1	6
585.131	1	2
585.471	1	0
585.811	1	0
586.150	1	-2
586.490	1	-2
586.830	1	8
587.169	1	-3
587.509	1	0
587.849	1	15
588.188	1	12
588.528	1	2
588.867	1	1
589.207	1	7
589.547	1	3
589.886	1	5
590.226	1	-8
590.566	1	-10
590.905	1	1
591.245	1	0
591.585	1	-1
591.924	1	-2
592.264	1	-5
592.603	1	-12
592.943	1	-6
593.283	1	7
593.622	1	0
593.962	1	10
594.301	1	1
594.641	1	-4
594.981	1	-2
595.320	1	4
595.660	1	12
595.999	1	11
596.339	1	-1
596.678	1	6
597.018	1	-5
597.358	1	4
597.697	1	-12
598.037	1	0
598.376	1	-5
598.716	1	10
599.055	1	16
599.395	1	4
599.734	1	-3
600.074	1	-2
600.413	1	2
600.753	1	-4
601.092	1	-12
601.432	1	-4
601.771	1	0
602.111	1	-4
602.451	1	-1
602.790	1	5
603.130	1	-6
603.469	1	6
603.809	1	-1
604.148	1	-2
604.487	1	-3
604.827	1	3
605.166	1	3
605.506	1	-1
605.845	1	-2
606.185	1	-5
606.524	1	-4
606.864	1	11
607.203	1	1
607.543	1	5
607.882	1	12
608.222	1	-10
608.561	1	1
608.901	1	2
609.240	1	-8
609.579	1	-2
609.919	1	-9
610.258	1	11
610.598	1	-2
610.937	1	-4
611.277	1	1
611.616	1	6
611.955	1	0
612.295	1	-4
612.634	1	10
612.974	1	-5
613.313	1	3
613.652	1	2
613.992	1	-5
614.331	1	11
614.671	1	6
615.010	1	0
615.349	1	9
615.689	1	6
616.028	1	17
616.368	1	3
616.707	1	3
617.046	1	-1
617.386	1	18
617.725	1	-3
618.064	1	2
618.404	1	-10
618.743	1	7
619.082	1	9
619.422	1	11
619.761	1	-7
620.100	1	5
620.440	1	1
620.779	1	-1
621.118	1	7
621.458	1	8
621.797	1	2
622.136	1	-3
622.476	1	1
622.815	1	-1
623.154	1	-8
623.494	1	-11
623.833	1	-5
624.172	1	-4
624.511	1	-1
624.851	1	0
625.190	1	-1
625.529	1	-5
625.869	1	4
626.208	1	-10
626.547	1	-6
626.886	1	5
627.226	1	4
627.565	1	5
627.904	1	-3
628.243	1	8
628.583	1	5
628.922	1	14
629.261	1	-3
629.600	1	3
629.940	1	3
630.279	1	12
630.618	1	7
630.957	1	-2
631.297	1	12
631.636	1	-1
631.975	1	-2
632.314	1	-5
632.653	1	-9
632.993	1	-5
633.332	1	6
633.671	1	7
634.010	1	2
634.349	1	11
634.689	1	-5
635.028	1	-4
635.367	1	11
635.706	1	-1
636.045	1	-1
636.384	1	7
636.724	1	-2
637.063	1	-4
637.402	1	0
637.741	1	-2
638.080	1	4
638.419	1	0
638.759	1	8
639.098	1	1
639.437	1	1
639.776	1	-4
640.115	1	-10
640.454	1	-5
640.793	1	-1
641.132	1	5
641.472	1	17
641.811	1	1
642.150	1	-3
642.489	1	4
642.828	1	9
643.167	1	-1
643.506	1	1
643.845	1	9
644.184	1	9
644.524	1	-6
644.863	1	-2
645.202	1	-3
645.541	1	9
645.880	1	10
646.219	1	1
646.558	1	-15
646.897	1	-9
647.236	1	-17
647.575	1	7
647.914	1	1
648.253	1	7
648.592	1	5
648.931	1	10
649.270	1	1
649.610	1	8
649.949	1	-6
650.288	1	3
650.627	1	-8
650.966	1	-7
651.305	1	4
651.644	1	15
651.983	1	2
652.322	1	-3
652.661	1	6
653.000	1	4
653.339	1	-7
653.678	1	8
654.017	1	8
654.356	1	5
654.695	1	13
655.034	1	-1
655.373	1	-4
655.712	1	7
656.051	1	-2
656.390	1	6
656.729	1	10
657.068	1	-5
657.406	1	1
657.745	1	7
658.084	1	-2
658.423	1	2
658.762	1	0
659.101	1	3
659.440	1	4
659.779	1	10
660.118	1	0
660.457	1	-9
660.796	1	6
661.135	1	5
661.474	1	5
661.813	1	-5
662.152	1	1
662.491	1	-7
662.829	1	-4
663.168	1	1
663.507	1	3
663.846	1	-6
664.185	1	-5
664.524	1	4
664.863	1	-10
665.202	1	7
665.541	1	-1
665.879	1	-4
666.218	1	3
666.557	1	1
666.896	1	7
667.235	1	-16
667.574	1	-8
667.913	1	-5
668.251	1	-14
668.590	1	-10
668.929	1	-2
669.268	1	-5
669.607	1	-4
669.946	1	0
670.285	1	0
670.623	1	5
670.962	1	-5
671.301	1	-3
671.640	1	8
671.979	1	1
672.317	1	-2
672.656	1	10
672.995	1	12
673.334	1	-2
673.673	1	5
674.011	1	1
674.350	1	-5
674.689	1	-4
675.028	1	5
675.367	1	-2
675.705	1	-10
676.044	1	2
676.383	1	-8
676.722	1	-6
677.060	1	0
677.399	1	7
677.738	1	-3
678.077	1	-9
678.416	1	-6
678.754	1	-5
679.093	1	10
679.432	1	-5
679.771	1	0
680.109	1	-1
680.448	1	-4
680.787	1	-7
681.125	1	0
681.464	1	3
681.803	1	2
682.142	1	7
682.480	1	-5
682.819	1	4
683.158	1	2
683.496	1	3
683.835	1	8
684.174	1	3
684.512	1	-6
684.851	1	3
685.190	1	-2
685.529	1	-4
685.867	1	0
686.206	1	-6
686.545	1	-1
686.883	1	10
687.222	1	-2
687.561	1	-2
687.899	1	0
688.238	1	7
688.577	1	8
688.746	1	-4