File: Data/GaN_150K_450ms/GaN_sample D_spot15_UVVIS_150 K_200um_450 ms 2x2mm1_94.txt
340.368	1	10
340.710	1	6
341.052	1	1
341.394	1	-4
341.737	1	13
342.079	1	12
342.421	1	-2
342.763	1	9
343.105	1	10
343.447	1	-2
343.789	1	7
344.131	1	-8
344.473	1	3
344.815	1	2
345.157	1	8
345.499	1	12
345.841	1	2
346.183	1	3
346.526	1	15
346.868	1	7
347.210	1	7
347.552	1	21
347.894	1	4
348.236	1	11
348.578	1	14
348.920	1	6
349.262	1	10
349.604	1	1
349.946	1	4
350.288	1	2
350.630	1	6
350.972	1	12
351.314	1	2
351.656	1	10
351.998	1	8
352.340	1	11
352.682	1	-5
353.024	1	16
353.366	1	16
353.708	1	8
354.050	1	2
354.392	1	-5
354.734	1	9
355.076	1	22
355.418	1	2
355.760	1	10
356.102	1	15
356.444	1	20
356.785	1	8
357.127	1	17
357.469	1	10
357.811	1	8
358.153	1	-1
358.495	1	12
358.837	1	23
359.179	1	17
359.521	1	18
359.863	1	18
360.205	1	35
360.547	1	23
360.889	1	23
361.231	1	29
361.572	1	31
361.914	1	36
362.256	1	37
362.598	1	51
362.940	1	45
363.282	1	40
363.624	1	51
363.966	1	42
364.308	1	65
364.649	1	61
364.991	1	83
365.333	1	78
365.675	1	86
366.017	1	88
366.359	1	86
366.701	1	89
367.042	1	111
367.384	1	96
367.726	1	102
368.068	1	110
368.410	1	116
368.752	1	119
369.093	1	105
369.435	1	106
369.777	1	99
370.119	1	91
370.461	1	95
370.803	1	89
371.144	1	88
371.486	1	91
371.828	1	74
372.170	1	79
372.512	1	65
372.853	1	64
373.195	1	62
373.537	1	50
373.879	1	63
374.220	1	57
374.562	1	63
374.904	1	60
375.246	1	45
375.588	1	45
375.929	1	52
376.271	1	36
376.613	1	48
376.955	1	40
377.296	1	48
377.638	1	28
377.980	1	32
378.321	1	38
378.663	1	28
379.005	1	33
379.347	1	35
379.688	1	47
380.030	1	38
380.372	1	38
380.714	1	26
381.055	1	24
381.397	1	33
381.739	1	12
382.080	1	25
382.422	1	27
382.764	1	23
383.105	1	14
383.447	1	16
383.789	1	9
384.130	1	18
384.472	1	15
384.814	1	35
385.156	1	15
385.497	1	16
385.839	1	21
386.180	1	6
386.522	1	20
386.864	1	15
387.205	1	18
387.547	1	25
387.889	1	8
388.230	1	17
388.572	1	6
388.914	1	12
389.255	1	12
389.597	1	7
389.939	1	25
390.280	1	7
390.622	1	14
390.963	1	13
391.305	1	12
391.647	1	16
391.988	1	12
392.330	1	12
392.671	1	20
393.013	1	14
393.355	1	24
393.696	1	6
394.038	1	4
394.379	1	18
394.721	1	12
395.062	1	9
395.404	1	16
395.746	1	10
396.087	1	22
396.429	1	23
396.770	1	12
397.112	1	14
397.453	1	15
397.795	1	5
398.136	1	17
398.478	1	12
398.819	1	19
399.161	1	28
399.503	1	20
399.844	1	11
400.186	1	13
400.527	1	12
400.869	1	8
401.210	1	14
401.552	1	17
401.893	1	11
402.235	1	11
402.576	1	12
402.918	1	13
403.259	1	10
403.601	1	16
403.942	1	10
404.284	1	13
404.625	1	7
404.967	1	22
405.308	1	-6
405.649	1	14
405.991	1	13
406.332	1	13
406.674	1	9
407.015	1	20
407.357	1	9
407.698	1	16
408.040	1	28
408.381	1	12
408.722	1	8
409.064	1	18
409.405	1	17
409.747	1	11
410.088	1	19
410.430	1	19
410.771	1	15
411.112	1	16
411.454	1	18
411.795	1	7
412.137	1	7
412.478	1	17
412.819	1	14
413.161	1	16
413.502	1	17
413.844	1	21
414.185	1	9
414.526	1	5
414.868	1	12
415.209	1	16
415.550	1	15
415.892	1	20
416.233	1	11
416.575	1	9
416.916	1	12
417.257	1	18
417.599	1	20
417.940	1	12
418.281	1	22
418.623	1	16
418.964	1	25
419.305	1	17
419.647	1	5
419.988	1	28
420.329	1	26
420.671	1	29
421.012	1	19
421.353	1	15
421.695	1	18
422.036	1	27
422.377	1	22
422.718	1	17
423.060	1	24
423.401	1	10
423.742	1	30
424.084	1	20
424.425	1	19
424.766	1	16
425.107	1	14
425.449	1	17
425.790	1	15
426.131	1	13
426.472	1	19
426.814	1	17
427.155	1	16
427.496	1	21
427.837	1	17
428.179	1	23
428.520	1	18
428.861	1	20
429.202	1	6
429.544	1	18
429.885	1	10
430.226	1	16
430.567	1	7
430.909	1	11
431.250	1	17
431.591	1	17
431.932	1	19
432.273	1	21
432.615	1	3
432.956	1	13
433.297	1	16
433.638	1	18
433.979	1	11
434.320	1	18
434.662	1	15
435.003	1	22
435.344	1	19
435.685	1	11
436.026	1	11
436.368	1	5
436.709	1	8
437.050	1	13
437.391	1	9
437.732	1	18
438.073	1	5
438.414	1	15
438.756	1	17
439.097	1	12
439.438	1	9
439.779	1	12
440.120	1	6
440.461	1	14
440.802	1	24
441.143	1	16
441.485	1	1
441.826	1	5
442.167	1	5
442.508	1	9
442.849	1	11
443.190	1	16
443.531	1	19
443.872	1	-4
444.213	1	-1
444.554	1	18
444.895	1	16
445.237	1	13
445.578	1	7
445.919	1	14
446.260	1	16
446.601	1	13
446.942	1	13
447.283	1	16
447.624	1	-1
447.965	1	10
448.306	1	18
448.647	1	14
448.988	1	22
449.329	1	15
449.670	1	12
450.011	1	13
450.352	1	5
450.693	1	11
451.034	1	9
451.375	1	2
451.716	1	15
452.057	1	10
452.398	1	21
452.739	1	12
453.080	1	13
453.421	1	11
453.762	1	19
454.103	1	18
454.444	1	12
454.785	1	8
455.126	1	12
455.467	1	1
455.808	1	18
456.149	1	6
456.490	1	1
456.831	1	4
457.172	1	15
457.513	1	12
457.854	1	4
458.195	1	8
458.536	1	13
458.877	1	14
459.218	1	13
459.559	1	11
459.899	1	3
460.240	1	5
460.581	1	-7
460.922	1	15
461.263	1	14
461.604	1	18
461.945	1	12
462.286	1	-5
462.627	1	8
462.968	1	10
463.309	1	4
463.649	1	8
463.990	1	7
464.331	1	14
464.672	1	13
465.013	1	9
465.354	1	13
465.695	1	9
466.036	1	9
466.376	1	17
466.717	1	-2
467.058	1	4
467.399	1	3
467.740	1	13
468.081	1	11
468.422	1	20
468.762	1	8
469.103	1	2
469.444	1	6
469.785	1	2
470.126	1	5
470.467	1	0
470.807	1	10
471.148	1	4
471.489	1	15
471.830	1	11
472.171	1	17
472.511	1	18
472.852	1	8
473.193	1	8
473.534	1	5
473.875	1	6
474.215	1	15
474.556	1	8
474.897	1	-5
475.238	1	9
475.578	1	-3
475.919	1	7
476.260	1	13
476.601	1	7
476.942	1	0
477.282	1	0
477.623	1	2
477.964	1	14
478.305	1	13
478.645	1	14
478.986	1	16
479.327	1	10
479.667	1	16
480.008	1	13
480.349	1	-3
480.690	1	19
481.030	1	-1
481.371	1	0
481.712	1	17
482.053	1	16
482.393	1	18
482.734	1	12
483.075	1	14
483.415	1	14
483.756	1	4
484.097	1	19
484.437	1	11
484.778	1	3
485.119	1	8
485.459	1	3
485.800	1	7
486.141	1	14
486.481	1	-1
486.822	1	12
487.163	1	-4
487.503	1	6
487.844	1	9
488.185	1	11
488.525	1	8
488.866	1	1
489.207	1	15
489.547	1	11
489.888	1	12
490.228	1	7
490.569	1	11
490.910	1	14
491.250	1	12
491.591	1	15
491.932	1	20
492.272	1	1
492.613	1	11
492.953	1	7
493.294	1	-1
493.635	1	17
493.975	1	17
494.316	1	5
494.656	1	20
494.997	1	0
495.337	1	8
495.678	1	4
496.019	1	7
496.359	1	16
496.700	1	19
497.040	1	1
497.381	1	19
497.721	1	11
498.062	1	16
498.403	1	16
498.743	1	6
499.084	1	18
499.424	1	12
499.765	1	18
500.105	1	25
500.446	1	16
500.786	1	10
501.127	1	21
501.467	1	23
501.808	1	28
502.148	1	13
502.489	1	10
502.829	1	9
503.170	1	17
503.510	1	7
503.851	1	32
504.191	1	10
504.532	1	25
504.872	1	18
505.213	1	13
505.553	1	19
505.894	1	22
506.234	1	19
506.575	1	31
506.915	1	13
507.256	1	35
507.596	1	23
507.936	1	28
508.277	1	31
508.617	1	27
508.958	1	29
509.298	1	23
509.639	1	18
509.979	1	22
510.319	1	25
510.660	1	23
511.000	1	19
511.341	1	39
511.681	1	25
512.022	1	15
512.362	1	34
512.702	1	24
513.043	1	24
513.383	1	18
513.724	1	30
514.064	1	21
514.404	1	32
514.745	1	28
515.085	1	27
515.425	1	30
515.766	1	27
516.106	1	20
516.447	1	39
516.787	1	34
517.127	1	24
517.468	1	38
517.808	1	22
518.148	1	43
518.489	1	19
518.829	1	31
519.169	1	20
519.510	1	15
519.850	1	27
520.190	1	24
520.531	1	25
520.871	1	35
521.211	1	32
521.552	1	24
521.892	1	30
522.232	1	35
522.573	1	31
522.913	1	28
523.253	1	34
523.593	1	28
523.934	1	22
524.274	1	37
524.614	1	29
524.955	1	21
525.295	1	34
525.635	1	40
525.975	1	22
526.316	1	24
526.656	1	26
526.996	1	27
527.337	1	31
527.677	1	31
528.017	1	25
528.357	1	40
528.698	1	30
529.038	1	34
529.378	1	29
529.718	1	28
530.058	1	24
530.399	1	38
530.739	1	33
531.079	1	31
531.419	1	37
531.760	1	39
532.100	1	34
532.440	1	43
532.780	1	40
533.120	1	34
533.461	1	25
533.801	1	37
534.141	1	35
534.481	1	44
534.821	1	35
535.162	1	31
535.502	1	40
535.842	1	23
536.182	1	30
536.522	1	25
536.862	1	17
537.203	1	28
537.543	1	27
537.883	1	27
538.223	1	37
538.563	1	30
538.903	1	19
539.243	1	29
539.584	1	27
539.924	1	31
540.264	1	40
540.604	1	33
540.944	1	26
541.284	1	25
541.624	1	21
541.964	1	19
542.305	1	37
542.645	1	15
542.985	1	15
543.325	1	32
543.665	1	21
544.005	1	19
544.345	1	34
544.685	1	12
545.025	1	20
545.365	1	25
545.705	1	27
546.045	1	22
546.386	1	19
546.726	1	30
547.066	1	19
547.406	1	18
547.746	1	22
548.086	1	24
548.426	1	26
548.766	1	17
549.106	1	25
549.446	1	24
549.786	1	19
550.126	1	22
550.466	1	22
550.806	1	41
551.146	1	31
551.486	1	23
551.826	1	27
552.166	1	30
552.506	1	15
552.846	1	28
553.186	1	17
553.526	1	27
553.866	1	22
554.206	1	22
554.546	1	30
554.886	1	18
555.226	1	20
555.566	1	24
555.906	1	21
556.246	1	17
556.586	1	19
556.926	1	20
557.266	1	21
557.606	1	13
557.946	1	25
558.286	1	8
558.626	1	17
558.966	1	20
559.306	1	19
559.646	1	19
559.986	1	15
560.325	1	20
560.665	1	26
561.005	1	23
561.345	1	12
561.685	1	21
562.025	1	21
562.365	1	15
562.705	1	29
563.045	1	15
563.385	1	21
563.725	1	10
564.064	1	19
564.404	1	17
564.744	1	23
565.084	1	17
565.424	1	11
565.764	1	17
566.104	1	19
566.444	1	18
566.783	1	19
567.123	1	19
567.463	1	30
567.803	1	24
568.143	1	18
568.483	1	26
568.823	1	14
569.162	1	14
569.502	1	18
569.842	1	18
570.182	1	19
570.522	1	11
570.862	1	3
571.201	1	20
571.541	1	15
571.881	1	10
572.221	1	17
572.561	1	21
572.900	1	18
573.240	1	7
573.580	1	19
573.920	1	16
574.260	1	15
574.599	1	21
574.939	1	6
575.279	1	10
575.619	1	8
575.959	1	6
576.298	1	5
576.638	1	16
576.978	1	14
577.318	1	16
577.657	1	7
577.997	1	14
578.337	1	9
578.677	1	19
579.016	1	13
579.356	1	13
579.696	1	8
580.036	1	10
580.375	1	14
580.715	1	19
581.055	1	9
581.394	1	20
581.734	1	10
582.074	1	7
582.414	1	5
582.753	1	9
583.093	1	15
583.433	1	15
583.772	1	22
584.112	1	13
584.452	1	12
584.791	1	15
585.131	1	16
585.471	1	10
585.811	1	7
586.150	1	14
586.490	1	-1
586.830	1	14
587.169	1	10
587.509	1	15
587.849	1	9
588.188	1	19
588.528	1	7
588.867	1	17
589.207	1	23
589.547	1	16
589.886	1	13
590.226	1	1
590.566	1	-2
590.905	1	9
591.245	1	1
591.585	1	7
591.924	1	5
592.264	1	7
592.603	1	0
592.943	1	11
593.283	1	7
593.622	1	7
593.962	1	8
594.301	1	4
594.641	1	9
594.981	1	14
595.320	1	21
595.660	1	19
595.999	1	11
596.339	1	10
596.678	1	3
597.018	1	-4
597.358	1	9
597.697	1	6
598.037	1	10
598.376	1	-2
598.716	1	13
599.055	1	17
599.395	1	2
599.734	1	6
600.074	1	5
600.413	1	8
600.753	1	17
601.092	1	7
601.432	1	2
601.771	1	8
602.111	1	0
602.451	1	-6
602.790	1	12
603.130	1	4
603.469	1	6
603.809	1	14
604.148	1	0
604.487	1	7
604.827	1	14
605.166	1	11
605.506	1	7
605.845	1	11
606.185	1	-2
606.524	1	8
606.864	1	21
607.203	1	12
607.543	1	11
607.882	1	14
608.222	1	6
608.561	1	4
608.901	1	7
609.240	1	7
609.579	1	11
609.919	1	3
610.258	1	26
610.598	1	-1
610.937	1	12
611.277	1	9
611.616	1	22
611.955	1	2
612.295	1	5
612.634	1	10
612.974	1	5
613.313	1	18
613.652	1	12
613.992	1	-1
614.331	1	18
614.671	1	8
615.010	1	2
615.349	1	4
615.689	1	1
616.028	1	18
616.368	1	15
616.707	1	11
617.046	1	2
617.386	1	19
617.725	1	-4
618.064	1	1
618.404	1	4
618.743	1	18
619.082	1	12
619.422	1	23
619.761	1	8
620.100	1	5
620.440	1	6
620.779	1	9
621.118	1	13
621.458	1	7
621.797	1	11
622.136	1	3
622.476	1	9
622.815	1	14
623.154	1	-4
623.494	1	-7
623.833	1	10
624.172	1	12
624.511	1	9
624.851	1	5
625.190	1	10
625.529	1	2
625.869	1	12
626.208	1	0
626.547	1	10
626.886	1	5
627.226	1	9
627.565	1	8
627.904	1	6
628.243	1	17
628.583	1	4
628.922	1	3
629.261	1	3
629.600	1	2
629.940	1	8
630.279	1	15
630.618	1	10
630.957	1	7
631.297	1	8
631.636	1	4
631.975	1	9
632.314	1	4
632.653	1	8
632.993	1	3
633.332	1	12
633.671	1	11
634.010	1	11
634.349	1	17
634.689	1	6
635.028	1	0
635.367	1	9
635.706	1	4
636.045	1	-2
636.384	1	5
636.724	1	6
637.063	1	-3
637.402	1	9
637.741	1	0
638.080	1	1
638.419	1	-2
638.759	1	0
639.098	1	8
639.437	1	9
639.776	1	3
640.115	1	-4
640.454	1	4
640.793	1	6
641.132	1	9
641.472	1	15
641.811	1	4
642.150	1	4
642.489	1	14
642.828	1	13
643.167	1	4
643.506	1	9
643.845	1	14
644.184	1	12
644.524	1	0
644.863	1	7
645.202	1	9
645.541	1	9
645.880	1	10
646.219	1	8
646.558	1	1
646.897	1	1
647.236	1	-6
647.575	1	12
647.914	1	12
648.253	1	20
648.592	1	7
648.931	1	9
649.270	1	11
649.610	1	5
649.949	1	7
650.288	1	6
650.627	1	4
650.966	1	4
651.305	1	18
651.644	1	16
651.983	1	-10
652.322	1	7
652.661	1	16
653.000	1	2
653.339	1	5
653.678	1	12
654.017	1	15
654.356	1	1
654.695	1	17
655.034	1	3
655.373	1	10
655.712	1	6
656.051	1	1
656.390	1	1
656.729	1	9
657.068	1	5
657.406	1	-5
657.745	1	9
658.084	1	1
658.423	1	18
658.762	1	-9
659.101	1	-5
659.440	1	6
659.779	1	12
660.118	1	6
660.457	1	-2
660.796	1	14
661.135	1	3
661.474	1	11
661.813	1	-6
662.152	1	6
662.491	1	1
662.829	1	17
663.168	1	0
663.507	1	9
663.846	1	-6
664.185	1	6
664.524	1	13
664.863	1	1
665.202	1	3
665.541	1	0
665.879	1	0
666.218	1	4
666.557	1	3
666.896	1	2
667.235	1	5
667.574	1	-1
667.913	1	4
668.251	1	-3
668.590	1	6
668.929	1	8
669.268	1	1
669.607	1	0
669.946	1	2
670.285	1	7
670.623	1	10
670.962	1	-5
671.301	1	11
671.640	1	11
671.979	1	12
672.317	1	8
672.656	1	12
672.995	1	3
673.334	1	13
673.673	1	10
674.011	1	9
674.350	1	10
674.689	1	-3
675.028	1	12
675.367	1	7
675.705	1	-3
676.044	1	1
676.383	1	2
676.722	1	8
677.060	1	12
677.399	1	24
677.738	1	-1
678.077	1	-3
678.416	1	-5
678.754	1	4
679.093	1	13
679.432	1	1
679.771	1	2
680.109	1	8
680.448	1	4
680.787	1	-10
681.125	1	-2
681.464	1	1
681.803	1	4
682.142	1	2
682.480	1	7
682.819	1	0
683.158	1	-5
683.496	1	4
683.835	1	7
684.174	1	13
684.512	1	13
684.851	1	6
685.190	1	4
685.529	1	5
685.867	1	5
686.206	1	0
686.545	1	7
686.883	1	13
687.222	1	6
687.561	1	11
687.899	1	1
688.238	1	13
688.577	1	1
688.746	1	3