File: Data/GaN_150K_450ms/GaN_sample D_spot15_UVVIS_150 K_200um_450 ms 2x2mm1_57.txt
340.368	1	3
340.710	1	10
341.052	1	7
341.394	1	0
341.737	1	20
342.079	1	6
342.421	1	1
342.763	1	-4
343.105	1	4
343.447	1	2
343.789	1	8
344.131	1	-11
344.473	1	-3
344.815	1	6
345.157	1	15
345.499	1	7
345.841	1	3
346.183	1	9
346.526	1	7
346.868	1	11
347.210	1	6
347.552	1	30
347.894	1	-2
348.236	1	5
348.578	1	9
348.920	1	5
349.262	1	10
349.604	1	4
349.946	1	11
350.288	1	6
350.630	1	6
350.972	1	10
351.314	1	6
351.656	1	8
351.998	1	6
352.340	1	26
352.682	1	0
353.024	1	34
353.366	1	13
353.708	1	6
354.050	1	6
354.392	1	9
354.734	1	23
355.076	1	29
355.418	1	7
355.760	1	20
356.102	1	19
356.444	1	34
356.785	1	33
357.127	1	30
357.469	1	34
357.811	1	37
358.153	1	22
358.495	1	38
358.837	1	44
359.179	1	44
359.521	1	56
359.863	1	48
360.205	1	62
360.547	1	70
360.889	1	70
361.231	1	79
361.572	1	95
361.914	1	101
362.256	1	113
362.598	1	135
362.940	1	148
363.282	1	164
363.624	1	182
363.966	1	214
364.308	1	243
364.649	1	276
364.991	1	304
365.333	1	351
365.675	1	410
366.017	1	449
366.359	1	474
366.701	1	536
367.042	1	562
367.384	1	575
367.726	1	595
368.068	1	630
368.410	1	620
368.752	1	642
369.093	1	576
369.435	1	565
369.777	1	544
370.119	1	511
370.461	1	478
370.803	1	426
371.144	1	418
371.486	1	361
371.828	1	351
372.170	1	331
372.512	1	297
372.853	1	299
373.195	1	285
373.537	1	252
373.879	1	262
374.220	1	245
374.562	1	228
374.904	1	216
375.246	1	189
375.588	1	196
375.929	1	161
376.271	1	176
376.613	1	165
376.955	1	155
377.296	1	143
377.638	1	132
377.980	1	144
378.321	1	136
378.663	1	119
379.005	1	101
379.347	1	98
379.688	1	117
380.030	1	101
380.372	1	98
380.714	1	100
381.055	1	87
381.397	1	72
381.739	1	79
382.080	1	88
382.422	1	81
382.764	1	79
383.105	1	74
383.447	1	84
383.789	1	62
384.130	1	75
384.472	1	76
384.814	1	82
385.156	1	80
385.497	1	85
385.839	1	80
386.180	1	59
386.522	1	75
386.864	1	68
387.205	1	67
387.547	1	68
387.889	1	60
388.230	1	51
388.572	1	50
388.914	1	56
389.255	1	47
389.597	1	51
389.939	1	62
390.280	1	54
390.622	1	50
390.963	1	51
391.305	1	51
391.647	1	46
391.988	1	56
392.330	1	49
392.671	1	43
393.013	1	59
393.355	1	51
393.696	1	41
394.038	1	44
394.379	1	41
394.721	1	46
395.062	1	39
395.404	1	45
395.746	1	45
396.087	1	47
396.429	1	37
396.770	1	47
397.112	1	44
397.453	1	47
397.795	1	32
398.136	1	46
398.478	1	41
398.819	1	48
399.161	1	44
399.503	1	48
399.844	1	29
400.186	1	46
400.527	1	43
400.869	1	33
401.210	1	31
401.552	1	24
401.893	1	35
402.235	1	38
402.576	1	24
402.918	1	24
403.259	1	31
403.601	1	29
403.942	1	27
404.284	1	44
404.625	1	30
404.967	1	35
405.308	1	28
405.649	1	21
405.991	1	36
406.332	1	36
406.674	1	31
407.015	1	31
407.357	1	30
407.698	1	34
408.040	1	43
408.381	1	23
408.722	1	34
409.064	1	35
409.405	1	19
409.747	1	27
410.088	1	37
410.430	1	34
410.771	1	35
411.112	1	25
411.454	1	24
411.795	1	30
412.137	1	21
412.478	1	28
412.819	1	18
413.161	1	27
413.502	1	17
413.844	1	36
414.185	1	25
414.526	1	6
414.868	1	10
415.209	1	25
415.550	1	20
415.892	1	30
416.233	1	22
416.575	1	18
416.916	1	10
417.257	1	25
417.599	1	28
417.940	1	9
418.281	1	29
418.623	1	18
418.964	1	33
419.305	1	33
419.647	1	22
419.988	1	35
420.329	1	30
420.671	1	32
421.012	1	20
421.353	1	31
421.695	1	18
422.036	1	30
422.377	1	14
422.718	1	22
423.060	1	25
423.401	1	22
423.742	1	36
424.084	1	20
424.425	1	25
424.766	1	25
425.107	1	22
425.449	1	24
425.790	1	21
426.131	1	14
426.472	1	32
426.814	1	24
427.155	1	21
427.496	1	25
427.837	1	19
428.179	1	36
428.520	1	27
428.861	1	27
429.202	1	7
429.544	1	17
429.885	1	18
430.226	1	7
430.567	1	13
430.909	1	17
431.250	1	39
431.591	1	20
431.932	1	14
432.273	1	15
432.615	1	18
432.956	1	11
433.297	1	21
433.638	1	24
433.979	1	12
434.320	1	20
434.662	1	23
435.003	1	22
435.344	1	14
435.685	1	7
436.026	1	12
436.368	1	8
436.709	1	15
437.050	1	17
437.391	1	24
437.732	1	21
438.073	1	15
438.414	1	24
438.756	1	16
439.097	1	15
439.438	1	13
439.779	1	21
440.120	1	9
440.461	1	24
440.802	1	17
441.143	1	23
441.485	1	16
441.826	1	21
442.167	1	22
442.508	1	21
442.849	1	15
443.190	1	32
443.531	1	24
443.872	1	8
444.213	1	8
444.554	1	27
444.895	1	14
445.237	1	18
445.578	1	11
445.919	1	6
446.260	1	28
446.601	1	17
446.942	1	17
447.283	1	23
447.624	1	6
447.965	1	11
448.306	1	10
448.647	1	14
448.988	1	18
449.329	1	14
449.670	1	21
450.011	1	12
450.352	1	7
450.693	1	19
451.034	1	15
451.375	1	13
451.716	1	10
452.057	1	20
452.398	1	21
452.739	1	19
453.080	1	12
453.421	1	28
453.762	1	16
454.103	1	16
454.444	1	18
454.785	1	21
455.126	1	22
455.467	1	10
455.808	1	22
456.149	1	-2
456.490	1	3
456.831	1	15
457.172	1	8
457.513	1	10
457.854	1	16
458.195	1	18
458.536	1	17
458.877	1	16
459.218	1	21
459.559	1	18
459.899	1	19
460.240	1	13
460.581	1	10
460.922	1	17
461.263	1	26
461.604	1	13
461.945	1	28
462.286	1	10
462.627	1	29
462.968	1	14
463.309	1	8
463.649	1	10
463.990	1	11
464.331	1	20
464.672	1	20
465.013	1	12
465.354	1	26
465.695	1	15
466.036	1	25
466.376	1	26
466.717	1	10
467.058	1	20
467.399	1	15
467.740	1	20
468.081	1	15
468.422	1	15
468.762	1	22
469.103	1	14
469.444	1	14
469.785	1	12
470.126	1	28
470.467	1	22
470.807	1	18
471.148	1	6
471.489	1	29
471.830	1	17
472.171	1	28
472.511	1	25
472.852	1	24
473.193	1	18
473.534	1	21
473.875	1	16
474.215	1	25
474.556	1	15
474.897	1	10
475.238	1	22
475.578	1	10
475.919	1	19
476.260	1	14
476.601	1	18
476.942	1	18
477.282	1	19
477.623	1	23
477.964	1	13
478.305	1	25
478.645	1	27
478.986	1	31
479.327	1	25
479.667	1	16
480.008	1	27
480.349	1	20
480.690	1	34
481.030	1	16
481.371	1	15
481.712	1	35
482.053	1	27
482.393	1	16
482.734	1	33
483.075	1	26
483.415	1	23
483.756	1	36
484.097	1	34
484.437	1	26
484.778	1	32
485.119	1	36
485.459	1	33
485.800	1	29
486.141	1	38
486.481	1	24
486.822	1	43
487.163	1	51
487.503	1	36
487.844	1	25
488.185	1	46
488.525	1	29
488.866	1	34
489.207	1	49
489.547	1	40
489.888	1	43
490.228	1	38
490.569	1	35
490.910	1	46
491.250	1	48
491.591	1	39
491.932	1	62
492.272	1	34
492.613	1	45
492.953	1	52
493.294	1	39
493.635	1	54
493.975	1	53
494.316	1	40
494.656	1	57
494.997	1	44
495.337	1	54
495.678	1	48
496.019	1	53
496.359	1	51
496.700	1	54
497.040	1	50
497.381	1	58
497.721	1	56
498.062	1	58
498.403	1	58
498.743	1	62
499.084	1	57
499.424	1	59
499.765	1	70
500.105	1	67
500.446	1	66
500.786	1	66
501.127	1	67
501.467	1	76
501.808	1	64
502.148	1	61
502.489	1	76
502.829	1	74
503.170	1	83
503.510	1	79
503.851	1	89
504.191	1	78
504.532	1	86
504.872	1	80
505.213	1	69
505.553	1	76
505.894	1	91
506.234	1	79
506.575	1	86
506.915	1	90
507.256	1	88
507.596	1	94
507.936	1	99
508.277	1	97
508.617	1	103
508.958	1	102
509.298	1	86
509.639	1	93
509.979	1	101
510.319	1	94
510.660	1	105
511.000	1	92
511.341	1	114
511.681	1	96
512.022	1	99
512.362	1	100
512.702	1	95
513.043	1	100
513.383	1	89
513.724	1	97
514.064	1	113
514.404	1	108
514.745	1	93
515.085	1	106
515.425	1	109
515.766	1	117
516.106	1	101
516.447	1	116
516.787	1	115
517.127	1	114
517.468	1	122
517.808	1	115
518.148	1	120
518.489	1	113
518.829	1	117
519.169	1	104
519.510	1	110
519.850	1	120
520.190	1	123
520.531	1	128
520.871	1	126
521.211	1	118
521.552	1	109
521.892	1	117
522.232	1	122
522.573	1	131
522.913	1	122
523.253	1	121
523.593	1	121
523.934	1	122
524.274	1	122
524.614	1	117
524.955	1	119
525.295	1	133
525.635	1	121
525.975	1	120
526.316	1	116
526.656	1	126
526.996	1	122
527.337	1	128
527.677	1	140
528.017	1	133
528.357	1	136
528.698	1	127
529.038	1	126
529.378	1	127
529.718	1	124
530.058	1	126
530.399	1	147
530.739	1	147
531.079	1	136
531.419	1	141
531.760	1	142
532.100	1	136
532.440	1	138
532.780	1	139
533.120	1	141
533.461	1	127
533.801	1	130
534.141	1	127
534.481	1	134
534.821	1	127
535.162	1	128
535.502	1	128
535.842	1	123
536.182	1	121
536.522	1	114
536.862	1	117
537.203	1	131
537.543	1	119
537.883	1	118
538.223	1	126
538.563	1	105
538.903	1	125
539.243	1	126
539.584	1	117
539.924	1	112
540.264	1	125
540.604	1	122
540.944	1	109
541.284	1	99
541.624	1	110
541.964	1	103
542.305	1	117
542.645	1	109
542.985	1	105
543.325	1	109
543.665	1	118
544.005	1	106
544.345	1	112
544.685	1	111
545.025	1	117
545.365	1	110
545.705	1	104
546.045	1	115
546.386	1	104
546.726	1	117
547.066	1	111
547.406	1	114
547.746	1	109
548.086	1	115
548.426	1	112
548.766	1	123
549.106	1	101
549.446	1	112
549.786	1	126
550.126	1	113
550.466	1	109
550.806	1	123
551.146	1	126
551.486	1	108
551.826	1	100
552.166	1	113
552.506	1	100
552.846	1	101
553.186	1	94
553.526	1	109
553.866	1	97
554.206	1	96
554.546	1	100
554.886	1	90
555.226	1	102
555.566	1	100
555.906	1	95
556.246	1	85
556.586	1	97
556.926	1	86
557.266	1	102
557.606	1	87
557.946	1	81
558.286	1	82
558.626	1	85
558.966	1	77
559.306	1	90
559.646	1	98
559.986	1	84
560.325	1	93
560.665	1	85
561.005	1	88
561.345	1	82
561.685	1	96
562.025	1	93
562.365	1	76
562.705	1	91
563.045	1	77
563.385	1	81
563.725	1	77
564.064	1	68
564.404	1	80
564.744	1	83
565.084	1	79
565.424	1	64
565.764	1	79
566.104	1	84
566.444	1	88
566.783	1	88
567.123	1	73
567.463	1	82
567.803	1	71
568.143	1	69
568.483	1	79
568.823	1	68
569.162	1	69
569.502	1	66
569.842	1	63
570.182	1	68
570.522	1	62
570.862	1	51
571.201	1	61
571.541	1	65
571.881	1	70
572.221	1	69
572.561	1	69
572.900	1	69
573.240	1	55
573.580	1	62
573.920	1	82
574.260	1	76
574.599	1	73
574.939	1	65
575.279	1	59
575.619	1	54
575.959	1	51
576.298	1	45
576.638	1	65
576.978	1	65
577.318	1	66
577.657	1	64
577.997	1	60
578.337	1	58
578.677	1	62
579.016	1	64
579.356	1	48
579.696	1	69
580.036	1	59
580.375	1	63
580.715	1	56
581.055	1	57
581.394	1	57
581.734	1	63
582.074	1	47
582.414	1	49
582.753	1	50
583.093	1	60
583.433	1	67
583.772	1	55
584.112	1	52
584.452	1	59
584.791	1	55
585.131	1	60
585.471	1	55
585.811	1	55
586.150	1	57
586.490	1	49
586.830	1	52
587.169	1	50
587.509	1	62
587.849	1	58
588.188	1	42
588.528	1	54
588.867	1	54
589.207	1	55
589.547	1	51
589.886	1	43
590.226	1	41
590.566	1	53
590.905	1	42
591.245	1	24
591.585	1	36
591.924	1	46
592.264	1	48
592.603	1	29
592.943	1	33
593.283	1	48
593.622	1	39
593.962	1	44
594.301	1	39
594.641	1	44
594.981	1	41
595.320	1	40
595.660	1	40
595.999	1	47
596.339	1	45
596.678	1	28
597.018	1	42
597.358	1	35
597.697	1	39
598.037	1	53
598.376	1	27
598.716	1	47
599.055	1	35
599.395	1	38
599.734	1	36
600.074	1	37
600.413	1	35
600.753	1	44
601.092	1	33
601.432	1	30
601.771	1	40
602.111	1	43
602.451	1	33
602.790	1	44
603.130	1	35
603.469	1	42
603.809	1	43
604.148	1	34
604.487	1	31
604.827	1	47
605.166	1	32
605.506	1	33
605.845	1	47
606.185	1	27
606.524	1	35
606.864	1	52
607.203	1	48
607.543	1	41
607.882	1	44
608.222	1	33
608.561	1	33
608.901	1	43
609.240	1	34
609.579	1	31
609.919	1	22
610.258	1	57
610.598	1	24
610.937	1	30
611.277	1	42
611.616	1	45
611.955	1	29
612.295	1	39
612.634	1	39
612.974	1	29
613.313	1	31
613.652	1	48
613.992	1	28
614.331	1	45
614.671	1	35
615.010	1	34
615.349	1	32
615.689	1	29
616.028	1	48
616.368	1	35
616.707	1	36
617.046	1	15
617.386	1	42
617.725	1	18
618.064	1	22
618.404	1	18
618.743	1	24
619.082	1	31
619.422	1	43
619.761	1	29
620.100	1	36
620.440	1	32
620.779	1	39
621.118	1	32
621.458	1	29
621.797	1	40
622.136	1	14
622.476	1	31
622.815	1	23
623.154	1	22
623.494	1	18
623.833	1	26
624.172	1	38
624.511	1	27
624.851	1	26
625.190	1	24
625.529	1	21
625.869	1	23
626.208	1	24
626.547	1	26
626.886	1	25
627.226	1	24
627.565	1	29
627.904	1	26
628.243	1	20
628.583	1	39
628.922	1	27
629.261	1	31
629.600	1	27
629.940	1	22
630.279	1	32
630.618	1	26
630.957	1	23
631.297	1	20
631.636	1	25
631.975	1	10
632.314	1	22
632.653	1	24
632.993	1	33
633.332	1	30
633.671	1	27
634.010	1	30
634.349	1	26
634.689	1	16
635.028	1	18
635.367	1	27
635.706	1	24
636.045	1	11
636.384	1	21
636.724	1	26
637.063	1	15
637.402	1	22
637.741	1	26
638.080	1	20
638.419	1	7
638.759	1	23
639.098	1	18
639.437	1	38
639.776	1	26
640.115	1	13
640.454	1	18
640.793	1	20
641.132	1	13
641.472	1	27
641.811	1	12
642.150	1	12
642.489	1	22
642.828	1	30
643.167	1	19
643.506	1	15
643.845	1	29
644.184	1	31
644.524	1	13
644.863	1	26
645.202	1	27
645.541	1	23
645.880	1	24
646.219	1	29
646.558	1	17
646.897	1	8
647.236	1	8
647.575	1	27
647.914	1	21
648.253	1	19
648.592	1	20
648.931	1	32
649.270	1	29
649.610	1	23
649.949	1	23
650.288	1	17
650.627	1	12
650.966	1	29
651.305	1	27
651.644	1	34
651.983	1	5
652.322	1	28
652.661	1	21
653.000	1	21
653.339	1	13
653.678	1	22
654.017	1	20
654.356	1	22
654.695	1	25
655.034	1	20
655.373	1	17
655.712	1	25
656.051	1	7
656.390	1	19
656.729	1	22
657.068	1	23
657.406	1	6
657.745	1	27
658.084	1	14
658.423	1	27
658.762	1	13
659.101	1	5
659.440	1	23
659.779	1	19
660.118	1	22
660.457	1	11
660.796	1	27
661.135	1	18
661.474	1	19
661.813	1	13
662.152	1	20
662.491	1	18
662.829	1	19
663.168	1	14
663.507	1	16
663.846	1	10
664.185	1	13
664.524	1	22
664.863	1	8
665.202	1	9
665.541	1	19
665.879	1	10
666.218	1	18
666.557	1	19
666.896	1	17
667.235	1	20
667.574	1	7
667.913	1	22
668.251	1	17
668.590	1	12
668.929	1	21
669.268	1	15
669.607	1	8
669.946	1	19
670.285	1	16
670.623	1	13
670.962	1	11
671.301	1	14
671.640	1	24
671.979	1	18
672.317	1	25
672.656	1	23
672.995	1	18
673.334	1	-2
673.673	1	27
674.011	1	21
674.350	1	13
674.689	1	14
675.028	1	9
675.367	1	21
675.705	1	7
676.044	1	20
676.383	1	22
676.722	1	11
677.060	1	21
677.399	1	23
677.738	1	10
678.077	1	11
678.416	1	12
678.754	1	11
679.093	1	17
679.432	1	19
679.771	1	13
680.109	1	16
680.448	1	9
680.787	1	4
681.125	1	15
681.464	1	12
681.803	1	9
682.142	1	12
682.480	1	9
682.819	1	12
683.158	1	18
683.496	1	12
683.835	1	18
684.174	1	20
684.512	1	9
684.851	1	16
685.190	1	17
685.529	1	11
685.867	1	16
686.206	1	4
686.545	1	16
686.883	1	21
687.222	1	15
687.561	1	24
687.899	1	21
688.238	1	26
688.577	1	15
688.746	1	20