File: Data/GaN_150K_450ms/GaN_sample D_spot15_UVVIS_150 K_200um_450 ms 2x2mm1_81.txt
340.368	1	6
340.710	1	4
341.052	1	7
341.394	1	-6
341.737	1	13
342.079	1	1
342.421	1	2
342.763	1	8
343.105	1	4
343.447	1	0
343.789	1	10
344.131	1	-10
344.473	1	3
344.815	1	2
345.157	1	11
345.499	1	1
345.841	1	5
346.183	1	6
346.526	1	3
346.868	1	8
347.210	1	2
347.552	1	10
347.894	1	9
348.236	1	0
348.578	1	13
348.920	1	6
349.262	1	14
349.604	1	2
349.946	1	7
350.288	1	0
350.630	1	-3
350.972	1	12
351.314	1	6
351.656	1	16
351.998	1	12
352.340	1	11
352.682	1	-7
353.024	1	15
353.366	1	10
353.708	1	11
354.050	1	2
354.392	1	4
354.734	1	18
355.076	1	24
355.418	1	6
355.760	1	13
356.102	1	12
356.444	1	22
356.785	1	17
357.127	1	24
357.469	1	9
357.811	1	21
358.153	1	1
358.495	1	20
358.837	1	30
359.179	1	19
359.521	1	28
359.863	1	18
360.205	1	37
360.547	1	32
360.889	1	33
361.231	1	34
361.572	1	42
361.914	1	43
362.256	1	52
362.598	1	64
362.940	1	59
363.282	1	46
363.624	1	56
363.966	1	70
364.308	1	83
364.649	1	100
364.991	1	102
365.333	1	104
365.675	1	133
366.017	1	124
366.359	1	127
366.701	1	146
367.042	1	146
367.384	1	146
367.726	1	150
368.068	1	173
368.410	1	158
368.752	1	170
369.093	1	151
369.435	1	147
369.777	1	154
370.119	1	126
370.461	1	119
370.803	1	120
371.144	1	112
371.486	1	118
371.828	1	101
372.170	1	93
372.512	1	88
372.853	1	101
373.195	1	90
373.537	1	74
373.879	1	76
374.220	1	80
374.562	1	80
374.904	1	78
375.246	1	70
375.588	1	64
375.929	1	58
376.271	1	53
376.613	1	48
376.955	1	44
377.296	1	52
377.638	1	40
377.980	1	54
378.321	1	52
378.663	1	45
379.005	1	43
379.347	1	37
379.688	1	47
380.030	1	48
380.372	1	40
380.714	1	30
381.055	1	27
381.397	1	33
381.739	1	12
382.080	1	36
382.422	1	41
382.764	1	25
383.105	1	26
383.447	1	23
383.789	1	18
384.130	1	28
384.472	1	19
384.814	1	34
385.156	1	19
385.497	1	35
385.839	1	27
386.180	1	19
386.522	1	33
386.864	1	19
387.205	1	27
387.547	1	22
387.889	1	9
388.230	1	24
388.572	1	19
388.914	1	30
389.255	1	19
389.597	1	10
389.939	1	21
390.280	1	18
390.622	1	14
390.963	1	8
391.305	1	13
391.647	1	20
391.988	1	17
392.330	1	15
392.671	1	24
393.013	1	18
393.355	1	24
393.696	1	21
394.038	1	18
394.379	1	15
394.721	1	22
395.062	1	25
395.404	1	13
395.746	1	9
396.087	1	16
396.429	1	20
396.770	1	11
397.112	1	18
397.453	1	3
397.795	1	7
398.136	1	20
398.478	1	17
398.819	1	17
399.161	1	23
399.503	1	19
399.844	1	9
400.186	1	10
400.527	1	24
400.869	1	15
401.210	1	-1
401.552	1	16
401.893	1	13
402.235	1	22
402.576	1	20
402.918	1	5
403.259	1	18
403.601	1	16
403.942	1	11
404.284	1	15
404.625	1	15
404.967	1	12
405.308	1	-3
405.649	1	14
405.991	1	17
406.332	1	20
406.674	1	22
407.015	1	12
407.357	1	32
407.698	1	14
408.040	1	20
408.381	1	13
408.722	1	12
409.064	1	17
409.405	1	13
409.747	1	14
410.088	1	23
410.430	1	18
410.771	1	20
411.112	1	14
411.454	1	16
411.795	1	13
412.137	1	17
412.478	1	19
412.819	1	15
413.161	1	17
413.502	1	17
413.844	1	24
414.185	1	18
414.526	1	8
414.868	1	12
415.209	1	15
415.550	1	13
415.892	1	18
416.233	1	14
416.575	1	13
416.916	1	5
417.257	1	18
417.599	1	14
417.940	1	14
418.281	1	32
418.623	1	10
418.964	1	25
419.305	1	27
419.647	1	17
419.988	1	25
420.329	1	20
420.671	1	15
421.012	1	7
421.353	1	22
421.695	1	19
422.036	1	21
422.377	1	20
422.718	1	26
423.060	1	17
423.401	1	20
423.742	1	19
424.084	1	23
424.425	1	33
424.766	1	15
425.107	1	17
425.449	1	5
425.790	1	14
426.131	1	10
426.472	1	23
426.814	1	19
427.155	1	17
427.496	1	21
427.837	1	14
428.179	1	24
428.520	1	14
428.861	1	20
429.202	1	5
429.544	1	14
429.885	1	13
430.226	1	-4
430.567	1	7
430.909	1	4
431.250	1	8
431.591	1	14
431.932	1	14
432.273	1	22
432.615	1	12
432.956	1	14
433.297	1	7
433.638	1	18
433.979	1	12
434.320	1	20
434.662	1	21
435.003	1	17
435.344	1	15
435.685	1	15
436.026	1	9
436.368	1	9
436.709	1	10
437.050	1	7
437.391	1	12
437.732	1	19
438.073	1	14
438.414	1	20
438.756	1	7
439.097	1	19
439.438	1	5
439.779	1	8
440.120	1	11
440.461	1	20
440.802	1	11
441.143	1	9
441.485	1	14
441.826	1	17
442.167	1	17
442.508	1	13
442.849	1	18
443.190	1	15
443.531	1	11
443.872	1	2
444.213	1	8
444.554	1	13
444.895	1	15
445.237	1	11
445.578	1	5
445.919	1	11
446.260	1	19
446.601	1	10
446.942	1	11
447.283	1	27
447.624	1	3
447.965	1	20
448.306	1	7
448.647	1	8
448.988	1	15
449.329	1	11
449.670	1	21
450.011	1	12
450.352	1	10
450.693	1	13
451.034	1	14
451.375	1	8
451.716	1	9
452.057	1	11
452.398	1	24
452.739	1	16
453.080	1	17
453.421	1	16
453.762	1	18
454.103	1	15
454.444	1	11
454.785	1	13
455.126	1	18
455.467	1	12
455.808	1	20
456.149	1	3
456.490	1	4
456.831	1	11
457.172	1	8
457.513	1	14
457.854	1	15
458.195	1	13
458.536	1	13
458.877	1	13
459.218	1	10
459.559	1	9
459.899	1	7
460.240	1	2
460.581	1	3
460.922	1	9
461.263	1	22
461.604	1	18
461.945	1	19
462.286	1	7
462.627	1	8
462.968	1	10
463.309	1	11
463.649	1	3
463.990	1	7
464.331	1	14
464.672	1	5
465.013	1	12
465.354	1	19
465.695	1	14
466.036	1	17
466.376	1	21
466.717	1	2
467.058	1	15
467.399	1	-3
467.740	1	13
468.081	1	6
468.422	1	13
468.762	1	13
469.103	1	13
469.444	1	4
469.785	1	6
470.126	1	13
470.467	1	11
470.807	1	12
471.148	1	3
471.489	1	11
471.830	1	8
472.171	1	10
472.511	1	13
472.852	1	22
473.193	1	12
473.534	1	12
473.875	1	13
474.215	1	15
474.556	1	3
474.897	1	7
475.238	1	15
475.578	1	2
475.919	1	6
476.260	1	8
476.601	1	6
476.942	1	9
477.282	1	9
477.623	1	2
477.964	1	9
478.305	1	13
478.645	1	5
478.986	1	8
479.327	1	15
479.667	1	10
480.008	1	7
480.349	1	2
480.690	1	14
481.030	1	10
481.371	1	2
481.712	1	19
482.053	1	25
482.393	1	1
482.734	1	19
483.075	1	13
483.415	1	7
483.756	1	13
484.097	1	14
484.437	1	13
484.778	1	9
485.119	1	5
485.459	1	9
485.800	1	5
486.141	1	21
486.481	1	8
486.822	1	17
487.163	1	9
487.503	1	21
487.844	1	3
488.185	1	24
488.525	1	13
488.866	1	13
489.207	1	15
489.547	1	10
489.888	1	21
490.228	1	11
490.569	1	14
490.910	1	3
491.250	1	27
491.591	1	18
491.932	1	23
492.272	1	8
492.613	1	12
492.953	1	17
493.294	1	9
493.635	1	19
493.975	1	22
494.316	1	20
494.656	1	20
494.997	1	10
495.337	1	16
495.678	1	15
496.019	1	12
496.359	1	15
496.700	1	14
497.040	1	13
497.381	1	16
497.721	1	3
498.062	1	16
498.403	1	29
498.743	1	19
499.084	1	35
499.424	1	17
499.765	1	19
500.105	1	36
500.446	1	10
500.786	1	13
501.127	1	29
501.467	1	25
501.808	1	19
502.148	1	21
502.489	1	14
502.829	1	21
503.170	1	29
503.510	1	18
503.851	1	29
504.191	1	31
504.532	1	34
504.872	1	23
505.213	1	31
505.553	1	31
505.894	1	29
506.234	1	24
506.575	1	44
506.915	1	25
507.256	1	29
507.596	1	39
507.936	1	32
508.277	1	31
508.617	1	38
508.958	1	35
509.298	1	34
509.639	1	31
509.979	1	28
510.319	1	29
510.660	1	35
511.000	1	30
511.341	1	44
511.681	1	35
512.022	1	19
512.362	1	47
512.702	1	20
513.043	1	39
513.383	1	32
513.724	1	36
514.064	1	41
514.404	1	37
514.745	1	39
515.085	1	39
515.425	1	39
515.766	1	35
516.106	1	36
516.447	1	38
516.787	1	40
517.127	1	43
517.468	1	46
517.808	1	30
518.148	1	45
518.489	1	39
518.829	1	39
519.169	1	28
519.510	1	37
519.850	1	42
520.190	1	43
520.531	1	36
520.871	1	37
521.211	1	43
521.552	1	26
521.892	1	42
522.232	1	42
522.573	1	38
522.913	1	44
523.253	1	46
523.593	1	46
523.934	1	49
524.274	1	41
524.614	1	49
524.955	1	35
525.295	1	56
525.635	1	41
525.975	1	35
526.316	1	33
526.656	1	44
526.996	1	33
527.337	1	38
527.677	1	52
528.017	1	38
528.357	1	47
528.698	1	49
529.038	1	38
529.378	1	43
529.718	1	37
530.058	1	40
530.399	1	41
530.739	1	52
531.079	1	35
531.419	1	50
531.760	1	44
532.100	1	52
532.440	1	45
532.780	1	50
533.120	1	34
533.461	1	49
533.801	1	46
534.141	1	41
534.481	1	56
534.821	1	47
535.162	1	46
535.502	1	33
535.842	1	32
536.182	1	45
536.522	1	34
536.862	1	45
537.203	1	34
537.543	1	43
537.883	1	47
538.223	1	50
538.563	1	39
538.903	1	41
539.243	1	35
539.584	1	40
539.924	1	42
540.264	1	49
540.604	1	39
540.944	1	47
541.284	1	36
541.624	1	36
541.964	1	41
542.305	1	46
542.645	1	29
542.985	1	38
543.325	1	45
543.665	1	37
544.005	1	37
544.345	1	40
544.685	1	30
545.025	1	38
545.365	1	37
545.705	1	32
546.045	1	41
546.386	1	37
546.726	1	38
547.066	1	42
547.406	1	30
547.746	1	35
548.086	1	42
548.426	1	32
548.766	1	40
549.106	1	30
549.446	1	42
549.786	1	41
550.126	1	38
550.466	1	41
550.806	1	40
551.146	1	49
551.486	1	29
551.826	1	29
552.166	1	38
552.506	1	41
552.846	1	40
553.186	1	29
553.526	1	33
553.866	1	34
554.206	1	42
554.546	1	40
554.886	1	32
555.226	1	35
555.566	1	28
555.906	1	30
556.246	1	32
556.586	1	34
556.926	1	25
557.266	1	42
557.606	1	21
557.946	1	34
558.286	1	20
558.626	1	34
558.966	1	21
559.306	1	27
559.646	1	34
559.986	1	33
560.325	1	15
560.665	1	19
561.005	1	34
561.345	1	31
561.685	1	25
562.025	1	33
562.365	1	23
562.705	1	28
563.045	1	32
563.385	1	26
563.725	1	26
564.064	1	22
564.404	1	22
564.744	1	38
565.084	1	23
565.424	1	17
565.764	1	32
566.104	1	21
566.444	1	36
566.783	1	36
567.123	1	31
567.463	1	41
567.803	1	31
568.143	1	21
568.483	1	19
568.823	1	28
569.162	1	17
569.502	1	20
569.842	1	20
570.182	1	22
570.522	1	17
570.862	1	7
571.201	1	30
571.541	1	27
571.881	1	20
572.221	1	18
572.561	1	25
572.900	1	27
573.240	1	14
573.580	1	21
573.920	1	24
574.260	1	22
574.599	1	20
574.939	1	22
575.279	1	14
575.619	1	15
575.959	1	16
576.298	1	15
576.638	1	27
576.978	1	19
577.318	1	19
577.657	1	7
577.997	1	18
578.337	1	18
578.677	1	13
579.016	1	14
579.356	1	19
579.696	1	13
580.036	1	19
580.375	1	19
580.715	1	17
581.055	1	12
581.394	1	12
581.734	1	12
582.074	1	14
582.414	1	12
582.753	1	19
583.093	1	11
583.433	1	16
583.772	1	17
584.112	1	18
584.452	1	19
584.791	1	21
585.131	1	30
585.471	1	15
585.811	1	13
586.150	1	18
586.490	1	7
586.830	1	8
587.169	1	10
587.509	1	16
587.849	1	28
588.188	1	21
588.528	1	10
588.867	1	26
589.207	1	15
589.547	1	22
589.886	1	11
590.226	1	7
590.566	1	11
590.905	1	13
591.245	1	9
591.585	1	9
591.924	1	5
592.264	1	2
592.603	1	2
592.943	1	3
593.283	1	15
593.622	1	5
593.962	1	12
594.301	1	8
594.641	1	10
594.981	1	18
595.320	1	16
595.660	1	17
595.999	1	15
596.339	1	11
596.678	1	5
597.018	1	8
597.358	1	14
597.697	1	5
598.037	1	6
598.376	1	-5
598.716	1	9
599.055	1	14
599.395	1	10
599.734	1	15
600.074	1	3
600.413	1	4
600.753	1	29
601.092	1	5
601.432	1	10
601.771	1	12
602.111	1	9
602.451	1	5
602.790	1	16
603.130	1	3
603.469	1	6
603.809	1	13
604.148	1	4
604.487	1	10
604.827	1	18
605.166	1	11
605.506	1	-1
605.845	1	13
606.185	1	4
606.524	1	7
606.864	1	23
607.203	1	6
607.543	1	12
607.882	1	12
608.222	1	5
608.561	1	6
608.901	1	13
609.240	1	14
609.579	1	4
609.919	1	1
610.258	1	10
610.598	1	10
610.937	1	6
611.277	1	10
611.616	1	11
611.955	1	7
612.295	1	7
612.634	1	9
612.974	1	11
613.313	1	10
613.652	1	16
613.992	1	6
614.331	1	23
614.671	1	14
615.010	1	4
615.349	1	5
615.689	1	9
616.028	1	24
616.368	1	22
616.707	1	11
617.046	1	10
617.386	1	12
617.725	1	9
618.064	1	7
618.404	1	8
618.743	1	2
619.082	1	15
619.422	1	25
619.761	1	2
620.100	1	11
620.440	1	18
620.779	1	13
621.118	1	22
621.458	1	9
621.797	1	7
622.136	1	0
622.476	1	9
622.815	1	7
623.154	1	2
623.494	1	-11
623.833	1	10
624.172	1	3
624.511	1	8
624.851	1	10
625.190	1	8
625.529	1	11
625.869	1	16
626.208	1	0
626.547	1	2
626.886	1	9
627.226	1	18
627.565	1	10
627.904	1	12
628.243	1	17
628.583	1	6
628.922	1	6
629.261	1	4
629.600	1	2
629.940	1	12
630.279	1	15
630.618	1	9
630.957	1	14
631.297	1	10
631.636	1	8
631.975	1	-1
632.314	1	10
632.653	1	3
632.993	1	-1
633.332	1	12
633.671	1	13
634.010	1	7
634.349	1	21
634.689	1	3
635.028	1	4
635.367	1	14
635.706	1	7
636.045	1	6
636.384	1	4
636.724	1	12
637.063	1	-5
637.402	1	11
637.741	1	7
638.080	1	0
638.419	1	3
638.759	1	13
639.098	1	17
639.437	1	7
639.776	1	6
640.115	1	0
640.454	1	2
640.793	1	17
641.132	1	13
641.472	1	16
641.811	1	-7
642.150	1	8
642.489	1	13
642.828	1	22
643.167	1	9
643.506	1	7
643.845	1	17
644.184	1	16
644.524	1	4
644.863	1	3
645.202	1	13
645.541	1	1
645.880	1	19
646.219	1	1
646.558	1	0
646.897	1	-7
647.236	1	-2
647.575	1	17
647.914	1	16
648.253	1	17
648.592	1	13
648.931	1	17
649.270	1	17
649.610	1	8
649.949	1	-6
650.288	1	8
650.627	1	7
650.966	1	7
651.305	1	17
651.644	1	11
651.983	1	4
652.322	1	5
652.661	1	13
653.000	1	4
653.339	1	8
653.678	1	3
654.017	1	11
654.356	1	14
654.695	1	21
655.034	1	5
655.373	1	7
655.712	1	6
656.051	1	0
656.390	1	9
656.729	1	7
657.068	1	3
657.406	1	4
657.745	1	12
658.084	1	8
658.423	1	7
658.762	1	3
659.101	1	5
659.440	1	3
659.779	1	9
660.118	1	8
660.457	1	8
660.796	1	16
661.135	1	13
661.474	1	8
661.813	1	1
662.152	1	4
662.491	1	-2
662.829	1	9
663.168	1	4
663.507	1	11
663.846	1	11
664.185	1	4
664.524	1	13
664.863	1	-2
665.202	1	10
665.541	1	10
665.879	1	11
666.218	1	10
666.557	1	6
666.896	1	11
667.235	1	-1
667.574	1	7
667.913	1	9
668.251	1	-5
668.590	1	3
668.929	1	-2
669.268	1	6
669.607	1	-1
669.946	1	8
670.285	1	5
670.623	1	6
670.962	1	-5
671.301	1	10
671.640	1	10
671.979	1	-2
672.317	1	8
672.656	1	12
672.995	1	6
673.334	1	7
673.673	1	18
674.011	1	4
674.350	1	11
674.689	1	9
675.028	1	2
675.367	1	8
675.705	1	-4
676.044	1	1
676.383	1	6
676.722	1	-1
677.060	1	3
677.399	1	15
677.738	1	-6
678.077	1	6
678.416	1	6
678.754	1	2
679.093	1	10
679.432	1	2
679.771	1	10
680.109	1	7
680.448	1	5
680.787	1	6
681.125	1	2
681.464	1	3
681.803	1	6
682.142	1	7
682.480	1	4
682.819	1	2
683.158	1	4
683.496	1	1
683.835	1	18
684.174	1	5
684.512	1	1
684.851	1	-3
685.190	1	2
685.529	1	11
685.867	1	3
686.206	1	-1
686.545	1	2
686.883	1	9
687.222	1	4
687.561	1	5
687.899	1	12
688.238	1	15
688.577	1	4
688.746	1	1