File: Data/GaN_150K_450ms/GaN_sample D_spot15_UVVIS_150 K_200um_450 ms 2x2mm1_161.txt
340.368	1	3
340.710	1	3
341.052	1	9
341.394	1	0
341.737	1	3
342.079	1	6
342.421	1	7
342.763	1	8
343.105	1	4
343.447	1	12
343.789	1	4
344.131	1	-6
344.473	1	2
344.815	1	9
345.157	1	9
345.499	1	5
345.841	1	2
346.183	1	-1
346.526	1	13
346.868	1	-1
347.210	1	-1
347.552	1	3
347.894	1	-4
348.236	1	-2
348.578	1	9
348.920	1	2
349.262	1	5
349.604	1	-3
349.946	1	10
350.288	1	-5
350.630	1	10
350.972	1	12
351.314	1	7
351.656	1	13
351.998	1	6
352.340	1	12
352.682	1	-11
353.024	1	16
353.366	1	7
353.708	1	2
354.050	1	3
354.392	1	-7
354.734	1	0
355.076	1	8
355.418	1	9
355.760	1	12
356.102	1	14
356.444	1	7
356.785	1	2
357.127	1	10
357.469	1	4
357.811	1	12
358.153	1	-8
358.495	1	5
358.837	1	7
359.179	1	16
359.521	1	16
359.863	1	8
360.205	1	12
360.547	1	11
360.889	1	11
361.231	1	15
361.572	1	20
361.914	1	12
362.256	1	10
362.598	1	19
362.940	1	14
363.282	1	7
363.624	1	10
363.966	1	11
364.308	1	28
364.649	1	16
364.991	1	20
365.333	1	18
365.675	1	40
366.017	1	28
366.359	1	25
366.701	1	33
367.042	1	41
367.384	1	25
367.726	1	36
368.068	1	43
368.410	1	44
368.752	1	43
369.093	1	38
369.435	1	37
369.777	1	40
370.119	1	51
370.461	1	23
370.803	1	31
371.144	1	33
371.486	1	30
371.828	1	31
372.170	1	41
372.512	1	18
372.853	1	24
373.195	1	22
373.537	1	15
373.879	1	25
374.220	1	16
374.562	1	28
374.904	1	24
375.246	1	21
375.588	1	19
375.929	1	17
376.271	1	10
376.613	1	10
376.955	1	16
377.296	1	13
377.638	1	13
377.980	1	12
378.321	1	17
378.663	1	18
379.005	1	16
379.347	1	12
379.688	1	18
380.030	1	16
380.372	1	22
380.714	1	18
381.055	1	0
381.397	1	5
381.739	1	1
382.080	1	15
382.422	1	5
382.764	1	10
383.105	1	0
383.447	1	6
383.789	1	6
384.130	1	12
384.472	1	2
384.814	1	12
385.156	1	19
385.497	1	11
385.839	1	11
386.180	1	0
386.522	1	16
386.864	1	-4
387.205	1	13
387.547	1	13
387.889	1	6
388.230	1	6
388.572	1	1
388.914	1	13
389.255	1	8
389.597	1	5
389.939	1	10
390.280	1	9
390.622	1	-6
390.963	1	-1
391.305	1	-2
391.647	1	12
391.988	1	3
392.330	1	0
392.671	1	7
393.013	1	15
393.355	1	14
393.696	1	7
394.038	1	13
394.379	1	14
394.721	1	9
395.062	1	-3
395.404	1	3
395.746	1	-15
396.087	1	7
396.429	1	2
396.770	1	0
397.112	1	11
397.453	1	7
397.795	1	0
398.136	1	6
398.478	1	-3
398.819	1	14
399.161	1	4
399.503	1	18
399.844	1	-5
400.186	1	10
400.527	1	11
400.869	1	3
401.210	1	14
401.552	1	5
401.893	1	10
402.235	1	19
402.576	1	18
402.918	1	2
403.259	1	7
403.601	1	5
403.942	1	2
404.284	1	12
404.625	1	7
404.967	1	15
405.308	1	-1
405.649	1	4
405.991	1	8
406.332	1	1
406.674	1	3
407.015	1	8
407.357	1	19
407.698	1	17
408.040	1	17
408.381	1	2
408.722	1	12
409.064	1	19
409.405	1	10
409.747	1	-1
410.088	1	17
410.430	1	14
410.771	1	14
411.112	1	12
411.454	1	4
411.795	1	13
412.137	1	2
412.478	1	9
412.819	1	20
413.161	1	11
413.502	1	11
413.844	1	20
414.185	1	10
414.526	1	-2
414.868	1	6
415.209	1	1
415.550	1	12
415.892	1	14
416.233	1	10
416.575	1	1
416.916	1	3
417.257	1	5
417.599	1	10
417.940	1	4
418.281	1	12
418.623	1	2
418.964	1	9
419.305	1	7
419.647	1	12
419.988	1	14
420.329	1	11
420.671	1	7
421.012	1	2
421.353	1	19
421.695	1	14
422.036	1	23
422.377	1	7
422.718	1	16
423.060	1	21
423.401	1	13
423.742	1	20
424.084	1	13
424.425	1	11
424.766	1	8
425.107	1	2
425.449	1	8
425.790	1	3
426.131	1	12
426.472	1	19
426.814	1	9
427.155	1	13
427.496	1	12
427.837	1	11
428.179	1	23
428.520	1	13
428.861	1	7
429.202	1	2
429.544	1	7
429.885	1	6
430.226	1	-1
430.567	1	0
430.909	1	7
431.250	1	7
431.591	1	14
431.932	1	5
432.273	1	16
432.615	1	5
432.956	1	5
433.297	1	14
433.638	1	13
433.979	1	12
434.320	1	-1
434.662	1	9
435.003	1	14
435.344	1	11
435.685	1	4
436.026	1	10
436.368	1	0
436.709	1	3
437.050	1	3
437.391	1	4
437.732	1	10
438.073	1	4
438.414	1	9
438.756	1	-2
439.097	1	10
439.438	1	12
439.779	1	6
440.120	1	5
440.461	1	3
440.802	1	12
441.143	1	5
441.485	1	4
441.826	1	8
442.167	1	6
442.508	1	3
442.849	1	7
443.190	1	13
443.531	1	15
443.872	1	4
444.213	1	-5
444.554	1	11
444.895	1	5
445.237	1	3
445.578	1	-6
445.919	1	-6
446.260	1	13
446.601	1	16
446.942	1	4
447.283	1	15
447.624	1	-2
447.965	1	9
448.306	1	8
448.647	1	12
448.988	1	1
449.329	1	16
449.670	1	10
450.011	1	8
450.352	1	-5
450.693	1	13
451.034	1	7
451.375	1	-1
451.716	1	10
452.057	1	7
452.398	1	11
452.739	1	5
453.080	1	6
453.421	1	8
453.762	1	15
454.103	1	1
454.444	1	-4
454.785	1	2
455.126	1	2
455.467	1	1
455.808	1	7
456.149	1	2
456.490	1	-6
456.831	1	8
457.172	1	6
457.513	1	1
457.854	1	11
458.195	1	14
458.536	1	10
458.877	1	5
459.218	1	14
459.559	1	7
459.899	1	3
460.240	1	-4
460.581	1	0
460.922	1	4
461.263	1	15
461.604	1	6
461.945	1	14
462.286	1	-2
462.627	1	5
462.968	1	16
463.309	1	-1
463.649	1	2
463.990	1	5
464.331	1	10
464.672	1	3
465.013	1	12
465.354	1	17
465.695	1	17
466.036	1	12
466.376	1	15
466.717	1	-5
467.058	1	7
467.399	1	-6
467.740	1	14
468.081	1	12
468.422	1	7
468.762	1	10
469.103	1	9
469.444	1	6
469.785	1	-1
470.126	1	-3
470.467	1	7
470.807	1	12
471.148	1	-1
471.489	1	16
471.830	1	-1
472.171	1	13
472.511	1	12
472.852	1	12
473.193	1	-1
473.534	1	4
473.875	1	3
474.215	1	8
474.556	1	4
474.897	1	-7
475.238	1	12
475.578	1	-5
475.919	1	-1
476.260	1	0
476.601	1	1
476.942	1	-1
477.282	1	-10
477.623	1	2
477.964	1	5
478.305	1	6
478.645	1	7
478.986	1	8
479.327	1	10
479.667	1	1
480.008	1	5
480.349	1	1
480.690	1	6
481.030	1	3
481.371	1	-5
481.712	1	12
482.053	1	18
482.393	1	1
482.734	1	16
483.075	1	5
483.415	1	6
483.756	1	4
484.097	1	12
484.437	1	8
484.778	1	9
485.119	1	5
485.459	1	4
485.800	1	0
486.141	1	1
486.481	1	-6
486.822	1	18
487.163	1	0
487.503	1	-5
487.844	1	0
488.185	1	4
488.525	1	-2
488.866	1	4
489.207	1	13
489.547	1	10
489.888	1	5
490.228	1	6
490.569	1	5
490.910	1	15
491.250	1	4
491.591	1	4
491.932	1	5
492.272	1	-11
492.613	1	1
492.953	1	14
493.294	1	-5
493.635	1	9
493.975	1	16
494.316	1	6
494.656	1	13
494.997	1	5
495.337	1	1
495.678	1	8
496.019	1	2
496.359	1	0
496.700	1	6
497.040	1	-1
497.381	1	6
497.721	1	5
498.062	1	7
498.403	1	10
498.743	1	14
499.084	1	16
499.424	1	1
499.765	1	11
500.105	1	14
500.446	1	7
500.786	1	1
501.127	1	11
501.467	1	16
501.808	1	9
502.148	1	7
502.489	1	5
502.829	1	6
503.170	1	7
503.510	1	4
503.851	1	6
504.191	1	6
504.532	1	15
504.872	1	-1
505.213	1	5
505.553	1	9
505.894	1	12
506.234	1	9
506.575	1	18
506.915	1	11
507.256	1	12
507.596	1	8
507.936	1	13
508.277	1	13
508.617	1	13
508.958	1	9
509.298	1	0
509.639	1	-7
509.979	1	8
510.319	1	7
510.660	1	9
511.000	1	5
511.341	1	12
511.681	1	17
512.022	1	2
512.362	1	12
512.702	1	8
513.043	1	7
513.383	1	13
513.724	1	7
514.064	1	10
514.404	1	16
514.745	1	5
515.085	1	8
515.425	1	17
515.766	1	5
516.106	1	2
516.447	1	14
516.787	1	5
517.127	1	15
517.468	1	18
517.808	1	3
518.148	1	16
518.489	1	4
518.829	1	11
519.169	1	2
519.510	1	4
519.850	1	0
520.190	1	7
520.531	1	13
520.871	1	12
521.211	1	21
521.552	1	-1
521.892	1	18
522.232	1	7
522.573	1	7
522.913	1	12
523.253	1	16
523.593	1	6
523.934	1	12
524.274	1	11
524.614	1	13
524.955	1	2
525.295	1	12
525.635	1	13
525.975	1	11
526.316	1	7
526.656	1	8
526.996	1	5
527.337	1	16
527.677	1	26
528.017	1	9
528.357	1	14
528.698	1	13
529.038	1	17
529.378	1	6
529.718	1	9
530.058	1	6
530.399	1	9
530.739	1	11
531.079	1	7
531.419	1	10
531.760	1	15
532.100	1	16
532.440	1	9
532.780	1	16
533.120	1	8
533.461	1	0
533.801	1	15
534.141	1	3
534.481	1	18
534.821	1	14
535.162	1	9
535.502	1	7
535.842	1	9
536.182	1	2
536.522	1	-1
536.862	1	6
537.203	1	8
537.543	1	9
537.883	1	8
538.223	1	21
538.563	1	11
538.903	1	6
539.243	1	13
539.584	1	14
539.924	1	1
540.264	1	18
540.604	1	25
540.944	1	8
541.284	1	8
541.624	1	7
541.964	1	1
542.305	1	16
542.645	1	4
542.985	1	5
543.325	1	11
543.665	1	6
544.005	1	-2
544.345	1	11
544.685	1	0
545.025	1	14
545.365	1	12
545.705	1	6
546.045	1	9
546.386	1	12
546.726	1	4
547.066	1	18
547.406	1	4
547.746	1	0
548.086	1	9
548.426	1	3
548.766	1	7
549.106	1	3
549.446	1	7
549.786	1	10
550.126	1	18
550.466	1	1
550.806	1	13
551.146	1	3
551.486	1	5
551.826	1	-1
552.166	1	9
552.506	1	7
552.846	1	11
553.186	1	0
553.526	1	3
553.866	1	-2
554.206	1	12
554.546	1	12
554.886	1	9
555.226	1	2
555.566	1	12
555.906	1	4
556.246	1	8
556.586	1	9
556.926	1	2
557.266	1	14
557.606	1	-4
557.946	1	16
558.286	1	-7
558.626	1	17
558.966	1	0
559.306	1	0
559.646	1	12
559.986	1	5
560.325	1	6
560.665	1	14
561.005	1	11
561.345	1	8
561.685	1	5
562.025	1	2
562.365	1	1
562.705	1	11
563.045	1	3
563.385	1	14
563.725	1	3
564.064	1	0
564.404	1	-3
564.744	1	11
565.084	1	16
565.424	1	-4
565.764	1	8
566.104	1	18
566.444	1	12
566.783	1	7
567.123	1	-3
567.463	1	7
567.803	1	14
568.143	1	6
568.483	1	23
568.823	1	-2
569.162	1	5
569.502	1	2
569.842	1	10
570.182	1	4
570.522	1	-5
570.862	1	-12
571.201	1	20
571.541	1	4
571.881	1	-1
572.221	1	5
572.561	1	16
572.900	1	14
573.240	1	7
573.580	1	15
573.920	1	4
574.260	1	1
574.599	1	1
574.939	1	-2
575.279	1	1
575.619	1	4
575.959	1	-1
576.298	1	-3
576.638	1	10
576.978	1	8
577.318	1	5
577.657	1	4
577.997	1	4
578.337	1	5
578.677	1	5
579.016	1	5
579.356	1	15
579.696	1	8
580.036	1	14
580.375	1	5
580.715	1	-2
581.055	1	0
581.394	1	5
581.734	1	6
582.074	1	9
582.414	1	-6
582.753	1	1
583.093	1	12
583.433	1	9
583.772	1	9
584.112	1	2
584.452	1	8
584.791	1	11
585.131	1	11
585.471	1	10
585.811	1	4
586.150	1	10
586.490	1	5
586.830	1	7
587.169	1	-4
587.509	1	10
587.849	1	10
588.188	1	14
588.528	1	-5
588.867	1	2
589.207	1	10
589.547	1	2
589.886	1	10
590.226	1	3
590.566	1	1
590.905	1	-4
591.245	1	7
591.585	1	8
591.924	1	-6
592.264	1	-3
592.603	1	-7
592.943	1	1
593.283	1	10
593.622	1	2
593.962	1	5
594.301	1	9
594.641	1	8
594.981	1	-3
595.320	1	11
595.660	1	12
595.999	1	4
596.339	1	10
596.678	1	-13
597.018	1	1
597.358	1	4
597.697	1	-1
598.037	1	2
598.376	1	1
598.716	1	6
599.055	1	9
599.395	1	-1
599.734	1	16
600.074	1	-7
600.413	1	8
600.753	1	5
601.092	1	2
601.432	1	-6
601.771	1	8
602.111	1	7
602.451	1	-1
602.790	1	11
603.130	1	9
603.469	1	11
603.809	1	6
604.148	1	-11
604.487	1	5
604.827	1	10
605.166	1	6
605.506	1	4
605.845	1	10
606.185	1	1
606.524	1	-2
606.864	1	14
607.203	1	14
607.543	1	5
607.882	1	7
608.222	1	1
608.561	1	4
608.901	1	7
609.240	1	10
609.579	1	1
609.919	1	3
610.258	1	10
610.598	1	-2
610.937	1	3
611.277	1	5
611.616	1	14
611.955	1	7
612.295	1	10
612.634	1	1
612.974	1	7
613.313	1	11
613.652	1	14
613.992	1	8
614.331	1	6
614.671	1	-2
615.010	1	5
615.349	1	8
615.689	1	4
616.028	1	17
616.368	1	13
616.707	1	2
617.046	1	1
617.386	1	15
617.725	1	1
618.064	1	-1
618.404	1	3
618.743	1	9
619.082	1	9
619.422	1	8
619.761	1	5
620.100	1	5
620.440	1	6
620.779	1	10
621.118	1	13
621.458	1	11
621.797	1	7
622.136	1	-4
622.476	1	7
622.815	1	5
623.154	1	-6
623.494	1	-3
623.833	1	5
624.172	1	4
624.511	1	3
624.851	1	-2
625.190	1	8
625.529	1	8
625.869	1	12
626.208	1	-3
626.547	1	-2
626.886	1	4
627.226	1	16
627.565	1	9
627.904	1	-3
628.243	1	13
628.583	1	15
628.922	1	12
629.261	1	-1
629.600	1	-2
629.940	1	8
630.279	1	8
630.618	1	11
630.957	1	9
631.297	1	0
631.636	1	2
631.975	1	5
632.314	1	10
632.653	1	-1
632.993	1	-3
633.332	1	3
633.671	1	3
634.010	1	11
634.349	1	15
634.689	1	-2
635.028	1	-1
635.367	1	16
635.706	1	-2
636.045	1	-2
636.384	1	14
636.724	1	8
637.063	1	-1
637.402	1	9
637.741	1	8
638.080	1	9
638.419	1	-1
638.759	1	3
639.098	1	10
639.437	1	3
639.776	1	5
640.115	1	-6
640.454	1	0
640.793	1	11
641.132	1	0
641.472	1	11
641.811	1	-11
642.150	1	-12
642.489	1	6
642.828	1	22
643.167	1	7
643.506	1	-1
643.845	1	13
644.184	1	15
644.524	1	9
644.863	1	4
645.202	1	2
645.541	1	5
645.880	1	14
646.219	1	7
646.558	1	-4
646.897	1	-6
647.236	1	0
647.575	1	16
647.914	1	-1
648.253	1	13
648.592	1	12
648.931	1	8
649.270	1	18
649.610	1	9
649.949	1	-5
650.288	1	10
650.627	1	-1
650.966	1	9
651.305	1	7
651.644	1	6
651.983	1	-3
652.322	1	4
652.661	1	3
653.000	1	11
653.339	1	2
653.678	1	10
654.017	1	8
654.356	1	16
654.695	1	18
655.034	1	-1
655.373	1	2
655.712	1	6
656.051	1	-6
656.390	1	14
656.729	1	9
657.068	1	-3
657.406	1	-2
657.745	1	19
658.084	1	6
658.423	1	7
658.762	1	0
659.101	1	-3
659.440	1	10
659.779	1	2
660.118	1	9
660.457	1	4
660.796	1	9
661.135	1	7
661.474	1	11
661.813	1	-5
662.152	1	4
662.491	1	-1
662.829	1	17
663.168	1	-6
663.507	1	6
663.846	1	6
664.185	1	8
664.524	1	3
664.863	1	-1
665.202	1	0
665.541	1	2
665.879	1	14
666.218	1	6
666.557	1	1
666.896	1	8
667.235	1	-9
667.574	1	-6
667.913	1	7
668.251	1	7
668.590	1	6
668.929	1	4
669.268	1	4
669.607	1	-16
669.946	1	3
670.285	1	3
670.623	1	4
670.962	1	-6
671.301	1	-1
671.640	1	10
671.979	1	1
672.317	1	-1
672.656	1	7
672.995	1	1
673.334	1	-6
673.673	1	1
674.011	1	15
674.350	1	9
674.689	1	1
675.028	1	2
675.367	1	4
675.705	1	3
676.044	1	-2
676.383	1	3
676.722	1	1
677.060	1	6
677.399	1	19
677.738	1	-4
678.077	1	-7
678.416	1	-5
678.754	1	5
679.093	1	16
679.432	1	-3
679.771	1	2
680.109	1	1
680.448	1	-3
680.787	1	-10
681.125	1	4
681.464	1	0
681.803	1	-5
682.142	1	5
682.480	1	-1
682.819	1	3
683.158	1	5
683.496	1	12
683.835	1	5
684.174	1	1
684.512	1	6
684.851	1	5
685.190	1	10
685.529	1	4
685.867	1	0
686.206	1	4
686.545	1	8
686.883	1	18
687.222	1	6
687.561	1	4
687.899	1	-6
688.238	1	15
688.577	1	5
688.746	1	0