File: Data/GaN_150K_450ms/GaN_sample D_spot15_UVVIS_150 K_200um_450 ms 2x2mm1_207.txt
340.368	1	8
340.710	1	3
341.052	1	4
341.394	1	-8
341.737	1	17
342.079	1	-6
342.421	1	5
342.763	1	3
343.105	1	2
343.447	1	4
343.789	1	5
344.131	1	-8
344.473	1	1
344.815	1	10
345.157	1	16
345.499	1	-1
345.841	1	14
346.183	1	-5
346.526	1	10
346.868	1	2
347.210	1	0
347.552	1	16
347.894	1	-13
348.236	1	5
348.578	1	14
348.920	1	5
349.262	1	-1
349.604	1	5
349.946	1	-5
350.288	1	-6
350.630	1	5
350.972	1	12
351.314	1	4
351.656	1	3
351.998	1	3
352.340	1	10
352.682	1	-11
353.024	1	10
353.366	1	0
353.708	1	0
354.050	1	-6
354.392	1	0
354.734	1	3
355.076	1	16
355.418	1	-4
355.760	1	5
356.102	1	4
356.444	1	14
356.785	1	6
357.127	1	13
357.469	1	7
357.811	1	6
358.153	1	-8
358.495	1	9
358.837	1	9
359.179	1	14
359.521	1	19
359.863	1	-2
360.205	1	15
360.547	1	11
360.889	1	5
361.231	1	4
361.572	1	11
361.914	1	13
362.256	1	18
362.598	1	12
362.940	1	14
363.282	1	5
363.624	1	14
363.966	1	7
364.308	1	17
364.649	1	21
364.991	1	19
365.333	1	14
365.675	1	21
366.017	1	30
366.359	1	2
366.701	1	14
367.042	1	24
367.384	1	13
367.726	1	18
368.068	1	35
368.410	1	28
368.752	1	32
369.093	1	31
369.435	1	33
369.777	1	19
370.119	1	19
370.461	1	21
370.803	1	18
371.144	1	23
371.486	1	20
371.828	1	22
372.170	1	17
372.512	1	5
372.853	1	19
373.195	1	10
373.537	1	8
373.879	1	0
374.220	1	15
374.562	1	23
374.904	1	13
375.246	1	13
375.588	1	5
375.929	1	15
376.271	1	16
376.613	1	8
376.955	1	6
377.296	1	14
377.638	1	1
377.980	1	17
378.321	1	10
378.663	1	4
379.005	1	2
379.347	1	4
379.688	1	19
380.030	1	12
380.372	1	3
380.714	1	14
381.055	1	4
381.397	1	6
381.739	1	1
382.080	1	7
382.422	1	7
382.764	1	16
383.105	1	6
383.447	1	2
383.789	1	-4
384.130	1	8
384.472	1	2
384.814	1	19
385.156	1	7
385.497	1	11
385.839	1	5
386.180	1	3
386.522	1	11
386.864	1	1
387.205	1	6
387.547	1	10
387.889	1	3
388.230	1	5
388.572	1	5
388.914	1	19
389.255	1	-2
389.597	1	5
389.939	1	6
390.280	1	-2
390.622	1	-3
390.963	1	-5
391.305	1	9
391.647	1	-1
391.988	1	2
392.330	1	0
392.671	1	9
393.013	1	8
393.355	1	8
393.696	1	10
394.038	1	13
394.379	1	12
394.721	1	2
395.062	1	-3
395.404	1	2
395.746	1	-6
396.087	1	5
396.429	1	5
396.770	1	4
397.112	1	8
397.453	1	-3
397.795	1	-1
398.136	1	7
398.478	1	-1
398.819	1	3
399.161	1	6
399.503	1	7
399.844	1	0
400.186	1	4
400.527	1	8
400.869	1	5
401.210	1	2
401.552	1	8
401.893	1	1
402.235	1	16
402.576	1	0
402.918	1	-1
403.259	1	6
403.601	1	8
403.942	1	3
404.284	1	16
404.625	1	3
404.967	1	2
405.308	1	-4
405.649	1	5
405.991	1	2
406.332	1	12
406.674	1	3
407.015	1	5
407.357	1	6
407.698	1	2
408.040	1	10
408.381	1	-4
408.722	1	6
409.064	1	7
409.405	1	14
409.747	1	-4
410.088	1	6
410.430	1	1
410.771	1	5
411.112	1	1
411.454	1	10
411.795	1	10
412.137	1	12
412.478	1	8
412.819	1	3
413.161	1	1
413.502	1	8
413.844	1	10
414.185	1	4
414.526	1	-7
414.868	1	3
415.209	1	-2
415.550	1	10
415.892	1	13
416.233	1	5
416.575	1	-1
416.916	1	4
417.257	1	-9
417.599	1	-4
417.940	1	-6
418.281	1	10
418.623	1	4
418.964	1	13
419.305	1	4
419.647	1	2
419.988	1	20
420.329	1	12
420.671	1	11
421.012	1	-7
421.353	1	16
421.695	1	8
422.036	1	16
422.377	1	3
422.718	1	7
423.060	1	14
423.401	1	6
423.742	1	14
424.084	1	-3
424.425	1	14
424.766	1	5
425.107	1	-1
425.449	1	12
425.790	1	8
426.131	1	4
426.472	1	11
426.814	1	0
427.155	1	8
427.496	1	4
427.837	1	1
428.179	1	8
428.520	1	9
428.861	1	17
429.202	1	-8
429.544	1	6
429.885	1	8
430.226	1	-10
430.567	1	-4
430.909	1	-5
431.250	1	6
431.591	1	4
431.932	1	8
432.273	1	10
432.615	1	-1
432.956	1	11
433.297	1	12
433.638	1	9
433.979	1	2
434.320	1	4
434.662	1	8
435.003	1	12
435.344	1	4
435.685	1	5
436.026	1	8
436.368	1	1
436.709	1	-4
437.050	1	0
437.391	1	-2
437.732	1	2
438.073	1	1
438.414	1	9
438.756	1	1
439.097	1	3
439.438	1	-5
439.779	1	8
440.120	1	-2
440.461	1	8
440.802	1	3
441.143	1	7
441.485	1	9
441.826	1	2
442.167	1	-2
442.508	1	0
442.849	1	5
443.190	1	14
443.531	1	2
443.872	1	-6
444.213	1	-6
444.554	1	10
444.895	1	-4
445.237	1	5
445.578	1	5
445.919	1	7
446.260	1	15
446.601	1	2
446.942	1	6
447.283	1	16
447.624	1	-2
447.965	1	0
448.306	1	9
448.647	1	0
448.988	1	6
449.329	1	7
449.670	1	3
450.011	1	8
450.352	1	2
450.693	1	10
451.034	1	13
451.375	1	5
451.716	1	7
452.057	1	7
452.398	1	14
452.739	1	-5
453.080	1	-1
453.421	1	11
453.762	1	12
454.103	1	4
454.444	1	2
454.785	1	7
455.126	1	3
455.467	1	3
455.808	1	7
456.149	1	-5
456.490	1	-4
456.831	1	3
457.172	1	5
457.513	1	13
457.854	1	1
458.195	1	7
458.536	1	14
458.877	1	12
459.218	1	3
459.559	1	8
459.899	1	-3
460.240	1	4
460.581	1	-6
460.922	1	8
461.263	1	16
461.604	1	4
461.945	1	12
462.286	1	-5
462.627	1	-1
462.968	1	11
463.309	1	11
463.649	1	0
463.990	1	4
464.331	1	13
464.672	1	9
465.013	1	12
465.354	1	13
465.695	1	15
466.036	1	8
466.376	1	7
466.717	1	-10
467.058	1	6
467.399	1	-5
467.740	1	17
468.081	1	3
468.422	1	12
468.762	1	5
469.103	1	2
469.444	1	12
469.785	1	-5
470.126	1	7
470.467	1	-4
470.807	1	5
471.148	1	-3
471.489	1	9
471.830	1	-4
472.171	1	7
472.511	1	1
472.852	1	4
473.193	1	5
473.534	1	5
473.875	1	6
474.215	1	-1
474.556	1	-5
474.897	1	-5
475.238	1	9
475.578	1	-4
475.919	1	10
476.260	1	-4
476.601	1	0
476.942	1	-4
477.282	1	1
477.623	1	3
477.964	1	12
478.305	1	10
478.645	1	5
478.986	1	5
479.327	1	6
479.667	1	1
480.008	1	7
480.349	1	2
480.690	1	1
481.030	1	-4
481.371	1	-5
481.712	1	13
482.053	1	8
482.393	1	7
482.734	1	13
483.075	1	6
483.415	1	4
483.756	1	7
484.097	1	2
484.437	1	8
484.778	1	-2
485.119	1	-3
485.459	1	-9
485.800	1	-1
486.141	1	12
486.481	1	-6
486.822	1	11
487.163	1	-6
487.503	1	3
487.844	1	-9
488.185	1	1
488.525	1	-1
488.866	1	-4
489.207	1	6
489.547	1	-1
489.888	1	4
490.228	1	-7
490.569	1	-9
490.910	1	7
491.250	1	6
491.591	1	-1
491.932	1	5
492.272	1	-7
492.613	1	7
492.953	1	1
493.294	1	-1
493.635	1	5
493.975	1	23
494.316	1	-8
494.656	1	9
494.997	1	-4
495.337	1	5
495.678	1	-1
496.019	1	5
496.359	1	0
496.700	1	-6
497.040	1	-1
497.381	1	-2
497.721	1	0
498.062	1	1
498.403	1	6
498.743	1	9
499.084	1	2
499.424	1	3
499.765	1	6
500.105	1	9
500.446	1	3
500.786	1	-7
501.127	1	9
501.467	1	2
501.808	1	13
502.148	1	-7
502.489	1	0
502.829	1	2
503.170	1	3
503.510	1	-3
503.851	1	12
504.191	1	1
504.532	1	13
504.872	1	-4
505.213	1	1
505.553	1	1
505.894	1	7
506.234	1	9
506.575	1	13
506.915	1	3
507.256	1	7
507.596	1	5
507.936	1	11
508.277	1	13
508.617	1	1
508.958	1	5
509.298	1	-1
509.639	1	0
509.979	1	0
510.319	1	-1
510.660	1	-1
511.000	1	5
511.341	1	13
511.681	1	4
512.022	1	4
512.362	1	16
512.702	1	4
513.043	1	3
513.383	1	12
513.724	1	3
514.064	1	-1
514.404	1	22
514.745	1	9
515.085	1	8
515.425	1	15
515.766	1	2
516.106	1	-3
516.447	1	4
516.787	1	2
517.127	1	15
517.468	1	1
517.808	1	3
518.148	1	8
518.489	1	11
518.829	1	9
519.169	1	-2
519.510	1	2
519.850	1	4
520.190	1	6
520.531	1	7
520.871	1	5
521.211	1	6
521.552	1	-2
521.892	1	6
522.232	1	5
522.573	1	2
522.913	1	7
523.253	1	12
523.593	1	12
523.934	1	7
524.274	1	12
524.614	1	4
524.955	1	3
525.295	1	15
525.635	1	12
525.975	1	0
526.316	1	-14
526.656	1	8
526.996	1	3
527.337	1	9
527.677	1	15
528.017	1	0
528.357	1	5
528.698	1	18
529.038	1	12
529.378	1	9
529.718	1	3
530.058	1	8
530.399	1	11
530.739	1	10
531.079	1	7
531.419	1	-2
531.760	1	15
532.100	1	16
532.440	1	2
532.780	1	1
533.120	1	7
533.461	1	3
533.801	1	6
534.141	1	8
534.481	1	20
534.821	1	10
535.162	1	13
535.502	1	1
535.842	1	3
536.182	1	5
536.522	1	7
536.862	1	-3
537.203	1	11
537.543	1	13
537.883	1	11
538.223	1	22
538.563	1	-1
538.903	1	2
539.243	1	8
539.584	1	7
539.924	1	12
540.264	1	7
540.604	1	9
540.944	1	10
541.284	1	-4
541.624	1	-3
541.964	1	-2
542.305	1	13
542.645	1	2
542.985	1	-2
543.325	1	7
543.665	1	9
544.005	1	8
544.345	1	7
544.685	1	4
545.025	1	14
545.365	1	3
545.705	1	1
546.045	1	6
546.386	1	5
546.726	1	5
547.066	1	11
547.406	1	-7
547.746	1	3
548.086	1	7
548.426	1	7
548.766	1	6
549.106	1	0
549.446	1	7
549.786	1	3
550.126	1	12
550.466	1	12
550.806	1	20
551.146	1	8
551.486	1	6
551.826	1	0
552.166	1	15
552.506	1	-1
552.846	1	13
553.186	1	-2
553.526	1	3
553.866	1	2
554.206	1	9
554.546	1	5
554.886	1	5
555.226	1	10
555.566	1	5
555.906	1	0
556.246	1	3
556.586	1	7
556.926	1	3
557.266	1	8
557.606	1	-5
557.946	1	9
558.286	1	-10
558.626	1	8
558.966	1	-1
559.306	1	12
559.646	1	14
559.986	1	8
560.325	1	1
560.665	1	11
561.005	1	7
561.345	1	-2
561.685	1	12
562.025	1	2
562.365	1	7
562.705	1	6
563.045	1	-1
563.385	1	1
563.725	1	-2
564.064	1	-7
564.404	1	-12
564.744	1	15
565.084	1	6
565.424	1	4
565.764	1	5
566.104	1	10
566.444	1	5
566.783	1	2
567.123	1	1
567.463	1	5
567.803	1	14
568.143	1	1
568.483	1	9
568.823	1	9
569.162	1	-7
569.502	1	2
569.842	1	2
570.182	1	4
570.522	1	2
570.862	1	-6
571.201	1	11
571.541	1	8
571.881	1	3
572.221	1	8
572.561	1	14
572.900	1	7
573.240	1	-2
573.580	1	13
573.920	1	12
574.260	1	11
574.599	1	0
574.939	1	0
575.279	1	-2
575.619	1	-2
575.959	1	5
576.298	1	-4
576.638	1	11
576.978	1	2
577.318	1	1
577.657	1	5
577.997	1	9
578.337	1	2
578.677	1	-3
579.016	1	4
579.356	1	1
579.696	1	5
580.036	1	4
580.375	1	7
580.715	1	7
581.055	1	3
581.394	1	4
581.734	1	10
582.074	1	12
582.414	1	2
582.753	1	9
583.093	1	7
583.433	1	10
583.772	1	-3
584.112	1	8
584.452	1	11
584.791	1	15
585.131	1	7
585.471	1	-7
585.811	1	6
586.150	1	7
586.490	1	7
586.830	1	-4
587.169	1	1
587.509	1	7
587.849	1	9
588.188	1	15
588.528	1	-4
588.867	1	11
589.207	1	6
589.547	1	3
589.886	1	10
590.226	1	0
590.566	1	-3
590.905	1	10
591.245	1	-10
591.585	1	4
591.924	1	-6
592.264	1	-7
592.603	1	-11
592.943	1	1
593.283	1	6
593.622	1	-4
593.962	1	0
594.301	1	-2
594.641	1	10
594.981	1	0
595.320	1	2
595.660	1	4
595.999	1	0
596.339	1	4
596.678	1	-6
597.018	1	-4
597.358	1	-2
597.697	1	-10
598.037	1	-2
598.376	1	-3
598.716	1	6
599.055	1	12
599.395	1	-10
599.734	1	10
600.074	1	-4
600.413	1	4
600.753	1	6
601.092	1	-1
601.432	1	2
601.771	1	6
602.111	1	4
602.451	1	-2
602.790	1	3
603.130	1	-2
603.469	1	6
603.809	1	7
604.148	1	-5
604.487	1	0
604.827	1	5
605.166	1	-1
605.506	1	-2
605.845	1	7
606.185	1	-3
606.524	1	-5
606.864	1	23
607.203	1	-1
607.543	1	-2
607.882	1	3
608.222	1	6
608.561	1	0
608.901	1	7
609.240	1	1
609.579	1	-5
609.919	1	-8
610.258	1	13
610.598	1	1
610.937	1	2
611.277	1	5
611.616	1	11
611.955	1	-8
612.295	1	9
612.634	1	4
612.974	1	4
613.313	1	-1
613.652	1	14
613.992	1	2
614.331	1	15
614.671	1	-1
615.010	1	-1
615.349	1	0
615.689	1	-6
616.028	1	15
616.368	1	15
616.707	1	5
617.046	1	-1
617.386	1	7
617.725	1	-2
618.064	1	-1
618.404	1	-1
618.743	1	-1
619.082	1	13
619.422	1	14
619.761	1	10
620.100	1	11
620.440	1	6
620.779	1	10
621.118	1	10
621.458	1	8
621.797	1	1
622.136	1	-3
622.476	1	0
622.815	1	5
623.154	1	4
623.494	1	-8
623.833	1	-3
624.172	1	8
624.511	1	-8
624.851	1	6
625.190	1	8
625.529	1	-3
625.869	1	7
626.208	1	-2
626.547	1	0
626.886	1	-8
627.226	1	7
627.565	1	-2
627.904	1	0
628.243	1	11
628.583	1	4
628.922	1	2
629.261	1	4
629.600	1	1
629.940	1	9
630.279	1	5
630.618	1	14
630.957	1	4
631.297	1	2
631.636	1	2
631.975	1	-1
632.314	1	5
632.653	1	-7
632.993	1	5
633.332	1	-1
633.671	1	5
634.010	1	-1
634.349	1	-1
634.689	1	8
635.028	1	-4
635.367	1	12
635.706	1	1
636.045	1	5
636.384	1	1
636.724	1	-1
637.063	1	-2
637.402	1	11
637.741	1	6
638.080	1	4
638.419	1	-2
638.759	1	6
639.098	1	7
639.437	1	14
639.776	1	7
640.115	1	-3
640.454	1	2
640.793	1	5
641.132	1	14
641.472	1	14
641.811	1	-7
642.150	1	0
642.489	1	6
642.828	1	15
643.167	1	6
643.506	1	2
643.845	1	6
644.184	1	8
644.524	1	9
644.863	1	7
645.202	1	3
645.541	1	-3
645.880	1	16
646.219	1	-2
646.558	1	-1
646.897	1	-9
647.236	1	-5
647.575	1	9
647.914	1	8
648.253	1	13
648.592	1	9
648.931	1	-1
649.270	1	17
649.610	1	2
649.949	1	0
650.288	1	4
650.627	1	1
650.966	1	9
651.305	1	4
651.644	1	5
651.983	1	-5
652.322	1	-4
652.661	1	0
653.000	1	7
653.339	1	-8
653.678	1	2
654.017	1	7
654.356	1	13
654.695	1	18
655.034	1	-11
655.373	1	2
655.712	1	3
656.051	1	8
656.390	1	1
656.729	1	7
657.068	1	9
657.406	1	-3
657.745	1	17
658.084	1	-4
658.423	1	6
658.762	1	-3
659.101	1	2
659.440	1	1
659.779	1	8
660.118	1	-5
660.457	1	2
660.796	1	17
661.135	1	2
661.474	1	2
661.813	1	1
662.152	1	4
662.491	1	-8
662.829	1	2
663.168	1	12
663.507	1	5
663.846	1	12
664.185	1	4
664.524	1	14
664.863	1	-1
665.202	1	12
665.541	1	4
665.879	1	2
666.218	1	6
666.557	1	5
666.896	1	8
667.235	1	-8
667.574	1	2
667.913	1	4
668.251	1	-11
668.590	1	-7
668.929	1	-8
669.268	1	-3
669.607	1	-8
669.946	1	-1
670.285	1	-5
670.623	1	6
670.962	1	-3
671.301	1	4
671.640	1	6
671.979	1	-7
672.317	1	0
672.656	1	8
672.995	1	-4
673.334	1	2
673.673	1	7
674.011	1	2
674.350	1	3
674.689	1	-9
675.028	1	7
675.367	1	8
675.705	1	1
676.044	1	3
676.383	1	-8
676.722	1	8
677.060	1	1
677.399	1	12
677.738	1	4
678.077	1	1
678.416	1	1
678.754	1	-1
679.093	1	13
679.432	1	2
679.771	1	0
680.109	1	-3
680.448	1	1
680.787	1	-6
681.125	1	-6
681.464	1	4
681.803	1	7
682.142	1	-3
682.480	1	2
682.819	1	-2
683.158	1	4
683.496	1	-5
683.835	1	5
684.174	1	9
684.512	1	5
684.851	1	3
685.190	1	2
685.529	1	6
685.867	1	0
686.206	1	-4
686.545	1	0
686.883	1	6
687.222	1	-9
687.561	1	2
687.899	1	6
688.238	1	10
688.577	1	3
688.746	1	-5