File: Data/GaN_150K_450ms/GaN_sample D_spot15_UVVIS_150 K_200um_450 ms 2x2mm1_184.txt
340.368	1	-7
340.710	1	7
341.052	1	1
341.394	1	-12
341.737	1	15
342.079	1	7
342.421	1	7
342.763	1	7
343.105	1	4
343.447	1	-1
343.789	1	9
344.131	1	-6
344.473	1	0
344.815	1	-2
345.157	1	15
345.499	1	4
345.841	1	11
346.183	1	2
346.526	1	1
346.868	1	1
347.210	1	1
347.552	1	16
347.894	1	-3
348.236	1	15
348.578	1	0
348.920	1	4
349.262	1	9
349.604	1	-6
349.946	1	-2
350.288	1	-2
350.630	1	6
350.972	1	9
351.314	1	1
351.656	1	8
351.998	1	3
352.340	1	10
352.682	1	-8
353.024	1	20
353.366	1	4
353.708	1	4
354.050	1	-8
354.392	1	2
354.734	1	10
355.076	1	5
355.418	1	-1
355.760	1	3
356.102	1	7
356.444	1	6
356.785	1	8
357.127	1	9
357.469	1	6
357.811	1	5
358.153	1	-7
358.495	1	1
358.837	1	16
359.179	1	3
359.521	1	11
359.863	1	4
360.205	1	17
360.547	1	12
360.889	1	4
361.231	1	9
361.572	1	9
361.914	1	14
362.256	1	16
362.598	1	17
362.940	1	13
363.282	1	7
363.624	1	10
363.966	1	7
364.308	1	15
364.649	1	19
364.991	1	19
365.333	1	8
365.675	1	26
366.017	1	25
366.359	1	26
366.701	1	20
367.042	1	26
367.384	1	17
367.726	1	26
368.068	1	31
368.410	1	24
368.752	1	24
369.093	1	24
369.435	1	24
369.777	1	23
370.119	1	21
370.461	1	23
370.803	1	18
371.144	1	22
371.486	1	25
371.828	1	15
372.170	1	14
372.512	1	16
372.853	1	24
373.195	1	13
373.537	1	-1
373.879	1	23
374.220	1	13
374.562	1	20
374.904	1	15
375.246	1	15
375.588	1	11
375.929	1	15
376.271	1	13
376.613	1	4
376.955	1	11
377.296	1	20
377.638	1	3
377.980	1	9
378.321	1	17
378.663	1	16
379.005	1	12
379.347	1	5
379.688	1	14
380.030	1	16
380.372	1	9
380.714	1	12
381.055	1	5
381.397	1	4
381.739	1	-2
382.080	1	11
382.422	1	11
382.764	1	14
383.105	1	3
383.447	1	17
383.789	1	-4
384.130	1	6
384.472	1	4
384.814	1	3
385.156	1	6
385.497	1	14
385.839	1	12
386.180	1	11
386.522	1	4
386.864	1	4
387.205	1	12
387.547	1	17
387.889	1	8
388.230	1	1
388.572	1	-3
388.914	1	12
389.255	1	6
389.597	1	8
389.939	1	11
390.280	1	4
390.622	1	-1
390.963	1	-6
391.305	1	7
391.647	1	10
391.988	1	2
392.330	1	7
392.671	1	8
393.013	1	8
393.355	1	14
393.696	1	5
394.038	1	0
394.379	1	11
394.721	1	5
395.062	1	-11
395.404	1	7
395.746	1	1
396.087	1	9
396.429	1	18
396.770	1	0
397.112	1	2
397.453	1	0
397.795	1	6
398.136	1	6
398.478	1	-3
398.819	1	1
399.161	1	13
399.503	1	17
399.844	1	3
400.186	1	4
400.527	1	6
400.869	1	-1
401.210	1	4
401.552	1	10
401.893	1	9
402.235	1	15
402.576	1	1
402.918	1	-1
403.259	1	5
403.601	1	14
403.942	1	7
404.284	1	12
404.625	1	8
404.967	1	0
405.308	1	-7
405.649	1	2
405.991	1	17
406.332	1	11
406.674	1	-1
407.015	1	16
407.357	1	11
407.698	1	15
408.040	1	18
408.381	1	-3
408.722	1	11
409.064	1	5
409.405	1	10
409.747	1	0
410.088	1	6
410.430	1	12
410.771	1	9
411.112	1	3
411.454	1	13
411.795	1	9
412.137	1	-7
412.478	1	11
412.819	1	8
413.161	1	9
413.502	1	15
413.844	1	17
414.185	1	6
414.526	1	-5
414.868	1	-4
415.209	1	6
415.550	1	10
415.892	1	9
416.233	1	13
416.575	1	-6
416.916	1	5
417.257	1	1
417.599	1	15
417.940	1	5
418.281	1	7
418.623	1	-2
418.964	1	12
419.305	1	12
419.647	1	9
419.988	1	18
420.329	1	15
420.671	1	7
421.012	1	7
421.353	1	13
421.695	1	11
422.036	1	17
422.377	1	3
422.718	1	18
423.060	1	15
423.401	1	0
423.742	1	21
424.084	1	1
424.425	1	11
424.766	1	8
425.107	1	6
425.449	1	8
425.790	1	2
426.131	1	7
426.472	1	15
426.814	1	11
427.155	1	7
427.496	1	9
427.837	1	2
428.179	1	16
428.520	1	6
428.861	1	11
429.202	1	5
429.544	1	3
429.885	1	14
430.226	1	2
430.567	1	-3
430.909	1	7
431.250	1	7
431.591	1	0
431.932	1	1
432.273	1	9
432.615	1	10
432.956	1	11
433.297	1	5
433.638	1	7
433.979	1	3
434.320	1	5
434.662	1	12
435.003	1	12
435.344	1	10
435.685	1	5
436.026	1	2
436.368	1	-3
436.709	1	-2
437.050	1	-2
437.391	1	6
437.732	1	1
438.073	1	1
438.414	1	8
438.756	1	6
439.097	1	3
439.438	1	-1
439.779	1	10
440.120	1	0
440.461	1	9
440.802	1	3
441.143	1	4
441.485	1	3
441.826	1	4
442.167	1	15
442.508	1	8
442.849	1	9
443.190	1	15
443.531	1	1
443.872	1	1
444.213	1	-7
444.554	1	11
444.895	1	9
445.237	1	6
445.578	1	12
445.919	1	11
446.260	1	3
446.601	1	8
446.942	1	7
447.283	1	4
447.624	1	-9
447.965	1	7
448.306	1	7
448.647	1	1
448.988	1	13
449.329	1	3
449.670	1	12
450.011	1	2
450.352	1	-4
450.693	1	11
451.034	1	-2
451.375	1	0
451.716	1	4
452.057	1	4
452.398	1	12
452.739	1	7
453.080	1	0
453.421	1	12
453.762	1	14
454.103	1	12
454.444	1	7
454.785	1	0
455.126	1	5
455.467	1	7
455.808	1	10
456.149	1	-4
456.490	1	-11
456.831	1	9
457.172	1	12
457.513	1	3
457.854	1	-4
458.195	1	6
458.536	1	10
458.877	1	0
459.218	1	1
459.559	1	7
459.899	1	4
460.240	1	3
460.581	1	5
460.922	1	8
461.263	1	13
461.604	1	2
461.945	1	11
462.286	1	3
462.627	1	5
462.968	1	5
463.309	1	5
463.649	1	-6
463.990	1	9
464.331	1	10
464.672	1	3
465.013	1	2
465.354	1	16
465.695	1	5
466.036	1	10
466.376	1	2
466.717	1	-1
467.058	1	7
467.399	1	-9
467.740	1	15
468.081	1	5
468.422	1	2
468.762	1	7
469.103	1	2
469.444	1	7
469.785	1	2
470.126	1	13
470.467	1	1
470.807	1	10
471.148	1	0
471.489	1	14
471.830	1	8
472.171	1	12
472.511	1	10
472.852	1	11
473.193	1	7
473.534	1	-1
473.875	1	0
474.215	1	4
474.556	1	-1
474.897	1	2
475.238	1	4
475.578	1	-6
475.919	1	-2
476.260	1	-2
476.601	1	3
476.942	1	-1
477.282	1	-3
477.623	1	1
477.964	1	5
478.305	1	5
478.645	1	2
478.986	1	10
479.327	1	0
479.667	1	-1
480.008	1	12
480.349	1	5
480.690	1	14
481.030	1	0
481.371	1	1
481.712	1	18
482.053	1	10
482.393	1	5
482.734	1	-5
483.075	1	5
483.415	1	9
483.756	1	12
484.097	1	3
484.437	1	0
484.778	1	-1
485.119	1	-1
485.459	1	-2
485.800	1	-8
486.141	1	-1
486.481	1	-8
486.822	1	9
487.163	1	-4
487.503	1	3
487.844	1	-8
488.185	1	6
488.525	1	-8
488.866	1	-5
489.207	1	2
489.547	1	6
489.888	1	7
490.228	1	6
490.569	1	-2
490.910	1	15
491.250	1	5
491.591	1	10
491.932	1	7
492.272	1	-12
492.613	1	0
492.953	1	1
493.294	1	-5
493.635	1	3
493.975	1	10
494.316	1	-2
494.656	1	7
494.997	1	-4
495.337	1	6
495.678	1	-3
496.019	1	1
496.359	1	-3
496.700	1	7
497.040	1	4
497.381	1	9
497.721	1	-9
498.062	1	10
498.403	1	5
498.743	1	11
499.084	1	7
499.424	1	5
499.765	1	3
500.105	1	12
500.446	1	-6
500.786	1	-5
501.127	1	7
501.467	1	1
501.808	1	4
502.148	1	3
502.489	1	3
502.829	1	6
503.170	1	7
503.510	1	3
503.851	1	9
504.191	1	-1
504.532	1	13
504.872	1	0
505.213	1	-3
505.553	1	-1
505.894	1	2
506.234	1	15
506.575	1	14
506.915	1	16
507.256	1	9
507.596	1	12
507.936	1	12
508.277	1	11
508.617	1	6
508.958	1	12
509.298	1	-3
509.639	1	0
509.979	1	7
510.319	1	12
510.660	1	6
511.000	1	-1
511.341	1	11
511.681	1	5
512.022	1	-3
512.362	1	12
512.702	1	1
513.043	1	8
513.383	1	8
513.724	1	9
514.064	1	2
514.404	1	6
514.745	1	6
515.085	1	14
515.425	1	13
515.766	1	4
516.106	1	14
516.447	1	11
516.787	1	8
517.127	1	9
517.468	1	17
517.808	1	-1
518.148	1	14
518.489	1	15
518.829	1	2
519.169	1	3
519.510	1	5
519.850	1	7
520.190	1	-2
520.531	1	6
520.871	1	11
521.211	1	7
521.552	1	3
521.892	1	3
522.232	1	-3
522.573	1	10
522.913	1	11
523.253	1	14
523.593	1	9
523.934	1	15
524.274	1	11
524.614	1	4
524.955	1	-6
525.295	1	10
525.635	1	13
525.975	1	-1
526.316	1	-4
526.656	1	7
526.996	1	-8
527.337	1	9
527.677	1	24
528.017	1	10
528.357	1	13
528.698	1	17
529.038	1	12
529.378	1	3
529.718	1	3
530.058	1	8
530.399	1	6
530.739	1	17
531.079	1	10
531.419	1	12
531.760	1	18
532.100	1	13
532.440	1	11
532.780	1	15
533.120	1	-1
533.461	1	3
533.801	1	15
534.141	1	4
534.481	1	17
534.821	1	10
535.162	1	-1
535.502	1	3
535.842	1	2
536.182	1	8
536.522	1	-5
536.862	1	1
537.203	1	8
537.543	1	4
537.883	1	3
538.223	1	9
538.563	1	8
538.903	1	10
539.243	1	17
539.584	1	1
539.924	1	-1
540.264	1	9
540.604	1	10
540.944	1	13
541.284	1	6
541.624	1	5
541.964	1	-1
542.305	1	15
542.645	1	1
542.985	1	5
543.325	1	8
543.665	1	9
544.005	1	5
544.345	1	8
544.685	1	-4
545.025	1	14
545.365	1	8
545.705	1	7
546.045	1	14
546.386	1	2
546.726	1	6
547.066	1	9
547.406	1	3
547.746	1	3
548.086	1	6
548.426	1	10
548.766	1	3
549.106	1	9
549.446	1	10
549.786	1	10
550.126	1	7
550.466	1	-1
550.806	1	12
551.146	1	17
551.486	1	-6
551.826	1	1
552.166	1	6
552.506	1	1
552.846	1	13
553.186	1	-8
553.526	1	6
553.866	1	5
554.206	1	15
554.546	1	8
554.886	1	7
555.226	1	8
555.566	1	5
555.906	1	4
556.246	1	8
556.586	1	10
556.926	1	4
557.266	1	10
557.606	1	-3
557.946	1	8
558.286	1	-8
558.626	1	7
558.966	1	-2
559.306	1	15
559.646	1	8
559.986	1	20
560.325	1	2
560.665	1	-2
561.005	1	5
561.345	1	2
561.685	1	3
562.025	1	14
562.365	1	1
562.705	1	22
563.045	1	1
563.385	1	5
563.725	1	2
564.064	1	-1
564.404	1	3
564.744	1	11
565.084	1	8
565.424	1	-4
565.764	1	6
566.104	1	13
566.444	1	13
566.783	1	10
567.123	1	-3
567.463	1	4
567.803	1	14
568.143	1	7
568.483	1	13
568.823	1	3
569.162	1	-6
569.502	1	10
569.842	1	0
570.182	1	10
570.522	1	-6
570.862	1	-7
571.201	1	8
571.541	1	7
571.881	1	1
572.221	1	6
572.561	1	11
572.900	1	6
573.240	1	-6
573.580	1	8
573.920	1	8
574.260	1	6
574.599	1	7
574.939	1	9
575.279	1	-1
575.619	1	-3
575.959	1	-2
576.298	1	-6
576.638	1	12
576.978	1	6
577.318	1	8
577.657	1	-5
577.997	1	12
578.337	1	9
578.677	1	7
579.016	1	4
579.356	1	8
579.696	1	6
580.036	1	1
580.375	1	8
580.715	1	2
581.055	1	0
581.394	1	9
581.734	1	0
582.074	1	-5
582.414	1	3
582.753	1	10
583.093	1	-1
583.433	1	11
583.772	1	13
584.112	1	-5
584.452	1	9
584.791	1	4
585.131	1	6
585.471	1	1
585.811	1	3
586.150	1	14
586.490	1	0
586.830	1	10
587.169	1	1
587.509	1	5
587.849	1	11
588.188	1	3
588.528	1	3
588.867	1	7
589.207	1	9
589.547	1	14
589.886	1	6
590.226	1	-7
590.566	1	12
590.905	1	-2
591.245	1	-2
591.585	1	1
591.924	1	2
592.264	1	8
592.603	1	-4
592.943	1	5
593.283	1	4
593.622	1	7
593.962	1	7
594.301	1	2
594.641	1	10
594.981	1	15
595.320	1	8
595.660	1	3
595.999	1	8
596.339	1	-1
596.678	1	4
597.018	1	3
597.358	1	2
597.697	1	-3
598.037	1	-6
598.376	1	0
598.716	1	2
599.055	1	12
599.395	1	3
599.734	1	10
600.074	1	0
600.413	1	12
600.753	1	3
601.092	1	-7
601.432	1	-3
601.771	1	8
602.111	1	1
602.451	1	3
602.790	1	12
603.130	1	14
603.469	1	11
603.809	1	-3
604.148	1	-7
604.487	1	-2
604.827	1	5
605.166	1	2
605.506	1	5
605.845	1	17
606.185	1	1
606.524	1	-4
606.864	1	10
607.203	1	14
607.543	1	6
607.882	1	-4
608.222	1	0
608.561	1	2
608.901	1	0
609.240	1	5
609.579	1	-6
609.919	1	-8
610.258	1	11
610.598	1	-4
610.937	1	2
611.277	1	14
611.616	1	9
611.955	1	-2
612.295	1	8
612.634	1	14
612.974	1	1
613.313	1	5
613.652	1	8
613.992	1	-1
614.331	1	20
614.671	1	13
615.010	1	-2
615.349	1	9
615.689	1	1
616.028	1	15
616.368	1	14
616.707	1	2
617.046	1	0
617.386	1	10
617.725	1	-1
618.064	1	-6
618.404	1	0
618.743	1	2
619.082	1	17
619.422	1	17
619.761	1	-2
620.100	1	4
620.440	1	0
620.779	1	7
621.118	1	10
621.458	1	1
621.797	1	0
622.136	1	-2
622.476	1	5
622.815	1	10
623.154	1	-6
623.494	1	-6
623.833	1	-2
624.172	1	3
624.511	1	-2
624.851	1	-4
625.190	1	-3
625.529	1	-6
625.869	1	14
626.208	1	5
626.547	1	5
626.886	1	10
627.226	1	6
627.565	1	7
627.904	1	-2
628.243	1	10
628.583	1	10
628.922	1	7
629.261	1	-6
629.600	1	3
629.940	1	5
630.279	1	9
630.618	1	15
630.957	1	-2
631.297	1	1
631.636	1	3
631.975	1	-1
632.314	1	-3
632.653	1	2
632.993	1	4
633.332	1	11
633.671	1	6
634.010	1	3
634.349	1	9
634.689	1	5
635.028	1	-9
635.367	1	11
635.706	1	-4
636.045	1	-4
636.384	1	15
636.724	1	2
637.063	1	-12
637.402	1	8
637.741	1	-3
638.080	1	7
638.419	1	2
638.759	1	6
639.098	1	8
639.437	1	-5
639.776	1	9
640.115	1	-4
640.454	1	0
640.793	1	1
641.132	1	6
641.472	1	11
641.811	1	-7
642.150	1	3
642.489	1	9
642.828	1	13
643.167	1	8
643.506	1	-10
643.845	1	1
644.184	1	5
644.524	1	5
644.863	1	5
645.202	1	0
645.541	1	3
645.880	1	13
646.219	1	8
646.558	1	-13
646.897	1	-7
647.236	1	-12
647.575	1	6
647.914	1	-2
648.253	1	11
648.592	1	8
648.931	1	5
649.270	1	11
649.610	1	-2
649.949	1	-2
650.288	1	0
650.627	1	-5
650.966	1	9
651.305	1	-5
651.644	1	5
651.983	1	-2
652.322	1	8
652.661	1	3
653.000	1	2
653.339	1	2
653.678	1	9
654.017	1	13
654.356	1	11
654.695	1	16
655.034	1	-4
655.373	1	8
655.712	1	8
656.051	1	4
656.390	1	-4
656.729	1	4
657.068	1	5
657.406	1	10
657.745	1	10
658.084	1	7
658.423	1	13
658.762	1	-5
659.101	1	-3
659.440	1	3
659.779	1	0
660.118	1	-4
660.457	1	-5
660.796	1	7
661.135	1	13
661.474	1	8
661.813	1	-1
662.152	1	8
662.491	1	-5
662.829	1	8
663.168	1	-7
663.507	1	6
663.846	1	1
664.185	1	-4
664.524	1	4
664.863	1	-7
665.202	1	9
665.541	1	3
665.879	1	9
666.218	1	4
666.557	1	3
666.896	1	8
667.235	1	-6
667.574	1	-9
667.913	1	7
668.251	1	-5
668.590	1	2
668.929	1	-1
669.268	1	-1
669.607	1	-9
669.946	1	0
670.285	1	-5
670.623	1	-1
670.962	1	-6
671.301	1	-5
671.640	1	12
671.979	1	-8
672.317	1	8
672.656	1	10
672.995	1	-4
673.334	1	-4
673.673	1	12
674.011	1	9
674.350	1	-2
674.689	1	-3
675.028	1	4
675.367	1	14
675.705	1	-11
676.044	1	-3
676.383	1	-1
676.722	1	5
677.060	1	12
677.399	1	7
677.738	1	-1
678.077	1	0
678.416	1	-2
678.754	1	9
679.093	1	14
679.432	1	3
679.771	1	0
680.109	1	3
680.448	1	2
680.787	1	-11
681.125	1	5
681.464	1	6
681.803	1	-2
682.142	1	3
682.480	1	-4
682.819	1	-5
683.158	1	2
683.496	1	9
683.835	1	6
684.174	1	0
684.512	1	-2
684.851	1	-8
685.190	1	0
685.529	1	1
685.867	1	-3
686.206	1	-4
686.545	1	-2
686.883	1	13
687.222	1	1
687.561	1	-10
687.899	1	-3
688.238	1	10
688.577	1	5
688.746	1	-9