File: Data/GaN_150K_450ms/GaN_sample D_spot15_UVVIS_150 K_200um_450 ms 2x2mm1_58.txt
340.368	1	6
340.710	1	7
341.052	1	4
341.394	1	0
341.737	1	11
342.079	1	2
342.421	1	1
342.763	1	10
343.105	1	13
343.447	1	11
343.789	1	5
344.131	1	-5
344.473	1	10
344.815	1	10
345.157	1	10
345.499	1	7
345.841	1	4
346.183	1	0
346.526	1	6
346.868	1	-2
347.210	1	7
347.552	1	9
347.894	1	5
348.236	1	8
348.578	1	10
348.920	1	8
349.262	1	9
349.604	1	-2
349.946	1	4
350.288	1	2
350.630	1	2
350.972	1	9
351.314	1	2
351.656	1	17
351.998	1	10
352.340	1	16
352.682	1	-3
353.024	1	28
353.366	1	15
353.708	1	12
354.050	1	5
354.392	1	10
354.734	1	9
355.076	1	27
355.418	1	20
355.760	1	24
356.102	1	25
356.444	1	28
356.785	1	20
357.127	1	32
357.469	1	32
357.811	1	29
358.153	1	28
358.495	1	45
358.837	1	46
359.179	1	49
359.521	1	59
359.863	1	37
360.205	1	69
360.547	1	60
360.889	1	68
361.231	1	85
361.572	1	82
361.914	1	102
362.256	1	122
362.598	1	130
362.940	1	151
363.282	1	154
363.624	1	172
363.966	1	198
364.308	1	235
364.649	1	258
364.991	1	289
365.333	1	336
365.675	1	382
366.017	1	416
366.359	1	441
366.701	1	497
367.042	1	515
367.384	1	536
367.726	1	563
368.068	1	574
368.410	1	576
368.752	1	572
369.093	1	541
369.435	1	525
369.777	1	494
370.119	1	448
370.461	1	431
370.803	1	400
371.144	1	366
371.486	1	354
371.828	1	328
372.170	1	307
372.512	1	272
372.853	1	281
373.195	1	252
373.537	1	239
373.879	1	227
374.220	1	231
374.562	1	202
374.904	1	186
375.246	1	187
375.588	1	168
375.929	1	167
376.271	1	140
376.613	1	150
376.955	1	137
377.296	1	143
377.638	1	119
377.980	1	114
378.321	1	108
378.663	1	97
379.005	1	101
379.347	1	94
379.688	1	107
380.030	1	99
380.372	1	85
380.714	1	86
381.055	1	84
381.397	1	82
381.739	1	70
382.080	1	80
382.422	1	78
382.764	1	67
383.105	1	69
383.447	1	71
383.789	1	67
384.130	1	70
384.472	1	62
384.814	1	78
385.156	1	73
385.497	1	79
385.839	1	72
386.180	1	63
386.522	1	74
386.864	1	50
387.205	1	59
387.547	1	67
387.889	1	55
388.230	1	48
388.572	1	46
388.914	1	48
389.255	1	52
389.597	1	37
389.939	1	59
390.280	1	41
390.622	1	52
390.963	1	42
391.305	1	47
391.647	1	56
391.988	1	41
392.330	1	45
392.671	1	54
393.013	1	44
393.355	1	51
393.696	1	45
394.038	1	39
394.379	1	49
394.721	1	36
395.062	1	33
395.404	1	41
395.746	1	26
396.087	1	42
396.429	1	37
396.770	1	47
397.112	1	30
397.453	1	37
397.795	1	36
398.136	1	40
398.478	1	30
398.819	1	45
399.161	1	39
399.503	1	48
399.844	1	33
400.186	1	34
400.527	1	37
400.869	1	28
401.210	1	34
401.552	1	36
401.893	1	32
402.235	1	34
402.576	1	29
402.918	1	23
403.259	1	24
403.601	1	41
403.942	1	32
404.284	1	27
404.625	1	34
404.967	1	31
405.308	1	28
405.649	1	28
405.991	1	29
406.332	1	33
406.674	1	25
407.015	1	26
407.357	1	27
407.698	1	34
408.040	1	41
408.381	1	16
408.722	1	29
409.064	1	38
409.405	1	23
409.747	1	28
410.088	1	31
410.430	1	20
410.771	1	31
411.112	1	29
411.454	1	28
411.795	1	14
412.137	1	23
412.478	1	24
412.819	1	27
413.161	1	25
413.502	1	21
413.844	1	33
414.185	1	20
414.526	1	8
414.868	1	27
415.209	1	18
415.550	1	17
415.892	1	19
416.233	1	20
416.575	1	12
416.916	1	15
417.257	1	18
417.599	1	19
417.940	1	10
418.281	1	19
418.623	1	18
418.964	1	28
419.305	1	18
419.647	1	25
419.988	1	38
420.329	1	24
420.671	1	21
421.012	1	12
421.353	1	31
421.695	1	26
422.036	1	27
422.377	1	6
422.718	1	20
423.060	1	29
423.401	1	14
423.742	1	30
424.084	1	19
424.425	1	28
424.766	1	25
425.107	1	28
425.449	1	8
425.790	1	23
426.131	1	10
426.472	1	25
426.814	1	22
427.155	1	18
427.496	1	20
427.837	1	14
428.179	1	29
428.520	1	24
428.861	1	18
429.202	1	9
429.544	1	17
429.885	1	19
430.226	1	2
430.567	1	10
430.909	1	21
431.250	1	18
431.591	1	18
431.932	1	10
432.273	1	15
432.615	1	14
432.956	1	11
433.297	1	21
433.638	1	9
433.979	1	22
434.320	1	17
434.662	1	26
435.003	1	34
435.344	1	13
435.685	1	5
436.026	1	19
436.368	1	5
436.709	1	10
437.050	1	17
437.391	1	14
437.732	1	23
438.073	1	10
438.414	1	10
438.756	1	13
439.097	1	22
439.438	1	20
439.779	1	20
440.120	1	14
440.461	1	21
440.802	1	18
441.143	1	12
441.485	1	14
441.826	1	10
442.167	1	23
442.508	1	17
442.849	1	25
443.190	1	15
443.531	1	21
443.872	1	12
444.213	1	12
444.554	1	20
444.895	1	12
445.237	1	22
445.578	1	8
445.919	1	7
446.260	1	22
446.601	1	13
446.942	1	7
447.283	1	15
447.624	1	7
447.965	1	15
448.306	1	25
448.647	1	10
448.988	1	21
449.329	1	17
449.670	1	17
450.011	1	13
450.352	1	10
450.693	1	21
451.034	1	11
451.375	1	19
451.716	1	13
452.057	1	23
452.398	1	16
452.739	1	12
453.080	1	14
453.421	1	24
453.762	1	20
454.103	1	11
454.444	1	14
454.785	1	11
455.126	1	11
455.467	1	17
455.808	1	16
456.149	1	11
456.490	1	9
456.831	1	19
457.172	1	20
457.513	1	19
457.854	1	12
458.195	1	26
458.536	1	9
458.877	1	16
459.218	1	11
459.559	1	3
459.899	1	12
460.240	1	10
460.581	1	15
460.922	1	9
461.263	1	26
461.604	1	19
461.945	1	12
462.286	1	14
462.627	1	7
462.968	1	21
463.309	1	14
463.649	1	5
463.990	1	20
464.331	1	17
464.672	1	16
465.013	1	5
465.354	1	15
465.695	1	11
466.036	1	22
466.376	1	26
466.717	1	7
467.058	1	16
467.399	1	9
467.740	1	22
468.081	1	21
468.422	1	8
468.762	1	16
469.103	1	14
469.444	1	15
469.785	1	12
470.126	1	19
470.467	1	12
470.807	1	31
471.148	1	14
471.489	1	22
471.830	1	15
472.171	1	21
472.511	1	21
472.852	1	16
473.193	1	12
473.534	1	22
473.875	1	15
474.215	1	11
474.556	1	12
474.897	1	2
475.238	1	12
475.578	1	12
475.919	1	16
476.260	1	16
476.601	1	19
476.942	1	13
477.282	1	13
477.623	1	18
477.964	1	28
478.305	1	20
478.645	1	19
478.986	1	21
479.327	1	24
479.667	1	19
480.008	1	26
480.349	1	18
480.690	1	27
481.030	1	10
481.371	1	17
481.712	1	31
482.053	1	26
482.393	1	23
482.734	1	20
483.075	1	31
483.415	1	19
483.756	1	15
484.097	1	28
484.437	1	27
484.778	1	22
485.119	1	35
485.459	1	28
485.800	1	25
486.141	1	29
486.481	1	17
486.822	1	43
487.163	1	25
487.503	1	30
487.844	1	20
488.185	1	44
488.525	1	39
488.866	1	23
489.207	1	52
489.547	1	38
489.888	1	41
490.228	1	42
490.569	1	44
490.910	1	38
491.250	1	37
491.591	1	45
491.932	1	39
492.272	1	38
492.613	1	42
492.953	1	48
493.294	1	34
493.635	1	46
493.975	1	55
494.316	1	38
494.656	1	56
494.997	1	48
495.337	1	46
495.678	1	37
496.019	1	48
496.359	1	39
496.700	1	55
497.040	1	47
497.381	1	53
497.721	1	44
498.062	1	42
498.403	1	50
498.743	1	58
499.084	1	63
499.424	1	56
499.765	1	61
500.105	1	66
500.446	1	54
500.786	1	52
501.127	1	64
501.467	1	71
501.808	1	68
502.148	1	53
502.489	1	68
502.829	1	74
503.170	1	76
503.510	1	70
503.851	1	78
504.191	1	67
504.532	1	78
504.872	1	72
505.213	1	65
505.553	1	69
505.894	1	73
506.234	1	94
506.575	1	91
506.915	1	84
507.256	1	84
507.596	1	86
507.936	1	88
508.277	1	80
508.617	1	83
508.958	1	89
509.298	1	83
509.639	1	85
509.979	1	89
510.319	1	89
510.660	1	88
511.000	1	89
511.341	1	91
511.681	1	87
512.022	1	81
512.362	1	95
512.702	1	84
513.043	1	96
513.383	1	80
513.724	1	93
514.064	1	101
514.404	1	102
514.745	1	98
515.085	1	99
515.425	1	98
515.766	1	94
516.106	1	88
516.447	1	119
516.787	1	111
517.127	1	110
517.468	1	103
517.808	1	97
518.148	1	105
518.489	1	110
518.829	1	102
519.169	1	95
519.510	1	97
519.850	1	99
520.190	1	107
520.531	1	110
520.871	1	108
521.211	1	118
521.552	1	114
521.892	1	114
522.232	1	107
522.573	1	116
522.913	1	113
523.253	1	120
523.593	1	121
523.934	1	117
524.274	1	112
524.614	1	113
524.955	1	108
525.295	1	113
525.635	1	118
525.975	1	114
526.316	1	107
526.656	1	114
526.996	1	103
527.337	1	121
527.677	1	126
528.017	1	121
528.357	1	125
528.698	1	117
529.038	1	115
529.378	1	125
529.718	1	118
530.058	1	126
530.399	1	133
530.739	1	137
531.079	1	126
531.419	1	127
531.760	1	129
532.100	1	137
532.440	1	123
532.780	1	111
533.120	1	112
533.461	1	119
533.801	1	117
534.141	1	126
534.481	1	132
534.821	1	111
535.162	1	115
535.502	1	114
535.842	1	114
536.182	1	111
536.522	1	104
536.862	1	105
537.203	1	108
537.543	1	111
537.883	1	107
538.223	1	120
538.563	1	98
538.903	1	87
539.243	1	100
539.584	1	104
539.924	1	108
540.264	1	121
540.604	1	100
540.944	1	102
541.284	1	93
541.624	1	102
541.964	1	106
542.305	1	104
542.645	1	98
542.985	1	102
543.325	1	103
543.665	1	104
544.005	1	101
544.345	1	106
544.685	1	93
545.025	1	93
545.365	1	106
545.705	1	116
546.045	1	97
546.386	1	90
546.726	1	105
547.066	1	96
547.406	1	104
547.746	1	102
548.086	1	109
548.426	1	105
548.766	1	107
549.106	1	113
549.446	1	106
549.786	1	113
550.126	1	111
550.466	1	102
550.806	1	107
551.146	1	108
551.486	1	98
551.826	1	96
552.166	1	100
552.506	1	91
552.846	1	99
553.186	1	79
553.526	1	85
553.866	1	81
554.206	1	97
554.546	1	98
554.886	1	94
555.226	1	91
555.566	1	82
555.906	1	82
556.246	1	90
556.586	1	88
556.926	1	95
557.266	1	90
557.606	1	66
557.946	1	84
558.286	1	70
558.626	1	90
558.966	1	81
559.306	1	77
559.646	1	77
559.986	1	79
560.325	1	79
560.665	1	82
561.005	1	70
561.345	1	75
561.685	1	74
562.025	1	87
562.365	1	83
562.705	1	86
563.045	1	72
563.385	1	76
563.725	1	70
564.064	1	70
564.404	1	65
564.744	1	82
565.084	1	68
565.424	1	70
565.764	1	68
566.104	1	67
566.444	1	76
566.783	1	73
567.123	1	61
567.463	1	65
567.803	1	69
568.143	1	77
568.483	1	71
568.823	1	57
569.162	1	55
569.502	1	73
569.842	1	60
570.182	1	54
570.522	1	58
570.862	1	49
571.201	1	70
571.541	1	63
571.881	1	59
572.221	1	57
572.561	1	78
572.900	1	55
573.240	1	60
573.580	1	61
573.920	1	60
574.260	1	55
574.599	1	63
574.939	1	63
575.279	1	53
575.619	1	64
575.959	1	48
576.298	1	53
576.638	1	64
576.978	1	53
577.318	1	49
577.657	1	53
577.997	1	69
578.337	1	54
578.677	1	52
579.016	1	53
579.356	1	52
579.696	1	48
580.036	1	56
580.375	1	49
580.715	1	51
581.055	1	42
581.394	1	57
581.734	1	58
582.074	1	48
582.414	1	50
582.753	1	51
583.093	1	59
583.433	1	53
583.772	1	53
584.112	1	48
584.452	1	56
584.791	1	64
585.131	1	49
585.471	1	56
585.811	1	52
586.150	1	50
586.490	1	45
586.830	1	43
587.169	1	41
587.509	1	50
587.849	1	55
588.188	1	49
588.528	1	34
588.867	1	45
589.207	1	57
589.547	1	49
589.886	1	39
590.226	1	31
590.566	1	40
590.905	1	28
591.245	1	33
591.585	1	36
591.924	1	33
592.264	1	36
592.603	1	31
592.943	1	34
593.283	1	39
593.622	1	31
593.962	1	37
594.301	1	38
594.641	1	41
594.981	1	42
595.320	1	30
595.660	1	31
595.999	1	51
596.339	1	31
596.678	1	29
597.018	1	31
597.358	1	31
597.697	1	28
598.037	1	36
598.376	1	28
598.716	1	41
599.055	1	34
599.395	1	35
599.734	1	43
600.074	1	20
600.413	1	33
600.753	1	40
601.092	1	16
601.432	1	31
601.771	1	39
602.111	1	38
602.451	1	27
602.790	1	38
603.130	1	45
603.469	1	30
603.809	1	37
604.148	1	33
604.487	1	42
604.827	1	33
605.166	1	33
605.506	1	32
605.845	1	38
606.185	1	25
606.524	1	35
606.864	1	47
607.203	1	35
607.543	1	31
607.882	1	32
608.222	1	28
608.561	1	30
608.901	1	38
609.240	1	26
609.579	1	29
609.919	1	26
610.258	1	41
610.598	1	23
610.937	1	25
611.277	1	28
611.616	1	35
611.955	1	23
612.295	1	40
612.634	1	23
612.974	1	32
613.313	1	17
613.652	1	39
613.992	1	26
614.331	1	35
614.671	1	37
615.010	1	32
615.349	1	27
615.689	1	16
616.028	1	32
616.368	1	33
616.707	1	35
617.046	1	21
617.386	1	30
617.725	1	25
618.064	1	13
618.404	1	12
618.743	1	28
619.082	1	45
619.422	1	38
619.761	1	22
620.100	1	21
620.440	1	29
620.779	1	30
621.118	1	31
621.458	1	14
621.797	1	29
622.136	1	23
622.476	1	17
622.815	1	40
623.154	1	14
623.494	1	8
623.833	1	26
624.172	1	22
624.511	1	15
624.851	1	25
625.190	1	21
625.529	1	10
625.869	1	24
626.208	1	13
626.547	1	15
626.886	1	26
627.226	1	24
627.565	1	26
627.904	1	33
628.243	1	26
628.583	1	22
628.922	1	20
629.261	1	17
629.600	1	12
629.940	1	7
630.279	1	35
630.618	1	30
630.957	1	35
631.297	1	23
631.636	1	21
631.975	1	26
632.314	1	14
632.653	1	16
632.993	1	18
633.332	1	27
633.671	1	17
634.010	1	9
634.349	1	25
634.689	1	17
635.028	1	22
635.367	1	24
635.706	1	14
636.045	1	30
636.384	1	30
636.724	1	21
637.063	1	21
637.402	1	22
637.741	1	18
638.080	1	20
638.419	1	27
638.759	1	21
639.098	1	13
639.437	1	23
639.776	1	22
640.115	1	7
640.454	1	4
640.793	1	10
641.132	1	22
641.472	1	30
641.811	1	11
642.150	1	13
642.489	1	32
642.828	1	25
643.167	1	21
643.506	1	15
643.845	1	22
644.184	1	25
644.524	1	12
644.863	1	19
645.202	1	15
645.541	1	18
645.880	1	20
646.219	1	30
646.558	1	12
646.897	1	4
647.236	1	11
647.575	1	22
647.914	1	12
648.253	1	29
648.592	1	19
648.931	1	17
649.270	1	31
649.610	1	28
649.949	1	18
650.288	1	17
650.627	1	6
650.966	1	15
651.305	1	24
651.644	1	28
651.983	1	14
652.322	1	10
652.661	1	19
653.000	1	14
653.339	1	18
653.678	1	26
654.017	1	25
654.356	1	17
654.695	1	17
655.034	1	17
655.373	1	15
655.712	1	26
656.051	1	17
656.390	1	7
656.729	1	14
657.068	1	18
657.406	1	13
657.745	1	29
658.084	1	24
658.423	1	16
658.762	1	8
659.101	1	16
659.440	1	18
659.779	1	17
660.118	1	10
660.457	1	16
660.796	1	15
661.135	1	23
661.474	1	10
661.813	1	16
662.152	1	10
662.491	1	3
662.829	1	17
663.168	1	6
663.507	1	16
663.846	1	8
664.185	1	11
664.524	1	15
664.863	1	3
665.202	1	18
665.541	1	16
665.879	1	7
666.218	1	17
666.557	1	16
666.896	1	16
667.235	1	3
667.574	1	13
667.913	1	17
668.251	1	10
668.590	1	12
668.929	1	13
669.268	1	12
669.607	1	0
669.946	1	20
670.285	1	12
670.623	1	24
670.962	1	11
671.301	1	15
671.640	1	21
671.979	1	5
672.317	1	21
672.656	1	15
672.995	1	15
673.334	1	14
673.673	1	22
674.011	1	25
674.350	1	11
674.689	1	7
675.028	1	23
675.367	1	20
675.705	1	9
676.044	1	18
676.383	1	14
676.722	1	16
677.060	1	18
677.399	1	23
677.738	1	16
678.077	1	9
678.416	1	10
678.754	1	14
679.093	1	14
679.432	1	4
679.771	1	23
680.109	1	23
680.448	1	18
680.787	1	8
681.125	1	10
681.464	1	25
681.803	1	13
682.142	1	21
682.480	1	1
682.819	1	6
683.158	1	9
683.496	1	16
683.835	1	21
684.174	1	12
684.512	1	10
684.851	1	13
685.190	1	15
685.529	1	15
685.867	1	16
686.206	1	8
686.545	1	12
686.883	1	27
687.222	1	16
687.561	1	19
687.899	1	10
688.238	1	26
688.577	1	17
688.746	1	15