File: Data/GaN_150K_450ms/GaN_sample D_spot15_UVVIS_150 K_200um_450 ms 2x2mm1_77.txt
340.368	1	-1
340.710	1	8
341.052	1	5
341.394	1	-8
341.737	1	5
342.079	1	12
342.421	1	2
342.763	1	8
343.105	1	3
343.447	1	2
343.789	1	15
344.131	1	-5
344.473	1	9
344.815	1	10
345.157	1	17
345.499	1	11
345.841	1	12
346.183	1	-2
346.526	1	8
346.868	1	3
347.210	1	0
347.552	1	16
347.894	1	6
348.236	1	10
348.578	1	3
348.920	1	12
349.262	1	5
349.604	1	1
349.946	1	0
350.288	1	4
350.630	1	-5
350.972	1	16
351.314	1	3
351.656	1	17
351.998	1	7
352.340	1	18
352.682	1	-5
353.024	1	21
353.366	1	16
353.708	1	9
354.050	1	2
354.392	1	-3
354.734	1	13
355.076	1	26
355.418	1	8
355.760	1	19
356.102	1	10
356.444	1	23
356.785	1	24
357.127	1	29
357.469	1	23
357.811	1	18
358.153	1	15
358.495	1	20
358.837	1	33
359.179	1	30
359.521	1	30
359.863	1	26
360.205	1	35
360.547	1	44
360.889	1	37
361.231	1	41
361.572	1	46
361.914	1	56
362.256	1	54
362.598	1	73
362.940	1	72
363.282	1	72
363.624	1	74
363.966	1	78
364.308	1	88
364.649	1	95
364.991	1	114
365.333	1	122
365.675	1	142
366.017	1	152
366.359	1	153
366.701	1	163
367.042	1	187
367.384	1	174
367.726	1	191
368.068	1	192
368.410	1	187
368.752	1	198
369.093	1	176
369.435	1	194
369.777	1	176
370.119	1	160
370.461	1	151
370.803	1	139
371.144	1	129
371.486	1	131
371.828	1	121
372.170	1	111
372.512	1	109
372.853	1	107
373.195	1	91
373.537	1	97
373.879	1	89
374.220	1	82
374.562	1	104
374.904	1	73
375.246	1	71
375.588	1	67
375.929	1	70
376.271	1	72
376.613	1	70
376.955	1	69
377.296	1	70
377.638	1	51
377.980	1	52
378.321	1	57
378.663	1	46
379.005	1	44
379.347	1	37
379.688	1	57
380.030	1	38
380.372	1	40
380.714	1	38
381.055	1	34
381.397	1	36
381.739	1	27
382.080	1	38
382.422	1	39
382.764	1	34
383.105	1	36
383.447	1	35
383.789	1	19
384.130	1	31
384.472	1	16
384.814	1	33
385.156	1	37
385.497	1	44
385.839	1	23
386.180	1	22
386.522	1	27
386.864	1	11
387.205	1	20
387.547	1	23
387.889	1	24
388.230	1	25
388.572	1	17
388.914	1	25
389.255	1	15
389.597	1	21
389.939	1	35
390.280	1	14
390.622	1	14
390.963	1	10
391.305	1	14
391.647	1	22
391.988	1	19
392.330	1	17
392.671	1	7
393.013	1	18
393.355	1	33
393.696	1	21
394.038	1	12
394.379	1	17
394.721	1	15
395.062	1	12
395.404	1	19
395.746	1	16
396.087	1	18
396.429	1	20
396.770	1	18
397.112	1	13
397.453	1	13
397.795	1	12
398.136	1	21
398.478	1	23
398.819	1	20
399.161	1	19
399.503	1	23
399.844	1	12
400.186	1	10
400.527	1	25
400.869	1	9
401.210	1	15
401.552	1	17
401.893	1	21
402.235	1	22
402.576	1	20
402.918	1	6
403.259	1	17
403.601	1	20
403.942	1	8
404.284	1	23
404.625	1	12
404.967	1	20
405.308	1	2
405.649	1	16
405.991	1	13
406.332	1	12
406.674	1	12
407.015	1	20
407.357	1	5
407.698	1	23
408.040	1	23
408.381	1	13
408.722	1	17
409.064	1	21
409.405	1	8
409.747	1	7
410.088	1	27
410.430	1	20
410.771	1	15
411.112	1	19
411.454	1	16
411.795	1	14
412.137	1	15
412.478	1	16
412.819	1	20
413.161	1	10
413.502	1	14
413.844	1	11
414.185	1	18
414.526	1	4
414.868	1	7
415.209	1	12
415.550	1	11
415.892	1	25
416.233	1	22
416.575	1	5
416.916	1	15
417.257	1	11
417.599	1	26
417.940	1	4
418.281	1	14
418.623	1	15
418.964	1	28
419.305	1	23
419.647	1	19
419.988	1	23
420.329	1	22
420.671	1	22
421.012	1	21
421.353	1	28
421.695	1	24
422.036	1	21
422.377	1	25
422.718	1	21
423.060	1	22
423.401	1	18
423.742	1	21
424.084	1	24
424.425	1	27
424.766	1	22
425.107	1	22
425.449	1	13
425.790	1	15
426.131	1	9
426.472	1	26
426.814	1	15
427.155	1	24
427.496	1	20
427.837	1	14
428.179	1	31
428.520	1	18
428.861	1	17
429.202	1	9
429.544	1	12
429.885	1	25
430.226	1	8
430.567	1	6
430.909	1	6
431.250	1	12
431.591	1	19
431.932	1	13
432.273	1	8
432.615	1	2
432.956	1	24
433.297	1	15
433.638	1	31
433.979	1	16
434.320	1	4
434.662	1	20
435.003	1	22
435.344	1	17
435.685	1	8
436.026	1	18
436.368	1	11
436.709	1	13
437.050	1	10
437.391	1	15
437.732	1	11
438.073	1	5
438.414	1	26
438.756	1	8
439.097	1	16
439.438	1	10
439.779	1	13
440.120	1	21
440.461	1	18
440.802	1	10
441.143	1	10
441.485	1	21
441.826	1	6
442.167	1	17
442.508	1	10
442.849	1	21
443.190	1	21
443.531	1	11
443.872	1	1
444.213	1	10
444.554	1	23
444.895	1	8
445.237	1	20
445.578	1	17
445.919	1	12
446.260	1	19
446.601	1	17
446.942	1	10
447.283	1	10
447.624	1	7
447.965	1	19
448.306	1	12
448.647	1	9
448.988	1	14
449.329	1	15
449.670	1	11
450.011	1	14
450.352	1	7
450.693	1	16
451.034	1	5
451.375	1	10
451.716	1	15
452.057	1	12
452.398	1	15
452.739	1	12
453.080	1	19
453.421	1	15
453.762	1	14
454.103	1	13
454.444	1	17
454.785	1	16
455.126	1	7
455.467	1	10
455.808	1	20
456.149	1	7
456.490	1	1
456.831	1	7
457.172	1	7
457.513	1	15
457.854	1	7
458.195	1	18
458.536	1	16
458.877	1	14
459.218	1	14
459.559	1	4
459.899	1	2
460.240	1	1
460.581	1	4
460.922	1	12
461.263	1	12
461.604	1	7
461.945	1	14
462.286	1	6
462.627	1	17
462.968	1	12
463.309	1	6
463.649	1	4
463.990	1	9
464.331	1	20
464.672	1	16
465.013	1	8
465.354	1	14
465.695	1	7
466.036	1	23
466.376	1	16
466.717	1	4
467.058	1	15
467.399	1	2
467.740	1	18
468.081	1	14
468.422	1	12
468.762	1	16
469.103	1	12
469.444	1	22
469.785	1	3
470.126	1	18
470.467	1	5
470.807	1	11
471.148	1	5
471.489	1	12
471.830	1	12
472.171	1	13
472.511	1	15
472.852	1	16
473.193	1	11
473.534	1	10
473.875	1	8
474.215	1	12
474.556	1	4
474.897	1	5
475.238	1	18
475.578	1	4
475.919	1	0
476.260	1	1
476.601	1	11
476.942	1	15
477.282	1	7
477.623	1	9
477.964	1	14
478.305	1	15
478.645	1	2
478.986	1	13
479.327	1	19
479.667	1	16
480.008	1	17
480.349	1	3
480.690	1	13
481.030	1	15
481.371	1	14
481.712	1	24
482.053	1	15
482.393	1	13
482.734	1	17
483.075	1	18
483.415	1	15
483.756	1	13
484.097	1	15
484.437	1	13
484.778	1	10
485.119	1	23
485.459	1	8
485.800	1	8
486.141	1	20
486.481	1	7
486.822	1	22
487.163	1	9
487.503	1	17
487.844	1	9
488.185	1	15
488.525	1	14
488.866	1	11
489.207	1	21
489.547	1	16
489.888	1	22
490.228	1	23
490.569	1	15
490.910	1	25
491.250	1	16
491.591	1	21
491.932	1	29
492.272	1	1
492.613	1	11
492.953	1	19
493.294	1	6
493.635	1	21
493.975	1	28
494.316	1	18
494.656	1	19
494.997	1	16
495.337	1	16
495.678	1	16
496.019	1	23
496.359	1	15
496.700	1	26
497.040	1	18
497.381	1	21
497.721	1	15
498.062	1	13
498.403	1	26
498.743	1	23
499.084	1	30
499.424	1	28
499.765	1	22
500.105	1	29
500.446	1	23
500.786	1	27
501.127	1	36
501.467	1	42
501.808	1	39
502.148	1	31
502.489	1	32
502.829	1	27
503.170	1	33
503.510	1	34
503.851	1	51
504.191	1	25
504.532	1	44
504.872	1	28
505.213	1	25
505.553	1	40
505.894	1	45
506.234	1	37
506.575	1	45
506.915	1	35
507.256	1	40
507.596	1	40
507.936	1	42
508.277	1	36
508.617	1	39
508.958	1	38
509.298	1	31
509.639	1	35
509.979	1	42
510.319	1	48
510.660	1	34
511.000	1	38
511.341	1	48
511.681	1	43
512.022	1	33
512.362	1	42
512.702	1	35
513.043	1	34
513.383	1	40
513.724	1	32
514.064	1	40
514.404	1	50
514.745	1	46
515.085	1	35
515.425	1	54
515.766	1	40
516.106	1	40
516.447	1	46
516.787	1	40
517.127	1	53
517.468	1	50
517.808	1	25
518.148	1	45
518.489	1	41
518.829	1	44
519.169	1	40
519.510	1	42
519.850	1	45
520.190	1	52
520.531	1	53
520.871	1	54
521.211	1	51
521.552	1	39
521.892	1	45
522.232	1	48
522.573	1	39
522.913	1	57
523.253	1	58
523.593	1	54
523.934	1	45
524.274	1	49
524.614	1	46
524.955	1	39
525.295	1	52
525.635	1	59
525.975	1	40
526.316	1	41
526.656	1	47
526.996	1	39
527.337	1	45
527.677	1	68
528.017	1	49
528.357	1	52
528.698	1	54
529.038	1	45
529.378	1	45
529.718	1	41
530.058	1	66
530.399	1	46
530.739	1	59
531.079	1	47
531.419	1	58
531.760	1	48
532.100	1	56
532.440	1	53
532.780	1	47
533.120	1	47
533.461	1	40
533.801	1	54
534.141	1	46
534.481	1	56
534.821	1	46
535.162	1	59
535.502	1	46
535.842	1	41
536.182	1	38
536.522	1	49
536.862	1	43
537.203	1	41
537.543	1	47
537.883	1	43
538.223	1	53
538.563	1	35
538.903	1	45
539.243	1	47
539.584	1	48
539.924	1	38
540.264	1	48
540.604	1	48
540.944	1	45
541.284	1	45
541.624	1	39
541.964	1	33
542.305	1	46
542.645	1	42
542.985	1	49
543.325	1	44
543.665	1	40
544.005	1	44
544.345	1	46
544.685	1	42
545.025	1	45
545.365	1	46
545.705	1	40
546.045	1	54
546.386	1	43
546.726	1	39
547.066	1	40
547.406	1	34
547.746	1	42
548.086	1	42
548.426	1	36
548.766	1	43
549.106	1	37
549.446	1	38
549.786	1	45
550.126	1	46
550.466	1	32
550.806	1	47
551.146	1	43
551.486	1	33
551.826	1	27
552.166	1	35
552.506	1	37
552.846	1	39
553.186	1	27
553.526	1	42
553.866	1	42
554.206	1	40
554.546	1	48
554.886	1	44
555.226	1	50
555.566	1	39
555.906	1	24
556.246	1	36
556.586	1	37
556.926	1	41
557.266	1	42
557.606	1	24
557.946	1	39
558.286	1	16
558.626	1	34
558.966	1	31
559.306	1	33
559.646	1	31
559.986	1	41
560.325	1	27
560.665	1	25
561.005	1	32
561.345	1	27
561.685	1	26
562.025	1	37
562.365	1	33
562.705	1	39
563.045	1	27
563.385	1	30
563.725	1	31
564.064	1	13
564.404	1	20
564.744	1	46
565.084	1	34
565.424	1	18
565.764	1	27
566.104	1	36
566.444	1	18
566.783	1	38
567.123	1	21
567.463	1	28
567.803	1	38
568.143	1	32
568.483	1	28
568.823	1	28
569.162	1	22
569.502	1	19
569.842	1	20
570.182	1	30
570.522	1	23
570.862	1	18
571.201	1	28
571.541	1	26
571.881	1	25
572.221	1	22
572.561	1	36
572.900	1	36
573.240	1	12
573.580	1	23
573.920	1	30
574.260	1	27
574.599	1	21
574.939	1	24
575.279	1	28
575.619	1	23
575.959	1	14
576.298	1	13
576.638	1	32
576.978	1	21
577.318	1	23
577.657	1	25
577.997	1	20
578.337	1	19
578.677	1	19
579.016	1	20
579.356	1	26
579.696	1	17
580.036	1	23
580.375	1	19
580.715	1	18
581.055	1	19
581.394	1	19
581.734	1	17
582.074	1	17
582.414	1	22
582.753	1	14
583.093	1	22
583.433	1	21
583.772	1	18
584.112	1	17
584.452	1	22
584.791	1	25
585.131	1	11
585.471	1	8
585.811	1	14
586.150	1	28
586.490	1	18
586.830	1	20
587.169	1	11
587.509	1	15
587.849	1	22
588.188	1	19
588.528	1	18
588.867	1	19
589.207	1	16
589.547	1	18
589.886	1	19
590.226	1	12
590.566	1	14
590.905	1	17
591.245	1	7
591.585	1	17
591.924	1	5
592.264	1	13
592.603	1	7
592.943	1	6
593.283	1	15
593.622	1	10
593.962	1	13
594.301	1	21
594.641	1	14
594.981	1	10
595.320	1	22
595.660	1	16
595.999	1	3
596.339	1	21
596.678	1	-1
597.018	1	13
597.358	1	12
597.697	1	12
598.037	1	8
598.376	1	4
598.716	1	16
599.055	1	16
599.395	1	11
599.734	1	10
600.074	1	6
600.413	1	12
600.753	1	17
601.092	1	8
601.432	1	0
601.771	1	19
602.111	1	9
602.451	1	10
602.790	1	17
603.130	1	14
603.469	1	14
603.809	1	13
604.148	1	8
604.487	1	8
604.827	1	20
605.166	1	9
605.506	1	9
605.845	1	15
606.185	1	6
606.524	1	14
606.864	1	20
607.203	1	21
607.543	1	9
607.882	1	9
608.222	1	12
608.561	1	17
608.901	1	12
609.240	1	14
609.579	1	-1
609.919	1	3
610.258	1	18
610.598	1	17
610.937	1	12
611.277	1	14
611.616	1	18
611.955	1	14
612.295	1	13
612.634	1	13
612.974	1	6
613.313	1	20
613.652	1	23
613.992	1	7
614.331	1	19
614.671	1	19
615.010	1	7
615.349	1	8
615.689	1	5
616.028	1	21
616.368	1	12
616.707	1	7
617.046	1	14
617.386	1	15
617.725	1	9
618.064	1	4
618.404	1	11
618.743	1	3
619.082	1	23
619.422	1	17
619.761	1	3
620.100	1	10
620.440	1	17
620.779	1	18
621.118	1	16
621.458	1	11
621.797	1	13
622.136	1	11
622.476	1	10
622.815	1	7
623.154	1	-6
623.494	1	0
623.833	1	11
624.172	1	13
624.511	1	9
624.851	1	7
625.190	1	-3
625.529	1	4
625.869	1	8
626.208	1	-4
626.547	1	1
626.886	1	10
627.226	1	17
627.565	1	11
627.904	1	5
628.243	1	14
628.583	1	8
628.922	1	12
629.261	1	13
629.600	1	8
629.940	1	6
630.279	1	18
630.618	1	10
630.957	1	17
631.297	1	4
631.636	1	5
631.975	1	5
632.314	1	10
632.653	1	5
632.993	1	20
633.332	1	12
633.671	1	10
634.010	1	9
634.349	1	11
634.689	1	3
635.028	1	3
635.367	1	15
635.706	1	14
636.045	1	6
636.384	1	9
636.724	1	16
637.063	1	1
637.402	1	15
637.741	1	12
638.080	1	7
638.419	1	10
638.759	1	12
639.098	1	9
639.437	1	5
639.776	1	13
640.115	1	-8
640.454	1	8
640.793	1	12
641.132	1	10
641.472	1	10
641.811	1	-6
642.150	1	-3
642.489	1	10
642.828	1	22
643.167	1	11
643.506	1	6
643.845	1	16
644.184	1	15
644.524	1	3
644.863	1	11
645.202	1	6
645.541	1	13
645.880	1	17
646.219	1	11
646.558	1	-5
646.897	1	-2
647.236	1	-3
647.575	1	16
647.914	1	18
648.253	1	9
648.592	1	12
648.931	1	12
649.270	1	17
649.610	1	15
649.949	1	3
650.288	1	11
650.627	1	4
650.966	1	16
651.305	1	15
651.644	1	13
651.983	1	-2
652.322	1	14
652.661	1	10
653.000	1	2
653.339	1	1
653.678	1	17
654.017	1	8
654.356	1	19
654.695	1	15
655.034	1	10
655.373	1	10
655.712	1	11
656.051	1	6
656.390	1	3
656.729	1	13
657.068	1	-3
657.406	1	8
657.745	1	20
658.084	1	12
658.423	1	15
658.762	1	-2
659.101	1	8
659.440	1	11
659.779	1	16
660.118	1	9
660.457	1	13
660.796	1	17
661.135	1	12
661.474	1	12
661.813	1	8
662.152	1	7
662.491	1	3
662.829	1	5
663.168	1	2
663.507	1	12
663.846	1	7
664.185	1	7
664.524	1	9
664.863	1	-3
665.202	1	20
665.541	1	16
665.879	1	13
666.218	1	10
666.557	1	1
666.896	1	7
667.235	1	-5
667.574	1	-3
667.913	1	9
668.251	1	5
668.590	1	-4
668.929	1	8
669.268	1	1
669.607	1	-4
669.946	1	6
670.285	1	0
670.623	1	10
670.962	1	-8
671.301	1	12
671.640	1	12
671.979	1	6
672.317	1	9
672.656	1	18
672.995	1	6
673.334	1	0
673.673	1	26
674.011	1	14
674.350	1	9
674.689	1	-1
675.028	1	10
675.367	1	10
675.705	1	-4
676.044	1	-2
676.383	1	1
676.722	1	8
677.060	1	8
677.399	1	19
677.738	1	1
678.077	1	0
678.416	1	9
678.754	1	4
679.093	1	11
679.432	1	4
679.771	1	7
680.109	1	10
680.448	1	-6
680.787	1	-10
681.125	1	2
681.464	1	7
681.803	1	8
682.142	1	10
682.480	1	-3
682.819	1	7
683.158	1	2
683.496	1	8
683.835	1	7
684.174	1	4
684.512	1	5
684.851	1	5
685.190	1	9
685.529	1	1
685.867	1	14
686.206	1	7
686.545	1	9
686.883	1	20
687.222	1	8
687.561	1	6
687.899	1	10
688.238	1	12
688.577	1	8
688.746	1	5