File: Data/GaN_150K_450ms/GaN_sample D_spot15_UVVIS_150 K_200um_450 ms 2x2mm1_173.txt
340.368	1	7
340.710	1	2
341.052	1	15
341.394	1	-8
341.737	1	9
342.079	1	-1
342.421	1	0
342.763	1	6
343.105	1	8
343.447	1	4
343.789	1	10
344.131	1	-6
344.473	1	10
344.815	1	5
345.157	1	16
345.499	1	9
345.841	1	3
346.183	1	0
346.526	1	8
346.868	1	6
347.210	1	-2
347.552	1	13
347.894	1	2
348.236	1	1
348.578	1	6
348.920	1	5
349.262	1	8
349.604	1	1
349.946	1	6
350.288	1	-3
350.630	1	-7
350.972	1	11
351.314	1	2
351.656	1	3
351.998	1	5
352.340	1	7
352.682	1	-3
353.024	1	11
353.366	1	-8
353.708	1	4
354.050	1	5
354.392	1	-6
354.734	1	7
355.076	1	13
355.418	1	3
355.760	1	10
356.102	1	7
356.444	1	14
356.785	1	2
357.127	1	11
357.469	1	5
357.811	1	8
358.153	1	-6
358.495	1	-4
358.837	1	17
359.179	1	3
359.521	1	18
359.863	1	-5
360.205	1	15
360.547	1	9
360.889	1	12
361.231	1	19
361.572	1	10
361.914	1	12
362.256	1	16
362.598	1	16
362.940	1	16
363.282	1	11
363.624	1	17
363.966	1	5
364.308	1	21
364.649	1	21
364.991	1	18
365.333	1	18
365.675	1	26
366.017	1	27
366.359	1	24
366.701	1	23
367.042	1	32
367.384	1	21
367.726	1	28
368.068	1	38
368.410	1	23
368.752	1	45
369.093	1	33
369.435	1	30
369.777	1	44
370.119	1	33
370.461	1	35
370.803	1	24
371.144	1	29
371.486	1	31
371.828	1	19
372.170	1	17
372.512	1	19
372.853	1	35
373.195	1	15
373.537	1	11
373.879	1	19
374.220	1	17
374.562	1	21
374.904	1	11
375.246	1	12
375.588	1	-1
375.929	1	10
376.271	1	12
376.613	1	14
376.955	1	14
377.296	1	14
377.638	1	12
377.980	1	7
378.321	1	29
378.663	1	8
379.005	1	15
379.347	1	5
379.688	1	18
380.030	1	15
380.372	1	18
380.714	1	18
381.055	1	5
381.397	1	4
381.739	1	3
382.080	1	5
382.422	1	6
382.764	1	14
383.105	1	2
383.447	1	7
383.789	1	-2
384.130	1	7
384.472	1	5
384.814	1	4
385.156	1	0
385.497	1	15
385.839	1	2
386.180	1	2
386.522	1	9
386.864	1	1
387.205	1	17
387.547	1	7
387.889	1	6
388.230	1	9
388.572	1	4
388.914	1	18
389.255	1	9
389.597	1	5
389.939	1	11
390.280	1	-5
390.622	1	9
390.963	1	-4
391.305	1	4
391.647	1	4
391.988	1	5
392.330	1	2
392.671	1	6
393.013	1	5
393.355	1	12
393.696	1	6
394.038	1	9
394.379	1	15
394.721	1	4
395.062	1	3
395.404	1	5
395.746	1	-1
396.087	1	2
396.429	1	9
396.770	1	5
397.112	1	4
397.453	1	3
397.795	1	0
398.136	1	0
398.478	1	9
398.819	1	8
399.161	1	16
399.503	1	3
399.844	1	0
400.186	1	2
400.527	1	19
400.869	1	3
401.210	1	-1
401.552	1	5
401.893	1	10
402.235	1	12
402.576	1	5
402.918	1	4
403.259	1	9
403.601	1	11
403.942	1	6
404.284	1	10
404.625	1	0
404.967	1	7
405.308	1	-1
405.649	1	3
405.991	1	5
406.332	1	2
406.674	1	11
407.015	1	20
407.357	1	13
407.698	1	6
408.040	1	14
408.381	1	-1
408.722	1	10
409.064	1	10
409.405	1	6
409.747	1	2
410.088	1	19
410.430	1	10
410.771	1	11
411.112	1	5
411.454	1	10
411.795	1	10
412.137	1	6
412.478	1	9
412.819	1	7
413.161	1	3
413.502	1	14
413.844	1	18
414.185	1	0
414.526	1	-3
414.868	1	-4
415.209	1	0
415.550	1	4
415.892	1	0
416.233	1	6
416.575	1	-5
416.916	1	8
417.257	1	-7
417.599	1	14
417.940	1	-7
418.281	1	9
418.623	1	5
418.964	1	17
419.305	1	6
419.647	1	9
419.988	1	15
420.329	1	9
420.671	1	24
421.012	1	10
421.353	1	13
421.695	1	16
422.036	1	19
422.377	1	7
422.718	1	2
423.060	1	13
423.401	1	0
423.742	1	15
424.084	1	1
424.425	1	20
424.766	1	4
425.107	1	-5
425.449	1	12
425.790	1	10
426.131	1	0
426.472	1	6
426.814	1	3
427.155	1	5
427.496	1	7
427.837	1	2
428.179	1	9
428.520	1	7
428.861	1	10
429.202	1	-2
429.544	1	6
429.885	1	11
430.226	1	-5
430.567	1	3
430.909	1	-2
431.250	1	9
431.591	1	17
431.932	1	0
432.273	1	14
432.615	1	6
432.956	1	19
433.297	1	3
433.638	1	18
433.979	1	2
434.320	1	7
434.662	1	3
435.003	1	12
435.344	1	5
435.685	1	4
436.026	1	7
436.368	1	3
436.709	1	3
437.050	1	4
437.391	1	10
437.732	1	8
438.073	1	4
438.414	1	13
438.756	1	11
439.097	1	7
439.438	1	5
439.779	1	4
440.120	1	6
440.461	1	9
440.802	1	11
441.143	1	6
441.485	1	9
441.826	1	12
442.167	1	11
442.508	1	1
442.849	1	8
443.190	1	10
443.531	1	7
443.872	1	-4
444.213	1	-10
444.554	1	8
444.895	1	-4
445.237	1	7
445.578	1	-2
445.919	1	-3
446.260	1	10
446.601	1	8
446.942	1	3
447.283	1	16
447.624	1	-8
447.965	1	11
448.306	1	13
448.647	1	2
448.988	1	0
449.329	1	13
449.670	1	0
450.011	1	2
450.352	1	6
450.693	1	12
451.034	1	-1
451.375	1	1
451.716	1	-1
452.057	1	10
452.398	1	11
452.739	1	13
453.080	1	13
453.421	1	11
453.762	1	3
454.103	1	6
454.444	1	9
454.785	1	13
455.126	1	-4
455.467	1	7
455.808	1	14
456.149	1	0
456.490	1	-7
456.831	1	5
457.172	1	2
457.513	1	7
457.854	1	9
458.195	1	12
458.536	1	12
458.877	1	3
459.218	1	6
459.559	1	4
459.899	1	7
460.240	1	0
460.581	1	0
460.922	1	2
461.263	1	11
461.604	1	9
461.945	1	2
462.286	1	5
462.627	1	15
462.968	1	9
463.309	1	9
463.649	1	8
463.990	1	0
464.331	1	5
464.672	1	9
465.013	1	12
465.354	1	12
465.695	1	6
466.036	1	11
466.376	1	8
466.717	1	-17
467.058	1	1
467.399	1	-4
467.740	1	13
468.081	1	8
468.422	1	-1
468.762	1	9
469.103	1	9
469.444	1	7
469.785	1	0
470.126	1	10
470.467	1	3
470.807	1	13
471.148	1	4
471.489	1	7
471.830	1	2
472.171	1	7
472.511	1	5
472.852	1	6
473.193	1	4
473.534	1	-1
473.875	1	6
474.215	1	-1
474.556	1	2
474.897	1	-7
475.238	1	4
475.578	1	-5
475.919	1	8
476.260	1	7
476.601	1	3
476.942	1	5
477.282	1	-6
477.623	1	1
477.964	1	16
478.305	1	13
478.645	1	0
478.986	1	9
479.327	1	6
479.667	1	16
480.008	1	-6
480.349	1	0
480.690	1	8
481.030	1	-7
481.371	1	-1
481.712	1	14
482.053	1	11
482.393	1	6
482.734	1	3
483.075	1	-2
483.415	1	6
483.756	1	4
484.097	1	0
484.437	1	6
484.778	1	-3
485.119	1	4
485.459	1	-1
485.800	1	-6
486.141	1	11
486.481	1	-15
486.822	1	17
487.163	1	-8
487.503	1	4
487.844	1	4
488.185	1	9
488.525	1	-3
488.866	1	-3
489.207	1	7
489.547	1	0
489.888	1	13
490.228	1	10
490.569	1	0
490.910	1	17
491.250	1	11
491.591	1	-3
491.932	1	12
492.272	1	0
492.613	1	9
492.953	1	10
493.294	1	-3
493.635	1	3
493.975	1	14
494.316	1	4
494.656	1	5
494.997	1	-10
495.337	1	-2
495.678	1	-2
496.019	1	-1
496.359	1	0
496.700	1	3
497.040	1	-1
497.381	1	4
497.721	1	2
498.062	1	6
498.403	1	7
498.743	1	14
499.084	1	9
499.424	1	1
499.765	1	6
500.105	1	8
500.446	1	6
500.786	1	8
501.127	1	7
501.467	1	10
501.808	1	3
502.148	1	-11
502.489	1	6
502.829	1	0
503.170	1	3
503.510	1	10
503.851	1	12
504.191	1	5
504.532	1	11
504.872	1	2
505.213	1	8
505.553	1	14
505.894	1	7
506.234	1	7
506.575	1	12
506.915	1	12
507.256	1	17
507.596	1	9
507.936	1	14
508.277	1	15
508.617	1	10
508.958	1	13
509.298	1	6
509.639	1	2
509.979	1	8
510.319	1	15
510.660	1	3
511.000	1	9
511.341	1	15
511.681	1	6
512.022	1	-2
512.362	1	12
512.702	1	-2
513.043	1	18
513.383	1	5
513.724	1	-2
514.064	1	13
514.404	1	14
514.745	1	6
515.085	1	14
515.425	1	13
515.766	1	0
516.106	1	4
516.447	1	11
516.787	1	3
517.127	1	3
517.468	1	16
517.808	1	-2
518.148	1	18
518.489	1	-2
518.829	1	15
519.169	1	4
519.510	1	-10
519.850	1	2
520.190	1	-1
520.531	1	9
520.871	1	7
521.211	1	4
521.552	1	-2
521.892	1	5
522.232	1	5
522.573	1	15
522.913	1	6
523.253	1	8
523.593	1	13
523.934	1	14
524.274	1	7
524.614	1	11
524.955	1	0
525.295	1	18
525.635	1	3
525.975	1	0
526.316	1	1
526.656	1	4
526.996	1	2
527.337	1	3
527.677	1	12
528.017	1	0
528.357	1	6
528.698	1	19
529.038	1	5
529.378	1	12
529.718	1	9
530.058	1	10
530.399	1	7
530.739	1	11
531.079	1	2
531.419	1	9
531.760	1	17
532.100	1	21
532.440	1	8
532.780	1	7
533.120	1	9
533.461	1	-6
533.801	1	12
534.141	1	8
534.481	1	22
534.821	1	17
535.162	1	14
535.502	1	18
535.842	1	2
536.182	1	-6
536.522	1	9
536.862	1	3
537.203	1	2
537.543	1	11
537.883	1	12
538.223	1	25
538.563	1	5
538.903	1	-6
539.243	1	5
539.584	1	0
539.924	1	-1
540.264	1	24
540.604	1	12
540.944	1	14
541.284	1	-1
541.624	1	6
541.964	1	-1
542.305	1	19
542.645	1	1
542.985	1	-5
543.325	1	6
543.665	1	8
544.005	1	-9
544.345	1	14
544.685	1	11
545.025	1	17
545.365	1	8
545.705	1	7
546.045	1	11
546.386	1	2
546.726	1	1
547.066	1	4
547.406	1	-4
547.746	1	12
548.086	1	11
548.426	1	1
548.766	1	20
549.106	1	10
549.446	1	11
549.786	1	17
550.126	1	15
550.466	1	8
550.806	1	13
551.146	1	9
551.486	1	2
551.826	1	6
552.166	1	10
552.506	1	12
552.846	1	6
553.186	1	3
553.526	1	5
553.866	1	2
554.206	1	14
554.546	1	12
554.886	1	2
555.226	1	9
555.566	1	6
555.906	1	5
556.246	1	1
556.586	1	5
556.926	1	-4
557.266	1	16
557.606	1	-1
557.946	1	10
558.286	1	-4
558.626	1	11
558.966	1	9
559.306	1	20
559.646	1	11
559.986	1	13
560.325	1	4
560.665	1	5
561.005	1	10
561.345	1	6
561.685	1	11
562.025	1	9
562.365	1	3
562.705	1	10
563.045	1	5
563.385	1	20
563.725	1	5
564.064	1	0
564.404	1	4
564.744	1	10
565.084	1	5
565.424	1	3
565.764	1	17
566.104	1	9
566.444	1	18
566.783	1	12
567.123	1	0
567.463	1	2
567.803	1	18
568.143	1	9
568.483	1	13
568.823	1	2
569.162	1	4
569.502	1	6
569.842	1	9
570.182	1	6
570.522	1	2
570.862	1	4
571.201	1	13
571.541	1	3
571.881	1	4
572.221	1	5
572.561	1	12
572.900	1	11
573.240	1	-2
573.580	1	8
573.920	1	20
574.260	1	8
574.599	1	13
574.939	1	-1
575.279	1	5
575.619	1	-5
575.959	1	0
576.298	1	-3
576.638	1	16
576.978	1	7
577.318	1	6
577.657	1	-4
577.997	1	13
578.337	1	-1
578.677	1	1
579.016	1	4
579.356	1	3
579.696	1	-1
580.036	1	5
580.375	1	9
580.715	1	9
581.055	1	3
581.394	1	-4
581.734	1	4
582.074	1	3
582.414	1	4
582.753	1	3
583.093	1	4
583.433	1	16
583.772	1	13
584.112	1	1
584.452	1	9
584.791	1	11
585.131	1	6
585.471	1	6
585.811	1	9
586.150	1	6
586.490	1	-1
586.830	1	10
587.169	1	2
587.509	1	4
587.849	1	12
588.188	1	8
588.528	1	-6
588.867	1	5
589.207	1	6
589.547	1	12
589.886	1	4
590.226	1	0
590.566	1	4
590.905	1	-4
591.245	1	-3
591.585	1	-1
591.924	1	-1
592.264	1	0
592.603	1	-7
592.943	1	-3
593.283	1	-2
593.622	1	-2
593.962	1	4
594.301	1	-1
594.641	1	4
594.981	1	9
595.320	1	5
595.660	1	11
595.999	1	7
596.339	1	-3
596.678	1	-4
597.018	1	-4
597.358	1	6
597.697	1	-3
598.037	1	0
598.376	1	6
598.716	1	4
599.055	1	7
599.395	1	-1
599.734	1	10
600.074	1	-6
600.413	1	-1
600.753	1	11
601.092	1	1
601.432	1	-2
601.771	1	12
602.111	1	8
602.451	1	-4
602.790	1	4
603.130	1	4
603.469	1	0
603.809	1	7
604.148	1	-7
604.487	1	7
604.827	1	6
605.166	1	3
605.506	1	-5
605.845	1	5
606.185	1	0
606.524	1	1
606.864	1	20
607.203	1	5
607.543	1	5
607.882	1	6
608.222	1	6
608.561	1	8
608.901	1	8
609.240	1	8
609.579	1	2
609.919	1	-4
610.258	1	11
610.598	1	0
610.937	1	3
611.277	1	11
611.616	1	11
611.955	1	-10
612.295	1	6
612.634	1	15
612.974	1	3
613.313	1	6
613.652	1	1
613.992	1	3
614.331	1	15
614.671	1	5
615.010	1	12
615.349	1	2
615.689	1	-3
616.028	1	21
616.368	1	15
616.707	1	6
617.046	1	-2
617.386	1	7
617.725	1	-6
618.064	1	-7
618.404	1	1
618.743	1	9
619.082	1	13
619.422	1	11
619.761	1	-1
620.100	1	16
620.440	1	2
620.779	1	5
621.118	1	12
621.458	1	5
621.797	1	-3
622.136	1	-4
622.476	1	5
622.815	1	-2
623.154	1	-2
623.494	1	-6
623.833	1	8
624.172	1	7
624.511	1	-3
624.851	1	7
625.190	1	5
625.529	1	4
625.869	1	15
626.208	1	-8
626.547	1	1
626.886	1	5
627.226	1	6
627.565	1	11
627.904	1	-1
628.243	1	8
628.583	1	10
628.922	1	7
629.261	1	8
629.600	1	-3
629.940	1	7
630.279	1	13
630.618	1	12
630.957	1	-1
631.297	1	11
631.636	1	5
631.975	1	10
632.314	1	1
632.653	1	3
632.993	1	-5
633.332	1	3
633.671	1	9
634.010	1	7
634.349	1	15
634.689	1	1
635.028	1	-3
635.367	1	15
635.706	1	3
636.045	1	-2
636.384	1	9
636.724	1	-4
637.063	1	-5
637.402	1	5
637.741	1	8
638.080	1	3
638.419	1	-1
638.759	1	8
639.098	1	10
639.437	1	1
639.776	1	6
640.115	1	-8
640.454	1	-6
640.793	1	6
641.132	1	4
641.472	1	12
641.811	1	-8
642.150	1	-1
642.489	1	11
642.828	1	17
643.167	1	8
643.506	1	12
643.845	1	5
644.184	1	10
644.524	1	1
644.863	1	3
645.202	1	5
645.541	1	3
645.880	1	7
646.219	1	8
646.558	1	-3
646.897	1	-3
647.236	1	-6
647.575	1	12
647.914	1	4
648.253	1	13
648.592	1	10
648.931	1	12
649.270	1	7
649.610	1	6
649.949	1	4
650.288	1	7
650.627	1	0
650.966	1	0
651.305	1	8
651.644	1	18
651.983	1	2
652.322	1	4
652.661	1	5
653.000	1	12
653.339	1	-2
653.678	1	13
654.017	1	11
654.356	1	6
654.695	1	19
655.034	1	-3
655.373	1	-1
655.712	1	11
656.051	1	-5
656.390	1	1
656.729	1	10
657.068	1	4
657.406	1	3
657.745	1	9
658.084	1	8
658.423	1	0
658.762	1	-5
659.101	1	9
659.440	1	11
659.779	1	17
660.118	1	7
660.457	1	1
660.796	1	7
661.135	1	13
661.474	1	3
661.813	1	2
662.152	1	6
662.491	1	-2
662.829	1	-1
663.168	1	-3
663.507	1	9
663.846	1	7
664.185	1	1
664.524	1	7
664.863	1	-6
665.202	1	4
665.541	1	4
665.879	1	14
666.218	1	5
666.557	1	-5
666.896	1	9
667.235	1	3
667.574	1	-1
667.913	1	11
668.251	1	-9
668.590	1	9
668.929	1	-3
669.268	1	-2
669.607	1	-9
669.946	1	6
670.285	1	-3
670.623	1	3
670.962	1	-11
671.301	1	-6
671.640	1	2
671.979	1	10
672.317	1	2
672.656	1	1
672.995	1	1
673.334	1	2
673.673	1	17
674.011	1	5
674.350	1	-1
674.689	1	-6
675.028	1	4
675.367	1	7
675.705	1	-12
676.044	1	4
676.383	1	1
676.722	1	1
677.060	1	4
677.399	1	13
677.738	1	-3
678.077	1	1
678.416	1	-2
678.754	1	5
679.093	1	13
679.432	1	-3
679.771	1	0
680.109	1	0
680.448	1	-7
680.787	1	-3
681.125	1	-2
681.464	1	13
681.803	1	-5
682.142	1	2
682.480	1	1
682.819	1	3
683.158	1	-5
683.496	1	6
683.835	1	9
684.174	1	3
684.512	1	0
684.851	1	-4
685.190	1	-3
685.529	1	2
685.867	1	2
686.206	1	1
686.545	1	6
686.883	1	18
687.222	1	-1
687.561	1	-5
687.899	1	3
688.238	1	8
688.577	1	2
688.746	1	8