File: Data/GaN_150K_450ms/GaN_sample D_spot15_UVVIS_150 K_200um_450 ms 2x2mm1_122.txt
340.368	1	12
340.710	1	4
341.052	1	3
341.394	1	-3
341.737	1	8
342.079	1	5
342.421	1	7
342.763	1	6
343.105	1	2
343.447	1	6
343.789	1	5
344.131	1	-1
344.473	1	3
344.815	1	6
345.157	1	9
345.499	1	10
345.841	1	4
346.183	1	6
346.526	1	10
346.868	1	-1
347.210	1	5
347.552	1	19
347.894	1	4
348.236	1	10
348.578	1	10
348.920	1	-2
349.262	1	11
349.604	1	1
349.946	1	-4
350.288	1	6
350.630	1	-1
350.972	1	14
351.314	1	-1
351.656	1	11
351.998	1	3
352.340	1	12
352.682	1	-2
353.024	1	11
353.366	1	3
353.708	1	6
354.050	1	3
354.392	1	0
354.734	1	4
355.076	1	7
355.418	1	-2
355.760	1	5
356.102	1	6
356.444	1	18
356.785	1	13
357.127	1	14
357.469	1	13
357.811	1	11
358.153	1	0
358.495	1	14
358.837	1	15
359.179	1	15
359.521	1	26
359.863	1	18
360.205	1	24
360.547	1	27
360.889	1	17
361.231	1	14
361.572	1	17
361.914	1	25
362.256	1	19
362.598	1	32
362.940	1	25
363.282	1	17
363.624	1	33
363.966	1	23
364.308	1	41
364.649	1	42
364.991	1	52
365.333	1	42
365.675	1	58
366.017	1	52
366.359	1	49
366.701	1	54
367.042	1	57
367.384	1	54
367.726	1	60
368.068	1	68
368.410	1	71
368.752	1	85
369.093	1	66
369.435	1	53
369.777	1	66
370.119	1	55
370.461	1	48
370.803	1	52
371.144	1	51
371.486	1	55
371.828	1	48
372.170	1	45
372.512	1	36
372.853	1	54
373.195	1	35
373.537	1	28
373.879	1	34
374.220	1	45
374.562	1	49
374.904	1	32
375.246	1	26
375.588	1	19
375.929	1	24
376.271	1	28
376.613	1	28
376.955	1	17
377.296	1	35
377.638	1	26
377.980	1	18
378.321	1	21
378.663	1	24
379.005	1	15
379.347	1	20
379.688	1	25
380.030	1	21
380.372	1	20
380.714	1	20
381.055	1	18
381.397	1	17
381.739	1	8
382.080	1	8
382.422	1	24
382.764	1	22
383.105	1	18
383.447	1	16
383.789	1	10
384.130	1	13
384.472	1	14
384.814	1	18
385.156	1	12
385.497	1	18
385.839	1	14
386.180	1	15
386.522	1	14
386.864	1	11
387.205	1	12
387.547	1	15
387.889	1	13
388.230	1	12
388.572	1	8
388.914	1	20
389.255	1	0
389.597	1	3
389.939	1	25
390.280	1	2
390.622	1	8
390.963	1	10
391.305	1	11
391.647	1	12
391.988	1	9
392.330	1	13
392.671	1	15
393.013	1	11
393.355	1	13
393.696	1	11
394.038	1	13
394.379	1	11
394.721	1	11
395.062	1	0
395.404	1	10
395.746	1	2
396.087	1	13
396.429	1	11
396.770	1	9
397.112	1	5
397.453	1	4
397.795	1	3
398.136	1	7
398.478	1	5
398.819	1	16
399.161	1	16
399.503	1	18
399.844	1	2
400.186	1	7
400.527	1	9
400.869	1	7
401.210	1	8
401.552	1	15
401.893	1	8
402.235	1	13
402.576	1	8
402.918	1	7
403.259	1	15
403.601	1	18
403.942	1	10
404.284	1	17
404.625	1	7
404.967	1	6
405.308	1	10
405.649	1	14
405.991	1	13
406.332	1	6
406.674	1	4
407.015	1	8
407.357	1	11
407.698	1	17
408.040	1	11
408.381	1	8
408.722	1	14
409.064	1	16
409.405	1	6
409.747	1	10
410.088	1	17
410.430	1	16
410.771	1	14
411.112	1	7
411.454	1	13
411.795	1	6
412.137	1	12
412.478	1	13
412.819	1	14
413.161	1	14
413.502	1	12
413.844	1	15
414.185	1	17
414.526	1	-1
414.868	1	1
415.209	1	9
415.550	1	16
415.892	1	23
416.233	1	12
416.575	1	2
416.916	1	10
417.257	1	11
417.599	1	5
417.940	1	8
418.281	1	20
418.623	1	8
418.964	1	26
419.305	1	18
419.647	1	10
419.988	1	24
420.329	1	12
420.671	1	26
421.012	1	3
421.353	1	16
421.695	1	21
422.036	1	20
422.377	1	11
422.718	1	23
423.060	1	11
423.401	1	9
423.742	1	17
424.084	1	7
424.425	1	19
424.766	1	14
425.107	1	6
425.449	1	10
425.790	1	15
426.131	1	13
426.472	1	13
426.814	1	19
427.155	1	9
427.496	1	14
427.837	1	8
428.179	1	20
428.520	1	18
428.861	1	19
429.202	1	-1
429.544	1	8
429.885	1	10
430.226	1	4
430.567	1	4
430.909	1	6
431.250	1	17
431.591	1	14
431.932	1	11
432.273	1	23
432.615	1	9
432.956	1	16
433.297	1	5
433.638	1	27
433.979	1	14
434.320	1	7
434.662	1	22
435.003	1	30
435.344	1	11
435.685	1	5
436.026	1	6
436.368	1	2
436.709	1	1
437.050	1	8
437.391	1	14
437.732	1	5
438.073	1	9
438.414	1	14
438.756	1	10
439.097	1	13
439.438	1	7
439.779	1	16
440.120	1	15
440.461	1	8
440.802	1	16
441.143	1	19
441.485	1	12
441.826	1	12
442.167	1	7
442.508	1	8
442.849	1	20
443.190	1	2
443.531	1	10
443.872	1	-3
444.213	1	-5
444.554	1	10
444.895	1	6
445.237	1	14
445.578	1	0
445.919	1	14
446.260	1	26
446.601	1	10
446.942	1	4
447.283	1	16
447.624	1	2
447.965	1	5
448.306	1	4
448.647	1	6
448.988	1	6
449.329	1	17
449.670	1	8
450.011	1	13
450.352	1	5
450.693	1	18
451.034	1	6
451.375	1	2
451.716	1	4
452.057	1	11
452.398	1	15
452.739	1	5
453.080	1	13
453.421	1	14
453.762	1	5
454.103	1	4
454.444	1	4
454.785	1	8
455.126	1	13
455.467	1	9
455.808	1	15
456.149	1	3
456.490	1	12
456.831	1	7
457.172	1	9
457.513	1	9
457.854	1	6
458.195	1	7
458.536	1	6
458.877	1	8
459.218	1	20
459.559	1	9
459.899	1	5
460.240	1	7
460.581	1	-3
460.922	1	10
461.263	1	16
461.604	1	9
461.945	1	20
462.286	1	7
462.627	1	5
462.968	1	5
463.309	1	7
463.649	1	3
463.990	1	7
464.331	1	8
464.672	1	17
465.013	1	4
465.354	1	22
465.695	1	13
466.036	1	16
466.376	1	3
466.717	1	2
467.058	1	9
467.399	1	0
467.740	1	17
468.081	1	13
468.422	1	11
468.762	1	16
469.103	1	2
469.444	1	9
469.785	1	7
470.126	1	5
470.467	1	0
470.807	1	0
471.148	1	4
471.489	1	20
471.830	1	2
472.171	1	12
472.511	1	5
472.852	1	5
473.193	1	12
473.534	1	6
473.875	1	2
474.215	1	7
474.556	1	2
474.897	1	-4
475.238	1	9
475.578	1	6
475.919	1	2
476.260	1	8
476.601	1	8
476.942	1	2
477.282	1	4
477.623	1	0
477.964	1	6
478.305	1	14
478.645	1	15
478.986	1	6
479.327	1	7
479.667	1	0
480.008	1	8
480.349	1	-5
480.690	1	14
481.030	1	1
481.371	1	2
481.712	1	18
482.053	1	14
482.393	1	2
482.734	1	6
483.075	1	4
483.415	1	8
483.756	1	12
484.097	1	11
484.437	1	14
484.778	1	2
485.119	1	7
485.459	1	-3
485.800	1	-5
486.141	1	16
486.481	1	-8
486.822	1	7
487.163	1	0
487.503	1	9
487.844	1	0
488.185	1	9
488.525	1	-3
488.866	1	-4
489.207	1	6
489.547	1	4
489.888	1	11
490.228	1	6
490.569	1	-8
490.910	1	17
491.250	1	8
491.591	1	5
491.932	1	11
492.272	1	2
492.613	1	2
492.953	1	9
493.294	1	0
493.635	1	8
493.975	1	22
494.316	1	13
494.656	1	10
494.997	1	-1
495.337	1	6
495.678	1	3
496.019	1	6
496.359	1	11
496.700	1	8
497.040	1	4
497.381	1	9
497.721	1	9
498.062	1	14
498.403	1	19
498.743	1	8
499.084	1	11
499.424	1	0
499.765	1	9
500.105	1	23
500.446	1	8
500.786	1	3
501.127	1	16
501.467	1	18
501.808	1	5
502.148	1	6
502.489	1	9
502.829	1	9
503.170	1	16
503.510	1	3
503.851	1	12
504.191	1	11
504.532	1	25
504.872	1	11
505.213	1	3
505.553	1	8
505.894	1	9
506.234	1	10
506.575	1	21
506.915	1	16
507.256	1	16
507.596	1	18
507.936	1	18
508.277	1	15
508.617	1	19
508.958	1	18
509.298	1	7
509.639	1	12
509.979	1	0
510.319	1	16
510.660	1	4
511.000	1	11
511.341	1	18
511.681	1	14
512.022	1	4
512.362	1	19
512.702	1	-5
513.043	1	15
513.383	1	11
513.724	1	15
514.064	1	6
514.404	1	15
514.745	1	6
515.085	1	19
515.425	1	15
515.766	1	15
516.106	1	9
516.447	1	15
516.787	1	23
517.127	1	19
517.468	1	21
517.808	1	6
518.148	1	26
518.489	1	15
518.829	1	20
519.169	1	9
519.510	1	8
519.850	1	21
520.190	1	18
520.531	1	17
520.871	1	19
521.211	1	20
521.552	1	11
521.892	1	16
522.232	1	21
522.573	1	18
522.913	1	16
523.253	1	23
523.593	1	18
523.934	1	16
524.274	1	21
524.614	1	18
524.955	1	17
525.295	1	15
525.635	1	17
525.975	1	10
526.316	1	7
526.656	1	25
526.996	1	19
527.337	1	18
527.677	1	24
528.017	1	17
528.357	1	26
528.698	1	21
529.038	1	19
529.378	1	15
529.718	1	14
530.058	1	20
530.399	1	15
530.739	1	7
531.079	1	12
531.419	1	16
531.760	1	33
532.100	1	22
532.440	1	16
532.780	1	25
533.120	1	14
533.461	1	16
533.801	1	14
534.141	1	14
534.481	1	36
534.821	1	11
535.162	1	17
535.502	1	9
535.842	1	15
536.182	1	8
536.522	1	14
536.862	1	20
537.203	1	14
537.543	1	23
537.883	1	10
538.223	1	33
538.563	1	16
538.903	1	11
539.243	1	8
539.584	1	15
539.924	1	10
540.264	1	22
540.604	1	16
540.944	1	12
541.284	1	14
541.624	1	22
541.964	1	19
542.305	1	20
542.645	1	15
542.985	1	5
543.325	1	19
543.665	1	9
544.005	1	6
544.345	1	15
544.685	1	7
545.025	1	14
545.365	1	14
545.705	1	12
546.045	1	20
546.386	1	12
546.726	1	7
547.066	1	4
547.406	1	11
547.746	1	17
548.086	1	12
548.426	1	12
548.766	1	22
549.106	1	12
549.446	1	23
549.786	1	16
550.126	1	13
550.466	1	15
550.806	1	21
551.146	1	13
551.486	1	3
551.826	1	7
552.166	1	13
552.506	1	9
552.846	1	9
553.186	1	9
553.526	1	17
553.866	1	6
554.206	1	19
554.546	1	22
554.886	1	8
555.226	1	10
555.566	1	19
555.906	1	14
556.246	1	19
556.586	1	7
556.926	1	11
557.266	1	14
557.606	1	5
557.946	1	16
558.286	1	8
558.626	1	14
558.966	1	7
559.306	1	13
559.646	1	17
559.986	1	19
560.325	1	22
560.665	1	20
561.005	1	8
561.345	1	10
561.685	1	17
562.025	1	17
562.365	1	17
562.705	1	19
563.045	1	9
563.385	1	18
563.725	1	7
564.064	1	6
564.404	1	8
564.744	1	18
565.084	1	14
565.424	1	1
565.764	1	18
566.104	1	15
566.444	1	11
566.783	1	9
567.123	1	12
567.463	1	14
567.803	1	23
568.143	1	6
568.483	1	17
568.823	1	7
569.162	1	4
569.502	1	14
569.842	1	15
570.182	1	7
570.522	1	2
570.862	1	-7
571.201	1	14
571.541	1	5
571.881	1	11
572.221	1	7
572.561	1	10
572.900	1	20
573.240	1	2
573.580	1	0
573.920	1	16
574.260	1	15
574.599	1	13
574.939	1	3
575.279	1	12
575.619	1	11
575.959	1	8
576.298	1	7
576.638	1	10
576.978	1	7
577.318	1	12
577.657	1	-9
577.997	1	5
578.337	1	-2
578.677	1	16
579.016	1	8
579.356	1	12
579.696	1	6
580.036	1	10
580.375	1	7
580.715	1	2
581.055	1	4
581.394	1	-4
581.734	1	6
582.074	1	-1
582.414	1	9
582.753	1	6
583.093	1	12
583.433	1	8
583.772	1	9
584.112	1	9
584.452	1	9
584.791	1	10
585.131	1	9
585.471	1	10
585.811	1	9
586.150	1	16
586.490	1	10
586.830	1	7
587.169	1	13
587.509	1	8
587.849	1	17
588.188	1	12
588.528	1	1
588.867	1	12
589.207	1	8
589.547	1	10
589.886	1	8
590.226	1	1
590.566	1	6
590.905	1	2
591.245	1	2
591.585	1	-1
591.924	1	5
592.264	1	4
592.603	1	-7
592.943	1	1
593.283	1	5
593.622	1	0
593.962	1	4
594.301	1	-2
594.641	1	-2
594.981	1	7
595.320	1	17
595.660	1	6
595.999	1	16
596.339	1	5
596.678	1	-2
597.018	1	6
597.358	1	3
597.697	1	-2
598.037	1	5
598.376	1	-6
598.716	1	5
599.055	1	13
599.395	1	-5
599.734	1	4
600.074	1	3
600.413	1	12
600.753	1	0
601.092	1	0
601.432	1	-2
601.771	1	10
602.111	1	5
602.451	1	5
602.790	1	11
603.130	1	6
603.469	1	-3
603.809	1	9
604.148	1	-3
604.487	1	14
604.827	1	6
605.166	1	9
605.506	1	1
605.845	1	13
606.185	1	-2
606.524	1	0
606.864	1	13
607.203	1	6
607.543	1	8
607.882	1	16
608.222	1	0
608.561	1	-6
608.901	1	12
609.240	1	10
609.579	1	1
609.919	1	-5
610.258	1	24
610.598	1	-5
610.937	1	9
611.277	1	11
611.616	1	9
611.955	1	0
612.295	1	2
612.634	1	13
612.974	1	0
613.313	1	10
613.652	1	13
613.992	1	6
614.331	1	8
614.671	1	6
615.010	1	15
615.349	1	8
615.689	1	2
616.028	1	14
616.368	1	19
616.707	1	8
617.046	1	-1
617.386	1	11
617.725	1	6
618.064	1	5
618.404	1	0
618.743	1	10
619.082	1	12
619.422	1	12
619.761	1	3
620.100	1	7
620.440	1	9
620.779	1	11
621.118	1	24
621.458	1	3
621.797	1	-1
622.136	1	2
622.476	1	3
622.815	1	6
623.154	1	-8
623.494	1	2
623.833	1	7
624.172	1	9
624.511	1	-4
624.851	1	0
625.190	1	6
625.529	1	7
625.869	1	11
626.208	1	-8
626.547	1	-1
626.886	1	6
627.226	1	9
627.565	1	12
627.904	1	6
628.243	1	16
628.583	1	13
628.922	1	11
629.261	1	15
629.600	1	1
629.940	1	8
630.279	1	1
630.618	1	14
630.957	1	0
631.297	1	8
631.636	1	8
631.975	1	10
632.314	1	9
632.653	1	-2
632.993	1	13
633.332	1	10
633.671	1	12
634.010	1	-7
634.349	1	9
634.689	1	0
635.028	1	-2
635.367	1	13
635.706	1	-2
636.045	1	-3
636.384	1	13
636.724	1	9
637.063	1	-3
637.402	1	5
637.741	1	7
638.080	1	3
638.419	1	3
638.759	1	2
639.098	1	9
639.437	1	8
639.776	1	9
640.115	1	0
640.454	1	-4
640.793	1	4
641.132	1	13
641.472	1	12
641.811	1	-7
642.150	1	1
642.489	1	0
642.828	1	14
643.167	1	6
643.506	1	8
643.845	1	16
644.184	1	14
644.524	1	5
644.863	1	7
645.202	1	10
645.541	1	2
645.880	1	9
646.219	1	12
646.558	1	-6
646.897	1	-9
647.236	1	-5
647.575	1	6
647.914	1	4
648.253	1	3
648.592	1	7
648.931	1	9
649.270	1	10
649.610	1	8
649.949	1	-3
650.288	1	11
650.627	1	6
650.966	1	10
651.305	1	12
651.644	1	5
651.983	1	5
652.322	1	8
652.661	1	12
653.000	1	9
653.339	1	-2
653.678	1	19
654.017	1	13
654.356	1	11
654.695	1	15
655.034	1	-2
655.373	1	8
655.712	1	13
656.051	1	2
656.390	1	3
656.729	1	15
657.068	1	5
657.406	1	2
657.745	1	12
658.084	1	2
658.423	1	10
658.762	1	-3
659.101	1	7
659.440	1	2
659.779	1	8
660.118	1	-3
660.457	1	1
660.796	1	4
661.135	1	8
661.474	1	1
661.813	1	3
662.152	1	1
662.491	1	3
662.829	1	6
663.168	1	6
663.507	1	7
663.846	1	8
664.185	1	-2
664.524	1	10
664.863	1	-1
665.202	1	7
665.541	1	1
665.879	1	10
666.218	1	8
666.557	1	0
666.896	1	11
667.235	1	1
667.574	1	7
667.913	1	9
668.251	1	-3
668.590	1	9
668.929	1	1
669.268	1	-1
669.607	1	-1
669.946	1	-1
670.285	1	-2
670.623	1	3
670.962	1	-2
671.301	1	2
671.640	1	8
671.979	1	-3
672.317	1	10
672.656	1	7
672.995	1	7
673.334	1	1
673.673	1	26
674.011	1	12
674.350	1	3
674.689	1	-7
675.028	1	2
675.367	1	3
675.705	1	-2
676.044	1	1
676.383	1	2
676.722	1	9
677.060	1	8
677.399	1	12
677.738	1	2
678.077	1	-4
678.416	1	-1
678.754	1	8
679.093	1	20
679.432	1	-5
679.771	1	11
680.109	1	11
680.448	1	5
680.787	1	-9
681.125	1	-2
681.464	1	6
681.803	1	-2
682.142	1	8
682.480	1	-3
682.819	1	6
683.158	1	5
683.496	1	4
683.835	1	10
684.174	1	7
684.512	1	4
684.851	1	3
685.190	1	11
685.529	1	3
685.867	1	0
686.206	1	-1
686.545	1	6
686.883	1	12
687.222	1	1
687.561	1	12
687.899	1	-6
688.238	1	13
688.577	1	-4
688.746	1	2