File: Data/GaN_150K_450ms/GaN_sample D_spot15_UVVIS_150 K_200um_450 ms 2x2mm1_41.txt
340.368	1	6
340.710	1	-2
341.052	1	5
341.394	1	-3
341.737	1	8
342.079	1	1
342.421	1	-2
342.763	1	4
343.105	1	4
343.447	1	3
343.789	1	9
344.131	1	-9
344.473	1	2
344.815	1	-1
345.157	1	14
345.499	1	1
345.841	1	5
346.183	1	-10
346.526	1	4
346.868	1	-7
347.210	1	0
347.552	1	12
347.894	1	1
348.236	1	3
348.578	1	0
348.920	1	3
349.262	1	13
349.604	1	-3
349.946	1	-5
350.288	1	-10
350.630	1	1
350.972	1	4
351.314	1	-3
351.656	1	9
351.998	1	-3
352.340	1	7
352.682	1	-8
353.024	1	8
353.366	1	4
353.708	1	3
354.050	1	-3
354.392	1	-9
354.734	1	-1
355.076	1	13
355.418	1	-4
355.760	1	0
356.102	1	3
356.444	1	3
356.785	1	1
357.127	1	12
357.469	1	1
357.811	1	-5
358.153	1	-10
358.495	1	-2
358.837	1	4
359.179	1	5
359.521	1	9
359.863	1	8
360.205	1	12
360.547	1	14
360.889	1	5
361.231	1	17
361.572	1	5
361.914	1	12
362.256	1	1
362.598	1	7
362.940	1	0
363.282	1	-9
363.624	1	5
363.966	1	4
364.308	1	-8
364.649	1	0
364.991	1	6
365.333	1	-1
365.675	1	19
366.017	1	8
366.359	1	-2
366.701	1	-2
367.042	1	10
367.384	1	-9
367.726	1	8
368.068	1	5
368.410	1	2
368.752	1	8
369.093	1	6
369.435	1	7
369.777	1	17
370.119	1	7
370.461	1	4
370.803	1	-1
371.144	1	5
371.486	1	6
371.828	1	4
372.170	1	6
372.512	1	8
372.853	1	14
373.195	1	0
373.537	1	-10
373.879	1	-1
374.220	1	10
374.562	1	15
374.904	1	2
375.246	1	-4
375.588	1	2
375.929	1	8
376.271	1	-4
376.613	1	-6
376.955	1	-3
377.296	1	1
377.638	1	3
377.980	1	-4
378.321	1	5
378.663	1	4
379.005	1	9
379.347	1	4
379.688	1	8
380.030	1	14
380.372	1	9
380.714	1	-6
381.055	1	0
381.397	1	9
381.739	1	-3
382.080	1	11
382.422	1	7
382.764	1	7
383.105	1	1
383.447	1	-12
383.789	1	-6
384.130	1	-4
384.472	1	1
384.814	1	5
385.156	1	-5
385.497	1	9
385.839	1	4
386.180	1	-3
386.522	1	2
386.864	1	0
387.205	1	5
387.547	1	5
387.889	1	-4
388.230	1	2
388.572	1	-4
388.914	1	10
389.255	1	-9
389.597	1	8
389.939	1	13
390.280	1	-2
390.622	1	-4
390.963	1	6
391.305	1	-10
391.647	1	-1
391.988	1	-1
392.330	1	1
392.671	1	3
393.013	1	4
393.355	1	12
393.696	1	9
394.038	1	2
394.379	1	9
394.721	1	-2
395.062	1	-3
395.404	1	6
395.746	1	-3
396.087	1	14
396.429	1	1
396.770	1	-2
397.112	1	-4
397.453	1	-10
397.795	1	3
398.136	1	11
398.478	1	1
398.819	1	0
399.161	1	4
399.503	1	18
399.844	1	-8
400.186	1	1
400.527	1	1
400.869	1	-2
401.210	1	3
401.552	1	1
401.893	1	-1
402.235	1	-1
402.576	1	-10
402.918	1	-7
403.259	1	1
403.601	1	7
403.942	1	1
404.284	1	9
404.625	1	0
404.967	1	-2
405.308	1	1
405.649	1	-3
405.991	1	3
406.332	1	8
406.674	1	-1
407.015	1	3
407.357	1	11
407.698	1	10
408.040	1	7
408.381	1	-6
408.722	1	-4
409.064	1	2
409.405	1	-2
409.747	1	0
410.088	1	12
410.430	1	9
410.771	1	12
411.112	1	-2
411.454	1	3
411.795	1	-1
412.137	1	7
412.478	1	8
412.819	1	5
413.161	1	-3
413.502	1	7
413.844	1	15
414.185	1	6
414.526	1	-3
414.868	1	5
415.209	1	-4
415.550	1	6
415.892	1	2
416.233	1	-2
416.575	1	-9
416.916	1	-2
417.257	1	-6
417.599	1	1
417.940	1	-6
418.281	1	7
418.623	1	3
418.964	1	13
419.305	1	9
419.647	1	0
419.988	1	13
420.329	1	5
420.671	1	13
421.012	1	-4
421.353	1	5
421.695	1	7
422.036	1	7
422.377	1	-1
422.718	1	5
423.060	1	3
423.401	1	-6
423.742	1	7
424.084	1	5
424.425	1	5
424.766	1	1
425.107	1	4
425.449	1	1
425.790	1	-2
426.131	1	-1
426.472	1	17
426.814	1	4
427.155	1	1
427.496	1	3
427.837	1	-7
428.179	1	8
428.520	1	6
428.861	1	6
429.202	1	-10
429.544	1	0
429.885	1	4
430.226	1	-13
430.567	1	-9
430.909	1	-5
431.250	1	3
431.591	1	2
431.932	1	2
432.273	1	6
432.615	1	-1
432.956	1	4
433.297	1	-4
433.638	1	6
433.979	1	6
434.320	1	-10
434.662	1	6
435.003	1	8
435.344	1	1
435.685	1	-3
436.026	1	-11
436.368	1	-8
436.709	1	-10
437.050	1	0
437.391	1	-2
437.732	1	4
438.073	1	-9
438.414	1	-3
438.756	1	5
439.097	1	12
439.438	1	8
439.779	1	4
440.120	1	-5
440.461	1	3
440.802	1	0
441.143	1	5
441.485	1	-4
441.826	1	-2
442.167	1	-8
442.508	1	0
442.849	1	7
443.190	1	0
443.531	1	4
443.872	1	-6
444.213	1	-10
444.554	1	0
444.895	1	-5
445.237	1	9
445.578	1	-9
445.919	1	7
446.260	1	10
446.601	1	16
446.942	1	4
447.283	1	5
447.624	1	-6
447.965	1	-3
448.306	1	4
448.647	1	6
448.988	1	3
449.329	1	2
449.670	1	4
450.011	1	0
450.352	1	-1
450.693	1	8
451.034	1	0
451.375	1	-3
451.716	1	2
452.057	1	0
452.398	1	15
452.739	1	4
453.080	1	8
453.421	1	8
453.762	1	8
454.103	1	3
454.444	1	1
454.785	1	-5
455.126	1	-5
455.467	1	9
455.808	1	9
456.149	1	0
456.490	1	-4
456.831	1	-3
457.172	1	2
457.513	1	-1
457.854	1	5
458.195	1	0
458.536	1	10
458.877	1	-4
459.218	1	3
459.559	1	2
459.899	1	-5
460.240	1	0
460.581	1	-13
460.922	1	1
461.263	1	12
461.604	1	0
461.945	1	-1
462.286	1	-11
462.627	1	1
462.968	1	5
463.309	1	1
463.649	1	-2
463.990	1	9
464.331	1	10
464.672	1	-1
465.013	1	0
465.354	1	10
465.695	1	1
466.036	1	3
466.376	1	9
466.717	1	-11
467.058	1	6
467.399	1	-5
467.740	1	10
468.081	1	8
468.422	1	1
468.762	1	5
469.103	1	7
469.444	1	3
469.785	1	-8
470.126	1	4
470.467	1	-4
470.807	1	5
471.148	1	0
471.489	1	6
471.830	1	-4
472.171	1	10
472.511	1	4
472.852	1	5
473.193	1	1
473.534	1	9
473.875	1	2
474.215	1	-3
474.556	1	-4
474.897	1	-8
475.238	1	7
475.578	1	-8
475.919	1	-3
476.260	1	8
476.601	1	3
476.942	1	4
477.282	1	-4
477.623	1	1
477.964	1	3
478.305	1	2
478.645	1	2
478.986	1	-1
479.327	1	2
479.667	1	2
480.008	1	-1
480.349	1	2
480.690	1	4
481.030	1	-3
481.371	1	-5
481.712	1	10
482.053	1	11
482.393	1	7
482.734	1	4
483.075	1	6
483.415	1	10
483.756	1	7
484.097	1	11
484.437	1	7
484.778	1	-4
485.119	1	-6
485.459	1	-7
485.800	1	-1
486.141	1	-1
486.481	1	-6
486.822	1	11
487.163	1	-1
487.503	1	-7
487.844	1	-9
488.185	1	3
488.525	1	-4
488.866	1	-10
489.207	1	10
489.547	1	1
489.888	1	2
490.228	1	10
490.569	1	-1
490.910	1	9
491.250	1	2
491.591	1	4
491.932	1	5
492.272	1	-4
492.613	1	0
492.953	1	-1
493.294	1	-8
493.635	1	4
493.975	1	12
494.316	1	-8
494.656	1	5
494.997	1	4
495.337	1	4
495.678	1	3
496.019	1	-7
496.359	1	-7
496.700	1	-5
497.040	1	1
497.381	1	3
497.721	1	-7
498.062	1	2
498.403	1	7
498.743	1	-2
499.084	1	10
499.424	1	-6
499.765	1	-2
500.105	1	12
500.446	1	-6
500.786	1	1
501.127	1	6
501.467	1	5
501.808	1	5
502.148	1	-2
502.489	1	-1
502.829	1	0
503.170	1	-3
503.510	1	2
503.851	1	7
504.191	1	-5
504.532	1	-1
504.872	1	-3
505.213	1	-5
505.553	1	-4
505.894	1	-3
506.234	1	4
506.575	1	14
506.915	1	0
507.256	1	3
507.596	1	6
507.936	1	10
508.277	1	3
508.617	1	11
508.958	1	8
509.298	1	-1
509.639	1	-6
509.979	1	2
510.319	1	3
510.660	1	0
511.000	1	-3
511.341	1	4
511.681	1	4
512.022	1	-8
512.362	1	6
512.702	1	-4
513.043	1	3
513.383	1	3
513.724	1	5
514.064	1	3
514.404	1	10
514.745	1	-3
515.085	1	6
515.425	1	7
515.766	1	6
516.106	1	-5
516.447	1	9
516.787	1	-11
517.127	1	7
517.468	1	8
517.808	1	-8
518.148	1	12
518.489	1	0
518.829	1	2
519.169	1	-11
519.510	1	-3
519.850	1	2
520.190	1	-1
520.531	1	4
520.871	1	6
521.211	1	5
521.552	1	-2
521.892	1	-3
522.232	1	-1
522.573	1	2
522.913	1	7
523.253	1	3
523.593	1	4
523.934	1	2
524.274	1	4
524.614	1	5
524.955	1	6
525.295	1	2
525.635	1	-1
525.975	1	-1
526.316	1	-13
526.656	1	4
526.996	1	1
527.337	1	5
527.677	1	11
528.017	1	0
528.357	1	0
528.698	1	8
529.038	1	6
529.378	1	4
529.718	1	-7
530.058	1	0
530.399	1	-4
530.739	1	-5
531.079	1	-5
531.419	1	5
531.760	1	8
532.100	1	7
532.440	1	0
532.780	1	4
533.120	1	2
533.461	1	2
533.801	1	3
534.141	1	-7
534.481	1	16
534.821	1	1
535.162	1	-3
535.502	1	-2
535.842	1	-8
536.182	1	-3
536.522	1	-2
536.862	1	3
537.203	1	4
537.543	1	1
537.883	1	3
538.223	1	21
538.563	1	-2
538.903	1	-2
539.243	1	-5
539.584	1	6
539.924	1	3
540.264	1	2
540.604	1	7
540.944	1	5
541.284	1	2
541.624	1	2
541.964	1	4
542.305	1	-4
542.645	1	-2
542.985	1	-4
543.325	1	11
543.665	1	1
544.005	1	-8
544.345	1	12
544.685	1	8
545.025	1	8
545.365	1	4
545.705	1	2
546.045	1	6
546.386	1	-6
546.726	1	10
547.066	1	3
547.406	1	6
547.746	1	-1
548.086	1	11
548.426	1	2
548.766	1	2
549.106	1	-5
549.446	1	5
549.786	1	2
550.126	1	3
550.466	1	-5
550.806	1	13
551.146	1	-6
551.486	1	1
551.826	1	4
552.166	1	1
552.506	1	-2
552.846	1	6
553.186	1	0
553.526	1	7
553.866	1	-6
554.206	1	15
554.546	1	8
554.886	1	-1
555.226	1	-4
555.566	1	9
555.906	1	4
556.246	1	2
556.586	1	6
556.926	1	3
557.266	1	9
557.606	1	-6
557.946	1	2
558.286	1	-3
558.626	1	0
558.966	1	-3
559.306	1	-2
559.646	1	2
559.986	1	-1
560.325	1	-7
560.665	1	3
561.005	1	2
561.345	1	-1
561.685	1	9
562.025	1	4
562.365	1	5
562.705	1	0
563.045	1	7
563.385	1	2
563.725	1	-3
564.064	1	-7
564.404	1	1
564.744	1	10
565.084	1	6
565.424	1	-11
565.764	1	5
566.104	1	11
566.444	1	13
566.783	1	-3
567.123	1	1
567.463	1	4
567.803	1	7
568.143	1	-1
568.483	1	0
568.823	1	-5
569.162	1	-5
569.502	1	11
569.842	1	-8
570.182	1	4
570.522	1	-2
570.862	1	-10
571.201	1	11
571.541	1	-7
571.881	1	5
572.221	1	-1
572.561	1	6
572.900	1	13
573.240	1	-2
573.580	1	8
573.920	1	8
574.260	1	0
574.599	1	10
574.939	1	5
575.279	1	3
575.619	1	-3
575.959	1	-3
576.298	1	-14
576.638	1	10
576.978	1	-1
577.318	1	1
577.657	1	-2
577.997	1	4
578.337	1	-9
578.677	1	1
579.016	1	3
579.356	1	2
579.696	1	9
580.036	1	1
580.375	1	-1
580.715	1	4
581.055	1	-5
581.394	1	2
581.734	1	4
582.074	1	0
582.414	1	-3
582.753	1	-10
583.093	1	7
583.433	1	-1
583.772	1	10
584.112	1	-2
584.452	1	7
584.791	1	15
585.131	1	5
585.471	1	-9
585.811	1	3
586.150	1	12
586.490	1	12
586.830	1	-2
587.169	1	3
587.509	1	-2
587.849	1	3
588.188	1	7
588.528	1	0
588.867	1	9
589.207	1	0
589.547	1	2
589.886	1	1
590.226	1	-4
590.566	1	1
590.905	1	2
591.245	1	-15
591.585	1	2
591.924	1	-2
592.264	1	0
592.603	1	-12
592.943	1	-5
593.283	1	1
593.622	1	-1
593.962	1	8
594.301	1	1
594.641	1	1
594.981	1	11
595.320	1	7
595.660	1	7
595.999	1	6
596.339	1	4
596.678	1	-7
597.018	1	3
597.358	1	0
597.697	1	-6
598.037	1	5
598.376	1	-8
598.716	1	7
599.055	1	6
599.395	1	-11
599.734	1	2
600.074	1	-3
600.413	1	0
600.753	1	16
601.092	1	-5
601.432	1	-2
601.771	1	6
602.111	1	7
602.451	1	-8
602.790	1	-1
603.130	1	0
603.469	1	9
603.809	1	2
604.148	1	-6
604.487	1	2
604.827	1	-1
605.166	1	0
605.506	1	-2
605.845	1	0
606.185	1	0
606.524	1	-5
606.864	1	8
607.203	1	1
607.543	1	1
607.882	1	2
608.222	1	-2
608.561	1	4
608.901	1	10
609.240	1	7
609.579	1	3
609.919	1	-9
610.258	1	5
610.598	1	-4
610.937	1	2
611.277	1	9
611.616	1	7
611.955	1	-11
612.295	1	3
612.634	1	-4
612.974	1	-2
613.313	1	7
613.652	1	3
613.992	1	3
614.331	1	9
614.671	1	-1
615.010	1	6
615.349	1	2
615.689	1	-13
616.028	1	14
616.368	1	16
616.707	1	2
617.046	1	0
617.386	1	9
617.725	1	-5
618.064	1	3
618.404	1	-9
618.743	1	-5
619.082	1	14
619.422	1	8
619.761	1	0
620.100	1	3
620.440	1	5
620.779	1	5
621.118	1	13
621.458	1	4
621.797	1	2
622.136	1	-15
622.476	1	5
622.815	1	-2
623.154	1	-1
623.494	1	-6
623.833	1	-4
624.172	1	4
624.511	1	-6
624.851	1	0
625.190	1	2
625.529	1	-2
625.869	1	14
626.208	1	-4
626.547	1	-7
626.886	1	-1
627.226	1	-2
627.565	1	7
627.904	1	0
628.243	1	9
628.583	1	9
628.922	1	2
629.261	1	-4
629.600	1	1
629.940	1	1
630.279	1	-1
630.618	1	8
630.957	1	-4
631.297	1	5
631.636	1	-2
631.975	1	2
632.314	1	7
632.653	1	-3
632.993	1	1
633.332	1	9
633.671	1	2
634.010	1	-6
634.349	1	9
634.689	1	-8
635.028	1	-10
635.367	1	4
635.706	1	-4
636.045	1	-5
636.384	1	9
636.724	1	-1
637.063	1	-7
637.402	1	2
637.741	1	0
638.080	1	2
638.419	1	1
638.759	1	5
639.098	1	3
639.437	1	0
639.776	1	-5
640.115	1	-8
640.454	1	-10
640.793	1	0
641.132	1	4
641.472	1	8
641.811	1	-9
642.150	1	-6
642.489	1	-1
642.828	1	14
643.167	1	0
643.506	1	-13
643.845	1	3
644.184	1	8
644.524	1	6
644.863	1	5
645.202	1	0
645.541	1	7
645.880	1	12
646.219	1	7
646.558	1	-2
646.897	1	-10
647.236	1	-21
647.575	1	5
647.914	1	3
648.253	1	4
648.592	1	9
648.931	1	8
649.270	1	7
649.610	1	6
649.949	1	-6
650.288	1	9
650.627	1	-8
650.966	1	-2
651.305	1	6
651.644	1	5
651.983	1	-8
652.322	1	4
652.661	1	-3
653.000	1	-7
653.339	1	-3
653.678	1	6
654.017	1	1
654.356	1	10
654.695	1	14
655.034	1	-10
655.373	1	-10
655.712	1	14
656.051	1	-9
656.390	1	11
656.729	1	7
657.068	1	-4
657.406	1	-7
657.745	1	14
658.084	1	-3
658.423	1	7
658.762	1	-4
659.101	1	7
659.440	1	-3
659.779	1	8
660.118	1	5
660.457	1	3
660.796	1	3
661.135	1	8
661.474	1	-2
661.813	1	2
662.152	1	-3
662.491	1	2
662.829	1	2
663.168	1	-2
663.507	1	4
663.846	1	0
664.185	1	0
664.524	1	9
664.863	1	1
665.202	1	7
665.541	1	0
665.879	1	1
666.218	1	4
666.557	1	-4
666.896	1	2
667.235	1	-6
667.574	1	-7
667.913	1	0
668.251	1	-4
668.590	1	0
668.929	1	7
669.268	1	-12
669.607	1	-11
669.946	1	-3
670.285	1	3
670.623	1	5
670.962	1	-4
671.301	1	0
671.640	1	2
671.979	1	7
672.317	1	-1
672.656	1	4
672.995	1	0
673.334	1	-3
673.673	1	7
674.011	1	13
674.350	1	10
674.689	1	-13
675.028	1	8
675.367	1	-6
675.705	1	1
676.044	1	1
676.383	1	-4
676.722	1	2
677.060	1	4
677.399	1	11
677.738	1	-1
678.077	1	-3
678.416	1	-5
678.754	1	0
679.093	1	10
679.432	1	1
679.771	1	-4
680.109	1	-1
680.448	1	0
680.787	1	-10
681.125	1	-4
681.464	1	13
681.803	1	2
682.142	1	1
682.480	1	-7
682.819	1	-2
683.158	1	-9
683.496	1	-5
683.835	1	4
684.174	1	-4
684.512	1	-1
684.851	1	3
685.190	1	-9
685.529	1	-9
685.867	1	4
686.206	1	-4
686.545	1	-12
686.883	1	13
687.222	1	-8
687.561	1	-2
687.899	1	3
688.238	1	2
688.577	1	-10
688.746	1	-4