File: Data/GaN_150K_450ms/GaN_sample D_spot15_UVVIS_150 K_200um_450 ms 2x2mm1_37.txt
340.368	1	-3
340.710	1	-4
341.052	1	3
341.394	1	-10
341.737	1	1
342.079	1	-3
342.421	1	-2
342.763	1	1
343.105	1	0
343.447	1	-5
343.789	1	4
344.131	1	-11
344.473	1	1
344.815	1	6
345.157	1	14
345.499	1	-4
345.841	1	2
346.183	1	-3
346.526	1	-5
346.868	1	-10
347.210	1	-5
347.552	1	22
347.894	1	2
348.236	1	3
348.578	1	2
348.920	1	4
349.262	1	4
349.604	1	0
349.946	1	5
350.288	1	-12
350.630	1	-2
350.972	1	0
351.314	1	-4
351.656	1	7
351.998	1	9
352.340	1	9
352.682	1	-14
353.024	1	7
353.366	1	2
353.708	1	2
354.050	1	-5
354.392	1	-16
354.734	1	4
355.076	1	8
355.418	1	-3
355.760	1	2
356.102	1	5
356.444	1	6
356.785	1	10
357.127	1	11
357.469	1	0
357.811	1	3
358.153	1	-12
358.495	1	-2
358.837	1	7
359.179	1	10
359.521	1	10
359.863	1	-5
360.205	1	8
360.547	1	9
360.889	1	5
361.231	1	0
361.572	1	8
361.914	1	5
362.256	1	10
362.598	1	10
362.940	1	-2
363.282	1	-10
363.624	1	-10
363.966	1	-2
364.308	1	-2
364.649	1	2
364.991	1	8
365.333	1	-3
365.675	1	7
366.017	1	7
366.359	1	-1
366.701	1	0
367.042	1	4
367.384	1	-4
367.726	1	-6
368.068	1	6
368.410	1	-1
368.752	1	11
369.093	1	2
369.435	1	5
369.777	1	14
370.119	1	7
370.461	1	4
370.803	1	-10
371.144	1	4
371.486	1	13
371.828	1	-2
372.170	1	0
372.512	1	-6
372.853	1	10
373.195	1	-8
373.537	1	-7
373.879	1	-2
374.220	1	3
374.562	1	6
374.904	1	2
375.246	1	0
375.588	1	4
375.929	1	-2
376.271	1	3
376.613	1	1
376.955	1	-4
377.296	1	16
377.638	1	-3
377.980	1	-3
378.321	1	2
378.663	1	2
379.005	1	-1
379.347	1	-4
379.688	1	12
380.030	1	4
380.372	1	9
380.714	1	-4
381.055	1	-2
381.397	1	5
381.739	1	0
382.080	1	1
382.422	1	9
382.764	1	3
383.105	1	-2
383.447	1	6
383.789	1	-4
384.130	1	7
384.472	1	-11
384.814	1	3
385.156	1	-1
385.497	1	9
385.839	1	0
386.180	1	1
386.522	1	11
386.864	1	-6
387.205	1	10
387.547	1	3
387.889	1	-6
388.230	1	-6
388.572	1	-7
388.914	1	10
389.255	1	2
389.597	1	5
389.939	1	10
390.280	1	-1
390.622	1	-7
390.963	1	-6
391.305	1	-7
391.647	1	-1
391.988	1	-3
392.330	1	3
392.671	1	14
393.013	1	6
393.355	1	8
393.696	1	3
394.038	1	2
394.379	1	9
394.721	1	-4
395.062	1	-5
395.404	1	7
395.746	1	-3
396.087	1	3
396.429	1	3
396.770	1	7
397.112	1	-3
397.453	1	-2
397.795	1	-7
398.136	1	6
398.478	1	-2
398.819	1	2
399.161	1	2
399.503	1	8
399.844	1	-1
400.186	1	1
400.527	1	3
400.869	1	6
401.210	1	5
401.552	1	9
401.893	1	4
402.235	1	3
402.576	1	7
402.918	1	-7
403.259	1	-3
403.601	1	7
403.942	1	-4
404.284	1	13
404.625	1	-2
404.967	1	2
405.308	1	-11
405.649	1	-5
405.991	1	-2
406.332	1	-4
406.674	1	-6
407.015	1	5
407.357	1	4
407.698	1	6
408.040	1	10
408.381	1	-8
408.722	1	9
409.064	1	-3
409.405	1	-1
409.747	1	-5
410.088	1	3
410.430	1	8
410.771	1	6
411.112	1	0
411.454	1	3
411.795	1	5
412.137	1	0
412.478	1	10
412.819	1	9
413.161	1	4
413.502	1	1
413.844	1	1
414.185	1	-2
414.526	1	-10
414.868	1	-6
415.209	1	-3
415.550	1	-4
415.892	1	6
416.233	1	7
416.575	1	-2
416.916	1	9
417.257	1	-5
417.599	1	2
417.940	1	-6
418.281	1	6
418.623	1	-5
418.964	1	14
419.305	1	9
419.647	1	4
419.988	1	18
420.329	1	8
420.671	1	11
421.012	1	4
421.353	1	11
421.695	1	3
422.036	1	11
422.377	1	-2
422.718	1	15
423.060	1	2
423.401	1	0
423.742	1	9
424.084	1	8
424.425	1	1
424.766	1	3
425.107	1	6
425.449	1	4
425.790	1	3
426.131	1	-10
426.472	1	6
426.814	1	-3
427.155	1	8
427.496	1	4
427.837	1	-2
428.179	1	11
428.520	1	-1
428.861	1	-3
429.202	1	-7
429.544	1	0
429.885	1	1
430.226	1	-13
430.567	1	-12
430.909	1	0
431.250	1	8
431.591	1	5
431.932	1	-9
432.273	1	6
432.615	1	-3
432.956	1	-2
433.297	1	2
433.638	1	9
433.979	1	-2
434.320	1	-4
434.662	1	-3
435.003	1	16
435.344	1	3
435.685	1	-4
436.026	1	4
436.368	1	-1
436.709	1	-1
437.050	1	-2
437.391	1	-1
437.732	1	8
438.073	1	-5
438.414	1	7
438.756	1	-9
439.097	1	0
439.438	1	-3
439.779	1	0
440.120	1	-2
440.461	1	3
440.802	1	-2
441.143	1	-4
441.485	1	4
441.826	1	-2
442.167	1	8
442.508	1	2
442.849	1	6
443.190	1	5
443.531	1	-4
443.872	1	-2
444.213	1	-18
444.554	1	3
444.895	1	-6
445.237	1	4
445.578	1	-9
445.919	1	0
446.260	1	7
446.601	1	7
446.942	1	2
447.283	1	2
447.624	1	-6
447.965	1	-7
448.306	1	6
448.647	1	4
448.988	1	2
449.329	1	3
449.670	1	1
450.011	1	-5
450.352	1	3
450.693	1	13
451.034	1	-4
451.375	1	4
451.716	1	6
452.057	1	3
452.398	1	8
452.739	1	2
453.080	1	2
453.421	1	12
453.762	1	5
454.103	1	4
454.444	1	-2
454.785	1	0
455.126	1	7
455.467	1	5
455.808	1	10
456.149	1	-3
456.490	1	-3
456.831	1	0
457.172	1	0
457.513	1	-5
457.854	1	7
458.195	1	5
458.536	1	12
458.877	1	-1
459.218	1	8
459.559	1	6
459.899	1	-1
460.240	1	-6
460.581	1	-2
460.922	1	0
461.263	1	3
461.604	1	3
461.945	1	2
462.286	1	-1
462.627	1	7
462.968	1	6
463.309	1	1
463.649	1	-10
463.990	1	12
464.331	1	10
464.672	1	0
465.013	1	6
465.354	1	9
465.695	1	4
466.036	1	8
466.376	1	20
466.717	1	-8
467.058	1	7
467.399	1	1
467.740	1	9
468.081	1	-3
468.422	1	5
468.762	1	2
469.103	1	-3
469.444	1	-7
469.785	1	-8
470.126	1	11
470.467	1	1
470.807	1	12
471.148	1	-3
471.489	1	-3
471.830	1	1
472.171	1	11
472.511	1	-4
472.852	1	10
473.193	1	3
473.534	1	1
473.875	1	3
474.215	1	-5
474.556	1	-6
474.897	1	4
475.238	1	1
475.578	1	-1
475.919	1	-5
476.260	1	-5
476.601	1	4
476.942	1	2
477.282	1	-6
477.623	1	1
477.964	1	4
478.305	1	10
478.645	1	-2
478.986	1	4
479.327	1	4
479.667	1	-3
480.008	1	2
480.349	1	3
480.690	1	4
481.030	1	9
481.371	1	-10
481.712	1	6
482.053	1	5
482.393	1	7
482.734	1	-7
483.075	1	0
483.415	1	0
483.756	1	-5
484.097	1	12
484.437	1	8
484.778	1	1
485.119	1	5
485.459	1	-2
485.800	1	-6
486.141	1	9
486.481	1	-10
486.822	1	12
487.163	1	-5
487.503	1	2
487.844	1	-3
488.185	1	6
488.525	1	1
488.866	1	-2
489.207	1	8
489.547	1	-1
489.888	1	3
490.228	1	0
490.569	1	-6
490.910	1	3
491.250	1	6
491.591	1	3
491.932	1	8
492.272	1	-4
492.613	1	-9
492.953	1	2
493.294	1	-7
493.635	1	2
493.975	1	9
494.316	1	2
494.656	1	7
494.997	1	-11
495.337	1	-1
495.678	1	2
496.019	1	2
496.359	1	0
496.700	1	5
497.040	1	3
497.381	1	2
497.721	1	0
498.062	1	0
498.403	1	0
498.743	1	1
499.084	1	0
499.424	1	1
499.765	1	5
500.105	1	5
500.446	1	5
500.786	1	-2
501.127	1	-2
501.467	1	9
501.808	1	3
502.148	1	-5
502.489	1	-1
502.829	1	-2
503.170	1	-4
503.510	1	-8
503.851	1	2
504.191	1	-1
504.532	1	5
504.872	1	-6
505.213	1	-3
505.553	1	-6
505.894	1	6
506.234	1	9
506.575	1	15
506.915	1	-9
507.256	1	13
507.596	1	12
507.936	1	8
508.277	1	1
508.617	1	9
508.958	1	9
509.298	1	-9
509.639	1	-3
509.979	1	-2
510.319	1	13
510.660	1	-13
511.000	1	7
511.341	1	16
511.681	1	7
512.022	1	-7
512.362	1	13
512.702	1	0
513.043	1	7
513.383	1	2
513.724	1	0
514.064	1	4
514.404	1	7
514.745	1	0
515.085	1	-1
515.425	1	9
515.766	1	1
516.106	1	1
516.447	1	8
516.787	1	5
517.127	1	9
517.468	1	5
517.808	1	-9
518.148	1	13
518.489	1	-8
518.829	1	-1
519.169	1	-5
519.510	1	-1
519.850	1	1
520.190	1	0
520.531	1	0
520.871	1	10
521.211	1	1
521.552	1	-2
521.892	1	-7
522.232	1	6
522.573	1	1
522.913	1	10
523.253	1	3
523.593	1	6
523.934	1	4
524.274	1	4
524.614	1	-1
524.955	1	-1
525.295	1	7
525.635	1	4
525.975	1	-4
526.316	1	-5
526.656	1	-4
526.996	1	2
527.337	1	5
527.677	1	13
528.017	1	-10
528.357	1	3
528.698	1	7
529.038	1	8
529.378	1	-6
529.718	1	-9
530.058	1	4
530.399	1	5
530.739	1	7
531.079	1	1
531.419	1	2
531.760	1	7
532.100	1	13
532.440	1	9
532.780	1	2
533.120	1	6
533.461	1	0
533.801	1	6
534.141	1	6
534.481	1	18
534.821	1	-1
535.162	1	-1
535.502	1	4
535.842	1	6
536.182	1	-1
536.522	1	1
536.862	1	-3
537.203	1	1
537.543	1	7
537.883	1	1
538.223	1	12
538.563	1	5
538.903	1	-10
539.243	1	4
539.584	1	9
539.924	1	-3
540.264	1	13
540.604	1	7
540.944	1	11
541.284	1	6
541.624	1	0
541.964	1	5
542.305	1	9
542.645	1	4
542.985	1	2
543.325	1	14
543.665	1	-4
544.005	1	2
544.345	1	5
544.685	1	4
545.025	1	10
545.365	1	10
545.705	1	3
546.045	1	5
546.386	1	0
546.726	1	9
547.066	1	2
547.406	1	-2
547.746	1	-2
548.086	1	2
548.426	1	11
548.766	1	1
549.106	1	-1
549.446	1	-6
549.786	1	2
550.126	1	2
550.466	1	-2
550.806	1	7
551.146	1	7
551.486	1	-3
551.826	1	4
552.166	1	-4
552.506	1	-3
552.846	1	13
553.186	1	0
553.526	1	-3
553.866	1	-3
554.206	1	7
554.546	1	5
554.886	1	4
555.226	1	4
555.566	1	11
555.906	1	-2
556.246	1	4
556.586	1	-4
556.926	1	-6
557.266	1	5
557.606	1	-9
557.946	1	5
558.286	1	-14
558.626	1	6
558.966	1	1
559.306	1	-1
559.646	1	6
559.986	1	7
560.325	1	-3
560.665	1	-5
561.005	1	3
561.345	1	0
561.685	1	1
562.025	1	2
562.365	1	1
562.705	1	5
563.045	1	2
563.385	1	5
563.725	1	2
564.064	1	-6
564.404	1	-11
564.744	1	14
565.084	1	-1
565.424	1	-6
565.764	1	5
566.104	1	-2
566.444	1	7
566.783	1	6
567.123	1	-4
567.463	1	3
567.803	1	8
568.143	1	7
568.483	1	13
568.823	1	1
569.162	1	1
569.502	1	4
569.842	1	9
570.182	1	-1
570.522	1	-2
570.862	1	-8
571.201	1	8
571.541	1	0
571.881	1	-4
572.221	1	2
572.561	1	8
572.900	1	6
573.240	1	-8
573.580	1	2
573.920	1	11
574.260	1	3
574.599	1	8
574.939	1	-3
575.279	1	-2
575.619	1	-2
575.959	1	2
576.298	1	-3
576.638	1	12
576.978	1	2
577.318	1	6
577.657	1	6
577.997	1	3
578.337	1	1
578.677	1	7
579.016	1	2
579.356	1	1
579.696	1	2
580.036	1	5
580.375	1	4
580.715	1	10
581.055	1	-1
581.394	1	7
581.734	1	2
582.074	1	-1
582.414	1	0
582.753	1	0
583.093	1	2
583.433	1	9
583.772	1	6
584.112	1	2
584.452	1	1
584.791	1	2
585.131	1	5
585.471	1	-4
585.811	1	4
586.150	1	3
586.490	1	-2
586.830	1	-2
587.169	1	-2
587.509	1	3
587.849	1	7
588.188	1	11
588.528	1	-9
588.867	1	4
589.207	1	8
589.547	1	7
589.886	1	4
590.226	1	-4
590.566	1	-2
590.905	1	2
591.245	1	5
591.585	1	-5
591.924	1	1
592.264	1	0
592.603	1	-2
592.943	1	-1
593.283	1	5
593.622	1	-1
593.962	1	4
594.301	1	-2
594.641	1	1
594.981	1	9
595.320	1	7
595.660	1	3
595.999	1	-4
596.339	1	3
596.678	1	1
597.018	1	-3
597.358	1	0
597.697	1	-2
598.037	1	6
598.376	1	-7
598.716	1	7
599.055	1	-9
599.395	1	-3
599.734	1	7
600.074	1	4
600.413	1	4
600.753	1	12
601.092	1	-3
601.432	1	-10
601.771	1	0
602.111	1	-4
602.451	1	-6
602.790	1	5
603.130	1	5
603.469	1	2
603.809	1	3
604.148	1	-6
604.487	1	9
604.827	1	7
605.166	1	4
605.506	1	-2
605.845	1	9
606.185	1	0
606.524	1	5
606.864	1	10
607.203	1	4
607.543	1	-3
607.882	1	11
608.222	1	-2
608.561	1	-3
608.901	1	8
609.240	1	7
609.579	1	-1
609.919	1	-10
610.258	1	12
610.598	1	-8
610.937	1	-2
611.277	1	14
611.616	1	12
611.955	1	2
612.295	1	-2
612.634	1	5
612.974	1	1
613.313	1	11
613.652	1	10
613.992	1	6
614.331	1	2
614.671	1	3
615.010	1	5
615.349	1	2
615.689	1	3
616.028	1	9
616.368	1	11
616.707	1	1
617.046	1	1
617.386	1	11
617.725	1	1
618.064	1	-3
618.404	1	-5
618.743	1	1
619.082	1	18
619.422	1	15
619.761	1	11
620.100	1	4
620.440	1	3
620.779	1	8
621.118	1	8
621.458	1	2
621.797	1	1
622.136	1	6
622.476	1	2
622.815	1	3
623.154	1	-2
623.494	1	-8
623.833	1	0
624.172	1	7
624.511	1	-6
624.851	1	-2
625.190	1	5
625.529	1	-1
625.869	1	12
626.208	1	-2
626.547	1	2
626.886	1	2
627.226	1	3
627.565	1	4
627.904	1	5
628.243	1	17
628.583	1	8
628.922	1	4
629.261	1	1
629.600	1	1
629.940	1	9
630.279	1	-2
630.618	1	1
630.957	1	10
631.297	1	1
631.636	1	0
631.975	1	-7
632.314	1	-8
632.653	1	1
632.993	1	5
633.332	1	-3
633.671	1	-2
634.010	1	-1
634.349	1	10
634.689	1	-4
635.028	1	-10
635.367	1	8
635.706	1	-14
636.045	1	-13
636.384	1	7
636.724	1	4
637.063	1	-7
637.402	1	1
637.741	1	-2
638.080	1	7
638.419	1	-14
638.759	1	4
639.098	1	2
639.437	1	-1
639.776	1	1
640.115	1	-9
640.454	1	-3
640.793	1	-3
641.132	1	1
641.472	1	9
641.811	1	-10
642.150	1	-4
642.489	1	6
642.828	1	7
643.167	1	2
643.506	1	1
643.845	1	1
644.184	1	11
644.524	1	-6
644.863	1	0
645.202	1	2
645.541	1	2
645.880	1	5
646.219	1	-3
646.558	1	-5
646.897	1	-15
647.236	1	-12
647.575	1	12
647.914	1	3
648.253	1	3
648.592	1	3
648.931	1	11
649.270	1	7
649.610	1	2
649.949	1	1
650.288	1	1
650.627	1	-5
650.966	1	3
651.305	1	10
651.644	1	5
651.983	1	-1
652.322	1	-3
652.661	1	2
653.000	1	6
653.339	1	-2
653.678	1	12
654.017	1	11
654.356	1	3
654.695	1	14
655.034	1	-2
655.373	1	1
655.712	1	11
656.051	1	-11
656.390	1	-6
656.729	1	3
657.068	1	-13
657.406	1	0
657.745	1	14
658.084	1	2
658.423	1	5
658.762	1	-7
659.101	1	6
659.440	1	1
659.779	1	0
660.118	1	4
660.457	1	-3
660.796	1	8
661.135	1	5
661.474	1	2
661.813	1	1
662.152	1	-2
662.491	1	-4
662.829	1	-2
663.168	1	-1
663.507	1	9
663.846	1	-1
664.185	1	-1
664.524	1	13
664.863	1	-2
665.202	1	3
665.541	1	3
665.879	1	-3
666.218	1	0
666.557	1	-5
666.896	1	2
667.235	1	-1
667.574	1	0
667.913	1	0
668.251	1	-5
668.590	1	-5
668.929	1	5
669.268	1	1
669.607	1	-4
669.946	1	-2
670.285	1	1
670.623	1	1
670.962	1	-1
671.301	1	-2
671.640	1	1
671.979	1	-5
672.317	1	5
672.656	1	3
672.995	1	7
673.334	1	-1
673.673	1	7
674.011	1	3
674.350	1	5
674.689	1	-3
675.028	1	3
675.367	1	4
675.705	1	-2
676.044	1	-5
676.383	1	4
676.722	1	-7
677.060	1	9
677.399	1	13
677.738	1	-6
678.077	1	-4
678.416	1	-13
678.754	1	5
679.093	1	-2
679.432	1	-5
679.771	1	-1
680.109	1	2
680.448	1	5
680.787	1	-13
681.125	1	-1
681.464	1	-1
681.803	1	-10
682.142	1	6
682.480	1	-4
682.819	1	-1
683.158	1	-8
683.496	1	2
683.835	1	-1
684.174	1	0
684.512	1	2
684.851	1	-5
685.190	1	-2
685.529	1	1
685.867	1	-9
686.206	1	-7
686.545	1	-2
686.883	1	8
687.222	1	2
687.561	1	3
687.899	1	-2
688.238	1	0
688.577	1	4
688.746	1	-5