File: Data/GaN_150K_450ms/GaN_sample D_spot15_UVVIS_150 K_200um_450 ms 2x2mm1_52.txt
340.368	1	3
340.710	1	14
341.052	1	10
341.394	1	-3
341.737	1	9
342.079	1	2
342.421	1	9
342.763	1	9
343.105	1	10
343.447	1	7
343.789	1	7
344.131	1	-7
344.473	1	3
344.815	1	7
345.157	1	18
345.499	1	2
345.841	1	9
346.183	1	7
346.526	1	16
346.868	1	7
347.210	1	7
347.552	1	18
347.894	1	7
348.236	1	12
348.578	1	7
348.920	1	15
349.262	1	7
349.604	1	10
349.946	1	7
350.288	1	4
350.630	1	0
350.972	1	23
351.314	1	-2
351.656	1	16
351.998	1	17
352.340	1	14
352.682	1	4
353.024	1	29
353.366	1	17
353.708	1	11
354.050	1	18
354.392	1	9
354.734	1	19
355.076	1	38
355.418	1	12
355.760	1	25
356.102	1	35
356.444	1	32
356.785	1	33
357.127	1	42
357.469	1	38
357.811	1	35
358.153	1	32
358.495	1	52
358.837	1	55
359.179	1	62
359.521	1	74
359.863	1	63
360.205	1	85
360.547	1	97
360.889	1	97
361.231	1	116
361.572	1	139
361.914	1	146
362.256	1	165
362.598	1	195
362.940	1	230
363.282	1	249
363.624	1	310
363.966	1	344
364.308	1	407
364.649	1	477
364.991	1	525
365.333	1	627
365.675	1	693
366.017	1	797
366.359	1	871
366.701	1	957
367.042	1	1043
367.384	1	1085
367.726	1	1163
368.068	1	1180
368.410	1	1148
368.752	1	1171
369.093	1	1086
369.435	1	1056
369.777	1	1032
370.119	1	953
370.461	1	863
370.803	1	821
371.144	1	732
371.486	1	678
371.828	1	623
372.170	1	580
372.512	1	534
372.853	1	510
373.195	1	477
373.537	1	437
373.879	1	427
374.220	1	404
374.562	1	391
374.904	1	356
375.246	1	339
375.588	1	313
375.929	1	300
376.271	1	285
376.613	1	275
376.955	1	246
377.296	1	256
377.638	1	225
377.980	1	218
378.321	1	205
378.663	1	191
379.005	1	188
379.347	1	194
379.688	1	178
380.030	1	161
380.372	1	154
380.714	1	144
381.055	1	143
381.397	1	146
381.739	1	128
382.080	1	143
382.422	1	144
382.764	1	140
383.105	1	152
383.447	1	157
383.789	1	149
384.130	1	169
384.472	1	172
384.814	1	168
385.156	1	165
385.497	1	189
385.839	1	155
386.180	1	159
386.522	1	157
386.864	1	147
387.205	1	154
387.547	1	138
387.889	1	131
388.230	1	127
388.572	1	125
388.914	1	136
389.255	1	131
389.597	1	116
389.939	1	130
390.280	1	122
390.622	1	116
390.963	1	111
391.305	1	117
391.647	1	116
391.988	1	111
392.330	1	107
392.671	1	108
393.013	1	112
393.355	1	116
393.696	1	109
394.038	1	103
394.379	1	108
394.721	1	110
395.062	1	97
395.404	1	105
395.746	1	101
396.087	1	103
396.429	1	119
396.770	1	116
397.112	1	113
397.453	1	107
397.795	1	105
398.136	1	109
398.478	1	111
398.819	1	104
399.161	1	101
399.503	1	99
399.844	1	84
400.186	1	86
400.527	1	83
400.869	1	80
401.210	1	88
401.552	1	86
401.893	1	84
402.235	1	90
402.576	1	72
402.918	1	75
403.259	1	80
403.601	1	74
403.942	1	73
404.284	1	81
404.625	1	80
404.967	1	72
405.308	1	63
405.649	1	68
405.991	1	74
406.332	1	78
406.674	1	73
407.015	1	74
407.357	1	63
407.698	1	73
408.040	1	85
408.381	1	57
408.722	1	67
409.064	1	61
409.405	1	65
409.747	1	67
410.088	1	66
410.430	1	74
410.771	1	63
411.112	1	59
411.454	1	69
411.795	1	60
412.137	1	63
412.478	1	62
412.819	1	57
413.161	1	65
413.502	1	51
413.844	1	60
414.185	1	40
414.526	1	39
414.868	1	47
415.209	1	44
415.550	1	48
415.892	1	42
416.233	1	53
416.575	1	51
416.916	1	46
417.257	1	35
417.599	1	52
417.940	1	42
418.281	1	56
418.623	1	48
418.964	1	68
419.305	1	47
419.647	1	41
419.988	1	58
420.329	1	50
420.671	1	50
421.012	1	35
421.353	1	60
421.695	1	44
422.036	1	50
422.377	1	42
422.718	1	41
423.060	1	41
423.401	1	35
423.742	1	50
424.084	1	41
424.425	1	44
424.766	1	35
425.107	1	46
425.449	1	31
425.790	1	43
426.131	1	27
426.472	1	48
426.814	1	37
427.155	1	34
427.496	1	43
427.837	1	41
428.179	1	52
428.520	1	41
428.861	1	38
429.202	1	30
429.544	1	31
429.885	1	41
430.226	1	17
430.567	1	23
430.909	1	35
431.250	1	44
431.591	1	39
431.932	1	25
432.273	1	37
432.615	1	29
432.956	1	33
433.297	1	33
433.638	1	34
433.979	1	36
434.320	1	41
434.662	1	39
435.003	1	40
435.344	1	24
435.685	1	28
436.026	1	23
436.368	1	31
436.709	1	27
437.050	1	33
437.391	1	38
437.732	1	35
438.073	1	31
438.414	1	40
438.756	1	21
439.097	1	38
439.438	1	38
439.779	1	33
440.120	1	20
440.461	1	31
440.802	1	35
441.143	1	23
441.485	1	27
441.826	1	38
442.167	1	27
442.508	1	31
442.849	1	22
443.190	1	31
443.531	1	35
443.872	1	19
444.213	1	16
444.554	1	35
444.895	1	31
445.237	1	33
445.578	1	26
445.919	1	34
446.260	1	32
446.601	1	35
446.942	1	32
447.283	1	28
447.624	1	15
447.965	1	27
448.306	1	37
448.647	1	22
448.988	1	37
449.329	1	25
449.670	1	26
450.011	1	27
450.352	1	25
450.693	1	28
451.034	1	26
451.375	1	27
451.716	1	23
452.057	1	34
452.398	1	27
452.739	1	28
453.080	1	31
453.421	1	24
453.762	1	35
454.103	1	28
454.444	1	26
454.785	1	24
455.126	1	29
455.467	1	30
455.808	1	31
456.149	1	21
456.490	1	28
456.831	1	25
457.172	1	21
457.513	1	27
457.854	1	26
458.195	1	34
458.536	1	34
458.877	1	27
459.218	1	32
459.559	1	29
459.899	1	20
460.240	1	21
460.581	1	16
460.922	1	25
461.263	1	35
461.604	1	32
461.945	1	26
462.286	1	23
462.627	1	24
462.968	1	24
463.309	1	27
463.649	1	26
463.990	1	22
464.331	1	33
464.672	1	32
465.013	1	30
465.354	1	33
465.695	1	22
466.036	1	40
466.376	1	34
466.717	1	14
467.058	1	33
467.399	1	29
467.740	1	38
468.081	1	23
468.422	1	31
468.762	1	31
469.103	1	28
469.444	1	22
469.785	1	25
470.126	1	42
470.467	1	30
470.807	1	30
471.148	1	10
471.489	1	35
471.830	1	25
472.171	1	23
472.511	1	29
472.852	1	30
473.193	1	26
473.534	1	35
473.875	1	36
474.215	1	26
474.556	1	29
474.897	1	21
475.238	1	40
475.578	1	29
475.919	1	24
476.260	1	29
476.601	1	28
476.942	1	39
477.282	1	31
477.623	1	34
477.964	1	35
478.305	1	35
478.645	1	39
478.986	1	43
479.327	1	35
479.667	1	44
480.008	1	38
480.349	1	30
480.690	1	40
481.030	1	26
481.371	1	35
481.712	1	45
482.053	1	44
482.393	1	34
482.734	1	36
483.075	1	42
483.415	1	44
483.756	1	43
484.097	1	44
484.437	1	59
484.778	1	41
485.119	1	51
485.459	1	42
485.800	1	41
486.141	1	50
486.481	1	42
486.822	1	57
487.163	1	47
487.503	1	46
487.844	1	47
488.185	1	65
488.525	1	50
488.866	1	53
489.207	1	56
489.547	1	62
489.888	1	75
490.228	1	67
490.569	1	66
490.910	1	63
491.250	1	63
491.591	1	64
491.932	1	68
492.272	1	66
492.613	1	68
492.953	1	70
493.294	1	43
493.635	1	76
493.975	1	78
494.316	1	61
494.656	1	77
494.997	1	70
495.337	1	70
495.678	1	78
496.019	1	80
496.359	1	76
496.700	1	80
497.040	1	74
497.381	1	84
497.721	1	85
498.062	1	86
498.403	1	92
498.743	1	86
499.084	1	88
499.424	1	95
499.765	1	104
500.105	1	100
500.446	1	95
500.786	1	101
501.127	1	107
501.467	1	116
501.808	1	108
502.148	1	111
502.489	1	113
502.829	1	114
503.170	1	131
503.510	1	110
503.851	1	131
504.191	1	118
504.532	1	143
504.872	1	124
505.213	1	124
505.553	1	133
505.894	1	140
506.234	1	150
506.575	1	150
506.915	1	138
507.256	1	134
507.596	1	146
507.936	1	146
508.277	1	140
508.617	1	138
508.958	1	154
509.298	1	134
509.639	1	151
509.979	1	141
510.319	1	151
510.660	1	156
511.000	1	148
511.341	1	159
511.681	1	161
512.022	1	149
512.362	1	168
512.702	1	155
513.043	1	159
513.383	1	174
513.724	1	162
514.064	1	179
514.404	1	165
514.745	1	171
515.085	1	177
515.425	1	174
515.766	1	171
516.106	1	163
516.447	1	191
516.787	1	180
517.127	1	198
517.468	1	182
517.808	1	170
518.148	1	202
518.489	1	191
518.829	1	195
519.169	1	195
519.510	1	183
519.850	1	191
520.190	1	193
520.531	1	187
520.871	1	201
521.211	1	208
521.552	1	196
521.892	1	203
522.232	1	199
522.573	1	202
522.913	1	207
523.253	1	205
523.593	1	213
523.934	1	218
524.274	1	202
524.614	1	205
524.955	1	198
525.295	1	209
525.635	1	204
525.975	1	210
526.316	1	188
526.656	1	196
526.996	1	212
527.337	1	219
527.677	1	230
528.017	1	203
528.357	1	222
528.698	1	226
529.038	1	222
529.378	1	216
529.718	1	219
530.058	1	229
530.399	1	214
530.739	1	237
531.079	1	219
531.419	1	228
531.760	1	238
532.100	1	228
532.440	1	224
532.780	1	233
533.120	1	218
533.461	1	218
533.801	1	241
534.141	1	230
534.481	1	221
534.821	1	225
535.162	1	217
535.502	1	213
535.842	1	211
536.182	1	225
536.522	1	208
536.862	1	191
537.203	1	215
537.543	1	203
537.883	1	196
538.223	1	196
538.563	1	195
538.903	1	193
539.243	1	187
539.584	1	180
539.924	1	184
540.264	1	201
540.604	1	196
540.944	1	204
541.284	1	191
541.624	1	189
541.964	1	195
542.305	1	205
542.645	1	182
542.985	1	198
543.325	1	201
543.665	1	192
544.005	1	200
544.345	1	190
544.685	1	199
545.025	1	197
545.365	1	208
545.705	1	209
546.045	1	205
546.386	1	210
546.726	1	205
547.066	1	210
547.406	1	201
547.746	1	203
548.086	1	199
548.426	1	191
548.766	1	211
549.106	1	192
549.446	1	214
549.786	1	209
550.126	1	211
550.466	1	198
550.806	1	209
551.146	1	196
551.486	1	204
551.826	1	174
552.166	1	191
552.506	1	194
552.846	1	202
553.186	1	186
553.526	1	192
553.866	1	181
554.206	1	196
554.546	1	182
554.886	1	179
555.226	1	179
555.566	1	176
555.906	1	166
556.246	1	183
556.586	1	172
556.926	1	177
557.266	1	175
557.606	1	161
557.946	1	177
558.286	1	146
558.626	1	164
558.966	1	160
559.306	1	161
559.646	1	167
559.986	1	168
560.325	1	165
560.665	1	154
561.005	1	160
561.345	1	160
561.685	1	160
562.025	1	153
562.365	1	158
562.705	1	149
563.045	1	149
563.385	1	159
563.725	1	158
564.064	1	144
564.404	1	153
564.744	1	162
565.084	1	167
565.424	1	152
565.764	1	142
566.104	1	161
566.444	1	157
566.783	1	153
567.123	1	145
567.463	1	158
567.803	1	149
568.143	1	148
568.483	1	149
568.823	1	136
569.162	1	142
569.502	1	144
569.842	1	143
570.182	1	138
570.522	1	136
570.862	1	132
571.201	1	136
571.541	1	140
571.881	1	142
572.221	1	124
572.561	1	130
572.900	1	145
573.240	1	115
573.580	1	125
573.920	1	134
574.260	1	135
574.599	1	122
574.939	1	134
575.279	1	131
575.619	1	117
575.959	1	119
576.298	1	124
576.638	1	139
576.978	1	132
577.318	1	123
577.657	1	114
577.997	1	127
578.337	1	128
578.677	1	135
579.016	1	112
579.356	1	130
579.696	1	121
580.036	1	133
580.375	1	126
580.715	1	118
581.055	1	125
581.394	1	122
581.734	1	118
582.074	1	123
582.414	1	119
582.753	1	118
583.093	1	121
583.433	1	129
583.772	1	126
584.112	1	120
584.452	1	115
584.791	1	119
585.131	1	116
585.471	1	109
585.811	1	104
586.150	1	108
586.490	1	103
586.830	1	105
587.169	1	104
587.509	1	112
587.849	1	108
588.188	1	109
588.528	1	101
588.867	1	103
589.207	1	90
589.547	1	103
589.886	1	109
590.226	1	88
590.566	1	100
590.905	1	97
591.245	1	80
591.585	1	82
591.924	1	82
592.264	1	99
592.603	1	79
592.943	1	88
593.283	1	94
593.622	1	89
593.962	1	95
594.301	1	92
594.641	1	79
594.981	1	86
595.320	1	99
595.660	1	99
595.999	1	91
596.339	1	77
596.678	1	84
597.018	1	79
597.358	1	86
597.697	1	83
598.037	1	77
598.376	1	67
598.716	1	88
599.055	1	93
599.395	1	96
599.734	1	97
600.074	1	84
600.413	1	87
600.753	1	99
601.092	1	73
601.432	1	85
601.771	1	94
602.111	1	77
602.451	1	78
602.790	1	88
603.130	1	79
603.469	1	85
603.809	1	95
604.148	1	80
604.487	1	90
604.827	1	96
605.166	1	84
605.506	1	87
605.845	1	100
606.185	1	85
606.524	1	81
606.864	1	99
607.203	1	95
607.543	1	86
607.882	1	96
608.222	1	88
608.561	1	71
608.901	1	82
609.240	1	86
609.579	1	79
609.919	1	65
610.258	1	81
610.598	1	78
610.937	1	84
611.277	1	81
611.616	1	92
611.955	1	80
612.295	1	72
612.634	1	76
612.974	1	76
613.313	1	76
613.652	1	84
613.992	1	64
614.331	1	83
614.671	1	77
615.010	1	69
615.349	1	80
615.689	1	65
616.028	1	82
616.368	1	75
616.707	1	71
617.046	1	74
617.386	1	71
617.725	1	61
618.064	1	69
618.404	1	71
618.743	1	72
619.082	1	73
619.422	1	76
619.761	1	76
620.100	1	56
620.440	1	67
620.779	1	69
621.118	1	72
621.458	1	68
621.797	1	72
622.136	1	60
622.476	1	63
622.815	1	59
623.154	1	64
623.494	1	54
623.833	1	56
624.172	1	59
624.511	1	68
624.851	1	71
625.190	1	58
625.529	1	61
625.869	1	70
626.208	1	63
626.547	1	56
626.886	1	62
627.226	1	62
627.565	1	59
627.904	1	52
628.243	1	71
628.583	1	71
628.922	1	67
629.261	1	58
629.600	1	62
629.940	1	65
630.279	1	59
630.618	1	74
630.957	1	55
631.297	1	62
631.636	1	64
631.975	1	63
632.314	1	62
632.653	1	61
632.993	1	60
633.332	1	57
633.671	1	64
634.010	1	59
634.349	1	53
634.689	1	57
635.028	1	50
635.367	1	64
635.706	1	61
636.045	1	46
636.384	1	66
636.724	1	51
637.063	1	49
637.402	1	51
637.741	1	51
638.080	1	54
638.419	1	52
638.759	1	65
639.098	1	52
639.437	1	54
639.776	1	54
640.115	1	48
640.454	1	57
640.793	1	59
641.132	1	54
641.472	1	65
641.811	1	53
642.150	1	52
642.489	1	55
642.828	1	61
643.167	1	57
643.506	1	51
643.845	1	60
644.184	1	58
644.524	1	56
644.863	1	56
645.202	1	53
645.541	1	57
645.880	1	67
646.219	1	53
646.558	1	44
646.897	1	53
647.236	1	44
647.575	1	64
647.914	1	44
648.253	1	48
648.592	1	62
648.931	1	55
649.270	1	56
649.610	1	63
649.949	1	51
650.288	1	62
650.627	1	44
650.966	1	59
651.305	1	49
651.644	1	49
651.983	1	39
652.322	1	36
652.661	1	51
653.000	1	44
653.339	1	46
653.678	1	61
654.017	1	51
654.356	1	59
654.695	1	63
655.034	1	39
655.373	1	53
655.712	1	57
656.051	1	51
656.390	1	57
656.729	1	45
657.068	1	51
657.406	1	47
657.745	1	62
658.084	1	43
658.423	1	53
658.762	1	46
659.101	1	35
659.440	1	40
659.779	1	47
660.118	1	43
660.457	1	43
660.796	1	49
661.135	1	37
661.474	1	51
661.813	1	40
662.152	1	41
662.491	1	39
662.829	1	44
663.168	1	33
663.507	1	52
663.846	1	40
664.185	1	44
664.524	1	47
664.863	1	33
665.202	1	41
665.541	1	36
665.879	1	34
666.218	1	47
666.557	1	35
666.896	1	39
667.235	1	38
667.574	1	39
667.913	1	46
668.251	1	26
668.590	1	43
668.929	1	49
669.268	1	39
669.607	1	31
669.946	1	40
670.285	1	42
670.623	1	45
670.962	1	32
671.301	1	41
671.640	1	44
671.979	1	39
672.317	1	47
672.656	1	40
672.995	1	45
673.334	1	49
673.673	1	52
674.011	1	40
674.350	1	41
674.689	1	38
675.028	1	51
675.367	1	45
675.705	1	30
676.044	1	40
676.383	1	38
676.722	1	39
677.060	1	39
677.399	1	52
677.738	1	41
678.077	1	43
678.416	1	45
678.754	1	40
679.093	1	44
679.432	1	31
679.771	1	45
680.109	1	42
680.448	1	37
680.787	1	40
681.125	1	35
681.464	1	34
681.803	1	42
682.142	1	43
682.480	1	34
682.819	1	31
683.158	1	35
683.496	1	36
683.835	1	46
684.174	1	43
684.512	1	39
684.851	1	34
685.190	1	36
685.529	1	35
685.867	1	43
686.206	1	34
686.545	1	38
686.883	1	38
687.222	1	47
687.561	1	49
687.899	1	48
688.238	1	54
688.577	1	49
688.746	1	52