File: Data/GaN_150K_450ms/GaN_sample D_spot15_UVVIS_150 K_200um_450 ms 2x2mm1_123.txt
340.368	1	1
340.710	1	11
341.052	1	3
341.394	1	-7
341.737	1	8
342.079	1	7
342.421	1	3
342.763	1	1
343.105	1	15
343.447	1	11
343.789	1	5
344.131	1	-2
344.473	1	5
344.815	1	4
345.157	1	18
345.499	1	0
345.841	1	11
346.183	1	0
346.526	1	7
346.868	1	2
347.210	1	2
347.552	1	15
347.894	1	-1
348.236	1	3
348.578	1	9
348.920	1	12
349.262	1	18
349.604	1	4
349.946	1	-2
350.288	1	-8
350.630	1	-1
350.972	1	11
351.314	1	7
351.656	1	12
351.998	1	6
352.340	1	21
352.682	1	-9
353.024	1	17
353.366	1	13
353.708	1	6
354.050	1	0
354.392	1	-3
354.734	1	17
355.076	1	16
355.418	1	11
355.760	1	10
356.102	1	8
356.444	1	14
356.785	1	16
357.127	1	17
357.469	1	15
357.811	1	12
358.153	1	-3
358.495	1	8
358.837	1	14
359.179	1	10
359.521	1	18
359.863	1	8
360.205	1	24
360.547	1	23
360.889	1	11
361.231	1	21
361.572	1	21
361.914	1	20
362.256	1	26
362.598	1	26
362.940	1	23
363.282	1	21
363.624	1	33
363.966	1	31
364.308	1	32
364.649	1	38
364.991	1	50
365.333	1	26
365.675	1	49
366.017	1	51
366.359	1	47
366.701	1	44
367.042	1	56
367.384	1	55
367.726	1	46
368.068	1	61
368.410	1	62
368.752	1	72
369.093	1	61
369.435	1	55
369.777	1	60
370.119	1	53
370.461	1	47
370.803	1	44
371.144	1	45
371.486	1	46
371.828	1	39
372.170	1	40
372.512	1	37
372.853	1	44
373.195	1	41
373.537	1	24
373.879	1	41
374.220	1	34
374.562	1	44
374.904	1	41
375.246	1	24
375.588	1	24
375.929	1	34
376.271	1	25
376.613	1	31
376.955	1	28
377.296	1	37
377.638	1	19
377.980	1	24
378.321	1	15
378.663	1	14
379.005	1	14
379.347	1	17
379.688	1	25
380.030	1	28
380.372	1	14
380.714	1	15
381.055	1	14
381.397	1	-1
381.739	1	1
382.080	1	14
382.422	1	13
382.764	1	15
383.105	1	10
383.447	1	14
383.789	1	2
384.130	1	10
384.472	1	7
384.814	1	18
385.156	1	12
385.497	1	16
385.839	1	12
386.180	1	8
386.522	1	20
386.864	1	3
387.205	1	20
387.547	1	14
387.889	1	9
388.230	1	6
388.572	1	2
388.914	1	11
389.255	1	5
389.597	1	1
389.939	1	15
390.280	1	8
390.622	1	3
390.963	1	-1
391.305	1	6
391.647	1	8
391.988	1	11
392.330	1	13
392.671	1	5
393.013	1	16
393.355	1	13
393.696	1	10
394.038	1	8
394.379	1	15
394.721	1	7
395.062	1	10
395.404	1	6
395.746	1	-3
396.087	1	11
396.429	1	20
396.770	1	5
397.112	1	7
397.453	1	2
397.795	1	7
398.136	1	13
398.478	1	8
398.819	1	4
399.161	1	3
399.503	1	14
399.844	1	-6
400.186	1	4
400.527	1	10
400.869	1	7
401.210	1	14
401.552	1	14
401.893	1	3
402.235	1	21
402.576	1	13
402.918	1	5
403.259	1	7
403.601	1	19
403.942	1	8
404.284	1	19
404.625	1	14
404.967	1	12
405.308	1	-6
405.649	1	14
405.991	1	6
406.332	1	13
406.674	1	3
407.015	1	10
407.357	1	6
407.698	1	18
408.040	1	28
408.381	1	-5
408.722	1	8
409.064	1	14
409.405	1	5
409.747	1	5
410.088	1	19
410.430	1	12
410.771	1	8
411.112	1	8
411.454	1	11
411.795	1	14
412.137	1	9
412.478	1	16
412.819	1	17
413.161	1	19
413.502	1	16
413.844	1	17
414.185	1	3
414.526	1	1
414.868	1	9
415.209	1	15
415.550	1	13
415.892	1	13
416.233	1	14
416.575	1	5
416.916	1	16
417.257	1	2
417.599	1	15
417.940	1	5
418.281	1	19
418.623	1	12
418.964	1	17
419.305	1	16
419.647	1	12
419.988	1	21
420.329	1	19
420.671	1	15
421.012	1	9
421.353	1	18
421.695	1	19
422.036	1	24
422.377	1	14
422.718	1	21
423.060	1	13
423.401	1	16
423.742	1	15
424.084	1	11
424.425	1	17
424.766	1	12
425.107	1	15
425.449	1	8
425.790	1	13
426.131	1	2
426.472	1	22
426.814	1	5
427.155	1	13
427.496	1	9
427.837	1	3
428.179	1	7
428.520	1	18
428.861	1	23
429.202	1	-6
429.544	1	15
429.885	1	17
430.226	1	-3
430.567	1	3
430.909	1	6
431.250	1	19
431.591	1	20
431.932	1	15
432.273	1	19
432.615	1	6
432.956	1	8
433.297	1	7
433.638	1	14
433.979	1	17
434.320	1	7
434.662	1	13
435.003	1	17
435.344	1	13
435.685	1	10
436.026	1	12
436.368	1	1
436.709	1	15
437.050	1	2
437.391	1	6
437.732	1	13
438.073	1	8
438.414	1	19
438.756	1	17
439.097	1	12
439.438	1	12
439.779	1	11
440.120	1	2
440.461	1	12
440.802	1	11
441.143	1	10
441.485	1	4
441.826	1	11
442.167	1	13
442.508	1	6
442.849	1	11
443.190	1	17
443.531	1	14
443.872	1	4
444.213	1	8
444.554	1	21
444.895	1	4
445.237	1	15
445.578	1	5
445.919	1	10
446.260	1	20
446.601	1	4
446.942	1	10
447.283	1	18
447.624	1	-3
447.965	1	7
448.306	1	9
448.647	1	12
448.988	1	15
449.329	1	13
449.670	1	2
450.011	1	9
450.352	1	9
450.693	1	12
451.034	1	13
451.375	1	9
451.716	1	1
452.057	1	7
452.398	1	12
452.739	1	6
453.080	1	3
453.421	1	12
453.762	1	5
454.103	1	11
454.444	1	5
454.785	1	11
455.126	1	13
455.467	1	4
455.808	1	12
456.149	1	3
456.490	1	10
456.831	1	2
457.172	1	15
457.513	1	6
457.854	1	9
458.195	1	-2
458.536	1	11
458.877	1	11
459.218	1	13
459.559	1	7
459.899	1	-1
460.240	1	12
460.581	1	5
460.922	1	8
461.263	1	8
461.604	1	5
461.945	1	13
462.286	1	8
462.627	1	8
462.968	1	6
463.309	1	18
463.649	1	-8
463.990	1	7
464.331	1	14
464.672	1	8
465.013	1	11
465.354	1	20
465.695	1	8
466.036	1	9
466.376	1	17
466.717	1	-1
467.058	1	2
467.399	1	-3
467.740	1	12
468.081	1	10
468.422	1	5
468.762	1	11
469.103	1	0
469.444	1	16
469.785	1	7
470.126	1	-3
470.467	1	-2
470.807	1	6
471.148	1	1
471.489	1	11
471.830	1	3
472.171	1	17
472.511	1	7
472.852	1	9
473.193	1	11
473.534	1	7
473.875	1	-5
474.215	1	1
474.556	1	7
474.897	1	-3
475.238	1	13
475.578	1	1
475.919	1	6
476.260	1	7
476.601	1	4
476.942	1	-2
477.282	1	-4
477.623	1	-2
477.964	1	4
478.305	1	8
478.645	1	7
478.986	1	12
479.327	1	3
479.667	1	2
480.008	1	4
480.349	1	-6
480.690	1	6
481.030	1	3
481.371	1	-3
481.712	1	18
482.053	1	10
482.393	1	-2
482.734	1	9
483.075	1	22
483.415	1	12
483.756	1	12
484.097	1	9
484.437	1	9
484.778	1	9
485.119	1	4
485.459	1	7
485.800	1	3
486.141	1	13
486.481	1	1
486.822	1	16
487.163	1	5
487.503	1	4
487.844	1	-8
488.185	1	7
488.525	1	-1
488.866	1	0
489.207	1	16
489.547	1	2
489.888	1	13
490.228	1	7
490.569	1	5
490.910	1	16
491.250	1	9
491.591	1	6
491.932	1	15
492.272	1	0
492.613	1	6
492.953	1	12
493.294	1	-3
493.635	1	9
493.975	1	19
494.316	1	6
494.656	1	14
494.997	1	4
495.337	1	4
495.678	1	6
496.019	1	2
496.359	1	7
496.700	1	10
497.040	1	3
497.381	1	11
497.721	1	3
498.062	1	0
498.403	1	1
498.743	1	8
499.084	1	7
499.424	1	9
499.765	1	8
500.105	1	22
500.446	1	11
500.786	1	5
501.127	1	17
501.467	1	19
501.808	1	5
502.148	1	3
502.489	1	2
502.829	1	6
503.170	1	17
503.510	1	11
503.851	1	16
504.191	1	-6
504.532	1	13
504.872	1	0
505.213	1	-1
505.553	1	13
505.894	1	18
506.234	1	16
506.575	1	20
506.915	1	14
507.256	1	7
507.596	1	20
507.936	1	24
508.277	1	11
508.617	1	18
508.958	1	10
509.298	1	-2
509.639	1	8
509.979	1	10
510.319	1	20
510.660	1	6
511.000	1	5
511.341	1	18
511.681	1	15
512.022	1	6
512.362	1	24
512.702	1	7
513.043	1	11
513.383	1	18
513.724	1	13
514.064	1	11
514.404	1	26
514.745	1	7
515.085	1	12
515.425	1	14
515.766	1	12
516.106	1	9
516.447	1	18
516.787	1	16
517.127	1	26
517.468	1	21
517.808	1	4
518.148	1	23
518.489	1	7
518.829	1	17
519.169	1	10
519.510	1	5
519.850	1	18
520.190	1	11
520.531	1	15
520.871	1	12
521.211	1	17
521.552	1	9
521.892	1	13
522.232	1	18
522.573	1	16
522.913	1	21
523.253	1	11
523.593	1	21
523.934	1	11
524.274	1	13
524.614	1	17
524.955	1	10
525.295	1	13
525.635	1	19
525.975	1	9
526.316	1	11
526.656	1	13
526.996	1	10
527.337	1	17
527.677	1	24
528.017	1	2
528.357	1	9
528.698	1	15
529.038	1	21
529.378	1	14
529.718	1	16
530.058	1	16
530.399	1	11
530.739	1	19
531.079	1	21
531.419	1	11
531.760	1	21
532.100	1	23
532.440	1	18
532.780	1	18
533.120	1	6
533.461	1	16
533.801	1	22
534.141	1	20
534.481	1	29
534.821	1	12
535.162	1	9
535.502	1	16
535.842	1	17
536.182	1	4
536.522	1	5
536.862	1	20
537.203	1	13
537.543	1	17
537.883	1	17
538.223	1	22
538.563	1	13
538.903	1	13
539.243	1	11
539.584	1	19
539.924	1	14
540.264	1	27
540.604	1	13
540.944	1	15
541.284	1	14
541.624	1	6
541.964	1	16
542.305	1	23
542.645	1	5
542.985	1	6
543.325	1	27
543.665	1	9
544.005	1	13
544.345	1	20
544.685	1	14
545.025	1	32
545.365	1	14
545.705	1	2
546.045	1	14
546.386	1	7
546.726	1	11
547.066	1	14
547.406	1	5
547.746	1	18
548.086	1	12
548.426	1	11
548.766	1	18
549.106	1	1
549.446	1	16
549.786	1	17
550.126	1	17
550.466	1	11
550.806	1	22
551.146	1	9
551.486	1	12
551.826	1	11
552.166	1	13
552.506	1	14
552.846	1	11
553.186	1	9
553.526	1	9
553.866	1	13
554.206	1	19
554.546	1	8
554.886	1	16
555.226	1	15
555.566	1	10
555.906	1	11
556.246	1	11
556.586	1	12
556.926	1	10
557.266	1	21
557.606	1	7
557.946	1	16
558.286	1	1
558.626	1	13
558.966	1	11
559.306	1	14
559.646	1	22
559.986	1	21
560.325	1	6
560.665	1	15
561.005	1	8
561.345	1	11
561.685	1	18
562.025	1	9
562.365	1	6
562.705	1	15
563.045	1	-1
563.385	1	20
563.725	1	1
564.064	1	9
564.404	1	3
564.744	1	19
565.084	1	14
565.424	1	5
565.764	1	12
566.104	1	5
566.444	1	17
566.783	1	8
567.123	1	8
567.463	1	14
567.803	1	11
568.143	1	9
568.483	1	25
568.823	1	5
569.162	1	-5
569.502	1	11
569.842	1	3
570.182	1	2
570.522	1	9
570.862	1	-2
571.201	1	14
571.541	1	4
571.881	1	6
572.221	1	7
572.561	1	17
572.900	1	19
573.240	1	9
573.580	1	9
573.920	1	9
574.260	1	20
574.599	1	6
574.939	1	15
575.279	1	3
575.619	1	15
575.959	1	6
576.298	1	-5
576.638	1	7
576.978	1	12
577.318	1	15
577.657	1	4
577.997	1	4
578.337	1	13
578.677	1	2
579.016	1	0
579.356	1	11
579.696	1	8
580.036	1	12
580.375	1	15
580.715	1	13
581.055	1	9
581.394	1	1
581.734	1	18
582.074	1	10
582.414	1	12
582.753	1	11
583.093	1	6
583.433	1	10
583.772	1	7
584.112	1	13
584.452	1	12
584.791	1	5
585.131	1	-1
585.471	1	8
585.811	1	8
586.150	1	18
586.490	1	8
586.830	1	4
587.169	1	3
587.509	1	10
587.849	1	15
588.188	1	9
588.528	1	2
588.867	1	12
589.207	1	1
589.547	1	13
589.886	1	10
590.226	1	-3
590.566	1	-1
590.905	1	8
591.245	1	0
591.585	1	9
591.924	1	-3
592.264	1	5
592.603	1	-7
592.943	1	3
593.283	1	11
593.622	1	-3
593.962	1	15
594.301	1	-1
594.641	1	8
594.981	1	8
595.320	1	14
595.660	1	10
595.999	1	7
596.339	1	10
596.678	1	-9
597.018	1	-3
597.358	1	8
597.697	1	3
598.037	1	10
598.376	1	-5
598.716	1	11
599.055	1	9
599.395	1	7
599.734	1	4
600.074	1	-3
600.413	1	5
600.753	1	8
601.092	1	2
601.432	1	-2
601.771	1	14
602.111	1	7
602.451	1	4
602.790	1	-4
603.130	1	3
603.469	1	6
603.809	1	7
604.148	1	-3
604.487	1	5
604.827	1	14
605.166	1	6
605.506	1	-3
605.845	1	10
606.185	1	4
606.524	1	2
606.864	1	13
607.203	1	10
607.543	1	8
607.882	1	7
608.222	1	1
608.561	1	9
608.901	1	2
609.240	1	5
609.579	1	1
609.919	1	-4
610.258	1	18
610.598	1	-6
610.937	1	-1
611.277	1	11
611.616	1	10
611.955	1	4
612.295	1	4
612.634	1	9
612.974	1	4
613.313	1	15
613.652	1	13
613.992	1	3
614.331	1	13
614.671	1	6
615.010	1	4
615.349	1	5
615.689	1	-3
616.028	1	26
616.368	1	14
616.707	1	16
617.046	1	4
617.386	1	11
617.725	1	1
618.064	1	3
618.404	1	1
618.743	1	8
619.082	1	26
619.422	1	17
619.761	1	-1
620.100	1	7
620.440	1	11
620.779	1	1
621.118	1	13
621.458	1	-1
621.797	1	1
622.136	1	6
622.476	1	1
622.815	1	5
623.154	1	-7
623.494	1	1
623.833	1	5
624.172	1	7
624.511	1	-3
624.851	1	-1
625.190	1	5
625.529	1	6
625.869	1	8
626.208	1	-2
626.547	1	4
626.886	1	3
627.226	1	11
627.565	1	0
627.904	1	2
628.243	1	8
628.583	1	12
628.922	1	13
629.261	1	-6
629.600	1	-4
629.940	1	7
630.279	1	8
630.618	1	11
630.957	1	2
631.297	1	10
631.636	1	4
631.975	1	10
632.314	1	9
632.653	1	7
632.993	1	8
633.332	1	3
633.671	1	4
634.010	1	-4
634.349	1	9
634.689	1	1
635.028	1	-4
635.367	1	16
635.706	1	-2
636.045	1	-6
636.384	1	17
636.724	1	16
637.063	1	-6
637.402	1	7
637.741	1	1
638.080	1	-1
638.419	1	-2
638.759	1	6
639.098	1	7
639.437	1	4
639.776	1	4
640.115	1	-5
640.454	1	0
640.793	1	13
641.132	1	5
641.472	1	14
641.811	1	1
642.150	1	0
642.489	1	3
642.828	1	13
643.167	1	3
643.506	1	4
643.845	1	11
644.184	1	11
644.524	1	-2
644.863	1	4
645.202	1	2
645.541	1	7
645.880	1	14
646.219	1	-2
646.558	1	-7
646.897	1	-5
647.236	1	-8
647.575	1	12
647.914	1	11
648.253	1	9
648.592	1	7
648.931	1	12
649.270	1	12
649.610	1	9
649.949	1	-3
650.288	1	3
650.627	1	7
650.966	1	0
651.305	1	10
651.644	1	9
651.983	1	-4
652.322	1	5
652.661	1	8
653.000	1	0
653.339	1	8
653.678	1	16
654.017	1	7
654.356	1	10
654.695	1	14
655.034	1	-4
655.373	1	2
655.712	1	13
656.051	1	-6
656.390	1	-4
656.729	1	14
657.068	1	2
657.406	1	-3
657.745	1	9
658.084	1	4
658.423	1	8
658.762	1	4
659.101	1	-3
659.440	1	5
659.779	1	12
660.118	1	2
660.457	1	5
660.796	1	10
661.135	1	6
661.474	1	9
661.813	1	3
662.152	1	1
662.491	1	-6
662.829	1	3
663.168	1	1
663.507	1	13
663.846	1	5
664.185	1	1
664.524	1	13
664.863	1	6
665.202	1	5
665.541	1	7
665.879	1	8
666.218	1	8
666.557	1	7
666.896	1	4
667.235	1	4
667.574	1	3
667.913	1	11
668.251	1	0
668.590	1	0
668.929	1	-2
669.268	1	7
669.607	1	-2
669.946	1	0
670.285	1	8
670.623	1	5
670.962	1	4
671.301	1	5
671.640	1	10
671.979	1	5
672.317	1	3
672.656	1	7
672.995	1	6
673.334	1	2
673.673	1	17
674.011	1	5
674.350	1	8
674.689	1	-4
675.028	1	8
675.367	1	6
675.705	1	-2
676.044	1	-6
676.383	1	7
676.722	1	4
677.060	1	15
677.399	1	12
677.738	1	9
678.077	1	1
678.416	1	2
678.754	1	5
679.093	1	16
679.432	1	-7
679.771	1	7
680.109	1	-1
680.448	1	2
680.787	1	-7
681.125	1	-2
681.464	1	1
681.803	1	-7
682.142	1	6
682.480	1	-4
682.819	1	2
683.158	1	-6
683.496	1	6
683.835	1	10
684.174	1	8
684.512	1	4
684.851	1	2
685.190	1	4
685.529	1	-9
685.867	1	1
686.206	1	-5
686.545	1	4
686.883	1	14
687.222	1	5
687.561	1	3
687.899	1	7
688.238	1	10
688.577	1	1
688.746	1	8