File: Data/GaN_150K_450ms/GaN_sample D_spot15_UVVIS_150 K_200um_450 ms 2x2mm1_92.txt
340.368	1	6
340.710	1	3
341.052	1	2
341.394	1	-15
341.737	1	10
342.079	1	8
342.421	1	6
342.763	1	-5
343.105	1	10
343.447	1	2
343.789	1	6
344.131	1	-3
344.473	1	1
344.815	1	8
345.157	1	2
345.499	1	8
345.841	1	12
346.183	1	3
346.526	1	11
346.868	1	-1
347.210	1	3
347.552	1	9
347.894	1	4
348.236	1	13
348.578	1	5
348.920	1	14
349.262	1	13
349.604	1	10
349.946	1	-3
350.288	1	-3
350.630	1	9
350.972	1	14
351.314	1	4
351.656	1	7
351.998	1	4
352.340	1	17
352.682	1	-3
353.024	1	21
353.366	1	14
353.708	1	2
354.050	1	2
354.392	1	2
354.734	1	10
355.076	1	21
355.418	1	0
355.760	1	11
356.102	1	8
356.444	1	21
356.785	1	3
357.127	1	26
357.469	1	19
357.811	1	17
358.153	1	0
358.495	1	14
358.837	1	24
359.179	1	21
359.521	1	30
359.863	1	17
360.205	1	36
360.547	1	34
360.889	1	13
361.231	1	35
361.572	1	43
361.914	1	49
362.256	1	36
362.598	1	49
362.940	1	46
363.282	1	53
363.624	1	46
363.966	1	60
364.308	1	75
364.649	1	71
364.991	1	82
365.333	1	78
365.675	1	94
366.017	1	90
366.359	1	93
366.701	1	101
367.042	1	109
367.384	1	122
367.726	1	112
368.068	1	125
368.410	1	129
368.752	1	123
369.093	1	128
369.435	1	108
369.777	1	108
370.119	1	104
370.461	1	97
370.803	1	96
371.144	1	94
371.486	1	87
371.828	1	73
372.170	1	67
372.512	1	64
372.853	1	73
373.195	1	65
373.537	1	57
373.879	1	57
374.220	1	64
374.562	1	56
374.904	1	57
375.246	1	43
375.588	1	45
375.929	1	44
376.271	1	31
376.613	1	49
376.955	1	40
377.296	1	48
377.638	1	36
377.980	1	32
378.321	1	39
378.663	1	29
379.005	1	26
379.347	1	32
379.688	1	36
380.030	1	36
380.372	1	33
380.714	1	23
381.055	1	36
381.397	1	31
381.739	1	14
382.080	1	21
382.422	1	27
382.764	1	21
383.105	1	22
383.447	1	20
383.789	1	12
384.130	1	13
384.472	1	15
384.814	1	15
385.156	1	19
385.497	1	28
385.839	1	26
386.180	1	28
386.522	1	20
386.864	1	11
387.205	1	20
387.547	1	17
387.889	1	14
388.230	1	20
388.572	1	6
388.914	1	23
389.255	1	15
389.597	1	12
389.939	1	19
390.280	1	16
390.622	1	13
390.963	1	11
391.305	1	19
391.647	1	12
391.988	1	11
392.330	1	7
392.671	1	19
393.013	1	20
393.355	1	22
393.696	1	13
394.038	1	10
394.379	1	8
394.721	1	17
395.062	1	9
395.404	1	18
395.746	1	0
396.087	1	17
396.429	1	13
396.770	1	20
397.112	1	13
397.453	1	9
397.795	1	9
398.136	1	12
398.478	1	14
398.819	1	22
399.161	1	16
399.503	1	17
399.844	1	6
400.186	1	10
400.527	1	13
400.869	1	12
401.210	1	14
401.552	1	-1
401.893	1	15
402.235	1	13
402.576	1	18
402.918	1	5
403.259	1	11
403.601	1	17
403.942	1	13
404.284	1	30
404.625	1	13
404.967	1	15
405.308	1	1
405.649	1	14
405.991	1	16
406.332	1	15
406.674	1	20
407.015	1	16
407.357	1	19
407.698	1	21
408.040	1	26
408.381	1	4
408.722	1	12
409.064	1	23
409.405	1	21
409.747	1	12
410.088	1	5
410.430	1	22
410.771	1	14
411.112	1	13
411.454	1	24
411.795	1	21
412.137	1	10
412.478	1	12
412.819	1	20
413.161	1	21
413.502	1	26
413.844	1	33
414.185	1	8
414.526	1	1
414.868	1	11
415.209	1	13
415.550	1	7
415.892	1	19
416.233	1	15
416.575	1	5
416.916	1	8
417.257	1	15
417.599	1	18
417.940	1	-2
418.281	1	20
418.623	1	12
418.964	1	29
419.305	1	15
419.647	1	19
419.988	1	20
420.329	1	20
420.671	1	23
421.012	1	18
421.353	1	20
421.695	1	22
422.036	1	15
422.377	1	12
422.718	1	19
423.060	1	16
423.401	1	11
423.742	1	21
424.084	1	21
424.425	1	17
424.766	1	11
425.107	1	11
425.449	1	12
425.790	1	6
426.131	1	11
426.472	1	22
426.814	1	8
427.155	1	14
427.496	1	12
427.837	1	17
428.179	1	22
428.520	1	17
428.861	1	23
429.202	1	3
429.544	1	19
429.885	1	13
430.226	1	4
430.567	1	3
430.909	1	14
431.250	1	17
431.591	1	12
431.932	1	11
432.273	1	21
432.615	1	7
432.956	1	15
433.297	1	16
433.638	1	21
433.979	1	14
434.320	1	12
434.662	1	13
435.003	1	13
435.344	1	18
435.685	1	10
436.026	1	22
436.368	1	10
436.709	1	12
437.050	1	16
437.391	1	11
437.732	1	24
438.073	1	12
438.414	1	16
438.756	1	18
439.097	1	18
439.438	1	21
439.779	1	5
440.120	1	17
440.461	1	14
440.802	1	21
441.143	1	13
441.485	1	5
441.826	1	10
442.167	1	18
442.508	1	6
442.849	1	19
443.190	1	14
443.531	1	12
443.872	1	12
444.213	1	5
444.554	1	19
444.895	1	11
445.237	1	17
445.578	1	6
445.919	1	15
446.260	1	19
446.601	1	19
446.942	1	8
447.283	1	16
447.624	1	3
447.965	1	9
448.306	1	14
448.647	1	5
448.988	1	14
449.329	1	15
449.670	1	11
450.011	1	2
450.352	1	13
450.693	1	7
451.034	1	8
451.375	1	10
451.716	1	6
452.057	1	10
452.398	1	20
452.739	1	9
453.080	1	13
453.421	1	10
453.762	1	8
454.103	1	7
454.444	1	6
454.785	1	13
455.126	1	12
455.467	1	6
455.808	1	11
456.149	1	-4
456.490	1	2
456.831	1	10
457.172	1	13
457.513	1	5
457.854	1	0
458.195	1	17
458.536	1	13
458.877	1	8
459.218	1	16
459.559	1	9
459.899	1	6
460.240	1	14
460.581	1	4
460.922	1	3
461.263	1	16
461.604	1	-2
461.945	1	17
462.286	1	6
462.627	1	7
462.968	1	13
463.309	1	12
463.649	1	7
463.990	1	16
464.331	1	19
464.672	1	15
465.013	1	5
465.354	1	18
465.695	1	5
466.036	1	13
466.376	1	24
466.717	1	-6
467.058	1	5
467.399	1	-3
467.740	1	27
468.081	1	6
468.422	1	13
468.762	1	11
469.103	1	4
469.444	1	15
469.785	1	8
470.126	1	16
470.467	1	7
470.807	1	15
471.148	1	-1
471.489	1	11
471.830	1	12
472.171	1	20
472.511	1	4
472.852	1	10
473.193	1	14
473.534	1	16
473.875	1	3
474.215	1	8
474.556	1	-1
474.897	1	-1
475.238	1	11
475.578	1	2
475.919	1	13
476.260	1	7
476.601	1	11
476.942	1	14
477.282	1	4
477.623	1	11
477.964	1	6
478.305	1	17
478.645	1	5
478.986	1	14
479.327	1	7
479.667	1	4
480.008	1	-1
480.349	1	12
480.690	1	17
481.030	1	5
481.371	1	3
481.712	1	7
482.053	1	17
482.393	1	6
482.734	1	8
483.075	1	10
483.415	1	14
483.756	1	6
484.097	1	13
484.437	1	10
484.778	1	6
485.119	1	6
485.459	1	4
485.800	1	5
486.141	1	12
486.481	1	5
486.822	1	21
487.163	1	7
487.503	1	15
487.844	1	0
488.185	1	18
488.525	1	10
488.866	1	14
489.207	1	11
489.547	1	9
489.888	1	19
490.228	1	17
490.569	1	9
490.910	1	14
491.250	1	16
491.591	1	16
491.932	1	13
492.272	1	10
492.613	1	10
492.953	1	13
493.294	1	1
493.635	1	12
493.975	1	25
494.316	1	2
494.656	1	21
494.997	1	4
495.337	1	7
495.678	1	8
496.019	1	19
496.359	1	16
496.700	1	13
497.040	1	8
497.381	1	19
497.721	1	12
498.062	1	18
498.403	1	13
498.743	1	23
499.084	1	15
499.424	1	17
499.765	1	25
500.105	1	24
500.446	1	15
500.786	1	16
501.127	1	21
501.467	1	27
501.808	1	14
502.148	1	6
502.489	1	23
502.829	1	14
503.170	1	15
503.510	1	18
503.851	1	18
504.191	1	17
504.532	1	30
504.872	1	11
505.213	1	13
505.553	1	28
505.894	1	17
506.234	1	27
506.575	1	41
506.915	1	21
507.256	1	34
507.596	1	28
507.936	1	31
508.277	1	20
508.617	1	25
508.958	1	35
509.298	1	28
509.639	1	13
509.979	1	28
510.319	1	32
510.660	1	23
511.000	1	20
511.341	1	32
511.681	1	31
512.022	1	13
512.362	1	23
512.702	1	13
513.043	1	22
513.383	1	20
513.724	1	30
514.064	1	26
514.404	1	29
514.745	1	36
515.085	1	35
515.425	1	24
515.766	1	27
516.106	1	19
516.447	1	30
516.787	1	21
517.127	1	50
517.468	1	37
517.808	1	25
518.148	1	23
518.489	1	30
518.829	1	35
519.169	1	27
519.510	1	30
519.850	1	27
520.190	1	33
520.531	1	29
520.871	1	30
521.211	1	35
521.552	1	16
521.892	1	33
522.232	1	37
522.573	1	26
522.913	1	35
523.253	1	24
523.593	1	40
523.934	1	32
524.274	1	28
524.614	1	27
524.955	1	24
525.295	1	31
525.635	1	24
525.975	1	29
526.316	1	21
526.656	1	31
526.996	1	27
527.337	1	37
527.677	1	37
528.017	1	23
528.357	1	27
528.698	1	38
529.038	1	39
529.378	1	37
529.718	1	26
530.058	1	37
530.399	1	23
530.739	1	38
531.079	1	42
531.419	1	31
531.760	1	52
532.100	1	42
532.440	1	25
532.780	1	40
533.120	1	28
533.461	1	35
533.801	1	43
534.141	1	33
534.481	1	53
534.821	1	31
535.162	1	40
535.502	1	31
535.842	1	25
536.182	1	27
536.522	1	22
536.862	1	16
537.203	1	38
537.543	1	26
537.883	1	20
538.223	1	30
538.563	1	22
538.903	1	34
539.243	1	28
539.584	1	28
539.924	1	36
540.264	1	37
540.604	1	30
540.944	1	29
541.284	1	25
541.624	1	22
541.964	1	30
542.305	1	28
542.645	1	30
542.985	1	22
543.325	1	23
543.665	1	28
544.005	1	23
544.345	1	37
544.685	1	26
545.025	1	36
545.365	1	25
545.705	1	36
546.045	1	30
546.386	1	23
546.726	1	37
547.066	1	21
547.406	1	23
547.746	1	15
548.086	1	25
548.426	1	23
548.766	1	25
549.106	1	23
549.446	1	31
549.786	1	30
550.126	1	28
550.466	1	29
550.806	1	34
551.146	1	25
551.486	1	12
551.826	1	23
552.166	1	22
552.506	1	14
552.846	1	27
553.186	1	20
553.526	1	23
553.866	1	23
554.206	1	31
554.546	1	31
554.886	1	14
555.226	1	29
555.566	1	23
555.906	1	13
556.246	1	25
556.586	1	20
556.926	1	22
557.266	1	30
557.606	1	10
557.946	1	23
558.286	1	6
558.626	1	19
558.966	1	17
559.306	1	17
559.646	1	18
559.986	1	25
560.325	1	19
560.665	1	14
561.005	1	19
561.345	1	18
561.685	1	17
562.025	1	17
562.365	1	26
562.705	1	22
563.045	1	19
563.385	1	26
563.725	1	16
564.064	1	11
564.404	1	10
564.744	1	21
565.084	1	20
565.424	1	11
565.764	1	13
566.104	1	30
566.444	1	26
566.783	1	16
567.123	1	14
567.463	1	13
567.803	1	29
568.143	1	15
568.483	1	17
568.823	1	14
569.162	1	8
569.502	1	13
569.842	1	19
570.182	1	10
570.522	1	12
570.862	1	9
571.201	1	32
571.541	1	20
571.881	1	10
572.221	1	24
572.561	1	24
572.900	1	24
573.240	1	14
573.580	1	19
573.920	1	18
574.260	1	20
574.599	1	20
574.939	1	15
575.279	1	8
575.619	1	12
575.959	1	8
576.298	1	9
576.638	1	14
576.978	1	20
577.318	1	23
577.657	1	13
577.997	1	22
578.337	1	8
578.677	1	13
579.016	1	13
579.356	1	10
579.696	1	10
580.036	1	12
580.375	1	9
580.715	1	17
581.055	1	17
581.394	1	7
581.734	1	16
582.074	1	13
582.414	1	7
582.753	1	3
583.093	1	14
583.433	1	21
583.772	1	19
584.112	1	9
584.452	1	23
584.791	1	10
585.131	1	15
585.471	1	14
585.811	1	16
586.150	1	9
586.490	1	10
586.830	1	13
587.169	1	7
587.509	1	8
587.849	1	20
588.188	1	20
588.528	1	8
588.867	1	13
589.207	1	12
589.547	1	14
589.886	1	6
590.226	1	10
590.566	1	11
590.905	1	8
591.245	1	5
591.585	1	0
591.924	1	3
592.264	1	7
592.603	1	-9
592.943	1	9
593.283	1	5
593.622	1	3
593.962	1	14
594.301	1	4
594.641	1	14
594.981	1	15
595.320	1	15
595.660	1	10
595.999	1	13
596.339	1	3
596.678	1	-7
597.018	1	8
597.358	1	13
597.697	1	1
598.037	1	10
598.376	1	2
598.716	1	10
599.055	1	12
599.395	1	3
599.734	1	6
600.074	1	3
600.413	1	5
600.753	1	7
601.092	1	5
601.432	1	3
601.771	1	18
602.111	1	12
602.451	1	3
602.790	1	10
603.130	1	12
603.469	1	12
603.809	1	6
604.148	1	3
604.487	1	6
604.827	1	15
605.166	1	7
605.506	1	3
605.845	1	15
606.185	1	3
606.524	1	-2
606.864	1	17
607.203	1	17
607.543	1	8
607.882	1	15
608.222	1	4
608.561	1	12
608.901	1	8
609.240	1	7
609.579	1	3
609.919	1	14
610.258	1	14
610.598	1	-3
610.937	1	10
611.277	1	18
611.616	1	8
611.955	1	0
612.295	1	5
612.634	1	9
612.974	1	7
613.313	1	14
613.652	1	14
613.992	1	6
614.331	1	23
614.671	1	4
615.010	1	13
615.349	1	13
615.689	1	7
616.028	1	18
616.368	1	10
616.707	1	8
617.046	1	2
617.386	1	23
617.725	1	-2
618.064	1	-10
618.404	1	6
618.743	1	8
619.082	1	19
619.422	1	18
619.761	1	10
620.100	1	5
620.440	1	9
620.779	1	9
621.118	1	19
621.458	1	-2
621.797	1	7
622.136	1	-1
622.476	1	13
622.815	1	11
623.154	1	0
623.494	1	3
623.833	1	2
624.172	1	11
624.511	1	-1
624.851	1	2
625.190	1	10
625.529	1	4
625.869	1	15
626.208	1	1
626.547	1	-9
626.886	1	7
627.226	1	7
627.565	1	17
627.904	1	2
628.243	1	22
628.583	1	13
628.922	1	12
629.261	1	2
629.600	1	11
629.940	1	9
630.279	1	17
630.618	1	13
630.957	1	21
631.297	1	9
631.636	1	2
631.975	1	13
632.314	1	15
632.653	1	8
632.993	1	8
633.332	1	4
633.671	1	16
634.010	1	7
634.349	1	20
634.689	1	6
635.028	1	3
635.367	1	9
635.706	1	7
636.045	1	3
636.384	1	20
636.724	1	12
637.063	1	-3
637.402	1	14
637.741	1	-5
638.080	1	10
638.419	1	7
638.759	1	11
639.098	1	1
639.437	1	13
639.776	1	8
640.115	1	3
640.454	1	7
640.793	1	2
641.132	1	2
641.472	1	18
641.811	1	11
642.150	1	11
642.489	1	14
642.828	1	16
643.167	1	10
643.506	1	8
643.845	1	10
644.184	1	10
644.524	1	8
644.863	1	6
645.202	1	5
645.541	1	6
645.880	1	13
646.219	1	3
646.558	1	-9
646.897	1	-4
647.236	1	0
647.575	1	12
647.914	1	8
648.253	1	14
648.592	1	13
648.931	1	16
649.270	1	13
649.610	1	5
649.949	1	4
650.288	1	10
650.627	1	-8
650.966	1	8
651.305	1	4
651.644	1	23
651.983	1	-2
652.322	1	9
652.661	1	2
653.000	1	6
653.339	1	4
653.678	1	13
654.017	1	12
654.356	1	15
654.695	1	17
655.034	1	0
655.373	1	2
655.712	1	13
656.051	1	-3
656.390	1	7
656.729	1	-3
657.068	1	3
657.406	1	-6
657.745	1	10
658.084	1	6
658.423	1	10
658.762	1	-4
659.101	1	-4
659.440	1	12
659.779	1	7
660.118	1	9
660.457	1	7
660.796	1	12
661.135	1	16
661.474	1	8
661.813	1	12
662.152	1	6
662.491	1	1
662.829	1	15
663.168	1	0
663.507	1	2
663.846	1	1
664.185	1	6
664.524	1	4
664.863	1	-3
665.202	1	1
665.541	1	12
665.879	1	10
666.218	1	4
666.557	1	6
666.896	1	15
667.235	1	4
667.574	1	5
667.913	1	5
668.251	1	-6
668.590	1	1
668.929	1	8
669.268	1	0
669.607	1	-4
669.946	1	3
670.285	1	10
670.623	1	8
670.962	1	-2
671.301	1	2
671.640	1	6
671.979	1	0
672.317	1	7
672.656	1	12
672.995	1	8
673.334	1	-1
673.673	1	17
674.011	1	8
674.350	1	7
674.689	1	2
675.028	1	17
675.367	1	1
675.705	1	4
676.044	1	6
676.383	1	0
676.722	1	9
677.060	1	21
677.399	1	9
677.738	1	5
678.077	1	1
678.416	1	-5
678.754	1	11
679.093	1	18
679.432	1	-3
679.771	1	3
680.109	1	5
680.448	1	7
680.787	1	-6
681.125	1	4
681.464	1	10
681.803	1	1
682.142	1	-4
682.480	1	6
682.819	1	-1
683.158	1	7
683.496	1	8
683.835	1	2
684.174	1	8
684.512	1	6
684.851	1	5
685.190	1	8
685.529	1	3
685.867	1	10
686.206	1	1
686.545	1	4
686.883	1	17
687.222	1	4
687.561	1	8
687.899	1	4
688.238	1	15
688.577	1	3
688.746	1	6