File: Data/GaN_150K_450ms/GaN_sample D_spot15_UVVIS_150 K_200um_450 ms 2x2mm1_171.txt
340.368	1	4
340.710	1	8
341.052	1	4
341.394	1	-9
341.737	1	1
342.079	1	6
342.421	1	6
342.763	1	6
343.105	1	-1
343.447	1	9
343.789	1	4
344.131	1	-8
344.473	1	9
344.815	1	9
345.157	1	12
345.499	1	1
345.841	1	5
346.183	1	1
346.526	1	11
346.868	1	2
347.210	1	1
347.552	1	18
347.894	1	0
348.236	1	1
348.578	1	6
348.920	1	-2
349.262	1	2
349.604	1	5
349.946	1	3
350.288	1	-3
350.630	1	1
350.972	1	11
351.314	1	5
351.656	1	3
351.998	1	3
352.340	1	7
352.682	1	-9
353.024	1	13
353.366	1	7
353.708	1	-2
354.050	1	3
354.392	1	-4
354.734	1	20
355.076	1	19
355.418	1	-1
355.760	1	12
356.102	1	9
356.444	1	16
356.785	1	4
357.127	1	17
357.469	1	1
357.811	1	2
358.153	1	-9
358.495	1	4
358.837	1	15
359.179	1	12
359.521	1	26
359.863	1	3
360.205	1	23
360.547	1	16
360.889	1	4
361.231	1	12
361.572	1	26
361.914	1	15
362.256	1	16
362.598	1	23
362.940	1	17
363.282	1	12
363.624	1	9
363.966	1	9
364.308	1	22
364.649	1	16
364.991	1	27
365.333	1	14
365.675	1	35
366.017	1	25
366.359	1	29
366.701	1	24
367.042	1	38
367.384	1	20
367.726	1	29
368.068	1	34
368.410	1	37
368.752	1	38
369.093	1	27
369.435	1	32
369.777	1	33
370.119	1	26
370.461	1	30
370.803	1	30
371.144	1	26
371.486	1	21
371.828	1	24
372.170	1	28
372.512	1	17
372.853	1	20
373.195	1	21
373.537	1	-5
373.879	1	16
374.220	1	20
374.562	1	30
374.904	1	6
375.246	1	9
375.588	1	7
375.929	1	12
376.271	1	13
376.613	1	8
376.955	1	17
377.296	1	11
377.638	1	14
377.980	1	13
378.321	1	14
378.663	1	8
379.005	1	3
379.347	1	12
379.688	1	20
380.030	1	11
380.372	1	11
380.714	1	15
381.055	1	6
381.397	1	14
381.739	1	0
382.080	1	17
382.422	1	12
382.764	1	14
383.105	1	-1
383.447	1	8
383.789	1	7
384.130	1	16
384.472	1	9
384.814	1	10
385.156	1	9
385.497	1	12
385.839	1	11
386.180	1	5
386.522	1	9
386.864	1	5
387.205	1	10
387.547	1	11
387.889	1	1
388.230	1	9
388.572	1	2
388.914	1	10
389.255	1	2
389.597	1	3
389.939	1	18
390.280	1	6
390.622	1	2
390.963	1	-2
391.305	1	3
391.647	1	6
391.988	1	7
392.330	1	7
392.671	1	11
393.013	1	8
393.355	1	8
393.696	1	9
394.038	1	3
394.379	1	17
394.721	1	3
395.062	1	-2
395.404	1	2
395.746	1	-4
396.087	1	0
396.429	1	11
396.770	1	9
397.112	1	5
397.453	1	-2
397.795	1	0
398.136	1	5
398.478	1	-6
398.819	1	9
399.161	1	12
399.503	1	11
399.844	1	7
400.186	1	12
400.527	1	12
400.869	1	4
401.210	1	3
401.552	1	10
401.893	1	10
402.235	1	4
402.576	1	12
402.918	1	-2
403.259	1	5
403.601	1	18
403.942	1	2
404.284	1	13
404.625	1	1
404.967	1	8
405.308	1	5
405.649	1	2
405.991	1	4
406.332	1	4
406.674	1	5
407.015	1	9
407.357	1	11
407.698	1	5
408.040	1	20
408.381	1	2
408.722	1	4
409.064	1	12
409.405	1	9
409.747	1	3
410.088	1	4
410.430	1	11
410.771	1	12
411.112	1	1
411.454	1	13
411.795	1	-2
412.137	1	8
412.478	1	3
412.819	1	11
413.161	1	9
413.502	1	15
413.844	1	19
414.185	1	10
414.526	1	8
414.868	1	12
415.209	1	-4
415.550	1	6
415.892	1	15
416.233	1	7
416.575	1	0
416.916	1	6
417.257	1	8
417.599	1	4
417.940	1	9
418.281	1	14
418.623	1	5
418.964	1	20
419.305	1	7
419.647	1	-3
419.988	1	18
420.329	1	6
420.671	1	21
421.012	1	-3
421.353	1	20
421.695	1	6
422.036	1	16
422.377	1	6
422.718	1	25
423.060	1	10
423.401	1	6
423.742	1	13
424.084	1	3
424.425	1	13
424.766	1	9
425.107	1	9
425.449	1	5
425.790	1	8
426.131	1	6
426.472	1	15
426.814	1	1
427.155	1	1
427.496	1	8
427.837	1	7
428.179	1	13
428.520	1	2
428.861	1	10
429.202	1	0
429.544	1	6
429.885	1	9
430.226	1	-2
430.567	1	-1
430.909	1	1
431.250	1	14
431.591	1	7
431.932	1	10
432.273	1	14
432.615	1	1
432.956	1	13
433.297	1	20
433.638	1	9
433.979	1	1
434.320	1	13
434.662	1	10
435.003	1	20
435.344	1	4
435.685	1	5
436.026	1	5
436.368	1	-2
436.709	1	-1
437.050	1	3
437.391	1	-9
437.732	1	11
438.073	1	4
438.414	1	7
438.756	1	9
439.097	1	10
439.438	1	-6
439.779	1	18
440.120	1	12
440.461	1	3
440.802	1	9
441.143	1	11
441.485	1	5
441.826	1	5
442.167	1	7
442.508	1	2
442.849	1	9
443.190	1	-1
443.531	1	6
443.872	1	-9
444.213	1	-2
444.554	1	19
444.895	1	-2
445.237	1	7
445.578	1	-3
445.919	1	9
446.260	1	19
446.601	1	1
446.942	1	-5
447.283	1	11
447.624	1	-4
447.965	1	4
448.306	1	11
448.647	1	1
448.988	1	7
449.329	1	14
449.670	1	6
450.011	1	10
450.352	1	-3
450.693	1	10
451.034	1	7
451.375	1	7
451.716	1	7
452.057	1	2
452.398	1	13
452.739	1	-3
453.080	1	7
453.421	1	9
453.762	1	12
454.103	1	-1
454.444	1	5
454.785	1	5
455.126	1	1
455.467	1	4
455.808	1	9
456.149	1	1
456.490	1	-1
456.831	1	6
457.172	1	11
457.513	1	0
457.854	1	10
458.195	1	7
458.536	1	10
458.877	1	11
459.218	1	5
459.559	1	12
459.899	1	1
460.240	1	3
460.581	1	-3
460.922	1	1
461.263	1	11
461.604	1	6
461.945	1	10
462.286	1	-1
462.627	1	4
462.968	1	8
463.309	1	7
463.649	1	4
463.990	1	6
464.331	1	11
464.672	1	6
465.013	1	7
465.354	1	12
465.695	1	5
466.036	1	13
466.376	1	16
466.717	1	-2
467.058	1	2
467.399	1	2
467.740	1	21
468.081	1	12
468.422	1	11
468.762	1	7
469.103	1	-2
469.444	1	12
469.785	1	6
470.126	1	2
470.467	1	-6
470.807	1	12
471.148	1	-2
471.489	1	6
471.830	1	2
472.171	1	14
472.511	1	13
472.852	1	10
473.193	1	12
473.534	1	0
473.875	1	1
474.215	1	2
474.556	1	-3
474.897	1	-5
475.238	1	15
475.578	1	1
475.919	1	4
476.260	1	8
476.601	1	8
476.942	1	6
477.282	1	-8
477.623	1	7
477.964	1	9
478.305	1	2
478.645	1	9
478.986	1	2
479.327	1	3
479.667	1	-4
480.008	1	1
480.349	1	-2
480.690	1	4
481.030	1	-2
481.371	1	-2
481.712	1	17
482.053	1	17
482.393	1	7
482.734	1	7
483.075	1	8
483.415	1	2
483.756	1	6
484.097	1	9
484.437	1	9
484.778	1	-1
485.119	1	2
485.459	1	1
485.800	1	-4
486.141	1	13
486.481	1	-7
486.822	1	3
487.163	1	3
487.503	1	-4
487.844	1	-14
488.185	1	6
488.525	1	4
488.866	1	-3
489.207	1	-3
489.547	1	4
489.888	1	17
490.228	1	4
490.569	1	3
490.910	1	9
491.250	1	4
491.591	1	7
491.932	1	16
492.272	1	1
492.613	1	2
492.953	1	13
493.294	1	-3
493.635	1	8
493.975	1	13
494.316	1	0
494.656	1	13
494.997	1	-5
495.337	1	2
495.678	1	-1
496.019	1	2
496.359	1	2
496.700	1	8
497.040	1	-1
497.381	1	3
497.721	1	-1
498.062	1	0
498.403	1	3
498.743	1	-2
499.084	1	7
499.424	1	8
499.765	1	6
500.105	1	12
500.446	1	0
500.786	1	-1
501.127	1	8
501.467	1	9
501.808	1	5
502.148	1	0
502.489	1	-6
502.829	1	-8
503.170	1	9
503.510	1	0
503.851	1	13
504.191	1	2
504.532	1	5
504.872	1	6
505.213	1	-3
505.553	1	4
505.894	1	5
506.234	1	12
506.575	1	15
506.915	1	-2
507.256	1	12
507.596	1	16
507.936	1	20
508.277	1	11
508.617	1	13
508.958	1	10
509.298	1	-5
509.639	1	0
509.979	1	-2
510.319	1	7
510.660	1	0
511.000	1	15
511.341	1	17
511.681	1	4
512.022	1	-1
512.362	1	6
512.702	1	-3
513.043	1	4
513.383	1	10
513.724	1	6
514.064	1	16
514.404	1	12
514.745	1	9
515.085	1	7
515.425	1	12
515.766	1	6
516.106	1	5
516.447	1	8
516.787	1	7
517.127	1	11
517.468	1	16
517.808	1	-5
518.148	1	19
518.489	1	12
518.829	1	2
519.169	1	0
519.510	1	-4
519.850	1	14
520.190	1	3
520.531	1	8
520.871	1	9
521.211	1	13
521.552	1	10
521.892	1	9
522.232	1	-7
522.573	1	14
522.913	1	18
523.253	1	15
523.593	1	17
523.934	1	16
524.274	1	-4
524.614	1	13
524.955	1	6
525.295	1	9
525.635	1	17
525.975	1	0
526.316	1	5
526.656	1	5
526.996	1	2
527.337	1	12
527.677	1	21
528.017	1	-2
528.357	1	4
528.698	1	7
529.038	1	-1
529.378	1	9
529.718	1	0
530.058	1	12
530.399	1	7
530.739	1	10
531.079	1	2
531.419	1	12
531.760	1	14
532.100	1	16
532.440	1	11
532.780	1	5
533.120	1	18
533.461	1	-1
533.801	1	8
534.141	1	3
534.481	1	25
534.821	1	8
535.162	1	7
535.502	1	6
535.842	1	6
536.182	1	1
536.522	1	7
536.862	1	10
537.203	1	8
537.543	1	7
537.883	1	5
538.223	1	23
538.563	1	3
538.903	1	8
539.243	1	3
539.584	1	15
539.924	1	9
540.264	1	14
540.604	1	15
540.944	1	11
541.284	1	4
541.624	1	4
541.964	1	3
542.305	1	23
542.645	1	11
542.985	1	-1
543.325	1	2
543.665	1	2
544.005	1	14
544.345	1	9
544.685	1	4
545.025	1	4
545.365	1	7
545.705	1	9
546.045	1	12
546.386	1	7
546.726	1	5
547.066	1	3
547.406	1	-2
547.746	1	9
548.086	1	2
548.426	1	8
548.766	1	10
549.106	1	3
549.446	1	5
549.786	1	6
550.126	1	11
550.466	1	7
550.806	1	14
551.146	1	10
551.486	1	-1
551.826	1	4
552.166	1	3
552.506	1	-4
552.846	1	15
553.186	1	-3
553.526	1	7
553.866	1	-4
554.206	1	7
554.546	1	12
554.886	1	16
555.226	1	2
555.566	1	13
555.906	1	2
556.246	1	3
556.586	1	-1
556.926	1	4
557.266	1	5
557.606	1	-7
557.946	1	14
558.286	1	-4
558.626	1	15
558.966	1	16
559.306	1	7
559.646	1	10
559.986	1	17
560.325	1	-1
560.665	1	-3
561.005	1	5
561.345	1	0
561.685	1	9
562.025	1	1
562.365	1	6
562.705	1	9
563.045	1	7
563.385	1	5
563.725	1	5
564.064	1	9
564.404	1	0
564.744	1	12
565.084	1	11
565.424	1	-1
565.764	1	1
566.104	1	13
566.444	1	9
566.783	1	10
567.123	1	4
567.463	1	11
567.803	1	17
568.143	1	6
568.483	1	22
568.823	1	5
569.162	1	-3
569.502	1	6
569.842	1	0
570.182	1	9
570.522	1	-4
570.862	1	0
571.201	1	11
571.541	1	10
571.881	1	-1
572.221	1	8
572.561	1	16
572.900	1	9
573.240	1	0
573.580	1	8
573.920	1	12
574.260	1	7
574.599	1	14
574.939	1	-1
575.279	1	10
575.619	1	-1
575.959	1	-3
576.298	1	4
576.638	1	17
576.978	1	-1
577.318	1	1
577.657	1	3
577.997	1	2
578.337	1	-1
578.677	1	8
579.016	1	4
579.356	1	8
579.696	1	7
580.036	1	9
580.375	1	4
580.715	1	4
581.055	1	2
581.394	1	0
581.734	1	5
582.074	1	9
582.414	1	-3
582.753	1	7
583.093	1	4
583.433	1	11
583.772	1	13
584.112	1	14
584.452	1	1
584.791	1	4
585.131	1	3
585.471	1	8
585.811	1	-3
586.150	1	3
586.490	1	7
586.830	1	10
587.169	1	3
587.509	1	2
587.849	1	4
588.188	1	-1
588.528	1	-8
588.867	1	3
589.207	1	6
589.547	1	7
589.886	1	12
590.226	1	-3
590.566	1	0
590.905	1	0
591.245	1	4
591.585	1	-2
591.924	1	1
592.264	1	0
592.603	1	3
592.943	1	8
593.283	1	0
593.622	1	0
593.962	1	6
594.301	1	6
594.641	1	6
594.981	1	4
595.320	1	8
595.660	1	4
595.999	1	7
596.339	1	5
596.678	1	-2
597.018	1	0
597.358	1	5
597.697	1	-4
598.037	1	4
598.376	1	-2
598.716	1	3
599.055	1	13
599.395	1	6
599.734	1	7
600.074	1	1
600.413	1	12
600.753	1	11
601.092	1	-1
601.432	1	-3
601.771	1	8
602.111	1	6
602.451	1	-2
602.790	1	7
603.130	1	-3
603.469	1	-1
603.809	1	15
604.148	1	-10
604.487	1	2
604.827	1	8
605.166	1	6
605.506	1	-1
605.845	1	14
606.185	1	6
606.524	1	10
606.864	1	16
607.203	1	4
607.543	1	7
607.882	1	9
608.222	1	1
608.561	1	3
608.901	1	6
609.240	1	0
609.579	1	1
609.919	1	6
610.258	1	13
610.598	1	-4
610.937	1	7
611.277	1	2
611.616	1	6
611.955	1	-9
612.295	1	5
612.634	1	3
612.974	1	6
613.313	1	-4
613.652	1	10
613.992	1	0
614.331	1	13
614.671	1	5
615.010	1	-2
615.349	1	2
615.689	1	-2
616.028	1	18
616.368	1	13
616.707	1	5
617.046	1	-3
617.386	1	7
617.725	1	1
618.064	1	4
618.404	1	-5
618.743	1	-7
619.082	1	12
619.422	1	18
619.761	1	-5
620.100	1	1
620.440	1	-1
620.779	1	3
621.118	1	15
621.458	1	-1
621.797	1	3
622.136	1	-1
622.476	1	5
622.815	1	-4
623.154	1	0
623.494	1	-3
623.833	1	4
624.172	1	-3
624.511	1	-6
624.851	1	11
625.190	1	-2
625.529	1	5
625.869	1	13
626.208	1	1
626.547	1	-4
626.886	1	7
627.226	1	7
627.565	1	2
627.904	1	2
628.243	1	9
628.583	1	8
628.922	1	15
629.261	1	5
629.600	1	2
629.940	1	3
630.279	1	10
630.618	1	14
630.957	1	0
631.297	1	5
631.636	1	4
631.975	1	-2
632.314	1	4
632.653	1	3
632.993	1	8
633.332	1	8
633.671	1	7
634.010	1	1
634.349	1	10
634.689	1	0
635.028	1	-1
635.367	1	10
635.706	1	8
636.045	1	-2
636.384	1	8
636.724	1	3
637.063	1	4
637.402	1	4
637.741	1	-8
638.080	1	11
638.419	1	-6
638.759	1	2
639.098	1	5
639.437	1	6
639.776	1	0
640.115	1	-6
640.454	1	2
640.793	1	0
641.132	1	2
641.472	1	10
641.811	1	1
642.150	1	7
642.489	1	8
642.828	1	19
643.167	1	2
643.506	1	5
643.845	1	14
644.184	1	17
644.524	1	-8
644.863	1	0
645.202	1	-1
645.541	1	7
645.880	1	4
646.219	1	5
646.558	1	-8
646.897	1	-11
647.236	1	1
647.575	1	6
647.914	1	5
648.253	1	12
648.592	1	6
648.931	1	13
649.270	1	12
649.610	1	3
649.949	1	-4
650.288	1	12
650.627	1	-4
650.966	1	9
651.305	1	3
651.644	1	10
651.983	1	-7
652.322	1	8
652.661	1	3
653.000	1	10
653.339	1	-3
653.678	1	5
654.017	1	2
654.356	1	7
654.695	1	11
655.034	1	3
655.373	1	4
655.712	1	11
656.051	1	6
656.390	1	-3
656.729	1	12
657.068	1	-1
657.406	1	0
657.745	1	11
658.084	1	5
658.423	1	6
658.762	1	3
659.101	1	4
659.440	1	7
659.779	1	5
660.118	1	1
660.457	1	0
660.796	1	13
661.135	1	9
661.474	1	-1
661.813	1	-1
662.152	1	2
662.491	1	-4
662.829	1	5
663.168	1	9
663.507	1	1
663.846	1	5
664.185	1	-1
664.524	1	12
664.863	1	-20
665.202	1	6
665.541	1	-1
665.879	1	4
666.218	1	11
666.557	1	-1
666.896	1	6
667.235	1	-5
667.574	1	-2
667.913	1	14
668.251	1	-13
668.590	1	3
668.929	1	-3
669.268	1	5
669.607	1	-6
669.946	1	0
670.285	1	9
670.623	1	-2
670.962	1	-3
671.301	1	0
671.640	1	16
671.979	1	-1
672.317	1	7
672.656	1	7
672.995	1	-2
673.334	1	2
673.673	1	10
674.011	1	6
674.350	1	2
674.689	1	-3
675.028	1	8
675.367	1	9
675.705	1	-7
676.044	1	3
676.383	1	-9
676.722	1	5
677.060	1	-2
677.399	1	7
677.738	1	-1
678.077	1	6
678.416	1	2
678.754	1	-6
679.093	1	13
679.432	1	-8
679.771	1	-2
680.109	1	-6
680.448	1	3
680.787	1	-1
681.125	1	-4
681.464	1	9
681.803	1	9
682.142	1	4
682.480	1	-3
682.819	1	2
683.158	1	7
683.496	1	-5
683.835	1	2
684.174	1	5
684.512	1	3
684.851	1	4
685.190	1	0
685.529	1	1
685.867	1	0
686.206	1	-3
686.545	1	9
686.883	1	3
687.222	1	4
687.561	1	-1
687.899	1	7
688.238	1	13
688.577	1	18
688.746	1	4