File: Data/GaN_150K_450ms/GaN_sample D_spot15_UVVIS_150 K_200um_450 ms 2x2mm1_146.txt
340.368	1	5
340.710	1	0
341.052	1	9
341.394	1	-1
341.737	1	4
342.079	1	4
342.421	1	5
342.763	1	6
343.105	1	6
343.447	1	2
343.789	1	-1
344.131	1	-2
344.473	1	1
344.815	1	9
345.157	1	7
345.499	1	5
345.841	1	6
346.183	1	11
346.526	1	7
346.868	1	-1
347.210	1	-2
347.552	1	21
347.894	1	-1
348.236	1	17
348.578	1	9
348.920	1	13
349.262	1	4
349.604	1	-5
349.946	1	13
350.288	1	3
350.630	1	2
350.972	1	11
351.314	1	-8
351.656	1	8
351.998	1	8
352.340	1	2
352.682	1	-2
353.024	1	14
353.366	1	2
353.708	1	13
354.050	1	-2
354.392	1	-10
354.734	1	4
355.076	1	18
355.418	1	8
355.760	1	10
356.102	1	3
356.444	1	11
356.785	1	13
357.127	1	12
357.469	1	9
357.811	1	-6
358.153	1	-7
358.495	1	5
358.837	1	22
359.179	1	11
359.521	1	18
359.863	1	3
360.205	1	24
360.547	1	18
360.889	1	4
361.231	1	17
361.572	1	15
361.914	1	8
362.256	1	22
362.598	1	26
362.940	1	17
363.282	1	10
363.624	1	23
363.966	1	23
364.308	1	20
364.649	1	24
364.991	1	31
365.333	1	32
365.675	1	32
366.017	1	42
366.359	1	38
366.701	1	41
367.042	1	46
367.384	1	46
367.726	1	39
368.068	1	55
368.410	1	46
368.752	1	55
369.093	1	41
369.435	1	48
369.777	1	51
370.119	1	41
370.461	1	33
370.803	1	31
371.144	1	26
371.486	1	37
371.828	1	32
372.170	1	31
372.512	1	25
372.853	1	46
373.195	1	19
373.537	1	13
373.879	1	25
374.220	1	21
374.562	1	29
374.904	1	17
375.246	1	22
375.588	1	15
375.929	1	20
376.271	1	8
376.613	1	15
376.955	1	22
377.296	1	21
377.638	1	10
377.980	1	3
378.321	1	26
378.663	1	15
379.005	1	6
379.347	1	23
379.688	1	16
380.030	1	19
380.372	1	16
380.714	1	18
381.055	1	11
381.397	1	11
381.739	1	2
382.080	1	15
382.422	1	9
382.764	1	2
383.105	1	12
383.447	1	1
383.789	1	6
384.130	1	13
384.472	1	12
384.814	1	14
385.156	1	7
385.497	1	17
385.839	1	2
386.180	1	15
386.522	1	14
386.864	1	2
387.205	1	16
387.547	1	1
387.889	1	4
388.230	1	6
388.572	1	7
388.914	1	10
389.255	1	8
389.597	1	-2
389.939	1	14
390.280	1	9
390.622	1	6
390.963	1	5
391.305	1	5
391.647	1	13
391.988	1	8
392.330	1	4
392.671	1	13
393.013	1	9
393.355	1	11
393.696	1	12
394.038	1	9
394.379	1	10
394.721	1	7
395.062	1	2
395.404	1	10
395.746	1	0
396.087	1	23
396.429	1	9
396.770	1	4
397.112	1	5
397.453	1	3
397.795	1	4
398.136	1	14
398.478	1	7
398.819	1	19
399.161	1	16
399.503	1	19
399.844	1	3
400.186	1	13
400.527	1	16
400.869	1	5
401.210	1	16
401.552	1	13
401.893	1	9
402.235	1	13
402.576	1	8
402.918	1	-2
403.259	1	9
403.601	1	19
403.942	1	-2
404.284	1	19
404.625	1	4
404.967	1	7
405.308	1	-5
405.649	1	9
405.991	1	19
406.332	1	9
406.674	1	8
407.015	1	16
407.357	1	18
407.698	1	9
408.040	1	11
408.381	1	-1
408.722	1	14
409.064	1	10
409.405	1	10
409.747	1	5
410.088	1	15
410.430	1	21
410.771	1	5
411.112	1	8
411.454	1	12
411.795	1	9
412.137	1	12
412.478	1	18
412.819	1	10
413.161	1	1
413.502	1	12
413.844	1	20
414.185	1	3
414.526	1	-1
414.868	1	8
415.209	1	9
415.550	1	15
415.892	1	11
416.233	1	16
416.575	1	5
416.916	1	5
417.257	1	19
417.599	1	10
417.940	1	-5
418.281	1	22
418.623	1	5
418.964	1	30
419.305	1	17
419.647	1	13
419.988	1	18
420.329	1	10
420.671	1	18
421.012	1	3
421.353	1	13
421.695	1	18
422.036	1	18
422.377	1	15
422.718	1	13
423.060	1	19
423.401	1	9
423.742	1	13
424.084	1	10
424.425	1	20
424.766	1	13
425.107	1	13
425.449	1	14
425.790	1	11
426.131	1	7
426.472	1	11
426.814	1	11
427.155	1	17
427.496	1	3
427.837	1	0
428.179	1	20
428.520	1	6
428.861	1	16
429.202	1	2
429.544	1	14
429.885	1	17
430.226	1	-9
430.567	1	5
430.909	1	1
431.250	1	15
431.591	1	13
431.932	1	13
432.273	1	18
432.615	1	12
432.956	1	7
433.297	1	11
433.638	1	11
433.979	1	13
434.320	1	9
434.662	1	17
435.003	1	12
435.344	1	5
435.685	1	1
436.026	1	7
436.368	1	-3
436.709	1	3
437.050	1	9
437.391	1	8
437.732	1	10
438.073	1	5
438.414	1	12
438.756	1	7
439.097	1	17
439.438	1	8
439.779	1	4
440.120	1	12
440.461	1	4
440.802	1	3
441.143	1	6
441.485	1	3
441.826	1	6
442.167	1	1
442.508	1	4
442.849	1	15
443.190	1	13
443.531	1	4
443.872	1	-6
444.213	1	0
444.554	1	20
444.895	1	1
445.237	1	13
445.578	1	3
445.919	1	9
446.260	1	15
446.601	1	15
446.942	1	2
447.283	1	14
447.624	1	-2
447.965	1	7
448.306	1	9
448.647	1	13
448.988	1	7
449.329	1	13
449.670	1	2
450.011	1	10
450.352	1	8
450.693	1	17
451.034	1	-3
451.375	1	10
451.716	1	7
452.057	1	3
452.398	1	4
452.739	1	10
453.080	1	14
453.421	1	11
453.762	1	17
454.103	1	3
454.444	1	4
454.785	1	9
455.126	1	8
455.467	1	7
455.808	1	13
456.149	1	-2
456.490	1	-5
456.831	1	1
457.172	1	19
457.513	1	6
457.854	1	6
458.195	1	4
458.536	1	11
458.877	1	15
459.218	1	11
459.559	1	5
459.899	1	4
460.240	1	4
460.581	1	3
460.922	1	10
461.263	1	5
461.604	1	4
461.945	1	11
462.286	1	1
462.627	1	8
462.968	1	8
463.309	1	7
463.649	1	4
463.990	1	5
464.331	1	17
464.672	1	-1
465.013	1	5
465.354	1	9
465.695	1	9
466.036	1	15
466.376	1	12
466.717	1	-7
467.058	1	11
467.399	1	8
467.740	1	13
468.081	1	12
468.422	1	4
468.762	1	9
469.103	1	7
469.444	1	7
469.785	1	-4
470.126	1	9
470.467	1	12
470.807	1	19
471.148	1	-5
471.489	1	11
471.830	1	5
472.171	1	10
472.511	1	6
472.852	1	8
473.193	1	12
473.534	1	1
473.875	1	13
474.215	1	11
474.556	1	-2
474.897	1	3
475.238	1	4
475.578	1	-7
475.919	1	1
476.260	1	3
476.601	1	8
476.942	1	8
477.282	1	4
477.623	1	1
477.964	1	7
478.305	1	2
478.645	1	9
478.986	1	7
479.327	1	4
479.667	1	1
480.008	1	17
480.349	1	6
480.690	1	10
481.030	1	1
481.371	1	-5
481.712	1	12
482.053	1	0
482.393	1	11
482.734	1	5
483.075	1	12
483.415	1	6
483.756	1	7
484.097	1	8
484.437	1	8
484.778	1	7
485.119	1	5
485.459	1	4
485.800	1	-8
486.141	1	16
486.481	1	-7
486.822	1	17
487.163	1	-11
487.503	1	4
487.844	1	-3
488.185	1	9
488.525	1	-4
488.866	1	1
489.207	1	7
489.547	1	6
489.888	1	10
490.228	1	4
490.569	1	6
490.910	1	3
491.250	1	7
491.591	1	6
491.932	1	12
492.272	1	-1
492.613	1	9
492.953	1	5
493.294	1	-3
493.635	1	17
493.975	1	16
494.316	1	-2
494.656	1	18
494.997	1	4
495.337	1	5
495.678	1	2
496.019	1	6
496.359	1	3
496.700	1	9
497.040	1	4
497.381	1	6
497.721	1	-7
498.062	1	-3
498.403	1	14
498.743	1	12
499.084	1	4
499.424	1	5
499.765	1	6
500.105	1	9
500.446	1	3
500.786	1	2
501.127	1	17
501.467	1	13
501.808	1	15
502.148	1	1
502.489	1	4
502.829	1	6
503.170	1	6
503.510	1	3
503.851	1	17
504.191	1	6
504.532	1	16
504.872	1	-2
505.213	1	7
505.553	1	10
505.894	1	11
506.234	1	21
506.575	1	19
506.915	1	14
507.256	1	19
507.596	1	20
507.936	1	22
508.277	1	6
508.617	1	13
508.958	1	9
509.298	1	5
509.639	1	4
509.979	1	7
510.319	1	12
510.660	1	7
511.000	1	8
511.341	1	22
511.681	1	15
512.022	1	0
512.362	1	14
512.702	1	-3
513.043	1	11
513.383	1	9
513.724	1	12
514.064	1	12
514.404	1	16
514.745	1	9
515.085	1	14
515.425	1	14
515.766	1	6
516.106	1	5
516.447	1	11
516.787	1	8
517.127	1	23
517.468	1	20
517.808	1	8
518.148	1	22
518.489	1	8
518.829	1	9
519.169	1	8
519.510	1	-3
519.850	1	11
520.190	1	-1
520.531	1	12
520.871	1	6
521.211	1	17
521.552	1	5
521.892	1	8
522.232	1	20
522.573	1	7
522.913	1	19
523.253	1	26
523.593	1	18
523.934	1	14
524.274	1	9
524.614	1	7
524.955	1	15
525.295	1	15
525.635	1	8
525.975	1	14
526.316	1	0
526.656	1	20
526.996	1	0
527.337	1	13
527.677	1	16
528.017	1	1
528.357	1	17
528.698	1	21
529.038	1	8
529.378	1	17
529.718	1	6
530.058	1	19
530.399	1	10
530.739	1	20
531.079	1	11
531.419	1	9
531.760	1	16
532.100	1	19
532.440	1	18
532.780	1	13
533.120	1	11
533.461	1	14
533.801	1	17
534.141	1	20
534.481	1	23
534.821	1	10
535.162	1	18
535.502	1	13
535.842	1	7
536.182	1	10
536.522	1	7
536.862	1	7
537.203	1	18
537.543	1	8
537.883	1	11
538.223	1	26
538.563	1	7
538.903	1	5
539.243	1	6
539.584	1	8
539.924	1	10
540.264	1	22
540.604	1	6
540.944	1	12
541.284	1	2
541.624	1	12
541.964	1	6
542.305	1	16
542.645	1	4
542.985	1	12
543.325	1	19
543.665	1	3
544.005	1	9
544.345	1	15
544.685	1	0
545.025	1	20
545.365	1	11
545.705	1	17
546.045	1	9
546.386	1	8
546.726	1	14
547.066	1	10
547.406	1	6
547.746	1	-2
548.086	1	15
548.426	1	9
548.766	1	9
549.106	1	5
549.446	1	10
549.786	1	11
550.126	1	11
550.466	1	9
550.806	1	15
551.146	1	15
551.486	1	14
551.826	1	3
552.166	1	8
552.506	1	9
552.846	1	17
553.186	1	1
553.526	1	13
553.866	1	10
554.206	1	9
554.546	1	8
554.886	1	14
555.226	1	8
555.566	1	9
555.906	1	8
556.246	1	9
556.586	1	7
556.926	1	8
557.266	1	10
557.606	1	-6
557.946	1	8
558.286	1	-11
558.626	1	9
558.966	1	10
559.306	1	4
559.646	1	11
559.986	1	14
560.325	1	16
560.665	1	0
561.005	1	8
561.345	1	7
561.685	1	14
562.025	1	5
562.365	1	9
562.705	1	9
563.045	1	8
563.385	1	13
563.725	1	7
564.064	1	-2
564.404	1	8
564.744	1	13
565.084	1	15
565.424	1	0
565.764	1	8
566.104	1	15
566.444	1	17
566.783	1	19
567.123	1	0
567.463	1	12
567.803	1	7
568.143	1	6
568.483	1	6
568.823	1	7
569.162	1	0
569.502	1	12
569.842	1	8
570.182	1	6
570.522	1	-1
570.862	1	-6
571.201	1	14
571.541	1	8
571.881	1	6
572.221	1	18
572.561	1	16
572.900	1	8
573.240	1	1
573.580	1	6
573.920	1	11
574.260	1	3
574.599	1	9
574.939	1	12
575.279	1	-7
575.619	1	1
575.959	1	-2
576.298	1	0
576.638	1	9
576.978	1	13
577.318	1	3
577.657	1	-1
577.997	1	5
578.337	1	1
578.677	1	9
579.016	1	3
579.356	1	6
579.696	1	3
580.036	1	9
580.375	1	11
580.715	1	5
581.055	1	6
581.394	1	2
581.734	1	7
582.074	1	-2
582.414	1	8
582.753	1	9
583.093	1	9
583.433	1	17
583.772	1	7
584.112	1	2
584.452	1	11
584.791	1	10
585.131	1	12
585.471	1	8
585.811	1	9
586.150	1	8
586.490	1	3
586.830	1	11
587.169	1	-2
587.509	1	4
587.849	1	8
588.188	1	10
588.528	1	7
588.867	1	2
589.207	1	9
589.547	1	8
589.886	1	9
590.226	1	9
590.566	1	-4
590.905	1	6
591.245	1	3
591.585	1	9
591.924	1	2
592.264	1	4
592.603	1	-10
592.943	1	4
593.283	1	16
593.622	1	5
593.962	1	13
594.301	1	-1
594.641	1	16
594.981	1	14
595.320	1	15
595.660	1	5
595.999	1	8
596.339	1	6
596.678	1	-2
597.018	1	-2
597.358	1	9
597.697	1	-9
598.037	1	5
598.376	1	-6
598.716	1	1
599.055	1	5
599.395	1	3
599.734	1	1
600.074	1	10
600.413	1	12
600.753	1	16
601.092	1	-8
601.432	1	0
601.771	1	13
602.111	1	4
602.451	1	-1
602.790	1	9
603.130	1	0
603.469	1	4
603.809	1	5
604.148	1	1
604.487	1	4
604.827	1	4
605.166	1	6
605.506	1	1
605.845	1	8
606.185	1	-1
606.524	1	4
606.864	1	16
607.203	1	8
607.543	1	10
607.882	1	13
608.222	1	0
608.561	1	6
608.901	1	4
609.240	1	5
609.579	1	4
609.919	1	-10
610.258	1	16
610.598	1	-4
610.937	1	3
611.277	1	5
611.616	1	12
611.955	1	3
612.295	1	-7
612.634	1	1
612.974	1	1
613.313	1	7
613.652	1	14
613.992	1	-1
614.331	1	14
614.671	1	-3
615.010	1	13
615.349	1	2
615.689	1	-1
616.028	1	13
616.368	1	0
616.707	1	5
617.046	1	3
617.386	1	13
617.725	1	4
618.064	1	3
618.404	1	3
618.743	1	6
619.082	1	19
619.422	1	19
619.761	1	3
620.100	1	5
620.440	1	10
620.779	1	11
621.118	1	17
621.458	1	-5
621.797	1	6
622.136	1	1
622.476	1	3
622.815	1	5
623.154	1	-1
623.494	1	-7
623.833	1	8
624.172	1	6
624.511	1	4
624.851	1	5
625.190	1	3
625.529	1	-1
625.869	1	13
626.208	1	0
626.547	1	-6
626.886	1	3
627.226	1	2
627.565	1	8
627.904	1	6
628.243	1	19
628.583	1	6
628.922	1	4
629.261	1	4
629.600	1	14
629.940	1	11
630.279	1	12
630.618	1	7
630.957	1	9
631.297	1	2
631.636	1	3
631.975	1	7
632.314	1	9
632.653	1	3
632.993	1	9
633.332	1	9
633.671	1	6
634.010	1	0
634.349	1	17
634.689	1	-3
635.028	1	-9
635.367	1	12
635.706	1	-1
636.045	1	-5
636.384	1	2
636.724	1	14
637.063	1	-7
637.402	1	11
637.741	1	12
638.080	1	1
638.419	1	0
638.759	1	4
639.098	1	3
639.437	1	2
639.776	1	0
640.115	1	-7
640.454	1	-4
640.793	1	6
641.132	1	6
641.472	1	12
641.811	1	0
642.150	1	3
642.489	1	14
642.828	1	22
643.167	1	7
643.506	1	9
643.845	1	12
644.184	1	16
644.524	1	3
644.863	1	5
645.202	1	7
645.541	1	7
645.880	1	11
646.219	1	7
646.558	1	-1
646.897	1	-9
647.236	1	-4
647.575	1	4
647.914	1	-2
648.253	1	7
648.592	1	11
648.931	1	7
649.270	1	22
649.610	1	8
649.949	1	3
650.288	1	7
650.627	1	8
650.966	1	18
651.305	1	2
651.644	1	8
651.983	1	-6
652.322	1	9
652.661	1	8
653.000	1	8
653.339	1	10
653.678	1	6
654.017	1	6
654.356	1	4
654.695	1	18
655.034	1	8
655.373	1	6
655.712	1	15
656.051	1	3
656.390	1	8
656.729	1	15
657.068	1	-1
657.406	1	-3
657.745	1	11
658.084	1	3
658.423	1	12
658.762	1	2
659.101	1	5
659.440	1	19
659.779	1	18
660.118	1	2
660.457	1	4
660.796	1	8
661.135	1	10
661.474	1	4
661.813	1	6
662.152	1	5
662.491	1	-1
662.829	1	6
663.168	1	2
663.507	1	0
663.846	1	-4
664.185	1	9
664.524	1	20
664.863	1	-4
665.202	1	2
665.541	1	0
665.879	1	5
666.218	1	8
666.557	1	2
666.896	1	-1
667.235	1	-10
667.574	1	11
667.913	1	10
668.251	1	-1
668.590	1	-5
668.929	1	-2
669.268	1	0
669.607	1	-7
669.946	1	1
670.285	1	3
670.623	1	5
670.962	1	3
671.301	1	3
671.640	1	7
671.979	1	-7
672.317	1	4
672.656	1	11
672.995	1	-2
673.334	1	1
673.673	1	8
674.011	1	8
674.350	1	5
674.689	1	-1
675.028	1	13
675.367	1	5
675.705	1	-8
676.044	1	-1
676.383	1	4
676.722	1	9
677.060	1	14
677.399	1	19
677.738	1	0
678.077	1	2
678.416	1	3
678.754	1	4
679.093	1	8
679.432	1	2
679.771	1	6
680.109	1	9
680.448	1	-4
680.787	1	-5
681.125	1	-3
681.464	1	6
681.803	1	-5
682.142	1	11
682.480	1	-10
682.819	1	-1
683.158	1	11
683.496	1	-1
683.835	1	8
684.174	1	-1
684.512	1	1
684.851	1	0
685.190	1	5
685.529	1	-5
685.867	1	5
686.206	1	-1
686.545	1	-2
686.883	1	12
687.222	1	-1
687.561	1	1
687.899	1	0
688.238	1	13
688.577	1	2
688.746	1	1