File: Data/GaN_150K_450ms/GaN_sample D_spot15_UVVIS_150 K_200um_450 ms 2x2mm1_149.txt
340.368	1	-2
340.710	1	3
341.052	1	7
341.394	1	-1
341.737	1	8
342.079	1	3
342.421	1	-3
342.763	1	7
343.105	1	17
343.447	1	9
343.789	1	5
344.131	1	-7
344.473	1	11
344.815	1	2
345.157	1	8
345.499	1	1
345.841	1	12
346.183	1	6
346.526	1	8
346.868	1	2
347.210	1	5
347.552	1	16
347.894	1	0
348.236	1	0
348.578	1	3
348.920	1	6
349.262	1	5
349.604	1	4
349.946	1	-1
350.288	1	0
350.630	1	7
350.972	1	12
351.314	1	-1
351.656	1	10
351.998	1	-1
352.340	1	15
352.682	1	-12
353.024	1	14
353.366	1	13
353.708	1	0
354.050	1	-2
354.392	1	-9
354.734	1	1
355.076	1	14
355.418	1	0
355.760	1	7
356.102	1	16
356.444	1	11
356.785	1	9
357.127	1	20
357.469	1	7
357.811	1	9
358.153	1	5
358.495	1	4
358.837	1	14
359.179	1	9
359.521	1	11
359.863	1	-1
360.205	1	18
360.547	1	19
360.889	1	16
361.231	1	19
361.572	1	26
361.914	1	13
362.256	1	15
362.598	1	26
362.940	1	14
363.282	1	14
363.624	1	8
363.966	1	12
364.308	1	26
364.649	1	24
364.991	1	29
365.333	1	27
365.675	1	33
366.017	1	44
366.359	1	34
366.701	1	35
367.042	1	40
367.384	1	27
367.726	1	31
368.068	1	50
368.410	1	38
368.752	1	53
369.093	1	41
369.435	1	39
369.777	1	34
370.119	1	44
370.461	1	31
370.803	1	44
371.144	1	32
371.486	1	45
371.828	1	25
372.170	1	28
372.512	1	29
372.853	1	37
373.195	1	24
373.537	1	16
373.879	1	18
374.220	1	25
374.562	1	29
374.904	1	17
375.246	1	14
375.588	1	21
375.929	1	22
376.271	1	16
376.613	1	23
376.955	1	13
377.296	1	15
377.638	1	9
377.980	1	4
378.321	1	18
378.663	1	18
379.005	1	14
379.347	1	5
379.688	1	25
380.030	1	22
380.372	1	11
380.714	1	16
381.055	1	5
381.397	1	6
381.739	1	10
382.080	1	11
382.422	1	10
382.764	1	6
383.105	1	18
383.447	1	18
383.789	1	-2
384.130	1	16
384.472	1	7
384.814	1	15
385.156	1	14
385.497	1	17
385.839	1	7
386.180	1	13
386.522	1	12
386.864	1	2
387.205	1	9
387.547	1	13
387.889	1	10
388.230	1	3
388.572	1	4
388.914	1	15
389.255	1	9
389.597	1	12
389.939	1	16
390.280	1	7
390.622	1	-2
390.963	1	-3
391.305	1	5
391.647	1	2
391.988	1	5
392.330	1	-5
392.671	1	8
393.013	1	7
393.355	1	8
393.696	1	9
394.038	1	6
394.379	1	14
394.721	1	-9
395.062	1	6
395.404	1	10
395.746	1	-5
396.087	1	10
396.429	1	10
396.770	1	9
397.112	1	8
397.453	1	-7
397.795	1	1
398.136	1	10
398.478	1	10
398.819	1	14
399.161	1	10
399.503	1	7
399.844	1	3
400.186	1	7
400.527	1	10
400.869	1	-5
401.210	1	8
401.552	1	11
401.893	1	4
402.235	1	15
402.576	1	13
402.918	1	5
403.259	1	9
403.601	1	17
403.942	1	5
404.284	1	12
404.625	1	0
404.967	1	7
405.308	1	3
405.649	1	11
405.991	1	11
406.332	1	10
406.674	1	8
407.015	1	13
407.357	1	9
407.698	1	14
408.040	1	16
408.381	1	6
408.722	1	19
409.064	1	12
409.405	1	5
409.747	1	6
410.088	1	17
410.430	1	16
410.771	1	10
411.112	1	-6
411.454	1	13
411.795	1	-1
412.137	1	-2
412.478	1	8
412.819	1	19
413.161	1	3
413.502	1	9
413.844	1	14
414.185	1	4
414.526	1	5
414.868	1	3
415.209	1	8
415.550	1	7
415.892	1	11
416.233	1	11
416.575	1	-4
416.916	1	12
417.257	1	14
417.599	1	9
417.940	1	7
418.281	1	10
418.623	1	10
418.964	1	22
419.305	1	10
419.647	1	6
419.988	1	17
420.329	1	10
420.671	1	15
421.012	1	0
421.353	1	12
421.695	1	9
422.036	1	19
422.377	1	6
422.718	1	4
423.060	1	16
423.401	1	10
423.742	1	19
424.084	1	14
424.425	1	15
424.766	1	0
425.107	1	6
425.449	1	7
425.790	1	8
426.131	1	5
426.472	1	12
426.814	1	13
427.155	1	9
427.496	1	8
427.837	1	9
428.179	1	25
428.520	1	13
428.861	1	8
429.202	1	-5
429.544	1	13
429.885	1	8
430.226	1	3
430.567	1	3
430.909	1	4
431.250	1	21
431.591	1	10
431.932	1	10
432.273	1	12
432.615	1	19
432.956	1	14
433.297	1	12
433.638	1	18
433.979	1	9
434.320	1	4
434.662	1	15
435.003	1	16
435.344	1	10
435.685	1	8
436.026	1	11
436.368	1	6
436.709	1	0
437.050	1	-1
437.391	1	9
437.732	1	11
438.073	1	8
438.414	1	24
438.756	1	9
439.097	1	16
439.438	1	5
439.779	1	3
440.120	1	7
440.461	1	14
440.802	1	6
441.143	1	-1
441.485	1	2
441.826	1	7
442.167	1	12
442.508	1	9
442.849	1	11
443.190	1	8
443.531	1	5
443.872	1	-1
444.213	1	0
444.554	1	4
444.895	1	-3
445.237	1	12
445.578	1	7
445.919	1	7
446.260	1	11
446.601	1	14
446.942	1	6
447.283	1	15
447.624	1	-6
447.965	1	3
448.306	1	-2
448.647	1	12
448.988	1	3
449.329	1	4
449.670	1	16
450.011	1	10
450.352	1	2
450.693	1	6
451.034	1	6
451.375	1	12
451.716	1	5
452.057	1	14
452.398	1	12
452.739	1	5
453.080	1	0
453.421	1	11
453.762	1	11
454.103	1	0
454.444	1	5
454.785	1	-4
455.126	1	3
455.467	1	1
455.808	1	13
456.149	1	1
456.490	1	0
456.831	1	1
457.172	1	4
457.513	1	6
457.854	1	2
458.195	1	1
458.536	1	7
458.877	1	15
459.218	1	13
459.559	1	7
459.899	1	4
460.240	1	7
460.581	1	5
460.922	1	5
461.263	1	15
461.604	1	6
461.945	1	-2
462.286	1	8
462.627	1	0
462.968	1	12
463.309	1	8
463.649	1	4
463.990	1	11
464.331	1	4
464.672	1	13
465.013	1	11
465.354	1	16
465.695	1	3
466.036	1	8
466.376	1	17
466.717	1	-2
467.058	1	9
467.399	1	0
467.740	1	5
468.081	1	1
468.422	1	4
468.762	1	8
469.103	1	10
469.444	1	-3
469.785	1	16
470.126	1	14
470.467	1	5
470.807	1	16
471.148	1	6
471.489	1	18
471.830	1	12
472.171	1	11
472.511	1	4
472.852	1	11
473.193	1	-4
473.534	1	-1
473.875	1	6
474.215	1	6
474.556	1	-4
474.897	1	-10
475.238	1	2
475.578	1	1
475.919	1	0
476.260	1	2
476.601	1	7
476.942	1	0
477.282	1	2
477.623	1	-5
477.964	1	13
478.305	1	12
478.645	1	5
478.986	1	12
479.327	1	15
479.667	1	9
480.008	1	15
480.349	1	6
480.690	1	10
481.030	1	-1
481.371	1	-7
481.712	1	13
482.053	1	12
482.393	1	8
482.734	1	12
483.075	1	10
483.415	1	6
483.756	1	3
484.097	1	17
484.437	1	6
484.778	1	-4
485.119	1	2
485.459	1	1
485.800	1	3
486.141	1	9
486.481	1	-11
486.822	1	16
487.163	1	0
487.503	1	11
487.844	1	-6
488.185	1	4
488.525	1	0
488.866	1	2
489.207	1	9
489.547	1	2
489.888	1	11
490.228	1	5
490.569	1	-5
490.910	1	6
491.250	1	7
491.591	1	10
491.932	1	13
492.272	1	3
492.613	1	3
492.953	1	7
493.294	1	-7
493.635	1	7
493.975	1	12
494.316	1	5
494.656	1	14
494.997	1	2
495.337	1	8
495.678	1	7
496.019	1	3
496.359	1	1
496.700	1	9
497.040	1	3
497.381	1	-3
497.721	1	-3
498.062	1	4
498.403	1	12
498.743	1	7
499.084	1	14
499.424	1	9
499.765	1	10
500.105	1	10
500.446	1	8
500.786	1	1
501.127	1	15
501.467	1	9
501.808	1	3
502.148	1	3
502.489	1	-1
502.829	1	4
503.170	1	8
503.510	1	6
503.851	1	14
504.191	1	0
504.532	1	12
504.872	1	0
505.213	1	6
505.553	1	11
505.894	1	8
506.234	1	11
506.575	1	9
506.915	1	12
507.256	1	6
507.596	1	12
507.936	1	22
508.277	1	16
508.617	1	11
508.958	1	11
509.298	1	6
509.639	1	8
509.979	1	8
510.319	1	11
510.660	1	1
511.000	1	7
511.341	1	18
511.681	1	10
512.022	1	6
512.362	1	14
512.702	1	-9
513.043	1	10
513.383	1	11
513.724	1	10
514.064	1	13
514.404	1	18
514.745	1	8
515.085	1	6
515.425	1	13
515.766	1	9
516.106	1	9
516.447	1	13
516.787	1	7
517.127	1	19
517.468	1	23
517.808	1	-1
518.148	1	20
518.489	1	2
518.829	1	9
519.169	1	5
519.510	1	10
519.850	1	6
520.190	1	1
520.531	1	7
520.871	1	10
521.211	1	13
521.552	1	10
521.892	1	10
522.232	1	12
522.573	1	21
522.913	1	15
523.253	1	22
523.593	1	23
523.934	1	14
524.274	1	7
524.614	1	14
524.955	1	7
525.295	1	23
525.635	1	12
525.975	1	4
526.316	1	-4
526.656	1	13
526.996	1	15
527.337	1	17
527.677	1	20
528.017	1	6
528.357	1	8
528.698	1	17
529.038	1	10
529.378	1	11
529.718	1	2
530.058	1	7
530.399	1	8
530.739	1	15
531.079	1	6
531.419	1	8
531.760	1	16
532.100	1	15
532.440	1	15
532.780	1	8
533.120	1	7
533.461	1	7
533.801	1	13
534.141	1	12
534.481	1	27
534.821	1	8
535.162	1	10
535.502	1	14
535.842	1	8
536.182	1	5
536.522	1	12
536.862	1	8
537.203	1	14
537.543	1	14
537.883	1	4
538.223	1	13
538.563	1	2
538.903	1	10
539.243	1	13
539.584	1	7
539.924	1	9
540.264	1	15
540.604	1	16
540.944	1	7
541.284	1	17
541.624	1	11
541.964	1	18
542.305	1	19
542.645	1	4
542.985	1	10
543.325	1	16
543.665	1	12
544.005	1	0
544.345	1	12
544.685	1	3
545.025	1	12
545.365	1	9
545.705	1	9
546.045	1	12
546.386	1	1
546.726	1	8
547.066	1	10
547.406	1	-2
547.746	1	6
548.086	1	16
548.426	1	2
548.766	1	11
549.106	1	-1
549.446	1	20
549.786	1	8
550.126	1	16
550.466	1	3
550.806	1	17
551.146	1	9
551.486	1	10
551.826	1	5
552.166	1	9
552.506	1	6
552.846	1	14
553.186	1	-2
553.526	1	9
553.866	1	6
554.206	1	20
554.546	1	13
554.886	1	13
555.226	1	10
555.566	1	8
555.906	1	2
556.246	1	19
556.586	1	4
556.926	1	5
557.266	1	11
557.606	1	2
557.946	1	11
558.286	1	-13
558.626	1	8
558.966	1	10
559.306	1	13
559.646	1	9
559.986	1	9
560.325	1	3
560.665	1	-2
561.005	1	0
561.345	1	2
561.685	1	7
562.025	1	9
562.365	1	-3
562.705	1	15
563.045	1	5
563.385	1	14
563.725	1	4
564.064	1	-4
564.404	1	9
564.744	1	15
565.084	1	12
565.424	1	0
565.764	1	9
566.104	1	15
566.444	1	14
566.783	1	12
567.123	1	-1
567.463	1	12
567.803	1	10
568.143	1	13
568.483	1	6
568.823	1	-1
569.162	1	4
569.502	1	11
569.842	1	-3
570.182	1	5
570.522	1	4
570.862	1	-7
571.201	1	15
571.541	1	0
571.881	1	-1
572.221	1	6
572.561	1	16
572.900	1	15
573.240	1	11
573.580	1	9
573.920	1	13
574.260	1	11
574.599	1	17
574.939	1	10
575.279	1	9
575.619	1	2
575.959	1	2
576.298	1	2
576.638	1	14
576.978	1	8
577.318	1	2
577.657	1	4
577.997	1	19
578.337	1	6
578.677	1	8
579.016	1	13
579.356	1	7
579.696	1	2
580.036	1	10
580.375	1	7
580.715	1	12
581.055	1	9
581.394	1	2
581.734	1	10
582.074	1	9
582.414	1	-3
582.753	1	4
583.093	1	9
583.433	1	9
583.772	1	4
584.112	1	-2
584.452	1	3
584.791	1	-1
585.131	1	10
585.471	1	1
585.811	1	13
586.150	1	7
586.490	1	5
586.830	1	7
587.169	1	1
587.509	1	5
587.849	1	16
588.188	1	0
588.528	1	-2
588.867	1	11
589.207	1	5
589.547	1	5
589.886	1	11
590.226	1	-2
590.566	1	2
590.905	1	6
591.245	1	-2
591.585	1	6
591.924	1	-1
592.264	1	3
592.603	1	-1
592.943	1	-1
593.283	1	11
593.622	1	6
593.962	1	14
594.301	1	9
594.641	1	16
594.981	1	11
595.320	1	2
595.660	1	6
595.999	1	8
596.339	1	1
596.678	1	-7
597.018	1	2
597.358	1	9
597.697	1	-3
598.037	1	-8
598.376	1	-3
598.716	1	0
599.055	1	-1
599.395	1	0
599.734	1	1
600.074	1	-1
600.413	1	6
600.753	1	3
601.092	1	-5
601.432	1	-5
601.771	1	7
602.111	1	-4
602.451	1	-3
602.790	1	9
603.130	1	7
603.469	1	9
603.809	1	3
604.148	1	-7
604.487	1	10
604.827	1	6
605.166	1	0
605.506	1	-2
605.845	1	15
606.185	1	-1
606.524	1	9
606.864	1	11
607.203	1	5
607.543	1	11
607.882	1	6
608.222	1	7
608.561	1	4
608.901	1	13
609.240	1	4
609.579	1	1
609.919	1	-4
610.258	1	21
610.598	1	1
610.937	1	-4
611.277	1	7
611.616	1	11
611.955	1	1
612.295	1	6
612.634	1	-2
612.974	1	-4
613.313	1	11
613.652	1	15
613.992	1	2
614.331	1	11
614.671	1	3
615.010	1	9
615.349	1	3
615.689	1	0
616.028	1	18
616.368	1	14
616.707	1	6
617.046	1	5
617.386	1	20
617.725	1	1
618.064	1	-4
618.404	1	2
618.743	1	2
619.082	1	20
619.422	1	14
619.761	1	4
620.100	1	10
620.440	1	8
620.779	1	9
621.118	1	13
621.458	1	3
621.797	1	2
622.136	1	6
622.476	1	3
622.815	1	8
623.154	1	-7
623.494	1	-12
623.833	1	1
624.172	1	8
624.511	1	0
624.851	1	1
625.190	1	-4
625.529	1	11
625.869	1	7
626.208	1	-5
626.547	1	-2
626.886	1	0
627.226	1	8
627.565	1	15
627.904	1	2
628.243	1	12
628.583	1	10
628.922	1	5
629.261	1	5
629.600	1	-3
629.940	1	7
630.279	1	7
630.618	1	17
630.957	1	2
631.297	1	11
631.636	1	4
631.975	1	7
632.314	1	5
632.653	1	-1
632.993	1	0
633.332	1	7
633.671	1	11
634.010	1	4
634.349	1	17
634.689	1	1
635.028	1	7
635.367	1	6
635.706	1	-3
636.045	1	0
636.384	1	8
636.724	1	-3
637.063	1	2
637.402	1	9
637.741	1	-1
638.080	1	7
638.419	1	3
638.759	1	-2
639.098	1	0
639.437	1	10
639.776	1	4
640.115	1	-10
640.454	1	-5
640.793	1	5
641.132	1	2
641.472	1	6
641.811	1	2
642.150	1	4
642.489	1	10
642.828	1	13
643.167	1	5
643.506	1	-5
643.845	1	11
644.184	1	15
644.524	1	1
644.863	1	6
645.202	1	5
645.541	1	8
645.880	1	5
646.219	1	4
646.558	1	-2
646.897	1	0
647.236	1	-7
647.575	1	16
647.914	1	6
648.253	1	9
648.592	1	0
648.931	1	9
649.270	1	3
649.610	1	9
649.949	1	1
650.288	1	9
650.627	1	0
650.966	1	12
651.305	1	4
651.644	1	6
651.983	1	6
652.322	1	1
652.661	1	7
653.000	1	5
653.339	1	7
653.678	1	15
654.017	1	18
654.356	1	5
654.695	1	25
655.034	1	7
655.373	1	5
655.712	1	6
656.051	1	-9
656.390	1	7
656.729	1	12
657.068	1	-3
657.406	1	-2
657.745	1	9
658.084	1	6
658.423	1	17
658.762	1	-8
659.101	1	5
659.440	1	16
659.779	1	6
660.118	1	1
660.457	1	4
660.796	1	8
661.135	1	11
661.474	1	9
661.813	1	4
662.152	1	7
662.491	1	-4
662.829	1	10
663.168	1	2
663.507	1	10
663.846	1	1
664.185	1	10
664.524	1	10
664.863	1	-5
665.202	1	7
665.541	1	11
665.879	1	10
666.218	1	9
666.557	1	4
666.896	1	6
667.235	1	4
667.574	1	3
667.913	1	7
668.251	1	-8
668.590	1	-9
668.929	1	5
669.268	1	-6
669.607	1	1
669.946	1	2
670.285	1	-1
670.623	1	-1
670.962	1	-8
671.301	1	-1
671.640	1	8
671.979	1	0
672.317	1	1
672.656	1	12
672.995	1	3
673.334	1	-6
673.673	1	9
674.011	1	10
674.350	1	14
674.689	1	1
675.028	1	3
675.367	1	0
675.705	1	-7
676.044	1	-4
676.383	1	5
676.722	1	-2
677.060	1	6
677.399	1	14
677.738	1	0
678.077	1	10
678.416	1	0
678.754	1	6
679.093	1	14
679.432	1	1
679.771	1	4
680.109	1	1
680.448	1	-3
680.787	1	-7
681.125	1	-2
681.464	1	6
681.803	1	9
682.142	1	8
682.480	1	0
682.819	1	3
683.158	1	-3
683.496	1	-2
683.835	1	4
684.174	1	10
684.512	1	5
684.851	1	-1
685.190	1	6
685.529	1	-2
685.867	1	2
686.206	1	-6
686.545	1	2
686.883	1	20
687.222	1	-5
687.561	1	0
687.899	1	11
688.238	1	10
688.577	1	9
688.746	1	1