File: Data/GaN_150K_450ms/GaN_sample D_spot15_UVVIS_150 K_200um_450 ms 2x2mm1_140.txt
340.368	1	-3
340.710	1	3
341.052	1	11
341.394	1	-15
341.737	1	16
342.079	1	1
342.421	1	4
342.763	1	0
343.105	1	8
343.447	1	3
343.789	1	13
344.131	1	1
344.473	1	-2
344.815	1	10
345.157	1	13
345.499	1	8
345.841	1	1
346.183	1	6
346.526	1	9
346.868	1	-1
347.210	1	-1
347.552	1	24
347.894	1	2
348.236	1	13
348.578	1	6
348.920	1	7
349.262	1	6
349.604	1	4
349.946	1	10
350.288	1	4
350.630	1	-5
350.972	1	10
351.314	1	-7
351.656	1	14
351.998	1	10
352.340	1	8
352.682	1	-3
353.024	1	19
353.366	1	8
353.708	1	0
354.050	1	-5
354.392	1	-6
354.734	1	5
355.076	1	14
355.418	1	1
355.760	1	14
356.102	1	7
356.444	1	13
356.785	1	7
357.127	1	14
357.469	1	5
357.811	1	14
358.153	1	-5
358.495	1	16
358.837	1	14
359.179	1	3
359.521	1	19
359.863	1	10
360.205	1	14
360.547	1	18
360.889	1	12
361.231	1	13
361.572	1	18
361.914	1	25
362.256	1	17
362.598	1	28
362.940	1	29
363.282	1	12
363.624	1	18
363.966	1	23
364.308	1	29
364.649	1	31
364.991	1	34
365.333	1	34
365.675	1	38
366.017	1	47
366.359	1	27
366.701	1	36
367.042	1	43
367.384	1	34
367.726	1	42
368.068	1	61
368.410	1	47
368.752	1	63
369.093	1	49
369.435	1	44
369.777	1	47
370.119	1	57
370.461	1	47
370.803	1	41
371.144	1	39
371.486	1	39
371.828	1	41
372.170	1	30
372.512	1	29
372.853	1	40
373.195	1	27
373.537	1	17
373.879	1	20
374.220	1	32
374.562	1	32
374.904	1	27
375.246	1	32
375.588	1	9
375.929	1	24
376.271	1	15
376.613	1	25
376.955	1	21
377.296	1	13
377.638	1	15
377.980	1	16
378.321	1	21
378.663	1	25
379.005	1	32
379.347	1	11
379.688	1	22
380.030	1	11
380.372	1	13
380.714	1	19
381.055	1	3
381.397	1	7
381.739	1	3
382.080	1	13
382.422	1	17
382.764	1	15
383.105	1	8
383.447	1	14
383.789	1	1
384.130	1	16
384.472	1	12
384.814	1	12
385.156	1	10
385.497	1	15
385.839	1	13
386.180	1	11
386.522	1	13
386.864	1	1
387.205	1	14
387.547	1	14
387.889	1	8
388.230	1	8
388.572	1	6
388.914	1	16
389.255	1	10
389.597	1	5
389.939	1	11
390.280	1	6
390.622	1	6
390.963	1	3
391.305	1	11
391.647	1	5
391.988	1	10
392.330	1	9
392.671	1	10
393.013	1	9
393.355	1	22
393.696	1	5
394.038	1	18
394.379	1	11
394.721	1	6
395.062	1	3
395.404	1	10
395.746	1	3
396.087	1	13
396.429	1	8
396.770	1	11
397.112	1	11
397.453	1	8
397.795	1	-2
398.136	1	2
398.478	1	16
398.819	1	6
399.161	1	21
399.503	1	9
399.844	1	4
400.186	1	11
400.527	1	16
400.869	1	5
401.210	1	11
401.552	1	5
401.893	1	10
402.235	1	9
402.576	1	12
402.918	1	-2
403.259	1	7
403.601	1	23
403.942	1	14
404.284	1	10
404.625	1	2
404.967	1	4
405.308	1	-6
405.649	1	5
405.991	1	6
406.332	1	4
406.674	1	6
407.015	1	11
407.357	1	16
407.698	1	8
408.040	1	17
408.381	1	8
408.722	1	15
409.064	1	13
409.405	1	5
409.747	1	7
410.088	1	9
410.430	1	21
410.771	1	13
411.112	1	8
411.454	1	8
411.795	1	12
412.137	1	3
412.478	1	11
412.819	1	15
413.161	1	2
413.502	1	10
413.844	1	24
414.185	1	10
414.526	1	6
414.868	1	5
415.209	1	7
415.550	1	8
415.892	1	12
416.233	1	9
416.575	1	4
416.916	1	10
417.257	1	5
417.599	1	17
417.940	1	1
418.281	1	16
418.623	1	5
418.964	1	21
419.305	1	13
419.647	1	11
419.988	1	18
420.329	1	8
420.671	1	10
421.012	1	4
421.353	1	20
421.695	1	16
422.036	1	19
422.377	1	6
422.718	1	11
423.060	1	13
423.401	1	12
423.742	1	19
424.084	1	13
424.425	1	12
424.766	1	3
425.107	1	16
425.449	1	5
425.790	1	18
426.131	1	8
426.472	1	13
426.814	1	11
427.155	1	7
427.496	1	13
427.837	1	11
428.179	1	16
428.520	1	21
428.861	1	18
429.202	1	2
429.544	1	10
429.885	1	14
430.226	1	-2
430.567	1	0
430.909	1	5
431.250	1	10
431.591	1	15
431.932	1	7
432.273	1	16
432.615	1	10
432.956	1	16
433.297	1	3
433.638	1	19
433.979	1	7
434.320	1	10
434.662	1	9
435.003	1	17
435.344	1	7
435.685	1	7
436.026	1	2
436.368	1	12
436.709	1	8
437.050	1	3
437.391	1	8
437.732	1	9
438.073	1	9
438.414	1	8
438.756	1	-2
439.097	1	1
439.438	1	9
439.779	1	13
440.120	1	6
440.461	1	9
440.802	1	15
441.143	1	11
441.485	1	2
441.826	1	10
442.167	1	17
442.508	1	8
442.849	1	9
443.190	1	9
443.531	1	7
443.872	1	-3
444.213	1	4
444.554	1	10
444.895	1	5
445.237	1	15
445.578	1	-2
445.919	1	11
446.260	1	17
446.601	1	10
446.942	1	10
447.283	1	14
447.624	1	-1
447.965	1	9
448.306	1	4
448.647	1	8
448.988	1	12
449.329	1	8
449.670	1	3
450.011	1	14
450.352	1	7
450.693	1	10
451.034	1	5
451.375	1	7
451.716	1	6
452.057	1	13
452.398	1	10
452.739	1	4
453.080	1	12
453.421	1	16
453.762	1	9
454.103	1	10
454.444	1	11
454.785	1	8
455.126	1	15
455.467	1	7
455.808	1	4
456.149	1	8
456.490	1	-8
456.831	1	4
457.172	1	11
457.513	1	5
457.854	1	12
458.195	1	10
458.536	1	4
458.877	1	9
459.218	1	7
459.559	1	10
459.899	1	-3
460.240	1	5
460.581	1	6
460.922	1	17
461.263	1	13
461.604	1	8
461.945	1	12
462.286	1	5
462.627	1	2
462.968	1	13
463.309	1	3
463.649	1	6
463.990	1	12
464.331	1	-4
464.672	1	15
465.013	1	6
465.354	1	10
465.695	1	12
466.036	1	16
466.376	1	6
466.717	1	-4
467.058	1	3
467.399	1	5
467.740	1	24
468.081	1	5
468.422	1	13
468.762	1	16
469.103	1	12
469.444	1	7
469.785	1	-4
470.126	1	12
470.467	1	1
470.807	1	10
471.148	1	5
471.489	1	11
471.830	1	2
472.171	1	12
472.511	1	8
472.852	1	12
473.193	1	7
473.534	1	7
473.875	1	7
474.215	1	5
474.556	1	11
474.897	1	0
475.238	1	3
475.578	1	5
475.919	1	5
476.260	1	-2
476.601	1	1
476.942	1	1
477.282	1	-3
477.623	1	-2
477.964	1	10
478.305	1	8
478.645	1	4
478.986	1	7
479.327	1	11
479.667	1	1
480.008	1	15
480.349	1	1
480.690	1	6
481.030	1	4
481.371	1	-8
481.712	1	18
482.053	1	12
482.393	1	6
482.734	1	1
483.075	1	8
483.415	1	7
483.756	1	11
484.097	1	13
484.437	1	-2
484.778	1	1
485.119	1	16
485.459	1	1
485.800	1	4
486.141	1	9
486.481	1	-6
486.822	1	10
487.163	1	3
487.503	1	-5
487.844	1	-1
488.185	1	16
488.525	1	6
488.866	1	0
489.207	1	5
489.547	1	9
489.888	1	10
490.228	1	6
490.569	1	-1
490.910	1	9
491.250	1	6
491.591	1	7
491.932	1	19
492.272	1	0
492.613	1	6
492.953	1	6
493.294	1	-2
493.635	1	10
493.975	1	13
494.316	1	1
494.656	1	10
494.997	1	-1
495.337	1	5
495.678	1	12
496.019	1	7
496.359	1	4
496.700	1	4
497.040	1	1
497.381	1	8
497.721	1	-8
498.062	1	-9
498.403	1	15
498.743	1	13
499.084	1	15
499.424	1	1
499.765	1	11
500.105	1	12
500.446	1	4
500.786	1	4
501.127	1	12
501.467	1	13
501.808	1	11
502.148	1	5
502.489	1	4
502.829	1	8
503.170	1	7
503.510	1	4
503.851	1	14
504.191	1	6
504.532	1	10
504.872	1	3
505.213	1	8
505.553	1	9
505.894	1	10
506.234	1	17
506.575	1	18
506.915	1	7
507.256	1	13
507.596	1	14
507.936	1	21
508.277	1	16
508.617	1	22
508.958	1	10
509.298	1	5
509.639	1	5
509.979	1	5
510.319	1	13
510.660	1	1
511.000	1	12
511.341	1	20
511.681	1	13
512.022	1	2
512.362	1	20
512.702	1	-3
513.043	1	8
513.383	1	11
513.724	1	6
514.064	1	17
514.404	1	15
514.745	1	12
515.085	1	8
515.425	1	12
515.766	1	4
516.106	1	2
516.447	1	16
516.787	1	6
517.127	1	11
517.468	1	17
517.808	1	0
518.148	1	17
518.489	1	8
518.829	1	14
519.169	1	7
519.510	1	1
519.850	1	18
520.190	1	1
520.531	1	13
520.871	1	10
521.211	1	15
521.552	1	4
521.892	1	10
522.232	1	16
522.573	1	13
522.913	1	16
523.253	1	19
523.593	1	23
523.934	1	12
524.274	1	13
524.614	1	6
524.955	1	10
525.295	1	15
525.635	1	17
525.975	1	0
526.316	1	3
526.656	1	19
526.996	1	8
527.337	1	13
527.677	1	19
528.017	1	4
528.357	1	9
528.698	1	13
529.038	1	15
529.378	1	16
529.718	1	6
530.058	1	10
530.399	1	8
530.739	1	13
531.079	1	14
531.419	1	15
531.760	1	17
532.100	1	28
532.440	1	7
532.780	1	17
533.120	1	17
533.461	1	11
533.801	1	8
534.141	1	2
534.481	1	23
534.821	1	14
535.162	1	17
535.502	1	16
535.842	1	6
536.182	1	12
536.522	1	10
536.862	1	12
537.203	1	14
537.543	1	12
537.883	1	13
538.223	1	23
538.563	1	6
538.903	1	5
539.243	1	11
539.584	1	3
539.924	1	11
540.264	1	16
540.604	1	12
540.944	1	11
541.284	1	11
541.624	1	6
541.964	1	5
542.305	1	15
542.645	1	11
542.985	1	4
543.325	1	22
543.665	1	5
544.005	1	19
544.345	1	17
544.685	1	2
545.025	1	21
545.365	1	21
545.705	1	8
546.045	1	20
546.386	1	12
546.726	1	10
547.066	1	9
547.406	1	9
547.746	1	9
548.086	1	11
548.426	1	18
548.766	1	6
549.106	1	-3
549.446	1	16
549.786	1	19
550.126	1	11
550.466	1	13
550.806	1	16
551.146	1	17
551.486	1	11
551.826	1	6
552.166	1	1
552.506	1	5
552.846	1	10
553.186	1	2
553.526	1	19
553.866	1	5
554.206	1	16
554.546	1	5
554.886	1	0
555.226	1	21
555.566	1	9
555.906	1	11
556.246	1	9
556.586	1	9
556.926	1	4
557.266	1	14
557.606	1	-2
557.946	1	12
558.286	1	-3
558.626	1	16
558.966	1	1
559.306	1	22
559.646	1	16
559.986	1	16
560.325	1	5
560.665	1	4
561.005	1	-1
561.345	1	4
561.685	1	5
562.025	1	8
562.365	1	2
562.705	1	11
563.045	1	6
563.385	1	9
563.725	1	10
564.064	1	1
564.404	1	5
564.744	1	6
565.084	1	1
565.424	1	-1
565.764	1	11
566.104	1	10
566.444	1	8
566.783	1	14
567.123	1	12
567.463	1	18
567.803	1	2
568.143	1	7
568.483	1	13
568.823	1	4
569.162	1	5
569.502	1	8
569.842	1	5
570.182	1	6
570.522	1	4
570.862	1	-8
571.201	1	16
571.541	1	8
571.881	1	6
572.221	1	6
572.561	1	20
572.900	1	11
573.240	1	6
573.580	1	6
573.920	1	23
574.260	1	8
574.599	1	16
574.939	1	7
575.279	1	12
575.619	1	-5
575.959	1	5
576.298	1	-5
576.638	1	12
576.978	1	13
577.318	1	7
577.657	1	5
577.997	1	6
578.337	1	4
578.677	1	11
579.016	1	5
579.356	1	8
579.696	1	7
580.036	1	5
580.375	1	9
580.715	1	12
581.055	1	8
581.394	1	2
581.734	1	10
582.074	1	10
582.414	1	6
582.753	1	7
583.093	1	7
583.433	1	16
583.772	1	14
584.112	1	8
584.452	1	2
584.791	1	11
585.131	1	14
585.471	1	6
585.811	1	-1
586.150	1	6
586.490	1	-2
586.830	1	3
587.169	1	4
587.509	1	7
587.849	1	9
588.188	1	3
588.528	1	-1
588.867	1	13
589.207	1	12
589.547	1	4
589.886	1	1
590.226	1	-2
590.566	1	2
590.905	1	5
591.245	1	-3
591.585	1	3
591.924	1	-2
592.264	1	2
592.603	1	-7
592.943	1	10
593.283	1	12
593.622	1	-6
593.962	1	6
594.301	1	-2
594.641	1	3
594.981	1	8
595.320	1	6
595.660	1	6
595.999	1	8
596.339	1	1
596.678	1	10
597.018	1	-4
597.358	1	5
597.697	1	2
598.037	1	13
598.376	1	6
598.716	1	8
599.055	1	4
599.395	1	-6
599.734	1	6
600.074	1	3
600.413	1	13
600.753	1	3
601.092	1	-11
601.432	1	-9
601.771	1	3
602.111	1	8
602.451	1	7
602.790	1	6
603.130	1	5
603.469	1	0
603.809	1	13
604.148	1	-4
604.487	1	8
604.827	1	10
605.166	1	2
605.506	1	-3
605.845	1	16
606.185	1	9
606.524	1	-5
606.864	1	18
607.203	1	3
607.543	1	13
607.882	1	13
608.222	1	10
608.561	1	3
608.901	1	3
609.240	1	-1
609.579	1	3
609.919	1	-4
610.258	1	8
610.598	1	-5
610.937	1	1
611.277	1	2
611.616	1	19
611.955	1	-10
612.295	1	9
612.634	1	6
612.974	1	11
613.313	1	5
613.652	1	15
613.992	1	5
614.331	1	9
614.671	1	9
615.010	1	5
615.349	1	7
615.689	1	-1
616.028	1	18
616.368	1	16
616.707	1	9
617.046	1	2
617.386	1	11
617.725	1	5
618.064	1	8
618.404	1	-3
618.743	1	7
619.082	1	13
619.422	1	17
619.761	1	0
620.100	1	7
620.440	1	7
620.779	1	8
621.118	1	16
621.458	1	3
621.797	1	8
622.136	1	2
622.476	1	8
622.815	1	2
623.154	1	-7
623.494	1	-2
623.833	1	2
624.172	1	0
624.511	1	0
624.851	1	-6
625.190	1	-3
625.529	1	4
625.869	1	21
626.208	1	-1
626.547	1	3
626.886	1	1
627.226	1	16
627.565	1	9
627.904	1	6
628.243	1	13
628.583	1	14
628.922	1	10
629.261	1	4
629.600	1	6
629.940	1	5
630.279	1	10
630.618	1	5
630.957	1	4
631.297	1	3
631.636	1	9
631.975	1	10
632.314	1	10
632.653	1	3
632.993	1	7
633.332	1	4
633.671	1	12
634.010	1	9
634.349	1	12
634.689	1	3
635.028	1	1
635.367	1	6
635.706	1	1
636.045	1	0
636.384	1	15
636.724	1	1
637.063	1	-7
637.402	1	3
637.741	1	3
638.080	1	2
638.419	1	9
638.759	1	5
639.098	1	11
639.437	1	-2
639.776	1	4
640.115	1	-7
640.454	1	1
640.793	1	8
641.132	1	7
641.472	1	17
641.811	1	4
642.150	1	5
642.489	1	13
642.828	1	18
643.167	1	3
643.506	1	3
643.845	1	8
644.184	1	12
644.524	1	-2
644.863	1	10
645.202	1	3
645.541	1	0
645.880	1	17
646.219	1	9
646.558	1	-5
646.897	1	-7
647.236	1	-2
647.575	1	16
647.914	1	2
648.253	1	8
648.592	1	12
648.931	1	9
649.270	1	9
649.610	1	16
649.949	1	0
650.288	1	15
650.627	1	1
650.966	1	2
651.305	1	5
651.644	1	8
651.983	1	4
652.322	1	-5
652.661	1	2
653.000	1	-1
653.339	1	8
653.678	1	9
654.017	1	5
654.356	1	4
654.695	1	18
655.034	1	2
655.373	1	11
655.712	1	10
656.051	1	-5
656.390	1	2
656.729	1	2
657.068	1	3
657.406	1	6
657.745	1	18
658.084	1	7
658.423	1	11
658.762	1	-2
659.101	1	6
659.440	1	5
659.779	1	12
660.118	1	4
660.457	1	5
660.796	1	14
661.135	1	3
661.474	1	8
661.813	1	3
662.152	1	4
662.491	1	6
662.829	1	2
663.168	1	-6
663.507	1	16
663.846	1	4
664.185	1	-3
664.524	1	11
664.863	1	-5
665.202	1	11
665.541	1	1
665.879	1	7
666.218	1	3
666.557	1	9
666.896	1	11
667.235	1	-4
667.574	1	-6
667.913	1	4
668.251	1	-4
668.590	1	10
668.929	1	-1
669.268	1	-1
669.607	1	-3
669.946	1	1
670.285	1	1
670.623	1	-2
670.962	1	-3
671.301	1	3
671.640	1	17
671.979	1	3
672.317	1	-2
672.656	1	6
672.995	1	-1
673.334	1	-4
673.673	1	11
674.011	1	4
674.350	1	0
674.689	1	-3
675.028	1	6
675.367	1	4
675.705	1	-11
676.044	1	0
676.383	1	0
676.722	1	7
677.060	1	10
677.399	1	11
677.738	1	-1
678.077	1	4
678.416	1	6
678.754	1	7
679.093	1	12
679.432	1	-3
679.771	1	5
680.109	1	11
680.448	1	-5
680.787	1	-5
681.125	1	2
681.464	1	7
681.803	1	4
682.142	1	-2
682.480	1	-7
682.819	1	-2
683.158	1	-2
683.496	1	-1
683.835	1	9
684.174	1	7
684.512	1	-5
684.851	1	4
685.190	1	-1
685.529	1	1
685.867	1	4
686.206	1	-7
686.545	1	8
686.883	1	4
687.222	1	2
687.561	1	0
687.899	1	-12
688.238	1	16
688.577	1	4
688.746	1	0