File: Data/GaN_150K_450ms/GaN_sample D_spot15_UVVIS_150 K_200um_450 ms 2x2mm1_119.txt
340.368	1	7
340.710	1	2
341.052	1	2
341.394	1	-2
341.737	1	15
342.079	1	15
342.421	1	0
342.763	1	3
343.105	1	7
343.447	1	11
343.789	1	9
344.131	1	0
344.473	1	5
344.815	1	-1
345.157	1	3
345.499	1	7
345.841	1	9
346.183	1	0
346.526	1	2
346.868	1	8
347.210	1	2
347.552	1	18
347.894	1	-5
348.236	1	2
348.578	1	9
348.920	1	3
349.262	1	4
349.604	1	2
349.946	1	3
350.288	1	-4
350.630	1	0
350.972	1	9
351.314	1	5
351.656	1	6
351.998	1	2
352.340	1	11
352.682	1	-7
353.024	1	21
353.366	1	8
353.708	1	13
354.050	1	-3
354.392	1	0
354.734	1	2
355.076	1	15
355.418	1	5
355.760	1	13
356.102	1	10
356.444	1	16
356.785	1	12
357.127	1	20
357.469	1	13
357.811	1	5
358.153	1	-2
358.495	1	2
358.837	1	18
359.179	1	13
359.521	1	16
359.863	1	2
360.205	1	20
360.547	1	18
360.889	1	12
361.231	1	13
361.572	1	15
361.914	1	21
362.256	1	20
362.598	1	30
362.940	1	26
363.282	1	25
363.624	1	19
363.966	1	27
364.308	1	41
364.649	1	45
364.991	1	49
365.333	1	49
365.675	1	51
366.017	1	59
366.359	1	52
366.701	1	61
367.042	1	60
367.384	1	60
367.726	1	54
368.068	1	75
368.410	1	62
368.752	1	77
369.093	1	54
369.435	1	70
369.777	1	75
370.119	1	64
370.461	1	49
370.803	1	52
371.144	1	46
371.486	1	49
371.828	1	44
372.170	1	45
372.512	1	33
372.853	1	45
373.195	1	43
373.537	1	35
373.879	1	23
374.220	1	44
374.562	1	45
374.904	1	29
375.246	1	26
375.588	1	30
375.929	1	33
376.271	1	35
376.613	1	19
376.955	1	21
377.296	1	24
377.638	1	23
377.980	1	14
378.321	1	29
378.663	1	28
379.005	1	22
379.347	1	14
379.688	1	21
380.030	1	30
380.372	1	17
380.714	1	23
381.055	1	4
381.397	1	19
381.739	1	9
382.080	1	14
382.422	1	20
382.764	1	8
383.105	1	10
383.447	1	25
383.789	1	7
384.130	1	13
384.472	1	11
384.814	1	14
385.156	1	13
385.497	1	17
385.839	1	16
386.180	1	10
386.522	1	17
386.864	1	13
387.205	1	12
387.547	1	14
387.889	1	9
388.230	1	11
388.572	1	0
388.914	1	10
389.255	1	21
389.597	1	11
389.939	1	17
390.280	1	6
390.622	1	5
390.963	1	1
391.305	1	2
391.647	1	10
391.988	1	13
392.330	1	4
392.671	1	13
393.013	1	9
393.355	1	17
393.696	1	17
394.038	1	5
394.379	1	15
394.721	1	10
395.062	1	6
395.404	1	18
395.746	1	3
396.087	1	23
396.429	1	18
396.770	1	18
397.112	1	7
397.453	1	12
397.795	1	7
398.136	1	16
398.478	1	10
398.819	1	12
399.161	1	15
399.503	1	15
399.844	1	5
400.186	1	13
400.527	1	16
400.869	1	-2
401.210	1	12
401.552	1	14
401.893	1	7
402.235	1	6
402.576	1	4
402.918	1	3
403.259	1	7
403.601	1	15
403.942	1	10
404.284	1	18
404.625	1	9
404.967	1	16
405.308	1	0
405.649	1	9
405.991	1	11
406.332	1	7
406.674	1	11
407.015	1	12
407.357	1	18
407.698	1	15
408.040	1	20
408.381	1	1
408.722	1	15
409.064	1	25
409.405	1	5
409.747	1	2
410.088	1	15
410.430	1	18
410.771	1	11
411.112	1	16
411.454	1	13
411.795	1	9
412.137	1	5
412.478	1	13
412.819	1	12
413.161	1	13
413.502	1	13
413.844	1	15
414.185	1	4
414.526	1	10
414.868	1	8
415.209	1	7
415.550	1	6
415.892	1	14
416.233	1	17
416.575	1	6
416.916	1	11
417.257	1	12
417.599	1	14
417.940	1	5
418.281	1	18
418.623	1	12
418.964	1	18
419.305	1	17
419.647	1	11
419.988	1	17
420.329	1	4
420.671	1	16
421.012	1	10
421.353	1	20
421.695	1	25
422.036	1	27
422.377	1	16
422.718	1	11
423.060	1	19
423.401	1	18
423.742	1	21
424.084	1	14
424.425	1	26
424.766	1	15
425.107	1	6
425.449	1	7
425.790	1	10
426.131	1	8
426.472	1	20
426.814	1	16
427.155	1	8
427.496	1	12
427.837	1	13
428.179	1	20
428.520	1	18
428.861	1	17
429.202	1	9
429.544	1	13
429.885	1	11
430.226	1	3
430.567	1	-6
430.909	1	11
431.250	1	18
431.591	1	18
431.932	1	14
432.273	1	17
432.615	1	11
432.956	1	16
433.297	1	12
433.638	1	9
433.979	1	10
434.320	1	13
434.662	1	15
435.003	1	18
435.344	1	5
435.685	1	4
436.026	1	8
436.368	1	9
436.709	1	15
437.050	1	7
437.391	1	-1
437.732	1	17
438.073	1	-1
438.414	1	18
438.756	1	6
439.097	1	5
439.438	1	18
439.779	1	9
440.120	1	4
440.461	1	12
440.802	1	12
441.143	1	9
441.485	1	11
441.826	1	7
442.167	1	8
442.508	1	4
442.849	1	9
443.190	1	9
443.531	1	22
443.872	1	0
444.213	1	-1
444.554	1	18
444.895	1	5
445.237	1	20
445.578	1	1
445.919	1	5
446.260	1	19
446.601	1	10
446.942	1	5
447.283	1	18
447.624	1	1
447.965	1	16
448.306	1	21
448.647	1	14
448.988	1	10
449.329	1	6
449.670	1	15
450.011	1	11
450.352	1	-6
450.693	1	11
451.034	1	3
451.375	1	3
451.716	1	4
452.057	1	12
452.398	1	12
452.739	1	6
453.080	1	13
453.421	1	16
453.762	1	13
454.103	1	3
454.444	1	7
454.785	1	18
455.126	1	4
455.467	1	-3
455.808	1	11
456.149	1	9
456.490	1	0
456.831	1	8
457.172	1	11
457.513	1	12
457.854	1	13
458.195	1	7
458.536	1	9
458.877	1	11
459.218	1	14
459.559	1	6
459.899	1	4
460.240	1	4
460.581	1	1
460.922	1	7
461.263	1	19
461.604	1	15
461.945	1	21
462.286	1	3
462.627	1	4
462.968	1	6
463.309	1	8
463.649	1	3
463.990	1	12
464.331	1	3
464.672	1	6
465.013	1	5
465.354	1	9
465.695	1	4
466.036	1	10
466.376	1	7
466.717	1	-10
467.058	1	8
467.399	1	5
467.740	1	8
468.081	1	-1
468.422	1	-1
468.762	1	10
469.103	1	6
469.444	1	7
469.785	1	0
470.126	1	7
470.467	1	8
470.807	1	15
471.148	1	3
471.489	1	10
471.830	1	9
472.171	1	7
472.511	1	15
472.852	1	12
473.193	1	9
473.534	1	7
473.875	1	2
474.215	1	2
474.556	1	3
474.897	1	-8
475.238	1	14
475.578	1	-3
475.919	1	7
476.260	1	1
476.601	1	6
476.942	1	1
477.282	1	0
477.623	1	1
477.964	1	11
478.305	1	18
478.645	1	9
478.986	1	21
479.327	1	7
479.667	1	4
480.008	1	9
480.349	1	1
480.690	1	15
481.030	1	1
481.371	1	-4
481.712	1	15
482.053	1	13
482.393	1	9
482.734	1	7
483.075	1	11
483.415	1	10
483.756	1	14
484.097	1	14
484.437	1	10
484.778	1	5
485.119	1	5
485.459	1	5
485.800	1	0
486.141	1	15
486.481	1	3
486.822	1	8
487.163	1	5
487.503	1	5
487.844	1	0
488.185	1	15
488.525	1	1
488.866	1	-3
489.207	1	0
489.547	1	4
489.888	1	3
490.228	1	4
490.569	1	7
490.910	1	10
491.250	1	13
491.591	1	4
491.932	1	15
492.272	1	-1
492.613	1	3
492.953	1	6
493.294	1	-2
493.635	1	9
493.975	1	21
494.316	1	4
494.656	1	7
494.997	1	0
495.337	1	1
495.678	1	0
496.019	1	5
496.359	1	3
496.700	1	14
497.040	1	3
497.381	1	17
497.721	1	2
498.062	1	11
498.403	1	17
498.743	1	8
499.084	1	6
499.424	1	12
499.765	1	5
500.105	1	17
500.446	1	4
500.786	1	10
501.127	1	12
501.467	1	20
501.808	1	8
502.148	1	9
502.489	1	3
502.829	1	2
503.170	1	20
503.510	1	10
503.851	1	21
504.191	1	11
504.532	1	19
504.872	1	11
505.213	1	8
505.553	1	16
505.894	1	6
506.234	1	17
506.575	1	25
506.915	1	11
507.256	1	21
507.596	1	15
507.936	1	20
508.277	1	24
508.617	1	16
508.958	1	12
509.298	1	11
509.639	1	7
509.979	1	14
510.319	1	11
510.660	1	15
511.000	1	7
511.341	1	24
511.681	1	20
512.022	1	3
512.362	1	15
512.702	1	9
513.043	1	14
513.383	1	12
513.724	1	7
514.064	1	15
514.404	1	21
514.745	1	9
515.085	1	16
515.425	1	22
515.766	1	13
516.106	1	3
516.447	1	23
516.787	1	23
517.127	1	22
517.468	1	22
517.808	1	0
518.148	1	19
518.489	1	8
518.829	1	14
519.169	1	18
519.510	1	3
519.850	1	12
520.190	1	18
520.531	1	18
520.871	1	18
521.211	1	12
521.552	1	7
521.892	1	24
522.232	1	19
522.573	1	13
522.913	1	19
523.253	1	27
523.593	1	26
523.934	1	10
524.274	1	10
524.614	1	22
524.955	1	8
525.295	1	11
525.635	1	27
525.975	1	12
526.316	1	8
526.656	1	15
526.996	1	14
527.337	1	18
527.677	1	29
528.017	1	17
528.357	1	17
528.698	1	18
529.038	1	14
529.378	1	14
529.718	1	18
530.058	1	15
530.399	1	14
530.739	1	24
531.079	1	14
531.419	1	6
531.760	1	14
532.100	1	27
532.440	1	15
532.780	1	18
533.120	1	13
533.461	1	14
533.801	1	20
534.141	1	20
534.481	1	27
534.821	1	11
535.162	1	21
535.502	1	16
535.842	1	19
536.182	1	12
536.522	1	10
536.862	1	17
537.203	1	26
537.543	1	19
537.883	1	14
538.223	1	24
538.563	1	15
538.903	1	16
539.243	1	8
539.584	1	19
539.924	1	16
540.264	1	31
540.604	1	22
540.944	1	12
541.284	1	11
541.624	1	10
541.964	1	14
542.305	1	24
542.645	1	13
542.985	1	9
543.325	1	20
543.665	1	6
544.005	1	14
544.345	1	30
544.685	1	6
545.025	1	19
545.365	1	14
545.705	1	15
546.045	1	15
546.386	1	17
546.726	1	10
547.066	1	7
547.406	1	10
547.746	1	11
548.086	1	15
548.426	1	19
548.766	1	15
549.106	1	11
549.446	1	13
549.786	1	3
550.126	1	13
550.466	1	9
550.806	1	21
551.146	1	16
551.486	1	18
551.826	1	5
552.166	1	7
552.506	1	16
552.846	1	24
553.186	1	3
553.526	1	20
553.866	1	7
554.206	1	12
554.546	1	12
554.886	1	10
555.226	1	14
555.566	1	8
555.906	1	8
556.246	1	15
556.586	1	13
556.926	1	14
557.266	1	18
557.606	1	6
557.946	1	20
558.286	1	-9
558.626	1	19
558.966	1	9
559.306	1	17
559.646	1	17
559.986	1	8
560.325	1	12
560.665	1	7
561.005	1	7
561.345	1	4
561.685	1	18
562.025	1	16
562.365	1	11
562.705	1	24
563.045	1	11
563.385	1	12
563.725	1	10
564.064	1	10
564.404	1	11
564.744	1	18
565.084	1	17
565.424	1	11
565.764	1	7
566.104	1	16
566.444	1	23
566.783	1	10
567.123	1	9
567.463	1	14
567.803	1	11
568.143	1	9
568.483	1	17
568.823	1	15
569.162	1	3
569.502	1	12
569.842	1	12
570.182	1	9
570.522	1	6
570.862	1	-4
571.201	1	14
571.541	1	13
571.881	1	5
572.221	1	8
572.561	1	15
572.900	1	12
573.240	1	9
573.580	1	10
573.920	1	19
574.260	1	11
574.599	1	11
574.939	1	6
575.279	1	10
575.619	1	3
575.959	1	3
576.298	1	2
576.638	1	18
576.978	1	3
577.318	1	14
577.657	1	7
577.997	1	11
578.337	1	13
578.677	1	13
579.016	1	13
579.356	1	9
579.696	1	-2
580.036	1	4
580.375	1	9
580.715	1	19
581.055	1	6
581.394	1	8
581.734	1	2
582.074	1	4
582.414	1	6
582.753	1	11
583.093	1	15
583.433	1	9
583.772	1	14
584.112	1	7
584.452	1	11
584.791	1	11
585.131	1	12
585.471	1	7
585.811	1	9
586.150	1	8
586.490	1	15
586.830	1	10
587.169	1	10
587.509	1	15
587.849	1	19
588.188	1	8
588.528	1	2
588.867	1	3
589.207	1	10
589.547	1	20
589.886	1	5
590.226	1	2
590.566	1	6
590.905	1	2
591.245	1	-1
591.585	1	-5
591.924	1	-5
592.264	1	9
592.603	1	-2
592.943	1	-3
593.283	1	-1
593.622	1	3
593.962	1	10
594.301	1	3
594.641	1	3
594.981	1	13
595.320	1	17
595.660	1	15
595.999	1	11
596.339	1	12
596.678	1	-5
597.018	1	8
597.358	1	6
597.697	1	-2
598.037	1	4
598.376	1	3
598.716	1	4
599.055	1	5
599.395	1	1
599.734	1	14
600.074	1	3
600.413	1	15
600.753	1	6
601.092	1	1
601.432	1	-6
601.771	1	15
602.111	1	5
602.451	1	3
602.790	1	17
603.130	1	6
603.469	1	7
603.809	1	10
604.148	1	4
604.487	1	6
604.827	1	18
605.166	1	9
605.506	1	2
605.845	1	12
606.185	1	3
606.524	1	3
606.864	1	17
607.203	1	17
607.543	1	13
607.882	1	16
608.222	1	-1
608.561	1	12
608.901	1	7
609.240	1	7
609.579	1	5
609.919	1	-3
610.258	1	13
610.598	1	-6
610.937	1	2
611.277	1	12
611.616	1	18
611.955	1	7
612.295	1	5
612.634	1	7
612.974	1	7
613.313	1	14
613.652	1	11
613.992	1	3
614.331	1	13
614.671	1	1
615.010	1	2
615.349	1	8
615.689	1	4
616.028	1	16
616.368	1	15
616.707	1	6
617.046	1	3
617.386	1	11
617.725	1	8
618.064	1	8
618.404	1	0
618.743	1	12
619.082	1	11
619.422	1	16
619.761	1	5
620.100	1	9
620.440	1	10
620.779	1	10
621.118	1	15
621.458	1	8
621.797	1	11
622.136	1	-1
622.476	1	4
622.815	1	14
623.154	1	1
623.494	1	-3
623.833	1	11
624.172	1	10
624.511	1	2
624.851	1	4
625.190	1	5
625.529	1	6
625.869	1	17
626.208	1	3
626.547	1	-3
626.886	1	9
627.226	1	8
627.565	1	7
627.904	1	-1
628.243	1	7
628.583	1	13
628.922	1	6
629.261	1	0
629.600	1	2
629.940	1	9
630.279	1	10
630.618	1	8
630.957	1	5
631.297	1	5
631.636	1	3
631.975	1	1
632.314	1	12
632.653	1	-1
632.993	1	0
633.332	1	8
633.671	1	13
634.010	1	3
634.349	1	15
634.689	1	6
635.028	1	0
635.367	1	7
635.706	1	-6
636.045	1	0
636.384	1	10
636.724	1	4
637.063	1	-1
637.402	1	8
637.741	1	9
638.080	1	5
638.419	1	-2
638.759	1	5
639.098	1	7
639.437	1	8
639.776	1	9
640.115	1	0
640.454	1	5
640.793	1	8
641.132	1	3
641.472	1	9
641.811	1	6
642.150	1	-4
642.489	1	2
642.828	1	18
643.167	1	7
643.506	1	2
643.845	1	15
644.184	1	18
644.524	1	-4
644.863	1	-6
645.202	1	3
645.541	1	5
645.880	1	11
646.219	1	15
646.558	1	-8
646.897	1	6
647.236	1	-4
647.575	1	15
647.914	1	9
648.253	1	14
648.592	1	10
648.931	1	15
649.270	1	10
649.610	1	5
649.949	1	0
650.288	1	9
650.627	1	1
650.966	1	4
651.305	1	8
651.644	1	3
651.983	1	3
652.322	1	1
652.661	1	10
653.000	1	15
653.339	1	2
653.678	1	9
654.017	1	14
654.356	1	10
654.695	1	19
655.034	1	-1
655.373	1	8
655.712	1	7
656.051	1	-5
656.390	1	4
656.729	1	9
657.068	1	-3
657.406	1	-6
657.745	1	14
658.084	1	5
658.423	1	8
658.762	1	2
659.101	1	6
659.440	1	10
659.779	1	14
660.118	1	3
660.457	1	8
660.796	1	12
661.135	1	10
661.474	1	6
661.813	1	0
662.152	1	0
662.491	1	4
662.829	1	12
663.168	1	3
663.507	1	3
663.846	1	-1
664.185	1	5
664.524	1	7
664.863	1	1
665.202	1	12
665.541	1	8
665.879	1	12
666.218	1	9
666.557	1	8
666.896	1	6
667.235	1	2
667.574	1	0
667.913	1	9
668.251	1	-7
668.590	1	-1
668.929	1	-1
669.268	1	12
669.607	1	-5
669.946	1	4
670.285	1	2
670.623	1	4
670.962	1	2
671.301	1	-4
671.640	1	12
671.979	1	1
672.317	1	-1
672.656	1	12
672.995	1	11
673.334	1	-1
673.673	1	8
674.011	1	5
674.350	1	2
674.689	1	-1
675.028	1	4
675.367	1	9
675.705	1	4
676.044	1	8
676.383	1	-5
676.722	1	0
677.060	1	6
677.399	1	11
677.738	1	-6
678.077	1	-7
678.416	1	5
678.754	1	12
679.093	1	12
679.432	1	6
679.771	1	-1
680.109	1	3
680.448	1	1
680.787	1	-6
681.125	1	11
681.464	1	-1
681.803	1	-2
682.142	1	4
682.480	1	-1
682.819	1	1
683.158	1	4
683.496	1	-2
683.835	1	6
684.174	1	-2
684.512	1	6
684.851	1	-6
685.190	1	1
685.529	1	-3
685.867	1	4
686.206	1	0
686.545	1	5
686.883	1	14
687.222	1	7
687.561	1	6
687.899	1	2
688.238	1	10
688.577	1	-1
688.746	1	0