File: Data/GaN_150K_450ms/GaN_sample D_spot15_UVVIS_150 K_200um_450 ms 2x2mm1_233.txt
340.368	1	-9
340.710	1	-3
341.052	1	3
341.394	1	-12
341.737	1	9
342.079	1	2
342.421	1	-4
342.763	1	10
343.105	1	4
343.447	1	1
343.789	1	-3
344.131	1	-10
344.473	1	5
344.815	1	-5
345.157	1	11
345.499	1	2
345.841	1	6
346.183	1	15
346.526	1	6
346.868	1	-12
347.210	1	-4
347.552	1	15
347.894	1	1
348.236	1	2
348.578	1	8
348.920	1	4
349.262	1	4
349.604	1	3
349.946	1	-1
350.288	1	3
350.630	1	-2
350.972	1	11
351.314	1	1
351.656	1	7
351.998	1	5
352.340	1	2
352.682	1	-13
353.024	1	17
353.366	1	2
353.708	1	-1
354.050	1	-8
354.392	1	-4
354.734	1	6
355.076	1	12
355.418	1	2
355.760	1	4
356.102	1	2
356.444	1	9
356.785	1	2
357.127	1	9
357.469	1	6
357.811	1	-1
358.153	1	5
358.495	1	-1
358.837	1	0
359.179	1	1
359.521	1	8
359.863	1	-4
360.205	1	9
360.547	1	12
360.889	1	3
361.231	1	5
361.572	1	8
361.914	1	2
362.256	1	15
362.598	1	12
362.940	1	8
363.282	1	3
363.624	1	9
363.966	1	-2
364.308	1	14
364.649	1	5
364.991	1	13
365.333	1	7
365.675	1	22
366.017	1	15
366.359	1	3
366.701	1	15
367.042	1	18
367.384	1	4
367.726	1	17
368.068	1	25
368.410	1	18
368.752	1	24
369.093	1	25
369.435	1	15
369.777	1	28
370.119	1	20
370.461	1	22
370.803	1	12
371.144	1	21
371.486	1	15
371.828	1	13
372.170	1	19
372.512	1	5
372.853	1	19
373.195	1	3
373.537	1	-4
373.879	1	9
374.220	1	11
374.562	1	15
374.904	1	10
375.246	1	8
375.588	1	8
375.929	1	18
376.271	1	5
376.613	1	8
376.955	1	4
377.296	1	13
377.638	1	-7
377.980	1	8
378.321	1	12
378.663	1	3
379.005	1	3
379.347	1	8
379.688	1	12
380.030	1	10
380.372	1	7
380.714	1	8
381.055	1	0
381.397	1	6
381.739	1	-7
382.080	1	0
382.422	1	12
382.764	1	8
383.105	1	2
383.447	1	0
383.789	1	-7
384.130	1	6
384.472	1	6
384.814	1	6
385.156	1	2
385.497	1	10
385.839	1	9
386.180	1	2
386.522	1	10
386.864	1	3
387.205	1	12
387.547	1	0
387.889	1	1
388.230	1	-4
388.572	1	-6
388.914	1	14
389.255	1	3
389.597	1	7
389.939	1	10
390.280	1	3
390.622	1	-1
390.963	1	-1
391.305	1	6
391.647	1	10
391.988	1	-2
392.330	1	-4
392.671	1	8
393.013	1	8
393.355	1	15
393.696	1	-4
394.038	1	4
394.379	1	10
394.721	1	2
395.062	1	1
395.404	1	8
395.746	1	3
396.087	1	10
396.429	1	11
396.770	1	9
397.112	1	-3
397.453	1	-3
397.795	1	4
398.136	1	12
398.478	1	0
398.819	1	4
399.161	1	11
399.503	1	5
399.844	1	1
400.186	1	10
400.527	1	11
400.869	1	3
401.210	1	6
401.552	1	9
401.893	1	-2
402.235	1	-4
402.576	1	6
402.918	1	-3
403.259	1	6
403.601	1	6
403.942	1	-5
404.284	1	12
404.625	1	0
404.967	1	2
405.308	1	-12
405.649	1	6
405.991	1	8
406.332	1	8
406.674	1	4
407.015	1	-1
407.357	1	5
407.698	1	1
408.040	1	11
408.381	1	2
408.722	1	11
409.064	1	6
409.405	1	-1
409.747	1	0
410.088	1	7
410.430	1	3
410.771	1	13
411.112	1	6
411.454	1	8
411.795	1	5
412.137	1	-1
412.478	1	3
412.819	1	13
413.161	1	6
413.502	1	4
413.844	1	13
414.185	1	-8
414.526	1	-1
414.868	1	5
415.209	1	6
415.550	1	4
415.892	1	3
416.233	1	3
416.575	1	5
416.916	1	0
417.257	1	4
417.599	1	1
417.940	1	-6
418.281	1	3
418.623	1	1
418.964	1	23
419.305	1	10
419.647	1	8
419.988	1	13
420.329	1	11
420.671	1	9
421.012	1	-8
421.353	1	8
421.695	1	8
422.036	1	7
422.377	1	9
422.718	1	17
423.060	1	9
423.401	1	1
423.742	1	6
424.084	1	3
424.425	1	17
424.766	1	7
425.107	1	6
425.449	1	3
425.790	1	8
426.131	1	4
426.472	1	11
426.814	1	11
427.155	1	7
427.496	1	2
427.837	1	-7
428.179	1	11
428.520	1	8
428.861	1	11
429.202	1	-8
429.544	1	6
429.885	1	9
430.226	1	-12
430.567	1	-1
430.909	1	3
431.250	1	12
431.591	1	7
431.932	1	10
432.273	1	9
432.615	1	2
432.956	1	6
433.297	1	-2
433.638	1	0
433.979	1	11
434.320	1	10
434.662	1	12
435.003	1	7
435.344	1	7
435.685	1	-4
436.026	1	3
436.368	1	-8
436.709	1	3
437.050	1	3
437.391	1	2
437.732	1	6
438.073	1	3
438.414	1	5
438.756	1	-2
439.097	1	7
439.438	1	3
439.779	1	13
440.120	1	5
440.461	1	5
440.802	1	6
441.143	1	5
441.485	1	-3
441.826	1	-2
442.167	1	6
442.508	1	5
442.849	1	1
443.190	1	-3
443.531	1	16
443.872	1	6
444.213	1	-4
444.554	1	5
444.895	1	-4
445.237	1	9
445.578	1	-5
445.919	1	5
446.260	1	6
446.601	1	6
446.942	1	7
447.283	1	11
447.624	1	-6
447.965	1	3
448.306	1	5
448.647	1	7
448.988	1	10
449.329	1	10
449.670	1	9
450.011	1	2
450.352	1	1
450.693	1	8
451.034	1	7
451.375	1	5
451.716	1	5
452.057	1	5
452.398	1	15
452.739	1	5
453.080	1	10
453.421	1	7
453.762	1	4
454.103	1	-1
454.444	1	4
454.785	1	5
455.126	1	6
455.467	1	-2
455.808	1	5
456.149	1	-3
456.490	1	4
456.831	1	-8
457.172	1	8
457.513	1	-2
457.854	1	6
458.195	1	-1
458.536	1	10
458.877	1	1
459.218	1	4
459.559	1	1
459.899	1	3
460.240	1	-5
460.581	1	-6
460.922	1	2
461.263	1	10
461.604	1	-2
461.945	1	9
462.286	1	-6
462.627	1	-3
462.968	1	2
463.309	1	8
463.649	1	-5
463.990	1	-3
464.331	1	4
464.672	1	2
465.013	1	-1
465.354	1	3
465.695	1	2
466.036	1	11
466.376	1	16
466.717	1	-4
467.058	1	4
467.399	1	-4
467.740	1	19
468.081	1	14
468.422	1	3
468.762	1	13
469.103	1	1
469.444	1	1
469.785	1	-6
470.126	1	10
470.467	1	13
470.807	1	4
471.148	1	4
471.489	1	12
471.830	1	-7
472.171	1	11
472.511	1	6
472.852	1	7
473.193	1	1
473.534	1	-3
473.875	1	6
474.215	1	-1
474.556	1	-7
474.897	1	-2
475.238	1	4
475.578	1	4
475.919	1	-4
476.260	1	-7
476.601	1	-3
476.942	1	0
477.282	1	-1
477.623	1	-4
477.964	1	9
478.305	1	11
478.645	1	2
478.986	1	7
479.327	1	8
479.667	1	5
480.008	1	5
480.349	1	5
480.690	1	5
481.030	1	-1
481.371	1	-11
481.712	1	8
482.053	1	9
482.393	1	6
482.734	1	8
483.075	1	6
483.415	1	2
483.756	1	1
484.097	1	11
484.437	1	6
484.778	1	-1
485.119	1	-7
485.459	1	-4
485.800	1	-5
486.141	1	3
486.481	1	-10
486.822	1	13
487.163	1	-1
487.503	1	3
487.844	1	-5
488.185	1	6
488.525	1	-3
488.866	1	2
489.207	1	-5
489.547	1	3
489.888	1	9
490.228	1	-1
490.569	1	4
490.910	1	-5
491.250	1	13
491.591	1	4
491.932	1	11
492.272	1	-9
492.613	1	4
492.953	1	6
493.294	1	-15
493.635	1	9
493.975	1	6
494.316	1	5
494.656	1	8
494.997	1	-5
495.337	1	-5
495.678	1	-1
496.019	1	-3
496.359	1	3
496.700	1	0
497.040	1	7
497.381	1	5
497.721	1	-5
498.062	1	2
498.403	1	16
498.743	1	7
499.084	1	15
499.424	1	2
499.765	1	3
500.105	1	2
500.446	1	-5
500.786	1	-7
501.127	1	4
501.467	1	13
501.808	1	0
502.148	1	2
502.489	1	-2
502.829	1	9
503.170	1	3
503.510	1	-2
503.851	1	5
504.191	1	4
504.532	1	11
504.872	1	-5
505.213	1	-7
505.553	1	0
505.894	1	4
506.234	1	14
506.575	1	9
506.915	1	3
507.256	1	1
507.596	1	8
507.936	1	19
508.277	1	2
508.617	1	0
508.958	1	2
509.298	1	-9
509.639	1	-3
509.979	1	2
510.319	1	5
510.660	1	3
511.000	1	0
511.341	1	16
511.681	1	9
512.022	1	2
512.362	1	4
512.702	1	-5
513.043	1	7
513.383	1	-1
513.724	1	-9
514.064	1	5
514.404	1	10
514.745	1	6
515.085	1	7
515.425	1	8
515.766	1	-2
516.106	1	0
516.447	1	8
516.787	1	3
517.127	1	11
517.468	1	15
517.808	1	2
518.148	1	16
518.489	1	6
518.829	1	3
519.169	1	0
519.510	1	-4
519.850	1	6
520.190	1	1
520.531	1	1
520.871	1	7
521.211	1	11
521.552	1	3
521.892	1	0
522.232	1	-1
522.573	1	8
522.913	1	9
523.253	1	10
523.593	1	12
523.934	1	7
524.274	1	-9
524.614	1	13
524.955	1	7
525.295	1	16
525.635	1	8
525.975	1	4
526.316	1	-7
526.656	1	5
526.996	1	0
527.337	1	-2
527.677	1	19
528.017	1	-1
528.357	1	14
528.698	1	7
529.038	1	0
529.378	1	5
529.718	1	2
530.058	1	8
530.399	1	3
530.739	1	6
531.079	1	5
531.419	1	7
531.760	1	6
532.100	1	9
532.440	1	12
532.780	1	-3
533.120	1	6
533.461	1	5
533.801	1	3
534.141	1	8
534.481	1	20
534.821	1	6
535.162	1	0
535.502	1	1
535.842	1	1
536.182	1	2
536.522	1	-1
536.862	1	1
537.203	1	7
537.543	1	8
537.883	1	1
538.223	1	13
538.563	1	1
538.903	1	-7
539.243	1	5
539.584	1	4
539.924	1	9
540.264	1	13
540.604	1	9
540.944	1	12
541.284	1	5
541.624	1	7
541.964	1	-2
542.305	1	17
542.645	1	-5
542.985	1	4
543.325	1	9
543.665	1	10
544.005	1	8
544.345	1	1
544.685	1	7
545.025	1	9
545.365	1	6
545.705	1	0
546.045	1	6
546.386	1	-2
546.726	1	-4
547.066	1	8
547.406	1	0
547.746	1	8
548.086	1	8
548.426	1	-2
548.766	1	10
549.106	1	-5
549.446	1	6
549.786	1	5
550.126	1	8
550.466	1	1
550.806	1	16
551.146	1	4
551.486	1	-1
551.826	1	-10
552.166	1	5
552.506	1	5
552.846	1	8
553.186	1	-6
553.526	1	3
553.866	1	1
554.206	1	4
554.546	1	11
554.886	1	5
555.226	1	1
555.566	1	2
555.906	1	-1
556.246	1	2
556.586	1	1
556.926	1	2
557.266	1	2
557.606	1	-9
557.946	1	3
558.286	1	-11
558.626	1	9
558.966	1	6
559.306	1	5
559.646	1	8
559.986	1	1
560.325	1	6
560.665	1	9
561.005	1	10
561.345	1	7
561.685	1	10
562.025	1	4
562.365	1	2
562.705	1	7
563.045	1	4
563.385	1	4
563.725	1	4
564.064	1	3
564.404	1	2
564.744	1	17
565.084	1	11
565.424	1	-8
565.764	1	-1
566.104	1	4
566.444	1	7
566.783	1	5
567.123	1	-2
567.463	1	3
567.803	1	10
568.143	1	-6
568.483	1	10
568.823	1	3
569.162	1	-2
569.502	1	6
569.842	1	-2
570.182	1	5
570.522	1	0
570.862	1	-9
571.201	1	12
571.541	1	-3
571.881	1	2
572.221	1	2
572.561	1	12
572.900	1	7
573.240	1	0
573.580	1	-1
573.920	1	17
574.260	1	9
574.599	1	10
574.939	1	4
575.279	1	-6
575.619	1	-6
575.959	1	4
576.298	1	-3
576.638	1	11
576.978	1	0
577.318	1	4
577.657	1	-7
577.997	1	7
578.337	1	4
578.677	1	4
579.016	1	7
579.356	1	8
579.696	1	3
580.036	1	4
580.375	1	5
580.715	1	6
581.055	1	6
581.394	1	3
581.734	1	-1
582.074	1	8
582.414	1	1
582.753	1	-3
583.093	1	-7
583.433	1	5
583.772	1	7
584.112	1	5
584.452	1	6
584.791	1	9
585.131	1	7
585.471	1	4
585.811	1	7
586.150	1	2
586.490	1	0
586.830	1	1
587.169	1	0
587.509	1	5
587.849	1	13
588.188	1	4
588.528	1	3
588.867	1	2
589.207	1	0
589.547	1	6
589.886	1	5
590.226	1	-7
590.566	1	-2
590.905	1	-5
591.245	1	-4
591.585	1	-7
591.924	1	-2
592.264	1	-9
592.603	1	-5
592.943	1	1
593.283	1	0
593.622	1	-2
593.962	1	3
594.301	1	0
594.641	1	-2
594.981	1	-1
595.320	1	4
595.660	1	7
595.999	1	10
596.339	1	-6
596.678	1	-7
597.018	1	-2
597.358	1	3
597.697	1	-1
598.037	1	4
598.376	1	-2
598.716	1	-2
599.055	1	3
599.395	1	-6
599.734	1	6
600.074	1	-1
600.413	1	7
600.753	1	5
601.092	1	-8
601.432	1	-5
601.771	1	9
602.111	1	5
602.451	1	4
602.790	1	4
603.130	1	2
603.469	1	5
603.809	1	6
604.148	1	2
604.487	1	5
604.827	1	4
605.166	1	2
605.506	1	2
605.845	1	6
606.185	1	-2
606.524	1	-3
606.864	1	11
607.203	1	8
607.543	1	-6
607.882	1	8
608.222	1	2
608.561	1	0
608.901	1	12
609.240	1	1
609.579	1	-3
609.919	1	-17
610.258	1	11
610.598	1	-1
610.937	1	4
611.277	1	8
611.616	1	11
611.955	1	0
612.295	1	5
612.634	1	9
612.974	1	2
613.313	1	7
613.652	1	9
613.992	1	-1
614.331	1	8
614.671	1	2
615.010	1	9
615.349	1	1
615.689	1	-2
616.028	1	10
616.368	1	10
616.707	1	4
617.046	1	-2
617.386	1	7
617.725	1	-2
618.064	1	-2
618.404	1	1
618.743	1	-4
619.082	1	16
619.422	1	13
619.761	1	-8
620.100	1	-2
620.440	1	6
620.779	1	6
621.118	1	18
621.458	1	-3
621.797	1	-5
622.136	1	-1
622.476	1	1
622.815	1	4
623.154	1	-2
623.494	1	-11
623.833	1	-5
624.172	1	9
624.511	1	-8
624.851	1	-1
625.190	1	-1
625.529	1	-4
625.869	1	12
626.208	1	-3
626.547	1	-5
626.886	1	0
627.226	1	3
627.565	1	-1
627.904	1	-2
628.243	1	3
628.583	1	8
628.922	1	10
629.261	1	6
629.600	1	5
629.940	1	6
630.279	1	2
630.618	1	15
630.957	1	4
631.297	1	2
631.636	1	-4
631.975	1	3
632.314	1	5
632.653	1	-1
632.993	1	6
633.332	1	5
633.671	1	4
634.010	1	3
634.349	1	13
634.689	1	5
635.028	1	-12
635.367	1	13
635.706	1	1
636.045	1	-8
636.384	1	10
636.724	1	1
637.063	1	-3
637.402	1	7
637.741	1	2
638.080	1	0
638.419	1	6
638.759	1	4
639.098	1	2
639.437	1	-1
639.776	1	5
640.115	1	-17
640.454	1	0
640.793	1	-5
641.132	1	2
641.472	1	9
641.811	1	-6
642.150	1	-3
642.489	1	19
642.828	1	22
643.167	1	4
643.506	1	-4
643.845	1	11
644.184	1	1
644.524	1	1
644.863	1	-3
645.202	1	7
645.541	1	2
645.880	1	3
646.219	1	-7
646.558	1	-10
646.897	1	-4
647.236	1	-14
647.575	1	15
647.914	1	4
648.253	1	6
648.592	1	9
648.931	1	5
649.270	1	11
649.610	1	9
649.949	1	-8
650.288	1	-2
650.627	1	5
650.966	1	1
651.305	1	10
651.644	1	11
651.983	1	-12
652.322	1	3
652.661	1	10
653.000	1	1
653.339	1	1
653.678	1	2
654.017	1	8
654.356	1	1
654.695	1	13
655.034	1	-1
655.373	1	-2
655.712	1	3
656.051	1	-10
656.390	1	-1
656.729	1	9
657.068	1	-3
657.406	1	2
657.745	1	15
658.084	1	5
658.423	1	1
658.762	1	0
659.101	1	-4
659.440	1	10
659.779	1	-2
660.118	1	-7
660.457	1	4
660.796	1	7
661.135	1	15
661.474	1	-1
661.813	1	-6
662.152	1	7
662.491	1	-8
662.829	1	8
663.168	1	1
663.507	1	3
663.846	1	3
664.185	1	8
664.524	1	11
664.863	1	-4
665.202	1	-1
665.541	1	-4
665.879	1	4
666.218	1	5
666.557	1	-2
666.896	1	-3
667.235	1	-1
667.574	1	2
667.913	1	1
668.251	1	-8
668.590	1	2
668.929	1	2
669.268	1	4
669.607	1	-5
669.946	1	12
670.285	1	6
670.623	1	7
670.962	1	1
671.301	1	-2
671.640	1	6
671.979	1	5
672.317	1	2
672.656	1	10
672.995	1	-2
673.334	1	-13
673.673	1	8
674.011	1	10
674.350	1	2
674.689	1	-6
675.028	1	0
675.367	1	3
675.705	1	-11
676.044	1	5
676.383	1	4
676.722	1	-1
677.060	1	7
677.399	1	13
677.738	1	-7
678.077	1	2
678.416	1	2
678.754	1	6
679.093	1	10
679.432	1	-1
679.771	1	2
680.109	1	-1
680.448	1	1
680.787	1	-7
681.125	1	-6
681.464	1	-6
681.803	1	-1
682.142	1	-2
682.480	1	0
682.819	1	-6
683.158	1	-7
683.496	1	-6
683.835	1	8
684.174	1	3
684.512	1	-4
684.851	1	7
685.190	1	-1
685.529	1	-9
685.867	1	-7
686.206	1	-5
686.545	1	1
686.883	1	2
687.222	1	-1
687.561	1	9
687.899	1	4
688.238	1	4
688.577	1	-4
688.746	1	-4