File: Data/GaN_150K_450ms/GaN_sample D_spot15_UVVIS_150 K_200um_450 ms 2x2mm1_235.txt
340.368	1	11
340.710	1	3
341.052	1	10
341.394	1	-1
341.737	1	8
342.079	1	9
342.421	1	-3
342.763	1	4
343.105	1	-2
343.447	1	3
343.789	1	4
344.131	1	-10
344.473	1	6
344.815	1	7
345.157	1	11
345.499	1	-2
345.841	1	-2
346.183	1	3
346.526	1	2
346.868	1	0
347.210	1	5
347.552	1	18
347.894	1	1
348.236	1	7
348.578	1	4
348.920	1	0
349.262	1	3
349.604	1	-2
349.946	1	-4
350.288	1	-10
350.630	1	-4
350.972	1	9
351.314	1	1
351.656	1	9
351.998	1	7
352.340	1	6
352.682	1	-13
353.024	1	11
353.366	1	12
353.708	1	5
354.050	1	-2
354.392	1	-5
354.734	1	8
355.076	1	17
355.418	1	1
355.760	1	10
356.102	1	7
356.444	1	12
356.785	1	9
357.127	1	1
357.469	1	5
357.811	1	-5
358.153	1	-11
358.495	1	2
358.837	1	13
359.179	1	6
359.521	1	17
359.863	1	7
360.205	1	15
360.547	1	11
360.889	1	6
361.231	1	5
361.572	1	3
361.914	1	13
362.256	1	2
362.598	1	20
362.940	1	0
363.282	1	2
363.624	1	-2
363.966	1	5
364.308	1	10
364.649	1	10
364.991	1	17
365.333	1	5
365.675	1	18
366.017	1	22
366.359	1	9
366.701	1	10
367.042	1	20
367.384	1	10
367.726	1	19
368.068	1	22
368.410	1	6
368.752	1	31
369.093	1	23
369.435	1	23
369.777	1	23
370.119	1	21
370.461	1	7
370.803	1	10
371.144	1	17
371.486	1	24
371.828	1	8
372.170	1	10
372.512	1	8
372.853	1	10
373.195	1	12
373.537	1	2
373.879	1	7
374.220	1	12
374.562	1	24
374.904	1	11
375.246	1	12
375.588	1	1
375.929	1	4
376.271	1	6
376.613	1	11
376.955	1	12
377.296	1	7
377.638	1	2
377.980	1	-3
378.321	1	5
378.663	1	11
379.005	1	4
379.347	1	10
379.688	1	11
380.030	1	4
380.372	1	12
380.714	1	6
381.055	1	3
381.397	1	10
381.739	1	-4
382.080	1	-1
382.422	1	2
382.764	1	7
383.105	1	-1
383.447	1	2
383.789	1	-4
384.130	1	5
384.472	1	-8
384.814	1	15
385.156	1	5
385.497	1	12
385.839	1	7
386.180	1	1
386.522	1	2
386.864	1	-4
387.205	1	2
387.547	1	11
387.889	1	-1
388.230	1	-3
388.572	1	-4
388.914	1	22
389.255	1	7
389.597	1	5
389.939	1	5
390.280	1	6
390.622	1	3
390.963	1	-3
391.305	1	-5
391.647	1	5
391.988	1	5
392.330	1	-1
392.671	1	3
393.013	1	11
393.355	1	12
393.696	1	4
394.038	1	2
394.379	1	9
394.721	1	4
395.062	1	-3
395.404	1	11
395.746	1	-1
396.087	1	9
396.429	1	6
396.770	1	7
397.112	1	0
397.453	1	1
397.795	1	8
398.136	1	12
398.478	1	-2
398.819	1	8
399.161	1	12
399.503	1	13
399.844	1	-1
400.186	1	5
400.527	1	10
400.869	1	0
401.210	1	7
401.552	1	-1
401.893	1	10
402.235	1	12
402.576	1	0
402.918	1	3
403.259	1	3
403.601	1	-1
403.942	1	5
404.284	1	10
404.625	1	6
404.967	1	6
405.308	1	-12
405.649	1	4
405.991	1	-1
406.332	1	-1
406.674	1	-1
407.015	1	13
407.357	1	7
407.698	1	9
408.040	1	12
408.381	1	-3
408.722	1	7
409.064	1	2
409.405	1	3
409.747	1	4
410.088	1	11
410.430	1	15
410.771	1	1
411.112	1	0
411.454	1	-1
411.795	1	-3
412.137	1	-2
412.478	1	-5
412.819	1	9
413.161	1	5
413.502	1	10
413.844	1	8
414.185	1	3
414.526	1	-2
414.868	1	0
415.209	1	-15
415.550	1	5
415.892	1	3
416.233	1	2
416.575	1	3
416.916	1	0
417.257	1	3
417.599	1	3
417.940	1	1
418.281	1	10
418.623	1	-1
418.964	1	15
419.305	1	13
419.647	1	11
419.988	1	5
420.329	1	5
420.671	1	13
421.012	1	-7
421.353	1	11
421.695	1	9
422.036	1	15
422.377	1	4
422.718	1	11
423.060	1	4
423.401	1	-2
423.742	1	20
424.084	1	3
424.425	1	15
424.766	1	4
425.107	1	14
425.449	1	3
425.790	1	3
426.131	1	-5
426.472	1	7
426.814	1	7
427.155	1	6
427.496	1	8
427.837	1	-2
428.179	1	11
428.520	1	6
428.861	1	6
429.202	1	-6
429.544	1	3
429.885	1	14
430.226	1	-11
430.567	1	-2
430.909	1	1
431.250	1	10
431.591	1	5
431.932	1	1
432.273	1	10
432.615	1	0
432.956	1	1
433.297	1	4
433.638	1	12
433.979	1	7
434.320	1	10
434.662	1	14
435.003	1	7
435.344	1	-7
435.685	1	-1
436.026	1	2
436.368	1	-2
436.709	1	-5
437.050	1	0
437.391	1	4
437.732	1	3
438.073	1	-2
438.414	1	3
438.756	1	1
439.097	1	7
439.438	1	9
439.779	1	3
440.120	1	1
440.461	1	7
440.802	1	5
441.143	1	3
441.485	1	-7
441.826	1	-2
442.167	1	4
442.508	1	6
442.849	1	8
443.190	1	2
443.531	1	5
443.872	1	-9
444.213	1	-3
444.554	1	5
444.895	1	0
445.237	1	3
445.578	1	-5
445.919	1	13
446.260	1	16
446.601	1	13
446.942	1	0
447.283	1	19
447.624	1	-12
447.965	1	7
448.306	1	13
448.647	1	-5
448.988	1	1
449.329	1	9
449.670	1	0
450.011	1	-1
450.352	1	-2
450.693	1	10
451.034	1	5
451.375	1	-8
451.716	1	-2
452.057	1	3
452.398	1	13
452.739	1	-3
453.080	1	0
453.421	1	8
453.762	1	5
454.103	1	-5
454.444	1	-1
454.785	1	0
455.126	1	4
455.467	1	3
455.808	1	14
456.149	1	1
456.490	1	6
456.831	1	4
457.172	1	1
457.513	1	-1
457.854	1	4
458.195	1	-6
458.536	1	9
458.877	1	4
459.218	1	14
459.559	1	-6
459.899	1	-3
460.240	1	-2
460.581	1	-8
460.922	1	-1
461.263	1	17
461.604	1	7
461.945	1	6
462.286	1	3
462.627	1	-1
462.968	1	1
463.309	1	6
463.649	1	-2
463.990	1	-4
464.331	1	9
464.672	1	4
465.013	1	3
465.354	1	10
465.695	1	6
466.036	1	7
466.376	1	16
466.717	1	-5
467.058	1	6
467.399	1	2
467.740	1	8
468.081	1	1
468.422	1	11
468.762	1	1
469.103	1	-5
469.444	1	-1
469.785	1	-6
470.126	1	4
470.467	1	11
470.807	1	10
471.148	1	-8
471.489	1	12
471.830	1	4
472.171	1	1
472.511	1	-1
472.852	1	7
473.193	1	-5
473.534	1	-1
473.875	1	0
474.215	1	4
474.556	1	-8
474.897	1	-1
475.238	1	13
475.578	1	-3
475.919	1	1
476.260	1	0
476.601	1	-8
476.942	1	2
477.282	1	-7
477.623	1	1
477.964	1	6
478.305	1	7
478.645	1	-1
478.986	1	2
479.327	1	0
479.667	1	0
480.008	1	13
480.349	1	1
480.690	1	7
481.030	1	3
481.371	1	-9
481.712	1	11
482.053	1	12
482.393	1	4
482.734	1	-1
483.075	1	1
483.415	1	3
483.756	1	-6
484.097	1	13
484.437	1	5
484.778	1	0
485.119	1	4
485.459	1	5
485.800	1	6
486.141	1	5
486.481	1	-11
486.822	1	9
487.163	1	5
487.503	1	1
487.844	1	-6
488.185	1	3
488.525	1	-11
488.866	1	-1
489.207	1	7
489.547	1	4
489.888	1	10
490.228	1	-2
490.569	1	-9
490.910	1	8
491.250	1	9
491.591	1	1
491.932	1	9
492.272	1	-9
492.613	1	0
492.953	1	1
493.294	1	-8
493.635	1	4
493.975	1	5
494.316	1	-2
494.656	1	2
494.997	1	-10
495.337	1	0
495.678	1	4
496.019	1	0
496.359	1	-7
496.700	1	6
497.040	1	-6
497.381	1	8
497.721	1	2
498.062	1	-2
498.403	1	4
498.743	1	8
499.084	1	2
499.424	1	-4
499.765	1	6
500.105	1	9
500.446	1	-8
500.786	1	2
501.127	1	14
501.467	1	3
501.808	1	1
502.148	1	5
502.489	1	8
502.829	1	-3
503.170	1	8
503.510	1	-10
503.851	1	11
504.191	1	3
504.532	1	12
504.872	1	5
505.213	1	-2
505.553	1	0
505.894	1	8
506.234	1	16
506.575	1	7
506.915	1	2
507.256	1	10
507.596	1	12
507.936	1	17
508.277	1	12
508.617	1	2
508.958	1	13
509.298	1	-1
509.639	1	1
509.979	1	-1
510.319	1	-1
510.660	1	-2
511.000	1	6
511.341	1	14
511.681	1	8
512.022	1	-6
512.362	1	6
512.702	1	-5
513.043	1	11
513.383	1	7
513.724	1	14
514.064	1	7
514.404	1	6
514.745	1	-1
515.085	1	9
515.425	1	6
515.766	1	0
516.106	1	1
516.447	1	7
516.787	1	-3
517.127	1	7
517.468	1	8
517.808	1	-4
518.148	1	9
518.489	1	3
518.829	1	5
519.169	1	-5
519.510	1	-3
519.850	1	2
520.190	1	7
520.531	1	5
520.871	1	3
521.211	1	9
521.552	1	-5
521.892	1	7
522.232	1	-7
522.573	1	4
522.913	1	6
523.253	1	2
523.593	1	9
523.934	1	5
524.274	1	4
524.614	1	4
524.955	1	4
525.295	1	10
525.635	1	5
525.975	1	-9
526.316	1	-1
526.656	1	4
526.996	1	-3
527.337	1	8
527.677	1	12
528.017	1	-1
528.357	1	3
528.698	1	10
529.038	1	10
529.378	1	2
529.718	1	1
530.058	1	6
530.399	1	1
530.739	1	5
531.079	1	6
531.419	1	4
531.760	1	12
532.100	1	13
532.440	1	7
532.780	1	2
533.120	1	4
533.461	1	3
533.801	1	-1
534.141	1	3
534.481	1	12
534.821	1	6
535.162	1	8
535.502	1	5
535.842	1	6
536.182	1	-2
536.522	1	3
536.862	1	3
537.203	1	11
537.543	1	1
537.883	1	-4
538.223	1	21
538.563	1	-2
538.903	1	-1
539.243	1	5
539.584	1	1
539.924	1	1
540.264	1	12
540.604	1	7
540.944	1	2
541.284	1	4
541.624	1	-2
541.964	1	2
542.305	1	13
542.645	1	-2
542.985	1	-3
543.325	1	9
543.665	1	3
544.005	1	4
544.345	1	13
544.685	1	0
545.025	1	12
545.365	1	1
545.705	1	4
546.045	1	9
546.386	1	0
546.726	1	-2
547.066	1	6
547.406	1	-10
547.746	1	3
548.086	1	8
548.426	1	11
548.766	1	6
549.106	1	2
549.446	1	8
549.786	1	5
550.126	1	3
550.466	1	-4
550.806	1	14
551.146	1	3
551.486	1	3
551.826	1	1
552.166	1	8
552.506	1	4
552.846	1	0
553.186	1	-11
553.526	1	0
553.866	1	-3
554.206	1	14
554.546	1	6
554.886	1	-1
555.226	1	-1
555.566	1	4
555.906	1	2
556.246	1	8
556.586	1	3
556.926	1	-4
557.266	1	16
557.606	1	-10
557.946	1	11
558.286	1	-6
558.626	1	11
558.966	1	10
559.306	1	11
559.646	1	1
559.986	1	9
560.325	1	4
560.665	1	4
561.005	1	0
561.345	1	6
561.685	1	12
562.025	1	0
562.365	1	9
562.705	1	5
563.045	1	-1
563.385	1	5
563.725	1	1
564.064	1	6
564.404	1	0
564.744	1	4
565.084	1	9
565.424	1	-4
565.764	1	10
566.104	1	5
566.444	1	10
566.783	1	4
567.123	1	-1
567.463	1	3
567.803	1	8
568.143	1	5
568.483	1	13
568.823	1	4
569.162	1	-3
569.502	1	7
569.842	1	-1
570.182	1	2
570.522	1	-12
570.862	1	-6
571.201	1	13
571.541	1	3
571.881	1	-1
572.221	1	-1
572.561	1	12
572.900	1	7
573.240	1	-1
573.580	1	3
573.920	1	10
574.260	1	5
574.599	1	9
574.939	1	0
575.279	1	-1
575.619	1	-4
575.959	1	-4
576.298	1	-7
576.638	1	4
576.978	1	7
577.318	1	3
577.657	1	-1
577.997	1	2
578.337	1	3
578.677	1	-6
579.016	1	-3
579.356	1	7
579.696	1	4
580.036	1	5
580.375	1	3
580.715	1	4
581.055	1	1
581.394	1	4
581.734	1	5
582.074	1	3
582.414	1	3
582.753	1	4
583.093	1	-5
583.433	1	4
583.772	1	7
584.112	1	7
584.452	1	4
584.791	1	4
585.131	1	11
585.471	1	3
585.811	1	1
586.150	1	8
586.490	1	-2
586.830	1	3
587.169	1	2
587.509	1	8
587.849	1	17
588.188	1	1
588.528	1	-2
588.867	1	3
589.207	1	7
589.547	1	5
589.886	1	5
590.226	1	-2
590.566	1	1
590.905	1	4
591.245	1	-1
591.585	1	3
591.924	1	-3
592.264	1	-2
592.603	1	-10
592.943	1	0
593.283	1	1
593.622	1	-3
593.962	1	4
594.301	1	1
594.641	1	9
594.981	1	6
595.320	1	6
595.660	1	3
595.999	1	11
596.339	1	0
596.678	1	-7
597.018	1	-1
597.358	1	4
597.697	1	-1
598.037	1	-3
598.376	1	-3
598.716	1	5
599.055	1	5
599.395	1	1
599.734	1	-1
600.074	1	-1
600.413	1	6
600.753	1	6
601.092	1	-2
601.432	1	-11
601.771	1	1
602.111	1	-3
602.451	1	1
602.790	1	2
603.130	1	3
603.469	1	3
603.809	1	1
604.148	1	-11
604.487	1	2
604.827	1	-2
605.166	1	2
605.506	1	-5
605.845	1	7
606.185	1	-3
606.524	1	-1
606.864	1	12
607.203	1	3
607.543	1	5
607.882	1	11
608.222	1	-10
608.561	1	6
608.901	1	6
609.240	1	2
609.579	1	0
609.919	1	-3
610.258	1	9
610.598	1	4
610.937	1	-7
611.277	1	4
611.616	1	10
611.955	1	0
612.295	1	10
612.634	1	1
612.974	1	2
613.313	1	0
613.652	1	14
613.992	1	-3
614.331	1	12
614.671	1	-8
615.010	1	-2
615.349	1	4
615.689	1	-1
616.028	1	14
616.368	1	13
616.707	1	7
617.046	1	-4
617.386	1	10
617.725	1	-2
618.064	1	-11
618.404	1	-4
618.743	1	2
619.082	1	17
619.422	1	15
619.761	1	-3
620.100	1	11
620.440	1	3
620.779	1	5
621.118	1	11
621.458	1	-1
621.797	1	0
622.136	1	-5
622.476	1	6
622.815	1	4
623.154	1	-4
623.494	1	-6
623.833	1	3
624.172	1	5
624.511	1	-4
624.851	1	2
625.190	1	5
625.529	1	4
625.869	1	15
626.208	1	2
626.547	1	-1
626.886	1	-1
627.226	1	7
627.565	1	4
627.904	1	-3
628.243	1	10
628.583	1	13
628.922	1	5
629.261	1	6
629.600	1	2
629.940	1	1
630.279	1	8
630.618	1	9
630.957	1	7
631.297	1	12
631.636	1	4
631.975	1	-4
632.314	1	0
632.653	1	2
632.993	1	-3
633.332	1	5
633.671	1	9
634.010	1	-2
634.349	1	13
634.689	1	-4
635.028	1	1
635.367	1	5
635.706	1	3
636.045	1	4
636.384	1	2
636.724	1	2
637.063	1	-6
637.402	1	8
637.741	1	4
638.080	1	-2
638.419	1	-1
638.759	1	4
639.098	1	5
639.437	1	-2
639.776	1	3
640.115	1	-5
640.454	1	-2
640.793	1	5
641.132	1	8
641.472	1	4
641.811	1	-3
642.150	1	-1
642.489	1	13
642.828	1	11
643.167	1	-2
643.506	1	-2
643.845	1	3
644.184	1	13
644.524	1	-6
644.863	1	7
645.202	1	0
645.541	1	-6
645.880	1	12
646.219	1	3
646.558	1	-5
646.897	1	2
647.236	1	-7
647.575	1	10
647.914	1	-6
648.253	1	11
648.592	1	3
648.931	1	3
649.270	1	15
649.610	1	5
649.949	1	0
650.288	1	5
650.627	1	-5
650.966	1	3
651.305	1	2
651.644	1	17
651.983	1	-7
652.322	1	-2
652.661	1	10
653.000	1	3
653.339	1	1
653.678	1	5
654.017	1	-3
654.356	1	2
654.695	1	10
655.034	1	1
655.373	1	5
655.712	1	1
656.051	1	-4
656.390	1	1
656.729	1	2
657.068	1	-2
657.406	1	-4
657.745	1	13
658.084	1	6
658.423	1	1
658.762	1	-5
659.101	1	2
659.440	1	14
659.779	1	-1
660.118	1	-2
660.457	1	1
660.796	1	13
661.135	1	5
661.474	1	-1
661.813	1	1
662.152	1	-3
662.491	1	0
662.829	1	2
663.168	1	1
663.507	1	12
663.846	1	6
664.185	1	1
664.524	1	12
664.863	1	-6
665.202	1	-6
665.541	1	1
665.879	1	3
666.218	1	10
666.557	1	3
666.896	1	-4
667.235	1	-1
667.574	1	-1
667.913	1	11
668.251	1	-8
668.590	1	-2
668.929	1	1
669.268	1	7
669.607	1	-6
669.946	1	-4
670.285	1	2
670.623	1	-2
670.962	1	-2
671.301	1	-1
671.640	1	14
671.979	1	-2
672.317	1	2
672.656	1	12
672.995	1	-4
673.334	1	-4
673.673	1	8
674.011	1	12
674.350	1	4
674.689	1	0
675.028	1	5
675.367	1	-2
675.705	1	-1
676.044	1	2
676.383	1	8
676.722	1	2
677.060	1	7
677.399	1	5
677.738	1	-2
678.077	1	5
678.416	1	-3
678.754	1	-5
679.093	1	7
679.432	1	-3
679.771	1	4
680.109	1	1
680.448	1	-5
680.787	1	-14
681.125	1	2
681.464	1	2
681.803	1	7
682.142	1	1
682.480	1	1
682.819	1	-7
683.158	1	3
683.496	1	-4
683.835	1	8
684.174	1	5
684.512	1	1
684.851	1	-1
685.190	1	-4
685.529	1	0
685.867	1	12
686.206	1	-4
686.545	1	1
686.883	1	5
687.222	1	-5
687.561	1	3
687.899	1	-2
688.238	1	8
688.577	1	-4
688.746	1	-7