File: Data/GaN_150K_450ms/GaN_sample D_spot15_UVVIS_150 K_200um_450 ms 2x2mm1_61.txt
340.368	1	2
340.710	1	5
341.052	1	6
341.394	1	-3
341.737	1	10
342.079	1	8
342.421	1	2
342.763	1	10
343.105	1	1
343.447	1	6
343.789	1	2
344.131	1	1
344.473	1	1
344.815	1	2
345.157	1	8
345.499	1	9
345.841	1	12
346.183	1	5
346.526	1	4
346.868	1	6
347.210	1	-4
347.552	1	22
347.894	1	6
348.236	1	2
348.578	1	13
348.920	1	3
349.262	1	11
349.604	1	-4
349.946	1	4
350.288	1	-1
350.630	1	2
350.972	1	16
351.314	1	5
351.656	1	16
351.998	1	7
352.340	1	9
352.682	1	4
353.024	1	19
353.366	1	10
353.708	1	16
354.050	1	9
354.392	1	4
354.734	1	15
355.076	1	27
355.418	1	15
355.760	1	30
356.102	1	14
356.444	1	27
356.785	1	21
357.127	1	36
357.469	1	23
357.811	1	26
358.153	1	17
358.495	1	32
358.837	1	44
359.179	1	38
359.521	1	48
359.863	1	42
360.205	1	57
360.547	1	64
360.889	1	60
361.231	1	77
361.572	1	87
361.914	1	91
362.256	1	99
362.598	1	112
362.940	1	123
363.282	1	115
363.624	1	142
363.966	1	154
364.308	1	184
364.649	1	224
364.991	1	247
365.333	1	276
365.675	1	312
366.017	1	334
366.359	1	338
366.701	1	370
367.042	1	402
367.384	1	407
367.726	1	412
368.068	1	439
368.410	1	431
368.752	1	440
369.093	1	417
369.435	1	423
369.777	1	381
370.119	1	375
370.461	1	334
370.803	1	316
371.144	1	301
371.486	1	279
371.828	1	265
372.170	1	234
372.512	1	220
372.853	1	226
373.195	1	217
373.537	1	176
373.879	1	193
374.220	1	191
374.562	1	170
374.904	1	159
375.246	1	153
375.588	1	124
375.929	1	130
376.271	1	125
376.613	1	130
376.955	1	116
377.296	1	105
377.638	1	112
377.980	1	90
378.321	1	91
378.663	1	95
379.005	1	91
379.347	1	81
379.688	1	91
380.030	1	79
380.372	1	77
380.714	1	82
381.055	1	66
381.397	1	62
381.739	1	59
382.080	1	69
382.422	1	64
382.764	1	63
383.105	1	57
383.447	1	48
383.789	1	44
384.130	1	61
384.472	1	57
384.814	1	54
385.156	1	54
385.497	1	63
385.839	1	59
386.180	1	58
386.522	1	50
386.864	1	42
387.205	1	53
387.547	1	49
387.889	1	44
388.230	1	42
388.572	1	41
388.914	1	45
389.255	1	38
389.597	1	30
389.939	1	42
390.280	1	37
390.622	1	35
390.963	1	30
391.305	1	29
391.647	1	35
391.988	1	29
392.330	1	30
392.671	1	35
393.013	1	35
393.355	1	36
393.696	1	35
394.038	1	28
394.379	1	37
394.721	1	27
395.062	1	27
395.404	1	34
395.746	1	23
396.087	1	38
396.429	1	33
396.770	1	30
397.112	1	30
397.453	1	27
397.795	1	32
398.136	1	42
398.478	1	26
398.819	1	29
399.161	1	30
399.503	1	32
399.844	1	19
400.186	1	30
400.527	1	33
400.869	1	22
401.210	1	23
401.552	1	29
401.893	1	23
402.235	1	28
402.576	1	23
402.918	1	6
403.259	1	24
403.601	1	36
403.942	1	21
404.284	1	30
404.625	1	17
404.967	1	19
405.308	1	7
405.649	1	17
405.991	1	20
406.332	1	26
406.674	1	17
407.015	1	23
407.357	1	25
407.698	1	17
408.040	1	35
408.381	1	10
408.722	1	20
409.064	1	30
409.405	1	21
409.747	1	17
410.088	1	28
410.430	1	23
410.771	1	19
411.112	1	13
411.454	1	18
411.795	1	14
412.137	1	16
412.478	1	24
412.819	1	25
413.161	1	22
413.502	1	14
413.844	1	26
414.185	1	15
414.526	1	13
414.868	1	14
415.209	1	18
415.550	1	16
415.892	1	28
416.233	1	14
416.575	1	13
416.916	1	20
417.257	1	10
417.599	1	21
417.940	1	7
418.281	1	25
418.623	1	17
418.964	1	32
419.305	1	16
419.647	1	22
419.988	1	25
420.329	1	19
420.671	1	23
421.012	1	6
421.353	1	26
421.695	1	21
422.036	1	32
422.377	1	17
422.718	1	30
423.060	1	20
423.401	1	11
423.742	1	23
424.084	1	19
424.425	1	27
424.766	1	17
425.107	1	16
425.449	1	13
425.790	1	14
426.131	1	16
426.472	1	23
426.814	1	25
427.155	1	15
427.496	1	18
427.837	1	11
428.179	1	34
428.520	1	24
428.861	1	23
429.202	1	15
429.544	1	21
429.885	1	23
430.226	1	1
430.567	1	8
430.909	1	18
431.250	1	20
431.591	1	22
431.932	1	20
432.273	1	31
432.615	1	14
432.956	1	18
433.297	1	12
433.638	1	28
433.979	1	6
434.320	1	21
434.662	1	23
435.003	1	21
435.344	1	20
435.685	1	10
436.026	1	14
436.368	1	7
436.709	1	12
437.050	1	11
437.391	1	18
437.732	1	17
438.073	1	6
438.414	1	20
438.756	1	15
439.097	1	14
439.438	1	14
439.779	1	10
440.120	1	14
440.461	1	22
440.802	1	20
441.143	1	19
441.485	1	10
441.826	1	6
442.167	1	19
442.508	1	13
442.849	1	17
443.190	1	12
443.531	1	18
443.872	1	9
444.213	1	6
444.554	1	19
444.895	1	13
445.237	1	16
445.578	1	9
445.919	1	12
446.260	1	20
446.601	1	21
446.942	1	11
447.283	1	20
447.624	1	2
447.965	1	17
448.306	1	7
448.647	1	13
448.988	1	18
449.329	1	18
449.670	1	9
450.011	1	6
450.352	1	9
450.693	1	9
451.034	1	7
451.375	1	14
451.716	1	17
452.057	1	19
452.398	1	14
452.739	1	19
453.080	1	13
453.421	1	22
453.762	1	12
454.103	1	9
454.444	1	6
454.785	1	12
455.126	1	11
455.467	1	10
455.808	1	19
456.149	1	2
456.490	1	11
456.831	1	4
457.172	1	14
457.513	1	4
457.854	1	12
458.195	1	18
458.536	1	12
458.877	1	12
459.218	1	16
459.559	1	13
459.899	1	6
460.240	1	10
460.581	1	11
460.922	1	10
461.263	1	18
461.604	1	15
461.945	1	17
462.286	1	9
462.627	1	23
462.968	1	14
463.309	1	24
463.649	1	3
463.990	1	9
464.331	1	15
464.672	1	4
465.013	1	12
465.354	1	24
465.695	1	15
466.036	1	26
466.376	1	26
466.717	1	5
467.058	1	14
467.399	1	9
467.740	1	24
468.081	1	9
468.422	1	13
468.762	1	9
469.103	1	13
469.444	1	14
469.785	1	5
470.126	1	19
470.467	1	13
470.807	1	13
471.148	1	11
471.489	1	21
471.830	1	15
472.171	1	25
472.511	1	10
472.852	1	15
473.193	1	16
473.534	1	19
473.875	1	17
474.215	1	20
474.556	1	2
474.897	1	11
475.238	1	17
475.578	1	6
475.919	1	15
476.260	1	11
476.601	1	19
476.942	1	15
477.282	1	5
477.623	1	15
477.964	1	27
478.305	1	21
478.645	1	15
478.986	1	31
479.327	1	17
479.667	1	10
480.008	1	30
480.349	1	11
480.690	1	25
481.030	1	16
481.371	1	11
481.712	1	31
482.053	1	25
482.393	1	22
482.734	1	16
483.075	1	24
483.415	1	23
483.756	1	20
484.097	1	25
484.437	1	28
484.778	1	17
485.119	1	7
485.459	1	21
485.800	1	12
486.141	1	36
486.481	1	10
486.822	1	31
487.163	1	18
487.503	1	32
487.844	1	23
488.185	1	24
488.525	1	27
488.866	1	28
489.207	1	36
489.547	1	23
489.888	1	40
490.228	1	34
490.569	1	26
490.910	1	35
491.250	1	40
491.591	1	35
491.932	1	46
492.272	1	30
492.613	1	34
492.953	1	39
493.294	1	26
493.635	1	35
493.975	1	44
494.316	1	30
494.656	1	36
494.997	1	27
495.337	1	40
495.678	1	38
496.019	1	32
496.359	1	39
496.700	1	46
497.040	1	44
497.381	1	38
497.721	1	31
498.062	1	47
498.403	1	53
498.743	1	53
499.084	1	49
499.424	1	52
499.765	1	45
500.105	1	54
500.446	1	43
500.786	1	56
501.127	1	49
501.467	1	54
501.808	1	49
502.148	1	46
502.489	1	48
502.829	1	53
503.170	1	58
503.510	1	52
503.851	1	77
504.191	1	58
504.532	1	74
504.872	1	48
505.213	1	69
505.553	1	70
505.894	1	61
506.234	1	76
506.575	1	65
506.915	1	66
507.256	1	67
507.596	1	70
507.936	1	65
508.277	1	77
508.617	1	71
508.958	1	83
509.298	1	54
509.639	1	65
509.979	1	71
510.319	1	73
510.660	1	71
511.000	1	70
511.341	1	77
511.681	1	81
512.022	1	75
512.362	1	87
512.702	1	69
513.043	1	81
513.383	1	85
513.724	1	82
514.064	1	80
514.404	1	82
514.745	1	68
515.085	1	83
515.425	1	88
515.766	1	83
516.106	1	79
516.447	1	96
516.787	1	83
517.127	1	87
517.468	1	90
517.808	1	77
518.148	1	97
518.489	1	95
518.829	1	95
519.169	1	77
519.510	1	91
519.850	1	85
520.190	1	87
520.531	1	91
520.871	1	89
521.211	1	97
521.552	1	79
521.892	1	104
522.232	1	95
522.573	1	89
522.913	1	109
523.253	1	102
523.593	1	101
523.934	1	81
524.274	1	93
524.614	1	91
524.955	1	101
525.295	1	99
525.635	1	98
525.975	1	95
526.316	1	83
526.656	1	87
526.996	1	92
527.337	1	108
527.677	1	112
528.017	1	88
528.357	1	96
528.698	1	110
529.038	1	99
529.378	1	101
529.718	1	101
530.058	1	99
530.399	1	101
530.739	1	106
531.079	1	103
531.419	1	102
531.760	1	120
532.100	1	109
532.440	1	106
532.780	1	106
533.120	1	97
533.461	1	90
533.801	1	92
534.141	1	96
534.481	1	109
534.821	1	101
535.162	1	85
535.502	1	98
535.842	1	85
536.182	1	98
536.522	1	90
536.862	1	79
537.203	1	87
537.543	1	93
537.883	1	79
538.223	1	103
538.563	1	78
538.903	1	78
539.243	1	86
539.584	1	87
539.924	1	95
540.264	1	90
540.604	1	92
540.944	1	82
541.284	1	95
541.624	1	79
541.964	1	78
542.305	1	86
542.645	1	74
542.985	1	78
543.325	1	83
543.665	1	75
544.005	1	81
544.345	1	88
544.685	1	78
545.025	1	88
545.365	1	86
545.705	1	80
546.045	1	86
546.386	1	77
546.726	1	86
547.066	1	86
547.406	1	73
547.746	1	92
548.086	1	84
548.426	1	85
548.766	1	81
549.106	1	79
549.446	1	88
549.786	1	91
550.126	1	86
550.466	1	83
550.806	1	99
551.146	1	84
551.486	1	81
551.826	1	72
552.166	1	86
552.506	1	80
552.846	1	78
553.186	1	72
553.526	1	80
553.866	1	69
554.206	1	76
554.546	1	81
554.886	1	77
555.226	1	73
555.566	1	77
555.906	1	58
556.246	1	72
556.586	1	69
556.926	1	66
557.266	1	75
557.606	1	55
557.946	1	65
558.286	1	52
558.626	1	75
558.966	1	61
559.306	1	69
559.646	1	73
559.986	1	74
560.325	1	58
560.665	1	64
561.005	1	71
561.345	1	63
561.685	1	68
562.025	1	66
562.365	1	62
562.705	1	67
563.045	1	58
563.385	1	60
563.725	1	57
564.064	1	58
564.404	1	53
564.744	1	57
565.084	1	66
565.424	1	52
565.764	1	59
566.104	1	65
566.444	1	64
566.783	1	62
567.123	1	59
567.463	1	39
567.803	1	63
568.143	1	53
568.483	1	61
568.823	1	54
569.162	1	51
569.502	1	49
569.842	1	47
570.182	1	54
570.522	1	50
570.862	1	51
571.201	1	55
571.541	1	46
571.881	1	43
572.221	1	53
572.561	1	54
572.900	1	49
573.240	1	44
573.580	1	57
573.920	1	46
574.260	1	51
574.599	1	45
574.939	1	43
575.279	1	46
575.619	1	32
575.959	1	41
576.298	1	38
576.638	1	44
576.978	1	43
577.318	1	47
577.657	1	40
577.997	1	55
578.337	1	33
578.677	1	44
579.016	1	50
579.356	1	47
579.696	1	28
580.036	1	44
580.375	1	53
580.715	1	47
581.055	1	41
581.394	1	40
581.734	1	33
582.074	1	35
582.414	1	46
582.753	1	33
583.093	1	44
583.433	1	46
583.772	1	50
584.112	1	48
584.452	1	35
584.791	1	45
585.131	1	40
585.471	1	31
585.811	1	37
586.150	1	41
586.490	1	30
586.830	1	33
587.169	1	38
587.509	1	26
587.849	1	28
588.188	1	31
588.528	1	31
588.867	1	40
589.207	1	40
589.547	1	33
589.886	1	33
590.226	1	21
590.566	1	33
590.905	1	34
591.245	1	24
591.585	1	33
591.924	1	18
592.264	1	36
592.603	1	11
592.943	1	31
593.283	1	41
593.622	1	30
593.962	1	32
594.301	1	21
594.641	1	27
594.981	1	24
595.320	1	31
595.660	1	42
595.999	1	37
596.339	1	25
596.678	1	30
597.018	1	21
597.358	1	22
597.697	1	15
598.037	1	30
598.376	1	20
598.716	1	32
599.055	1	33
599.395	1	28
599.734	1	28
600.074	1	15
600.413	1	14
600.753	1	29
601.092	1	16
601.432	1	28
601.771	1	25
602.111	1	25
602.451	1	25
602.790	1	31
603.130	1	14
603.469	1	22
603.809	1	24
604.148	1	13
604.487	1	34
604.827	1	25
605.166	1	17
605.506	1	28
605.845	1	34
606.185	1	7
606.524	1	8
606.864	1	33
607.203	1	37
607.543	1	19
607.882	1	29
608.222	1	22
608.561	1	15
608.901	1	30
609.240	1	19
609.579	1	27
609.919	1	20
610.258	1	29
610.598	1	18
610.937	1	22
611.277	1	25
611.616	1	33
611.955	1	17
612.295	1	30
612.634	1	28
612.974	1	19
613.313	1	16
613.652	1	37
613.992	1	23
614.331	1	23
614.671	1	22
615.010	1	15
615.349	1	21
615.689	1	10
616.028	1	36
616.368	1	22
616.707	1	20
617.046	1	16
617.386	1	16
617.725	1	22
618.064	1	14
618.404	1	12
618.743	1	14
619.082	1	34
619.422	1	31
619.761	1	21
620.100	1	16
620.440	1	25
620.779	1	22
621.118	1	22
621.458	1	14
621.797	1	16
622.136	1	21
622.476	1	23
622.815	1	25
623.154	1	9
623.494	1	12
623.833	1	12
624.172	1	27
624.511	1	8
624.851	1	7
625.190	1	3
625.529	1	20
625.869	1	25
626.208	1	12
626.547	1	5
626.886	1	17
627.226	1	14
627.565	1	18
627.904	1	24
628.243	1	24
628.583	1	16
628.922	1	22
629.261	1	20
629.600	1	7
629.940	1	22
630.279	1	25
630.618	1	20
630.957	1	19
631.297	1	18
631.636	1	9
631.975	1	15
632.314	1	19
632.653	1	10
632.993	1	16
633.332	1	22
633.671	1	16
634.010	1	21
634.349	1	24
634.689	1	14
635.028	1	7
635.367	1	19
635.706	1	9
636.045	1	10
636.384	1	16
636.724	1	17
637.063	1	14
637.402	1	10
637.741	1	12
638.080	1	16
638.419	1	16
638.759	1	21
639.098	1	13
639.437	1	17
639.776	1	14
640.115	1	-7
640.454	1	9
640.793	1	17
641.132	1	14
641.472	1	28
641.811	1	12
642.150	1	15
642.489	1	10
642.828	1	23
643.167	1	15
643.506	1	18
643.845	1	17
644.184	1	11
644.524	1	11
644.863	1	14
645.202	1	13
645.541	1	8
645.880	1	10
646.219	1	8
646.558	1	15
646.897	1	2
647.236	1	9
647.575	1	23
647.914	1	15
648.253	1	20
648.592	1	21
648.931	1	16
649.270	1	25
649.610	1	18
649.949	1	13
650.288	1	18
650.627	1	9
650.966	1	13
651.305	1	15
651.644	1	23
651.983	1	3
652.322	1	17
652.661	1	18
653.000	1	8
653.339	1	5
653.678	1	24
654.017	1	13
654.356	1	15
654.695	1	27
655.034	1	9
655.373	1	13
655.712	1	12
656.051	1	9
656.390	1	16
656.729	1	15
657.068	1	8
657.406	1	6
657.745	1	21
658.084	1	21
658.423	1	11
658.762	1	8
659.101	1	15
659.440	1	15
659.779	1	13
660.118	1	11
660.457	1	13
660.796	1	15
661.135	1	9
661.474	1	12
661.813	1	14
662.152	1	13
662.491	1	5
662.829	1	18
663.168	1	8
663.507	1	13
663.846	1	18
664.185	1	10
664.524	1	18
664.863	1	4
665.202	1	15
665.541	1	13
665.879	1	11
666.218	1	14
666.557	1	7
666.896	1	14
667.235	1	7
667.574	1	18
667.913	1	9
668.251	1	-3
668.590	1	7
668.929	1	16
669.268	1	11
669.607	1	3
669.946	1	7
670.285	1	8
670.623	1	14
670.962	1	6
671.301	1	15
671.640	1	18
671.979	1	9
672.317	1	18
672.656	1	17
672.995	1	14
673.334	1	6
673.673	1	15
674.011	1	14
674.350	1	14
674.689	1	-1
675.028	1	9
675.367	1	15
675.705	1	6
676.044	1	17
676.383	1	11
676.722	1	13
677.060	1	21
677.399	1	29
677.738	1	11
678.077	1	12
678.416	1	6
678.754	1	15
679.093	1	26
679.432	1	4
679.771	1	10
680.109	1	10
680.448	1	1
680.787	1	-1
681.125	1	15
681.464	1	17
681.803	1	14
682.142	1	15
682.480	1	2
682.819	1	17
683.158	1	6
683.496	1	13
683.835	1	19
684.174	1	11
684.512	1	3
684.851	1	14
685.190	1	9
685.529	1	14
685.867	1	13
686.206	1	0
686.545	1	17
686.883	1	20
687.222	1	14
687.561	1	9
687.899	1	9
688.238	1	17
688.577	1	22
688.746	1	17