File: Data/GaN_150K_450ms/GaN_sample D_spot15_UVVIS_150 K_200um_450 ms 2x2mm1_139.txt
340.368	1	0
340.710	1	7
341.052	1	1
341.394	1	-6
341.737	1	11
342.079	1	8
342.421	1	1
342.763	1	5
343.105	1	5
343.447	1	11
343.789	1	13
344.131	1	-8
344.473	1	4
344.815	1	4
345.157	1	13
345.499	1	9
345.841	1	4
346.183	1	0
346.526	1	10
346.868	1	-1
347.210	1	-3
347.552	1	15
347.894	1	3
348.236	1	8
348.578	1	11
348.920	1	8
349.262	1	8
349.604	1	1
349.946	1	6
350.288	1	4
350.630	1	-2
350.972	1	17
351.314	1	1
351.656	1	5
351.998	1	14
352.340	1	12
352.682	1	-12
353.024	1	24
353.366	1	3
353.708	1	3
354.050	1	-7
354.392	1	2
354.734	1	4
355.076	1	15
355.418	1	7
355.760	1	12
356.102	1	7
356.444	1	20
356.785	1	6
357.127	1	10
357.469	1	8
357.811	1	8
358.153	1	-5
358.495	1	5
358.837	1	26
359.179	1	9
359.521	1	12
359.863	1	8
360.205	1	32
360.547	1	23
360.889	1	10
361.231	1	22
361.572	1	12
361.914	1	15
362.256	1	19
362.598	1	25
362.940	1	17
363.282	1	15
363.624	1	24
363.966	1	19
364.308	1	29
364.649	1	25
364.991	1	36
365.333	1	26
365.675	1	49
366.017	1	45
366.359	1	33
366.701	1	44
367.042	1	53
367.384	1	37
367.726	1	46
368.068	1	46
368.410	1	45
368.752	1	57
369.093	1	51
369.435	1	53
369.777	1	44
370.119	1	39
370.461	1	49
370.803	1	36
371.144	1	36
371.486	1	35
371.828	1	35
372.170	1	37
372.512	1	32
372.853	1	50
373.195	1	29
373.537	1	22
373.879	1	35
374.220	1	32
374.562	1	28
374.904	1	32
375.246	1	22
375.588	1	16
375.929	1	20
376.271	1	23
376.613	1	20
376.955	1	19
377.296	1	25
377.638	1	8
377.980	1	15
378.321	1	10
378.663	1	21
379.005	1	22
379.347	1	18
379.688	1	17
380.030	1	19
380.372	1	16
380.714	1	19
381.055	1	13
381.397	1	3
381.739	1	0
382.080	1	12
382.422	1	19
382.764	1	15
383.105	1	7
383.447	1	10
383.789	1	0
384.130	1	23
384.472	1	2
384.814	1	10
385.156	1	7
385.497	1	22
385.839	1	12
386.180	1	3
386.522	1	15
386.864	1	1
387.205	1	17
387.547	1	14
387.889	1	-7
388.230	1	11
388.572	1	3
388.914	1	17
389.255	1	10
389.597	1	6
389.939	1	16
390.280	1	-6
390.622	1	3
390.963	1	2
391.305	1	7
391.647	1	15
391.988	1	0
392.330	1	-1
392.671	1	18
393.013	1	24
393.355	1	18
393.696	1	8
394.038	1	11
394.379	1	16
394.721	1	12
395.062	1	-8
395.404	1	15
395.746	1	2
396.087	1	15
396.429	1	13
396.770	1	14
397.112	1	4
397.453	1	7
397.795	1	1
398.136	1	8
398.478	1	10
398.819	1	10
399.161	1	9
399.503	1	18
399.844	1	7
400.186	1	13
400.527	1	10
400.869	1	10
401.210	1	3
401.552	1	19
401.893	1	8
402.235	1	11
402.576	1	9
402.918	1	11
403.259	1	2
403.601	1	15
403.942	1	2
404.284	1	13
404.625	1	-4
404.967	1	5
405.308	1	-1
405.649	1	12
405.991	1	12
406.332	1	10
406.674	1	1
407.015	1	21
407.357	1	10
407.698	1	11
408.040	1	19
408.381	1	-1
408.722	1	13
409.064	1	9
409.405	1	1
409.747	1	7
410.088	1	18
410.430	1	8
410.771	1	14
411.112	1	6
411.454	1	10
411.795	1	12
412.137	1	9
412.478	1	13
412.819	1	13
413.161	1	4
413.502	1	7
413.844	1	15
414.185	1	18
414.526	1	-2
414.868	1	8
415.209	1	10
415.550	1	15
415.892	1	10
416.233	1	9
416.575	1	-3
416.916	1	14
417.257	1	13
417.599	1	7
417.940	1	-6
418.281	1	17
418.623	1	12
418.964	1	20
419.305	1	14
419.647	1	7
419.988	1	14
420.329	1	1
420.671	1	20
421.012	1	4
421.353	1	15
421.695	1	12
422.036	1	22
422.377	1	9
422.718	1	17
423.060	1	10
423.401	1	6
423.742	1	27
424.084	1	17
424.425	1	6
424.766	1	7
425.107	1	11
425.449	1	12
425.790	1	15
426.131	1	13
426.472	1	25
426.814	1	9
427.155	1	15
427.496	1	9
427.837	1	11
428.179	1	14
428.520	1	9
428.861	1	13
429.202	1	-4
429.544	1	7
429.885	1	7
430.226	1	0
430.567	1	-2
430.909	1	1
431.250	1	11
431.591	1	16
431.932	1	9
432.273	1	17
432.615	1	2
432.956	1	8
433.297	1	13
433.638	1	17
433.979	1	12
434.320	1	7
434.662	1	15
435.003	1	15
435.344	1	16
435.685	1	5
436.026	1	1
436.368	1	3
436.709	1	6
437.050	1	8
437.391	1	3
437.732	1	11
438.073	1	0
438.414	1	20
438.756	1	8
439.097	1	12
439.438	1	0
439.779	1	10
440.120	1	8
440.461	1	11
440.802	1	12
441.143	1	6
441.485	1	4
441.826	1	7
442.167	1	10
442.508	1	9
442.849	1	10
443.190	1	18
443.531	1	10
443.872	1	2
444.213	1	-6
444.554	1	8
444.895	1	5
445.237	1	14
445.578	1	2
445.919	1	10
446.260	1	11
446.601	1	1
446.942	1	8
447.283	1	25
447.624	1	1
447.965	1	9
448.306	1	5
448.647	1	8
448.988	1	8
449.329	1	7
449.670	1	11
450.011	1	-1
450.352	1	15
450.693	1	5
451.034	1	5
451.375	1	0
451.716	1	12
452.057	1	9
452.398	1	16
452.739	1	2
453.080	1	8
453.421	1	12
453.762	1	7
454.103	1	9
454.444	1	8
454.785	1	13
455.126	1	6
455.467	1	6
455.808	1	17
456.149	1	0
456.490	1	-9
456.831	1	8
457.172	1	4
457.513	1	9
457.854	1	13
458.195	1	5
458.536	1	9
458.877	1	12
459.218	1	7
459.559	1	-2
459.899	1	7
460.240	1	7
460.581	1	4
460.922	1	12
461.263	1	11
461.604	1	5
461.945	1	9
462.286	1	8
462.627	1	5
462.968	1	5
463.309	1	8
463.649	1	0
463.990	1	13
464.331	1	17
464.672	1	-2
465.013	1	2
465.354	1	12
465.695	1	12
466.036	1	9
466.376	1	10
466.717	1	-5
467.058	1	-1
467.399	1	5
467.740	1	12
468.081	1	17
468.422	1	9
468.762	1	14
469.103	1	7
469.444	1	2
469.785	1	-4
470.126	1	13
470.467	1	14
470.807	1	13
471.148	1	2
471.489	1	4
471.830	1	13
472.171	1	11
472.511	1	8
472.852	1	16
473.193	1	1
473.534	1	2
473.875	1	3
474.215	1	10
474.556	1	4
474.897	1	-2
475.238	1	8
475.578	1	2
475.919	1	9
476.260	1	-2
476.601	1	0
476.942	1	-3
477.282	1	1
477.623	1	-3
477.964	1	7
478.305	1	7
478.645	1	7
478.986	1	20
479.327	1	12
479.667	1	6
480.008	1	11
480.349	1	10
480.690	1	10
481.030	1	1
481.371	1	-3
481.712	1	6
482.053	1	12
482.393	1	7
482.734	1	11
483.075	1	4
483.415	1	8
483.756	1	12
484.097	1	17
484.437	1	14
484.778	1	-2
485.119	1	7
485.459	1	3
485.800	1	2
486.141	1	16
486.481	1	-3
486.822	1	17
487.163	1	4
487.503	1	1
487.844	1	0
488.185	1	3
488.525	1	-1
488.866	1	5
489.207	1	8
489.547	1	2
489.888	1	12
490.228	1	-1
490.569	1	0
490.910	1	11
491.250	1	6
491.591	1	9
491.932	1	19
492.272	1	-3
492.613	1	1
492.953	1	5
493.294	1	-12
493.635	1	8
493.975	1	16
494.316	1	-1
494.656	1	14
494.997	1	12
495.337	1	0
495.678	1	1
496.019	1	13
496.359	1	0
496.700	1	5
497.040	1	8
497.381	1	11
497.721	1	2
498.062	1	2
498.403	1	9
498.743	1	10
499.084	1	4
499.424	1	5
499.765	1	9
500.105	1	6
500.446	1	-6
500.786	1	1
501.127	1	12
501.467	1	15
501.808	1	11
502.148	1	6
502.489	1	5
502.829	1	7
503.170	1	16
503.510	1	-8
503.851	1	15
504.191	1	9
504.532	1	12
504.872	1	-8
505.213	1	-6
505.553	1	12
505.894	1	14
506.234	1	13
506.575	1	20
506.915	1	14
507.256	1	14
507.596	1	12
507.936	1	22
508.277	1	17
508.617	1	10
508.958	1	8
509.298	1	2
509.639	1	2
509.979	1	9
510.319	1	12
510.660	1	2
511.000	1	13
511.341	1	21
511.681	1	12
512.022	1	-7
512.362	1	17
512.702	1	0
513.043	1	13
513.383	1	14
513.724	1	10
514.064	1	18
514.404	1	24
514.745	1	7
515.085	1	17
515.425	1	20
515.766	1	7
516.106	1	8
516.447	1	15
516.787	1	10
517.127	1	22
517.468	1	18
517.808	1	6
518.148	1	21
518.489	1	10
518.829	1	6
519.169	1	5
519.510	1	5
519.850	1	15
520.190	1	8
520.531	1	18
520.871	1	14
521.211	1	16
521.552	1	6
521.892	1	12
522.232	1	8
522.573	1	10
522.913	1	14
523.253	1	18
523.593	1	18
523.934	1	7
524.274	1	6
524.614	1	16
524.955	1	2
525.295	1	17
525.635	1	13
525.975	1	10
526.316	1	2
526.656	1	7
526.996	1	1
527.337	1	12
527.677	1	24
528.017	1	10
528.357	1	19
528.698	1	13
529.038	1	14
529.378	1	6
529.718	1	7
530.058	1	17
530.399	1	20
530.739	1	16
531.079	1	10
531.419	1	3
531.760	1	25
532.100	1	12
532.440	1	12
532.780	1	10
533.120	1	11
533.461	1	9
533.801	1	18
534.141	1	15
534.481	1	23
534.821	1	12
535.162	1	11
535.502	1	15
535.842	1	7
536.182	1	7
536.522	1	14
536.862	1	10
537.203	1	19
537.543	1	11
537.883	1	12
538.223	1	19
538.563	1	17
538.903	1	1
539.243	1	6
539.584	1	13
539.924	1	14
540.264	1	20
540.604	1	11
540.944	1	6
541.284	1	9
541.624	1	15
541.964	1	14
542.305	1	5
542.645	1	5
542.985	1	9
543.325	1	21
543.665	1	4
544.005	1	12
544.345	1	19
544.685	1	11
545.025	1	7
545.365	1	10
545.705	1	10
546.045	1	18
546.386	1	14
546.726	1	9
547.066	1	9
547.406	1	2
547.746	1	5
548.086	1	13
548.426	1	13
548.766	1	15
549.106	1	4
549.446	1	15
549.786	1	14
550.126	1	8
550.466	1	7
550.806	1	12
551.146	1	4
551.486	1	6
551.826	1	6
552.166	1	5
552.506	1	7
552.846	1	5
553.186	1	-5
553.526	1	12
553.866	1	10
554.206	1	11
554.546	1	13
554.886	1	6
555.226	1	4
555.566	1	11
555.906	1	3
556.246	1	18
556.586	1	2
556.926	1	12
557.266	1	13
557.606	1	2
557.946	1	17
558.286	1	-7
558.626	1	5
558.966	1	6
559.306	1	10
559.646	1	14
559.986	1	11
560.325	1	11
560.665	1	4
561.005	1	9
561.345	1	7
561.685	1	13
562.025	1	8
562.365	1	13
562.705	1	15
563.045	1	7
563.385	1	1
563.725	1	7
564.064	1	1
564.404	1	5
564.744	1	18
565.084	1	12
565.424	1	3
565.764	1	12
566.104	1	11
566.444	1	17
566.783	1	5
567.123	1	2
567.463	1	4
567.803	1	20
568.143	1	9
568.483	1	13
568.823	1	8
569.162	1	6
569.502	1	18
569.842	1	7
570.182	1	8
570.522	1	4
570.862	1	-12
571.201	1	17
571.541	1	6
571.881	1	7
572.221	1	5
572.561	1	19
572.900	1	14
573.240	1	3
573.580	1	7
573.920	1	13
574.260	1	2
574.599	1	9
574.939	1	5
575.279	1	2
575.619	1	9
575.959	1	4
576.298	1	5
576.638	1	12
576.978	1	8
577.318	1	0
577.657	1	-3
577.997	1	11
578.337	1	6
578.677	1	1
579.016	1	-1
579.356	1	9
579.696	1	11
580.036	1	5
580.375	1	2
580.715	1	8
581.055	1	4
581.394	1	6
581.734	1	16
582.074	1	5
582.414	1	8
582.753	1	2
583.093	1	9
583.433	1	15
583.772	1	14
584.112	1	5
584.452	1	10
584.791	1	9
585.131	1	12
585.471	1	12
585.811	1	13
586.150	1	7
586.490	1	8
586.830	1	12
587.169	1	-5
587.509	1	11
587.849	1	16
588.188	1	11
588.528	1	0
588.867	1	10
589.207	1	16
589.547	1	7
589.886	1	9
590.226	1	2
590.566	1	2
590.905	1	7
591.245	1	-7
591.585	1	-3
591.924	1	3
592.264	1	6
592.603	1	-4
592.943	1	2
593.283	1	7
593.622	1	5
593.962	1	6
594.301	1	2
594.641	1	14
594.981	1	2
595.320	1	5
595.660	1	11
595.999	1	5
596.339	1	4
596.678	1	-11
597.018	1	4
597.358	1	5
597.697	1	-6
598.037	1	8
598.376	1	-1
598.716	1	6
599.055	1	9
599.395	1	-3
599.734	1	9
600.074	1	-1
600.413	1	0
600.753	1	6
601.092	1	-1
601.432	1	13
601.771	1	9
602.111	1	4
602.451	1	5
602.790	1	-6
603.130	1	3
603.469	1	2
603.809	1	3
604.148	1	6
604.487	1	7
604.827	1	13
605.166	1	5
605.506	1	-3
605.845	1	4
606.185	1	4
606.524	1	4
606.864	1	12
607.203	1	7
607.543	1	6
607.882	1	17
608.222	1	1
608.561	1	3
608.901	1	8
609.240	1	8
609.579	1	2
609.919	1	1
610.258	1	16
610.598	1	0
610.937	1	2
611.277	1	4
611.616	1	10
611.955	1	1
612.295	1	3
612.634	1	14
612.974	1	3
613.313	1	4
613.652	1	9
613.992	1	0
614.331	1	11
614.671	1	16
615.010	1	3
615.349	1	9
615.689	1	1
616.028	1	26
616.368	1	3
616.707	1	9
617.046	1	-1
617.386	1	8
617.725	1	5
618.064	1	-12
618.404	1	7
618.743	1	9
619.082	1	18
619.422	1	12
619.761	1	7
620.100	1	-3
620.440	1	0
620.779	1	3
621.118	1	15
621.458	1	8
621.797	1	1
622.136	1	1
622.476	1	9
622.815	1	7
623.154	1	-10
623.494	1	-2
623.833	1	4
624.172	1	9
624.511	1	1
624.851	1	7
625.190	1	-1
625.529	1	1
625.869	1	11
626.208	1	1
626.547	1	2
626.886	1	-5
627.226	1	7
627.565	1	8
627.904	1	-1
628.243	1	7
628.583	1	15
628.922	1	6
629.261	1	-5
629.600	1	-1
629.940	1	4
630.279	1	5
630.618	1	-3
630.957	1	7
631.297	1	11
631.636	1	5
631.975	1	3
632.314	1	9
632.653	1	-1
632.993	1	0
633.332	1	7
633.671	1	7
634.010	1	3
634.349	1	8
634.689	1	2
635.028	1	2
635.367	1	11
635.706	1	-1
636.045	1	0
636.384	1	10
636.724	1	12
637.063	1	-6
637.402	1	7
637.741	1	2
638.080	1	1
638.419	1	2
638.759	1	-1
639.098	1	7
639.437	1	-6
639.776	1	4
640.115	1	-2
640.454	1	-3
640.793	1	-1
641.132	1	3
641.472	1	11
641.811	1	-2
642.150	1	2
642.489	1	9
642.828	1	16
643.167	1	4
643.506	1	7
643.845	1	6
644.184	1	11
644.524	1	5
644.863	1	6
645.202	1	4
645.541	1	6
645.880	1	6
646.219	1	4
646.558	1	-7
646.897	1	-6
647.236	1	0
647.575	1	9
647.914	1	4
648.253	1	9
648.592	1	10
648.931	1	10
649.270	1	17
649.610	1	11
649.949	1	-5
650.288	1	10
650.627	1	-1
650.966	1	8
651.305	1	7
651.644	1	14
651.983	1	5
652.322	1	9
652.661	1	14
653.000	1	7
653.339	1	6
653.678	1	10
654.017	1	12
654.356	1	14
654.695	1	8
655.034	1	7
655.373	1	11
655.712	1	4
656.051	1	-1
656.390	1	8
656.729	1	8
657.068	1	2
657.406	1	4
657.745	1	14
658.084	1	8
658.423	1	10
658.762	1	-2
659.101	1	5
659.440	1	10
659.779	1	8
660.118	1	7
660.457	1	10
660.796	1	7
661.135	1	11
661.474	1	2
661.813	1	5
662.152	1	4
662.491	1	-3
662.829	1	9
663.168	1	2
663.507	1	8
663.846	1	5
664.185	1	-1
664.524	1	11
664.863	1	-6
665.202	1	15
665.541	1	-7
665.879	1	3
666.218	1	12
666.557	1	9
666.896	1	6
667.235	1	1
667.574	1	4
667.913	1	8
668.251	1	-8
668.590	1	2
668.929	1	-2
669.268	1	6
669.607	1	1
669.946	1	-2
670.285	1	3
670.623	1	-2
670.962	1	-1
671.301	1	4
671.640	1	7
671.979	1	-4
672.317	1	1
672.656	1	12
672.995	1	4
673.334	1	3
673.673	1	16
674.011	1	8
674.350	1	8
674.689	1	1
675.028	1	6
675.367	1	5
675.705	1	-14
676.044	1	-3
676.383	1	7
676.722	1	3
677.060	1	7
677.399	1	14
677.738	1	5
678.077	1	2
678.416	1	1
678.754	1	0
679.093	1	8
679.432	1	3
679.771	1	2
680.109	1	1
680.448	1	7
680.787	1	-9
681.125	1	6
681.464	1	5
681.803	1	-1
682.142	1	5
682.480	1	-2
682.819	1	3
683.158	1	-3
683.496	1	0
683.835	1	12
684.174	1	9
684.512	1	-6
684.851	1	-5
685.190	1	-3
685.529	1	2
685.867	1	4
686.206	1	-2
686.545	1	6
686.883	1	16
687.222	1	-1
687.561	1	8
687.899	1	9
688.238	1	24
688.577	1	0
688.746	1	5