File: Data/GaN_150K_450ms/GaN_sample D_spot15_UVVIS_150 K_200um_450 ms 2x2mm1_71.txt
340.368	1	-4
340.710	1	4
341.052	1	-2
341.394	1	-5
341.737	1	15
342.079	1	6
342.421	1	8
342.763	1	6
343.105	1	8
343.447	1	3
343.789	1	12
344.131	1	3
344.473	1	8
344.815	1	6
345.157	1	10
345.499	1	6
345.841	1	7
346.183	1	-3
346.526	1	11
346.868	1	7
347.210	1	4
347.552	1	21
347.894	1	8
348.236	1	5
348.578	1	21
348.920	1	9
349.262	1	14
349.604	1	3
349.946	1	2
350.288	1	4
350.630	1	3
350.972	1	14
351.314	1	9
351.656	1	13
351.998	1	13
352.340	1	9
352.682	1	-3
353.024	1	18
353.366	1	9
353.708	1	10
354.050	1	1
354.392	1	0
354.734	1	19
355.076	1	18
355.418	1	9
355.760	1	15
356.102	1	17
356.444	1	18
356.785	1	19
357.127	1	24
357.469	1	25
357.811	1	24
358.153	1	21
358.495	1	20
358.837	1	40
359.179	1	35
359.521	1	31
359.863	1	25
360.205	1	47
360.547	1	48
360.889	1	49
361.231	1	53
361.572	1	55
361.914	1	57
362.256	1	75
362.598	1	71
362.940	1	78
363.282	1	76
363.624	1	104
363.966	1	99
364.308	1	119
364.649	1	125
364.991	1	154
365.333	1	164
365.675	1	189
366.017	1	196
366.359	1	201
366.701	1	216
367.042	1	240
367.384	1	238
367.726	1	233
368.068	1	258
368.410	1	252
368.752	1	238
369.093	1	244
369.435	1	223
369.777	1	227
370.119	1	213
370.461	1	193
370.803	1	180
371.144	1	167
371.486	1	174
371.828	1	166
372.170	1	143
372.512	1	126
372.853	1	130
373.195	1	129
373.537	1	106
373.879	1	115
374.220	1	104
374.562	1	110
374.904	1	109
375.246	1	92
375.588	1	79
375.929	1	79
376.271	1	74
376.613	1	71
376.955	1	74
377.296	1	82
377.638	1	70
377.980	1	65
378.321	1	60
378.663	1	59
379.005	1	55
379.347	1	60
379.688	1	56
380.030	1	50
380.372	1	58
380.714	1	46
381.055	1	48
381.397	1	35
381.739	1	36
382.080	1	34
382.422	1	42
382.764	1	45
383.105	1	35
383.447	1	31
383.789	1	25
384.130	1	37
384.472	1	34
384.814	1	43
385.156	1	40
385.497	1	46
385.839	1	33
386.180	1	30
386.522	1	40
386.864	1	25
387.205	1	29
387.547	1	41
387.889	1	24
388.230	1	26
388.572	1	22
388.914	1	36
389.255	1	24
389.597	1	26
389.939	1	38
390.280	1	22
390.622	1	28
390.963	1	20
391.305	1	13
391.647	1	19
391.988	1	17
392.330	1	24
392.671	1	19
393.013	1	25
393.355	1	18
393.696	1	16
394.038	1	21
394.379	1	23
394.721	1	26
395.062	1	10
395.404	1	18
395.746	1	10
396.087	1	34
396.429	1	25
396.770	1	22
397.112	1	33
397.453	1	13
397.795	1	16
398.136	1	31
398.478	1	16
398.819	1	18
399.161	1	19
399.503	1	20
399.844	1	14
400.186	1	24
400.527	1	21
400.869	1	26
401.210	1	9
401.552	1	20
401.893	1	16
402.235	1	23
402.576	1	14
402.918	1	15
403.259	1	19
403.601	1	22
403.942	1	16
404.284	1	23
404.625	1	13
404.967	1	19
405.308	1	14
405.649	1	15
405.991	1	17
406.332	1	19
406.674	1	15
407.015	1	22
407.357	1	13
407.698	1	19
408.040	1	32
408.381	1	11
408.722	1	17
409.064	1	16
409.405	1	22
409.747	1	18
410.088	1	24
410.430	1	30
410.771	1	21
411.112	1	13
411.454	1	11
411.795	1	15
412.137	1	11
412.478	1	25
412.819	1	26
413.161	1	15
413.502	1	12
413.844	1	21
414.185	1	13
414.526	1	8
414.868	1	9
415.209	1	10
415.550	1	12
415.892	1	17
416.233	1	11
416.575	1	7
416.916	1	18
417.257	1	13
417.599	1	11
417.940	1	9
418.281	1	27
418.623	1	14
418.964	1	27
419.305	1	20
419.647	1	16
419.988	1	28
420.329	1	23
420.671	1	31
421.012	1	16
421.353	1	25
421.695	1	21
422.036	1	18
422.377	1	13
422.718	1	25
423.060	1	16
423.401	1	17
423.742	1	22
424.084	1	19
424.425	1	16
424.766	1	18
425.107	1	17
425.449	1	23
425.790	1	24
426.131	1	21
426.472	1	20
426.814	1	20
427.155	1	22
427.496	1	19
427.837	1	10
428.179	1	26
428.520	1	17
428.861	1	30
429.202	1	6
429.544	1	10
429.885	1	29
430.226	1	-2
430.567	1	4
430.909	1	12
431.250	1	25
431.591	1	9
431.932	1	16
432.273	1	22
432.615	1	18
432.956	1	22
433.297	1	18
433.638	1	23
433.979	1	12
434.320	1	17
434.662	1	22
435.003	1	19
435.344	1	10
435.685	1	9
436.026	1	17
436.368	1	6
436.709	1	13
437.050	1	9
437.391	1	13
437.732	1	16
438.073	1	15
438.414	1	16
438.756	1	20
439.097	1	1
439.438	1	15
439.779	1	14
440.120	1	14
440.461	1	14
440.802	1	15
441.143	1	11
441.485	1	10
441.826	1	12
442.167	1	17
442.508	1	17
442.849	1	17
443.190	1	13
443.531	1	9
443.872	1	2
444.213	1	1
444.554	1	21
444.895	1	13
445.237	1	14
445.578	1	5
445.919	1	7
446.260	1	28
446.601	1	17
446.942	1	12
447.283	1	27
447.624	1	0
447.965	1	15
448.306	1	7
448.647	1	2
448.988	1	13
449.329	1	13
449.670	1	12
450.011	1	13
450.352	1	14
450.693	1	19
451.034	1	14
451.375	1	8
451.716	1	11
452.057	1	4
452.398	1	17
452.739	1	14
453.080	1	14
453.421	1	12
453.762	1	18
454.103	1	16
454.444	1	8
454.785	1	10
455.126	1	14
455.467	1	20
455.808	1	20
456.149	1	10
456.490	1	3
456.831	1	0
457.172	1	18
457.513	1	12
457.854	1	14
458.195	1	10
458.536	1	12
458.877	1	12
459.218	1	21
459.559	1	9
459.899	1	8
460.240	1	6
460.581	1	8
460.922	1	6
461.263	1	12
461.604	1	16
461.945	1	15
462.286	1	12
462.627	1	8
462.968	1	15
463.309	1	10
463.649	1	9
463.990	1	16
464.331	1	8
464.672	1	11
465.013	1	14
465.354	1	20
465.695	1	12
466.036	1	20
466.376	1	21
466.717	1	2
467.058	1	13
467.399	1	-1
467.740	1	18
468.081	1	13
468.422	1	5
468.762	1	14
469.103	1	16
469.444	1	9
469.785	1	12
470.126	1	14
470.467	1	10
470.807	1	12
471.148	1	9
471.489	1	15
471.830	1	4
472.171	1	15
472.511	1	13
472.852	1	17
473.193	1	10
473.534	1	4
473.875	1	9
474.215	1	14
474.556	1	4
474.897	1	0
475.238	1	9
475.578	1	10
475.919	1	11
476.260	1	3
476.601	1	10
476.942	1	-1
477.282	1	2
477.623	1	12
477.964	1	17
478.305	1	18
478.645	1	11
478.986	1	26
479.327	1	6
479.667	1	7
480.008	1	20
480.349	1	16
480.690	1	17
481.030	1	10
481.371	1	10
481.712	1	22
482.053	1	23
482.393	1	12
482.734	1	20
483.075	1	10
483.415	1	14
483.756	1	14
484.097	1	17
484.437	1	12
484.778	1	18
485.119	1	16
485.459	1	14
485.800	1	7
486.141	1	25
486.481	1	10
486.822	1	21
487.163	1	11
487.503	1	20
487.844	1	11
488.185	1	22
488.525	1	18
488.866	1	14
489.207	1	28
489.547	1	25
489.888	1	19
490.228	1	16
490.569	1	13
490.910	1	27
491.250	1	25
491.591	1	20
491.932	1	24
492.272	1	13
492.613	1	16
492.953	1	23
493.294	1	10
493.635	1	26
493.975	1	30
494.316	1	12
494.656	1	31
494.997	1	22
495.337	1	24
495.678	1	24
496.019	1	12
496.359	1	22
496.700	1	19
497.040	1	14
497.381	1	24
497.721	1	25
498.062	1	23
498.403	1	33
498.743	1	29
499.084	1	31
499.424	1	32
499.765	1	27
500.105	1	48
500.446	1	28
500.786	1	31
501.127	1	31
501.467	1	46
501.808	1	30
502.148	1	34
502.489	1	37
502.829	1	37
503.170	1	35
503.510	1	28
503.851	1	47
504.191	1	43
504.532	1	44
504.872	1	38
505.213	1	45
505.553	1	37
505.894	1	39
506.234	1	53
506.575	1	58
506.915	1	47
507.256	1	42
507.596	1	53
507.936	1	54
508.277	1	45
508.617	1	45
508.958	1	65
509.298	1	41
509.639	1	31
509.979	1	53
510.319	1	37
510.660	1	38
511.000	1	47
511.341	1	55
511.681	1	47
512.022	1	52
512.362	1	50
512.702	1	37
513.043	1	59
513.383	1	42
513.724	1	54
514.064	1	59
514.404	1	61
514.745	1	41
515.085	1	55
515.425	1	62
515.766	1	52
516.106	1	57
516.447	1	53
516.787	1	56
517.127	1	57
517.468	1	73
517.808	1	57
518.148	1	59
518.489	1	58
518.829	1	53
519.169	1	47
519.510	1	55
519.850	1	61
520.190	1	49
520.531	1	52
520.871	1	48
521.211	1	64
521.552	1	57
521.892	1	60
522.232	1	60
522.573	1	46
522.913	1	56
523.253	1	58
523.593	1	63
523.934	1	63
524.274	1	66
524.614	1	67
524.955	1	60
525.295	1	63
525.635	1	60
525.975	1	55
526.316	1	60
526.656	1	57
526.996	1	64
527.337	1	63
527.677	1	73
528.017	1	46
528.357	1	73
528.698	1	67
529.038	1	69
529.378	1	69
529.718	1	64
530.058	1	67
530.399	1	62
530.739	1	60
531.079	1	57
531.419	1	61
531.760	1	66
532.100	1	68
532.440	1	64
532.780	1	63
533.120	1	59
533.461	1	54
533.801	1	61
534.141	1	58
534.481	1	66
534.821	1	60
535.162	1	65
535.502	1	58
535.842	1	54
536.182	1	57
536.522	1	46
536.862	1	55
537.203	1	61
537.543	1	54
537.883	1	53
538.223	1	67
538.563	1	48
538.903	1	48
539.243	1	53
539.584	1	46
539.924	1	50
540.264	1	63
540.604	1	63
540.944	1	52
541.284	1	59
541.624	1	48
541.964	1	53
542.305	1	66
542.645	1	54
542.985	1	58
543.325	1	51
543.665	1	43
544.005	1	46
544.345	1	54
544.685	1	53
545.025	1	61
545.365	1	64
545.705	1	51
546.045	1	59
546.386	1	57
546.726	1	43
547.066	1	45
547.406	1	54
547.746	1	41
548.086	1	54
548.426	1	53
548.766	1	58
549.106	1	47
549.446	1	60
549.786	1	58
550.126	1	56
550.466	1	48
550.806	1	57
551.146	1	56
551.486	1	42
551.826	1	44
552.166	1	53
552.506	1	51
552.846	1	48
553.186	1	42
553.526	1	51
553.866	1	52
554.206	1	53
554.546	1	50
554.886	1	44
555.226	1	43
555.566	1	46
555.906	1	53
556.246	1	51
556.586	1	47
556.926	1	40
557.266	1	52
557.606	1	41
557.946	1	50
558.286	1	27
558.626	1	43
558.966	1	48
559.306	1	50
559.646	1	52
559.986	1	38
560.325	1	31
560.665	1	38
561.005	1	38
561.345	1	32
561.685	1	42
562.025	1	42
562.365	1	38
562.705	1	40
563.045	1	38
563.385	1	39
563.725	1	46
564.064	1	38
564.404	1	36
564.744	1	33
565.084	1	41
565.424	1	27
565.764	1	38
566.104	1	34
566.444	1	45
566.783	1	37
567.123	1	36
567.463	1	36
567.803	1	46
568.143	1	33
568.483	1	41
568.823	1	28
569.162	1	28
569.502	1	38
569.842	1	26
570.182	1	31
570.522	1	31
570.862	1	18
571.201	1	38
571.541	1	28
571.881	1	11
572.221	1	32
572.561	1	33
572.900	1	35
573.240	1	26
573.580	1	30
573.920	1	41
574.260	1	33
574.599	1	35
574.939	1	30
575.279	1	33
575.619	1	29
575.959	1	27
576.298	1	17
576.638	1	35
576.978	1	33
577.318	1	23
577.657	1	24
577.997	1	32
578.337	1	27
578.677	1	17
579.016	1	31
579.356	1	29
579.696	1	21
580.036	1	35
580.375	1	31
580.715	1	26
581.055	1	26
581.394	1	12
581.734	1	19
582.074	1	30
582.414	1	20
582.753	1	29
583.093	1	22
583.433	1	20
583.772	1	38
584.112	1	17
584.452	1	26
584.791	1	26
585.131	1	22
585.471	1	18
585.811	1	20
586.150	1	19
586.490	1	18
586.830	1	19
587.169	1	19
587.509	1	17
587.849	1	24
588.188	1	22
588.528	1	17
588.867	1	19
589.207	1	17
589.547	1	22
589.886	1	27
590.226	1	14
590.566	1	8
590.905	1	12
591.245	1	9
591.585	1	14
591.924	1	10
592.264	1	15
592.603	1	4
592.943	1	18
593.283	1	19
593.622	1	13
593.962	1	26
594.301	1	11
594.641	1	30
594.981	1	15
595.320	1	31
595.660	1	20
595.999	1	9
596.339	1	18
596.678	1	10
597.018	1	14
597.358	1	20
597.697	1	11
598.037	1	17
598.376	1	14
598.716	1	16
599.055	1	15
599.395	1	14
599.734	1	18
600.074	1	19
600.413	1	9
600.753	1	19
601.092	1	2
601.432	1	12
601.771	1	20
602.111	1	19
602.451	1	14
602.790	1	12
603.130	1	18
603.469	1	17
603.809	1	12
604.148	1	14
604.487	1	16
604.827	1	13
605.166	1	11
605.506	1	7
605.845	1	8
606.185	1	18
606.524	1	14
606.864	1	22
607.203	1	16
607.543	1	12
607.882	1	14
608.222	1	-1
608.561	1	12
608.901	1	22
609.240	1	10
609.579	1	12
609.919	1	-2
610.258	1	23
610.598	1	14
610.937	1	14
611.277	1	19
611.616	1	24
611.955	1	16
612.295	1	20
612.634	1	23
612.974	1	11
613.313	1	21
613.652	1	15
613.992	1	8
614.331	1	16
614.671	1	13
615.010	1	10
615.349	1	17
615.689	1	9
616.028	1	21
616.368	1	23
616.707	1	17
617.046	1	8
617.386	1	13
617.725	1	-2
618.064	1	8
618.404	1	-3
618.743	1	12
619.082	1	18
619.422	1	27
619.761	1	12
620.100	1	13
620.440	1	14
620.779	1	15
621.118	1	20
621.458	1	6
621.797	1	9
622.136	1	13
622.476	1	11
622.815	1	15
623.154	1	0
623.494	1	5
623.833	1	5
624.172	1	6
624.511	1	4
624.851	1	14
625.190	1	2
625.529	1	13
625.869	1	20
626.208	1	7
626.547	1	7
626.886	1	16
627.226	1	11
627.565	1	10
627.904	1	14
628.243	1	12
628.583	1	16
628.922	1	16
629.261	1	8
629.600	1	9
629.940	1	11
630.279	1	16
630.618	1	16
630.957	1	15
631.297	1	10
631.636	1	10
631.975	1	9
632.314	1	8
632.653	1	9
632.993	1	13
633.332	1	11
633.671	1	15
634.010	1	7
634.349	1	14
634.689	1	5
635.028	1	10
635.367	1	9
635.706	1	0
636.045	1	3
636.384	1	12
636.724	1	11
637.063	1	6
637.402	1	14
637.741	1	5
638.080	1	14
638.419	1	10
638.759	1	8
639.098	1	9
639.437	1	9
639.776	1	5
640.115	1	6
640.454	1	2
640.793	1	6
641.132	1	8
641.472	1	15
641.811	1	3
642.150	1	-3
642.489	1	8
642.828	1	20
643.167	1	7
643.506	1	7
643.845	1	19
644.184	1	22
644.524	1	-5
644.863	1	4
645.202	1	1
645.541	1	4
645.880	1	8
646.219	1	13
646.558	1	-4
646.897	1	5
647.236	1	-4
647.575	1	21
647.914	1	11
648.253	1	18
648.592	1	13
648.931	1	24
649.270	1	17
649.610	1	7
649.949	1	-2
650.288	1	7
650.627	1	5
650.966	1	11
651.305	1	9
651.644	1	19
651.983	1	3
652.322	1	14
652.661	1	10
653.000	1	19
653.339	1	4
653.678	1	16
654.017	1	17
654.356	1	14
654.695	1	25
655.034	1	9
655.373	1	3
655.712	1	4
656.051	1	7
656.390	1	3
656.729	1	19
657.068	1	9
657.406	1	7
657.745	1	14
658.084	1	10
658.423	1	11
658.762	1	7
659.101	1	13
659.440	1	6
659.779	1	6
660.118	1	4
660.457	1	9
660.796	1	10
661.135	1	8
661.474	1	2
661.813	1	10
662.152	1	13
662.491	1	6
662.829	1	6
663.168	1	4
663.507	1	8
663.846	1	6
664.185	1	13
664.524	1	18
664.863	1	-4
665.202	1	15
665.541	1	5
665.879	1	12
666.218	1	13
666.557	1	3
666.896	1	14
667.235	1	-1
667.574	1	0
667.913	1	14
668.251	1	-8
668.590	1	4
668.929	1	0
669.268	1	4
669.607	1	1
669.946	1	18
670.285	1	10
670.623	1	7
670.962	1	0
671.301	1	4
671.640	1	13
671.979	1	5
672.317	1	14
672.656	1	9
672.995	1	10
673.334	1	6
673.673	1	19
674.011	1	17
674.350	1	4
674.689	1	-1
675.028	1	9
675.367	1	9
675.705	1	5
676.044	1	6
676.383	1	5
676.722	1	-5
677.060	1	12
677.399	1	17
677.738	1	2
678.077	1	11
678.416	1	3
678.754	1	9
679.093	1	11
679.432	1	9
679.771	1	8
680.109	1	1
680.448	1	7
680.787	1	-6
681.125	1	6
681.464	1	11
681.803	1	9
682.142	1	13
682.480	1	8
682.819	1	9
683.158	1	0
683.496	1	4
683.835	1	14
684.174	1	10
684.512	1	6
684.851	1	5
685.190	1	-2
685.529	1	-1
685.867	1	9
686.206	1	1
686.545	1	6
686.883	1	12
687.222	1	4
687.561	1	14
687.899	1	8
688.238	1	23
688.577	1	13
688.746	1	6