File: Data/GaN_150K_450ms/GaN_sample D_spot15_UVVIS_150 K_200um_450 ms 2x2mm1_106.txt
340.368	1	-7
340.710	1	9
341.052	1	8
341.394	1	-10
341.737	1	14
342.079	1	4
342.421	1	2
342.763	1	13
343.105	1	14
343.447	1	8
343.789	1	4
344.131	1	-5
344.473	1	5
344.815	1	13
345.157	1	12
345.499	1	6
345.841	1	11
346.183	1	-5
346.526	1	12
346.868	1	0
347.210	1	0
347.552	1	19
347.894	1	2
348.236	1	8
348.578	1	8
348.920	1	5
349.262	1	15
349.604	1	3
349.946	1	7
350.288	1	2
350.630	1	0
350.972	1	16
351.314	1	5
351.656	1	4
351.998	1	0
352.340	1	-1
352.682	1	-4
353.024	1	20
353.366	1	14
353.708	1	7
354.050	1	1
354.392	1	-2
354.734	1	5
355.076	1	17
355.418	1	0
355.760	1	16
356.102	1	5
356.444	1	9
356.785	1	2
357.127	1	22
357.469	1	14
357.811	1	12
358.153	1	-4
358.495	1	12
358.837	1	25
359.179	1	20
359.521	1	22
359.863	1	12
360.205	1	25
360.547	1	19
360.889	1	15
361.231	1	16
361.572	1	35
361.914	1	27
362.256	1	32
362.598	1	37
362.940	1	32
363.282	1	25
363.624	1	40
363.966	1	51
364.308	1	55
364.649	1	55
364.991	1	56
365.333	1	58
365.675	1	72
366.017	1	74
366.359	1	71
366.701	1	62
367.042	1	72
367.384	1	77
367.726	1	79
368.068	1	90
368.410	1	82
368.752	1	83
369.093	1	84
369.435	1	99
369.777	1	87
370.119	1	76
370.461	1	57
370.803	1	63
371.144	1	58
371.486	1	69
371.828	1	61
372.170	1	59
372.512	1	50
372.853	1	56
373.195	1	49
373.537	1	47
373.879	1	45
374.220	1	39
374.562	1	56
374.904	1	39
375.246	1	31
375.588	1	31
375.929	1	37
376.271	1	40
376.613	1	40
376.955	1	27
377.296	1	38
377.638	1	35
377.980	1	22
378.321	1	31
378.663	1	32
379.005	1	20
379.347	1	28
379.688	1	33
380.030	1	22
380.372	1	25
380.714	1	15
381.055	1	17
381.397	1	14
381.739	1	19
382.080	1	24
382.422	1	30
382.764	1	30
383.105	1	13
383.447	1	21
383.789	1	2
384.130	1	13
384.472	1	15
384.814	1	20
385.156	1	22
385.497	1	26
385.839	1	15
386.180	1	16
386.522	1	19
386.864	1	4
387.205	1	18
387.547	1	21
387.889	1	9
388.230	1	8
388.572	1	6
388.914	1	14
389.255	1	16
389.597	1	4
389.939	1	21
390.280	1	11
390.622	1	4
390.963	1	7
391.305	1	5
391.647	1	3
391.988	1	8
392.330	1	14
392.671	1	24
393.013	1	12
393.355	1	26
393.696	1	14
394.038	1	13
394.379	1	12
394.721	1	8
395.062	1	3
395.404	1	8
395.746	1	8
396.087	1	12
396.429	1	16
396.770	1	16
397.112	1	14
397.453	1	2
397.795	1	8
398.136	1	19
398.478	1	13
398.819	1	11
399.161	1	15
399.503	1	15
399.844	1	7
400.186	1	15
400.527	1	13
400.869	1	4
401.210	1	14
401.552	1	18
401.893	1	8
402.235	1	13
402.576	1	11
402.918	1	1
403.259	1	6
403.601	1	19
403.942	1	10
404.284	1	20
404.625	1	8
404.967	1	12
405.308	1	1
405.649	1	19
405.991	1	16
406.332	1	10
406.674	1	11
407.015	1	12
407.357	1	18
407.698	1	10
408.040	1	21
408.381	1	-3
408.722	1	10
409.064	1	15
409.405	1	9
409.747	1	15
410.088	1	13
410.430	1	24
410.771	1	17
411.112	1	14
411.454	1	20
411.795	1	10
412.137	1	4
412.478	1	20
412.819	1	21
413.161	1	6
413.502	1	8
413.844	1	20
414.185	1	16
414.526	1	7
414.868	1	9
415.209	1	11
415.550	1	11
415.892	1	18
416.233	1	5
416.575	1	10
416.916	1	15
417.257	1	10
417.599	1	11
417.940	1	4
418.281	1	17
418.623	1	4
418.964	1	24
419.305	1	14
419.647	1	26
419.988	1	10
420.329	1	21
420.671	1	17
421.012	1	9
421.353	1	14
421.695	1	10
422.036	1	15
422.377	1	8
422.718	1	22
423.060	1	26
423.401	1	14
423.742	1	16
424.084	1	10
424.425	1	20
424.766	1	18
425.107	1	9
425.449	1	15
425.790	1	19
426.131	1	6
426.472	1	14
426.814	1	12
427.155	1	11
427.496	1	19
427.837	1	5
428.179	1	34
428.520	1	10
428.861	1	12
429.202	1	2
429.544	1	8
429.885	1	18
430.226	1	4
430.567	1	14
430.909	1	6
431.250	1	19
431.591	1	10
431.932	1	9
432.273	1	22
432.615	1	14
432.956	1	15
433.297	1	13
433.638	1	10
433.979	1	21
434.320	1	12
434.662	1	23
435.003	1	21
435.344	1	11
435.685	1	9
436.026	1	15
436.368	1	6
436.709	1	17
437.050	1	8
437.391	1	10
437.732	1	12
438.073	1	-1
438.414	1	17
438.756	1	5
439.097	1	8
439.438	1	10
439.779	1	19
440.120	1	4
440.461	1	16
440.802	1	8
441.143	1	9
441.485	1	13
441.826	1	18
442.167	1	20
442.508	1	7
442.849	1	21
443.190	1	14
443.531	1	13
443.872	1	5
444.213	1	0
444.554	1	15
444.895	1	7
445.237	1	22
445.578	1	11
445.919	1	5
446.260	1	23
446.601	1	10
446.942	1	-2
447.283	1	19
447.624	1	-4
447.965	1	11
448.306	1	10
448.647	1	11
448.988	1	20
449.329	1	6
449.670	1	8
450.011	1	8
450.352	1	6
450.693	1	12
451.034	1	6
451.375	1	8
451.716	1	7
452.057	1	15
452.398	1	9
452.739	1	6
453.080	1	11
453.421	1	13
453.762	1	16
454.103	1	8
454.444	1	17
454.785	1	8
455.126	1	9
455.467	1	9
455.808	1	11
456.149	1	7
456.490	1	1
456.831	1	16
457.172	1	12
457.513	1	6
457.854	1	7
458.195	1	7
458.536	1	11
458.877	1	15
459.218	1	13
459.559	1	3
459.899	1	8
460.240	1	1
460.581	1	5
460.922	1	11
461.263	1	15
461.604	1	2
461.945	1	10
462.286	1	8
462.627	1	7
462.968	1	9
463.309	1	5
463.649	1	1
463.990	1	10
464.331	1	17
464.672	1	8
465.013	1	9
465.354	1	17
465.695	1	9
466.036	1	20
466.376	1	15
466.717	1	-5
467.058	1	8
467.399	1	-5
467.740	1	16
468.081	1	4
468.422	1	10
468.762	1	18
469.103	1	5
469.444	1	14
469.785	1	7
470.126	1	11
470.467	1	6
470.807	1	14
471.148	1	-3
471.489	1	13
471.830	1	13
472.171	1	10
472.511	1	11
472.852	1	4
473.193	1	8
473.534	1	12
473.875	1	-4
474.215	1	12
474.556	1	4
474.897	1	1
475.238	1	12
475.578	1	-5
475.919	1	4
476.260	1	6
476.601	1	0
476.942	1	2
477.282	1	-1
477.623	1	11
477.964	1	17
478.305	1	7
478.645	1	5
478.986	1	15
479.327	1	10
479.667	1	2
480.008	1	10
480.349	1	6
480.690	1	12
481.030	1	-3
481.371	1	-2
481.712	1	14
482.053	1	21
482.393	1	9
482.734	1	6
483.075	1	7
483.415	1	12
483.756	1	13
484.097	1	7
484.437	1	6
484.778	1	3
485.119	1	12
485.459	1	1
485.800	1	4
486.141	1	5
486.481	1	5
486.822	1	16
487.163	1	-1
487.503	1	6
487.844	1	-4
488.185	1	12
488.525	1	5
488.866	1	6
489.207	1	13
489.547	1	12
489.888	1	10
490.228	1	10
490.569	1	-1
490.910	1	22
491.250	1	7
491.591	1	5
491.932	1	14
492.272	1	6
492.613	1	5
492.953	1	7
493.294	1	6
493.635	1	17
493.975	1	23
494.316	1	0
494.656	1	20
494.997	1	0
495.337	1	9
495.678	1	9
496.019	1	8
496.359	1	5
496.700	1	2
497.040	1	6
497.381	1	6
497.721	1	-3
498.062	1	14
498.403	1	23
498.743	1	15
499.084	1	13
499.424	1	11
499.765	1	14
500.105	1	22
500.446	1	3
500.786	1	13
501.127	1	18
501.467	1	13
501.808	1	18
502.148	1	5
502.489	1	12
502.829	1	5
503.170	1	26
503.510	1	8
503.851	1	22
504.191	1	10
504.532	1	9
504.872	1	8
505.213	1	13
505.553	1	19
505.894	1	17
506.234	1	28
506.575	1	26
506.915	1	18
507.256	1	23
507.596	1	19
507.936	1	21
508.277	1	25
508.617	1	14
508.958	1	19
509.298	1	13
509.639	1	8
509.979	1	22
510.319	1	22
510.660	1	11
511.000	1	12
511.341	1	33
511.681	1	20
512.022	1	8
512.362	1	22
512.702	1	10
513.043	1	23
513.383	1	25
513.724	1	16
514.064	1	28
514.404	1	22
514.745	1	21
515.085	1	27
515.425	1	19
515.766	1	13
516.106	1	3
516.447	1	20
516.787	1	16
517.127	1	32
517.468	1	28
517.808	1	19
518.148	1	21
518.489	1	25
518.829	1	18
519.169	1	7
519.510	1	11
519.850	1	17
520.190	1	14
520.531	1	20
520.871	1	17
521.211	1	23
521.552	1	13
521.892	1	16
522.232	1	11
522.573	1	28
522.913	1	22
523.253	1	23
523.593	1	29
523.934	1	18
524.274	1	14
524.614	1	25
524.955	1	16
525.295	1	28
525.635	1	16
525.975	1	17
526.316	1	16
526.656	1	20
526.996	1	25
527.337	1	34
527.677	1	21
528.017	1	17
528.357	1	22
528.698	1	31
529.038	1	19
529.378	1	22
529.718	1	22
530.058	1	19
530.399	1	21
530.739	1	23
531.079	1	30
531.419	1	19
531.760	1	33
532.100	1	24
532.440	1	21
532.780	1	23
533.120	1	18
533.461	1	15
533.801	1	27
534.141	1	23
534.481	1	40
534.821	1	27
535.162	1	25
535.502	1	23
535.842	1	23
536.182	1	13
536.522	1	20
536.862	1	13
537.203	1	23
537.543	1	20
537.883	1	16
538.223	1	26
538.563	1	22
538.903	1	24
539.243	1	16
539.584	1	16
539.924	1	14
540.264	1	32
540.604	1	30
540.944	1	21
541.284	1	12
541.624	1	19
541.964	1	23
542.305	1	33
542.645	1	11
542.985	1	9
543.325	1	24
543.665	1	20
544.005	1	17
544.345	1	25
544.685	1	12
545.025	1	26
545.365	1	15
545.705	1	24
546.045	1	26
546.386	1	10
546.726	1	14
547.066	1	20
547.406	1	12
547.746	1	19
548.086	1	26
548.426	1	24
548.766	1	19
549.106	1	14
549.446	1	14
549.786	1	16
550.126	1	22
550.466	1	9
550.806	1	29
551.146	1	15
551.486	1	16
551.826	1	14
552.166	1	22
552.506	1	20
552.846	1	25
553.186	1	7
553.526	1	20
553.866	1	15
554.206	1	17
554.546	1	26
554.886	1	15
555.226	1	18
555.566	1	14
555.906	1	15
556.246	1	16
556.586	1	15
556.926	1	16
557.266	1	25
557.606	1	2
557.946	1	16
558.286	1	12
558.626	1	20
558.966	1	13
559.306	1	10
559.646	1	27
559.986	1	18
560.325	1	10
560.665	1	12
561.005	1	11
561.345	1	13
561.685	1	13
562.025	1	6
562.365	1	14
562.705	1	22
563.045	1	8
563.385	1	16
563.725	1	14
564.064	1	1
564.404	1	10
564.744	1	14
565.084	1	17
565.424	1	3
565.764	1	14
566.104	1	18
566.444	1	15
566.783	1	18
567.123	1	17
567.463	1	8
567.803	1	22
568.143	1	22
568.483	1	24
568.823	1	15
569.162	1	11
569.502	1	10
569.842	1	2
570.182	1	5
570.522	1	7
570.862	1	-2
571.201	1	7
571.541	1	7
571.881	1	6
572.221	1	20
572.561	1	17
572.900	1	13
573.240	1	4
573.580	1	16
573.920	1	14
574.260	1	11
574.599	1	17
574.939	1	12
575.279	1	9
575.619	1	5
575.959	1	7
576.298	1	3
576.638	1	16
576.978	1	15
577.318	1	11
577.657	1	14
577.997	1	10
578.337	1	13
578.677	1	12
579.016	1	7
579.356	1	17
579.696	1	11
580.036	1	7
580.375	1	19
580.715	1	21
581.055	1	7
581.394	1	4
581.734	1	13
582.074	1	8
582.414	1	6
582.753	1	10
583.093	1	10
583.433	1	14
583.772	1	13
584.112	1	15
584.452	1	14
584.791	1	2
585.131	1	12
585.471	1	13
585.811	1	-2
586.150	1	16
586.490	1	7
586.830	1	16
587.169	1	10
587.509	1	7
587.849	1	9
588.188	1	12
588.528	1	5
588.867	1	11
589.207	1	17
589.547	1	12
589.886	1	13
590.226	1	3
590.566	1	6
590.905	1	0
591.245	1	2
591.585	1	11
591.924	1	4
592.264	1	5
592.603	1	-14
592.943	1	5
593.283	1	10
593.622	1	5
593.962	1	2
594.301	1	5
594.641	1	6
594.981	1	8
595.320	1	12
595.660	1	7
595.999	1	7
596.339	1	11
596.678	1	2
597.018	1	3
597.358	1	7
597.697	1	-5
598.037	1	7
598.376	1	5
598.716	1	7
599.055	1	11
599.395	1	11
599.734	1	21
600.074	1	7
600.413	1	7
600.753	1	18
601.092	1	6
601.432	1	3
601.771	1	6
602.111	1	7
602.451	1	0
602.790	1	12
603.130	1	5
603.469	1	9
603.809	1	10
604.148	1	-8
604.487	1	5
604.827	1	4
605.166	1	11
605.506	1	11
605.845	1	10
606.185	1	4
606.524	1	-1
606.864	1	20
607.203	1	10
607.543	1	3
607.882	1	12
608.222	1	-2
608.561	1	15
608.901	1	11
609.240	1	10
609.579	1	5
609.919	1	1
610.258	1	17
610.598	1	3
610.937	1	6
611.277	1	14
611.616	1	10
611.955	1	-7
612.295	1	2
612.634	1	14
612.974	1	7
613.313	1	12
613.652	1	14
613.992	1	8
614.331	1	11
614.671	1	10
615.010	1	10
615.349	1	7
615.689	1	-2
616.028	1	18
616.368	1	21
616.707	1	13
617.046	1	5
617.386	1	24
617.725	1	-1
618.064	1	-9
618.404	1	4
618.743	1	15
619.082	1	13
619.422	1	10
619.761	1	3
620.100	1	6
620.440	1	11
620.779	1	15
621.118	1	17
621.458	1	7
621.797	1	10
622.136	1	9
622.476	1	-2
622.815	1	9
623.154	1	-5
623.494	1	-5
623.833	1	14
624.172	1	8
624.511	1	8
624.851	1	1
625.190	1	4
625.529	1	2
625.869	1	17
626.208	1	6
626.547	1	12
626.886	1	2
627.226	1	10
627.565	1	19
627.904	1	0
628.243	1	10
628.583	1	8
628.922	1	13
629.261	1	16
629.600	1	4
629.940	1	12
630.279	1	8
630.618	1	13
630.957	1	10
631.297	1	1
631.636	1	1
631.975	1	1
632.314	1	13
632.653	1	1
632.993	1	6
633.332	1	8
633.671	1	10
634.010	1	13
634.349	1	13
634.689	1	-2
635.028	1	2
635.367	1	13
635.706	1	6
636.045	1	3
636.384	1	17
636.724	1	2
637.063	1	-1
637.402	1	8
637.741	1	0
638.080	1	7
638.419	1	-5
638.759	1	11
639.098	1	5
639.437	1	8
639.776	1	3
640.115	1	-10
640.454	1	0
640.793	1	1
641.132	1	12
641.472	1	8
641.811	1	0
642.150	1	0
642.489	1	15
642.828	1	12
643.167	1	9
643.506	1	5
643.845	1	17
644.184	1	13
644.524	1	-1
644.863	1	0
645.202	1	3
645.541	1	5
645.880	1	15
646.219	1	16
646.558	1	-4
646.897	1	2
647.236	1	-10
647.575	1	24
647.914	1	5
648.253	1	7
648.592	1	10
648.931	1	12
649.270	1	6
649.610	1	9
649.949	1	1
650.288	1	14
650.627	1	-5
650.966	1	8
651.305	1	7
651.644	1	17
651.983	1	2
652.322	1	-1
652.661	1	6
653.000	1	9
653.339	1	3
653.678	1	14
654.017	1	6
654.356	1	9
654.695	1	12
655.034	1	3
655.373	1	-6
655.712	1	1
656.051	1	3
656.390	1	0
656.729	1	12
657.068	1	8
657.406	1	-2
657.745	1	12
658.084	1	1
658.423	1	7
658.762	1	5
659.101	1	3
659.440	1	8
659.779	1	10
660.118	1	6
660.457	1	4
660.796	1	15
661.135	1	12
661.474	1	10
661.813	1	9
662.152	1	3
662.491	1	3
662.829	1	8
663.168	1	12
663.507	1	7
663.846	1	8
664.185	1	-2
664.524	1	14
664.863	1	1
665.202	1	7
665.541	1	1
665.879	1	12
666.218	1	10
666.557	1	-2
666.896	1	9
667.235	1	-1
667.574	1	2
667.913	1	4
668.251	1	-4
668.590	1	6
668.929	1	5
669.268	1	3
669.607	1	-9
669.946	1	10
670.285	1	2
670.623	1	5
670.962	1	5
671.301	1	-1
671.640	1	4
671.979	1	-4
672.317	1	8
672.656	1	5
672.995	1	3
673.334	1	4
673.673	1	6
674.011	1	10
674.350	1	4
674.689	1	-2
675.028	1	12
675.367	1	13
675.705	1	3
676.044	1	4
676.383	1	9
676.722	1	5
677.060	1	9
677.399	1	16
677.738	1	3
678.077	1	1
678.416	1	-4
678.754	1	5
679.093	1	12
679.432	1	5
679.771	1	4
680.109	1	5
680.448	1	4
680.787	1	3
681.125	1	-7
681.464	1	10
681.803	1	-6
682.142	1	-1
682.480	1	-2
682.819	1	5
683.158	1	7
683.496	1	5
683.835	1	9
684.174	1	4
684.512	1	4
684.851	1	6
685.190	1	9
685.529	1	-1
685.867	1	7
686.206	1	-6
686.545	1	8
686.883	1	19
687.222	1	-1
687.561	1	1
687.899	1	2
688.238	1	13
688.577	1	1
688.746	1	4