File: Data/GaN_150K_450ms/GaN_sample D_spot15_UVVIS_150 K_200um_450 ms 2x2mm1_330.txt
340.368	1	0
340.710	1	9
341.052	1	0
341.394	1	0
341.737	1	1
342.079	1	1
342.421	1	2
342.763	1	-7
343.105	1	3
343.447	1	6
343.789	1	9
344.131	1	-12
344.473	1	-1
344.815	1	-4
345.157	1	19
345.499	1	0
345.841	1	-4
346.183	1	4
346.526	1	9
346.868	1	-7
347.210	1	-10
347.552	1	14
347.894	1	-4
348.236	1	0
348.578	1	3
348.920	1	5
349.262	1	7
349.604	1	0
349.946	1	3
350.288	1	-8
350.630	1	-7
350.972	1	5
351.314	1	-3
351.656	1	1
351.998	1	1
352.340	1	4
352.682	1	-10
353.024	1	13
353.366	1	4
353.708	1	6
354.050	1	-8
354.392	1	-2
354.734	1	0
355.076	1	11
355.418	1	3
355.760	1	5
356.102	1	2
356.444	1	4
356.785	1	-2
357.127	1	7
357.469	1	4
357.811	1	-5
358.153	1	-7
358.495	1	-7
358.837	1	5
359.179	1	4
359.521	1	7
359.863	1	10
360.205	1	6
360.547	1	6
360.889	1	-9
361.231	1	5
361.572	1	2
361.914	1	14
362.256	1	11
362.598	1	12
362.940	1	9
363.282	1	0
363.624	1	9
363.966	1	-3
364.308	1	13
364.649	1	4
364.991	1	8
365.333	1	11
365.675	1	12
366.017	1	8
366.359	1	1
366.701	1	-2
367.042	1	11
367.384	1	-2
367.726	1	0
368.068	1	17
368.410	1	14
368.752	1	19
369.093	1	12
369.435	1	5
369.777	1	9
370.119	1	5
370.461	1	4
370.803	1	-1
371.144	1	10
371.486	1	15
371.828	1	3
372.170	1	7
372.512	1	-4
372.853	1	15
373.195	1	12
373.537	1	1
373.879	1	8
374.220	1	6
374.562	1	-3
374.904	1	8
375.246	1	5
375.588	1	-5
375.929	1	4
376.271	1	1
376.613	1	13
376.955	1	-2
377.296	1	12
377.638	1	7
377.980	1	4
378.321	1	2
378.663	1	5
379.005	1	3
379.347	1	7
379.688	1	11
380.030	1	7
380.372	1	8
380.714	1	10
381.055	1	-2
381.397	1	-2
381.739	1	-9
382.080	1	5
382.422	1	3
382.764	1	-3
383.105	1	-2
383.447	1	12
383.789	1	-10
384.130	1	8
384.472	1	-7
384.814	1	10
385.156	1	2
385.497	1	6
385.839	1	4
386.180	1	4
386.522	1	6
386.864	1	-3
387.205	1	9
387.547	1	13
387.889	1	-4
388.230	1	1
388.572	1	0
388.914	1	12
389.255	1	-1
389.597	1	9
389.939	1	15
390.280	1	-1
390.622	1	-1
390.963	1	5
391.305	1	-3
391.647	1	-4
391.988	1	4
392.330	1	-6
392.671	1	5
393.013	1	-2
393.355	1	11
393.696	1	2
394.038	1	5
394.379	1	5
394.721	1	-3
395.062	1	-4
395.404	1	4
395.746	1	-3
396.087	1	8
396.429	1	8
396.770	1	4
397.112	1	1
397.453	1	-7
397.795	1	-8
398.136	1	0
398.478	1	0
398.819	1	15
399.161	1	7
399.503	1	8
399.844	1	-15
400.186	1	-5
400.527	1	3
400.869	1	-3
401.210	1	0
401.552	1	-5
401.893	1	3
402.235	1	6
402.576	1	9
402.918	1	-13
403.259	1	4
403.601	1	6
403.942	1	0
404.284	1	15
404.625	1	-5
404.967	1	11
405.308	1	-9
405.649	1	-9
405.991	1	11
406.332	1	5
406.674	1	9
407.015	1	-3
407.357	1	0
407.698	1	6
408.040	1	11
408.381	1	-8
408.722	1	5
409.064	1	-2
409.405	1	5
409.747	1	-3
410.088	1	4
410.430	1	11
410.771	1	10
411.112	1	9
411.454	1	0
411.795	1	1
412.137	1	4
412.478	1	10
412.819	1	2
413.161	1	8
413.502	1	7
413.844	1	8
414.185	1	6
414.526	1	-9
414.868	1	0
415.209	1	6
415.550	1	5
415.892	1	5
416.233	1	3
416.575	1	0
416.916	1	5
417.257	1	-8
417.599	1	-2
417.940	1	-4
418.281	1	7
418.623	1	2
418.964	1	14
419.305	1	4
419.647	1	0
419.988	1	5
420.329	1	6
420.671	1	9
421.012	1	-7
421.353	1	4
421.695	1	0
422.036	1	4
422.377	1	-3
422.718	1	-2
423.060	1	-1
423.401	1	4
423.742	1	13
424.084	1	8
424.425	1	9
424.766	1	-1
425.107	1	-1
425.449	1	5
425.790	1	7
426.131	1	-6
426.472	1	3
426.814	1	-2
427.155	1	5
427.496	1	3
427.837	1	-1
428.179	1	16
428.520	1	-1
428.861	1	4
429.202	1	-9
429.544	1	4
429.885	1	8
430.226	1	-5
430.567	1	-6
430.909	1	-7
431.250	1	-1
431.591	1	1
431.932	1	6
432.273	1	6
432.615	1	-1
432.956	1	7
433.297	1	5
433.638	1	14
433.979	1	2
434.320	1	-3
434.662	1	4
435.003	1	5
435.344	1	-5
435.685	1	-7
436.026	1	-10
436.368	1	-15
436.709	1	-10
437.050	1	1
437.391	1	-4
437.732	1	3
438.073	1	-10
438.414	1	12
438.756	1	-11
439.097	1	11
439.438	1	4
439.779	1	1
440.120	1	-2
440.461	1	-6
440.802	1	4
441.143	1	9
441.485	1	8
441.826	1	5
442.167	1	4
442.508	1	9
442.849	1	12
443.190	1	13
443.531	1	0
443.872	1	-5
444.213	1	-10
444.554	1	-1
444.895	1	7
445.237	1	5
445.578	1	2
445.919	1	-10
446.260	1	10
446.601	1	0
446.942	1	-2
447.283	1	1
447.624	1	-1
447.965	1	2
448.306	1	6
448.647	1	8
448.988	1	0
449.329	1	12
449.670	1	4
450.011	1	4
450.352	1	-7
450.693	1	16
451.034	1	2
451.375	1	3
451.716	1	0
452.057	1	-5
452.398	1	9
452.739	1	1
453.080	1	8
453.421	1	3
453.762	1	7
454.103	1	-2
454.444	1	-2
454.785	1	-2
455.126	1	-1
455.467	1	6
455.808	1	14
456.149	1	2
456.490	1	-1
456.831	1	-6
457.172	1	4
457.513	1	2
457.854	1	-1
458.195	1	-6
458.536	1	4
458.877	1	4
459.218	1	7
459.559	1	3
459.899	1	-8
460.240	1	-1
460.581	1	-4
460.922	1	7
461.263	1	4
461.604	1	-5
461.945	1	7
462.286	1	-6
462.627	1	5
462.968	1	1
463.309	1	-1
463.649	1	-11
463.990	1	-2
464.331	1	15
464.672	1	2
465.013	1	-2
465.354	1	11
465.695	1	4
466.036	1	5
466.376	1	9
466.717	1	-8
467.058	1	-1
467.399	1	5
467.740	1	9
468.081	1	2
468.422	1	0
468.762	1	6
469.103	1	7
469.444	1	4
469.785	1	-5
470.126	1	2
470.467	1	-1
470.807	1	3
471.148	1	0
471.489	1	8
471.830	1	4
472.171	1	10
472.511	1	0
472.852	1	12
473.193	1	-11
473.534	1	1
473.875	1	6
474.215	1	3
474.556	1	-5
474.897	1	-6
475.238	1	6
475.578	1	-7
475.919	1	-5
476.260	1	-8
476.601	1	2
476.942	1	1
477.282	1	-11
477.623	1	-5
477.964	1	13
478.305	1	8
478.645	1	7
478.986	1	9
479.327	1	6
479.667	1	3
480.008	1	6
480.349	1	-4
480.690	1	8
481.030	1	-10
481.371	1	-14
481.712	1	15
482.053	1	11
482.393	1	7
482.734	1	8
483.075	1	7
483.415	1	2
483.756	1	6
484.097	1	5
484.437	1	0
484.778	1	-5
485.119	1	-2
485.459	1	-8
485.800	1	7
486.141	1	3
486.481	1	-8
486.822	1	6
487.163	1	-3
487.503	1	3
487.844	1	-2
488.185	1	3
488.525	1	-7
488.866	1	-9
489.207	1	8
489.547	1	1
489.888	1	-2
490.228	1	1
490.569	1	-9
490.910	1	4
491.250	1	5
491.591	1	4
491.932	1	7
492.272	1	-11
492.613	1	3
492.953	1	-6
493.294	1	-7
493.635	1	1
493.975	1	5
494.316	1	-7
494.656	1	2
494.997	1	-8
495.337	1	-4
495.678	1	1
496.019	1	0
496.359	1	3
496.700	1	2
497.040	1	1
497.381	1	3
497.721	1	-4
498.062	1	2
498.403	1	9
498.743	1	-2
499.084	1	0
499.424	1	-9
499.765	1	3
500.105	1	11
500.446	1	-7
500.786	1	0
501.127	1	1
501.467	1	4
501.808	1	1
502.148	1	2
502.489	1	-9
502.829	1	0
503.170	1	0
503.510	1	-2
503.851	1	2
504.191	1	-3
504.532	1	2
504.872	1	-8
505.213	1	0
505.553	1	0
505.894	1	-1
506.234	1	6
506.575	1	9
506.915	1	2
507.256	1	5
507.596	1	7
507.936	1	6
508.277	1	8
508.617	1	-1
508.958	1	12
509.298	1	-6
509.639	1	-5
509.979	1	6
510.319	1	0
510.660	1	-1
511.000	1	3
511.341	1	4
511.681	1	2
512.022	1	-2
512.362	1	9
512.702	1	-3
513.043	1	5
513.383	1	3
513.724	1	6
514.064	1	-4
514.404	1	-2
514.745	1	0
515.085	1	-1
515.425	1	-2
515.766	1	-3
516.106	1	-1
516.447	1	8
516.787	1	-6
517.127	1	0
517.468	1	2
517.808	1	-5
518.148	1	12
518.489	1	3
518.829	1	8
519.169	1	-7
519.510	1	1
519.850	1	0
520.190	1	0
520.531	1	-3
520.871	1	4
521.211	1	9
521.552	1	-5
521.892	1	6
522.232	1	0
522.573	1	0
522.913	1	9
523.253	1	11
523.593	1	7
523.934	1	7
524.274	1	4
524.614	1	0
524.955	1	2
525.295	1	1
525.635	1	4
525.975	1	-8
526.316	1	-9
526.656	1	12
526.996	1	-6
527.337	1	8
527.677	1	11
528.017	1	2
528.357	1	17
528.698	1	3
529.038	1	-3
529.378	1	5
529.718	1	4
530.058	1	-2
530.399	1	1
530.739	1	5
531.079	1	0
531.419	1	2
531.760	1	4
532.100	1	7
532.440	1	6
532.780	1	2
533.120	1	3
533.461	1	0
533.801	1	4
534.141	1	8
534.481	1	10
534.821	1	10
535.162	1	2
535.502	1	0
535.842	1	-13
536.182	1	-6
536.522	1	-10
536.862	1	1
537.203	1	9
537.543	1	3
537.883	1	7
538.223	1	15
538.563	1	-2
538.903	1	-6
539.243	1	8
539.584	1	0
539.924	1	0
540.264	1	4
540.604	1	10
540.944	1	3
541.284	1	1
541.624	1	5
541.964	1	5
542.305	1	6
542.645	1	-3
542.985	1	-6
543.325	1	9
543.665	1	-2
544.005	1	-2
544.345	1	15
544.685	1	-2
545.025	1	-2
545.365	1	1
545.705	1	-1
546.045	1	5
546.386	1	1
546.726	1	-2
547.066	1	0
547.406	1	-2
547.746	1	2
548.086	1	-2
548.426	1	-7
548.766	1	4
549.106	1	1
549.446	1	6
549.786	1	5
550.126	1	1
550.466	1	-4
550.806	1	13
551.146	1	0
551.486	1	3
551.826	1	-5
552.166	1	-2
552.506	1	-10
552.846	1	4
553.186	1	-11
553.526	1	-1
553.866	1	2
554.206	1	4
554.546	1	2
554.886	1	6
555.226	1	9
555.566	1	-5
555.906	1	3
556.246	1	7
556.586	1	9
556.926	1	-4
557.266	1	5
557.606	1	-15
557.946	1	6
558.286	1	-14
558.626	1	8
558.966	1	3
559.306	1	4
559.646	1	14
559.986	1	-4
560.325	1	1
560.665	1	1
561.005	1	3
561.345	1	1
561.685	1	5
562.025	1	-5
562.365	1	-4
562.705	1	9
563.045	1	9
563.385	1	1
563.725	1	5
564.064	1	5
564.404	1	-2
564.744	1	8
565.084	1	0
565.424	1	-5
565.764	1	8
566.104	1	-1
566.444	1	11
566.783	1	-4
567.123	1	-6
567.463	1	8
567.803	1	5
568.143	1	3
568.483	1	4
568.823	1	-3
569.162	1	-3
569.502	1	9
569.842	1	-1
570.182	1	-3
570.522	1	-8
570.862	1	-12
571.201	1	16
571.541	1	-1
571.881	1	-5
572.221	1	1
572.561	1	11
572.900	1	5
573.240	1	0
573.580	1	9
573.920	1	6
574.260	1	7
574.599	1	-2
574.939	1	5
575.279	1	-2
575.619	1	-4
575.959	1	-3
576.298	1	-12
576.638	1	7
576.978	1	1
577.318	1	-4
577.657	1	0
577.997	1	0
578.337	1	5
578.677	1	-2
579.016	1	0
579.356	1	-2
579.696	1	-2
580.036	1	-4
580.375	1	9
580.715	1	3
581.055	1	2
581.394	1	0
581.734	1	-8
582.074	1	7
582.414	1	3
582.753	1	4
583.093	1	6
583.433	1	2
583.772	1	4
584.112	1	1
584.452	1	10
584.791	1	8
585.131	1	9
585.471	1	2
585.811	1	10
586.150	1	9
586.490	1	3
586.830	1	4
587.169	1	6
587.509	1	-1
587.849	1	7
588.188	1	6
588.528	1	-8
588.867	1	3
589.207	1	1
589.547	1	8
589.886	1	2
590.226	1	-8
590.566	1	4
590.905	1	-5
591.245	1	-3
591.585	1	-7
591.924	1	-10
592.264	1	5
592.603	1	-11
592.943	1	-7
593.283	1	4
593.622	1	-2
593.962	1	5
594.301	1	-9
594.641	1	9
594.981	1	-1
595.320	1	3
595.660	1	12
595.999	1	-6
596.339	1	3
596.678	1	-11
597.018	1	6
597.358	1	8
597.697	1	5
598.037	1	5
598.376	1	-15
598.716	1	0
599.055	1	3
599.395	1	0
599.734	1	-5
600.074	1	-3
600.413	1	0
600.753	1	3
601.092	1	-7
601.432	1	-14
601.771	1	-4
602.111	1	3
602.451	1	-6
602.790	1	4
603.130	1	0
603.469	1	6
603.809	1	7
604.148	1	-1
604.487	1	1
604.827	1	0
605.166	1	4
605.506	1	-1
605.845	1	5
606.185	1	-4
606.524	1	0
606.864	1	17
607.203	1	6
607.543	1	7
607.882	1	6
608.222	1	-1
608.561	1	-3
608.901	1	6
609.240	1	6
609.579	1	-1
609.919	1	-6
610.258	1	6
610.598	1	-7
610.937	1	-5
611.277	1	4
611.616	1	11
611.955	1	-2
612.295	1	9
612.634	1	2
612.974	1	0
613.313	1	10
613.652	1	10
613.992	1	-5
614.331	1	-4
614.671	1	1
615.010	1	3
615.349	1	6
615.689	1	5
616.028	1	9
616.368	1	19
616.707	1	2
617.046	1	2
617.386	1	5
617.725	1	-5
618.064	1	5
618.404	1	7
618.743	1	-3
619.082	1	12
619.422	1	17
619.761	1	2
620.100	1	3
620.440	1	7
620.779	1	-1
621.118	1	10
621.458	1	1
621.797	1	5
622.136	1	-4
622.476	1	5
622.815	1	10
623.154	1	-12
623.494	1	-6
623.833	1	2
624.172	1	7
624.511	1	-8
624.851	1	-12
625.190	1	3
625.529	1	2
625.869	1	1
626.208	1	-4
626.547	1	1
626.886	1	-6
627.226	1	9
627.565	1	7
627.904	1	-5
628.243	1	10
628.583	1	3
628.922	1	6
629.261	1	5
629.600	1	0
629.940	1	-3
630.279	1	1
630.618	1	2
630.957	1	4
631.297	1	3
631.636	1	15
631.975	1	-5
632.314	1	7
632.653	1	-5
632.993	1	4
633.332	1	-2
633.671	1	3
634.010	1	0
634.349	1	8
634.689	1	0
635.028	1	-4
635.367	1	7
635.706	1	-9
636.045	1	-4
636.384	1	5
636.724	1	1
637.063	1	-8
637.402	1	3
637.741	1	2
638.080	1	3
638.419	1	-3
638.759	1	2
639.098	1	4
639.437	1	5
639.776	1	-5
640.115	1	-1
640.454	1	-13
640.793	1	-1
641.132	1	1
641.472	1	9
641.811	1	-3
642.150	1	-3
642.489	1	0
642.828	1	8
643.167	1	2
643.506	1	1
643.845	1	7
644.184	1	3
644.524	1	2
644.863	1	4
645.202	1	11
645.541	1	1
645.880	1	9
646.219	1	1
646.558	1	-10
646.897	1	-9
647.236	1	-11
647.575	1	9
647.914	1	-3
648.253	1	12
648.592	1	6
648.931	1	2
649.270	1	10
649.610	1	2
649.949	1	-8
650.288	1	-2
650.627	1	-5
650.966	1	2
651.305	1	7
651.644	1	5
651.983	1	-8
652.322	1	3
652.661	1	8
653.000	1	6
653.339	1	-3
653.678	1	4
654.017	1	8
654.356	1	0
654.695	1	4
655.034	1	-5
655.373	1	1
655.712	1	7
656.051	1	-3
656.390	1	-4
656.729	1	0
657.068	1	-8
657.406	1	-2
657.745	1	14
658.084	1	-3
658.423	1	7
658.762	1	-6
659.101	1	-9
659.440	1	5
659.779	1	6
660.118	1	1
660.457	1	1
660.796	1	4
661.135	1	5
661.474	1	7
661.813	1	0
662.152	1	9
662.491	1	-5
662.829	1	7
663.168	1	-2
663.507	1	10
663.846	1	-1
664.185	1	-3
664.524	1	4
664.863	1	-9
665.202	1	4
665.541	1	3
665.879	1	7
666.218	1	7
666.557	1	-1
666.896	1	12
667.235	1	1
667.574	1	6
667.913	1	2
668.251	1	-6
668.590	1	3
668.929	1	-7
669.268	1	-4
669.607	1	-7
669.946	1	4
670.285	1	-1
670.623	1	5
670.962	1	5
671.301	1	1
671.640	1	4
671.979	1	-3
672.317	1	3
672.656	1	2
672.995	1	5
673.334	1	1
673.673	1	12
674.011	1	7
674.350	1	2
674.689	1	-3
675.028	1	2
675.367	1	2
675.705	1	2
676.044	1	8
676.383	1	0
676.722	1	4
677.060	1	7
677.399	1	18
677.738	1	-8
678.077	1	8
678.416	1	-2
678.754	1	-2
679.093	1	1
679.432	1	-13
679.771	1	-6
680.109	1	7
680.448	1	-6
680.787	1	-7
681.125	1	-6
681.464	1	9
681.803	1	2
682.142	1	10
682.480	1	-4
682.819	1	-11
683.158	1	7
683.496	1	3
683.835	1	6
684.174	1	4
684.512	1	-1
684.851	1	8
685.190	1	2
685.529	1	-5
685.867	1	-2
686.206	1	-15
686.545	1	-2
686.883	1	6
687.222	1	-1
687.561	1	9
687.899	1	-2
688.238	1	15
688.577	1	0
688.746	1	-2