File: Data/GaN_150K_450ms/GaN_sample D_spot15_UVVIS_150 K_200um_450 ms 2x2mm1_210.txt
340.368	1	10
340.710	1	-6
341.052	1	3
341.394	1	-3
341.737	1	10
342.079	1	-4
342.421	1	-4
342.763	1	7
343.105	1	0
343.447	1	1
343.789	1	1
344.131	1	-11
344.473	1	4
344.815	1	13
345.157	1	10
345.499	1	2
345.841	1	3
346.183	1	0
346.526	1	10
346.868	1	-4
347.210	1	-6
347.552	1	12
347.894	1	-1
348.236	1	16
348.578	1	17
348.920	1	-2
349.262	1	1
349.604	1	3
349.946	1	1
350.288	1	-1
350.630	1	-5
350.972	1	16
351.314	1	-6
351.656	1	5
351.998	1	2
352.340	1	14
352.682	1	-7
353.024	1	19
353.366	1	16
353.708	1	8
354.050	1	-1
354.392	1	-8
354.734	1	12
355.076	1	11
355.418	1	-1
355.760	1	6
356.102	1	2
356.444	1	9
356.785	1	-2
357.127	1	11
357.469	1	-2
357.811	1	-7
358.153	1	-9
358.495	1	2
358.837	1	9
359.179	1	7
359.521	1	10
359.863	1	0
360.205	1	14
360.547	1	12
360.889	1	0
361.231	1	14
361.572	1	6
361.914	1	14
362.256	1	16
362.598	1	17
362.940	1	16
363.282	1	2
363.624	1	7
363.966	1	2
364.308	1	13
364.649	1	18
364.991	1	14
365.333	1	10
365.675	1	18
366.017	1	13
366.359	1	11
366.701	1	3
367.042	1	16
367.384	1	12
367.726	1	15
368.068	1	31
368.410	1	22
368.752	1	28
369.093	1	25
369.435	1	19
369.777	1	26
370.119	1	17
370.461	1	12
370.803	1	18
371.144	1	11
371.486	1	23
371.828	1	11
372.170	1	8
372.512	1	6
372.853	1	24
373.195	1	20
373.537	1	0
373.879	1	13
374.220	1	20
374.562	1	18
374.904	1	14
375.246	1	8
375.588	1	2
375.929	1	4
376.271	1	16
376.613	1	17
376.955	1	15
377.296	1	9
377.638	1	2
377.980	1	6
378.321	1	7
378.663	1	8
379.005	1	20
379.347	1	9
379.688	1	16
380.030	1	7
380.372	1	14
380.714	1	6
381.055	1	4
381.397	1	1
381.739	1	-6
382.080	1	8
382.422	1	11
382.764	1	1
383.105	1	-8
383.447	1	0
383.789	1	2
384.130	1	6
384.472	1	-2
384.814	1	3
385.156	1	1
385.497	1	17
385.839	1	7
386.180	1	5
386.522	1	7
386.864	1	-5
387.205	1	9
387.547	1	6
387.889	1	1
388.230	1	1
388.572	1	0
388.914	1	10
389.255	1	2
389.597	1	1
389.939	1	-1
390.280	1	7
390.622	1	-2
390.963	1	-4
391.305	1	-2
391.647	1	-4
391.988	1	3
392.330	1	7
392.671	1	6
393.013	1	13
393.355	1	8
393.696	1	7
394.038	1	3
394.379	1	3
394.721	1	6
395.062	1	0
395.404	1	3
395.746	1	0
396.087	1	3
396.429	1	-4
396.770	1	5
397.112	1	7
397.453	1	4
397.795	1	-7
398.136	1	13
398.478	1	1
398.819	1	4
399.161	1	13
399.503	1	7
399.844	1	5
400.186	1	6
400.527	1	13
400.869	1	-2
401.210	1	12
401.552	1	3
401.893	1	4
402.235	1	11
402.576	1	5
402.918	1	-4
403.259	1	4
403.601	1	10
403.942	1	9
404.284	1	11
404.625	1	0
404.967	1	6
405.308	1	-7
405.649	1	1
405.991	1	7
406.332	1	7
406.674	1	5
407.015	1	7
407.357	1	10
407.698	1	8
408.040	1	17
408.381	1	5
408.722	1	6
409.064	1	9
409.405	1	12
409.747	1	-5
410.088	1	3
410.430	1	11
410.771	1	1
411.112	1	3
411.454	1	-2
411.795	1	3
412.137	1	1
412.478	1	2
412.819	1	9
413.161	1	3
413.502	1	9
413.844	1	3
414.185	1	6
414.526	1	-6
414.868	1	5
415.209	1	-1
415.550	1	7
415.892	1	10
416.233	1	5
416.575	1	-10
416.916	1	6
417.257	1	-2
417.599	1	-1
417.940	1	-5
418.281	1	9
418.623	1	7
418.964	1	23
419.305	1	16
419.647	1	2
419.988	1	10
420.329	1	11
420.671	1	12
421.012	1	-3
421.353	1	8
421.695	1	17
422.036	1	26
422.377	1	2
422.718	1	8
423.060	1	11
423.401	1	5
423.742	1	12
424.084	1	13
424.425	1	18
424.766	1	-4
425.107	1	2
425.449	1	11
425.790	1	5
426.131	1	3
426.472	1	8
426.814	1	10
427.155	1	-6
427.496	1	-2
427.837	1	1
428.179	1	25
428.520	1	4
428.861	1	15
429.202	1	-7
429.544	1	13
429.885	1	8
430.226	1	-10
430.567	1	-2
430.909	1	5
431.250	1	9
431.591	1	7
431.932	1	-1
432.273	1	12
432.615	1	-2
432.956	1	-4
433.297	1	6
433.638	1	12
433.979	1	1
434.320	1	7
434.662	1	13
435.003	1	9
435.344	1	8
435.685	1	-2
436.026	1	-3
436.368	1	-2
436.709	1	-2
437.050	1	0
437.391	1	-3
437.732	1	1
438.073	1	-2
438.414	1	9
438.756	1	-3
439.097	1	3
439.438	1	6
439.779	1	2
440.120	1	11
440.461	1	5
440.802	1	6
441.143	1	5
441.485	1	3
441.826	1	8
442.167	1	2
442.508	1	11
442.849	1	2
443.190	1	3
443.531	1	7
443.872	1	3
444.213	1	-6
444.554	1	11
444.895	1	-2
445.237	1	15
445.578	1	-2
445.919	1	3
446.260	1	6
446.601	1	-1
446.942	1	8
447.283	1	9
447.624	1	-15
447.965	1	0
448.306	1	6
448.647	1	3
448.988	1	0
449.329	1	6
449.670	1	7
450.011	1	7
450.352	1	2
450.693	1	11
451.034	1	2
451.375	1	3
451.716	1	2
452.057	1	12
452.398	1	7
452.739	1	6
453.080	1	8
453.421	1	13
453.762	1	6
454.103	1	3
454.444	1	-2
454.785	1	-2
455.126	1	1
455.467	1	4
455.808	1	3
456.149	1	-8
456.490	1	1
456.831	1	-3
457.172	1	5
457.513	1	5
457.854	1	6
458.195	1	15
458.536	1	12
458.877	1	-1
459.218	1	-2
459.559	1	4
459.899	1	-2
460.240	1	-3
460.581	1	2
460.922	1	-1
461.263	1	7
461.604	1	6
461.945	1	5
462.286	1	-2
462.627	1	6
462.968	1	12
463.309	1	0
463.649	1	-3
463.990	1	4
464.331	1	6
464.672	1	7
465.013	1	6
465.354	1	7
465.695	1	4
466.036	1	2
466.376	1	8
466.717	1	-6
467.058	1	8
467.399	1	-7
467.740	1	16
468.081	1	13
468.422	1	0
468.762	1	0
469.103	1	3
469.444	1	5
469.785	1	-3
470.126	1	7
470.467	1	7
470.807	1	7
471.148	1	2
471.489	1	9
471.830	1	8
472.171	1	2
472.511	1	4
472.852	1	7
473.193	1	2
473.534	1	8
473.875	1	4
474.215	1	0
474.556	1	-2
474.897	1	-1
475.238	1	1
475.578	1	-1
475.919	1	-3
476.260	1	-4
476.601	1	9
476.942	1	-2
477.282	1	-2
477.623	1	-6
477.964	1	5
478.305	1	4
478.645	1	5
478.986	1	9
479.327	1	5
479.667	1	6
480.008	1	7
480.349	1	-5
480.690	1	15
481.030	1	2
481.371	1	-8
481.712	1	6
482.053	1	0
482.393	1	1
482.734	1	9
483.075	1	9
483.415	1	4
483.756	1	13
484.097	1	12
484.437	1	2
484.778	1	9
485.119	1	0
485.459	1	-7
485.800	1	-1
486.141	1	6
486.481	1	-11
486.822	1	12
487.163	1	0
487.503	1	6
487.844	1	3
488.185	1	5
488.525	1	-3
488.866	1	-7
489.207	1	5
489.547	1	4
489.888	1	3
490.228	1	7
490.569	1	-2
490.910	1	11
491.250	1	13
491.591	1	6
491.932	1	10
492.272	1	-2
492.613	1	0
492.953	1	3
493.294	1	-12
493.635	1	3
493.975	1	2
494.316	1	0
494.656	1	10
494.997	1	-1
495.337	1	-1
495.678	1	5
496.019	1	0
496.359	1	1
496.700	1	13
497.040	1	7
497.381	1	10
497.721	1	-4
498.062	1	-4
498.403	1	11
498.743	1	3
499.084	1	6
499.424	1	2
499.765	1	6
500.105	1	14
500.446	1	-1
500.786	1	0
501.127	1	4
501.467	1	6
501.808	1	1
502.148	1	0
502.489	1	-7
502.829	1	1
503.170	1	-1
503.510	1	1
503.851	1	10
504.191	1	-3
504.532	1	5
504.872	1	-5
505.213	1	-2
505.553	1	-6
505.894	1	6
506.234	1	9
506.575	1	10
506.915	1	10
507.256	1	11
507.596	1	19
507.936	1	10
508.277	1	2
508.617	1	9
508.958	1	8
509.298	1	0
509.639	1	-4
509.979	1	0
510.319	1	10
510.660	1	4
511.000	1	4
511.341	1	8
511.681	1	7
512.022	1	-3
512.362	1	5
512.702	1	-8
513.043	1	4
513.383	1	3
513.724	1	2
514.064	1	13
514.404	1	13
514.745	1	1
515.085	1	1
515.425	1	11
515.766	1	-1
516.106	1	-11
516.447	1	10
516.787	1	5
517.127	1	12
517.468	1	5
517.808	1	-2
518.148	1	19
518.489	1	1
518.829	1	10
519.169	1	-11
519.510	1	-3
519.850	1	7
520.190	1	1
520.531	1	7
520.871	1	3
521.211	1	12
521.552	1	0
521.892	1	1
522.232	1	12
522.573	1	11
522.913	1	13
523.253	1	13
523.593	1	14
523.934	1	-1
524.274	1	2
524.614	1	11
524.955	1	3
525.295	1	5
525.635	1	7
525.975	1	8
526.316	1	2
526.656	1	6
526.996	1	-1
527.337	1	12
527.677	1	21
528.017	1	-7
528.357	1	8
528.698	1	11
529.038	1	7
529.378	1	8
529.718	1	11
530.058	1	5
530.399	1	11
530.739	1	8
531.079	1	-1
531.419	1	2
531.760	1	15
532.100	1	14
532.440	1	5
532.780	1	6
533.120	1	0
533.461	1	8
533.801	1	9
534.141	1	8
534.481	1	21
534.821	1	9
535.162	1	6
535.502	1	8
535.842	1	7
536.182	1	10
536.522	1	-1
536.862	1	10
537.203	1	11
537.543	1	20
537.883	1	3
538.223	1	17
538.563	1	1
538.903	1	7
539.243	1	14
539.584	1	7
539.924	1	9
540.264	1	16
540.604	1	11
540.944	1	10
541.284	1	-1
541.624	1	0
541.964	1	0
542.305	1	10
542.645	1	8
542.985	1	5
543.325	1	8
543.665	1	-6
544.005	1	-6
544.345	1	11
544.685	1	-2
545.025	1	5
545.365	1	3
545.705	1	-1
546.045	1	17
546.386	1	3
546.726	1	0
547.066	1	1
547.406	1	-2
547.746	1	-1
548.086	1	1
548.426	1	11
548.766	1	7
549.106	1	8
549.446	1	10
549.786	1	-5
550.126	1	6
550.466	1	5
550.806	1	16
551.146	1	14
551.486	1	-5
551.826	1	-8
552.166	1	7
552.506	1	3
552.846	1	9
553.186	1	-1
553.526	1	8
553.866	1	2
554.206	1	10
554.546	1	12
554.886	1	1
555.226	1	-1
555.566	1	9
555.906	1	-3
556.246	1	4
556.586	1	11
556.926	1	-4
557.266	1	3
557.606	1	-8
557.946	1	6
558.286	1	-11
558.626	1	3
558.966	1	-2
559.306	1	13
559.646	1	2
559.986	1	10
560.325	1	5
560.665	1	3
561.005	1	2
561.345	1	0
561.685	1	2
562.025	1	-3
562.365	1	6
562.705	1	11
563.045	1	16
563.385	1	5
563.725	1	8
564.064	1	1
564.404	1	-2
564.744	1	4
565.084	1	13
565.424	1	-3
565.764	1	7
566.104	1	6
566.444	1	5
566.783	1	8
567.123	1	3
567.463	1	2
567.803	1	8
568.143	1	-6
568.483	1	2
568.823	1	-1
569.162	1	-2
569.502	1	16
569.842	1	5
570.182	1	-2
570.522	1	3
570.862	1	-10
571.201	1	9
571.541	1	6
571.881	1	7
572.221	1	4
572.561	1	13
572.900	1	10
573.240	1	-2
573.580	1	5
573.920	1	11
574.260	1	6
574.599	1	3
574.939	1	0
575.279	1	-3
575.619	1	-4
575.959	1	1
576.298	1	-5
576.638	1	5
576.978	1	1
577.318	1	3
577.657	1	1
577.997	1	6
578.337	1	-3
578.677	1	14
579.016	1	3
579.356	1	3
579.696	1	1
580.036	1	1
580.375	1	2
580.715	1	8
581.055	1	7
581.394	1	8
581.734	1	3
582.074	1	-1
582.414	1	4
582.753	1	-3
583.093	1	8
583.433	1	5
583.772	1	-1
584.112	1	5
584.452	1	9
584.791	1	5
585.131	1	6
585.471	1	5
585.811	1	6
586.150	1	0
586.490	1	-2
586.830	1	2
587.169	1	3
587.509	1	-1
587.849	1	13
588.188	1	4
588.528	1	0
588.867	1	9
589.207	1	10
589.547	1	8
589.886	1	9
590.226	1	3
590.566	1	6
590.905	1	1
591.245	1	-9
591.585	1	-4
591.924	1	-1
592.264	1	-3
592.603	1	-14
592.943	1	-4
593.283	1	11
593.622	1	-12
593.962	1	4
594.301	1	3
594.641	1	7
594.981	1	1
595.320	1	3
595.660	1	3
595.999	1	1
596.339	1	5
596.678	1	-5
597.018	1	-2
597.358	1	5
597.697	1	-6
598.037	1	-8
598.376	1	0
598.716	1	1
599.055	1	5
599.395	1	-6
599.734	1	9
600.074	1	-2
600.413	1	-5
600.753	1	6
601.092	1	-3
601.432	1	-10
601.771	1	3
602.111	1	1
602.451	1	-13
602.790	1	6
603.130	1	1
603.469	1	1
603.809	1	10
604.148	1	-3
604.487	1	6
604.827	1	4
605.166	1	2
605.506	1	5
605.845	1	9
606.185	1	-2
606.524	1	4
606.864	1	13
607.203	1	2
607.543	1	1
607.882	1	1
608.222	1	8
608.561	1	1
608.901	1	7
609.240	1	-1
609.579	1	1
609.919	1	-12
610.258	1	10
610.598	1	-7
610.937	1	11
611.277	1	13
611.616	1	8
611.955	1	1
612.295	1	8
612.634	1	8
612.974	1	-2
613.313	1	5
613.652	1	11
613.992	1	3
614.331	1	9
614.671	1	6
615.010	1	4
615.349	1	7
615.689	1	-2
616.028	1	22
616.368	1	11
616.707	1	9
617.046	1	-6
617.386	1	10
617.725	1	-5
618.064	1	-9
618.404	1	-4
618.743	1	5
619.082	1	16
619.422	1	15
619.761	1	0
620.100	1	3
620.440	1	8
620.779	1	4
621.118	1	17
621.458	1	9
621.797	1	12
622.136	1	-7
622.476	1	4
622.815	1	10
623.154	1	5
623.494	1	-3
623.833	1	6
624.172	1	4
624.511	1	-3
624.851	1	7
625.190	1	-1
625.529	1	-1
625.869	1	-1
626.208	1	-3
626.547	1	-4
626.886	1	1
627.226	1	7
627.565	1	3
627.904	1	2
628.243	1	18
628.583	1	4
628.922	1	12
629.261	1	4
629.600	1	5
629.940	1	16
630.279	1	0
630.618	1	1
630.957	1	4
631.297	1	4
631.636	1	-1
631.975	1	7
632.314	1	5
632.653	1	-4
632.993	1	3
633.332	1	5
633.671	1	7
634.010	1	1
634.349	1	11
634.689	1	1
635.028	1	-2
635.367	1	9
635.706	1	-5
636.045	1	1
636.384	1	10
636.724	1	7
637.063	1	-3
637.402	1	3
637.741	1	2
638.080	1	3
638.419	1	4
638.759	1	5
639.098	1	6
639.437	1	2
639.776	1	10
640.115	1	-11
640.454	1	-8
640.793	1	5
641.132	1	3
641.472	1	4
641.811	1	-4
642.150	1	-5
642.489	1	11
642.828	1	22
643.167	1	-4
643.506	1	2
643.845	1	14
644.184	1	8
644.524	1	0
644.863	1	2
645.202	1	-2
645.541	1	5
645.880	1	7
646.219	1	1
646.558	1	-8
646.897	1	0
647.236	1	-4
647.575	1	7
647.914	1	7
648.253	1	14
648.592	1	5
648.931	1	8
649.270	1	11
649.610	1	5
649.949	1	-5
650.288	1	0
650.627	1	-2
650.966	1	7
651.305	1	12
651.644	1	10
651.983	1	-7
652.322	1	2
652.661	1	2
653.000	1	1
653.339	1	-2
653.678	1	8
654.017	1	2
654.356	1	4
654.695	1	18
655.034	1	0
655.373	1	9
655.712	1	2
656.051	1	-1
656.390	1	7
656.729	1	1
657.068	1	-3
657.406	1	5
657.745	1	15
658.084	1	-5
658.423	1	9
658.762	1	-2
659.101	1	0
659.440	1	7
659.779	1	-4
660.118	1	-2
660.457	1	8
660.796	1	8
661.135	1	2
661.474	1	8
661.813	1	1
662.152	1	-1
662.491	1	-2
662.829	1	12
663.168	1	7
663.507	1	2
663.846	1	-1
664.185	1	-5
664.524	1	7
664.863	1	-10
665.202	1	9
665.541	1	9
665.879	1	5
666.218	1	2
666.557	1	5
666.896	1	4
667.235	1	-4
667.574	1	1
667.913	1	9
668.251	1	1
668.590	1	-8
668.929	1	-1
669.268	1	0
669.607	1	-3
669.946	1	1
670.285	1	1
670.623	1	0
670.962	1	-8
671.301	1	3
671.640	1	1
671.979	1	-4
672.317	1	5
672.656	1	10
672.995	1	2
673.334	1	-3
673.673	1	12
674.011	1	6
674.350	1	5
674.689	1	-6
675.028	1	6
675.367	1	-1
675.705	1	-5
676.044	1	4
676.383	1	9
676.722	1	4
677.060	1	8
677.399	1	7
677.738	1	-3
678.077	1	-2
678.416	1	1
678.754	1	-2
679.093	1	8
679.432	1	-1
679.771	1	5
680.109	1	-5
680.448	1	5
680.787	1	-4
681.125	1	3
681.464	1	-3
681.803	1	-6
682.142	1	1
682.480	1	-6
682.819	1	-6
683.158	1	-4
683.496	1	0
683.835	1	7
684.174	1	5
684.512	1	5
684.851	1	6
685.190	1	-1
685.529	1	1
685.867	1	6
686.206	1	-4
686.545	1	-5
686.883	1	14
687.222	1	0
687.561	1	2
687.899	1	6
688.238	1	4
688.577	1	3
688.746	1	-3