File: Data/GaN_150K_450ms/GaN_sample D_spot15_UVVIS_150 K_200um_450 ms 2x2mm1_180.txt
340.368	1	6
340.710	1	3
341.052	1	9
341.394	1	-11
341.737	1	8
342.079	1	-7
342.421	1	0
342.763	1	-2
343.105	1	12
343.447	1	-1
343.789	1	8
344.131	1	-7
344.473	1	-3
344.815	1	0
345.157	1	10
345.499	1	-2
345.841	1	6
346.183	1	2
346.526	1	5
346.868	1	5
347.210	1	3
347.552	1	13
347.894	1	1
348.236	1	13
348.578	1	6
348.920	1	6
349.262	1	2
349.604	1	1
349.946	1	5
350.288	1	-7
350.630	1	-5
350.972	1	7
351.314	1	3
351.656	1	5
351.998	1	-1
352.340	1	15
352.682	1	-13
353.024	1	18
353.366	1	9
353.708	1	7
354.050	1	1
354.392	1	-6
354.734	1	5
355.076	1	12
355.418	1	0
355.760	1	6
356.102	1	8
356.444	1	10
356.785	1	8
357.127	1	7
357.469	1	20
357.811	1	4
358.153	1	-7
358.495	1	-2
358.837	1	16
359.179	1	6
359.521	1	14
359.863	1	-2
360.205	1	13
360.547	1	14
360.889	1	5
361.231	1	12
361.572	1	17
361.914	1	8
362.256	1	10
362.598	1	20
362.940	1	7
363.282	1	5
363.624	1	13
363.966	1	11
364.308	1	15
364.649	1	19
364.991	1	20
365.333	1	20
365.675	1	26
366.017	1	33
366.359	1	21
366.701	1	21
367.042	1	31
367.384	1	24
367.726	1	27
368.068	1	39
368.410	1	37
368.752	1	43
369.093	1	28
369.435	1	34
369.777	1	25
370.119	1	25
370.461	1	21
370.803	1	19
371.144	1	17
371.486	1	28
371.828	1	18
372.170	1	15
372.512	1	-1
372.853	1	26
373.195	1	15
373.537	1	9
373.879	1	11
374.220	1	17
374.562	1	22
374.904	1	12
375.246	1	12
375.588	1	10
375.929	1	16
376.271	1	13
376.613	1	14
376.955	1	16
377.296	1	16
377.638	1	5
377.980	1	4
378.321	1	11
378.663	1	14
379.005	1	6
379.347	1	8
379.688	1	12
380.030	1	17
380.372	1	13
380.714	1	17
381.055	1	-1
381.397	1	14
381.739	1	1
382.080	1	15
382.422	1	9
382.764	1	2
383.105	1	-3
383.447	1	8
383.789	1	0
384.130	1	7
384.472	1	-3
384.814	1	14
385.156	1	4
385.497	1	17
385.839	1	4
386.180	1	10
386.522	1	17
386.864	1	-1
387.205	1	5
387.547	1	11
387.889	1	-1
388.230	1	9
388.572	1	0
388.914	1	4
389.255	1	9
389.597	1	11
389.939	1	15
390.280	1	-5
390.622	1	3
390.963	1	2
391.305	1	5
391.647	1	1
391.988	1	10
392.330	1	-3
392.671	1	1
393.013	1	6
393.355	1	14
393.696	1	2
394.038	1	-5
394.379	1	7
394.721	1	1
395.062	1	-2
395.404	1	4
395.746	1	-1
396.087	1	8
396.429	1	16
396.770	1	11
397.112	1	2
397.453	1	-3
397.795	1	1
398.136	1	2
398.478	1	7
398.819	1	5
399.161	1	8
399.503	1	1
399.844	1	0
400.186	1	1
400.527	1	8
400.869	1	6
401.210	1	1
401.552	1	4
401.893	1	5
402.235	1	10
402.576	1	0
402.918	1	-3
403.259	1	1
403.601	1	11
403.942	1	2
404.284	1	10
404.625	1	2
404.967	1	10
405.308	1	-3
405.649	1	13
405.991	1	8
406.332	1	5
406.674	1	-1
407.015	1	8
407.357	1	4
407.698	1	13
408.040	1	6
408.381	1	-1
408.722	1	1
409.064	1	11
409.405	1	6
409.747	1	3
410.088	1	6
410.430	1	9
410.771	1	6
411.112	1	4
411.454	1	2
411.795	1	7
412.137	1	0
412.478	1	5
412.819	1	11
413.161	1	3
413.502	1	10
413.844	1	23
414.185	1	4
414.526	1	-10
414.868	1	1
415.209	1	11
415.550	1	4
415.892	1	16
416.233	1	3
416.575	1	-1
416.916	1	-2
417.257	1	6
417.599	1	4
417.940	1	5
418.281	1	12
418.623	1	-3
418.964	1	13
419.305	1	11
419.647	1	10
419.988	1	13
420.329	1	8
420.671	1	14
421.012	1	2
421.353	1	15
421.695	1	9
422.036	1	16
422.377	1	5
422.718	1	18
423.060	1	7
423.401	1	7
423.742	1	7
424.084	1	8
424.425	1	7
424.766	1	2
425.107	1	11
425.449	1	1
425.790	1	13
426.131	1	9
426.472	1	14
426.814	1	8
427.155	1	11
427.496	1	13
427.837	1	1
428.179	1	15
428.520	1	3
428.861	1	16
429.202	1	-4
429.544	1	8
429.885	1	11
430.226	1	-2
430.567	1	1
430.909	1	5
431.250	1	14
431.591	1	1
431.932	1	1
432.273	1	10
432.615	1	4
432.956	1	16
433.297	1	8
433.638	1	17
433.979	1	9
434.320	1	12
434.662	1	15
435.003	1	11
435.344	1	5
435.685	1	1
436.026	1	2
436.368	1	-3
436.709	1	0
437.050	1	2
437.391	1	5
437.732	1	6
438.073	1	4
438.414	1	8
438.756	1	11
439.097	1	5
439.438	1	15
439.779	1	-3
440.120	1	0
440.461	1	4
440.802	1	10
441.143	1	3
441.485	1	5
441.826	1	9
442.167	1	12
442.508	1	8
442.849	1	7
443.190	1	4
443.531	1	4
443.872	1	0
444.213	1	5
444.554	1	12
444.895	1	0
445.237	1	11
445.578	1	-2
445.919	1	7
446.260	1	14
446.601	1	5
446.942	1	5
447.283	1	11
447.624	1	2
447.965	1	9
448.306	1	4
448.647	1	4
448.988	1	12
449.329	1	2
449.670	1	5
450.011	1	3
450.352	1	-6
450.693	1	17
451.034	1	0
451.375	1	12
451.716	1	5
452.057	1	5
452.398	1	13
452.739	1	6
453.080	1	8
453.421	1	12
453.762	1	11
454.103	1	3
454.444	1	1
454.785	1	8
455.126	1	-2
455.467	1	4
455.808	1	21
456.149	1	-4
456.490	1	0
456.831	1	13
457.172	1	1
457.513	1	12
457.854	1	-2
458.195	1	8
458.536	1	3
458.877	1	5
459.218	1	4
459.559	1	7
459.899	1	1
460.240	1	0
460.581	1	-2
460.922	1	9
461.263	1	13
461.604	1	5
461.945	1	11
462.286	1	-2
462.627	1	7
462.968	1	8
463.309	1	1
463.649	1	-8
463.990	1	0
464.331	1	15
464.672	1	3
465.013	1	3
465.354	1	4
465.695	1	6
466.036	1	11
466.376	1	13
466.717	1	0
467.058	1	4
467.399	1	-5
467.740	1	12
468.081	1	3
468.422	1	13
468.762	1	6
469.103	1	9
469.444	1	6
469.785	1	0
470.126	1	6
470.467	1	2
470.807	1	4
471.148	1	-2
471.489	1	10
471.830	1	2
472.171	1	3
472.511	1	7
472.852	1	11
473.193	1	3
473.534	1	8
473.875	1	-1
474.215	1	9
474.556	1	4
474.897	1	1
475.238	1	9
475.578	1	-5
475.919	1	-3
476.260	1	-2
476.601	1	5
476.942	1	2
477.282	1	1
477.623	1	3
477.964	1	11
478.305	1	5
478.645	1	7
478.986	1	9
479.327	1	-1
479.667	1	2
480.008	1	10
480.349	1	-3
480.690	1	8
481.030	1	-1
481.371	1	-4
481.712	1	7
482.053	1	5
482.393	1	7
482.734	1	6
483.075	1	4
483.415	1	-2
483.756	1	17
484.097	1	0
484.437	1	9
484.778	1	4
485.119	1	10
485.459	1	0
485.800	1	-8
486.141	1	7
486.481	1	-9
486.822	1	15
487.163	1	5
487.503	1	1
487.844	1	5
488.185	1	6
488.525	1	4
488.866	1	4
489.207	1	14
489.547	1	6
489.888	1	5
490.228	1	7
490.569	1	-7
490.910	1	8
491.250	1	7
491.591	1	5
491.932	1	6
492.272	1	-4
492.613	1	-3
492.953	1	10
493.294	1	2
493.635	1	3
493.975	1	18
494.316	1	-1
494.656	1	18
494.997	1	2
495.337	1	6
495.678	1	-1
496.019	1	2
496.359	1	-3
496.700	1	14
497.040	1	3
497.381	1	4
497.721	1	-7
498.062	1	5
498.403	1	6
498.743	1	2
499.084	1	3
499.424	1	4
499.765	1	2
500.105	1	9
500.446	1	0
500.786	1	2
501.127	1	11
501.467	1	7
501.808	1	5
502.148	1	5
502.489	1	-5
502.829	1	3
503.170	1	10
503.510	1	4
503.851	1	11
504.191	1	2
504.532	1	21
504.872	1	-4
505.213	1	-3
505.553	1	7
505.894	1	1
506.234	1	6
506.575	1	19
506.915	1	12
507.256	1	6
507.596	1	9
507.936	1	17
508.277	1	7
508.617	1	5
508.958	1	5
509.298	1	-2
509.639	1	-3
509.979	1	6
510.319	1	7
510.660	1	2
511.000	1	6
511.341	1	18
511.681	1	9
512.022	1	5
512.362	1	9
512.702	1	3
513.043	1	14
513.383	1	4
513.724	1	7
514.064	1	17
514.404	1	15
514.745	1	6
515.085	1	11
515.425	1	9
515.766	1	3
516.106	1	0
516.447	1	10
516.787	1	6
517.127	1	13
517.468	1	10
517.808	1	-2
518.148	1	4
518.489	1	4
518.829	1	6
519.169	1	-1
519.510	1	7
519.850	1	6
520.190	1	6
520.531	1	8
520.871	1	6
521.211	1	2
521.552	1	3
521.892	1	3
522.232	1	3
522.573	1	13
522.913	1	19
523.253	1	16
523.593	1	3
523.934	1	8
524.274	1	13
524.614	1	5
524.955	1	7
525.295	1	3
525.635	1	5
525.975	1	4
526.316	1	-1
526.656	1	13
526.996	1	-4
527.337	1	7
527.677	1	20
528.017	1	5
528.357	1	5
528.698	1	8
529.038	1	13
529.378	1	10
529.718	1	6
530.058	1	8
530.399	1	7
530.739	1	8
531.079	1	8
531.419	1	1
531.760	1	10
532.100	1	23
532.440	1	5
532.780	1	10
533.120	1	5
533.461	1	2
533.801	1	9
534.141	1	15
534.481	1	20
534.821	1	9
535.162	1	7
535.502	1	-3
535.842	1	6
536.182	1	5
536.522	1	3
536.862	1	8
537.203	1	2
537.543	1	20
537.883	1	4
538.223	1	16
538.563	1	6
538.903	1	4
539.243	1	9
539.584	1	5
539.924	1	5
540.264	1	7
540.604	1	13
540.944	1	4
541.284	1	10
541.624	1	3
541.964	1	10
542.305	1	18
542.645	1	8
542.985	1	-3
543.325	1	15
543.665	1	9
544.005	1	6
544.345	1	13
544.685	1	-6
545.025	1	10
545.365	1	4
545.705	1	6
546.045	1	13
546.386	1	8
546.726	1	2
547.066	1	7
547.406	1	-5
547.746	1	2
548.086	1	11
548.426	1	7
548.766	1	7
549.106	1	-1
549.446	1	5
549.786	1	10
550.126	1	3
550.466	1	-1
550.806	1	13
551.146	1	7
551.486	1	8
551.826	1	1
552.166	1	-3
552.506	1	3
552.846	1	8
553.186	1	3
553.526	1	13
553.866	1	1
554.206	1	12
554.546	1	8
554.886	1	-2
555.226	1	12
555.566	1	7
555.906	1	-7
556.246	1	4
556.586	1	13
556.926	1	-1
557.266	1	9
557.606	1	-5
557.946	1	7
558.286	1	-4
558.626	1	11
558.966	1	0
559.306	1	6
559.646	1	5
559.986	1	12
560.325	1	2
560.665	1	8
561.005	1	5
561.345	1	6
561.685	1	13
562.025	1	11
562.365	1	12
562.705	1	14
563.045	1	11
563.385	1	6
563.725	1	13
564.064	1	-6
564.404	1	0
564.744	1	11
565.084	1	13
565.424	1	-9
565.764	1	11
566.104	1	8
566.444	1	17
566.783	1	7
567.123	1	11
567.463	1	9
567.803	1	3
568.143	1	9
568.483	1	13
568.823	1	1
569.162	1	-1
569.502	1	11
569.842	1	15
570.182	1	5
570.522	1	4
570.862	1	-14
571.201	1	9
571.541	1	5
571.881	1	2
572.221	1	-9
572.561	1	14
572.900	1	4
573.240	1	1
573.580	1	7
573.920	1	10
574.260	1	8
574.599	1	4
574.939	1	10
575.279	1	0
575.619	1	-8
575.959	1	5
576.298	1	3
576.638	1	17
576.978	1	17
577.318	1	4
577.657	1	2
577.997	1	7
578.337	1	6
578.677	1	9
579.016	1	3
579.356	1	8
579.696	1	3
580.036	1	9
580.375	1	-1
580.715	1	-1
581.055	1	9
581.394	1	4
581.734	1	5
582.074	1	-1
582.414	1	1
582.753	1	8
583.093	1	8
583.433	1	7
583.772	1	11
584.112	1	7
584.452	1	8
584.791	1	9
585.131	1	15
585.471	1	7
585.811	1	9
586.150	1	14
586.490	1	11
586.830	1	1
587.169	1	14
587.509	1	3
587.849	1	15
588.188	1	6
588.528	1	5
588.867	1	6
589.207	1	7
589.547	1	5
589.886	1	2
590.226	1	-1
590.566	1	6
590.905	1	11
591.245	1	-5
591.585	1	1
591.924	1	2
592.264	1	-3
592.603	1	-9
592.943	1	4
593.283	1	12
593.622	1	-1
593.962	1	7
594.301	1	0
594.641	1	2
594.981	1	2
595.320	1	2
595.660	1	5
595.999	1	0
596.339	1	10
596.678	1	-9
597.018	1	0
597.358	1	12
597.697	1	0
598.037	1	-2
598.376	1	-1
598.716	1	10
599.055	1	13
599.395	1	-6
599.734	1	11
600.074	1	-8
600.413	1	8
600.753	1	8
601.092	1	-9
601.432	1	5
601.771	1	16
602.111	1	4
602.451	1	-3
602.790	1	4
603.130	1	6
603.469	1	4
603.809	1	3
604.148	1	0
604.487	1	5
604.827	1	0
605.166	1	10
605.506	1	-2
605.845	1	8
606.185	1	2
606.524	1	1
606.864	1	10
607.203	1	7
607.543	1	5
607.882	1	8
608.222	1	6
608.561	1	0
608.901	1	7
609.240	1	10
609.579	1	-3
609.919	1	-12
610.258	1	13
610.598	1	-9
610.937	1	7
611.277	1	14
611.616	1	4
611.955	1	3
612.295	1	15
612.634	1	4
612.974	1	1
613.313	1	0
613.652	1	3
613.992	1	5
614.331	1	8
614.671	1	6
615.010	1	9
615.349	1	4
615.689	1	-1
616.028	1	10
616.368	1	10
616.707	1	4
617.046	1	3
617.386	1	4
617.725	1	-6
618.064	1	8
618.404	1	2
618.743	1	-1
619.082	1	10
619.422	1	16
619.761	1	4
620.100	1	4
620.440	1	2
620.779	1	11
621.118	1	11
621.458	1	2
621.797	1	14
622.136	1	-5
622.476	1	16
622.815	1	6
623.154	1	-1
623.494	1	-8
623.833	1	6
624.172	1	3
624.511	1	-1
624.851	1	4
625.190	1	-6
625.529	1	1
625.869	1	7
626.208	1	-7
626.547	1	-3
626.886	1	3
627.226	1	6
627.565	1	9
627.904	1	-4
628.243	1	8
628.583	1	8
628.922	1	16
629.261	1	-5
629.600	1	-2
629.940	1	8
630.279	1	5
630.618	1	10
630.957	1	7
631.297	1	10
631.636	1	-1
631.975	1	3
632.314	1	14
632.653	1	0
632.993	1	5
633.332	1	5
633.671	1	15
634.010	1	2
634.349	1	12
634.689	1	1
635.028	1	-2
635.367	1	12
635.706	1	9
636.045	1	2
636.384	1	9
636.724	1	9
637.063	1	2
637.402	1	16
637.741	1	3
638.080	1	1
638.419	1	-3
638.759	1	10
639.098	1	-2
639.437	1	-1
639.776	1	4
640.115	1	-12
640.454	1	-9
640.793	1	4
641.132	1	9
641.472	1	10
641.811	1	-5
642.150	1	-3
642.489	1	10
642.828	1	12
643.167	1	5
643.506	1	6
643.845	1	10
644.184	1	6
644.524	1	10
644.863	1	3
645.202	1	0
645.541	1	3
645.880	1	12
646.219	1	5
646.558	1	-7
646.897	1	-8
647.236	1	-9
647.575	1	8
647.914	1	8
648.253	1	10
648.592	1	9
648.931	1	10
649.270	1	13
649.610	1	5
649.949	1	-3
650.288	1	5
650.627	1	-6
650.966	1	8
651.305	1	2
651.644	1	9
651.983	1	-9
652.322	1	8
652.661	1	11
653.000	1	13
653.339	1	-2
653.678	1	7
654.017	1	19
654.356	1	10
654.695	1	12
655.034	1	3
655.373	1	6
655.712	1	11
656.051	1	5
656.390	1	2
656.729	1	6
657.068	1	3
657.406	1	-2
657.745	1	12
658.084	1	4
658.423	1	7
658.762	1	-1
659.101	1	-1
659.440	1	-2
659.779	1	2
660.118	1	7
660.457	1	9
660.796	1	10
661.135	1	14
661.474	1	6
661.813	1	-1
662.152	1	8
662.491	1	2
662.829	1	5
663.168	1	3
663.507	1	-5
663.846	1	0
664.185	1	0
664.524	1	6
664.863	1	-4
665.202	1	11
665.541	1	-5
665.879	1	7
666.218	1	2
666.557	1	4
666.896	1	6
667.235	1	4
667.574	1	4
667.913	1	-2
668.251	1	-9
668.590	1	1
668.929	1	2
669.268	1	6
669.607	1	-10
669.946	1	5
670.285	1	-5
670.623	1	4
670.962	1	4
671.301	1	8
671.640	1	6
671.979	1	3
672.317	1	7
672.656	1	6
672.995	1	-2
673.334	1	-3
673.673	1	18
674.011	1	14
674.350	1	7
674.689	1	7
675.028	1	3
675.367	1	13
675.705	1	2
676.044	1	5
676.383	1	0
676.722	1	1
677.060	1	8
677.399	1	15
677.738	1	2
678.077	1	8
678.416	1	6
678.754	1	7
679.093	1	13
679.432	1	1
679.771	1	1
680.109	1	1
680.448	1	-2
680.787	1	-2
681.125	1	3
681.464	1	9
681.803	1	-13
682.142	1	9
682.480	1	-13
682.819	1	-3
683.158	1	-5
683.496	1	2
683.835	1	13
684.174	1	2
684.512	1	5
684.851	1	2
685.190	1	3
685.529	1	1
685.867	1	0
686.206	1	2
686.545	1	-1
686.883	1	1
687.222	1	-2
687.561	1	5
687.899	1	-2
688.238	1	11
688.577	1	6
688.746	1	-6