File: Data/GaN_150K_450ms/GaN_sample D_spot15_UVVIS_150 K_200um_450 ms 2x2mm1_252.txt
340.368	1	5
340.710	1	6
341.052	1	4
341.394	1	-9
341.737	1	3
342.079	1	5
342.421	1	6
342.763	1	-2
343.105	1	5
343.447	1	7
343.789	1	8
344.131	1	-5
344.473	1	-7
344.815	1	-2
345.157	1	3
345.499	1	9
345.841	1	-2
346.183	1	6
346.526	1	8
346.868	1	4
347.210	1	2
347.552	1	9
347.894	1	0
348.236	1	5
348.578	1	9
348.920	1	4
349.262	1	8
349.604	1	-2
349.946	1	-1
350.288	1	0
350.630	1	-2
350.972	1	9
351.314	1	0
351.656	1	3
351.998	1	-7
352.340	1	8
352.682	1	-1
353.024	1	18
353.366	1	8
353.708	1	5
354.050	1	1
354.392	1	0
354.734	1	4
355.076	1	10
355.418	1	-1
355.760	1	8
356.102	1	4
356.444	1	14
356.785	1	1
357.127	1	14
357.469	1	11
357.811	1	-3
358.153	1	-8
358.495	1	-3
358.837	1	6
359.179	1	7
359.521	1	9
359.863	1	-2
360.205	1	11
360.547	1	12
360.889	1	2
361.231	1	3
361.572	1	10
361.914	1	9
362.256	1	20
362.598	1	16
362.940	1	11
363.282	1	5
363.624	1	13
363.966	1	1
364.308	1	5
364.649	1	11
364.991	1	5
365.333	1	-9
365.675	1	20
366.017	1	13
366.359	1	8
366.701	1	3
367.042	1	11
367.384	1	8
367.726	1	16
368.068	1	27
368.410	1	18
368.752	1	23
369.093	1	21
369.435	1	13
369.777	1	25
370.119	1	19
370.461	1	14
370.803	1	9
371.144	1	2
371.486	1	17
371.828	1	11
372.170	1	19
372.512	1	3
372.853	1	8
373.195	1	11
373.537	1	0
373.879	1	1
374.220	1	0
374.562	1	3
374.904	1	8
375.246	1	4
375.588	1	5
375.929	1	10
376.271	1	10
376.613	1	6
376.955	1	0
377.296	1	12
377.638	1	6
377.980	1	3
378.321	1	7
378.663	1	13
379.005	1	2
379.347	1	3
379.688	1	10
380.030	1	12
380.372	1	2
380.714	1	7
381.055	1	1
381.397	1	4
381.739	1	-3
382.080	1	1
382.422	1	20
382.764	1	-1
383.105	1	12
383.447	1	0
383.789	1	6
384.130	1	-1
384.472	1	-2
384.814	1	11
385.156	1	7
385.497	1	9
385.839	1	-1
386.180	1	3
386.522	1	7
386.864	1	-2
387.205	1	2
387.547	1	11
387.889	1	2
388.230	1	3
388.572	1	-8
388.914	1	7
389.255	1	5
389.597	1	1
389.939	1	10
390.280	1	-5
390.622	1	-5
390.963	1	-7
391.305	1	3
391.647	1	-5
391.988	1	3
392.330	1	0
392.671	1	1
393.013	1	7
393.355	1	15
393.696	1	5
394.038	1	6
394.379	1	12
394.721	1	5
395.062	1	-7
395.404	1	4
395.746	1	-5
396.087	1	1
396.429	1	4
396.770	1	4
397.112	1	-1
397.453	1	6
397.795	1	2
398.136	1	-2
398.478	1	3
398.819	1	1
399.161	1	8
399.503	1	11
399.844	1	-3
400.186	1	3
400.527	1	2
400.869	1	-5
401.210	1	2
401.552	1	3
401.893	1	2
402.235	1	8
402.576	1	4
402.918	1	-2
403.259	1	0
403.601	1	15
403.942	1	-2
404.284	1	8
404.625	1	4
404.967	1	9
405.308	1	1
405.649	1	-6
405.991	1	5
406.332	1	0
406.674	1	4
407.015	1	9
407.357	1	-1
407.698	1	7
408.040	1	21
408.381	1	-2
408.722	1	4
409.064	1	2
409.405	1	4
409.747	1	4
410.088	1	11
410.430	1	8
410.771	1	8
411.112	1	3
411.454	1	-2
411.795	1	9
412.137	1	2
412.478	1	7
412.819	1	6
413.161	1	4
413.502	1	-2
413.844	1	11
414.185	1	-5
414.526	1	-10
414.868	1	-3
415.209	1	-5
415.550	1	1
415.892	1	5
416.233	1	4
416.575	1	-8
416.916	1	2
417.257	1	-1
417.599	1	4
417.940	1	-10
418.281	1	2
418.623	1	3
418.964	1	11
419.305	1	9
419.647	1	10
419.988	1	12
420.329	1	8
420.671	1	-2
421.012	1	6
421.353	1	7
421.695	1	13
422.036	1	13
422.377	1	0
422.718	1	3
423.060	1	11
423.401	1	1
423.742	1	11
424.084	1	0
424.425	1	12
424.766	1	8
425.107	1	6
425.449	1	6
425.790	1	8
426.131	1	-5
426.472	1	11
426.814	1	7
427.155	1	7
427.496	1	0
427.837	1	-1
428.179	1	13
428.520	1	-1
428.861	1	18
429.202	1	-1
429.544	1	1
429.885	1	12
430.226	1	-16
430.567	1	-7
430.909	1	-3
431.250	1	4
431.591	1	2
431.932	1	4
432.273	1	6
432.615	1	-10
432.956	1	4
433.297	1	5
433.638	1	13
433.979	1	2
434.320	1	14
434.662	1	14
435.003	1	6
435.344	1	-4
435.685	1	2
436.026	1	4
436.368	1	6
436.709	1	-11
437.050	1	-4
437.391	1	-2
437.732	1	-1
438.073	1	-2
438.414	1	1
438.756	1	3
439.097	1	3
439.438	1	3
439.779	1	9
440.120	1	2
440.461	1	3
440.802	1	2
441.143	1	2
441.485	1	6
441.826	1	-6
442.167	1	-1
442.508	1	7
442.849	1	5
443.190	1	5
443.531	1	2
443.872	1	-5
444.213	1	-11
444.554	1	5
444.895	1	2
445.237	1	10
445.578	1	4
445.919	1	11
446.260	1	7
446.601	1	-5
446.942	1	1
447.283	1	4
447.624	1	-11
447.965	1	5
448.306	1	3
448.647	1	-3
448.988	1	-3
449.329	1	2
449.670	1	8
450.011	1	2
450.352	1	-3
450.693	1	11
451.034	1	3
451.375	1	6
451.716	1	0
452.057	1	7
452.398	1	10
452.739	1	3
453.080	1	-1
453.421	1	8
453.762	1	11
454.103	1	-2
454.444	1	0
454.785	1	9
455.126	1	1
455.467	1	5
455.808	1	3
456.149	1	-3
456.490	1	-6
456.831	1	-2
457.172	1	4
457.513	1	5
457.854	1	1
458.195	1	-1
458.536	1	7
458.877	1	2
459.218	1	10
459.559	1	11
459.899	1	-10
460.240	1	-3
460.581	1	-7
460.922	1	0
461.263	1	9
461.604	1	5
461.945	1	6
462.286	1	2
462.627	1	6
462.968	1	0
463.309	1	0
463.649	1	-3
463.990	1	6
464.331	1	8
464.672	1	7
465.013	1	-2
465.354	1	11
465.695	1	5
466.036	1	8
466.376	1	10
466.717	1	-10
467.058	1	0
467.399	1	-7
467.740	1	9
468.081	1	4
468.422	1	-1
468.762	1	10
469.103	1	6
469.444	1	-2
469.785	1	-4
470.126	1	0
470.467	1	2
470.807	1	10
471.148	1	5
471.489	1	13
471.830	1	11
472.171	1	11
472.511	1	5
472.852	1	5
473.193	1	7
473.534	1	3
473.875	1	-2
474.215	1	6
474.556	1	-5
474.897	1	3
475.238	1	3
475.578	1	0
475.919	1	-9
476.260	1	-7
476.601	1	0
476.942	1	-3
477.282	1	0
477.623	1	-3
477.964	1	7
478.305	1	4
478.645	1	4
478.986	1	3
479.327	1	7
479.667	1	-5
480.008	1	5
480.349	1	-13
480.690	1	11
481.030	1	0
481.371	1	-5
481.712	1	6
482.053	1	0
482.393	1	7
482.734	1	3
483.075	1	-1
483.415	1	10
483.756	1	4
484.097	1	3
484.437	1	3
484.778	1	1
485.119	1	4
485.459	1	-2
485.800	1	-3
486.141	1	-6
486.481	1	-10
486.822	1	10
487.163	1	-4
487.503	1	2
487.844	1	-4
488.185	1	2
488.525	1	-1
488.866	1	2
489.207	1	0
489.547	1	5
489.888	1	11
490.228	1	2
490.569	1	-8
490.910	1	8
491.250	1	1
491.591	1	-6
491.932	1	14
492.272	1	-10
492.613	1	5
492.953	1	1
493.294	1	-4
493.635	1	8
493.975	1	16
494.316	1	8
494.656	1	9
494.997	1	-3
495.337	1	3
495.678	1	-5
496.019	1	6
496.359	1	6
496.700	1	11
497.040	1	-3
497.381	1	1
497.721	1	-1
498.062	1	2
498.403	1	3
498.743	1	-5
499.084	1	8
499.424	1	-4
499.765	1	2
500.105	1	19
500.446	1	-11
500.786	1	0
501.127	1	-1
501.467	1	3
501.808	1	0
502.148	1	5
502.489	1	-3
502.829	1	-1
503.170	1	4
503.510	1	-8
503.851	1	11
504.191	1	4
504.532	1	8
504.872	1	2
505.213	1	-1
505.553	1	9
505.894	1	4
506.234	1	14
506.575	1	11
506.915	1	7
507.256	1	-1
507.596	1	11
507.936	1	11
508.277	1	9
508.617	1	2
508.958	1	-2
509.298	1	2
509.639	1	-9
509.979	1	0
510.319	1	-5
510.660	1	-3
511.000	1	1
511.341	1	9
511.681	1	6
512.022	1	-8
512.362	1	17
512.702	1	-5
513.043	1	3
513.383	1	3
513.724	1	9
514.064	1	5
514.404	1	4
514.745	1	2
515.085	1	9
515.425	1	10
515.766	1	3
516.106	1	-6
516.447	1	8
516.787	1	1
517.127	1	19
517.468	1	10
517.808	1	-4
518.148	1	5
518.489	1	1
518.829	1	9
519.169	1	-10
519.510	1	-5
519.850	1	6
520.190	1	8
520.531	1	5
520.871	1	5
521.211	1	3
521.552	1	2
521.892	1	11
522.232	1	8
522.573	1	-2
522.913	1	10
523.253	1	10
523.593	1	10
523.934	1	3
524.274	1	-4
524.614	1	0
524.955	1	1
525.295	1	14
525.635	1	11
525.975	1	-2
526.316	1	-9
526.656	1	5
526.996	1	4
527.337	1	4
527.677	1	17
528.017	1	-1
528.357	1	14
528.698	1	10
529.038	1	-1
529.378	1	6
529.718	1	-1
530.058	1	7
530.399	1	5
530.739	1	7
531.079	1	3
531.419	1	8
531.760	1	10
532.100	1	11
532.440	1	13
532.780	1	11
533.120	1	-2
533.461	1	2
533.801	1	0
534.141	1	7
534.481	1	15
534.821	1	10
535.162	1	-3
535.502	1	5
535.842	1	8
536.182	1	-5
536.522	1	3
536.862	1	3
537.203	1	5
537.543	1	1
537.883	1	4
538.223	1	18
538.563	1	-6
538.903	1	4
539.243	1	10
539.584	1	0
539.924	1	4
540.264	1	15
540.604	1	6
540.944	1	12
541.284	1	0
541.624	1	7
541.964	1	0
542.305	1	10
542.645	1	9
542.985	1	-5
543.325	1	7
543.665	1	1
544.005	1	-5
544.345	1	0
544.685	1	-3
545.025	1	8
545.365	1	12
545.705	1	-6
546.045	1	6
546.386	1	-5
546.726	1	-2
547.066	1	6
547.406	1	-2
547.746	1	-2
548.086	1	3
548.426	1	3
548.766	1	7
549.106	1	5
549.446	1	3
549.786	1	3
550.126	1	9
550.466	1	8
550.806	1	12
551.146	1	7
551.486	1	-1
551.826	1	-7
552.166	1	2
552.506	1	2
552.846	1	4
553.186	1	1
553.526	1	9
553.866	1	-6
554.206	1	8
554.546	1	4
554.886	1	2
555.226	1	5
555.566	1	6
555.906	1	3
556.246	1	6
556.586	1	4
556.926	1	-4
557.266	1	2
557.606	1	-7
557.946	1	4
558.286	1	-12
558.626	1	5
558.966	1	1
559.306	1	6
559.646	1	9
559.986	1	3
560.325	1	5
560.665	1	1
561.005	1	11
561.345	1	0
561.685	1	3
562.025	1	-4
562.365	1	6
562.705	1	8
563.045	1	3
563.385	1	7
563.725	1	-2
564.064	1	5
564.404	1	-1
564.744	1	14
565.084	1	9
565.424	1	2
565.764	1	11
566.104	1	5
566.444	1	8
566.783	1	5
567.123	1	-1
567.463	1	12
567.803	1	18
568.143	1	-2
568.483	1	6
568.823	1	-7
569.162	1	-1
569.502	1	9
569.842	1	5
570.182	1	1
570.522	1	0
570.862	1	-6
571.201	1	17
571.541	1	8
571.881	1	4
572.221	1	3
572.561	1	3
572.900	1	18
573.240	1	-1
573.580	1	4
573.920	1	12
574.260	1	-2
574.599	1	0
574.939	1	-10
575.279	1	0
575.619	1	3
575.959	1	-6
576.298	1	-1
576.638	1	13
576.978	1	-3
577.318	1	3
577.657	1	2
577.997	1	15
578.337	1	0
578.677	1	7
579.016	1	-4
579.356	1	4
579.696	1	7
580.036	1	9
580.375	1	3
580.715	1	-1
581.055	1	-5
581.394	1	2
581.734	1	2
582.074	1	2
582.414	1	-7
582.753	1	-4
583.093	1	4
583.433	1	6
583.772	1	10
584.112	1	2
584.452	1	-1
584.791	1	4
585.131	1	7
585.471	1	6
585.811	1	3
586.150	1	9
586.490	1	-7
586.830	1	6
587.169	1	7
587.509	1	-1
587.849	1	1
588.188	1	-3
588.528	1	-2
588.867	1	4
589.207	1	2
589.547	1	-3
589.886	1	1
590.226	1	2
590.566	1	-2
590.905	1	2
591.245	1	0
591.585	1	-4
591.924	1	-2
592.264	1	7
592.603	1	-10
592.943	1	2
593.283	1	-1
593.622	1	2
593.962	1	12
594.301	1	5
594.641	1	5
594.981	1	0
595.320	1	3
595.660	1	3
595.999	1	1
596.339	1	3
596.678	1	-13
597.018	1	-3
597.358	1	3
597.697	1	-3
598.037	1	-3
598.376	1	-4
598.716	1	7
599.055	1	2
599.395	1	-11
599.734	1	3
600.074	1	-5
600.413	1	1
600.753	1	9
601.092	1	2
601.432	1	-5
601.771	1	3
602.111	1	0
602.451	1	3
602.790	1	1
603.130	1	0
603.469	1	6
603.809	1	14
604.148	1	0
604.487	1	0
604.827	1	9
605.166	1	8
605.506	1	-4
605.845	1	12
606.185	1	6
606.524	1	-5
606.864	1	7
607.203	1	8
607.543	1	7
607.882	1	4
608.222	1	-2
608.561	1	1
608.901	1	9
609.240	1	-5
609.579	1	4
609.919	1	-8
610.258	1	9
610.598	1	3
610.937	1	2
611.277	1	7
611.616	1	6
611.955	1	-10
612.295	1	4
612.634	1	-1
612.974	1	0
613.313	1	12
613.652	1	9
613.992	1	1
614.331	1	14
614.671	1	2
615.010	1	6
615.349	1	-4
615.689	1	5
616.028	1	16
616.368	1	13
616.707	1	12
617.046	1	8
617.386	1	6
617.725	1	1
618.064	1	-5
618.404	1	4
618.743	1	-1
619.082	1	6
619.422	1	13
619.761	1	-4
620.100	1	-1
620.440	1	1
620.779	1	5
621.118	1	12
621.458	1	2
621.797	1	0
622.136	1	-10
622.476	1	7
622.815	1	5
623.154	1	-5
623.494	1	-10
623.833	1	1
624.172	1	6
624.511	1	-4
624.851	1	8
625.190	1	4
625.529	1	1
625.869	1	11
626.208	1	-10
626.547	1	-2
626.886	1	-3
627.226	1	11
627.565	1	6
627.904	1	-1
628.243	1	11
628.583	1	-1
628.922	1	10
629.261	1	6
629.600	1	3
629.940	1	5
630.279	1	16
630.618	1	3
630.957	1	9
631.297	1	-1
631.636	1	3
631.975	1	3
632.314	1	0
632.653	1	1
632.993	1	5
633.332	1	7
633.671	1	5
634.010	1	1
634.349	1	0
634.689	1	-1
635.028	1	-7
635.367	1	13
635.706	1	-8
636.045	1	-3
636.384	1	9
636.724	1	11
637.063	1	-10
637.402	1	5
637.741	1	-7
638.080	1	-8
638.419	1	6
638.759	1	-2
639.098	1	2
639.437	1	0
639.776	1	-6
640.115	1	-13
640.454	1	-5
640.793	1	3
641.132	1	4
641.472	1	12
641.811	1	-1
642.150	1	-1
642.489	1	2
642.828	1	5
643.167	1	-4
643.506	1	2
643.845	1	3
644.184	1	13
644.524	1	-1
644.863	1	3
645.202	1	2
645.541	1	6
645.880	1	4
646.219	1	1
646.558	1	4
646.897	1	3
647.236	1	-4
647.575	1	7
647.914	1	-1
648.253	1	3
648.592	1	6
648.931	1	5
649.270	1	4
649.610	1	2
649.949	1	5
650.288	1	0
650.627	1	-1
650.966	1	-1
651.305	1	4
651.644	1	5
651.983	1	1
652.322	1	6
652.661	1	3
653.000	1	4
653.339	1	3
653.678	1	1
654.017	1	6
654.356	1	13
654.695	1	13
655.034	1	1
655.373	1	11
655.712	1	0
656.051	1	-3
656.390	1	-2
656.729	1	1
657.068	1	4
657.406	1	-1
657.745	1	15
658.084	1	4
658.423	1	5
658.762	1	1
659.101	1	-3
659.440	1	5
659.779	1	5
660.118	1	2
660.457	1	-3
660.796	1	5
661.135	1	0
661.474	1	12
661.813	1	-7
662.152	1	6
662.491	1	-4
662.829	1	6
663.168	1	1
663.507	1	4
663.846	1	6
664.185	1	9
664.524	1	11
664.863	1	-1
665.202	1	7
665.541	1	4
665.879	1	1
666.218	1	5
666.557	1	8
666.896	1	5
667.235	1	-7
667.574	1	2
667.913	1	3
668.251	1	-9
668.590	1	1
668.929	1	-7
669.268	1	-5
669.607	1	-11
669.946	1	1
670.285	1	-1
670.623	1	6
670.962	1	-5
671.301	1	5
671.640	1	7
671.979	1	3
672.317	1	10
672.656	1	6
672.995	1	-7
673.334	1	1
673.673	1	16
674.011	1	2
674.350	1	13
674.689	1	-5
675.028	1	5
675.367	1	7
675.705	1	-4
676.044	1	9
676.383	1	-2
676.722	1	6
677.060	1	6
677.399	1	11
677.738	1	-2
678.077	1	-4
678.416	1	4
678.754	1	-7
679.093	1	2
679.432	1	-5
679.771	1	0
680.109	1	-3
680.448	1	7
680.787	1	-9
681.125	1	3
681.464	1	-7
681.803	1	5
682.142	1	-1
682.480	1	-6
682.819	1	-9
683.158	1	7
683.496	1	-2
683.835	1	7
684.174	1	7
684.512	1	0
684.851	1	6
685.190	1	3
685.529	1	-3
685.867	1	3
686.206	1	-5
686.545	1	2
686.883	1	2
687.222	1	-6
687.561	1	-6
687.899	1	-8
688.238	1	9
688.577	1	-8
688.746	1	-1