File: Data/GaN_150K_450ms/GaN_sample D_spot15_UVVIS_150 K_200um_450 ms 2x2mm1_65.txt
340.368	1	4
340.710	1	9
341.052	1	1
341.394	1	-9
341.737	1	8
342.079	1	-2
342.421	1	8
342.763	1	6
343.105	1	4
343.447	1	4
343.789	1	9
344.131	1	-5
344.473	1	5
344.815	1	2
345.157	1	7
345.499	1	0
345.841	1	11
346.183	1	9
346.526	1	8
346.868	1	7
347.210	1	1
347.552	1	18
347.894	1	11
348.236	1	1
348.578	1	12
348.920	1	15
349.262	1	10
349.604	1	6
349.946	1	3
350.288	1	4
350.630	1	4
350.972	1	13
351.314	1	10
351.656	1	14
351.998	1	5
352.340	1	9
352.682	1	1
353.024	1	25
353.366	1	10
353.708	1	12
354.050	1	6
354.392	1	5
354.734	1	18
355.076	1	23
355.418	1	21
355.760	1	27
356.102	1	16
356.444	1	19
356.785	1	34
357.127	1	32
357.469	1	22
357.811	1	19
358.153	1	17
358.495	1	23
358.837	1	30
359.179	1	30
359.521	1	42
359.863	1	29
360.205	1	62
360.547	1	51
360.889	1	54
361.231	1	63
361.572	1	71
361.914	1	70
362.256	1	75
362.598	1	91
362.940	1	100
363.282	1	101
363.624	1	122
363.966	1	131
364.308	1	143
364.649	1	177
364.991	1	184
365.333	1	199
365.675	1	239
366.017	1	259
366.359	1	278
366.701	1	288
367.042	1	297
367.384	1	310
367.726	1	333
368.068	1	325
368.410	1	340
368.752	1	324
369.093	1	328
369.435	1	309
369.777	1	299
370.119	1	289
370.461	1	271
370.803	1	235
371.144	1	231
371.486	1	223
371.828	1	212
372.170	1	202
372.512	1	179
372.853	1	179
373.195	1	163
373.537	1	149
373.879	1	146
374.220	1	144
374.562	1	137
374.904	1	117
375.246	1	113
375.588	1	107
375.929	1	97
376.271	1	102
376.613	1	103
376.955	1	98
377.296	1	88
377.638	1	84
377.980	1	71
378.321	1	73
378.663	1	74
379.005	1	66
379.347	1	57
379.688	1	71
380.030	1	62
380.372	1	65
380.714	1	63
381.055	1	41
381.397	1	44
381.739	1	32
382.080	1	47
382.422	1	59
382.764	1	52
383.105	1	52
383.447	1	45
383.789	1	38
384.130	1	44
384.472	1	38
384.814	1	53
385.156	1	46
385.497	1	60
385.839	1	48
386.180	1	45
386.522	1	49
386.864	1	15
387.205	1	49
387.547	1	32
387.889	1	27
388.230	1	35
388.572	1	30
388.914	1	42
389.255	1	34
389.597	1	31
389.939	1	42
390.280	1	29
390.622	1	20
390.963	1	32
391.305	1	33
391.647	1	28
391.988	1	22
392.330	1	19
392.671	1	24
393.013	1	39
393.355	1	41
393.696	1	24
394.038	1	17
394.379	1	31
394.721	1	29
395.062	1	15
395.404	1	36
395.746	1	21
396.087	1	21
396.429	1	34
396.770	1	29
397.112	1	16
397.453	1	26
397.795	1	22
398.136	1	23
398.478	1	25
398.819	1	18
399.161	1	27
399.503	1	30
399.844	1	23
400.186	1	24
400.527	1	37
400.869	1	23
401.210	1	17
401.552	1	22
401.893	1	19
402.235	1	17
402.576	1	23
402.918	1	4
403.259	1	9
403.601	1	21
403.942	1	17
404.284	1	28
404.625	1	7
404.967	1	24
405.308	1	10
405.649	1	14
405.991	1	20
406.332	1	17
406.674	1	17
407.015	1	23
407.357	1	29
407.698	1	25
408.040	1	30
408.381	1	17
408.722	1	27
409.064	1	18
409.405	1	18
409.747	1	10
410.088	1	23
410.430	1	25
410.771	1	23
411.112	1	24
411.454	1	16
411.795	1	23
412.137	1	27
412.478	1	12
412.819	1	18
413.161	1	20
413.502	1	20
413.844	1	19
414.185	1	11
414.526	1	17
414.868	1	13
415.209	1	9
415.550	1	20
415.892	1	21
416.233	1	15
416.575	1	13
416.916	1	16
417.257	1	11
417.599	1	14
417.940	1	17
418.281	1	24
418.623	1	18
418.964	1	28
419.305	1	18
419.647	1	23
419.988	1	19
420.329	1	15
420.671	1	18
421.012	1	10
421.353	1	18
421.695	1	24
422.036	1	19
422.377	1	21
422.718	1	23
423.060	1	19
423.401	1	8
423.742	1	24
424.084	1	16
424.425	1	22
424.766	1	14
425.107	1	18
425.449	1	23
425.790	1	12
426.131	1	15
426.472	1	13
426.814	1	21
427.155	1	15
427.496	1	19
427.837	1	11
428.179	1	34
428.520	1	21
428.861	1	29
429.202	1	6
429.544	1	11
429.885	1	33
430.226	1	10
430.567	1	-4
430.909	1	6
431.250	1	24
431.591	1	21
431.932	1	12
432.273	1	18
432.615	1	14
432.956	1	17
433.297	1	16
433.638	1	17
433.979	1	15
434.320	1	19
434.662	1	20
435.003	1	19
435.344	1	9
435.685	1	12
436.026	1	19
436.368	1	10
436.709	1	9
437.050	1	14
437.391	1	16
437.732	1	20
438.073	1	11
438.414	1	14
438.756	1	9
439.097	1	20
439.438	1	11
439.779	1	19
440.120	1	8
440.461	1	9
440.802	1	16
441.143	1	6
441.485	1	4
441.826	1	18
442.167	1	18
442.508	1	15
442.849	1	14
443.190	1	18
443.531	1	12
443.872	1	10
444.213	1	9
444.554	1	15
444.895	1	13
445.237	1	11
445.578	1	7
445.919	1	16
446.260	1	18
446.601	1	14
446.942	1	6
447.283	1	17
447.624	1	0
447.965	1	17
448.306	1	19
448.647	1	12
448.988	1	19
449.329	1	14
449.670	1	13
450.011	1	8
450.352	1	0
450.693	1	22
451.034	1	13
451.375	1	11
451.716	1	12
452.057	1	18
452.398	1	23
452.739	1	11
453.080	1	19
453.421	1	15
453.762	1	19
454.103	1	12
454.444	1	18
454.785	1	10
455.126	1	17
455.467	1	13
455.808	1	23
456.149	1	8
456.490	1	5
456.831	1	13
457.172	1	8
457.513	1	18
457.854	1	12
458.195	1	11
458.536	1	13
458.877	1	7
459.218	1	7
459.559	1	17
459.899	1	9
460.240	1	5
460.581	1	5
460.922	1	19
461.263	1	25
461.604	1	8
461.945	1	8
462.286	1	15
462.627	1	7
462.968	1	16
463.309	1	11
463.649	1	8
463.990	1	14
464.331	1	8
464.672	1	5
465.013	1	13
465.354	1	19
465.695	1	14
466.036	1	22
466.376	1	20
466.717	1	11
467.058	1	19
467.399	1	8
467.740	1	19
468.081	1	4
468.422	1	10
468.762	1	16
469.103	1	14
469.444	1	9
469.785	1	8
470.126	1	11
470.467	1	10
470.807	1	13
471.148	1	0
471.489	1	19
471.830	1	10
472.171	1	19
472.511	1	17
472.852	1	11
473.193	1	13
473.534	1	10
473.875	1	11
474.215	1	14
474.556	1	9
474.897	1	9
475.238	1	16
475.578	1	9
475.919	1	14
476.260	1	6
476.601	1	8
476.942	1	10
477.282	1	6
477.623	1	5
477.964	1	19
478.305	1	19
478.645	1	19
478.986	1	15
479.327	1	17
479.667	1	13
480.008	1	13
480.349	1	11
480.690	1	19
481.030	1	7
481.371	1	13
481.712	1	24
482.053	1	22
482.393	1	11
482.734	1	15
483.075	1	23
483.415	1	24
483.756	1	16
484.097	1	25
484.437	1	21
484.778	1	3
485.119	1	18
485.459	1	22
485.800	1	12
486.141	1	20
486.481	1	11
486.822	1	33
487.163	1	17
487.503	1	20
487.844	1	21
488.185	1	23
488.525	1	21
488.866	1	16
489.207	1	34
489.547	1	32
489.888	1	33
490.228	1	25
490.569	1	15
490.910	1	26
491.250	1	30
491.591	1	31
491.932	1	36
492.272	1	26
492.613	1	24
492.953	1	28
493.294	1	23
493.635	1	24
493.975	1	45
494.316	1	26
494.656	1	44
494.997	1	31
495.337	1	30
495.678	1	29
496.019	1	31
496.359	1	42
496.700	1	26
497.040	1	36
497.381	1	39
497.721	1	23
498.062	1	37
498.403	1	43
498.743	1	43
499.084	1	51
499.424	1	33
499.765	1	45
500.105	1	50
500.446	1	33
500.786	1	39
501.127	1	50
501.467	1	43
501.808	1	53
502.148	1	45
502.489	1	49
502.829	1	41
503.170	1	55
503.510	1	56
503.851	1	58
504.191	1	54
504.532	1	62
504.872	1	51
505.213	1	50
505.553	1	57
505.894	1	51
506.234	1	58
506.575	1	59
506.915	1	63
507.256	1	53
507.596	1	58
507.936	1	52
508.277	1	67
508.617	1	62
508.958	1	56
509.298	1	47
509.639	1	50
509.979	1	58
510.319	1	57
510.660	1	54
511.000	1	60
511.341	1	62
511.681	1	65
512.022	1	51
512.362	1	67
512.702	1	46
513.043	1	64
513.383	1	62
513.724	1	60
514.064	1	68
514.404	1	65
514.745	1	68
515.085	1	68
515.425	1	78
515.766	1	65
516.106	1	59
516.447	1	73
516.787	1	64
517.127	1	78
517.468	1	81
517.808	1	63
518.148	1	79
518.489	1	73
518.829	1	74
519.169	1	71
519.510	1	62
519.850	1	74
520.190	1	61
520.531	1	64
520.871	1	71
521.211	1	74
521.552	1	77
521.892	1	78
522.232	1	77
522.573	1	65
522.913	1	66
523.253	1	81
523.593	1	81
523.934	1	65
524.274	1	69
524.614	1	70
524.955	1	69
525.295	1	84
525.635	1	85
525.975	1	55
526.316	1	68
526.656	1	72
526.996	1	72
527.337	1	86
527.677	1	80
528.017	1	64
528.357	1	82
528.698	1	92
529.038	1	81
529.378	1	79
529.718	1	76
530.058	1	82
530.399	1	75
530.739	1	88
531.079	1	89
531.419	1	76
531.760	1	87
532.100	1	87
532.440	1	78
532.780	1	77
533.120	1	77
533.461	1	78
533.801	1	78
534.141	1	82
534.481	1	92
534.821	1	73
535.162	1	72
535.502	1	69
535.842	1	67
536.182	1	79
536.522	1	75
536.862	1	75
537.203	1	69
537.543	1	74
537.883	1	67
538.223	1	78
538.563	1	60
538.903	1	64
539.243	1	80
539.584	1	66
539.924	1	62
540.264	1	78
540.604	1	84
540.944	1	70
541.284	1	62
541.624	1	64
541.964	1	65
542.305	1	76
542.645	1	63
542.985	1	67
543.325	1	78
543.665	1	53
544.005	1	64
544.345	1	68
544.685	1	59
545.025	1	73
545.365	1	84
545.705	1	69
546.045	1	69
546.386	1	64
546.726	1	57
547.066	1	68
547.406	1	65
547.746	1	69
548.086	1	64
548.426	1	65
548.766	1	69
549.106	1	58
549.446	1	76
549.786	1	66
550.126	1	72
550.466	1	65
550.806	1	71
551.146	1	65
551.486	1	62
551.826	1	58
552.166	1	54
552.506	1	63
552.846	1	66
553.186	1	50
553.526	1	58
553.866	1	57
554.206	1	67
554.546	1	71
554.886	1	57
555.226	1	47
555.566	1	53
555.906	1	54
556.246	1	55
556.586	1	59
556.926	1	50
557.266	1	58
557.606	1	48
557.946	1	65
558.286	1	46
558.626	1	46
558.966	1	43
559.306	1	60
559.646	1	58
559.986	1	52
560.325	1	52
560.665	1	52
561.005	1	52
561.345	1	45
561.685	1	58
562.025	1	48
562.365	1	41
562.705	1	53
563.045	1	47
563.385	1	47
563.725	1	46
564.064	1	52
564.404	1	41
564.744	1	57
565.084	1	49
565.424	1	34
565.764	1	55
566.104	1	56
566.444	1	56
566.783	1	43
567.123	1	39
567.463	1	52
567.803	1	47
568.143	1	43
568.483	1	44
568.823	1	42
569.162	1	34
569.502	1	39
569.842	1	42
570.182	1	38
570.522	1	36
570.862	1	28
571.201	1	49
571.541	1	36
571.881	1	31
572.221	1	46
572.561	1	50
572.900	1	51
573.240	1	29
573.580	1	44
573.920	1	34
574.260	1	33
574.599	1	38
574.939	1	35
575.279	1	40
575.619	1	42
575.959	1	29
576.298	1	28
576.638	1	42
576.978	1	39
577.318	1	44
577.657	1	27
577.997	1	33
578.337	1	29
578.677	1	32
579.016	1	35
579.356	1	37
579.696	1	24
580.036	1	36
580.375	1	37
580.715	1	37
581.055	1	33
581.394	1	34
581.734	1	25
582.074	1	22
582.414	1	38
582.753	1	39
583.093	1	29
583.433	1	34
583.772	1	31
584.112	1	36
584.452	1	33
584.791	1	33
585.131	1	34
585.471	1	26
585.811	1	25
586.150	1	42
586.490	1	18
586.830	1	30
587.169	1	33
587.509	1	31
587.849	1	30
588.188	1	35
588.528	1	16
588.867	1	32
589.207	1	36
589.547	1	25
589.886	1	31
590.226	1	10
590.566	1	26
590.905	1	16
591.245	1	5
591.585	1	17
591.924	1	22
592.264	1	16
592.603	1	2
592.943	1	27
593.283	1	25
593.622	1	11
593.962	1	37
594.301	1	11
594.641	1	18
594.981	1	24
595.320	1	28
595.660	1	18
595.999	1	29
596.339	1	17
596.678	1	7
597.018	1	13
597.358	1	23
597.697	1	22
598.037	1	14
598.376	1	20
598.716	1	21
599.055	1	24
599.395	1	14
599.734	1	24
600.074	1	12
600.413	1	20
600.753	1	26
601.092	1	12
601.432	1	21
601.771	1	17
602.111	1	23
602.451	1	18
602.790	1	28
603.130	1	22
603.469	1	17
603.809	1	19
604.148	1	13
604.487	1	16
604.827	1	27
605.166	1	25
605.506	1	8
605.845	1	20
606.185	1	10
606.524	1	8
606.864	1	33
607.203	1	20
607.543	1	15
607.882	1	19
608.222	1	20
608.561	1	19
608.901	1	24
609.240	1	19
609.579	1	9
609.919	1	7
610.258	1	27
610.598	1	4
610.937	1	16
611.277	1	17
611.616	1	30
611.955	1	9
612.295	1	22
612.634	1	19
612.974	1	13
613.313	1	12
613.652	1	22
613.992	1	13
614.331	1	20
614.671	1	15
615.010	1	13
615.349	1	12
615.689	1	12
616.028	1	28
616.368	1	24
616.707	1	18
617.046	1	12
617.386	1	18
617.725	1	6
618.064	1	8
618.404	1	11
618.743	1	20
619.082	1	19
619.422	1	20
619.761	1	18
620.100	1	19
620.440	1	21
620.779	1	13
621.118	1	26
621.458	1	15
621.797	1	14
622.136	1	9
622.476	1	17
622.815	1	17
623.154	1	6
623.494	1	6
623.833	1	16
624.172	1	12
624.511	1	-1
624.851	1	13
625.190	1	13
625.529	1	7
625.869	1	15
626.208	1	11
626.547	1	10
626.886	1	9
627.226	1	17
627.565	1	15
627.904	1	17
628.243	1	16
628.583	1	16
628.922	1	15
629.261	1	14
629.600	1	10
629.940	1	10
630.279	1	11
630.618	1	21
630.957	1	23
631.297	1	17
631.636	1	19
631.975	1	9
632.314	1	8
632.653	1	5
632.993	1	9
633.332	1	6
633.671	1	19
634.010	1	7
634.349	1	25
634.689	1	8
635.028	1	7
635.367	1	20
635.706	1	9
636.045	1	13
636.384	1	17
636.724	1	18
637.063	1	7
637.402	1	7
637.741	1	-1
638.080	1	6
638.419	1	5
638.759	1	16
639.098	1	12
639.437	1	15
639.776	1	4
640.115	1	0
640.454	1	6
640.793	1	9
641.132	1	10
641.472	1	27
641.811	1	9
642.150	1	13
642.489	1	13
642.828	1	24
643.167	1	17
643.506	1	17
643.845	1	11
644.184	1	20
644.524	1	8
644.863	1	6
645.202	1	9
645.541	1	6
645.880	1	13
646.219	1	11
646.558	1	7
646.897	1	-1
647.236	1	1
647.575	1	15
647.914	1	14
648.253	1	17
648.592	1	12
648.931	1	17
649.270	1	20
649.610	1	12
649.949	1	2
650.288	1	32
650.627	1	8
650.966	1	7
651.305	1	7
651.644	1	18
651.983	1	1
652.322	1	10
652.661	1	18
653.000	1	12
653.339	1	6
653.678	1	14
654.017	1	13
654.356	1	10
654.695	1	25
655.034	1	3
655.373	1	10
655.712	1	15
656.051	1	3
656.390	1	8
656.729	1	18
657.068	1	5
657.406	1	6
657.745	1	11
658.084	1	15
658.423	1	19
658.762	1	9
659.101	1	0
659.440	1	7
659.779	1	17
660.118	1	18
660.457	1	12
660.796	1	20
661.135	1	6
661.474	1	12
661.813	1	12
662.152	1	7
662.491	1	-7
662.829	1	12
663.168	1	3
663.507	1	20
663.846	1	7
664.185	1	5
664.524	1	12
664.863	1	2
665.202	1	16
665.541	1	12
665.879	1	10
666.218	1	19
666.557	1	10
666.896	1	7
667.235	1	7
667.574	1	13
667.913	1	14
668.251	1	-2
668.590	1	8
668.929	1	7
669.268	1	10
669.607	1	1
669.946	1	11
670.285	1	12
670.623	1	11
670.962	1	-1
671.301	1	10
671.640	1	15
671.979	1	1
672.317	1	15
672.656	1	18
672.995	1	17
673.334	1	9
673.673	1	10
674.011	1	11
674.350	1	1
674.689	1	13
675.028	1	9
675.367	1	15
675.705	1	3
676.044	1	8
676.383	1	9
676.722	1	9
677.060	1	4
677.399	1	17
677.738	1	6
678.077	1	8
678.416	1	1
678.754	1	5
679.093	1	20
679.432	1	6
679.771	1	4
680.109	1	17
680.448	1	14
680.787	1	-3
681.125	1	4
681.464	1	10
681.803	1	5
682.142	1	5
682.480	1	0
682.819	1	16
683.158	1	7
683.496	1	4
683.835	1	23
684.174	1	10
684.512	1	6
684.851	1	9
685.190	1	11
685.529	1	8
685.867	1	4
686.206	1	1
686.545	1	8
686.883	1	14
687.222	1	6
687.561	1	7
687.899	1	13
688.238	1	14
688.577	1	19
688.746	1	8