File: Data/GaN_150K_450ms/GaN_sample D_spot15_UVVIS_150 K_200um_450 ms 2x2mm1_211.txt
340.368	1	6
340.710	1	5
341.052	1	7
341.394	1	-11
341.737	1	12
342.079	1	5
342.421	1	0
342.763	1	-1
343.105	1	5
343.447	1	4
343.789	1	4
344.131	1	1
344.473	1	-3
344.815	1	9
345.157	1	10
345.499	1	3
345.841	1	9
346.183	1	2
346.526	1	14
346.868	1	4
347.210	1	1
347.552	1	14
347.894	1	-2
348.236	1	2
348.578	1	5
348.920	1	-4
349.262	1	1
349.604	1	-2
349.946	1	0
350.288	1	-2
350.630	1	-7
350.972	1	12
351.314	1	-8
351.656	1	11
351.998	1	3
352.340	1	10
352.682	1	-15
353.024	1	15
353.366	1	7
353.708	1	-1
354.050	1	1
354.392	1	-8
354.734	1	2
355.076	1	13
355.418	1	7
355.760	1	5
356.102	1	5
356.444	1	12
356.785	1	-6
357.127	1	11
357.469	1	1
357.811	1	3
358.153	1	-8
358.495	1	7
358.837	1	4
359.179	1	-1
359.521	1	8
359.863	1	2
360.205	1	21
360.547	1	13
360.889	1	-4
361.231	1	8
361.572	1	7
361.914	1	6
362.256	1	18
362.598	1	13
362.940	1	12
363.282	1	-4
363.624	1	11
363.966	1	8
364.308	1	9
364.649	1	15
364.991	1	20
365.333	1	14
365.675	1	22
366.017	1	18
366.359	1	21
366.701	1	11
367.042	1	25
367.384	1	12
367.726	1	25
368.068	1	21
368.410	1	25
368.752	1	32
369.093	1	33
369.435	1	32
369.777	1	30
370.119	1	20
370.461	1	9
370.803	1	11
371.144	1	12
371.486	1	16
371.828	1	24
372.170	1	16
372.512	1	18
372.853	1	27
373.195	1	11
373.537	1	3
373.879	1	13
374.220	1	13
374.562	1	18
374.904	1	13
375.246	1	12
375.588	1	3
375.929	1	13
376.271	1	5
376.613	1	12
376.955	1	3
377.296	1	9
377.638	1	5
377.980	1	-4
378.321	1	7
378.663	1	9
379.005	1	3
379.347	1	7
379.688	1	18
380.030	1	10
380.372	1	4
380.714	1	9
381.055	1	4
381.397	1	15
381.739	1	5
382.080	1	7
382.422	1	5
382.764	1	6
383.105	1	6
383.447	1	4
383.789	1	-7
384.130	1	5
384.472	1	6
384.814	1	14
385.156	1	16
385.497	1	17
385.839	1	3
386.180	1	1
386.522	1	5
386.864	1	-4
387.205	1	6
387.547	1	3
387.889	1	4
388.230	1	11
388.572	1	-5
388.914	1	9
389.255	1	1
389.597	1	8
389.939	1	16
390.280	1	4
390.622	1	2
390.963	1	1
391.305	1	8
391.647	1	-2
391.988	1	2
392.330	1	-1
392.671	1	9
393.013	1	13
393.355	1	11
393.696	1	4
394.038	1	6
394.379	1	1
394.721	1	5
395.062	1	-5
395.404	1	4
395.746	1	0
396.087	1	8
396.429	1	2
396.770	1	2
397.112	1	1
397.453	1	8
397.795	1	1
398.136	1	8
398.478	1	6
398.819	1	8
399.161	1	9
399.503	1	0
399.844	1	3
400.186	1	9
400.527	1	7
400.869	1	-3
401.210	1	8
401.552	1	7
401.893	1	3
402.235	1	4
402.576	1	10
402.918	1	-3
403.259	1	2
403.601	1	16
403.942	1	-1
404.284	1	14
404.625	1	2
404.967	1	7
405.308	1	-4
405.649	1	3
405.991	1	6
406.332	1	7
406.674	1	-2
407.015	1	6
407.357	1	14
407.698	1	6
408.040	1	17
408.381	1	7
408.722	1	5
409.064	1	2
409.405	1	7
409.747	1	-2
410.088	1	3
410.430	1	8
410.771	1	8
411.112	1	14
411.454	1	7
411.795	1	5
412.137	1	-5
412.478	1	5
412.819	1	13
413.161	1	-5
413.502	1	4
413.844	1	12
414.185	1	2
414.526	1	0
414.868	1	3
415.209	1	1
415.550	1	5
415.892	1	6
416.233	1	10
416.575	1	-2
416.916	1	5
417.257	1	2
417.599	1	-1
417.940	1	0
418.281	1	8
418.623	1	12
418.964	1	16
419.305	1	7
419.647	1	-1
419.988	1	14
420.329	1	12
420.671	1	12
421.012	1	5
421.353	1	10
421.695	1	10
422.036	1	7
422.377	1	6
422.718	1	8
423.060	1	15
423.401	1	5
423.742	1	13
424.084	1	8
424.425	1	15
424.766	1	2
425.107	1	7
425.449	1	11
425.790	1	5
426.131	1	-5
426.472	1	4
426.814	1	5
427.155	1	12
427.496	1	5
427.837	1	9
428.179	1	11
428.520	1	10
428.861	1	9
429.202	1	4
429.544	1	4
429.885	1	18
430.226	1	-1
430.567	1	-7
430.909	1	-4
431.250	1	-1
431.591	1	6
431.932	1	-5
432.273	1	7
432.615	1	0
432.956	1	-2
433.297	1	3
433.638	1	14
433.979	1	8
434.320	1	11
434.662	1	7
435.003	1	13
435.344	1	4
435.685	1	7
436.026	1	8
436.368	1	-4
436.709	1	-3
437.050	1	1
437.391	1	6
437.732	1	13
438.073	1	-5
438.414	1	2
438.756	1	8
439.097	1	1
439.438	1	-6
439.779	1	10
440.120	1	1
440.461	1	8
440.802	1	5
441.143	1	-2
441.485	1	-4
441.826	1	0
442.167	1	-6
442.508	1	9
442.849	1	12
443.190	1	4
443.531	1	8
443.872	1	-6
444.213	1	-4
444.554	1	5
444.895	1	2
445.237	1	3
445.578	1	-6
445.919	1	10
446.260	1	12
446.601	1	1
446.942	1	1
447.283	1	8
447.624	1	-7
447.965	1	9
448.306	1	6
448.647	1	1
448.988	1	6
449.329	1	8
449.670	1	6
450.011	1	4
450.352	1	4
450.693	1	7
451.034	1	2
451.375	1	5
451.716	1	2
452.057	1	0
452.398	1	7
452.739	1	5
453.080	1	10
453.421	1	10
453.762	1	9
454.103	1	-1
454.444	1	5
454.785	1	-3
455.126	1	-2
455.467	1	13
455.808	1	2
456.149	1	-2
456.490	1	-3
456.831	1	2
457.172	1	5
457.513	1	-4
457.854	1	7
458.195	1	2
458.536	1	8
458.877	1	5
459.218	1	12
459.559	1	-3
459.899	1	1
460.240	1	-4
460.581	1	4
460.922	1	0
461.263	1	14
461.604	1	2
461.945	1	10
462.286	1	-5
462.627	1	-1
462.968	1	12
463.309	1	-2
463.649	1	-2
463.990	1	0
464.331	1	2
464.672	1	8
465.013	1	9
465.354	1	16
465.695	1	15
466.036	1	4
466.376	1	20
466.717	1	-5
467.058	1	7
467.399	1	-9
467.740	1	19
468.081	1	6
468.422	1	5
468.762	1	12
469.103	1	2
469.444	1	7
469.785	1	-8
470.126	1	10
470.467	1	3
470.807	1	11
471.148	1	-1
471.489	1	12
471.830	1	5
472.171	1	21
472.511	1	7
472.852	1	6
473.193	1	4
473.534	1	4
473.875	1	2
474.215	1	-2
474.556	1	0
474.897	1	-2
475.238	1	10
475.578	1	-11
475.919	1	-1
476.260	1	-5
476.601	1	-2
476.942	1	4
477.282	1	-7
477.623	1	-2
477.964	1	7
478.305	1	0
478.645	1	2
478.986	1	2
479.327	1	9
479.667	1	-4
480.008	1	8
480.349	1	4
480.690	1	7
481.030	1	-5
481.371	1	-3
481.712	1	12
482.053	1	10
482.393	1	1
482.734	1	1
483.075	1	8
483.415	1	1
483.756	1	7
484.097	1	9
484.437	1	11
484.778	1	1
485.119	1	-1
485.459	1	-6
485.800	1	0
486.141	1	2
486.481	1	-4
486.822	1	9
487.163	1	1
487.503	1	10
487.844	1	-1
488.185	1	8
488.525	1	-7
488.866	1	-9
489.207	1	0
489.547	1	10
489.888	1	-1
490.228	1	5
490.569	1	-6
490.910	1	4
491.250	1	9
491.591	1	2
491.932	1	12
492.272	1	-5
492.613	1	1
492.953	1	8
493.294	1	-8
493.635	1	13
493.975	1	5
494.316	1	-2
494.656	1	4
494.997	1	-6
495.337	1	-6
495.678	1	-2
496.019	1	0
496.359	1	5
496.700	1	0
497.040	1	-3
497.381	1	2
497.721	1	-1
498.062	1	1
498.403	1	10
498.743	1	6
499.084	1	6
499.424	1	-4
499.765	1	13
500.105	1	7
500.446	1	-3
500.786	1	-10
501.127	1	-3
501.467	1	13
501.808	1	-5
502.148	1	2
502.489	1	-3
502.829	1	0
503.170	1	10
503.510	1	3
503.851	1	8
504.191	1	-3
504.532	1	10
504.872	1	-2
505.213	1	-1
505.553	1	2
505.894	1	7
506.234	1	14
506.575	1	21
506.915	1	8
507.256	1	3
507.596	1	8
507.936	1	22
508.277	1	10
508.617	1	5
508.958	1	9
509.298	1	-4
509.639	1	-5
509.979	1	2
510.319	1	7
510.660	1	-5
511.000	1	-3
511.341	1	8
511.681	1	13
512.022	1	0
512.362	1	7
512.702	1	-8
513.043	1	9
513.383	1	8
513.724	1	5
514.064	1	7
514.404	1	7
514.745	1	5
515.085	1	2
515.425	1	13
515.766	1	-5
516.106	1	2
516.447	1	5
516.787	1	4
517.127	1	13
517.468	1	6
517.808	1	-2
518.148	1	14
518.489	1	2
518.829	1	14
519.169	1	-2
519.510	1	-3
519.850	1	8
520.190	1	6
520.531	1	7
520.871	1	3
521.211	1	10
521.552	1	3
521.892	1	6
522.232	1	4
522.573	1	9
522.913	1	12
523.253	1	14
523.593	1	10
523.934	1	4
524.274	1	8
524.614	1	14
524.955	1	1
525.295	1	6
525.635	1	7
525.975	1	2
526.316	1	-12
526.656	1	5
526.996	1	0
527.337	1	7
527.677	1	13
528.017	1	1
528.357	1	2
528.698	1	14
529.038	1	5
529.378	1	3
529.718	1	-1
530.058	1	10
530.399	1	2
530.739	1	9
531.079	1	-3
531.419	1	5
531.760	1	9
532.100	1	15
532.440	1	5
532.780	1	2
533.120	1	6
533.461	1	2
533.801	1	10
534.141	1	9
534.481	1	19
534.821	1	-2
535.162	1	5
535.502	1	4
535.842	1	1
536.182	1	1
536.522	1	4
536.862	1	4
537.203	1	1
537.543	1	8
537.883	1	13
538.223	1	23
538.563	1	5
538.903	1	9
539.243	1	2
539.584	1	6
539.924	1	2
540.264	1	17
540.604	1	16
540.944	1	4
541.284	1	6
541.624	1	4
541.964	1	4
542.305	1	12
542.645	1	-3
542.985	1	0
543.325	1	13
543.665	1	6
544.005	1	6
544.345	1	2
544.685	1	2
545.025	1	9
545.365	1	8
545.705	1	13
546.045	1	4
546.386	1	3
546.726	1	10
547.066	1	-2
547.406	1	-1
547.746	1	-2
548.086	1	1
548.426	1	0
548.766	1	12
549.106	1	2
549.446	1	11
549.786	1	8
550.126	1	1
550.466	1	10
550.806	1	9
551.146	1	-7
551.486	1	-3
551.826	1	3
552.166	1	2
552.506	1	1
552.846	1	6
553.186	1	-3
553.526	1	7
553.866	1	4
554.206	1	2
554.546	1	11
554.886	1	-3
555.226	1	12
555.566	1	-1
555.906	1	-2
556.246	1	6
556.586	1	2
556.926	1	-2
557.266	1	9
557.606	1	-9
557.946	1	5
558.286	1	-8
558.626	1	7
558.966	1	9
559.306	1	9
559.646	1	15
559.986	1	6
560.325	1	6
560.665	1	-2
561.005	1	0
561.345	1	7
561.685	1	15
562.025	1	10
562.365	1	12
562.705	1	8
563.045	1	10
563.385	1	4
563.725	1	0
564.064	1	2
564.404	1	0
564.744	1	15
565.084	1	8
565.424	1	-4
565.764	1	3
566.104	1	7
566.444	1	7
566.783	1	2
567.123	1	-5
567.463	1	13
567.803	1	11
568.143	1	2
568.483	1	9
568.823	1	-5
569.162	1	-4
569.502	1	5
569.842	1	2
570.182	1	6
570.522	1	1
570.862	1	-12
571.201	1	13
571.541	1	8
571.881	1	-1
572.221	1	6
572.561	1	11
572.900	1	14
573.240	1	-2
573.580	1	8
573.920	1	14
574.260	1	7
574.599	1	8
574.939	1	-4
575.279	1	-1
575.619	1	-1
575.959	1	-5
576.298	1	-2
576.638	1	15
576.978	1	5
577.318	1	-6
577.657	1	1
577.997	1	8
578.337	1	-3
578.677	1	-5
579.016	1	5
579.356	1	9
579.696	1	7
580.036	1	9
580.375	1	2
580.715	1	9
581.055	1	7
581.394	1	1
581.734	1	0
582.074	1	0
582.414	1	9
582.753	1	3
583.093	1	7
583.433	1	10
583.772	1	2
584.112	1	-2
584.452	1	6
584.791	1	10
585.131	1	12
585.471	1	6
585.811	1	6
586.150	1	9
586.490	1	5
586.830	1	6
587.169	1	1
587.509	1	1
587.849	1	9
588.188	1	7
588.528	1	-3
588.867	1	5
589.207	1	8
589.547	1	2
589.886	1	3
590.226	1	0
590.566	1	7
590.905	1	-6
591.245	1	-1
591.585	1	0
591.924	1	-4
592.264	1	0
592.603	1	-9
592.943	1	0
593.283	1	7
593.622	1	0
593.962	1	5
594.301	1	3
594.641	1	8
594.981	1	-8
595.320	1	12
595.660	1	8
595.999	1	9
596.339	1	5
596.678	1	-8
597.018	1	-7
597.358	1	0
597.697	1	3
598.037	1	0
598.376	1	-6
598.716	1	3
599.055	1	8
599.395	1	-2
599.734	1	0
600.074	1	0
600.413	1	-6
600.753	1	9
601.092	1	-1
601.432	1	-2
601.771	1	15
602.111	1	6
602.451	1	-3
602.790	1	6
603.130	1	3
603.469	1	4
603.809	1	6
604.148	1	0
604.487	1	4
604.827	1	12
605.166	1	0
605.506	1	1
605.845	1	2
606.185	1	4
606.524	1	-1
606.864	1	8
607.203	1	2
607.543	1	7
607.882	1	8
608.222	1	-4
608.561	1	-3
608.901	1	2
609.240	1	5
609.579	1	1
609.919	1	-7
610.258	1	14
610.598	1	-11
610.937	1	-4
611.277	1	1
611.616	1	14
611.955	1	1
612.295	1	6
612.634	1	11
612.974	1	1
613.313	1	8
613.652	1	14
613.992	1	6
614.331	1	13
614.671	1	8
615.010	1	3
615.349	1	4
615.689	1	3
616.028	1	14
616.368	1	13
616.707	1	3
617.046	1	7
617.386	1	9
617.725	1	-2
618.064	1	-8
618.404	1	4
618.743	1	12
619.082	1	11
619.422	1	6
619.761	1	-8
620.100	1	-1
620.440	1	7
620.779	1	13
621.118	1	6
621.458	1	-7
621.797	1	3
622.136	1	-1
622.476	1	6
622.815	1	15
623.154	1	-8
623.494	1	-6
623.833	1	4
624.172	1	11
624.511	1	-4
624.851	1	-5
625.190	1	0
625.529	1	-3
625.869	1	6
626.208	1	-2
626.547	1	-9
626.886	1	-3
627.226	1	8
627.565	1	5
627.904	1	-2
628.243	1	10
628.583	1	4
628.922	1	3
629.261	1	4
629.600	1	0
629.940	1	0
630.279	1	1
630.618	1	7
630.957	1	8
631.297	1	2
631.636	1	1
631.975	1	5
632.314	1	14
632.653	1	4
632.993	1	0
633.332	1	0
633.671	1	13
634.010	1	3
634.349	1	17
634.689	1	11
635.028	1	-4
635.367	1	13
635.706	1	4
636.045	1	-6
636.384	1	11
636.724	1	5
637.063	1	1
637.402	1	6
637.741	1	0
638.080	1	4
638.419	1	2
638.759	1	2
639.098	1	0
639.437	1	3
639.776	1	4
640.115	1	1
640.454	1	-4
640.793	1	1
641.132	1	4
641.472	1	12
641.811	1	4
642.150	1	-4
642.489	1	13
642.828	1	20
643.167	1	5
643.506	1	-2
643.845	1	14
644.184	1	15
644.524	1	2
644.863	1	8
645.202	1	-1
645.541	1	5
645.880	1	8
646.219	1	12
646.558	1	-7
646.897	1	-2
647.236	1	1
647.575	1	7
647.914	1	4
648.253	1	17
648.592	1	8
648.931	1	2
649.270	1	6
649.610	1	7
649.949	1	2
650.288	1	5
650.627	1	-12
650.966	1	7
651.305	1	12
651.644	1	4
651.983	1	-2
652.322	1	9
652.661	1	6
653.000	1	0
653.339	1	9
653.678	1	0
654.017	1	7
654.356	1	6
654.695	1	13
655.034	1	1
655.373	1	5
655.712	1	5
656.051	1	1
656.390	1	9
656.729	1	10
657.068	1	2
657.406	1	0
657.745	1	12
658.084	1	-3
658.423	1	11
658.762	1	-1
659.101	1	1
659.440	1	5
659.779	1	8
660.118	1	-5
660.457	1	-2
660.796	1	6
661.135	1	9
661.474	1	12
661.813	1	-5
662.152	1	2
662.491	1	-1
662.829	1	4
663.168	1	2
663.507	1	6
663.846	1	-1
664.185	1	4
664.524	1	12
664.863	1	-5
665.202	1	5
665.541	1	2
665.879	1	9
666.218	1	-1
666.557	1	8
666.896	1	-5
667.235	1	-3
667.574	1	1
667.913	1	4
668.251	1	-6
668.590	1	-7
668.929	1	-2
669.268	1	-5
669.607	1	2
669.946	1	8
670.285	1	3
670.623	1	5
670.962	1	-12
671.301	1	6
671.640	1	8
671.979	1	0
672.317	1	6
672.656	1	17
672.995	1	2
673.334	1	-2
673.673	1	11
674.011	1	6
674.350	1	8
674.689	1	-5
675.028	1	5
675.367	1	8
675.705	1	-5
676.044	1	-4
676.383	1	-3
676.722	1	-1
677.060	1	-1
677.399	1	10
677.738	1	1
678.077	1	0
678.416	1	3
678.754	1	2
679.093	1	12
679.432	1	1
679.771	1	-2
680.109	1	0
680.448	1	-3
680.787	1	-7
681.125	1	0
681.464	1	2
681.803	1	-5
682.142	1	8
682.480	1	5
682.819	1	-8
683.158	1	4
683.496	1	4
683.835	1	0
684.174	1	11
684.512	1	10
684.851	1	-1
685.190	1	-3
685.529	1	-6
685.867	1	-7
686.206	1	-7
686.545	1	-4
686.883	1	8
687.222	1	-6
687.561	1	2
687.899	1	-1
688.238	1	14
688.577	1	4
688.746	1	-6