File: Data/GaN_150K_450ms/GaN_sample D_spot15_UVVIS_150 K_200um_450 ms 2x2mm1_159.txt
340.368	1	7
340.710	1	-4
341.052	1	13
341.394	1	-8
341.737	1	9
342.079	1	2
342.421	1	5
342.763	1	2
343.105	1	8
343.447	1	16
343.789	1	6
344.131	1	1
344.473	1	-5
344.815	1	7
345.157	1	17
345.499	1	4
345.841	1	15
346.183	1	9
346.526	1	3
346.868	1	5
347.210	1	0
347.552	1	12
347.894	1	6
348.236	1	7
348.578	1	8
348.920	1	-1
349.262	1	15
349.604	1	-1
349.946	1	-2
350.288	1	5
350.630	1	3
350.972	1	13
351.314	1	-4
351.656	1	7
351.998	1	10
352.340	1	4
352.682	1	1
353.024	1	13
353.366	1	6
353.708	1	5
354.050	1	2
354.392	1	-3
354.734	1	9
355.076	1	9
355.418	1	-4
355.760	1	-3
356.102	1	3
356.444	1	16
356.785	1	7
357.127	1	8
357.469	1	11
357.811	1	7
358.153	1	0
358.495	1	2
358.837	1	13
359.179	1	17
359.521	1	12
359.863	1	10
360.205	1	24
360.547	1	16
360.889	1	8
361.231	1	7
361.572	1	18
361.914	1	21
362.256	1	12
362.598	1	26
362.940	1	16
363.282	1	15
363.624	1	14
363.966	1	11
364.308	1	31
364.649	1	20
364.991	1	23
365.333	1	17
365.675	1	34
366.017	1	35
366.359	1	29
366.701	1	29
367.042	1	45
367.384	1	24
367.726	1	37
368.068	1	51
368.410	1	35
368.752	1	44
369.093	1	32
369.435	1	46
369.777	1	37
370.119	1	36
370.461	1	24
370.803	1	30
371.144	1	26
371.486	1	35
371.828	1	22
372.170	1	31
372.512	1	24
372.853	1	31
373.195	1	15
373.537	1	22
373.879	1	16
374.220	1	24
374.562	1	22
374.904	1	23
375.246	1	13
375.588	1	22
375.929	1	7
376.271	1	11
376.613	1	26
376.955	1	15
377.296	1	16
377.638	1	16
377.980	1	11
378.321	1	9
378.663	1	13
379.005	1	13
379.347	1	11
379.688	1	21
380.030	1	17
380.372	1	8
380.714	1	10
381.055	1	0
381.397	1	4
381.739	1	1
382.080	1	10
382.422	1	16
382.764	1	1
383.105	1	7
383.447	1	11
383.789	1	6
384.130	1	7
384.472	1	12
384.814	1	18
385.156	1	10
385.497	1	14
385.839	1	10
386.180	1	5
386.522	1	13
386.864	1	-1
387.205	1	9
387.547	1	15
387.889	1	15
388.230	1	13
388.572	1	9
388.914	1	17
389.255	1	11
389.597	1	6
389.939	1	20
390.280	1	10
390.622	1	-1
390.963	1	-5
391.305	1	5
391.647	1	9
391.988	1	0
392.330	1	9
392.671	1	13
393.013	1	10
393.355	1	9
393.696	1	8
394.038	1	3
394.379	1	9
394.721	1	6
395.062	1	11
395.404	1	10
395.746	1	-11
396.087	1	11
396.429	1	-1
396.770	1	8
397.112	1	11
397.453	1	-3
397.795	1	-2
398.136	1	12
398.478	1	9
398.819	1	1
399.161	1	15
399.503	1	13
399.844	1	10
400.186	1	8
400.527	1	8
400.869	1	0
401.210	1	8
401.552	1	11
401.893	1	12
402.235	1	8
402.576	1	5
402.918	1	-3
403.259	1	9
403.601	1	16
403.942	1	7
404.284	1	12
404.625	1	5
404.967	1	10
405.308	1	0
405.649	1	5
405.991	1	12
406.332	1	7
406.674	1	1
407.015	1	6
407.357	1	19
407.698	1	6
408.040	1	15
408.381	1	-4
408.722	1	7
409.064	1	11
409.405	1	10
409.747	1	0
410.088	1	12
410.430	1	11
410.771	1	12
411.112	1	11
411.454	1	11
411.795	1	5
412.137	1	2
412.478	1	13
412.819	1	9
413.161	1	10
413.502	1	10
413.844	1	10
414.185	1	1
414.526	1	6
414.868	1	7
415.209	1	14
415.550	1	18
415.892	1	11
416.233	1	6
416.575	1	7
416.916	1	7
417.257	1	11
417.599	1	12
417.940	1	-8
418.281	1	11
418.623	1	14
418.964	1	15
419.305	1	7
419.647	1	1
419.988	1	19
420.329	1	14
420.671	1	9
421.012	1	8
421.353	1	16
421.695	1	16
422.036	1	18
422.377	1	21
422.718	1	15
423.060	1	13
423.401	1	-2
423.742	1	12
424.084	1	11
424.425	1	12
424.766	1	0
425.107	1	12
425.449	1	17
425.790	1	9
426.131	1	5
426.472	1	22
426.814	1	7
427.155	1	13
427.496	1	18
427.837	1	6
428.179	1	15
428.520	1	9
428.861	1	21
429.202	1	5
429.544	1	5
429.885	1	2
430.226	1	-4
430.567	1	-4
430.909	1	4
431.250	1	9
431.591	1	0
431.932	1	8
432.273	1	13
432.615	1	19
432.956	1	9
433.297	1	7
433.638	1	17
433.979	1	6
434.320	1	21
434.662	1	13
435.003	1	22
435.344	1	2
435.685	1	2
436.026	1	3
436.368	1	4
436.709	1	6
437.050	1	13
437.391	1	3
437.732	1	11
438.073	1	7
438.414	1	16
438.756	1	8
439.097	1	15
439.438	1	7
439.779	1	11
440.120	1	10
440.461	1	8
440.802	1	12
441.143	1	5
441.485	1	5
441.826	1	2
442.167	1	7
442.508	1	10
442.849	1	6
443.190	1	11
443.531	1	14
443.872	1	2
444.213	1	2
444.554	1	12
444.895	1	7
445.237	1	12
445.578	1	-4
445.919	1	9
446.260	1	5
446.601	1	2
446.942	1	3
447.283	1	12
447.624	1	-2
447.965	1	11
448.306	1	3
448.647	1	7
448.988	1	14
449.329	1	8
449.670	1	14
450.011	1	-1
450.352	1	-1
450.693	1	5
451.034	1	2
451.375	1	1
451.716	1	6
452.057	1	6
452.398	1	14
452.739	1	15
453.080	1	15
453.421	1	17
453.762	1	-2
454.103	1	8
454.444	1	12
454.785	1	12
455.126	1	9
455.467	1	0
455.808	1	13
456.149	1	-3
456.490	1	10
456.831	1	-7
457.172	1	8
457.513	1	8
457.854	1	9
458.195	1	4
458.536	1	8
458.877	1	9
459.218	1	7
459.559	1	2
459.899	1	-5
460.240	1	-3
460.581	1	-3
460.922	1	1
461.263	1	17
461.604	1	-5
461.945	1	10
462.286	1	8
462.627	1	0
462.968	1	1
463.309	1	4
463.649	1	5
463.990	1	7
464.331	1	9
464.672	1	4
465.013	1	3
465.354	1	16
465.695	1	14
466.036	1	13
466.376	1	2
466.717	1	-5
467.058	1	-3
467.399	1	-6
467.740	1	17
468.081	1	9
468.422	1	10
468.762	1	10
469.103	1	6
469.444	1	3
469.785	1	0
470.126	1	8
470.467	1	-1
470.807	1	6
471.148	1	-6
471.489	1	6
471.830	1	-1
472.171	1	12
472.511	1	7
472.852	1	12
473.193	1	5
473.534	1	8
473.875	1	3
474.215	1	9
474.556	1	-2
474.897	1	4
475.238	1	6
475.578	1	-4
475.919	1	-4
476.260	1	0
476.601	1	10
476.942	1	8
477.282	1	-3
477.623	1	9
477.964	1	5
478.305	1	8
478.645	1	8
478.986	1	10
479.327	1	3
479.667	1	6
480.008	1	3
480.349	1	7
480.690	1	3
481.030	1	4
481.371	1	-2
481.712	1	15
482.053	1	14
482.393	1	-5
482.734	1	1
483.075	1	9
483.415	1	6
483.756	1	-4
484.097	1	14
484.437	1	8
484.778	1	2
485.119	1	7
485.459	1	-2
485.800	1	1
486.141	1	7
486.481	1	0
486.822	1	12
487.163	1	8
487.503	1	4
487.844	1	-5
488.185	1	10
488.525	1	-4
488.866	1	-4
489.207	1	4
489.547	1	4
489.888	1	10
490.228	1	5
490.569	1	6
490.910	1	10
491.250	1	4
491.591	1	3
491.932	1	8
492.272	1	-5
492.613	1	-1
492.953	1	3
493.294	1	-12
493.635	1	18
493.975	1	11
494.316	1	-4
494.656	1	17
494.997	1	3
495.337	1	0
495.678	1	-4
496.019	1	1
496.359	1	2
496.700	1	6
497.040	1	5
497.381	1	-1
497.721	1	4
498.062	1	3
498.403	1	8
498.743	1	5
499.084	1	1
499.424	1	4
499.765	1	4
500.105	1	11
500.446	1	-1
500.786	1	4
501.127	1	10
501.467	1	20
501.808	1	2
502.148	1	4
502.489	1	-9
502.829	1	3
503.170	1	10
503.510	1	3
503.851	1	15
504.191	1	3
504.532	1	12
504.872	1	-3
505.213	1	9
505.553	1	9
505.894	1	2
506.234	1	14
506.575	1	15
506.915	1	3
507.256	1	18
507.596	1	21
507.936	1	13
508.277	1	9
508.617	1	5
508.958	1	10
509.298	1	-5
509.639	1	3
509.979	1	5
510.319	1	9
510.660	1	6
511.000	1	4
511.341	1	12
511.681	1	13
512.022	1	-2
512.362	1	20
512.702	1	-1
513.043	1	11
513.383	1	3
513.724	1	7
514.064	1	11
514.404	1	25
514.745	1	9
515.085	1	19
515.425	1	7
515.766	1	2
516.106	1	6
516.447	1	13
516.787	1	15
517.127	1	15
517.468	1	19
517.808	1	3
518.148	1	19
518.489	1	6
518.829	1	23
519.169	1	-5
519.510	1	0
519.850	1	5
520.190	1	5
520.531	1	13
520.871	1	16
521.211	1	1
521.552	1	6
521.892	1	4
522.232	1	12
522.573	1	12
522.913	1	12
523.253	1	11
523.593	1	13
523.934	1	8
524.274	1	15
524.614	1	9
524.955	1	0
525.295	1	14
525.635	1	17
525.975	1	7
526.316	1	4
526.656	1	7
526.996	1	8
527.337	1	21
527.677	1	12
528.017	1	5
528.357	1	14
528.698	1	15
529.038	1	7
529.378	1	10
529.718	1	3
530.058	1	9
530.399	1	1
530.739	1	16
531.079	1	11
531.419	1	10
531.760	1	15
532.100	1	12
532.440	1	16
532.780	1	9
533.120	1	7
533.461	1	11
533.801	1	5
534.141	1	6
534.481	1	22
534.821	1	9
535.162	1	8
535.502	1	16
535.842	1	4
536.182	1	3
536.522	1	-3
536.862	1	1
537.203	1	11
537.543	1	16
537.883	1	0
538.223	1	14
538.563	1	-10
538.903	1	0
539.243	1	13
539.584	1	5
539.924	1	6
540.264	1	15
540.604	1	10
540.944	1	11
541.284	1	6
541.624	1	11
541.964	1	6
542.305	1	13
542.645	1	6
542.985	1	11
543.325	1	8
543.665	1	2
544.005	1	9
544.345	1	12
544.685	1	5
545.025	1	13
545.365	1	11
545.705	1	5
546.045	1	14
546.386	1	9
546.726	1	6
547.066	1	9
547.406	1	0
547.746	1	10
548.086	1	6
548.426	1	2
548.766	1	3
549.106	1	3
549.446	1	8
549.786	1	6
550.126	1	10
550.466	1	5
550.806	1	18
551.146	1	7
551.486	1	7
551.826	1	5
552.166	1	4
552.506	1	2
552.846	1	13
553.186	1	2
553.526	1	1
553.866	1	12
554.206	1	18
554.546	1	10
554.886	1	11
555.226	1	5
555.566	1	6
555.906	1	-1
556.246	1	8
556.586	1	11
556.926	1	4
557.266	1	9
557.606	1	-3
557.946	1	11
558.286	1	-1
558.626	1	10
558.966	1	10
559.306	1	11
559.646	1	11
559.986	1	17
560.325	1	2
560.665	1	9
561.005	1	9
561.345	1	12
561.685	1	2
562.025	1	7
562.365	1	1
562.705	1	4
563.045	1	11
563.385	1	6
563.725	1	-1
564.064	1	8
564.404	1	-5
564.744	1	14
565.084	1	18
565.424	1	5
565.764	1	13
566.104	1	10
566.444	1	8
566.783	1	6
567.123	1	6
567.463	1	6
567.803	1	18
568.143	1	10
568.483	1	14
568.823	1	-2
569.162	1	5
569.502	1	13
569.842	1	10
570.182	1	10
570.522	1	-3
570.862	1	0
571.201	1	10
571.541	1	-4
571.881	1	-2
572.221	1	7
572.561	1	15
572.900	1	14
573.240	1	6
573.580	1	10
573.920	1	23
574.260	1	9
574.599	1	11
574.939	1	9
575.279	1	4
575.619	1	6
575.959	1	0
576.298	1	-3
576.638	1	2
576.978	1	6
577.318	1	6
577.657	1	-5
577.997	1	6
578.337	1	2
578.677	1	9
579.016	1	6
579.356	1	8
579.696	1	7
580.036	1	8
580.375	1	1
580.715	1	12
581.055	1	0
581.394	1	12
581.734	1	-1
582.074	1	-1
582.414	1	-1
582.753	1	5
583.093	1	9
583.433	1	11
583.772	1	12
584.112	1	5
584.452	1	6
584.791	1	1
585.131	1	7
585.471	1	3
585.811	1	1
586.150	1	8
586.490	1	10
586.830	1	8
587.169	1	-3
587.509	1	1
587.849	1	25
588.188	1	14
588.528	1	6
588.867	1	-1
589.207	1	6
589.547	1	5
589.886	1	6
590.226	1	-4
590.566	1	2
590.905	1	-3
591.245	1	-3
591.585	1	4
591.924	1	6
592.264	1	12
592.603	1	-14
592.943	1	-2
593.283	1	5
593.622	1	-1
593.962	1	5
594.301	1	2
594.641	1	9
594.981	1	12
595.320	1	12
595.660	1	7
595.999	1	0
596.339	1	2
596.678	1	2
597.018	1	1
597.358	1	-5
597.697	1	1
598.037	1	3
598.376	1	0
598.716	1	6
599.055	1	0
599.395	1	-1
599.734	1	16
600.074	1	0
600.413	1	2
600.753	1	9
601.092	1	-4
601.432	1	3
601.771	1	18
602.111	1	9
602.451	1	4
602.790	1	10
603.130	1	3
603.469	1	5
603.809	1	3
604.148	1	-11
604.487	1	3
604.827	1	7
605.166	1	5
605.506	1	-6
605.845	1	6
606.185	1	6
606.524	1	-3
606.864	1	10
607.203	1	-1
607.543	1	3
607.882	1	6
608.222	1	4
608.561	1	0
608.901	1	6
609.240	1	9
609.579	1	0
609.919	1	1
610.258	1	7
610.598	1	0
610.937	1	2
611.277	1	4
611.616	1	6
611.955	1	0
612.295	1	5
612.634	1	-2
612.974	1	2
613.313	1	5
613.652	1	20
613.992	1	-3
614.331	1	14
614.671	1	2
615.010	1	7
615.349	1	9
615.689	1	2
616.028	1	11
616.368	1	19
616.707	1	5
617.046	1	-1
617.386	1	10
617.725	1	5
618.064	1	-3
618.404	1	0
618.743	1	3
619.082	1	13
619.422	1	17
619.761	1	3
620.100	1	11
620.440	1	9
620.779	1	6
621.118	1	10
621.458	1	3
621.797	1	-2
622.136	1	4
622.476	1	7
622.815	1	2
623.154	1	1
623.494	1	-6
623.833	1	6
624.172	1	4
624.511	1	-1
624.851	1	-3
625.190	1	4
625.529	1	-2
625.869	1	15
626.208	1	1
626.547	1	1
626.886	1	4
627.226	1	5
627.565	1	14
627.904	1	-1
628.243	1	10
628.583	1	6
628.922	1	9
629.261	1	1
629.600	1	-2
629.940	1	5
630.279	1	12
630.618	1	10
630.957	1	2
631.297	1	5
631.636	1	9
631.975	1	5
632.314	1	9
632.653	1	0
632.993	1	8
633.332	1	3
633.671	1	13
634.010	1	5
634.349	1	18
634.689	1	6
635.028	1	8
635.367	1	9
635.706	1	2
636.045	1	10
636.384	1	7
636.724	1	9
637.063	1	-10
637.402	1	9
637.741	1	-3
638.080	1	6
638.419	1	-2
638.759	1	9
639.098	1	3
639.437	1	2
639.776	1	2
640.115	1	-1
640.454	1	1
640.793	1	2
641.132	1	6
641.472	1	10
641.811	1	4
642.150	1	-4
642.489	1	9
642.828	1	20
643.167	1	8
643.506	1	0
643.845	1	8
644.184	1	13
644.524	1	2
644.863	1	6
645.202	1	10
645.541	1	1
645.880	1	13
646.219	1	7
646.558	1	-2
646.897	1	-4
647.236	1	-9
647.575	1	17
647.914	1	6
648.253	1	8
648.592	1	10
648.931	1	15
649.270	1	17
649.610	1	6
649.949	1	0
650.288	1	0
650.627	1	3
650.966	1	6
651.305	1	2
651.644	1	13
651.983	1	-9
652.322	1	10
652.661	1	7
653.000	1	6
653.339	1	-1
653.678	1	5
654.017	1	11
654.356	1	4
654.695	1	20
655.034	1	-8
655.373	1	1
655.712	1	9
656.051	1	5
656.390	1	0
656.729	1	8
657.068	1	3
657.406	1	-4
657.745	1	12
658.084	1	5
658.423	1	1
658.762	1	-3
659.101	1	0
659.440	1	-1
659.779	1	5
660.118	1	7
660.457	1	6
660.796	1	9
661.135	1	5
661.474	1	9
661.813	1	4
662.152	1	3
662.491	1	2
662.829	1	1
663.168	1	4
663.507	1	3
663.846	1	5
664.185	1	1
664.524	1	10
664.863	1	-7
665.202	1	6
665.541	1	8
665.879	1	9
666.218	1	10
666.557	1	6
666.896	1	8
667.235	1	0
667.574	1	3
667.913	1	3
668.251	1	-3
668.590	1	4
668.929	1	1
669.268	1	2
669.607	1	-8
669.946	1	3
670.285	1	3
670.623	1	10
670.962	1	-1
671.301	1	1
671.640	1	11
671.979	1	5
672.317	1	7
672.656	1	6
672.995	1	0
673.334	1	2
673.673	1	15
674.011	1	4
674.350	1	5
674.689	1	0
675.028	1	6
675.367	1	2
675.705	1	4
676.044	1	-7
676.383	1	5
676.722	1	6
677.060	1	10
677.399	1	11
677.738	1	0
678.077	1	-3
678.416	1	5
678.754	1	2
679.093	1	13
679.432	1	-3
679.771	1	1
680.109	1	6
680.448	1	7
680.787	1	-2
681.125	1	5
681.464	1	-5
681.803	1	0
682.142	1	-3
682.480	1	0
682.819	1	4
683.158	1	0
683.496	1	-3
683.835	1	0
684.174	1	3
684.512	1	4
684.851	1	-2
685.190	1	-3
685.529	1	0
685.867	1	0
686.206	1	-5
686.545	1	-1
686.883	1	10
687.222	1	8
687.561	1	2
687.899	1	7
688.238	1	10
688.577	1	2
688.746	1	-2