File: Data/GaN_150K_450ms/GaN_sample D_spot15_UVVIS_150 K_200um_450 ms 2x2mm1_125.txt
340.368	1	5
340.710	1	2
341.052	1	10
341.394	1	-3
341.737	1	10
342.079	1	11
342.421	1	5
342.763	1	9
343.105	1	9
343.447	1	5
343.789	1	3
344.131	1	-5
344.473	1	7
344.815	1	-8
345.157	1	8
345.499	1	10
345.841	1	9
346.183	1	13
346.526	1	6
346.868	1	-1
347.210	1	-2
347.552	1	16
347.894	1	3
348.236	1	12
348.578	1	1
348.920	1	3
349.262	1	10
349.604	1	5
349.946	1	3
350.288	1	-3
350.630	1	-4
350.972	1	13
351.314	1	-4
351.656	1	19
351.998	1	9
352.340	1	14
352.682	1	-9
353.024	1	15
353.366	1	11
353.708	1	7
354.050	1	1
354.392	1	4
354.734	1	8
355.076	1	16
355.418	1	5
355.760	1	17
356.102	1	12
356.444	1	9
356.785	1	11
357.127	1	22
357.469	1	15
357.811	1	6
358.153	1	0
358.495	1	7
358.837	1	20
359.179	1	15
359.521	1	22
359.863	1	16
360.205	1	26
360.547	1	23
360.889	1	13
361.231	1	23
361.572	1	27
361.914	1	20
362.256	1	25
362.598	1	33
362.940	1	40
363.282	1	16
363.624	1	27
363.966	1	24
364.308	1	39
364.649	1	32
364.991	1	31
365.333	1	35
365.675	1	39
366.017	1	54
366.359	1	49
366.701	1	43
367.042	1	50
367.384	1	46
367.726	1	51
368.068	1	71
368.410	1	56
368.752	1	66
369.093	1	58
369.435	1	62
369.777	1	59
370.119	1	54
370.461	1	52
370.803	1	47
371.144	1	50
371.486	1	54
371.828	1	41
372.170	1	36
372.512	1	40
372.853	1	44
373.195	1	37
373.537	1	32
373.879	1	28
374.220	1	32
374.562	1	35
374.904	1	31
375.246	1	23
375.588	1	16
375.929	1	28
376.271	1	23
376.613	1	31
376.955	1	29
377.296	1	20
377.638	1	28
377.980	1	13
378.321	1	17
378.663	1	20
379.005	1	20
379.347	1	15
379.688	1	26
380.030	1	19
380.372	1	19
380.714	1	17
381.055	1	17
381.397	1	5
381.739	1	8
382.080	1	11
382.422	1	25
382.764	1	14
383.105	1	13
383.447	1	8
383.789	1	4
384.130	1	7
384.472	1	2
384.814	1	16
385.156	1	16
385.497	1	20
385.839	1	9
386.180	1	6
386.522	1	20
386.864	1	5
387.205	1	15
387.547	1	11
387.889	1	10
388.230	1	8
388.572	1	10
388.914	1	23
389.255	1	10
389.597	1	9
389.939	1	14
390.280	1	11
390.622	1	4
390.963	1	4
391.305	1	13
391.647	1	13
391.988	1	6
392.330	1	11
392.671	1	13
393.013	1	13
393.355	1	19
393.696	1	7
394.038	1	5
394.379	1	10
394.721	1	1
395.062	1	8
395.404	1	13
395.746	1	1
396.087	1	7
396.429	1	8
396.770	1	11
397.112	1	10
397.453	1	15
397.795	1	4
398.136	1	8
398.478	1	14
398.819	1	14
399.161	1	13
399.503	1	15
399.844	1	-1
400.186	1	13
400.527	1	12
400.869	1	8
401.210	1	-2
401.552	1	4
401.893	1	19
402.235	1	18
402.576	1	10
402.918	1	1
403.259	1	11
403.601	1	14
403.942	1	9
404.284	1	15
404.625	1	0
404.967	1	8
405.308	1	0
405.649	1	19
405.991	1	17
406.332	1	6
406.674	1	8
407.015	1	16
407.357	1	9
407.698	1	8
408.040	1	15
408.381	1	1
408.722	1	16
409.064	1	15
409.405	1	16
409.747	1	20
410.088	1	13
410.430	1	10
410.771	1	8
411.112	1	16
411.454	1	15
411.795	1	10
412.137	1	3
412.478	1	15
412.819	1	22
413.161	1	18
413.502	1	13
413.844	1	21
414.185	1	5
414.526	1	4
414.868	1	3
415.209	1	6
415.550	1	4
415.892	1	13
416.233	1	12
416.575	1	-5
416.916	1	4
417.257	1	3
417.599	1	13
417.940	1	5
418.281	1	16
418.623	1	12
418.964	1	21
419.305	1	15
419.647	1	10
419.988	1	24
420.329	1	11
420.671	1	18
421.012	1	10
421.353	1	15
421.695	1	8
422.036	1	22
422.377	1	12
422.718	1	19
423.060	1	18
423.401	1	11
423.742	1	24
424.084	1	9
424.425	1	17
424.766	1	14
425.107	1	9
425.449	1	13
425.790	1	14
426.131	1	13
426.472	1	14
426.814	1	11
427.155	1	15
427.496	1	8
427.837	1	3
428.179	1	23
428.520	1	14
428.861	1	16
429.202	1	4
429.544	1	15
429.885	1	7
430.226	1	-6
430.567	1	9
430.909	1	1
431.250	1	19
431.591	1	6
431.932	1	8
432.273	1	18
432.615	1	1
432.956	1	9
433.297	1	12
433.638	1	21
433.979	1	10
434.320	1	19
434.662	1	16
435.003	1	19
435.344	1	3
435.685	1	10
436.026	1	0
436.368	1	11
436.709	1	15
437.050	1	8
437.391	1	8
437.732	1	17
438.073	1	6
438.414	1	19
438.756	1	4
439.097	1	12
439.438	1	5
439.779	1	9
440.120	1	18
440.461	1	19
440.802	1	7
441.143	1	9
441.485	1	7
441.826	1	13
442.167	1	1
442.508	1	12
442.849	1	7
443.190	1	17
443.531	1	11
443.872	1	5
444.213	1	0
444.554	1	10
444.895	1	1
445.237	1	17
445.578	1	9
445.919	1	9
446.260	1	15
446.601	1	9
446.942	1	4
447.283	1	13
447.624	1	2
447.965	1	5
448.306	1	9
448.647	1	7
448.988	1	12
449.329	1	16
449.670	1	5
450.011	1	6
450.352	1	9
450.693	1	14
451.034	1	12
451.375	1	3
451.716	1	11
452.057	1	15
452.398	1	15
452.739	1	12
453.080	1	6
453.421	1	12
453.762	1	9
454.103	1	1
454.444	1	7
454.785	1	14
455.126	1	1
455.467	1	13
455.808	1	17
456.149	1	4
456.490	1	-6
456.831	1	14
457.172	1	13
457.513	1	7
457.854	1	8
458.195	1	2
458.536	1	4
458.877	1	5
459.218	1	5
459.559	1	7
459.899	1	4
460.240	1	-3
460.581	1	-2
460.922	1	6
461.263	1	17
461.604	1	8
461.945	1	16
462.286	1	0
462.627	1	2
462.968	1	2
463.309	1	12
463.649	1	0
463.990	1	3
464.331	1	7
464.672	1	6
465.013	1	5
465.354	1	16
465.695	1	9
466.036	1	17
466.376	1	15
466.717	1	1
467.058	1	11
467.399	1	1
467.740	1	19
468.081	1	-1
468.422	1	11
468.762	1	17
469.103	1	4
469.444	1	12
469.785	1	6
470.126	1	5
470.467	1	5
470.807	1	18
471.148	1	-1
471.489	1	9
471.830	1	6
472.171	1	12
472.511	1	7
472.852	1	13
473.193	1	9
473.534	1	3
473.875	1	-1
474.215	1	11
474.556	1	-2
474.897	1	-15
475.238	1	7
475.578	1	-1
475.919	1	3
476.260	1	0
476.601	1	5
476.942	1	5
477.282	1	-7
477.623	1	6
477.964	1	10
478.305	1	9
478.645	1	6
478.986	1	9
479.327	1	8
479.667	1	14
480.008	1	13
480.349	1	5
480.690	1	11
481.030	1	1
481.371	1	4
481.712	1	11
482.053	1	10
482.393	1	3
482.734	1	3
483.075	1	9
483.415	1	5
483.756	1	1
484.097	1	8
484.437	1	9
484.778	1	4
485.119	1	7
485.459	1	-8
485.800	1	0
486.141	1	1
486.481	1	1
486.822	1	11
487.163	1	1
487.503	1	6
487.844	1	1
488.185	1	10
488.525	1	5
488.866	1	8
489.207	1	8
489.547	1	7
489.888	1	18
490.228	1	6
490.569	1	6
490.910	1	9
491.250	1	1
491.591	1	12
491.932	1	12
492.272	1	-6
492.613	1	2
492.953	1	6
493.294	1	3
493.635	1	14
493.975	1	17
494.316	1	6
494.656	1	8
494.997	1	1
495.337	1	5
495.678	1	11
496.019	1	1
496.359	1	6
496.700	1	9
497.040	1	4
497.381	1	7
497.721	1	-3
498.062	1	2
498.403	1	16
498.743	1	3
499.084	1	13
499.424	1	4
499.765	1	13
500.105	1	11
500.446	1	9
500.786	1	-1
501.127	1	9
501.467	1	11
501.808	1	12
502.148	1	6
502.489	1	5
502.829	1	8
503.170	1	14
503.510	1	12
503.851	1	10
504.191	1	1
504.532	1	23
504.872	1	0
505.213	1	2
505.553	1	11
505.894	1	25
506.234	1	13
506.575	1	19
506.915	1	5
507.256	1	14
507.596	1	16
507.936	1	14
508.277	1	16
508.617	1	10
508.958	1	19
509.298	1	6
509.639	1	9
509.979	1	4
510.319	1	21
510.660	1	5
511.000	1	20
511.341	1	23
511.681	1	22
512.022	1	-4
512.362	1	23
512.702	1	5
513.043	1	26
513.383	1	4
513.724	1	12
514.064	1	24
514.404	1	22
514.745	1	9
515.085	1	26
515.425	1	4
515.766	1	14
516.106	1	18
516.447	1	25
516.787	1	11
517.127	1	20
517.468	1	24
517.808	1	-1
518.148	1	28
518.489	1	13
518.829	1	21
519.169	1	2
519.510	1	11
519.850	1	18
520.190	1	1
520.531	1	14
520.871	1	21
521.211	1	9
521.552	1	3
521.892	1	4
522.232	1	15
522.573	1	11
522.913	1	14
523.253	1	27
523.593	1	24
523.934	1	15
524.274	1	8
524.614	1	14
524.955	1	10
525.295	1	24
525.635	1	25
525.975	1	12
526.316	1	6
526.656	1	16
526.996	1	7
527.337	1	17
527.677	1	23
528.017	1	12
528.357	1	18
528.698	1	28
529.038	1	12
529.378	1	21
529.718	1	15
530.058	1	15
530.399	1	12
530.739	1	5
531.079	1	20
531.419	1	21
531.760	1	20
532.100	1	26
532.440	1	12
532.780	1	22
533.120	1	16
533.461	1	19
533.801	1	8
534.141	1	20
534.481	1	31
534.821	1	3
535.162	1	20
535.502	1	16
535.842	1	6
536.182	1	15
536.522	1	11
536.862	1	12
537.203	1	18
537.543	1	21
537.883	1	9
538.223	1	19
538.563	1	3
538.903	1	13
539.243	1	18
539.584	1	5
539.924	1	17
540.264	1	22
540.604	1	23
540.944	1	9
541.284	1	9
541.624	1	14
541.964	1	24
542.305	1	21
542.645	1	16
542.985	1	9
543.325	1	18
543.665	1	10
544.005	1	22
544.345	1	16
544.685	1	8
545.025	1	13
545.365	1	21
545.705	1	12
546.045	1	15
546.386	1	7
546.726	1	8
547.066	1	20
547.406	1	14
547.746	1	11
548.086	1	15
548.426	1	15
548.766	1	7
549.106	1	2
549.446	1	18
549.786	1	14
550.126	1	14
550.466	1	6
550.806	1	26
551.146	1	13
551.486	1	16
551.826	1	8
552.166	1	14
552.506	1	18
552.846	1	14
553.186	1	0
553.526	1	19
553.866	1	8
554.206	1	14
554.546	1	16
554.886	1	14
555.226	1	7
555.566	1	8
555.906	1	13
556.246	1	20
556.586	1	14
556.926	1	3
557.266	1	14
557.606	1	3
557.946	1	9
558.286	1	5
558.626	1	11
558.966	1	4
559.306	1	16
559.646	1	20
559.986	1	16
560.325	1	1
560.665	1	2
561.005	1	15
561.345	1	5
561.685	1	15
562.025	1	15
562.365	1	8
562.705	1	19
563.045	1	15
563.385	1	13
563.725	1	12
564.064	1	3
564.404	1	7
564.744	1	11
565.084	1	15
565.424	1	4
565.764	1	6
566.104	1	10
566.444	1	14
566.783	1	11
567.123	1	2
567.463	1	3
567.803	1	14
568.143	1	8
568.483	1	17
568.823	1	10
569.162	1	7
569.502	1	18
569.842	1	10
570.182	1	8
570.522	1	4
570.862	1	-4
571.201	1	14
571.541	1	12
571.881	1	-1
572.221	1	12
572.561	1	7
572.900	1	14
573.240	1	0
573.580	1	6
573.920	1	8
574.260	1	4
574.599	1	13
574.939	1	8
575.279	1	8
575.619	1	9
575.959	1	10
576.298	1	-1
576.638	1	10
576.978	1	10
577.318	1	7
577.657	1	-1
577.997	1	13
578.337	1	1
578.677	1	8
579.016	1	7
579.356	1	9
579.696	1	11
580.036	1	15
580.375	1	9
580.715	1	13
581.055	1	2
581.394	1	1
581.734	1	3
582.074	1	6
582.414	1	6
582.753	1	7
583.093	1	5
583.433	1	13
583.772	1	9
584.112	1	13
584.452	1	12
584.791	1	18
585.131	1	19
585.471	1	-1
585.811	1	11
586.150	1	15
586.490	1	9
586.830	1	11
587.169	1	1
587.509	1	3
587.849	1	14
588.188	1	11
588.528	1	-3
588.867	1	10
589.207	1	21
589.547	1	15
589.886	1	8
590.226	1	3
590.566	1	4
590.905	1	1
591.245	1	1
591.585	1	-1
591.924	1	-7
592.264	1	4
592.603	1	-10
592.943	1	7
593.283	1	12
593.622	1	12
593.962	1	6
594.301	1	1
594.641	1	4
594.981	1	0
595.320	1	17
595.660	1	-1
595.999	1	8
596.339	1	8
596.678	1	-6
597.018	1	1
597.358	1	2
597.697	1	4
598.037	1	11
598.376	1	-5
598.716	1	10
599.055	1	3
599.395	1	7
599.734	1	6
600.074	1	-2
600.413	1	5
600.753	1	13
601.092	1	-5
601.432	1	-4
601.771	1	15
602.111	1	5
602.451	1	9
602.790	1	4
603.130	1	6
603.469	1	11
603.809	1	7
604.148	1	-1
604.487	1	14
604.827	1	4
605.166	1	13
605.506	1	1
605.845	1	7
606.185	1	1
606.524	1	4
606.864	1	12
607.203	1	14
607.543	1	12
607.882	1	11
608.222	1	-3
608.561	1	9
608.901	1	6
609.240	1	4
609.579	1	0
609.919	1	-5
610.258	1	12
610.598	1	8
610.937	1	1
611.277	1	4
611.616	1	10
611.955	1	6
612.295	1	11
612.634	1	18
612.974	1	4
613.313	1	5
613.652	1	16
613.992	1	1
614.331	1	12
614.671	1	9
615.010	1	10
615.349	1	7
615.689	1	-3
616.028	1	16
616.368	1	17
616.707	1	3
617.046	1	0
617.386	1	9
617.725	1	8
618.064	1	-5
618.404	1	1
618.743	1	8
619.082	1	15
619.422	1	16
619.761	1	11
620.100	1	6
620.440	1	17
620.779	1	13
621.118	1	21
621.458	1	7
621.797	1	-1
622.136	1	4
622.476	1	9
622.815	1	18
623.154	1	3
623.494	1	-3
623.833	1	7
624.172	1	9
624.511	1	11
624.851	1	0
625.190	1	1
625.529	1	-2
625.869	1	14
626.208	1	3
626.547	1	-4
626.886	1	4
627.226	1	8
627.565	1	8
627.904	1	-2
628.243	1	7
628.583	1	2
628.922	1	9
629.261	1	-1
629.600	1	1
629.940	1	10
630.279	1	12
630.618	1	15
630.957	1	5
631.297	1	6
631.636	1	5
631.975	1	12
632.314	1	8
632.653	1	-3
632.993	1	6
633.332	1	6
633.671	1	2
634.010	1	-5
634.349	1	11
634.689	1	3
635.028	1	7
635.367	1	13
635.706	1	0
636.045	1	-1
636.384	1	14
636.724	1	11
637.063	1	-2
637.402	1	3
637.741	1	-1
638.080	1	4
638.419	1	-1
638.759	1	11
639.098	1	8
639.437	1	2
639.776	1	5
640.115	1	4
640.454	1	3
640.793	1	9
641.132	1	4
641.472	1	11
641.811	1	-1
642.150	1	3
642.489	1	7
642.828	1	14
643.167	1	9
643.506	1	-1
643.845	1	14
644.184	1	0
644.524	1	4
644.863	1	1
645.202	1	9
645.541	1	3
645.880	1	11
646.219	1	6
646.558	1	-3
646.897	1	-3
647.236	1	-5
647.575	1	17
647.914	1	5
648.253	1	12
648.592	1	5
648.931	1	7
649.270	1	12
649.610	1	6
649.949	1	4
650.288	1	8
650.627	1	4
650.966	1	-1
651.305	1	0
651.644	1	9
651.983	1	-11
652.322	1	7
652.661	1	12
653.000	1	6
653.339	1	8
653.678	1	10
654.017	1	12
654.356	1	10
654.695	1	11
655.034	1	1
655.373	1	-1
655.712	1	8
656.051	1	0
656.390	1	3
656.729	1	12
657.068	1	-2
657.406	1	-5
657.745	1	12
658.084	1	3
658.423	1	5
658.762	1	-2
659.101	1	-1
659.440	1	10
659.779	1	10
660.118	1	4
660.457	1	2
660.796	1	14
661.135	1	13
661.474	1	15
661.813	1	7
662.152	1	-3
662.491	1	5
662.829	1	4
663.168	1	8
663.507	1	-5
663.846	1	2
664.185	1	6
664.524	1	13
664.863	1	-3
665.202	1	3
665.541	1	-1
665.879	1	8
666.218	1	11
666.557	1	-5
666.896	1	7
667.235	1	-2
667.574	1	-4
667.913	1	8
668.251	1	1
668.590	1	-2
668.929	1	-1
669.268	1	5
669.607	1	-3
669.946	1	2
670.285	1	3
670.623	1	7
670.962	1	1
671.301	1	8
671.640	1	10
671.979	1	0
672.317	1	9
672.656	1	8
672.995	1	6
673.334	1	-11
673.673	1	10
674.011	1	8
674.350	1	7
674.689	1	-2
675.028	1	-2
675.367	1	7
675.705	1	-9
676.044	1	1
676.383	1	4
676.722	1	8
677.060	1	10
677.399	1	19
677.738	1	0
678.077	1	3
678.416	1	4
678.754	1	6
679.093	1	4
679.432	1	8
679.771	1	11
680.109	1	4
680.448	1	-2
680.787	1	0
681.125	1	0
681.464	1	2
681.803	1	1
682.142	1	8
682.480	1	-2
682.819	1	-2
683.158	1	2
683.496	1	-5
683.835	1	4
684.174	1	-2
684.512	1	-3
684.851	1	-6
685.190	1	-2
685.529	1	0
685.867	1	9
686.206	1	-4
686.545	1	8
686.883	1	14
687.222	1	2
687.561	1	5
687.899	1	5
688.238	1	5
688.577	1	5
688.746	1	6