File: Data/GaN_150K_450ms/GaN_sample D_spot15_UVVIS_150 K_200um_450 ms 2x2mm1_31.txt
340.368	1	1
340.710	1	3
341.052	1	-2
341.394	1	-11
341.737	1	8
342.079	1	9
342.421	1	-2
342.763	1	5
343.105	1	6
343.447	1	0
343.789	1	-1
344.131	1	-7
344.473	1	-7
344.815	1	-2
345.157	1	5
345.499	1	1
345.841	1	6
346.183	1	1
346.526	1	6
346.868	1	0
347.210	1	-7
347.552	1	16
347.894	1	4
348.236	1	3
348.578	1	4
348.920	1	0
349.262	1	5
349.604	1	-10
349.946	1	-2
350.288	1	4
350.630	1	-4
350.972	1	9
351.314	1	-7
351.656	1	0
351.998	1	7
352.340	1	4
352.682	1	-8
353.024	1	16
353.366	1	9
353.708	1	5
354.050	1	-5
354.392	1	-6
354.734	1	-10
355.076	1	9
355.418	1	7
355.760	1	1
356.102	1	4
356.444	1	11
356.785	1	7
357.127	1	3
357.469	1	-5
357.811	1	-9
358.153	1	-13
358.495	1	-6
358.837	1	17
359.179	1	0
359.521	1	-1
359.863	1	-4
360.205	1	13
360.547	1	9
360.889	1	4
361.231	1	8
361.572	1	3
361.914	1	9
362.256	1	3
362.598	1	6
362.940	1	4
363.282	1	-5
363.624	1	4
363.966	1	-6
364.308	1	1
364.649	1	4
364.991	1	-2
365.333	1	1
365.675	1	5
366.017	1	2
366.359	1	-1
366.701	1	2
367.042	1	14
367.384	1	-1
367.726	1	1
368.068	1	8
368.410	1	14
368.752	1	13
369.093	1	-4
369.435	1	3
369.777	1	7
370.119	1	7
370.461	1	-1
370.803	1	-4
371.144	1	-1
371.486	1	8
371.828	1	3
372.170	1	1
372.512	1	0
372.853	1	10
373.195	1	5
373.537	1	-5
373.879	1	-1
374.220	1	6
374.562	1	10
374.904	1	9
375.246	1	-4
375.588	1	-4
375.929	1	3
376.271	1	0
376.613	1	3
376.955	1	0
377.296	1	7
377.638	1	-4
377.980	1	-1
378.321	1	4
378.663	1	6
379.005	1	-2
379.347	1	-2
379.688	1	8
380.030	1	9
380.372	1	1
380.714	1	1
381.055	1	-2
381.397	1	1
381.739	1	-11
382.080	1	7
382.422	1	4
382.764	1	6
383.105	1	-5
383.447	1	3
383.789	1	-3
384.130	1	2
384.472	1	-3
384.814	1	2
385.156	1	-5
385.497	1	13
385.839	1	-5
386.180	1	-1
386.522	1	10
386.864	1	-5
387.205	1	6
387.547	1	2
387.889	1	-10
388.230	1	0
388.572	1	-15
388.914	1	9
389.255	1	8
389.597	1	1
389.939	1	12
390.280	1	8
390.622	1	-3
390.963	1	-8
391.305	1	0
391.647	1	0
391.988	1	3
392.330	1	0
392.671	1	7
393.013	1	7
393.355	1	4
393.696	1	12
394.038	1	10
394.379	1	3
394.721	1	4
395.062	1	-8
395.404	1	-1
395.746	1	-5
396.087	1	9
396.429	1	13
396.770	1	-6
397.112	1	-6
397.453	1	8
397.795	1	-2
398.136	1	7
398.478	1	-4
398.819	1	3
399.161	1	7
399.503	1	7
399.844	1	7
400.186	1	2
400.527	1	8
400.869	1	-5
401.210	1	3
401.552	1	1
401.893	1	1
402.235	1	7
402.576	1	0
402.918	1	-2
403.259	1	-2
403.601	1	14
403.942	1	-3
404.284	1	12
404.625	1	-8
404.967	1	7
405.308	1	-8
405.649	1	-5
405.991	1	-4
406.332	1	2
406.674	1	-2
407.015	1	7
407.357	1	8
407.698	1	12
408.040	1	8
408.381	1	1
408.722	1	-1
409.064	1	4
409.405	1	2
409.747	1	8
410.088	1	4
410.430	1	12
410.771	1	2
411.112	1	7
411.454	1	11
411.795	1	-3
412.137	1	-4
412.478	1	3
412.819	1	8
413.161	1	1
413.502	1	4
413.844	1	8
414.185	1	10
414.526	1	-4
414.868	1	-6
415.209	1	2
415.550	1	2
415.892	1	2
416.233	1	2
416.575	1	-4
416.916	1	-6
417.257	1	-5
417.599	1	-5
417.940	1	-10
418.281	1	1
418.623	1	-3
418.964	1	6
419.305	1	0
419.647	1	-2
419.988	1	9
420.329	1	-5
420.671	1	10
421.012	1	-1
421.353	1	10
421.695	1	10
422.036	1	8
422.377	1	5
422.718	1	3
423.060	1	10
423.401	1	-4
423.742	1	5
424.084	1	2
424.425	1	1
424.766	1	-4
425.107	1	8
425.449	1	2
425.790	1	-5
426.131	1	-3
426.472	1	2
426.814	1	-2
427.155	1	4
427.496	1	5
427.837	1	-9
428.179	1	13
428.520	1	3
428.861	1	5
429.202	1	-4
429.544	1	-3
429.885	1	5
430.226	1	-17
430.567	1	-15
430.909	1	-10
431.250	1	-1
431.591	1	6
431.932	1	-6
432.273	1	14
432.615	1	-2
432.956	1	5
433.297	1	-2
433.638	1	8
433.979	1	3
434.320	1	6
434.662	1	9
435.003	1	6
435.344	1	0
435.685	1	-4
436.026	1	-3
436.368	1	-1
436.709	1	-1
437.050	1	-5
437.391	1	7
437.732	1	2
438.073	1	-1
438.414	1	7
438.756	1	1
439.097	1	6
439.438	1	5
439.779	1	4
440.120	1	7
440.461	1	1
440.802	1	8
441.143	1	-5
441.485	1	-6
441.826	1	-1
442.167	1	-5
442.508	1	4
442.849	1	0
443.190	1	6
443.531	1	0
443.872	1	-9
444.213	1	-9
444.554	1	2
444.895	1	1
445.237	1	7
445.578	1	-5
445.919	1	-7
446.260	1	10
446.601	1	0
446.942	1	0
447.283	1	4
447.624	1	-9
447.965	1	8
448.306	1	1
448.647	1	-2
448.988	1	3
449.329	1	4
449.670	1	-2
450.011	1	3
450.352	1	-6
450.693	1	13
451.034	1	-5
451.375	1	-6
451.716	1	4
452.057	1	6
452.398	1	6
452.739	1	-2
453.080	1	4
453.421	1	9
453.762	1	5
454.103	1	0
454.444	1	-6
454.785	1	14
455.126	1	-2
455.467	1	4
455.808	1	3
456.149	1	-6
456.490	1	-6
456.831	1	-2
457.172	1	9
457.513	1	-5
457.854	1	2
458.195	1	-3
458.536	1	5
458.877	1	-3
459.218	1	3
459.559	1	6
459.899	1	-4
460.240	1	-3
460.581	1	-7
460.922	1	-8
461.263	1	13
461.604	1	-1
461.945	1	12
462.286	1	-4
462.627	1	0
462.968	1	-2
463.309	1	14
463.649	1	1
463.990	1	-1
464.331	1	2
464.672	1	5
465.013	1	0
465.354	1	11
465.695	1	4
466.036	1	4
466.376	1	2
466.717	1	-2
467.058	1	-3
467.399	1	-5
467.740	1	14
468.081	1	0
468.422	1	0
468.762	1	8
469.103	1	7
469.444	1	3
469.785	1	-2
470.126	1	7
470.467	1	1
470.807	1	4
471.148	1	-1
471.489	1	10
471.830	1	-4
472.171	1	3
472.511	1	1
472.852	1	4
473.193	1	7
473.534	1	8
473.875	1	6
474.215	1	1
474.556	1	1
474.897	1	-4
475.238	1	3
475.578	1	-1
475.919	1	5
476.260	1	4
476.601	1	4
476.942	1	2
477.282	1	-4
477.623	1	3
477.964	1	5
478.305	1	8
478.645	1	10
478.986	1	7
479.327	1	4
479.667	1	-2
480.008	1	10
480.349	1	-3
480.690	1	10
481.030	1	0
481.371	1	-6
481.712	1	6
482.053	1	10
482.393	1	-4
482.734	1	9
483.075	1	7
483.415	1	5
483.756	1	5
484.097	1	8
484.437	1	12
484.778	1	-8
485.119	1	-5
485.459	1	-12
485.800	1	-1
486.141	1	1
486.481	1	-12
486.822	1	8
487.163	1	-2
487.503	1	5
487.844	1	0
488.185	1	3
488.525	1	-7
488.866	1	5
489.207	1	4
489.547	1	-2
489.888	1	4
490.228	1	-6
490.569	1	-1
490.910	1	3
491.250	1	7
491.591	1	4
491.932	1	7
492.272	1	-7
492.613	1	-3
492.953	1	-2
493.294	1	-6
493.635	1	3
493.975	1	13
494.316	1	3
494.656	1	3
494.997	1	-10
495.337	1	-3
495.678	1	4
496.019	1	-4
496.359	1	-9
496.700	1	6
497.040	1	-2
497.381	1	0
497.721	1	-1
498.062	1	-3
498.403	1	5
498.743	1	-3
499.084	1	-1
499.424	1	-6
499.765	1	-4
500.105	1	6
500.446	1	-4
500.786	1	0
501.127	1	8
501.467	1	12
501.808	1	-2
502.148	1	-6
502.489	1	-5
502.829	1	-7
503.170	1	5
503.510	1	2
503.851	1	1
504.191	1	-8
504.532	1	11
504.872	1	-11
505.213	1	-11
505.553	1	3
505.894	1	1
506.234	1	6
506.575	1	11
506.915	1	-1
507.256	1	5
507.596	1	5
507.936	1	5
508.277	1	8
508.617	1	8
508.958	1	10
509.298	1	-1
509.639	1	-5
509.979	1	5
510.319	1	-2
510.660	1	5
511.000	1	-5
511.341	1	3
511.681	1	4
512.022	1	-14
512.362	1	7
512.702	1	-1
513.043	1	14
513.383	1	-4
513.724	1	4
514.064	1	-7
514.404	1	11
514.745	1	3
515.085	1	5
515.425	1	-1
515.766	1	0
516.106	1	4
516.447	1	0
516.787	1	2
517.127	1	4
517.468	1	10
517.808	1	-6
518.148	1	2
518.489	1	-1
518.829	1	1
519.169	1	-6
519.510	1	-8
519.850	1	10
520.190	1	4
520.531	1	1
520.871	1	5
521.211	1	10
521.552	1	-9
521.892	1	2
522.232	1	2
522.573	1	2
522.913	1	12
523.253	1	12
523.593	1	7
523.934	1	0
524.274	1	-3
524.614	1	3
524.955	1	6
525.295	1	6
525.635	1	3
525.975	1	-1
526.316	1	-2
526.656	1	3
526.996	1	1
527.337	1	5
527.677	1	11
528.017	1	3
528.357	1	2
528.698	1	8
529.038	1	4
529.378	1	-1
529.718	1	-6
530.058	1	-1
530.399	1	-5
530.739	1	6
531.079	1	-7
531.419	1	6
531.760	1	-2
532.100	1	2
532.440	1	7
532.780	1	1
533.120	1	-2
533.461	1	-4
533.801	1	15
534.141	1	1
534.481	1	18
534.821	1	0
535.162	1	3
535.502	1	1
535.842	1	-2
536.182	1	2
536.522	1	-4
536.862	1	5
537.203	1	7
537.543	1	3
537.883	1	4
538.223	1	12
538.563	1	-1
538.903	1	-3
539.243	1	2
539.584	1	-2
539.924	1	4
540.264	1	10
540.604	1	11
540.944	1	0
541.284	1	-8
541.624	1	13
541.964	1	4
542.305	1	9
542.645	1	-7
542.985	1	-1
543.325	1	4
543.665	1	-1
544.005	1	2
544.345	1	3
544.685	1	-3
545.025	1	7
545.365	1	6
545.705	1	1
546.045	1	11
546.386	1	-1
546.726	1	1
547.066	1	2
547.406	1	-8
547.746	1	-4
548.086	1	12
548.426	1	8
548.766	1	3
549.106	1	-10
549.446	1	6
549.786	1	2
550.126	1	8
550.466	1	-4
550.806	1	16
551.146	1	6
551.486	1	2
551.826	1	-3
552.166	1	3
552.506	1	-7
552.846	1	4
553.186	1	-6
553.526	1	4
553.866	1	2
554.206	1	12
554.546	1	3
554.886	1	0
555.226	1	-2
555.566	1	6
555.906	1	-5
556.246	1	-4
556.586	1	-3
556.926	1	-1
557.266	1	15
557.606	1	-8
557.946	1	7
558.286	1	-14
558.626	1	2
558.966	1	5
559.306	1	8
559.646	1	2
559.986	1	5
560.325	1	6
560.665	1	-2
561.005	1	0
561.345	1	2
561.685	1	4
562.025	1	8
562.365	1	0
562.705	1	11
563.045	1	2
563.385	1	5
563.725	1	0
564.064	1	-1
564.404	1	-3
564.744	1	10
565.084	1	7
565.424	1	-1
565.764	1	1
566.104	1	5
566.444	1	11
566.783	1	9
567.123	1	-1
567.463	1	8
567.803	1	4
568.143	1	-6
568.483	1	8
568.823	1	-1
569.162	1	2
569.502	1	9
569.842	1	-1
570.182	1	1
570.522	1	-3
570.862	1	0
571.201	1	19
571.541	1	3
571.881	1	-11
572.221	1	3
572.561	1	14
572.900	1	5
573.240	1	-1
573.580	1	4
573.920	1	14
574.260	1	2
574.599	1	9
574.939	1	7
575.279	1	4
575.619	1	4
575.959	1	-3
576.298	1	-13
576.638	1	4
576.978	1	6
577.318	1	4
577.657	1	-3
577.997	1	6
578.337	1	6
578.677	1	5
579.016	1	-1
579.356	1	3
579.696	1	-3
580.036	1	-4
580.375	1	7
580.715	1	0
581.055	1	-3
581.394	1	7
581.734	1	0
582.074	1	-7
582.414	1	2
582.753	1	-3
583.093	1	9
583.433	1	12
583.772	1	7
584.112	1	9
584.452	1	-1
584.791	1	8
585.131	1	0
585.471	1	2
585.811	1	1
586.150	1	13
586.490	1	9
586.830	1	3
587.169	1	8
587.509	1	-4
587.849	1	13
588.188	1	9
588.528	1	-3
588.867	1	8
589.207	1	7
589.547	1	5
589.886	1	9
590.226	1	-6
590.566	1	4
590.905	1	4
591.245	1	-6
591.585	1	-6
591.924	1	-7
592.264	1	0
592.603	1	-8
592.943	1	0
593.283	1	5
593.622	1	-5
593.962	1	0
594.301	1	-2
594.641	1	2
594.981	1	-1
595.320	1	10
595.660	1	7
595.999	1	1
596.339	1	3
596.678	1	-11
597.018	1	-4
597.358	1	1
597.697	1	-3
598.037	1	-5
598.376	1	-7
598.716	1	7
599.055	1	3
599.395	1	-1
599.734	1	5
600.074	1	-5
600.413	1	-7
600.753	1	1
601.092	1	-5
601.432	1	-8
601.771	1	6
602.111	1	5
602.451	1	-3
602.790	1	1
603.130	1	2
603.469	1	6
603.809	1	0
604.148	1	-6
604.487	1	-3
604.827	1	11
605.166	1	10
605.506	1	2
605.845	1	12
606.185	1	4
606.524	1	-9
606.864	1	7
607.203	1	7
607.543	1	9
607.882	1	3
608.222	1	0
608.561	1	-2
608.901	1	-5
609.240	1	8
609.579	1	0
609.919	1	-6
610.258	1	6
610.598	1	5
610.937	1	-3
611.277	1	-8
611.616	1	9
611.955	1	-2
612.295	1	11
612.634	1	7
612.974	1	2
613.313	1	6
613.652	1	7
613.992	1	1
614.331	1	9
614.671	1	-5
615.010	1	2
615.349	1	-3
615.689	1	-6
616.028	1	11
616.368	1	14
616.707	1	5
617.046	1	-3
617.386	1	3
617.725	1	-3
618.064	1	-2
618.404	1	1
618.743	1	4
619.082	1	10
619.422	1	13
619.761	1	-2
620.100	1	8
620.440	1	-7
620.779	1	11
621.118	1	11
621.458	1	2
621.797	1	6
622.136	1	-6
622.476	1	5
622.815	1	7
623.154	1	-5
623.494	1	-9
623.833	1	-3
624.172	1	-4
624.511	1	-6
624.851	1	-1
625.190	1	-2
625.529	1	0
625.869	1	9
626.208	1	-3
626.547	1	-7
626.886	1	-5
627.226	1	5
627.565	1	2
627.904	1	9
628.243	1	13
628.583	1	5
628.922	1	3
629.261	1	11
629.600	1	-6
629.940	1	2
630.279	1	10
630.618	1	1
630.957	1	9
631.297	1	2
631.636	1	3
631.975	1	-1
632.314	1	7
632.653	1	-3
632.993	1	3
633.332	1	6
633.671	1	9
634.010	1	0
634.349	1	4
634.689	1	-5
635.028	1	-5
635.367	1	12
635.706	1	5
636.045	1	-16
636.384	1	8
636.724	1	-3
637.063	1	-11
637.402	1	-1
637.741	1	-6
638.080	1	-1
638.419	1	-4
638.759	1	8
639.098	1	1
639.437	1	-2
639.776	1	1
640.115	1	-16
640.454	1	-6
640.793	1	3
641.132	1	1
641.472	1	12
641.811	1	-1
642.150	1	-8
642.489	1	9
642.828	1	0
643.167	1	5
643.506	1	4
643.845	1	12
644.184	1	8
644.524	1	-5
644.863	1	1
645.202	1	1
645.541	1	1
645.880	1	2
646.219	1	-2
646.558	1	-6
646.897	1	-15
647.236	1	-9
647.575	1	8
647.914	1	-1
648.253	1	8
648.592	1	5
648.931	1	6
649.270	1	4
649.610	1	5
649.949	1	2
650.288	1	2
650.627	1	-8
650.966	1	-4
651.305	1	-1
651.644	1	9
651.983	1	-2
652.322	1	-10
652.661	1	5
653.000	1	12
653.339	1	-7
653.678	1	-1
654.017	1	3
654.356	1	1
654.695	1	8
655.034	1	-11
655.373	1	8
655.712	1	5
656.051	1	-5
656.390	1	2
656.729	1	3
657.068	1	-1
657.406	1	1
657.745	1	17
658.084	1	2
658.423	1	5
658.762	1	-1
659.101	1	-4
659.440	1	-3
659.779	1	5
660.118	1	-3
660.457	1	-6
660.796	1	4
661.135	1	2
661.474	1	6
661.813	1	-9
662.152	1	0
662.491	1	-1
662.829	1	6
663.168	1	-4
663.507	1	0
663.846	1	-2
664.185	1	-4
664.524	1	13
664.863	1	-15
665.202	1	0
665.541	1	6
665.879	1	6
666.218	1	9
666.557	1	0
666.896	1	5
667.235	1	-3
667.574	1	-3
667.913	1	1
668.251	1	-14
668.590	1	2
668.929	1	-1
669.268	1	-9
669.607	1	-6
669.946	1	-2
670.285	1	-2
670.623	1	4
670.962	1	-2
671.301	1	-3
671.640	1	3
671.979	1	-9
672.317	1	-1
672.656	1	4
672.995	1	1
673.334	1	-4
673.673	1	6
674.011	1	9
674.350	1	-3
674.689	1	-1
675.028	1	1
675.367	1	-4
675.705	1	-3
676.044	1	-3
676.383	1	-8
676.722	1	9
677.060	1	9
677.399	1	6
677.738	1	3
678.077	1	-8
678.416	1	-8
678.754	1	5
679.093	1	6
679.432	1	-4
679.771	1	-2
680.109	1	-5
680.448	1	-2
680.787	1	-4
681.125	1	-3
681.464	1	0
681.803	1	5
682.142	1	2
682.480	1	-7
682.819	1	-10
683.158	1	-1
683.496	1	3
683.835	1	3
684.174	1	2
684.512	1	2
684.851	1	-6
685.190	1	-8
685.529	1	-6
685.867	1	-2
686.206	1	-5
686.545	1	5
686.883	1	8
687.222	1	1
687.561	1	-2
687.899	1	3
688.238	1	7
688.577	1	7
688.746	1	-5