File: Data/GaN_150K_450ms/GaN_sample D_spot15_UVVIS_150 K_200um_450 ms 2x2mm1_249.txt
340.368	1	5
340.710	1	5
341.052	1	4
341.394	1	-5
341.737	1	3
342.079	1	-1
342.421	1	3
342.763	1	5
343.105	1	4
343.447	1	5
343.789	1	9
344.131	1	2
344.473	1	-3
344.815	1	14
345.157	1	9
345.499	1	0
345.841	1	6
346.183	1	1
346.526	1	5
346.868	1	2
347.210	1	1
347.552	1	15
347.894	1	3
348.236	1	-5
348.578	1	5
348.920	1	7
349.262	1	12
349.604	1	-1
349.946	1	-1
350.288	1	-5
350.630	1	-8
350.972	1	13
351.314	1	-3
351.656	1	5
351.998	1	7
352.340	1	3
352.682	1	-14
353.024	1	16
353.366	1	12
353.708	1	0
354.050	1	-6
354.392	1	-6
354.734	1	-1
355.076	1	19
355.418	1	-2
355.760	1	4
356.102	1	3
356.444	1	11
356.785	1	5
357.127	1	2
357.469	1	9
357.811	1	0
358.153	1	-7
358.495	1	2
358.837	1	6
359.179	1	6
359.521	1	16
359.863	1	-4
360.205	1	9
360.547	1	8
360.889	1	-4
361.231	1	11
361.572	1	7
361.914	1	3
362.256	1	10
362.598	1	9
362.940	1	11
363.282	1	-5
363.624	1	3
363.966	1	3
364.308	1	9
364.649	1	12
364.991	1	20
365.333	1	15
365.675	1	21
366.017	1	16
366.359	1	7
366.701	1	16
367.042	1	11
367.384	1	1
367.726	1	6
368.068	1	18
368.410	1	24
368.752	1	34
369.093	1	13
369.435	1	12
369.777	1	20
370.119	1	24
370.461	1	5
370.803	1	17
371.144	1	2
371.486	1	14
371.828	1	12
372.170	1	6
372.512	1	4
372.853	1	16
373.195	1	15
373.537	1	-10
373.879	1	-2
374.220	1	6
374.562	1	13
374.904	1	5
375.246	1	9
375.588	1	-2
375.929	1	6
376.271	1	4
376.613	1	10
376.955	1	8
377.296	1	12
377.638	1	16
377.980	1	9
378.321	1	3
378.663	1	11
379.005	1	6
379.347	1	3
379.688	1	13
380.030	1	10
380.372	1	21
380.714	1	7
381.055	1	5
381.397	1	4
381.739	1	0
382.080	1	1
382.422	1	9
382.764	1	5
383.105	1	5
383.447	1	8
383.789	1	-4
384.130	1	3
384.472	1	-5
384.814	1	11
385.156	1	9
385.497	1	10
385.839	1	3
386.180	1	3
386.522	1	7
386.864	1	-1
387.205	1	3
387.547	1	11
387.889	1	0
388.230	1	2
388.572	1	-6
388.914	1	12
389.255	1	11
389.597	1	12
389.939	1	10
390.280	1	1
390.622	1	-2
390.963	1	-6
391.305	1	-2
391.647	1	-3
391.988	1	-2
392.330	1	7
392.671	1	4
393.013	1	6
393.355	1	8
393.696	1	6
394.038	1	2
394.379	1	10
394.721	1	1
395.062	1	-7
395.404	1	6
395.746	1	-1
396.087	1	12
396.429	1	1
396.770	1	-4
397.112	1	4
397.453	1	3
397.795	1	4
398.136	1	4
398.478	1	5
398.819	1	4
399.161	1	1
399.503	1	13
399.844	1	-4
400.186	1	4
400.527	1	9
400.869	1	3
401.210	1	5
401.552	1	-2
401.893	1	-2
402.235	1	7
402.576	1	9
402.918	1	-4
403.259	1	4
403.601	1	6
403.942	1	-7
404.284	1	12
404.625	1	0
404.967	1	3
405.308	1	-4
405.649	1	-5
405.991	1	1
406.332	1	-4
406.674	1	6
407.015	1	17
407.357	1	6
407.698	1	8
408.040	1	18
408.381	1	1
408.722	1	3
409.064	1	10
409.405	1	5
409.747	1	-5
410.088	1	16
410.430	1	1
410.771	1	13
411.112	1	2
411.454	1	1
411.795	1	4
412.137	1	-4
412.478	1	6
412.819	1	10
413.161	1	7
413.502	1	7
413.844	1	16
414.185	1	-3
414.526	1	1
414.868	1	-4
415.209	1	-1
415.550	1	7
415.892	1	9
416.233	1	2
416.575	1	-2
416.916	1	0
417.257	1	1
417.599	1	4
417.940	1	-12
418.281	1	17
418.623	1	1
418.964	1	13
419.305	1	8
419.647	1	3
419.988	1	10
420.329	1	4
420.671	1	17
421.012	1	-3
421.353	1	8
421.695	1	6
422.036	1	4
422.377	1	-6
422.718	1	4
423.060	1	3
423.401	1	-1
423.742	1	16
424.084	1	1
424.425	1	18
424.766	1	1
425.107	1	1
425.449	1	0
425.790	1	7
426.131	1	0
426.472	1	13
426.814	1	-1
427.155	1	-1
427.496	1	2
427.837	1	2
428.179	1	14
428.520	1	3
428.861	1	7
429.202	1	-3
429.544	1	-5
429.885	1	8
430.226	1	-9
430.567	1	-9
430.909	1	6
431.250	1	8
431.591	1	17
431.932	1	2
432.273	1	7
432.615	1	-1
432.956	1	9
433.297	1	3
433.638	1	9
433.979	1	14
434.320	1	-4
434.662	1	10
435.003	1	11
435.344	1	5
435.685	1	2
436.026	1	-5
436.368	1	-5
436.709	1	-10
437.050	1	-2
437.391	1	-2
437.732	1	5
438.073	1	0
438.414	1	8
438.756	1	-2
439.097	1	8
439.438	1	6
439.779	1	9
440.120	1	1
440.461	1	2
440.802	1	-2
441.143	1	6
441.485	1	6
441.826	1	5
442.167	1	5
442.508	1	3
442.849	1	-1
443.190	1	6
443.531	1	0
443.872	1	1
444.213	1	-10
444.554	1	11
444.895	1	-1
445.237	1	10
445.578	1	4
445.919	1	4
446.260	1	10
446.601	1	-1
446.942	1	-9
447.283	1	10
447.624	1	-2
447.965	1	-3
448.306	1	3
448.647	1	0
448.988	1	6
449.329	1	2
449.670	1	0
450.011	1	3
450.352	1	5
450.693	1	10
451.034	1	0
451.375	1	-2
451.716	1	4
452.057	1	3
452.398	1	7
452.739	1	6
453.080	1	4
453.421	1	11
453.762	1	6
454.103	1	-1
454.444	1	2
454.785	1	4
455.126	1	-4
455.467	1	9
455.808	1	0
456.149	1	4
456.490	1	2
456.831	1	0
457.172	1	3
457.513	1	5
457.854	1	5
458.195	1	-1
458.536	1	11
458.877	1	1
459.218	1	11
459.559	1	6
459.899	1	4
460.240	1	3
460.581	1	-8
460.922	1	4
461.263	1	4
461.604	1	5
461.945	1	6
462.286	1	5
462.627	1	0
462.968	1	16
463.309	1	13
463.649	1	-5
463.990	1	3
464.331	1	4
464.672	1	6
465.013	1	2
465.354	1	2
465.695	1	0
466.036	1	10
466.376	1	16
466.717	1	-1
467.058	1	10
467.399	1	3
467.740	1	16
468.081	1	1
468.422	1	10
468.762	1	4
469.103	1	5
469.444	1	-6
469.785	1	-3
470.126	1	8
470.467	1	-1
470.807	1	4
471.148	1	-1
471.489	1	14
471.830	1	5
472.171	1	1
472.511	1	11
472.852	1	8
473.193	1	1
473.534	1	6
473.875	1	-3
474.215	1	3
474.556	1	-5
474.897	1	-3
475.238	1	3
475.578	1	3
475.919	1	-2
476.260	1	-7
476.601	1	3
476.942	1	5
477.282	1	-2
477.623	1	3
477.964	1	0
478.305	1	3
478.645	1	-2
478.986	1	-2
479.327	1	14
479.667	1	7
480.008	1	5
480.349	1	3
480.690	1	2
481.030	1	-6
481.371	1	-1
481.712	1	11
482.053	1	9
482.393	1	1
482.734	1	9
483.075	1	-1
483.415	1	3
483.756	1	12
484.097	1	-1
484.437	1	3
484.778	1	4
485.119	1	-3
485.459	1	-9
485.800	1	-4
486.141	1	-1
486.481	1	-7
486.822	1	6
487.163	1	-3
487.503	1	4
487.844	1	-6
488.185	1	7
488.525	1	-9
488.866	1	6
489.207	1	3
489.547	1	7
489.888	1	6
490.228	1	-2
490.569	1	3
490.910	1	-1
491.250	1	9
491.591	1	3
491.932	1	10
492.272	1	-9
492.613	1	-7
492.953	1	5
493.294	1	-3
493.635	1	6
493.975	1	8
494.316	1	2
494.656	1	2
494.997	1	-7
495.337	1	1
495.678	1	0
496.019	1	5
496.359	1	-14
496.700	1	2
497.040	1	-6
497.381	1	2
497.721	1	-4
498.062	1	-1
498.403	1	4
498.743	1	0
499.084	1	6
499.424	1	2
499.765	1	3
500.105	1	13
500.446	1	-2
500.786	1	3
501.127	1	7
501.467	1	10
501.808	1	1
502.148	1	-1
502.489	1	-4
502.829	1	-4
503.170	1	3
503.510	1	6
503.851	1	7
504.191	1	-5
504.532	1	20
504.872	1	-5
505.213	1	-4
505.553	1	3
505.894	1	-4
506.234	1	8
506.575	1	12
506.915	1	4
507.256	1	-1
507.596	1	10
507.936	1	10
508.277	1	4
508.617	1	2
508.958	1	9
509.298	1	0
509.639	1	-1
509.979	1	2
510.319	1	5
510.660	1	9
511.000	1	4
511.341	1	8
511.681	1	6
512.022	1	0
512.362	1	14
512.702	1	-4
513.043	1	6
513.383	1	2
513.724	1	-4
514.064	1	1
514.404	1	11
514.745	1	6
515.085	1	7
515.425	1	13
515.766	1	1
516.106	1	2
516.447	1	7
516.787	1	2
517.127	1	14
517.468	1	10
517.808	1	-11
518.148	1	15
518.489	1	5
518.829	1	17
519.169	1	-2
519.510	1	-6
519.850	1	1
520.190	1	3
520.531	1	9
520.871	1	1
521.211	1	13
521.552	1	-3
521.892	1	7
522.232	1	3
522.573	1	4
522.913	1	10
523.253	1	6
523.593	1	6
523.934	1	1
524.274	1	10
524.614	1	5
524.955	1	0
525.295	1	5
525.635	1	7
525.975	1	0
526.316	1	-7
526.656	1	7
526.996	1	-1
527.337	1	2
527.677	1	12
528.017	1	-3
528.357	1	5
528.698	1	21
529.038	1	5
529.378	1	7
529.718	1	-5
530.058	1	6
530.399	1	6
530.739	1	12
531.079	1	-2
531.419	1	-3
531.760	1	11
532.100	1	11
532.440	1	2
532.780	1	3
533.120	1	-1
533.461	1	-1
533.801	1	7
534.141	1	12
534.481	1	18
534.821	1	5
535.162	1	2
535.502	1	4
535.842	1	0
536.182	1	-1
536.522	1	0
536.862	1	-6
537.203	1	-2
537.543	1	2
537.883	1	6
538.223	1	9
538.563	1	-2
538.903	1	-1
539.243	1	4
539.584	1	4
539.924	1	2
540.264	1	10
540.604	1	13
540.944	1	7
541.284	1	1
541.624	1	11
541.964	1	2
542.305	1	9
542.645	1	2
542.985	1	6
543.325	1	13
543.665	1	-3
544.005	1	4
544.345	1	11
544.685	1	5
545.025	1	14
545.365	1	5
545.705	1	-2
546.045	1	11
546.386	1	-2
546.726	1	5
547.066	1	5
547.406	1	0
547.746	1	2
548.086	1	7
548.426	1	3
548.766	1	2
549.106	1	-4
549.446	1	9
549.786	1	6
550.126	1	1
550.466	1	4
550.806	1	17
551.146	1	5
551.486	1	-2
551.826	1	-10
552.166	1	0
552.506	1	3
552.846	1	8
553.186	1	-2
553.526	1	12
553.866	1	-1
554.206	1	16
554.546	1	9
554.886	1	-1
555.226	1	6
555.566	1	1
555.906	1	-10
556.246	1	7
556.586	1	1
556.926	1	-2
557.266	1	4
557.606	1	-2
557.946	1	10
558.286	1	-6
558.626	1	3
558.966	1	2
559.306	1	15
559.646	1	12
559.986	1	10
560.325	1	1
560.665	1	5
561.005	1	5
561.345	1	2
561.685	1	7
562.025	1	2
562.365	1	0
562.705	1	5
563.045	1	8
563.385	1	11
563.725	1	3
564.064	1	-1
564.404	1	-2
564.744	1	8
565.084	1	1
565.424	1	-1
565.764	1	0
566.104	1	6
566.444	1	15
566.783	1	3
567.123	1	9
567.463	1	-4
567.803	1	9
568.143	1	8
568.483	1	10
568.823	1	-4
569.162	1	-1
569.502	1	5
569.842	1	1
570.182	1	-12
570.522	1	4
570.862	1	-4
571.201	1	1
571.541	1	3
571.881	1	5
572.221	1	10
572.561	1	10
572.900	1	-4
573.240	1	-7
573.580	1	-3
573.920	1	8
574.260	1	6
574.599	1	12
574.939	1	4
575.279	1	3
575.619	1	-1
575.959	1	-5
576.298	1	-9
576.638	1	15
576.978	1	6
577.318	1	-3
577.657	1	-3
577.997	1	6
578.337	1	1
578.677	1	2
579.016	1	3
579.356	1	6
579.696	1	7
580.036	1	14
580.375	1	3
580.715	1	6
581.055	1	-2
581.394	1	0
581.734	1	1
582.074	1	1
582.414	1	11
582.753	1	-1
583.093	1	10
583.433	1	2
583.772	1	13
584.112	1	5
584.452	1	8
584.791	1	11
585.131	1	3
585.471	1	7
585.811	1	-2
586.150	1	2
586.490	1	1
586.830	1	7
587.169	1	1
587.509	1	-4
587.849	1	7
588.188	1	0
588.528	1	-4
588.867	1	4
589.207	1	-5
589.547	1	9
589.886	1	4
590.226	1	7
590.566	1	-8
590.905	1	0
591.245	1	-5
591.585	1	0
591.924	1	-6
592.264	1	-3
592.603	1	-16
592.943	1	-3
593.283	1	11
593.622	1	5
593.962	1	20
594.301	1	0
594.641	1	-5
594.981	1	8
595.320	1	13
595.660	1	7
595.999	1	3
596.339	1	7
596.678	1	-5
597.018	1	-3
597.358	1	-3
597.697	1	-4
598.037	1	2
598.376	1	-5
598.716	1	2
599.055	1	9
599.395	1	-4
599.734	1	-3
600.074	1	-5
600.413	1	-2
600.753	1	10
601.092	1	-4
601.432	1	-9
601.771	1	0
602.111	1	-2
602.451	1	-2
602.790	1	4
603.130	1	-1
603.469	1	4
603.809	1	6
604.148	1	-1
604.487	1	1
604.827	1	7
605.166	1	-2
605.506	1	-2
605.845	1	12
606.185	1	2
606.524	1	-5
606.864	1	10
607.203	1	3
607.543	1	13
607.882	1	2
608.222	1	-2
608.561	1	-1
608.901	1	9
609.240	1	3
609.579	1	0
609.919	1	-7
610.258	1	5
610.598	1	0
610.937	1	-7
611.277	1	4
611.616	1	13
611.955	1	-1
612.295	1	9
612.634	1	5
612.974	1	10
613.313	1	0
613.652	1	8
613.992	1	1
614.331	1	11
614.671	1	3
615.010	1	8
615.349	1	-1
615.689	1	3
616.028	1	21
616.368	1	10
616.707	1	6
617.046	1	3
617.386	1	16
617.725	1	2
618.064	1	-8
618.404	1	-4
618.743	1	6
619.082	1	12
619.422	1	11
619.761	1	-5
620.100	1	9
620.440	1	7
620.779	1	10
621.118	1	15
621.458	1	-1
621.797	1	8
622.136	1	-7
622.476	1	13
622.815	1	4
623.154	1	-2
623.494	1	-7
623.833	1	3
624.172	1	2
624.511	1	2
624.851	1	-3
625.190	1	-1
625.529	1	-9
625.869	1	10
626.208	1	3
626.547	1	2
626.886	1	7
627.226	1	7
627.565	1	2
627.904	1	9
628.243	1	11
628.583	1	4
628.922	1	2
629.261	1	2
629.600	1	0
629.940	1	2
630.279	1	6
630.618	1	8
630.957	1	7
631.297	1	14
631.636	1	7
631.975	1	-2
632.314	1	9
632.653	1	-2
632.993	1	2
633.332	1	0
633.671	1	13
634.010	1	7
634.349	1	13
634.689	1	-1
635.028	1	4
635.367	1	19
635.706	1	-6
636.045	1	-2
636.384	1	6
636.724	1	-3
637.063	1	-9
637.402	1	3
637.741	1	-1
638.080	1	1
638.419	1	-3
638.759	1	2
639.098	1	1
639.437	1	7
639.776	1	4
640.115	1	-3
640.454	1	-8
640.793	1	3
641.132	1	4
641.472	1	5
641.811	1	-10
642.150	1	3
642.489	1	8
642.828	1	8
643.167	1	3
643.506	1	1
643.845	1	8
644.184	1	13
644.524	1	11
644.863	1	4
645.202	1	-1
645.541	1	0
645.880	1	6
646.219	1	6
646.558	1	-5
646.897	1	-7
647.236	1	-7
647.575	1	4
647.914	1	-2
648.253	1	5
648.592	1	3
648.931	1	5
649.270	1	14
649.610	1	4
649.949	1	-5
650.288	1	3
650.627	1	0
650.966	1	7
651.305	1	7
651.644	1	5
651.983	1	-5
652.322	1	9
652.661	1	10
653.000	1	6
653.339	1	-1
653.678	1	3
654.017	1	9
654.356	1	6
654.695	1	20
655.034	1	1
655.373	1	-4
655.712	1	8
656.051	1	4
656.390	1	0
656.729	1	16
657.068	1	-1
657.406	1	6
657.745	1	9
658.084	1	2
658.423	1	3
658.762	1	-8
659.101	1	-1
659.440	1	3
659.779	1	9
660.118	1	11
660.457	1	0
660.796	1	11
661.135	1	8
661.474	1	2
661.813	1	2
662.152	1	-2
662.491	1	-12
662.829	1	5
663.168	1	2
663.507	1	2
663.846	1	4
664.185	1	1
664.524	1	8
664.863	1	-6
665.202	1	13
665.541	1	-2
665.879	1	0
666.218	1	0
666.557	1	6
666.896	1	2
667.235	1	-8
667.574	1	1
667.913	1	4
668.251	1	-10
668.590	1	8
668.929	1	2
669.268	1	-1
669.607	1	-3
669.946	1	7
670.285	1	5
670.623	1	1
670.962	1	-2
671.301	1	-5
671.640	1	6
671.979	1	-4
672.317	1	8
672.656	1	-1
672.995	1	9
673.334	1	-5
673.673	1	11
674.011	1	11
674.350	1	-3
674.689	1	-10
675.028	1	2
675.367	1	-2
675.705	1	-5
676.044	1	-2
676.383	1	-1
676.722	1	14
677.060	1	7
677.399	1	18
677.738	1	-4
678.077	1	7
678.416	1	1
678.754	1	3
679.093	1	8
679.432	1	-11
679.771	1	-1
680.109	1	0
680.448	1	1
680.787	1	-5
681.125	1	-1
681.464	1	6
681.803	1	-8
682.142	1	3
682.480	1	-9
682.819	1	4
683.158	1	0
683.496	1	-13
683.835	1	5
684.174	1	4
684.512	1	-6
684.851	1	-5
685.190	1	9
685.529	1	-1
685.867	1	-2
686.206	1	-8
686.545	1	-3
686.883	1	6
687.222	1	-1
687.561	1	-1
687.899	1	1
688.238	1	9
688.577	1	0
688.746	1	0