File: Data/GaN_150K_450ms/GaN_sample D_spot15_UVVIS_150 K_200um_450 ms 2x2mm1_308.txt
340.368	1	-7
340.710	1	5
341.052	1	10
341.394	1	-10
341.737	1	2
342.079	1	0
342.421	1	-3
342.763	1	8
343.105	1	9
343.447	1	5
343.789	1	9
344.131	1	-11
344.473	1	-2
344.815	1	13
345.157	1	11
345.499	1	4
345.841	1	5
346.183	1	3
346.526	1	5
346.868	1	-1
347.210	1	0
347.552	1	13
347.894	1	3
348.236	1	4
348.578	1	4
348.920	1	4
349.262	1	0
349.604	1	5
349.946	1	1
350.288	1	-5
350.630	1	-2
350.972	1	11
351.314	1	-4
351.656	1	-9
351.998	1	-8
352.340	1	-1
352.682	1	-16
353.024	1	9
353.366	1	8
353.708	1	0
354.050	1	-9
354.392	1	-9
354.734	1	1
355.076	1	14
355.418	1	4
355.760	1	10
356.102	1	2
356.444	1	-3
356.785	1	3
357.127	1	5
357.469	1	2
357.811	1	0
358.153	1	-6
358.495	1	2
358.837	1	7
359.179	1	4
359.521	1	9
359.863	1	1
360.205	1	9
360.547	1	10
360.889	1	1
361.231	1	7
361.572	1	8
361.914	1	9
362.256	1	10
362.598	1	7
362.940	1	2
363.282	1	3
363.624	1	5
363.966	1	7
364.308	1	6
364.649	1	2
364.991	1	11
365.333	1	13
365.675	1	7
366.017	1	11
366.359	1	1
366.701	1	5
367.042	1	7
367.384	1	0
367.726	1	9
368.068	1	14
368.410	1	12
368.752	1	19
369.093	1	6
369.435	1	16
369.777	1	14
370.119	1	9
370.461	1	7
370.803	1	7
371.144	1	10
371.486	1	12
371.828	1	7
372.170	1	9
372.512	1	4
372.853	1	15
373.195	1	8
373.537	1	-9
373.879	1	7
374.220	1	11
374.562	1	18
374.904	1	4
375.246	1	-2
375.588	1	-3
375.929	1	6
376.271	1	7
376.613	1	6
376.955	1	-2
377.296	1	10
377.638	1	-4
377.980	1	-2
378.321	1	2
378.663	1	-5
379.005	1	-7
379.347	1	6
379.688	1	14
380.030	1	8
380.372	1	8
380.714	1	8
381.055	1	2
381.397	1	5
381.739	1	-5
382.080	1	-7
382.422	1	7
382.764	1	-1
383.105	1	0
383.447	1	2
383.789	1	-4
384.130	1	-3
384.472	1	-6
384.814	1	11
385.156	1	2
385.497	1	9
385.839	1	11
386.180	1	-2
386.522	1	3
386.864	1	-4
387.205	1	12
387.547	1	1
387.889	1	-6
388.230	1	8
388.572	1	1
388.914	1	4
389.255	1	0
389.597	1	-2
389.939	1	8
390.280	1	-1
390.622	1	0
390.963	1	1
391.305	1	-12
391.647	1	-2
391.988	1	3
392.330	1	6
392.671	1	5
393.013	1	7
393.355	1	7
393.696	1	10
394.038	1	8
394.379	1	2
394.721	1	-3
395.062	1	-11
395.404	1	-1
395.746	1	0
396.087	1	11
396.429	1	0
396.770	1	6
397.112	1	0
397.453	1	2
397.795	1	-6
398.136	1	-1
398.478	1	2
398.819	1	7
399.161	1	5
399.503	1	4
399.844	1	-2
400.186	1	-4
400.527	1	9
400.869	1	0
401.210	1	10
401.552	1	-2
401.893	1	8
402.235	1	10
402.576	1	2
402.918	1	-5
403.259	1	10
403.601	1	11
403.942	1	-1
404.284	1	9
404.625	1	-11
404.967	1	3
405.308	1	-11
405.649	1	-2
405.991	1	-1
406.332	1	6
406.674	1	3
407.015	1	3
407.357	1	2
407.698	1	7
408.040	1	12
408.381	1	-7
408.722	1	9
409.064	1	5
409.405	1	4
409.747	1	-2
410.088	1	-1
410.430	1	13
410.771	1	2
411.112	1	1
411.454	1	6
411.795	1	-4
412.137	1	3
412.478	1	1
412.819	1	7
413.161	1	8
413.502	1	0
413.844	1	11
414.185	1	10
414.526	1	-6
414.868	1	-2
415.209	1	-4
415.550	1	-1
415.892	1	-3
416.233	1	0
416.575	1	-2
416.916	1	3
417.257	1	3
417.599	1	9
417.940	1	-4
418.281	1	7
418.623	1	-4
418.964	1	11
419.305	1	9
419.647	1	3
419.988	1	19
420.329	1	2
420.671	1	4
421.012	1	-7
421.353	1	12
421.695	1	13
422.036	1	2
422.377	1	-1
422.718	1	9
423.060	1	5
423.401	1	2
423.742	1	7
424.084	1	3
424.425	1	5
424.766	1	5
425.107	1	11
425.449	1	-2
425.790	1	3
426.131	1	-5
426.472	1	8
426.814	1	2
427.155	1	5
427.496	1	4
427.837	1	-2
428.179	1	14
428.520	1	6
428.861	1	3
429.202	1	-5
429.544	1	0
429.885	1	6
430.226	1	-4
430.567	1	-3
430.909	1	-5
431.250	1	6
431.591	1	10
431.932	1	1
432.273	1	16
432.615	1	1
432.956	1	-5
433.297	1	-1
433.638	1	1
433.979	1	2
434.320	1	14
434.662	1	12
435.003	1	16
435.344	1	-4
435.685	1	-10
436.026	1	-6
436.368	1	-10
436.709	1	-6
437.050	1	0
437.391	1	6
437.732	1	10
438.073	1	-5
438.414	1	-5
438.756	1	1
439.097	1	6
439.438	1	0
439.779	1	5
440.120	1	6
440.461	1	10
440.802	1	0
441.143	1	1
441.485	1	-1
441.826	1	6
442.167	1	0
442.508	1	1
442.849	1	1
443.190	1	-1
443.531	1	-2
443.872	1	1
444.213	1	-5
444.554	1	12
444.895	1	-7
445.237	1	0
445.578	1	-3
445.919	1	2
446.260	1	4
446.601	1	2
446.942	1	5
447.283	1	8
447.624	1	-1
447.965	1	5
448.306	1	4
448.647	1	4
448.988	1	7
449.329	1	5
449.670	1	-4
450.011	1	3
450.352	1	-1
450.693	1	2
451.034	1	1
451.375	1	-5
451.716	1	0
452.057	1	-5
452.398	1	5
452.739	1	2
453.080	1	1
453.421	1	15
453.762	1	-4
454.103	1	5
454.444	1	4
454.785	1	2
455.126	1	1
455.467	1	3
455.808	1	12
456.149	1	-2
456.490	1	1
456.831	1	1
457.172	1	9
457.513	1	-5
457.854	1	0
458.195	1	-2
458.536	1	6
458.877	1	-1
459.218	1	6
459.559	1	10
459.899	1	0
460.240	1	-1
460.581	1	1
460.922	1	0
461.263	1	6
461.604	1	2
461.945	1	7
462.286	1	-2
462.627	1	6
462.968	1	2
463.309	1	-1
463.649	1	-6
463.990	1	1
464.331	1	1
464.672	1	-1
465.013	1	5
465.354	1	1
465.695	1	7
466.036	1	2
466.376	1	10
466.717	1	-5
467.058	1	-2
467.399	1	-1
467.740	1	5
468.081	1	5
468.422	1	6
468.762	1	0
469.103	1	2
469.444	1	14
469.785	1	-6
470.126	1	9
470.467	1	8
470.807	1	6
471.148	1	1
471.489	1	7
471.830	1	7
472.171	1	10
472.511	1	6
472.852	1	1
473.193	1	6
473.534	1	6
473.875	1	-7
474.215	1	12
474.556	1	-6
474.897	1	-6
475.238	1	4
475.578	1	-1
475.919	1	-4
476.260	1	-5
476.601	1	2
476.942	1	4
477.282	1	-5
477.623	1	3
477.964	1	3
478.305	1	8
478.645	1	10
478.986	1	-1
479.327	1	5
479.667	1	-6
480.008	1	-2
480.349	1	2
480.690	1	10
481.030	1	-6
481.371	1	-9
481.712	1	15
482.053	1	13
482.393	1	-2
482.734	1	2
483.075	1	1
483.415	1	5
483.756	1	0
484.097	1	1
484.437	1	11
484.778	1	1
485.119	1	0
485.459	1	-7
485.800	1	-10
486.141	1	6
486.481	1	-8
486.822	1	10
487.163	1	6
487.503	1	2
487.844	1	-7
488.185	1	-3
488.525	1	-5
488.866	1	-5
489.207	1	-1
489.547	1	5
489.888	1	3
490.228	1	6
490.569	1	-5
490.910	1	8
491.250	1	-4
491.591	1	-2
491.932	1	9
492.272	1	-2
492.613	1	-8
492.953	1	-4
493.294	1	-8
493.635	1	2
493.975	1	12
494.316	1	-2
494.656	1	2
494.997	1	-5
495.337	1	-1
495.678	1	-7
496.019	1	1
496.359	1	-1
496.700	1	-3
497.040	1	-6
497.381	1	7
497.721	1	-20
498.062	1	0
498.403	1	4
498.743	1	4
499.084	1	12
499.424	1	-5
499.765	1	5
500.105	1	11
500.446	1	-2
500.786	1	-3
501.127	1	7
501.467	1	11
501.808	1	4
502.148	1	6
502.489	1	6
502.829	1	2
503.170	1	-1
503.510	1	-12
503.851	1	1
504.191	1	-4
504.532	1	13
504.872	1	-8
505.213	1	-7
505.553	1	-2
505.894	1	8
506.234	1	9
506.575	1	3
506.915	1	6
507.256	1	7
507.596	1	7
507.936	1	19
508.277	1	9
508.617	1	0
508.958	1	1
509.298	1	-7
509.639	1	-7
509.979	1	-7
510.319	1	6
510.660	1	-5
511.000	1	3
511.341	1	12
511.681	1	5
512.022	1	-8
512.362	1	8
512.702	1	-12
513.043	1	10
513.383	1	12
513.724	1	5
514.064	1	5
514.404	1	-1
514.745	1	7
515.085	1	7
515.425	1	1
515.766	1	0
516.106	1	-10
516.447	1	4
516.787	1	6
517.127	1	10
517.468	1	17
517.808	1	-2
518.148	1	10
518.489	1	-3
518.829	1	4
519.169	1	-7
519.510	1	-5
519.850	1	-1
520.190	1	2
520.531	1	1
520.871	1	7
521.211	1	7
521.552	1	-4
521.892	1	1
522.232	1	3
522.573	1	4
522.913	1	8
523.253	1	4
523.593	1	11
523.934	1	5
524.274	1	4
524.614	1	13
524.955	1	0
525.295	1	9
525.635	1	0
525.975	1	0
526.316	1	-7
526.656	1	3
526.996	1	-2
527.337	1	3
527.677	1	10
528.017	1	-2
528.357	1	11
528.698	1	7
529.038	1	8
529.378	1	-8
529.718	1	3
530.058	1	-6
530.399	1	3
530.739	1	5
531.079	1	-2
531.419	1	4
531.760	1	5
532.100	1	8
532.440	1	0
532.780	1	4
533.120	1	0
533.461	1	0
533.801	1	1
534.141	1	0
534.481	1	12
534.821	1	5
535.162	1	8
535.502	1	5
535.842	1	1
536.182	1	0
536.522	1	-2
536.862	1	-4
537.203	1	-2
537.543	1	-1
537.883	1	-3
538.223	1	13
538.563	1	0
538.903	1	-4
539.243	1	-5
539.584	1	7
539.924	1	0
540.264	1	19
540.604	1	14
540.944	1	3
541.284	1	-1
541.624	1	2
541.964	1	-1
542.305	1	12
542.645	1	-5
542.985	1	-2
543.325	1	1
543.665	1	-2
544.005	1	5
544.345	1	4
544.685	1	-5
545.025	1	10
545.365	1	14
545.705	1	1
546.045	1	14
546.386	1	-2
546.726	1	-4
547.066	1	-5
547.406	1	-2
547.746	1	2
548.086	1	7
548.426	1	5
548.766	1	5
549.106	1	-1
549.446	1	7
549.786	1	4
550.126	1	7
550.466	1	4
550.806	1	11
551.146	1	2
551.486	1	0
551.826	1	0
552.166	1	2
552.506	1	-6
552.846	1	5
553.186	1	-12
553.526	1	2
553.866	1	3
554.206	1	5
554.546	1	3
554.886	1	-4
555.226	1	1
555.566	1	8
555.906	1	-6
556.246	1	7
556.586	1	-2
556.926	1	3
557.266	1	5
557.606	1	-2
557.946	1	11
558.286	1	-4
558.626	1	7
558.966	1	-2
559.306	1	14
559.646	1	7
559.986	1	3
560.325	1	5
560.665	1	-4
561.005	1	-1
561.345	1	-3
561.685	1	6
562.025	1	9
562.365	1	7
562.705	1	6
563.045	1	7
563.385	1	12
563.725	1	-1
564.064	1	-1
564.404	1	-6
564.744	1	22
565.084	1	1
565.424	1	-7
565.764	1	2
566.104	1	1
566.444	1	2
566.783	1	7
567.123	1	3
567.463	1	4
567.803	1	0
568.143	1	3
568.483	1	13
568.823	1	4
569.162	1	-9
569.502	1	7
569.842	1	-1
570.182	1	-8
570.522	1	-2
570.862	1	-14
571.201	1	10
571.541	1	0
571.881	1	-2
572.221	1	-2
572.561	1	4
572.900	1	4
573.240	1	-5
573.580	1	11
573.920	1	14
574.260	1	6
574.599	1	2
574.939	1	0
575.279	1	-1
575.619	1	-8
575.959	1	-10
576.298	1	-6
576.638	1	3
576.978	1	9
577.318	1	8
577.657	1	0
577.997	1	-1
578.337	1	-5
578.677	1	7
579.016	1	2
579.356	1	-2
579.696	1	7
580.036	1	2
580.375	1	-7
580.715	1	6
581.055	1	6
581.394	1	-4
581.734	1	5
582.074	1	8
582.414	1	1
582.753	1	-6
583.093	1	10
583.433	1	12
583.772	1	16
584.112	1	9
584.452	1	2
584.791	1	5
585.131	1	3
585.471	1	-5
585.811	1	-4
586.150	1	6
586.490	1	-1
586.830	1	10
587.169	1	4
587.509	1	5
587.849	1	12
588.188	1	11
588.528	1	-6
588.867	1	-4
589.207	1	4
589.547	1	10
589.886	1	15
590.226	1	3
590.566	1	5
590.905	1	-3
591.245	1	-5
591.585	1	-2
591.924	1	-6
592.264	1	0
592.603	1	-10
592.943	1	5
593.283	1	-3
593.622	1	-4
593.962	1	-2
594.301	1	-3
594.641	1	3
594.981	1	6
595.320	1	9
595.660	1	4
595.999	1	9
596.339	1	-6
596.678	1	2
597.018	1	4
597.358	1	2
597.697	1	-2
598.037	1	2
598.376	1	-9
598.716	1	-1
599.055	1	3
599.395	1	5
599.734	1	-2
600.074	1	-6
600.413	1	6
600.753	1	4
601.092	1	-4
601.432	1	0
601.771	1	0
602.111	1	-3
602.451	1	-6
602.790	1	6
603.130	1	4
603.469	1	6
603.809	1	6
604.148	1	2
604.487	1	0
604.827	1	1
605.166	1	-1
605.506	1	-1
605.845	1	-1
606.185	1	-6
606.524	1	-9
606.864	1	10
607.203	1	2
607.543	1	9
607.882	1	11
608.222	1	8
608.561	1	-7
608.901	1	13
609.240	1	6
609.579	1	-7
609.919	1	-9
610.258	1	11
610.598	1	-8
610.937	1	0
611.277	1	1
611.616	1	13
611.955	1	-3
612.295	1	3
612.634	1	1
612.974	1	0
613.313	1	8
613.652	1	11
613.992	1	6
614.331	1	9
614.671	1	5
615.010	1	5
615.349	1	-2
615.689	1	-2
616.028	1	18
616.368	1	3
616.707	1	5
617.046	1	-4
617.386	1	6
617.725	1	-7
618.064	1	-4
618.404	1	-11
618.743	1	7
619.082	1	4
619.422	1	18
619.761	1	4
620.100	1	8
620.440	1	7
620.779	1	9
621.118	1	3
621.458	1	8
621.797	1	5
622.136	1	2
622.476	1	4
622.815	1	8
623.154	1	-7
623.494	1	-4
623.833	1	0
624.172	1	3
624.511	1	-8
624.851	1	-3
625.190	1	-2
625.529	1	-3
625.869	1	7
626.208	1	-5
626.547	1	-1
626.886	1	-5
627.226	1	-4
627.565	1	0
627.904	1	-4
628.243	1	3
628.583	1	8
628.922	1	1
629.261	1	6
629.600	1	2
629.940	1	11
630.279	1	11
630.618	1	-2
630.957	1	1
631.297	1	0
631.636	1	6
631.975	1	-8
632.314	1	2
632.653	1	-3
632.993	1	9
633.332	1	3
633.671	1	6
634.010	1	4
634.349	1	12
634.689	1	-8
635.028	1	0
635.367	1	8
635.706	1	2
636.045	1	-9
636.384	1	4
636.724	1	3
637.063	1	-8
637.402	1	5
637.741	1	-6
638.080	1	4
638.419	1	-4
638.759	1	9
639.098	1	7
639.437	1	0
639.776	1	-2
640.115	1	-9
640.454	1	-10
640.793	1	-1
641.132	1	10
641.472	1	15
641.811	1	-1
642.150	1	-2
642.489	1	2
642.828	1	11
643.167	1	7
643.506	1	1
643.845	1	7
644.184	1	5
644.524	1	-3
644.863	1	6
645.202	1	3
645.541	1	3
645.880	1	16
646.219	1	6
646.558	1	-9
646.897	1	-8
647.236	1	-12
647.575	1	9
647.914	1	-1
648.253	1	14
648.592	1	7
648.931	1	2
649.270	1	11
649.610	1	2
649.949	1	-4
650.288	1	4
650.627	1	1
650.966	1	10
651.305	1	-2
651.644	1	11
651.983	1	-14
652.322	1	3
652.661	1	5
653.000	1	3
653.339	1	1
653.678	1	6
654.017	1	9
654.356	1	3
654.695	1	14
655.034	1	2
655.373	1	2
655.712	1	12
656.051	1	-11
656.390	1	-3
656.729	1	3
657.068	1	-3
657.406	1	-4
657.745	1	14
658.084	1	-1
658.423	1	4
658.762	1	-6
659.101	1	2
659.440	1	3
659.779	1	3
660.118	1	4
660.457	1	6
660.796	1	11
661.135	1	12
661.474	1	-5
661.813	1	-6
662.152	1	0
662.491	1	-6
662.829	1	-5
663.168	1	-4
663.507	1	6
663.846	1	-5
664.185	1	2
664.524	1	11
664.863	1	-14
665.202	1	9
665.541	1	-6
665.879	1	8
666.218	1	-9
666.557	1	0
666.896	1	5
667.235	1	-3
667.574	1	4
667.913	1	5
668.251	1	-4
668.590	1	2
668.929	1	4
669.268	1	-1
669.607	1	-12
669.946	1	0
670.285	1	10
670.623	1	0
670.962	1	-9
671.301	1	0
671.640	1	7
671.979	1	-8
672.317	1	3
672.656	1	0
672.995	1	-3
673.334	1	-6
673.673	1	4
674.011	1	4
674.350	1	-2
674.689	1	-6
675.028	1	3
675.367	1	-1
675.705	1	-13
676.044	1	5
676.383	1	-1
676.722	1	-3
677.060	1	13
677.399	1	9
677.738	1	-5
678.077	1	-1
678.416	1	3
678.754	1	7
679.093	1	7
679.432	1	-10
679.771	1	-3
680.109	1	1
680.448	1	-11
680.787	1	-6
681.125	1	1
681.464	1	12
681.803	1	-2
682.142	1	-3
682.480	1	0
682.819	1	-5
683.158	1	-8
683.496	1	-6
683.835	1	5
684.174	1	-1
684.512	1	0
684.851	1	-8
685.190	1	-8
685.529	1	-10
685.867	1	2
686.206	1	-3
686.545	1	-7
686.883	1	10
687.222	1	-4
687.561	1	-1
687.899	1	-1
688.238	1	8
688.577	1	2
688.746	1	1