File: Data/GaN_150K_450ms/GaN_sample D_spot15_UVVIS_150 K_200um_450 ms 2x2mm1_89.txt
340.368	1	6
340.710	1	2
341.052	1	6
341.394	1	-6
341.737	1	12
342.079	1	6
342.421	1	6
342.763	1	6
343.105	1	18
343.447	1	8
343.789	1	0
344.131	1	-3
344.473	1	0
344.815	1	9
345.157	1	15
345.499	1	5
345.841	1	11
346.183	1	14
346.526	1	10
346.868	1	2
347.210	1	10
347.552	1	15
347.894	1	3
348.236	1	4
348.578	1	8
348.920	1	6
349.262	1	15
349.604	1	0
349.946	1	-1
350.288	1	3
350.630	1	4
350.972	1	15
351.314	1	-12
351.656	1	13
351.998	1	-1
352.340	1	6
352.682	1	-5
353.024	1	10
353.366	1	7
353.708	1	4
354.050	1	4
354.392	1	-1
354.734	1	7
355.076	1	18
355.418	1	9
355.760	1	18
356.102	1	10
356.444	1	17
356.785	1	19
357.127	1	15
357.469	1	19
357.811	1	9
358.153	1	9
358.495	1	12
358.837	1	26
359.179	1	32
359.521	1	24
359.863	1	20
360.205	1	43
360.547	1	44
360.889	1	25
361.231	1	34
361.572	1	46
361.914	1	41
362.256	1	43
362.598	1	51
362.940	1	62
363.282	1	50
363.624	1	59
363.966	1	54
364.308	1	63
364.649	1	62
364.991	1	90
365.333	1	82
365.675	1	90
366.017	1	107
366.359	1	94
366.701	1	108
367.042	1	123
367.384	1	113
367.726	1	120
368.068	1	136
368.410	1	120
368.752	1	133
369.093	1	132
369.435	1	133
369.777	1	129
370.119	1	109
370.461	1	86
370.803	1	88
371.144	1	90
371.486	1	90
371.828	1	85
372.170	1	86
372.512	1	74
372.853	1	82
373.195	1	67
373.537	1	58
373.879	1	59
374.220	1	68
374.562	1	59
374.904	1	47
375.246	1	56
375.588	1	56
375.929	1	49
376.271	1	45
376.613	1	41
376.955	1	45
377.296	1	44
377.638	1	37
377.980	1	36
378.321	1	45
378.663	1	36
379.005	1	18
379.347	1	24
379.688	1	40
380.030	1	40
380.372	1	31
380.714	1	30
381.055	1	28
381.397	1	22
381.739	1	17
382.080	1	33
382.422	1	25
382.764	1	21
383.105	1	25
383.447	1	20
383.789	1	14
384.130	1	30
384.472	1	10
384.814	1	28
385.156	1	27
385.497	1	35
385.839	1	20
386.180	1	5
386.522	1	25
386.864	1	17
387.205	1	30
387.547	1	33
387.889	1	11
388.230	1	9
388.572	1	11
388.914	1	23
389.255	1	13
389.597	1	15
389.939	1	17
390.280	1	18
390.622	1	20
390.963	1	12
391.305	1	17
391.647	1	13
391.988	1	13
392.330	1	11
392.671	1	19
393.013	1	20
393.355	1	23
393.696	1	12
394.038	1	16
394.379	1	12
394.721	1	17
395.062	1	-3
395.404	1	15
395.746	1	10
396.087	1	17
396.429	1	10
396.770	1	14
397.112	1	16
397.453	1	15
397.795	1	19
398.136	1	16
398.478	1	12
398.819	1	21
399.161	1	21
399.503	1	19
399.844	1	4
400.186	1	17
400.527	1	19
400.869	1	8
401.210	1	12
401.552	1	18
401.893	1	9
402.235	1	11
402.576	1	19
402.918	1	11
403.259	1	5
403.601	1	26
403.942	1	16
404.284	1	19
404.625	1	8
404.967	1	11
405.308	1	11
405.649	1	2
405.991	1	19
406.332	1	20
406.674	1	18
407.015	1	14
407.357	1	16
407.698	1	12
408.040	1	25
408.381	1	8
408.722	1	21
409.064	1	23
409.405	1	14
409.747	1	11
410.088	1	12
410.430	1	16
410.771	1	18
411.112	1	14
411.454	1	18
411.795	1	18
412.137	1	12
412.478	1	14
412.819	1	15
413.161	1	13
413.502	1	23
413.844	1	16
414.185	1	9
414.526	1	6
414.868	1	13
415.209	1	14
415.550	1	23
415.892	1	13
416.233	1	14
416.575	1	9
416.916	1	8
417.257	1	12
417.599	1	20
417.940	1	13
418.281	1	17
418.623	1	21
418.964	1	28
419.305	1	19
419.647	1	18
419.988	1	30
420.329	1	24
420.671	1	22
421.012	1	0
421.353	1	13
421.695	1	20
422.036	1	28
422.377	1	7
422.718	1	24
423.060	1	22
423.401	1	12
423.742	1	18
424.084	1	25
424.425	1	20
424.766	1	12
425.107	1	14
425.449	1	16
425.790	1	9
426.131	1	10
426.472	1	14
426.814	1	17
427.155	1	15
427.496	1	22
427.837	1	-1
428.179	1	18
428.520	1	22
428.861	1	16
429.202	1	6
429.544	1	13
429.885	1	19
430.226	1	3
430.567	1	2
430.909	1	11
431.250	1	21
431.591	1	20
431.932	1	10
432.273	1	19
432.615	1	21
432.956	1	17
433.297	1	18
433.638	1	19
433.979	1	23
434.320	1	11
434.662	1	18
435.003	1	27
435.344	1	19
435.685	1	14
436.026	1	5
436.368	1	5
436.709	1	6
437.050	1	16
437.391	1	16
437.732	1	13
438.073	1	7
438.414	1	10
438.756	1	7
439.097	1	9
439.438	1	15
439.779	1	13
440.120	1	4
440.461	1	18
440.802	1	15
441.143	1	21
441.485	1	4
441.826	1	25
442.167	1	10
442.508	1	17
442.849	1	16
443.190	1	20
443.531	1	13
443.872	1	0
444.213	1	10
444.554	1	12
444.895	1	7
445.237	1	27
445.578	1	8
445.919	1	4
446.260	1	19
446.601	1	20
446.942	1	8
447.283	1	25
447.624	1	-4
447.965	1	15
448.306	1	14
448.647	1	12
448.988	1	19
449.329	1	13
449.670	1	22
450.011	1	9
450.352	1	9
450.693	1	15
451.034	1	-2
451.375	1	10
451.716	1	11
452.057	1	6
452.398	1	5
452.739	1	10
453.080	1	14
453.421	1	17
453.762	1	17
454.103	1	6
454.444	1	9
454.785	1	11
455.126	1	7
455.467	1	11
455.808	1	17
456.149	1	1
456.490	1	8
456.831	1	5
457.172	1	12
457.513	1	15
457.854	1	9
458.195	1	9
458.536	1	9
458.877	1	15
459.218	1	12
459.559	1	15
459.899	1	7
460.240	1	3
460.581	1	0
460.922	1	6
461.263	1	7
461.604	1	5
461.945	1	12
462.286	1	-2
462.627	1	12
462.968	1	7
463.309	1	15
463.649	1	7
463.990	1	7
464.331	1	17
464.672	1	19
465.013	1	10
465.354	1	18
465.695	1	7
466.036	1	18
466.376	1	18
466.717	1	4
467.058	1	6
467.399	1	5
467.740	1	19
468.081	1	15
468.422	1	14
468.762	1	6
469.103	1	4
469.444	1	13
469.785	1	2
470.126	1	12
470.467	1	14
470.807	1	6
471.148	1	4
471.489	1	13
471.830	1	10
472.171	1	14
472.511	1	7
472.852	1	11
473.193	1	8
473.534	1	3
473.875	1	12
474.215	1	11
474.556	1	0
474.897	1	1
475.238	1	15
475.578	1	5
475.919	1	4
476.260	1	5
476.601	1	7
476.942	1	7
477.282	1	4
477.623	1	13
477.964	1	16
478.305	1	12
478.645	1	10
478.986	1	15
479.327	1	4
479.667	1	10
480.008	1	2
480.349	1	11
480.690	1	13
481.030	1	10
481.371	1	-2
481.712	1	24
482.053	1	17
482.393	1	18
482.734	1	19
483.075	1	12
483.415	1	6
483.756	1	6
484.097	1	15
484.437	1	8
484.778	1	-3
485.119	1	11
485.459	1	10
485.800	1	14
486.141	1	7
486.481	1	-7
486.822	1	28
487.163	1	9
487.503	1	16
487.844	1	8
488.185	1	16
488.525	1	8
488.866	1	16
489.207	1	17
489.547	1	6
489.888	1	25
490.228	1	14
490.569	1	3
490.910	1	18
491.250	1	18
491.591	1	11
491.932	1	19
492.272	1	0
492.613	1	8
492.953	1	10
493.294	1	-1
493.635	1	20
493.975	1	30
494.316	1	7
494.656	1	17
494.997	1	12
495.337	1	11
495.678	1	11
496.019	1	7
496.359	1	11
496.700	1	14
497.040	1	7
497.381	1	16
497.721	1	10
498.062	1	18
498.403	1	21
498.743	1	21
499.084	1	16
499.424	1	24
499.765	1	15
500.105	1	27
500.446	1	15
500.786	1	4
501.127	1	27
501.467	1	30
501.808	1	24
502.148	1	15
502.489	1	20
502.829	1	16
503.170	1	20
503.510	1	17
503.851	1	28
504.191	1	19
504.532	1	30
504.872	1	17
505.213	1	7
505.553	1	16
505.894	1	26
506.234	1	35
506.575	1	32
506.915	1	26
507.256	1	30
507.596	1	26
507.936	1	27
508.277	1	40
508.617	1	27
508.958	1	38
509.298	1	14
509.639	1	16
509.979	1	17
510.319	1	29
510.660	1	18
511.000	1	27
511.341	1	38
511.681	1	26
512.022	1	18
512.362	1	27
512.702	1	17
513.043	1	37
513.383	1	25
513.724	1	27
514.064	1	25
514.404	1	33
514.745	1	29
515.085	1	29
515.425	1	39
515.766	1	31
516.106	1	17
516.447	1	32
516.787	1	17
517.127	1	43
517.468	1	43
517.808	1	24
518.148	1	39
518.489	1	30
518.829	1	34
519.169	1	39
519.510	1	28
519.850	1	30
520.190	1	31
520.531	1	29
520.871	1	31
521.211	1	31
521.552	1	42
521.892	1	24
522.232	1	34
522.573	1	35
522.913	1	32
523.253	1	38
523.593	1	37
523.934	1	45
524.274	1	33
524.614	1	45
524.955	1	36
525.295	1	40
525.635	1	34
525.975	1	27
526.316	1	28
526.656	1	40
526.996	1	33
527.337	1	33
527.677	1	46
528.017	1	27
528.357	1	43
528.698	1	42
529.038	1	31
529.378	1	34
529.718	1	25
530.058	1	37
530.399	1	34
530.739	1	38
531.079	1	23
531.419	1	39
531.760	1	42
532.100	1	49
532.440	1	35
532.780	1	40
533.120	1	27
533.461	1	40
533.801	1	30
534.141	1	33
534.481	1	42
534.821	1	34
535.162	1	27
535.502	1	38
535.842	1	34
536.182	1	27
536.522	1	23
536.862	1	33
537.203	1	27
537.543	1	34
537.883	1	34
538.223	1	31
538.563	1	34
538.903	1	31
539.243	1	26
539.584	1	26
539.924	1	32
540.264	1	40
540.604	1	41
540.944	1	29
541.284	1	35
541.624	1	22
541.964	1	35
542.305	1	38
542.645	1	24
542.985	1	32
543.325	1	36
543.665	1	30
544.005	1	31
544.345	1	38
544.685	1	22
545.025	1	39
545.365	1	25
545.705	1	33
546.045	1	31
546.386	1	22
546.726	1	30
547.066	1	35
547.406	1	19
547.746	1	20
548.086	1	30
548.426	1	27
548.766	1	34
549.106	1	30
549.446	1	31
549.786	1	28
550.126	1	38
550.466	1	24
550.806	1	34
551.146	1	33
551.486	1	26
551.826	1	24
552.166	1	21
552.506	1	32
552.846	1	33
553.186	1	11
553.526	1	25
553.866	1	28
554.206	1	27
554.546	1	34
554.886	1	26
555.226	1	26
555.566	1	28
555.906	1	28
556.246	1	22
556.586	1	14
556.926	1	21
557.266	1	31
557.606	1	20
557.946	1	25
558.286	1	11
558.626	1	23
558.966	1	17
559.306	1	28
559.646	1	29
559.986	1	27
560.325	1	24
560.665	1	21
561.005	1	20
561.345	1	13
561.685	1	24
562.025	1	24
562.365	1	15
562.705	1	19
563.045	1	19
563.385	1	20
563.725	1	14
564.064	1	13
564.404	1	7
564.744	1	22
565.084	1	20
565.424	1	17
565.764	1	17
566.104	1	20
566.444	1	24
566.783	1	21
567.123	1	16
567.463	1	18
567.803	1	17
568.143	1	22
568.483	1	26
568.823	1	11
569.162	1	5
569.502	1	25
569.842	1	17
570.182	1	17
570.522	1	11
570.862	1	10
571.201	1	30
571.541	1	11
571.881	1	16
572.221	1	9
572.561	1	28
572.900	1	22
573.240	1	14
573.580	1	13
573.920	1	23
574.260	1	23
574.599	1	18
574.939	1	12
575.279	1	13
575.619	1	13
575.959	1	15
576.298	1	9
576.638	1	18
576.978	1	25
577.318	1	15
577.657	1	10
577.997	1	23
578.337	1	10
578.677	1	12
579.016	1	22
579.356	1	11
579.696	1	20
580.036	1	17
580.375	1	11
580.715	1	14
581.055	1	14
581.394	1	14
581.734	1	8
582.074	1	10
582.414	1	13
582.753	1	5
583.093	1	11
583.433	1	18
583.772	1	14
584.112	1	19
584.452	1	17
584.791	1	18
585.131	1	22
585.471	1	19
585.811	1	15
586.150	1	18
586.490	1	13
586.830	1	14
587.169	1	5
587.509	1	16
587.849	1	20
588.188	1	22
588.528	1	5
588.867	1	12
589.207	1	17
589.547	1	14
589.886	1	13
590.226	1	3
590.566	1	7
590.905	1	19
591.245	1	4
591.585	1	11
591.924	1	9
592.264	1	7
592.603	1	2
592.943	1	11
593.283	1	13
593.622	1	6
593.962	1	9
594.301	1	11
594.641	1	7
594.981	1	12
595.320	1	20
595.660	1	14
595.999	1	8
596.339	1	12
596.678	1	5
597.018	1	-1
597.358	1	11
597.697	1	2
598.037	1	10
598.376	1	1
598.716	1	14
599.055	1	12
599.395	1	3
599.734	1	13
600.074	1	-5
600.413	1	9
600.753	1	7
601.092	1	-4
601.432	1	1
601.771	1	17
602.111	1	9
602.451	1	-3
602.790	1	5
603.130	1	10
603.469	1	13
603.809	1	7
604.148	1	-8
604.487	1	10
604.827	1	6
605.166	1	7
605.506	1	5
605.845	1	18
606.185	1	9
606.524	1	7
606.864	1	21
607.203	1	2
607.543	1	7
607.882	1	17
608.222	1	8
608.561	1	3
608.901	1	7
609.240	1	10
609.579	1	8
609.919	1	8
610.258	1	22
610.598	1	7
610.937	1	7
611.277	1	4
611.616	1	12
611.955	1	9
612.295	1	13
612.634	1	12
612.974	1	7
613.313	1	7
613.652	1	20
613.992	1	-3
614.331	1	17
614.671	1	10
615.010	1	16
615.349	1	6
615.689	1	7
616.028	1	28
616.368	1	7
616.707	1	13
617.046	1	-1
617.386	1	17
617.725	1	6
618.064	1	3
618.404	1	4
618.743	1	14
619.082	1	13
619.422	1	23
619.761	1	1
620.100	1	7
620.440	1	12
620.779	1	7
621.118	1	17
621.458	1	2
621.797	1	7
622.136	1	6
622.476	1	11
622.815	1	12
623.154	1	0
623.494	1	-6
623.833	1	10
624.172	1	5
624.511	1	7
624.851	1	7
625.190	1	0
625.529	1	0
625.869	1	4
626.208	1	12
626.547	1	8
626.886	1	-4
627.226	1	10
627.565	1	9
627.904	1	9
628.243	1	15
628.583	1	9
628.922	1	7
629.261	1	12
629.600	1	7
629.940	1	9
630.279	1	9
630.618	1	5
630.957	1	8
631.297	1	4
631.636	1	4
631.975	1	5
632.314	1	7
632.653	1	13
632.993	1	13
633.332	1	7
633.671	1	12
634.010	1	4
634.349	1	18
634.689	1	-1
635.028	1	0
635.367	1	17
635.706	1	0
636.045	1	8
636.384	1	12
636.724	1	10
637.063	1	-1
637.402	1	19
637.741	1	4
638.080	1	11
638.419	1	-2
638.759	1	7
639.098	1	7
639.437	1	10
639.776	1	4
640.115	1	4
640.454	1	1
640.793	1	3
641.132	1	-2
641.472	1	19
641.811	1	2
642.150	1	6
642.489	1	15
642.828	1	18
643.167	1	6
643.506	1	8
643.845	1	15
644.184	1	16
644.524	1	12
644.863	1	6
645.202	1	7
645.541	1	15
645.880	1	14
646.219	1	6
646.558	1	-7
646.897	1	-3
647.236	1	-3
647.575	1	7
647.914	1	16
648.253	1	15
648.592	1	9
648.931	1	11
649.270	1	17
649.610	1	14
649.949	1	-3
650.288	1	6
650.627	1	0
650.966	1	15
651.305	1	5
651.644	1	18
651.983	1	-2
652.322	1	7
652.661	1	18
653.000	1	6
653.339	1	6
653.678	1	16
654.017	1	8
654.356	1	11
654.695	1	17
655.034	1	-3
655.373	1	8
655.712	1	11
656.051	1	0
656.390	1	5
656.729	1	17
657.068	1	5
657.406	1	4
657.745	1	16
658.084	1	0
658.423	1	10
658.762	1	13
659.101	1	3
659.440	1	4
659.779	1	13
660.118	1	4
660.457	1	4
660.796	1	17
661.135	1	9
661.474	1	1
661.813	1	-4
662.152	1	6
662.491	1	5
662.829	1	9
663.168	1	-2
663.507	1	12
663.846	1	8
664.185	1	3
664.524	1	11
664.863	1	-1
665.202	1	8
665.541	1	1
665.879	1	3
666.218	1	7
666.557	1	0
666.896	1	9
667.235	1	1
667.574	1	8
667.913	1	10
668.251	1	6
668.590	1	3
668.929	1	-4
669.268	1	-4
669.607	1	-5
669.946	1	9
670.285	1	2
670.623	1	10
670.962	1	11
671.301	1	3
671.640	1	11
671.979	1	6
672.317	1	9
672.656	1	6
672.995	1	4
673.334	1	2
673.673	1	16
674.011	1	9
674.350	1	8
674.689	1	-1
675.028	1	12
675.367	1	11
675.705	1	-4
676.044	1	8
676.383	1	-5
676.722	1	10
677.060	1	9
677.399	1	20
677.738	1	14
678.077	1	-1
678.416	1	4
678.754	1	10
679.093	1	11
679.432	1	7
679.771	1	5
680.109	1	2
680.448	1	4
680.787	1	-4
681.125	1	5
681.464	1	9
681.803	1	7
682.142	1	2
682.480	1	0
682.819	1	-5
683.158	1	2
683.496	1	11
683.835	1	8
684.174	1	6
684.512	1	7
684.851	1	2
685.190	1	5
685.529	1	2
685.867	1	7
686.206	1	-4
686.545	1	13
686.883	1	19
687.222	1	4
687.561	1	0
687.899	1	10
688.238	1	13
688.577	1	7
688.746	1	-1